sep=,
PacketCounter,SampleTimeFine,Euler_X,Euler_Y,Euler_Z,Acc_X,Acc_Y,Acc_Z,Gyr_X,Gyr_Y,Gyr_Z,Mag_X,Mag_Y,Mag_Z,Status,
0, 2939427058, -93.74459075927734, -43.15424728393555, 62.86735153198242, 0, 0, 0, 0, 0, 0, -1.05029296875, 0.30419921875, -0.6884765625, 0, 
1, 2939435391, -93.74388885498047, -43.1509895324707, 62.8643913269043, 6.700504302978516, -7.441803932189941, -1.168352484703064, 1.4539793729782104, -0.9789506196975708, 0.3738269805908203, -1.052734375, 0.3095703125, -0.67822265625, 0, 
2, 2939443724, -93.74510955810547, -43.15219497680664, 62.86530685424805, 5.96274995803833, -7.573246002197266, 0.36213934421539307, 1.5440388917922974, -1.2772026062011719, -0.17671260237693787, -1.04736328125, 0.3076171875, -0.68408203125, 0, 
3, 2939452057, -93.74829864501953, -43.153045654296875, 62.87109375, 6.9368977546691895, -7.008293151855469, 0.04852097108960152, 1.7090202569961548, -1.705216646194458, -0.1608573943376541, -1.0498046875, 0.31005859375, -0.67724609375, 0, 
4, 2939460390, -93.74510192871094, -43.15233612060547, 62.86577224731445, 7.447547435760498, -6.992086887359619, -1.355162262916565, 1.5587925910949707, -0.7519571185112, 0.07931447774171829, -1.04296875, 0.31005859375, -0.677734375, 0, 
5, 2939468723, -93.74394989013672, -43.15031433105469, 62.86347198486328, 6.407846927642822, -7.525578498840332, -0.6067638993263245, 1.5661951303482056, -1.0212138891220093, 0.22967001795768738, -1.04248046875, 0.31103515625, -0.67822265625, 0, 
6, 2939477056, -93.74649810791016, -43.1535530090332, 62.8673095703125, 6.129848957061768, -7.261842727661133, 0.3379235565662384, 1.6213170289993286, -1.5214853286743164, -0.44394588470458984, -1.0439453125, 0.31494140625, -0.6669921875, 0, 
7, 2939485389, -93.74771118164062, -43.15320587158203, 62.86992645263672, 7.276252269744873, -6.740002155303955, -0.4437771141529083, 1.6828936338424683, -1.4417482614517212, -0.008631996810436249, -1.03857421875, 0.3115234375, -0.67529296875, 0, 
8, 2939493722, -93.74451446533203, -43.150657653808594, 62.864036560058594, 7.121735572814941, -7.148751735687256, -1.4043147563934326, 1.5145312547683716, -0.7138174772262573, 0.3127882480621338, -1.0419921875, 0.31689453125, -0.67333984375, 0, 
9, 2939502055, -93.7461166381836, -43.150062561035156, 62.86491775512695, 6.129461288452148, -7.685165882110596, -0.12007340788841248, 1.4975489377975464, -1.2869360446929932, 0.03794748708605766, -1.0361328125, 0.31298828125, -0.6689453125, 0, 
10, 2939510388, -93.74708557128906, -43.152950286865234, 62.86941146850586, 6.530484199523926, -7.227672576904297, 0.27513018250465393, 1.8636019229888916, -1.5798602104187012, -0.4044487476348877, -1.0380859375, 0.3154296875, -0.67724609375, 0, 
11, 2939518721, -93.744873046875, -43.15312194824219, 62.86723327636719, 7.547703266143799, -6.769451141357422, -0.8705986738204956, 1.7035130262374878, -1.0152969360351562, -0.0319153368473053, -1.0400390625, 0.31640625, -0.67138671875, 0, 
12, 2939527054, -93.74151611328125, -43.1507568359375, 62.86270523071289, 6.785364151000977, -7.282727241516113, -1.1377366781234741, 1.6409887075424194, -0.8335384130477905, 0.27037104964256287, -1.03515625, 0.31591796875, -0.67138671875, 0, 
13, 2939535387, -93.74226379394531, -43.15232467651367, 62.86282730102539, 5.927732467651367, -7.446418762207031, 0.1927625983953476, 1.5327943563461304, -1.2085821628570557, -0.22056418657302856, -1.037109375, 0.31884765625, -0.66455078125, 0, 
14, 2939543720, -93.74427795410156, -43.15361404418945, 62.8669319152832, 6.8318586349487305, -6.989560604095459, 0.04690283164381981, 1.7119275331497192, -1.5554629564285278, -0.20326177775859833, -1.03271484375, 0.31884765625, -0.66845703125, 0, 
15, 2939552053, -93.74097442626953, -43.152748107910156, 62.862030029296875, 7.47640323638916, -6.970764636993408, -1.2114877700805664, 1.6108150482177734, -0.783974826335907, 0.10398098081350327, -1.03466796875, 0.3203125, -0.669921875, 0, 
16, 2939560386, -93.73934173583984, -43.15095520019531, 62.85965347290039, 6.4471964836120605, -7.599245548248291, -0.7338333129882812, 1.6120574474334717, -1.0178200006484985, 0.19428396224975586, -1.03076171875, 0.3203125, -0.6650390625, 0, 
17, 2939568719, -93.73961639404297, -43.153987884521484, 62.862464904785156, 6.130290508270264, -7.356485843658447, 0.37111538648605347, 1.8123352527618408, -1.4301323890686035, -0.40389806032180786, -1.02978515625, 0.3193359375, -0.6689453125, 0, 
18, 2939577052, -93.7394027709961, -43.15447998046875, 62.86472702026367, 7.263242244720459, -6.757272720336914, -0.2934093475341797, 1.8249629735946655, -1.403749704360962, -0.10656802356243134, -1.03466796875, 0.32275390625, -0.6640625, 0, 
19, 2939585385, -93.73617553710938, -43.15149688720703, 62.85979461669922, 7.210541248321533, -7.004939079284668, -1.3539546728134155, 1.5932308435440063, -0.8036849498748779, 0.3521444797515869, -1.02734375, 0.3203125, -0.66796875, 0, 
20, 2939593718, -93.73603820800781, -43.14961624145508, 62.85907745361328, 6.090601444244385, -7.638702392578125, -0.26471972465515137, 1.5759541988372803, -1.1574815511703491, 0.20057225227355957, -1.0322265625, 0.32470703125, -0.6669921875, 0, 
21, 2939602051, -93.73841857910156, -43.15188980102539, 62.86323928833008, 6.334311485290527, -7.296683311462402, 0.24131245911121368, 1.6714951992034912, -1.5515053272247314, -0.32340532541275024, -1.02685546875, 0.32470703125, -0.66796875, 0, 
22, 2939610384, -93.73914337158203, -43.15229797363281, 62.86509704589844, 7.513066291809082, -6.803025245666504, -0.6962921023368835, 1.6745433807373047, -1.372385025024414, -0.09075123071670532, -1.03173828125, 0.32666015625, -0.671875, 0, 
23, 2939618717, -93.73653411865234, -43.1497802734375, 62.85971450805664, 6.910572052001953, -7.2244439125061035, -1.1910526752471924, 1.488033413887024, -0.7540703415870667, 0.3039897680282593, -1.0263671875, 0.328125, -0.671875, 0, 
24, 2939627050, -93.73762512207031, -43.15000534057617, 62.86051940917969, 6.002161026000977, -7.596373081207275, 0.13453619182109833, 1.5472534894943237, -1.2801097631454468, -0.06453506648540497, -1.02734375, 0.326171875, -0.6748046875, 0, 
25, 2939635383, -93.7402114868164, -43.15155792236328, 62.86526107788086, 6.728602886199951, -7.01257848739624, 0.07387050986289978, 1.6907188892364502, -1.6126595735549927, -0.24847087264060974, -1.02783203125, 0.32861328125, -0.67529296875, 0, 
26, 2939643716, -93.7393798828125, -43.150936126708984, 62.86314392089844, 7.544556140899658, -6.772101879119873, -1.1601070165634155, 1.541080355644226, -1.0276814699172974, 0.061704691499471664, -1.02490234375, 0.3271484375, -0.67333984375, 0, 
27, 2939652049, -93.73762512207031, -43.14738082885742, 62.85917282104492, 6.438479900360107, -7.49246883392334, -0.8170802593231201, 1.5014551877975464, -0.8876228332519531, 0.42230188846588135, -1.0263671875, 0.330078125, -0.671875, 0, 
28, 2939660382, -93.7401351928711, -43.1491813659668, 62.862403869628906, 5.996106147766113, -7.5100531578063965, 0.4177035689353943, 1.5759925842285156, -1.4788250923156738, -0.2691415548324585, -1.0244140625, 0.32763671875, -0.68017578125, 0, 
29, 2939668715, -93.74308776855469, -43.150672912597656, 62.86784362792969, 7.238786697387695, -6.941262722015381, -0.24560856819152832, 1.7082390785217285, -1.6684986352920532, -0.2371494024991989, -1.025390625, 0.32763671875, -0.6826171875, 0, 
30, 2939677048, -93.74009704589844, -43.1491813659668, 62.863101959228516, 7.4145989418029785, -6.966529369354248, -1.426061749458313, 1.5796682834625244, -0.8099732995033264, 0.1721404641866684, -1.0283203125, 0.32958984375, -0.67626953125, 0, 
31, 2939685381, -93.73875427246094, -43.14704513549805, 62.8602180480957, 6.151474952697754, -7.55579948425293, -0.313748836517334, 1.535457968711853, -0.9745959639549255, 0.23809711635112762, -1.02392578125, 0.3310546875, -0.685546875, 0, 
32, 2939693714, -93.7406234741211, -43.150238037109375, 62.86333465576172, 6.145410060882568, -7.267178535461426, 0.3402515649795532, 1.647725224494934, -1.4539663791656494, -0.42793700098991394, -1.02734375, 0.33349609375, -0.68505859375, 0, 
33, 2939702047, -93.74296569824219, -43.15054702758789, 62.86588668823242, 7.4323883056640625, -6.771393775939941, -0.6575301289558411, 1.5457677841186523, -1.426059603691101, -0.07803376764059067, -1.025390625, 0.33056640625, -0.68505859375, 0, 
34, 2939710380, -93.73992919921875, -43.14742660522461, 62.859981536865234, 7.104348659515381, -7.2137346267700195, -1.24278724193573, 1.4898263216018677, -0.7218987345695496, 0.37553027272224426, -1.02783203125, 0.333984375, -0.6884765625, 0, 
35, 2939718713, -93.7406997680664, -43.147621154785156, 62.85948181152344, 5.982378005981445, -7.771423816680908, 0.04417536407709122, 1.483819842338562, -1.1614261865615845, -0.046822819858789444, -1.0263671875, 0.3310546875, -0.681640625, 0, 
36, 2939727046, -93.74393463134766, -43.151248931884766, 62.86616897583008, 6.5579094886779785, -7.140854835510254, 0.11400546133518219, 1.7712630033493042, -1.7645134925842285, -0.5059836506843567, -1.02392578125, 0.33251953125, -0.68701171875, 0, 
37, 2939735379, -93.7432861328125, -43.1514892578125, 62.86579895019531, 7.637523651123047, -6.586164474487305, -1.1035997867584229, 1.6577404737472534, -1.1768205165863037, -0.061627842485904694, -1.0263671875, 0.33642578125, -0.68505859375, 0, 
38, 2939743712, -93.74242401123047, -43.1483268737793, 62.86238479614258, 6.6685075759887695, -7.20928430557251, -0.9623124003410339, 1.4408905506134033, -0.9333059787750244, 0.37042030692100525, -1.021484375, 0.333984375, -0.693359375, 0, 
39, 2939752045, -93.74446105957031, -43.14841842651367, 62.864051818847656, 5.877048969268799, -7.689314365386963, 0.3821849226951599, 1.508614420890808, -1.3503313064575195, -0.0464642271399498, -1.029296875, 0.3330078125, -0.685546875, 0, 
40, 2939760378, -93.74613952636719, -43.150123596191406, 62.8681755065918, 6.951898097991943, -7.115596771240234, -0.19754141569137573, 1.751539707183838, -1.557960033416748, -0.2616237699985504, -1.02490234375, 0.333984375, -0.69091796875, 0, 
41, 2939768711, -93.74268341064453, -43.15020751953125, 62.8630256652832, 7.606380939483643, -6.888873100280762, -1.3336361646652222, 1.6065375804901123, -0.7563114762306213, -0.007504970766603947, -1.0244140625, 0.33447265625, -0.6962890625, 0, 
42, 2939777044, -93.74040985107422, -43.148719787597656, 62.8591194152832, 6.232141017913818, -7.496453762054443, -0.47886449098587036, 1.564760684967041, -0.8832300305366516, 0.16609549522399902, -1.02685546875, 0.33642578125, -0.68701171875, 0, 
43, 2939785377, -93.74453735351562, -43.151222229003906, 62.8651237487793, 6.026106834411621, -7.349905014038086, 0.4530315101146698, 1.6066657304763794, -1.716281771659851, -0.36746183037757874, -1.02392578125, 0.3330078125, -0.69873046875, 0, 
44, 2939793710, -93.74579620361328, -43.15325927734375, 62.86840057373047, 7.448979377746582, -6.76190710067749, -0.6260866522789001, 1.7366578578948975, -1.4747908115386963, -0.2890053689479828, -1.02880859375, 0.33642578125, -0.689453125, 0, 
45, 2939802043, -93.74315643310547, -43.151248931884766, 62.86373519897461, 7.324601173400879, -7.020718097686768, -1.3758858442306519, 1.5500071048736572, -0.8160183429718018, 0.23958279192447662, -1.02294921875, 0.33447265625, -0.69775390625, 0, 
46, 2939810376, -93.74317169189453, -43.14957809448242, 62.862144470214844, 5.958473205566406, -7.6971282958984375, -0.04081351310014725, 1.4805667400360107, -1.085070252418518, 0.17372854053974152, -1.02685546875, 0.3359375, -0.703125, 0, 
47, 2939818709, -93.74500274658203, -43.151702880859375, 62.86588668823242, 6.3372368812561035, -7.326616287231445, 0.2829098403453827, 1.703589916229248, -1.5163370370864868, -0.3001219928264618, -1.0263671875, 0.3349609375, -0.697265625, 0, 
48, 2939827042, -93.74445343017578, -43.15202331542969, 62.864994049072266, 7.611758232116699, -6.769314765930176, -0.9106541275978088, 1.604283332824707, -1.131098985671997, -0.06803140789270401, -1.0244140625, 0.3359375, -0.701171875, 0, 
49, 2939835375, -93.74310302734375, -43.14933776855469, 62.86189270019531, 6.941619396209717, -7.234750270843506, -1.086240530014038, 1.5191161632537842, -0.9598678350448608, 0.30489903688430786, -1.03076171875, 0.337890625, -0.69677734375, 0, 
50, 2939843708, -93.74327850341797, -43.14909362792969, 62.86167907714844, 5.812875747680664, -7.587178707122803, 0.2245279848575592, 1.5793607234954834, -1.19144606590271, 0.0038037137128412724, -1.02734375, 0.33447265625, -0.701171875, 0, 
51, 2939852041, -93.74661254882812, -43.15110778808594, 62.86827850341797, 6.779095649719238, -6.95272159576416, -0.05635605752468109, 1.7567906379699707, -1.7666393518447876, -0.30519357323646545, -1.0302734375, 0.33984375, -0.7021484375, 0, 
52, 2939860374, -93.74468231201172, -43.14985275268555, 62.86470031738281, 7.671114444732666, -6.7139787673950195, -1.2539308071136475, 1.5497380495071411, -0.9077300429344177, 0.13626772165298462, -1.02880859375, 0.33642578125, -0.70263671875, 0, 
53, 2939868707, -93.74471282958984, -43.147281646728516, 62.861427307128906, 6.377738952636719, -7.582936763763428, -0.6800496578216553, 1.3448753356933594, -0.9411054253578186, 0.2995072305202484, -1.0283203125, 0.33544921875, -0.70849609375, 0, 
54, 2939877040, -93.745361328125, -43.15000915527344, 62.86241912841797, 5.989139556884766, -7.652706146240234, 0.43276771903038025, 1.615566611289978, -1.275729775428772, -0.3664756715297699, -1.0302734375, 0.3359375, -0.70458984375, 0, 
55, 2939885373, -93.74810028076172, -43.15164566040039, 62.86784744262695, 7.3139472007751465, -6.857494354248047, -0.44672226905822754, 1.7273601293563843, -1.6726864576339722, -0.2598308026790619, -1.02685546875, 0.33447265625, -0.71533203125, 0, 
56, 2939893706, -93.7446517944336, -43.15013885498047, 62.86276626586914, 7.3809309005737305, -6.890410423278809, -1.4038636684417725, 1.6140168905258179, -0.7754709124565125, 0.1804138571023941, -1.03173828125, 0.3369140625, -0.70654296875, 0, 
57, 2939902039, -93.74344635009766, -43.14899444580078, 62.85995101928711, 5.994408130645752, -7.505320072174072, -0.2843361496925354, 1.5296180248260498, -0.9697292447090149, 0.12841695547103882, -1.0302734375, 0.3349609375, -0.70751953125, 0, 
58, 2939910372, -93.74729919433594, -43.1513786315918, 62.86540222167969, 6.227048397064209, -7.2139506340026855, 0.412704199552536, 1.597111463546753, -1.6682294607162476, -0.35081255435943604, -1.03076171875, 0.33740234375, -0.7109375, 0, 
59, 2939918705, -93.74717712402344, -43.15045928955078, 62.8658332824707, 7.601449489593506, -6.870005130767822, -0.8098402619361877, 1.666782259941101, -1.250307559967041, 0.08169659972190857, -1.03173828125, 0.33837890625, -0.7109375, 0, 
60, 2939927038, -93.74449920654297, -43.1485481262207, 62.86061477661133, 6.993339538574219, -7.4007344245910645, -1.295952320098877, 1.5052590370178223, -0.771910548210144, 0.2245984524488449, -1.029296875, 0.33642578125, -0.71484375, 0, 
61, 2939935371, -93.7431640625, -43.1502799987793, 62.85984420776367, 5.915946960449219, -7.618654727935791, 0.19666117429733276, 1.7082901000976562, -1.1315473318099976, -0.2370213270187378, -1.0341796875, 0.33984375, -0.7158203125, 0, 
62, 2939943704, -93.74807739257812, -43.152381896972656, 62.86750030517578, 6.687587738037109, -6.935002326965332, 0.17131386697292328, 1.6554993391036987, -1.8570194244384766, -0.3214971125125885, -1.0302734375, 0.337890625, -0.71630859375, 0, 
63, 2939952037, -93.74478912353516, -43.15104675292969, 62.861995697021484, 7.533837795257568, -6.694501876831055, -1.1458687782287598, 1.559266448020935, -0.736626923084259, 0.16495566070079803, -1.03564453125, 0.34033203125, -0.71630859375, 0, 
64, 2939960370, -93.74276733398438, -43.14737319946289, 62.85791015625, 6.515685558319092, -7.467525005340576, -0.9473166465759277, 1.5196669101715088, -0.8838319182395935, 0.4277833104133606, -1.03173828125, 0.3369140625, -0.71630859375, 0, 
65, 2939968703, -93.74372100830078, -43.14961624145508, 62.859466552734375, 5.997926712036133, -7.57853364944458, 0.30721545219421387, 1.6300002336502075, -1.3244096040725708, -0.30396413803100586, -1.02978515625, 0.33642578125, -0.72265625, 0, 
66, 2939977036, -93.74718475341797, -43.15134811401367, 62.86528015136719, 7.13715934753418, -6.942449569702148, -0.20855213701725006, 1.673608422279358, -1.706304907798767, -0.27457180619239807, -1.0361328125, 0.33837890625, -0.7177734375, 0, 
67, 2939985369, -93.74295043945312, -43.14912414550781, 62.85893630981445, 7.379002571105957, -7.029381275177002, -1.3304466009140015, 1.6005696058273315, -0.6738080978393555, 0.2706016004085541, -1.03076171875, 0.33642578125, -0.7275390625, 0, 
68, 2939993702, -93.74296569824219, -43.1484260559082, 62.858177185058594, 6.215042591094971, -7.5612006187438965, -0.4382341802120209, 1.5503911972045898, -1.1458014249801636, 0.060564856976270676, -1.0390625, 0.33984375, -0.71875, 0, 
69, 2940002035, -93.74493408203125, -43.15131759643555, 62.861839294433594, 6.252151012420654, -7.192627429962158, 0.3851693570613861, 1.6820098161697388, -1.5043370723724365, -0.39354994893074036, -1.03076171875, 0.33544921875, -0.72314453125, 0, 
70, 2940010368, -93.74530792236328, -43.150760650634766, 62.86311340332031, 7.41462516784668, -6.776388168334961, -0.7011138200759888, 1.6726610660552979, -1.3240126371383667, 0.023360183462500572, -1.0361328125, 0.3369140625, -0.73095703125, 0, 
71, 2940018701, -93.74412536621094, -43.14857864379883, 62.859153747558594, 6.96481990814209, -7.279480934143066, -1.3376199007034302, 1.4342561960220337, -0.877774178981781, 0.25822991132736206, -1.0361328125, 0.3388671875, -0.71826171875, 0, 
72, 2940027034, -93.74552917480469, -43.14879608154297, 62.86058044433594, 6.023960113525391, -7.561715126037598, 0.057330597192049026, 1.5596634149551392, -1.3338356018066406, -0.06839000433683395, -1.03369140625, 0.3369140625, -0.73193359375, 0, 
73, 2940035367, -93.74895477294922, -43.150108337402344, 62.86654281616211, 6.68630313873291, -7.082040309906006, 0.2970397174358368, 1.6905268430709839, -1.7215328216552734, -0.22514912486076355, -1.0400390625, 0.33935546875, -0.7294921875, 0, 
74, 2940043700, -93.74547576904297, -43.14969253540039, 62.862430572509766, 7.486011028289795, -6.895401477813721, -1.0766977071762085, 1.6958926916122437, -0.8503797650337219, 0.04590070620179176, -1.03369140625, 0.3359375, -0.73095703125, 0, 
75, 2940052033, -93.74510192871094, -43.14762878417969, 62.860992431640625, 6.659506320953369, -7.419975280761719, -1.0446279048919678, 1.543692946434021, -1.0974546670913696, 0.22819721698760986, -1.03955078125, 0.34033203125, -0.7275390625, 0, 
76, 2940060366, -93.7471923828125, -43.151153564453125, 62.8632926940918, 6.009950160980225, -7.352378845214844, 0.272142618894577, 1.545844554901123, -1.382207989692688, -0.4684971272945404, -1.03662109375, 0.33837890625, -0.72607421875, 0, 
77, 2940068699, -93.75139617919922, -43.15194320678711, 62.86934280395508, 6.956453800201416, -6.892471790313721, -0.05772588774561882, 1.611404538154602, -1.7279876470565796, -0.15537597239017487, -1.0361328125, 0.33642578125, -0.73095703125, 0, 
78, 2940077032, -93.74772644042969, -43.14997863769531, 62.86301803588867, 7.303653240203857, -7.108651638031006, -1.2738418579101562, 1.5303096771240234, -0.6765231490135193, 0.23684203624725342, -1.04052734375, 0.34033203125, -0.7275390625, 0, 
79, 2940085365, -93.7480239868164, -43.14966583251953, 62.862369537353516, 6.348344802856445, -7.639320373535156, -0.5829335451126099, 1.5223435163497925, -1.1563034057617188, 0.008030062541365623, -1.03466796875, 0.3369140625, -0.73291015625, 0, 
80, 2940093698, -93.74949645996094, -43.15278244018555, 62.866668701171875, 6.313966751098633, -7.262260913848877, 0.3155076503753662, 1.792637825012207, -1.5571789741516113, -0.4254140257835388, -1.041015625, 0.3388671875, -0.72998046875, 0, 
81, 2940102031, -93.7477798461914, -43.1536865234375, 62.866600036621094, 7.326702117919922, -6.721641540527344, -0.45354771614074707, 1.8176629543304443, -1.193123698234558, -0.13410332798957825, -1.03759765625, 0.337890625, -0.73583984375, 0, 
82, 2940110364, -93.74542999267578, -43.151119232177734, 62.86259078979492, 6.949522972106934, -7.150068283081055, -1.3447941541671753, 1.5634673833847046, -0.8804253935813904, 0.295306533575058, -1.04150390625, 0.33984375, -0.7392578125, 0, 
83, 2940118697, -93.74666595458984, -43.151222229003906, 62.86298370361328, 6.112558364868164, -7.550940990447998, -0.11614277958869934, 1.5007891654968262, -1.2399723529815674, -0.04084189608693123, -1.03955078125, 0.33935546875, -0.7353515625, 0, 
84, 2940127030, -93.74803924560547, -43.15350341796875, 62.866092681884766, 6.6151442527771, -7.135174751281738, 0.27061590552330017, 1.7028471231460571, -1.4651085138320923, -0.3256337642669678, -1.0380859375, 0.33935546875, -0.7373046875, 0, 
85, 2940135363, -93.74688720703125, -43.152862548828125, 62.86336898803711, 7.448378086090088, -6.975605487823486, -0.9413187503814697, 1.5249817371368408, -0.9787198901176453, 0.05631289631128311, -1.04296875, 0.34033203125, -0.73046875, 0, 
86, 2940143696, -93.74544525146484, -43.15079116821289, 62.86061477661133, 6.6515631675720215, -7.456988334655762, -1.0288617610931396, 1.5623016357421875, -0.9835096597671509, 0.23909606039524078, -1.03662109375, 0.33544921875, -0.7431640625, 0, 
87, 2940152029, -93.7461929321289, -43.153114318847656, 62.862220764160156, 6.15946626663208, -7.306196212768555, 0.17284689843654633, 1.659277319908142, -1.3295836448669434, -0.31461966037750244, -1.04248046875, 0.33935546875, -0.74609375, 0, 
88, 2940160362, -93.74801635742188, -43.15374755859375, 62.865821838378906, 7.034610271453857, -6.834042072296143, -0.012708829715847969, 1.687862753868103, -1.5209988355636597, -0.12883958220481873, -1.041015625, 0.33642578125, -0.74169921875, 0, 
89, 2940168695, -93.74642181396484, -43.150943756103516, 62.86248779296875, 7.237684726715088, -7.036014080047607, -1.2575856447219849, 1.534459114074707, -0.9376602172851562, 0.3281567692756653, -1.04150390625, 0.33837890625, -0.75146484375, 0, 
90, 2940177028, -93.74790954589844, -43.14935302734375, 62.86305236816406, 6.377170562744141, -7.637202262878418, -0.6393874287605286, 1.4809253215789795, -1.272412657737732, 0.15259678661823273, -1.0439453125, 0.33984375, -0.7451171875, 0, 
91, 2940185361, -93.74853515625, -43.15216064453125, 62.865264892578125, 6.32912015914917, -7.296632289886475, 0.29301902651786804, 1.7182286977767944, -1.3814654350280762, -0.3853277266025543, -1.04150390625, 0.337890625, -0.74365234375, 0, 
92, 2940193694, -93.74723052978516, -43.152610778808594, 62.86542892456055, 7.283540725708008, -6.843912601470947, -0.37685322761535645, 1.7864776849746704, -1.216701865196228, -0.08040308952331543, -1.04443359375, 0.34033203125, -0.7431640625, 0, 
93, 2940202027, -93.74565887451172, -43.14966583251953, 62.862308502197266, 6.995551586151123, -7.179525375366211, -1.2439450025558472, 1.5491619110107422, -0.9571529626846313, 0.3439863920211792, -1.041015625, 0.33642578125, -0.7490234375, 0, 
94, 2940210360, -93.74459075927734, -43.1494140625, 62.861019134521484, 6.186477184295654, -7.4796247482299805, -0.257938951253891, 1.6336886882781982, -1.1001057624816895, 0.0021900171414017677, -1.04345703125, 0.33984375, -0.7529296875, 0, 
95, 2940218693, -93.74794006347656, -43.15156555175781, 62.86637878417969, 6.552630424499512, -7.030143737792969, 0.1611109972000122, 1.6562803983688354, -1.6571385860443115, -0.31628456711769104, -1.0439453125, 0.33837890625, -0.740234375, 0, 
96, 2940227026, -93.74513244628906, -43.15062713623047, 62.862178802490234, 7.375697135925293, -6.845615863800049, -0.794015645980835, 1.6015939712524414, -0.8533381819725037, 0.10385291278362274, -1.0419921875, 0.33837890625, -0.75341796875, 0, 
97, 2940235359, -93.74361419677734, -43.14786911010742, 62.85881805419922, 6.61509370803833, -7.441880702972412, -1.0393189191818237, 1.5182453393936157, -0.9403496980667114, 0.31419700384140015, -1.04736328125, 0.33984375, -0.7490234375, 0, 
98, 2940243692, -93.7451171875, -43.15055465698242, 62.86072540283203, 6.182900428771973, -7.515248775482178, 0.14093202352523804, 1.5906567573547363, -1.351893663406372, -0.3561403155326843, -1.04296875, 0.3369140625, -0.74658203125, 0, 
99, 2940252025, -93.74742126464844, -43.15199661254883, 62.8648567199707, 7.016805648803711, -6.903662204742432, -0.02539745159447193, 1.6796534061431885, -1.5563336610794067, -0.22454719245433807, -1.04541015625, 0.3388671875, -0.75146484375, 0, 
100, 2940260358, -93.744384765625, -43.15127944946289, 62.86042404174805, 7.263829708099365, -6.95084810256958, -1.1909915208816528, 1.6119804382324219, -0.8304518461227417, 0.07740621268749237, -1.044921875, 0.33740234375, -0.75146484375, 0, 
101, 2940268691, -93.74320983886719, -43.14896774291992, 62.858619689941406, 6.273344993591309, -7.467758655548096, -0.6502535343170166, 1.6090861558914185, -1.065283179283142, 0.26085537672042847, -1.0458984375, 0.3388671875, -0.75390625, 0, 
102, 2940277024, -93.74699401855469, -43.15142822265625, 62.86373519897461, 6.315023899078369, -7.225584983825684, 0.29381874203681946, 1.5764408111572266, -1.6397206783294678, -0.35698553919792175, -1.046875, 0.33984375, -0.74853515625, 0, 
103, 2940285357, -93.74703216552734, -43.15123748779297, 62.8648567199707, 7.282786846160889, -6.915921211242676, -0.42326754331588745, 1.6987489461898804, -1.3120379447937012, -0.018852075561881065, -1.04150390625, 0.337890625, -0.75244140625, 0, 
104, 2940293690, -93.7439193725586, -43.148319244384766, 62.8600959777832, 7.025703430175781, -7.317617416381836, -1.2760779857635498, 1.5991865396499634, -0.8143022060394287, 0.35013383626937866, -1.0478515625, 0.33740234375, -0.7490234375, 0, 
105, 2940302023, -93.74385833740234, -43.14808654785156, 62.85930252075195, 6.183349132537842, -7.5682172775268555, -0.225644052028656, 1.5587158203125, -1.1400638818740845, 0.007082336116582155, -1.0439453125, 0.33740234375, -0.7529296875, 0, 
106, 2940310356, -93.74691772460938, -43.15062713623047, 62.8643798828125, 6.570606231689453, -7.009363651275635, 0.18299345672130585, 1.6606733798980713, -1.633893609046936, -0.3681406080722809, -1.046875, 0.33837890625, -0.7509765625, 0, 
107, 2940318689, -93.74456024169922, -43.149898529052734, 62.86161804199219, 7.403473854064941, -6.750783920288086, -0.7316095232963562, 1.672430157661438, -0.971509575843811, 0.07589498162269592, -1.0478515625, 0.3388671875, -0.744140625, 0, 
108, 2940327022, -93.74417114257812, -43.1459846496582, 62.85889434814453, 6.696217060089111, -7.393974304199219, -1.0956060886383057, 1.4347174167633057, -1.0032840967178345, 0.4488254487514496, -1.04248046875, 0.33642578125, -0.7548828125, 0, 
109, 2940335355, -93.74495697021484, -43.14737319946289, 62.85808181762695, 6.120989799499512, -7.6550164222717285, 0.1218661218881607, 1.4513665437698364, -1.1286911964416504, -0.19523169100284576, -1.0517578125, 0.3388671875, -0.75244140625, 0, 
110, 2940343688, -93.7484130859375, -43.15018844604492, 62.863861083984375, 6.9085588455200195, -7.025181770324707, -0.08499672263860703, 1.6766823530197144, -1.6895534992218018, -0.39670050144195557, -1.0458984375, 0.33740234375, -0.7490234375, 0, 
111, 2940352021, -93.74488067626953, -43.150691986083984, 62.858463287353516, 7.389483451843262, -6.84075403213501, -1.0825202465057373, 1.596381425857544, -0.7294293642044067, -0.05536516755819321, -1.0517578125, 0.3408203125, -0.75146484375, 0, 
112, 2940360354, -93.74530029296875, -43.149295806884766, 62.8570556640625, 6.346580505371094, -7.452942371368408, -0.6416663527488708, 1.4456676244735718, -1.1023982763290405, 0.14039163291454315, -1.046875, 0.33935546875, -0.74755859375, 0, 
113, 2940368687, -93.74666595458984, -43.152225494384766, 62.8599739074707, 6.204284191131592, -7.350327968597412, 0.2213338315486908, 1.6910263299942017, -1.438790202140808, -0.39311450719833374, -1.0478515625, 0.3388671875, -0.75830078125, 0, 
114, 2940377020, -93.74909210205078, -43.15315628051758, 62.86387252807617, 7.316136360168457, -6.825002670288086, -0.5113912224769592, 1.6435372829437256, -1.543091058731079, -0.17009131610393524, -1.05029296875, 0.34033203125, -0.74853515625, 0, 
115, 2940385353, -93.7462158203125, -43.15088653564453, 62.85877227783203, 7.174541473388672, -7.129078388214111, -1.2559033632278442, 1.538506269454956, -0.785076379776001, 0.26932090520858765, -1.044921875, 0.3369140625, -0.7548828125, 0, 
116, 2940393686, -93.7451400756836, -43.14991760253906, 62.85694885253906, 6.043572425842285, -7.660317420959473, -0.20346538722515106, 1.5959333181381226, -1.053026795387268, 0.09773111343383789, -1.0498046875, 0.34033203125, -0.75830078125, 0, 
117, 2940402019, -93.74718475341797, -43.152793884277344, 62.861995697021484, 6.44038200378418, -7.215035915374756, 0.2612653076648712, 1.7850559949874878, -1.6252615451812744, -0.40010717511177063, -1.04541015625, 0.3369140625, -0.75830078125, 0, 
118, 2940410352, -93.7475814819336, -43.15314865112305, 62.8632926940918, 7.535765171051025, -6.735814571380615, -0.8253797292709351, 1.667256236076355, -1.3207083940505981, -0.08290047198534012, -1.04736328125, 0.33837890625, -0.7587890625, 0, 
119, 2940418685, -93.74681854248047, -43.15053176879883, 62.85942077636719, 6.899764060974121, -7.203173637390137, -1.1494824886322021, 1.3924410343170166, -0.8888778686523438, 0.30760133266448975, -1.04931640625, 0.3408203125, -0.75830078125, 0, 
120, 2940427018, -93.74528503417969, -43.15088653564453, 62.85710525512695, 5.953863620758057, -7.582882881164551, 0.10342724621295929, 1.6071397066116333, -1.0064219236373901, -0.062357861548662186, -1.0478515625, 0.33837890625, -0.7607421875, 0, 
121, 2940435351, -93.74906158447266, -43.153499603271484, 62.862789154052734, 6.697199821472168, -7.0427985191345215, -0.011412906460464, 1.6240321397781372, -1.6872607469558716, -0.38003844022750854, -1.05078125, 0.3388671875, -0.7529296875, 0, 
122, 2940443684, -93.7480239868164, -43.15230941772461, 62.859432220458984, 7.616217136383057, -6.802942276000977, -1.0620781183242798, 1.464532494544983, -0.9234444499015808, 0.13597318530082703, -1.04345703125, 0.33740234375, -0.76025390625, 0, 
123, 2940452017, -93.74654388427734, -43.148780822753906, 62.855369567871094, 6.495711326599121, -7.544225692749023, -0.7572810053825378, 1.460446834564209, -0.8793751001358032, 0.4177681803703308, -1.05078125, 0.33935546875, -0.75732421875, 0, 
124, 2940460350, -93.74694061279297, -43.15205383300781, 62.856693267822266, 5.976983547210693, -7.631911754608154, 0.26423534750938416, 1.6740949153900146, -1.3002169132232666, -0.43192002177238464, -1.048828125, 0.33935546875, -0.75830078125, 0, 
125, 2940468683, -93.74972534179688, -43.15484619140625, 62.863407135009766, 7.210453510284424, -6.786850452423096, -0.4089696705341339, 1.8327877521514893, -1.77055823802948, -0.4010932445526123, -1.04736328125, 0.33837890625, -0.76171875, 0, 
126, 2940477016, -93.74720764160156, -43.15471267700195, 62.85756301879883, 7.431674957275391, -6.700203895568848, -1.2584282159805298, 1.4375349283218384, -0.7046476006507874, 0.014536079950630665, -1.05126953125, 0.3408203125, -0.7529296875, 0, 
127, 2940485349, -93.74771118164062, -43.151161193847656, 62.85633850097656, 6.062257766723633, -7.592008113861084, -0.28190481662750244, 1.4440280199050903, -1.1260913610458374, 0.40086275339126587, -1.046875, 0.33837890625, -0.7587890625, 0, 
128, 2940493682, -93.74898529052734, -43.15351867675781, 62.858272552490234, 6.196636199951172, -7.578291416168213, 0.32428619265556335, 1.622380018234253, -1.3567347526550293, -0.32007548213005066, -1.05224609375, 0.33837890625, -0.75244140625, 0, 
129, 2940502015, -93.7510757446289, -43.15467834472656, 62.86198043823242, 7.549878120422363, -6.888227939605713, -0.770760178565979, 1.6708037853240967, -1.521793007850647, -0.18747060000896454, -1.04931640625, 0.3369140625, -0.76025390625, 0, 
130, 2940510348, -93.74752044677734, -43.15279769897461, 62.856414794921875, 7.165155410766602, -7.027212142944336, -1.2183762788772583, 1.5808979272842407, -0.7399696111679077, 0.22308717668056488, -1.0478515625, 0.33935546875, -0.76171875, 0, 
131, 2940518681, -93.7480239868164, -43.152610778808594, 62.856285095214844, 5.8094282150268555, -7.552541732788086, 0.17405617237091064, 1.5464465618133545, -1.1966713666915894, -0.00361160677857697, -1.048828125, 0.33740234375, -0.75048828125, 0, 
132, 2940527014, -93.75077819824219, -43.15526580810547, 62.861106872558594, 6.487624645233154, -7.131097793579102, 0.19750328361988068, 1.6688568592071533, -1.6002236604690552, -0.3783222436904907, -1.04736328125, 0.3369140625, -0.75732421875, 0, 
133, 2940535347, -93.7507553100586, -43.155574798583984, 62.86248016357422, 7.762877941131592, -6.696556091308594, -1.17523992061615, 1.726309895515442, -1.3277138471603394, -0.07976272702217102, -1.0517578125, 0.3369140625, -0.75341796875, 0, 
134, 2940543680, -93.74903869628906, -43.15205001831055, 62.85763931274414, 6.79315710067749, -7.302361965179443, -0.9847111701965332, 1.4245997667312622, -0.8107930421829224, 0.42331361770629883, -1.0458984375, 0.3369140625, -0.759765625, 0, 
135, 2940552013, -93.75082397460938, -43.152610778808594, 62.859004974365234, 5.725966453552246, -7.742233753204346, 0.4317793548107147, 1.5146081447601318, -1.3225140571594238, -0.10143236815929413, -1.05126953125, 0.33837890625, -0.75927734375, 0, 
136, 2940560346, -93.75331115722656, -43.1544189453125, 62.8650016784668, 6.874883651733398, -7.055404186248779, -0.15896815061569214, 1.8016412258148193, -1.7133361101150513, -0.2861109972000122, -1.04736328125, 0.33642578125, -0.75244140625, 0, 
137, 2940568679, -93.75135040283203, -43.15414810180664, 62.86222839355469, 7.762088775634766, -6.676364898681641, -1.3275855779647827, 1.6251206398010254, -0.9674881100654602, 0.02064507268369198, -1.046875, 0.33740234375, -0.76318359375, 0, 
138, 2940577012, -93.74897766113281, -43.15066146850586, 62.85777282714844, 6.375191688537598, -7.471027374267578, -0.5266777276992798, 1.5181430578231812, -0.8392248749732971, 0.40984058380126953, -1.04931640625, 0.33837890625, -0.7568359375, 0, 
139, 2940585345, -93.75119018554688, -43.152889251708984, 62.86043930053711, 5.788684368133545, -7.613916873931885, 0.45439091324806213, 1.557409405708313, -1.4196945428848267, -0.31418415904045105, -1.04736328125, 0.3349609375, -0.75732421875, 0, 
140, 2940593678, -93.75371551513672, -43.155696868896484, 62.866092681884766, 7.326852798461914, -6.766591548919678, -0.6777783632278442, 1.777794361114502, -1.6783727407455444, -0.3950739800930023, -1.0517578125, 0.34033203125, -0.759765625, 0, 
141, 2940602011, -93.75076293945312, -43.154666900634766, 62.85968780517578, 7.527787685394287, -6.799492359161377, -1.3299423456192017, 1.4469352960586548, -0.654238760471344, 0.13315559923648834, -1.04638671875, 0.33740234375, -0.75390625, 0, 
142, 2940610344, -93.75206756591797, -43.15205764770508, 62.85979461669922, 5.9089155197143555, -7.763288497924805, 0.04157058522105217, 1.4628159999847412, -1.2457482814788818, 0.2769026458263397, -1.05126953125, 0.33935546875, -0.75439453125, 0, 
143, 2940618677, -93.7536849975586, -43.15510177612305, 62.863285064697266, 6.21192741394043, -7.550050258636475, 0.3291788399219513, 1.7098910808563232, -1.4867781400680542, -0.4104168713092804, -1.05029296875, 0.33740234375, -0.7607421875, 0, 
144, 2940627010, -93.75352478027344, -43.15608596801758, 62.86503982543945, 7.75529146194458, -6.651042938232422, -1.1092942953109741, 1.8062260150909424, -1.3889830112457275, -0.16405919194221497, -1.05126953125, 0.33740234375, -0.7607421875, 0, 
145, 2940635343, -93.75006103515625, -43.15401840209961, 62.859275817871094, 7.071141242980957, -6.90528678894043, -1.182780146598816, 1.564658284187317, -0.7369470596313477, 0.24588385224342346, -1.0517578125, 0.33740234375, -0.751953125, 0, 
146, 2940643676, -93.75006103515625, -43.153076171875, 62.85866165161133, 5.602186679840088, -7.611607551574707, 0.30771273374557495, 1.567078709602356, -1.1601839065551758, 0.08980350196361542, -1.04638671875, 0.33544921875, -0.7568359375, 0, 
147, 2940652009, -93.75296020507812, -43.15545654296875, 62.86359405517578, 6.5808186531066895, -7.228904724121094, 0.056800488382577896, 1.6722509860992432, -1.6175004243850708, -0.34004178643226624, -1.05126953125, 0.337890625, -0.75634765625, 0, 
148, 2940660342, -93.75142669677734, -43.155250549316406, 62.8621711730957, 7.958995342254639, -6.82720422744751, -1.2972023487091064, 1.6735060214996338, -1.0847243070602417, -0.0005507059977389872, -1.04931640625, 0.3359375, -0.75341796875, 0, 
149, 2940668675, -93.748779296875, -43.15339660644531, 62.855716705322266, 6.6678948402404785, -7.444255828857422, -0.8675752282142639, 1.4033143520355225, -0.658208966255188, 0.23269253969192505, -1.0478515625, 0.3359375, -0.75830078125, 0, 
150, 2940677008, -93.74813079833984, -43.15439224243164, 62.85615539550781, 5.633655548095703, -7.631324768066406, 0.5362528562545776, 1.712119460105896, -1.222208857536316, -0.155299112200737, -1.05126953125, 0.33740234375, -0.75341796875, 0, 
151, 2940685341, -93.74994659423828, -43.15703201293945, 62.861549377441406, 7.0353217124938965, -6.819847583770752, -0.3138567805290222, 1.8294070959091187, -1.6588292121887207, -0.38024333119392395, -1.048828125, 0.3359375, -0.75927734375, 0, 
152, 2940693674, -93.74913024902344, -43.155784606933594, 62.85806655883789, 7.736073970794678, -6.658091068267822, -1.4421151876449585, 1.4289668798446655, -0.9117002487182617, 0.1411600410938263, -1.05322265625, 0.33935546875, -0.75634765625, 0, 
153, 2940702007, -93.74681854248047, -43.152530670166016, 62.853389739990234, 6.128420829772949, -7.6538567543029785, -0.39648348093032837, 1.5105483531951904, -0.8244838714599609, 0.3899511396884918, -1.048828125, 0.33740234375, -0.755859375, 0, 
154, 2940710340, -93.74857330322266, -43.15578079223633, 62.85620880126953, 5.905704975128174, -7.63828706741333, 0.5253721475601196, 1.6222903728485107, -1.4200019836425781, -0.4385412931442261, -1.05224609375, 0.3388671875, -0.76416015625, 0, 
155, 2940718673, -93.75128173828125, -43.15717315673828, 62.86177062988281, 7.576272010803223, -6.791884899139404, -0.7029973864555359, 1.7484533786773682, -1.6798713207244873, -0.22477774322032928, -1.05126953125, 0.33544921875, -0.75439453125, 0, 
156, 2940727006, -93.74935913085938, -43.15601348876953, 62.85783386230469, 7.3800506591796875, -6.921268463134766, -1.4014023542404175, 1.4628032445907593, -0.8194633722305298, 0.12919819355010986, -1.04833984375, 0.3388671875, -0.7607421875, 0, 
157, 2940735339, -93.74855041503906, -43.155452728271484, 62.856693267822266, 5.793731689453125, -7.633886814117432, 0.1005706712603569, 1.6163865327835083, -1.1156408786773682, 0.04072663560509682, -1.05126953125, 0.33837890625, -0.7587890625, 0, 
158, 2940743672, -93.75228118896484, -43.15836715698242, 62.862308502197266, 6.305794715881348, -7.224038124084473, 0.3375437259674072, 1.6275798082351685, -1.6751837730407715, -0.40674126148223877, -1.04931640625, 0.33642578125, -0.7646484375, 0, 
159, 2940752005, -93.7521743774414, -43.15919876098633, 62.86360549926758, 7.78583288192749, -6.737853527069092, -1.200870156288147, 1.7362992763519287, -1.3120379447937012, -0.13378314673900604, -1.05322265625, 0.33837890625, -0.7646484375, 0, 
160, 2940760338, -93.74903869628906, -43.1571159362793, 62.85700988769531, 6.864475250244141, -7.290143966674805, -1.1510154008865356, 1.5068471431732178, -0.7180951237678528, 0.2489575743675232, -1.0498046875, 0.33642578125, -0.75439453125, 0, 
161, 2940768671, -93.75015258789062, -43.157833099365234, 62.8574333190918, 5.677509307861328, -7.66427755355835, 0.4611201286315918, 1.5175026655197144, -1.2365528345108032, -0.11552019417285919, -1.0517578125, 0.33447265625, -0.76171875, 0, 
162, 2940777004, -93.75260162353516, -43.16032028198242, 62.86174774169922, 6.851900100708008, -7.01677942276001, 0.11854715645313263, 1.8160877227783203, -1.722378134727478, -0.36559200286865234, -1.05126953125, 0.3388671875, -0.7626953125, 0, 
163, 2940785337, -93.7493667602539, -43.159122467041016, 62.85870361328125, 7.801335334777832, -6.777738571166992, -1.4883170127868652, 1.681087851524353, -0.8812705278396606, 0.1305045187473297, -1.0498046875, 0.3349609375, -0.76513671875, 0, 
164, 2940793670, -93.7481460571289, -43.157005310058594, 62.85569763183594, 6.446809768676758, -7.483817100524902, -0.755876362323761, 1.5157479047775269, -0.960111141204834, 0.24500013887882233, -1.05322265625, 0.33935546875, -0.7626953125, 0, 
165, 2940802003, -93.75077056884766, -43.159820556640625, 62.85979461669922, 5.781704425811768, -7.391180515289307, 0.5936711430549622, 1.6377100944519043, -1.5436416864395142, -0.38828617334365845, -1.04931640625, 0.3369140625, -0.7607421875, 0, 
166, 2940810336, -93.75359344482422, -43.16122055053711, 62.86468505859375, 7.267138957977295, -6.823604106903076, -0.36523866653442383, 1.6740310192108154, -1.6251206398010254, -0.2297084480524063, -1.05078125, 0.33984375, -0.75927734375, 0, 
167, 2940818669, -93.74944305419922, -43.15926742553711, 62.85770034790039, 7.454213619232178, -7.086364269256592, -1.5097577571868896, 1.5395307540893555, -0.6128205060958862, 0.2463448941707611, -1.05078125, 0.3359375, -0.76171875, 0, 
168, 2940827002, -93.75012969970703, -43.15825271606445, 62.85696792602539, 6.070705890655518, -7.716208457946777, -0.1784115880727768, 1.444578766822815, -1.1272568702697754, 0.09306932240724564, -1.05029296875, 0.333984375, -0.76416015625, 0, 
169, 2940835335, -93.7535171508789, -43.16199493408203, 62.86447525024414, 6.243269920349121, -7.233680725097656, 0.45918959379196167, 1.6827912330627441, -1.6872609853744507, -0.5169208645820618, -1.052734375, 0.33740234375, -0.75830078125, 0, 
170, 2940843668, -93.75259399414062, -43.16217041015625, 62.86528778076172, 7.606898307800293, -6.633343696594238, -0.8683065176010132, 1.7925225496292114, -1.2764596939086914, -0.05217619612812996, -1.04931640625, 0.33544921875, -0.7646484375, 0, 
171, 2940852001, -93.75111389160156, -43.158321380615234, 62.86140823364258, 6.962340831756592, -7.142574310302734, -1.3290287256240845, 1.4753671884536743, -0.8990085124969482, 0.45771360397338867, -1.05224609375, 0.33837890625, -0.7666015625, 0, 
172, 2940860334, -93.75260162353516, -43.158912658691406, 62.86284255981445, 5.8831706047058105, -7.606748580932617, 0.2461041957139969, 1.482385277748108, -1.258529782295227, -0.10688819736242294, -1.0498046875, 0.33740234375, -0.75830078125, 0, 
173, 2940868667, -93.7541732788086, -43.161598205566406, 62.86747360229492, 6.646328926086426, -7.1518940925598145, 0.2061726301908493, 1.8087875843048096, -1.5896450281143188, -0.37540221214294434, -1.052734375, 0.3349609375, -0.7626953125, 0, 
174, 2940877000, -93.75299835205078, -43.161590576171875, 62.86528778076172, 7.631405353546143, -6.918736457824707, -1.301639437675476, 1.5438082218170166, -0.9922442436218262, -0.018288563936948776, -1.0517578125, 0.33837890625, -0.76220703125, 0, 
175, 2940885333, -93.75110626220703, -43.15974807739258, 62.86289596557617, 6.583827495574951, -7.388652324676514, -0.8828054666519165, 1.6232125759124756, -0.9902719855308533, 0.2007259726524353, -1.05029296875, 0.33642578125, -0.76123046875, 0, 
176, 2940893666, -93.75354766845703, -43.161834716796875, 62.86643981933594, 5.932875633239746, -7.324970722198486, 0.45085689425468445, 1.613555908203125, -1.5001744031906128, -0.29599806666374207, -1.05419921875, 0.337890625, -0.7578125, 0, 
177, 2940901999, -93.75653839111328, -43.162105560302734, 62.87083435058594, 7.150054454803467, -6.852728366851807, -0.1911950409412384, 1.618294358253479, -1.5879287719726562, -0.08593575656414032, -1.046875, 0.333984375, -0.763671875, 0, 
178, 2940910332, -93.75338745117188, -43.159202575683594, 62.86537551879883, 7.4254045486450195, -7.0520758628845215, -1.5608049631118774, 1.5791305303573608, -0.8013413548469543, 0.34373024106025696, -1.05419921875, 0.33642578125, -0.76171875, 0, 
179, 2940918665, -93.7539291381836, -43.15842056274414, 62.86516571044922, 6.198853492736816, -7.666353225708008, -0.4607066810131073, 1.5357656478881836, -1.1940587759017944, 0.06704526394605637, -1.0517578125, 0.33642578125, -0.755859375, 0, 
180, 2940926998, -93.75687408447266, -43.16202163696289, 62.86922836303711, 6.149385452270508, -7.31008243560791, 0.5130781531333923, 1.6222648620605469, -1.5701781511306763, -0.4889757037162781, -1.05078125, 0.3369140625, -0.7646484375, 0, 
181, 2940935331, -93.7551498413086, -43.1634635925293, 62.866695404052734, 7.408699035644531, -6.772955417633057, -0.5998837351799011, 1.840293049812317, -1.2235664129257202, -0.2079363465309143, -1.05517578125, 0.33837890625, -0.755859375, 0, 
182, 2940943664, -93.75384521484375, -43.160640716552734, 62.862876892089844, 7.123931884765625, -7.173449516296387, -1.4286727905273438, 1.4596655368804932, -0.8953968286514282, 0.33238309621810913, -1.05126953125, 0.3349609375, -0.76708984375, 0, 
183, 2940951997, -93.75422668457031, -43.16127014160156, 62.862972259521484, 6.049978733062744, -7.565072059631348, 0.024459734559059143, 1.578656554222107, -1.2114636898040771, -0.10190623998641968, -1.0556640625, 0.33740234375, -0.76318359375, 0, 
184, 2940960330, -93.7569580078125, -43.162628173828125, 62.86724090576172, 6.571892261505127, -7.071161270141602, 0.21818509697914124, 1.7231465578079224, -1.6652711629867554, -0.22654511034488678, -1.0546875, 0.333984375, -0.76708984375, 0, 
185, 2940968663, -93.75437927246094, -43.161903381347656, 62.86251449584961, 7.517963409423828, -6.850709915161133, -1.0549434423446655, 1.5370078086853027, -0.7990744709968567, 0.08752384036779404, -1.0537109375, 0.33740234375, -0.7744140625, 0, 
186, 2940976996, -93.75469207763672, -43.15929412841797, 62.859344482421875, 6.5838704109191895, -7.467859268188477, -1.0033365488052368, 1.3624595403671265, -1.011070728302002, 0.2933214604854584, -1.0537109375, 0.33740234375, -0.763671875, 0, 
187, 2940985329, -93.75668334960938, -43.161537170410156, 62.86244583129883, 6.062224388122559, -7.474587917327881, 0.33251726627349854, 1.579668402671814, -1.4130604267120361, -0.3183080852031708, -1.0546875, 0.3369140625, -0.76611328125, 0, 
188, 2940993662, -93.75782012939453, -43.16257858276367, 62.86542510986328, 7.0437703132629395, -6.8893232345581055, -0.10509058088064194, 1.7248754501342773, -1.4599345922470093, -0.16808061301708221, -1.05859375, 0.337890625, -0.7705078125, 0, 
189, 2941001995, -93.75518035888672, -43.1611442565918, 62.86064910888672, 7.3615217208862305, -6.984735488891602, -1.3453783988952637, 1.5419131517410278, -0.7988824844360352, 0.1712183654308319, -1.05322265625, 0.33544921875, -0.76806640625, 0, 
190, 2941010328, -93.7540054321289, -43.16053009033203, 62.85779571533203, 6.26661491394043, -7.517095565795898, -0.5895029902458191, 1.5140701532363892, -0.9645296335220337, 0.05738868936896324, -1.05517578125, 0.33740234375, -0.7646484375, 0, 
191, 2941018661, -93.75739288330078, -43.16303253173828, 62.86251449584961, 6.237527370452881, -7.261024475097656, 0.43417593836784363, 1.5980592966079712, -1.5997625589370728, -0.35386064648628235, -1.05712890625, 0.33837890625, -0.767578125, 0, 
192, 2941026994, -93.75672149658203, -43.161399841308594, 62.86250686645508, 7.336495399475098, -6.896250247955322, -0.4551517963409424, 1.6995428800582886, -1.2316604852676392, 0.1601017713546753, -1.05419921875, 0.3388671875, -0.76806640625, 0, 
193, 2941035327, -93.75334930419922, -43.15921401977539, 62.85715866088867, 7.016725063323975, -7.2848405838012695, -1.3601336479187012, 1.5828443765640259, -0.7687343955039978, 0.2574614882469177, -1.0576171875, 0.3388671875, -0.76220703125, 0, 
194, 2941043660, -93.75241088867188, -43.160247802734375, 62.8558464050293, 6.0890302658081055, -7.525884628295898, -0.11723396182060242, 1.6228538751602173, -1.082790493965149, -0.1422102302312851, -1.05419921875, 0.3349609375, -0.76806640625, 0, 
195, 2941051993, -93.75550842285156, -43.16274642944336, 62.86204147338867, 6.59028434753418, -6.955169200897217, 0.3400131165981293, 1.7525132894515991, -1.7289096117019653, -0.362518310546875, -1.056640625, 0.33642578125, -0.76953125, 0, 
196, 2941060326, -93.75243377685547, -43.161556243896484, 62.857460021972656, 7.432518005371094, -6.793909072875977, -0.9389768838882446, 1.6147085428237915, -0.8314380049705505, 0.13377033174037933, -1.052734375, 0.33642578125, -0.76318359375, 0, 
197, 2941068659, -93.75251770019531, -43.15776062011719, 62.85600662231445, 6.626046180725098, -7.507904052734375, -1.083082675933838, 1.4867782592773438, -1.1096982955932617, 0.43651777505874634, -1.0537109375, 0.337890625, -0.7734375, 0, 
198, 2941076992, -93.75348663330078, -43.1614875793457, 62.85639572143555, 6.114956855773926, -7.569703578948975, 0.16619302332401276, 1.5714844465255737, -1.263434886932373, -0.48550501465797424, -1.05615234375, 0.33837890625, -0.7607421875, 0, 
199, 2941085325, -93.75529479980469, -43.16325759887695, 62.86211013793945, 6.9842119216918945, -6.912245750427246, -0.05445985123515129, 1.8481053113937378, -1.6826504468917847, -0.27717164158821106, -1.05224609375, 0.33349609375, -0.767578125, 0, 
200, 2941093658, -93.75222778320312, -43.162967681884766, 62.85718536376953, 7.266230583190918, -6.908392906188965, -1.1954327821731567, 1.5800524950027466, -0.7785190343856812, 0.036589931696653366, -1.056640625, 0.3388671875, -0.76318359375, 0, 
201, 2941101991, -93.75289916992188, -43.16248321533203, 62.857452392578125, 6.359959125518799, -7.468349456787109, -0.6012455821037292, 1.5591768026351929, -1.2329411506652832, 0.02854706346988678, -1.0517578125, 0.33544921875, -0.7666015625, 0, 
202, 2941110324, -93.75432586669922, -43.165443420410156, 62.85980224609375, 6.302088737487793, -7.261567115783691, 0.2572563886642456, 1.6475330591201782, -1.4065160751342773, -0.4014134705066681, -1.0556640625, 0.337890625, -0.76953125, 0, 
203, 2941118657, -93.75541687011719, -43.16571044921875, 62.862030029296875, 7.271833896636963, -6.8582072257995605, -0.4388178586959839, 1.6688698530197144, -1.399856448173523, -0.071271613240242, -1.05615234375, 0.33837890625, -0.76171875, 0, 
204, 2941126990, -93.75140380859375, -43.16389083862305, 62.857269287109375, 7.01080322265625, -7.269543647766113, -1.2527276277542114, 1.6119935512542725, -0.713561475276947, 0.21624819934368134, -1.0537109375, 0.3359375, -0.7685546875, 0, 
205, 2941135323, -93.75092315673828, -43.16424560546875, 62.856231689453125, 6.0989274978637695, -7.535335063934326, -0.19131723046302795, 1.6170138120651245, -1.1512572765350342, -0.07264196872711182, -1.05615234375, 0.337890625, -0.76611328125, 0, 
206, 2941143656, -93.75485229492188, -43.1669921875, 62.862403869628906, 6.605793476104736, -7.021586894989014, 0.3073723316192627, 1.65241277217865, -1.7247090339660645, -0.3900279700756073, -1.05224609375, 0.3369140625, -0.76953125, 0, 
207, 2941151989, -93.753173828125, -43.16671371459961, 62.85986328125, 7.433406829833984, -6.791565418243408, -0.8633917570114136, 1.6098161935806274, -0.9860711097717285, 0.020094366744160652, -1.05615234375, 0.33837890625, -0.77001953125, 0, 
208, 2941160322, -93.75347137451172, -43.16288757324219, 62.85823059082031, 6.688094139099121, -7.402700901031494, -1.1079914569854736, 1.429978609085083, -1.0859923362731934, 0.4325091540813446, -1.05615234375, 0.3359375, -0.765625, 0, 
209, 2941168655, -93.75450134277344, -43.165225982666016, 62.86037063598633, 6.093827724456787, -7.469500541687012, 0.07363280653953552, 1.6686522960662842, -1.3729742765426636, -0.31933265924453735, -1.05322265625, 0.33642578125, -0.76904296875, 0, 
210, 2941176988, -93.75702667236328, -43.165924072265625, 62.86459732055664, 6.956763744354248, -6.953492164611816, 0.032758649438619614, 1.6674994230270386, -1.5890045166015625, -0.14215900003910065, -1.05517578125, 0.33935546875, -0.76025390625, 0, 
211, 2941185321, -93.75277709960938, -43.1649055480957, 62.85936737060547, 7.3147735595703125, -7.055116653442383, -1.1255344152450562, 1.620061993598938, -0.6856418251991272, 0.12439552694559097, -1.05322265625, 0.33642578125, -0.76611328125, 0, 
212, 2941193654, -93.7516860961914, -43.16337966918945, 62.85686492919922, 6.393782138824463, -7.632800102233887, -0.6177909970283508, 1.5418360233306885, -1.0025155544281006, 0.16950219869613647, -1.0576171875, 0.33837890625, -0.76220703125, 0, 
213, 2941201987, -93.75379943847656, -43.16621017456055, 62.86054611206055, 6.294870376586914, -7.2431488037109375, 0.16178636252880096, 1.665207028388977, -1.5063090324401855, -0.38607051968574524, -1.0546875, 0.3359375, -0.7626953125, 0, 
214, 2941210320, -93.75401306152344, -43.167232513427734, 62.86223602294922, 7.299811363220215, -6.697475910186768, -0.3924451470375061, 1.7430487871170044, -1.370092749595642, -0.16929729282855988, -1.05517578125, 0.33740234375, -0.7666015625, 0, 
215, 2941218653, -93.7527084350586, -43.163963317871094, 62.85763931274414, 6.973392486572266, -7.08807373046875, -1.1868282556533813, 1.3974357843399048, -0.8312971591949463, 0.3917697072029114, -1.0556640625, 0.3359375, -0.7607421875, 0, 
216, 2941226986, -93.75292205810547, -43.16276931762695, 62.858558654785156, 6.170006275177002, -7.625444412231445, -0.16985410451889038, 1.612236738204956, -1.2523181438446045, 0.10678573697805405, -1.05224609375, 0.337890625, -0.76806640625, 0, 
217, 2941235319, -93.75495147705078, -43.16455078125, 62.863258361816406, 6.618387699127197, -7.236972808837891, 0.1708022803068161, 1.6547436714172363, -1.5030176639556885, -0.2679249048233032, -1.05615234375, 0.33837890625, -0.7666015625, 0, 
218, 2941243652, -93.75347137451172, -43.16474151611328, 62.861873626708984, 7.446160793304443, -6.905405044555664, -0.7701482176780701, 1.681254267692566, -1.0829697847366333, -0.041904885321855545, -1.05224609375, 0.333984375, -0.77294921875, 0, 
219, 2941251985, -93.7529067993164, -43.16287612915039, 62.85898208618164, 6.694266319274902, -7.334349632263184, -0.9902206659317017, 1.4469480514526367, -0.9697164297103882, 0.21477535367012024, -1.05712890625, 0.33740234375, -0.76513671875, 0, 
220, 2941260318, -93.753173828125, -43.16487121582031, 62.858150482177734, 6.063390254974365, -7.3850555419921875, 0.0216416884213686, 1.601453185081482, -1.2188916206359863, -0.2746742069721222, -1.05517578125, 0.33642578125, -0.7705078125, 0, 
221, 2941268651, -93.75614166259766, -43.16686248779297, 62.862998962402344, 6.913330078125, -6.865342140197754, -0.021564381197094917, 1.6571769714355469, -1.6152080297470093, -0.2944612205028534, -1.05517578125, 0.3369140625, -0.7744140625, 0, 
222, 2941276984, -93.75310516357422, -43.164939880371094, 62.85844421386719, 7.398554801940918, -6.977851867675781, -1.0802701711654663, 1.5680650472640991, -0.7947584390640259, 0.22598159313201904, -1.05517578125, 0.337890625, -0.76171875, 0, 
223, 2941285317, -93.75286865234375, -43.16267013549805, 62.85652542114258, 6.378024101257324, -7.688960075378418, -0.675872802734375, 1.5353429317474365, -1.1188427209854126, 0.24507702887058258, -1.0537109375, 0.3359375, -0.767578125, 0, 
224, 2941293650, -93.7537612915039, -43.16584396362305, 62.85878372192383, 6.236809730529785, -7.463124752044678, 0.20293278992176056, 1.6961873769760132, -1.379044771194458, -0.4193306267261505, -1.05859375, 0.3369140625, -0.771484375, 0, 
225, 2941301983, -93.75476837158203, -43.16752243041992, 62.861961364746094, 7.280966281890869, -6.809518814086914, -0.3733333945274353, 1.755151391029358, -1.4723317623138428, -0.2463320791721344, -1.052734375, 0.33740234375, -0.76416015625, 0, 
226, 2941310316, -93.75227355957031, -43.164947509765625, 62.85625076293945, 7.091185569763184, -7.004306793212891, -1.16620671749115, 1.450495719909668, -0.7411990761756897, 0.305897980928421, -1.0556640625, 0.33837890625, -0.76904296875, 0, 
227, 2941318649, -93.7514419555664, -43.1638069152832, 62.85457229614258, 6.089820384979248, -7.5619025230407715, -0.31667622923851013, 1.5773630142211914, -1.068625807762146, 0.11937515437602997, -1.0537109375, 0.3369140625, -0.76318359375, 0, 
228, 2941326982, -93.75407409667969, -43.1670036315918, 62.85923385620117, 6.457063674926758, -7.142293453216553, 0.10419069230556488, 1.6960593461990356, -1.6104694604873657, -0.4455595910549164, -1.05517578125, 0.33642578125, -0.7666015625, 0, 
229, 2941335315, -93.75386810302734, -43.16689682006836, 62.858516693115234, 7.512824058532715, -6.770883083343506, -0.7141416668891907, 1.6265679597854614, -1.202229619026184, -0.02003033272922039, -1.05517578125, 0.3388671875, -0.76123046875, 0, 
230, 2941343648, -93.75220489501953, -43.16333770751953, 62.85463333129883, 6.7587409019470215, -7.401896953582764, -1.0547181367874146, 1.4961529970169067, -0.8944874405860901, 0.4208674728870392, -1.05126953125, 0.3349609375, -0.765625, 0, 
231, 2941351981, -93.7519760131836, -43.16474533081055, 62.854644775390625, 6.038448810577393, -7.669992923736572, 0.1341579109430313, 1.6452150344848633, -1.1975423097610474, -0.19382290542125702, -1.05615234375, 0.3369140625, -0.7626953125, 0, 
232, 2941360314, -93.75289916992188, -43.16718673706055, 62.859291076660156, 6.914573669433594, -6.962874889373779, -0.08918444067239761, 1.86020827293396, -1.573277473449707, -0.35196518898010254, -1.05224609375, 0.3359375, -0.76171875, 0, 
233, 2941368647, -93.75059509277344, -43.16645812988281, 62.85530090332031, 7.466144561767578, -6.715940952301025, -1.109049677848816, 1.5657211542129517, -0.8630844354629517, 0.08258029073476791, -1.0537109375, 0.3349609375, -0.76611328125, 0, 
234, 2941376980, -93.74911499023438, -43.16384506225586, 62.8521728515625, 6.335532188415527, -7.452592849731445, -0.7318576574325562, 1.5030560493469238, -0.9284135103225708, 0.2987772226333618, -1.0537109375, 0.33837890625, -0.75927734375, 0, 
235, 2941385313, -93.7519302368164, -43.166255950927734, 62.85866165161133, 6.09691858291626, -7.446423053741455, 0.27614426612854004, 1.6603913307189941, -1.6034893989562988, -0.34957027435302734, -1.05224609375, 0.3369140625, -0.7646484375, 0, 
236, 2941393646, -93.75374603271484, -43.16656494140625, 62.86207580566406, 7.31281852722168, -6.903136730194092, -0.31046807765960693, 1.6799737215042114, -1.4992012977600098, -0.08450137078762054, -1.05419921875, 0.33740234375, -0.7646484375, 0, 
237, 2941401979, -93.74934387207031, -43.16433334350586, 62.855224609375, 7.296157360076904, -7.131867408752441, -1.2808496952056885, 1.5823321342468262, -0.6260631084442139, 0.28059113025665283, -1.05029296875, 0.3359375, -0.7626953125, 0, 
238, 2941410312, -93.74966430664062, -43.1633415222168, 62.85575866699219, 6.1414337158203125, -7.639481067657471, -0.28868556022644043, 1.532025694847107, -1.1777936220169067, 0.08899664878845215, -1.05322265625, 0.33837890625, -0.76904296875, 0, 
239, 2941418645, -93.75162506103516, -43.1663932800293, 62.86161804199219, 6.343215465545654, -7.156414031982422, 0.23503299057483673, 1.8628082275390625, -1.6944329738616943, -0.42816758155822754, -1.05419921875, 0.33740234375, -0.76171875, 0, 
240, 2941426978, -93.75078582763672, -43.16572189331055, 62.85499572753906, 7.4544267654418945, -6.6679606437683105, -0.6908783316612244, 1.6947017908096313, -1.2017430067062378, 0.047450367361307144, -1.05224609375, 0.3349609375, -0.7666015625, 0, 
241, 2941435311, -93.74848937988281, -43.16176986694336, 62.851627349853516, 6.864935398101807, -7.260095119476318, -1.13932204246521, 1.4531852006912231, -0.7779042720794678, 0.4701876640319824, -1.05615234375, 0.33935546875, -0.765625, 0, 
242, 2941443644, -93.74979400634766, -43.16256332397461, 62.85251998901367, 5.987957000732422, -7.731266498565674, 0.08622671663761139, 1.5323076248168945, -1.2798408269882202, -0.12696976959705353, -1.05224609375, 0.3359375, -0.763671875, 0, 
243, 2941451977, -93.75208282470703, -43.16593551635742, 62.857460021972656, 6.756577968597412, -7.108697414398193, 0.02781701274216175, 1.7462377548217773, -1.6112122535705566, -0.45788007974624634, -1.05712890625, 0.337890625, -0.7626953125, 0, 
244, 2941460310, -93.74876403808594, -43.16526412963867, 62.852474212646484, 7.533386707305908, -6.759073734283447, -1.0249689817428589, 1.647341012954712, -0.8324370384216309, 0.07004212588071823, -1.05419921875, 0.3359375, -0.76171875, 0, 
245, 2941468643, -93.74712371826172, -43.16175079345703, 62.84919357299805, 6.4977216720581055, -7.374815940856934, -0.7971919775009155, 1.5455501079559326, -0.9470863342285156, 0.4118896722793579, -1.052734375, 0.3359375, -0.765625, 0, 
246, 2941476976, -93.7489013671875, -43.16382598876953, 62.850040435791016, 6.016010284423828, -7.4205169677734375, 0.2571620047092438, 1.6337144374847412, -1.4463335275650024, -0.2971251606941223, -1.0537109375, 0.33740234375, -0.75732421875, 0, 
247, 2941485309, -93.75277709960938, -43.16468811035156, 62.85887908935547, 7.136205673217773, -6.91388463973999, -0.34778615832328796, 1.650107502937317, -1.741307020187378, -0.17389504611492157, -1.05126953125, 0.3369140625, -0.77197265625, 0, 
248, 2941493642, -93.75064849853516, -43.16331100463867, 62.85383987426758, 7.332951545715332, -7.052925109863281, -1.2347095012664795, 1.4574881792068481, -0.7777506113052368, 0.1686825305223465, -1.05615234375, 0.33935546875, -0.76123046875, 0, 
249, 2941501975, -93.74871826171875, -43.161373138427734, 62.85163497924805, 6.132900714874268, -7.643698215484619, -0.40495848655700684, 1.6668847799301147, -1.028232216835022, 0.21740081906318665, -1.052734375, 0.33740234375, -0.763671875, 0, 
250, 2941510308, -93.75125122070312, -43.16409683227539, 62.85725402832031, 6.293304920196533, -7.27984094619751, 0.33458465337753296, 1.7181644439697266, -1.628962755203247, -0.3894900381565094, -1.05322265625, 0.3369140625, -0.76953125, 0, 
251, 2941518641, -93.75020599365234, -43.163246154785156, 62.857364654541016, 7.475581169128418, -6.7389116287231445, -0.6101333498954773, 1.751232385635376, -1.2208255529403687, 0.07595901191234589, -1.05419921875, 0.3359375, -0.76611328125, 0, 
252, 2941526974, -93.74797058105469, -43.1596794128418, 62.8541145324707, 6.997167110443115, -7.182436943054199, -1.2565946578979492, 1.5330374240875244, -0.8737911581993103, 0.41633379459381104, -1.0537109375, 0.33447265625, -0.77197265625, 0, 
253, 2941535307, -93.74888610839844, -43.15895462036133, 62.85053253173828, 5.983222961425781, -7.564461708068848, -0.05099981650710106, 1.4966398477554321, -1.2106953859329224, 0.053738661110401154, -1.05859375, 0.33740234375, -0.76123046875, 0, 
254, 2941543640, -93.75077819824219, -43.15981674194336, 62.855255126953125, 6.635484218597412, -7.03916597366333, 0.1807660609483719, 1.7767313718795776, -1.6123520135879517, -0.1573866456747055, -1.05126953125, 0.33544921875, -0.77099609375, 0, 
255, 2941551973, -93.74818420410156, -43.15819549560547, 62.85125732421875, 7.533191204071045, -6.896515846252441, -0.9776166677474976, 1.5677192211151123, -0.848842978477478, 0.18529339134693146, -1.05517578125, 0.33740234375, -0.77001953125, 0, 
256, 2941560306, -93.74679565429688, -43.15467834472656, 62.847957611083984, 6.5930023193359375, -7.526849269866943, -0.9404169917106628, 1.5137628316879272, -0.9435515999794006, 0.412376344203949, -1.05322265625, 0.3359375, -0.7646484375, 0, 
257, 2941568639, -93.74650573730469, -43.15690612792969, 62.84849166870117, 6.0651350021362305, -7.462329864501953, 0.20818892121315002, 1.6947529315948486, -1.236040472984314, -0.29576754570007324, -1.0517578125, 0.3359375, -0.76708984375, 0, 
258, 2941576972, -93.74940490722656, -43.158233642578125, 62.8535041809082, 7.058272361755371, -6.800241947174072, -0.2030409425497055, 1.7132338285446167, -1.6801528930664062, -0.22334332764148712, -1.0556640625, 0.33935546875, -0.7646484375, 0, 
259, 2941585305, -93.74583435058594, -43.15638732910156, 62.846771240234375, 7.298463821411133, -6.905920505523682, -1.2013602256774902, 1.5750831365585327, -0.7326183319091797, 0.21773380041122437, -1.05224609375, 0.333984375, -0.7705078125, 0, 
260, 2941593638, -93.74549865722656, -43.15363693237305, 62.84568405151367, 6.272657871246338, -7.593109130859375, -0.525844395160675, 1.5672965049743652, -1.13340425491333, 0.30815207958221436, -1.0576171875, 0.3369140625, -0.76318359375, 0, 
261, 2941601971, -93.74784851074219, -43.156394958496094, 62.84828186035156, 6.316610336303711, -7.424408435821533, 0.27714425325393677, 1.538045048713684, -1.410037875175476, -0.37950050830841064, -1.0546875, 0.33740234375, -0.76513671875, 0, 
262, 2941610304, -93.74967956542969, -43.15704345703125, 62.851402282714844, 7.3643479347229, -6.8682966232299805, -0.5498421788215637, 1.6523358821868896, -1.476148247718811, -0.12202621251344681, -1.0537109375, 0.33642578125, -0.7646484375, 0, 
263, 2941618637, -93.74686431884766, -43.15555191040039, 62.845699310302734, 7.0503997802734375, -7.163915634155273, -1.2637141942977905, 1.4870983362197876, -0.7194526195526123, 0.18325702846050262, -1.0537109375, 0.33544921875, -0.76025390625, 0, 
264, 2941626970, -93.7461166381836, -43.155521392822266, 62.8443603515625, 6.033130645751953, -7.4415202140808105, -0.12230408936738968, 1.722800612449646, -1.2360403537750244, -0.031326208263635635, -1.0517578125, 0.33642578125, -0.76708984375, 0, 
265, 2941635303, -93.75028228759766, -43.156490325927734, 62.851375579833984, 6.601720333099365, -7.018430709838867, 0.27607297897338867, 1.6924735307693481, -1.8114644289016724, -0.18227091431617737, -1.05517578125, 0.3359375, -0.76806640625, 0, 
266, 2941643636, -93.74771881103516, -43.15513610839844, 62.8495979309082, 7.530231475830078, -6.88478946685791, -0.9571915864944458, 1.5915148258209229, -0.8754817247390747, 0.15145696699619293, -1.05078125, 0.3369140625, -0.7724609375, 0, 
267, 2941651969, -93.74581146240234, -43.151737213134766, 62.846702575683594, 6.671591758728027, -7.505460739135742, -1.0648967027664185, 1.5943450927734375, -0.976926863193512, 0.3897077739238739, -1.05810546875, 0.3369140625, -0.763671875, 0, 
268, 2941660302, -93.74555969238281, -43.15439224243164, 62.84736633300781, 6.01187801361084, -7.575357913970947, 0.240120530128479, 1.7009259462356567, -1.2435965538024902, -0.34866097569465637, -1.05419921875, 0.33642578125, -0.76416015625, 0, 
269, 2941668635, -93.74866485595703, -43.15675735473633, 62.85306930541992, 6.92833137512207, -6.879680156707764, -0.03436237946152687, 1.7120299339294434, -1.685711145401001, -0.3409382700920105, -1.052734375, 0.337890625, -0.76513671875, 0, 
270, 2941676968, -93.74748992919922, -43.15568923950195, 62.84645462036133, 7.368751525878906, -6.859852313995361, -1.2183674573898315, 1.442862629890442, -0.8877893090248108, 0.11371439695358276, -1.0546875, 0.337890625, -0.76123046875, 0, 
271, 2941685301, -93.74667358398438, -43.15339660644531, 62.84431838989258, 6.38227653503418, -7.514890670776367, -0.6282397508621216, 1.5371229648590088, -1.0393999814987183, 0.26081690192222595, -1.05322265625, 0.333984375, -0.771484375, 0, 
272, 2941693634, -93.74788665771484, -43.15595245361328, 62.84290313720703, 6.208159446716309, -7.365471839904785, 0.2336040437221527, 1.6089966297149658, -1.3398549556732178, -0.35155537724494934, -1.05615234375, 0.33740234375, -0.7685546875, 0, 
273, 2941701967, -93.75020599365234, -43.155967712402344, 62.84627151489258, 7.32499361038208, -6.8529510498046875, -0.4754360020160675, 1.6942150592803955, -1.5994553565979004, -0.061422932893037796, -1.05126953125, 0.3369140625, -0.7705078125, 0, 
274, 2941710300, -93.7465591430664, -43.15323257446289, 62.84095764160156, 7.1141743659973145, -7.131579399108887, -1.3020057678222656, 1.6185251474380493, -0.7637397050857544, 0.33125612139701843, -1.0556640625, 0.3359375, -0.765625, 0, 
275, 2941718633, -93.74701690673828, -43.15251922607422, 62.84025573730469, 6.067070484161377, -7.632843971252441, -0.13407395780086517, 1.5042728185653687, -1.1504504680633545, 0.06214012950658798, -1.0546875, 0.3369140625, -0.75927734375, 0, 
276, 2941726966, -93.74874877929688, -43.15537643432617, 62.84431838989258, 6.491837978363037, -7.119723796844482, 0.251211553812027, 1.733635425567627, -1.536751627922058, -0.39825013279914856, -1.0537109375, 0.3359375, -0.765625, 0, 
277, 2941735299, -93.74825286865234, -43.15572738647461, 62.84343719482422, 7.531436443328857, -6.699997425079346, -0.8462430834770203, 1.6014533042907715, -1.127679467201233, -0.0629982203245163, -1.05615234375, 0.3369140625, -0.76806640625, 0, 
278, 2941743632, -93.7449722290039, -43.15337371826172, 62.83827209472656, 6.7655930519104, -7.332089424133301, -1.142603874206543, 1.5670788288116455, -0.7609604597091675, 0.27663370966911316, -1.05224609375, 0.33544921875, -0.7724609375, 0, 
279, 2941751965, -93.74506378173828, -43.15460205078125, 62.83867645263672, 5.965003490447998, -7.586911201477051, 0.15023978054523468, 1.6644642353057861, -1.272835373878479, -0.18361562490463257, -1.0576171875, 0.33740234375, -0.7666015625, 0, 
280, 2941760298, -93.74742889404297, -43.15621566772461, 62.844085693359375, 6.918788909912109, -7.017783164978027, 0.014098810963332653, 1.777948021888733, -1.6659754514694214, -0.2530430257320404, -1.05615234375, 0.3369140625, -0.77197265625, 0, 
281, 2941768631, -93.74430847167969, -43.15511703491211, 62.838985443115234, 7.502132415771484, -6.911468029022217, -1.1645482778549194, 1.5725730657577515, -0.7687600255012512, 0.1332068145275116, -1.0546875, 0.33740234375, -0.7705078125, 0, 
282, 2941776964, -93.74400329589844, -43.15364456176758, 62.837623596191406, 6.398898124694824, -7.504226207733154, -0.687288761138916, 1.5352659225463867, -1.1043192148208618, 0.14935660362243652, -1.0576171875, 0.3369140625, -0.771484375, 0, 
283, 2941785297, -93.74633026123047, -43.157203674316406, 62.84074020385742, 6.114500522613525, -7.310013771057129, 0.25860950350761414, 1.5937561988830566, -1.4500987529754639, -0.47117388248443604, -1.0537109375, 0.33544921875, -0.77099609375, 0, 
284, 2941793630, -93.74816131591797, -43.1580924987793, 62.84416961669922, 7.257396697998047, -6.787509918212891, -0.3685353100299835, 1.654974102973938, -1.4869575500488281, -0.1582190990447998, -1.06005859375, 0.33740234375, -0.77294921875, 0, 
285, 2941801963, -93.74493408203125, -43.15591812133789, 62.83858871459961, 7.2367048263549805, -7.07702112197876, -1.2475205659866333, 1.5407088994979858, -0.7422236204147339, 0.258357971906662, -1.05712890625, 0.3359375, -0.76806640625, 0, 
286, 2941810296, -93.74647521972656, -43.15467834472656, 62.83883285522461, 6.155338287353516, -7.737672328948975, -0.2666601240634918, 1.452467918395996, -1.2380127906799316, 0.1204509362578392, -1.05908203125, 0.337890625, -0.76806640625, 0, 
287, 2941818629, -93.74787139892578, -43.158809661865234, 62.84180450439453, 6.375704765319824, -7.335953235626221, 0.1975821703672409, 1.6920634508132935, -1.4349862337112427, -0.5375403165817261, -1.05615234375, 0.33740234375, -0.76513671875, 0, 
288, 2941826962, -93.74642181396484, -43.15943145751953, 62.84177780151367, 7.472253799438477, -6.738475799560547, -0.7514949440956116, 1.7471853494644165, -1.1664209365844727, -0.10770785808563232, -1.0537109375, 0.33740234375, -0.77197265625, 0, 
289, 2941835295, -93.74380493164062, -43.157264709472656, 62.83686065673828, 6.906563758850098, -7.0929856300354, -1.1270805597305298, 1.5273385047912598, -0.7944511771202087, 0.26155978441238403, -1.05859375, 0.3369140625, -0.767578125, 0, 
290, 2941843628, -93.7447738647461, -43.15645217895508, 62.83879852294922, 5.970764636993408, -7.542075157165527, 0.127991184592247, 1.6305125951766968, -1.3628311157226562, 0.05416129529476166, -1.05322265625, 0.3349609375, -0.76953125, 0, 
291, 2941851961, -93.74666595458984, -43.158573150634766, 62.842132568359375, 6.733181476593018, -7.1310625076293945, 0.007417093496769667, 1.640681505203247, -1.4692325592041016, -0.30583396553993225, -1.05810546875, 0.337890625, -0.77294921875, 0, 
292, 2941860294, -93.74466705322266, -43.157867431640625, 62.83832931518555, 7.617247581481934, -6.843855857849121, -1.158044457435608, 1.544909954071045, -0.8793367743492126, 0.07816184312105179, -1.056640625, 0.3359375, -0.77197265625, 0, 
293, 2941868627, -93.7425537109375, -43.154666900634766, 62.8333625793457, 6.503477096557617, -7.480886936187744, -0.771062970161438, 1.4624062776565552, -0.797166109085083, 0.3835347294807434, -1.05517578125, 0.3369140625, -0.77587890625, 0, 
294, 2941876960, -93.7439956665039, -43.156368255615234, 62.8354606628418, 5.929268836975098, -7.501682758331299, 0.34108519554138184, 1.6059740781784058, -1.3746391534805298, -0.25007176399230957, -1.05712890625, 0.33740234375, -0.76513671875, 0, 
295, 2941885293, -93.74555969238281, -43.15751266479492, 62.84075927734375, 7.184444904327393, -6.82001256942749, -0.262850821018219, 1.8632948398590088, -1.658470630645752, -0.1942327469587326, -1.05419921875, 0.3359375, -0.77001953125, 0, 
296, 2941893626, -93.74243927001953, -43.15433883666992, 62.83587646484375, 7.457358360290527, -6.885611534118652, -1.4131885766983032, 1.613696813583374, -0.8444885015487671, 0.37268713116645813, -1.0595703125, 0.3369140625, -0.7734375, 0, 
297, 2941901959, -93.74121856689453, -43.150718688964844, 62.8333625793457, 6.1198601722717285, -7.591766357421875, -0.4064728915691376, 1.5475351810455322, -1.0147719383239746, 0.41402849555015564, -1.05419921875, 0.33349609375, -0.7685546875, 0, 
298, 2941910292, -93.74281311035156, -43.152828216552734, 62.83709716796875, 6.156803607940674, -7.391169548034668, 0.2839519679546356, 1.7334048748016357, -1.5182325839996338, -0.30091601610183716, -1.0576171875, 0.33642578125, -0.77294921875, 0, 
299, 2941918625, -93.744384765625, -43.15312957763672, 62.840152740478516, 7.470947265625, -6.803352355957031, -0.6460229158401489, 1.677488923072815, -1.4687455892562866, -0.08035184442996979, -1.0576171875, 0.337890625, -0.765625, 0, 
300, 2941926958, -93.74056243896484, -43.15058517456055, 62.833675384521484, 7.106322765350342, -7.1439032554626465, -1.194175124168396, 1.5324994325637817, -0.6629860401153564, 0.3099834620952606, -1.05517578125, 0.33642578125, -0.77685546875, 0, 
301, 2941935291, -93.7393798828125, -43.150596618652344, 62.8315544128418, 5.94613790512085, -7.667471408843994, -0.002633313648402691, 1.5840482711791992, -1.021905541419983, -0.01744329184293747, -1.06005859375, 0.337890625, -0.7646484375, 0, 
302, 2941943624, -93.74141693115234, -43.15291213989258, 62.83622360229492, 6.5350141525268555, -7.070113182067871, 0.08290749788284302, 1.770571231842041, -1.6198954582214355, -0.33946549892425537, -1.05517578125, 0.33642578125, -0.77001953125, 0, 
303, 2941951957, -93.74108123779297, -43.15305709838867, 62.83515930175781, 7.644442081451416, -6.602141380310059, -1.0687435865402222, 1.6114810705184937, -1.167343020439148, -0.05110039934515953, -1.056640625, 0.33935546875, -0.771484375, 0, 
304, 2941960290, -93.73944091796875, -43.150028228759766, 62.830780029296875, 6.625743865966797, -7.321042537689209, -0.9387267827987671, 1.4522628784179688, -0.8494448661804199, 0.36317139863967896, -1.0546875, 0.333984375, -0.767578125, 0, 
305, 2941968623, -93.73973083496094, -43.15070724487305, 62.831600189208984, 5.837092876434326, -7.750776290893555, 0.39105647802352905, 1.649940848350525, -1.2729891538619995, -0.11384245753288269, -1.0595703125, 0.33740234375, -0.77099609375, 0, 
306, 2941976956, -93.74229431152344, -43.153560638427734, 62.83777618408203, 6.970943927764893, -7.087779998779297, -0.2124549299478531, 1.8039336204528809, -1.7247215509414673, -0.4086622893810272, -1.05859375, 0.33642578125, -0.76318359375, 0, 
307, 2941985289, -93.73960876464844, -43.15418243408203, 62.83338165283203, 7.626853942871094, -6.815876007080078, -1.263257384300232, 1.5796552896499634, -0.8176447749137878, -0.07731656730175018, -1.05419921875, 0.33447265625, -0.77587890625, 0, 
308, 2941993622, -93.73712921142578, -43.15152359008789, 62.83134078979492, 6.276153564453125, -7.475809097290039, -0.5119830369949341, 1.6870176792144775, -0.9983916282653809, 0.30082640051841736, -1.0595703125, 0.33642578125, -0.76611328125, 0, 
309, 2942001955, -93.73956298828125, -43.15397644042969, 62.83552169799805, 5.972381591796875, -7.435887813568115, 0.447090208530426, 1.655127763748169, -1.5495331287384033, -0.35352763533592224, -1.05322265625, 0.33642578125, -0.7666015625, 0, 
310, 2942010288, -93.7413330078125, -43.15510177612305, 62.83903121948242, 7.411557674407959, -6.787472248077393, -0.6126503348350525, 1.6924220323562622, -1.5050156116485596, -0.1821940541267395, -1.0576171875, 0.3359375, -0.76904296875, 0, 
311, 2942018621, -93.73857879638672, -43.15226745605469, 62.83275604248047, 7.369373798370361, -6.99442195892334, -1.3285833597183228, 1.4329371452331543, -0.6789181232452393, 0.3488146662712097, -1.05712890625, 0.337890625, -0.7685546875, 0, 
312, 2942026954, -93.73895263671875, -43.15016555786133, 62.83218765258789, 5.943760871887207, -7.757310390472412, -0.014332103542983532, 1.5258911848068237, -1.1873606443405151, 0.2214350551366806, -1.05517578125, 0.333984375, -0.7705078125, 0, 
313, 2942035287, -93.74017333984375, -43.153377532958984, 62.83700942993164, 6.334451675415039, -7.33815336227417, 0.24043837189674377, 1.8655872344970703, -1.6035921573638916, -0.4391176700592041, -1.05908203125, 0.3388671875, -0.7666015625, 0, 
314, 2942043620, -93.73957824707031, -43.154964447021484, 62.83768081665039, 7.679792404174805, -6.689465522766113, -0.9403181076049805, 1.7550362348556519, -1.2770360708236694, -0.2286454737186432, -1.05419921875, 0.33544921875, -0.7705078125, 0, 
315, 2942051953, -93.73725128173828, -43.15208053588867, 62.8332405090332, 6.981704235076904, -7.104419231414795, -1.1110831499099731, 1.5716383457183838, -0.8932324647903442, 0.33293387293815613, -1.05810546875, 0.33935546875, -0.77197265625, 0, 
316, 2942060286, -93.73884582519531, -43.15216064453125, 62.83477783203125, 5.781554698944092, -7.681042671203613, 0.27083393931388855, 1.5512877702713013, -1.3399063348770142, -0.04518350958824158, -1.0537109375, 0.33544921875, -0.76513671875, 0, 
317, 2942068619, -93.74042510986328, -43.15537643432617, 62.83946228027344, 6.66050910949707, -7.1343793869018555, -0.09092637151479721, 1.8106575012207031, -1.592027187347412, -0.438310831785202, -1.0546875, 0.3359375, -0.77734375, 0, 
318, 2942076952, -93.74030303955078, -43.1546516418457, 62.83778762817383, 7.75618839263916, -6.669295787811279, -1.2346044778823853, 1.5897091627120972, -1.1759495735168457, 0.054263755679130554, -1.0576171875, 0.33740234375, -0.76318359375, 0, 
319, 2942085285, -93.73832702636719, -43.15177917480469, 62.83309555053711, 6.534679889678955, -7.401247501373291, -0.7030333876609802, 1.4662355184555054, -0.8214356899261475, 0.34558722376823425, -1.0537109375, 0.33447265625, -0.7685546875, 0, 
320, 2942093618, -93.73957824707031, -43.153106689453125, 62.8353157043457, 5.836721897125244, -7.6981611251831055, 0.4768350422382355, 1.6531810760498047, -1.4038904905319214, -0.20673246681690216, -1.05859375, 0.3369140625, -0.76708984375, 0, 
321, 2942101951, -93.7410659790039, -43.15511703491211, 62.83905792236328, 7.253182411193848, -6.878932476043701, -0.510516881942749, 1.7660630941390991, -1.5479192733764648, -0.2987900376319885, -1.0537109375, 0.3349609375, -0.7685546875, 0, 
322, 2942110284, -93.73892211914062, -43.15365219116211, 62.83418273925781, 7.612407684326172, -6.637401580810547, -1.504287838935852, 1.4739710092544556, -0.7935929894447327, 0.17637962102890015, -1.0576171875, 0.33837890625, -0.76708984375, 0, 
323, 2942118617, -93.73749542236328, -43.150856018066406, 62.8308219909668, 5.960744857788086, -7.542253494262695, -0.2654331922531128, 1.511393666267395, -0.9347787499427795, 0.3282720744609833, -1.05615234375, 0.3359375, -0.76318359375, 0, 
324, 2942126950, -93.74050903320312, -43.15337371826172, 62.83427047729492, 5.967994213104248, -7.529846668243408, 0.47377443313598633, 1.5474711656570435, -1.5062706470489502, -0.35719048976898193, -1.05517578125, 0.3349609375, -0.767578125, 0, 
325, 2942135283, -93.74230194091797, -43.15398025512695, 62.83674240112305, 7.618292808532715, -6.86544132232666, -0.8347613215446472, 1.6038992404937744, -1.4183624982833862, -0.11326614767313004, -1.05908203125, 0.3388671875, -0.76220703125, 0, 
326, 2942143616, -93.73910522460938, -43.15153884887695, 62.830726623535156, 7.362762928009033, -7.067195892333984, -1.3146095275878906, 1.5284141302108765, -0.7338477969169617, 0.2892231047153473, -1.05224609375, 0.3349609375, -0.7666015625, 0, 
327, 2942151949, -93.73783874511719, -43.14995574951172, 62.83029556274414, 5.791622161865234, -7.692365646362305, 0.1674315482378006, 1.6129794120788574, -1.0670249462127686, 0.16772200167179108, -1.0556640625, 0.33837890625, -0.7666015625, 0, 
328, 2942160282, -93.74009704589844, -43.15258026123047, 62.83559036254883, 6.349773406982422, -7.202166557312012, 0.17250752449035645, 1.7803813219070435, -1.6493005752563477, -0.37156006693840027, -1.0537109375, 0.3349609375, -0.7646484375, 0, 
329, 2942168615, -93.73918914794922, -43.15287780761719, 62.83550262451172, 7.799378871917725, -6.614241600036621, -1.1324480772018433, 1.7183948755264282, -1.1959540843963623, -0.062165748327970505, -1.0556640625, 0.3369140625, -0.76953125, 0, 
330, 2942176948, -93.7366714477539, -43.14990997314453, 62.82933807373047, 6.794785976409912, -7.280614376068115, -1.0145878791809082, 1.4304397106170654, -0.7226032018661499, 0.35533347725868225, -1.0556640625, 0.33740234375, -0.76171875, 0, 
331, 2942185281, -93.73506927490234, -43.151004791259766, 62.827938079833984, 5.645975112915039, -7.875068664550781, 0.49132630228996277, 1.6919097900390625, -1.076719880104065, -0.14802466332912445, -1.05224609375, 0.3349609375, -0.7685546875, 0, 
332, 2942193614, -93.7359848022461, -43.15388870239258, 62.836551666259766, 6.868524551391602, -7.096316337585449, -0.15332020819187164, 1.8584153652191162, -1.5635570287704468, -0.40628018975257874, -1.05810546875, 0.33642578125, -0.76904296875, 0, 
333, 2942201947, -93.73413848876953, -43.15473175048828, 62.834503173828125, 7.874783992767334, -6.576258659362793, -1.4086170196533203, 1.6431788206100464, -1.001811146736145, -0.12211587280035019, -1.05322265625, 0.33740234375, -0.7705078125, 0, 
334, 2942210280, -93.73102569580078, -43.152130126953125, 62.8294563293457, 6.308390140533447, -7.4007673263549805, -0.541578471660614, 1.5742638111114502, -0.7867412567138672, 0.3137615919113159, -1.056640625, 0.3388671875, -0.7734375, 0, 
335, 2942218613, -93.7318344116211, -43.15420150756836, 62.831661224365234, 5.751931190490723, -7.6344170570373535, 0.5712613463401794, 1.6992483139038086, -1.382336139678955, -0.2875837981700897, -1.052734375, 0.33642578125, -0.76220703125, 0, 
336, 2942226946, -93.73384857177734, -43.156593322753906, 62.834815979003906, 7.362797260284424, -6.874817371368408, -0.6775413155555725, 1.8387689590454102, -1.69203782081604, -0.35436010360717773, -1.05517578125, 0.33447265625, -0.76904296875, 0, 
337, 2942235279, -93.7325210571289, -43.15542221069336, 62.82994842529297, 7.56682825088501, -6.849125862121582, -1.4601956605911255, 1.376175880432129, -0.7907242178916931, 0.14203092455863953, -1.056640625, 0.3369140625, -0.76318359375, 0, 
338, 2942243612, -93.7317123413086, -43.154083251953125, 62.82765197753906, 5.86391019821167, -7.62821626663208, 0.004425668623298407, 1.5019164085388184, -1.000684142112732, 0.1412625014781952, -1.052734375, 0.3359375, -0.767578125, 0, 
339, 2942251945, -93.73429107666016, -43.15727615356445, 62.833614349365234, 6.1760172843933105, -7.362809658050537, 0.44776076078414917, 1.7805094718933105, -1.6983776092529297, -0.45091304183006287, -1.05712890625, 0.34033203125, -0.765625, 0, 
340, 2942260278, -93.73339080810547, -43.1579704284668, 62.8348503112793, 7.781353950500488, -6.6412353515625, -1.024936318397522, 1.8282544612884521, -1.3077090978622437, -0.11718511581420898, -1.0556640625, 0.3369140625, -0.7646484375, 0, 
341, 2942268611, -93.73149108886719, -43.15581512451172, 62.83015823364258, 7.153929710388184, -7.057185649871826, -1.3144571781158447, 1.4574114084243774, -0.8124322891235352, 0.25802499055862427, -1.0546875, 0.33642578125, -0.7744140625, 0, 
342, 2942276944, -93.73119354248047, -43.15522384643555, 62.826656341552734, 5.678050994873047, -7.662085056304932, 0.26940783858299255, 1.5547456741333008, -1.1212375164031982, 0.04388999193906784, -1.0576171875, 0.3369140625, -0.76904296875, 0, 
343, 2942285277, -93.73448944091797, -43.15797805786133, 62.83414077758789, 6.489838123321533, -7.160348415374756, 0.13833703100681305, 1.8367584943771362, -1.8381288051605225, -0.40140068531036377, -1.0517578125, 0.3349609375, -0.7666015625, 0, 
344, 2942293610, -93.73294067382812, -43.15789794921875, 62.83164978027344, 7.813944339752197, -6.769932270050049, -1.2378976345062256, 1.576210379600525, -0.979027271270752, -0.009682180359959602, -1.05859375, 0.337890625, -0.763671875, 0, 
345, 2942301943, -93.73146057128906, -43.15534591674805, 62.82818603515625, 6.680025577545166, -7.43359899520874, -0.7902889847755432, 1.376163125038147, -0.7940412163734436, 0.3021070659160614, -1.05322265625, 0.3369140625, -0.7666015625, 0, 
346, 2942310276, -93.73185729980469, -43.1575813293457, 62.82841110229492, 5.7973175048828125, -7.611050128936768, 0.5055596232414246, 1.5873271226882935, -1.2082237005233765, -0.2967921495437622, -1.056640625, 0.33740234375, -0.7646484375, 0, 
347, 2942318609, -93.73538970947266, -43.15933609008789, 62.83484649658203, 7.130277633666992, -6.79559326171875, -0.31711873412132263, 1.7214304208755493, -1.75502347946167, -0.27393147349357605, -1.05517578125, 0.33642578125, -0.7685546875, 0, 
348, 2942326942, -93.73310852050781, -43.156982421875, 62.83104705810547, 7.642630577087402, -6.71236515045166, -1.4160256385803223, 1.6057435274124146, -0.9344072341918945, 0.26596540212631226, -1.0546875, 0.3359375, -0.77392578125, 0, 
349, 2942335275, -93.73353576660156, -43.15306854248047, 62.829078674316406, 6.1068949699401855, -7.6332807540893555, -0.34794241189956665, 1.4039802551269531, -1.0639897584915161, 0.4530005156993866, -1.056640625, 0.33642578125, -0.76708984375, 0, 
350, 2942343608, -93.73634338378906, -43.15487289428711, 62.83104705810547, 6.0133771896362305, -7.58574914932251, 0.5093004107475281, 1.5698837041854858, -1.5113422870635986, -0.27017897367477417, -1.0517578125, 0.33642578125, -0.77294921875, 0, 
351, 2942351941, -93.73754119873047, -43.15657043457031, 62.8353385925293, 7.566346645355225, -6.8397016525268555, -0.783469021320343, 1.8093513250350952, -1.5626477003097534, -0.2621617019176483, -1.0576171875, 0.33740234375, -0.76513671875, 0, 
352, 2942360274, -93.73483276367188, -43.15397644042969, 62.830322265625, 7.278335094451904, -7.040451526641846, -1.4493212699890137, 1.5308988094329834, -0.7881500124931335, 0.3130955696105957, -1.05419921875, 0.3349609375, -0.76416015625, 0, 
353, 2942368607, -93.73373413085938, -43.153621673583984, 62.8283576965332, 5.8308939933776855, -7.5414628982543945, 0.10275998711585999, 1.5866481065750122, -1.0374149084091187, 0.026049677282571793, -1.05517578125, 0.3349609375, -0.76708984375, 0, 
354, 2942376940, -93.73747253417969, -43.15533447265625, 62.83517837524414, 6.390737533569336, -7.0921711921691895, 0.3167630434036255, 1.7313687801361084, -1.8020000457763672, -0.2796178162097931, -1.0576171875, 0.33740234375, -0.76025390625, 0, 
355, 2942385273, -93.73674774169922, -43.15406799316406, 62.83376693725586, 7.743343353271484, -6.774287223815918, -1.1651190519332886, 1.5879032611846924, -1.0940479040145874, 0.13283541798591614, -1.0537109375, 0.33544921875, -0.7666015625, 0, 
356, 2942393606, -93.7336654663086, -43.151031494140625, 62.830501556396484, 6.7786126136779785, -7.439351558685303, -1.102028489112854, 1.5560393333435059, -0.7838340401649475, 0.3601874113082886, -1.0576171875, 0.337890625, -0.7705078125, 0, 
357, 2942401939, -93.73369598388672, -43.15284729003906, 62.83110046386719, 5.824389934539795, -7.608312606811523, 0.4233381152153015, 1.6015558242797852, -1.1888208389282227, -0.25046879053115845, -1.052734375, 0.3359375, -0.771484375, 0, 
358, 2942410272, -93.7369613647461, -43.15433120727539, 62.83781433105469, 6.909149169921875, -6.88449239730835, -0.02883268892765045, 1.774259328842163, -1.7831093072891235, -0.2428741455078125, -1.05810546875, 0.33740234375, -0.76708984375, 0, 
359, 2942418605, -93.73358154296875, -43.15275955200195, 62.832496643066406, 7.600630760192871, -6.780048370361328, -1.401653528213501, 1.587301254272461, -0.752802312374115, 0.19173535704612732, -1.0556640625, 0.333984375, -0.76416015625, 0, 
360, 2942426938, -93.73236846923828, -43.15039825439453, 62.82823181152344, 6.289111614227295, -7.586032867431641, -0.6679587960243225, 1.4134703874588013, -0.8650311827659607, 0.27171581983566284, -1.0556640625, 0.3349609375, -0.76806640625, 0, 
361, 2942435271, -93.73551940917969, -43.15242004394531, 62.83250045776367, 5.997317314147949, -7.447707176208496, 0.4340318739414215, 1.587314248085022, -1.565068244934082, -0.29163089394569397, -1.05712890625, 0.337890625, -0.7626953125, 0, 
362, 2942443604, -93.73760986328125, -43.15340805053711, 62.83470153808594, 7.374077320098877, -6.833346366882324, -0.41155633330345154, 1.6426024436950684, -1.5038117170333862, -0.17489399015903473, -1.0537109375, 0.33447265625, -0.7666015625, 0, 
363, 2942451937, -93.73590087890625, -43.15214920043945, 62.829837799072266, 7.244056224822998, -7.12114143371582, -1.4306186437606812, 1.4122536182403564, -0.7925044298171997, 0.14757640659809113, -1.0595703125, 0.33642578125, -0.765625, 0, 
364, 2942460270, -93.73748779296875, -43.15235900878906, 62.82942199707031, 6.054251670837402, -7.633878707885742, -0.13229000568389893, 1.3915444612503052, -1.170352816581726, -0.04967880621552467, -1.0556640625, 0.33447265625, -0.76318359375, 0, 
365, 2942468603, -93.74134063720703, -43.154624938964844, 62.83530807495117, 6.436063289642334, -7.133800029754639, 0.4125708043575287, 1.6373387575149536, -1.7026422023773193, -0.33169153332710266, -1.0537109375, 0.3349609375, -0.7705078125, 0, 
366, 2942476936, -93.74088287353516, -43.15491485595703, 62.836997985839844, 7.5509138107299805, -6.719590187072754, -0.9445104598999023, 1.6511064767837524, -1.1899605989456177, -0.0708489865064621, -1.056640625, 0.3359375, -0.76806640625, 0, 
367, 2942485269, -93.74066162109375, -43.152427673339844, 62.83416748046875, 6.777792930603027, -7.359900951385498, -1.228559136390686, 1.4110881090164185, -0.9789632558822632, 0.2876990735530853, -1.05419921875, 0.3369140625, -0.76806640625, 0, 
368, 2942493602, -93.74280548095703, -43.15473937988281, 62.8364372253418, 5.9729437828063965, -7.5274858474731445, 0.33531495928764343, 1.5890814065933228, -1.4439640045166016, -0.32685044407844543, -1.05712890625, 0.337890625, -0.76220703125, 0, 
369, 2942501935, -93.74536895751953, -43.15665817260742, 62.841068267822266, 6.859675407409668, -7.033730983734131, 0.146107479929924, 1.732073187828064, -1.6504788398742676, -0.294691801071167, -1.0537109375, 0.33447265625, -0.7666015625, 0, 
370, 2942510268, -93.74272155761719, -43.15528106689453, 62.83694839477539, 7.497565269470215, -7.015312671661377, -1.2509634494781494, 1.5956517457962036, -0.8570267558097839, 0.16174110770225525, -1.056640625, 0.33642578125, -0.7685546875, 0, 
371, 2942518601, -93.7414779663086, -43.15338134765625, 62.83505630493164, 6.503261566162109, -7.518652439117432, -0.7616627216339111, 1.6096880435943604, -1.0553064346313477, 0.2108691781759262, -1.05419921875, 0.33544921875, -0.7685546875, 0, 
372, 2942526934, -93.74329376220703, -43.15623474121094, 62.83766555786133, 6.079461097717285, -7.269986152648926, 0.3703601062297821, 1.664361596107483, -1.4767502546310425, -0.39488181471824646, -1.052734375, 0.33544921875, -0.76904296875, 0, 
373, 2942535267, -93.74390411376953, -43.15691375732422, 62.840065002441406, 7.14269495010376, -6.792741775512695, -0.2602494955062866, 1.7410250902175903, -1.4104093313217163, -0.12247445434331894, -1.056640625, 0.33837890625, -0.7705078125, 0, 
374, 2942543600, -93.7416763305664, -43.15526580810547, 62.83660125732422, 7.193976402282715, -7.162700176239014, -1.400343418121338, 1.5231760740280151, -0.8480232954025269, 0.18890497088432312, -1.05126953125, 0.33447265625, -0.76806640625, 0, 
375, 2942551933, -93.74158477783203, -43.15532302856445, 62.835289001464844, 6.224379062652588, -7.687276840209961, -0.3981349468231201, 1.4604469537734985, -1.0386700630187988, -0.028521452099084854, -1.05615234375, 0.337890625, -0.76806640625, 0, 
376, 2942560266, -93.7432861328125, -43.158287048339844, 62.839515686035156, 6.416102409362793, -7.191218376159668, 0.37053847312927246, 1.7578792572021484, -1.5543100833892822, -0.4060496687889099, -1.0537109375, 0.337890625, -0.7744140625, 0, 
377, 2942568599, -93.74099731445312, -43.15922546386719, 62.83821105957031, 7.416144847869873, -6.723229885101318, -0.7589985132217407, 1.7845181226730347, -1.0861331224441528, -0.13095277547836304, -1.05810546875, 0.337890625, -0.7724609375, 0, 
378, 2942576932, -93.73983764648438, -43.156803131103516, 62.83232498168945, 6.784007549285889, -7.235923767089844, -1.319601058959961, 1.4518404006958008, -0.9134419560432434, 0.2767874300479889, -1.05810546875, 0.33740234375, -0.7705078125, 0, 
379, 2942585265, -93.74197387695312, -43.15737533569336, 62.83372497558594, 6.055309772491455, -7.417634010314941, 0.042991600930690765, 1.4745858907699585, -1.3246785402297974, -0.10272587835788727, -1.05419921875, 0.33642578125, -0.77783203125, 0, 
380, 2942593598, -93.74510192871094, -43.15952682495117, 62.838470458984375, 6.782266616821289, -7.025294303894043, 0.08374743163585663, 1.663170576095581, -1.6470208168029785, -0.32332852482795715, -1.0595703125, 0.33740234375, -0.77294921875, 0, 
381, 2942601931, -93.7417984008789, -43.15938949584961, 62.833396911621094, 7.368072986602783, -7.111573219299316, -1.1633747816085815, 1.5936279296875, -0.7732168436050415, 0.010950084775686264, -1.05810546875, 0.3349609375, -0.76708984375, 0, 
382, 2942610264, -93.74005889892578, -43.15878677368164, 62.83058166503906, 6.477832317352295, -7.587120056152344, -0.9148410558700562, 1.5951778888702393, -0.9666428565979004, 0.06383068114519119, -1.0576171875, 0.33642578125, -0.7744140625, 0, 
383, 2942618597, -93.74230194091797, -43.162696838378906, 62.83427810668945, 6.256296157836914, -7.196971893310547, 0.22712022066116333, 1.649812936782837, -1.497267246246338, -0.5194182395935059, -1.0556640625, 0.33642578125, -0.77294921875, 0, 
384, 2942626930, -93.74210357666016, -43.16288375854492, 62.835166931152344, 7.166210651397705, -6.7316107749938965, -0.1959427297115326, 1.7363121509552002, -1.3151500225067139, -0.061410125344991684, -1.0556640625, 0.3359375, -0.77294921875, 0, 
385, 2942635263, -93.7388916015625, -43.16079330444336, 62.82997512817383, 7.0713276863098145, -7.1165385246276855, -1.3881733417510986, 1.5754419565200806, -0.77121901512146, 0.25172388553619385, -1.05908203125, 0.337890625, -0.7646484375, 0, 
386, 2942643596, -93.73985290527344, -43.16082763671875, 62.83001708984375, 6.299458980560303, -7.57216215133667, -0.4526321589946747, 1.4989451169967651, -1.214229941368103, -0.038536615669727325, -1.0546875, 0.3359375, -0.77099609375, 0, 
387, 2942651929, -93.74203491210938, -43.16309356689453, 62.83407974243164, 6.497042179107666, -7.19774055480957, 0.2962200343608856, 1.6926398277282715, -1.5576400756835938, -0.3300522267818451, -1.05908203125, 0.33837890625, -0.7744140625, 0, 
388, 2942660262, -93.74011993408203, -43.16380310058594, 62.83155822753906, 7.315891742706299, -6.958377838134766, -0.5095878839492798, 1.6384401321411133, -0.9802439212799072, -0.09865321964025497, -1.05712890625, 0.3359375, -0.76611328125, 0, 
389, 2942668595, -93.73790740966797, -43.162410736083984, 62.82894515991211, 6.825157165527344, -7.397975921630859, -1.1655813455581665, 1.6673073768615723, -0.9902334809303284, 0.15693840384483337, -1.05712890625, 0.33447265625, -0.77783203125, 0, 
390, 2942676928, -93.73788452148438, -43.16458511352539, 62.83102035522461, 6.254955291748047, -7.394221782684326, -0.10609154403209686, 1.6605323553085327, -1.2414963245391846, -0.29953286051750183, -1.05810546875, 0.33740234375, -0.76611328125, 0, 
391, 2942685261, -93.74127960205078, -43.16597366333008, 62.83788299560547, 6.843604564666748, -6.859969139099121, 0.12223328649997711, 1.7722362279891968, -1.7966338396072388, -0.2311428338289261, -1.056640625, 0.3369140625, -0.7734375, 0, 
392, 2942693594, -93.73834991455078, -43.16442108154297, 62.831729888916016, 7.235286712646484, -6.921298503875732, -0.9549188613891602, 1.486125111579895, -0.7166862487792969, 0.18338511884212494, -1.06005859375, 0.33837890625, -0.76513671875, 0, 
393, 2942701927, -93.73873138427734, -43.16172790527344, 62.83119201660156, 6.443905830383301, -7.558844089508057, -0.7947692275047302, 1.5171054601669312, -1.1793690919876099, 0.2918485999107361, -1.05419921875, 0.3349609375, -0.7734375, 0, 
394, 2942710260, -93.74029541015625, -43.16327667236328, 62.83399200439453, 6.365752220153809, -7.391648292541504, 0.19730672240257263, 1.6578813791275024, -1.4391741752624512, -0.22780020534992218, -1.05810546875, 0.3369140625, -0.771484375, 0, 
395, 2942718593, -93.74147033691406, -43.162445068359375, 62.836936950683594, 7.173306465148926, -6.921826362609863, -0.1728392392396927, 1.7188689708709717, -1.468400239944458, 0.055249907076358795, -1.056640625, 0.3369140625, -0.771484375, 0, 
396, 2942726926, -93.73820495605469, -43.15967559814453, 62.832794189453125, 7.01862096786499, -7.118584632873535, -1.1883013248443604, 1.655153512954712, -0.8654025197029114, 0.3218556344509125, -1.0537109375, 0.33740234375, -0.77734375, 0, 
397, 2942735259, -93.73714447021484, -43.15770721435547, 62.83159255981445, 6.272611618041992, -7.407748222351074, -0.4099789261817932, 1.6453176736831665, -1.1179335117340088, 0.2146344929933548, -1.05908203125, 0.3388671875, -0.76513671875, 0, 
398, 2942743592, -93.74150085449219, -43.158355712890625, 62.83783721923828, 6.489799976348877, -7.0802106857299805, 0.22832313179969788, 1.588863730430603, -1.7392321825027466, -0.14428499341011047, -1.05419921875, 0.3359375, -0.7685546875, 0, 
399, 2942751925, -93.73926544189453, -43.157344818115234, 62.83698272705078, 7.2766594886779785, -6.880679130554199, -0.6064918041229248, 1.7009131908416748, -1.0310113430023193, 0.09843549877405167, -1.06005859375, 0.337890625, -0.7685546875, 0, 
400, 2942760258, -93.7386245727539, -43.154441833496094, 62.83407211303711, 6.731445789337158, -7.4017767906188965, -1.1394931077957153, 1.4538254737854004, -0.9747240543365479, 0.33950385451316833, -1.05615234375, 0.3369140625, -0.7666015625, 0, 
401, 2942768591, -93.73991394042969, -43.155155181884766, 62.83589553833008, 6.197592258453369, -7.523322582244873, -0.07598206400871277, 1.6110328435897827, -1.3605897426605225, -0.12362710386514664, -1.05712890625, 0.333984375, -0.77587890625, 0, 
402, 2942776924, -93.74224853515625, -43.15631103515625, 62.84038543701172, 6.8706135749816895, -6.977298259735107, 0.05564753711223602, 1.821633219718933, -1.7245168685913086, -0.2078467160463333, -1.0576171875, 0.3359375, -0.77099609375, 0, 
403, 2942785257, -93.7380599975586, -43.15515899658203, 62.834312438964844, 7.293392658233643, -6.8644232749938965, -0.9796770215034485, 1.619498372077942, -0.684822142124176, 0.14414410293102264, -1.05322265625, 0.33447265625, -0.77587890625, 0, 
404, 2942793590, -93.73826599121094, -43.152706146240234, 62.832176208496094, 6.397071838378906, -7.478835105895996, -0.7779957056045532, 1.433001160621643, -1.0645020008087158, 0.27221524715423584, -1.05908203125, 0.3388671875, -0.765625, 0, 
405, 2942801923, -93.7398910522461, -43.15468215942383, 62.835079193115234, 6.169839859008789, -7.395772457122803, 0.04734206572175026, 1.6186532974243164, -1.4132142066955566, -0.2861110270023346, -1.0546875, 0.3359375, -0.77392578125, 0, 
406, 2942810256, -93.74435424804688, -43.15609359741211, 62.84082794189453, 7.1729254722595215, -6.8656086921691895, -0.2321464866399765, 1.553810715675354, -1.697135090827942, -0.22831246256828308, -1.0595703125, 0.337890625, -0.77587890625, 0, 
407, 2942818589, -93.74028015136719, -43.15413284301758, 62.834503173828125, 7.12478494644165, -7.146080017089844, -1.0838528871536255, 1.586417555809021, -0.6693639755249023, 0.24359136819839478, -1.0576171875, 0.33837890625, -0.76806640625, 0, 
408, 2942826922, -93.74058532714844, -43.153785705566406, 62.8338623046875, 6.200822353363037, -7.696194171905518, -0.3950722813606262, 1.5550146102905273, -1.1935336589813232, 0.007325669750571251, -1.056640625, 0.3359375, -0.77197265625, 0, 
409, 2942835255, -93.74371337890625, -43.157073974609375, 62.83861541748047, 6.53792142868042, -7.194208145141602, 0.11995040625333786, 1.6303075551986694, -1.5970474481582642, -0.4474550485610962, -1.05908203125, 0.3369140625, -0.765625, 0, 
410, 2942843588, -93.74425506591797, -43.15763854980469, 62.839256286621094, 7.393130779266357, -6.723849773406982, -0.6607738733291626, 1.6002622842788696, -1.2607582807540894, -0.10550504177808762, -1.05224609375, 0.33642578125, -0.77685546875, 0, 
411, 2942851921, -93.74227142333984, -43.15547180175781, 62.83589172363281, 6.753026962280273, -7.22297477722168, -1.0343271493911743, 1.4785561561584473, -0.8333463072776794, 0.2511475384235382, -1.05859375, 0.33837890625, -0.76806640625, 0, 
412, 2942860254, -93.74276733398438, -43.155784606933594, 62.83618927001953, 6.031712055206299, -7.603950023651123, -0.019002122804522514, 1.5791687965393066, -1.2310839891433716, -0.06591822952032089, -1.0556640625, 0.3359375, -0.7666015625, 0, 
413, 2942868587, -93.74625396728516, -43.157318115234375, 62.84082794189453, 6.848779678344727, -7.130099773406982, 0.030596157535910606, 1.5802959203720093, -1.5996731519699097, -0.23666274547576904, -1.05517578125, 0.3369140625, -0.77099609375, 0, 
414, 2942876920, -93.74224090576172, -43.157135009765625, 62.83884048461914, 7.506893157958984, -6.880126953125, -0.9959330558776855, 1.740845799446106, -0.8395705223083496, 0.012832731008529663, -1.05810546875, 0.337890625, -0.765625, 0, 
415, 2942885253, -93.74072265625, -43.15473937988281, 62.83591842651367, 6.559632778167725, -7.431837558746338, -0.835710346698761, 1.5593562126159668, -0.969626784324646, 0.27539142966270447, -1.0537109375, 0.3359375, -0.775390625, 0, 
416, 2942893586, -93.74034118652344, -43.15652847290039, 62.83634948730469, 6.054617881774902, -7.4428815841674805, 0.12390659004449844, 1.6512856483459473, -1.1949552297592163, -0.2489447295665741, -1.05615234375, 0.33935546875, -0.771484375, 0, 
417, 2942901919, -93.74324035644531, -43.157676696777344, 62.83990478515625, 7.090390682220459, -6.8369140625, -0.24482876062393188, 1.6014660596847534, -1.558754324913025, -0.19469380378723145, -1.0556640625, 0.3349609375, -0.76953125, 0, 
418, 2942910252, -93.73950958251953, -43.15689468383789, 62.83377456665039, 7.3438849449157715, -6.916281700134277, -1.166245937347412, 1.5592535734176636, -0.6786491274833679, 0.10134272277355194, -1.05810546875, 0.33837890625, -0.77197265625, 0, 
419, 2942918585, -93.74018096923828, -43.154693603515625, 62.83222961425781, 6.204570293426514, -7.6971354484558105, -0.3743848502635956, 1.4079633951187134, -1.089539885520935, 0.24587105214595795, -1.05712890625, 0.33544921875, -0.76611328125, 0, 
420, 2942926918, -93.74207305908203, -43.158451080322266, 62.83549499511719, 6.272233009338379, -7.445355415344238, 0.14869411289691925, 1.6402332782745361, -1.4535439014434814, -0.5012322068214417, -1.05517578125, 0.33544921875, -0.7724609375, 0, 
421, 2942935251, -93.74295806884766, -43.1602668762207, 62.83950424194336, 7.472459316253662, -6.672093391418457, -0.642487108707428, 1.840139627456665, -1.54243803024292, -0.2676943838596344, -1.05810546875, 0.33935546875, -0.76953125, 0, 
422, 2942943584, -93.7410659790039, -43.157005310058594, 62.83402633666992, 7.066608428955078, -6.927249431610107, -1.1612712144851685, 1.380773663520813, -0.7503689527511597, 0.3889649212360382, -1.05419921875, 0.3349609375, -0.77197265625, 0, 
423, 2942951917, -93.74310302734375, -43.15516662597656, 62.83495330810547, 5.881350517272949, -7.6779093742370605, 0.001421391381882131, 1.4504700899124146, -1.312704086303711, 0.1793636977672577, -1.05810546875, 0.33544921875, -0.7646484375, 0, 
424, 2942960250, -93.74510192871094, -43.158016204833984, 62.838096618652344, 6.559886932373047, -7.276508808135986, 0.027875050902366638, 1.634482741355896, -1.4570914506912231, -0.3866981267929077, -1.05224609375, 0.3349609375, -0.76953125, 0, 
425, 2942968583, -93.74629974365234, -43.15895462036133, 62.838539123535156, 7.686171531677246, -6.773088455200195, -1.0131043195724487, 1.5089472532272339, -1.239037275314331, -0.14238953590393066, -1.05615234375, 0.3359375, -0.767578125, 0, 
426, 2942976916, -93.742919921875, -43.15647506713867, 62.83222961425781, 6.669847011566162, -7.306707859039307, -0.8592066764831543, 1.4999054670333862, -0.6800835728645325, 0.299187034368515, -1.056640625, 0.33642578125, -0.76708984375, 0, 
427, 2942985249, -93.74444580078125, -43.157249450683594, 62.83302307128906, 5.816376686096191, -7.630064010620117, 0.2971267104148865, 1.4968574047088623, -1.2705429792404175, -0.1256890594959259, -1.05224609375, 0.33642578125, -0.76953125, 0, 
428, 2942993582, -93.7451171875, -43.15977478027344, 62.838218688964844, 6.951496601104736, -6.97453498840332, -0.17754770815372467, 1.8848364353179932, -1.567078948020935, -0.3604435622692108, -1.05810546875, 0.337890625, -0.7646484375, 0, 
429, 2943001915, -93.74275970458984, -43.15930938720703, 62.832611083984375, 7.70646333694458, -6.675690174102783, -1.232086181640625, 1.7232232093811035, -1.0368001461029053, 0.034809742122888565, -1.05322265625, 0.3369140625, -0.77392578125, 0, 
430, 2943010248, -93.74124145507812, -43.155982971191406, 62.828392028808594, 6.348567485809326, -7.457614421844482, -0.5629361271858215, 1.452070951461792, -0.8622903823852539, 0.395586222410202, -1.056640625, 0.337890625, -0.77392578125, 0, 
431, 2943018581, -93.74214935302734, -43.15769958496094, 62.829837799072266, 5.9097371101379395, -7.669376373291016, 0.42339950799942017, 1.6260299682617188, -1.320183277130127, -0.2419520616531372, -1.05517578125, 0.33642578125, -0.7626953125, 0, 
432, 2943026914, -93.74454498291016, -43.159420013427734, 62.835365295410156, 7.291868209838867, -6.927243232727051, -0.47572454810142517, 1.7703405618667603, -1.6738901138305664, -0.2705375552177429, -1.0537109375, 0.3330078125, -0.77587890625, 0, 
433, 2943035247, -93.74217224121094, -43.15836715698242, 62.831485748291016, 7.514067649841309, -6.8656158447265625, -1.2795827388763428, 1.5810513496398926, -0.8764422535896301, 0.12162919342517853, -1.05908203125, 0.3349609375, -0.7646484375, 0, 
434, 2943043580, -93.74095153808594, -43.15637969970703, 62.827945709228516, 6.0044355392456055, -7.660914897918701, -0.096382275223732, 1.563044786453247, -1.0174742937088013, 0.21775944530963898, -1.0517578125, 0.33544921875, -0.77392578125, 0, 
435, 2943051913, -93.74173736572266, -43.1591682434082, 62.83174514770508, 6.168644905090332, -7.3719162940979, 0.24789845943450928, 1.7852224111557007, -1.4737662076950073, -0.39025843143463135, -1.0556640625, 0.337890625, -0.7705078125, 0, 
436, 2943060246, -93.74424743652344, -43.1598014831543, 62.835445404052734, 7.644550323486328, -6.592844009399414, -0.9820969700813293, 1.617884635925293, -1.5269668102264404, -0.12187252193689346, -1.0556640625, 0.3349609375, -0.76904296875, 0, 
437, 2943068579, -93.74111938476562, -43.15644836425781, 62.82932662963867, 7.12646484375, -7.007781982421875, -1.1303300857543945, 1.4902105331420898, -0.6991021633148193, 0.40893125534057617, -1.05419921875, 0.33544921875, -0.77392578125, 0, 
438, 2943076912, -93.74256134033203, -43.155426025390625, 62.83345031738281, 5.734389781951904, -7.813803672790527, 0.32485613226890564, 1.565093755722046, -1.3565043210983276, 0.07836674898862839, -1.05615234375, 0.337890625, -0.76806640625, 0, 
439, 2943085245, -93.74439239501953, -43.15782928466797, 62.8380126953125, 6.643200874328613, -7.308028221130371, -0.05456165969371796, 1.7731326818466187, -1.5860079526901245, -0.3387739062309265, -1.05322265625, 0.3349609375, -0.7724609375, 0, 
440, 2943093578, -93.74236297607422, -43.15810775756836, 62.83556365966797, 7.843046188354492, -6.642899036407471, -1.2894237041473389, 1.7529997825622559, -1.1048698425292969, -0.0626780316233635, -1.05712890625, 0.33935546875, -0.76611328125, 0, 
441, 2943101911, -93.74040985107422, -43.15434646606445, 62.82944107055664, 6.604219913482666, -7.129332065582275, -0.8113064765930176, 1.4912478923797607, -0.8606382608413696, 0.44365134835243225, -1.05517578125, 0.33447265625, -0.76611328125, 0, 
442, 2943110244, -93.74134063720703, -43.1545295715332, 62.83143615722656, 5.640040397644043, -7.54715633392334, 0.45300057530403137, 1.6656039953231812, -1.380325436592102, -0.0599629171192646, -1.0576171875, 0.33837890625, -0.7724609375, 0, 
443, 2943118577, -93.74392700195312, -43.1561279296875, 62.83679962158203, 7.02532434463501, -7.024899482727051, -0.35461822152137756, 1.7460072040557861, -1.6620310544967651, -0.24940583109855652, -1.0546875, 0.33642578125, -0.76806640625, 0, 
444, 2943126910, -93.7424087524414, -43.15409851074219, 62.83113098144531, 7.787841320037842, -6.873202800750732, -1.404859185218811, 1.4787993431091309, -0.8889162540435791, 0.22879914939403534, -1.0537109375, 0.3359375, -0.771484375, 0, 
445, 2943135243, -93.74012756347656, -43.151275634765625, 62.82704544067383, 6.187328815460205, -7.656723976135254, -0.4407341182231903, 1.5552066564559937, -0.8722671270370483, 0.3345603048801422, -1.0576171875, 0.33642578125, -0.76220703125, 0, 
446, 2943143576, -93.74114990234375, -43.153804779052734, 62.82803726196289, 5.879878520965576, -7.51932954788208, 0.4474382996559143, 1.6614545583724976, -1.3753819465637207, -0.34781569242477417, -1.05224609375, 0.33544921875, -0.77197265625, 0, 
447, 2943151909, -93.74232482910156, -43.15498733520508, 62.83195495605469, 7.497812747955322, -6.656190395355225, -0.7006624341011047, 1.8017308712005615, -1.556973934173584, -0.19857434928417206, -1.0556640625, 0.3388671875, -0.76953125, 0, 
448, 2943160242, -93.74076843261719, -43.152400970458984, 62.82770919799805, 7.382258415222168, -6.8626861572265625, -1.3636776208877563, 1.4548373222351074, -0.8545548319816589, 0.30667921900749207, -1.0546875, 0.3349609375, -0.763671875, 0, 
449, 2943168575, -93.74256134033203, -43.150203704833984, 62.8267707824707, 5.807116508483887, -7.761608600616455, -0.023674599826335907, 1.3258696794509888, -1.1421515941619873, 0.2396467626094818, -1.0546875, 0.3349609375, -0.7685546875, 0, 
450, 2943176908, -93.7452163696289, -43.15366744995117, 62.82513427734375, 6.303068161010742, -7.379969596862793, 0.2940513789653778, 1.6788593530654907, -1.598084807395935, -0.47397857904434204, -1.05810546875, 0.33544921875, -0.76513671875, 0, 
451, 2943185241, -93.74443054199219, -43.15439224243164, 62.82481002807617, 7.77907657623291, -6.754595756530762, -0.9948939085006714, 1.6837517023086548, -1.1745792627334595, -0.10989787429571152, -1.05322265625, 0.33642578125, -0.7724609375, 0, 
452, 2943193574, -93.7420654296875, -43.15235900878906, 62.81197738647461, 6.894911289215088, -7.266208171844482, -1.129462480545044, 1.4292103052139282, -0.7331562042236328, 0.24135012924671173, -1.0576171875, 0.3359375, -0.7646484375, 0, 
453, 2943201907, -93.74108123779297, -43.15316390991211, 62.8139533996582, 5.733704090118408, -7.669715404510498, 0.4349856376647949, 1.639400601387024, -1.105868935585022, -0.12479254603385925, -1.05322265625, 0.33154296875, -0.763671875, 0, 
454, 2943210240, -93.74398040771484, -43.15530014038086, 62.81936264038086, 6.78826904296875, -6.999283790588379, -0.04857468605041504, 1.7149626016616821, -1.663209080696106, -0.31433790922164917, -1.05810546875, 0.3369140625, -0.76953125, 0, 
455, 2943218573, -93.7423324584961, -43.154144287109375, 62.81684112548828, 7.718608379364014, -6.727412223815918, -1.3818436861038208, 1.6059356927871704, -0.9947159886360168, 0.1248437762260437, -1.05517578125, 0.3349609375, -0.76708984375, 0, 
456, 2943226906, -93.74090576171875, -43.15275955200195, 62.81321334838867, 6.4091620445251465, -7.503682613372803, -0.7617920637130737, 1.3953611850738525, -0.8079882264137268, 0.1581422984600067, -1.0556640625, 0.33447265625, -0.76708984375, 0, 
457, 2943235239, -93.74396514892578, -43.15513229370117, 62.81660079956055, 5.868495464324951, -7.534590721130371, 0.5836835503578186, 1.5277354717254639, -1.4834611415863037, -0.3305132985115051, -1.05615234375, 0.337890625, -0.7626953125, 0, 
458, 2943243572, -93.74604797363281, -43.156429290771484, 62.820960998535156, 7.300063133239746, -6.9620747566223145, -0.38907894492149353, 1.7217377424240112, -1.5891969203948975, -0.2142246663570404, -1.05322265625, 0.33349609375, -0.767578125, 0, 
459, 2943251905, -93.74301147460938, -43.15532302856445, 62.81456756591797, 7.546328067779541, -6.980616569519043, -1.511638879776001, 1.488161563873291, -0.6999730467796326, 0.13086311519145966, -1.0595703125, 0.3388671875, -0.77099609375, 0, 
460, 2943260238, -93.74249267578125, -43.154579162597656, 62.81300735473633, 6.092851638793945, -7.543402671813965, -0.2408391386270523, 1.5495203733444214, -1.0755417346954346, 0.0701189711689949, -1.0556640625, 0.33447265625, -0.767578125, 0, 
461, 2943268571, -93.74467468261719, -43.15692138671875, 62.817893981933594, 6.072824478149414, -7.194326400756836, 0.4293258786201477, 1.755151629447937, -1.6168986558914185, -0.3335229754447937, -1.05419921875, 0.337890625, -0.7724609375, 0, 
462, 2943276904, -93.74317169189453, -43.156673431396484, 62.81840515136719, 7.5355024337768555, -6.7609429359436035, -0.867167055606842, 1.7946356534957886, -1.2169963121414185, -0.004392840433865786, -1.05419921875, 0.3359375, -0.76171875, 0, 
463, 2943285237, -93.7415771484375, -43.15401840209961, 62.81438064575195, 7.092912673950195, -7.312323093414307, -1.3081965446472168, 1.4781078100204468, -0.8768009543418884, 0.3131980299949646, -1.0546875, 0.33154296875, -0.76953125, 0, 
464, 2943293570, -93.74079895019531, -43.15475082397461, 62.813201904296875, 5.890727996826172, -7.735320568084717, 0.21310140192508698, 1.7173446416854858, -1.2192630767822266, -0.12325568497180939, -1.05859375, 0.337890625, -0.7685546875, 0, 
465, 2943301903, -93.7427978515625, -43.158226013183594, 62.81668472290039, 6.673435688018799, -7.0571722984313965, 0.19595451653003693, 1.7408841848373413, -1.5797067880630493, -0.47714197635650635, -1.05078125, 0.3369140625, -0.77099609375, 0, 
466, 2943310236, -93.73981475830078, -43.15793228149414, 62.81427764892578, 7.6739277839660645, -6.695130348205566, -1.2326984405517578, 1.7773847579956055, -1.0005689859390259, 0.022630179300904274, -1.05712890625, 0.3369140625, -0.7724609375, 0, 
467, 2943318569, -93.73851776123047, -43.15623092651367, 62.81264114379883, 6.564412593841553, -7.29755973815918, -0.9481449127197266, 1.6368136405944824, -1.0775396823883057, 0.1867918074131012, -1.0537109375, 0.33544921875, -0.76611328125, 0, 
468, 2943326902, -93.73851776123047, -43.15753173828125, 62.813663482666016, 5.890451908111572, -7.510032653808594, 0.4384778141975403, 1.675926685333252, -1.2647027969360352, -0.19489870965480804, -1.05517578125, 0.333984375, -0.7744140625, 0, 
469, 2943335235, -93.74083709716797, -43.1593017578125, 62.81828689575195, 7.038302421569824, -7.001298427581787, -0.15101708471775055, 1.717857003211975, -1.5965863466262817, -0.2664392590522766, -1.05712890625, 0.33837890625, -0.7646484375, 0, 
470, 2943343568, -93.73771667480469, -43.15781021118164, 62.81206512451172, 7.494260311126709, -7.0621514320373535, -1.4092493057250977, 1.604757308959961, -0.8211538195610046, 0.17133361101150513, -1.0517578125, 0.33447265625, -0.76904296875, 0, 
471, 2943351901, -93.73497772216797, -43.15714645385742, 62.808738708496094, 6.282989025115967, -7.557476043701172, -0.4635537266731262, 1.7021429538726807, -0.9622371792793274, 0.061038725078105927, -1.0576171875, 0.3359375, -0.76806640625, 0, 
472, 2943360234, -93.73743438720703, -43.159446716308594, 62.81391906738281, 6.196352958679199, -7.175405979156494, 0.5004351139068604, 1.7464683055877686, -1.6414883136749268, -0.3308846950531006, -1.0556640625, 0.33642578125, -0.767578125, 0, 
473, 2943368567, -93.73680877685547, -43.15917205810547, 62.815086364746094, 7.457890033721924, -6.700921535491943, -0.5954490303993225, 1.7872588634490967, -1.312255620956421, -0.0011654476402327418, -1.05810546875, 0.3369140625, -0.771484375, 0, 
474, 2943376900, -93.73493194580078, -43.15498733520508, 62.810420989990234, 7.072037220001221, -7.135486125946045, -1.4973827600479126, 1.5041064023971558, -0.8905557990074158, 0.49014121294021606, -1.05810546875, 0.33740234375, -0.767578125, 0, 
475, 2943385233, -93.73487091064453, -43.153987884521484, 62.809722900390625, 5.999621868133545, -7.635188579559326, 0.02675185538828373, 1.5658621788024902, -1.153895616531372, 0.09583565592765808, -1.05615234375, 0.3349609375, -0.77197265625, 0, 
476, 2943393566, -93.7364730834961, -43.155582427978516, 62.81304168701172, 6.482803821563721, -7.1591339111328125, 0.35045498609542847, 1.8865396976470947, -1.6949580907821655, -0.2565906345844269, -1.060546875, 0.33740234375, -0.7685546875, 0, 
477, 2943401899, -93.73392486572266, -43.15474319458008, 62.810447692871094, 7.588634014129639, -6.844087600708008, -1.0357180833816528, 1.6903600692749023, -0.9732256531715393, 0.08076167106628418, -1.0546875, 0.33544921875, -0.77392578125, 0, 
478, 2943410232, -93.73114776611328, -43.15221405029297, 62.80708694458008, 6.7240705490112305, -7.414639472961426, -0.9796066284179688, 1.6737875938415527, -0.9327808022499084, 0.2957162857055664, -1.05712890625, 0.33544921875, -0.77392578125, 0, 
479, 2943418565, -93.73184967041016, -43.154632568359375, 62.80830383300781, 5.993028163909912, -7.451291561126709, 0.25893640518188477, 1.630537986755371, -1.2961827516555786, -0.32499340176582336, -1.05712890625, 0.33544921875, -0.7666015625, 0, 
480, 2943426898, -93.73473358154297, -43.155029296875, 62.8140869140625, 6.949575424194336, -6.80654239654541, -0.12568674981594086, 1.7637449502944946, -1.736376404762268, -0.11560985445976257, -1.0556640625, 0.33642578125, -0.779296875, 0, 
481, 2943435231, -93.73069763183594, -43.15214157104492, 62.807525634765625, 7.339591979980469, -6.932936668395996, -1.3027715682983398, 1.560163140296936, -0.6574791073799133, 0.3563196659088135, -1.05908203125, 0.33740234375, -0.76611328125, 0, 
482, 2943443564, -93.7309341430664, -43.15001678466797, 62.81010437011719, 6.269440174102783, -7.649314880371094, -0.5354319214820862, 1.5472662448883057, -1.188244342803955, 0.22221627831459045, -1.052734375, 0.33447265625, -0.771484375, 0, 
483, 2943451897, -93.73194885253906, -43.153343200683594, 62.81361770629883, 6.264352321624756, -7.398968696594238, 0.33871740102767944, 1.734480619430542, -1.4524295330047607, -0.4477880597114563, -1.05859375, 0.3388671875, -0.7685546875, 0, 
484, 2943460230, -93.7325210571289, -43.15426254272461, 62.81616973876953, 7.379985809326172, -6.857995986938477, -0.43944594264030457, 1.758890986442566, -1.4223072528839111, -0.15217415988445282, -1.05517578125, 0.3369140625, -0.76708984375, 0, 
485, 2943468563, -93.72964477539062, -43.15145492553711, 62.8104133605957, 7.095346450805664, -7.131753444671631, -1.3422212600708008, 1.488430380821228, -0.7266245484352112, 0.34132248163223267, -1.0576171875, 0.333984375, -0.77197265625, 0, 
486, 2943476896, -93.73084259033203, -43.15176010131836, 62.8109130859375, 6.0630106925964355, -7.511828422546387, -0.1430070996284485, 1.5182580947875977, -1.2631019353866577, -0.07337196916341782, -1.05810546875, 0.33544921875, -0.76513671875, 0, 
487, 2943485229, -93.73303985595703, -43.15327835083008, 62.81478500366211, 6.449909210205078, -7.0964202880859375, 0.2578796148300171, 1.6709574460983276, -1.532602310180664, -0.23234674334526062, -1.056640625, 0.33349609375, -0.7724609375, 0, 
