sep=,
PacketCounter,SampleTimeFine,Euler_X,Euler_Y,Euler_Z,Acc_X,Acc_Y,Acc_Z,Gyr_X,Gyr_Y,Gyr_Z,
0, 2939343728, -89.22317504882812, -46.150909423828125, -91.99790954589844, 0, 0, 0, 0, 0, 0, 
1, 2939343728, -89.22019958496094, -46.148807525634766, -92.00643920898438, NaN, NaN, NaN, Infinity, Infinity, Infinity, 
2, 2939352061, -89.21952819824219, -46.15187072753906, -92.00737762451172, 6.438146114349365, -7.076766014099121, 0.737948477268219, 2.210841655731201, 0.5231707692146301, 0.8609713315963745, 
3, 2939360394, -89.22393035888672, -46.15403366088867, -91.99669647216797, 7.4230780601501465, -6.574071407318115, 0.4976542890071869, 2.598423480987549, -0.43884873390197754, 0.9747625589370728, 
4, 2939368727, -89.222900390625, -46.153282165527344, -91.99857330322266, 7.804080486297607, -6.609228134155273, -0.6811390519142151, 2.1651713848114014, 0.6074416041374207, 1.3179036378860474, 
5, 2939377060, -89.2194595336914, -46.15142059326172, -92.00650024414062, 6.678017616271973, -7.012718200683594, -0.04364534467458725, 1.9284443855285645, 1.1135019063949585, 1.4339359998703003, 
6, 2939385393, -89.22130584716797, -46.15360641479492, -92.00362396240234, 6.575901031494141, -6.993166923522949, 0.8442208170890808, 2.2298474311828613, 0.20832057297229767, 0.9750058650970459, 
7, 2939393726, -89.22412872314453, -46.154212951660156, -91.99679565429688, 7.753001689910889, -6.614602088928223, 0.10240671783685684, 2.4591586589813232, -0.11844021826982498, 1.1537803411483765, 
8, 2939402059, -89.2210693359375, -46.152259826660156, -92.00300598144531, 7.568836688995361, -6.980645656585693, -0.7139397859573364, 2.0418002605438232, 0.9667196869850159, 1.4577447175979614, 
9, 2939410392, -89.21778106689453, -46.15365219116211, -92.00918579101562, 6.450209140777588, -6.964299201965332, 0.31711381673812866, 2.060626983642578, 0.9638252854347229, 1.046251893043518, 
10, 2939418725, -89.2214126586914, -46.15535354614258, -92.00152587890625, 6.9204864501953125, -6.734542369842529, 0.7886279821395874, 2.435900926589966, -0.19072359800338745, 1.0342644453048706, 
11, 2939427058, -89.22335815429688, -46.15420913696289, -91.99725341796875, 7.902582168579102, -6.508988857269287, -0.28322476148605347, 2.3393352031707764, 0.09775671362876892, 1.3630486726760864, 
12, 2939435391, -89.21932220458984, -46.151100158691406, -92.00639343261719, 7.1585588455200195, -7.0516180992126465, -0.6054879426956177, 1.899743676185608, 1.21730375289917, 1.5935769081115723, 
13, 2939443724, -89.21727752685547, -46.15324020385742, -92.00969696044922, 6.425026893615723, -7.061652183532715, 0.6732208132743835, 2.1633524894714355, 0.7225263118743896, 0.9607130885124207, 
14, 2939452057, -89.2199478149414, -46.155494689941406, -92.00241088867188, 7.309183120727539, -6.691517353057861, 0.7037841081619263, 2.5174055099487305, -0.1575019359588623, 0.9681284427642822, 
15, 2939460390, -89.2210693359375, -46.15488815307617, -92.0027084350586, 7.858222484588623, -6.7780442237854, -0.6542850732803345, 2.0436317920684814, 0.476552814245224, 1.2926734685897827, 
16, 2939468723, -89.21694946289062, -46.153968811035156, -92.00987243652344, 6.816009998321533, -7.032334327697754, -0.0716065913438797, 2.0837690830230713, 1.0472891330718994, 1.332426905632019, 
17, 2939477056, -89.2176284790039, -46.157012939453125, -92.00868225097656, 6.603016376495361, -6.905327320098877, 0.539455771446228, 2.223982095718384, 0.3473546504974365, 0.8558996915817261, 
18, 2939485389, -89.22124481201172, -46.15823745727539, -92.00074768066406, 7.578979969024658, -6.4776506423950195, 0.42967742681503296, 2.4552652835845947, -0.2091914415359497, 1.0934587717056274, 
19, 2939493722, -89.22100830078125, -46.155303955078125, -92.00392150878906, 7.531834602355957, -6.9157867431640625, -0.8040629625320435, 1.9613714218139648, 0.7167760133743286, 1.567808747291565, 
20, 2939502055, -89.21773529052734, -46.15473175048828, -92.009765625, 6.566492080688477, -7.098695755004883, 0.3135210871696472, 2.0894298553466797, 0.9383262991905212, 1.296054720878601, 
21, 2939510388, -89.22003173828125, -46.15741729736328, -92.0039291381836, 6.9808783531188965, -6.888849258422852, 0.7267512679100037, 2.4359264373779297, -0.03949715197086334, 0.9016338586807251, 
22, 2939518721, -89.22164154052734, -46.15679168701172, -91.9981689453125, 7.870489120483398, -6.5019378662109375, -0.10637060552835464, 2.513845205307007, -0.027381617575883865, 1.3124350309371948, 
23, 2939527054, -89.2163314819336, -46.154232025146484, -92.00767517089844, 7.201653957366943, -6.998457908630371, -0.6322471499443054, 2.018017530441284, 1.2446212768554688, 1.5165932178497314, 
24, 2939535387, -89.21468353271484, -46.156009674072266, -92.01084899902344, 6.398334980010986, -6.935516357421875, 0.5153142213821411, 2.1324362754821777, 0.7129977345466614, 1.0135295391082764, 
25, 2939543720, -89.21795654296875, -46.15765380859375, -92.00354766845703, 7.235400676727295, -6.697168827056885, 0.6472779512405396, 2.4445457458496094, -0.16017861664295197, 1.0313059091567993, 
26, 2939552053, -89.21878051757812, -46.157066345214844, -92.0030517578125, 7.844271183013916, -6.753440856933594, -0.49118539690971375, 2.144436836242676, 0.41206902265548706, 1.302573561668396, 
27, 2939560386, -89.21446990966797, -46.15498352050781, -92.0118179321289, 6.889184474945068, -7.114105224609375, -0.2085873782634735, 1.9642531871795654, 1.1803293228149414, 1.4600368738174438, 
28, 2939568719, -89.21379089355469, -46.157379150390625, -92.01117706298828, 6.601559162139893, -6.94751501083374, 0.6645678281784058, 2.3414483070373535, 0.39768657088279724, 0.9465228319168091, 
29, 2939577052, -89.21638488769531, -46.15790557861328, -92.00395965576172, 7.580574035644531, -6.46304178237915, 0.4770604968070984, 2.5200440883636475, -0.15089347958564758, 1.1644359827041626, 
30, 2939585385, -89.21502685546875, -46.15550994873047, -92.00794219970703, 7.608448505401611, -6.823694229125977, -0.8052109479904175, 2.024203300476074, 0.7850377559661865, 1.5137115716934204, 
31, 2939593718, -89.21141815185547, -46.15427780151367, -92.01534271240234, 6.511964797973633, -7.0744452476501465, 0.3080172538757324, 1.9968600273132324, 1.0663974285125732, 1.3585532903671265, 
32, 2939602051, -89.214111328125, -46.157047271728516, -92.01012420654297, 6.794081687927246, -6.93887996673584, 0.5257453918457031, 2.335890293121338, 0.010937279090285301, 0.906513512134552, 
33, 2939610384, -89.21653747558594, -46.15700149536133, -92.00472259521484, 7.817441940307617, -6.540314674377441, 0.15109223127365112, 2.3818163871765137, 0.0025870376266539097, 1.2303540706634521, 
34, 2939618717, -89.21405029296875, -46.15439224243164, -92.01091003417969, 7.345824241638184, -6.961249828338623, -0.6537902355194092, 1.969043254852295, 0.9695756435394287, 1.5378532409667969, 
35, 2939627050, -89.21147155761719, -46.155242919921875, -92.0155029296875, 6.43411111831665, -7.026179790496826, 0.5383503437042236, 2.1150825023651123, 0.8321936726570129, 1.1132842302322388, 
36, 2939635383, -89.21272277832031, -46.15799331665039, -92.0102767944336, 7.137186050415039, -6.720027923583984, 0.5197049975395203, 2.5128719806671143, 0.00890094693750143, 0.9054504632949829, 
37, 2939643716, -89.21372985839844, -46.15705871582031, -92.00877380371094, 7.880894660949707, -6.5582966804504395, -0.3600853681564331, 2.210073232650757, 0.3282720148563385, 1.3357311487197876, 
38, 2939652049, -89.20934295654297, -46.153587341308594, -92.01715850830078, 6.885096549987793, -7.0993452072143555, -0.3166842460632324, 2.00943660736084, 1.1515390872955322, 1.6368008852005005, 
39, 2939660382, -89.21024322509766, -46.15559005737305, -92.01599884033203, 6.461811542510986, -7.03006649017334, 0.7082296013832092, 2.1958186626434326, 0.3511583209037781, 0.9814221858978271, 
40, 2939668715, -89.2132568359375, -46.156410217285156, -92.00860595703125, 7.580417156219482, -6.625565528869629, 0.4699355959892273, 2.4834537506103516, -0.16594181954860687, 1.1411142349243164, 
41, 2939677048, -89.21300506591797, -46.15497589111328, -92.01000213623047, 7.8047566413879395, -6.759611129760742, -0.7216897010803223, 2.115325927734375, 0.5686615705490112, 1.3902894258499146, 
42, 2939685381, -89.20972442626953, -46.15348815917969, -92.01667785644531, 6.576043128967285, -7.047855854034424, 0.14611926674842834, 2.02284574508667, 1.0074719190597534, 1.4022897481918335, 
43, 2939693714, -89.21097564697266, -46.15605545043945, -92.013427734375, 6.6021952629089355, -6.893111705780029, 0.577630341053009, 2.3364920616149902, 0.17585451900959015, 0.9156191945075989, 
44, 2939702047, -89.21373748779297, -46.15626907348633, -92.00685119628906, 7.768599987030029, -6.496443748474121, 0.15669257938861847, 2.4451606273651123, -0.09563075006008148, 1.2122704982757568, 
45, 2939710380, -89.21121215820312, -46.1541633605957, -92.013427734375, 7.540165901184082, -6.976237773895264, -0.6334429979324341, 1.9391512870788574, 1.0009530782699585, 1.4650574922561646, 
46, 2939718713, -89.20911407470703, -46.15497589111328, -92.01815795898438, 6.4282450675964355, -7.169200897216797, 0.4996873736381531, 2.045335054397583, 0.8422088027000427, 1.1283711194992065, 
47, 2939727046, -89.2114028930664, -46.15838623046875, -92.01206970214844, 6.987944602966309, -6.833477973937988, 0.4631724953651428, 2.458390474319458, -0.06016784533858299, 0.8201807141304016, 
48, 2939735379, -89.21399688720703, -46.15890884399414, -92.00723266601562, 7.931552886962891, -6.3831892013549805, -0.18652400374412537, 2.3111469745635986, 0.04825722053647041, 1.173234462738037, 
49, 2939743712, -89.21121215820312, -46.154720306396484, -92.01545715332031, 7.0739312171936035, -6.911201477050781, -0.49288395047187805, 1.8283441066741943, 1.140755534172058, 1.7123886346817017, 
50, 2939752045, -89.21046447753906, -46.15593719482422, -92.01811981201172, 6.356240272521973, -7.116245746612549, 0.7199370265007019, 2.0656473636627197, 0.6693640351295471, 1.0826753377914429, 
51, 2939760378, -89.2150650024414, -46.15822219848633, -92.00940704345703, 7.361383438110352, -6.790567874908447, 0.3562179505825043, 2.4054458141326904, -0.27673622965812683, 0.9556799530982971, 
52, 2939768711, -89.21562194824219, -46.15796661376953, -92.00987243652344, 7.964818000793457, -6.67768669128418, -0.46335604786872864, 2.1000983715057373, 0.48878365755081177, 1.2589269876480103, 
53, 2939777044, -89.21189880371094, -46.156307220458984, -92.01744079589844, 6.665298938751221, -7.055300712585449, -0.10786072909832001, 1.997577428817749, 1.0824832916259766, 1.4125226736068726, 
54, 2939785377, -89.21388244628906, -46.159542083740234, -92.01341247558594, 6.476304531097412, -6.9299092292785645, 0.771331787109375, 2.314784288406372, 0.1113450825214386, 0.8483946919441223, 
55, 2939793710, -89.21709442138672, -46.16002655029297, -92.0047836303711, 7.765549182891846, -6.47442626953125, 0.1601504236459732, 2.563997745513916, -0.2670283913612366, 1.1722737550735474, 
56, 2939802043, -89.21505737304688, -46.157291412353516, -92.00977325439453, 7.6960039138793945, -6.828690528869629, -0.7747164368629456, 2.016800880432129, 0.8697184920310974, 1.5520817041397095, 
57, 2939810376, -89.21241760253906, -46.155555725097656, -92.0177993774414, 6.415081977844238, -7.11100435256958, 0.38969334959983826, 1.8268071413040161, 1.1216984987258911, 1.4202837944030762, 
58, 2939818709, -89.214111328125, -46.15884017944336, -92.01287078857422, 6.780246734619141, -6.948622226715088, 0.6786762475967407, 2.4343514442443848, 0.033452194184064865, 0.8415045738220215, 
59, 2939827042, -89.21607971191406, -46.15865707397461, -92.00725555419922, 7.913731098175049, -6.5127787590026855, -0.1343102604150772, 2.454740285873413, -0.01620100438594818, 1.2481306791305542, 
60, 2939835375, -89.21367645263672, -46.15575408935547, -92.01360321044922, 7.353054046630859, -6.964625835418701, -0.5551766157150269, 1.9435824155807495, 0.9835354089736938, 1.573456883430481, 
61, 2939843708, -89.2120590209961, -46.156124114990234, -92.01695251464844, 6.2951436042785645, -7.033222198486328, 0.5862340927124023, 2.1085896492004395, 0.7279052734375, 1.171671986579895, 
62, 2939852041, -89.216796875, -46.1588134765625, -92.00801086425781, 7.17516565322876, -6.687112331390381, 0.40650230646133423, 2.4093263149261475, -0.29759901762008667, 0.9181679487228394, 
63, 2939860374, -89.21735382080078, -46.157562255859375, -92.0078125, 8.005218505859375, -6.536966800689697, -0.39176103472709656, 2.1555404663085938, 0.4363897144794464, 1.3715399503707886, 
64, 2939868707, -89.21212005615234, -46.15375900268555, -92.01805114746094, 6.823000907897949, -7.165490627288818, -0.24705466628074646, 1.9501398801803589, 1.3067615032196045, 1.6759138107299805, 
65, 2939877040, -89.21174621582031, -46.15532684326172, -92.01759338378906, 6.455648422241211, -7.104450225830078, 0.8258129954338074, 2.287402391433716, 0.4095716178417206, 1.032535433769226, 
66, 2939885373, -89.21538543701172, -46.157047271728516, -92.00828552246094, 7.651721954345703, -6.58900260925293, 0.24900595843791962, 2.5750372409820557, -0.3259667754173279, 1.036159873008728, 
67, 2939893706, -89.2137222290039, -46.1563606262207, -92.01176452636719, 7.767345905303955, -6.705817699432373, -0.6651145815849304, 2.102813482284546, 0.7413656711578369, 1.29796302318573, 
68, 2939902039, -89.21052551269531, -46.154258728027344, -92.01922607421875, 6.428118705749512, -6.9930100440979, 0.18069636821746826, 1.9436464309692383, 1.0743762254714966, 1.4759306907653809, 
69, 2939910372, -89.21398162841797, -46.15629196166992, -92.01301574707031, 6.68762731552124, -6.886743068695068, 0.7140011787414551, 2.3266561031341553, -0.07054159790277481, 0.9823187589645386, 
70, 2939918705, -89.21672821044922, -46.1548957824707, -92.00706481933594, 7.937340259552002, -6.572852611541748, 0.01724923774600029, 2.3920493125915527, -0.04198172315955162, 1.4055938720703125, 
71, 2939927038, -89.21173095703125, -46.15260314941406, -92.01567077636719, 7.435685157775879, -7.112142086029053, -0.7135589122772217, 2.057591438293457, 1.1696484088897705, 1.485113501548767, 
72, 2939935371, -89.20831298828125, -46.153202056884766, -92.02069854736328, 6.394979953765869, -7.037577152252197, 0.5142819881439209, 2.1827683448791504, 0.8665808439254761, 1.1531785726547241, 
73, 2939943704, -89.2098388671875, -46.1549072265625, -92.01361846923828, 7.094817638397217, -6.688583850860596, 0.6024466156959534, 2.638010025024414, -0.14215901494026184, 1.022597074508667, 
74, 2939952037, -89.2098617553711, -46.15408706665039, -92.01264953613281, 7.866157054901123, -6.50164270401001, -0.2904856204986572, 2.288439989089966, 0.3719059228897095, 1.3299039602279663, 
75, 2939960370, -89.20787048339844, -46.15081024169922, -92.01980590820312, 6.9599995613098145, -7.080611228942871, -0.4210069179534912, 1.8222992420196533, 1.0517717599868774, 1.6068322658538818, 
76, 2939968703, -89.2081527709961, -46.1533317565918, -92.01976776123047, 6.475386619567871, -7.0617780685424805, 0.5918369293212891, 2.1748790740966797, 0.44345930218696594, 0.9274658560752869, 
77, 2939977036, -89.21170043945312, -46.1536865234375, -92.01177215576172, 7.476322174072266, -6.662790298461914, 0.5326767563819885, 2.4701988697052, -0.21375080943107605, 1.1880524158477783, 
78, 2939985369, -89.21011352539062, -46.15220260620117, -92.01473236083984, 7.756083965301514, -6.791668891906738, -0.603784441947937, 2.142169713973999, 0.6963998675346375, 1.4046590328216553, 
79, 2939993702, -89.20661926269531, -46.150699615478516, -92.02136993408203, 6.646450042724609, -7.041612148284912, 0.05293921008706093, 2.047576427459717, 1.0063832998275757, 1.3942853212356567, 
80, 2940002035, -89.20797729492188, -46.152976989746094, -92.01834869384766, 6.7066969871521, -6.857489585876465, 0.6897714734077454, 2.3071510791778564, 0.19556468725204468, 0.9610205292701721, 
81, 2940010368, -89.21126556396484, -46.15336608886719, -92.01181030273438, 7.753855228424072, -6.519105434417725, 0.16687019169330597, 2.3700597286224365, -0.09209597855806351, 1.1824299097061157, 
82, 2940018701, -89.2091064453125, -46.15088653564453, -92.01783752441406, 7.378026008605957, -7.02612829208374, -0.7558246850967407, 1.9468870162963867, 0.9537460803985596, 1.5205891132354736, 
83, 2940027034, -89.20589447021484, -46.151485443115234, -92.02371215820312, 6.481196403503418, -7.006219387054443, 0.3591492176055908, 2.0824759006500244, 0.9374681115150452, 1.1409733295440674, 
84, 2940035367, -89.20851135253906, -46.153404235839844, -92.01776123046875, 7.0740437507629395, -6.798758506774902, 0.8280569911003113, 2.403972864151001, -0.04404367879033089, 1.0082019567489624, 
85, 2940043700, -89.21046447753906, -46.15281295776367, -92.01465606689453, 7.8381757736206055, -6.612784385681152, -0.3632284104824066, 2.2389659881591797, 0.19251661002635956, 1.2938519716262817, 
86, 2940052033, -89.206787109375, -46.150272369384766, -92.0223617553711, 7.07861852645874, -7.040799617767334, -0.44089561700820923, 1.9789557456970215, 1.0980565547943115, 1.5279403924942017, 
87, 2940060366, -89.20507049560547, -46.1522331237793, -92.02532196044922, 6.490045547485352, -6.884812831878662, 0.5316063761711121, 2.154900074005127, 0.6937615871429443, 0.9816144108772278, 
88, 2940068699, -89.20965576171875, -46.15324020385742, -92.01778411865234, 7.317452907562256, -6.617383003234863, 0.6731173992156982, 2.312568426132202, -0.18060599267482758, 1.1157432794570923, 
89, 2940077032, -89.20875549316406, -46.151248931884766, -92.01957702636719, 7.68620491027832, -6.8730034828186035, -0.592955470085144, 2.156142234802246, 0.6020241379737854, 1.457693099975586, 
90, 2940085365, -89.20453643798828, -46.1504020690918, -92.02733612060547, 6.808670997619629, -7.088737964630127, -0.08103132247924805, 2.040583610534668, 1.0981847047805786, 1.3247170448303223, 
91, 2940093698, -89.20477294921875, -46.153900146484375, -92.02513885498047, 6.759997367858887, -6.89030647277832, 0.6026490330696106, 2.3663711547851562, 0.26200804114341736, 0.8029806613922119, 
92, 2940102031, -89.2074203491211, -46.154476165771484, -92.01801300048828, 7.633762836456299, -6.462536334991455, 0.368785560131073, 2.504354953765869, -0.1419925093650818, 1.171108365058899, 
93, 2940110364, -89.20547485351562, -46.151737213134766, -92.02173614501953, 7.389206886291504, -6.908604145050049, -0.8297949433326721, 2.115915060043335, 0.7640726566314697, 1.5449225902557373, 
94, 2940118697, -89.20292663574219, -46.15128707885742, -92.02714538574219, 6.543283462524414, -7.007631301879883, 0.3614606261253357, 2.0459113121032715, 0.9006476402282715, 1.2779710292816162, 
95, 2940127030, -89.20491790771484, -46.15235900878906, -92.022705078125, 7.012143135070801, -6.82607364654541, 0.6796166896820068, 2.3449063301086426, 0.08081290870904922, 1.0979797840118408, 
96, 2940135363, -89.20645904541016, -46.15131759643555, -92.01990509033203, 7.776722431182861, -6.695502758026123, -0.14384616911411285, 2.266885280609131, 0.22035928070545197, 1.3577849864959717, 
97, 2940143696, -89.20270538330078, -46.14992141723633, -92.02653503417969, 7.092474460601807, -7.039906978607178, -0.5226349830627441, 2.0805420875549316, 1.0025156736373901, 1.3798134326934814, 
98, 2940152029, -89.20140075683594, -46.152748107910156, -92.0280532836914, 6.590761184692383, -6.83472204208374, 0.5023115277290344, 2.23594331741333, 0.5715047717094421, 0.8894030451774597, 
99, 2940160362, -89.20429229736328, -46.15351867675781, -92.02132415771484, 7.359407424926758, -6.545180320739746, 0.6905272006988525, 2.4357218742370605, -0.10906542092561722, 1.1372592449188232, 
100, 2940168695, -89.2050552368164, -46.151607513427734, -92.02198791503906, 7.647524356842041, -6.819056510925293, -0.6462085843086243, 2.056490182876587, 0.5083656907081604, 1.4590636491775513, 
101, 2940177028, -89.20341491699219, -46.14995574951172, -92.02708435058594, 6.787967681884766, -7.095278263092041, -0.06873761862516403, 1.9636642932891846, 0.8760069012641907, 1.4114469289779663, 
102, 2940185361, -89.2041015625, -46.1519889831543, -92.02495574951172, 6.77675724029541, -6.964366912841797, 0.5832855701446533, 2.3059725761413574, 0.2723817527294159, 0.991142749786377, 
103, 2940193694, -89.20658111572266, -46.15231704711914, -92.01912689208984, 7.5732879638671875, -6.570045471191406, 0.4292674958705902, 2.4092750549316406, -0.0350530780851841, 1.188244342803955, 
104, 2940202027, -89.20611572265625, -46.15024185180664, -92.02108001708984, 7.430953502655029, -6.956564426422119, -0.7446905970573425, 2.095398426055908, 0.6159199476242065, 1.476609468460083, 
105, 2940210360, -89.20417022705078, -46.15066146850586, -92.02482604980469, 6.616600513458252, -6.94572114944458, 0.24771982431411743, 2.1128158569335938, 0.7625357508659363, 1.166779637336731, 
106, 2940218693, -89.20631408691406, -46.15181350708008, -92.0188980102539, 6.984161853790283, -6.765028476715088, 0.5051542520523071, 2.461681842803955, -0.04296788200736046, 1.0991581678390503, 
107, 2940227026, -89.20671081542969, -46.15089416503906, -92.01599884033203, 7.695735931396484, -6.59161901473999, 0.04025166481733322, 2.409377336502075, 0.20839741826057434, 1.3333489894866943, 
108, 2940235359, -89.20314025878906, -46.148921966552734, -92.02249908447266, 7.0832977294921875, -7.0759782791137695, -0.5504916906356812, 2.0681190490722656, 0.9958558678627014, 1.4620606899261475, 
109, 2940243692, -89.20098114013672, -46.15099334716797, -92.0259017944336, 6.646144866943359, -7.02504301071167, 0.5721288323402405, 2.1734702587127686, 0.7285712957382202, 0.9659895896911621, 
110, 2940252025, -89.2041244506836, -46.15117645263672, -92.0194091796875, 7.404460906982422, -6.638507843017578, 0.5205901265144348, 2.394495725631714, -0.08991878479719162, 1.2157284021377563, 
111, 2940260358, -89.2038803100586, -46.15092849731445, -92.02030944824219, 7.641745567321777, -6.717426300048828, -0.4361405670642853, 2.153606414794922, 0.5258986949920654, 1.249321699142456, 
112, 2940268691, -89.20069885253906, -46.14910888671875, -92.02687072753906, 6.7263288497924805, -6.998192310333252, -0.14724954962730408, 2.020540475845337, 0.99676513671875, 1.4427858591079712, 
113, 2940277024, -89.20232391357422, -46.151405334472656, -92.02433013916016, 6.756707668304443, -6.8788981437683105, 0.6367079019546509, 2.230512857437134, 0.23624007403850555, 0.9484694004058838, 
114, 2940285357, -89.20568084716797, -46.15196990966797, -92.01795196533203, 7.63929557800293, -6.603365898132324, 0.38140979409217834, 2.3543834686279297, -0.07813622057437897, 1.1698532104492188, 
115, 2940293690, -89.20416259765625, -46.150611877441406, -92.0216064453125, 7.446486473083496, -7.067081451416016, -0.641040027141571, 2.073498010635376, 0.753750205039978, 1.376893401145935, 
116, 2940302023, -89.20085144042969, -46.15099334716797, -92.025634765625, 6.617384910583496, -7.00974178314209, 0.23993179202079773, 2.2542574405670166, 0.7868949174880981, 1.1825580596923828, 
117, 2940310356, -89.20231628417969, -46.15431594848633, -92.02082061767578, 6.990558624267578, -6.745098114013672, 0.5351069569587708, 2.4464669227600098, 0.04362104460597038, 0.8259566426277161, 
118, 2940318689, -89.2037582397461, -46.15382385253906, -92.01753997802734, 7.7285966873168945, -6.477216720581055, 0.13279016315937042, 2.318241834640503, 0.17714804410934448, 1.2924940586090088, 
119, 2940327022, -89.20166015625, -46.1507682800293, -92.02446746826172, 7.152074813842773, -7.087884426116943, -0.603879451751709, 1.858927607536316, 1.0299997329711914, 1.5790663957595825, 
120, 2940335355, -89.20161437988281, -46.15253829956055, -92.02613830566406, 6.549761772155762, -7.094200611114502, 0.5321211218833923, 2.0637903213500977, 0.5898190140724182, 1.0167315006256104, 
121, 2940343688, -89.2042465209961, -46.154541015625, -92.01986694335938, 7.307466506958008, -6.716759204864502, 0.4226556420326233, 2.431994915008545, -0.0739867240190506, 0.989196240901947, 
122, 2940352021, -89.20413970947266, -46.15434646606445, -92.01962280273438, 7.725282192230225, -6.63175106048584, -0.25478649139404297, 2.239196538925171, 0.4298068881034851, 1.2541497945785522, 
123, 2940360354, -89.20255279541016, -46.152099609375, -92.02496337890625, 6.78878116607666, -7.0057454109191895, -0.26215213537216187, 1.9301096200942993, 0.8989571928977966, 1.4839096069335938, 
124, 2940368687, -89.20459747314453, -46.15364456176758, -92.02265930175781, 6.61609411239624, -6.915890216827393, 0.6219007968902588, 2.157768726348877, 0.2562704086303711, 1.0489798784255981, 
125, 2940377020, -89.20716094970703, -46.15400695800781, -92.01641082763672, 7.666209697723389, -6.54528284072876, 0.21882039308547974, 2.4430859088897705, -0.07017020136117935, 1.182916522026062, 
126, 2940385353, -89.20574951171875, -46.151973724365234, -92.02075958251953, 7.588589191436768, -6.8972086906433105, -0.5423044562339783, 1.989086389541626, 0.8244582414627075, 1.470167636871338, 
127, 2940393686, -89.20207214355469, -46.15113830566406, -92.027587890625, 6.477427959442139, -7.110466480255127, 0.18794752657413483, 2.056349277496338, 1.0186141729354858, 1.3131778240203857, 
128, 2940402019, -89.20404815673828, -46.154483795166016, -92.02217864990234, 6.867689609527588, -6.861642360687256, 0.6636903882026672, 2.429049253463745, 0.0029712512623518705, 0.8346654772758484, 
129, 2940410352, -89.2061767578125, -46.1547737121582, -92.01678466796875, 7.86866569519043, -6.461654186248779, -0.0356474444270134, 2.4170360565185547, 0.001331940176896751, 1.1904470920562744, 
130, 2940418685, -89.20269012451172, -46.152748107910156, -92.02342987060547, 7.333980560302734, -6.962618350982666, -0.5622611045837402, 2.0495998859405518, 1.004974365234375, 1.4680029153823853, 
131, 2940427018, -89.20003509521484, -46.1533317565918, -92.02780151367188, 6.392220497131348, -7.025481224060059, 0.4606409966945648, 2.143681049346924, 0.8146095871925354, 1.1456735134124756, 
132, 2940435351, -89.20459747314453, -46.154518127441406, -92.01911926269531, 7.113348007202148, -6.773097991943359, 0.4421524107456207, 2.379664897918701, -0.2445775270462036, 1.097646713256836, 
133, 2940443684, -89.2068099975586, -46.153987884521484, -92.0167007446289, 7.930019855499268, -6.591489791870117, -0.21205466985702515, 2.1512370109558105, 0.24804824590682983, 1.286961555480957, 
134, 2940452017, -89.20243072509766, -46.15165328979492, -92.02618408203125, 6.954493522644043, -7.14224910736084, -0.24394351243972778, 1.9061342477798462, 1.249616026878357, 1.5008659362792969, 
135, 2940460350, -89.20144653320312, -46.15370559692383, -92.02706909179688, 6.4245758056640625, -7.084735870361328, 0.6631968021392822, 2.2494804859161377, 0.517881453037262, 0.9726621508598328, 
136, 2940468683, -89.20519256591797, -46.1566276550293, -92.01898956298828, 7.564822196960449, -6.531197547912598, 0.21077214181423187, 2.4996676445007324, -0.27142125368118286, 0.8907862901687622, 
137, 2940477016, -89.20575714111328, -46.15485382080078, -92.02030181884766, 7.775337219238281, -6.543399333953857, -0.5140447616577148, 2.0237295627593994, 0.5620018839836121, 1.4313746690750122, 
138, 2940485349, -89.20323944091797, -46.1516227722168, -92.0273208618164, 6.5191450119018555, -7.103342056274414, 0.1204337477684021, 1.8065208196640015, 1.1328151226043701, 1.611135482788086, 
139, 2940493682, -89.2064208984375, -46.15394973754883, -92.02180480957031, 6.642777919769287, -7.115022659301758, 0.742049515247345, 2.298596143722534, -0.010975698940455914, 0.9477778673171997, 
140, 2940502015, -89.20852661132812, -46.155540466308594, -92.01628875732422, 7.88813591003418, -6.585443496704102, -0.10544364154338837, 2.4469916820526123, -0.028047585859894753, 1.0471994876861572, 
141, 2940510348, -89.20471954345703, -46.15365219116211, -92.02323150634766, 7.578428268432617, -6.814872741699219, -0.4747292399406433, 2.061997175216675, 1.030127763748169, 1.4378551244735718, 
142, 2940518681, -89.20181274414062, -46.153411865234375, -92.02853393554688, 6.270256042480469, -7.008216381072998, 0.4826236963272095, 2.0759315490722656, 0.9139159321784973, 1.2537912130355835, 
143, 2940527014, -89.20494842529297, -46.15556716918945, -92.0213851928711, 6.899820327758789, -6.808927536010742, 0.55097496509552, 2.4482600688934326, -0.14885713160037994, 0.9706515073776245, 
144, 2940535347, -89.20587158203125, -46.154930114746094, -92.01802062988281, 8.09111499786377, -6.436537265777588, -0.33542612195014954, 2.4188802242279053, 0.13706177473068237, 1.3121660947799683, 
145, 2940543680, -89.20262908935547, -46.15153503417969, -92.02630615234375, 7.198214530944824, -7.033842086791992, -0.3915541470050812, 1.8793163299560547, 1.1443415880203247, 1.615848422050476, 
146, 2940552013, -89.20101165771484, -46.15192413330078, -92.02738952636719, 6.221729278564453, -7.153927326202393, 0.6997904181480408, 2.2174243927001953, 0.6290856003761292, 1.1819945573806763, 
147, 2940560346, -89.20407104492188, -46.15486145019531, -92.01853942871094, 7.299535274505615, -6.738643646240234, 0.3708813190460205, 2.6008951663970947, -0.2890438437461853, 0.878849983215332, 
148, 2940568679, -89.20346069335938, -46.153900146484375, -92.0177993774414, 8.094677925109863, -6.484293460845947, -0.4659428000450134, 2.331023693084717, 0.40347543358802795, 1.347564935684204, 
149, 2940577012, -89.1984634399414, -46.14988327026367, -92.02751159667969, 6.804251194000244, -7.092256546020508, -0.1046367883682251, 1.9634463787078857, 1.2640496492385864, 1.690475344657898, 
150, 2940585345, -89.19912719726562, -46.152278900146484, -92.02608489990234, 6.2614359855651855, -7.058839797973633, 0.7651730179786682, 2.3708150386810303, 0.2107667326927185, 0.9465355277061462, 
151, 2940593678, -89.20299530029297, -46.1539421081543, -92.0162582397461, 7.667035102844238, -6.516400337219238, 0.050117600709199905, 2.591123104095459, -0.3697158396244049, 1.0331629514694214, 
152, 2940602011, -89.20160675048828, -46.152015686035156, -92.02151489257812, 7.877129077911377, -6.63506555557251, -0.541693925857544, 1.9298791885375977, 0.8785427212715149, 1.4572194814682007, 
153, 2940610344, -89.19781494140625, -46.14968490600586, -92.03092956542969, 6.386049270629883, -7.212096214294434, 0.3475276231765747, 1.849373459815979, 1.2349648475646973, 1.4867783784866333, 
154, 2940618677, -89.20055389404297, -46.153343200683594, -92.02197265625, 6.667594909667969, -7.071229457855225, 0.7631508111953735, 2.479701519012451, -0.13493579626083374, 0.8020200729370117, 
155, 2940627010, -89.20413970947266, -46.15434265136719, -92.014404296875, 8.073098182678223, -6.407925605773926, -0.295156866312027, 2.4320459365844727, -0.1814640462398529, 1.1085327863693237, 
156, 2940635343, -89.20088195800781, -46.15278244018555, -92.02220916748047, 7.465789794921875, -6.738582134246826, -0.5271164774894714, 1.9037014245986938, 1.1131434440612793, 1.4109858274459839, 
157, 2940643676, -89.19957733154297, -46.15157699584961, -92.02642822265625, 6.079574108123779, -7.059248924255371, 0.6084042191505432, 2.001573085784912, 0.8004704117774963, 1.3580154180526733, 
158, 2940652009, -89.20401000976562, -46.15421676635742, -92.01899719238281, 6.990844249725342, -6.908228874206543, 0.5720821022987366, 2.4758718013763428, -0.3272346258163452, 0.9254167079925537, 
159, 2940660342, -89.20518493652344, -46.153629302978516, -92.01583099365234, 8.267220497131348, -6.550052165985107, -0.47548845410346985, 2.3402957916259766, 0.18688146770000458, 1.2937238216400146, 
160, 2940668675, -89.19983673095703, -46.14992141723633, -92.02607727050781, 7.107223987579346, -7.123891830444336, -0.3564414381980896, 1.9257550239562988, 1.3417505025863647, 1.6656166315078735, 
161, 2940677008, -89.19744110107422, -46.1515007019043, -92.02796173095703, 6.1034016609191895, -7.060666084289551, 0.82392418384552, 2.332240104675293, 0.6032280325889587, 1.0271435976028442, 
162, 2940685341, -89.20143127441406, -46.15399169921875, -92.01665496826172, 7.434028625488281, -6.603054046630859, 0.29713869094848633, 2.6296725273132324, -0.4171278178691864, 0.9455878138542175, 
163, 2940693674, -89.20133209228516, -46.15287780761719, -92.01799774169922, 8.083094596862793, -6.496629238128662, -0.6448001265525818, 2.100597858428955, 0.5627959966659546, 1.3517656326293945, 
164, 2940702007, -89.198486328125, -46.14903259277344, -92.02599334716797, 6.605976581573486, -7.17474889755249, 0.021912220865488052, 1.7803175449371338, 1.1926500797271729, 1.6822659969329834, 
165, 2940710340, -89.20114135742188, -46.15192413330078, -92.0212173461914, 6.371535301208496, -7.118206024169922, 0.8360133767127991, 2.301157236099243, 0.04705335199832916, 0.8786450624465942, 
166, 2940718673, -89.20439910888672, -46.1548957824707, -92.00943756103516, 7.893343448638916, -6.523629188537598, 0.04726915806531906, 2.5852832794189453, -0.2924121022224426, 0.8847797513008118, 
167, 2940727006, -89.20103454589844, -46.152862548828125, -92.01667785644531, 7.7560529708862305, -6.733762741088867, -0.7127362489700317, 1.9820421934127808, 1.0553193092346191, 1.456284523010254, 
168, 2940735339, -89.1968994140625, -46.151973724365234, -92.02659606933594, 6.265295028686523, -7.061903953552246, 0.480795681476593, 1.9775086641311646, 1.1522434949874878, 1.3268812894821167, 
169, 2940743672, -89.20088958740234, -46.15459442138672, -92.01896667480469, 6.757742404937744, -6.884747505187988, 0.6626694798469543, 2.387079954147339, -0.18872566521167755, 0.9150556921958923, 
170, 2940752005, -89.20440673828125, -46.15449142456055, -92.01502227783203, 8.112020492553711, -6.47261905670166, -0.3350054621696472, 2.327322244644165, -0.07274442911148071, 1.2505254745483398, 
171, 2940760338, -89.20149230957031, -46.15313720703125, -92.02313995361328, 7.277551174163818, -7.002345085144043, -0.5577912926673889, 1.8522294759750366, 1.126936674118042, 1.372679591178894, 
172, 2940768671, -89.20003509521484, -46.15400314331055, -92.02633666992188, 6.160636901855469, -7.085408687591553, 0.6962005496025085, 2.0374844074249268, 0.7801328301429749, 1.124464988708496, 
173, 2940777004, -89.20339965820312, -46.15584945678711, -92.01718139648438, 7.21702241897583, -6.758795261383057, 0.6852184534072876, 2.5914433002471924, -0.31201982498168945, 1.0095595121383667, 
174, 2940785337, -89.20344543457031, -46.154998779296875, -92.01786804199219, 8.147412300109863, -6.546657085418701, -0.6180485486984253, 2.1437323093414307, 0.5064446330070496, 1.3315818309783936, 
175, 2940793670, -89.19878387451172, -46.151878356933594, -92.02732849121094, 6.8766655921936035, -7.078388214111328, -0.2265366166830063, 1.9461952447891235, 1.242392897605896, 1.5833696126937866, 
176, 2940802003, -89.19843292236328, -46.154541015625, -92.02855682373047, 6.273142337799072, -6.947384357452393, 0.7693028450012207, 2.2421419620513916, 0.4537562131881714, 0.9119693040847778, 
177, 2940810336, -89.20332336425781, -46.15476989746094, -92.0184326171875, 7.593289375305176, -6.556809902191162, 0.4539482593536377, 2.493135929107666, -0.3902456760406494, 1.2048423290252686, 
178, 2940818669, -89.20379638671875, -46.15193557739258, -92.02100372314453, 7.857762813568115, -6.863124370574951, -0.8284875750541687, 2.013483762741089, 0.5808539390563965, 1.569230556488037, 
179, 2940827002, -89.20040893554688, -46.151023864746094, -92.0287094116211, 6.536746501922607, -7.166256427764893, 0.2596592605113983, 1.9463746547698975, 1.0935230255126953, 1.3221299648284912, 
180, 2940835335, -89.20247650146484, -46.15517807006836, -92.02464294433594, 6.698955059051514, -6.901089668273926, 0.7478020787239075, 2.3943674564361572, 0.021592799574136734, 0.7375363111495972, 
181, 2940843668, -89.20549011230469, -46.15494155883789, -92.01640319824219, 7.900493621826172, -6.366329669952393, 0.0450495220720768, 2.5570945739746094, -0.23343534767627716, 1.2590421438217163, 
182, 2940852001, -89.2027816772461, -46.15238952636719, -92.02249908447266, 7.381489276885986, -6.909200191497803, -0.8757151365280151, 1.9584389925003052, 1.0067930221557617, 1.5301944017410278, 
183, 2940860334, -89.19918060302734, -46.152706146240234, -92.02893829345703, 6.315304756164551, -7.052389144897461, 0.6501104831695557, 2.077404260635376, 0.9861352443695068, 1.174707293510437, 
184, 2940868667, -89.20207214355469, -46.15517044067383, -92.02141571044922, 7.041651248931885, -6.8569769859313965, 0.6846808195114136, 2.468853712081909, -0.13830405473709106, 0.9440382122993469, 
185, 2940877000, -89.20326232910156, -46.1552848815918, -92.01924133300781, 7.96254301071167, -6.6999053955078125, -0.4890001118183136, 2.249211549758911, 0.2691287696361542, 1.2093505859375, 
186, 2940885333, -89.19937896728516, -46.15363693237305, -92.03121948242188, 7.001174449920654, -6.991635799407959, -0.3746444284915924, 1.8959143161773682, 1.2011539936065674, 1.4195410013198853, 
187, 2940893666, -89.19995880126953, -46.15628433227539, -92.03138732910156, 6.409570217132568, -6.878391742706299, 0.7124015688896179, 2.118783712387085, 0.460671991109848, 0.9036446213722229, 
188, 2940901999, -89.20429229736328, -46.15671157836914, -92.02149963378906, 7.476686954498291, -6.5926713943481445, 0.6008350253105164, 2.574000120162964, -0.4023868441581726, 1.1904984712600708, 
189, 2940910332, -89.20366668701172, -46.154964447021484, -92.02371978759766, 7.833376884460449, -6.845727443695068, -0.9122285842895508, 2.0918633937835693, 0.6346952319145203, 1.4263287782669067, 
190, 2940918665, -89.19959259033203, -46.15407180786133, -92.03148651123047, 6.6429619789123535, -7.12460994720459, 0.10084493458271027, 1.981645107269287, 1.1381428241729736, 1.3313255310058594, 
191, 2940926998, -89.20096588134766, -46.157318115234375, -92.02740478515625, 6.613031387329102, -6.92673921585083, 0.7691863775253296, 2.3936758041381836, 0.104429230093956, 0.8337177038192749, 
192, 2940935331, -89.20341491699219, -46.1573600769043, -92.0230484008789, 7.717768669128418, -6.488513469696045, 0.242181196808815, 2.4969396591186523, -0.11288192123174667, 1.235156774520874, 
193, 2940943664, -89.20242309570312, -46.1562614440918, -92.02725982666016, 7.534035682678223, -6.949261665344238, -0.903290867805481, 1.9602702856063843, 0.8022506833076477, 1.347193717956543, 
194, 2940951997, -89.19827270507812, -46.15744400024414, -92.03539276123047, 6.503211975097656, -7.009031772613525, 0.4400867521762848, 2.0576300621032715, 1.0704573392868042, 1.0805493593215942, 
195, 2940960330, -89.20110321044922, -46.158714294433594, -92.02861022949219, 7.014057636260986, -6.773301601409912, 0.6156532168388367, 2.449643135070801, -0.11335579305887222, 1.0785386562347412, 
196, 2940968663, -89.20222473144531, -46.15781021118164, -92.0240478515625, 7.843857765197754, -6.6314616203308105, -0.20578357577323914, 2.375105381011963, 0.1602170318365097, 1.3412638902664185, 
197, 2940976996, -89.19786071777344, -46.1549072265625, -92.03263854980469, 7.054052352905273, -7.099405765533447, -0.527525782585144, 1.9840916395187378, 1.169225811958313, 1.5585365295410156, 
198, 2940985329, -89.19731140136719, -46.15727996826172, -92.0360336303711, 6.536011219024658, -7.0055975914001465, 0.7074823379516602, 2.1287479400634766, 0.5886151194572449, 0.9451653361320496, 
199, 2940993662, -89.20108795166016, -46.15852355957031, -92.02763366699219, 7.419749736785889, -6.590733051300049, 0.5055586099624634, 2.481161117553711, -0.2509426772594452, 1.0798834562301636, 
200, 2941001995, -89.20164489746094, -46.156917572021484, -92.02772521972656, 7.757664680480957, -6.7530975341796875, -0.6278840899467468, 2.0898525714874268, 0.49828648567199707, 1.424676537513733, 
201, 2941010328, -89.19849395751953, -46.155853271484375, -92.03455352783203, 6.715681552886963, -7.022156715393066, -0.10667429119348526, 1.9950414896011353, 1.0181914567947388, 1.338343620300293, 
202, 2941018661, -89.20003509521484, -46.15810012817383, -92.03158569335938, 6.672494888305664, -6.897803783416748, 0.713881254196167, 2.2643752098083496, 0.21101008355617523, 0.9649395942687988, 
203, 2941026994, -89.2038345336914, -46.157344818115234, -92.02369689941406, 7.677967548370361, -6.578952312469482, 0.3364948332309723, 2.43025279045105, -0.20287752151489258, 1.3204904794692993, 
204, 2941035327, -89.20244598388672, -46.15502166748047, -92.02757263183594, 7.474078178405762, -7.02050256729126, -0.7643023133277893, 2.0204508304595947, 0.7913262248039246, 1.5063220262527466, 
205, 2941043660, -89.19795989990234, -46.155845642089844, -92.03384399414062, 6.542661666870117, -6.952088832855225, 0.26374322175979614, 2.20220947265625, 0.9679876565933228, 1.1129385232925415, 
206, 2941051993, -89.2005615234375, -46.157867431640625, -92.02884674072266, 6.9878926277160645, -6.704350471496582, 0.7396855354309082, 2.4364771842956543, -0.07731656730175018, 0.9988271594047546, 
207, 2941060326, -89.20206451416016, -46.15629196166992, -92.0245132446289, 7.7847089767456055, -6.554158687591553, -0.10672564059495926, 2.4005918502807617, 0.09208317846059799, 1.4138803482055664, 
208, 2941068659, -89.1994400024414, -46.15283203125, -92.03462982177734, 7.075338363647461, -7.1229448318481445, -0.544120192527771, 1.9751391410827637, 0.984944224357605, 1.6385682821273804, 
209, 2941076992, -89.19771575927734, -46.15518569946289, -92.03828430175781, 6.5493035316467285, -7.053455352783203, 0.4927072525024414, 2.094014883041382, 0.7507020235061646, 0.9350476861000061, 
210, 2941085325, -89.19949340820312, -46.15581512451172, -92.03215789794922, 7.364304542541504, -6.609982490539551, 0.6369713544845581, 2.523207187652588, -0.05900239571928978, 1.1629120111465454, 
211, 2941093658, -89.20012664794922, -46.15462112426758, -92.03192138671875, 7.643357753753662, -6.711684226989746, -0.5057815313339233, 2.148470878601074, 0.4318048059940338, 1.3629847764968872, 
212, 2941101991, -89.19853210449219, -46.153289794921875, -92.03569030761719, 6.784304141998291, -6.980079174041748, -0.15636691451072693, 2.0771865844726562, 0.7606915831565857, 1.387600064277649, 
213, 2941110324, -89.19978332519531, -46.15541076660156, -92.0328369140625, 6.752748012542725, -6.885152816772461, 0.5761580467224121, 2.3007729053497314, 0.21026727557182312, 0.9699085354804993, 
214, 2941118657, -89.20399475097656, -46.15632247924805, -92.02538299560547, 7.633019924163818, -6.567023277282715, 0.297780841588974, 2.3646810054779053, -0.18651007115840912, 1.1287938356399536, 
215, 2941126990, -89.20248413085938, -46.154022216796875, -92.0295639038086, 7.412970066070557, -7.01572322845459, -0.605125367641449, 2.0246260166168213, 0.8003679513931274, 1.4908252954483032, 
216, 2941135323, -89.19882202148438, -46.153831481933594, -92.0347900390625, 6.573392391204834, -7.01972770690918, 0.14894218742847443, 2.209855556488037, 0.8699235320091248, 1.2513450384140015, 
217, 2941143656, -89.20230102539062, -46.156105041503906, -92.02799987792969, 7.04694938659668, -6.736128330230713, 0.7474884390830994, 2.3755152225494385, -0.11778705567121506, 0.9556414484977722, 
218, 2941151989, -89.20463562011719, -46.15663146972656, -92.02410888671875, 7.771457672119141, -6.551714897155762, -0.1251637488603592, 2.2280030250549316, 0.15724578499794006, 1.170519471168518, 
219, 2941160322, -89.20149993896484, -46.153221130371094, -92.02936553955078, 7.106677055358887, -7.06196928024292, -0.53667151927948, 2.1241118907928467, 0.894321084022522, 1.6245317459106445, 
220, 2941168655, -89.20076751708984, -46.154727935791016, -92.0312728881836, 6.580225467681885, -6.957018852233887, 0.40752679109573364, 2.064673900604248, 0.6699274778366089, 1.048147439956665, 
221, 2941176988, -89.20316314697266, -46.15596389770508, -92.02539825439453, 7.309194564819336, -6.696087837219238, 0.7359527945518494, 2.4284985065460205, -0.03998382017016411, 1.0780904293060303, 
222, 2941185321, -89.20223999023438, -46.15545654296875, -92.0259780883789, 7.685816287994385, -6.819415092468262, -0.4545578956604004, 2.1604199409484863, 0.6015888452529907, 1.2892286777496338, 
223, 2941193654, -89.19877624511719, -46.15422821044922, -92.03321838378906, 6.823995113372803, -7.12022590637207, -0.07529914379119873, 1.9910587072372437, 1.0553193092346191, 1.3596419095993042, 
224, 2941201987, -89.20056915283203, -46.15732955932617, -92.03096008300781, 6.758327007293701, -6.864856243133545, 0.42077115178108215, 2.2464966773986816, 0.20014965534210205, 0.8648390769958496, 
225, 2941210320, -89.20386505126953, -46.15818786621094, -92.0234375, 7.612679481506348, -6.430123805999756, 0.4248848259449005, 2.4612720012664795, -0.1764436662197113, 1.1249773502349854, 
226, 2941218653, -89.20347595214844, -46.15511703491211, -92.02723693847656, 7.377697467803955, -6.910652160644531, -0.7028311491012573, 1.9042646884918213, 0.7885597944259644, 1.5960230827331543, 
227, 2941226986, -89.20122528076172, -46.15450668334961, -92.03279876708984, 6.595553398132324, -7.051743030548096, 0.2589976489543915, 1.9913020133972168, 0.9161187410354614, 1.287858247756958, 
228, 2941235319, -89.2030258178711, -46.15687561035156, -92.02473449707031, 7.051853179931641, -6.9183454513549805, 0.5312221050262451, 2.4675984382629395, -0.010437801480293274, 0.9508771896362305, 
229, 2941243652, -89.2044677734375, -46.15676498413086, -92.02035522460938, 7.775405406951904, -6.616938591003418, 0.0026942435652017593, 2.4078917503356934, 0.08703717589378357, 1.239063024520874, 
230, 2941251985, -89.20103454589844, -46.154483795166016, -92.02720642089844, 7.1310648918151855, -7.029178619384766, -0.5210022926330566, 2.0115628242492676, 1.0396050214767456, 1.4982534646987915, 
231, 2941260318, -89.20027160644531, -46.15634536743164, -92.02831268310547, 6.506294250488281, -6.911124229431152, 0.39682674407958984, 2.1989309787750244, 0.5399736762046814, 0.9959326386451721, 
232, 2941268651, -89.20329284667969, -46.158199310302734, -92.02085876464844, 7.281406402587891, -6.606259346008301, 0.5196138024330139, 2.4428296089172363, -0.12498465925455093, 1.0151945352554321, 
233, 2941276984, -89.2048568725586, -46.156070709228516, -92.01948547363281, 7.741035461425781, -6.72705078125, -0.3754165768623352, 2.134408712387085, 0.3409254848957062, 1.4777621030807495, 
234, 2941285317, -89.20243835449219, -46.15381622314453, -92.02405548095703, 6.815022945404053, -7.191259384155273, -0.19103115797042847, 1.9816453456878662, 0.9472144842147827, 1.4959993362426758, 
235, 2941293650, -89.20187377929688, -46.157352447509766, -92.02374267578125, 6.69351863861084, -7.013455390930176, 0.560696005821228, 2.3004143238067627, 0.41884395480155945, 0.7959879636764526, 
236, 2941301983, -89.20349884033203, -46.157958984375, -92.01769256591797, 7.5986223220825195, -6.51315975189209, 0.3794021010398865, 2.5270745754241943, -0.04645141214132309, 1.1651147603988647, 
237, 2941310316, -89.20230865478516, -46.15628433227539, -92.021484375, 7.514492034912109, -6.811020851135254, -0.590985119342804, 2.0199384689331055, 0.7703481316566467, 1.416723370552063, 
238, 2941318649, -89.19892883300781, -46.15611267089844, -92.03079986572266, 6.540861129760742, -7.02146053314209, 0.21536460518836975, 2.0245747566223145, 1.0148104429244995, 1.2441602945327759, 
239, 2941326982, -89.20140838623047, -46.15925598144531, -92.02619171142578, 6.905608177185059, -6.853630542755127, 0.370196670293808, 2.302873373031616, 0.06421488523483276, 0.8500853180885315, 
240, 2941335315, -89.20281982421875, -46.15873718261719, -92.02213287353516, 7.825244903564453, -6.493314743041992, 0.1348336637020111, 2.3936758041381836, 0.10640152543783188, 1.297796368598938, 
241, 2941343648, -89.19853210449219, -46.155879974365234, -92.03020477294922, 7.202782154083252, -7.10557746887207, -0.5009287595748901, 2.019759178161621, 1.1259762048721313, 1.5528117418289185, 
242, 2941351981, -89.19740295410156, -46.157867431640625, -92.03214263916016, 6.482490539550781, -7.114089488983154, 0.4914000928401947, 2.220677375793457, 0.569532573223114, 0.9919113516807556, 
243, 2941360314, -89.1995849609375, -46.16004180908203, -92.02510833740234, 7.3227925300598145, -6.684567451477051, 0.38372886180877686, 2.551715850830078, -0.13909810781478882, 0.9685767292976379, 
244, 2941368647, -89.19992065429688, -46.16020202636719, -92.02439880371094, 7.786407947540283, -6.523005485534668, -0.28420770168304443, 2.201671600341797, 0.41779378056526184, 1.2122961282730103, 
245, 2941376980, -89.19641876220703, -46.15815734863281, -92.03240966796875, 6.778346061706543, -7.037313461303711, -0.24515074491500854, 1.9318257570266724, 1.1194701194763184, 1.456015706062317, 
246, 2941385313, -89.19647979736328, -46.16000747680664, -92.02910614013672, 6.551422119140625, -6.987419605255127, 0.5811225771903992, 2.216066598892212, 0.43341848254203796, 1.0097644329071045, 
247, 2941393646, -89.19940185546875, -46.16093063354492, -92.02171325683594, 7.64430046081543, -6.61517858505249, 0.43797963857650757, 2.4914069175720215, -0.1649044305086136, 1.1183046102523804, 
248, 2941401979, -89.19850158691406, -46.15879440307617, -92.02378845214844, 7.712693691253662, -6.899259567260742, -0.6389800310134888, 2.0784671306610107, 0.6814155578613281, 1.4838838577270508, 
249, 2941410312, -89.19561767578125, -46.158180236816406, -92.0292739868164, 6.565638065338135, -7.087987899780273, 0.13159367442131042, 2.0765974521636963, 0.9078966379165649, 1.2874739170074463, 
250, 2941418645, -89.19680786132812, -46.160823822021484, -92.03009033203125, 6.7873992919921875, -6.786006450653076, 0.5136160254478455, 2.4243104457855225, 0.10322537273168564, 0.9217537641525269, 
251, 2941426978, -89.20028686523438, -46.1602783203125, -92.02355194091797, 7.75640869140625, -6.417652130126953, 0.14325834810733795, 2.3532824516296387, -0.09237774461507797, 1.2928017377853394, 
252, 2941435311, -89.19869232177734, -46.15699005126953, -92.02548217773438, 7.292625904083252, -6.998810291290283, -0.6231741905212402, 1.9540845155715942, 0.8783634305000305, 1.6210224628448486, 
253, 2941443644, -89.19644927978516, -46.15714645385742, -92.029296875, 6.4462199211120605, -7.129496097564697, 0.47913333773612976, 2.144193172454834, 0.7664546966552734, 1.198669195175171, 
254, 2941451977, -89.19940948486328, -46.16120529174805, -92.02136993408203, 7.171634674072266, -6.828001499176025, 0.4830548167228699, 2.50812029838562, -0.18766269087791443, 0.7504202723503113, 
255, 2941460310, -89.19950103759766, -46.160579681396484, -92.02015686035156, 7.886326313018799, -6.521329402923584, -0.21187151968479156, 2.3008110523223877, 0.3510814905166626, 1.2978602647781372, 
256, 2941468643, -89.19682312011719, -46.157894134521484, -92.02622985839844, 6.943615913391113, -7.0267767906188965, -0.32284483313560486, 1.944197416305542, 1.0154250860214233, 1.5457935333251953, 
257, 2941476976, -89.19694519042969, -46.159149169921875, -92.02601623535156, 6.487972736358643, -6.960551738739014, 0.5949690937995911, 2.212890863418579, 0.4288848042488098, 1.069676160812378, 
258, 2941485309, -89.19992065429688, -46.1595344543457, -92.0169448852539, 7.509847640991211, -6.613148212432861, 0.3541080355644226, 2.4320333003997803, -0.11032050102949142, 1.1929701566696167, 
259, 2941493642, -89.20053100585938, -46.15774917602539, -92.01759338378906, 7.723272323608398, -6.828958511352539, -0.5352141261100769, 2.0754573345184326, 0.5082248449325562, 1.433462142944336, 
260, 2941501975, -89.19754028320312, -46.15652084350586, -92.0244140625, 6.609728813171387, -7.120215892791748, -0.02579392120242119, 1.9283291101455688, 1.0626704692840576, 1.3691449165344238, 
261, 2941510308, -89.19998168945312, -46.16007614135742, -92.02003479003906, 6.740109443664551, -6.880727291107178, 0.6409119963645935, 2.2918081283569336, 0.08035185933113098, 0.800726592540741, 
262, 2941518641, -89.20262145996094, -46.16047668457031, -92.01374816894531, 7.803005695343018, -6.462378978729248, 0.22111859917640686, 2.548488140106201, -0.18315459787845612, 1.1925987005233765, 
263, 2941526974, -89.20071411132812, -46.15773010253906, -92.01859283447266, 7.417989253997803, -6.940292835235596, -0.7533711194992065, 2.0162246227264404, 0.8567450046539307, 1.5443079471588135, 
264, 2941535307, -89.19831085205078, -46.158111572265625, -92.02587890625, 6.443006992340088, -7.018052101135254, 0.3901657164096832, 1.992838740348816, 0.9355343580245972, 1.1778450012207031, 
265, 2941543640, -89.20140075683594, -46.16023254394531, -92.018798828125, 7.048213958740234, -6.777637481689453, 0.6408258676528931, 2.4476709365844727, -0.14189006388187408, 0.9730336666107178, 
266, 2941551973, -89.20225524902344, -46.15943145751953, -92.01725769042969, 7.866013526916504, -6.630194664001465, -0.1470450758934021, 2.227644443511963, 0.3318067789077759, 1.3321707248687744, 
267, 2941560306, -89.19754791259766, -46.156742095947266, -92.02545166015625, 7.036055564880371, -7.14461088180542, -0.3859170377254486, 2.0610365867614746, 1.1347490549087524, 1.5323587656021118, 
268, 2941568639, -89.1964111328125, -46.15938949584961, -92.02588653564453, 6.535327911376953, -6.969076633453369, 0.5060794353485107, 2.224276065826416, 0.5620659589767456, 0.9123918414115906, 
269, 2941576972, -89.20022583007812, -46.160621643066406, -92.0176773071289, 7.402454376220703, -6.558394908905029, 0.5086644291877747, 2.454432725906372, -0.23225706815719604, 1.083174705505371, 
270, 2941585305, -89.19932556152344, -46.159549713134766, -92.02384948730469, 7.675302028656006, -6.690671443939209, -0.5688897371292114, 2.1623024940490723, 0.5969653725624084, 1.358860969543457, 
271, 2941593638, -89.19717407226562, -46.15720748901367, -92.02995300292969, 6.727942943572998, -7.1125712394714355, -0.02599429339170456, 1.9376399517059326, 0.9605849981307983, 1.4938478469848633, 
272, 2941601971, -89.20060729980469, -46.16000747680664, -92.02643585205078, 6.724194526672363, -7.018783092498779, 0.6976376175880432, 2.171113967895508, 0.0856027752161026, 0.8985986709594727, 
273, 2941610304, -89.20353698730469, -46.16197967529297, -92.02021789550781, 7.692864418029785, -6.5729169845581055, 0.16733138263225555, 2.3906023502349854, -0.07088740170001984, 0.9905281066894531, 
274, 2941618637, -89.20167541503906, -46.16164016723633, -92.02607727050781, 7.467575550079346, -6.926230430603027, -0.6234657764434814, 1.9645092487335205, 0.9027992486953735, 1.2670848369598389, 
275, 2941626970, -89.19945526123047, -46.16270065307617, -92.03008270263672, 6.508734226226807, -6.923491477966309, 0.25102826952934265, 2.1224725246429443, 0.781234085559845, 1.0883744955062866, 
276, 2941635303, -89.20164489746094, -46.165279388427734, -92.0205078125, 6.983954906463623, -6.757262706756592, 0.6681937575340271, 2.492598056793213, -0.08333591371774673, 0.9294124245643616, 
277, 2941643636, -89.20368194580078, -46.16346740722656, -92.01692199707031, 7.847375869750977, -6.629458427429199, -0.1348360776901245, 2.2736477851867676, 0.15396717190742493, 1.4419279098510742, 
278, 2941651969, -89.20121765136719, -46.1609001159668, -92.02330017089844, 7.127424716949463, -7.130996227264404, -0.5520068407058716, 1.8936477899551392, 1.0387213230133057, 1.5306169986724854, 
279, 2941660302, -89.20011901855469, -46.16348648071289, -92.025146484375, 6.4813385009765625, -7.060704231262207, 0.5500438809394836, 2.172330617904663, 0.6014350652694702, 0.9082167744636536, 
280, 2941668635, -89.20329284667969, -46.16680145263672, -92.01808166503906, 7.276597023010254, -6.620100975036621, 0.5736938118934631, 2.4755516052246094, -0.17668697237968445, 0.8414148092269897, 
281, 2941676968, -89.20415496826172, -46.165931701660156, -92.01811218261719, 7.751241683959961, -6.650415897369385, -0.4784606397151947, 2.103235960006714, 0.4531414806842804, 1.3244608640670776, 
282, 2941685301, -89.20146179199219, -46.164188385009766, -92.0284194946289, 6.821981430053711, -7.040081977844238, -0.046735282987356186, 1.982234239578247, 0.9784637689590454, 1.4347301721572876, 
283, 2941693634, -89.20233917236328, -46.166526794433594, -92.02632904052734, 6.682465076446533, -6.9469380378723145, 0.517437219619751, 2.282254219055176, 0.2709473967552185, 0.9417073130607605, 
284, 2941701967, -89.2058334350586, -46.166831970214844, -92.01866912841797, 7.655564308166504, -6.55181884765625, 0.3126026391983032, 2.442112445831299, -0.18269354104995728, 1.2052265405654907, 
285, 2941710300, -89.20452117919922, -46.16535949707031, -92.02304077148438, 7.516473770141602, -6.921784400939941, -0.6511161923408508, 1.9843603372573853, 0.8157877922058105, 1.39246666431427, 
286, 2941718633, -89.20250701904297, -46.164981842041016, -92.02728271484375, 6.5152997970581055, -7.0556464195251465, 0.27685198187828064, 2.0638415813446045, 0.820219099521637, 1.271260142326355, 
287, 2941726966, -89.2044677734375, -46.16737365722656, -92.02151489257812, 6.922017574310303, -6.826582908630371, 0.5430185794830322, 2.4695067405700684, -0.033144816756248474, 0.9392099380493164, 
288, 2941735299, -89.20635986328125, -46.167293548583984, -92.01617431640625, 7.872970104217529, -6.477654933929443, -0.06479018926620483, 2.4066364765167236, 0.04011188820004463, 1.2470288276672363, 
289, 2941743632, -89.20342254638672, -46.164459228515625, -92.02300262451172, 7.184401512145996, -7.028985977172852, -0.5285980105400085, 1.968095302581787, 1.0245438814163208, 1.5524531602859497, 
290, 2941751965, -89.20049285888672, -46.16545486450195, -92.02739715576172, 6.426764011383057, -7.054885387420654, 0.5156763792037964, 2.2072043418884277, 0.7844871878623962, 1.1077899932861328, 
291, 2941760298, -89.20368194580078, -46.166934967041016, -92.01996612548828, 7.2766923904418945, -6.710289001464844, 0.6113657355308533, 2.465165376663208, -0.1682727038860321, 1.0507729053497314, 
292, 2941768631, -89.20479583740234, -46.16559600830078, -92.01875305175781, 7.844522476196289, -6.706051826477051, -0.4454481899738312, 2.2104058265686035, 0.32079270482063293, 1.3935680389404297, 
293, 2941776964, -89.20166015625, -46.16405487060547, -92.02608489990234, 6.836291313171387, -7.069271087646484, -0.22324532270431519, 1.947386384010315, 1.0625938177108765, 1.3974231481552124, 
294, 2941785297, -89.20182037353516, -46.166534423828125, -92.02458190917969, 6.580364227294922, -6.88446044921875, 0.5474125146865845, 2.239055633544922, 0.39603450894355774, 0.9358289837837219, 
295, 2941793630, -89.20500183105469, -46.167354583740234, -92.01773834228516, 7.570794105529785, -6.508728504180908, 0.39797693490982056, 2.419008493423462, -0.12111690640449524, 1.128640055656433, 
296, 2941801963, -89.20382690429688, -46.16521072387695, -92.02166748046875, 7.634042263031006, -6.88041353225708, -0.6663756370544434, 2.005979061126709, 0.7834627032279968, 1.4851133823394775, 
297, 2941810296, -89.19994354248047, -46.16411209106445, -92.02936553955078, 6.612786769866943, -7.153942108154297, 0.22839009761810303, 2.0078999996185303, 1.0911152362823486, 1.3431336879730225, 
298, 2941818629, -89.20027160644531, -46.166534423828125, -92.02764892578125, 6.8245391845703125, -6.957159042358398, 0.5390600562095642, 2.4470815658569336, 0.17594417929649353, 0.9456263780593872, 
299, 2941826962, -89.201904296875, -46.16767883300781, -92.02230072021484, 7.7977213859558105, -6.446504592895508, 0.05062984675168991, 2.473566770553589, 0.0035603786818683147, 1.0893478393554688, 
300, 2941835295, -89.19786834716797, -46.164947509765625, -92.03001403808594, 7.341714382171631, -6.862745761871338, -0.5894439816474915, 2.0505475997924805, 1.0695991516113281, 1.5499686002731323, 
301, 2941843628, -89.19573974609375, -46.16515350341797, -92.03418731689453, 6.425851821899414, -7.00544548034668, 0.5286729335784912, 2.0993683338165283, 0.796013593673706, 1.1897813081741333, 
302, 2941851961, -89.19835662841797, -46.16647720336914, -92.02699279785156, 7.157364368438721, -6.82313871383667, 0.4791720509529114, 2.4633593559265137, -0.0975390076637268, 1.0790380239486694, 
303, 2941860294, -89.19912719726562, -46.16574478149414, -92.02472686767578, 7.960861682891846, -6.625946998596191, -0.29312288761138916, 2.3072149753570557, 0.2649664580821991, 1.312665581703186, 
304, 2941868627, -89.19416046142578, -46.16259002685547, -92.033935546875, 6.931552886962891, -7.07189416885376, -0.2701209783554077, 1.9687870740890503, 1.258683443069458, 1.598968505859375, 
305, 2941876960, -89.19429016113281, -46.164512634277344, -92.0339126586914, 6.395819187164307, -7.015498638153076, 0.6688745021820068, 2.19042706489563, 0.4455595910549164, 0.9888888001441956, 
306, 2941885293, -89.19776153564453, -46.16582107543945, -92.02558135986328, 7.519028663635254, -6.550727844238281, 0.4631529152393341, 2.524078130722046, -0.25715410709381104, 1.0844042301177979, 
307, 2941893626, -89.1978988647461, -46.163570404052734, -92.02745819091797, 7.830428123474121, -6.690566539764404, -0.7321007251739502, 2.023498773574829, 0.6114373803138733, 1.4899543523788452, 
308, 2941901959, -89.19469451904297, -46.16131591796875, -92.03611755371094, 6.580554485321045, -7.0778398513793945, 0.1434454619884491, 1.950972318649292, 1.0692278146743774, 1.4936301708221436, 
309, 2941910292, -89.19572448730469, -46.16351318359375, -92.03230285644531, 6.618988037109375, -6.970688343048096, 0.5780484676361084, 2.412297248840332, 0.1283017098903656, 0.9599959254264832, 
310, 2941918625, -89.1985855102539, -46.16450119018555, -92.025146484375, 7.769476890563965, -6.532261371612549, 0.15799129009246826, 2.4425735473632812, -0.10582521557807922, 1.1199313402175903, 
311, 2941926958, -89.19573974609375, -46.16127014160156, -92.0316390991211, 7.532994747161865, -6.918471336364746, -0.6185611486434937, 1.9825034141540527, 0.9959455132484436, 1.6018247604370117, 
312, 2941935291, -89.19369506835938, -46.16036605834961, -92.03609466552734, 6.400993347167969, -7.086288928985596, 0.4274837374687195, 2.020463705062866, 0.8704102039337158, 1.3337204456329346, 
313, 2941943624, -89.19690704345703, -46.16257858276367, -92.02801513671875, 6.992693901062012, -6.803439617156982, 0.4072239398956299, 2.518903970718384, -0.2239580601453781, 0.9647345542907715, 
314, 2941951957, -89.19696044921875, -46.162559509277344, -92.02401733398438, 7.963207721710205, -6.3803839683532715, -0.1873132735490799, 2.3929073810577393, 0.2637241780757904, 1.2382946014404297, 
315, 2941960290, -89.19385528564453, -46.15961837768555, -92.03134155273438, 7.053596496582031, -7.031032085418701, -0.42025232315063477, 1.945785403251648, 1.0621198415756226, 1.5640307664871216, 
316, 2941968623, -89.19325256347656, -46.16063690185547, -92.03304290771484, 6.318925380706787, -7.1538896560668945, 0.726524293422699, 2.1482019424438477, 0.573361873626709, 1.1069576740264893, 
317, 2941976956, -89.1965103149414, -46.16257858276367, -92.02388763427734, 7.383934020996094, -6.784467697143555, 0.32371991872787476, 2.6074650287628174, -0.31461966037750244, 0.9980202317237854, 
318, 2941985289, -89.1965103149414, -46.16226577758789, -92.02142333984375, 7.983236312866211, -6.614141941070557, -0.4441389739513397, 2.211430549621582, 0.44502168893814087, 1.2713881731033325, 
319, 2941993622, -89.1916732788086, -46.16035842895508, -92.03123474121094, 6.716392517089844, -7.017320156097412, -0.1174522340297699, 1.9362314939498901, 1.2678790092468262, 1.4370354413986206, 
320, 2942001955, -89.19253540039062, -46.163700103759766, -92.030029296875, 6.435903549194336, -6.983300685882568, 0.7602158784866333, 2.265373945236206, 0.2920534908771515, 0.8312331438064575, 
321, 2942010288, -89.19670104980469, -46.1654167175293, -92.02198028564453, 7.741970062255859, -6.519298553466797, 0.17277862131595612, 2.404024124145508, -0.2219601720571518, 1.0245438814163208, 
322, 2942018621, -89.19691467285156, -46.16312026977539, -92.02555847167969, 7.757045269012451, -6.8139214515686035, -0.6618643999099731, 1.8870391845703125, 0.7362684607505798, 1.5015963315963745, 
323, 2942026954, -89.19281768798828, -46.16215515136719, -92.03399658203125, 6.4218220710754395, -7.168666839599609, 0.37475985288619995, 1.9626010656356812, 1.1538060903549194, 1.3282390832901, 
324, 2942035287, -89.19432830810547, -46.16571807861328, -92.02952575683594, 6.79742956161499, -6.949970245361328, 0.633561372756958, 2.506007194519043, -0.01905699260532856, 0.8108826279640198, 
325, 2942043620, -89.19617462158203, -46.166996002197266, -92.0236587524414, 8.008946418762207, -6.443821907043457, -0.13191647827625275, 2.490344285964966, -0.03953557461500168, 1.0750038623809814, 
326, 2942051953, -89.19403076171875, -46.16459274291992, -92.03002166748047, 7.388611793518066, -6.891395092010498, -0.5716655850410461, 1.9282394647598267, 0.9672446846961975, 1.5140061378479004, 
327, 2942060286, -89.1920394897461, -46.16447448730469, -92.03373718261719, 6.237036228179932, -7.099110126495361, 0.6333129405975342, 2.1233177185058594, 0.7590522766113281, 1.229816198348999, 
328, 2942068619, -89.19412231445312, -46.167598724365234, -92.02445983886719, 7.066462516784668, -6.808696269989014, 0.2974461019039154, 2.6584243774414062, -0.22439348697662354, 0.8640705943107605, 
329, 2942076952, -89.19469451904297, -46.16739273071289, -92.02363586425781, 8.084100723266602, -6.451352119445801, -0.3847789764404297, 2.2051808834075928, 0.38295844197273254, 1.247746229171753, 
330, 2942085285, -89.1898193359375, -46.16379928588867, -92.0355224609375, 6.9671430587768555, -7.063129425048828, -0.2205641120672226, 1.9106169939041138, 1.303995132446289, 1.651631474494934, 
331, 2942093618, -89.19049835205078, -46.16462707519531, -92.03448486328125, 6.277353763580322, -7.102019309997559, 0.8270623087882996, 2.2113149166107178, 0.3626078963279724, 1.1215064525604248, 
332, 2942101951, -89.19405364990234, -46.16658020019531, -92.02498626708984, 7.62701416015625, -6.6248650550842285, 0.12007422000169754, 2.558349609375, -0.2982393503189087, 1.0072541236877441, 
333, 2942110284, -89.19303131103516, -46.16464614868164, -92.02820587158203, 7.9256768226623535, -6.514699935913086, -0.6547713279724121, 2.0511367321014404, 0.7199905514717102, 1.4503804445266724, 
334, 2942118617, -89.18953704833984, -46.1616096496582, -92.03804016113281, 6.4143595695495605, -7.069722652435303, 0.12245344370603561, 1.846210241317749, 1.2008850574493408, 1.584458351135254, 
335, 2942126950, -89.1923828125, -46.163658142089844, -92.03271484375, 6.422427654266357, -7.068922519683838, 0.8258103728294373, 2.326336145401001, 0.00453371973708272, 0.981178879737854, 
336, 2942135283, -89.19668579101562, -46.16426467895508, -92.02371215820312, 7.946145057678223, -6.591042518615723, -0.0393344983458519, 2.440319538116455, -0.27203601598739624, 1.1690595149993896, 
337, 2942143616, -89.19559478759766, -46.16251754760742, -92.02942657470703, 7.757554054260254, -6.859530925750732, -0.6449430584907532, 1.84127938747406, 0.9278757572174072, 1.4228196144104004, 
338, 2942151949, -89.19325256347656, -46.16157531738281, -92.04206848144531, 6.252233028411865, -7.1147141456604, 0.5235573053359985, 1.9962068796157837, 0.9260955452919006, 1.3380236625671387, 
339, 2942160282, -89.19691467285156, -46.16445541381836, -92.03380584716797, 6.794774532318115, -6.83880615234375, 0.4958389699459076, 2.480482816696167, -0.24104276299476624, 0.8850999474525452, 
340, 2942168615, -89.19902038574219, -46.163570404052734, -92.03018951416016, 8.093624114990234, -6.39560079574585, -0.19648271799087524, 2.339911699295044, 0.08096659928560257, 1.3428518772125244, 
341, 2942176948, -89.19402313232422, -46.16053009033203, -92.04116821289062, 7.233638286590576, -7.0097784996032715, -0.4591590166091919, 1.856545329093933, 1.3679794073104858, 1.5724835395812988, 
342, 2942185281, -89.19208526611328, -46.161014556884766, -92.04136657714844, 6.115638256072998, -7.238255977630615, 0.8427494168281555, 2.145115375518799, 0.7326439619064331, 1.1694947481155396, 
343, 2942193614, -89.19481658935547, -46.16455078125, -92.03219604492188, 7.280977725982666, -6.809901237487793, 0.2813881039619446, 2.6713085174560547, -0.3180135488510132, 0.8060799837112427, 
344, 2942201947, -89.19406127929688, -46.16490936279297, -92.03105926513672, 8.161606788635254, -6.412805557250977, -0.45616909861564636, 2.2502236366271973, 0.4958532154560089, 1.1896147727966309, 
345, 2942210280, -89.18871307373047, -46.16124725341797, -92.04235076904297, 6.752419948577881, -7.028006076812744, -0.15331773459911346, 1.8654975891113281, 1.3961936235427856, 1.6488524675369263, 
346, 2942218613, -89.18852996826172, -46.16339874267578, -92.04037475585938, 6.211399555206299, -7.089722156524658, 0.8864670395851135, 2.318434000015259, 0.36619389057159424, 0.9717655777931213, 
347, 2942226946, -89.19348907470703, -46.16592025756836, -92.029296875, 7.719471454620361, -6.60486364364624, 0.03766773268580437, 2.566495180130005, -0.47464463114738464, 0.9308469891548157, 
348, 2942235279, -89.19242095947266, -46.165794372558594, -92.03343963623047, 7.914520263671875, -6.6915717124938965, -0.6334918141365051, 1.9523427486419678, 0.8200141787528992, 1.241214632987976, 
349, 2942243612, -89.18974304199219, -46.164188385009766, -92.04119873046875, 6.3370819091796875, -7.08735990524292, 0.30632150173187256, 1.853446125984192, 1.0955208539962769, 1.4038649797439575, 
350, 2942251945, -89.19448852539062, -46.167850494384766, -92.0333023071289, 6.610373497009277, -6.963405609130859, 0.8370962142944336, 2.345136880874634, -0.23225708305835724, 0.8001375794410706, 
351, 2942260278, -89.19742584228516, -46.16888427734375, -92.02558898925781, 8.124666213989258, -6.404498100280762, -0.22455108165740967, 2.519723653793335, -0.1915048360824585, 1.1079950332641602, 
352, 2942268611, -89.1946029663086, -46.16651916503906, -92.03425598144531, 7.546457290649414, -6.851553916931152, -0.6964976787567139, 1.895081877708435, 1.0821373462677002, 1.5049259662628174, 
353, 2942276944, -89.19178009033203, -46.16640853881836, -92.04009246826172, 6.129109859466553, -7.0822954177856445, 0.6174398064613342, 2.034090518951416, 0.9359570741653442, 1.2290606498718262, 
354, 2942285277, -89.19609832763672, -46.16948318481445, -92.03065490722656, 6.9281792640686035, -6.84519100189209, 0.5813726782798767, 2.5634853839874268, -0.3915135860443115, 0.8724080920219421, 
355, 2942293610, -89.19789123535156, -46.16936492919922, -92.02689361572266, 8.137332916259766, -6.54848575592041, -0.3933279812335968, 2.313554286956787, 0.13821440935134888, 1.240523099899292, 
356, 2942301943, -89.1930923461914, -46.16666793823242, -92.03473663330078, 7.133882522583008, -7.064783096313477, -0.3082379996776581, 1.9478858709335327, 1.2551231384277344, 1.5429502725601196, 
357, 2942310276, -89.19241333007812, -46.16909408569336, -92.03462982177734, 6.283797264099121, -7.073588848114014, 0.7684423327445984, 2.298224449157715, 0.43558284640312195, 0.9302706122398376, 
358, 2942318609, -89.19673919677734, -46.17115020751953, -92.02558135986328, 7.470701694488525, -6.578387260437012, 0.31508639454841614, 2.584770917892456, -0.4149250090122223, 0.997277557849884, 
359, 2942326942, -89.19591522216797, -46.16980743408203, -92.02828979492188, 7.9939799308776855, -6.573232173919678, -0.6544348001480103, 2.070859670639038, 0.6783416867256165, 1.3775334358215332, 
360, 2942335275, -89.19336700439453, -46.166786193847656, -92.03809356689453, 6.557552337646484, -7.138607501983643, 0.08547651767730713, 1.7665883302688599, 1.1708780527114868, 1.58457350730896, 
361, 2942343608, -89.19637298583984, -46.169822692871094, -92.03412628173828, 6.45576286315918, -7.107380390167236, 0.8472132682800293, 2.1919124126434326, 0.11493107676506042, 0.8601003885269165, 
362, 2942351941, -89.19989776611328, -46.17076873779297, -92.02555847167969, 7.893828868865967, -6.571374416351318, 0.02485666610300541, 2.580467700958252, -0.31746286153793335, 1.1284223794937134, 
363, 2942360274, -89.19735717773438, -46.16910934448242, -92.03170776367188, 7.67551326751709, -6.827469825744629, -0.805709183216095, 1.977329134941101, 0.9633385539054871, 1.412535309791565, 
364, 2942368607, -89.19296264648438, -46.169918060302734, -92.03929901123047, 6.306982517242432, -6.976123332977295, 0.45351535081863403, 2.1034796237945557, 1.0562413930892944, 1.1268599033355713, 
365, 2942376940, -89.19680786132812, -46.172569274902344, -92.03211975097656, 6.815154075622559, -6.815370082855225, 0.6473634243011475, 2.362337112426758, -0.1489211618900299, 0.9113160967826843, 
366, 2942385273, -89.19982147216797, -46.1712760925293, -92.02384185791016, 8.032124519348145, -6.534546852111816, -0.2635175287723541, 2.267282485961914, 0.04816756770014763, 1.390737771987915, 
367, 2942393606, -89.19657135009766, -46.16827392578125, -92.03237915039062, 7.202978610992432, -7.103199481964111, -0.5695730447769165, 1.8532155752182007, 1.1664979457855225, 1.5715101957321167, 
368, 2942401939, -89.19575500488281, -46.16965866088867, -92.03498077392578, 6.281282901763916, -7.072261810302734, 0.6831937432289124, 2.1303999423980713, 0.62062007188797, 1.0614410638809204, 
369, 2942410272, -89.19886779785156, -46.1722526550293, -92.02656555175781, 7.280802249908447, -6.618006706237793, 0.5643877387046814, 2.557555913925171, -0.25318387150764465, 0.9198585152626038, 
370, 2942418605, -89.19939422607422, -46.171329498291016, -92.02578735351562, 7.961575031280518, -6.580475807189941, -0.607581615447998, 2.070834159851074, 0.5237854719161987, 1.3407258987426758, 
371, 2942426938, -89.19624328613281, -46.16822052001953, -92.0348129272461, 6.753634929656982, -7.103794574737549, -0.1261010318994522, 1.8023074865341187, 1.2068787813186646, 1.5828444957733154, 
372, 2942435271, -89.19664001464844, -46.17133331298828, -92.02935791015625, 6.473151683807373, -6.9972615242004395, 0.6607584357261658, 2.3308699131011963, 0.2799380123615265, 0.8615605235099792, 
373, 2942443604, -89.20056915283203, -46.172271728515625, -92.02064514160156, 7.684820175170898, -6.538309097290039, 0.3905734717845917, 2.4831721782684326, -0.27485355734825134, 1.1191627979278564, 
374, 2942451937, -89.19949340820312, -46.17072296142578, -92.02498626708984, 7.646495342254639, -6.915347576141357, -0.8201687335968018, 2.001368284225464, 0.7777250409126282, 1.4111649990081787, 
375, 2942460270, -89.19696044921875, -46.169960021972656, -92.03128814697266, 6.483574390411377, -7.061268329620361, 0.29950934648513794, 1.9606415033340454, 0.9769267439842224, 1.3058648109436035, 
376, 2942468603, -89.19976043701172, -46.172607421875, -92.02516174316406, 6.899021148681641, -6.831833839416504, 0.7209638953208923, 2.5054306983947754, -0.16396953165531158, 0.921651303768158, 
377, 2942476936, -89.2018051147461, -46.17282485961914, -92.02021789550781, 7.874783039093018, -6.474879264831543, -0.08188853412866592, 2.3842244148254395, 0.03931785002350807, 1.2000269889831543, 
378, 2942485269, -89.1987533569336, -46.17048263549805, -92.02607727050781, 7.202668190002441, -7.040525913238525, -0.6905078887939453, 1.9814403057098389, 1.0261061191558838, 1.5041704177856445, 
379, 2942493602, -89.19651794433594, -46.171592712402344, -92.02942657470703, 6.415560722351074, -6.988500595092773, 0.6471652984619141, 2.1801042556762695, 0.7279821634292603, 1.083328366279602, 
380, 2942501935, -89.19915771484375, -46.172080993652344, -92.02193450927734, 7.244506359100342, -6.733765602111816, 0.8200751543045044, 2.4913432598114014, -0.12626537680625916, 1.1828910112380981, 
381, 2942510268, -89.2005844116211, -46.171363830566406, -92.0205307006836, 7.873734951019287, -6.771733283996582, -0.5125679969787598, 2.154054880142212, 0.33475247025489807, 1.3082983493804932, 
382, 2942518601, -89.19731903076172, -46.16960525512695, -92.02944946289062, 6.895684719085693, -7.055342197418213, -0.28549203276634216, 2.0586161613464355, 0.9733665585517883, 1.4355754852294922, 
383, 2942526934, -89.19742584228516, -46.17255783081055, -92.02916717529297, 6.549255847930908, -6.878932476043701, 0.6344479918479919, 2.2147350311279297, 0.42286545038223267, 0.8681432604789734, 
384, 2942535267, -89.2017593383789, -46.17298126220703, -92.01934051513672, 7.488303184509277, -6.518667697906494, 0.5857298970222473, 2.4907541275024414, -0.3192686438560486, 1.1901142597198486, 
385, 2942543600, -89.20175170898438, -46.16985321044922, -92.02120208740234, 7.618678092956543, -6.924098014831543, -0.8043655753135681, 2.043503761291504, 0.611591100692749, 1.5935384035110474, 
386, 2942551933, -89.19776916503906, -46.16960525512695, -92.027587890625, 6.666539669036865, -7.107668876647949, 0.1346610188484192, 2.0817458629608154, 1.029820442199707, 1.2528434991836548, 
387, 2942560266, -89.1990737915039, -46.172340393066406, -92.02404022216797, 6.847885608673096, -6.877056121826172, 0.6428914070129395, 2.352590560913086, 0.1530962735414505, 0.8967799544334412, 
388, 2942568599, -89.20095825195312, -46.17342758178711, -92.01907348632812, 7.742380142211914, -6.487131595611572, 0.12011591345071793, 2.4730288982391357, -0.023705976083874702, 1.1081230640411377, 
389, 2942576932, -89.197998046875, -46.171024322509766, -92.02476501464844, 7.233065128326416, -6.939020156860352, -0.8442132472991943, 2.0707828998565674, 0.925980269908905, 1.5009942054748535, 
390, 2942585265, -89.1958236694336, -46.172786712646484, -92.02919006347656, 6.509185791015625, -6.922677993774414, 0.41863152384757996, 2.1056180000305176, 0.7952195405960083, 1.0158863067626953, 
391, 2942593598, -89.1991195678711, -46.17420196533203, -92.02267456054688, 7.164732933044434, -6.719337463378906, 0.667992115020752, 2.3732359409332275, -0.09488793462514877, 1.0592511892318726, 
392, 2942601931, -89.20140075683594, -46.173892974853516, -92.0204086303711, 7.760865211486816, -6.836591720581055, -0.39072757959365845, 2.0926060676574707, 0.298687607049942, 1.2719261646270752, 
393, 2942610264, -89.1980972290039, -46.172916412353516, -92.027587890625, 6.923220157623291, -7.099709987640381, -0.37520211935043335, 1.9809538125991821, 1.0480833053588867, 1.3279445171356201, 
394, 2942618597, -89.19842529296875, -46.17673110961914, -92.0278091430664, 6.72546911239624, -6.843978404998779, 0.4909696877002716, 2.2579972743988037, 0.3613656163215637, 0.774369478225708, 
395, 2942626930, -89.20193481445312, -46.17727279663086, -92.02069091796875, 7.496490478515625, -6.4686479568481445, 0.5919409990310669, 2.4034221172332764, -0.14302989840507507, 1.162847876548767, 
396, 2942635263, -89.20218658447266, -46.17506790161133, -92.02269744873047, 7.479828357696533, -6.90602970123291, -0.8525717258453369, 2.028724193572998, 0.5935330390930176, 1.4966142177581787, 
397, 2942643596, -89.19999694824219, -46.174686431884766, -92.02799224853516, 6.713303565979004, -7.01448917388916, 0.11132021993398666, 2.012331008911133, 0.8907350301742554, 1.2593750953674316, 
398, 2942651929, -89.19998168945312, -46.176971435546875, -92.02544403076172, 6.969165802001953, -6.879556179046631, 0.629962682723999, 2.3907814025878906, 0.2743028402328491, 0.9618657827377319, 
399, 2942660262, -89.20195770263672, -46.17667770385742, -92.0220718383789, 7.6649956703186035, -6.644292831420898, 0.30083537101745605, 2.2603023052215576, 0.17018096148967743, 1.2581199407577515, 
400, 2942668595, -89.19925689697266, -46.17448425292969, -92.0263900756836, 7.278099060058594, -7.076841354370117, -0.6349745988845825, 2.0958080291748047, 0.871882975101471, 1.4886993169784546, 
401, 2942676928, -89.19599914550781, -46.176692962646484, -92.0313720703125, 6.696858882904053, -6.906827449798584, 0.29848426580429077, 2.1657731533050537, 0.8588324785232544, 0.9493275880813599, 
402, 2942685261, -89.19816589355469, -46.177467346191406, -92.0293197631836, 7.225986480712891, -6.5886006355285645, 0.651610255241394, 2.3787171840667725, 0.03801152482628822, 1.1444439888000488, 
403, 2942693594, -89.19894409179688, -46.17504119873047, -92.0282211303711, 7.612519264221191, -6.692975997924805, -0.21652409434318542, 2.203054904937744, 0.36405515670776367, 1.5130841732025146, 
404, 2942701927, -89.19477081298828, -46.172481536865234, -92.03634643554688, 6.903648376464844, -7.10670804977417, -0.29863572120666504, 2.0845890045166016, 1.0567409992218018, 1.5296308994293213, 
405, 2942710260, -89.19334411621094, -46.17498779296875, -92.03755950927734, 6.840497016906738, -6.987208843231201, 0.6076864004135132, 2.2705094814300537, 0.5452630519866943, 0.918257474899292, 
406, 2942718593, -89.19627380371094, -46.17500686645508, -92.03107452392578, 7.52155876159668, -6.599456787109375, 0.5332329273223877, 2.3767449855804443, -0.046835631132125854, 1.235169768333435, 
407, 2942726926, -89.19461822509766, -46.17315673828125, -92.03321075439453, 7.433562755584717, -6.887406349182129, -0.5692970752716064, 2.2193965911865234, 0.6310067176818848, 1.4408262968063354, 
408, 2942735259, -89.19271087646484, -46.17161560058594, -92.03700256347656, 6.670732021331787, -6.888065338134766, 0.08124538511037827, 2.0637259483337402, 0.8068099021911621, 1.4145331382751465, 
409, 2942743592, -89.19429016113281, -46.17267608642578, -92.03338623046875, 6.912754535675049, -6.772687911987305, 0.5252589583396912, 2.332573175430298, 0.14667990803718567, 1.0952261686325073, 
410, 2942751925, -89.19615936279297, -46.171451568603516, -92.02892303466797, 7.59361457824707, -6.610536575317383, 0.1821947693824768, 2.3810737133026123, 0.06769842654466629, 1.385141134262085, 
411, 2942760258, -89.19326782226562, -46.16793441772461, -92.03369140625, 7.1692304611206055, -7.096305847167969, -0.557422399520874, 2.1399924755096436, 0.851954996585846, 1.6364164352416992, 
412, 2942768591, -89.1919937133789, -46.16908264160156, -92.03704071044922, 6.660048961639404, -7.014985084533691, 0.2932971715927124, 2.152658700942993, 0.6524329781532288, 1.090846300125122, 
413, 2942776924, -89.19401550292969, -46.16999053955078, -92.03186798095703, 7.256619930267334, -6.669171333312988, 0.5773892402648926, 2.4100048542022705, 0.01876242831349373, 1.1162556409835815, 
414, 2942785257, -89.19338989257812, -46.16913986206055, -92.03340911865234, 7.655550956726074, -6.642584323883057, -0.20791380107402802, 2.2764394283294678, 0.4585717022418976, 1.3361411094665527, 
415, 2942793590, -89.19042205810547, -46.16692352294922, -92.0403823852539, 6.822525978088379, -7.047583103179932, -0.29251036047935486, 1.956709861755371, 1.0334447622299194, 1.4767247438430786, 
416, 2942801923, -89.19144439697266, -46.168697357177734, -92.03776550292969, 6.645893573760986, -6.949896812438965, 0.34239330887794495, 2.1345880031585693, 0.40063226222991943, 1.0198307037353516, 
417, 2942810256, -89.19481658935547, -46.16942596435547, -92.03120422363281, 7.503054141998291, -6.587645530700684, 0.5186257362365723, 2.3677029609680176, -0.09552828967571259, 1.1416776180267334, 
418, 2942818589, -89.19454956054688, -46.16836929321289, -92.03474426269531, 7.530489921569824, -6.912873268127441, -0.5082911849021912, 2.0239217281341553, 0.6584523320198059, 1.3546727895736694, 
419, 2942826922, -89.19298553466797, -46.16865158081055, -92.03889465332031, 6.66019868850708, -7.128706455230713, 0.08485313504934311, 2.0344362258911133, 0.7935802936553955, 1.1824043989181519, 
420, 2942835255, -89.19448852539062, -46.17195129394531, -92.03474426269531, 6.976698875427246, -6.839591026306152, 0.49459853768348694, 2.4131810665130615, 0.07209125906229019, 0.8402877449989319, 
421, 2942843588, -89.19649505615234, -46.171958923339844, -92.03022003173828, 7.717586994171143, -6.447178363800049, 0.1000107005238533, 2.355856418609619, 0.07337198406457901, 1.2245526313781738, 
422, 2942851921, -89.19599151611328, -46.17019271850586, -92.03295135498047, 7.182109355926514, -6.974849224090576, -0.4690088629722595, 1.897707462310791, 0.8104856014251709, 1.4402629137039185, 
423, 2942860254, -89.19514465332031, -46.17094039916992, -92.0357437133789, 6.506770610809326, -7.031133651733398, 0.3283514380455017, 2.064866065979004, 0.6805703043937683, 1.1272056102752686, 
424, 2942868587, -89.19767761230469, -46.17306137084961, -92.03015899658203, 7.2545013427734375, -6.82883882522583, 0.5684910416603088, 2.389718770980835, -0.020363319665193558, 0.9860327839851379, 
425, 2942876920, -89.19805908203125, -46.17306137084961, -92.0286865234375, 7.853819847106934, -6.625452995300293, -0.21083256602287292, 2.2880043983459473, 0.326978474855423, 1.221043348312378, 
426, 2942885253, -89.19573211669922, -46.17108917236328, -92.03453826904297, 6.987979412078857, -7.088457107543945, -0.2916291356086731, 1.9622424840927124, 0.9577802419662476, 1.4624062776565552, 
427, 2942893586, -89.19529724121094, -46.17345428466797, -92.03437042236328, 6.489252090454102, -6.959722995758057, 0.49316877126693726, 2.2715346813201904, 0.4315614700317383, 0.9380829334259033, 
428, 2942901919, -89.1975326538086, -46.17477035522461, -92.02777099609375, 7.433930397033691, -6.584971904754639, 0.3628073036670685, 2.47511625289917, -0.06559804826974869, 1.081061601638794, 
429, 2942910252, -89.1960678100586, -46.17377853393555, -92.03111267089844, 7.736269950866699, -6.714282989501953, -0.43460139632225037, 2.0884311199188232, 0.7280334234237671, 1.3355263471603394, 
430, 2942918585, -89.1933822631836, -46.17049789428711, -92.0385513305664, 6.671869277954102, -7.157104015350342, 0.07005307823419571, 1.9145103693008423, 1.050747275352478, 1.6166936159133911, 
431, 2942926918, -89.19409942626953, -46.1735725402832, -92.03517150878906, 6.717371463775635, -7.001948356628418, 0.4685162305831909, 2.4120283126831055, 0.16320110857486725, 0.8553490042686462, 
432, 2942935251, -89.19652557373047, -46.17628860473633, -92.0289306640625, 7.797511577606201, -6.414933681488037, 0.10836230963468552, 2.4378349781036377, -0.05510903149843216, 0.9126608967781067, 
433, 2942943584, -89.19380950927734, -46.173526763916016, -92.03594970703125, 7.4580979347229, -6.775028705596924, -0.5668044090270996, 1.9222972393035889, 1.0399636030197144, 1.5456655025482178, 
434, 2942951917, -89.19124603271484, -46.17169189453125, -92.04235076904297, 6.332200050354004, -7.101099491119385, 0.4503711462020874, 2.063047409057617, 0.8893006443977356, 1.4439256191253662, 
435, 2942960250, -89.19287872314453, -46.174007415771484, -92.0362777709961, 6.986874580383301, -6.9230499267578125, 0.3944934010505676, 2.5344905853271484, -0.059886086732149124, 0.947995662689209, 
436, 2942968583, -89.19469451904297, -46.1743049621582, -92.03451538085938, 7.979615688323975, -6.517739295959473, -0.17735549807548523, 2.345085620880127, 0.10727240890264511, 1.2027164697647095, 
437, 2942976916, -89.18974304199219, -46.17148971557617, -92.0443115234375, 7.121096611022949, -7.02686071395874, -0.37029600143432617, 1.9517792463302612, 1.266470193862915, 1.545716643333435, 
438, 2942985249, -89.18757629394531, -46.1729850769043, -92.04603576660156, 6.265652179718018, -7.047492504119873, 0.6857537627220154, 2.222675323486328, 0.6855906248092651, 1.051899790763855, 
439, 2942993582, -89.19141387939453, -46.17621612548828, -92.03703308105469, 7.339408874511719, -6.685451030731201, 0.2965924143791199, 2.5241293907165527, -0.304002583026886, 0.8422728180885315, 
440, 2943001915, -89.19197082519531, -46.17497634887695, -92.03572082519531, 7.996213436126709, -6.492788314819336, -0.41752713918685913, 2.199903964996338, 0.3953301012516022, 1.380760908126831, 
441, 2943010248, -89.18977355957031, -46.171573638916016, -92.04327392578125, 6.802912712097168, -7.086960792541504, -0.0929628238081932, 1.8173041343688965, 1.082047700881958, 1.6201516389846802, 
442, 2943018581, -89.191162109375, -46.172760009765625, -92.04061126708984, 6.3607378005981445, -7.123412132263184, 0.8105989694595337, 2.276503562927246, 0.22564858198165894, 1.0913584232330322, 
443, 2943026914, -89.19346618652344, -46.17440414428711, -92.03314971923828, 7.638325214385986, -6.616898536682129, 0.09363441169261932, 2.5762927532196045, -0.17379257082939148, 1.0307552814483643, 
444, 2943035247, -89.19058990478516, -46.17201614379883, -92.03986358642578, 7.858207702636719, -6.691545486450195, -0.43754738569259644, 2.0847041606903076, 0.901582658290863, 1.51194429397583, 
445, 2943043580, -89.18765258789062, -46.169921875, -92.04737854003906, 6.463211536407471, -7.133288383483887, 0.25546932220458984, 1.9035732746124268, 1.0819454193115234, 1.4658770561218262, 
446, 2943051913, -89.1898193359375, -46.17325973510742, -92.04194641113281, 6.614199638366699, -6.937402725219727, 0.559955358505249, 2.3915627002716064, 0.019761383533477783, 0.8344733715057373, 
447, 2943060246, -89.19219970703125, -46.174232482910156, -92.03484344482422, 7.957280158996582, -6.370481967926025, -0.17859865725040436, 2.5360779762268066, -0.1397000402212143, 1.1128487586975098, 
448, 2943068579, -89.19121551513672, -46.17155838012695, -92.04273223876953, 7.486306667327881, -6.814241886138916, -0.4829338490962982, 1.7916260957717896, 0.9652853608131409, 1.5438852310180664, 
449, 2943076912, -89.18994140625, -46.16942596435547, -92.04800415039062, 6.2223076820373535, -7.193430423736572, 0.6282809376716614, 1.9016777276992798, 0.8921437859535217, 1.4712048768997192, 
450, 2943085245, -89.19316864013672, -46.17292404174805, -92.03535461425781, 7.080924034118652, -6.9501471519470215, 0.42807453870773315, 2.6261889934539795, -0.32824644446372986, 0.823664128780365, 
451, 2943093578, -89.19471740722656, -46.173221588134766, -92.03105926513672, 8.179177284240723, -6.395098686218262, -0.452854722738266, 2.3888092041015625, 0.0931333601474762, 1.190293550491333, 
452, 2943101911, -89.19022369384766, -46.170406341552734, -92.044677734375, 7.033830165863037, -6.904829978942871, -0.3602305054664612, 1.8643319606781006, 1.302868127822876, 1.5576785802841187, 
453, 2943110244, -89.19062042236328, -46.16979217529297, -92.04517364501953, 6.116732597351074, -7.005855083465576, 0.7781865000724792, 2.111752986907959, 0.49313807487487793, 1.2940696477890015, 
454, 2943118577, -89.19632720947266, -46.170528411865234, -92.03584289550781, 7.411099910736084, -6.782580852508545, 0.22469879686832428, 2.435375928878784, -0.4248761534690857, 1.1539725065231323, 
455, 2943126910, -89.19728088378906, -46.16965866088867, -92.03653717041016, 8.116985321044922, -6.657650947570801, -0.5700546503067017, 2.0335655212402344, 0.5080839991569519, 1.3230777978897095, 
456, 2943135243, -89.19296264648438, -46.16742706298828, -92.04501342773438, 6.693695068359375, -7.202047824859619, 0.0038716234266757965, 1.9185829162597656, 1.2286635637283325, 1.492157220840454, 
457, 2943143576, -89.19564819335938, -46.17104721069336, -92.03984832763672, 6.334716320037842, -7.035589694976807, 0.8198082447052002, 2.3307929039001465, 0.014395198784768581, 0.7912237048149109, 
458, 2943151909, -89.19867706298828, -46.172489166259766, -92.03206634521484, 7.811832904815674, -6.462602615356445, 0.015371769666671753, 2.611114978790283, -0.28970980644226074, 1.0698298215866089, 
459, 2943160242, -89.19786834716797, -46.16927719116211, -92.03694915771484, 7.760418891906738, -6.6954426765441895, -0.6568127274513245, 1.8810324668884277, 0.860100269317627, 1.5987635850906372, 
460, 2943168575, -89.19495391845703, -46.16767883300781, -92.04534912109375, 6.2832512855529785, -7.1699604988098145, 0.4528194069862366, 1.9336315393447876, 1.0531678199768066, 1.4162240028381348, 
461, 2943176908, -89.19850158691406, -46.17044448852539, -92.0376205444336, 6.737687587738037, -6.981491565704346, 0.6036452054977417, 2.445378065109253, -0.19489870965480804, 0.8978941440582275, 
462, 2943185241, -89.19967651367188, -46.17019271850586, -92.03731536865234, 8.092615127563477, -6.508522033691406, -0.16297858953475952, 2.4307780265808105, 0.10208553820848465, 1.2655097246170044, 
463, 2943193574, -89.19546508789062, -46.16786575317383, -92.04582977294922, 7.3399739265441895, -7.015654563903809, -0.5569219589233398, 1.9730005264282227, 1.1612085103988647, 1.4893782138824463, 
464, 2943201907, -89.19166564941406, -46.169532775878906, -92.05081176757812, 6.2151875495910645, -7.077850341796875, 0.7446919679641724, 2.240272283554077, 0.857513427734375, 1.0261574983596802, 
465, 2943210240, -89.19537353515625, -46.17293167114258, -92.04132843017578, 7.188268184661865, -6.726424217224121, 0.44853702187538147, 2.5793023109436035, -0.34237268567085266, 0.8240355253219604, 
466, 2943218573, -89.19512939453125, -46.17283630371094, -92.0386962890625, 8.048089027404785, -6.498150825500488, -0.5097611546516418, 2.2061409950256348, 0.48017725348472595, 1.2406126260757446, 
467, 2943226906, -89.19070434570312, -46.17033767700195, -92.04843139648438, 6.866097450256348, -7.098465442657471, -0.2083490639925003, 1.8905993700027466, 1.2643826007843018, 1.510791540145874, 
468, 2943235239, -89.1907730102539, -46.17247009277344, -92.05229187011719, 6.322718143463135, -7.049095153808594, 0.83638995885849, 2.2231619358062744, 0.42314714193344116, 0.9748520851135254, 
469, 2943243572, -89.19405364990234, -46.17423629760742, -92.04434967041016, 7.638065814971924, -6.677574634552002, 0.3959452211856842, 2.4962356090545654, -0.21040815114974976, 1.0197027921676636, 
470, 2943251905, -89.19226837158203, -46.173179626464844, -92.04783630371094, 7.903679370880127, -6.74524450302124, -0.8459563851356506, 2.1264681816101074, 0.7354615330696106, 1.3543014526367188, 
471, 2943260238, -89.18859100341797, -46.17234802246094, -92.05596923828125, 6.538580417633057, -7.020097255706787, 0.19640932977199554, 1.9449273347854614, 1.1257327795028687, 1.3103090524673462, 
472, 2943268571, -89.1907958984375, -46.17512512207031, -92.04977416992188, 6.515456199645996, -6.843437671661377, 0.7208346128463745, 2.3851850032806396, 0.0214006919413805, 0.9039392471313477, 
473, 2943276904, -89.19439697265625, -46.17501449584961, -92.0421142578125, 7.850378513336182, -6.502286434173584, 0.04792049154639244, 2.440396308898926, -0.18820059299468994, 1.2404717206954956, 
474, 2943285237, -89.19176483154297, -46.172706604003906, -92.04915618896484, 7.5125603675842285, -7.023429870605469, -0.7837371826171875, 1.9716558456420898, 0.9808202981948853, 1.5033763647079468, 
475, 2943293570, -89.1878433227539, -46.17319869995117, -92.05530548095703, 6.356909275054932, -7.12755012512207, 0.5297093391418457, 2.14365553855896, 0.961916983127594, 1.1558424234390259, 
476, 2943301903, -89.19010925292969, -46.17707061767578, -92.04769897460938, 7.074402809143066, -6.769120216369629, 0.6957159042358398, 2.5535342693328857, -0.1478581726551056, 0.7751636505126953, 
477, 2943310236, -89.1917495727539, -46.17716598510742, -92.04463195800781, 8.003435134887695, -6.440053939819336, -0.4361090064048767, 2.273519515991211, 0.19477063417434692, 1.213243842124939, 
478, 2943318569, -89.18818664550781, -46.174015045166016, -92.0534896850586, 7.007604122161865, -6.9673380851745605, -0.468777060508728, 1.8744498491287231, 1.1866050958633423, 1.5978929996490479, 
479, 2943326902, -89.18814849853516, -46.17498779296875, -92.05427551269531, 6.34453821182251, -7.00912618637085, 0.7656006217002869, 2.1428353786468506, 0.5132580995559692, 1.102974534034729, 
480, 2943335235, -89.19306182861328, -46.17591857910156, -92.04653930664062, 7.422255516052246, -6.704254627227783, 0.42814329266548157, 2.3976075649261475, -0.3012746274471283, 1.1310606002807617, 
481, 2943343568, -89.19168090820312, -46.17538070678711, -92.04943084716797, 7.8577189445495605, -6.845199108123779, -0.6414051651954651, 2.120858669281006, 0.6900218725204468, 1.2820693254470825, 
482, 2943351901, -89.18705749511719, -46.17399215698242, -92.05648803710938, 6.735431671142578, -7.036306381225586, 0.015495065599679947, 2.123535394668579, 1.0672811269760132, 1.389585018157959, 
483, 2943360234, -89.18914794921875, -46.17700958251953, -92.05288696289062, 6.6373701095581055, -6.851099491119385, 0.7620140910148621, 2.2662837505340576, 0.14422094821929932, 0.8629819750785828, 
484, 2943368567, -89.19157409667969, -46.1763916015625, -92.04450225830078, 7.754689693450928, -6.415136814117432, 0.23642238974571228, 2.555903673171997, -0.15783491730690002, 1.3143303394317627, 
485, 2943376900, -89.18804168701172, -46.17258834838867, -92.05123901367188, 7.515296459197998, -6.914800643920898, -0.8696285486221313, 2.045245409011841, 1.0136064291000366, 1.668383002281189, 
486, 2943385233, -89.18550872802734, -46.17237854003906, -92.05596160888672, 6.466343879699707, -7.061126708984375, 0.4433736503124237, 2.014610767364502, 0.9273121953010559, 1.2516652345657349, 
487, 2943393566, -89.186767578125, -46.174560546875, -92.05167388916016, 6.9192328453063965, -6.817830562591553, 0.6528412103652954, 2.426769495010376, 0.09195510298013687, 0.9646832346916199, 
488, 2943401899, -89.18681335449219, -46.1735725402832, -92.04811096191406, 7.900277614593506, -6.621314525604248, -0.13020510971546173, 2.3841474056243896, 0.27724847197532654, 1.3523035049438477, 
489, 2943410232, -89.18327331542969, -46.170753479003906, -92.05609130859375, 7.162500381469727, -7.060019016265869, -0.5355055332183838, 1.9396123886108398, 1.1177797317504883, 1.547330379486084, 
490, 2943418565, -89.18074798583984, -46.1718864440918, -92.058837890625, 6.481099605560303, -6.937620639801025, 0.4925105571746826, 2.2071785926818848, 0.7397646903991699, 1.0926263332366943, 
491, 2943426898, -89.18431854248047, -46.17306137084961, -92.0503921508789, 7.311634540557861, -6.5372700691223145, 0.5540557503700256, 2.5059430599212646, -0.25287654995918274, 1.0914994478225708, 
492, 2943435231, -89.18460845947266, -46.1705207824707, -92.0470962524414, 7.730507850646973, -6.721504211425781, -0.604838490486145, 2.145038366317749, 0.4861581325531006, 1.533575415611267, 
493, 2943443564, -89.18174743652344, -46.16748809814453, -92.05421447753906, 6.704357147216797, -7.105976581573486, -0.060852114111185074, 1.929007887840271, 1.0475454330444336, 1.5767353773117065, 
494, 2943451897, -89.182373046875, -46.1700439453125, -92.05192565917969, 6.699656009674072, -6.996570587158203, 0.7244998812675476, 2.3416025638580322, 0.24602475762367249, 0.9265437722206116, 
495, 2943460230, -89.1860122680664, -46.1701545715332, -92.04370880126953, 7.719278335571289, -6.543148040771484, 0.33584490418434143, 2.4802651405334473, -0.23155270516872406, 1.217124581336975, 
496, 2943468563, -89.18535614013672, -46.167518615722656, -92.04608917236328, 7.5178022384643555, -6.920715808868408, -0.7732338905334473, 2.070462703704834, 0.6596049666404724, 1.546011209487915, 
497, 2943476896, -89.1825180053711, -46.16770553588867, -92.05145263671875, 6.49241304397583, -6.941434383392334, 0.24188825488090515, 2.0825397968292236, 0.896626353263855, 1.1916254758834839, 
498, 2943485229, -89.18643188476562, -46.169403076171875, -92.04496002197266, 6.896884918212891, -6.8104047775268555, 0.7464590072631836, 2.3513612747192383, -0.13848336040973663, 1.0344053506851196, 
499, 2943493562, -89.1900405883789, -46.16913986206055, -92.03894805908203, 7.791134834289551, -6.616485595703125, -0.08004094660282135, 2.290437698364258, -0.04710457846522331, 1.2613089084625244, 
500, 2943501895, -89.18675231933594, -46.166988372802734, -92.04638671875, 7.166320323944092, -7.148983955383301, -0.5480117201805115, 1.8995132446289062, 1.1259634494781494, 1.480823040008545, 
501, 2943510228, -89.1858139038086, -46.16949462890625, -92.0477066040039, 6.530791282653809, -7.043282508850098, 0.543763279914856, 2.2027859687805176, 0.5555087327957153, 0.9198713302612305, 
502, 2943518561, -89.18895721435547, -46.17205047607422, -92.04008483886719, 7.385662078857422, -6.636962413787842, 0.6643456816673279, 2.3766422271728516, -0.07788006961345673, 0.9305395483970642, 
503, 2943526894, -89.1900405883789, -46.17095184326172, -92.04020690917969, 7.729964733123779, -6.674951553344727, -0.5184974670410156, 2.065877914428711, 0.46158134937286377, 1.3512150049209595, 
504, 2943535227, -89.1882095336914, -46.1685791015625, -92.04629516601562, 6.774403095245361, -7.085591793060303, -0.13826614618301392, 1.9065957069396973, 0.9568454027175903, 1.508934736251831, 
505, 2943543560, -89.18978881835938, -46.171939849853516, -92.04365539550781, 6.621089935302734, -6.988776683807373, 0.5981912612915039, 2.243730306625366, 0.2260456532239914, 0.821499764919281, 
506, 2943551893, -89.19412231445312, -46.17332077026367, -92.03594970703125, 7.603707790374756, -6.603074550628662, 0.34499943256378174, 2.369009494781494, -0.20600250363349915, 1.0733133554458618, 
507, 2943560226, -89.1940689086914, -46.171348571777344, -92.03876495361328, 7.568678379058838, -6.923974990844727, -0.6169331073760986, 1.9716812372207642, 0.686717689037323, 1.4525831937789917, 
508, 2943568559, -89.1934814453125, -46.172142028808594, -92.041259765625, 6.617586135864258, -7.016317367553711, 0.21689964830875397, 2.023345470428467, 0.6933773756027222, 1.1352741718292236, 
509, 2943576892, -89.1965103149414, -46.175537109375, -92.03609466552734, 7.008174419403076, -6.8499579429626465, 0.5982712507247925, 2.2900280952453613, 0.015073977410793304, 0.8172606229782104, 
510, 2943585225, -89.19837951660156, -46.17618179321289, -92.0323486328125, 7.7967987060546875, -6.509711742401123, -0.09674157202243805, 2.3677287101745605, 0.07958341389894485, 1.158659815788269, 
511, 2943593558, -89.19513702392578, -46.17435073852539, -92.03941345214844, 7.163031101226807, -6.996169567108154, -0.5580361485481262, 1.979826807975769, 1.04037344455719, 1.4327834844589233, 
512, 2943601891, -89.19390869140625, -46.17499923706055, -92.04208374023438, 6.470279693603516, -6.9832024574279785, 0.4611184298992157, 2.140684127807617, 0.6556219458580017, 1.15189790725708, 
513, 2943610224, -89.19670867919922, -46.176300048828125, -92.03439331054688, 7.322808265686035, -6.697525501251221, 0.6629330515861511, 2.538140058517456, -0.19211958348751068, 1.0734670162200928, 
514, 2943618557, -89.19775390625, -46.17587661743164, -92.03338623046875, 7.851741313934326, -6.689633846282959, -0.42193835973739624, 2.185534715652466, 0.3519139885902405, 1.2837599515914917, 
515, 2943626890, -89.19441986083984, -46.174198150634766, -92.04029846191406, 6.910109996795654, -7.087203502655029, -0.24948738515377045, 2.0027899742126465, 1.0289366245269775, 1.416019082069397, 
516, 2943635223, -89.19540405273438, -46.1778564453125, -92.03900909423828, 6.564121723175049, -6.900125503540039, 0.517335057258606, 2.2244811058044434, 0.3150166869163513, 0.7931320071220398, 
517, 2943643556, -89.19850158691406, -46.17974090576172, -92.03197479248047, 7.540812969207764, -6.504516124725342, 0.457845002412796, 2.4418561458587646, -0.1360243856906891, 1.0035400390625, 
518, 2943651889, -89.19684600830078, -46.177371978759766, -92.03580474853516, 7.581145286560059, -6.8831467628479, -0.67467200756073, 2.053659677505493, 0.7906986474990845, 1.5120210647583008, 
519, 2943660222, -89.19442749023438, -46.17527770996094, -92.04231262207031, 6.5896759033203125, -7.117122173309326, 0.1583603173494339, 1.931044340133667, 0.9942293763160706, 1.4638150930404663, 
520, 2943668555, -89.19608306884766, -46.1785774230957, -92.03713989257812, 6.914072036743164, -6.8936896324157715, 0.4982956647872925, 2.3346478939056396, 0.13420578837394714, 0.8386741280555725, 
521, 2943676888, -89.19853210449219, -46.178077697753906, -92.03123474121094, 7.832149505615234, -6.412806510925293, 0.12882950901985168, 2.4201865196228027, -0.03910013288259506, 1.2888314723968506, 
522, 2943685221, -89.19572448730469, -46.17494583129883, -92.03740692138672, 7.214475631713867, -6.90532112121582, -0.715587854385376, 2.0299534797668457, 0.9463691711425781, 1.6012226343154907, 
523, 2943693554, -89.193115234375, -46.17448425292969, -92.04304504394531, 6.442759990692139, -7.014641761779785, 0.5325834155082703, 2.029595136642456, 0.920293927192688, 1.2705174684524536, 
524, 2943701887, -89.19400024414062, -46.1754264831543, -92.03890991210938, 7.175773620605469, -6.808952808380127, 0.43449702858924866, 2.4328911304473877, 0.13409051299095154, 1.119752049446106, 
525, 2943710220, -89.19461822509766, -46.174537658691406, -92.03729248046875, 7.823529243469238, -6.685465335845947, -0.1947280764579773, 2.270432949066162, 0.3185770511627197, 1.329852819442749, 
526, 2943718553, -89.19005584716797, -46.171531677246094, -92.04544067382812, 6.903634071350098, -7.044294834136963, -0.321548730134964, 1.9766119718551636, 1.2013972997665405, 1.5830492973327637, 
527, 2943726886, -89.18867492675781, -46.17392349243164, -92.04618072509766, 6.538943290710449, -6.906551837921143, 0.6246288418769836, 2.307701826095581, 0.5071234107017517, 0.9330370426177979, 
528, 2943735219, -89.19088745117188, -46.17427444458008, -92.04171752929688, 7.552182674407959, -6.534771919250488, 0.42900511622428894, 2.5126800537109375, -0.0973212867975235, 1.1971325874328613, 
529, 2943743552, -89.1886215209961, -46.170719146728516, -92.04558563232422, 7.6541829109191895, -6.79594087600708, -0.6527265310287476, 2.141887903213501, 0.7777250409126282, 1.6435630321502686, 
530, 2943751885, -89.18401336669922, -46.16799545288086, -92.05328369140625, 6.589538097381592, -7.121969223022461, 0.1718013733625412, 2.0436062812805176, 1.1417546272277832, 1.5477402210235596, 
531, 2943760218, -89.18501281738281, -46.17009735107422, -92.04981231689453, 6.763678550720215, -6.958900451660156, 0.565818190574646, 2.387080192565918, 0.15902598202228546, 0.9723291993141174, 
532, 2943768551, -89.18668365478516, -46.170284271240234, -92.04940795898438, 7.777326583862305, -6.537341117858887, 0.21504417061805725, 2.39225435256958, 0.07777762413024902, 1.2154338359832764, 
533, 2943776884, -89.18282318115234, -46.16918182373047, -92.05577850341797, 7.404582500457764, -7.006474018096924, -0.6101680994033813, 2.116119861602783, 0.9806665182113647, 1.3428773880004883, 
534, 2943785217, -89.18079376220703, -46.16973876953125, -92.0604019165039, 6.44710111618042, -7.0183329582214355, 0.4780172109603882, 2.1153900623321533, 0.7748691439628601, 1.161003828048706, 
535, 2943793550, -89.18331909179688, -46.17252731323242, -92.05462646484375, 7.0752763748168945, -6.718719959259033, 0.4046270549297333, 2.4032046794891357, -0.033042363822460175, 0.8927074074745178, 
536, 2943801883, -89.18377685546875, -46.17234802246094, -92.05329895019531, 7.826540946960449, -6.521887302398682, -0.12765444815158844, 2.2485201358795166, 0.36118635535240173, 1.2539961338043213, 
537, 2943810216, -89.18255615234375, -46.16910934448242, -92.05903625488281, 6.973259449005127, -7.131028652191162, -0.33058786392211914, 1.8550469875335693, 0.9317050576210022, 1.6028236150741577, 
538, 2943818549, -89.18244934082031, -46.171714782714844, -92.05961608886719, 6.555147647857666, -7.097334384918213, 0.6371191740036011, 2.170806646347046, 0.4925617575645447, 0.9184752106666565, 
539, 2943826882, -89.18536376953125, -46.17376708984375, -92.05245971679688, 7.559259414672852, -6.644870758056641, 0.38614943623542786, 2.4758846759796143, -0.14715377986431122, 0.9837785959243774, 
540, 2943835215, -89.18538665771484, -46.17219924926758, -92.05355072021484, 7.727057456970215, -6.683591365814209, -0.49017786979675293, 2.137956142425537, 0.5162933468818665, 1.418426752090454, 
541, 2943843548, -89.18379974365234, -46.17093276977539, -92.05927276611328, 6.586989402770996, -6.992611408233643, -0.03863022103905678, 1.9022412300109863, 0.9272865653038025, 1.3655973672866821, 
542, 2943851881, -89.18568420410156, -46.17314529418945, -92.05528259277344, 6.639770984649658, -6.872952938079834, 0.6334499716758728, 2.1801810264587402, 0.257448673248291, 0.9678338766098022, 
543, 2943860214, -89.1886215209961, -46.17373275756836, -92.0489273071289, 7.796026229858398, -6.573464393615723, 0.2802351117134094, 2.403268575668335, -0.07832833379507065, 1.1585191488265991, 
544, 2943868547, -89.18673706054688, -46.17133331298828, -92.05352020263672, 7.5363569259643555, -7.055159568786621, -0.6289175152778625, 2.0241646766662598, 0.8417093753814697, 1.514390468597412, 
545, 2943876880, -89.18342590332031, -46.171695709228516, -92.05905151367188, 6.513734817504883, -7.073941230773926, 0.33113908767700195, 2.1262760162353516, 0.9075508117675781, 1.1707627773284912, 
546, 2943885213, -89.1858901977539, -46.175228118896484, -92.05142974853516, 7.0308732986450195, -6.724615097045898, 0.5778613090515137, 2.5243213176727295, -0.14251761138439178, 0.8166202902793884, 
547, 2943893546, -89.18737030029297, -46.17497634887695, -92.04882049560547, 7.831997871398926, -6.411189079284668, -0.1895870864391327, 2.257702589035034, 0.23266689479351044, 1.2531124353408813, 
548, 2943901879, -89.18437957763672, -46.171504974365234, -92.05551147460938, 7.031949996948242, -7.03973388671875, -0.4960673451423645, 1.8805843591690063, 1.110313057899475, 1.6417827606201172, 
549, 2943910212, -89.18373107910156, -46.17292404174805, -92.05785369873047, 6.469910144805908, -7.059622764587402, 0.5823907852172852, 2.082040309906006, 0.6409834623336792, 1.0464568138122559, 
550, 2943918545, -89.18778991699219, -46.1754264831543, -92.05110931396484, 7.432107448577881, -6.695511817932129, 0.44819334149360657, 2.3924591541290283, -0.1971527636051178, 0.939773440361023, 
551, 2943926878, -89.18790435791016, -46.17478942871094, -92.05207824707031, 7.796677589416504, -6.7685651779174805, -0.5179173350334167, 2.1069118976593018, 0.5311496257781982, 1.294786810874939, 
552, 2943935211, -89.18511199951172, -46.17314147949219, -92.05973052978516, 6.720016956329346, -7.030649185180664, -0.05439618229866028, 1.8914958238601685, 1.080754280090332, 1.4206550121307373, 
553, 2943943544, -89.18665313720703, -46.17597961425781, -92.05651092529297, 6.674875259399414, -6.863402366638184, 0.5839327573776245, 2.2988009452819824, 0.1793508678674698, 0.8847156167030334, 
554, 2943951877, -89.19112396240234, -46.17537307739258, -92.04973602294922, 7.64035177230835, -6.473936557769775, 0.18775615096092224, 2.3799211978912354, -0.2297212779521942, 1.312857747077942, 
555, 2943960210, -89.18821716308594, -46.17266845703125, -92.05573272705078, 7.459094524383545, -6.922741889953613, -0.6352533102035522, 2.0337064266204834, 0.9555262923240662, 1.5403249263763428, 
556, 2943968543, -89.1860122680664, -46.1718864440918, -92.06253814697266, 6.53160285949707, -7.067294597625732, 0.28264856338500977, 2.012190341949463, 0.8972026705741882, 1.3181214332580566, 
557, 2943976876, -89.18780517578125, -46.17388916015625, -92.05660247802734, 7.008224010467529, -6.854839324951172, 0.7154079079627991, 2.5015246868133545, -0.04490175098180771, 0.9883381128311157, 
558, 2943985209, -89.1884536743164, -46.17274475097656, -92.05431365966797, 7.841012477874756, -6.556889057159424, -0.16448970139026642, 2.428037405014038, 0.16980959475040436, 1.3719370365142822, 
559, 2943993542, -89.18608093261719, -46.16954803466797, -92.05989074707031, 7.117233753204346, -7.040059566497803, -0.4921552240848541, 2.0056841373443604, 0.9210237860679626, 1.5992887020111084, 
560, 2944001875, -89.18356323242188, -46.17130661010742, -92.0628890991211, 6.487005233764648, -6.892080307006836, 0.4540703594684601, 2.266526699066162, 0.6797760725021362, 1.0150408744812012, 
561, 2944010208, -89.18648529052734, -46.171669006347656, -92.0550537109375, 7.271242618560791, -6.600891590118408, 0.6153961420059204, 2.5308401584625244, -0.20116138458251953, 1.1868867874145508, 
562, 2944018541, -89.18824768066406, -46.169986724853516, -92.05423736572266, 7.6867289543151855, -6.789651870727539, -0.455302357673645, 2.0988049507141113, 0.35701122879981995, 1.435908555984497, 
563, 2944026874, -89.18455505371094, -46.16830825805664, -92.061279296875, 6.829898834228516, -7.175378322601318, -0.054424162954092026, 2.034179925918579, 1.0392974615097046, 1.4136751890182495, 
564, 2944035207, -89.18553924560547, -46.1712646484375, -92.05746459960938, 6.779136657714844, -6.9461236000061035, 0.5102651119232178, 2.3354291915893555, 0.21446800231933594, 0.8805150389671326, 
565, 2944043540, -89.18819427490234, -46.171669006347656, -92.05049896240234, 7.620151996612549, -6.453846454620361, 0.3524249494075775, 2.4887046813964844, -0.12972331047058105, 1.1794843673706055, 
566, 2944051873, -89.18643951416016, -46.16935348510742, -92.0546875, 7.424351215362549, -6.825497150421143, -0.6475321054458618, 2.1119704246520996, 0.751726508140564, 1.506321668624878, 
567, 2944060206, -89.18418884277344, -46.16936492919922, -92.0595932006836, 6.579634189605713, -7.01531457901001, 0.250786691904068, 2.04634690284729, 0.8596394062042236, 1.2144221067428589, 
568, 2944068539, -89.18549346923828, -46.17166519165039, -92.05286407470703, 7.01386022567749, -6.8625617027282715, 0.5840652585029602, 2.4373483657836914, 0.07630480825901031, 0.9605593681335449, 
569, 2944076872, -89.18836212158203, -46.170589447021484, -92.04817962646484, 7.763551712036133, -6.651432037353516, -0.046803027391433716, 2.264246940612793, 0.06173030287027359, 1.3566066026687622, 
570, 2944085205, -89.18486022949219, -46.16816711425781, -92.05525207519531, 7.12924337387085, -7.0881667137146, -0.4711835980415344, 1.9887534379959106, 1.0655138492584229, 1.5135325193405151, 
571, 2944093538, -89.18278503417969, -46.1707763671875, -92.05773162841797, 6.598567008972168, -6.936380386352539, 0.49314212799072266, 2.2404515743255615, 0.6518309712409973, 0.9048483967781067, 
572, 2944101871, -89.18646240234375, -46.17213439941406, -92.0508041381836, 7.313683986663818, -6.600827693939209, 0.5535626411437988, 2.405996799468994, -0.1643025130033493, 1.076848030090332, 
573, 2944110204, -89.1869888305664, -46.17045211791992, -92.05016326904297, 7.682845592498779, -6.701963901519775, -0.4931866526603699, 2.199673652648926, 0.3974561393260956, 1.42223060131073, 
574, 2944118537, -89.18436431884766, -46.16838836669922, -92.0607681274414, 6.795334339141846, -7.1005964279174805, -0.12698855996131897, 1.9761639833450317, 0.975620687007904, 1.4737406969070435, 
575, 2944126870, -89.18598175048828, -46.170692443847656, -92.05839538574219, 6.738399505615234, -7.011895179748535, 0.5692159533500671, 2.217449903488159, 0.24743352830410004, 0.9453189969062805, 
576, 2944135203, -89.18885803222656, -46.1713981628418, -92.05101776123047, 7.58485746383667, -6.567503452301025, 0.3073335289955139, 2.483863592147827, -0.14875467121601105, 1.154510498046875, 
577, 2944143536, -89.18731689453125, -46.16914749145508, -92.05471801757812, 7.438560485839844, -6.9248046875, -0.6292285323143005, 2.0710391998291016, 0.7603330016136169, 1.4849597215652466, 
578, 2944151869, -89.18451690673828, -46.16925811767578, -92.06095123291016, 6.607737064361572, -7.005830764770508, 0.28693902492523193, 2.1353819370269775, 0.8450905084609985, 1.2146270275115967, 
579, 2944160202, -89.18659973144531, -46.171630859375, -92.05582427978516, 6.984521865844727, -6.778228759765625, 0.40391671657562256, 2.4007198810577393, 0.019261905923485756, 0.9413488507270813, 
580, 2944168535, -89.18919372558594, -46.1713981628418, -92.0518798828125, 7.735203742980957, -6.536259651184082, 0.003062148578464985, 2.3085598945617676, 0.053764279931783676, 1.265368938446045, 
581, 2944176868, -89.18815612792969, -46.16817855834961, -92.05693054199219, 7.109757900238037, -7.068915843963623, -0.45631900429725647, 1.8926104307174683, 0.8745212554931641, 1.600480079650879, 
582, 2944185201, -89.18751525878906, -46.16938018798828, -92.05937957763672, 6.572018623352051, -7.063116550445557, 0.49024519324302673, 2.0887129306793213, 0.6362320780754089, 1.0847373008728027, 
583, 2944193534, -89.19007873535156, -46.17203140258789, -92.0530776977539, 7.333280563354492, -6.670746326446533, 0.3686102628707886, 2.442535161972046, -0.07845639437437057, 0.9121869206428528, 
584, 2944201867, -89.19149780273438, -46.17162322998047, -92.05286407470703, 7.695544719696045, -6.649501800537109, -0.28354412317276, 2.1185920238494873, 0.3790522515773773, 1.2821589708328247, 
585, 2944210200, -89.18860626220703, -46.17002487182617, -92.05950164794922, 6.784952640533447, -7.014694690704346, -0.1280580759048462, 1.9800571203231812, 1.0035912990570068, 1.4040697813034058, 
586, 2944218533, -89.18965148925781, -46.172401428222656, -92.06224060058594, 6.7000956535339355, -6.911348342895508, 0.5309081673622131, 2.194051504135132, 0.3363533318042755, 0.9467150568962097, 
587, 2944226866, -89.19274139404297, -46.1729850769043, -92.05465698242188, 7.6009626388549805, -6.546897888183594, 0.2817919850349426, 2.4946470260620117, -0.18038825690746307, 1.1599150896072388, 
588, 2944235199, -89.19239807128906, -46.17095184326172, -92.0575180053711, 7.485239028930664, -6.952552795410156, -0.4827527403831482, 1.9939144849777222, 0.6982695460319519, 1.471998691558838, 
589, 2944243532, -89.19007873535156, -46.170997619628906, -92.0622329711914, 6.570836067199707, -7.075874328613281, 0.2086748480796814, 2.0762386322021484, 0.8423241972923279, 1.210349440574646, 
590, 2944251865, -89.19225311279297, -46.173858642578125, -92.05624389648438, 6.981084823608398, -6.773950576782227, 0.4839504063129425, 2.4323792457580566, -0.018916113302111626, 0.8940137028694153, 
591, 2944260198, -89.1947021484375, -46.174346923828125, -92.05195617675781, 7.7743682861328125, -6.490012168884277, -0.015671340748667717, 2.2845592498779297, 0.09228809922933578, 1.1686753034591675, 
592, 2944268531, -89.19194793701172, -46.17129898071289, -92.05856323242188, 7.160042762756348, -7.04512357711792, -0.3670189678668976, 1.937511920928955, 1.0307936668395996, 1.5897475481033325, 
593, 2944276864, -89.18939971923828, -46.17131042480469, -92.0618667602539, 6.5119781494140625, -7.0999674797058105, 0.46120840311050415, 2.2254161834716797, 0.7258049845695496, 1.2159333229064941, 
594, 2944285197, -89.19185638427734, -46.17411804199219, -92.0557861328125, 7.294172286987305, -6.708781719207764, 0.40082648396492004, 2.5264854431152344, -0.141787588596344, 0.9016978740692139, 
595, 2944293530, -89.19070434570312, -46.173744201660156, -92.05770111083984, 7.712011814117432, -6.602321624755859, -0.290256530046463, 2.1786954402923584, 0.6098237633705139, 1.2642674446105957, 
596, 2944301863, -89.1876449584961, -46.17107009887695, -92.06398010253906, 6.813115119934082, -7.0327372550964355, -0.07091079652309418, 1.9934278726577759, 1.0174230337142944, 1.5443845987319946, 
597, 2944310196, -89.18763732910156, -46.17219543457031, -92.06291961669922, 6.627387523651123, -6.997395992279053, 0.5536492466926575, 2.2941133975982666, 0.36182665824890137, 1.0886305570602417, 
598, 2944318529, -89.19061279296875, -46.17340850830078, -92.05598449707031, 7.641984462738037, -6.557749271392822, 0.17778925597667694, 2.4006175994873047, -0.07713726907968521, 1.0912688970565796, 
599, 2944326862, -89.19131469726562, -46.17169189453125, -92.05860137939453, 7.579997539520264, -6.779521942138672, -0.5107103586196899, 1.8952614068984985, 0.6706703305244446, 1.4228835105895996, 
600, 2944335195, -89.18840789794922, -46.170433044433594, -92.06319427490234, 6.534872055053711, -7.140843391418457, 0.31598249077796936, 2.020540475845337, 0.9652852416038513, 1.37905752658844, 
601, 2944343528, -89.19010162353516, -46.173675537109375, -92.05734252929688, 6.842014312744141, -6.93461799621582, 0.4709007740020752, 2.5116167068481445, -0.041341379284858704, 0.8360871076583862, 
602, 2944351861, -89.1921615600586, -46.175201416015625, -92.05281066894531, 7.853509426116943, -6.489095211029053, -0.09015575051307678, 2.3571627140045166, 0.06653297692537308, 1.0536543130874634, 
603, 2944360194, -89.18944549560547, -46.172271728515625, -92.05940246582031, 7.276830196380615, -6.8751349449157715, -0.436085969209671, 1.9601036310195923, 1.0036169290542603, 1.5639538764953613, 
604, 2944368527, -89.18736267089844, -46.171939849853516, -92.06293487548828, 6.411687850952148, -7.094428539276123, 0.5364923477172852, 2.1350107192993164, 0.7630865573883057, 1.2691212892532349, 
605, 2944376860, -89.19149017333984, -46.174007415771484, -92.05491638183594, 7.209997177124023, -6.783447265625, 0.28870558738708496, 2.4041647911071777, -0.21813081204891205, 0.9807818531990051, 
606, 2944385193, -89.19119262695312, -46.17410659790039, -92.05487060546875, 7.925342082977295, -6.560572624206543, -0.341801255941391, 2.266322135925293, 0.4276809096336365, 1.2207231521606445, 
607, 2944393526, -89.18731689453125, -46.171485900878906, -92.06283569335938, 6.911359786987305, -7.133358478546143, -0.08539116382598877, 1.9795194864273071, 1.1170368194580078, 1.526557207107544, 
608, 2944401859, -89.18675994873047, -46.17310333251953, -92.06472778320312, 6.42917537689209, -7.069892883300781, 0.5582199692726135, 2.329793930053711, 0.39801961183547974, 1.036608099937439, 
