sep=,
PacketCounter,SampleTimeFine,Euler_X,Euler_Y,Euler_Z,Acc_X,Acc_Y,Acc_Z,Gyr_X,Gyr_Y,Gyr_Z,Mag_X,Mag_Y,Mag_Z,Status,
0, 3071323969, -86.4323959350586, 44.1328239440918, -25.713539123535156, 0, 0, 0, 0, 0, 0, 0.3974609375, 0.177734375, 0.08154296875, 0, 
1, 3071332302, -86.44206237792969, 44.13355255126953, -25.725141525268555, -6.360638618469238, -7.265082359313965, 0.2896311283111572, -3.3490865230560303, -1.9363592863082886, -0.28175657987594604, 0.39697265625, 0.1748046875, 0.0810546875, 0, 
2, 3071340635, -86.4450454711914, 44.13547897338867, -25.732452392578125, -7.675549030303955, -6.932270050048828, -0.4216957092285156, -2.9062163829803467, -2.297212600708008, -0.111345075070858, 0.3935546875, 0.1748046875, 0.0869140625, 0, 
3, 3071348968, -86.43778991699219, 44.13405227661133, -25.719812393188477, -7.055573463439941, -6.842434883117676, 0.38326433300971985, -3.3062338829040527, -4.069025993347168, -0.38974615931510925, 0.39599609375, 0.1767578125, 0.0869140625, 0, 
4, 3071357301, -86.43505096435547, 44.13157653808594, -25.716611862182617, -5.823400020599365, -7.34266996383667, 1.5796235799789429, -3.0532681941986084, -3.265277147293091, -0.5666893720626831, 0.39306640625, 0.17626953125, 0.09619140625, 0, 
5, 3071365634, -86.4416732788086, 44.13502502441406, -25.726713180541992, -6.7201762199401855, -7.2172651290893555, -0.29118430614471436, -3.110541343688965, -2.046295404434204, 0.054314982146024704, 0.39306640625, 0.177734375, 0.09619140625, 0, 
6, 3071373967, -86.44010162353516, 44.13718032836914, -25.72491455078125, -7.6859893798828125, -6.4980082511901855, -0.16096000373363495, -3.1232717037200928, -3.078139543533325, -0.03783222660422325, 0.39306640625, 0.17578125, 0.1015625, 0, 
7, 3071382300, -86.43500518798828, 44.134464263916016, -25.715492248535156, -6.574039936065674, -6.89132833480835, 0.7310967445373535, -3.2929916381835938, -3.8007428646087646, -0.5602089166641235, 0.390625, 0.1767578125, 0.10791015625, 0, 
8, 3071390633, -86.44239044189453, 44.132469177246094, -25.721450805664062, -6.115406513214111, -7.3541388511657715, 1.1139864921569824, -3.547879219055176, -2.4412930011749268, -0.5752700567245483, 0.39453125, 0.17724609375, 0.10595703125, 0, 
9, 3071398966, -86.44659423828125, 44.135658264160156, -25.73056411743164, -7.186249732971191, -7.165345668792725, -0.43884700536727905, -2.8563461303710938, -2.1646335124969482, 0.045068249106407166, 0.388671875, 0.177734375, 0.1142578125, 0, 
10, 3071407299, -86.4382553100586, 44.13568878173828, -25.72011947631836, -7.394317150115967, -6.590518951416016, 0.12018174678087234, -2.9931771755218506, -3.8703882694244385, -0.22863268852233887, 0.390625, 0.17919921875, 0.1142578125, 0, 
11, 3071415632, -86.43380737304688, 44.13272476196289, -25.71318817138672, -6.088393211364746, -7.185116291046143, 1.228041172027588, -3.2028043270111084, -3.5579710006713867, -0.6220417618751526, 0.38818359375, 0.17822265625, 0.123046875, 0, 
12, 3071423965, -86.44196319580078, 44.13414764404297, -25.723546981811523, -6.376842021942139, -7.231903076171875, 0.2386336624622345, -3.273037910461426, -2.03971266746521, -0.19049306213855743, 0.390625, 0.1787109375, 0.13037109375, 0, 
13, 3071432298, -86.44539642333984, 44.13639450073242, -25.730138778686523, -7.5322184562683105, -6.796869277954102, -0.4103555679321289, -2.9845187664031982, -2.392676591873169, -0.05314952880144119, 0.38916015625, 0.1787109375, 0.1298828125, 0, 
14, 3071440631, -86.43887329101562, 44.134883880615234, -25.719114303588867, -7.089113712310791, -6.640781879425049, 0.31965821981430054, -3.297243356704712, -3.899049758911133, -0.4278857707977295, 0.38720703125, 0.1787109375, 0.1416015625, 0, 
15, 3071448964, -86.43836975097656, 44.13187026977539, -25.7166748046875, -6.024949073791504, -7.29393196105957, 1.6194102764129639, -3.2590017318725586, -3.204289674758911, -0.6340804100036621, 0.38916015625, 0.18017578125, 0.1416015625, 0, 
16, 3071457297, -86.44252014160156, 44.133296966552734, -25.7244930267334, -6.7553582191467285, -7.3704938888549805, -0.33672788739204407, -2.9645400047302246, -2.2889132499694824, -0.15819349884986877, 0.3857421875, 0.17724609375, 0.15380859375, 0, 
17, 3071465630, -86.44097137451172, 44.13531494140625, -25.723939895629883, -7.547630310058594, -6.754597187042236, -0.07238350808620453, -3.020226001739502, -2.972224712371826, -0.06203768029808998, 0.3876953125, 0.18115234375, 0.1552734375, 0, 
18, 3071473963, -86.43326568603516, 44.13423538208008, -25.714582443237305, -6.5344343185424805, -6.891360282897949, 0.6353005170822144, -3.0146422386169434, -3.7540996074676514, -0.3832145631313324, 0.3857421875, 0.17822265625, 0.1630859375, 0, 
19, 3071482296, -86.4398422241211, 44.13235092163086, -25.71997833251953, -6.084628582000732, -7.165256023406982, 1.2172560691833496, -3.456897497177124, -2.5213372707366943, -0.5415362119674683, 0.3837890625, 0.17919921875, 0.17138671875, 0, 
20, 3071490629, -86.44351196289062, 44.134700775146484, -25.729726791381836, -7.214796543121338, -7.084551811218262, -0.4717036187648773, -2.783191442489624, -2.0845377445220947, -0.07435812056064606, 0.38623046875, 0.17919921875, 0.1728515625, 0, 
21, 3071498962, -86.43656921386719, 44.1343994140625, -25.72025489807129, -7.482470512390137, -6.587234020233154, -0.04665522649884224, -3.077268600463867, -3.786860227584839, -0.2740979492664337, 0.38232421875, 0.1796875, 0.18603515625, 0, 
22, 3071507295, -86.43153381347656, 44.13059616088867, -25.712400436401367, -6.2238383293151855, -7.213909149169922, 1.2811245918273926, -3.17024827003479, -3.67482328414917, -0.7011128664016724, 0.38720703125, 0.18017578125, 0.1904296875, 0, 
23, 3071515628, -86.440185546875, 44.131690979003906, -25.721628189086914, -6.3567399978637695, -7.305225849151611, 0.3858536183834076, -3.423957109451294, -2.1400179862976074, -0.2227926105260849, 0.38427734375, 0.17626953125, 0.201171875, 0, 
24, 3071523961, -86.44213104248047, 44.13393783569336, -25.728500366210938, -7.3728742599487305, -6.974792003631592, -0.2899198532104492, -2.8188977241516113, -2.332047939300537, -0.07379460334777832, 0.384765625, 0.17578125, 0.20556640625, 0, 
25, 3071532294, -86.43656158447266, 44.13311767578125, -25.718576431274414, -7.059957981109619, -6.573275089263916, 0.12217263877391815, -3.281221866607666, -3.8289310932159424, -0.33220383524894714, 0.38525390625, 0.177734375, 0.2138671875, 0, 
26, 3071540627, -86.43299102783203, 44.12933349609375, -25.714061737060547, -6.058626174926758, -7.2191548347473145, 1.695450782775879, -3.107557535171509, -3.3576037883758545, -0.7347059845924377, 0.3837890625, 0.17724609375, 0.2255859375, 0, 
27, 3071548960, -86.43893432617188, 44.130958557128906, -25.721792221069336, -6.836636543273926, -7.222893238067627, -0.41722267866134644, -3.1836955547332764, -2.2930119037628174, -0.13306595385074615, 0.3837890625, 0.17333984375, 0.232421875, 0, 
28, 3071557293, -86.43894958496094, 44.1317024230957, -25.722103118896484, -7.523247718811035, -6.784528732299805, -0.1406908929347992, -3.0913054943084717, -2.939592123031616, -0.19866402447223663, 0.3828125, 0.17431640625, 0.2421875, 0, 
29, 3071565626, -86.43351745605469, 44.13174057006836, -25.71295166015625, -6.556838035583496, -6.866471767425537, 0.5814074873924255, -3.270681858062744, -3.726947784423828, -0.2513524889945984, 0.38671875, 0.17578125, 0.25, 0, 
30, 3071573959, -86.43955993652344, 44.129432678222656, -25.71773338317871, -6.006477355957031, -7.26801872253418, 1.5232994556427002, -3.4847402572631836, -2.5453124046325684, -0.6080306768417358, 0.38427734375, 0.171875, 0.25732421875, 0, 
31, 3071582292, -86.44493865966797, 44.131771087646484, -25.727949142456055, -7.128650665283203, -7.220887184143066, -0.5845709443092346, -2.9114677906036377, -2.0771095752716064, -0.06313908845186234, 0.38232421875, 0.1708984375, 0.26953125, 0, 
32, 3071590625, -86.4380111694336, 44.132503509521484, -25.72037124633789, -7.493785381317139, -6.60440731048584, -0.12274012714624405, -2.9620048999786377, -3.5866591930389404, -0.17604665458202362, 0.38720703125, 0.17041015625, 0.27294921875, 0, 
33, 3071598958, -86.43089294433594, 44.13002395629883, -25.71179962158203, -6.2738037109375, -7.015844821929932, 1.025787353515625, -2.975400686264038, -3.722722053527832, -0.5382063388824463, 0.384765625, 0.16796875, 0.28955078125, 0, 
34, 3071607291, -86.44046783447266, 44.12899398803711, -25.721433639526367, -6.296267509460449, -7.210054397583008, 0.8718562722206116, -3.459381580352783, -2.151365041732788, -0.4606207609176636, 0.3876953125, 0.166015625, 0.29296875, 0, 
35, 3071615624, -86.442138671875, 44.1312255859375, -25.728519439697266, -7.393089294433594, -7.120096206665039, -0.455005943775177, -2.7683355808258057, -2.3139901161193848, -0.07684271037578583, 0.38525390625, 0.1630859375, 0.30224609375, 0, 
36, 3071623957, -86.43350982666016, 44.131099700927734, -25.716049194335938, -7.1145920753479, -6.661378383636475, -0.015840906649827957, -3.16848087310791, -4.012725830078125, -0.253042995929718, 0.384765625, 0.1611328125, 0.31884765625, 0, 
37, 3071632290, -86.4289779663086, 44.12861251831055, -25.71141815185547, -5.999271392822266, -7.259406089782715, 1.7775418758392334, -2.956702709197998, -3.3901467323303223, -0.559645414352417, 0.3896484375, 0.15966796875, 0.3232421875, 0, 
38, 3071640623, -86.4352798461914, 44.13066864013672, -25.721038818359375, -6.742100238800049, -7.138821601867676, -0.19248521327972412, -3.110746383666992, -2.09834361076355, -0.11108893156051636, 0.38818359375, 0.1552734375, 0.33935546875, 0, 
39, 3071648956, -86.43537902832031, 44.130401611328125, -25.723175048828125, -7.5709614753723145, -6.847116947174072, -0.3195595443248749, -2.955216884613037, -2.789031505584717, -0.3305516839027405, 0.39013671875, 0.15576171875, 0.337890625, 0, 
40, 3071657289, -86.4304428100586, 44.12980651855469, -25.71342658996582, -6.752362251281738, -6.682263374328613, 0.2633186876773834, -3.3381495475769043, -3.8116540908813477, -0.30762696266174316, 0.39306640625, 0.1474609375, 0.3515625, 0, 
41, 3071665622, -86.4311294555664, 44.12575912475586, -25.7142276763916, -5.992358684539795, -7.341228008270264, 1.9013108015060425, -3.1742444038391113, -2.9017343521118164, -0.7946304082870483, 0.39697265625, 0.14697265625, 0.35302734375, 0, 
42, 3071673955, -86.43720245361328, 44.12803649902344, -25.724241256713867, -7.029236793518066, -7.24974250793457, -0.5442490577697754, -3.053037405014038, -2.0615618228912354, -0.08578207343816757, 0.3974609375, 0.14111328125, 0.35498046875, 0, 
43, 3071682288, -86.43264770507812, 44.12925338745117, -25.718835830688477, -7.522854804992676, -6.731115818023682, -0.25617384910583496, -3.0212244987487793, -3.4266982078552246, -0.11152438074350357, 0.3994140625, 0.13525390625, 0.3642578125, 0, 
44, 3071690621, -86.42536163330078, 44.12879180908203, -25.709381103515625, -6.335752487182617, -6.878899097442627, 0.7553882002830505, -3.0749378204345703, -3.7572755813598633, -0.30875399708747864, 0.40478515625, 0.1337890625, 0.35986328125, 0, 
45, 3071698954, -86.43423461914062, 44.127296447753906, -25.717182159423828, -6.133228302001953, -7.200204372406006, 1.4469552040100098, -3.529334545135498, -2.3095333576202393, -0.5099282264709473, 0.40283203125, 0.126953125, 0.36669921875, 0, 
46, 3071707287, -86.43775939941406, 44.12907409667969, -25.725284576416016, -7.446839332580566, -7.1759538650512695, -0.6300789713859558, -2.863133192062378, -2.2608914375305176, -0.1186707392334938, 0.4111328125, 0.126953125, 0.3623046875, 0, 
47, 3071715620, -86.4275131225586, 44.12884521484375, -25.71254539489746, -7.355493545532227, -6.684195041656494, -0.17403145134449005, -2.993612289428711, -4.0365471839904785, -0.2627764344215393, 0.4091796875, 0.11474609375, 0.3623046875, 0, 
48, 3071723953, -86.42040252685547, 44.12601852416992, -25.703426361083984, -5.977355480194092, -7.1339192390441895, 1.4599875211715698, -3.067304849624634, -3.745210886001587, -0.5951467156410217, 0.412109375, 0.11376953125, 0.357421875, 0, 
49, 3071732286, -86.43297576904297, 44.125118255615234, -25.716548919677734, -6.363079071044922, -7.17390251159668, 0.5973360538482666, -3.5280144214630127, -1.8492835760116577, -0.4671139121055603, 0.4130859375, 0.10888671875, 0.3515625, 0, 
50, 3071740619, -86.43694305419922, 44.128395080566406, -25.72475814819336, -7.575756072998047, -7.027695178985596, -0.6227167248725891, -2.948928117752075, -2.209599018096924, 0.04364665225148201, 0.41796875, 0.1025390625, 0.3505859375, 0, 
51, 3071748952, -86.429931640625, 44.129547119140625, -25.71329116821289, -7.083950519561768, -6.571442604064941, 0.031085887923836708, -3.234591007232666, -3.9508161544799805, -0.08526978641748428, 0.4248046875, 0.10009765625, 0.3349609375, 0, 
52, 3071757285, -86.42662048339844, 44.127166748046875, -25.70954132080078, -5.912114143371582, -7.263997554779053, 1.9549201726913452, -3.032853841781616, -3.313713788986206, -0.5543432831764221, 0.42431640625, 0.09130859375, 0.3330078125, 0, 
53, 3071765618, -86.4354476928711, 44.128108978271484, -25.721769332885742, -6.815588474273682, -7.177944183349609, -0.1626482605934143, -3.1980905532836914, -1.8809809684753418, -0.25703880190849304, 0.43017578125, 0.08984375, 0.3173828125, 0, 
54, 3071773951, -86.43494415283203, 44.128849029541016, -25.722522735595703, -7.603366374969482, -6.900150775909424, -0.5371960401535034, -3.0361831188201904, -2.8698956966400146, -0.22076909244060516, 0.43115234375, 0.083984375, 0.3056640625, 0, 
55, 3071782284, -86.42769622802734, 44.1287841796875, -25.711933135986328, -6.572761058807373, -6.7328619956970215, 0.5685567855834961, -3.129636764526367, -3.88069748878479, -0.2386094331741333, 0.435546875, 0.07958984375, 0.29296875, 0, 
56, 3071790617, -86.43223571777344, 44.12712860107422, -25.71645736694336, -5.866952896118164, -7.299275875091553, 1.7628370523452759, -3.3241384029388428, -2.5654191970825195, -0.5268336534500122, 0.44091796875, 0.0751953125, 0.27099609375, 0, 
57, 3071798950, -86.4408950805664, 44.13034439086914, -25.7289981842041, -7.233602523803711, -7.153287887573242, -0.589299738407135, -3.1106951236724854, -1.871299147605896, 0.030416904017329216, 0.44189453125, 0.06787109375, 0.26025390625, 0, 
58, 3071807283, -86.43634796142578, 44.131526947021484, -25.72222328186035, -7.627209663391113, -6.631051063537598, -0.41522279381752014, -3.1370654106140137, -3.5487372875213623, -0.10933436453342438, 0.4462890625, 0.06689453125, 0.23583984375, 0, 
59, 3071815616, -86.42996978759766, 44.130775451660156, -25.71251678466797, -6.245511531829834, -6.950009822845459, 1.111768364906311, -3.206364631652832, -3.779303789138794, -0.3421805799007416, 0.44775390625, 0.06005859375, 0.21923828125, 0, 
60, 3071823949, -86.44058990478516, 44.12961196899414, -25.72370147705078, -6.07830810546875, -7.2945990562438965, 1.317772626876831, -3.498929977416992, -1.9881255626678467, -0.505010187625885, 0.4501953125, 0.05908203125, 0.19873046875, 0, 
61, 3071832282, -86.4464111328125, 44.13230514526367, -25.73349380493164, -7.497958183288574, -7.200535774230957, -0.7624660730361938, -2.998171806335449, -2.109280824661255, -0.017238378524780273, 0.4521484375, 0.05419921875, 0.17236328125, 0, 
62, 3071840615, -86.43750762939453, 44.132938385009766, -25.721473693847656, -7.3600077629089355, -6.601013660430908, -0.14958372712135315, -3.0933029651641846, -3.9692585468292236, -0.16416163742542267, 0.45263671875, 0.05078125, 0.15625, 0, 
63, 3071848948, -86.43270111083984, 44.131622314453125, -25.713539123535156, -5.909691333770752, -7.12441873550415, 1.6630054712295532, -3.201728582382202, -3.66119647026062, -0.40357792377471924, 0.4560546875, 0.05029296875, 0.123046875, 0, 
64, 3071857281, -86.44577026367188, 44.13322067260742, -25.72745132446289, -6.491039752960205, -7.129091739654541, 0.44336238503456116, -3.5278480052948, -1.7653071880340576, -0.17089813947677612, 0.45556640625, 0.0419921875, 0.10546875, 0, 
65, 3071865614, -86.44783782958984, 44.13485336303711, -25.732473373413086, -7.755582809448242, -6.983821392059326, -0.7663037180900574, -2.9859280586242676, -2.498232841491699, -0.13736912608146667, 0.4609375, 0.046875, 0.076171875, 0, 
66, 3071873947, -86.43878173828125, 44.13483428955078, -25.71870994567871, -7.018466472625732, -6.680846214294434, 0.3764635920524597, -3.222219228744507, -4.121868133544922, -0.2327309399843216, 0.46142578125, 0.041015625, 0.052734375, 0, 
67, 3071882280, -86.43903350830078, 44.13150405883789, -25.716083526611328, -5.762102127075195, -7.384260177612305, 1.7923898696899414, -3.367452621459961, -3.2263948917388916, -0.6712210774421692, 0.46240234375, 0.03955078125, 0.029296875, 0, 
68, 3071890613, -86.44833374023438, 44.134456634521484, -25.72870635986328, -6.843069553375244, -7.230666637420654, -0.22447548806667328, -3.221040725708008, -1.832595705986023, -0.01933874562382698, 0.46435546875, 0.03955078125, -0.0009765625, 0, 
69, 3071898946, -86.44668579101562, 44.1357421875, -25.72796630859375, -7.731002330780029, -6.631789207458496, -0.680018961429596, -2.986081838607788, -3.028319835662842, -0.13073506951332092, 0.46337890625, 0.03857421875, -0.02001953125, 0, 
70, 3071907279, -86.43943786621094, 44.134315490722656, -25.716529846191406, -6.4991912841796875, -6.747462272644043, 0.8739238977432251, -3.202624797821045, -3.9638280868530273, -0.39814767241477966, 0.46533203125, 0.04248046875, -0.0517578125, 0, 
71, 3071915612, -86.44735717773438, 44.13121795654297, -25.724040985107422, -5.885251522064209, -7.330262184143066, 1.4425487518310547, -3.478259801864624, -2.319932699203491, -0.7148420810699463, 0.46435546875, 0.0380859375, -0.07421875, 0, 
72, 3071923945, -86.45427703857422, 44.133026123046875, -25.735219955444336, -7.371334552764893, -7.267515659332275, -0.670936107635498, -3.054446220397949, -1.9648168087005615, -0.14784537255764008, 0.46240234375, 0.03955078125, -0.1005859375, 0, 
73, 3071932278, -86.4459228515625, 44.1333122253418, -25.725017547607422, -7.60929012298584, -6.619650840759277, -0.32539498805999756, -2.9631059169769287, -3.8373706340789795, -0.19917629659175873, 0.462890625, 0.03857421875, -0.12939453125, 0, 
74, 3071940611, -86.4385757446289, 44.13154983520508, -25.71487808227539, -5.931118011474609, -7.106301307678223, 1.4327973127365112, -3.1248600482940674, -3.8258702754974365, -0.46282365918159485, 0.4609375, 0.04150390625, -0.1494140625, 0, 
75, 3071948944, -86.44966125488281, 44.131370544433594, -25.727218627929688, -6.150256156921387, -7.219094753265381, 0.8156149983406067, -3.4176559448242188, -1.9129221439361572, -0.37289202213287354, 0.46240234375, 0.0419921875, -0.1787109375, 0, 
76, 3071957277, -86.45361328125, 44.13388442993164, -25.73570442199707, -7.684967994689941, -6.973258972167969, -0.754956066608429, -2.881396770477295, -2.2196273803710938, -0.0329655259847641, 0.4599609375, 0.0390625, -0.19970703125, 0, 
77, 3071965610, -86.44429779052734, 44.133575439453125, -25.722768783569336, -7.278791427612305, -6.538196563720703, 0.03213495761156082, -3.1192500591278076, -4.0561676025390625, -0.2720744013786316, 0.45654296875, 0.0439453125, -0.22216796875, 0, 
78, 3071973943, -86.44049072265625, 44.12991714477539, -25.716936111450195, -5.773054599761963, -7.312119960784912, 1.7477103471755981, -3.1891260147094727, -3.4699862003326416, -0.7115890979766846, 0.45849609375, 0.044921875, -0.24267578125, 0, 
79, 3071982276, -86.45083618164062, 44.130401611328125, -25.73167610168457, -6.6192779541015625, -7.345941066741943, 0.08780667930841446, -3.1242449283599854, -1.6990946531295776, -0.3093430995941162, 0.45654296875, 0.04833984375, -0.26416015625, 0, 
80, 3071990609, -86.4482192993164, 44.13200759887695, -25.732091903686523, -7.790489196777344, -6.847766399383545, -0.6577470898628235, -2.808241844177246, -2.893434762954712, -0.11449562013149261, 0.4560546875, 0.05029296875, -0.2880859375, 0, 
81, 3071998942, -86.43982696533203, 44.13117599487305, -25.718414306640625, -6.719092845916748, -6.743851661682129, 0.6501451134681702, -3.2533280849456787, -4.154026985168457, -0.3129931390285492, 0.44970703125, 0.0517578125, -0.30078125, 0, 
82, 3072007275, -86.4426498413086, 44.1287841796875, -25.72150993347168, -5.764630317687988, -7.2324538230896, 1.4831923246383667, -3.2000505924224854, -2.7240610122680664, -0.5923163890838623, 0.45458984375, 0.05810546875, -0.32470703125, 0, 
83, 3072015608, -86.45044708251953, 44.13139343261719, -25.732711791992188, -7.1070756912231445, -7.1440958976745605, -0.45587095618247986, -3.1590933799743652, -1.957170844078064, -0.050600919872522354, 0.4462890625, 0.056640625, -0.34033203125, 0, 
84, 3072023941, -86.44498443603516, 44.130775451660156, -25.726045608520508, -7.788302421569824, -6.583005428314209, -0.42918145656585693, -3.0570080280303955, -3.5202670097351074, -0.3427697420120239, 0.447265625, 0.0634765625, -0.35498046875, 0, 
85, 3072032274, -86.43596649169922, 44.12678527832031, -25.712757110595703, -6.203108787536621, -7.077361106872559, 1.3010481595993042, -3.1496541500091553, -4.143691062927246, -0.6953240036964417, 0.4453125, 0.06787109375, -0.3740234375, 0, 
86, 3072040607, -86.44561767578125, 44.12594985961914, -25.723541259765625, -5.97933292388916, -7.415083885192871, 0.9697912931442261, -3.413532257080078, -2.0185554027557373, -0.46174779534339905, 0.4404296875, 0.0693359375, -0.37890625, 0, 
87, 3072048940, -86.45153045654297, 44.12933349609375, -25.733478546142578, -7.461555004119873, -7.120397567749023, -0.5839537382125854, -2.997749090194702, -2.0893144607543945, 0.06329277157783508, 0.439453125, 0.0771484375, -0.400390625, 0, 
88, 3072057273, -86.44326782226562, 44.12957763671875, -25.722383499145508, -7.430829048156738, -6.411294460296631, -0.12681472301483154, -3.0523974895477295, -3.922666549682617, -0.1995605230331421, 0.4326171875, 0.07470703125, -0.41259765625, 0, 
89, 3072065606, -86.43785095214844, 44.12604522705078, -25.713449478149414, -5.864441871643066, -7.132900238037109, 1.7180778980255127, -3.253340721130371, -3.735605478286743, -0.6801091432571411, 0.43603515625, 0.0810546875, -0.42919921875, 0, 
90, 3072073939, -86.4494400024414, 44.12660217285156, -25.727731704711914, -6.4903082847595215, -7.2593793869018555, 0.19108253717422485, -3.3568859100341797, -1.7084563970565796, -0.3147348463535309, 0.43017578125, 0.0859375, -0.43994140625, 0, 
91, 3072082272, -86.4517822265625, 44.127716064453125, -25.733034133911133, -7.842352867126465, -6.935033321380615, -0.5932610034942627, -2.95426869392395, -2.505481719970703, -0.18116945028305054, 0.4287109375, 0.09033203125, -0.44384765625, 0, 
92, 3072090605, -86.44365692138672, 44.12710189819336, -25.719633102416992, -6.913914203643799, -6.826122283935547, 0.4443243443965912, -3.303903102874756, -4.09791898727417, -0.3072171211242676, 0.42724609375, 0.09521484375, -0.4541015625, 0, 
93, 3072098938, -86.4458236694336, 44.124332427978516, -25.719829559326172, -5.674031734466553, -7.33136510848999, 1.6763354539871216, -3.3594863414764404, -2.973172664642334, -0.6197364926338196, 0.419921875, 0.099609375, -0.44970703125, 0, 
94, 3072107271, -86.45378875732422, 44.12653350830078, -25.7329044342041, -6.876829624176025, -7.198406219482422, -0.2564743757247925, -2.9810101985931396, -1.827396273612976, -0.09382494539022446, 0.41845703125, 0.1044921875, -0.455078125, 0, 
95, 3072115604, -86.4510269165039, 44.12815856933594, -25.72959327697754, -7.814053535461426, -6.480359077453613, -0.49139657616615295, -3.1023964881896973, -3.214202404022217, -0.09195510298013687, 0.41357421875, 0.1083984375, -0.455078125, 0, 
96, 3072123937, -86.44159698486328, 44.125762939453125, -25.715662002563477, -6.474111080169678, -6.890621185302734, 1.025759220123291, -3.191495180130005, -4.156280517578125, -0.5164470076560974, 0.41162109375, 0.11376953125, -0.45654296875, 0, 
97, 3072132270, -86.44963073730469, 44.123905181884766, -25.722383499145508, -5.961727619171143, -7.357776165008545, 1.1051815748214722, -3.520817756652832, -2.404677391052246, -0.5489002466201782, 0.41015625, 0.1181640625, -0.4560546875, 0, 
98, 3072140603, -86.45565032958984, 44.126678466796875, -25.73320198059082, -7.295969009399414, -7.210163593292236, -0.42457157373428345, -2.9756057262420654, -1.9897905588150024, -0.028969697654247284, 0.4072265625, 0.12109375, -0.45166015625, 0, 
99, 3072148936, -86.45011901855469, 44.12791442871094, -25.72577667236328, -7.509138584136963, -6.561460971832275, -0.14903049170970917, -3.075347661972046, -3.5966999530792236, -0.10104816406965256, 0.4052734375, 0.12841796875, -0.45166015625, 0, 
100, 3072157269, -86.44337463378906, 44.12468719482422, -25.716880798339844, -5.925971031188965, -7.199015140533447, 1.5427416563034058, -3.0487215518951416, -3.7613091468811035, -0.6276640295982361, 0.3994140625, 0.12939453125, -0.4384765625, 0, 
101, 3072165602, -86.45272064208984, 44.12693786621094, -25.72905731201172, -6.318747520446777, -7.224323272705078, 0.29208511114120483, -3.2663395404815674, -1.8759223222732544, -0.10029252618551254, 0.3994140625, 0.1357421875, -0.4375, 0, 
102, 3072173935, -86.45453643798828, 44.1292610168457, -25.73418617248535, -7.72783088684082, -6.806814670562744, -0.527786910533905, -2.9469687938690186, -2.483812093734741, -0.053405676037073135, 0.39404296875, 0.13671875, -0.4306640625, 0, 
103, 3072182268, -86.44824981689453, 44.12823486328125, -25.722219467163086, -7.071728706359863, -6.6150641441345215, 0.24561826884746552, -3.361945390701294, -4.0066046714782715, -0.34584343433380127, 0.3955078125, 0.1396484375, -0.4208984375, 0, 
104, 3072190601, -86.44795989990234, 44.12392807006836, -25.719125747680664, -5.8087358474731445, -7.351693630218506, 1.7731512784957886, -3.3828978538513184, -3.2396886348724365, -0.8035698533058167, 0.39306640625, 0.146484375, -0.41748046875, 0, 
105, 3072198934, -86.45651245117188, 44.12570571899414, -25.732345581054688, -6.75450325012207, -7.376303672790527, -0.18960188329219818, -3.038053512573242, -1.8207367658615112, -0.14669273793697357, 0.3916015625, 0.14697265625, -0.40087890625, 0, 
106, 3072207267, -86.4559326171875, 44.12757873535156, -25.73322296142578, -7.714743137359619, -6.700318813323975, -0.4432049095630646, -2.975374937057495, -2.881012201309204, -0.06846684217453003, 0.39111328125, 0.15478515625, -0.39453125, 0, 
107, 3072215600, -86.44860076904297, 44.12671661376953, -25.722633361816406, -6.548705101013184, -6.832038879394531, 0.7971172332763672, -3.1611554622650146, -3.8574271202087402, -0.3507101535797119, 0.3837890625, 0.1533203125, -0.38037109375, 0, 
108, 3072223933, -86.45513153076172, 44.12549591064453, -25.729047775268555, -5.925474643707275, -7.159322261810303, 1.2259297370910645, -3.406386137008667, -2.39785099029541, -0.48523610830307007, 0.3837890625, 0.1572265625, -0.36865234375, 0, 
109, 3072232266, -86.46105194091797, 44.12690734863281, -25.739303588867188, -7.263675212860107, -7.10828161239624, -0.4205109477043152, -2.9715590476989746, -2.079005002975464, -0.17366452515125275, 0.3857421875, 0.16015625, -0.36083984375, 0, 
110, 3072240599, -86.45515441894531, 44.12652587890625, -25.730466842651367, -7.627811908721924, -6.611133098602295, -0.25362351536750793, -3.1911239624023438, -3.7026147842407227, -0.30363115668296814, 0.38232421875, 0.1611328125, -0.34326171875, 0, 
111, 3072248932, -86.4485855102539, 44.12360382080078, -25.721485137939453, -6.101085662841797, -7.2866597175598145, 1.485897183418274, -3.0780882835388184, -3.7649595737457275, -0.5902799963951111, 0.38330078125, 0.16552734375, -0.33740234375, 0, 
112, 3072257265, -86.45848846435547, 44.12425231933594, -25.73360824584961, -6.222619533538818, -7.320328712463379, 0.44729849696159363, -3.2869210243225098, -1.9230141639709473, -0.27120348811149597, 0.380859375, 0.16357421875, -0.31689453125, 0, 
113, 3072265598, -86.46004486083984, 44.12739944458008, -25.740070343017578, -7.5351972579956055, -6.913669109344482, -0.4333535134792328, -2.808267831802368, -2.361555337905884, 0.036180105060338974, 0.3818359375, 0.17236328125, -0.31005859375, 0, 
114, 3072273931, -86.45246124267578, 44.127197265625, -25.729036331176758, -7.219344139099121, -6.472022533416748, 0.052514221519231796, -3.169685125350952, -3.8905463218688965, -0.2707168757915497, 0.37890625, 0.1689453125, -0.2978515625, 0, 
115, 3072282264, -86.45227813720703, 44.12351608276367, -25.725662231445312, -5.919022083282471, -7.228669166564941, 1.659538745880127, -3.379682779312134, -3.289649248123169, -0.7107565999031067, 0.37890625, 0.17333984375, -0.28271484375, 0, 
116, 3072290597, -86.45979309082031, 44.124656677246094, -25.736572265625, -6.708868980407715, -7.292476654052734, -0.11897904425859451, -3.147989511489868, -1.99337637424469, -0.22555893659591675, 0.3779296875, 0.171875, -0.2783203125, 0, 
117, 3072298930, -86.4603500366211, 44.1252555847168, -25.736696243286133, -7.683493137359619, -6.805805206298828, -0.40454214811325073, -3.1745262145996094, -2.9572150707244873, -0.21825891733169556, 0.37744140625, 0.171875, -0.26123046875, 0, 
118, 3072307263, -86.45429992675781, 44.12444305419922, -25.72719383239746, -6.599264621734619, -6.873705863952637, 0.637999951839447, -3.1855275630950928, -3.7954277992248535, -0.3336126208305359, 0.3798828125, 0.177734375, -0.2529296875, 0, 
119, 3072315596, -86.45951080322266, 44.12250518798828, -25.731639862060547, -5.927944660186768, -7.270145893096924, 1.4156086444854736, -3.4136602878570557, -2.5723865032196045, -0.560670018196106, 0.37939453125, 0.17431640625, -0.24072265625, 0, 
120, 3072323929, -86.46680450439453, 44.12575912475586, -25.744144439697266, -7.1647629737854, -7.152121067047119, -0.4204805791378021, -2.989283561706543, -1.841407299041748, 0.017814699560403824, 0.37841796875, 0.17626953125, -0.2275390625, 0, 
121, 3072332262, -86.46165466308594, 44.127227783203125, -25.736486434936523, -7.634194374084473, -6.522072792053223, -0.3782685101032257, -3.139998197555542, -3.618804931640625, -0.07015739381313324, 0.3798828125, 0.177734375, -0.22021484375, 0, 
122, 3072340595, -86.453369140625, 44.12530517578125, -25.726694107055664, -6.267400741577148, -7.060041904449463, 1.2876814603805542, -2.9817404747009277, -3.796478271484375, -0.48363518714904785, 0.3779296875, 0.17626953125, -0.2041015625, 0, 
123, 3072348928, -86.46453094482422, 44.12470626831055, -25.737342834472656, -6.159785270690918, -7.325716972351074, 0.6938415169715881, -3.5643231868743896, -2.0592563152313232, -0.41592395305633545, 0.37890625, 0.1787109375, -0.19970703125, 0, 
124, 3072357261, -86.4696273803711, 44.12735366821289, -25.746896743774414, -7.41100549697876, -7.171242713928223, -0.3509155511856079, -2.9289369583129883, -2.1300032138824463, -0.021541573107242584, 0.3798828125, 0.17626953125, -0.1865234375, 0, 
125, 3072365594, -86.46267700195312, 44.12848663330078, -25.73662757873535, -7.306795597076416, -6.572371482849121, -0.14899593591690063, -3.1813137531280518, -3.8153679370880127, -0.11400897055864334, 0.380859375, 0.1796875, -0.17822265625, 0, 
126, 3072373927, -86.45912170410156, 44.12649917602539, -25.729719161987305, -5.936201095581055, -7.175474166870117, 1.7892138957977295, -3.3104605674743652, -3.5499284267425537, -0.5060860514640808, 0.38037109375, 0.17626953125, -0.171875, 0, 
127, 3072382260, -86.46773529052734, 44.12837219238281, -25.741235733032227, -6.602137088775635, -7.141056060791016, -0.06266438961029053, -3.191226005554199, -1.967992901802063, -0.12461325526237488, 0.3828125, 0.177734375, -0.16162109375, 0, 
128, 3072390593, -86.46837615966797, 44.12961196899414, -25.743371963500977, -7.665092945098877, -6.803136825561523, -0.3742816150188446, -3.057058811187744, -2.7483558654785156, -0.1681574434041977, 0.38330078125, 0.1787109375, -0.16064453125, 0, 
129, 3072398926, -86.46171569824219, 44.12820053100586, -25.731863021850586, -6.7960591316223145, -6.814697265625, 0.4221598505973816, -3.2771875858306885, -3.968797206878662, -0.3952532410621643, 0.384765625, 0.17626953125, -0.1455078125, 0, 
130, 3072407259, -86.46611022949219, 44.124637603759766, -25.73271942138672, -5.862358093261719, -7.4254889488220215, 1.648776888847351, -3.5755038261413574, -2.925645112991333, -0.7208998203277588, 0.38427734375, 0.17919921875, -0.14306640625, 0, 
131, 3072415592, -86.47071838378906, 44.12763595581055, -25.74264144897461, -6.977665424346924, -7.298977375030518, -0.3314727246761322, -2.8815245628356934, -2.065070867538452, 0.0022924740333110094, 0.3837890625, 0.17822265625, -0.13134765625, 0, 
132, 3072423925, -86.46749877929688, 44.1290283203125, -25.73917579650879, -7.604979991912842, -6.5642242431640625, -0.45526716113090515, -3.0613367557525635, -3.228623151779175, -0.12028446048498154, 0.38623046875, 0.18115234375, -0.1259765625, 0, 
133, 3072432258, -86.46017456054688, 44.12729263305664, -25.729084014892578, -6.382503032684326, -6.837979316711426, 1.0503160953521729, -3.0797531604766846, -3.851459264755249, -0.44148698449134827, 0.38671875, 0.1806640625, -0.1171875, 0, 
134, 3072440591, -86.4688720703125, 44.12567901611328, -25.736303329467773, -6.135496139526367, -7.192492485046387, 1.0843027830123901, -3.60005521774292, -2.332125186920166, -0.5361828207969666, 0.3857421875, 0.18017578125, -0.10498046875, 0, 
135, 3072448924, -86.47454833984375, 44.12721252441406, -25.746238708496094, -7.409078121185303, -7.248943328857422, -0.4200086295604706, -2.9671788215637207, -2.1047985553741455, -0.15627245604991913, 0.38671875, 0.1806640625, -0.10546875, 0, 
136, 3072457257, -86.46630859375, 44.12703323364258, -25.735023498535156, -7.398038864135742, -6.695241928100586, -0.27155035734176636, -3.064436197280884, -3.9359350204467773, -0.24945706129074097, 0.38623046875, 0.17724609375, -0.091796875, 0, 
137, 3072465590, -86.45830535888672, 44.125118255615234, -25.725473403930664, -5.980405330657959, -7.222001075744629, 1.6545124053955078, -2.9946630001068115, -3.776102066040039, -0.48282837867736816, 0.38720703125, 0.18017578125, -0.09033203125, 0, 
138, 3072473923, -86.46839904785156, 44.12703323364258, -25.736679077148438, -6.353561878204346, -7.137824058532715, 0.26111406087875366, -3.4333574771881104, -1.9632798433303833, -0.13493578135967255, 0.3857421875, 0.17724609375, -0.0830078125, 0, 
139, 3072482256, -86.47090148925781, 44.12889862060547, -25.743331909179688, -7.5765485763549805, -6.893858432769775, -0.44715970754623413, -2.8650801181793213, -2.383481502532959, -0.10202149301767349, 0.390625, 0.18017578125, -0.07568359375, 0, 
140, 3072490589, -86.46224212646484, 44.12868881225586, -25.730741500854492, -7.110454082489014, -6.563757419586182, 0.05444573983550072, -3.17252779006958, -4.023996353149414, -0.26336556673049927, 0.39306640625, 0.1796875, -0.078125, 0, 
141, 3072498922, -86.4601821899414, 44.12493133544922, -25.725444793701172, -5.92231559753418, -7.32077693939209, 1.8482029438018799, -3.307054042816162, -3.4537465572357178, -0.7059539556503296, 0.3876953125, 0.17578125, -0.0673828125, 0, 
142, 3072507255, -86.46746063232422, 44.126708984375, -25.73734474182129, -6.806863784790039, -7.287147045135498, -0.27160972356796265, -3.0000674724578857, -1.9319794178009033, -0.14092952013015747, 0.38916015625, 0.17919921875, -0.06982421875, 0, 
143, 3072515588, -86.46487426757812, 44.12810134887695, -25.73623275756836, -7.611612319946289, -6.7986297607421875, -0.3620661199092865, -2.939054250717163, -3.0270135402679443, -0.13096559047698975, 0.388671875, 0.17529296875, -0.060546875, 0, 
144, 3072523921, -86.4571304321289, 44.127044677734375, -25.726234436035156, -6.461056709289551, -6.852234363555908, 0.6917381882667542, -3.0667154788970947, -3.806429386138916, -0.3791675567626953, 0.392578125, 0.177734375, -0.05810546875, 0, 
145, 3072532254, -86.46418762207031, 44.12565994262695, -25.73089599609375, -5.955777168273926, -7.238149642944336, 1.4135562181472778, -3.569612979888916, -2.5831830501556396, -0.478794127702713, 0.392578125, 0.17626953125, -0.05859375, 0, 
146, 3072540587, -86.46991729736328, 44.12847137451172, -25.7415828704834, -7.299983978271484, -7.1177873611450195, -0.47338125109672546, -2.9544479846954346, -2.0003435611724854, -0.024692120030522346, 0.39208984375, 0.17626953125, -0.0478515625, 0, 
147, 3072548920, -86.46249389648438, 44.12940979003906, -25.73149299621582, -7.534325122833252, -6.545842170715332, -0.31407901644706726, -3.0708394050598145, -3.8325045108795166, -0.12043814361095428, 0.3955078125, 0.181640625, -0.05224609375, 0, 
148, 3072557253, -86.45581817626953, 44.126834869384766, -25.721677780151367, -6.16882848739624, -7.140578746795654, 1.4605940580368042, -3.1354129314422607, -3.834092617034912, -0.5470688343048096, 0.392578125, 0.17529296875, -0.04345703125, 0, 
149, 3072565586, -86.46640014648438, 44.12676239013672, -25.732873916625977, -6.23776912689209, -7.312310695648193, 0.695696234703064, -3.490963935852051, -1.978776454925537, -0.37250781059265137, 0.39453125, 0.1796875, -0.0439453125, 0, 
150, 3072573919, -86.46952056884766, 44.12994384765625, -25.74146270751953, -7.460140705108643, -7.1597185134887695, -0.5378389954566956, -2.816413402557373, -2.178823709487915, 0.030749892815947533, 0.3935546875, 0.17822265625, -0.0419921875, 0, 
151, 3072582252, -86.46177673339844, 44.130836486816406, -25.72878646850586, -7.226558685302734, -6.5188212394714355, 0.010145202279090881, -3.245912551879883, -4.053093910217285, -0.11306124180555344, 0.39599609375, 0.17626953125, -0.0380859375, 0, 
152, 3072590585, -86.45838928222656, 44.12863540649414, -25.723081588745117, -5.911305904388428, -7.158390522003174, 1.8134980201721191, -3.228290557861328, -3.4472920894622803, -0.5378477573394775, 0.3955078125, 0.1748046875, -0.0390625, 0, 
153, 3072598918, -86.4685287475586, 44.128963470458984, -25.73551368713379, -6.649923324584961, -7.1509480476379395, -0.04182179272174835, -3.2949891090393066, -1.9006786346435547, -0.3142610192298889, 0.39404296875, 0.173828125, -0.02880859375, 0, 
154, 3072607251, -86.46786499023438, 44.13031005859375, -25.737464904785156, -7.7643046379089355, -6.847035884857178, -0.5102457404136658, -2.8757612705230713, -2.7931551933288574, -0.13777895271778107, 0.3994140625, 0.17919921875, -0.0341796875, 0, 
155, 3072615584, -86.45955657958984, 44.129093170166016, -25.724721908569336, -6.792044162750244, -6.852937698364258, 0.5905251502990723, -3.226189374923706, -4.044769287109375, -0.3833170235157013, 0.396484375, 0.171875, -0.02783203125, 0, 
156, 3072623917, -86.46391296386719, 44.12681198120117, -25.728172302246094, -5.797152042388916, -7.392186164855957, 1.5252691507339478, -3.392246961593628, -2.661985397338867, -0.5946857333183289, 0.39599609375, 0.177734375, -0.02783203125, 0, 
157, 3072632250, -86.47144317626953, 44.12998580932617, -25.73950958251953, -6.989316940307617, -7.214457988739014, -0.4974527060985565, -3.0759620666503906, -1.9722447395324707, 0.030340060591697693, 0.39404296875, 0.1728515625, -0.02734375, 0, 
158, 3072640583, -86.46581268310547, 44.130916595458984, -25.733383178710938, -7.6677422523498535, -6.460005760192871, -0.2846429944038391, -2.9946372509002686, -3.461174964904785, -0.16224057972431183, 0.39501953125, 0.171875, -0.02001953125, 0, 
159, 3072648916, -86.45868682861328, 44.12807083129883, -25.722488403320312, -6.270547866821289, -6.954307556152344, 1.1455961465835571, -3.172553539276123, -3.9288136959075928, -0.5697118043899536, 0.4013671875, 0.1767578125, -0.02685546875, 0, 
160, 3072657249, -86.46978759765625, 44.126373291015625, -25.734121322631836, -6.16323709487915, -7.33958101272583, 0.8978757858276367, -3.4777727127075195, -1.9841810464859009, -0.5541383028030396, 0.3974609375, 0.17333984375, -0.0185546875, 0, 
161, 3072665582, -86.47254943847656, 44.12857437133789, -25.741535186767578, -7.492907524108887, -7.192610740661621, -0.5892364978790283, -2.8713040351867676, -2.2863261699676514, -0.08030061423778534, 0.400390625, 0.1748046875, -0.02001953125, 0, 
162, 3072673915, -86.46340942382812, 44.1289176940918, -25.72898292541504, -7.30334997177124, -6.59100341796875, 0.06994827836751938, -3.108722686767578, -4.016695976257324, -0.197152778506279, 0.3984375, 0.17431640625, -0.017578125, 0, 
163, 3072682248, -86.45991516113281, 44.125694274902344, -25.72295379638672, -5.838409900665283, -7.229398250579834, 1.6751790046691895, -3.203726291656494, -3.513453722000122, -0.640458345413208, 0.3974609375, 0.1748046875, -0.01513671875, 0, 
164, 3072690581, -86.46930694580078, 44.12727355957031, -25.735689163208008, -6.507946968078613, -7.183244705200195, 0.08967467397451401, -3.2188382148742676, -1.8351573944091797, -0.18347476422786713, 0.39892578125, 0.17626953125, -0.017578125, 0, 
165, 3072698914, -86.46891021728516, 44.12819290161133, -25.738059997558594, -7.787458419799805, -6.806654930114746, -0.5755191445350647, -2.8722519874572754, -2.75744891166687, -0.19185057282447815, 0.3994140625, 0.1708984375, -0.0126953125, 0, 
166, 3072707247, -86.46282958984375, 44.12605667114258, -25.725889205932617, -6.928537368774414, -6.709013938903809, 0.49330976605415344, -3.4105100631713867, -4.039852142333984, -0.479088693857193, 0.4013671875, 0.17333984375, -0.0166015625, 0, 
167, 3072715580, -86.46467590332031, 44.123775482177734, -25.727027893066406, -5.795954704284668, -7.369380474090576, 1.599799394607544, -3.2819266319274902, -2.85977840423584, -0.5835435390472412, 0.40185546875, 0.17236328125, -0.0126953125, 0, 
168, 3072723913, -86.4713363647461, 44.126522064208984, -25.737804412841797, -6.92828893661499, -7.312582015991211, -0.3766075670719147, -3.058262825012207, -1.9945292472839355, -0.03370833024382591, 0.40234375, 0.17626953125, -0.00732421875, 0, 
169, 3072732246, -86.46719360351562, 44.12729263305664, -25.734832763671875, -7.751944065093994, -6.586379051208496, -0.26940321922302246, -2.8619298934936523, -3.2142794132232666, -0.1803242266178131, 0.40087890625, 0.171875, -0.013671875, 0, 
170, 3072740579, -86.4589614868164, 44.12544631958008, -25.72257423400879, -6.344968318939209, -6.972259998321533, 0.9887018799781799, -3.196169853210449, -4.007679462432861, -0.46005725860595703, 0.4013671875, 0.17236328125, -0.0068359375, 0, 
171, 3072748912, -86.46762084960938, 44.12504577636719, -25.73027229309082, -6.028469562530518, -7.230218410491943, 0.9935049414634705, -3.5122241973876953, -2.3117363452911377, -0.3776819109916687, 0.40478515625, 0.17236328125, -0.00927734375, 0, 
172, 3072757245, -86.47152709960938, 44.12797164916992, -25.73830795288086, -7.438960552215576, -7.015575885772705, -0.5458626747131348, -2.917358636856079, -2.2556662559509277, 0.019351551309227943, 0.4013671875, 0.1689453125, -0.00537109375, 0, 
173, 3072765578, -86.4644546508789, 44.12754440307617, -25.727611541748047, -7.455631256103516, -6.565494060516357, 0.055496614426374435, -3.2014975547790527, -3.864778518676758, -0.2994047999382019, 0.40283203125, 0.17138671875, -0.0068359375, 0, 
174, 3072773911, -86.4598159790039, 44.123661041259766, -25.71971893310547, -5.92203950881958, -7.30007791519165, 1.4995964765548706, -3.260615587234497, -3.6474931240081787, -0.7267782688140869, 0.40234375, 0.1689453125, -0.0048828125, 0, 
175, 3072782244, -86.46928405761719, 44.124847412109375, -25.7314510345459, -6.398670673370361, -7.390323638916016, 0.23635193705558777, -3.2754456996917725, -1.9534951448440552, -0.209934264421463, 0.40478515625, 0.169921875, -0.00390625, 0, 
176, 3072790577, -86.46984100341797, 44.12708282470703, -25.735525131225586, -7.662419319152832, -6.782717704772949, -0.5255905389785767, -2.882190465927124, -2.5746402740478516, -0.05950186774134636, 0.40380859375, 0.1708984375, -0.0087890625, 0, 
177, 3072798910, -86.4625015258789, 44.12694549560547, -25.72300910949707, -6.969910144805908, -6.579171180725098, 0.45751428604125977, -3.284794807434082, -4.050276279449463, -0.23636816442012787, 0.40185546875, 0.17041015625, 0.00048828125, 0, 
178, 3072807243, -86.46237182617188, 44.12261962890625, -25.72127914428711, -5.876560211181641, -7.217984676361084, 1.533793330192566, -3.2492682933807373, -3.1481943130493164, -0.7991897463798523, 0.40625, 0.17138671875, -0.00390625, 0, 
179, 3072815576, -86.46849822998047, 44.12419509887695, -25.731246948242188, -6.894088268280029, -7.280958652496338, -0.2985724210739136, -3.0566234588623047, -2.0727548599243164, -0.16800378262996674, 0.40283203125, 0.1689453125, -0.00341796875, 0, 
180, 3072823909, -86.46546173095703, 44.12466812133789, -25.727331161499023, -7.723674297332764, -6.741762638092041, -0.3010965883731842, -3.1225802898406982, -3.2742679119110107, -0.22765929996967316, 0.40576171875, 0.169921875, 0.0009765625, 0, 
181, 3072832242, -86.45639038085938, 44.122894287109375, -25.71531867980957, -6.413862228393555, -7.043154716491699, 0.9614014029502869, -3.033954620361328, -4.0160813331604, -0.43695321679115295, 0.4072265625, 0.17041015625, -0.001953125, 0, 
182, 3072840575, -86.46403503417969, 44.12283706665039, -25.722930908203125, -5.974291801452637, -7.25427770614624, 1.0229500532150269, -3.439223051071167, -2.286505699157715, -0.3499673008918762, 0.4013671875, 0.16748046875, 0.001953125, 0, 
183, 3072848908, -86.47013092041016, 44.12498092651367, -25.73346710205078, -7.307297706604004, -7.010653972625732, -0.4335362911224365, -2.967921733856201, -2.0493438243865967, -0.08726770430803299, 0.40576171875, 0.17138671875, -0.00390625, 0, 
184, 3072857241, -86.46226501464844, 44.124717712402344, -25.723363876342773, -7.544483184814453, -6.4447922706604, -0.06896305084228516, -3.013040781021118, -3.8405604362487793, -0.26596540212631226, 0.40576171875, 0.17041015625, 0.00146484375, 0, 
185, 3072865574, -86.45675659179688, 44.12112808227539, -25.71488380432129, -6.140775203704834, -7.199596405029297, 1.4163872003555298, -3.206928014755249, -3.6963136196136475, -0.6892022490501404, 0.4052734375, 0.1708984375, -0.009765625, 0, 
186, 3072873907, -86.46634674072266, 44.122379302978516, -25.725597381591797, -6.344646453857422, -7.370855331420898, 0.19743712246418, -3.4148128032684326, -2.0113065242767334, -0.21308481693267822, 0.40478515625, 0.16796875, -0.0107421875, 0, 
187, 3072882240, -86.46902465820312, 44.123497009277344, -25.73229217529297, -7.553104400634766, -6.903005599975586, -0.3090633451938629, -2.883291721343994, -2.3844547271728516, -0.1900319904088974, 0.40478515625, 0.17138671875, -0.00927734375, 0, 
188, 3072890573, -86.46247100830078, 44.1225700378418, -25.721086502075195, -6.980854034423828, -6.6840667724609375, 0.3057222068309784, -3.307924747467041, -3.9098587036132812, -0.3565501272678375, 0.4072265625, 0.1689453125, -0.01318359375, 0, 
189, 3072898906, -86.46471405029297, 44.119239807128906, -25.721105575561523, -5.905486106872559, -7.259056568145752, 1.4724832773208618, -3.3817195892333984, -2.9964044094085693, -0.6865382790565491, 0.40478515625, 0.16748046875, -0.00390625, 0, 
190, 3072907239, -86.47156524658203, 44.12211990356445, -25.73370361328125, -6.873404026031494, -7.202521324157715, -0.2707875072956085, -2.8886711597442627, -1.8660228252410889, -0.010604294016957283, 0.40625, 0.17041015625, -0.0068359375, 0, 
191, 3072915572, -86.46868896484375, 44.1225700378418, -25.730688095092773, -7.683159828186035, -6.570185661315918, -0.2914089858531952, -3.0642056465148926, -3.1963751316070557, -0.2329614758491516, 0.40625, 0.1650390625, -0.00537109375, 0, 
192, 3072923905, -86.46308898925781, 44.12028503417969, -25.721004486083984, -6.499294757843018, -6.962713241577148, 0.9322654604911804, -3.296987533569336, -3.791675090789795, -0.5293181538581848, 0.40576171875, 0.16943359375, -0.00537109375, 0, 
193, 3072932238, -86.47010040283203, 44.1188850402832, -25.72566795349121, -6.065517425537109, -7.3401055335998535, 1.0707433223724365, -3.5678834915161133, -2.5813512802124023, -0.4803181290626526, 0.408203125, 0.16748046875, -0.00634765625, 0, 
194, 3072940571, -86.47470092773438, 44.12126541137695, -25.73544692993164, -7.160215854644775, -7.204049110412598, -0.33607304096221924, -2.8939218521118164, -2.0820276737213135, -0.07043914496898651, 0.40576171875, 0.1669921875, -0.00146484375, 0, 
195, 3072948904, -86.46818542480469, 44.1224365234375, -25.727336883544922, -7.4888596534729, -6.514525890350342, -0.1539001315832138, -3.014437198638916, -3.6575851440429688, -0.10606855899095535, 0.4072265625, 0.169921875, -0.0048828125, 0, 
196, 3072957237, -86.4613265991211, 44.11913299560547, -25.71828269958496, -6.184858798980713, -7.044858932495117, 1.427378535270691, -3.047697067260742, -3.775064706802368, -0.6373975276947021, 0.40625, 0.16552734375, -0.00048828125, 0, 
197, 3072965570, -86.47085571289062, 44.11891555786133, -25.72858238220215, -6.348355770111084, -7.195686340332031, 0.2174385040998459, -3.4422199726104736, -2.056156873703003, -0.3836499750614166, 0.40771484375, 0.1689453125, -0.00537109375, 0, 
198, 3072973903, -86.47319030761719, 44.119930267333984, -25.734111785888672, -7.558277606964111, -6.915349960327148, -0.26788848638534546, -2.9755544662475586, -2.45758318901062, -0.21341779828071594, 0.40576171875, 0.1669921875, -0.0029296875, 0, 
199, 3072982236, -86.46713256835938, 44.119171142578125, -25.72352409362793, -7.0986647605896, -6.761903285980225, 0.2359648197889328, -3.2764062881469727, -3.8855128288269043, -0.324058473110199, 0.40869140625, 0.16845703125, -0.00048828125, 0, 
200, 3072990569, -86.46495056152344, 44.11608123779297, -25.719694137573242, -5.923810005187988, -7.333160877227783, 1.5639232397079468, -3.2175068855285645, -3.292121171951294, -0.6525738835334778, 0.40966796875, 0.17041015625, -0.005859375, 0, 
201, 3072998902, -86.47039031982422, 44.1192626953125, -25.729251861572266, -6.730901718139648, -7.2154340744018555, -0.28381145000457764, -2.9723012447357178, -2.1272876262664795, 0.03999662399291992, 0.40771484375, 0.16748046875, 0.0029296875, 0, 
202, 3073007235, -86.47032928466797, 44.12162780761719, -25.72840690612793, -7.586867332458496, -6.553063869476318, -0.20429381728172302, -3.1794185638427734, -3.023709297180176, 0.0008836911874823272, 0.40869140625, 0.1689453125, -0.00439453125, 0, 
203, 3073015568, -86.46443939208984, 44.11933898925781, -25.718870162963867, -6.588407516479492, -6.866149425506592, 0.7118126749992371, -3.2483463287353516, -3.7779719829559326, -0.5284985303878784, 0.4052734375, 0.16552734375, -0.0009765625, 0, 
204, 3073023901, -86.47055053710938, 44.115966796875, -25.723392486572266, -6.101681232452393, -7.350651741027832, 1.133168339729309, -3.514862298965454, -2.5773043632507324, -0.7337966561317444, 0.4072265625, 0.17138671875, -0.0009765625, 0, 
205, 3073032234, -86.4742660522461, 44.118343353271484, -25.733131408691406, -7.224615573883057, -7.2796406745910645, -0.34706997871398926, -2.749175786972046, -2.1162734031677246, -0.0564025416970253, 0.40576171875, 0.16796875, -0.001953125, 0, 
206, 3073040567, -86.46669006347656, 44.12009811401367, -25.723478317260742, -7.373823165893555, -6.584539413452148, -0.1863667070865631, -3.0558040142059326, -3.7569425106048584, -0.0428013913333416, 0.4072265625, 0.16748046875, 0.0029296875, 0, 
207, 3073048900, -86.4614028930664, 44.11759567260742, -25.71578598022461, -6.148435115814209, -7.0834269523620605, 1.452122449874878, -3.1230671405792236, -3.6530768871307373, -0.5444049835205078, 0.4091796875, 0.16845703125, -0.0029296875, 0, 
208, 3073057233, -86.47100830078125, 44.11798095703125, -25.725961685180664, -6.371881484985352, -7.149331569671631, 0.32525867223739624, -3.42452073097229, -2.0921194553375244, -0.2991998791694641, 0.40673828125, 0.16845703125, 0.00390625, 0, 
209, 3073065566, -86.4732666015625, 44.11962890625, -25.732479095458984, -7.5310516357421875, -6.981853008270264, -0.37782612442970276, -2.88230562210083, -2.368330240249634, -0.14140337705612183, 0.40869140625, 0.16650390625, -0.0009765625, 0, 
210, 3073073899, -86.46550750732422, 44.12007522583008, -25.7213134765625, -7.147402763366699, -6.656356334686279, 0.08484751731157303, -3.159989833831787, -3.8985252380371094, -0.1915048360824585, 0.408203125, 0.166015625, 0.00048828125, 0, 
211, 3073082232, -86.4633560180664, 44.11708450317383, -25.716543197631836, -5.972529411315918, -7.305385589599609, 1.7393838167190552, -3.2584893703460693, -3.403799295425415, -0.6213245987892151, 0.40576171875, 0.16552734375, 0.0029296875, 0, 
212, 3073090565, -86.46967315673828, 44.11931228637695, -25.725006103515625, -6.658508777618408, -7.29610538482666, -0.1535797417163849, -3.2096686363220215, -2.19380784034729, -0.08401469886302948, 0.40771484375, 0.16796875, -0.001953125, 0, 
213, 3073098898, -86.46807861328125, 44.120765686035156, -25.726999282836914, -7.583934307098389, -6.768674850463867, -0.286652535200119, -2.7593700885772705, -2.789902448654175, -0.1233837828040123, 0.40673828125, 0.16455078125, 0.00341796875, 0, 
214, 3073107231, -86.46247863769531, 44.120697021484375, -25.718793869018555, -6.6620001792907715, -6.802309513092041, 0.5552482604980469, -3.1288301944732666, -3.6718008518218994, -0.25560447573661804, 0.41064453125, 0.16748046875, -0.00048828125, 0, 
215, 3073115564, -86.46737670898438, 44.118690490722656, -25.723047256469727, -6.044220447540283, -7.242300033569336, 1.3917180299758911, -3.390530824661255, -2.590726375579834, -0.5657928586006165, 0.408203125, 0.16357421875, 0.001953125, 0, 
216, 3073123897, -86.47193145751953, 44.12031555175781, -25.7330379486084, -7.174256801605225, -7.163801670074463, -0.44588014483451843, -2.8684613704681396, -2.070040225982666, -0.16382867097854614, 0.40966796875, 0.166015625, 0.00146484375, 0, 
217, 3073132230, -86.46695709228516, 44.12018585205078, -25.726539611816406, -7.489842891693115, -6.628897666931152, -0.1850155144929886, -3.065178871154785, -3.5302820205688477, -0.2692824900150299, 0.41162109375, 0.16650390625, 0.00048828125, 0, 
218, 3073140563, -86.46109771728516, 44.11701583862305, -25.71732521057129, -6.213980674743652, -7.150544166564941, 1.2529685497283936, -3.2243199348449707, -3.7564303874969482, -0.6357964873313904, 0.408203125, 0.166015625, 0.0048828125, 0, 
219, 3073148896, -86.47126007080078, 44.116180419921875, -25.727638244628906, -6.255817890167236, -7.2832159996032715, 0.7236499190330505, -3.474493980407715, -2.088763952255249, -0.44491925835609436, 0.4111328125, 0.16650390625, -0.0029296875, 0, 
220, 3073157229, -86.47563934326172, 44.11912155151367, -25.736181259155273, -7.3809638023376465, -7.106876373291016, -0.48733165860176086, -2.9314846992492676, -2.2133641242980957, 0.018800845369696617, 0.4072265625, 0.1650390625, 0.00439453125, 0, 
221, 3073165562, -86.4685287475586, 44.120384216308594, -25.72553825378418, -7.186041831970215, -6.449068546295166, -0.11224453896284103, -3.192570924758911, -3.84755277633667, -0.09534899145364761, 0.4091796875, 0.166015625, 0.00146484375, 0, 
222, 3073173895, -86.46492004394531, 44.117218017578125, -25.72024154663086, -6.0356645584106445, -7.136221408843994, 1.9020031690597534, -3.168890953063965, -3.420832633972168, -0.655545175075531, 0.408203125, 0.1689453125, 0.00244140625, 0, 
223, 3073182228, -86.47437286376953, 44.11772155761719, -25.73118782043457, -6.6559295654296875, -7.241790294647217, -0.03303813189268112, -3.339686393737793, -2.0259835720062256, -0.2892615497112274, 0.40966796875, 0.1669921875, 0.00537109375, 0, 
224, 3073190561, -86.47571563720703, 44.11905288696289, -25.734264373779297, -7.595051288604736, -7.024360656738281, -0.4144640266895294, -3.061054229736328, -2.6672611236572266, -0.16185632348060608, 0.4091796875, 0.16748046875, 0.0009765625, 0, 
225, 3073198894, -86.46712493896484, 44.1181526184082, -25.723052978515625, -6.786319732666016, -6.780550956726074, 0.3182498812675476, -3.0244266986846924, -3.9430298805236816, -0.3345731496810913, 0.408203125, 0.1630859375, 0.00439453125, 0, 
226, 3073207227, -86.4688949584961, 44.11695098876953, -25.72333526611328, -5.877002716064453, -7.247078895568848, 1.813424825668335, -3.305478572845459, -2.9560749530792236, -0.43348249793052673, 0.41064453125, 0.1689453125, -0.00048828125, 0, 
227, 3073215560, -86.47693634033203, 44.11973571777344, -25.73407745361328, -6.992224216461182, -7.095486640930176, -0.39274612069129944, -3.2272911071777344, -1.9964501857757568, -0.030250411480665207, 0.4072265625, 0.16357421875, 0.0029296875, 0, 
228, 3073223893, -86.47291564941406, 44.11944580078125, -25.72935676574707, -7.621367931365967, -6.652705669403076, -0.3778093755245209, -3.0679709911346436, -3.348702907562256, -0.312698632478714, 0.41162109375, 0.16650390625, 0.00634765625, 0, 
229, 3073232226, -86.46623992919922, 44.11754608154297, -25.719606399536133, -6.440242767333984, -6.936263561248779, 0.8368539810180664, -3.132723808288574, -3.824615240097046, -0.465077668428421, 0.412109375, 0.16748046875, 0.00830078125, 0, 
230, 3073240559, -86.47552490234375, 44.11539077758789, -25.72697639465332, -6.127578258514404, -7.33489465713501, 1.292954683303833, -3.6543829441070557, -2.3227245807647705, -0.6016015410423279, 0.40576171875, 0.1669921875, 0.01513671875, 0, 
231, 3073248892, -86.4802017211914, 44.117374420166016, -25.736637115478516, -7.310276508331299, -7.216459274291992, -0.5003451704978943, -2.8716630935668945, -2.1253156661987305, -0.10194465517997742, 0.41064453125, 0.16796875, 0.0087890625, 0, 
232, 3073257225, -86.47321319580078, 44.1179084777832, -25.727060317993164, -7.280776500701904, -6.579614162445068, -0.21120543777942657, -3.0777809619903564, -3.790036201477051, -0.17512454092502594, 0.40869140625, 0.1650390625, 0.0126953125, 0, 
233, 3073265558, -86.46790313720703, 44.11607360839844, -25.71952247619629, -6.004476547241211, -7.065498352050781, 1.5383673906326294, -3.1514732837677, -3.6024630069732666, -0.48521050810813904, 0.41259765625, 0.16748046875, 0.01171875, 0, 
234, 3073273891, -86.47834777832031, 44.1157341003418, -25.731258392333984, -6.493873119354248, -7.093865394592285, 0.3922410309314728, -3.4289004802703857, -1.9356677532196045, -0.4073687791824341, 0.41162109375, 0.1650390625, 0.0126953125, 0, 
235, 3073282224, -86.48219299316406, 44.11631393432617, -25.738380432128906, -7.630438804626465, -7.011404514312744, -0.5870440006256104, -2.984058141708374, -2.350490093231201, -0.25568127632141113, 0.41162109375, 0.1650390625, 0.013671875, 0, 
236, 3073290557, -86.4755859375, 44.11611557006836, -25.727460861206055, -7.01362943649292, -6.612497329711914, 0.08859149366617203, -3.2768032550811768, -3.8813250064849854, -0.2709217369556427, 0.412109375, 0.16748046875, 0.01123046875, 0, 
237, 3073298890, -86.47284698486328, 44.11293411254883, -25.72212791442871, -5.850919246673584, -7.307866096496582, 2.0336272716522217, -3.234975576400757, -3.4513134956359863, -0.6426099538803101, 0.4091796875, 0.1650390625, 0.017578125, 0, 
238, 3073307223, -86.48200988769531, 44.11445617675781, -25.734928131103516, -6.789310455322266, -7.268526554107666, -0.15304315090179443, -3.1484498977661133, -1.8546751737594604, -0.17399747669696808, 0.41259765625, 0.16845703125, 0.0087890625, 0, 
239, 3073315556, -86.48124694824219, 44.11572265625, -25.735733032226562, -7.65469217300415, -6.895287990570068, -0.5827319025993347, -2.997941255569458, -2.86308217048645, -0.15786051750183105, 0.40771484375, 0.1650390625, 0.013671875, 0, 
240, 3073323889, -86.4734115600586, 44.115318298339844, -25.72430992126465, -6.644542217254639, -6.664942741394043, 0.49679601192474365, -3.1720669269561768, -3.924485445022583, -0.2925914227962494, 0.4111328125, 0.16748046875, 0.01123046875, 0, 
241, 3073332222, -86.4793472290039, 44.11404037475586, -25.727882385253906, -5.902424335479736, -7.179737567901611, 1.7799307107925415, -3.533048152923584, -2.6745104789733887, -0.461107462644577, 0.40966796875, 0.1669921875, 0.01123046875, 0, 
242, 3073340555, -86.48660278320312, 44.115318298339844, -25.739065170288086, -7.20756196975708, -7.154575347900391, -0.5233892202377319, -3.0914459228515625, -1.9713869094848633, -0.2103569060564041, 0.41015625, 0.1650390625, 0.01513671875, 0, 
243, 3073348888, -86.48048400878906, 44.11558532714844, -25.73127555847168, -7.59409236907959, -6.7812395095825195, -0.34153610467910767, -3.0343263149261475, -3.635056972503662, -0.21591520309448242, 0.41162109375, 0.16748046875, 0.01123046875, 0, 
244, 3073357221, -86.47262573242188, 44.113243103027344, -25.720495223999023, -6.181889057159424, -7.114168167114258, 1.2092342376708984, -3.0731191635131836, -3.9148545265197754, -0.5140264630317688, 0.4091796875, 0.16552734375, 0.015625, 0, 
245, 3073365554, -86.4804458618164, 44.112674713134766, -25.73057746887207, -6.11807918548584, -7.267253875732422, 1.1182422637939453, -3.2529819011688232, -2.0770583152770996, -0.4258110225200653, 0.41162109375, 0.16650390625, 0.01171875, 0, 
246, 3073373887, -86.4866943359375, 44.11672592163086, -25.740400314331055, -7.477906703948975, -7.044332027435303, -0.6836133003234863, -3.08833384513855, -2.066223382949829, 0.129031702876091, 0.41064453125, 0.16357421875, 0.0126953125, 0, 
247, 3073382220, -86.47898864746094, 44.11725997924805, -25.729923248291016, -7.310347557067871, -6.401291370391846, -0.1374627947807312, -3.067228078842163, -3.865546941757202, -0.16820868849754333, 0.41015625, 0.1669921875, 0.013671875, 0, 
248, 3073390553, -86.473876953125, 44.113563537597656, -25.722644805908203, -5.933131217956543, -7.198342323303223, 1.7365065813064575, -3.153855562210083, -3.5938568115234375, -0.709360659122467, 0.41259765625, 0.166015625, 0.00927734375, 0, 
249, 3073398886, -86.48439025878906, 44.113563537597656, -25.735397338867188, -6.576298236846924, -7.327423095703125, 0.2712548077106476, -3.31211256980896, -1.8759479522705078, -0.3555895984172821, 0.40966796875, 0.16455078125, 0.017578125, 0, 
250, 3073407219, -86.48541259765625, 44.11574935913086, -25.739927291870117, -7.715674877166748, -7.084686756134033, -0.7290085554122925, -2.863645315170288, -2.565828561782837, -0.05291900411248207, 0.416015625, 0.16943359375, 0.01318359375, 0, 
251, 3073415552, -86.47509002685547, 44.11599349975586, -25.725765228271484, -6.8958635330200195, -6.6645402908325195, 0.37961408495903015, -3.1040098667144775, -4.156319618225098, -0.20004718005657196, 0.40966796875, 0.16650390625, 0.01220703125, 0, 
252, 3073423885, -86.47464752197266, 44.11368179321289, -25.724491119384766, -5.719975471496582, -7.23258638381958, 1.9046612977981567, -3.209233045578003, -3.068406105041504, -0.57414311170578, 0.41015625, 0.1650390625, 0.01318359375, 0, 
253, 3073432218, -86.48441314697266, 44.115135192871094, -25.735706329345703, -6.950541019439697, -7.13055944442749, -0.37323617935180664, -3.3531076908111572, -1.9954513311386108, -0.1758929342031479, 0.4140625, 0.16552734375, 0.01220703125, 0, 
254, 3073440551, -86.4813461303711, 44.11622619628906, -25.732913970947266, -7.859663963317871, -6.708563327789307, -0.6093513369560242, -3.0203025341033936, -3.1744747161865234, -0.15873143076896667, 0.41064453125, 0.16455078125, 0.01708984375, 0, 
255, 3073448884, -86.47296905517578, 44.11433029174805, -25.7194881439209, -6.471478462219238, -6.880027770996094, 0.8305845260620117, -3.2370500564575195, -4.138492107391357, -0.44438135623931885, 0.41064453125, 0.16552734375, 0.01123046875, 0, 
256, 3073457217, -86.4804916381836, 44.11180114746094, -25.727502822875977, -5.837091445922852, -7.393800735473633, 1.602105975151062, -3.3523142337799072, -2.3001582622528076, -0.6348487734794617, 0.41259765625, 0.1650390625, 0.01708984375, 0, 
257, 3073465550, -86.48561096191406, 44.11461639404297, -25.737178802490234, -7.294366359710693, -7.237478733062744, -0.6471974849700928, -2.9626195430755615, -2.0882773399353027, -0.019876647740602493, 0.41162109375, 0.1669921875, 0.01171875, 0, 
258, 3073473883, -86.47623443603516, 44.11592483520508, -25.7260684967041, -7.59116268157959, -6.509797096252441, -0.2821427285671234, -2.9608266353607178, -3.886345624923706, -0.08719085901975632, 0.41015625, 0.1640625, 0.01220703125, 0, 
259, 3073482216, -86.46929168701172, 44.11396408081055, -25.716089248657227, -6.021732807159424, -7.06026554107666, 1.4167171716690063, -3.1208386421203613, -3.8472578525543213, -0.4727107286453247, 0.41064453125, 0.166015625, 0.01611328125, 0, 
260, 3073490549, -86.48125457763672, 44.113582611083984, -25.729019165039062, -6.224578857421875, -7.2075910568237305, 0.7068243622779846, -3.5127615928649902, -1.8317762613296509, -0.4173327386379242, 0.412109375, 0.16650390625, 0.00732421875, 0, 
261, 3073498882, -86.48448944091797, 44.115379333496094, -25.73604393005371, -7.709645748138428, -6.977323055267334, -0.77647864818573, -2.9207656383514404, -2.3527185916900635, -0.1116524413228035, 0.40966796875, 0.1650390625, 0.01806640625, 0, 
262, 3073507215, -86.4758071899414, 44.11470031738281, -25.722251892089844, -7.194608688354492, -6.601861953735352, 0.2500482201576233, -3.2269580364227295, -4.160366535186768, -0.29827776551246643, 0.41259765625, 0.16748046875, 0.01025390625, 0, 
263, 3073515548, -86.4726333618164, 44.111083984375, -25.716381072998047, -5.72305965423584, -7.370031833648682, 1.7741374969482422, -3.2673518657684326, -3.472163200378418, -0.7059027552604675, 0.41064453125, 0.1650390625, 0.015625, 0, 
264, 3073523881, -86.48086547851562, 44.11224365234375, -25.729467391967773, -6.642742156982422, -7.3407182693481445, -0.016116829589009285, -3.051321506500244, -1.8081603050231934, -0.23575343191623688, 0.412109375, 0.16796875, 0.0146484375, 0, 
265, 3073532214, -86.48037719726562, 44.11509323120117, -25.731775283813477, -7.864338397979736, -6.675363063812256, -0.7794667482376099, -2.868102550506592, -2.7501490116119385, 0.04114926606416702, 0.41015625, 0.1650390625, 0.01025390625, 0, 
266, 3073540547, -86.47260284423828, 44.113739013671875, -25.71942901611328, -6.7165679931640625, -6.653639793395996, 0.7657385468482971, -3.2532384395599365, -4.014954090118408, -0.40035051107406616, 0.41015625, 0.1640625, 0.02001953125, 0, 
267, 3073548880, -86.47807312011719, 44.110931396484375, -25.723020553588867, -5.761882781982422, -7.317512035369873, 1.5482898950576782, -3.4729063510894775, -2.6815285682678223, -0.6444029808044434, 0.4130859375, 0.16552734375, 0.01025390625, 0, 
268, 3073557213, -86.48491668701172, 44.113006591796875, -25.73456573486328, -7.160417079925537, -7.257265090942383, -0.4857655167579651, -2.9759132862091064, -1.9595915079116821, -0.10278993099927902, 0.41015625, 0.16455078125, 0.0146484375, 0, 
269, 3073565546, -86.47920227050781, 44.113502502441406, -25.727075576782227, -7.772740364074707, -6.658278465270996, -0.36546435952186584, -3.0993738174438477, -3.5811514854431152, -0.204888254404068, 0.41357421875, 0.16650390625, 0.01416015625, 0, 
270, 3073573879, -86.46907043457031, 44.11192321777344, -25.713979721069336, -6.070333957672119, -7.104309558868408, 1.2117524147033691, -3.032482147216797, -4.080079078674316, -0.42546525597572327, 0.41015625, 0.1640625, 0.013671875, 0, 
271, 3073582212, -86.47944641113281, 44.1115837097168, -25.72553825378418, -5.974266052246094, -7.275017261505127, 1.0094536542892456, -3.398240566253662, -1.9805182218551636, -0.39171844720840454, 0.41162109375, 0.16552734375, 0.0166015625, 0, 
272, 3073590545, -86.48480224609375, 44.113868713378906, -25.73653221130371, -7.621680736541748, -6.945162296295166, -0.6688999533653259, -2.8809614181518555, -1.9781107902526855, -0.08813858777284622, 0.41259765625, 0.16845703125, 0.01025390625, 0, 
273, 3073598878, -86.47671508789062, 44.11333084106445, -25.724933624267578, -7.470702648162842, -6.475846767425537, 0.014499442651867867, -3.117943525314331, -3.970026969909668, -0.2924633026123047, 0.4111328125, 0.1640625, 0.01513671875, 0, 
274, 3073607211, -86.47338104248047, 44.10832595825195, -25.717477798461914, -5.869053840637207, -7.273462295532227, 1.6382566690444946, -3.3424274921417236, -3.6490554809570312, -0.8498035669326782, 0.41455078125, 0.16748046875, 0.01123046875, 0, 
275, 3073615544, -86.48171997070312, 44.10923767089844, -25.729572296142578, -6.4465203285217285, -7.374467372894287, 0.190201997756958, -3.145991086959839, -1.8946336507797241, -0.25875499844551086, 0.4111328125, 0.1640625, 0.01220703125, 0, 
276, 3073623877, -86.48128509521484, 44.11164093017578, -25.731969833374023, -7.730194568634033, -6.812796592712402, -0.5253176093101501, -2.9057810306549072, -2.718541145324707, -0.02991742640733719, 0.4130859375, 0.16845703125, 0.0146484375, 0, 
277, 3073632210, -86.4754409790039, 44.111083984375, -25.720516204833984, -6.823306560516357, -6.739653587341309, 0.5689746141433716, -3.3721652030944824, -3.958449363708496, -0.2931036651134491, 0.4111328125, 0.16552734375, 0.0126953125, 0, 
278, 3073640543, -86.47742462158203, 44.1087646484375, -25.720897674560547, -5.793907165527344, -7.296900272369385, 1.5049504041671753, -3.3634822368621826, -2.9250175952911377, -0.5856183171272278, 0.4130859375, 0.16162109375, 0.0166015625, 0, 
279, 3073648876, -86.48564910888672, 44.111820220947266, -25.7331485748291, -7.0330610275268555, -7.231097221374512, -0.3716718852519989, -3.0835187435150146, -1.8955047130584717, 0.011231842450797558, 0.4130859375, 0.1669921875, 0.01220703125, 0, 
280, 3073657209, -86.48214721679688, 44.112449645996094, -25.728090286254883, -7.796671390533447, -6.563295364379883, -0.4194228947162628, -3.120300769805908, -3.3998546600341797, -0.1867021769285202, 0.412109375, 0.1630859375, 0.0146484375, 0, 
281, 3073665542, -86.47374725341797, 44.11042404174805, -25.717044830322266, -6.296300888061523, -7.000833988189697, 1.1701360940933228, -3.0721969604492188, -3.9059150218963623, -0.48841220140457153, 0.41259765625, 0.16552734375, 0.0029296875, 0, 
282, 3073673875, -86.48467254638672, 44.10966110229492, -25.72597312927246, -5.924768924713135, -7.359293460845947, 1.0791107416152954, -3.723259925842285, -2.1790542602539062, -0.44330552220344543, 0.41162109375, 0.16162109375, 0.00146484375, 0, 
283, 3073682208, -86.490478515625, 44.112064361572266, -25.737869262695312, -7.378265857696533, -7.181951522827148, -0.5155643224716187, -2.8191285133361816, -1.9269590377807617, -0.06500893831253052, 0.4091796875, 0.1630859375, 0.0009765625, 0, 
284, 3073690541, -86.4809799194336, 44.11348342895508, -25.727514266967773, -7.551695823669434, -6.523934364318848, -0.14778122305870056, -2.8831639289855957, -3.822463274002075, -0.07950658351182938, 0.41259765625, 0.166015625, -0.00146484375, 0, 
285, 3073698874, -86.4759750366211, 44.11003875732422, -25.71868896484375, -5.978603839874268, -7.146602153778076, 1.6438990831375122, -3.2538533210754395, -3.752664804458618, -0.6533679366111755, 0.412109375, 0.16455078125, 0.00537109375, 0, 
286, 3073707207, -86.4863510131836, 44.1115608215332, -25.73151206970215, -6.395196437835693, -7.253115653991699, 0.2261071652173996, -3.2921719551086426, -1.856109857559204, -0.17701996862888336, 0.4150390625, 0.16552734375, 0.00048828125, 0, 
287, 3073715540, -86.48772430419922, 44.11343765258789, -25.73600196838379, -7.708885192871094, -6.852047920227051, -0.4953542649745941, -2.9461746215820312, -2.5412392616271973, -0.10340465605258942, 0.412109375, 0.1630859375, 0.00537109375, 0, 
288, 3073723873, -86.48033905029297, 44.11362838745117, -25.723087310791016, -6.933757305145264, -6.763970851898193, 0.3636941611766815, -3.350623607635498, -4.0500712394714355, -0.21449360251426697, 0.41259765625, 0.16796875, 0.00537109375, 0, 
289, 3073732206, -86.48139953613281, 44.11134719848633, -25.722610473632812, -5.775562286376953, -7.329803466796875, 1.6296446323394775, -3.285409927368164, -3.030651092529297, -0.5591076016426086, 0.41064453125, 0.16357421875, 0.00439453125, 0, 
290, 3073740539, -86.48976135253906, 44.114864349365234, -25.735179901123047, -6.803007125854492, -7.259702205657959, -0.31456494331359863, -3.109363317489624, -1.8358491659164429, 0.05042162537574768, 0.4111328125, 0.16259765625, 0.0087890625, 0, 
291, 3073748872, -86.48644256591797, 44.11598587036133, -25.732776641845703, -7.747010707855225, -6.4918928146362305, -0.3713451027870178, -2.9198946952819824, -3.160412549972534, -0.14174918830394745, 0.4130859375, 0.16796875, 0.00146484375, 0, 
292, 3073757205, -86.48123931884766, 44.11391067504883, -25.723726272583008, -6.50216007232666, -6.934910297393799, 0.9641404151916504, -3.245656728744507, -3.766650438308716, -0.48877084255218506, 0.4111328125, 0.16455078125, 0.00732421875, 0, 
293, 3073765538, -86.48989868164062, 44.112037658691406, -25.730724334716797, -6.002501010894775, -7.362448692321777, 1.0330184698104858, -3.612708568572998, -2.3536412715911865, -0.5664076209068298, 0.412109375, 0.16748046875, 0.00439453125, 0, 
294, 3073773871, -86.4955062866211, 44.11579895019531, -25.741701126098633, -7.246132850646973, -7.191934108734131, -0.4087923467159271, -2.9149770736694336, -1.9684028625488281, 0.08807455748319626, 0.40966796875, 0.1640625, 0.00537109375, 0, 
295, 3073782204, -86.48762512207031, 44.11643981933594, -25.73179817199707, -7.455197811126709, -6.485154628753662, -0.15260232985019684, -2.9994781017303467, -3.8175711631774902, -0.16039635241031647, 0.41064453125, 0.16552734375, 0.0068359375, 0, 
296, 3073790537, -86.48165130615234, 44.113502502441406, -25.72239112854004, -6.001589298248291, -7.138052940368652, 1.6160808801651, -3.2254724502563477, -3.771824359893799, -0.6056742072105408, 0.41259765625, 0.16650390625, 0.00048828125, 0, 
297, 3073798870, -86.49239349365234, 44.11503982543945, -25.734691619873047, -6.373362064361572, -7.265680313110352, 0.17665541172027588, -3.380054235458374, -1.9025228023529053, -0.17007851600646973, 0.40966796875, 0.166015625, 0.00732421875, 0, 
298, 3073807203, -86.49629974365234, 44.11814498901367, -25.74256706237793, -7.698607921600342, -6.87512731552124, -0.4248741567134857, -2.931523084640503, -2.269728183746338, 0.038972049951553345, 0.41455078125, 0.1640625, 0.0009765625, 0, 
299, 3073815536, -86.4900131225586, 44.11711502075195, -25.731521606445312, -7.080317497253418, -6.7052998542785645, 0.22683587670326233, -3.324112892150879, -3.898179054260254, -0.3681277930736542, 0.41162109375, 0.1640625, 0.00732421875, 0, 
300, 3073823869, -86.48843383789062, 44.11448287963867, -25.728708267211914, -5.811513900756836, -7.318873405456543, 1.7411303520202637, -3.2033162117004395, -3.2019846439361572, -0.6062889695167542, 0.4130859375, 0.1669921875, 0.00439453125, 0, 
301, 3073832202, -86.49652862548828, 44.11695861816406, -25.741600036621094, -6.701952934265137, -7.2993645668029785, -0.2672472298145294, -3.0168447494506836, -1.8458900451660156, -0.06050083413720131, 0.41162109375, 0.16455078125, 0.00244140625, 0, 
302, 3073840535, -86.49160766601562, 44.119075775146484, -25.73834991455078, -7.684536933898926, -6.5940070152282715, -0.3109035789966583, -2.8402090072631836, -3.2043919563293457, -0.03404131904244423, 0.41015625, 0.16259765625, 0.0078125, 0, 
303, 3073848868, -86.48453521728516, 44.117549896240234, -25.728588104248047, -6.60737419128418, -6.8740925788879395, 0.7971013784408569, -3.0814692974090576, -3.8209781646728516, -0.4197404384613037, 0.41015625, 0.16650390625, 0.0029296875, 0, 
304, 3073857201, -86.49235534667969, 44.11585235595703, -25.733617782592773, -6.046207904815674, -7.288827419281006, 1.129718542098999, -3.6361711025238037, -2.5481553077697754, -0.5210703611373901, 0.41064453125, 0.16162109375, 0.0078125, 0, 
305, 3073865534, -86.49591827392578, 44.1176872253418, -25.742740631103516, -7.217521667480469, -7.1586737632751465, -0.4126698076725006, -2.821587562561035, -2.1432199478149414, -0.13209262490272522, 0.4140625, 0.16748046875, 0.00634765625, 0, 
306, 3073873867, -86.48684692382812, 44.117008209228516, -25.732284545898438, -7.501123905181885, -6.573448657989502, -0.035317715257406235, -2.9432036876678467, -3.8457469940185547, -0.32947590947151184, 0.41162109375, 0.16455078125, 0.00634765625, 0, 
307, 3073882200, -86.48059844970703, 44.11252975463867, -25.722694396972656, -6.096161365509033, -7.226040363311768, 1.443723201751709, -3.167405128479004, -3.8273558616638184, -0.7753942012786865, 0.412109375, 0.1650390625, 0.00732421875, 0, 
308, 3073890533, -86.4891128540039, 44.113494873046875, -25.734180450439453, -6.304914951324463, -7.317533493041992, 0.22084097564220428, -3.2204771041870117, -1.9469889402389526, -0.2490471601486206, 0.412109375, 0.1650390625, 0.00244140625, 0, 
309, 3073898866, -86.49217224121094, 44.116451263427734, -25.74289894104004, -7.540779113769531, -6.864230632781982, -0.40243837237358093, -2.758089780807495, -2.1980857849121094, 0.017097502946853638, 0.412109375, 0.1650390625, 0.0107421875, 0, 
310, 3073907199, -86.48771667480469, 44.11546325683594, -25.733388900756836, -7.157129764556885, -6.495736598968506, 0.1402367204427719, -3.3758795261383057, -3.793647527694702, -0.3585480749607086, 0.4130859375, 0.166015625, 0.00390625, 0, 
311, 3073915532, -86.48511505126953, 44.11088562011719, -25.728792190551758, -5.9761505126953125, -7.260353088378906, 1.7580204010009766, -3.2287769317626953, -3.3692705631256104, -0.8294146060943604, 0.41064453125, 0.1640625, 0.00830078125, 0, 
312, 3073923865, -86.49163055419922, 44.111732482910156, -25.73859405517578, -6.749209403991699, -7.350649356842041, -0.3053325116634369, -3.1201083660125732, -2.0921578407287598, -0.2548231780529022, 0.4150390625, 0.16552734375, 0.0068359375, 0, 
313, 3073932198, -86.4898681640625, 44.11232376098633, -25.738502502441406, -7.6537628173828125, -6.803563117980957, -0.184642031788826, -2.9102509021759033, -2.972083568572998, -0.21652992069721222, 0.41259765625, 0.1650390625, 0.0029296875, 0, 
314, 3073940531, -86.48107147216797, 44.11043167114258, -25.7276554107666, -6.545200824737549, -6.883893013000488, 0.6158212423324585, -3.0082383155822754, -3.8892650604248047, -0.47452932596206665, 0.412109375, 0.16455078125, 0.00927734375, 0, 
315, 3073948864, -86.48719787597656, 44.1090087890625, -25.733060836791992, -5.963045120239258, -7.18989372253418, 1.254825472831726, -3.400290012359619, -2.5141143798828125, -0.4869522452354431, 0.41357421875, 0.1650390625, 0.00244140625, 0, 
316, 3073957197, -86.49191284179688, 44.11133575439453, -25.743682861328125, -7.182629585266113, -7.065792560577393, -0.40025874972343445, -2.8006350994110107, -2.0401995182037354, -0.0669812336564064, 0.4111328125, 0.16259765625, 0.009765625, 0, 
317, 3073965530, -86.48303985595703, 44.110382080078125, -25.7334041595459, -7.570911884307861, -6.5095014572143555, -0.11026379466056824, -2.950017213821411, -3.8331193923950195, -0.36600181460380554, 0.4130859375, 0.166015625, 0.0048828125, 0, 
318, 3073973863, -86.47587585449219, 44.107147216796875, -25.722936630249023, -6.248435020446777, -7.2284393310546875, 1.3432317972183228, -3.170863151550293, -3.8653676509857178, -0.6354635953903198, 0.41357421875, 0.16259765625, 0.0068359375, 0, 
319, 3073982196, -86.48613739013672, 44.10728073120117, -25.73331642150879, -6.2801833152771, -7.388539791107178, 0.43945130705833435, -3.489452838897705, -2.0787487030029297, -0.3312945067882538, 0.41650390625, 0.1640625, 0.009765625, 0, 
320, 3073990529, -86.48786163330078, 44.110565185546875, -25.740352630615234, -7.378793239593506, -7.04775857925415, -0.32393816113471985, -2.7767627239227295, -2.3120436668395996, 0.052496377378702164, 0.416015625, 0.16650390625, 0.00341796875, 0, 
321, 3073998862, -86.48100280761719, 44.111595153808594, -25.72966194152832, -7.088468551635742, -6.555198669433594, 0.1256849318742752, -3.18556547164917, -3.8829643726348877, -0.10906542092561722, 0.41015625, 0.16357421875, 0.00830078125, 0, 
322, 3074007195, -86.47730255126953, 44.10859298706055, -25.724384307861328, -5.984130859375, -7.192551136016846, 1.7090390920639038, -3.1127190589904785, -3.443936586380005, -0.6215038299560547, 0.4140625, 0.16357421875, 0.0029296875, 0, 
323, 3074015528, -86.48373413085938, 44.109249114990234, -25.734071731567383, -6.75284481048584, -7.223301410675049, -0.2963395118713379, -3.1207103729248047, -2.103722333908081, -0.2768898606300354, 0.4091796875, 0.1630859375, 0.00732421875, 0, 
324, 3074023861, -86.48290252685547, 44.110565185546875, -25.735145568847656, -7.638267993927002, -6.791083812713623, -0.21541696786880493, -2.9663586616516113, -2.8396196365356445, -0.15353170037269592, 0.41455078125, 0.1650390625, 0.00537109375, 0, 
325, 3074032194, -86.47805786132812, 44.10982131958008, -25.725704193115234, -6.678995132446289, -6.895713806152344, 0.6045816540718079, -3.3275704383850098, -3.7854766845703125, -0.3281695544719696, 0.41015625, 0.16357421875, 0.00634765625, 0, 
326, 3074040527, -86.4842758178711, 44.10799026489258, -25.729400634765625, -6.000099182128906, -7.351768970489502, 1.4833027124404907, -3.597301959991455, -2.637254476547241, -0.5444689989089966, 0.41064453125, 0.1650390625, 0.0146484375, 0, 
327, 3074048860, -86.49099731445312, 44.11100769042969, -25.740346908569336, -7.0636982917785645, -7.248266696929932, -0.4785892367362976, -3.0101852416992188, -2.006542682647705, 0.013434667140245438, 0.41259765625, 0.1669921875, 0.01220703125, 0, 
328, 3074057193, -86.48530578613281, 44.11368179321289, -25.733394622802734, -7.530284404754639, -6.495383262634277, -0.19954928755760193, -3.01733136177063, -3.546419143676758, 0.06919685751199722, 0.41162109375, 0.1640625, 0.015625, 0, 
329, 3074065526, -86.47864532470703, 44.11287307739258, -25.72537612915039, -6.292961597442627, -6.952249050140381, 1.1049405336380005, -3.0286529064178467, -3.63763165473938, -0.35995686054229736, 0.4140625, 0.166015625, 0.01025390625, 0, 
330, 3074073859, -86.48989868164062, 44.112918853759766, -25.736186981201172, -6.254446029663086, -7.235591888427734, 0.7580490708351135, -3.604947328567505, -2.010333299636841, -0.35509011149406433, 0.4111328125, 0.1650390625, 0.0146484375, 0, 
331, 3074082192, -86.4934310913086, 44.11341094970703, -25.74452781677246, -7.452944278717041, -7.122159481048584, -0.38604840636253357, -2.8442306518554688, -2.2485969066619873, -0.27568602561950684, 0.41259765625, 0.166015625, 0.017578125, 0, 
332, 3074090525, -86.48512268066406, 44.113765716552734, -25.732858657836914, -7.26875638961792, -6.681459903717041, 0.06092806160449982, -3.134157657623291, -3.942619562149048, -0.2008156031370163, 0.412109375, 0.1650390625, 0.01123046875, 0, 
333, 3074098858, -86.4805679321289, 44.11116027832031, -25.72661018371582, -5.9323506355285645, -7.256894111633301, 1.7395668029785156, -3.0953526496887207, -3.5283610820770264, -0.5687385201454163, 0.41162109375, 0.162109375, 0.01708984375, 0, 
334, 3074107191, -86.48966217041016, 44.113739013671875, -25.7384033203125, -6.58027982711792, -7.138311862945557, -0.20276881754398346, -3.22475528717041, -1.9349249601364136, -0.04326244071125984, 0.4140625, 0.1650390625, 0.0146484375, 0, 
335, 3074115524, -86.49008178710938, 44.11463165283203, -25.740652084350586, -7.619251251220703, -6.658933162689209, -0.3275485336780548, -3.0180225372314453, -2.7422854900360107, -0.2083461731672287, 0.4111328125, 0.162109375, 0.0146484375, 0, 
336, 3074123857, -86.48522186279297, 44.11297607421875, -25.730390548706055, -6.808699131011963, -6.690420627593994, 0.47671476006507874, -3.4323842525482178, -3.8365254402160645, -0.4497859477996826, 0.412109375, 0.16796875, 0.01611328125, 0, 
337, 3074132190, -86.48998260498047, 44.10953140258789, -25.732776641845703, -5.933414936065674, -7.394701957702637, 1.5755088329315186, -3.4879674911499023, -2.78787899017334, -0.7149701714515686, 0.4130859375, 0.16357421875, 0.01318359375, 0, 
338, 3074140523, -86.49554443359375, 44.1121940612793, -25.743120193481445, -7.044267177581787, -7.354726314544678, -0.5049572587013245, -2.960416555404663, -2.031644582748413, -0.039292238652706146, 0.4111328125, 0.166015625, 0.0185546875, 0, 
339, 3074148856, -86.49021911621094, 44.11333084106445, -25.737133026123047, -7.554392337799072, -6.617488861083984, -0.24306324124336243, -2.9791150093078613, -3.47823429107666, -0.12177009135484695, 0.412109375, 0.16796875, 0.0107421875, 0, 
340, 3074157189, -86.4821548461914, 44.111175537109375, -25.727741241455078, -6.272841930389404, -6.937279224395752, 1.0416600704193115, -2.9352121353149414, -3.7929816246032715, -0.5003740787506104, 0.41015625, 0.16455078125, 0.017578125, 0, 
341, 3074165522, -86.49275207519531, 44.11092758178711, -25.736948013305664, -6.152864933013916, -7.140466213226318, 0.9653487801551819, -3.6583023071289062, -2.152646064758301, -0.3815496861934662, 0.41162109375, 0.1640625, 0.01318359375, 0, 
342, 3074173855, -86.49686431884766, 44.113616943359375, -25.746597290039062, -7.465255260467529, -7.063840389251709, -0.5050207376480103, -2.8441789150238037, -2.091094970703125, -0.032299548387527466, 0.4130859375, 0.16259765625, 0.01318359375, 0, 
343, 3074182188, -86.48873138427734, 44.11246871948242, -25.73404884338379, -7.381948471069336, -6.607151031494141, 0.012041923590004444, -3.195375919342041, -4.058012008666992, -0.3615449070930481, 0.41259765625, 0.16357421875, 0.0166015625, 0, 
344, 3074190521, -86.48392486572266, 44.10951232910156, -25.726707458496094, -5.981883525848389, -7.2918381690979, 1.6361892223358154, -3.1926350593566895, -3.5943944454193115, -0.6210171580314636, 0.41162109375, 0.1650390625, 0.01123046875, 0, 
345, 3074198854, -86.49386596679688, 44.11070251464844, -25.738283157348633, -6.450500965118408, -7.325841426849365, 0.09841141104698181, -3.3444762229919434, -1.9655592441558838, -0.2086791694164276, 0.41162109375, 0.16455078125, 0.015625, 0, 
346, 3074207187, -86.49537658691406, 44.11258316040039, -25.743772506713867, -7.6158671379089355, -6.837287425994873, -0.48737627267837524, -2.844921588897705, -2.484119415283203, -0.09451651573181152, 0.4111328125, 0.16796875, 0.01416015625, 0, 
347, 3074215520, -86.48812103271484, 44.11129379272461, -25.732513427734375, -6.915216445922852, -6.626898288726807, 0.3738543689250946, -3.2232439517974854, -3.919746160507202, -0.3968157470226288, 0.412109375, 0.16064453125, 0.0166015625, 0, 
348, 3074223853, -86.48822784423828, 44.10842514038086, -25.73031997680664, -5.929679870605469, -7.25078821182251, 1.6047343015670776, -3.354670763015747, -3.1510117053985596, -0.6376920342445374, 0.4130859375, 0.166015625, 0.01416015625, 0, 
349, 3074232186, -86.49430847167969, 44.1101188659668, -25.740324020385742, -6.940130710601807, -7.246142387390137, -0.4156573414802551, -3.010312795639038, -2.0961666107177734, -0.13916213810443878, 0.41162109375, 0.1630859375, 0.01171875, 0, 
350, 3074240519, -86.4900894165039, 44.110782623291016, -25.73688507080078, -7.644603252410889, -6.65192174911499, -0.2004202902317047, -2.938849449157715, -3.231466293334961, -0.20796197652816772, 0.412109375, 0.1640625, 0.01806640625, 0, 
351, 3074248852, -86.4837646484375, 44.10805892944336, -25.727922439575195, -6.385554313659668, -7.016704559326172, 0.939453661441803, -3.108851194381714, -3.7601699829101562, -0.5696606040000916, 0.4130859375, 0.1669921875, 0.01123046875, 0, 
352, 3074257185, -86.49272155761719, 44.10660171508789, -25.73600196838379, -6.001217842102051, -7.363855361938477, 1.0657213926315308, -3.5159640312194824, -2.2852509021759033, -0.5081096291542053, 0.41064453125, 0.16455078125, 0.01806640625, 0, 
353, 3074265518, -86.49642944335938, 44.108863830566406, -25.744970321655273, -7.3513617515563965, -7.103447437286377, -0.5095532536506653, -2.8531181812286377, -2.1521847248077393, -0.07914798706769943, 0.4140625, 0.16455078125, 0.01416015625, 0, 
354, 3074273851, -86.48883056640625, 44.10941696166992, -25.73501205444336, -7.482540130615234, -6.454733371734619, -0.0717301219701767, -3.077396869659424, -3.7950308322906494, -0.18524214625358582, 0.41064453125, 0.16357421875, 0.0166015625, 0, 
355, 3074282184, -86.48391723632812, 44.10576248168945, -25.726383209228516, -6.034144878387451, -7.176325798034668, 1.5471457242965698, -3.2477056980133057, -3.7355546951293945, -0.6836183071136475, 0.412109375, 0.1630859375, 0.0185546875, 0, 
356, 3074290517, -86.49530029296875, 44.106788635253906, -25.73967933654785, -6.431229114532471, -7.344577789306641, 0.22143007814884186, -3.4118540287017822, -1.7908830642700195, -0.25180068612098694, 0.41259765625, 0.16552734375, 0.0107421875, 0, 
357, 3074298850, -86.49779510498047, 44.10826873779297, -25.745643615722656, -7.643617630004883, -6.9711198806762695, -0.4261508584022522, -2.921931028366089, -2.4454805850982666, -0.14427217841148376, 0.41064453125, 0.16357421875, 0.0166015625, 0, 
358, 3074307183, -86.489990234375, 44.107826232910156, -25.733196258544922, -6.941205024719238, -6.728899955749512, 0.30261972546577454, -3.2189791202545166, -4.045243263244629, -0.27674898505210876, 0.4150390625, 0.16552734375, 0.01171875, 0, 
359, 3074315516, -86.48955535888672, 44.106224060058594, -25.732295989990234, -5.810308933258057, -7.2348456382751465, 1.6171400547027588, -3.1808271408081055, -3.0308303833007812, -0.49115297198295593, 0.412109375, 0.16357421875, 0.01611328125, 0, 
360, 3074323849, -86.49872589111328, 44.10932922363281, -25.744781494140625, -6.8567938804626465, -7.175282001495361, -0.2582165002822876, -3.214406967163086, -1.8454031944274902, 0.00029456368065439165, 0.41455078125, 0.1650390625, 0.01611328125, 0, 
361, 3074332182, -86.49668884277344, 44.10990524291992, -25.742694854736328, -7.729772567749023, -6.64888858795166, -0.3106679916381836, -3.0485806465148926, -3.1464526653289795, -0.20791076123714447, 0.41259765625, 0.16357421875, 0.01416015625, 0, 
362, 3074340515, -86.48942565917969, 44.10749053955078, -25.73244285583496, -6.549972057342529, -6.984990119934082, 0.8593978881835938, -3.140254020690918, -3.8417508602142334, -0.5408958196640015, 0.4130859375, 0.1640625, 0.017578125, 0, 
363, 3074348848, -86.49776458740234, 44.106143951416016, -25.739620208740234, -6.015827178955078, -7.374271869659424, 1.1188344955444336, -3.5199851989746094, -2.362401008605957, -0.48802807927131653, 0.41357421875, 0.166015625, 0.01171875, 0, 
364, 3074357181, -86.50142669677734, 44.10856246948242, -25.74876594543457, -7.1548171043396, -7.157989978790283, -0.4113980531692505, -2.7946925163269043, -2.1657862663269043, -0.048897579312324524, 0.41064453125, 0.1640625, 0.01611328125, 0, 
365, 3074365514, -86.4942398071289, 44.109466552734375, -25.738985061645508, -7.446774482727051, -6.497665882110596, -0.13617916405200958, -3.111719846725464, -3.7753849029541016, -0.1451558768749237, 0.4140625, 0.1669921875, 0.01318359375, 0, 
366, 3074373847, -86.48908996582031, 44.10649871826172, -25.73120880126953, -6.0744757652282715, -7.110687732696533, 1.4049125909805298, -3.1880502700805664, -3.6318681240081787, -0.6179434657096863, 0.4130859375, 0.1611328125, 0.01220703125, 0, 
367, 3074382180, -86.4987564086914, 44.10578155517578, -25.742488861083984, -6.428967475891113, -7.276366233825684, 0.2904246151447296, -3.33412766456604, -2.006823778152466, -0.43549320101737976, 0.412109375, 0.166015625, 0.01513671875, 0, 
368, 3074390513, -86.49960327148438, 44.10701370239258, -25.747941970825195, -7.647903919219971, -6.966003894805908, -0.4196617901325226, -2.804220676422119, -2.4644734859466553, -0.186702162027359, 0.41259765625, 0.1640625, 0.0107421875, 0, 
369, 3074398846, -86.492919921875, 44.106815338134766, -25.736770629882812, -7.044892311096191, -6.653837203979492, 0.1738268882036209, -3.24906325340271, -3.931631088256836, -0.25411882996559143, 0.412109375, 0.162109375, 0.01953125, 0, 
370, 3074407179, -86.49305725097656, 44.104183197021484, -25.73436164855957, -5.840983867645264, -7.245119571685791, 1.7898976802825928, -3.3353450298309326, -3.1951839923858643, -0.5925213098526001, 0.41455078125, 0.16650390625, 0.0126953125, 0, 
371, 3074415512, -86.50057983398438, 44.106475830078125, -25.745073318481445, -6.739936828613281, -7.266829967498779, -0.18956832587718964, -3.1649839878082275, -2.00345516204834, -0.08707557618618011, 0.40966796875, 0.16357421875, 0.0166015625, 0, 
372, 3074423845, -86.49903106689453, 44.10778045654297, -25.744140625, -7.675238132476807, -6.713236331939697, -0.3630083501338959, -3.049349308013916, -3.012669563293457, -0.14405447244644165, 0.412109375, 0.166015625, 0.01416015625, 0, 
373, 3074432178, -86.492431640625, 44.10614013671875, -25.73411750793457, -6.64693021774292, -6.838322162628174, 0.7283170223236084, -3.1617186069488525, -3.8424429893493652, -0.4328037202358246, 0.41015625, 0.16162109375, 0.0126953125, 0, 
374, 3074440511, -86.49816131591797, 44.10441207885742, -25.738222122192383, -5.985013961791992, -7.270129680633545, 1.3078405857086182, -3.5011332035064697, -2.6015353202819824, -0.5327248573303223, 0.41064453125, 0.16357421875, 0.01611328125, 0, 
375, 3074448844, -86.50221252441406, 44.10606384277344, -25.747934341430664, -7.161070346832275, -7.206522464752197, -0.34764885902404785, -2.7925407886505127, -2.1213455200195312, -0.14448989927768707, 0.4130859375, 0.16796875, 0.01123046875, 0, 
376, 3074457177, -86.49707794189453, 44.10702896118164, -25.739978790283203, -7.515434741973877, -6.588628768920898, -0.2133609503507614, -3.167635679244995, -3.6469802856445312, -0.13419298827648163, 0.412109375, 0.16015625, 0.01904296875, 0, 
377, 3074465510, -86.49002075195312, 44.104854583740234, -25.729835510253906, -6.132542610168457, -7.124779224395752, 1.3697274923324585, -3.1579408645629883, -3.8301608562469482, -0.5093775391578674, 0.41162109375, 0.1640625, 0.00439453125, 0, 
378, 3074473843, -86.4985580444336, 44.10585021972656, -25.74056625366211, -6.256239414215088, -7.2459282875061035, 0.4302838444709778, -3.2830018997192383, -2.0115883350372314, -0.24164468050003052, 0.41357421875, 0.1630859375, 0.00244140625, 0, 
379, 3074482176, -86.50267791748047, 44.1079216003418, -25.748096466064453, -7.541861534118652, -6.957920551300049, -0.3720884621143341, -2.984135150909424, -2.306664228439331, -0.08091536164283752, 0.41162109375, 0.16455078125, 0.0048828125, 0, 
380, 3074490509, -86.49504089355469, 44.108154296875, -25.73660659790039, -7.222325325012207, -6.541252136230469, 0.09652041643857956, -3.198270082473755, -3.927635431289673, -0.21638906002044678, 0.4130859375, 0.1640625, -0.00048828125, 0, 
381, 3074498842, -86.4915771484375, 44.10380172729492, -25.73008918762207, -5.921865463256836, -7.322920799255371, 1.7417540550231934, -3.2497808933258057, -3.5632731914520264, -0.7778019905090332, 0.41015625, 0.16259765625, 0.005859375, 0, 
382, 3074507175, -86.49986267089844, 44.10469436645508, -25.741268157958984, -6.679059028625488, -7.347772598266602, -0.14060452580451965, -3.1781885623931885, -2.0014963150024414, -0.24143977463245392, 0.41259765625, 0.16552734375, 0.0009765625, 0, 
383, 3074515508, -86.50074005126953, 44.1073112487793, -25.743337631225586, -7.6108527183532715, -6.776401996612549, -0.3611801266670227, -3.0896148681640625, -2.742823362350464, -0.0020235246047377586, 0.4091796875, 0.16162109375, 0.00439453125, 0, 
384, 3074523841, -86.49378967285156, 44.10695266723633, -25.73350715637207, -6.625168323516846, -6.764155864715576, 0.5196778774261475, -3.142892360687256, -3.7907276153564453, -0.2947942614555359, 0.4130859375, 0.16357421875, 0.00390625, 0, 
385, 3074532174, -86.4989242553711, 44.104888916015625, -25.737152099609375, -5.95060396194458, -7.218589782714844, 1.5657404661178589, -3.429771900177002, -2.6700022220611572, -0.5570328235626221, 0.41259765625, 0.16259765625, 0.001953125, 0, 
386, 3074540507, -86.504638671875, 44.10643005371094, -25.74739646911621, -7.209156036376953, -7.216780185699463, -0.4284195303916931, -2.985518217086792, -2.049855947494507, -0.1729729324579239, 0.4140625, 0.1640625, 0.00927734375, 0, 
387, 3074548840, -86.49933624267578, 44.10612487792969, -25.74004364013672, -7.630320072174072, -6.666633129119873, -0.27163761854171753, -3.104240655899048, -3.6065871715545654, -0.2883394658565521, 0.41455078125, 0.1640625, 0.0029296875, 0, 
388, 3074557173, -86.49134826660156, 44.1040153503418, -25.73114013671875, -6.249168872833252, -7.092092037200928, 1.1494892835617065, -2.9066264629364014, -3.757301092147827, -0.4963526725769043, 0.41259765625, 0.16259765625, 0.00927734375, 0, 
389, 3074565506, -86.50225067138672, 44.104061126708984, -25.742443084716797, -6.116017818450928, -7.224233150482178, 0.8597266674041748, -3.5214450359344482, -1.9693759679794312, -0.35844558477401733, 0.412109375, 0.1650390625, 0.0048828125, 0, 
390, 3074573839, -86.50508117675781, 44.10726547241211, -25.75071144104004, -7.337989807128906, -7.090780258178711, -0.41008904576301575, -2.8061163425445557, -2.2066919803619385, 0.03533484414219856, 0.41162109375, 0.162109375, 0.00732421875, 0, 
391, 3074582172, -86.49895477294922, 44.10844039916992, -25.739990234375, -7.303632736206055, -6.502490520477295, -0.15818853676319122, -3.262638568878174, -3.865213394165039, -0.09341510385274887, 0.41455078125, 0.1640625, 0.01025390625, 0, 
392, 3074590505, -86.4930191040039, 44.10499954223633, -25.73221206665039, -6.077632904052734, -7.176753997802734, 1.7159444093704224, -3.094686508178711, -3.6348392963409424, -0.6749351024627686, 0.4140625, 0.166015625, 0.00390625, 0, 
393, 3074598838, -86.50220489501953, 44.106658935546875, -25.743555068969727, -6.592541217803955, -7.228493690490723, -0.016243578866124153, -3.260820150375366, -1.9719116687774658, -0.1536085605621338, 0.4091796875, 0.16357421875, 0.0107421875, 0, 
394, 3074607171, -86.50299835205078, 44.10784149169922, -25.747297286987305, -7.617003917694092, -6.931909561157227, -0.33214306831359863, -2.897930383682251, -2.6359479427337646, -0.16809341311454773, 0.41455078125, 0.166015625, 0.00439453125, 0, 
395, 3074615504, -86.49559020996094, 44.10774230957031, -25.735857009887695, -6.794290065765381, -6.74442720413208, 0.3522549271583557, -3.222219467163086, -3.9273788928985596, -0.25455424189567566, 0.41064453125, 0.1611328125, 0.00830078125, 0, 
396, 3074623837, -86.4968490600586, 44.105403900146484, -25.734962463378906, -5.8396220207214355, -7.303636074066162, 1.7456340789794922, -3.3846139907836914, -3.033724546432495, -0.5822372436523438, 0.412109375, 0.16357421875, 0.0048828125, 0, 
397, 3074632170, -86.50377655029297, 44.107391357421875, -25.746206283569336, -6.974276542663574, -7.213772773742676, -0.43622690439224243, -2.9967119693756104, -1.9775214195251465, -0.11021806299686432, 0.4130859375, 0.16357421875, 0.00439453125, 0, 
398, 3074640503, -86.49852752685547, 44.108463287353516, -25.74140739440918, -7.666135787963867, -6.590293884277344, -0.3915347158908844, -2.9279119968414307, -3.3470892906188965, -0.15045802295207977, 0.41259765625, 0.16357421875, 0.00927734375, 0, 
399, 3074648836, -86.49175262451172, 44.106910705566406, -25.7309513092041, -6.428133964538574, -6.844883918762207, 0.9273409843444824, -3.145172119140625, -3.846412420272827, -0.4235825836658478, 0.412109375, 0.16455078125, 0.001953125, 0, 
400, 3074657169, -86.50069427490234, 44.103694915771484, -25.73944091796875, -6.067659378051758, -7.269879341125488, 1.2819342613220215, -3.484919548034668, -2.2671163082122803, -0.7199649810791016, 0.41162109375, 0.16162109375, 0.00927734375, 0, 
401, 3074665502, -86.50579833984375, 44.10488510131836, -25.74931526184082, -7.3282036781311035, -7.296252250671387, -0.488036185503006, -2.9467129707336426, -2.082975387573242, -0.21423748135566711, 0.4130859375, 0.16796875, 0.0048828125, 0, 
402, 3074673835, -86.49647521972656, 44.1059455871582, -25.738052368164062, -7.379788875579834, -6.666891574859619, -0.22859036922454834, -2.978602886199951, -3.9036355018615723, -0.11779987066984177, 0.4130859375, 0.1640625, 0.00537109375, 0, 
403, 3074682168, -86.48941040039062, 44.104148864746094, -25.73026466369629, -5.977231502532959, -7.1191487312316895, 1.5752261877059937, -2.9202277660369873, -3.651155471801758, -0.4618246257305145, 0.412109375, 0.16455078125, 0.00927734375, 0, 
404, 3074690501, -86.50003814697266, 44.10562515258789, -25.742359161376953, -6.402041912078857, -7.100761890411377, 0.28657251596450806, -3.4240596294403076, -1.8904584646224976, -0.19302885234355927, 0.412109375, 0.162109375, 0.00244140625, 0, 
405, 3074698834, -86.50379180908203, 44.1072998046875, -25.74930191040039, -7.614393711090088, -6.927173614501953, -0.5080446600914001, -2.96781849861145, -2.3399112224578857, -0.1262013167142868, 0.41015625, 0.16357421875, 0.01025390625, 0, 
406, 3074707167, -86.49639129638672, 44.107215881347656, -25.73715591430664, -7.061922073364258, -6.616211891174316, 0.07898357510566711, -3.239278554916382, -4.013136386871338, -0.23557411134243011, 0.4140625, 0.166015625, 0.001953125, 0, 
407, 3074715500, -86.4937973022461, 44.10414505004883, -25.733314514160156, -5.911407947540283, -7.360579013824463, 1.9067014455795288, -3.167917490005493, -3.292044162750244, -0.652804434299469, 0.4111328125, 0.16357421875, 0.0068359375, 0, 
408, 3074723833, -86.50330352783203, 44.10578155517578, -25.746423721313477, -6.771983623504639, -7.304776668548584, -0.2642025351524353, -3.203444004058838, -1.8025505542755127, -0.17645645141601562, 0.4130859375, 0.16455078125, 0.00830078125, 0, 
409, 3074732166, -86.50080871582031, 44.107513427734375, -25.745376586914062, -7.59427547454834, -6.759315013885498, -0.4170921742916107, -2.928654909133911, -3.0705833435058594, -0.07717569917440414, 0.41162109375, 0.1630859375, 0.0048828125, 0, 
410, 3074740499, -86.49437713623047, 44.107574462890625, -25.736392974853516, -6.568169116973877, -6.7135467529296875, 0.6064056158065796, -3.1360020637512207, -3.7130393981933594, -0.24981564283370972, 0.412109375, 0.1630859375, 0.0087890625, 0, 
411, 3074748832, -86.50187683105469, 44.1057014465332, -25.741355895996094, -5.980704307556152, -7.235597610473633, 1.5129863023757935, -3.57951283454895, -2.53242826461792, -0.5426888465881348, 0.41455078125, 0.16455078125, 0.00439453125, 0, 
412, 3074757165, -86.51004791259766, 44.107398986816406, -25.75304412841797, -7.309102535247803, -7.163866996765137, -0.5336862206459045, -3.119736671447754, -1.946041464805603, -0.14815272390842438, 0.41259765625, 0.16259765625, 0.0087890625, 0, 
413, 3074765498, -86.50284576416016, 44.107025146484375, -25.74415397644043, -7.51737642288208, -6.678895473480225, -0.28469255566596985, -3.034621000289917, -3.7089924812316895, -0.3027346730232239, 0.4169921875, 0.16796875, 0.00732421875, 0, 
414, 3074773831, -86.49522399902344, 44.10508728027344, -25.734113693237305, -6.102974891662598, -7.115993022918701, 1.3605653047561646, -3.079932451248169, -3.8202097415924072, -0.4824185073375702, 0.41259765625, 0.16357421875, 0.00732421875, 0, 
415, 3074782164, -86.50634002685547, 44.104915618896484, -25.74497413635254, -6.226538181304932, -7.269967079162598, 0.8825015425682068, -3.510302782058716, -2.001675605773926, -0.3701512813568115, 0.4150390625, 0.16455078125, 0.00830078125, 0, 
416, 3074790497, -86.5111312866211, 44.107181549072266, -25.754837036132812, -7.549524307250977, -7.136237144470215, -0.5476614832878113, -2.908777952194214, -2.0764691829681396, -0.08370731770992279, 0.41259765625, 0.16455078125, 0.00439453125, 0, 
417, 3074798830, -86.50471496582031, 44.107112884521484, -25.744047164916992, -7.270825386047363, -6.500676155090332, -0.22977574169635773, -3.2492170333862305, -3.901022434234619, -0.24159348011016846, 0.41162109375, 0.1630859375, 0.009765625, 0, 
418, 3074807163, -86.50106048583984, 44.10476303100586, -25.738061904907227, -5.958061695098877, -7.081954002380371, 1.9222558736801147, -3.1796491146087646, -3.498981475830078, -0.5409470200538635, 0.4150390625, 0.166015625, 0.0048828125, 0, 
419, 3074815496, -86.51103973388672, 44.104331970214844, -25.75191879272461, -6.61356258392334, -7.172451019287109, 0.1123756393790245, -3.1946842670440674, -1.7526795864105225, -0.4295763075351715, 0.41015625, 0.162109375, 0.0087890625, 0, 
420, 3074823829, -86.51307678222656, 44.10496139526367, -25.755592346191406, -7.664191722869873, -7.020874977111816, -0.5068496465682983, -3.0924062728881836, -2.6213605403900146, -0.24656260013580322, 0.41552734375, 0.16552734375, 0.0078125, 0, 
421, 3074832162, -86.5051040649414, 44.10429382324219, -25.743696212768555, -6.793492794036865, -6.819914817810059, 0.3729241192340851, -3.159285068511963, -3.993975877761841, -0.31082871556282043, 0.4140625, 0.1650390625, 0.01123046875, 0, 
422, 3074840495, -86.50823211669922, 44.1021614074707, -25.74659538269043, -5.808161735534668, -7.326845169067383, 1.8422883749008179, -3.288663148880005, -2.709012746810913, -0.5739125609397888, 0.41064453125, 0.16357421875, 0.01416015625, 0, 
423, 3074848828, -86.51561737060547, 44.104068756103516, -25.75918197631836, -7.046276092529297, -7.096266269683838, -0.40059182047843933, -2.941718339920044, -1.8581591844558716, -0.12825047969818115, 0.412109375, 0.166015625, 0.01123046875, 0, 
424, 3074857161, -86.51390075683594, 44.10493469238281, -25.75623321533203, -7.651182174682617, -6.57839298248291, -0.5763456225395203, -3.15779972076416, -3.2171735763549805, -0.17212766408920288, 0.40966796875, 0.16552734375, 0.01611328125, 0, 
425, 3074865494, -86.50447845458984, 44.10272979736328, -25.742979049682617, -6.32096529006958, -6.853870391845703, 0.9798906445503235, -3.133875846862793, -4.097996234893799, -0.4988372027873993, 0.412109375, 0.16552734375, 0.01416015625, 0, 
426, 3074873827, -86.51507568359375, 44.09970474243164, -25.75143814086914, -5.995520114898682, -7.4026288986206055, 1.372305154800415, -3.7213902473449707, -2.2367119789123535, -0.710231602191925, 0.4130859375, 0.1630859375, 0.01513671875, 0, 
427, 3074882160, -86.52239227294922, 44.10177230834961, -25.763427734375, -7.353747367858887, -7.311257362365723, -0.5893530249595642, -2.991666078567505, -1.920222520828247, -0.10491591691970825, 0.41259765625, 0.1650390625, 0.017578125, 0, 
428, 3074890493, -86.51303100585938, 44.10335922241211, -25.752351760864258, -7.396645545959473, -6.593259334564209, -0.437026709318161, -2.957803964614868, -3.883194923400879, -0.05632570758461952, 0.41455078125, 0.166015625, 0.01171875, 0, 
429, 3074898826, -86.50687408447266, 44.10213088989258, -25.744922637939453, -5.944952487945557, -7.047776699066162, 1.7084684371948242, -3.0015017986297607, -3.6175243854522705, -0.39909541606903076, 0.41162109375, 0.1640625, 0.015625, 0, 
430, 3074907159, -86.51836395263672, 44.10209655761719, -25.757753372192383, -6.388674259185791, -7.092073917388916, 0.5065800547599792, -3.4272356033325195, -1.8638197183609009, -0.36046910285949707, 0.41650390625, 0.16455078125, 0.013671875, 0, 
431, 3074915492, -86.52236938476562, 44.103919982910156, -25.765518188476562, -7.732876300811768, -7.0267815589904785, -0.7377779483795166, -2.9897701740264893, -2.261045455932617, -0.12689290940761566, 0.41064453125, 0.1591796875, 0.015625, 0, 
432, 3074923825, -86.5135726928711, 44.104026794433594, -25.75271224975586, -7.1217942237854, -6.649228572845459, 0.035667985677719116, -3.1698384284973145, -4.042054653167725, -0.22397089004516602, 0.41162109375, 0.1650390625, 0.017578125, 0, 
433, 3074932158, -86.51099395751953, 44.101295471191406, -25.74870491027832, -5.748408317565918, -7.329532623291016, 2.0246098041534424, -3.144378185272217, -3.337406873703003, -0.5966836810112, 0.4111328125, 0.16455078125, 0.013671875, 0, 
434, 3074940491, -86.52027130126953, 44.10393524169922, -25.761598587036133, -6.715786457061768, -7.304234981536865, 0.0015542590990662575, -3.194530487060547, -1.813462257385254, -0.055403586477041245, 0.4111328125, 0.1640625, 0.0205078125, 0, 
435, 3074948824, -86.51922607421875, 44.105857849121094, -25.763010025024414, -7.794236183166504, -6.797573089599609, -0.717089831829071, -2.8780407905578613, -2.833933115005493, -0.065931037068367, 0.4140625, 0.16748046875, 0.0126953125, 0, 
436, 3074957157, -86.51143646240234, 44.10622024536133, -25.751144409179688, -6.760112762451172, -6.652498722076416, 0.5642094612121582, -3.1764214038848877, -3.986164093017578, -0.18734252452850342, 0.41015625, 0.16162109375, 0.0185546875, 0, 
437, 3074965490, -86.5138931274414, 44.10369110107422, -25.75216293334961, -5.87026834487915, -7.2564921379089355, 1.690447449684143, -3.3652751445770264, -2.873020648956299, -0.6112581491470337, 0.41455078125, 0.16552734375, 0.01318359375, 0, 
438, 3074973823, -86.52127838134766, 44.10476303100586, -25.764015197753906, -7.218077182769775, -7.198765754699707, -0.4849605858325958, -3.0532681941986084, -1.9144337177276611, -0.23898082971572876, 0.41162109375, 0.1650390625, 0.01318359375, 0, 
439, 3074982156, -86.51448822021484, 44.10496139526367, -25.75595474243164, -7.6630730628967285, -6.687098979949951, -0.4464130401611328, -2.9810359477996826, -3.6633481979370117, -0.22338175773620605, 0.41259765625, 0.1650390625, 0.01611328125, 0, 
440, 3074990489, -86.5044937133789, 44.10275650024414, -25.74345588684082, -6.10752010345459, -7.08428955078125, 1.3262579441070557, -3.0004000663757324, -4.032397747039795, -0.5008606910705566, 0.4140625, 0.166015625, 0.01123046875, 0, 
441, 3074998822, -86.51586151123047, 44.102569580078125, -25.75543212890625, -6.065566539764404, -7.3194499015808105, 0.9884641766548157, -3.482536792755127, -1.9387669563293457, -0.3768366277217865, 0.41162109375, 0.16259765625, 0.01513671875, 0, 
442, 3075007155, -86.51950073242188, 44.10496139526367, -25.763256072998047, -7.599268436431885, -7.071423053741455, -0.7234163284301758, -2.901580572128296, -2.279513120651245, -0.0429038405418396, 0.41455078125, 0.1650390625, 0.01171875, 0, 
443, 3075015488, -86.51127624511719, 44.105194091796875, -25.751422882080078, -7.397614479064941, -6.383769989013672, -0.21588234603405, -3.158978223800659, -3.958731174468994, -0.21585117280483246, 0.4111328125, 0.1630859375, 0.01904296875, 0, 
444, 3075023821, -86.50695037841797, 44.10155487060547, -25.743013381958008, -5.881331920623779, -7.128474712371826, 1.8863118886947632, -3.340506076812744, -3.6916003227233887, -0.695144772529602, 0.412109375, 0.16650390625, 0.015625, 0, 
445, 3075032154, -86.51882934570312, 44.1016731262207, -25.757843017578125, -6.415157318115234, -7.3055524826049805, 0.2424575388431549, -3.3072333335876465, -1.6938437223434448, -0.35667821764945984, 0.41357421875, 0.16357421875, 0.01220703125, 0, 
446, 3075040487, -86.51846313476562, 44.102333068847656, -25.76124382019043, -7.725092887878418, -7.033478260040283, -0.7469134330749512, -2.829092264175415, -2.644925832748413, -0.24295103549957275, 0.4111328125, 0.1650390625, 0.02099609375, 0, 
447, 3075048820, -86.50849151611328, 44.10237503051758, -25.748178482055664, -6.903951168060303, -6.722109794616699, 0.3331220746040344, -3.0098259449005127, -4.094256401062012, -0.21669642627239227, 0.41259765625, 0.166015625, 0.01220703125, 0, 
448, 3075057153, -86.51040649414062, 44.101043701171875, -25.748136520385742, -5.697535991668701, -7.242834568023682, 1.8372364044189453, -3.350111722946167, -2.9823169708251953, -0.4493505656719208, 0.41259765625, 0.1640625, 0.01806640625, 0, 
449, 3075065486, -86.51839447021484, 44.10466384887695, -25.760520935058594, -6.919580936431885, -7.152349948883057, -0.2933594286441803, -3.0814177989959717, -1.849321961402893, 0.06430453807115555, 0.4130859375, 0.16650390625, 0.01318359375, 0, 
450, 3075073819, -86.51495361328125, 44.10545349121094, -25.756288528442383, -7.817005634307861, -6.635183334350586, -0.5906497240066528, -3.097862720489502, -3.299241542816162, -0.18688146770000458, 0.41162109375, 0.1630859375, 0.01416015625, 0, 
451, 3075082152, -86.50716400146484, 44.103370666503906, -25.743919372558594, -6.417741775512695, -6.9776997566223145, 1.0510599613189697, -3.212665319442749, -4.049533367156982, -0.4748879075050354, 0.41259765625, 0.16455078125, 0.01904296875, 0, 
452, 3075090485, -86.51472473144531, 44.102291107177734, -25.75124740600586, -5.868768692016602, -7.416923999786377, 1.3139150142669678, -3.4530036449432373, -2.318779945373535, -0.4729155898094177, 0.412109375, 0.1669921875, 0.01220703125, 0, 
453, 3075098818, -86.52076721191406, 44.1063232421875, -25.761917114257812, -7.308134078979492, -7.238291263580322, -0.5323426723480225, -2.951554298400879, -2.0214755535125732, 0.13599880039691925, 0.41259765625, 0.16357421875, 0.01611328125, 0, 
454, 3075107151, -86.51226043701172, 44.106773376464844, -25.7509765625, -7.581733226776123, -6.448359966278076, -0.23586662113666534, -3.0128231048583984, -3.9049928188323975, -0.1791459619998932, 0.41357421875, 0.16748046875, 0.0126953125, 0, 
455, 3075115484, -86.50416564941406, 44.103614807128906, -25.7399845123291, -6.0158514976501465, -7.081206321716309, 1.593904972076416, -3.1012821197509766, -3.9097442626953125, -0.6253331899642944, 0.41259765625, 0.162109375, 0.017578125, 0, 
456, 3075123817, -86.51512145996094, 44.10346221923828, -25.752689361572266, -6.323627471923828, -7.252044200897217, 0.43969738483428955, -3.4107017517089844, -1.8503339290618896, -0.389810174703598, 0.4140625, 0.16552734375, 0.0146484375, 0, 
457, 3075132150, -86.517822265625, 44.104942321777344, -25.75809097290039, -7.730379581451416, -6.999849796295166, -0.6887525320053101, -2.992408514022827, -2.4952616691589355, -0.14072461426258087, 0.4130859375, 0.16552734375, 0.0146484375, 0, 
458, 3075140483, -86.50968933105469, 44.10439682006836, -25.74580192565918, -7.120339870452881, -6.653731346130371, 0.30120477080345154, -3.206825017929077, -4.003684043884277, -0.30511674284935, 0.4130859375, 0.1640625, 0.01953125, 0, 
459, 3075148816, -86.50878143310547, 44.101280212402344, -25.742713928222656, -5.723731994628906, -7.348453044891357, 1.8041788339614868, -3.268350839614868, -3.259206771850586, -0.6470156311988831, 0.416015625, 0.16455078125, 0.01220703125, 0, 
460, 3075157149, -86.51886749267578, 44.10331344604492, -25.75638771057129, -6.7089362144470215, -7.290384769439697, -0.2140854001045227, -3.187704086303711, -1.7788702249526978, -0.1199130266904831, 0.41015625, 0.1640625, 0.01708984375, 0, 
461, 3075165482, -86.51427459716797, 44.10437774658203, -25.754230499267578, -7.897699356079102, -6.618610382080078, -0.6221634149551392, -2.7870590686798096, -3.1198906898498535, -0.16605708003044128, 0.4140625, 0.1650390625, 0.0146484375, 0, 
462, 3075173815, -86.50526428222656, 44.10224151611328, -25.74078369140625, -6.672778129577637, -6.767858028411865, 0.8751857876777649, -3.1958112716674805, -4.114132404327393, -0.48792555928230286, 0.41064453125, 0.16259765625, 0.0166015625, 0, 
463, 3075182148, -86.51295471191406, 44.09839630126953, -25.747432708740234, -5.8392415046691895, -7.357412338256836, 1.355441689491272, -3.487762451171875, -2.422722578048706, -0.7850763201713562, 0.41259765625, 0.16162109375, 0.01953125, 0, 
464, 3075190481, -86.51800537109375, 44.10062026977539, -25.758272171020508, -7.185678482055664, -7.2328972816467285, -0.4310503900051117, -2.8584718704223633, -1.9942989349365234, -0.09600216150283813, 0.41357421875, 0.166015625, 0.01123046875, 0, 
465, 3075198814, -86.51252746582031, 44.100852966308594, -25.751026153564453, -7.704023838043213, -6.566742897033691, -0.263073205947876, -3.0651276111602783, -3.5881447792053223, -0.2247905433177948, 0.4111328125, 0.16357421875, 0.0185546875, 0, 
466, 3075207147, -86.50314331054688, 44.09727478027344, -25.73887062072754, -6.030703544616699, -7.105724334716797, 1.3689351081848145, -3.006342649459839, -4.0397491455078125, -0.6568002104759216, 0.41162109375, 0.16552734375, 0.01318359375, 0, 
467, 3075215480, -86.51139831542969, 44.096214294433594, -25.749547958374023, -6.137372016906738, -7.23318338394165, 0.4736098647117615, -3.2529819011688232, -2.031644344329834, -0.48613253235816956, 0.41357421875, 0.16357421875, 0.01708984375, 0, 
468, 3075223813, -86.51409912109375, 44.098167419433594, -25.757484436035156, -7.627692699432373, -6.842087745666504, -0.5511979460716248, -2.8174636363983154, -2.245293140411377, -0.11242088675498962, 0.412109375, 0.16650390625, 0.01611328125, 0, 
469, 3075232146, -86.50569915771484, 44.096370697021484, -25.743844985961914, -7.261115074157715, -6.537708759307861, 0.18978193402290344, -3.248730421066284, -4.155345916748047, -0.43331605195999146, 0.412109375, 0.16259765625, 0.01513671875, 0, 
470, 3075240479, -86.5031509399414, 44.093101501464844, -25.738447189331055, -5.793295383453369, -7.379239559173584, 1.6818443536758423, -3.3023157119750977, -3.4304122924804688, -0.6660213470458984, 0.41259765625, 0.1650390625, 0.017578125, 0, 
471, 3075248812, -86.51077270507812, 44.09566116333008, -25.750560760498047, -6.587075710296631, -7.396999359130859, -0.034482624381780624, -3.021250009536743, -1.9071333408355713, -0.052099354565143585, 0.4140625, 0.16455078125, 0.0126953125, 0, 
472, 3075257145, -86.50912475585938, 44.09785842895508, -25.750137329101562, -7.7115654945373535, -6.657583713531494, -0.5314438939094543, -2.95928955078125, -2.992229461669922, -0.024282295256853104, 0.41015625, 0.16357421875, 0.01953125, 0, 
473, 3075265478, -86.49981689453125, 44.096553802490234, -25.737768173217773, -6.6518378257751465, -6.77350378036499, 0.8055857419967651, -3.074451208114624, -4.0160298347473145, -0.39456164836883545, 0.41357421875, 0.16259765625, 0.005859375, 0, 
474, 3075273811, -86.50667572021484, 44.09483337402344, -25.743154525756836, -5.86588191986084, -7.252951622009277, 1.3133078813552856, -3.528411865234375, -2.491471290588379, -0.5380270481109619, 0.412109375, 0.16162109375, 0.001953125, 0, 
475, 3075282144, -86.51396942138672, 44.09733581542969, -25.75417709350586, -7.129228115081787, -7.242185592651367, -0.3243608772754669, -3.0724782943725586, -2.000164031982422, -0.04946108162403107, 0.4150390625, 0.16455078125, 0.00244140625, 0, 
476, 3075290477, -86.508544921875, 44.098480224609375, -25.747190475463867, -7.6924357414245605, -6.623537540435791, -0.17927172780036926, -3.088334083557129, -3.534559726715088, -0.13129858672618866, 0.41455078125, 0.1640625, -0.00048828125, 0, 
477, 3075298810, -86.501953125, 44.09613800048828, -25.736858367919922, -6.167613506317139, -7.18258810043335, 1.3152639865875244, -3.20170259475708, -3.8862428665161133, -0.5160499811172485, 0.41015625, 0.16259765625, 0.00732421875, 0, 
478, 3075307143, -86.51123809814453, 44.09756088256836, -25.747739791870117, -6.032309055328369, -7.398401260375977, 0.6939329504966736, -3.332181215286255, -2.0275204181671143, -0.17771156132221222, 0.4150390625, 0.166015625, 0.00244140625, 0, 
479, 3075315476, -86.5157241821289, 44.10240936279297, -25.757110595703125, -7.457707405090332, -6.937966823577881, -0.4536549150943756, -2.9104177951812744, -2.1016480922698975, 0.22721107304096222, 0.41015625, 0.16455078125, 0.005859375, 0, 
480, 3075323809, -86.51004028320312, 44.10333251953125, -25.748275756835938, -7.3873701095581055, -6.496652603149414, 0.1710561364889145, -3.211538314819336, -3.694366931915283, -0.1458730697631836, 0.4150390625, 0.16552734375, 0.00537109375, 0, 
481, 3075332142, -86.50846099853516, 44.1001091003418, -25.743392944335938, -5.924890041351318, -7.236477851867676, 1.5316851139068604, -3.3319766521453857, -3.4128665924072266, -0.6508065462112427, 0.412109375, 0.1650390625, 0.0029296875, 0, 
482, 3075340475, -86.51496887207031, 44.10202407836914, -25.754409790039062, -6.571577072143555, -7.34808874130249, -0.05649059638381004, -3.0191502571105957, -1.9786230325698853, -0.13314279913902283, 0.412109375, 0.16357421875, 0.0068359375, 0, 
483, 3075348808, -86.51524353027344, 44.10383605957031, -25.75581169128418, -7.693958759307861, -6.758498191833496, -0.2550344467163086, -2.9630794525146484, -2.764646291732788, -0.08386099338531494, 0.4140625, 0.16259765625, 0.00341796875, 0, 
484, 3075357141, -86.50899505615234, 44.10336685180664, -25.745031356811523, -6.705566883087158, -6.8807477951049805, 0.6632567644119263, -3.2407386302948, -3.876279354095459, -0.29243773221969604, 0.4111328125, 0.162109375, 0.00830078125, 0, 
485, 3075365474, -86.51329803466797, 44.10319137573242, -25.74833869934082, -5.889324188232422, -7.288443088531494, 1.2204498052597046, -3.3978052139282227, -2.658245325088501, -0.34212934970855713, 0.41259765625, 0.166015625, 0.0048828125, 0, 
486, 3075373807, -86.5179214477539, 44.10640335083008, -25.759244918823242, -7.062258720397949, -7.116350173950195, -0.37919294834136963, -2.802043914794922, -1.981005072593689, 0.022245964035391808, 0.4150390625, 0.162109375, 0.00634765625, 0, 
487, 3075382140, -86.51264190673828, 44.10726547241211, -25.756122589111328, -7.642082214355469, -6.421757221221924, -0.18648801743984222, -3.0632832050323486, -3.558534860610962, -0.14886993169784546, 0.412109375, 0.1640625, 0.00732421875, 0, 
