sep=,
PacketCounter,SampleTimeFine,Euler_X,Euler_Y,Euler_Z,Acc_X,Acc_Y,Acc_Z,Gyr_X,Gyr_Y,Gyr_Z,Mag_X,Mag_Y,Mag_Z,Status,
0, 3071340635, -85.13475799560547, 36.6612663269043, -60.60773849487305, 0, 0, 0, 0, 0, 0, 0.1259765625, 0.35595703125, 0.8720703125, 0, 
1, 3071348968, -85.12816619873047, 36.65998840332031, -60.59596252441406, -6.398012161254883, -7.714416027069092, 0.8845316767692566, 1.80083429813385, -4.514317035675049, 0.561156690120697, 0.130859375, 0.35986328125, 0.86376953125, 0, 
2, 3071357301, -85.1255874633789, 36.65720748901367, -60.59061050415039, -4.595543384552002, -7.906159400939941, 0.8821296095848083, 1.7878481149673462, -3.917966365814209, 0.36546391248703003, 0.1220703125, 0.35693359375, 0.87109375, 0, 
3, 3071365634, -85.13664245605469, 36.661041259765625, -60.608375549316406, -5.466843605041504, -7.878253936767578, 0.33492934703826904, 1.7989132404327393, -1.6296674013137817, 0.9314361214637756, 0.13037109375, 0.35693359375, 0.87548828125, 0, 
4, 3071373967, -85.13446044921875, 36.66170883178711, -60.60637283325195, -6.755223274230957, -7.607946395874023, 0.6332463622093201, 1.981978178024292, -3.5598535537719727, 0.7534427046775818, 0.12646484375, 0.35888671875, 0.8759765625, 0, 
5, 3071382300, -85.12606811523438, 36.65877151489258, -60.58940124511719, -5.793704509735107, -7.762729644775391, 0.7375739812850952, 1.6438449621200562, -5.030034065246582, 0.40398770570755005, 0.12548828125, 0.35693359375, 0.88720703125, 0, 
6, 3071390633, -85.13114166259766, 36.655853271484375, -60.595855712890625, -4.794960021972656, -7.816847324371338, 0.7774922251701355, 1.7153853178024292, -2.784536361694336, 0.25614234805107117, 0.12841796875, 0.36328125, 0.880859375, 0, 
7, 3071398966, -85.1379165649414, 36.65952682495117, -60.6082649230957, -6.09583044052124, -8.083240509033203, 0.2953817844390869, 1.9317742586135864, -2.1442830562591553, 0.9546425342559814, 0.12255859375, 0.35546875, 0.89453125, 0, 
8, 3071407299, -85.13427734375, 36.6602783203125, -60.60322570800781, -6.5434746742248535, -7.565178394317627, 0.7228638529777527, 1.9364107847213745, -3.8517537117004395, 0.7880476117134094, 0.13134765625, 0.36083984375, 0.8935546875, 0, 
9, 3071415632, -85.12618255615234, 36.657840728759766, -60.58832931518555, -5.120225429534912, -7.907542705535889, 1.04649817943573, 1.758724570274353, -4.825555324554443, 0.4481978714466095, 0.125, 0.35546875, 0.89892578125, 0, 
10, 3071423965, -85.13777160644531, 36.66034698486328, -60.60535430908203, -5.084296703338623, -7.741967678070068, 0.5341600179672241, 1.6931523084640503, -1.7177802324295044, 0.8166074752807617, 0.12548828125, 0.35791015625, 0.90380859375, 0, 
11, 3071432298, -85.13787078857422, 36.66356658935547, -60.608543395996094, -6.487857341766357, -7.8459553718566895, 0.25751349329948425, 2.0687081813812256, -3.0337111949920654, 0.9771829843521118, 0.12451171875, 0.359375, 0.90283203125, 0, 
12, 3071440631, -85.13282775878906, 36.66276550292969, -60.597930908203125, -6.4228620529174805, -7.532589912414551, 0.8568446636199951, 1.7096734046936035, -4.4053802490234375, 0.6479633450508118, 0.12451171875, 0.3583984375, 0.91552734375, 0, 
13, 3071448964, -85.12963104248047, 36.65888214111328, -60.590206146240234, -4.798453330993652, -7.95028829574585, 0.9762355089187622, 1.6829065084457397, -4.154181003570557, 0.21700380742549896, 0.12646484375, 0.361328125, 0.9189453125, 0, 
14, 3071457297, -85.14114379882812, 36.6621208190918, -60.60883331298828, -5.544432640075684, -7.981099605560303, 0.3420875072479248, 1.8146147727966309, -1.5572044849395752, 0.891196072101593, 0.12646484375, 0.35595703125, 0.92724609375, 0, 
15, 3071465630, -85.13766479492188, 36.663333892822266, -60.60626220703125, -6.594415664672852, -7.78363037109375, 0.6386259198188782, 2.0883543491363525, -3.6056265830993652, 0.7829760313034058, 0.130859375, 0.3603515625, 0.92919921875, 0, 
16, 3071473963, -85.12771606445312, 36.661800384521484, -60.58950424194336, -5.759180545806885, -7.765936851501465, 0.6935563683509827, 1.8553673028945923, -5.002370834350586, 0.6101823449134827, 0.12646484375, 0.3583984375, 0.9326171875, 0, 
17, 3071482296, -85.13240814208984, 36.66130828857422, -60.59516525268555, -4.74922513961792, -7.7000603675842285, 0.8388489484786987, 1.6954319477081299, -2.8354828357696533, 0.5131812691688538, 0.12646484375, 0.35693359375, 0.9462890625, 0, 
18, 3071490629, -85.14093017578125, 36.664554595947266, -60.60995101928711, -6.165515899658203, -7.99296236038208, 0.26687681674957275, 1.9012678861618042, -1.9263571500778198, 0.9252374768257141, 0.12548828125, 0.361328125, 0.94482421875, 0, 
19, 3071498962, -85.13665771484375, 36.66437911987305, -60.60438537597656, -6.5968451499938965, -7.559291839599609, 0.6022793054580688, 1.9655084609985352, -3.9077208042144775, 0.6411755084991455, 0.12646484375, 0.35595703125, 0.9599609375, 0, 
20, 3071507295, -85.1268310546875, 36.660064697265625, -60.58769226074219, -5.2617716789245605, -7.974863052368164, 1.105764389038086, 1.848322868347168, -5.020171642303467, 0.27671054005622864, 0.134765625, 0.35986328125, 0.958984375, 0, 
21, 3071515628, -85.13719177246094, 36.66171646118164, -60.60251998901367, -5.087080955505371, -7.783483982086182, 0.6390536427497864, 1.6723791360855103, -1.9332984685897827, 0.694273829460144, 0.12744140625, 0.35546875, 0.9716796875, 0, 
22, 3071523961, -85.13749694824219, 36.66474151611328, -60.605377197265625, -6.273846626281738, -7.971557140350342, 0.2608005106449127, 2.0303380489349365, -3.0700323581695557, 0.9951898455619812, 0.13232421875, 0.35498046875, 0.97900390625, 0, 
23, 3071532294, -85.13372802734375, 36.664859771728516, -60.598628997802734, -6.401082992553711, -7.445526599884033, 0.7653995752334595, 1.8217357397079468, -4.020577430725098, 0.6872812509536743, 0.134765625, 0.3564453125, 0.98193359375, 0, 
24, 3071540627, -85.12883758544922, 36.660438537597656, -60.58909225463867, -4.8615264892578125, -7.938638210296631, 1.0731236934661865, 1.7687909603118896, -4.333685398101807, 0.20550301671028137, 0.13232421875, 0.3515625, 0.99755859375, 0, 
25, 3071548960, -85.14005279541016, 36.66268539428711, -60.607643127441406, -5.634799480438232, -7.864297389984131, 0.37812814116477966, 1.837795376777649, -1.5707800388336182, 0.7367421984672546, 0.13720703125, 0.35302734375, 1.0009765625, 0, 
26, 3071557293, -85.13683319091797, 36.66366958618164, -60.60450744628906, -6.567546367645264, -7.841670036315918, 0.5350691676139832, 2.0223464965820312, -3.6631815433502197, 0.7983956933021545, 0.13671875, 0.3486328125, 1.017578125, 0, 
27, 3071565626, -85.12678527832031, 36.6622200012207, -60.589134216308594, -5.839600563049316, -7.71022367477417, 0.7119811177253723, 1.9581314325332642, -4.861952781677246, 0.5700191259384155, 0.14208984375, 0.349609375, 1.021484375, 0, 
28, 3071573959, -85.12960052490234, 36.65851974487305, -60.59214401245117, -4.655146598815918, -7.8277716636657715, 1.0262874364852905, 1.7410253286361694, -3.1243603229522705, 0.18972466886043549, 0.1416015625, 0.3486328125, 1.03125, 0, 
29, 3071582292, -85.1400146484375, 36.66267013549805, -60.60909652709961, -6.0721540451049805, -8.00294303894043, 0.26553601026535034, 1.8192765712738037, -1.7050755023956299, 0.9751082062721252, 0.14453125, 0.34521484375, 1.04638671875, 0, 
30, 3071590625, -85.13538360595703, 36.66355895996094, -60.60390853881836, -6.5764994621276855, -7.6270551681518555, 0.5323997139930725, 2.0456042289733887, -3.8613078594207764, 0.8049530386924744, 0.150390625, 0.34521484375, 1.0498046875, 0, 
31, 3071598958, -85.1229476928711, 36.66045379638672, -60.58413314819336, -5.441239356994629, -7.819962978363037, 0.9547208547592163, 1.9280858039855957, -5.298470973968506, 0.40806037187576294, 0.14892578125, 0.33837890625, 1.06494140625, 0, 
32, 3071607291, -85.13370513916016, 36.659751892089844, -60.59917449951172, -4.937142372131348, -7.764970779418945, 0.8332007527351379, 1.6510423421859741, -1.9472070932388306, 0.45065686106681824, 0.15576171875, 0.34228515625, 1.0693359375, 0, 
33, 3071615624, -85.13601684570312, 36.6609992980957, -60.605224609375, -6.391489028930664, -8.079334259033203, 0.18651264905929565, 2.0100769996643066, -2.7794647216796875, 0.7171729207038879, 0.154296875, 0.33447265625, 1.08349609375, 0, 
34, 3071623957, -85.13185119628906, 36.65996170043945, -60.59870910644531, -6.388889789581299, -7.550098896026611, 0.6490506529808044, 1.897118330001831, -4.009947299957275, 0.585029125213623, 0.1630859375, 0.3310546875, 1.099609375, 0, 
35, 3071632290, -85.12310791015625, 36.65695571899414, -60.58416748046875, -4.870789051055908, -7.991216659545898, 1.1429425477981567, 1.8592603206634521, -4.796585559844971, 0.37555593252182007, 0.1669921875, 0.3291015625, 1.10498046875, 0, 
36, 3071640623, -85.13642120361328, 36.658836364746094, -60.604957580566406, -5.445273399353027, -7.715399742126465, 0.49146172404289246, 1.7538578510284424, -1.362177848815918, 0.7140735983848572, 0.17333984375, 0.31982421875, 1.1240234375, 0, 
37, 3071648956, -85.13298797607422, 36.66035842895508, -60.60325241088867, -6.589026927947998, -7.950715065002441, 0.3759806454181671, 2.145627498626709, -3.5212020874023438, 0.8123810887336731, 0.18017578125, 0.32080078125, 1.1279296875, 0, 
38, 3071657289, -85.12669372558594, 36.6591682434082, -60.59075927734375, -6.130014419555664, -7.494856357574463, 0.6428953409194946, 1.7241196632385254, -4.58562707901001, 0.6175336241722107, 0.181640625, 0.31298828125, 1.1435546875, 0, 
39, 3071665622, -85.12545776367188, 36.65610885620117, -60.587398529052734, -4.633477210998535, -7.997861862182617, 1.1578643321990967, 1.75759756565094, -3.7266788482666016, 0.2799123227596283, 0.19140625, 0.31201171875, 1.14794921875, 0, 
40, 3071673955, -85.13856506347656, 36.65967559814453, -60.6087760925293, -5.891427993774414, -7.909286975860596, 0.33714941143989563, 1.8230931758880615, -1.2914314270019531, 0.907794177532196, 0.19677734375, 0.30419921875, 1.15234375, 0, 
41, 3071682288, -85.13386535644531, 36.66120910644531, -60.603641510009766, -6.5954270362854, -7.780515193939209, 0.503675103187561, 2.0488317012786865, -3.8499608039855957, 0.8441171646118164, 0.20263671875, 0.296875, 1.16748046875, 0, 
42, 3071690621, -85.1211929321289, 36.65971755981445, -60.582820892333984, -5.5964131355285645, -7.656065464019775, 0.8463305234909058, 1.8903048038482666, -5.385200500488281, 0.6449919939041138, 0.21240234375, 0.294921875, 1.16748046875, 0, 
43, 3071698954, -85.1281967163086, 36.65791320800781, -60.591941833496094, -4.738149642944336, -7.782964706420898, 1.0521774291992188, 1.667794108390808, -2.5188143253326416, 0.328784316778183, 0.21435546875, 0.2841796875, 1.1787109375, 0, 
44, 3071707287, -85.1369400024414, 36.65996170043945, -60.606441497802734, -6.3763508796691895, -8.005928039550781, 0.18733613193035126, 1.8521652221679688, -1.9613970518112183, 0.7840260863304138, 0.22607421875, 0.27978515625, 1.17578125, 0, 
45, 3071715620, -85.13152313232422, 36.66073226928711, -60.59943389892578, -6.563411235809326, -7.6497297286987305, 0.49328455328941345, 2.0037248134613037, -4.03848123550415, 0.7681710124015808, 0.22705078125, 0.27294921875, 1.18212890625, 0, 
46, 3071723953, -85.1182861328125, 36.65718078613281, -60.57841110229492, -5.023054599761963, -7.866080284118652, 1.0706007480621338, 1.9444791078567505, -5.429206371307373, 0.403321772813797, 0.23583984375, 0.2646484375, 1.185546875, 0, 
47, 3071732286, -85.13162994384766, 36.65790557861328, -60.59770584106445, -4.960536479949951, -7.719715118408203, 0.8041436076164246, 1.6347260475158691, -1.5168877840042114, 0.5463259816169739, 0.24658203125, 0.259765625, 1.1826171875, 0, 
48, 3071740619, -85.1343994140625, 36.66081237792969, -60.6043701171875, -6.590129375457764, -8.03795337677002, 0.20633381605148315, 2.007310628890991, -2.7081031799316406, 0.9514663815498352, 0.248046875, 0.248046875, 1.1875, 0, 
49, 3071748952, -85.12798309326172, 36.65958786010742, -60.59315490722656, -6.4127516746521, -7.4207892417907715, 0.5497834086418152, 1.8225040435791016, -4.460808753967285, 0.5633082985877991, 0.2587890625, 0.24853515625, 1.17578125, 0, 
50, 3071757285, -85.12129211425781, 36.655853271484375, -60.5814094543457, -4.703133583068848, -7.985478401184082, 1.2171257734298706, 1.820634365081787, -4.536933898925781, 0.3046557307243347, 0.26025390625, 0.2373046875, 1.1767578125, 0, 
51, 3071765618, -85.13532257080078, 36.657859802246094, -60.604957580566406, -5.575929641723633, -7.7805280685424805, 0.5725653767585754, 1.85828697681427, -1.093714952468872, 0.6663030982017517, 0.27099609375, 0.2333984375, 1.1650390625, 0, 
52, 3071773951, -85.13402557373047, 36.65971755981445, -60.60399627685547, -6.6871337890625, -7.965274810791016, 0.31377214193344116, 1.9464513063430786, -3.4456653594970703, 0.8876612782478333, 0.275390625, 0.224609375, 1.158203125, 0, 
53, 3071782284, -85.12332153320312, 36.65818786621094, -60.58647537231445, -5.888855934143066, -7.49910831451416, 0.6950631141662598, 1.8853102922439575, -5.06899356842041, 0.5780108571052551, 0.28076171875, 0.21630859375, 1.15185546875, 0, 
54, 3071790617, -85.12466430664062, 36.65546798706055, -60.58787536621094, -4.522588729858398, -7.926680564880371, 1.1706796884536743, 1.8022432327270508, -3.2689013481140137, 0.3195888102054596, 0.28662109375, 0.2158203125, 1.13134765625, 0, 
55, 3071798950, -85.1377182006836, 36.65973663330078, -60.610225677490234, -6.041294574737549, -7.866395473480225, 0.2860576808452606, 1.8871031999588013, -1.1851834058761597, 0.9453702569007874, 0.2861328125, 0.2021484375, 1.1279296875, 0, 
56, 3071807283, -85.13351440429688, 36.66007614135742, -60.60478973388672, -6.816415786743164, -7.754160404205322, 0.39489245414733887, 1.975523591041565, -3.8947596549987793, 0.7412503361701965, 0.29296875, 0.20166015625, 1.10791015625, 0, 
57, 3071815616, -85.12071990966797, 36.65768814086914, -60.5836067199707, -5.410989761352539, -7.71056604385376, 0.9548904299736023, 1.8733484745025635, -5.430615425109863, 0.5080583691596985, 0.29248046875, 0.1923828125, 1.0927734375, 0, 
58, 3071823949, -85.12950134277344, 36.65591049194336, -60.594295501708984, -4.644861221313477, -7.857684135437012, 0.9536185264587402, 1.572176218032837, -2.3658204078674316, 0.354757159948349, 0.29638671875, 0.18701171875, 1.07275390625, 0, 
59, 3071832282, -85.13829803466797, 36.65925979614258, -60.60978698730469, -6.41220235824585, -8.062756538391113, 0.17049919068813324, 1.9074662923812866, -1.8525112867355347, 0.8917084336280823, 0.29736328125, 0.1826171875, 1.05029296875, 0, 
60, 3071840615, -85.1312484741211, 36.65998077392578, -60.59910583496094, -6.608196258544922, -7.536838531494141, 0.4639948904514313, 1.943454623222351, -4.388653755187988, 0.8307721614837646, 0.2998046875, 0.177734375, 1.037109375, 0, 
61, 3071848948, -85.12147521972656, 36.658382415771484, -60.58214569091797, -4.876376628875732, -7.886484622955322, 1.058627724647522, 1.8121047019958496, -5.015996932983398, 0.5649731159210205, 0.3037109375, 0.17822265625, 1.0029296875, 0, 
62, 3071857281, -85.13446044921875, 36.660011291503906, -60.60218048095703, -5.124547004699707, -7.677374839782715, 0.7071187496185303, 1.7384638786315918, -1.4361006021499634, 0.688818097114563, 0.29638671875, 0.16943359375, 0.986328125, 0, 
63, 3071865614, -85.13810729980469, 36.662174224853516, -60.60916519165039, -6.807375431060791, -8.077628135681152, 0.17959590256214142, 1.9159446954727173, -2.679748296737671, 0.8190407752990723, 0.29833984375, 0.16748046875, 0.9580078125, 0, 
64, 3071873947, -85.12847137451172, 36.66093826293945, -60.59364700317383, -6.3688154220581055, -7.5049262046813965, 0.633871853351593, 1.9061089754104614, -4.876374244689941, 0.6364113092422485, 0.296875, 0.16650390625, 0.93212890625, 0, 
65, 3071882280, -85.12602996826172, 36.6578483581543, -60.58708953857422, -4.54022741317749, -8.03604793548584, 1.172951340675354, 1.676759123802185, -4.034255027770996, 0.3027859032154083, 0.29296875, 0.16357421875, 0.908203125, 0, 
66, 3071890613, -85.14025115966797, 36.66091537475586, -60.60892105102539, -5.551664352416992, -7.827149868011475, 0.39973101019859314, 1.7194578647613525, -1.2514986991882324, 0.8457051515579224, 0.291015625, 0.16796875, 0.87939453125, 0, 
67, 3071898946, -85.13745880126953, 36.66294479370117, -60.607547760009766, -6.867800712585449, -7.776177406311035, 0.3110978305339813, 2.0900962352752686, -3.484983444213867, 0.8717804551124573, 0.2841796875, 0.16357421875, 0.8564453125, 0, 
68, 3071907279, -85.12565612792969, 36.6612548828125, -60.586448669433594, -5.80519437789917, -7.519893646240234, 0.8984371423721313, 1.7674332857131958, -5.421393871307373, 0.6280097961425781, 0.28173828125, 0.1630859375, 0.82470703125, 0, 
69, 3071915612, -85.12997436523438, 36.65932083129883, -60.59186553955078, -4.544024467468262, -7.90345573425293, 0.9319400191307068, 1.7238125801086426, -2.8738532066345215, 0.34246233105659485, 0.2734375, 0.1611328125, 0.794921875, 0, 
70, 3071923945, -85.14191436767578, 36.66277313232422, -60.61146926879883, -6.189289093017578, -8.031720161437988, 0.24649471044540405, 1.83479905128479, -1.46450674533844, 0.9105092883110046, 0.27099609375, 0.1611328125, 0.77001953125, 0, 
71, 3071932278, -85.13432312011719, 36.663021087646484, -60.60192108154297, -6.91794490814209, -7.701476573944092, 0.4949684143066406, 2.0785953998565674, -4.285197734832764, 0.7242169976234436, 0.26416015625, 0.1640625, 0.7314453125, 0, 
72, 3071940611, -85.1228256225586, 36.66048049926758, -60.582786560058594, -5.000980377197266, -7.866806507110596, 0.9596896767616272, 1.871043086051941, -5.237175941467285, 0.5073922872543335, 0.2568359375, 0.166015625, 0.71728515625, 0, 
73, 3071948944, -85.13416290283203, 36.660972595214844, -60.598716735839844, -4.759294509887695, -7.69425630569458, 0.7782742381095886, 1.6362117528915405, -1.8392173051834106, 0.5476067662239075, 0.2509765625, 0.1689453125, 0.68115234375, 0, 
74, 3071957277, -85.14199829101562, 36.664390563964844, -60.61124801635742, -6.652947902679443, -8.005159378051758, 0.2119782269001007, 1.820480465888977, -2.137725591659546, 0.9625574350357056, 0.23974609375, 0.16650390625, 0.6591796875, 0, 
75, 3071965610, -85.13261413574219, 36.663780212402344, -60.59658432006836, -6.650867938995361, -7.478375434875488, 0.5557239651679993, 1.928418755531311, -4.784341812133789, 0.6640233397483826, 0.23828125, 0.169921875, 0.6318359375, 0, 
76, 3071973943, -85.12618255615234, 36.659366607666016, -60.58461380004883, -4.651679515838623, -7.981510162353516, 1.16269052028656, 1.777218222618103, -4.567082405090332, 0.22630177438259125, 0.2255859375, 0.17333984375, 0.599609375, 0, 
77, 3071982276, -85.1391372680664, 36.66134262084961, -60.604957580566406, -5.272719860076904, -7.863186836242676, 0.5488659739494324, 1.7560862302780151, -1.4011114835739136, 0.6887924075126648, 0.21630859375, 0.17626953125, 0.58251953125, 0, 
78, 3071990609, -85.13868713378906, 36.66356658935547, -60.608238220214844, -6.832074165344238, -7.935967922210693, 0.35036247968673706, 2.1545159816741943, -3.037912130355835, 0.8986754417419434, 0.208984375, 0.18359375, 0.54931640625, 0, 
79, 3071998942, -85.1275405883789, 36.66288375854492, -60.589385986328125, -6.062899112701416, -7.558981418609619, 0.8239462375640869, 1.8406647443771362, -5.186255931854248, 0.6889973282814026, 0.19775390625, 0.18359375, 0.53125, 0, 
80, 3072007275, -85.12908935546875, 36.66080093383789, -60.58989715576172, -4.478847503662109, -7.834129333496094, 0.9362547397613525, 1.712951898574829, -3.3454368114471436, 0.40337300300598145, 0.1943359375, 0.1904296875, 0.50048828125, 0, 
81, 3072015608, -85.14079284667969, 36.66471862792969, -60.60976791381836, -5.879313945770264, -7.87881326675415, 0.26218825578689575, 1.8736557960510254, -1.4280833005905151, 0.9255191087722778, 0.17822265625, 0.19140625, 0.48193359375, 0, 
82, 3072023941, -85.13700866699219, 36.66496658325195, -60.60454177856445, -6.9887213706970215, -7.680113315582275, 0.5180486440658569, 1.9442485570907593, -3.875882148742676, 0.729058027267456, 0.171875, 0.19873046875, 0.46337890625, 0, 
83, 3072032274, -85.12467956542969, 36.66138458251953, -60.58388137817383, -5.364565372467041, -7.887374401092529, 0.9694734215736389, 1.8503466844558716, -5.389683723449707, 0.35729295015335083, 0.15869140625, 0.203125, 0.4375, 0, 
84, 3072040607, -85.13273620605469, 36.659812927246094, -60.595054626464844, -4.608142852783203, -7.889946460723877, 0.7550268173217773, 1.6962515115737915, -2.319791793823242, 0.3771440088748932, 0.14794921875, 0.208984375, 0.42431640625, 0, 
85, 3072048940, -85.14019775390625, 36.665000915527344, -60.608707427978516, -6.330610275268555, -8.07712459564209, 0.20172223448753357, 1.9359750747680664, -2.010423183441162, 1.1278204917907715, 0.14404296875, 0.21875, 0.3974609375, 0, 
86, 3072057273, -85.13246154785156, 36.66611862182617, -60.59757614135742, -6.780219554901123, -7.386322021484375, 0.5492944121360779, 1.9927361011505127, -4.429662227630615, 0.8820006251335144, 0.12890625, 0.22021484375, 0.38623046875, 0, 
87, 3072065606, -85.12406921386719, 36.66314697265625, -60.5817756652832, -4.82798957824707, -7.859278202056885, 1.1747350692749023, 1.7309075593948364, -4.919251918792725, 0.3925381302833557, 0.1201171875, 0.2265625, 0.35498046875, 0, 
88, 3072073939, -85.13726806640625, 36.66421890258789, -60.600852966308594, -5.151711463928223, -7.795444011688232, 0.5457691550254822, 1.6452277898788452, -1.5300534963607788, 0.6280866265296936, 0.10791015625, 0.23486328125, 0.34130859375, 0, 
89, 3072082272, -85.13895416259766, 36.66636657714844, -60.60614776611328, -6.820733070373535, -8.014849662780762, 0.3434869349002838, 2.0285191535949707, -2.8426294326782227, 0.8301317095756531, 0.0986328125, 0.23779296875, 0.333984375, 0, 
90, 3072090605, -85.12791442871094, 36.663997650146484, -60.58895492553711, -6.288754940032959, -7.6692938804626465, 0.8143507838249207, 1.9583877325057983, -5.0471954345703125, 0.5153584480285645, 0.0869140625, 0.24853515625, 0.31689453125, 0, 
91, 3072098938, -85.12644958496094, 36.660823822021484, -60.585487365722656, -4.402850151062012, -7.896723747253418, 1.0350276231765747, 1.7803685665130615, -3.739895820617676, 0.26690030097961426, 0.07958984375, 0.25, 0.3134765625, 0, 
92, 3072107271, -85.13835144042969, 36.664588928222656, -60.60519027709961, -5.603346824645996, -7.878503322601318, 0.3508473336696625, 1.8479645252227783, -1.4400962591171265, 0.946702241897583, 0.0732421875, 0.26220703125, 0.30322265625, 0, 
93, 3072115604, -85.13529968261719, 36.666114807128906, -60.603641510009766, -6.965908050537109, -7.623674392700195, 0.5133954286575317, 2.1077699661254883, -3.506448268890381, 0.813764214515686, 0.060546875, 0.26416015625, 0.30078125, 0, 
94, 3072123937, -85.12344360351562, 36.66347122192383, -60.582584381103516, -5.694826126098633, -7.753742218017578, 0.9140563607215881, 1.7753993272781372, -5.416833877563477, 0.5104917287826538, 0.0556640625, 0.2705078125, 0.29443359375, 0, 
95, 3072132270, -85.130126953125, 36.662078857421875, -60.591495513916016, -4.632571220397949, -7.831501483917236, 0.8333491086959839, 1.6898990869522095, -2.5323641300201416, 0.37806612253189087, 0.04833984375, 0.2783203125, 0.28564453125, 0, 
96, 3072140603, -85.13972473144531, 36.665191650390625, -60.60791778564453, -6.090322971343994, -8.093465805053711, 0.27054259181022644, 1.8889474868774414, -1.7674720287322998, 0.8976765275001526, 0.03955078125, 0.28125, 0.2919921875, 0, 
97, 3072148936, -85.13447570800781, 36.66459655761719, -60.60062789916992, -6.775030612945557, -7.532440185546875, 0.6265695691108704, 1.960923433303833, -4.077645778656006, 0.6055973768234253, 0.0390625, 0.2939453125, 0.28662109375, 0, 
98, 3072157269, -85.12559509277344, 36.66118240356445, -60.58488464355469, -4.933330535888672, -7.911782264709473, 1.0404419898986816, 1.8014745712280273, -4.9247589111328125, 0.3794492781162262, 0.02734375, 0.29443359375, 0.29248046875, 0, 
99, 3072165602, -85.13603973388672, 36.66315841674805, -60.60041046142578, -5.0009870529174805, -7.721353054046631, 0.5535318851470947, 1.7137203216552734, -1.8639861345291138, 0.7252670526504517, 0.0244140625, 0.302734375, 0.2939453125, 0, 
100, 3072173935, -85.13833618164062, 36.666080474853516, -60.60695266723633, -6.674092769622803, -7.8994646072387695, 0.29317060112953186, 2.0531091690063477, -2.718682289123535, 0.9544377326965332, 0.0166015625, 0.30810546875, 0.296875, 0, 
101, 3072182268, -85.12873840332031, 36.664398193359375, -60.59070587158203, -6.457446575164795, -7.4994797706604, 0.7260012626647949, 1.8409461975097656, -4.948119640350342, 0.5490922927856445, 0.013671875, 0.3125, 0.306640625, 0, 
102, 3072190601, -85.12593078613281, 36.659912109375, -60.583797454833984, -4.570723056793213, -7.967357635498047, 1.0757213830947876, 1.705062985420227, -4.082230567932129, 0.1763540357351303, 0.0126953125, 0.31884765625, 0.3046875, 0, 
103, 3072198934, -85.13810729980469, 36.66303253173828, -60.60334014892578, -5.4798383712768555, -7.978926181793213, 0.3932439386844635, 1.7929707765579224, -1.4669913053512573, 0.8321552276611328, 0.0009765625, 0.32177734375, 0.31884765625, 0, 
104, 3072207267, -85.13536834716797, 36.665748596191406, -60.602413177490234, -6.7814412117004395, -7.7970123291015625, 0.5052552223205566, 2.1243677139282227, -3.437929630279541, 0.988965630531311, 0.0048828125, 0.32861328125, 0.32421875, 0, 
105, 3072215600, -85.1232681274414, 36.664249420166016, -60.58187484741211, -5.827751159667969, -7.672738552093506, 0.8150219917297363, 1.8320837020874023, -5.359842777252197, 0.606980562210083, -0.00048828125, 0.32861328125, 0.33447265625, 0, 
106, 3072223933, -85.12892150878906, 36.66332244873047, -60.588314056396484, -4.597245216369629, -7.712926387786865, 0.8095648288726807, 1.646483063697815, -2.764301061630249, 0.4908199608325958, -0.001953125, 0.3349609375, 0.34716796875, 0, 
107, 3072232266, -85.1372299194336, 36.66657257080078, -60.60238265991211, -6.075817108154297, -7.993957996368408, 0.27431702613830566, 1.865664005279541, -1.9905976057052612, 0.8934757709503174, -0.0029296875, 0.33935546875, 0.35205078125, 0, 
108, 3072240599, -85.13421630859375, 36.66636657714844, -60.596866607666016, -6.854785919189453, -7.599760055541992, 0.5491373538970947, 1.8286516666412354, -3.9045958518981934, 0.678136944770813, -0.00439453125, 0.34033203125, 0.37158203125, 0, 
109, 3072248932, -85.12378692626953, 36.6624870300293, -60.57918167114258, -5.151948928833008, -7.9891462326049805, 1.0767420530319214, 1.8395631313323975, -5.107900619506836, 0.2978423237800598, -0.0009765625, 0.34716796875, 0.37939453125, 0, 
110, 3072257265, -85.13387298583984, 36.66365432739258, -60.59334945678711, -4.902835845947266, -7.801178932189941, 0.6361593008041382, 1.667358636856079, -2.0073750019073486, 0.6816972494125366, -0.0048828125, 0.345703125, 0.39599609375, 0, 
111, 3072265598, -85.13724517822266, 36.667049407958984, -60.60148239135742, -6.386317253112793, -7.963207721710205, 0.2898513972759247, 2.0309271812438965, -2.557671070098877, 0.9583566784858704, -0.0009765625, 0.35400390625, 0.40576171875, 0, 
112, 3072273931, -85.13031005859375, 36.666587829589844, -60.589603424072266, -6.604682445526123, -7.419748783111572, 0.6874167919158936, 1.844788670539856, -4.5231547355651855, 0.6987820267677307, -0.00146484375, 0.35302734375, 0.4150390625, 0, 
113, 3072282264, -85.12696075439453, 36.66200637817383, -60.58058166503906, -4.760365962982178, -7.879297733306885, 1.0195988416671753, 1.6094192266464233, -4.284710884094238, 0.14372147619724274, -0.00048828125, 0.35498046875, 0.4345703125, 0, 
114, 3072290597, -85.13906860351562, 36.66448211669922, -60.597774505615234, -5.442842960357666, -7.886089324951172, 0.4186173379421234, 1.6416677236557007, -1.70102858543396, 0.8123810887336731, 0.001953125, 0.36083984375, 0.43896484375, 0, 
115, 3072298930, -85.13970184326172, 36.66545104980469, -60.60122299194336, -6.700220584869385, -7.903524398803711, 0.4771290719509125, 2.0242416858673096, -3.0317392349243164, 0.7054928541183472, -0.00048828125, 0.359375, 0.4619140625, 0, 
116, 3072307263, -85.12809753417969, 36.6635856628418, -60.582275390625, -5.911027908325195, -7.683311939239502, 0.7890990972518921, 1.8990907669067383, -5.210870742797852, 0.5894092321395874, 0.01025390625, 0.3623046875, 0.46923828125, 0, 
117, 3072315596, -85.13145446777344, 36.66227340698242, -60.58584976196289, -4.578622817993164, -7.854858875274658, 0.9286995530128479, 1.7074962854385376, -3.0436501502990723, 0.43249639868736267, 0.00634765625, 0.36083984375, 0.48486328125, 0, 
118, 3072323929, -85.1407470703125, 36.66648864746094, -60.60122299194336, -6.010249614715576, -7.930602550506592, 0.29359111189842224, 1.848041296005249, -1.8589657545089722, 1.034123420715332, 0.013671875, 0.36279296875, 0.49609375, 0, 
119, 3072332262, -85.13809967041016, 36.667510986328125, -60.59812927246094, -6.813831806182861, -7.600764274597168, 0.5296280980110168, 1.9506521224975586, -3.6578540802001953, 0.7674793601036072, 0.01318359375, 0.3662109375, 0.50341796875, 0, 
120, 3072340595, -85.125244140625, 36.662967681884766, -60.5764274597168, -5.368359088897705, -7.832815170288086, 1.0090432167053223, 1.8506284952163696, -5.504973411560059, 0.29172053933143616, 0.01513671875, 0.36328125, 0.5224609375, 0, 
121, 3072348928, -85.13514709472656, 36.66162109375, -60.59000015258789, -4.8216094970703125, -7.7867255210876465, 0.7588719725608826, 1.638132929801941, -2.084934949874878, 0.3466118574142456, 0.02294921875, 0.3671875, 0.5263671875, 0, 
122, 3072357261, -85.13925170898438, 36.66325378417969, -60.599090576171875, -6.26864767074585, -8.123394966125488, 0.28122401237487793, 2.020322799682617, -2.4857208728790283, 0.7783142328262329, 0.01806640625, 0.36376953125, 0.546875, 0, 
123, 3072365594, -85.13319396972656, 36.66392135620117, -60.59002685546875, -6.654373645782471, -7.481238842010498, 0.5456606149673462, 1.9316208362579346, -4.235275745391846, 0.7728071212768555, 0.02587890625, 0.3701171875, 0.55126953125, 0, 
124, 3072373927, -85.125, 36.65993118286133, -60.57634735107422, -4.828517436981201, -7.927202224731445, 1.1468610763549805, 1.8672521114349365, -4.732498645782471, 0.2914643883705139, 0.02734375, 0.3671875, 0.56103515625, 0, 
125, 3072382260, -85.13619995117188, 36.66239929199219, -60.594120025634766, -5.361922740936279, -7.704117298126221, 0.43370431661605835, 1.7810088396072388, -1.6423718929290771, 0.7678123712539673, 0.0322265625, 0.3642578125, 0.5771484375, 0, 
126, 3072390593, -85.1363525390625, 36.66422653198242, -60.59661102294922, -6.632673263549805, -7.901880741119385, 0.42962393164634705, 2.0222182273864746, -3.1177260875701904, 0.8542858958244324, 0.0361328125, 0.36962890625, 0.578125, 0, 
127, 3072398926, -85.12654113769531, 36.66230392456055, -60.578609466552734, -6.177799701690674, -7.583128929138184, 0.7074939608573914, 1.741307020187378, -5.120119094848633, 0.5371561050415039, 0.03271484375, 0.3642578125, 0.5966796875, 0, 
128, 3072407259, -85.12775421142578, 36.6583137512207, -60.578163146972656, -4.542141437530518, -8.013343811035156, 1.0471806526184082, 1.6854166984558105, -3.4574477672576904, 0.18221965432167053, 0.0400390625, 0.369140625, 0.5966796875, 0, 
129, 3072415592, -85.13777923583984, 36.66094207763672, -60.595157623291016, -5.808912754058838, -7.985578536987305, 0.287564754486084, 1.8689427375793457, -1.7140660285949707, 0.7945022583007812, 0.04052734375, 0.36474609375, 0.61083984375, 0, 
130, 3072423925, -85.1361083984375, 36.66408157348633, -60.59504699707031, -6.746862888336182, -7.673804759979248, 0.5046153664588928, 2.0568995475769043, -3.3483564853668213, 1.0331244468688965, 0.0478515625, 0.365234375, 0.6201171875, 0, 
131, 3072432258, -85.1220703125, 36.662078857421875, -60.572227478027344, -5.539156436920166, -7.665900230407715, 0.8836890459060669, 1.9030864238739014, -5.58135461807251, 0.5667661428451538, 0.04541015625, 0.36865234375, 0.6298828125, 0, 
132, 3072440591, -85.13118743896484, 36.66087341308594, -60.5839958190918, -4.766109943389893, -7.759949207305908, 0.8899375200271606, 1.6121599674224854, -2.2597262859344482, 0.41553977131843567, 0.05322265625, 0.36572265625, 0.646484375, 0, 
133, 3072448924, -85.13655853271484, 36.66208267211914, -60.59453582763672, -6.287083625793457, -8.09870433807373, 0.294822096824646, 1.9637153148651123, -2.3488638401031494, 0.6773172616958618, 0.05908203125, 0.37158203125, 0.64501953125, 0, 
134, 3072457257, -85.13172149658203, 36.661136627197266, -60.58810043334961, -6.666750431060791, -7.638672351837158, 0.4980030655860901, 1.9833104610443115, -4.002467632293701, 0.5961201786994934, 0.056640625, 0.3642578125, 0.66015625, 0, 
135, 3072465590, -85.12065124511719, 36.657859802246094, -60.571006774902344, -4.917272567749023, -7.953408241271973, 1.089700698852539, 1.9560821056365967, -5.045529842376709, 0.36756426095962524, 0.06494140625, 0.36572265625, 0.662109375, 0, 
136, 3072473923, -85.13284301757812, 36.660282135009766, -60.58908462524414, -5.067296981811523, -7.649398326873779, 0.6535685658454895, 1.6953550577163696, -1.617884874343872, 0.7985749840736389, 0.06396484375, 0.3662109375, 0.66943359375, 0, 
137, 3072482256, -85.1334228515625, 36.663169860839844, -60.59321975708008, -6.543817520141602, -7.974313259124756, 0.32122188806533813, 2.079440116882324, -2.946622848510742, 0.9296684861183167, 0.0693359375, 0.36279296875, 0.68212890625, 0, 
138, 3072490589, -85.12506103515625, 36.6627197265625, -60.57918167114258, -6.502181053161621, -7.411599159240723, 0.6350858211517334, 1.864357829093933, -4.724430561065674, 0.719119668006897, 0.07177734375, 0.3681640625, 0.68115234375, 0, 
139, 3072498922, -85.12174987792969, 36.65913772583008, -60.57167053222656, -4.700806617736816, -7.996767520904541, 1.1828252077102661, 1.7123372554779053, -4.130641460418701, 0.2512500286102295, 0.068359375, 0.36328125, 0.6923828125, 0, 
140, 3072507255, -85.13306427001953, 36.66048812866211, -60.59092330932617, -5.5897440910339355, -7.866684436798096, 0.4142962694168091, 1.884592890739441, -1.5135067701339722, 0.6602581143379211, 0.078125, 0.36572265625, 0.69140625, 0, 
141, 3072515588, -85.1314697265625, 36.66132354736328, -60.59163284301758, -6.634756088256836, -7.8832879066467285, 0.47933629155158997, 2.0953211784362793, -3.297692060470581, 0.7137662768363953, 0.0712890625, 0.365234375, 0.69970703125, 0, 
142, 3072523921, -85.11941528320312, 36.65943908691406, -60.5714225769043, -5.772734642028809, -7.61302375793457, 0.8060156106948853, 1.8631539344787598, -5.32759428024292, 0.5950443148612976, 0.080078125, 0.3623046875, 0.705078125, 0, 
143, 3072532254, -85.12405395507812, 36.65851974487305, -60.57767105102539, -4.580054759979248, -7.797669410705566, 0.9625757336616516, 1.7445086240768433, -2.7837934494018555, 0.458955854177475, 0.08154296875, 0.3623046875, 0.70458984375, 0, 
144, 3072540587, -85.13309478759766, 36.662872314453125, -60.593048095703125, -6.156478404998779, -7.930711269378662, 0.2641381025314331, 1.8781893253326416, -1.8550469875335693, 1.05215585231781, 0.08544921875, 0.3623046875, 0.71484375, 0, 
145, 3072548920, -85.12828826904297, 36.66354751586914, -60.5867919921875, -6.771190643310547, -7.584418296813965, 0.4993869364261627, 1.9833872318267822, -3.9672739505767822, 0.7514448761940002, 0.0888671875, 0.36669921875, 0.71533203125, 0, 
146, 3072557253, -85.11698150634766, 36.65910720825195, -60.5673942565918, -5.214907646179199, -7.905974864959717, 1.0703508853912354, 1.8312642574310303, -5.283205032348633, 0.28511205315589905, 0.0859375, 0.3603515625, 0.7216796875, 0, 
147, 3072565586, -85.12864685058594, 36.65921401977539, -60.58297348022461, -4.896212100982666, -7.7856526374816895, 0.8147998452186584, 1.5707417726516724, -1.8753079175949097, 0.5018340945243835, 0.0908203125, 0.36279296875, 0.724609375, 0, 
148, 3072573919, -85.13351440429688, 36.661563873291016, -60.592288970947266, -6.354201793670654, -8.133918762207031, 0.1833677589893341, 1.946860909461975, -2.459491491317749, 0.862969160079956, 0.09228515625, 0.36279296875, 0.72705078125, 0, 
149, 3072582252, -85.1268539428711, 36.66203689575195, -60.5827751159668, -6.556286334991455, -7.406768798828125, 0.5708914399147034, 1.9702726602554321, -4.281381130218506, 0.753519594669342, 0.095703125, 0.3603515625, 0.73388671875, 0, 
150, 3072590585, -85.12059020996094, 36.65987014770508, -60.57143783569336, -4.7802534103393555, -7.871270656585693, 1.2479772567749023, 1.8041131496429443, -4.485705852508545, 0.4898722767829895, 0.09521484375, 0.36474609375, 0.7314453125, 0, 
151, 3072598918, -85.13451385498047, 36.66157150268555, -60.591331481933594, -5.363548755645752, -7.700679779052734, 0.5157114863395691, 1.6058844327926636, -1.4473193883895874, 0.658644437789917, 0.09423828125, 0.35888671875, 0.7431640625, 0, 
152, 3072607251, -85.13367462158203, 36.6620979309082, -60.592063903808594, -6.778144359588623, -7.934534549713135, 0.40248575806617737, 2.016916036605835, -3.2995100021362305, 0.7169167995452881, 0.10205078125, 0.36279296875, 0.7392578125, 0, 
153, 3072615584, -85.12200164794922, 36.66030502319336, -60.5725212097168, -6.126105785369873, -7.6867804527282715, 0.8663891553878784, 1.8555463552474976, -5.263533592224121, 0.5622580051422119, 0.0986328125, 0.3583984375, 0.74658203125, 0, 
154, 3072623917, -85.12427520751953, 36.656959533691406, -60.5733757019043, -4.471519470214844, -7.94611120223999, 0.8988656401634216, 1.6514265537261963, -3.327071189880371, 0.25035354495048523, 0.10302734375, 0.35888671875, 0.748046875, 0, 
155, 3072632250, -85.13416290283203, 36.661434173583984, -60.591156005859375, -5.787749290466309, -7.92533016204834, 0.24998074769973755, 1.9398683309555054, -1.622674584388733, 1.0077664852142334, 0.10400390625, 0.35986328125, 0.7470703125, 0, 
156, 3072640583, -85.13008117675781, 36.66362762451172, -60.58631896972656, -6.8473052978515625, -7.572844505310059, 0.6176568269729614, 2.006030321121216, -3.8139212131500244, 0.9607132077217102, 0.1015625, 0.3583984375, 0.7548828125, 0, 
157, 3072648916, -85.1192626953125, 36.66107940673828, -60.56657409667969, -5.427990913391113, -7.7520318031311035, 0.9106859564781189, 1.738207459449768, -5.2936553955078125, 0.47611743211746216, 0.1083984375, 0.3603515625, 0.7529296875, 0, 
158, 3072657249, -85.1288833618164, 36.6591682434082, -60.57990646362305, -4.783728122711182, -7.830863952636719, 0.8220658302307129, 1.6619030237197876, -2.1164915561676025, 0.3192814588546753, 0.10498046875, 0.3583984375, 0.7578125, 0, 
159, 3072665582, -85.1358642578125, 36.66212463378906, -60.59274673461914, -6.390713691711426, -8.0933256149292, 0.1821865439414978, 1.9358726739883423, -2.1080386638641357, 0.8651463389396667, 0.10888671875, 0.3603515625, 0.75439453125, 0, 
160, 3072673915, -85.12773895263672, 36.662078857421875, -60.58103942871094, -6.624536037445068, -7.5041422843933105, 0.6448976397514343, 1.999011754989624, -4.5037384033203125, 0.7503690719604492, 0.1064453125, 0.35791015625, 0.7587890625, 0, 
161, 3072682248, -85.11992645263672, 36.659053802490234, -60.567596435546875, -4.776016712188721, -7.952510356903076, 1.1781169176101685, 1.8270634412765503, -4.693129539489746, 0.3671032190322876, 0.1083984375, 0.35546875, 0.767578125, 0, 
162, 3072690581, -85.1318588256836, 36.660972595214844, -60.58681106567383, -5.17708683013916, -7.7172393798828125, 0.47836998105049133, 1.8065974712371826, -1.5077179670333862, 0.7296726703643799, 0.11279296875, 0.35986328125, 0.759765625, 0, 
163, 3072698914, -85.13253021240234, 36.66376876831055, -60.59048080444336, -6.786046504974365, -7.9022345542907715, 0.3154769539833069, 2.0355887413024902, -2.9907562732696533, 0.9217537641525269, 0.1103515625, 0.3564453125, 0.76904296875, 0, 
164, 3072707247, -85.1226577758789, 36.661869049072266, -60.573997497558594, -6.30173397064209, -7.56287145614624, 0.821355938911438, 1.870018482208252, -4.974092483520508, 0.5664331912994385, 0.11474609375, 0.35986328125, 0.76708984375, 0, 
165, 3072715580, -85.12183380126953, 36.65899658203125, -60.57083511352539, -4.525754928588867, -7.9338555335998535, 0.9053680896759033, 1.7238636016845703, -3.7061362266540527, 0.30165883898735046, 0.11328125, 0.3564453125, 0.77294921875, 0, 
166, 3072723913, -85.134521484375, 36.661800384521484, -60.5903205871582, -5.653553485870361, -7.956870079040527, 0.3328823745250702, 1.735210657119751, -1.4810791015625, 0.8326931595802307, 0.11669921875, 0.357421875, 0.7724609375, 0, 
167, 3072732246, -85.13059997558594, 36.663490295410156, -60.58638000488281, -6.860925197601318, -7.699479103088379, 0.5681941509246826, 2.0427610874176025, -3.734645366668701, 0.852288007736206, 0.11669921875, 0.3583984375, 0.7685546875, 0, 
168, 3072740579, -85.12083435058594, 36.66169738769531, -60.568321228027344, -5.523764610290527, -7.7837629318237305, 0.8921713829040527, 1.7400007247924805, -5.123576641082764, 0.5913302302360535, 0.11669921875, 0.35302734375, 0.77783203125, 0, 
169, 3072748912, -85.1282958984375, 36.662132263183594, -60.57811737060547, -4.665873050689697, -7.724400043487549, 0.7416585683822632, 1.6600841283798218, -2.4301888942718506, 0.5917144417762756, 0.11962890625, 0.35888671875, 0.771484375, 0, 
170, 3072757245, -85.13550567626953, 36.666107177734375, -60.59098434448242, -6.305448055267334, -7.970257759094238, 0.23437368869781494, 1.9189672470092773, -2.1003289222717285, 1.0264136791229248, 0.1162109375, 0.3544921875, 0.77978515625, 0, 
171, 3072765578, -85.12906646728516, 36.6654052734375, -60.58108901977539, -6.735977649688721, -7.523591041564941, 0.6759816408157349, 1.917199969291687, -4.327973365783691, 0.6156125068664551, 0.123046875, 0.35693359375, 0.77734375, 0, 
172, 3072773911, -85.12191772460938, 36.66091537475586, -60.567359924316406, -4.87418270111084, -7.981531620025635, 1.071956992149353, 1.735748529434204, -4.7417707443237305, 0.23380671441555023, 0.1220703125, 0.3544921875, 0.7783203125, 0, 
173, 3072782244, -85.1321792602539, 36.663421630859375, -60.58346939086914, -5.049755096435547, -7.87661600112915, 0.5365466475486755, 1.7752456665039062, -1.7990028858184814, 0.7857165932655334, 0.12109375, 0.3525390625, 0.78515625, 0, 
174, 3072790577, -85.13279724121094, 36.66595458984375, -60.58876419067383, -6.651981830596924, -7.8769636154174805, 0.3448238670825958, 2.1686034202575684, -2.839914083480835, 0.9162467122077942, 0.12548828125, 0.35693359375, 0.7783203125, 0, 
175, 3072798910, -85.12258911132812, 36.66486740112305, -60.57237243652344, -6.338535785675049, -7.510866165161133, 0.8451520800590515, 1.9031633138656616, -4.9577250480651855, 0.6247824430465698, 0.1220703125, 0.3505859375, 0.7841796875, 0, 
176, 3072807243, -85.12251281738281, 36.661251068115234, -60.56979751586914, -4.642124176025391, -7.833885669708252, 0.9122133255004883, 1.688592791557312, -3.659621000289917, 0.24441100656986237, 0.12451171875, 0.35546875, 0.78271484375, 0, 
177, 3072815576, -85.13554382324219, 36.664093017578125, -60.590118408203125, -5.640866279602051, -7.963930130004883, 0.32474562525749207, 1.7447904348373413, -1.3949129581451416, 0.7931702733039856, 0.123046875, 0.35400390625, 0.7822265625, 0, 
178, 3072823909, -85.13363647460938, 36.6645393371582, -60.58827209472656, -6.84171199798584, -7.797468185424805, 0.5582321882247925, 1.9610512256622314, -3.5437676906585693, 0.7255231738090515, 0.126953125, 0.35400390625, 0.78857421875, 0, 
179, 3072832242, -85.12291717529297, 36.6622314453125, -60.56938934326172, -5.59734582901001, -7.843631744384766, 0.8670006394386292, 1.7857987880706787, -5.207489490509033, 0.4976077675819397, 0.1279296875, 0.35302734375, 0.7822265625, 0, 
180, 3072840575, -85.12922668457031, 36.66276550292969, -60.57861328125, -4.642617225646973, -7.751339435577393, 0.78610759973526, 1.757751226425171, -2.4989373683929443, 0.6468363404273987, 0.12646484375, 0.3505859375, 0.791015625, 0, 
181, 3072848908, -85.13667297363281, 36.66733932495117, -60.59282684326172, -6.144774436950684, -7.967738151550293, 0.2613750100135803, 1.977342128753662, -1.964394211769104, 1.0502092838287354, 0.12841796875, 0.35595703125, 0.78369140625, 0, 
182, 3072857241, -85.13107299804688, 36.66757583618164, -60.58470916748047, -6.8214263916015625, -7.486721992492676, 0.6232971549034119, 1.9556468725204468, -4.156024932861328, 0.7539038062095642, 0.1259765625, 0.35009765625, 0.79150390625, 0, 
183, 3072865574, -85.12300872802734, 36.663455963134766, -60.57020568847656, -5.136905193328857, -7.929566383361816, 1.0850833654403687, 1.7822128534317017, -4.803834438323975, 0.24425733089447021, 0.12548828125, 0.35205078125, 0.775390625, 0, 
184, 3072873907, -85.13300323486328, 36.66378402709961, -60.5851936340332, -5.061885356903076, -7.8590898513793945, 0.5003035068511963, 1.7341092824935913, -1.9332473278045654, 0.5718122124671936, 0.125, 0.35107421875, 0.77392578125, 0, 
185, 3072882240, -85.1341781616211, 36.666900634765625, -60.591331481933594, -6.489898681640625, -7.95798397064209, 0.38050320744514465, 2.1533119678497314, -2.7532358169555664, 0.9423733949661255, 0.125, 0.35107421875, 0.78271484375, 0, 
186, 3072890573, -85.12550354003906, 36.665584564208984, -60.57717514038086, -6.349490642547607, -7.562839508056641, 0.8090547919273376, 1.8888448476791382, -4.748225688934326, 0.6137682795524597, 0.126953125, 0.353515625, 0.77978515625, 0, 
187, 3072898906, -85.12291717529297, 36.66263961791992, -60.572059631347656, -4.662843704223633, -7.828743934631348, 0.9348097443580627, 1.7977608442306519, -3.8936073780059814, 0.30972734093666077, 0.126953125, 0.34814453125, 0.78369140625, 0, 
188, 3072907239, -85.13327026367188, 36.665077209472656, -60.58966064453125, -5.651230335235596, -7.895730972290039, 0.3440438210964203, 1.881135106086731, -1.6621719598770142, 0.8051578402519226, 0.130859375, 0.35302734375, 0.779296875, 0, 
189, 3072915572, -85.13076782226562, 36.66645812988281, -60.58864212036133, -6.762917518615723, -7.6815972328186035, 0.5812621712684631, 2.0802857875823975, -3.457217216491699, 0.7935033440589905, 0.1279296875, 0.35009765625, 0.78662109375, 0, 
190, 3072923905, -85.11913299560547, 36.66244888305664, -60.56886291503906, -5.708996295928955, -7.823249340057373, 0.8772964477539062, 1.83236563205719, -5.336380481719971, 0.3420012891292572, 0.13134765625, 0.35009765625, 0.78466796875, 0, 
191, 3072932238, -85.12431335449219, 36.66020202636719, -60.575828552246094, -4.767655372619629, -7.825675010681152, 0.8422645926475525, 1.7290891408920288, -2.7255470752716064, 0.29108017683029175, 0.12939453125, 0.349609375, 0.7822265625, 0, 
192, 3072940571, -85.1310043334961, 36.66413497924805, -60.58782196044922, -6.00609016418457, -8.102789878845215, 0.29379594326019287, 1.9191209077835083, -2.187340259552002, 1.029948353767395, 0.12841796875, 0.34814453125, 0.7890625, 0, 
193, 3072948904, -85.12663269042969, 36.66535186767578, -60.58281707763672, -6.699038028717041, -7.514588832855225, 0.6014966368675232, 2.0185043811798096, -3.840841770172119, 0.8056702017784119, 0.13427734375, 0.35302734375, 0.7822265625, 0, 
194, 3072957237, -85.11727905273438, 36.662025451660156, -60.566680908203125, -5.1926655769348145, -7.842780590057373, 1.0688395500183105, 1.8310590982437134, -4.9626688957214355, 0.3921026885509491, 0.12890625, 0.345703125, 0.79296875, 0, 
195, 3072965570, -85.12855529785156, 36.663543701171875, -60.58231735229492, -5.095300674438477, -7.7161712646484375, 0.5623834729194641, 1.6213042736053467, -1.8576083183288574, 0.6726298332214355, 0.134765625, 0.3544921875, 0.79052734375, 0, 
196, 3072973903, -85.12944793701172, 36.66492462158203, -60.585853576660156, -6.458249092102051, -7.970261573791504, 0.3979966342449188, 2.008181571960449, -3.026078462600708, 0.7945278882980347, 0.1328125, 0.35009765625, 0.78662109375, 0, 
197, 3072982236, -85.12297821044922, 36.66422653198242, -60.574668884277344, -6.436838626861572, -7.638740539550781, 0.7940065860748291, 1.8282673358917236, -4.4514851570129395, 0.6272158622741699, 0.1298828125, 0.3505859375, 0.79248046875, 0, 
198, 3072990569, -85.11956787109375, 36.65968322753906, -60.56819152832031, -4.68645715713501, -7.946330547332764, 0.9478356838226318, 1.8072638511657715, -4.040120601654053, 0.16595463454723358, 0.1357421875, 0.35205078125, 0.7880859375, 0, 
199, 3072998902, -85.12937927246094, 36.662994384765625, -60.584251403808594, -5.543543815612793, -7.862637042999268, 0.31546610593795776, 1.8271913528442383, -1.7994639873504639, 0.8828458189964294, 0.12890625, 0.34765625, 0.79443359375, 0, 
200, 3073007235, -85.127685546875, 36.664371490478516, -60.58326721191406, -6.622017860412598, -7.652280330657959, 0.60434889793396, 1.9957842826843262, -3.455219268798828, 0.8320783972740173, 0.13818359375, 0.353515625, 0.78564453125, 0, 
201, 3073015568, -85.11642456054688, 36.6619873046875, -60.565242767333984, -5.844898700714111, -7.725698947906494, 0.7985214591026306, 1.9143821001052856, -5.125779628753662, 0.4808560013771057, 0.130859375, 0.34716796875, 0.79296875, 0, 
202, 3073023901, -85.12347412109375, 36.65919494628906, -60.5733642578125, -4.773236274719238, -7.848837852478027, 0.8275957703590393, 1.599865198135376, -2.6288530826568604, 0.25790974497795105, 0.13623046875, 0.35009765625, 0.7939453125, 0, 
203, 3073032234, -85.1285629272461, 36.66285705566406, -60.58457946777344, -6.094756126403809, -8.111335754394531, 0.24157696962356567, 2.0456550121307373, -2.2584965229034424, 0.9639917016029358, 0.1357421875, 0.3486328125, 0.78955078125, 0, 
204, 3073040567, -85.12500762939453, 36.66387176513672, -60.58000946044922, -6.557930946350098, -7.54103422164917, 0.5330584645271301, 1.9621787071228027, -3.801011323928833, 0.8175551891326904, 0.1318359375, 0.34765625, 0.79736328125, 0, 
205, 3073048900, -85.11380767822266, 36.66193771362305, -60.562931060791016, -5.161330699920654, -7.88810396194458, 1.0816936492919922, 1.9749857187271118, -5.030110836029053, 0.5262700915336609, 0.138671875, 0.35107421875, 0.7880859375, 0, 
206, 3073057233, -85.12432098388672, 36.66294479370117, -60.57871627807617, -5.112901210784912, -7.663493633270264, 0.6242812275886536, 1.7287817001342773, -1.8520245552062988, 0.6474254131317139, 0.1337890625, 0.345703125, 0.794921875, 0, 
207, 3073065566, -85.12684631347656, 36.66618728637695, -60.58426284790039, -6.458821773529053, -8.015278816223145, 0.2909119427204132, 1.948961615562439, -2.8080246448516846, 0.9617376923561096, 0.1376953125, 0.35107421875, 0.7890625, 0, 
208, 3073073899, -85.12115478515625, 36.66656494140625, -60.574440002441406, -6.499428749084473, -7.531635284423828, 0.6701076030731201, 1.8442249298095703, -4.30999231338501, 0.7836419939994812, 0.13330078125, 0.34716796875, 0.7939453125, 0, 
209, 3073082232, -85.11626434326172, 36.66292190551758, -60.56498718261719, -4.78563117980957, -7.971916675567627, 1.1205202341079712, 1.7609531879425049, -4.315678596496582, 0.2597539722919464, 0.1357421875, 0.34814453125, 0.79638671875, 0, 
210, 3073090565, -85.12869262695312, 36.6650505065918, -60.583675384521484, -5.424170970916748, -7.855431079864502, 0.4463900625705719, 1.7117736339569092, -1.5600476264953613, 0.7583861947059631, 0.13916015625, 0.35107421875, 0.79150390625, 0, 
211, 3073098898, -85.12675476074219, 36.6665153503418, -60.58401107788086, -6.597805976867676, -7.848418235778809, 0.48005568981170654, 2.1105358600616455, -3.3260467052459717, 0.7928630113601685, 0.13525390625, 0.3447265625, 0.79736328125, 0, 
212, 3073107231, -85.11660766601562, 36.6646728515625, -60.5667839050293, -5.9758124351501465, -7.627322673797607, 0.7601045370101929, 1.8457105159759521, -5.044352054595947, 0.5777546763420105, 0.13818359375, 0.35107421875, 0.7939453125, 0, 
213, 3073115564, -85.1198959350586, 36.661869049072266, -60.57097244262695, -4.713512897491455, -7.81754207611084, 0.9068241119384766, 1.7577770948410034, -2.997570037841797, 0.24825318157672882, 0.13330078125, 0.345703125, 0.7958984375, 0, 
214, 3073123897, -85.13005828857422, 36.664878845214844, -60.586395263671875, -6.049133777618408, -7.968797206878662, 0.2770225703716278, 1.7487605810165405, -1.8665735721588135, 0.8910936117172241, 0.14111328125, 0.349609375, 0.79736328125, 0, 
215, 3073132230, -85.12593078613281, 36.665077209472656, -60.582035064697266, -6.625753402709961, -7.652563571929932, 0.545532763004303, 2.034026622772217, -3.7874364852905273, 0.6785467267036438, 0.14013671875, 0.3486328125, 0.7939453125, 0, 
216, 3073140563, -85.114990234375, 36.66218566894531, -60.56343078613281, -5.277154445648193, -7.900277137756348, 1.0125294923782349, 1.8414329290390015, -5.191659927368164, 0.4635407626628876, 0.13623046875, 0.3466796875, 0.79833984375, 0, 
217, 3073148896, -85.12598419189453, 36.66221618652344, -60.57823181152344, -4.88845157623291, -7.812792778015137, 0.7773407697677612, 1.5955619812011719, -1.9528934955596924, 0.5014755129814148, 0.1396484375, 0.35302734375, 0.79150390625, 0, 
218, 3073157229, -85.1293716430664, 36.66599655151367, -60.586524963378906, -6.321191310882568, -8.043110847473145, 0.15647433698177338, 2.050675630569458, -2.5366930961608887, 1.0430117845535278, 0.1357421875, 0.3466796875, 0.79833984375, 0, 
219, 3073165562, -85.12481689453125, 36.66665267944336, -60.57914733886719, -6.507784843444824, -7.385245323181152, 0.5120939016342163, 1.8705307245254517, -4.074981689453125, 0.7566701173782349, 0.1416015625, 0.35107421875, 0.79931640625, 0, 
220, 3073173895, -85.11832427978516, 36.6623420715332, -60.566322326660156, -4.931399345397949, -7.935279369354248, 1.2771934270858765, 1.7243760824203491, -4.648433208465576, 0.24763843417167664, 0.138671875, 0.345703125, 0.79736328125, 0, 
221, 3073182228, -85.13197326660156, 36.66426467895508, -60.58669662475586, -5.414741039276123, -7.794969081878662, 0.5715987682342529, 1.675888180732727, -1.398934245109558, 0.6813898682594299, 0.13818359375, 0.3505859375, 0.80029296875, 0, 
222, 3073190561, -85.13099670410156, 36.664798736572266, -60.58693313598633, -6.58244514465332, -8.067548751831055, 0.3748292624950409, 1.997269868850708, -3.3514559268951416, 0.7211430668830872, 0.140625, 0.353515625, 0.7958984375, 0, 
223, 3073198894, -85.12157440185547, 36.665061950683594, -60.57164001464844, -6.152797222137451, -7.598330497741699, 0.6218432188034058, 1.88687264919281, -4.836005687713623, 0.7758294939994812, 0.13818359375, 0.34619140625, 0.802734375, 0, 
224, 3073207227, -85.12061309814453, 36.66303253173828, -60.569580078125, -4.544723033905029, -7.866263389587402, 1.1044964790344238, 1.830572485923767, -3.5882339477539062, 0.4292433261871338, 0.1416015625, 0.3505859375, 0.79541015625, 0, 
225, 3073215560, -85.13314819335938, 36.66596603393555, -60.589385986328125, -5.831303119659424, -7.761937141418457, 0.3963618874549866, 1.7705841064453125, -1.4428114891052246, 0.8094611167907715, 0.138671875, 0.34765625, 0.80126953125, 0, 
226, 3073223893, -85.13038635253906, 36.666839599609375, -60.58693313598633, -6.73561954498291, -7.737648010253906, 0.47515881061553955, 2.017274856567383, -3.5997607707977295, 0.7824892997741699, 0.14013671875, 0.349609375, 0.80322265625, 0, 
227, 3073232226, -85.11825561523438, 36.66366958618164, -60.566490173339844, -5.682418346405029, -7.7114129066467285, 0.8137089610099792, 1.8456851243972778, -5.364274501800537, 0.4062674343585968, 0.140625, 0.35009765625, 0.8037109375, 0, 
228, 3073240559, -85.12568664550781, 36.66128158569336, -60.57594299316406, -4.736617565155029, -7.926126480102539, 0.9437726736068726, 1.6490700244903564, -2.4958126544952393, 0.29451245069503784, 0.14013671875, 0.34521484375, 0.8115234375, 0, 
229, 3073248892, -85.13304138183594, 36.663814544677734, -60.589359283447266, -6.23698091506958, -8.058138847351074, 0.20628175139427185, 1.9310829639434814, -2.0596022605895996, 0.8126372694969177, 0.14501953125, 0.3515625, 0.80419921875, 0, 
230, 3073257225, -85.12872314453125, 36.664791107177734, -60.583370208740234, -6.51088285446167, -7.5659098625183105, 0.45003047585487366, 1.9511131048202515, -3.9368185997009277, 0.8224475383758545, 0.1396484375, 0.34521484375, 0.81005859375, 0, 
231, 3073265558, -85.11775970458984, 36.662109375, -60.564598083496094, -5.018680095672607, -7.820173263549805, 1.1071538925170898, 1.8269864320755005, -5.201853275299072, 0.4532950520515442, 0.1455078125, 0.349609375, 0.80908203125, 0, 
232, 3073273891, -85.13054656982422, 36.66265106201172, -60.58308792114258, -5.115418910980225, -7.678683757781982, 0.6697889566421509, 1.6588548421859741, -1.5883259773254395, 0.5683286786079407, 0.14013671875, 0.34814453125, 0.8046875, 0, 
233, 3073282224, -85.13336181640625, 36.664459228515625, -60.589412689208984, -6.626972198486328, -8.06300163269043, 0.1726633459329605, 1.970733880996704, -2.7494192123413086, 0.7850506901741028, 0.14501953125, 0.34716796875, 0.810546875, 0, 
234, 3073290557, -85.12512969970703, 36.664180755615234, -60.57709884643555, -6.370232105255127, -7.457960605621338, 0.5733854174613953, 1.9676599502563477, -4.55903959274292, 0.7243705987930298, 0.14306640625, 0.34814453125, 0.8056640625, 0, 
235, 3073298890, -85.12023162841797, 36.65952682495117, -60.567543029785156, -4.644048690795898, -8.044435501098633, 1.2760063409805298, 1.756188988685608, -4.336246967315674, 0.1415955126285553, 0.138671875, 0.34423828125, 0.81201171875, 0, 
236, 3073307223, -85.13494873046875, 36.661373138427734, -60.58999252319336, -5.5279059410095215, -7.809689044952393, 0.5621122717857361, 1.7046785354614258, -1.1976832151412964, 0.6940176486968994, 0.146484375, 0.3486328125, 0.8076171875, 0, 
237, 3073315556, -85.13245391845703, 36.663909912109375, -60.58984375, -6.716187953948975, -7.986441135406494, 0.29811397194862366, 2.141221761703491, -3.359088897705078, 0.9234699606895447, 0.14111328125, 0.34765625, 0.810546875, 0, 
238, 3073323889, -85.12059783935547, 36.66349792480469, -60.570980072021484, -5.990964889526367, -7.48406982421875, 0.6442115306854248, 1.9348479509353638, -5.184667110443115, 0.7623052000999451, 0.14453125, 0.34912109375, 0.81103515625, 0, 
239, 3073332222, -85.12194061279297, 36.66250991821289, -60.5709228515625, -4.570010185241699, -7.832292556762695, 1.1515533924102783, 1.6888231039047241, -3.3884425163269043, 0.5008350610733032, 0.1455078125, 0.35009765625, 0.80615234375, 0, 
240, 3073340555, -85.13595581054688, 36.66532516479492, -60.592098236083984, -6.0520172119140625, -7.861069202423096, 0.3228070139884949, 1.697737216949463, -1.3142280578613281, 0.8223707675933838, 0.1455078125, 0.34814453125, 0.814453125, 0, 
241, 3073348888, -85.1314697265625, 36.665748596191406, -60.586299896240234, -6.792346954345703, -7.826519966125488, 0.463582843542099, 1.9743198156356812, -3.924959182739258, 0.7177109122276306, 0.14599609375, 0.34814453125, 0.80615234375, 0, 
242, 3073357221, -85.11856842041016, 36.66357421875, -60.564693450927734, -5.327767848968506, -7.843835830688477, 0.946803629398346, 1.866253137588501, -5.467012405395508, 0.5730416178703308, 0.14404296875, 0.34619140625, 0.81396484375, 0, 
243, 3073365554, -85.12751007080078, 36.66398239135742, -60.57780075073242, -4.667926788330078, -7.835516452789307, 0.8451940417289734, 1.719483494758606, -2.1106767654418945, 0.5610541701316833, 0.14501953125, 0.34912109375, 0.81005859375, 0, 
244, 3073373887, -85.13428497314453, 36.66757583618164, -60.59168243408203, -6.438838005065918, -7.977972507476807, 0.1411876678466797, 2.042914628982544, -2.008911609649658, 0.975492537021637, 0.14404296875, 0.34716796875, 0.8095703125, 0, 
245, 3073382220, -85.12733459472656, 36.66728210449219, -60.581504821777344, -6.613383769989014, -7.376564979553223, 0.4776292145252228, 1.9593864679336548, -4.351410388946533, 0.6661238074302673, 0.14404296875, 0.3447265625, 0.81298828125, 0, 
246, 3073390553, -85.11859130859375, 36.6625862121582, -60.56492614746094, -4.879218578338623, -7.9247918128967285, 1.1738166809082031, 1.725579857826233, -5.013384819030762, 0.23175761103630066, 0.146484375, 0.3505859375, 0.80517578125, 0, 
247, 3073398886, -85.13167572021484, 36.66379165649414, -60.58414840698242, -5.185327529907227, -7.851274013519287, 0.6788671612739563, 1.6613649129867554, -1.5160679817199707, 0.6068779826164246, 0.14453125, 0.34375, 0.814453125, 0, 
248, 3073407219, -85.13312530517578, 36.665164947509766, -60.58930969238281, -6.7302775382995605, -8.138875007629395, 0.17036256194114685, 2.057950019836426, -2.8641200065612793, 0.7789033055305481, 0.14794921875, 0.35009765625, 0.8076171875, 0, 
249, 3073415552, -85.12216186523438, 36.66463851928711, -60.57304000854492, -6.263246536254883, -7.470418453216553, 0.6902306079864502, 2.0045700073242188, -4.937976837158203, 0.6900218725204468, 0.14501953125, 0.345703125, 0.810546875, 0, 
250, 3073423885, -85.11947631835938, 36.66297149658203, -60.56761169433594, -4.448059558868408, -7.953042507171631, 1.2187360525131226, 1.7937394380569458, -3.913125514984131, 0.5023720264434814, 0.146484375, 0.34716796875, 0.8134765625, 0, 
251, 3073432218, -85.13453674316406, 36.6668701171875, -60.5919189453125, -5.681402683258057, -7.733300685882568, 0.41638970375061035, 1.7889492511749268, -1.001682996749878, 0.8869953155517578, 0.1474609375, 0.34814453125, 0.8076171875, 0, 
252, 3073440551, -85.13139343261719, 36.667564392089844, -60.58867645263672, -6.986110687255859, -7.850088596343994, 0.3765307366847992, 2.006491184234619, -3.677781581878662, 0.7667109370231628, 0.14501953125, 0.34423828125, 0.814453125, 0, 
253, 3073448884, -85.11798095703125, 36.66535186767578, -60.56620407104492, -5.7788519859313965, -7.652205467224121, 0.8550036549568176, 1.8535741567611694, -5.551565647125244, 0.5383856296539307, 0.1474609375, 0.3505859375, 0.80517578125, 0, 
254, 3073457217, -85.12212371826172, 36.66252136230469, -60.57063674926758, -4.428046703338623, -7.936916828155518, 0.962988555431366, 1.6836494207382202, -2.9783079624176025, 0.2834727466106415, 0.14306640625, 0.345703125, 0.81298828125, 0, 
255, 3073465550, -85.13436889648438, 36.666893005371094, -60.59016418457031, -6.103678226470947, -8.037008285522461, 0.23547326028347015, 1.7849537134170532, -1.4563359022140503, 0.9826645851135254, 0.14697265625, 0.34912109375, 0.81005859375, 0, 
256, 3073473883, -85.12735748291016, 36.66758346557617, -60.580928802490234, -6.87058162689209, -7.58125114440918, 0.5081362128257751, 2.04457950592041, -4.243933200836182, 0.8168123364448547, 0.1455078125, 0.3466796875, 0.80859375, 0, 
257, 3073482216, -85.11649322509766, 36.665550231933594, -60.56235122680664, -5.093829154968262, -7.831437587738037, 0.9954685568809509, 1.8252449035644531, -5.17749547958374, 0.5283448696136475, 0.14453125, 0.34619140625, 0.81298828125, 0, 
258, 3073490549, -85.12718200683594, 36.66580581665039, -60.576995849609375, -4.865629196166992, -7.721410274505615, 0.705694854259491, 1.6310632228851318, -1.9665710926055908, 0.5686103701591492, 0.14794921875, 0.34765625, 0.8076171875, 0, 
259, 3073498882, -85.13178253173828, 36.6682243347168, -60.58712387084961, -6.670333385467529, -8.012941360473633, 0.17537812888622284, 2.0269055366516113, -2.3742988109588623, 0.8232927322387695, 0.14453125, 0.341796875, 0.81640625, 0, 
260, 3073507215, -85.12158966064453, 36.666969299316406, -60.57167434692383, -6.554804801940918, -7.481935024261475, 0.6850612163543701, 1.9789811372756958, -4.867998123168945, 0.6354891061782837, 0.14697265625, 0.34814453125, 0.810546875, 0, 
261, 3073515548, -85.11766052246094, 36.662967681884766, -60.562599182128906, -4.559297561645508, -8.028006553649902, 1.1478984355926514, 1.6736085414886475, -4.284224033355713, 0.21433991193771362, 0.14453125, 0.34375, 0.81494140625, 0, 
262, 3073523881, -85.13092041015625, 36.665340423583984, -60.583251953125, -5.2684197425842285, -7.856622695922852, 0.46747836470603943, 1.7542675733566284, -1.371680736541748, 0.7736011743545532, 0.1455078125, 0.3486328125, 0.8134765625, 0, 
263, 3073532214, -85.1300277709961, 36.66865539550781, -60.584537506103516, -6.942018508911133, -7.841643333435059, 0.294927179813385, 2.0511109828948975, -3.216597080230713, 1.0063832998275757, 0.14501953125, 0.34814453125, 0.80810546875, 0, 
264, 3073540547, -85.11649322509766, 36.666831970214844, -60.562339782714844, -6.065890312194824, -7.505854606628418, 0.8812292218208313, 1.900883674621582, -5.523927211761475, 0.6221185326576233, 0.14306640625, 0.345703125, 0.8134765625, 0, 
265, 3073548880, -85.11893463134766, 36.663917541503906, -60.563636779785156, -4.420687198638916, -7.834402561187744, 0.9397995471954346, 1.653245210647583, -3.2768161296844482, 0.2593441605567932, 0.14892578125, 0.34765625, 0.80810546875, 0, 
266, 3073557213, -85.13253784179688, 36.666996002197266, -60.58649826049805, -5.90983247756958, -7.999354362487793, 0.27737873792648315, 1.867841124534607, -1.1499382257461548, 0.839250385761261, 0.1435546875, 0.3427734375, 0.81298828125, 0, 
267, 3073565546, -85.12720489501953, 36.66765213012695, -60.579490661621094, -7.008708477020264, -7.757624626159668, 0.5425643920898438, 1.9923008680343628, -4.039556503295898, 0.7536220550537109, 0.1494140625, 0.349609375, 0.81201171875, 0, 
268, 3073573879, -85.11495208740234, 36.664161682128906, -60.55879211425781, -5.233546733856201, -7.821189880371094, 0.9027672410011292, 1.8488353490829468, -5.394831657409668, 0.4107755124568939, 0.1484375, 0.345703125, 0.81103515625, 0, 
269, 3073582212, -85.1236801147461, 36.663841247558594, -60.57161331176758, -4.592286109924316, -7.741879463195801, 0.7920293211936951, 1.7246321439743042, -2.1467673778533936, 0.4752977192401886, 0.146484375, 0.34619140625, 0.814453125, 0, 
270, 3073590545, -85.1316146850586, 36.66658020019531, -60.587379455566406, -6.503822326660156, -7.961862564086914, 0.2661299407482147, 2.0434014797210693, -1.8349140882492065, 0.8585123419761658, 0.1513671875, 0.34765625, 0.8115234375, 0, 
271, 3073598878, -85.12324523925781, 36.66584777832031, -60.574119567871094, -6.805089473724365, -7.452706813812256, 0.6688091158866882, 1.906518578529358, -4.652275085449219, 0.6393568515777588, 0.146484375, 0.3447265625, 0.8154296875, 0, 
272, 3073607211, -85.11473083496094, 36.66169738769531, -60.55937957763672, -4.8175506591796875, -7.949461460113525, 1.1116136312484741, 1.829138159751892, -4.832548141479492, 0.28080883622169495, 0.1494140625, 0.34912109375, 0.8115234375, 0, 
273, 3073615544, -85.12535858154297, 36.66398620605469, -60.57582092285156, -5.094305515289307, -7.8458638191223145, 0.5427784323692322, 1.759416103363037, -1.7736704349517822, 0.7604610323905945, 0.14501953125, 0.3466796875, 0.814453125, 0, 
274, 3073623877, -85.12705993652344, 36.66486740112305, -60.5810661315918, -6.718818664550781, -7.918585300445557, 0.4147043526172638, 2.0317981243133545, -2.8585872650146484, 0.7194782495498657, 0.15185546875, 0.34765625, 0.8134765625, 0, 
275, 3073632210, -85.11602783203125, 36.66366195678711, -60.562591552734375, -6.182557106018066, -7.589576721191406, 0.8720216751098633, 1.8556491136550903, -5.1585917472839355, 0.6270620822906494, 0.146484375, 0.3486328125, 0.81005859375, 0, 
276, 3073640543, -85.11711883544922, 36.6610107421875, -60.56114959716797, -4.482340335845947, -7.851539611816406, 0.893088698387146, 1.6293727159500122, -3.539003372192383, 0.35229817032814026, 0.1455078125, 0.3447265625, 0.8154296875, 0, 
277, 3073648876, -85.1287841796875, 36.663944244384766, -60.58038330078125, -5.797584533691406, -7.964191913604736, 0.3271510601043701, 1.830880045890808, -1.4966014623641968, 0.8113052845001221, 0.14990234375, 0.34912109375, 0.81103515625, 0, 
278, 3073657209, -85.12609100341797, 36.665611267089844, -60.57650375366211, -6.968785285949707, -7.657460689544678, 0.5137613415718079, 1.9106171131134033, -3.7325708866119385, 0.8902227878570557, 0.14501953125, 0.34375, 0.81591796875, 0, 
279, 3073665542, -85.1113510131836, 36.661746978759766, -60.55330276489258, -5.487823963165283, -7.833620071411133, 0.9490914940834045, 1.9580291509628296, -5.6359381675720215, 0.34727779030799866, 0.14794921875, 0.34814453125, 0.80029296875, 0, 
280, 3073673875, -85.11882019042969, 36.6595344543457, -60.56306457519531, -4.594083309173584, -7.809601306915283, 0.8753770589828491, 1.667128086090088, -2.4637181758880615, 0.3137231469154358, 0.14404296875, 0.34619140625, 0.79638671875, 0, 
281, 3073682208, -85.12682342529297, 36.663108825683594, -60.577213287353516, -6.178172588348389, -8.082816123962402, 0.1883995085954666, 1.9076712131500244, -1.9782769680023193, 0.930898129940033, 0.14306640625, 0.345703125, 0.802734375, 0, 
282, 3073690541, -85.12017822265625, 36.66368103027344, -60.56877136230469, -6.827243804931641, -7.510575294494629, 0.6004640460014343, 2.0552093982696533, -4.17725944519043, 0.7957319021224976, 0.1455078125, 0.34814453125, 0.7958984375, 0, 
283, 3073698874, -85.11176300048828, 36.6605224609375, -60.552734375, -4.972476959228516, -7.871756076812744, 1.1399306058883667, 1.7155646085739136, -4.9435343742370605, 0.3728664219379425, 0.142578125, 0.34326171875, 0.8046875, 0, 
284, 3073707207, -85.1238784790039, 36.66169738769531, -60.57098388671875, -5.055308818817139, -7.781483173370361, 0.5357312560081482, 1.714284062385559, -1.6124290227890015, 0.6476303339004517, 0.14599609375, 0.34716796875, 0.7978515625, 0, 
285, 3073715540, -85.12615966796875, 36.664180755615234, -60.57646942138672, -6.676184177398682, -7.926431179046631, 0.3876721262931824, 1.9722448587417603, -2.8203446865081787, 0.871498703956604, 0.14306640625, 0.34228515625, 0.80322265625, 0, 
286, 3073723873, -85.11721801757812, 36.663330078125, -60.56074142456055, -6.347384452819824, -7.640594959259033, 0.7525165677070618, 1.8119508028030396, -4.895251750946045, 0.6864615082740784, 0.14599609375, 0.34765625, 0.8037109375, 0, 
287, 3073732206, -85.11536407470703, 36.66106414794922, -60.55598068237305, -4.491414546966553, -7.89457893371582, 0.9280754327774048, 1.7331616878509521, -3.8499865531921387, 0.38767144083976746, 0.1455078125, 0.34521484375, 0.79736328125, 0, 
288, 3073740539, -85.12725067138672, 36.664703369140625, -60.57535171508789, -5.588306903839111, -7.935218811035156, 0.3428475856781006, 1.8284977674484253, -1.4810535907745361, 0.9347401857376099, 0.14501953125, 0.3447265625, 0.80615234375, 0, 
289, 3073748872, -85.12651824951172, 36.667789459228516, -60.57524108886719, -6.873373508453369, -7.617635250091553, 0.5645744204521179, 1.9330805540084839, -3.351020336151123, 0.9884531497955322, 0.1494140625, 0.349609375, 0.80029296875, 0, 
290, 3073757205, -85.11444091796875, 36.664249420166016, -60.554203033447266, -5.7183732986450195, -7.820559978485107, 0.8405389189720154, 1.8060595989227295, -5.426772117614746, 0.4072663187980652, 0.14453125, 0.345703125, 0.8056640625, 0, 
291, 3073765538, -85.12250518798828, 36.6627197265625, -60.5640869140625, -4.669719696044922, -7.811462879180908, 0.7982627153396606, 1.5936920642852783, -2.441587209701538, 0.35639646649360657, 0.1484375, 0.34814453125, 0.8017578125, 0, 
292, 3073773871, -85.12859344482422, 36.66645050048828, -60.576812744140625, -6.094707012176514, -8.090527534484863, 0.21343643963336945, 2.0418386459350586, -2.1162607669830322, 1.0003126859664917, 0.14306640625, 0.345703125, 0.80126953125, 0, 
293, 3073782204, -85.12335205078125, 36.668357849121094, -60.5711784362793, -6.722206115722656, -7.458620071411133, 0.6015525460243225, 2.0803627967834473, -3.8950161933898926, 0.8949614763259888, 0.14501953125, 0.3447265625, 0.806640625, 0, 
294, 3073790537, -85.1144790649414, 36.664878845214844, -60.55558395385742, -5.029049396514893, -7.86245059967041, 1.2363319396972656, 1.8113105297088623, -4.903780937194824, 0.36692389845848083, 0.14599609375, 0.3466796875, 0.79931640625, 0, 
295, 3073798870, -85.12553405761719, 36.66709518432617, -60.57170104980469, -5.060762405395508, -7.768609046936035, 0.4943355321884155, 1.6819076538085938, -1.8023329973220825, 0.7525206804275513, 0.14404296875, 0.3427734375, 0.8076171875, 0, 
296, 3073807203, -85.12642669677734, 36.669063568115234, -60.575870513916016, -6.6215105056762695, -7.962523460388184, 0.36836159229278564, 2.053595542907715, -2.9552550315856934, 0.8608431816101074, 0.1474609375, 0.3486328125, 0.80126953125, 0, 
297, 3073815536, -85.11874389648438, 36.669227600097656, -60.562931060791016, -6.487161159515381, -7.566550254821777, 0.7785341143608093, 1.846888780593872, -4.612163066864014, 0.7445545792579651, 0.14306640625, 0.34375, 0.80517578125, 0, 
298, 3073823869, -85.11578369140625, 36.66440963745117, -60.55636215209961, -4.563601970672607, -7.924516201019287, 0.9887571930885315, 1.7485815286636353, -4.058229923248291, 0.1358322948217392, 0.1474609375, 0.3466796875, 0.80615234375, 0, 
299, 3073832202, -85.12789916992188, 36.66823196411133, -60.575138092041016, -5.477142810821533, -7.9032158851623535, 0.38304558396339417, 1.7467372417449951, -1.5319747924804688, 0.9223430752754211, 0.14404296875, 0.34814453125, 0.8017578125, 0, 
300, 3073840535, -85.12698364257812, 36.67000198364258, -60.57569885253906, -6.7331085205078125, -7.685609340667725, 0.6007168889045715, 2.011972188949585, -3.308628559112549, 0.8671441674232483, 0.14501953125, 0.34375, 0.8095703125, 0, 
301, 3073848868, -85.11543273925781, 36.66829299926758, -60.55598068237305, -5.8257341384887695, -7.740139007568359, 0.7392315864562988, 1.8281391859054565, -5.283434867858887, 0.5774984955787659, 0.1494140625, 0.3486328125, 0.80078125, 0, 
302, 3073857201, -85.12239837646484, 36.666587829589844, -60.56389617919922, -4.73356819152832, -7.766933441162109, 0.8117831349372864, 1.595075249671936, -2.631516695022583, 0.3871079087257385, 0.142578125, 0.34228515625, 0.8076171875, 0, 
303, 3073865534, -85.13018035888672, 36.66957473754883, -60.577693939208984, -6.084907531738281, -8.074197769165039, 0.24735817313194275, 1.9074921607971191, -2.0200283527374268, 0.8648645877838135, 0.14892578125, 0.34619140625, 0.8037109375, 0, 
304, 3073873867, -85.1257553100586, 36.668853759765625, -60.57194137573242, -6.683009624481201, -7.544442653656006, 0.6401993632316589, 1.9839507341384888, -3.9328737258911133, 0.6198388934135437, 0.14599609375, 0.34375, 0.8017578125, 0, 
305, 3073882200, -85.11553955078125, 36.66590881347656, -60.55561828613281, -5.1398396492004395, -7.9598541259765625, 1.1238510608673096, 1.9095157384872437, -4.969661235809326, 0.4004785716533661, 0.14501953125, 0.3447265625, 0.80859375, 0, 
306, 3073890533, -85.12615203857422, 36.667030334472656, -60.57222366333008, -4.989072322845459, -7.782801151275635, 0.5518383979797363, 1.753934621810913, -1.8084802627563477, 0.6603861451148987, 0.1484375, 0.34521484375, 0.80126953125, 0, 
307, 3073898866, -85.12699890136719, 36.67006301879883, -60.57688522338867, -6.442398548126221, -7.928635120391846, 0.2602284848690033, 2.0874576568603516, -2.8928074836730957, 0.943730890750885, 0.14306640625, 0.3408203125, 0.806640625, 0, 
308, 3073907199, -85.1216049194336, 36.6695442199707, -60.56597900390625, -6.54183292388916, -7.42724609375, 0.7908161282539368, 1.7317014932632446, -4.425051212310791, 0.6864102482795715, 0.146484375, 0.3447265625, 0.80029296875, 0, 
309, 3073915532, -85.11714935302734, 36.66517639160156, -60.555973052978516, -4.7167439460754395, -7.9307661056518555, 1.0387247800827026, 1.6698176860809326, -4.376461029052734, 0.17689190804958344, 0.14404296875, 0.34521484375, 0.8046875, 0, 
310, 3073923865, -85.12982940673828, 36.666053771972656, -60.575801849365234, -5.510414123535156, -7.946809768676758, 0.3890286684036255, 1.7641549110412598, -1.4676318168640137, 0.60316401720047, 0.14599609375, 0.3447265625, 0.80712890625, 0, 
311, 3073932198, -85.12776947021484, 36.6672477722168, -60.57540512084961, -6.661276340484619, -7.873811721801758, 0.5989698767662048, 2.070321798324585, -3.3973567485809326, 0.7647641897201538, 0.14599609375, 0.3466796875, 0.80322265625, 0, 
312, 3073940531, -85.11741638183594, 36.664127349853516, -60.558929443359375, -5.828724384307861, -7.748456001281738, 0.6908316016197205, 1.9263439178466797, -4.985721111297607, 0.4197404384613037, 0.14306640625, 0.34375, 0.80859375, 0, 
313, 3073948864, -85.1220703125, 36.6634635925293, -60.5650634765625, -4.635734558105469, -7.697050094604492, 0.8804052472114563, 1.7369014024734497, -2.7935268878936768, 0.4909224808216095, 0.14697265625, 0.3486328125, 0.80224609375, 0, 
314, 3073957197, -85.13140869140625, 36.66657257080078, -60.579933166503906, -6.0560150146484375, -7.957671165466309, 0.2773427963256836, 1.8068281412124634, -1.9158809185028076, 0.9091517925262451, 0.14697265625, 0.34228515625, 0.80810546875, 0, 
315, 3073965530, -85.12823486328125, 36.66714096069336, -60.575740814208984, -6.709006309509277, -7.537968158721924, 0.5441036224365234, 1.9354374408721924, -3.768123149871826, 0.7206053733825684, 0.14599609375, 0.34619140625, 0.80419921875, 0, 
316, 3073973863, -85.11698913574219, 36.6625862121582, -60.55765914916992, -5.305504322052002, -7.960938930511475, 1.1310977935791016, 1.9174046516418457, -5.155569553375244, 0.2612908184528351, 0.14404296875, 0.3447265625, 0.80322265625, 0, 
317, 3073982196, -85.12836456298828, 36.66366195678711, -60.572959899902344, -5.008185386657715, -7.840446949005127, 0.6619555354118347, 1.5844454765319824, -1.8952614068984985, 0.6245006322860718, 0.1474609375, 0.3447265625, 0.81005859375, 0, 
318, 3073990529, -85.12928009033203, 36.6663818359375, -60.57804870605469, -6.266459941864014, -8.039473533630371, 0.22476726770401, 2.1198337078094482, -2.859278678894043, 0.9426293969154358, 0.1455078125, 0.34814453125, 0.802734375, 0, 
319, 3073998862, -85.12461853027344, 36.66698455810547, -60.570064544677734, -6.454868316650391, -7.401408672332764, 0.7577793002128601, 1.8406901359558105, -4.132460117340088, 0.7568750381469727, 0.1435546875, 0.34228515625, 0.80712890625, 0, 
320, 3074007195, -85.1205825805664, 36.663509368896484, -60.56166076660156, -4.801735877990723, -7.872088432312012, 1.0919325351715088, 1.7463786602020264, -4.218472480773926, 0.3113154470920563, 0.1474609375, 0.34814453125, 0.802734375, 0, 
321, 3074015528, -85.13330078125, 36.66606140136719, -60.58039093017578, -5.522745609283447, -7.828806400299072, 0.3810621201992035, 1.6700226068496704, -1.5505450963974, 0.7707836031913757, 0.1435546875, 0.341796875, 0.80908203125, 0, 
322, 3074023861, -85.13043212890625, 36.66718292236328, -60.579010009765625, -6.663975715637207, -7.849517345428467, 0.5075538158416748, 2.107513904571533, -3.498532772064209, 0.8050809502601624, 0.1455078125, 0.34716796875, 0.8056640625, 0, 
323, 3074032194, -85.12126922607422, 36.666751861572266, -60.56315231323242, -5.953831672668457, -7.732476234436035, 0.7899635434150696, 1.818764328956604, -4.899734020233154, 0.6985257267951965, 0.1474609375, 0.34765625, 0.80615234375, 0, 
324, 3074040527, -85.12418365478516, 36.66422653198242, -60.56569290161133, -4.629786491394043, -7.868762016296387, 0.9755004048347473, 1.6943305730819702, -3.15632700920105, 0.3343682587146759, 0.14794921875, 0.34423828125, 0.81494140625, 0, 
325, 3074048860, -85.13465881347656, 36.668121337890625, -60.58317947387695, -5.9570441246032715, -8.014256477355957, 0.25777116417884827, 1.8494244813919067, -1.6563316583633423, 0.9425782561302185, 0.14990234375, 0.349609375, 0.810546875, 0, 
326, 3074057193, -85.13235473632812, 36.66947555541992, -60.57950973510742, -6.608523845672607, -7.553201675415039, 0.528393030166626, 1.8814680576324463, -3.7147176265716553, 0.8531590104103088, 0.1484375, 0.3427734375, 0.81640625, 0, 
327, 3074065526, -85.12152862548828, 36.66665267944336, -60.56027603149414, -5.408957004547119, -7.757643699645996, 0.9827014207839966, 1.7717623710632324, -5.245961666107178, 0.43769606947898865, 0.150390625, 0.34765625, 0.81494140625, 0, 
328, 3074073859, -85.13259887695312, 36.665855407714844, -60.57493209838867, -4.9288506507873535, -7.743942737579346, 0.7676409482955933, 1.5844453573226929, -1.975894808769226, 0.4450473189353943, 0.146484375, 0.34716796875, 0.81396484375, 0, 
329, 3074082192, -85.13536834716797, 36.668128967285156, -60.58225631713867, -6.35719108581543, -8.103609085083008, 0.1828566938638687, 2.047576427459717, -2.6461429595947266, 0.8304135799407959, 0.1484375, 0.34521484375, 0.81884765625, 0, 
330, 3074090525, -85.13028717041016, 36.66767120361328, -60.574039459228516, -6.561861991882324, -7.573506832122803, 0.7015607357025146, 1.8821598291397095, -4.167500019073486, 0.6697098016738892, 0.150390625, 0.3466796875, 0.8115234375, 0, 
331, 3074098858, -85.12307739257812, 36.66474914550781, -60.56178665161133, -4.832496643066406, -7.957041263580322, 1.1380680799484253, 1.8428674936294556, -4.5796332359313965, 0.3720467686653137, 0.146484375, 0.34375, 0.81982421875, 0, 
332, 3074107191, -85.13452911376953, 36.66815948486328, -60.58021926879883, -5.322691917419434, -7.726069450378418, 0.3726385831832886, 1.807827353477478, -1.5721890926361084, 0.9150429368019104, 0.15234375, 0.3486328125, 0.81298828125, 0, 
333, 3074115524, -85.1324462890625, 36.66970443725586, -60.580081939697266, -6.616552352905273, -7.789909839630127, 0.4701043665409088, 2.0955004692077637, -3.371281623840332, 0.8058494329452515, 0.14697265625, 0.34228515625, 0.81591796875, 0, 
334, 3074123857, -85.12454986572266, 36.668453216552734, -60.56468200683594, -6.166455268859863, -7.555524826049805, 0.7636918425559998, 1.7084693908691406, -4.863772392272949, 0.63310706615448, 0.14990234375, 0.3466796875, 0.818359375, 0, 
335, 3074132190, -85.12635803222656, 36.6651611328125, -60.564491271972656, -4.623403072357178, -7.944119453430176, 0.9520401954650879, 1.6208430528640747, -3.424405336380005, 0.22868388891220093, 0.1494140625, 0.3466796875, 0.8115234375, 0, 
336, 3074140523, -85.13727569580078, 36.66766357421875, -60.582672119140625, -5.875737190246582, -8.058876037597656, 0.29759591817855835, 1.8568270206451416, -1.605743646621704, 0.8088207244873047, 0.1484375, 0.34326171875, 0.8173828125, 0, 
337, 3074148856, -85.13285064697266, 36.6692008972168, -60.576717376708984, -6.677052974700928, -7.666502952575684, 0.5703949928283691, 1.9584901332855225, -3.9278790950775146, 0.8524417281150818, 0.15283203125, 0.345703125, 0.810546875, 0, 
338, 3074157189, -85.12095642089844, 36.667415618896484, -60.556861877441406, -5.415476322174072, -7.772625923156738, 0.9054505825042725, 1.8681488037109375, -5.299546718597412, 0.6077233552932739, 0.1455078125, 0.341796875, 0.81591796875, 0, 
339, 3074165522, -85.13043212890625, 36.66719436645508, -60.569271087646484, -4.786818981170654, -7.679303169250488, 0.8087286353111267, 1.6057308912277222, -2.1852145195007324, 0.49102485179901123, 0.15185546875, 0.34619140625, 0.81201171875, 0, 
340, 3074173855, -85.1358413696289, 36.66970443725586, -60.5794563293457, -6.38916540145874, -8.037604331970215, 0.19091565907001495, 1.9422763586044312, -2.3705334663391113, 0.876724123954773, 0.1484375, 0.34423828125, 0.814453125, 0, 
341, 3074182188, -85.13046264648438, 36.66991424560547, -60.57149887084961, -6.637833595275879, -7.549103736877441, 0.6404047012329102, 1.9306474924087524, -4.134918689727783, 0.7112305164337158, 0.14990234375, 0.34716796875, 0.8154296875, 0, 
342, 3074190521, -85.12201690673828, 36.665626525878906, -60.55622482299805, -4.944794178009033, -7.9690375328063965, 1.1825616359710693, 1.782263994216919, -4.883289813995361, 0.26879578828811646, 0.1494140625, 0.34716796875, 0.810546875, 0, 
343, 3074198854, -85.13453674316406, 36.66756820678711, -60.575050354003906, -5.126431465148926, -7.806169509887695, 0.5557582974433899, 1.6995046138763428, -1.5473687648773193, 0.6974500417709351, 0.1484375, 0.34326171875, 0.8203125, 0, 
344, 3074207187, -85.13430786132812, 36.67033386230469, -60.577796936035156, -6.576501846313477, -7.924251079559326, 0.36958813667297363, 2.0880210399627686, -3.087501287460327, 0.9684485793113708, 0.154296875, 0.345703125, 0.81005859375, 0, 
345, 3074215520, -85.12616729736328, 36.6701774597168, -60.563690185546875, -6.310449123382568, -7.514369964599609, 0.7813001871109009, 1.8186619281768799, -4.726479530334473, 0.7148420810699463, 0.1484375, 0.3427734375, 0.814453125, 0, 
346, 3074223853, -85.12409210205078, 36.66578674316406, -60.559715270996094, -4.6556925773620605, -7.895242691040039, 0.9474650621414185, 1.8276269435882568, -3.8014471530914307, 0.1659802496433258, 0.14990234375, 0.3447265625, 0.814453125, 0, 
347, 3074232186, -85.135498046875, 36.67038345336914, -60.57931900024414, -5.7321553230285645, -7.902976036071777, 0.3321079611778259, 1.8881535530090332, -1.4458595514297485, 1.0100204944610596, 0.1494140625, 0.345703125, 0.81201171875, 0, 
348, 3074240519, -85.13206481933594, 36.67105484008789, -60.57557678222656, -6.741262912750244, -7.748702526092529, 0.5857399106025696, 2.006004571914673, -3.722811698913574, 0.7694516777992249, 0.1484375, 0.34375, 0.8193359375, 0, 
349, 3074248852, -85.12154388427734, 36.668067932128906, -60.55746841430664, -5.549307346343994, -7.820491313934326, 0.8616061806678772, 1.8193790912628174, -5.141993522644043, 0.41090354323387146, 0.1513671875, 0.34716796875, 0.81005859375, 0, 
350, 3074257185, -85.12885284423828, 36.66701889038086, -60.567691802978516, -4.655063152313232, -7.832147598266602, 0.7847903966903687, 1.7205337285995483, -2.402627944946289, 0.4496834874153137, 0.1484375, 0.3427734375, 0.81689453125, 0, 
351, 3074265518, -85.13622283935547, 36.67164993286133, -60.58210372924805, -6.20401668548584, -8.008790969848633, 0.2056364268064499, 1.9998828172683716, -1.9436208009719849, 1.054640531539917, 0.15087890625, 0.34765625, 0.814453125, 0, 
352, 3074273851, -85.1313247680664, 36.6725959777832, -60.57518768310547, -6.750580310821533, -7.428569793701172, 0.5702309012413025, 1.9591305255889893, -4.029311180114746, 0.8304647207260132, 0.1474609375, 0.34814453125, 0.814453125, 0, 
353, 3074282184, -85.12297058105469, 36.66854476928711, -60.55974197387695, -5.039977073669434, -7.904332160949707, 1.1640833616256714, 1.7496058940887451, -4.894969940185547, 0.2618030905723572, 0.1513671875, 0.3447265625, 0.8173828125, 0, 
354, 3074290517, -85.13431549072266, 36.66878890991211, -60.576908111572266, -5.085167407989502, -7.838857650756836, 0.5452390313148499, 1.7314456701278687, -1.7275394201278687, 0.5478629469871521, 0.1484375, 0.34716796875, 0.81103515625, 0, 
355, 3074298850, -85.13519287109375, 36.67112731933594, -60.58107376098633, -6.608692169189453, -8.005997657775879, 0.3593983054161072, 2.0456295013427734, -2.94992733001709, 0.8641217947006226, 0.14990234375, 0.341796875, 0.82080078125, 0, 
356, 3074307183, -85.12686920166016, 36.67124557495117, -60.56831359863281, -6.327144622802734, -7.582769870758057, 0.7472476363182068, 1.9472453594207764, -4.601609706878662, 0.7772126793861389, 0.15234375, 0.3486328125, 0.8115234375, 0, 
357, 3074315516, -85.12364959716797, 36.66899108886719, -60.56231689453125, -4.586918354034424, -7.869701862335205, 1.018004059791565, 1.8104398250579834, -3.9698610305786133, 0.399966299533844, 0.146484375, 0.34326171875, 0.81298828125, 0, 
358, 3074323849, -85.13441467285156, 36.67174530029297, -60.58115768432617, -5.645121097564697, -7.845966815948486, 0.3793974816799164, 1.9242181777954102, -1.535637378692627, 0.8349472880363464, 0.15185546875, 0.345703125, 0.814453125, 0, 
359, 3074332182, -85.13262176513672, 36.67342758178711, -60.58010482788086, -6.855269432067871, -7.7057905197143555, 0.5666576623916626, 1.9926080703735352, -3.4560136795043945, 0.8277495503425598, 0.1513671875, 0.34716796875, 0.81201171875, 0, 
360, 3074340515, -85.12187194824219, 36.67013931274414, -60.56096649169922, -5.748627185821533, -7.7828850746154785, 0.8368597030639648, 1.781521201133728, -5.2428107261657715, 0.42365944385528564, 0.1474609375, 0.3447265625, 0.8173828125, 0, 
361, 3074348848, -85.12688446044922, 36.66823959350586, -60.567535400390625, -4.687502861022949, -7.85427713394165, 0.78827303647995, 1.7252469062805176, -2.7633023262023926, 0.3374932110309601, 0.15185546875, 0.34765625, 0.8125, 0, 
362, 3074357181, -85.13368225097656, 36.67182540893555, -60.58060836791992, -5.998425483703613, -8.017991065979004, 0.2548164427280426, 1.9812610149383545, -2.0825014114379883, 0.981255829334259, 0.14697265625, 0.3447265625, 0.81787109375, 0, 
363, 3074365514, -85.12822723388672, 36.673641204833984, -60.574256896972656, -6.669128894805908, -7.473587989807129, 0.6126405596733093, 2.0549533367156982, -3.965813636779785, 0.889556884765625, 0.15185546875, 0.3447265625, 0.81591796875, 0, 
364, 3074373847, -85.1191177368164, 36.6692008972168, -60.557796478271484, -5.116771697998047, -7.869382381439209, 1.103394865989685, 1.7758091688156128, -4.999424934387207, 0.2620592415332794, 0.14990234375, 0.34423828125, 0.8173828125, 0, 
365, 3074382180, -85.12984466552734, 36.669795989990234, -60.57380676269531, -5.109697341918945, -7.805846691131592, 0.5629001259803772, 1.7156413793563843, -1.8334541320800781, 0.5611310601234436, 0.14990234375, 0.34521484375, 0.818359375, 0, 
366, 3074390513, -85.13160705566406, 36.67231750488281, -60.579811096191406, -6.566988468170166, -8.0126953125, 0.34288716316223145, 2.081028699874878, -2.770730495452881, 0.9127120971679688, 0.15185546875, 0.34521484375, 0.81201171875, 0, 
367, 3074398846, -85.12346649169922, 36.67226791381836, -60.56694793701172, -6.416159629821777, -7.5347137451171875, 0.6898115873336792, 1.910412073135376, -4.6084489822387695, 0.7177108526229858, 0.14453125, 0.34375, 0.81884765625, 0, 
368, 3074407179, -85.12101745605469, 36.66872787475586, -60.560752868652344, -4.627341270446777, -7.901932239532471, 1.1076620817184448, 1.7122604846954346, -4.005669593811035, 0.2848815321922302, 0.15380859375, 0.34765625, 0.8125, 0, 
369, 3074415512, -85.13241577148438, 36.672061920166016, -60.57913589477539, -5.469332695007324, -7.845645427703857, 0.39011532068252563, 1.8039848804473877, -1.578361988067627, 0.8677589893341064, 0.1484375, 0.34375, 0.81591796875, 0, 
370, 3074423845, -85.13134765625, 36.67388916015625, -60.58009719848633, -6.710776329040527, -7.782221794128418, 0.5205975770950317, 2.060690402984619, -3.259526491165161, 0.8711656928062439, 0.14990234375, 0.34619140625, 0.81396484375, 0, 
371, 3074432178, -85.11997985839844, 36.6729736328125, -60.56087112426758, -5.925284385681152, -7.704206943511963, 0.798816978931427, 1.8384361267089844, -5.226341247558594, 0.6666616797447205, 0.1513671875, 0.34521484375, 0.8134765625, 0, 
372, 3074440511, -85.12457275390625, 36.670616149902344, -60.56621170043945, -4.652976989746094, -7.799074649810791, 0.8859293460845947, 1.693843960762024, -2.885866641998291, 0.3322422504425049, 0.14697265625, 0.34619140625, 0.81787109375, 0, 
373, 3074448844, -85.13419342041016, 36.67376708984375, -60.58126449584961, -5.998434066772461, -8.047816276550293, 0.28138217329978943, 1.7802150249481201, -1.8980278968811035, 0.8737528920173645, 0.1513671875, 0.3486328125, 0.8115234375, 0, 
374, 3074457177, -85.13062286376953, 36.675106048583984, -60.577213287353516, -6.700311660766602, -7.615670680999756, 0.5125595927238464, 2.0018038749694824, -3.749629497528076, 0.8538762331008911, 0.1484375, 0.341796875, 0.81982421875, 0, 
375, 3074465510, -85.11820983886719, 36.67211151123047, -60.55755615234375, -5.17866849899292, -7.91950798034668, 1.067650556564331, 1.9340026378631592, -5.28853178024292, 0.4223787188529968, 0.15283203125, 0.34375, 0.8037109375, 0, 
376, 3074473843, -85.12870788574219, 36.6727409362793, -60.57319259643555, -4.961214542388916, -7.7411699295043945, 0.6286158561706543, 1.7245041131973267, -1.8739759922027588, 0.6055461764335632, 0.1455078125, 0.34375, 0.7998046875, 0, 
377, 3074482176, -85.13126373291016, 36.67497253417969, -60.579795837402344, -6.443442344665527, -7.973081588745117, 0.277378648519516, 2.0205533504486084, -2.7167868614196777, 0.8342556953430176, 0.1474609375, 0.34375, 0.802734375, 0, 
378, 3074490509, -85.12492370605469, 36.67439270019531, -60.5699348449707, -6.588409900665283, -7.457076549530029, 0.7026854157447815, 1.916149616241455, -4.324592113494873, 0.6696329712867737, 0.14697265625, 0.345703125, 0.79736328125, 0, 
379, 3074498842, -85.11883544921875, 36.669586181640625, -60.558528900146484, -4.778197765350342, -8.008867263793945, 1.137258768081665, 1.7667676210403442, -4.515904903411865, 0.1375228315591812, 0.14404296875, 0.34130859375, 0.80517578125, 0, 
380, 3074507175, -85.12979888916016, 36.671756744384766, -60.57649230957031, -5.404455184936523, -7.882518768310547, 0.4365970492362976, 1.8363615274429321, -1.6319212913513184, 0.7723204493522644, 0.14794921875, 0.34619140625, 0.80029296875, 0, 
381, 3074515508, -85.12781524658203, 36.674625396728516, -60.577064514160156, -6.640068531036377, -7.881194114685059, 0.488730788230896, 2.1333327293395996, -3.2896487712860107, 0.9598422050476074, 0.14599609375, 0.34228515625, 0.80615234375, 0, 
382, 3074523841, -85.11725616455078, 36.67351150512695, -60.558841705322266, -5.9741291999816895, -7.583491802215576, 0.7602568864822388, 1.823119044303894, -5.130237102508545, 0.6716052293777466, 0.1484375, 0.3466796875, 0.806640625, 0, 
383, 3074532174, -85.11946105957031, 36.67172622680664, -60.56093215942383, -4.59197998046875, -7.787051677703857, 0.9610834717750549, 1.740410327911377, -3.1913156509399414, 0.39005354046821594, 0.14990234375, 0.34326171875, 0.80322265625, 0, 
384, 3074540507, -85.13037109375, 36.67512130737305, -60.57859420776367, -6.0845947265625, -7.959029197692871, 0.30354127287864685, 1.8178168535232544, -1.6454713344573975, 0.921087920665741, 0.14599609375, 0.34423828125, 0.80859375, 0, 
385, 3074548840, -85.12785339355469, 36.675506591796875, -60.57521438598633, -6.744533538818359, -7.706575870513916, 0.5121814012527466, 1.9149715900421143, -3.6932783126831055, 0.6935823559761047, 0.1494140625, 0.34765625, 0.8017578125, 0, 
386, 3074557173, -85.11457061767578, 36.67239761352539, -60.554588317871094, -5.375772476196289, -7.87479305267334, 0.9103292226791382, 1.9791865348815918, -5.385431289672852, 0.4557284712791443, 0.1435546875, 0.34423828125, 0.8095703125, 0, 
387, 3074565506, -85.12458801269531, 36.673641204833984, -60.5689697265625, -4.803865432739258, -7.748525619506836, 0.8179417252540588, 1.6820610761642456, -1.981990933418274, 0.6502172946929932, 0.150390625, 0.34619140625, 0.80517578125, 0, 
388, 3074573839, -85.12934875488281, 36.67705154418945, -60.57890319824219, -6.248540878295898, -8.024731636047363, 0.2203461080789566, 2.0047240257263184, -2.385031223297119, 0.988299548625946, 0.1474609375, 0.34814453125, 0.8076171875, 0, 
389, 3074582172, -85.12544250488281, 36.67782974243164, -60.572776794433594, -6.6245317459106445, -7.414985179901123, 0.5006915330886841, 1.883030652999878, -3.9523918628692627, 0.7605891227722168, 0.1474609375, 0.34521484375, 0.8076171875, 0, 
390, 3074590505, -85.11841583251953, 36.67441940307617, -60.559749603271484, -4.999924659729004, -7.919564247131348, 1.1914339065551758, 1.7728893756866455, -4.655323505401611, 0.3578052520751953, 0.1494140625, 0.34619140625, 0.80126953125, 0, 
391, 3074598838, -85.13117218017578, 36.676029205322266, -60.578163146972656, -5.316801071166992, -7.7953338623046875, 0.5084390044212341, 1.6422566175460815, -1.5906567573547363, 0.6602324843406677, 0.14501953125, 0.34326171875, 0.8115234375, 0, 
392, 3074607171, -85.13092041015625, 36.67689895629883, -60.57932662963867, -6.573846817016602, -7.989264011383057, 0.4049580991268158, 1.9755743741989136, -3.256938934326172, 0.7536219358444214, 0.150390625, 0.34619140625, 0.80322265625, 0, 
393, 3074615504, -85.12276458740234, 36.67573165893555, -60.56524658203125, -6.1826701164245605, -7.553790092468262, 0.7177414298057556, 1.823119044303894, -4.734701633453369, 0.5971446633338928, 0.14453125, 0.34228515625, 0.8056640625, 0, 
394, 3074623837, -85.12289428710938, 36.67264175415039, -60.563255310058594, -4.539218902587891, -7.923946380615234, 1.0486570596694946, 1.705318808555603, -3.5944583415985107, 0.3051679730415344, 0.14892578125, 0.34521484375, 0.8076171875, 0, 
395, 3074632170, -85.13545989990234, 36.67659378051758, -60.58351135253906, -5.79277229309082, -7.901088714599609, 0.2835811674594879, 1.795941948890686, -1.3894312381744385, 0.925262987613678, 0.14794921875, 0.34375, 0.80517578125, 0, 
396, 3074640503, -85.13248443603516, 36.67852783203125, -60.580665588378906, -6.772939205169678, -7.6832661628723145, 0.4965795576572418, 2.0164551734924316, -3.6295244693756104, 0.9146332144737244, 0.14794921875, 0.3427734375, 0.8125, 0, 
397, 3074648836, -85.11946105957031, 36.67644119262695, -60.55829620361328, -5.644869804382324, -7.67896842956543, 0.8841007947921753, 1.8123606443405151, -5.538271427154541, 0.5521916747093201, 0.15380859375, 0.34765625, 0.80126953125, 0, 
398, 3074657169, -85.12760925292969, 36.67421340942383, -60.5692024230957, -4.694545269012451, -7.832272529602051, 0.9629591703414917, 1.668255090713501, -2.3556768894195557, 0.3038872480392456, 0.14501953125, 0.34130859375, 0.81005859375, 0, 
399, 3074665502, -85.13502502441406, 36.67644500732422, -60.58256912231445, -6.2397613525390625, -8.155999183654785, 0.2500321865081787, 1.9224252700805664, -2.0691051483154297, 0.7795692682266235, 0.150390625, 0.34765625, 0.8046875, 0, 
400, 3074673835, -85.12997436523438, 36.677101135253906, -60.5765380859375, -6.600021839141846, -7.603408336639404, 0.5037970542907715, 2.0367417335510254, -3.945117712020874, 0.785563051700592, 0.14794921875, 0.3447265625, 0.80224609375, 0, 
401, 3074682168, -85.1174545288086, 36.67549514770508, -60.55690002441406, -4.972282409667969, -7.89169454574585, 1.082608938217163, 1.952265977859497, -5.273420810699463, 0.5890761613845825, 0.14794921875, 0.34326171875, 0.806640625, 0, 
402, 3074690501, -85.13002014160156, 36.67723083496094, -60.575439453125, -5.057375907897949, -7.646435260772705, 0.6788238286972046, 1.683009147644043, -1.5796939134597778, 0.7151750922203064, 0.150390625, 0.34619140625, 0.802734375, 0, 
403, 3074698834, -85.13188171386719, 36.67965316772461, -60.58039093017578, -6.594482421875, -7.958666801452637, 0.25770682096481323, 1.9849750995635986, -2.8720345497131348, 0.8675541877746582, 0.14453125, 0.34130859375, 0.80908203125, 0, 
404, 3074707167, -85.12450408935547, 36.67899703979492, -60.567230224609375, -6.458855152130127, -7.464646816253662, 0.623505711555481, 1.8047535419464111, -4.642260551452637, 0.6883057951927185, 0.14892578125, 0.34814453125, 0.80419921875, 0, 
405, 3074715500, -85.12001037597656, 36.67474365234375, -60.55854797363281, -4.678796768188477, -8.042823791503906, 1.17206871509552, 1.7708914279937744, -4.248569488525391, 0.18278320133686066, 0.14453125, 0.34375, 0.806640625, 0, 
406, 3074723833, -85.13304138183594, 36.67816925048828, -60.57805633544922, -5.542041778564453, -7.8942155838012695, 0.4519963562488556, 1.6988385915756226, -1.4702699184417725, 0.9112776517868042, 0.14892578125, 0.34521484375, 0.80908203125, 0, 
407, 3074732166, -85.13138580322266, 36.6814079284668, -60.57832717895508, -6.652698993682861, -7.857792377471924, 0.4268428683280945, 2.0707314014434814, -3.3136239051818848, 1.0052306652069092, 0.1484375, 0.3447265625, 0.80322265625, 0, 
408, 3074740499, -85.11894226074219, 36.68038558959961, -60.55821990966797, -5.883910179138184, -7.519647598266602, 0.7545547485351562, 1.9155348539352417, -5.308178901672363, 0.6996527910232544, 0.14892578125, 0.341796875, 0.8125, 0, 
409, 3074748832, -85.12354278564453, 36.67864990234375, -60.56285095214844, -4.612516403198242, -7.829862594604492, 1.005281686782837, 1.6332405805587769, -2.947801351547241, 0.37553030252456665, 0.1484375, 0.3486328125, 0.8056640625, 0, 
410, 3074757165, -85.13424682617188, 36.68122863769531, -60.58028030395508, -6.177557468414307, -7.960393905639648, 0.2544199526309967, 1.8245275020599365, -1.6756446361541748, 0.8249319791793823, 0.14697265625, 0.34130859375, 0.81005859375, 0, 
411, 3074765498, -85.12994384765625, 36.681331634521484, -60.575286865234375, -6.721002578735352, -7.702648162841797, 0.4797617793083191, 2.0141241550445557, -3.8514981269836426, 0.672937273979187, 0.14990234375, 0.34814453125, 0.80517578125, 0, 
412, 3074773831, -85.11752319335938, 36.67875671386719, -60.55448913574219, -5.210458278656006, -7.843958854675293, 1.0113606452941895, 1.8613351583480835, -5.398033142089844, 0.5198408961296082, 0.14501953125, 0.34423828125, 0.8076171875, 0, 
413, 3074782164, -85.12979125976562, 36.67866134643555, -60.57072448730469, -4.800948619842529, -7.841042518615723, 0.8952909708023071, 1.5452044010162354, -1.817624568939209, 0.4772956967353821, 0.1494140625, 0.34375, 0.80810546875, 0, 
414, 3074790497, -85.135986328125, 36.68206024169922, -60.581764221191406, -6.498039722442627, -8.063215255737305, 0.20867839455604553, 1.9113342761993408, -2.28057599067688, 0.9767220616340637, 0.15087890625, 0.345703125, 0.802734375, 0, 
415, 3074798830, -85.12869262695312, 36.682830810546875, -60.572166442871094, -6.609407424926758, -7.431161880493164, 0.4472985863685608, 2.041172742843628, -4.2861199378967285, 0.790916383266449, 0.14599609375, 0.34130859375, 0.8076171875, 0, 
416, 3074807163, -85.11973571777344, 36.67888641357422, -60.55693054199219, -4.835341453552246, -7.870914936065674, 1.213767170906067, 1.8448140621185303, -4.875861644744873, 0.31146907806396484, 0.150390625, 0.349609375, 0.80224609375, 0, 
417, 3074815496, -85.13333129882812, 36.679954528808594, -60.577186584472656, -5.316639423370361, -7.739655017852783, 0.6772233247756958, 1.6746842861175537, -1.4180679321289062, 0.5818785429000854, 0.14697265625, 0.3408203125, 0.8076171875, 0, 
418, 3074823829, -85.1340560913086, 36.6800422668457, -60.580078125, -6.668567180633545, -8.050989151000977, 0.34468957781791687, 1.983258605003357, -3.0945961475372314, 0.6461701989173889, 0.14892578125, 0.345703125, 0.81103515625, 0, 
419, 3074832162, -85.1233139038086, 36.67815017700195, -60.56345748901367, -6.193605422973633, -7.614797592163086, 0.6867688298225403, 1.951087474822998, -4.988487720489502, 0.5303427577018738, 0.1513671875, 0.34716796875, 0.8134765625, 0, 
420, 3074840495, -85.1224365234375, 36.675376892089844, -60.561927795410156, -4.494691848754883, -7.962420463562012, 1.1754605770111084, 1.8602848052978516, -3.551682233810425, 0.3398752212524414, 0.1494140625, 0.34228515625, 0.818359375, 0, 
421, 3074848828, -85.13468933105469, 36.679141998291016, -60.58218765258789, -5.854465484619141, -7.791076183319092, 0.38113200664520264, 1.8354138135910034, -1.3927357196807861, 0.9045155644416809, 0.1513671875, 0.34521484375, 0.8115234375, 0, 
422, 3074857161, -85.1323471069336, 36.679656982421875, -60.580814361572266, -6.8151984214782715, -7.674360752105713, 0.4333455264568329, 2.047166585922241, -3.4987635612487793, 0.732541561126709, 0.1474609375, 0.3408203125, 0.8193359375, 0, 
423, 3074865494, -85.1183090209961, 36.67575454711914, -60.55738067626953, -5.577226161956787, -7.61586332321167, 0.8926989436149597, 1.8605414628982544, -5.661118030548096, 0.3437942564487457, 0.15478515625, 0.34521484375, 0.8154296875, 0, 
424, 3074873827, -85.1275863647461, 36.67303466796875, -60.56792449951172, -4.5786452293396, -7.918214321136475, 0.9781787395477295, 1.5074235200881958, -2.3911020755767822, 0.24935463070869446, 0.15087890625, 0.341796875, 0.81494140625, 0, 
425, 3074882160, -85.1373062133789, 36.67649459838867, -60.58466720581055, -6.238491535186768, -8.117097854614258, 0.22982388734817505, 1.8857200145721436, -1.730766773223877, 0.8948846459388733, 0.15087890625, 0.3408203125, 0.818359375, 0, 
426, 3074890493, -85.13200378417969, 36.6778564453125, -60.578128814697266, -6.67429780960083, -7.5713582038879395, 0.36611583828926086, 2.028442621231079, -3.9890973567962646, 0.8768265843391418, 0.15185546875, 0.3466796875, 0.8115234375, 0, 
427, 3074898826, -85.12124633789062, 36.676055908203125, -60.55900573730469, -4.94462776184082, -7.813770294189453, 1.1196818351745605, 1.774477481842041, -5.2261881828308105, 0.5612335801124573, 0.1494140625, 0.34326171875, 0.8203125, 0, 
428, 3074907159, -85.13494873046875, 36.6768798828125, -60.57827377319336, -5.0167236328125, -7.632103443145752, 0.8076444864273071, 1.5986359119415283, -1.5197055339813232, 0.6003720760345459, 0.15380859375, 0.3486328125, 0.81396484375, 0, 
429, 3074915492, -85.14032745361328, 36.680110931396484, -60.58845138549805, -6.698883533477783, -8.08236026763916, 0.17653915286064148, 1.9392025470733643, -2.363617420196533, 0.9232395887374878, 0.14697265625, 0.341796875, 0.8173828125, 0, 
430, 3074923825, -85.13076782226562, 36.678646087646484, -60.57310485839844, -6.490711688995361, -7.516129016876221, 0.505815863609314, 1.907952904701233, -4.863720417022705, 0.6100541949272156, 0.15087890625, 0.34716796875, 0.81787109375, 0, 
431, 3074932158, -85.12541198730469, 36.676021575927734, -60.562530517578125, -4.580478668212891, -8.010580062866211, 1.212079644203186, 1.7408204078674316, -4.415933132171631, 0.3923332393169403, 0.15185546875, 0.34716796875, 0.81103515625, 0, 
432, 3074940491, -85.14006042480469, 36.67905807495117, -60.58509826660156, -5.381927013397217, -7.8495683670043945, 0.584984302520752, 1.7198164463043213, -1.1742717027664185, 0.8366121053695679, 0.14892578125, 0.34228515625, 0.81640625, 0, 
433, 3074948824, -85.14122009277344, 36.68289566040039, -60.58872985839844, -6.824841499328613, -7.9208984375, 0.2692791223526001, 1.9769833087921143, -2.9865810871124268, 1.0508239269256592, 0.1533203125, 0.3466796875, 0.81298828125, 0, 
434, 3074957157, -85.1288833618164, 36.68223190307617, -60.56779479980469, -6.141632556915283, -7.481640338897705, 0.7573334574699402, 1.8424830436706543, -5.3859944343566895, 0.7512654066085815, 0.146484375, 0.3408203125, 0.8173828125, 0, 
435, 3074965490, -85.13079833984375, 36.67964172363281, -60.56875991821289, -4.508848667144775, -7.885321617126465, 1.0703219175338745, 1.694535255432129, -3.3099353313446045, 0.3024272322654724, 0.154296875, 0.34423828125, 0.81494140625, 0, 
436, 3074973823, -85.1429214477539, 36.68167495727539, -60.58911895751953, -5.994823455810547, -7.896075248718262, 0.3075471818447113, 1.8670984506607056, -1.3978328704833984, 0.7357176542282104, 0.14990234375, 0.345703125, 0.81787109375, 0, 
437, 3074982156, -85.13957214355469, 36.681339263916016, -60.584651947021484, -6.878995418548584, -7.756931304931641, 0.49204021692276, 1.936846137046814, -3.806185722351074, 0.6148441433906555, 0.1513671875, 0.34326171875, 0.81640625, 0, 
438, 3074990489, -85.12714385986328, 36.67782211303711, -60.563602447509766, -5.225433349609375, -7.832477569580078, 0.9764670729637146, 1.8434821367263794, -5.427387714385986, 0.4104425013065338, 0.15283203125, 0.345703125, 0.8115234375, 0, 
439, 3074998822, -85.13653564453125, 36.67792510986328, -60.576927185058594, -4.647466659545898, -7.8617143630981445, 0.8482099175453186, 1.6842126846313477, -2.0937204360961914, 0.5238367915153503, 0.14794921875, 0.34130859375, 0.81787109375, 0, 
440, 3075007155, -85.14476776123047, 36.6812629699707, -60.59077835083008, -6.478492736816406, -8.047245025634766, 0.1469668745994568, 1.8665093183517456, -2.01326584815979, 0.9471632838249207, 0.15478515625, 0.34765625, 0.810546875, 0, 
441, 3075015488, -85.13636016845703, 36.68122863769531, -60.578224182128906, -6.749546527862549, -7.386440753936768, 0.40419259667396545, 1.9620250463485718, -4.576611042022705, 0.7166351675987244, 0.14794921875, 0.34375, 0.81689453125, 0, 
442, 3075023821, -85.12696075439453, 36.67807388305664, -60.561641693115234, -4.805347919464111, -7.882976531982422, 1.24901282787323, 1.804625391960144, -4.997196674346924, 0.4189976453781128, 0.1533203125, 0.34521484375, 0.81689453125, 0, 
443, 3075032154, -85.14086151123047, 36.67865753173828, -60.5821533203125, -5.100547790527344, -7.786523342132568, 0.6243124008178711, 1.6553198099136353, -1.4005991220474243, 0.5227352976799011, 0.1513671875, 0.3447265625, 0.81103515625, 0, 
444, 3075040487, -85.14321899414062, 36.68087387084961, -60.58793640136719, -6.679710865020752, -8.071436882019043, 0.21215379238128662, 1.9928640127182007, -2.7978556156158447, 0.8767496347427368, 0.14892578125, 0.34326171875, 0.81787109375, 0, 
445, 3075048820, -85.13080596923828, 36.67955017089844, -60.568477630615234, -6.327519416809082, -7.513360500335693, 0.6946411728858948, 1.9484747648239136, -5.25282621383667, 0.6202230453491211, 0.15234375, 0.3505859375, 0.81396484375, 0, 
446, 3075057153, -85.1293716430664, 36.677093505859375, -60.56450271606445, -4.4390869140625, -7.8763041496276855, 1.1403065919876099, 1.751193881034851, -3.7801358699798584, 0.3977378308773041, 0.146484375, 0.3427734375, 0.8203125, 0, 
447, 3075065486, -85.14249420166016, 36.68172073364258, -60.584842681884766, -5.654233455657959, -7.790708065032959, 0.3917316496372223, 1.7392065525054932, -1.377187728881836, 1.0083811283111572, 0.15234375, 0.34814453125, 0.8154296875, 0, 
448, 3075073819, -85.14151000976562, 36.68390655517578, -60.58422088623047, -6.9853997230529785, -7.762052059173584, 0.4585192799568176, 1.9346686601638794, -3.412161350250244, 0.9269790053367615, 0.1474609375, 0.3447265625, 0.8154296875, 0, 
449, 3075082152, -85.12820434570312, 36.680694580078125, -60.562843322753906, -5.684791564941406, -7.751057147979736, 0.8739798665046692, 1.9174816608428955, -5.454513072967529, 0.4098277986049652, 0.150390625, 0.34423828125, 0.81689453125, 0, 
450, 3075090485, -85.13488006591797, 36.679134368896484, -60.57069778442383, -4.47820520401001, -7.902790546417236, 0.9175108671188354, 1.6248904466629028, -2.639073133468628, 0.4080347716808319, 0.15185546875, 0.345703125, 0.81005859375, 0, 
451, 3075098818, -85.14462280273438, 36.68355941772461, -60.58777618408203, -6.112369537353516, -8.080944061279297, 0.23344841599464417, 1.9098485708236694, -1.6916024684906006, 1.0096362829208374, 0.14697265625, 0.3427734375, 0.81982421875, 0, 
452, 3075107151, -85.1384048461914, 36.68475341796875, -60.57981872558594, -6.842609882354736, -7.491441249847412, 0.5354179739952087, 2.036587953567505, -4.123725414276123, 0.8667601346969604, 0.1552734375, 0.345703125, 0.810546875, 0, 
453, 3075115484, -85.12786102294922, 36.681396484375, -60.562278747558594, -5.043123722076416, -7.836191177368164, 1.1126477718353271, 1.8625390529632568, -5.08664083480835, 0.3617754578590393, 0.14794921875, 0.34033203125, 0.81494140625, 0, 
454, 3075123817, -85.1398696899414, 36.68199920654297, -60.579776763916016, -4.994417667388916, -7.767230033874512, 0.6847137212753296, 1.6770408153533936, -1.6952910423278809, 0.5892811417579651, 0.15087890625, 0.34521484375, 0.8154296875, 0, 
455, 3075132150, -85.14380645751953, 36.684043884277344, -60.5890998840332, -6.687493324279785, -8.055181503295898, 0.20353107154369354, 2.0483193397521973, -2.4580061435699463, 0.7885598540306091, 0.1533203125, 0.3447265625, 0.81494140625, 0, 
456, 3075140483, -85.13258361816406, 36.682159423828125, -60.57180404663086, -6.521082878112793, -7.545852184295654, 0.7597280740737915, 1.9696580171585083, -5.053906440734863, 0.5761666297912598, 0.1484375, 0.341796875, 0.81982421875, 0, 
457, 3075148816, -85.12872314453125, 36.67885208129883, -60.56418228149414, -4.544129371643066, -7.975583553314209, 1.1773079633712769, 1.7720439434051514, -4.13814640045166, 0.2864440083503723, 0.15185546875, 0.34716796875, 0.8125, 0, 
458, 3075157149, -85.1417007446289, 36.681602478027344, -60.5846061706543, -5.396783351898193, -7.860191345214844, 0.343342661857605, 1.7669981718063354, -1.3898156881332397, 0.8224731087684631, 0.1484375, 0.34228515625, 0.81689453125, 0, 
459, 3075165482, -85.13964080810547, 36.684200286865234, -60.58489227294922, -6.964932441711426, -7.798102378845215, 0.4514177441596985, 2.1223437786102295, -3.3184900283813477, 0.9283621907234192, 0.15380859375, 0.34814453125, 0.8154296875, 0, 
460, 3075173815, -85.12613677978516, 36.6809196472168, -60.562801361083984, -5.982902526855469, -7.630620956420898, 0.8696596026420593, 1.9023178815841675, -5.52300500869751, 0.44635364413261414, 0.14990234375, 0.34423828125, 0.8154296875, 0, 
461, 3075182148, -85.12960052490234, 36.67814636230469, -60.566593170166016, -4.508322715759277, -7.8323540687561035, 0.8334503769874573, 1.7091355323791504, -3.0363757610321045, 0.2576279938220978, 0.15234375, 0.3427734375, 0.8203125, 0, 
462, 3075190481, -85.13966369628906, 36.681068420410156, -60.58435821533203, -5.9747514724731445, -8.03119945526123, 0.2279425710439682, 1.9275225400924683, -1.6430891752243042, 0.863635241985321, 0.154296875, 0.3466796875, 0.8115234375, 0, 
463, 3075198814, -85.1343994140625, 36.680198669433594, -60.57737731933594, -6.951957702636719, -7.6113057136535645, 0.5801149010658264, 1.9855132102966309, -4.049904823303223, 0.5724013447761536, 0.14794921875, 0.34130859375, 0.822265625, 0, 
464, 3075207147, -85.1246566772461, 36.67534255981445, -60.560943603515625, -5.108112812042236, -7.8428239822387695, 1.0008858442306519, 1.8529080152511597, -4.997119426727295, 0.21257252991199493, 0.1533203125, 0.3466796875, 0.80908203125, 0, 
465, 3075215480, -85.13367462158203, 36.675968170166016, -60.57562255859375, -4.813467025756836, -7.716622829437256, 0.5625609755516052, 1.8242970705032349, -1.9598090648651123, 0.5764995813369751, 0.15087890625, 0.34521484375, 0.81640625, 0, 
466, 3075223813, -85.13785552978516, 36.67818069458008, -60.585567474365234, -6.53942346572876, -7.92033052444458, 0.2310192883014679, 2.072934150695801, -2.4019362926483154, 0.8438096046447754, 0.15234375, 0.34423828125, 0.8173828125, 0, 
467, 3075232146, -85.12882995605469, 36.67576217651367, -60.57105255126953, -6.634154319763184, -7.47587776184082, 0.7052077651023865, 1.8971437215805054, -4.790463924407959, 0.44981154799461365, 0.1513671875, 0.345703125, 0.81201171875, 0, 
468, 3075240479, -85.12519836425781, 36.669944763183594, -60.56159591674805, -4.599948883056641, -7.993529319763184, 1.0529738664627075, 1.6212531328201294, -4.339935302734375, 0.0404961071908474, 0.14990234375, 0.3447265625, 0.81982421875, 0, 
469, 3075248812, -85.13642120361328, 36.67340850830078, -60.579524993896484, -5.260694980621338, -7.918191432952881, 0.41147077083587646, 1.7932524681091309, -1.6177823543548584, 0.8884297013282776, 0.15234375, 0.34716796875, 0.8125, 0, 
470, 3075257145, -85.13642120361328, 36.6763801574707, -60.582275390625, -6.773331642150879, -7.756286144256592, 0.47985565662384033, 2.05930757522583, -3.0831470489501953, 0.9930126070976257, 0.1484375, 0.3427734375, 0.81982421875, 0, 
471, 3075265478, -85.12467956542969, 36.675071716308594, -60.56131362915039, -5.944501876831055, -7.650309085845947, 0.8226407766342163, 1.7606971263885498, -5.396803855895996, 0.6347463726997375, 0.1552734375, 0.3466796875, 0.80615234375, 0, 
472, 3075273811, -85.12879180908203, 36.672664642333984, -60.56483840942383, -4.568375110626221, -7.757424831390381, 0.8476901054382324, 1.6220215559005737, -3.064499855041504, 0.34289777278900146, 0.1474609375, 0.34326171875, 0.8017578125, 0, 
473, 3075282144, -85.13876342773438, 36.677520751953125, -60.58151626586914, -5.913411617279053, -8.033370018005371, 0.31763312220573425, 1.8538047075271606, -1.723236083984375, 1.0656545162200928, 0.14599609375, 0.3447265625, 0.80419921875, 0, 
474, 3075290477, -85.13543701171875, 36.67839431762695, -60.577117919921875, -6.868049621582031, -7.659827709197998, 0.6200690269470215, 1.9474760293960571, -3.7899465560913086, 0.7992666363716125, 0.1494140625, 0.345703125, 0.7998046875, 0, 
475, 3075298810, -85.124755859375, 36.675594329833984, -60.558753967285156, -5.277266979217529, -7.937503337860107, 1.103826880455017, 1.8174325227737427, -5.162459850311279, 0.43685081601142883, 0.14599609375, 0.3447265625, 0.806640625, 0, 
476, 3075307143, -85.13428497314453, 36.67689895629883, -60.57170104980469, -4.730312347412109, -7.796739101409912, 0.6938332319259644, 1.6502737998962402, -2.117823600769043, 0.7088995575904846, 0.14892578125, 0.34765625, 0.80029296875, 0, 
477, 3075315476, -85.13872528076172, 36.682613372802734, -60.581939697265625, -6.310848236083984, -7.944042205810547, 0.2707768678665161, 2.0557472705841064, -2.3335466384887695, 1.2209280729293823, 0.14697265625, 0.33984375, 0.80419921875, 0, 
478, 3075323809, -85.1313247680664, 36.683387756347656, -60.57038497924805, -6.724267959594727, -7.482391834259033, 0.8412917256355286, 1.9210165739059448, -4.471515655517578, 0.8465505242347717, 0.14990234375, 0.3447265625, 0.80615234375, 0, 
479, 3075332142, -85.1259994506836, 36.680519104003906, -60.559444427490234, -4.835865020751953, -7.91404914855957, 1.0099693536758423, 1.7085464000701904, -4.450922012329102, 0.36541271209716797, 0.14599609375, 0.34423828125, 0.80322265625, 0, 
480, 3075340475, -85.13723754882812, 36.68296813964844, -60.57679748535156, -5.239978790283203, -7.927950382232666, 0.4204079210758209, 1.7596466541290283, -1.683534026145935, 0.8129445314407349, 0.14794921875, 0.34326171875, 0.8076171875, 0, 
481, 3075348808, -85.13615417480469, 36.6859130859375, -60.5777473449707, -6.70596981048584, -7.841212749481201, 0.6323572397232056, 2.0516741275787354, -3.2533020973205566, 0.9634537100791931, 0.1494140625, 0.34765625, 0.80224609375, 0, 
482, 3075357141, -85.12663269042969, 36.6844596862793, -60.56087112426758, -5.974424839019775, -7.7681732177734375, 0.7730095386505127, 1.7935088872909546, -5.0047783851623535, 0.6236298084259033, 0.14794921875, 0.34130859375, 0.8095703125, 0, 
483, 3075365474, -85.12950134277344, 36.68384552001953, -60.56367874145508, -4.607234477996826, -7.791415214538574, 0.7997088432312012, 1.7104419469833374, -3.1127572059631348, 0.526013970375061, 0.15185546875, 0.34716796875, 0.8046875, 0, 
484, 3075373807, -85.13915252685547, 36.688873291015625, -60.579586029052734, -5.896894454956055, -7.93467903137207, 0.2573435306549072, 1.846453309059143, -1.7943410873413086, 1.1312525272369385, 0.14501953125, 0.341796875, 0.8076171875, 0, 
485, 3075382140, -85.13677978515625, 36.69068908691406, -60.5760612487793, -6.796918869018555, -7.4733476638793945, 0.5358014106750488, 1.8862323760986328, -3.6924588680267334, 0.8659661412239075, 0.1494140625, 0.3447265625, 0.80712890625, 0, 
486, 3075390473, -85.12850189208984, 36.686859130859375, -60.55976867675781, -5.476512908935547, -7.889493465423584, 1.0279821157455444, 1.6897711753845215, -4.973119258880615, 0.3345987796783447, 0.150390625, 0.3466796875, 0.80322265625, 0, 
487, 3075398806, -85.13851928710938, 36.686866760253906, -60.57267379760742, -4.909625053405762, -7.813990116119385, 0.6347911357879639, 1.5753779411315918, -2.1361632347106934, 0.514641284942627, 0.14794921875, 0.3427734375, 0.81103515625, 0, 
488, 3075407139, -85.14102935791016, 36.68947982788086, -60.579551696777344, -6.247302532196045, -8.0902681350708, 0.2355174869298935, 2.055285930633545, -2.6905832290649414, 0.9165283441543579, 0.1533203125, 0.34765625, 0.80517578125, 0, 
489, 3075415472, -85.1365966796875, 36.6896858215332, -60.57267379760742, -6.58013916015625, -7.511471271514893, 0.7528560161590576, 1.8931998014450073, -4.028594493865967, 0.7015227675437927, 0.14501953125, 0.3408203125, 0.80908203125, 0, 
490, 3075423805, -85.13126373291016, 36.6868896484375, -60.5622444152832, -4.927969932556152, -7.827894687652588, 0.9671911597251892, 1.7543190717697144, -4.403356075286865, 0.4123379588127136, 0.150390625, 0.3466796875, 0.8056640625, 0, 
491, 3075432138, -85.14110565185547, 36.6887092590332, -60.57875061035156, -5.389554977416992, -7.7567033767700195, 0.3978760540485382, 1.8567248582839966, -1.7715446949005127, 0.7012665867805481, 0.150390625, 0.3427734375, 0.80517578125, 0, 
492, 3075440471, -85.14148712158203, 36.689205169677734, -60.57958984375, -6.67189359664917, -7.790421009063721, 0.5349783897399902, 1.8792904615402222, -3.2874200344085693, 0.7130489349365234, 0.14990234375, 0.3427734375, 0.81298828125, 0, 
493, 3075448804, -85.13373565673828, 36.6855354309082, -60.564544677734375, -6.070696830749512, -7.791359901428223, 0.793594479560852, 1.7032184600830078, -4.853577136993408, 0.3040921986103058, 0.14892578125, 0.34912109375, 0.802734375, 0, 
494, 3075457137, -85.13591766357422, 36.681251525878906, -60.56695556640625, -4.74656867980957, -7.878303527832031, 0.8650946021080017, 1.7752200365066528, -3.189676523208618, 0.1272515058517456, 0.14599609375, 0.33935546875, 0.81005859375, 0, 
