sep=,
PacketCounter,SampleTimeFine,Euler_X,Euler_Y,Euler_Z,Acc_X,Acc_Y,Acc_Z,Gyr_X,Gyr_Y,Gyr_Z,Mag_X,Mag_Y,Mag_Z,Status,
0, 2778968997, 84.0985107421875, -21.155881881713867, -29.338224411010742, 0, 0, 0, 0, 0, 0, -1.18310546875, -0.0458984375, -1.11767578125, 0, 
1, 2778977330, 84.10028076171875, -21.156387329101562, -29.339740753173828, 3.387751340866089, 8.938956260681152, 1.0354243516921997, 1.9972314834594727, -3.5383758544921875, 0.6472845077514648, -1.1806640625, -0.046875, -1.12060546875, 0, 
2, 2778985663, 84.10193634033203, -21.155637741088867, -29.341144561767578, 3.750405788421631, 9.30774974822998, 0.9259640574455261, 2.0081686973571777, -3.4573581218719482, 0.5057146549224854, -1.181640625, -0.048828125, -1.1201171875, 0, 
3, 2778993996, 84.10176849365234, -21.15528678894043, -29.341489791870117, 3.9340641498565674, 9.432591438293457, 0.7818571329116821, 1.8146787881851196, -3.397753953933716, 0.5586592555046082, -1.18212890625, -0.0458984375, -1.1201171875, 0, 
4, 2779002329, 84.10008239746094, -21.1547908782959, -29.338146209716797, 3.4945149421691895, 9.240885734558105, 0.8335862755775452, 1.788450002670288, -3.000016450881958, 0.5828391909599304, -1.181640625, -0.04833984375, -1.11962890625, 0, 
5, 2779010662, 84.09913635253906, -21.154468536376953, -29.338815689086914, 3.245814800262451, 8.965136528015137, 1.1003954410552979, 1.7048194408416748, -3.4330756664276123, 0.5576602220535278, -1.18408203125, -0.0458984375, -1.12109375, 0, 
6, 2779018995, 84.09971618652344, -21.153593063354492, -29.339860916137695, 3.29626727104187, 8.859249114990234, 1.0664854049682617, 1.8850154876708984, -3.4486491680145264, 0.49221593141555786, -1.18408203125, -0.046875, -1.11865234375, 0, 
7, 2779027328, 84.1014404296875, -21.153602600097656, -29.34090232849121, 3.7697818279266357, 9.143046379089355, 0.9936002492904663, 2.009603261947632, -3.4786179065704346, 0.5932897329330444, -1.1826171875, -0.046875, -1.12109375, 0, 
8, 2779035661, 84.10211944580078, -21.153846740722656, -29.342660903930664, 3.8682591915130615, 9.405028343200684, 0.7952846884727478, 1.84907865524292, -3.576617956161499, 0.6123210191726685, -1.18408203125, -0.046875, -1.12060546875, 0, 
9, 2779043994, 84.10171508789062, -21.153472900390625, -29.340198516845703, 3.6965317726135254, 9.339508056640625, 0.814729630947113, 1.9072998762130737, -3.0837745666503906, 0.5891145467758179, -1.18212890625, -0.04541015625, -1.119140625, 0, 
10, 2779052327, 84.10134887695312, -21.153160095214844, -29.33948516845703, 3.2878379821777344, 9.066825866699219, 1.0035898685455322, 1.8418296575546265, -3.266633987426758, 0.5779978632926941, -1.18212890625, -0.04638671875, -1.12158203125, 0, 
11, 2779060660, 84.10127258300781, -21.1541748046875, -29.339200973510742, 3.1831536293029785, 8.901920318603516, 1.1534745693206787, 1.8525620698928833, -3.3435792922973633, 0.7281229496002197, -1.18359375, -0.0478515625, -1.12060546875, 0, 
12, 2779068993, 84.10363006591797, -21.1550350189209, -29.340795516967773, 3.5528156757354736, 9.038969039916992, 0.9924266338348389, 2.0588083267211914, -3.5568437576293945, 0.6900859475135803, -1.18408203125, -0.0439453125, -1.11865234375, 0, 
13, 2779077326, 84.10356903076172, -21.15509796142578, -29.34051513671875, 3.843393564224243, 9.312994003295898, 0.8035045862197876, 1.856148362159729, -3.3328473567962646, 0.614984929561615, -1.1826171875, -0.04638671875, -1.1181640625, 0, 
14, 2779085659, 84.1037826538086, -21.15445899963379, -29.338254928588867, 3.851317882537842, 9.379081726074219, 0.8409420251846313, 1.9477702379226685, -3.1696078777313232, 0.5476707220077515, -1.1826171875, -0.046875, -1.11865234375, 0, 
15, 2779093992, 84.1019287109375, -21.153837203979492, -29.336055755615234, 3.378166913986206, 9.131060600280762, 0.8795056343078613, 1.7228262424468994, -3.1108744144439697, 0.5558673143386841, -1.181640625, -0.0478515625, -1.1201171875, 0, 
16, 2779102325, 84.1011962890625, -21.154348373413086, -29.33574104309082, 3.3235292434692383, 8.889537811279297, 1.1579817533493042, 1.7795617580413818, -3.3141233921051025, 0.6727706789970398, -1.1826171875, -0.04833984375, -1.1201171875, 0, 
17, 2779110658, 84.10257720947266, -21.15494728088379, -29.33859634399414, 3.3615870475769043, 8.943195343017578, 1.0546772480010986, 1.8930330276489258, -3.6891419887542725, 0.6427509188652039, -1.18310546875, -0.04443359375, -1.12060546875, 0, 
18, 2779118991, 84.10403442382812, -21.154502868652344, -29.338043212890625, 3.8003289699554443, 9.299897193908691, 0.9009672403335571, 2.0174667835235596, -3.372190475463867, 0.5517433881759644, -1.18408203125, -0.04638671875, -1.12109375, 0, 
19, 2779127324, 84.10334777832031, -21.15475845336914, -29.338258743286133, 3.9551236629486084, 9.415878295898438, 0.800441324710846, 1.7600693702697754, -3.3911964893341064, 0.6308913826942444, -1.181640625, -0.04638671875, -1.12060546875, 0, 
20, 2779135657, 84.1020736694336, -21.154138565063477, -29.336339950561523, 3.411674976348877, 9.227640151977539, 0.8110848665237427, 1.7892696857452393, -3.1107466220855713, 0.5582238435745239, -1.18212890625, -0.04638671875, -1.11962890625, 0, 
21, 2779143990, 84.10136413574219, -21.15445327758789, -29.33720588684082, 3.2107725143432617, 8.931297302246094, 1.1245148181915283, 1.7294602394104004, -3.4642481803894043, 0.6314292550086975, -1.1826171875, -0.04638671875, -1.12353515625, 0, 
22, 2779152323, 84.10189819335938, -21.15532684326172, -29.336763381958008, 3.293217897415161, 8.86373233795166, 1.032982349395752, 1.886168122291565, -3.4410934448242188, 0.7033284902572632, -1.18408203125, -0.048828125, -1.119140625, 0, 
23, 2779160656, 84.1036376953125, -21.156147003173828, -29.338180541992188, 3.7499771118164062, 9.1812162399292, 0.9782114624977112, 2.0018420219421387, -3.5325870513916016, 0.6845532059669495, -1.18359375, -0.0458984375, -1.11962890625, 0, 
24, 2779168989, 84.10450744628906, -21.156225204467773, -29.33821678161621, 3.8689939975738525, 9.430069923400879, 0.7749485969543457, 1.9202607870101929, -3.4413235187530518, 0.6082484126091003, -1.181640625, -0.04736328125, -1.11962890625, 0, 
25, 2779177322, 84.10348510742188, -21.15654182434082, -29.336339950561523, 3.7724077701568604, 9.345483779907227, 0.7926610708236694, 1.812270998954773, -3.1582345962524414, 0.6622943878173828, -1.1806640625, -0.04638671875, -1.1220703125, 0, 
26, 2779185655, 84.10230255126953, -21.156213760375977, -29.33592987060547, 3.283655881881714, 9.022071838378906, 1.02494478225708, 1.7222626209259033, -3.3147122859954834, 0.5725165605545044, -1.18212890625, -0.04541015625, -1.1171875, 0, 
27, 2779193988, 84.10255432128906, -21.156003952026367, -29.33610725402832, 3.198037624359131, 8.892620086669922, 1.117522954940796, 1.8735145330429077, -3.380540370941162, 0.5761024355888367, -1.181640625, -0.046875, -1.12109375, 0, 
28, 2779202321, 84.10415649414062, -21.156429290771484, -29.338993072509766, 3.5688793659210205, 9.045554161071777, 1.0278204679489136, 1.9143697023391724, -3.696108341217041, 0.6223618984222412, -1.18359375, -0.04736328125, -1.11865234375, 0, 
29, 2779210654, 84.10379791259766, -21.15617561340332, -29.338409423828125, 3.7720327377319336, 9.335186958312988, 0.8042379021644592, 1.8313790559768677, -3.2947330474853516, 0.581071674823761, -1.18212890625, -0.0478515625, -1.119140625, 0, 
30, 2779218987, 84.103515625, -21.1555233001709, -29.336626052856445, 3.849724531173706, 9.40345287322998, 0.8219658732414246, 1.8919824361801147, -3.161897897720337, 0.5477988123893738, -1.18115234375, -0.0458984375, -1.11328125, 0, 
31, 2779227320, 84.10211181640625, -21.156002044677734, -29.33511734008789, 3.3606040477752686, 9.171566009521484, 0.9338889718055725, 1.7474669218063354, -3.2006263732910156, 0.6784313321113586, -1.1796875, -0.0478515625, -1.111328125, 0, 
32, 2779235653, 84.10173034667969, -21.156667709350586, -29.334074020385742, 3.2399158477783203, 8.938139915466309, 1.1574103832244873, 1.7941105365753174, -3.4027230739593506, 0.6810440421104431, -1.1787109375, -0.048828125, -1.10888671875, 0, 
33, 2779243986, 84.10334777832031, -21.156965255737305, -29.3354434967041, 3.401338815689087, 8.944713592529297, 1.0565849542617798, 1.986422061920166, -3.519779682159424, 0.6245646476745605, -1.1796875, -0.04931640625, -1.1123046875, 0, 
34, 2779252319, 84.10452270507812, -21.158084869384766, -29.335947036743164, 3.8511693477630615, 9.276280403137207, 0.921302318572998, 1.97305166721344, -3.4263648986816406, 0.7346803545951843, -1.1796875, -0.048828125, -1.1103515625, 0, 
35, 2779260652, 84.10395050048828, -21.15835189819336, -29.3364200592041, 3.940197467803955, 9.406807899475098, 0.7837604284286499, 1.7590702772140503, -3.420166254043579, 0.6296875476837158, -1.177734375, -0.048828125, -1.10888671875, 0, 
36, 2779268985, 84.10233306884766, -21.15880012512207, -29.333904266357422, 3.451129674911499, 9.23137378692627, 0.8330138325691223, 1.7570213079452515, -3.1040868759155273, 0.6880367994308472, -1.17724609375, -0.048828125, -1.11181640625, 0, 
37, 2779277318, 84.10079956054688, -21.158788681030273, -29.33377456665039, 3.2856662273406982, 8.952323913574219, 1.111820936203003, 1.6719305515289307, -3.3504180908203125, 0.6037658452987671, -1.17919921875, -0.04736328125, -1.10791015625, 0, 
38, 2779285651, 84.1015853881836, -21.158849716186523, -29.334400177001953, 3.2753982543945312, 8.895729064941406, 1.0458720922470093, 1.9141899347305298, -3.4323325157165527, 0.6045855283737183, -1.1796875, -0.04541015625, -1.109375, 0, 
39, 2779293984, 84.10400390625, -21.15931510925293, -29.337188720703125, 3.707580804824829, 9.168647766113281, 1.039015769958496, 2.0181326866149902, -3.678896188735962, 0.6289191246032715, -1.1787109375, -0.04736328125, -1.11181640625, 0, 
40, 2779302317, 84.10374450683594, -21.159534454345703, -29.33768081665039, 3.8902456760406494, 9.44097900390625, 0.7633573412895203, 1.812143087387085, -3.3810274600982666, 0.6302509903907776, -1.17919921875, -0.048828125, -1.10986328125, 0, 
41, 2779310650, 84.10244750976562, -21.159786224365234, -29.334884643554688, 3.7019081115722656, 9.341169357299805, 0.7860704660415649, 1.8154469728469849, -3.0551888942718506, 0.6659572720527649, -1.17919921875, -0.04541015625, -1.1123046875, 0, 
42, 2779318983, 84.10089111328125, -21.159683227539062, -29.334020614624023, 3.278231382369995, 9.027033805847168, 0.9709210991859436, 1.697135090827942, -3.2743442058563232, 0.6016654968261719, -1.1787109375, -0.0478515625, -1.10888671875, 0, 
43, 2779327316, 84.100341796875, -21.15966796875, -29.333818435668945, 3.2710092067718506, 8.834935188293457, 1.1141966581344604, 1.7911649942398071, -3.3389692306518555, 0.6061224341392517, -1.17724609375, -0.04443359375, -1.11279296875, 0, 
44, 2779335649, 84.10285186767578, -21.16005516052246, -29.3356876373291, 3.5530712604522705, 9.059369087219238, 1.0315144062042236, 2.0526609420776367, -3.616525411605835, 0.6270236968994141, -1.18115234375, -0.04736328125, -1.11279296875, 0, 
45, 2779343982, 84.10319519042969, -21.161346435546875, -29.335054397583008, 3.79890775680542, 9.411785125732422, 0.8352590203285217, 1.9195436239242554, -3.309026002883911, 0.7647769451141357, -1.17822265625, -0.046875, -1.1103515625, 0, 
46, 2779352315, 84.10235595703125, -21.161678314208984, -29.333784103393555, 3.930737257003784, 9.41880989074707, 0.8195335268974304, 1.8028451204299927, -3.2284178733825684, 0.6599122881889343, -1.18115234375, -0.04736328125, -1.1123046875, 0, 
47, 2779360648, 84.10089111328125, -21.16169548034668, -29.331817626953125, 3.354217290878296, 9.113755226135254, 0.8902956247329712, 1.7609145641326904, -3.1460680961608887, 0.6282786726951599, -1.18017578125, -0.04638671875, -1.11181640625, 0, 
48, 2779368981, 84.10031127929688, -21.162424087524414, -29.33115577697754, 3.2065370082855225, 8.935227394104004, 1.1628926992416382, 1.800155520439148, -3.3221404552459717, 0.6966943740844727, -1.1787109375, -0.0458984375, -1.1103515625, 0, 
49, 2779377314, 84.1024169921875, -21.162240982055664, -29.333234786987305, 3.3951432704925537, 8.91369915008545, 1.0284286737442017, 2.0116522312164307, -3.5918068885803223, 0.5590178966522217, -1.17919921875, -0.0478515625, -1.109375, 0, 
50, 2779385647, 84.10340881347656, -21.16220474243164, -29.334426879882812, 3.8123576641082764, 9.259505271911621, 0.8781998157501221, 1.9352961778640747, -3.441298007965088, 0.5937250852584839, -1.17822265625, -0.0478515625, -1.1123046875, 0, 
51, 2779393980, 84.10348510742188, -21.161163330078125, -29.33501434326172, 3.904007911682129, 9.419086456298828, 0.7735945582389832, 1.8355544805526733, -3.4153764247894287, 0.47292837500572205, -1.1787109375, -0.04736328125, -1.1103515625, 0, 
52, 2779402313, 84.10242462158203, -21.161962509155273, -29.33430290222168, 3.5258989334106445, 9.281927108764648, 0.8365032076835632, 1.7548694610595703, -3.286459445953369, 0.7111663222312927, -1.18017578125, -0.046875, -1.107421875, 0, 
53, 2779410646, 84.10121154785156, -21.162073135375977, -29.33419418334961, 3.3084349632263184, 9.041045188903809, 1.0601810216903687, 1.7087639570236206, -3.350649118423462, 0.619390606880188, -1.1787109375, -0.04931640625, -1.1123046875, 0, 
54, 2779418979, 84.10079956054688, -21.162628173828125, -29.334505081176758, 3.273513078689575, 8.900163650512695, 1.084029197692871, 1.7888084650039673, -3.399393081665039, 0.6682625412940979, -1.1796875, -0.0478515625, -1.11083984375, 0, 
55, 2779427312, 84.10340881347656, -21.162931442260742, -29.33629035949707, 3.7338175773620605, 9.120205879211426, 1.0214579105377197, 2.0844736099243164, -3.5651938915252686, 0.6201846599578857, -1.1787109375, -0.04541015625, -1.11083984375, 0, 
56, 2779435645, 84.10267639160156, -21.161441802978516, -29.33612632751465, 3.8886687755584717, 9.401652336120605, 0.7396664619445801, 1.7564061880111694, -3.3603053092956543, 0.4261823892593384, -1.17724609375, -0.048828125, -1.111328125, 0, 
57, 2779443978, 84.1015625, -21.161441802978516, -29.33364486694336, 3.684873580932617, 9.347227096557617, 0.8284444212913513, 1.8245917558670044, -3.0875144004821777, 0.6325820088386536, -1.17919921875, -0.046875, -1.10888671875, 0, 
58, 2779452311, 84.10047912597656, -21.161592483520508, -29.3336238861084, 3.2734291553497314, 9.055007934570312, 0.955477774143219, 1.722646713256836, -3.3527493476867676, 0.6245902180671692, -1.1787109375, -0.04736328125, -1.10986328125, 0, 
59, 2779460644, 84.10016632080078, -21.160999298095703, -29.33402442932129, 3.2675254344940186, 8.893227577209473, 1.1394909620285034, 1.7954168319702148, -3.3998029232025146, 0.5293053388595581, -1.17822265625, -0.044921875, -1.1083984375, 0, 
60, 2779468977, 84.1021957397461, -21.161771774291992, -29.33652687072754, 3.523200273513794, 9.05971908569336, 1.0846261978149414, 1.984578251838684, -3.649644613265991, 0.6700044274330139, -1.18017578125, -0.04931640625, -1.111328125, 0, 
61, 2779477310, 84.1025161743164, -21.162288665771484, -29.336219787597656, 3.824594736099243, 9.374833106994629, 0.8434920310974121, 1.902945637702942, -3.3366637229919434, 0.6690565943717957, -1.18017578125, -0.04638671875, -1.109375, 0, 
62, 2779485643, 84.10169982910156, -21.1621036529541, -29.334484100341797, 3.9492156505584717, 9.397453308105469, 0.7625776529312134, 1.8248218297958374, -3.1726810932159424, 0.6023314595222473, -1.18017578125, -0.04931640625, -1.1103515625, 0, 
63, 2779493976, 84.09994506835938, -21.162351608276367, -29.333343505859375, 3.34851336479187, 9.092647552490234, 0.8278334736824036, 1.6878114938735962, -3.2394065856933594, 0.6477455496788025, -1.17724609375, -0.0478515625, -1.111328125, 0, 
64, 2779502309, 84.09923553466797, -21.162891387939453, -29.33331298828125, 3.2667837142944336, 8.882002830505371, 1.1588534116744995, 1.7605301141738892, -3.382333517074585, 0.6692614555358887, -1.1806640625, -0.0478515625, -1.109375, 0, 
65, 2779510642, 84.10067749023438, -21.162372589111328, -29.334976196289062, 3.3845889568328857, 8.924664497375488, 1.0256973505020142, 1.9517406225204468, -3.542884111404419, 0.5218771696090698, -1.1767578125, -0.0478515625, -1.10986328125, 0, 
66, 2779518975, 84.1016616821289, -21.16270637512207, -29.334856033325195, 3.749080181121826, 9.298260688781738, 0.9163326025009155, 1.9736661911010742, -3.354081153869629, 0.646644115447998, -1.18212890625, -0.04833984375, -1.1103515625, 0, 
67, 2779527308, 84.1007308959961, -21.163063049316406, -29.33489418029785, 3.913877248764038, 9.448847770690918, 0.8126725554466248, 1.735505223274231, -3.372037172317505, 0.6472076773643494, -1.18017578125, -0.04833984375, -1.10791015625, 0, 
68, 2779535641, 84.0992660522461, -21.162979125976562, -29.33333969116211, 3.5488407611846924, 9.258035659790039, 0.8036707043647766, 1.749183177947998, -3.1698384284973145, 0.6155228614807129, -1.18017578125, -0.04541015625, -1.11279296875, 0, 
69, 2779543974, 84.0982666015625, -21.162782669067383, -29.33246612548828, 3.2523794174194336, 8.986778259277344, 1.105861783027649, 1.768214464187622, -3.263662815093994, 0.5901134014129639, -1.18115234375, -0.0478515625, -1.111328125, 0, 
70, 2779552307, 84.09831237792969, -21.162845611572266, -29.333450317382812, 3.2596075534820557, 8.87755298614502, 1.0527160167694092, 1.8120917081832886, -3.4662716388702393, 0.6036890745162964, -1.17724609375, -0.046875, -1.1103515625, 0, 
71, 2779560640, 84.1005859375, -21.163063049316406, -29.335542678833008, 3.725998878479004, 9.109858512878418, 0.9940921664237976, 2.035191774368286, -3.600029230117798, 0.6058151125907898, -1.1787109375, -0.04638671875, -1.111328125, 0, 
72, 2779568973, 84.10077667236328, -21.162757873535156, -29.336172103881836, 3.8502793312072754, 9.399260520935059, 0.8018141984939575, 1.8462610244750977, -3.423854351043701, 0.5633721947669983, -1.1787109375, -0.04736328125, -1.1103515625, 0, 
73, 2779577306, 84.09956359863281, -21.16326332092285, -29.334064483642578, 3.7544829845428467, 9.3641996383667, 0.7573423385620117, 1.7950323820114136, -3.1355152130126953, 0.6889587640762329, -1.18115234375, -0.04638671875, -1.10986328125, 0, 
74, 2779585639, 84.09883880615234, -21.16278839111328, -29.3336238861084, 3.3223023414611816, 9.084769248962402, 0.9385493993759155, 1.7801764011383057, -3.310434579849243, 0.5546122193336487, -1.17822265625, -0.0458984375, -1.11181640625, 0, 
75, 2779593972, 84.09871673583984, -21.162416458129883, -29.334884643554688, 3.2054195404052734, 8.883716583251953, 1.179448127746582, 1.7826608419418335, -3.4990577697753906, 0.545647144317627, -1.1767578125, -0.04833984375, -1.10888671875, 0, 
76, 2779602305, 84.1018295288086, -21.163129806518555, -29.336769104003906, 3.4871788024902344, 8.99623966217041, 1.0460519790649414, 2.1297855377197266, -3.607329845428467, 0.6665464639663696, -1.1787109375, -0.04833984375, -1.10986328125, 0, 
77, 2779610638, 84.10269927978516, -21.163593292236328, -29.33588218688965, 3.8565845489501953, 9.302230834960938, 0.8166818618774414, 1.9949259757995605, -3.271244764328003, 0.6692103147506714, -1.17529296875, -0.04833984375, -1.10986328125, 0, 
78, 2779618971, 84.1015853881836, -21.162452697753906, -29.33472442626953, 3.93581223487854, 9.37643814086914, 0.7990720868110657, 1.7793312072753906, -3.17362904548645, 0.4877846837043762, -1.17822265625, -0.04736328125, -1.10986328125, 0, 
79, 2779627304, 84.10094451904297, -21.161863327026367, -29.334056854248047, 3.353262186050415, 9.17638874053955, 0.8556329607963562, 1.8034342527389526, -3.283693552017212, 0.5413952469825745, -1.177734375, -0.046875, -1.1123046875, 0, 
80, 2779635637, 84.10082244873047, -21.16270637512207, -29.33382797241211, 3.329831600189209, 8.949206352233887, 1.1258200407028198, 1.8387048244476318, -3.3594858646392822, 0.7071705460548401, -1.177734375, -0.0478515625, -1.111328125, 0, 
81, 2779643970, 84.1022720336914, -21.162160873413086, -29.33462142944336, 3.359323024749756, 8.93022346496582, 1.033528208732605, 1.9882152080535889, -3.4447813034057617, 0.5310471057891846, -1.17822265625, -0.044921875, -1.111328125, 0, 
82, 2779652303, 84.10308837890625, -21.162744522094727, -29.334259033203125, 3.760683298110962, 9.263258934020996, 0.9321878552436829, 1.980351448059082, -3.2818236351013184, 0.6839897036552429, -1.1806640625, -0.04541015625, -1.123046875, 0, 
83, 2779660636, 84.10269927978516, -21.162988662719727, -29.33562469482422, 3.9395713806152344, 9.441106796264648, 0.7971929311752319, 1.7456228733062744, -3.5191140174865723, 0.6184172630310059, -1.18505859375, -0.046875, -1.12255859375, 0, 
84, 2779668969, 84.10111236572266, -21.16326904296875, -29.33431053161621, 3.531475305557251, 9.248879432678223, 0.783889651298523, 1.753230333328247, -3.118328094482422, 0.6657779812812805, -1.1845703125, -0.0458984375, -1.12646484375, 0, 
85, 2779677302, 84.1011962890625, -21.163087844848633, -29.335147857666016, 3.2488760948181152, 8.945571899414062, 1.0509055852890015, 1.8229011297225952, -3.4543612003326416, 0.5729007720947266, -1.18212890625, -0.04638671875, -1.12744140625, 0, 
86, 2779685635, 84.10186767578125, -21.163055419921875, -29.336400985717773, 3.2866690158843994, 8.871413230895996, 1.0709285736083984, 1.8817113637924194, -3.4790022373199463, 0.5899854302406311, -1.18408203125, -0.04638671875, -1.12353515625, 0, 
87, 2779693968, 84.10448455810547, -21.163496017456055, -29.338279724121094, 3.6940054893493652, 9.149115562438965, 1.0246009826660156, 2.0850114822387695, -3.5791025161743164, 0.6348104476928711, -1.18408203125, -0.046875, -1.123046875, 0, 
88, 2779702301, 84.10455322265625, -21.16381072998047, -29.33855628967285, 3.862136125564575, 9.40986156463623, 0.7872189879417419, 1.8560458421707153, -3.3713455200195312, 0.6419054865837097, -1.18359375, -0.0478515625, -1.119140625, 0, 
89, 2779710634, 84.10338592529297, -21.163532257080078, -29.3364315032959, 3.8452839851379395, 9.345054626464844, 0.762067437171936, 1.8000786304473877, -3.1230154037475586, 0.5968500375747681, -1.1806640625, -0.04638671875, -1.12060546875, 0, 
90, 2779718967, 84.10137176513672, -21.163667678833008, -29.335201263427734, 3.3067831993103027, 9.048343658447266, 0.9551639556884766, 1.660327434539795, -3.2299036979675293, 0.6348103880882263, -1.1845703125, -0.04736328125, -1.1201171875, 0, 
91, 2779727300, 84.10043334960938, -21.163461685180664, -29.3349552154541, 3.206234931945801, 8.873740196228027, 1.1673476696014404, 1.749516248703003, -3.333590269088745, 0.5816608667373657, -1.1806640625, -0.04638671875, -1.12158203125, 0, 
92, 2779735633, 84.10282135009766, -21.16391944885254, -29.3375244140625, 3.5410075187683105, 8.997259140014648, 0.9859663844108582, 2.0302226543426514, -3.638681650161743, 0.6332736015319824, -1.1865234375, -0.04736328125, -1.119140625, 0, 
93, 2779743966, 84.1034164428711, -21.16370964050293, -29.33697509765625, 3.8062329292297363, 9.303201675415039, 0.8262249827384949, 1.9442099332809448, -3.2991392612457275, 0.5849907398223877, -1.1826171875, -0.04541015625, -1.12060546875, 0, 
94, 2779752299, 84.10368347167969, -21.162857055664062, -29.33713722229004, 3.8657829761505127, 9.41594123840332, 0.8236116766929626, 1.898591160774231, -3.3136110305786133, 0.5073539018630981, -1.1845703125, -0.048828125, -1.12255859375, 0, 
95, 2779760632, 84.10244750976562, -21.16221809387207, -29.336172103881836, 3.3687055110931396, 9.204878807067871, 0.9063457250595093, 1.742958903312683, -3.2485508918762207, 0.5398328304290771, -1.18310546875, -0.04736328125, -1.1220703125, 0, 
96, 2779768965, 84.10126495361328, -21.161893844604492, -29.335861206054688, 3.2641797065734863, 8.983779907226562, 1.1455938816070557, 1.7230311632156372, -3.3215510845184326, 0.5706467032432556, -1.18212890625, -0.04736328125, -1.12158203125, 0, 
97, 2779777298, 84.10298919677734, -21.162385940551758, -29.337448120117188, 3.316824436187744, 8.924484252929688, 1.0495702028274536, 1.988010287284851, -3.5461881160736084, 0.644338846206665, -1.18212890625, -0.0458984375, -1.12255859375, 0, 
98, 2779785631, 84.10504913330078, -21.162675857543945, -29.33730125427246, 3.822218894958496, 9.223333358764648, 0.9790399670600891, 2.0847039222717285, -3.387482166290283, 0.6395745277404785, -1.1826171875, -0.046875, -1.1201171875, 0, 
99, 2779793964, 84.10487365722656, -21.16202735900879, -29.337284088134766, 3.9494290351867676, 9.416380882263184, 0.7458897233009338, 1.8318915367126465, -3.353850841522217, 0.526513397693634, -1.18310546875, -0.0439453125, -1.1201171875, 0, 
100, 2779802297, 84.10347747802734, -21.162141799926758, -29.33382797241211, 3.5439980030059814, 9.23630428314209, 0.7989049553871155, 1.7931628227233887, -3.0736312866210938, 0.6493080258369446, -1.1865234375, -0.04736328125, -1.11865234375, 0, 
101, 2779810630, 84.10226440429688, -21.161487579345703, -29.333778381347656, 3.2802605628967285, 8.984299659729004, 1.1033625602722168, 1.7087639570236206, -3.350905418395996, 0.5261291861534119, -1.18212890625, -0.04541015625, -1.12255859375, 0, 
102, 2779818963, 84.10298156738281, -21.160982131958008, -29.334348678588867, 3.2600066661834717, 8.88413143157959, 1.0668420791625977, 1.9039957523345947, -3.4235472679138184, 0.5386545658111572, -1.18310546875, -0.04541015625, -1.12158203125, 0, 
103, 2779827296, 84.10555267333984, -21.161718368530273, -29.335735321044922, 3.6722681522369385, 9.16071891784668, 1.0363775491714478, 2.100790023803711, -3.5269775390625, 0.6748967170715332, -1.1806640625, -0.046875, -1.1220703125, 0, 
104, 2779835629, 84.10595703125, -21.161540985107422, -29.33662986755371, 3.826936960220337, 9.428033828735352, 0.7947242259979248, 1.871747374534607, -3.430309534072876, 0.5791506171226501, -1.181640625, -0.046875, -1.12158203125, 0, 
105, 2779843962, 84.10367584228516, -21.16158676147461, -29.33427619934082, 3.786400079727173, 9.341064453125, 0.7862145304679871, 1.677668571472168, -3.1017560958862305, 0.6365266442298889, -1.181640625, -0.04736328125, -1.1201171875, 0, 
106, 2779852295, 84.10250091552734, -21.160581588745117, -29.334379196166992, 3.2731313705444336, 9.027369499206543, 0.9505323171615601, 1.7343013286590576, -3.2887394428253174, 0.4920366406440735, -1.181640625, -0.046875, -1.11767578125, 0, 
107, 2779860628, 84.10152435302734, -21.160240173339844, -29.334314346313477, 3.289492130279541, 8.85592269897461, 1.1346673965454102, 1.7331230640411377, -3.3525187969207764, 0.5648579001426697, -1.1826171875, -0.04736328125, -1.11962890625, 0, 
108, 2779868961, 84.10344696044922, -21.15982437133789, -29.336694717407227, 3.5586955547332764, 9.002725601196289, 0.9968810081481934, 1.998307228088379, -3.5634779930114746, 0.5350173115730286, -1.18359375, -0.048828125, -1.12109375, 0, 
109, 2779877294, 84.1045150756836, -21.159366607666016, -29.336742401123047, 3.7985754013061523, 9.387005805969238, 0.8336571455001831, 1.9760228395462036, -3.3636868000030518, 0.5478500723838806, -1.18408203125, -0.04736328125, -1.12158203125, 0, 
110, 2779885627, 84.1046142578125, -21.158693313598633, -29.33658218383789, 3.935831308364868, 9.420308113098145, 0.7845956683158875, 1.8639861345291138, -3.349419593811035, 0.5266157984733582, -1.18212890625, -0.04833984375, -1.12158203125, 0, 
111, 2779893960, 84.10311889648438, -21.158287048339844, -29.33538246154785, 3.376213788986206, 9.177131652832031, 0.8998965620994568, 1.7239532470703125, -3.2258050441741943, 0.5697758197784424, -1.18115234375, -0.04931640625, -1.11865234375, 0, 
112, 2779902293, 84.10250854492188, -21.158056259155273, -29.335376739501953, 3.2027292251586914, 8.914073944091797, 1.152323842048645, 1.7539218664169312, -3.417348623275757, 0.57233726978302, -1.18408203125, -0.044921875, -1.1201171875, 0, 
113, 2779910626, 84.10407257080078, -21.15802764892578, -29.33710479736328, 3.329146146774292, 8.90757942199707, 1.0432102680206299, 1.9621657133102417, -3.5548970699310303, 0.5803033113479614, -1.1826171875, -0.0478515625, -1.119140625, 0, 
114, 2779918959, 84.10633850097656, -21.15839958190918, -29.33746910095215, 3.8030288219451904, 9.21863079071045, 0.9274576902389526, 2.119462490081787, -3.36506986618042, 0.6525866389274597, -1.18310546875, -0.046875, -1.11767578125, 0, 
115, 2779927292, 84.10623931884766, -21.15754508972168, -29.337270736694336, 3.9185826778411865, 9.425941467285156, 0.8085601925849915, 1.8485918045043945, -3.3321549892425537, 0.5038959980010986, -1.1796875, -0.0439453125, -1.11962890625, 0, 
116, 2779935625, 84.10490417480469, -21.158416748046875, -29.335525512695312, 3.5752365589141846, 9.28134536743164, 0.8101639151573181, 1.755151391029358, -3.2003960609436035, 0.7276362776756287, -1.18212890625, -0.04541015625, -1.1201171875, 0, 
117, 2779943958, 84.10343933105469, -21.158510208129883, -29.335243225097656, 3.3346974849700928, 9.042993545532227, 1.0984686613082886, 1.6888103485107422, -3.333871603012085, 0.6182634234428406, -1.18212890625, -0.04931640625, -1.11865234375, 0, 
118, 2779952291, 84.10430145263672, -21.158796310424805, -29.33620834350586, 3.2417044639587402, 8.944223403930664, 1.1188476085662842, 1.9139084815979004, -3.4575629234313965, 0.6302254796028137, -1.1806640625, -0.0458984375, -1.12158203125, 0, 
119, 2779960624, 84.10637664794922, -21.159509658813477, -29.33924102783203, 3.6457364559173584, 9.098544120788574, 0.9864332675933838, 1.9688509702682495, -3.7090694904327393, 0.6539186239242554, -1.1826171875, -0.04736328125, -1.1201171875, 0, 
120, 2779968957, 84.10545349121094, -21.159198760986328, -29.338090896606445, 3.8664984703063965, 9.360451698303223, 0.7670574188232422, 1.788296103477478, -3.2281363010406494, 0.5819682478904724, -1.1796875, -0.04833984375, -1.12060546875, 0, 
121, 2779977290, 84.10395050048828, -21.158607482910156, -29.336271286010742, 3.7715976238250732, 9.32717227935791, 0.8075081706047058, 1.751975178718567, -3.1553661823272705, 0.5545865893363953, -1.1826171875, -0.0478515625, -1.119140625, 0, 
122, 2779985623, 84.10285949707031, -21.158550262451172, -29.336959838867188, 3.2632462978363037, 9.087653160095215, 0.9495555758476257, 1.6929855346679688, -3.4206788539886475, 0.593904435634613, -1.18115234375, -0.04638671875, -1.11767578125, 0, 
123, 2779993956, 84.10289001464844, -21.158987045288086, -29.33719253540039, 3.2942070960998535, 8.915935516357422, 1.1287026405334473, 1.8444938659667969, -3.3952436447143555, 0.6528940200805664, -1.18310546875, -0.04736328125, -1.12353515625, 0, 
124, 2780002289, 84.10528564453125, -21.158727645874023, -29.34095573425293, 3.4952964782714844, 9.00121021270752, 1.0540390014648438, 2.0267906188964844, -3.6388354301452637, 0.5466974973678589, -1.18310546875, -0.0458984375, -1.1201171875, 0, 
125, 2780010622, 84.10628509521484, -21.158689498901367, -29.340679168701172, 3.7976551055908203, 9.346331596374512, 0.872094988822937, 1.9841426610946655, -3.3317201137542725, 0.6032280325889587, -1.18115234375, -0.046875, -1.1162109375, 0, 
126, 2780018955, 84.10559844970703, -21.158836364746094, -29.34139060974121, 3.961879014968872, 9.431114196777344, 0.7983134984970093, 1.7819182872772217, -3.326725482940674, 0.6277152299880981, -1.18212890625, -0.046875, -1.111328125, 0, 
127, 2780027288, 84.10395812988281, -21.158567428588867, -29.339214324951172, 3.388641834259033, 9.163451194763184, 0.8403955101966858, 1.7480820417404175, -3.1187126636505127, 0.5965684056282043, -1.181640625, -0.0478515625, -1.111328125, 0, 
128, 2780035621, 84.1037368774414, -21.158153533935547, -29.33799934387207, 3.247544050216675, 8.909130096435547, 1.0939338207244873, 1.7819182872772217, -3.4561798572540283, 0.5466461777687073, -1.17724609375, -0.04833984375, -1.111328125, 0, 
129, 2780043954, 84.1044921875, -21.15851593017578, -29.33905792236328, 3.3095264434814453, 8.90524959564209, 1.02042818069458, 1.8987958431243896, -3.4868907928466797, 0.6340162754058838, -1.17919921875, -0.05029296875, -1.11181640625, 0, 
130, 2780052287, 84.10650634765625, -21.16025733947754, -29.337858200073242, 3.744183301925659, 9.232850074768066, 0.9353380799293518, 2.10711669921875, -3.3421707153320312, 0.8192328214645386, -1.1787109375, -0.04736328125, -1.1103515625, 0, 
131, 2780060620, 84.10751342773438, -21.16071128845215, -29.338682174682617, 3.894925832748413, 9.46461296081543, 0.8120647072792053, 1.9368075132369995, -3.4598422050476074, 0.6478480100631714, -1.1806640625, -0.04541015625, -1.11328125, 0, 
132, 2780068953, 84.1069107055664, -21.161415100097656, -29.336380004882812, 3.6378066539764404, 9.317984580993652, 0.7705647349357605, 1.847746729850769, -3.1871023178100586, 0.7110894918441772, -1.17919921875, -0.046875, -1.1083984375, 0, 
133, 2780077286, 84.10530090332031, -21.161043167114258, -29.335800170898438, 3.287400960922241, 9.01913833618164, 1.072391390800476, 1.6831753253936768, -3.294374942779541, 0.565575122833252, -1.1796875, -0.04833984375, -1.1103515625, 0, 
134, 2780085619, 84.10559844970703, -21.160552978515625, -29.336681365966797, 3.243011951446533, 8.857316017150879, 1.0883049964904785, 1.8601953983306885, -3.41670823097229, 0.5412159562110901, -1.17919921875, -0.046875, -1.11083984375, 0, 
135, 2780093952, 84.1085205078125, -21.160680770874023, -29.3386173248291, 3.6553971767425537, 9.065018653869629, 1.01725435256958, 2.118028402328491, -3.5805113315582275, 0.596645176410675, -1.177734375, -0.04736328125, -1.1123046875, 0, 
136, 2780102285, 84.10868072509766, -21.16134262084961, -29.339265823364258, 3.8637185096740723, 9.376575469970703, 0.7892470359802246, 1.8793035745620728, -3.353543519973755, 0.6857571005821228, -1.1796875, -0.0498046875, -1.109375, 0, 
137, 2780110618, 84.108154296875, -21.161453247070312, -29.337080001831055, 3.805027961730957, 9.401846885681152, 0.790679931640625, 1.8803021907806396, -3.1215553283691406, 0.6425715088844299, -1.1767578125, -0.04833984375, -1.1103515625, 0, 
138, 2780118951, 84.10723876953125, -21.160301208496094, -29.336393356323242, 3.3207592964172363, 9.135604858398438, 0.9581349492073059, 1.7755402326583862, -3.2584891319274902, 0.4774365723133087, -1.17724609375, -0.046875, -1.10791015625, 0, 
139, 2780127284, 84.10628509521484, -21.160585403442383, -29.33592987060547, 3.2305431365966797, 8.9199857711792, 1.162036418914795, 1.756508708000183, -3.3147120475769043, 0.642340898513794, -1.1767578125, -0.044921875, -1.1123046875, 0, 
140, 2780135617, 84.10810089111328, -21.16109275817871, -29.338409423828125, 3.413053035736084, 8.975062370300293, 1.0345089435577393, 1.9626266956329346, -3.63901424407959, 0.6391903758049011, -1.177734375, -0.046875, -1.1103515625, 0, 
141, 2780143950, 84.10994720458984, -21.160999298095703, -29.338865280151367, 3.848229169845581, 9.26684284210205, 0.8615739345550537, 2.0532240867614746, -3.412686824798584, 0.5878082513809204, -1.177734375, -0.04931640625, -1.11083984375, 0, 
142, 2780152283, 84.10926055908203, -21.161033630371094, -29.337974548339844, 3.950255870819092, 9.422830581665039, 0.7806643843650818, 1.8027682304382324, -3.271552324295044, 0.6207225322723389, -1.17724609375, -0.048828125, -1.10986328125, 0, 
143, 2780160616, 84.10823059082031, -21.161218643188477, -29.337039947509766, 3.384225845336914, 9.208808898925781, 0.8577008843421936, 1.7651152610778809, -3.259949207305908, 0.6363728642463684, -1.1796875, -0.04833984375, -1.11181640625, 0, 
144, 2780168949, 84.10787963867188, -21.161216735839844, -29.337148666381836, 3.3294999599456787, 8.94856071472168, 1.0820258855819702, 1.8007444143295288, -3.3905813694000244, 0.6029718518257141, -1.17626953125, -0.04736328125, -1.10888671875, 0, 
145, 2780177282, 84.10758972167969, -21.16048240661621, -29.337446212768555, 3.30194354057312, 8.905128479003906, 1.0104153156280518, 1.8024863004684448, -3.38753342628479, 0.5130146741867065, -1.1767578125, -0.04833984375, -1.10986328125, 0, 
146, 2780185615, 84.10957336425781, -21.16081428527832, -29.33895492553711, 3.722134828567505, 9.208605766296387, 1.004469871520996, 2.0169801712036133, -3.5458552837371826, 0.6279201507568359, -1.1787109375, -0.04736328125, -1.1103515625, 0, 
147, 2780193948, 84.10904693603516, -21.160446166992188, -29.339176177978516, 3.904926061630249, 9.435861587524414, 0.7453590631484985, 1.7805092334747314, -3.38494610786438, 0.5560721755027771, -1.1787109375, -0.0458984375, -1.111328125, 0, 
148, 2780202281, 84.10779571533203, -21.160200119018555, -29.33668327331543, 3.6415750980377197, 9.284614562988281, 0.7403817176818848, 1.8153448104858398, -3.0592615604400635, 0.6085557341575623, -1.1796875, -0.046875, -1.10986328125, 0, 
149, 2780210614, 84.10706329345703, -21.15989875793457, -29.336376190185547, 3.2165985107421875, 8.983158111572266, 1.0022128820419312, 1.7759757041931152, -3.3254446983337402, 0.5720042586326599, -1.17919921875, -0.0439453125, -1.11474609375, 0, 
150, 2780218947, 84.10771942138672, -21.159912109375, -29.336496353149414, 3.259270668029785, 8.855013847351074, 1.0878331661224365, 1.9129605293273926, -3.400596857070923, 0.6040733456611633, -1.17919921875, -0.048828125, -1.10986328125, 0, 
151, 2780227280, 84.11006164550781, -21.160680770874023, -29.338327407836914, 3.640308141708374, 9.069613456726074, 1.0564292669296265, 2.0513031482696533, -3.576387405395508, 0.675511360168457, -1.1796875, -0.04638671875, -1.1103515625, 0, 
152, 2780235613, 84.11077880859375, -21.16049575805664, -29.33972930908203, 3.7940468788146973, 9.421806335449219, 0.769404947757721, 1.8975154161453247, -3.4644274711608887, 0.5732338428497314, -1.18017578125, -0.046875, -1.1103515625, 0, 
153, 2780243946, 84.10972595214844, -21.160114288330078, -29.33867073059082, 3.8942227363586426, 9.382929801940918, 0.7910625338554382, 1.7679840326309204, -3.240943431854248, 0.5710565447807312, -1.17919921875, -0.0458984375, -1.10986328125, 0, 
154, 2780252279, 84.10745239257812, -21.16024398803711, -29.33853530883789, 3.380291700363159, 9.115009307861328, 0.9275355935096741, 1.5921167135238647, -3.3213465213775635, 0.6262039542198181, -1.17822265625, -0.04931640625, -1.11083984375, 0, 
155, 2780260612, 84.10758209228516, -21.16033363342285, -29.338733673095703, 3.233332633972168, 8.902578353881836, 1.1621454954147339, 1.8564298152923584, -3.3873283863067627, 0.6123722195625305, -1.181640625, -0.048828125, -1.109375, 0, 
156, 2780268945, 84.0763931274414, -21.14764404296875, -29.31868553161621, 3.408273935317993, 8.977851867675781, 1.0463773012161255, 1.9612690210342407, -3.6157054901123047, 0.6474125385284424, -1.18212890625, -0.04736328125, -1.1123046875, 0, 
157, 2780277278, 84.07701873779297, -21.14818572998047, -29.31853675842285, 3.79411244392395, 9.255584716796875, 0.8875712752342224, 1.937217354774475, -3.3582565784454346, 0.6721303462982178, -1.177734375, -0.048828125, -1.111328125, 0, 
158, 2780285611, 84.07661437988281, -21.148605346679688, -29.31969451904297, 3.8974437713623047, 9.426122665405273, 0.8156996965408325, 1.7818413972854614, -3.420499324798584, 0.6506655812263489, -1.1787109375, -0.04736328125, -1.109375, 0, 
159, 2780293944, 84.07627868652344, -21.148881912231445, -29.318754196166992, 3.4507639408111572, 9.25225830078125, 0.8829639554023743, 1.849770426750183, -3.262356758117676, 0.6497434973716736, -1.17626953125, -0.0478515625, -1.11181640625, 0, 
160, 2780302277, 84.07508850097656, -21.149728775024414, -29.317949295043945, 3.342357873916626, 8.965507507324219, 1.0635106563568115, 1.705357313156128, -3.3871238231658936, 0.7058386206626892, -1.17919921875, -0.04638671875, -1.1083984375, 0, 
161, 2780310610, 84.07562255859375, -21.14984130859375, -29.318342208862305, 3.2892906665802, 8.892200469970703, 1.1109399795532227, 1.8975409269332886, -3.4085118770599365, 0.612730860710144, -1.17578125, -0.04833984375, -1.1171875, 0, 
162, 2780318943, 84.07844543457031, -21.15037727355957, -29.32437515258789, 3.7402331829071045, 9.176820755004883, 1.021966576576233, 2.1387245655059814, -3.5048980712890625, 0.6564031839370728, -1.17822265625, -0.04736328125, -1.10791015625, 0, 
163, 2780327276, 84.07856750488281, -21.15019416809082, -29.324832916259766, 3.945497751235962, 9.41878604888916, 0.7513096928596497, 1.8469784259796143, -3.413814067840576, 0.5782285332679749, -1.17822265625, -0.0458984375, -1.1142578125, 0, 
164, 2780335609, 84.07721710205078, -21.149831771850586, -29.322481155395508, 3.6823604106903076, 9.304662704467773, 0.7737298011779785, 1.786272644996643, -3.1031389236450195, 0.5891658067703247, -1.1806640625, -0.0498046875, -1.1103515625, 0, 
165, 2780343942, 84.07544708251953, -21.14892578125, -29.322059631347656, 3.2585856914520264, 9.012185096740723, 1.0242910385131836, 1.6586111783981323, -3.3070790767669678, 0.5018979907035828, -1.1787109375, -0.046875, -1.1103515625, 0, 
166, 2780352275, 84.07548522949219, -21.14893913269043, -29.32122802734375, 3.2260818481445312, 8.885153770446777, 1.161182165145874, 1.7924712896347046, -3.5144522190093994, 0.591112494468689, -1.1767578125, -0.048828125, -1.11181640625, 0, 
167, 2780360608, 84.07826232910156, -21.149879455566406, -29.324472427368164, 3.532208204269409, 9.080820083618164, 1.0625306367874146, 2.0455145835876465, -3.737398386001587, 0.6805574297904968, -1.181640625, -0.0478515625, -1.1103515625, 0, 
168, 2780368941, 84.07861328125, -21.15053367614746, -29.32770538330078, 3.796046495437622, 9.386956214904785, 0.8119763731956482, 1.8861936330795288, -3.386970281600952, 0.682427167892456, -1.177734375, -0.04833984375, -1.1103515625, 0, 
169, 2780377274, 84.07759094238281, -21.150875091552734, -29.326370239257812, 3.942568778991699, 9.366290092468262, 0.773009181022644, 1.7876558303833008, -3.2214510440826416, 0.6614492535591125, -1.17822265625, -0.04931640625, -1.1123046875, 0, 
170, 2780385607, 84.07588958740234, -21.150388717651367, -29.324235916137695, 3.33587646484375, 9.129383087158203, 0.8396047353744507, 1.694522500038147, -3.2353081703186035, 0.5598375201225281, -1.17724609375, -0.04833984375, -1.11279296875, 0, 
171, 2780393940, 84.075927734375, -21.15076446533203, -29.324766159057617, 3.280954122543335, 8.898763656616211, 1.1305491924285889, 1.8327877521514893, -3.428234100341797, 0.6431862115859985, -1.1796875, -0.0478515625, -1.1142578125, 0, 
172, 2780402273, 84.07703399658203, -21.150766372680664, -29.327056884765625, 3.4298033714294434, 8.931279182434082, 1.0233594179153442, 1.8992570638656616, -3.580921173095703, 0.5840429663658142, -1.18017578125, -0.04833984375, -1.10888671875, 0, 
173, 2780410606, 84.0782241821289, -21.150907516479492, -29.327436447143555, 3.761777639389038, 9.278810501098633, 0.8892863392829895, 1.9764583110809326, -3.4087166786193848, 0.6170596480369568, -1.177734375, -0.0498046875, -1.11376953125, 0, 
174, 2780418939, 84.07808685302734, -21.15013885498047, -29.326763153076172, 3.9604671001434326, 9.453593254089355, 0.8029041886329651, 1.8442378044128418, -3.324061393737793, 0.5177277326583862, -1.1796875, -0.04736328125, -1.10888671875, 0, 
175, 2780427272, 84.07648468017578, -21.150846481323242, -29.32471466064453, 3.5227177143096924, 9.21629524230957, 0.8293113112449646, 1.7498748302459717, -3.146631956100464, 0.7112176418304443, -1.1787109375, -0.0478515625, -1.1123046875, 0, 
176, 2780435605, 84.07566833496094, -21.14971351623535, -29.324974060058594, 3.2115774154663086, 8.990279197692871, 1.1117783784866333, 1.7342243194580078, -3.388967752456665, 0.46760058403015137, -1.17822265625, -0.04931640625, -1.109375, 0, 
177, 2780443938, 84.07622528076172, -21.15093421936035, -29.32601547241211, 3.2397258281707764, 8.878775596618652, 1.0854710340499878, 1.8761016130447388, -3.496675968170166, 0.739521324634552, -1.17919921875, -0.0498046875, -1.10986328125, 0, 
178, 2780452271, 84.0784912109375, -21.15157699584961, -29.328672409057617, 3.7787516117095947, 9.123045921325684, 0.9889003038406372, 2.0400328636169434, -3.579281806945801, 0.6615003943443298, -1.1806640625, -0.04541015625, -1.12158203125, 0, 
179, 2780460604, 84.07809448242188, -21.1523494720459, -29.329317092895508, 3.906261444091797, 9.388066291809082, 0.7675432562828064, 1.7755402326583862, -3.446753740310669, 0.6891125440597534, -1.18408203125, -0.04638671875, -1.1259765625, 0, 
180, 2780468937, 84.07662963867188, -21.152494430541992, -29.325117111206055, 3.713803768157959, 9.31985092163086, 0.8057861328125, 1.7674974203109741, -3.1284713745117188, 0.6492568254470825, -1.18359375, -0.0458984375, -1.12451171875, 0, 
181, 2780477270, 84.07465362548828, -21.151626586914062, -29.324031829833984, 3.3580307960510254, 9.093390464782715, 0.9922364950180054, 1.6594822406768799, -3.232004165649414, 0.5125792622566223, -1.18505859375, -0.0458984375, -1.1240234375, 0, 
182, 2780485603, 84.07418823242188, -21.151968002319336, -29.32268524169922, 3.2430410385131836, 8.915736198425293, 1.1367573738098145, 1.8433667421340942, -3.2396628856658936, 0.6611673831939697, -1.1826171875, -0.04541015625, -1.12353515625, 0, 
183, 2780493936, 84.0770492553711, -21.151676177978516, -29.326248168945312, 3.5015289783477783, 9.040757179260254, 1.0133811235427856, 2.039520740509033, -3.7564303874969482, 0.5296640396118164, -1.18505859375, -0.0478515625, -1.12255859375, 0, 
184, 2780502269, 84.07626342773438, -21.15116310119629, -29.325557708740234, 3.8242156505584717, 9.317880630493164, 0.8070645928382874, 1.7729530334472656, -3.3149168491363525, 0.5487720370292664, -1.18212890625, -0.0478515625, -1.119140625, 0, 
185, 2780510602, 84.0751953125, -21.1519775390625, -29.323566436767578, 3.936952829360962, 9.378591537475586, 0.7686798572540283, 1.8074556589126587, -3.1527278423309326, 0.7244345545768738, -1.18017578125, -0.04638671875, -1.12255859375, 0, 
186, 2780518935, 84.07426452636719, -21.15166473388672, -29.322887420654297, 3.3279836177825928, 9.172127723693848, 0.9102107882499695, 1.7502846717834473, -3.3279037475585938, 0.5717225074768066, -1.18310546875, -0.04443359375, -1.11962890625, 0, 
187, 2780527268, 84.07344818115234, -21.153278350830078, -29.323251724243164, 3.2974026203155518, 8.900776863098145, 1.0997287034988403, 1.7392961978912354, -3.427056312561035, 0.7932087779045105, -1.181640625, -0.0478515625, -1.123046875, 0, 
188, 2780535601, 84.074462890625, -21.154014587402344, -29.32486343383789, 3.366029977798462, 8.933931350708008, 1.0533380508422852, 1.8825310468673706, -3.59790301322937, 0.6709776520729065, -1.1826171875, -0.04638671875, -1.123046875, 0, 
189, 2780543934, 84.07569885253906, -21.15474510192871, -29.325437545776367, 3.7548534870147705, 9.292777061462402, 0.9874705672264099, 1.9766887426376343, -3.4362518787384033, 0.6842714548110962, -1.1806640625, -0.04638671875, -1.12109375, 0, 
190, 2780552267, 84.07524871826172, -21.155128479003906, -29.326114654541016, 3.9732325077056885, 9.471234321594238, 0.7747957706451416, 1.7674715518951416, -3.4397096633911133, 0.6438264846801758, -1.181640625, -0.0478515625, -1.12060546875, 0, 
191, 2780560600, 84.07384490966797, -21.15497398376465, -29.323272705078125, 3.5486066341400146, 9.264923095703125, 0.7522497177124023, 1.8052785396575928, -3.047044038772583, 0.6212348341941833, -1.185546875, -0.0458984375, -1.1201171875, 0, 
192, 2780568933, 84.0724105834961, -21.155012130737305, -29.32228660583496, 3.2437901496887207, 8.915679931640625, 1.0582470893859863, 1.6768486499786377, -3.366837501525879, 0.6107330322265625, -1.18701171875, -0.04541015625, -1.1201171875, 0, 
193, 2780577266, 84.07327270507812, -21.1540584564209, -29.323095321655273, 3.269277572631836, 8.841464042663574, 1.0525158643722534, 1.9205678701400757, -3.4448323249816895, 0.48099687695503235, -1.18505859375, -0.0439453125, -1.12060546875, 0, 
194, 2780585599, 84.07609558105469, -21.15455436706543, -29.32489776611328, 3.680523157119751, 9.143136024475098, 1.022304892539978, 2.092414140701294, -3.61626935005188, 0.6396259069442749, -1.18115234375, -0.046875, -1.123046875, 0, 
195, 2780593932, 84.07524108886719, -21.154645919799805, -29.32467269897461, 3.8524513244628906, 9.444230079650879, 0.7850450873374939, 1.7603510618209839, -3.3420941829681396, 0.6176487803459167, -1.18212890625, -0.046875, -1.1220703125, 0, 
196, 2780602265, 84.07329559326172, -21.15558624267578, -29.322694778442383, 3.8066189289093018, 9.389715194702148, 0.7650333046913147, 1.7075856924057007, -3.1372570991516113, 0.7422364354133606, -1.18115234375, -0.0478515625, -1.11865234375, 0, 
197, 2780610598, 84.0713119506836, -21.15580177307129, -29.322206497192383, 3.331806182861328, 9.068313598632812, 0.9498983025550842, 1.6359938383102417, -3.3135082721710205, 0.6355275511741638, -1.181640625, -0.0458984375, -1.12109375, 0, 
198, 2780618931, 84.07042694091797, -21.155569076538086, -29.322580337524414, 3.212526559829712, 8.86654281616211, 1.1653438806533813, 1.7290503978729248, -3.396242380142212, 0.5743095278739929, -1.1826171875, -0.04833984375, -1.1181640625, 0, 
199, 2780627264, 84.0733413696289, -21.156044006347656, -29.32634925842285, 3.5155067443847656, 8.967985153198242, 1.0227322578430176, 2.035857677459717, -3.7894983291625977, 0.6188015341758728, -1.1796875, -0.0478515625, -1.12060546875, 0, 
200, 2780635597, 84.07405090332031, -21.155771255493164, -29.328123092651367, 3.828887701034546, 9.301360130310059, 0.8348193168640137, 1.9310953617095947, -3.3671443462371826, 0.5733361840248108, -1.18115234375, -0.0478515625, -1.11962890625, 0, 
201, 2780643930, 84.07405853271484, -21.155323028564453, -29.32744598388672, 3.9092724323272705, 9.426701545715332, 0.8351799845695496, 1.8829151391983032, -3.284000873565674, 0.5592995882034302, -1.181640625, -0.0478515625, -1.11865234375, 0, 
202, 2780652263, 84.0725326538086, -21.15536880493164, -29.326374053955078, 3.378509759902954, 9.245359420776367, 0.9103595018386841, 1.7536399364471436, -3.13789701461792, 0.6346822381019592, -1.1796875, -0.048828125, -1.12158203125, 0, 
203, 2780660596, 84.07161712646484, -21.154762268066406, -29.326265335083008, 3.281888246536255, 8.973981857299805, 1.1182504892349243, 1.7448798418045044, -3.3439126014709473, 0.5322253108024597, -1.18505859375, -0.04541015625, -1.11962890625, 0, 
204, 2780668929, 84.07209014892578, -21.153772354125977, -29.32952880859375, 3.251507520675659, 8.934592247009277, 1.0623277425765991, 1.8462353944778442, -3.5097649097442627, 0.4709817171096802, -1.1787109375, -0.04541015625, -1.11962890625, 0, 
205, 2780677262, 84.0737533569336, -21.15374755859375, -29.32994842529297, 3.770122766494751, 9.212355613708496, 0.9785262942314148, 2.0339107513427734, -3.412327766418457, 0.5976952910423279, -1.181640625, -0.0458984375, -1.119140625, 0, 
206, 2780685595, 84.07331085205078, -21.153228759765625, -29.330707550048828, 3.9777376651763916, 9.38659954071045, 0.7212337255477905, 1.762938141822815, -3.4396841526031494, 0.5352478623390198, -1.18212890625, -0.0478515625, -1.11962890625, 0, 
207, 2780693928, 84.07193756103516, -21.15298080444336, -29.32898712158203, 3.586852788925171, 9.273602485656738, 0.7978270053863525, 1.7588653564453125, -3.16848087310791, 0.5943911075592041, -1.1826171875, -0.0458984375, -1.12255859375, 0, 
208, 2780702261, 84.07081604003906, -21.152294158935547, -29.328767776489258, 3.322129249572754, 9.013580322265625, 1.0412895679473877, 1.6955469846725464, -3.406923532485962, 0.519162118434906, -1.18115234375, -0.048828125, -1.12158203125, 0, 
209, 2780710594, 84.07124328613281, -21.152183532714844, -29.32939910888672, 3.286792755126953, 8.902042388916016, 1.0723518133163452, 1.8767420053482056, -3.4339206218719482, 0.5838636159896851, -1.18359375, -0.04638671875, -1.11865234375, 0, 
210, 2780718927, 84.07357025146484, -21.151357650756836, -29.332820892333984, 3.6005430221557617, 9.129121780395508, 1.0365455150604248, 1.9972572326660156, -3.6971843242645264, 0.4714428186416626, -1.18115234375, -0.04736328125, -1.1201171875, 0, 
211, 2780727260, 84.07360076904297, -21.150920867919922, -29.333080291748047, 3.810424566268921, 9.416703224182129, 0.8046828508377075, 1.842162847518921, -3.388148546218872, 0.5513848066329956, -1.18408203125, -0.04736328125, -1.1181640625, 0, 
212, 2780735593, 84.07323455810547, -21.151334762573242, -29.33124351501465, 3.8836090564727783, 9.332399368286133, 0.7743058204650879, 1.8693395853042603, -3.195068359375, 0.6729243993759155, -1.181640625, -0.04833984375, -1.12060546875, 0, 
213, 2780743926, 84.07183837890625, -21.15088653564453, -29.32986068725586, 3.2813286781311035, 9.074520111083984, 0.8712567090988159, 1.7451874017715454, -3.2056727409362793, 0.5672656297683716, -1.181640625, -0.04638671875, -1.11767578125, 0, 
214, 2780752259, 84.07193756103516, -21.149843215942383, -29.330535888671875, 3.2412633895874023, 8.863990783691406, 1.0888121128082275, 1.8364509344100952, -3.413814067840576, 0.47379928827285767, -1.1826171875, -0.0478515625, -1.11865234375, 0, 
215, 2780760592, 84.07447814941406, -21.149866104125977, -29.33222770690918, 3.483243465423584, 8.945162773132324, 1.0482995510101318, 2.081681489944458, -3.5525662899017334, 0.5884485840797424, -1.18115234375, -0.04736328125, -1.11865234375, 0, 
216, 2780768925, 84.07572937011719, -21.15009117126465, -29.33197021484375, 3.7805745601654053, 9.318925857543945, 0.8774471282958984, 1.9961044788360596, -3.373189687728882, 0.6321209669113159, -1.18115234375, -0.0478515625, -1.11865234375, 0, 
217, 2780777258, 84.0753173828125, -21.150272369384766, -29.331554412841797, 3.976705312728882, 9.42909049987793, 0.7483852505683899, 1.8206725120544434, -3.3192460536956787, 0.6314036846160889, -1.18359375, -0.04736328125, -1.11865234375, 0, 
218, 2780785591, 84.07371520996094, -21.150768280029297, -29.330379486083984, 3.495295763015747, 9.221153259277344, 0.8292860984802246, 1.7183691263198853, -3.223627805709839, 0.6801218390464783, -1.18212890625, -0.046875, -1.1171875, 0, 
219, 2780793924, 84.07196044921875, -21.14959716796875, -29.329830169677734, 3.2455313205718994, 8.915650367736816, 1.1025336980819702, 1.6637340784072876, -3.287714719772339, 0.4717245101928711, -1.18212890625, -0.04638671875, -1.12060546875, 0, 
220, 2780802257, 84.07304382324219, -21.149335861206055, -29.33128547668457, 3.228205680847168, 8.888534545898438, 1.0049936771392822, 1.943313479423523, -3.4598681926727295, 0.5638076663017273, -1.18115234375, -0.0458984375, -1.11962890625, 0, 
221, 2780810590, 84.07551574707031, -21.15020179748535, -29.332172393798828, 3.740670680999756, 9.159446716308594, 0.9721167683601379, 2.111189365386963, -3.473904848098755, 0.6975909471511841, -1.1845703125, -0.04541015625, -1.12158203125, 0, 
222, 2780818923, 84.07593536376953, -21.149660110473633, -29.332202911376953, 3.8719398975372314, 9.39286994934082, 0.7673413157463074, 1.886577844619751, -3.393604278564453, 0.538372814655304, -1.18310546875, -0.048828125, -1.11865234375, 0, 
223, 2780827256, 84.07563781738281, -21.14999008178711, -29.331377029418945, 3.6433634757995605, 9.357637405395508, 0.7970278859138489, 1.8502570390701294, -3.275240659713745, 0.6533551216125488, -1.17919921875, -0.04931640625, -1.11328125, 0, 
224, 2780835589, 84.07396697998047, -21.15043830871582, -29.331520080566406, 3.341719627380371, 9.087296485900879, 0.9988007545471191, 1.6766693592071533, -3.300368070602417, 0.666059672832489, -1.1806640625, -0.04736328125, -1.11083984375, 0, 
225, 2780843922, 84.07410430908203, -21.150949478149414, -29.331687927246094, 3.258598804473877, 8.920641899108887, 1.1285929679870605, 1.8614248037338257, -3.390786647796631, 0.6639850735664368, -1.1796875, -0.04638671875, -1.1083984375, 0, 
226, 2780852255, 84.07671356201172, -21.15233039855957, -29.336530685424805, 3.5290939807891846, 9.052876472473145, 1.0898855924606323, 2.0529427528381348, -3.660914421081543, 0.7422621250152588, -1.1796875, -0.046875, -1.11279296875, 0, 
227, 2780860588, 84.07695007324219, -21.152799606323242, -29.336103439331055, 3.839498996734619, 9.325224876403809, 0.7840739488601685, 1.8986423015594482, -3.323575019836426, 0.6663414835929871, -1.17822265625, -0.04833984375, -1.109375, 0, 
228, 2780868921, 84.07599639892578, -21.152313232421875, -29.332544326782227, 3.901175022125244, 9.385541915893555, 0.8089480400085449, 1.8493605852127075, -3.0657424926757812, 0.5780749320983887, -1.1787109375, -0.048828125, -1.10986328125, 0, 
229, 2780877254, 84.07454681396484, -21.152326583862305, -29.331775665283203, 3.302306890487671, 9.187263488769531, 0.9134008288383484, 1.7107362747192383, -3.2786731719970703, 0.6147288084030151, -1.17724609375, -0.048828125, -1.11083984375, 0, 
230, 2780885587, 84.07388305664062, -21.15174102783203, -29.332155227661133, 3.274235963821411, 8.969390869140625, 1.167475700378418, 1.758967638015747, -3.39040207862854, 0.533096194267273, -1.17919921875, -0.04833984375, -1.10986328125, 0, 
231, 2780893920, 84.0752182006836, -21.151649475097656, -29.334314346313477, 3.3689239025115967, 8.98326301574707, 1.04581618309021, 1.9185700416564941, -3.6037180423736572, 0.5691098570823669, -1.18017578125, -0.046875, -1.111328125, 0, 
232, 2780902253, 84.07687377929688, -21.151988983154297, -29.333938598632812, 3.7434442043304443, 9.270255088806152, 0.9432811141014099, 2.030555248260498, -3.4090497493743896, 0.6419054865837097, -1.18017578125, -0.0478515625, -1.11181640625, 0, 
233, 2780910586, 84.07707977294922, -21.151897430419922, -29.334136962890625, 3.9821982383728027, 9.434846878051758, 0.8041833639144897, 1.867392897605896, -3.384613513946533, 0.5913686752319336, -1.18212890625, -0.04541015625, -1.111328125, 0, 
234, 2780918919, 84.07481384277344, -21.15225601196289, -29.333309173583984, 3.475520610809326, 9.280515670776367, 0.8082519173622131, 1.661454677581787, -3.153855562210083, 0.6730780601501465, -1.1796875, -0.0478515625, -1.1083984375, 0, 
235, 2780927252, 84.07374572753906, -21.151308059692383, -29.332937240600586, 3.2949352264404297, 8.953741073608398, 1.0627213716506958, 1.740397572517395, -3.312279224395752, 0.4946749210357666, -1.17822265625, -0.04736328125, -1.109375, 0, 
236, 2780935585, 84.07486724853516, -21.151517868041992, -29.33323860168457, 3.295820713043213, 8.85308837890625, 1.00276517868042, 1.972129464149475, -3.390453577041626, 0.6294569969177246, -1.1787109375, -0.04638671875, -1.10986328125, 0, 
237, 2780943918, 84.0782699584961, -21.152084350585938, -29.33521270751953, 3.698673963546753, 9.148903846740723, 1.021018147468567, 2.174866199493408, -3.59114146232605, 0.6488982439041138, -1.17919921875, -0.04833984375, -1.11083984375, 0, 
238, 2780952251, 84.0788803100586, -21.15037727355957, -29.335420608520508, 3.8533198833465576, 9.414006233215332, 0.7966322302818298, 1.9133447408676147, -3.3779022693634033, 0.39787864685058594, -1.17822265625, -0.04541015625, -1.11181640625, 0, 
239, 2780960584, 84.07807159423828, -21.15011215209961, -29.333377838134766, 3.7563223838806152, 9.339729309082031, 0.7460152506828308, 1.8407282829284668, -3.133260726928711, 0.5982331037521362, -1.1796875, -0.05029296875, -1.109375, 0, 
240, 2780968917, 84.07679748535156, -21.14993667602539, -29.332275390625, 3.2838447093963623, 9.0938081741333, 0.966437816619873, 1.6989281177520752, -3.359537124633789, 0.5849651098251343, -1.18017578125, -0.04833984375, -1.10986328125, 0, 
241, 2780977250, 84.07633972167969, -21.149927139282227, -29.33148956298828, 3.17871356010437, 8.87647533416748, 1.1345272064208984, 1.8306365013122559, -3.2768802642822266, 0.611655056476593, -1.17919921875, -0.048828125, -1.11279296875, 0, 
242, 2780985583, 84.07842254638672, -21.150297164916992, -29.33405113220215, 3.588846445083618, 8.96930980682373, 0.9791412949562073, 1.9765353202819824, -3.68668270111084, 0.6182124018669128, -1.17578125, -0.0478515625, -1.11181640625, 0, 
243, 2780993916, 84.07891845703125, -21.14960289001465, -29.33361053466797, 3.8522515296936035, 9.304987907409668, 0.7589077353477478, 1.9301732778549194, -3.306694984436035, 0.5260266661643982, -1.177734375, -0.04833984375, -1.1083984375, 0, 
244, 2781002249, 84.07832336425781, -21.148971557617188, -29.33257293701172, 3.8985695838928223, 9.388753890991211, 0.8216347694396973, 1.815139889717102, -3.2603845596313477, 0.5412672162055969, -1.177734375, -0.04638671875, -1.10791015625, 0, 
245, 2781010582, 84.07759094238281, -21.148618698120117, -29.331735610961914, 3.383075714111328, 9.203234672546387, 0.934087336063385, 1.800001859664917, -3.26724910736084, 0.5717993974685669, -1.1787109375, -0.048828125, -1.1123046875, 0, 
246, 2781018915, 84.07673645019531, -21.14834213256836, -29.332073211669922, 3.3045289516448975, 8.94839096069336, 1.1706403493881226, 1.73232901096344, -3.395141124725342, 0.5705955028533936, -1.17919921875, -0.046875, -1.1083984375, 0, 
247, 2781027248, 84.07682037353516, -21.148075103759766, -29.333221435546875, 3.3181796073913574, 8.897917747497559, 1.0350384712219238, 1.8116562366485596, -3.4890942573547363, 0.5594532489776611, -1.18017578125, -0.04931640625, -1.11083984375, 0, 
248, 2781035581, 84.07811737060547, -21.149293899536133, -29.333593368530273, 3.7822842597961426, 9.20644760131836, 0.915079653263092, 1.9950031042099, -3.406641721725464, 0.7476410269737244, -1.1806640625, -0.0478515625, -1.10986328125, 0, 
249, 2781043914, 84.07731628417969, -21.148557662963867, -29.33319091796875, 3.949331760406494, 9.378049850463867, 0.7834371328353882, 1.7722358703613281, -3.3120484352111816, 0.5224919319152832, -1.177734375, -0.04736328125, -1.11083984375, 0, 
250, 2781052247, 84.07656860351562, -21.148696899414062, -29.331571578979492, 3.4730637073516846, 9.2625732421875, 0.8013193011283875, 1.805739402770996, -3.236921787261963, 0.6355019211769104, -1.17822265625, -0.046875, -1.11181640625, 0, 
251, 2781060580, 84.07524871826172, -21.148202896118164, -29.331287384033203, 3.276256799697876, 9.007790565490723, 1.1015939712524414, 1.7078931331634521, -3.327570676803589, 0.5494381189346313, -1.1787109375, -0.0478515625, -1.109375, 0, 
252, 2781068913, 84.07463836669922, -21.14789581298828, -29.331233978271484, 3.333399772644043, 8.888169288635254, 1.0864593982696533, 1.7747974395751953, -3.360229015350342, 0.569596529006958, -1.1767578125, -0.04638671875, -1.109375, 0, 
253, 2781077246, 84.07604217529297, -21.1484375, -29.332223892211914, 3.689060926437378, 9.134868621826172, 1.0439174175262451, 1.9789429903030396, -3.4827160835266113, 0.6567361354827881, -1.17822265625, -0.04736328125, -1.10888671875, 0, 
254, 2781085579, 84.07637786865234, -21.147218704223633, -29.3328800201416, 3.879141092300415, 9.438220024108887, 0.7613005042076111, 1.863217830657959, -3.4121744632720947, 0.45620232820510864, -1.18115234375, -0.04833984375, -1.111328125, 0, 
255, 2781093912, 84.0751953125, -21.147836685180664, -29.33047103881836, 3.8001389503479004, 9.349480628967285, 0.760300874710083, 1.8136796951293945, -3.103215456008911, 0.7065301537513733, -1.1796875, -0.04638671875, -1.11083984375, 0, 
256, 2781102245, 84.0733413696289, -21.147619247436523, -29.329666137695312, 3.2414913177490234, 9.003450393676758, 0.9489757418632507, 1.6697534322738647, -3.2499594688415527, 0.5895243883132935, -1.18017578125, -0.04736328125, -1.10986328125, 0, 
257, 2781110578, 84.07325744628906, -21.147205352783203, -29.330263137817383, 3.2043447494506836, 8.849557876586914, 1.1348271369934082, 1.818060040473938, -3.427747964859009, 0.54946368932724, -1.18310546875, -0.0478515625, -1.11181640625, 0, 
258, 2781118911, 84.07612609863281, -21.147523880004883, -29.333030700683594, 3.5595686435699463, 9.033061981201172, 1.0107570886611938, 2.081784248352051, -3.6558430194854736, 0.6131151914596558, -1.1796875, -0.044921875, -1.10888671875, 0, 
259, 2781127244, 84.0784912109375, -21.147275924682617, -29.33324432373047, 3.7859671115875244, 9.380266189575195, 0.8347134590148926, 2.1275055408477783, -3.385510206222534, 0.5731825232505798, -1.177734375, -0.04541015625, -1.11181640625, 0, 
260, 2781135577, 84.07759094238281, -21.147994995117188, -29.331268310546875, 3.8912365436553955, 9.454638481140137, 0.7850472331047058, 1.7697514295578003, -3.3048253059387207, 0.6984105110168457, -1.17919921875, -0.046875, -1.10986328125, 0, 
261, 2781143910, 84.07703399658203, -21.14881134033203, -29.331684112548828, 3.3994052410125732, 9.162317276000977, 0.8720083236694336, 1.767958402633667, -3.421062707901001, 0.6977189779281616, -1.17822265625, -0.04638671875, -1.10888671875, 0, 
262, 2781152243, 84.07720184326172, -21.149639129638672, -29.33177375793457, 3.2936177253723145, 8.916848182678223, 1.1404435634613037, 1.8643447160720825, -3.390760898590088, 0.7038151025772095, -1.1787109375, -0.0478515625, -1.11181640625, 0, 
263, 2781160576, 84.07902526855469, -21.149215698242188, -29.33399200439453, 3.363128662109375, 8.898260116577148, 1.01266348361969, 1.9734102487564087, -3.6061513423919678, 0.5283063650131226, -1.177734375, -0.04736328125, -1.10986328125, 0, 
264, 2781168909, 84.08084869384766, -21.148895263671875, -29.334012985229492, 3.795858144760132, 9.238937377929688, 0.926630973815918, 2.065006732940674, -3.368271827697754, 0.5672144293785095, -1.1787109375, -0.0458984375, -1.111328125, 0, 
265, 2781177242, 84.08084106445312, -21.14723014831543, -29.334447860717773, 3.9216372966766357, 9.424010276794434, 0.7351500988006592, 1.8299962282180786, -3.392221212387085, 0.40033766627311707, -1.18017578125, -0.04541015625, -1.1123046875, 0, 
266, 2781185575, 84.07914733886719, -21.146549224853516, -29.331523895263672, 3.5032458305358887, 9.283620834350586, 0.8716138005256653, 1.7692394256591797, -3.042125940322876, 0.5567382574081421, -1.17822265625, -0.046875, -1.11083984375, 0, 
267, 2781193908, 84.07828521728516, -21.14617919921875, -29.331602096557617, 3.2691078186035156, 9.010618209838867, 1.118872880935669, 1.7424466609954834, -3.3678362369537354, 0.5605290532112122, -1.18212890625, -0.04736328125, -1.1123046875, 0, 
268, 2781202241, 84.078369140625, -21.147050857543945, -29.332056045532227, 3.23771333694458, 8.90623664855957, 1.1093120574951172, 1.8236695528030396, -3.4774909019470215, 0.6991021037101746, -1.1796875, -0.046875, -1.111328125, 0, 
269, 2781210574, 84.07998657226562, -21.147790908813477, -29.33492088317871, 3.6952431201934814, 9.143366813659668, 1.0174707174301147, 1.9221049547195435, -3.6934192180633545, 0.6601941585540771, -1.17919921875, -0.0458984375, -1.1123046875, 0, 
270, 2781218907, 84.07991790771484, -21.14741325378418, -29.335041046142578, 3.9000403881073, 9.385750770568848, 0.7661914229393005, 1.8005138635635376, -3.46693754196167, 0.5492331981658936, -1.1796875, -0.04541015625, -1.11181640625, 0, 
271, 2781227240, 84.07931518554688, -21.147775650024414, -29.33379554748535, 3.740442991256714, 9.321885108947754, 0.8024395704269409, 1.833786964416504, -3.229928731918335, 0.6632420420646667, -1.18115234375, -0.04443359375, -1.1083984375, 0, 
272, 2781235573, 84.07781219482422, -21.14699935913086, -29.330045700073242, 3.3116672039031982, 9.061941146850586, 0.948810338973999, 1.6805881261825562, -3.3235490322113037, 0.5154991149902344, -1.1806640625, -0.04443359375, -1.11328125, 0, 
273, 2781243906, 84.07762145996094, -21.1470890045166, -29.330427169799805, 3.3256678581237793, 8.906732559204102, 1.204073429107666, 1.8130651712417603, -3.4096131324768066, 0.6111427545547485, -1.181640625, -0.04638671875, -1.111328125, 0, 
274, 2781252239, 84.0802001953125, -21.147552490234375, -29.333110809326172, 3.514805316925049, 9.027676582336426, 1.0531361103057861, 2.065237522125244, -3.614450693130493, 0.6380634307861328, -1.18212890625, -0.0439453125, -1.12353515625, 0, 
275, 2781260572, 84.08030700683594, -21.147499084472656, -29.33368492126465, 3.777872323989868, 9.368261337280273, 0.8450726866722107, 1.8412920236587524, -3.428618907928467, 0.5914967656135559, -1.18603515625, -0.04345703125, -1.1279296875, 0, 
276, 2781268905, 84.07920837402344, -21.146770477294922, -29.33138084411621, 3.9321072101593018, 9.364779472351074, 0.8262852430343628, 1.7695462703704834, -3.225600004196167, 0.5324558019638062, -1.18603515625, -0.044921875, -1.1279296875, 0, 
277, 2781277238, 84.07727813720703, -21.14544105529785, -29.329795837402344, 3.3576154708862305, 9.126471519470215, 0.8616346120834351, 1.6897327899932861, -3.1709914207458496, 0.4653210937976837, -1.189453125, -0.04345703125, -1.12841796875, 0, 
278, 2781285571, 84.07720947265625, -21.14488983154297, -29.32994842529297, 3.219594955444336, 8.920327186584473, 1.0992193222045898, 1.834171175956726, -3.3746492862701416, 0.5361698865890503, -1.18701171875, -0.044921875, -1.12841796875, 0, 
279, 2781293904, 84.07841491699219, -21.14532470703125, -29.331674575805664, 3.3795673847198486, 8.922893524169922, 1.0278726816177368, 1.9217718839645386, -3.5626325607299805, 0.6383707523345947, -1.1884765625, -0.0419921875, -1.1337890625, 0, 
280, 2781302237, 84.07970428466797, -21.1463623046875, -29.331493377685547, 3.7912111282348633, 9.229869842529297, 0.9159122705459595, 2.010934829711914, -3.357206106185913, 0.731529712677002, -1.1884765625, -0.04150390625, -1.1298828125, 0, 
281, 2781310570, 84.07849884033203, -21.145606994628906, -29.331451416015625, 3.9204137325286865, 9.417126655578613, 0.794512927532196, 1.7077393531799316, -3.3510849475860596, 0.5156273245811462, -1.18896484375, -0.0419921875, -1.1298828125, 0, 
282, 2781318903, 84.07734680175781, -21.145856857299805, -29.330062866210938, 3.614048719406128, 9.25346851348877, 0.7781461477279663, 1.7748230695724487, -3.2069530487060547, 0.6506399512290955, -1.189453125, -0.0439453125, -1.130859375, 0, 
283, 2781327236, 84.07635498046875, -21.145551681518555, -29.329191207885742, 3.299985647201538, 9.009519577026367, 1.066652536392212, 1.7681890726089478, -3.2642269134521484, 0.5795347690582275, -1.1884765625, -0.04150390625, -1.13037109375, 0, 
284, 2781335569, 84.07625579833984, -21.14543914794922, -29.32941246032715, 3.2294557094573975, 8.866676330566406, 1.0738580226898193, 1.8299962282180786, -3.3872008323669434, 0.5901135206222534, -1.189453125, -0.041015625, -1.13330078125, 0, 
285, 2781343902, 84.07903289794922, -21.14547348022461, -29.332439422607422, 3.7044832706451416, 9.045990943908691, 0.9641454815864563, 2.0542490482330322, -3.7021281719207764, 0.5745145082473755, -1.1865234375, -0.04150390625, -1.13330078125, 0, 
286, 2781352235, 84.07964324951172, -21.144624710083008, -29.333702087402344, 3.8587846755981445, 9.347509384155273, 0.7754195332527161, 1.8670088052749634, -3.4928081035614014, 0.48980817198753357, -1.18603515625, -0.041015625, -1.1318359375, 0, 
287, 2781360568, 84.07911682128906, -21.145124435424805, -29.331464767456055, 3.7413229942321777, 9.379551887512207, 0.8573383092880249, 1.8896516561508179, -3.122836112976074, 0.6896504759788513, -1.18798828125, -0.04150390625, -1.1337890625, 0, 
288, 2781368901, 84.07832336425781, -21.144668579101562, -29.331745147705078, 3.331378936767578, 9.122641563415527, 0.9881889224052429, 1.739859700202942, -3.3932201862335205, 0.549694299697876, -1.18896484375, -0.0419921875, -1.13330078125, 0, 
289, 2781377234, 84.07747650146484, -21.145999908447266, -29.33232307434082, 3.2760581970214844, 8.924633979797363, 1.1404603719711304, 1.7283331155776978, -3.4465997219085693, 0.7552740573883057, -1.1904296875, -0.04248046875, -1.138671875, 0, 
290, 2781385567, 84.07958984375, -21.146623611450195, -29.33468246459961, 3.4467051029205322, 8.967187881469727, 1.006296992301941, 1.9989221096038818, -3.6311254501342773, 0.6551737189292908, -1.18994140625, -0.0419921875, -1.13720703125, 0, 
291, 2781393900, 84.08058166503906, -21.146991729736328, -29.335451126098633, 3.811027765274048, 9.286774635314941, 0.887055516242981, 1.9368329048156738, -3.4555647373199463, 0.6387037038803101, -1.18994140625, -0.04052734375, -1.1396484375, 0, 
292, 2781402233, 84.08006286621094, -21.146862030029297, -29.335426330566406, 3.9693706035614014, 9.424487113952637, 0.7841755747795105, 1.7889108657836914, -3.360792398452759, 0.5902159810066223, -1.19091796875, -0.041015625, -1.1416015625, 0, 
293, 2781410566, 84.07957458496094, -21.146800994873047, -29.335067749023438, 3.358466625213623, 9.200590133666992, 0.8510552644729614, 1.8107597827911377, -3.3237032890319824, 0.6022034287452698, -1.18701171875, -0.0390625, -1.14404296875, 0, 
294, 2781418899, 84.07791137695312, -21.147075653076172, -29.3350830078125, 3.2914390563964844, 8.940634727478027, 1.1366193294525146, 1.6472127437591553, -3.3709096908569336, 0.6379864811897278, -1.18798828125, -0.04150390625, -1.14306640625, 0, 
295, 2781427232, 84.07872009277344, -21.14691162109375, -29.335784912109375, 3.3446192741394043, 8.90562629699707, 1.053585171699524, 1.9191850423812866, -3.4410932064056396, 0.5766916871070862, -1.185546875, -0.04296875, -1.14404296875, 0, 
296, 2781435565, 84.07968139648438, -21.14789581298828, -29.336042404174805, 3.722548484802246, 9.224757194519043, 0.987504243850708, 1.9546605348587036, -3.4027485847473145, 0.7214377522468567, -1.1865234375, -0.0419921875, -1.14404296875, 0, 
297, 2781443898, 84.0795669555664, -21.147075653076172, -29.336830139160156, 3.9306223392486572, 9.413389205932617, 0.7641558051109314, 1.804023265838623, -3.443014144897461, 0.49785104393959045, -1.18701171875, -0.04296875, -1.1435546875, 0, 
298, 2781452231, 84.0780258178711, -21.147321701049805, -29.33472442626953, 3.626600503921509, 9.30333137512207, 0.7719495296478271, 1.7566879987716675, -3.13495135307312, 0.6582472920417786, -1.1826171875, -0.04150390625, -1.14208984375, 0, 
299, 2781460564, 84.07630920410156, -21.14688491821289, -29.33478546142578, 3.2284438610076904, 9.010026931762695, 1.0746228694915771, 1.641244649887085, -3.3651466369628906, 0.5523068308830261, -1.18359375, -0.04052734375, -1.14208984375, 0, 
300, 2781468897, 84.0772933959961, -21.14699935913086, -29.336698532104492, 3.249617576599121, 8.874578475952148, 1.0486938953399658, 1.8866803646087646, -3.576054334640503, 0.5982588529586792, -1.181640625, -0.04150390625, -1.1396484375, 0, 
301, 2781477230, 84.0807876586914, -21.147706985473633, -29.338716506958008, 3.69492244720459, 9.086414337158203, 0.9831103682518005, 2.182422637939453, -3.59718656539917, 0.6670075058937073, -1.18408203125, -0.04150390625, -1.13916015625, 0, 
302, 2781485563, 84.08036041259766, -21.147790908813477, -29.33831214904785, 3.825942277908325, 9.388280868530273, 0.8019412755966187, 1.817009449005127, -3.3187336921691895, 0.6192368865013123, -1.1796875, -0.0419921875, -1.13671875, 0, 
303, 2781493896, 84.07884979248047, -21.148635864257812, -29.337093353271484, 3.822326898574829, 9.383308410644531, 0.764832615852356, 1.7226982116699219, -3.240354061126709, 0.7202081680297852, -1.1806640625, -0.041015625, -1.1396484375, 0, 
304, 2781502229, 84.07764434814453, -21.148916244506836, -29.33625030517578, 3.341062307357788, 9.121732711791992, 0.9034320712089539, 1.7417548894882202, -3.2757527828216553, 0.6502813100814819, -1.17822265625, -0.0419921875, -1.13671875, 0, 
305, 2781510562, 84.07777404785156, -21.14971923828125, -29.336462020874023, 3.2223503589630127, 8.881967544555664, 1.1785614490509033, 1.8584537506103516, -3.3976001739501953, 0.6977445483207703, -1.1787109375, -0.04150390625, -1.134765625, 0, 
306, 2781518895, 84.07963562011719, -21.151187896728516, -29.33879852294922, 3.4657692909240723, 8.938272476196289, 1.016982913017273, 1.969184160232544, -3.643855571746826, 0.7536348700523376, -1.1796875, -0.04296875, -1.13330078125, 0, 
307, 2781527228, 84.0809555053711, -21.151288986206055, -29.33903694152832, 3.8704710006713867, 9.264666557312012, 0.843594491481781, 1.9992034435272217, -3.391554832458496, 0.6129356622695923, -1.1767578125, -0.04296875, -1.13134765625, 0, 
308, 2781535561, 84.08020782470703, -21.151365280151367, -29.338186264038086, 3.946857452392578, 9.416979789733887, 0.7941005825996399, 1.800257682800293, -3.271756887435913, 0.6237705945968628, -1.1796875, -0.04248046875, -1.1328125, 0, 
309, 2781543894, 84.08009338378906, -21.151317596435547, -29.33750343322754, 3.3960680961608887, 9.214496612548828, 0.8578582406044006, 1.8630385398864746, -3.2872536182403564, 0.6077361106872559, -1.1796875, -0.04345703125, -1.1318359375, 0, 
310, 2781552227, 84.07989501953125, -21.151535034179688, -29.33714485168457, 3.29233980178833, 8.956445693969727, 1.124726414680481, 1.841010332107544, -3.329312562942505, 0.6350153088569641, -1.1796875, -0.04443359375, -1.1279296875, 0, 
311, 2781560560, 84.07957458496094, -21.151296615600586, -29.337495803833008, 3.2878782749176025, 8.90308666229248, 1.0447956323623657, 1.7999249696731567, -3.4023897647857666, 0.572977602481842, -1.1806640625, -0.04345703125, -1.13037109375, 0, 
312, 2781568893, 84.08194732666016, -21.151729583740234, -29.339191436767578, 3.750959634780884, 9.188972473144531, 0.9665989279747009, 2.0607547760009766, -3.5625555515289307, 0.6368851661682129, -1.17724609375, -0.044921875, -1.1298828125, 0, 
313, 2781577226, 84.08212280273438, -21.150911331176758, -29.339040756225586, 3.927093505859375, 9.402386665344238, 0.7631067037582397, 1.8798155784606934, -3.3383030891418457, 0.509479820728302, -1.177734375, -0.04296875, -1.12646484375, 0, 
314, 2781585559, 84.08110809326172, -21.150774002075195, -29.336971282958984, 3.554924726486206, 9.287833213806152, 0.7624285817146301, 1.819801688194275, -3.1320571899414062, 0.6131663918495178, -1.17724609375, -0.04296875, -1.12548828125, 0, 
315, 2781593892, 84.0804214477539, -21.150588989257812, -29.336681365966797, 3.2712528705596924, 9.011409759521484, 1.0378336906433105, 1.7795361280441284, -3.32905650138855, 0.587142288684845, -1.177734375, -0.04296875, -1.12744140625, 0, 
316, 2781602225, 84.07967376708984, -21.15061378479004, -29.336454391479492, 3.2956385612487793, 8.882673263549805, 1.0892237424850464, 1.769700050354004, -3.338174819946289, 0.6098363995552063, -1.177734375, -0.04248046875, -1.125, 0, 
317, 2781610558, 84.08260345458984, -21.150732040405273, -29.338747024536133, 3.6226189136505127, 9.114550590515137, 1.0507655143737793, 2.104580879211426, -3.6215200424194336, 0.59369957447052, -1.1767578125, -0.044921875, -1.1220703125, 0, 
318, 2781618891, 84.08226013183594, -21.150083541870117, -29.339126586914062, 3.791948080062866, 9.439815521240234, 0.7707386612892151, 1.7906525135040283, -3.402005672454834, 0.524208128452301, -1.17578125, -0.04296875, -1.11572265625, 0, 
319, 2781627224, 84.0809555053711, -21.15032386779785, -29.337066650390625, 3.888176441192627, 9.3682279586792, 0.7622133493423462, 1.7845308780670166, -3.1383838653564453, 0.6569666862487793, -1.17333984375, -0.04296875, -1.11669921875, 0, 
320, 2781635557, 84.07978057861328, -21.150632858276367, -29.33616828918457, 3.283276319503784, 9.047419548034668, 0.9164025783538818, 1.7456485033035278, -3.2714757919311523, 0.6534320116043091, -1.17822265625, -0.0439453125, -1.11669921875, 0, 
321, 2781643890, 84.07935333251953, -21.150558471679688, -29.336782455444336, 3.2170863151550293, 8.8270902633667, 1.1340149641036987, 1.7747974395751953, -3.4316158294677734, 0.5876545906066895, -1.17529296875, -0.04296875, -1.11474609375, 0, 
322, 2781652223, 84.08112335205078, -21.149879455566406, -29.338756561279297, 3.478959798812866, 8.983973503112793, 1.049139380455017, 1.9700034856796265, -3.5934979915618896, 0.5005917549133301, -1.177734375, -0.044921875, -1.12060546875, 0, 
323, 2781660556, 84.08277893066406, -21.14962387084961, -29.3383846282959, 3.800121784210205, 9.37350082397461, 0.8411260843276978, 2.0656471252441406, -3.320578098297119, 0.5782285332679749, -1.1767578125, -0.044921875, -1.1171875, 0, 
324, 2781668889, 84.08207702636719, -21.14965057373047, -29.33777618408203, 3.9141194820404053, 9.449185371398926, 0.784074068069458, 1.790037751197815, -3.3033649921417236, 0.616060733795166, -1.173828125, -0.04345703125, -1.1171875, 0, 
325, 2781677222, 84.08089447021484, -21.14979362487793, -29.335758209228516, 3.4480252265930176, 9.219574928283691, 0.875005304813385, 1.7995407581329346, -3.142815589904785, 0.6445181965827942, -1.17578125, -0.04443359375, -1.1162109375, 0, 
326, 2781685555, 84.07977294921875, -21.149572372436523, -29.335506439208984, 3.2824506759643555, 8.955920219421387, 1.1234066486358643, 1.7267451286315918, -3.3326165676116943, 0.58091801404953, -1.17626953125, -0.0439453125, -1.11328125, 0, 
327, 2781693888, 84.08036804199219, -21.14920997619629, -29.336441040039062, 3.281167984008789, 8.90916633605957, 1.0106323957443237, 1.8831967115402222, -3.466092348098755, 0.5516921281814575, -1.17578125, -0.04736328125, -1.11572265625, 0, 
328, 2781702221, 84.0820083618164, -21.149696350097656, -29.33705711364746, 3.77553129196167, 9.172595977783203, 0.9702831506729126, 2.006606340408325, -3.473315715789795, 0.6523561477661133, -1.1748046875, -0.0458984375, -1.1142578125, 0, 
329, 2781710554, 84.0824966430664, -21.149362564086914, -29.337284088134766, 3.913426160812378, 9.40009593963623, 0.7870956063270569, 1.9018440246582031, -3.386099100112915, 0.5629368424415588, -1.17431640625, -0.0458984375, -1.11181640625, 0, 
330, 2781718887, 84.08129119873047, -21.148639678955078, -29.335290908813477, 3.605782985687256, 9.3225736618042, 0.785872757434845, 1.8028197288513184, -3.091254472732544, 0.5470048189163208, -1.17626953125, -0.0458984375, -1.109375, 0, 
331, 2781727220, 84.08007049560547, -21.147663116455078, -29.335670471191406, 3.2915549278259277, 9.037131309509277, 1.0486218929290771, 1.688451886177063, -3.395602226257324, 0.4845316410064697, -1.17529296875, -0.0458984375, -1.10888671875, 0, 
332, 2781735553, 84.08091735839844, -21.147537231445312, -29.334976196289062, 3.2479469776153564, 8.888790130615234, 1.1428186893463135, 1.9367051124572754, -3.405156373977661, 0.586553156375885, -1.17626953125, -0.0458984375, -1.111328125, 0, 
333, 2781743886, 84.0833511352539, -21.14805793762207, -29.337486267089844, 3.615432024002075, 9.07632827758789, 1.0301849842071533, 2.035473585128784, -3.6512582302093506, 0.6378328800201416, -1.17333984375, -0.044921875, -1.10693359375, 0, 
334, 2781752219, 84.08368682861328, -21.14791488647461, -29.336626052856445, 3.9031054973602295, 9.3712739944458, 0.7502711415290833, 1.9118335247039795, -3.305055856704712, 0.595774233341217, -1.173828125, -0.0478515625, -1.111328125, 0, 
335, 2781760552, 84.08245849609375, -21.14739227294922, -29.335342407226562, 3.852367401123047, 9.334461212158203, 0.7515692114830017, 1.7595824003219604, -3.2153544425964355, 0.5565332174301147, -1.17529296875, -0.044921875, -1.109375, 0, 
336, 2781768885, 84.08137512207031, -21.147615432739258, -29.334970474243164, 3.2967441082000732, 9.083681106567383, 0.9123496413230896, 1.735300064086914, -3.3250088691711426, 0.6377047300338745, -1.17529296875, -0.04541015625, -1.11181640625, 0, 
337, 2781777218, 84.0811767578125, -21.14895248413086, -29.33492088317871, 3.3045873641967773, 8.925960540771484, 1.129554033279419, 1.8311231136322021, -3.376033067703247, 0.7647770047187805, -1.17529296875, -0.046875, -1.11181640625, 0, 
338, 2781785551, 84.0827407836914, -21.148977279663086, -29.33771514892578, 3.471757411956787, 9.008769989013672, 1.042745590209961, 1.9158036708831787, -3.678255319595337, 0.5745657086372375, -1.17431640625, -0.04638671875, -1.10791015625, 0, 
339, 2781793884, 84.08323669433594, -21.149202346801758, -29.336742401123047, 3.7561991214752197, 9.354183197021484, 0.8999411463737488, 1.9522273540496826, -3.2590272426605225, 0.6430837512016296, -1.17626953125, -0.04638671875, -1.11083984375, 0, 
340, 2781802217, 84.08277893066406, -21.148351669311523, -29.336345672607422, 3.925457000732422, 9.38775634765625, 0.7805469036102295, 1.8147813081741333, -3.298959732055664, 0.5106838345527649, -1.17431640625, -0.0478515625, -1.10693359375, 0, 
341, 2781810550, 84.08039093017578, -21.148204803466797, -29.333818435668945, 3.4039483070373535, 9.193997383117676, 0.7612135410308838, 1.6754400730133057, -3.0820586681365967, 0.6171622276306152, -1.173828125, -0.0478515625, -1.10888671875, 0, 
342, 2781818883, 84.07991027832031, -21.147977828979492, -29.334150314331055, 3.2416181564331055, 8.902864456176758, 1.0919959545135498, 1.776769757270813, -3.395986318588257, 0.5742838382720947, -1.17578125, -0.04736328125, -1.10986328125, 0, 
343, 2781827216, 84.08090209960938, -21.147911071777344, -29.335533142089844, 3.362360954284668, 8.887222290039062, 1.0289034843444824, 1.9106810092926025, -3.517423391342163, 0.5821731090545654, -1.17626953125, -0.04638671875, -1.10986328125, 0, 
344, 2781835549, 84.08283233642578, -21.148141860961914, -29.336383819580078, 3.8034801483154297, 9.208494186401367, 0.9828711152076721, 2.0453860759735107, -3.4627878665924072, 0.6225411295890808, -1.177734375, -0.04541015625, -1.109375, 0, 
345, 2781843882, 84.08245086669922, -21.14773941040039, -29.33707046508789, 3.9217875003814697, 9.466911315917969, 0.776919424533844, 1.7754122018814087, -3.4356112480163574, 0.5490794777870178, -1.1787109375, -0.046875, -1.10888671875, 0, 
346, 2781852215, 84.08106231689453, -21.14822006225586, -29.33519172668457, 3.673253297805786, 9.281089782714844, 0.793755829334259, 1.7729276418685913, -3.136181116104126, 0.6867560148239136, -1.17626953125, -0.0458984375, -1.10888671875, 0, 
347, 2781860548, 84.07992553710938, -21.147499084472656, -29.334871292114258, 3.2580699920654297, 9.000123023986816, 1.034090518951416, 1.7280001640319824, -3.3192718029022217, 0.5227481722831726, -1.17822265625, -0.04638671875, -1.1083984375, 0, 
348, 2781868881, 84.07978820800781, -21.147064208984375, -29.335041046142578, 3.176038980484009, 8.85871696472168, 1.1480203866958618, 1.8303033113479614, -3.3660173416137695, 0.5537155866622925, -1.17626953125, -0.04638671875, -1.11181640625, 0, 
349, 2781877214, 84.08209228515625, -21.147085189819336, -29.336803436279297, 3.6686646938323975, 9.0633544921875, 1.0106778144836426, 2.051917791366577, -3.561838388442993, 0.586988627910614, -1.17578125, -0.048828125, -1.109375, 0, 
350, 2781885547, 84.0821533203125, -21.147706985473633, -29.337446212768555, 3.8589015007019043, 9.36074447631836, 0.7348437309265137, 1.8580693006515503, -3.365607976913452, 0.6823247671127319, -1.17822265625, -0.0458984375, -1.10595703125, 0, 
351, 2781893880, 84.0804672241211, -21.14789581298828, -29.335588455200195, 3.7838001251220703, 9.388139724731445, 0.7906314730644226, 1.730741024017334, -3.160335063934326, 0.6490774154663086, -1.177734375, -0.04638671875, -1.10791015625, 0, 
352, 2781902213, 84.07886505126953, -21.14780044555664, -29.336389541625977, 3.3267955780029297, 9.14370346069336, 0.9502705335617065, 1.6492109298706055, -3.3828718662261963, 0.5916760563850403, -1.18017578125, -0.05126953125, -1.10888671875, 0, 
353, 2781910546, 84.07850646972656, -21.147687911987305, -29.33574867248535, 3.341048002243042, 8.923900604248047, 1.175504207611084, 1.8357594013214111, -3.291480302810669, 0.5984125137329102, -1.17724609375, -0.046875, -1.107421875, 0, 
354, 2781918879, 84.0794906616211, -21.1478271484375, -29.337722778320312, 3.450007200241089, 8.966804504394531, 1.052980661392212, 1.8812757730484009, -3.5905516147613525, 0.5990016460418701, -1.1787109375, -0.0478515625, -1.11083984375, 0, 
355, 2781927212, 84.08035278320312, -21.14798355102539, -29.33782386779785, 3.82576584815979, 9.309651374816895, 0.8750112652778625, 1.9507415294647217, -3.3776721954345703, 0.6215934157371521, -1.1767578125, -0.0478515625, -1.109375, 0, 
356, 2781935545, 84.08003997802734, -21.146976470947266, -29.33772850036621, 3.9843344688415527, 9.402780532836914, 0.76926189661026, 1.8335822820663452, -3.297268867492676, 0.49221593141555786, -1.17626953125, -0.0458984375, -1.1103515625, 0, 
357, 2781943878, 84.07914733886719, -21.146095275878906, -29.33616065979004, 3.3616278171539307, 9.173595428466797, 0.8581045269966125, 1.8097350597381592, -3.17885422706604, 0.5189571380615234, -1.17724609375, -0.04833984375, -1.1064453125, 0, 
358, 2781952211, 84.0787353515625, -21.145706176757812, -29.337663650512695, 3.2226898670196533, 8.961654663085938, 1.155264139175415, 1.7606840133666992, -3.462557792663574, 0.5485672354698181, -1.177734375, -0.04638671875, -1.10791015625, 0, 
359, 2781960544, 84.07919311523438, -21.145723342895508, -29.338035583496094, 3.3450777530670166, 8.92934513092041, 1.0209559202194214, 1.8910348415374756, -3.406334400177002, 0.6030999422073364, -1.1787109375, -0.048828125, -1.1103515625, 0, 
360, 2781968877, 84.081298828125, -21.1455078125, -29.338193893432617, 3.769702196121216, 9.247172355651855, 0.9379492998123169, 2.092106819152832, -3.383845329284668, 0.5773576498031616, -1.1767578125, -0.0498046875, -1.109375, 0, 
361, 2781977210, 84.07981872558594, -21.1456298828125, -29.337675094604492, 3.8817038536071777, 9.419976234436035, 0.7686764597892761, 1.6973912715911865, -3.3089234828948975, 0.6251794695854187, -1.17724609375, -0.0478515625, -1.11328125, 0, 
362, 2781985543, 84.07816314697266, -21.145999908447266, -29.33561897277832, 3.6533639430999756, 9.25003719329834, 0.7755300998687744, 1.7537428140640259, -3.096658706665039, 0.6786876320838928, -1.17626953125, -0.04736328125, -1.109375, 0, 
363, 2781993876, 84.07695007324219, -21.145448684692383, -29.335416793823242, 3.2660789489746094, 8.983564376831055, 1.0397744178771973, 1.7161921262741089, -3.3360745906829834, 0.5414208769798279, -1.1767578125, -0.046875, -1.111328125, 0, 
364, 2782002209, 84.07685852050781, -21.14404296875, -29.336212158203125, 3.2468936443328857, 8.888557434082031, 1.1009770631790161, 1.8037925958633423, -3.437967538833618, 0.42697641253471375, -1.177734375, -0.04736328125, -1.10888671875, 0, 
365, 2782010542, 84.07919311523438, -21.14425277709961, -29.338212966918945, 3.6913533210754395, 9.098271369934082, 0.9766493439674377, 2.045591115951538, -3.5903983116149902, 0.6065322756767273, -1.17724609375, -0.0458984375, -1.11083984375, 0, 
366, 2782018875, 84.07975769042969, -21.144718170166016, -29.33831214904785, 3.807806968688965, 9.391814231872559, 0.7643271088600159, 1.9188519716262817, -3.370218276977539, 0.6626787185668945, -1.18017578125, -0.04833984375, -1.1103515625, 0, 
367, 2782027208, 84.07866668701172, -21.144941329956055, -29.337018966674805, 3.783003330230713, 9.322063446044922, 0.820659875869751, 1.7755658626556396, -3.2228341102600098, 0.6466441750526428, -1.1767578125, -0.0478515625, -1.109375, 0, 
368, 2782035541, 84.0776138305664, -21.144752502441406, -29.336193084716797, 3.3074076175689697, 9.09872055053711, 0.9483275413513184, 1.7385532855987549, -3.3163516521453857, 0.5878595113754272, -1.17724609375, -0.0478515625, -1.10986328125, 0, 
369, 2782043874, 84.07687377929688, -21.145580291748047, -29.336530685424805, 3.201845169067383, 8.91612720489502, 1.1873573064804077, 1.746903419494629, -3.4113800525665283, 0.6998448371887207, -1.1796875, -0.0498046875, -1.1064453125, 0, 
370, 2782052207, 84.07896423339844, -21.14579963684082, -29.33945655822754, 3.467259168624878, 8.970428466796875, 1.0250866413116455, 1.9842453002929688, -3.6708531379699707, 0.6017680764198303, -1.1787109375, -0.044921875, -1.11962890625, 0, 
371, 2782060540, 84.07928466796875, -21.145763397216797, -29.339176177978516, 3.860973834991455, 9.26472282409668, 0.8686970472335815, 1.902048945426941, -3.333641529083252, 0.6032024621963501, -1.1826171875, -0.0458984375, -1.1240234375, 0, 
372, 2782068873, 84.0783462524414, -21.145265579223633, -29.339801788330078, 3.940389633178711, 9.394546508789062, 0.7697075009346008, 1.7386300563812256, -3.3467812538146973, 0.5474657416343689, -1.181640625, -0.04296875, -1.1220703125, 0, 
373, 2782077206, 84.0775375366211, -21.144453048706055, -29.339210510253906, 3.4003541469573975, 9.19797134399414, 0.8562712669372559, 1.7816874980926514, -3.289456367492676, 0.514961302280426, -1.18359375, -0.04736328125, -1.12451171875, 0, 
374, 2782085539, 84.0761489868164, -21.14412498474121, -29.33892822265625, 3.3337082862854004, 8.97659683227539, 1.1259969472885132, 1.675619125366211, -3.3827950954437256, 0.5630648732185364, -1.18505859375, -0.0439453125, -1.12255859375, 0, 
375, 2782093872, 84.07659912109375, -21.14417839050293, -29.33842658996582, 3.277308225631714, 8.931392669677734, 1.070712685585022, 1.925998330116272, -3.3089492321014404, 0.6182635426521301, -1.181640625, -0.046875, -1.12353515625, 0, 
376, 2782102205, 84.07850646972656, -21.14479637145996, -29.33901596069336, 3.71854829788208, 9.188800811767578, 0.9843985438346863, 2.017287492752075, -3.5308966636657715, 0.6631397008895874, -1.18408203125, -0.04833984375, -1.12158203125, 0, 
377, 2782110538, 84.07799530029297, -21.143892288208008, -29.338815689086914, 3.9257142543792725, 9.386765480041504, 0.7286806106567383, 1.8018205165863037, -3.3323607444763184, 0.49890124797821045, -1.18212890625, -0.04541015625, -1.12060546875, 0, 
378, 2782118871, 84.07495880126953, -21.143939971923828, -29.334980010986328, 3.601219415664673, 9.267120361328125, 0.7852334380149841, 1.655153512954712, -2.925478935241699, 0.6560959219932556, -1.18115234375, -0.046875, -1.12109375, 0, 
379, 2782127204, 84.0743179321289, -21.143301010131836, -29.334856033325195, 3.237091302871704, 8.98642349243164, 1.0475108623504639, 1.7795615196228027, -3.342836618423462, 0.5299712419509888, -1.18115234375, -0.046875, -1.1220703125, 0, 
380, 2782135537, 84.0741195678711, -21.14451789855957, -29.334613800048828, 3.302917003631592, 8.882406234741211, 1.1081689596176147, 1.8325830698013306, -3.3623805046081543, 0.7550948858261108, -1.18310546875, -0.04638671875, -1.12109375, 0, 
381, 2782143870, 84.07696533203125, -21.145217895507812, -29.336711883544922, 3.669144868850708, 9.094586372375488, 1.0384193658828735, 2.1017377376556396, -3.6061513423919678, 0.66334468126297, -1.1826171875, -0.0458984375, -1.1201171875, 0, 
382, 2782152203, 84.07727813720703, -21.144561767578125, -29.335718154907227, 3.802105188369751, 9.390288352966309, 0.829138994216919, 1.908555030822754, -3.307642936706543, 0.5322253704071045, -1.18115234375, -0.04541015625, -1.1201171875, 0, 
383, 2782160536, 84.0768051147461, -21.14406394958496, -29.33368492126465, 3.8709700107574463, 9.387874603271484, 0.7718163728713989, 1.8794316053390503, -3.13208270072937, 0.5696733593940735, -1.181640625, -0.04541015625, -1.11962890625, 0, 
384, 2782168869, 84.07452392578125, -21.144161224365234, -29.33339500427246, 3.3129501342773438, 9.070791244506836, 0.9171993136405945, 1.6386834383010864, -3.2076451778411865, 0.6344518065452576, -1.18115234375, -0.04541015625, -1.1220703125, 0, 
385, 2782177202, 84.0741958618164, -21.145572662353516, -29.333518981933594, 3.201812505722046, 8.903687477111816, 1.168545126914978, 1.8062516450881958, -3.3957302570343018, 0.7707963585853577, -1.1845703125, -0.046875, -1.1220703125, 0, 
386, 2782185535, 84.07674407958984, -21.146442413330078, -29.335058212280273, 3.438646078109741, 8.993955612182617, 1.033102035522461, 2.0748941898345947, -3.5901424884796143, 0.6878575086593628, -1.1826171875, -0.046875, -1.1201171875, 0, 
387, 2782193868, 84.07884979248047, -21.148292541503906, -29.334993362426758, 3.810286283493042, 9.287199974060059, 0.8377132415771484, 2.106834888458252, -3.380899429321289, 0.8274806141853333, -1.1806640625, -0.04541015625, -1.11865234375, 0, 
388, 2782202201, 84.07882690429688, -21.148420333862305, -29.33490562438965, 3.9221012592315674, 9.395910263061523, 0.7933525443077087, 1.8452879190444946, -3.369936943054199, 0.6214141845703125, -1.18310546875, -0.04638671875, -1.11865234375, 0, 
389, 2782210534, 84.07827758789062, -21.148834228515625, -29.333791732788086, 3.4794821739196777, 9.239872932434082, 0.8639525771141052, 1.833940863609314, -3.2451443672180176, 0.6663926839828491, -1.18310546875, -0.0458984375, -1.1201171875, 0, 
390, 2782218867, 84.07756805419922, -21.149269104003906, -29.334115982055664, 3.34364652633667, 8.98582935333252, 1.1421279907226562, 1.7557661533355713, -3.3920419216156006, 0.6567873954772949, -1.1845703125, -0.04638671875, -1.12109375, 0, 
391, 2782227200, 84.0776138305664, -21.149642944335938, -29.334436416625977, 3.2928285598754883, 8.907386779785156, 1.0586262941360474, 1.842982530593872, -3.4047207832336426, 0.644723117351532, -1.18310546875, -0.04443359375, -1.12109375, 0, 
392, 2782235533, 84.08049011230469, -21.14967155456543, -29.33615493774414, 3.7704169750213623, 9.148676872253418, 0.9285056591033936, 2.089545249938965, -3.636760711669922, 0.5820450782775879, -1.18310546875, -0.04443359375, -1.12109375, 0, 
393, 2782243866, 84.08152770996094, -21.149314880371094, -29.33769416809082, 3.929232597351074, 9.378971099853516, 0.7583310604095459, 1.909374713897705, -3.5311527252197266, 0.5438798666000366, -1.1826171875, -0.04736328125, -1.11865234375, 0, 
394, 2782252199, 84.08070373535156, -21.148550033569336, -29.33538246154785, 3.581263303756714, 9.302181243896484, 0.8143646717071533, 1.8472344875335693, -3.1040098667144775, 0.5400376915931702, -1.1806640625, -0.04833984375, -1.12158203125, 0, 
395, 2782260532, 84.07921600341797, -21.14760398864746, -29.334884643554688, 3.264845848083496, 9.095634460449219, 1.0398412942886353, 1.6944712400436401, -3.2965006828308105, 0.49900370836257935, -1.18408203125, -0.04541015625, -1.1201171875, 0, 
396, 2782268865, 84.069091796875, -21.14425277709961, -29.307767868041992, 3.2465946674346924, 8.910564422607422, 1.1225496530532837, 1.8044589757919312, -3.4396328926086426, 0.6681601405143738, -1.181640625, -0.0458984375, -1.1220703125, 0, 
397, 2782277198, 84.07231140136719, -21.14510726928711, -29.310747146606445, 3.572274923324585, 9.048118591308594, 1.0342390537261963, 2.1100878715515137, -3.7116823196411133, 0.6712594628334045, -1.18017578125, -0.0478515625, -1.1181640625, 0, 
398, 2782285531, 84.07295227050781, -21.145538330078125, -29.31163787841797, 3.8637890815734863, 9.354130744934082, 0.7930363416671753, 1.907478928565979, -3.417860507965088, 0.6521767377853394, -1.1806640625, -0.0458984375, -1.12060546875, 0, 
399, 2782293864, 84.07244110107422, -21.145681381225586, -29.309585571289062, 3.9146926403045654, 9.386863708496094, 0.7886766791343689, 1.8789705038070679, -3.139894962310791, 0.6455170512199402, -1.1826171875, -0.04638671875, -1.12255859375, 0, 
400, 2782302197, 84.071533203125, -21.14499855041504, -29.309167861938477, 3.333634853363037, 9.110050201416016, 0.8815501928329468, 1.764833688735962, -3.2956042289733887, 0.5306373238563538, -1.181640625, -0.04638671875, -1.11865234375, 0, 
401, 2782310530, 84.07109069824219, -21.145353317260742, -29.308561325073242, 3.2845985889434814, 8.898472785949707, 1.127262830734253, 1.8244378566741943, -3.3022639751434326, 0.6542003154754639, -1.18310546875, -0.04638671875, -1.12060546875, 0, 
402, 2782318863, 84.07317352294922, -21.14632797241211, -29.311016082763672, 3.4003422260284424, 8.972447395324707, 1.0797724723815918, 1.993082046508789, -3.6504130363464355, 0.6931083798408508, -1.1826171875, -0.04443359375, -1.11962890625, 0, 
403, 2782327196, 84.0737533569336, -21.14691925048828, -29.310665130615234, 3.7138237953186035, 9.29692268371582, 0.8941437602043152, 1.935398817062378, -3.3342816829681396, 0.6809927821159363, -1.18310546875, -0.0458984375, -1.119140625, 0, 
404, 2782335529, 84.07363891601562, -21.147031784057617, -29.311073303222656, 3.968966484069824, 9.40090274810791, 0.7986566424369812, 1.829432725906372, -3.380668878555298, 0.6175463795661926, -1.1826171875, -0.04638671875, -1.1201171875, 0, 
405, 2782343862, 84.0718002319336, -21.14677619934082, -29.308856964111328, 3.4924933910369873, 9.2277193069458, 0.7669819593429565, 1.7282564640045166, -3.1169192790985107, 0.5985919237136841, -1.1845703125, -0.046875, -1.1181640625, 0, 
406, 2782352195, 84.07093048095703, -21.14675521850586, -29.309833526611328, 3.2463879585266113, 8.971709251403809, 1.0644296407699585, 1.7395522594451904, -3.374803304672241, 0.6027925610542297, -1.18115234375, -0.046875, -1.1201171875, 0, 
407, 2782360528, 84.07145690917969, -21.147296905517578, -29.31070899963379, 3.2774596214294434, 8.875948905944824, 1.0472757816314697, 1.8777410984039307, -3.4713945388793945, 0.6584522724151611, -1.181640625, -0.048828125, -1.11865234375, 0, 
408, 2782368861, 84.07386779785156, -21.148460388183594, -29.312679290771484, 3.759669780731201, 9.152265548706055, 0.9874840378761292, 2.066646099090576, -3.565117120742798, 0.7270984649658203, -1.18359375, -0.04931640625, -1.12060546875, 0, 
409, 2782377194, 84.07363891601562, -21.148061752319336, -29.312654495239258, 3.8721494674682617, 9.446198463439941, 0.7842209339141846, 1.8254109621047974, -3.3587944507598877, 0.557890772819519, -1.18408203125, -0.04541015625, -1.11962890625, 0, 
410, 2782385527, 84.07189178466797, -21.14887237548828, -29.3123779296875, 3.725926399230957, 9.339091300964355, 0.7735413312911987, 1.7106337547302246, -3.1894333362579346, 0.7215657830238342, -1.1826171875, -0.04541015625, -1.11962890625, 0, 
411, 2782393860, 84.07047271728516, -21.1477108001709, -29.311870574951172, 3.3059334754943848, 9.06811237335205, 1.0144811868667603, 1.703307867050171, -3.2943997383117676, 0.47259530425071716, -1.18115234375, -0.04638671875, -1.12158203125, 0, 
412, 2782402193, 84.07018280029297, -21.14691925048828, -29.312883377075195, 3.1805500984191895, 8.878215789794922, 1.1132487058639526, 1.8474394083023071, -3.276495933532715, 0.5184705257415771, -1.18115234375, -0.04541015625, -1.119140625, 0, 
413, 2782410526, 84.07154846191406, -21.147998809814453, -29.31565284729004, 3.5114922523498535, 9.013681411743164, 1.009574055671692, 1.897566556930542, -3.688040018081665, 0.701714813709259, -1.1826171875, -0.04736328125, -1.12255859375, 0, 
414, 2782418859, 84.0724105834961, -21.148571014404297, -29.314939498901367, 3.8368799686431885, 9.307424545288086, 0.8022121787071228, 1.9859355688095093, -3.2786219120025635, 0.6858850717544556, -1.1845703125, -0.0478515625, -1.119140625, 0, 
415, 2782427192, 84.07115936279297, -21.149124145507812, -29.313730239868164, 3.8907902240753174, 9.431623458862305, 0.8086580634117126, 1.75479257106781, -3.238893985748291, 0.6851934790611267, -1.181640625, -0.04931640625, -1.11328125, 0, 
416, 2782435525, 84.07068634033203, -21.149036407470703, -29.313133239746094, 3.3845973014831543, 9.188425064086914, 0.9083567261695862, 1.7979271411895752, -3.3470120429992676, 0.5971317887306213, -1.1796875, -0.0478515625, -1.11181640625, 0, 
417, 2782443858, 84.06999969482422, -21.1488094329834, -29.31400489807129, 3.335510492324829, 8.935341835021973, 1.0691673755645752, 1.7329691648483276, -3.4612255096435547, 0.5677266716957092, -1.18115234375, -0.04638671875, -1.1103515625, 0, 
418, 2782452191, 84.07127380371094, -21.149150848388672, -29.318866729736328, 3.298384189605713, 8.952903747558594, 1.0560481548309326, 1.9524320363998413, -3.4930639266967773, 0.6337601542472839, -1.17919921875, -0.0478515625, -1.11279296875, 0, 
419, 2782460524, 84.072265625, -21.149837493896484, -29.319669723510742, 3.750474691390991, 9.24489688873291, 0.9493063688278198, 1.9375759363174438, -3.463531017303467, 0.6786619424819946, -1.18017578125, -0.04736328125, -1.1083984375, 0, 
420, 2782468857, 84.07211303710938, -21.149024963378906, -29.322681427001953, 4.000540733337402, 9.409332275390625, 0.7434940934181213, 1.7997969388961792, -3.4323842525482178, 0.4997977614402771, -1.17578125, -0.048828125, -1.11083984375, 0, 
421, 2782477190, 84.07122802734375, -21.148605346679688, -29.321107864379883, 3.571849822998047, 9.249154090881348, 0.7819963097572327, 1.8140382766723633, -3.185744524002075, 0.573413074016571, -1.17822265625, -0.04833984375, -1.11083984375, 0, 
422, 2782485523, 84.07062530517578, -21.14889144897461, -29.32123374938965, 3.238584518432617, 8.965920448303223, 1.086592197418213, 1.7960059642791748, -3.3233439922332764, 0.644697368144989, -1.1787109375, -0.04736328125, -1.109375, 0, 
423, 2782493856, 84.07073211669922, -21.14916229248047, -29.321388244628906, 3.27120304107666, 8.878899574279785, 1.0968363285064697, 1.8559688329696655, -3.385868787765503, 0.6347335577011108, -1.1796875, -0.0478515625, -1.111328125, 0, 
424, 2782502189, 84.07340240478516, -21.14918327331543, -29.32232666015625, 3.67586350440979, 9.144882202148438, 1.0377171039581299, 2.089442729949951, -3.5692923069000244, 0.5874496102333069, -1.17626953125, -0.04833984375, -1.11181640625, 0, 
425, 2782510522, 84.07365417480469, -21.14982032775879, -29.323699951171875, 3.8507728576660156, 9.42045783996582, 0.8306592702865601, 1.824540376663208, -3.528642416000366, 0.6655474901199341, -1.177734375, -0.0478515625, -1.11083984375, 0, 
426, 2782518855, 84.07305145263672, -21.149978637695312, -29.322473526000977, 3.8537065982818604, 9.342767715454102, 0.7646659016609192, 1.8339920043945312, -3.2093098163604736, 0.6404711604118347, -1.18017578125, -0.04931640625, -1.1083984375, 0, 
427, 2782527188, 84.07124328613281, -21.14942741394043, -29.321725845336914, 3.327624797821045, 9.022862434387207, 0.8884963393211365, 1.668267846107483, -3.277367115020752, 0.5477219223976135, -1.1796875, -0.046875, -1.1103515625, 0, 
428, 2782535521, 84.07087707519531, -21.149227142333984, -29.320411682128906, 3.2311341762542725, 8.834330558776855, 1.1133511066436768, 1.81416654586792, -3.3423244953155518, 0.5843247175216675, -1.1806640625, -0.04638671875, -1.11083984375, 0, 
429, 2782543854, 84.07322692871094, -21.149517059326172, -29.32316017150879, 3.4759011268615723, 8.999308586120605, 1.0580472946166992, 2.014444351196289, -3.6749000549316406, 0.6084278225898743, -1.17724609375, -0.048828125, -1.10986328125, 0, 
430, 2782552187, 84.07362365722656, -21.15035057067871, -29.32419776916504, 3.796459674835205, 9.341485023498535, 0.8663036823272705, 1.864370346069336, -3.4676551818847656, 0.6959772109985352, -1.181640625, -0.04736328125, -1.11279296875, 0, 
431, 2782560520, 84.07240295410156, -21.149755477905273, -29.323705673217773, 3.9419825077056885, 9.459369659423828, 0.8475576639175415, 1.7237995862960815, -3.3033652305603027, 0.5408317446708679, -1.1787109375, -0.04833984375, -1.10791015625, 0, 
432, 2782568853, 84.07152557373047, -21.150602340698242, -29.32277488708496, 3.457857370376587, 9.208785057067871, 0.8594933748245239, 1.7739266157150269, -3.299574375152588, 0.7138814926147461, -1.1767578125, -0.048828125, -1.11181640625, 0, 
433, 2782577186, 84.07050323486328, -21.151458740234375, -29.322551727294922, 3.2814817428588867, 8.922150611877441, 1.1071983575820923, 1.736632227897644, -3.3517508506774902, 0.7101930379867554, -1.17919921875, -0.046875, -1.10986328125, 0, 
434, 2782585519, 84.07077026367188, -21.152313232421875, -29.324243545532227, 3.2333197593688965, 8.886926651000977, 1.0549407005310059, 1.8154982328414917, -3.5432677268981934, 0.6884208917617798, -1.177734375, -0.04931640625, -1.11328125, 0, 
435, 2782593852, 84.07286071777344, -21.152523040771484, -29.325042724609375, 3.758457660675049, 9.182422637939453, 0.9638615846633911, 2.0692331790924072, -3.4581778049468994, 0.6218239665031433, -1.17822265625, -0.04833984375, -1.111328125, 0, 
436, 2782602185, 84.07303619384766, -21.152198791503906, -29.325031280517578, 3.9699954986572266, 9.418453216552734, 0.7561548352241516, 1.8677514791488647, -3.368783950805664, 0.566855788230896, -1.17724609375, -0.04833984375, -1.10888671875, 0, 
437, 2782610518, 84.07220458984375, -21.15167236328125, -29.32229995727539, 3.630770683288574, 9.301804542541504, 0.7855749130249023, 1.8704923391342163, -3.0555222034454346, 0.5725166201591492, -1.17724609375, -0.048828125, -1.111328125, 0, 
438, 2782618851, 84.07070922851562, -21.150527954101562, -29.322776794433594, 3.3096320629119873, 9.026917457580566, 1.0161352157592773, 1.6872479915618896, -3.299804925918579, 0.47543865442276, -1.18017578125, -0.0498046875, -1.11279296875, 0, 
439, 2782627184, 84.07080841064453, -21.149953842163086, -29.322256088256836, 3.221524477005005, 8.873515129089355, 1.1362019777297974, 1.8865010738372803, -3.3027501106262207, 0.542957603931427, -1.177734375, -0.048828125, -1.111328125, 0, 
440, 2782635517, 84.07283020019531, -21.15028953552246, -29.324420928955078, 3.554455518722534, 9.083013534545898, 1.0295125246047974, 1.9937224388122559, -3.624260663986206, 0.6200309991836548, -1.1796875, -0.0478515625, -1.11279296875, 0, 
441, 2782643850, 84.07347106933594, -21.14981460571289, -29.325468063354492, 3.834888458251953, 9.376261711120605, 0.7920448184013367, 1.8836324214935303, -3.477337121963501, 0.5346331000328064, -1.17724609375, -0.0458984375, -1.109375, 0, 
442, 2782652183, 84.07210540771484, -21.150148391723633, -29.323802947998047, 3.8723297119140625, 9.411530494689941, 0.7795906066894531, 1.7652689218521118, -3.1515495777130127, 0.6688773036003113, -1.18017578125, -0.0478515625, -1.11181640625, 0, 
443, 2782660516, 84.0710220336914, -21.149526596069336, -29.323904037475586, 3.3178834915161133, 9.106410026550293, 0.8939830660820007, 1.7195218801498413, -3.3703463077545166, 0.5287162065505981, -1.1767578125, -0.04638671875, -1.10888671875, 0, 
444, 2782668849, 84.06970977783203, -21.14986801147461, -29.324487686157227, 3.3037290573120117, 8.893985748291016, 1.0928916931152344, 1.676438570022583, -3.4113032817840576, 0.6432117819786072, -1.17919921875, -0.0478515625, -1.1083984375, 0, 
445, 2782677182, 84.07159423828125, -21.150243759155273, -29.32631492614746, 3.416186571121216, 9.002047538757324, 1.0808987617492676, 1.9959251880645752, -3.5735700130462646, 0.6277408003807068, -1.17919921875, -0.0458984375, -1.11328125, 0, 
446, 2782685515, 84.07252502441406, -21.151498794555664, -29.32621955871582, 3.720337390899658, 9.309552192687988, 0.9581548571586609, 1.9744348526000977, -3.341171979904175, 0.7604482173919678, -1.17822265625, -0.04541015625, -1.10888671875, 0, 
447, 2782693848, 84.07210540771484, -21.15176010131836, -29.32657814025879, 3.9893417358398438, 9.433889389038086, 0.7985147833824158, 1.788731575012207, -3.4102280139923096, 0.6316854357719421, -1.18017578125, -0.046875, -1.11279296875, 0, 
448, 2782702181, 84.07052612304688, -21.151962280273438, -29.324079513549805, 3.528684377670288, 9.202361106872559, 0.799793004989624, 1.770699143409729, -3.0802910327911377, 0.6609624624252319, -1.1787109375, -0.044921875, -1.1103515625, 0, 
449, 2782710514, 84.07042694091797, -21.151357650756836, -29.324491500854492, 3.2369701862335205, 8.88238525390625, 1.0703455209732056, 1.8232340812683105, -3.4052844047546387, 0.5268976092338562, -1.177734375, -0.04736328125, -1.1123046875, 0, 
450, 2782718847, 84.07209777832031, -21.151611328125, -29.32505226135254, 3.254462242126465, 8.883231163024902, 1.0725007057189941, 2.0117032527923584, -3.454770565032959, 0.6290470957756042, -1.1767578125, -0.05126953125, -1.109375, 0, 
451, 2782727180, 84.07453155517578, -21.153350830078125, -29.32683563232422, 3.7241251468658447, 9.206474304199219, 1.0143990516662598, 2.069873809814453, -3.5872995853424072, 0.7901352047920227, -1.17919921875, -0.0478515625, -1.1103515625, 0, 
452, 2782735513, 84.07439422607422, -21.153858184814453, -29.32590675354004, 3.87487530708313, 9.436975479125977, 0.7745787501335144, 1.8242075443267822, -3.3941168785095215, 0.6645228862762451, -1.1787109375, -0.048828125, -1.111328125, 0, 
453, 2782743846, 84.07334899902344, -21.153940200805664, -29.323331832885742, 3.743593692779541, 9.334159851074219, 0.801994800567627, 1.8369375467300415, -3.079957962036133, 0.644774317741394, -1.17822265625, -0.04931640625, -1.1083984375, 0, 
454, 2782752179, 84.0715560913086, -21.153751373291016, -29.32210922241211, 3.359776020050049, 9.047785758972168, 0.9586502909660339, 1.7095580101013184, -3.1714775562286377, 0.6028438806533813, -1.17529296875, -0.0478515625, -1.111328125, 0, 
455, 2782760512, 84.07110595703125, -21.153697967529297, -29.32278060913086, 3.2237114906311035, 8.872845649719238, 1.132362723350525, 1.7681890726089478, -3.44101619720459, 0.5907026529312134, -1.1787109375, -0.04736328125, -1.109375, 0, 
456, 2782768845, 84.07368469238281, -21.154300689697266, -29.32608985900879, 3.509467124938965, 9.004980087280273, 1.0203099250793457, 2.0314524173736572, -3.6979527473449707, 0.6451328992843628, -1.1806640625, -0.04736328125, -1.11083984375, 0, 
457, 2782777178, 84.07405853271484, -21.15441131591797, -29.326671600341797, 3.839462995529175, 9.308185577392578, 0.7978136539459229, 1.872259497642517, -3.4317691326141357, 0.6096571087837219, -1.17919921875, -0.04833984375, -1.111328125, 0, 
458, 2782785511, 84.07365417480469, -21.153911590576172, -29.32571029663086, 3.8966472148895264, 9.398934364318848, 0.8176332712173462, 1.851204752922058, -3.225625991821289, 0.5600168108940125, -1.177734375, -0.04736328125, -1.109375, 0, 
459, 2782793844, 84.07308959960938, -21.152990341186523, -29.324338912963867, 3.3424696922302246, 9.222415924072266, 0.899025022983551, 1.8455184698104858, -3.2020866870880127, 0.5100946426391602, -1.177734375, -0.0478515625, -1.10888671875, 0, 
460, 2782802177, 84.07295227050781, -21.153717041015625, -29.32488441467285, 3.2911300659179688, 8.960447311401367, 1.065340280532837, 1.8130395412445068, -3.4223434925079346, 0.6876781582832336, -1.177734375, -0.04736328125, -1.11083984375, 0, 
461, 2782810510, 84.07395935058594, -21.153738021850586, -29.3259334564209, 3.318603515625, 8.916826248168945, 1.0674763917922974, 1.926741123199463, -3.482869863510132, 0.596209704875946, -1.17724609375, -0.048828125, -1.111328125, 0, 
462, 2782818843, 84.07563018798828, -21.153182983398438, -29.32662010192871, 3.78739070892334, 9.214734077453613, 0.9832333326339722, 2.0249972343444824, -3.4235472679138184, 0.5333011746406555, -1.18017578125, -0.04736328125, -1.111328125, 0, 
463, 2782827176, 84.07563018798828, -21.15326690673828, -29.32661247253418, 4.029190540313721, 9.412848472595215, 0.7663416266441345, 1.8513327836990356, -3.3654541969299316, 0.61506187915802, -1.17919921875, -0.04833984375, -1.1103515625, 0, 
464, 2782835509, 84.07347106933594, -21.15351676940918, -29.324024200439453, 3.5407862663269043, 9.26285171508789, 0.7735031843185425, 1.699594259262085, -3.0867972373962402, 0.6630117297172546, -1.1796875, -0.05029296875, -1.1103515625, 0, 
465, 2782843842, 84.07223510742188, -21.152450561523438, -29.323535919189453, 3.274596691131592, 8.954080581665039, 1.0871576070785522, 1.7219294309616089, -3.298011541366577, 0.48414739966392517, -1.1787109375, -0.04833984375, -1.1083984375, 0, 
466, 2782852175, 84.07331848144531, -21.15250015258789, -29.324045181274414, 3.2836220264434814, 8.90185546875, 1.100606083869934, 1.9501012563705444, -3.4454731941223145, 0.6042526364326477, -1.1767578125, -0.04638671875, -1.1162109375, 0, 
467, 2782860508, 84.0755386352539, -21.153133392333984, -29.325441360473633, 3.6297476291656494, 9.159906387329102, 1.0477725267410278, 2.058065414428711, -3.5292060375213623, 0.6644973158836365, -1.181640625, -0.04638671875, -1.12255859375, 0, 
468, 2782868841, 84.076416015625, -21.153274536132812, -29.32617950439453, 3.8184354305267334, 9.397491455078125, 0.7683354020118713, 1.8964394330978394, -3.5132994651794434, 0.6068140268325806, -1.18310546875, -0.0478515625, -1.12646484375, 0, 
469, 2782877174, 84.07498931884766, -21.15308952331543, -29.323190689086914, 3.812318801879883, 9.299461364746094, 0.7521846294403076, 1.8110673427581787, -3.0321366786956787, 0.6177513599395752, -1.1826171875, -0.046875, -1.12451171875, 0, 
470, 2782885507, 84.07286071777344, -21.152225494384766, -29.325735092163086, 3.2779791355133057, 9.034830093383789, 0.9237719178199768, 1.6408350467681885, -3.2297496795654297, 0.515396773815155, -1.18408203125, -0.046875, -1.125, 0, 
471, 2782893840, 84.07233428955078, -21.152549743652344, -29.32655906677246, 3.2686171531677246, 8.866151809692383, 1.0918623208999634, 1.752641201019287, -3.4610464572906494, 0.6339395046234131, -1.18310546875, -0.044921875, -1.1240234375, 0, 
472, 2782902173, 84.0747299194336, -21.152082443237305, -29.328624725341797, 3.543938159942627, 9.005470275878906, 1.0446234941482544, 2.0230252742767334, -3.64851713180542, 0.5198537707328796, -1.18359375, -0.04638671875, -1.123046875, 0, 
473, 2782910506, 84.07537078857422, -21.15217399597168, -29.32868194580078, 3.812321901321411, 9.356117248535156, 0.8239145278930664, 1.9263569116592407, -3.374521493911743, 0.6157533526420593, -1.18212890625, -0.046875, -1.12451171875, 0, 
474, 2782918839, 84.07390594482422, -21.151514053344727, -29.32645606994629, 3.946444511413574, 9.441920280456543, 0.777916431427002, 1.7284101247787476, -3.2196836471557617, 0.5405756235122681, -1.18310546875, -0.04541015625, -1.12060546875, 0, 
475, 2782927172, 84.0724868774414, -21.15160369873047, -29.324539184570312, 3.3998289108276367, 9.181804656982422, 0.8424177169799805, 1.763168454170227, -3.1524970531463623, 0.6382938027381897, -1.18115234375, -0.046875, -1.11962890625, 0, 
476, 2782935505, 84.07115173339844, -21.15157699584961, -29.32396697998047, 3.2529242038726807, 8.903764724731445, 1.1447409391403198, 1.7039740085601807, -3.322652816772461, 0.6072238087654114, -1.1796875, -0.04443359375, -1.12158203125, 0, 
477, 2782943838, 84.07251739501953, -21.15233039855957, -29.32547950744629, 3.287292957305908, 8.900156021118164, 1.0489616394042969, 1.9514845609664917, -3.54449725151062, 0.6760492324829102, -1.181640625, -0.046875, -1.1220703125, 0, 
478, 2782952171, 84.07495880126953, -21.15251922607422, -29.32573890686035, 3.7743582725524902, 9.220481872558594, 0.9342626333236694, 2.1207690238952637, -3.426774740219116, 0.6218751668930054, -1.18505859375, -0.04443359375, -1.11962890625, 0, 
479, 2782960504, 84.07514953613281, -21.151782989501953, -29.326244354248047, 3.935925006866455, 9.41889476776123, 0.760726809501648, 1.8517426252365112, -3.4131479263305664, 0.511631429195404, -1.18359375, -0.0439453125, -1.11962890625, 0, 
480, 2782968837, 84.07294464111328, -21.151920318603516, -29.322664260864258, 3.5571177005767822, 9.278789520263672, 0.834236204624176, 1.680793285369873, -3.115971326828003, 0.6485908031463623, -1.181640625, -0.04736328125, -1.12109375, 0, 
481, 2782977170, 84.07135772705078, -21.150903701782227, -29.321653366088867, 3.3440635204315186, 9.027097702026367, 1.0578693151474, 1.7059719562530518, -3.241507053375244, 0.4958275556564331, -1.1806640625, -0.046875, -1.1201171875, 0, 
482, 2782985503, 84.07137298583984, -21.150691986083984, -29.320724487304688, 3.2735612392425537, 8.90595531463623, 1.1176413297653198, 1.8736428022384644, -3.3072330951690674, 0.5868349075317383, -1.1826171875, -0.04638671875, -1.12060546875, 0, 
483, 2782993836, 84.07328796386719, -21.151010513305664, -29.322999954223633, 3.6180548667907715, 9.089762687683105, 1.074386715888977, 1.9857819080352783, -3.6237990856170654, 0.6151898503303528, -1.18115234375, -0.04833984375, -1.12353515625, 0, 
484, 2783002169, 84.07260131835938, -21.150449752807617, -29.3228759765625, 3.870972156524658, 9.360234260559082, 0.7498556971549988, 1.7383739948272705, -3.423034906387329, 0.5325327515602112, -1.18115234375, -0.04541015625, -1.11865234375, 0, 
485, 2783010502, 84.07058715820312, -21.149703979492188, -29.320837020874023, 3.8151907920837402, 9.34265422821045, 0.7843902707099915, 1.6995428800582886, -3.130417823791504, 0.5389106273651123, -1.181640625, -0.046875, -1.11962890625, 0, 
486, 2783018835, 84.06954956054688, -21.149818420410156, -29.319908142089844, 3.2586870193481445, 9.060456275939941, 0.9224356412887573, 1.7482610940933228, -3.3048253059387207, 0.6254867911338806, -1.18310546875, -0.04833984375, -1.12255859375, 0, 
487, 2783027168, 84.07003784179688, -21.150501251220703, -29.320165634155273, 3.259169816970825, 8.92953872680664, 1.1745468378067017, 1.9017925262451172, -3.4035935401916504, 0.6832212209701538, -1.1826171875, -0.04541015625, -1.12255859375, 0, 
488, 2783035501, 84.07246398925781, -21.150890350341797, -29.322206497192383, 3.4686763286590576, 9.025253295898438, 1.0355572700500488, 2.038675546646118, -3.61972713470459, 0.6276896595954895, -1.18115234375, -0.04638671875, -1.119140625, 0, 
489, 2783043834, 84.07454681396484, -21.15127182006836, -29.322093963623047, 3.7760043144226074, 9.347236633300781, 0.9119248390197754, 2.106501579284668, -3.3577182292938232, 0.6526378393173218, -1.18115234375, -0.0478515625, -1.11865234375, 0, 
490, 2783052167, 84.07379150390625, -21.151371002197266, -29.32099151611328, 3.953554391860962, 9.3751802444458, 0.7954362630844116, 1.7685476541519165, -3.3461921215057373, 0.6193137764930725, -1.18359375, -0.04638671875, -1.11962890625, 0, 
491, 2783060500, 84.07283020019531, -21.151248931884766, -29.31974220275879, 3.4387166500091553, 9.166439056396484, 0.8196617364883423, 1.7876814603805542, -3.224217414855957, 0.6049953699111938, -1.18115234375, -0.04443359375, -1.1220703125, 0, 
