Timestamp;PosX;PosY;PosZ;Roll;Pitch;Yaw;Q1;Q2;Q3;Q4;M1;M2;M3;M4;AccelX;AccelY;AccelZ;GyroX;GyroY;GyroZ
1753877889.721526;-13.947;4.437;-0.285;-2.89;-0.86;-5.2;0.0;0.0;0.0;0.0;31.3;22.0;-28.6;-65.2;-0.21;0.6;-10.64;0.88;0.32;1.03
1753877889.726526;-13.947;4.437;-0.285;-2.9;-0.87;-5.2;0.0;0.0;0.0;0.0;31.8;22.0;-28.0;-64.7;-0.19;0.6;-10.63;0.75;0.37;0.9
1753877889.731526;-13.947;4.437;-0.285;-2.89;-0.87;-5.2;0.0;0.0;0.0;0.0;31.9;22.0;-27.0;-63.8;-0.18;0.59;-10.63;0.79;0.32;0.88
1753877889.736526;-13.947;4.437;-0.285;-2.88;-0.86;-5.2;0.0;0.0;0.0;0.0;31.2;22.0;-26.6;-64.4;-0.2;0.59;-10.63;0.71;0.28;1.04
1753877889.741526;-13.947;4.437;-0.285;-2.89;-0.87;-5.2;0.0;0.0;0.0;0.0;31.5;22.0;-27.7;-63.4;-0.21;0.59;-10.63;0.73;0.3;1.05
1753877889.746526;-13.947;4.437;-0.285;-2.9;-0.87;-5.2;0.0;0.0;0.0;0.0;30.0;22.0;-26.4;-64.3;-0.2;0.59;-10.63;0.63;0.3;0.93
1753877889.751526;-13.947;4.437;-0.285;-2.89;-0.88;-5.2;0.0;0.0;0.0;0.0;29.8;22.0;-27.3;-63.7;-0.19;0.6;-10.64;0.76;0.35;0.98
1753877889.756526;-13.947;4.437;-0.285;-2.9;-0.87;-5.2;0.0;0.0;0.0;0.0;30.2;22.0;-28.2;-64.1;-0.21;0.59;-10.63;0.79;0.26;0.98
1753877889.761526;-13.947;4.437;-0.285;-2.89;-0.87;-5.2;0.0;0.0;0.0;0.0;28.7;22.0;-26.7;-63.1;-0.2;0.59;-10.62;0.64;0.35;0.97
1753877889.766526;-13.947;4.437;-0.285;-2.88;-0.87;-5.2;0.0;0.0;0.0;0.0;31.0;22.0;-26.0;-63.6;-0.21;0.6;-10.63;0.67;0.31;0.92
1753877889.771526;-13.947;4.437;-0.285;-2.9;-0.87;-5.2;0.0;0.0;0.0;0.0;29.2;22.0;-25.7;-63.2;-0.19;0.59;-10.64;0.71;0.23;1.02
1753877889.776527;-13.947;4.437;-0.285;-2.88;-0.87;-5.2;0.0;0.0;0.0;0.0;30.1;22.0;-25.2;-63.1;-0.18;0.59;-10.63;0.81;0.3;0.95
1753877889.781527;-13.947;4.437;-0.285;-2.88;-0.86;-5.2;0.0;0.0;0.0;0.0;29.2;22.0;-25.5;-63.2;-0.19;0.59;-10.64;0.64;0.25;0.94
1753877889.786527;-13.947;4.437;-0.285;-2.89;-0.86;-5.2;0.0;0.0;0.0;0.0;29.9;22.0;-26.1;-63.4;-0.2;0.6;-10.63;0.66;0.37;0.88
1753877889.791527;-13.947;4.437;-0.285;-2.91;-0.88;-5.2;0.0;0.0;0.0;0.0;31.4;22.0;-25.7;-64.1;-0.2;0.6;-10.64;0.66;0.49;0.88
1753877889.796527;-13.947;4.437;-0.285;-2.89;-0.86;-5.2;0.0;0.0;0.0;0.0;30.2;22.0;-24.1;-62.6;-0.21;0.59;-10.64;0.6;0.46;1.01
1753877889.801527;-13.947;4.437;-0.285;-2.87;-0.87;-5.2;0.0;0.0;0.0;0.0;29.7;22.0;-23.6;-62.7;-0.21;0.58;-10.64;0.69;0.39;1.08
1753877889.806528;-13.947;4.437;-0.285;-2.87;-0.87;-5.2;0.0;0.0;0.0;0.0;28.8;22.0;-25.7;-63.7;-0.2;0.59;-10.64;0.69;0.38;0.96
1753877889.811525;-13.947;4.437;-0.285;-2.89;-0.87;-5.2;0.0;0.0;0.0;0.0;29.0;22.0;-25.0;-63.0;-0.21;0.59;-10.64;0.66;0.37;0.99
1753877889.816525;-13.947;4.437;-0.285;-2.89;-0.87;-5.2;0.0;0.0;0.0;0.0;29.0;22.0;-25.0;-63.0;-0.21;0.58;-10.64;0.7;0.38;0.84
1753877889.821525;-13.947;4.437;-0.285;-2.89;-0.87;-5.2;0.0;0.0;0.0;0.0;29.0;22.0;-25.0;-63.0;-0.21;0.58;-10.64;0.7;0.26;0.98
1753877889.826525;-13.947;4.437;-0.285;-2.89;-0.87;-5.2;0.0;0.0;0.0;0.0;29.0;22.0;-25.0;-63.0;-0.21;0.58;-10.63;0.65;0.33;0.92
1753877889.831525;-13.947;4.437;-0.285;-2.89;-0.87;-5.2;0.0;0.0;0.0;0.0;29.0;22.0;-25.0;-63.0;-0.22;0.58;-10.63;0.62;0.2;0.98
1753877889.836525;-13.947;4.437;-0.285;-2.89;-0.87;-5.2;0.0;0.0;0.0;0.0;29.0;22.0;-25.0;-63.0;-0.21;0.58;-10.63;0.63;0.26;0.9
1753877889.841525;-13.947;4.437;-0.285;-2.89;-0.87;-5.2;0.0;0.0;0.0;0.0;29.0;22.0;-25.0;-63.0;-0.21;0.58;-10.63;0.67;0.23;0.93
1753877889.846525;-13.947;4.437;-0.285;-2.89;-0.87;-5.2;0.0;0.0;0.0;0.0;29.0;22.0;-25.0;-63.0;-0.21;0.58;-10.63;0.68;0.28;1.02
1753877889.851525;-13.947;4.437;-0.285;-2.89;-0.87;-5.2;0.0;0.0;0.0;0.0;29.0;22.0;-25.0;-63.0;-0.21;0.58;-10.64;0.7;0.33;0.93
1753877889.856525;-13.947;4.437;-0.285;-2.89;-0.87;-5.2;0.0;0.0;0.0;0.0;29.0;22.0;-25.0;-63.0;-0.2;0.58;-10.64;0.73;0.36;0.93
1753877889.861525;-13.947;4.437;-0.285;-2.89;-0.87;-5.2;0.0;0.0;0.0;0.0;29.0;22.0;-25.0;-63.0;-0.2;0.59;-10.63;0.8;0.38;0.86
1753877889.866525;-13.947;4.437;-0.285;-2.89;-0.87;-5.2;0.0;0.0;0.0;0.0;29.0;22.0;-25.0;-63.0;-0.19;0.58;-10.63;0.76;0.4;0.96
1753877889.871525;-13.947;4.437;-0.285;-2.89;-0.87;-5.2;0.0;0.0;0.0;0.0;29.0;22.0;-25.0;-63.0;-0.2;0.59;-10.63;0.61;0.44;0.96
1753877889.876525;-13.947;4.437;-0.285;-2.89;-0.87;-5.2;0.0;0.0;0.0;0.0;30.0;22.0;-27.2;-62.6;-0.2;0.6;-10.65;0.63;0.44;0.84
1753877889.881525;-13.947;4.437;-0.285;-2.89;-0.87;-5.2;0.0;0.0;0.0;0.0;29.0;22.0;-25.0;-63.0;-0.19;0.59;-10.64;0.69;0.32;0.89
1753877889.886525;-13.947;4.437;-0.285;-2.89;-0.87;-5.2;0.0;0.0;0.0;0.0;29.0;22.0;-25.0;-63.0;-0.19;0.58;-10.63;0.53;0.32;0.87
1753877889.891525;-13.947;4.437;-0.285;-2.89;-0.87;-5.2;0.0;0.0;0.0;0.0;29.0;22.0;-25.0;-63.0;-0.19;0.58;-10.63;0.67;0.33;0.96
1753877889.896525;-13.947;4.437;-0.285;-2.89;-0.87;-5.2;0.0;0.0;0.0;0.0;29.0;22.0;-25.0;-63.0;-0.19;0.58;-10.63;0.7;0.33;1.08
1753877889.901525;-13.947;4.437;-0.285;-2.89;-0.87;-5.2;0.0;0.0;0.0;0.0;29.0;22.0;-25.0;-63.0;-0.19;0.58;-10.62;0.56;0.41;0.93
1753877889.906525;-13.947;4.437;-0.285;-2.89;-0.87;-5.2;0.0;0.0;0.0;0.0;29.0;22.0;-25.0;-63.0;-0.19;0.59;-10.62;0.7;0.32;0.95
1753877889.911525;-13.947;4.437;-0.285;-2.89;-0.87;-5.2;0.0;0.0;0.0;0.0;29.0;22.0;-25.0;-63.0;-0.19;0.59;-10.63;0.77;0.26;0.91
1753877889.916525;-13.947;4.437;-0.285;-2.89;-0.87;-5.2;0.0;0.0;0.0;0.0;29.0;22.0;-25.0;-63.0;-0.19;0.58;-10.62;0.75;0.31;0.84
1753877889.921525;-13.947;4.437;-0.285;-2.89;-0.87;-5.2;0.0;0.0;0.0;0.0;29.0;22.0;-25.0;-63.0;-0.19;0.59;-10.62;0.58;0.47;1.02
1753877889.926525;-13.947;4.437;-0.285;-2.89;-0.87;-5.2;0.0;0.0;0.0;0.0;29.0;22.0;-25.0;-63.0;-0.19;0.59;-10.62;0.76;0.35;0.93
1753877889.931525;-13.947;4.437;-0.285;-2.89;-0.87;-5.2;0.0;0.0;0.0;0.0;29.0;22.0;-25.0;-63.0;-0.19;0.59;-10.61;0.59;0.41;0.86
1753877889.936525;-13.947;4.437;-0.285;-2.89;-0.87;-5.2;0.0;0.0;0.0;0.0;29.0;22.0;-25.0;-63.0;-0.19;0.59;-10.61;0.61;0.4;0.92
1753877889.941525;-13.947;4.437;-0.285;-2.89;-0.87;-5.2;0.0;0.0;0.0;0.0;29.0;22.0;-25.0;-63.0;-0.19;0.6;-10.62;0.73;0.2;0.99
1753877889.946525;-13.947;4.437;-0.285;-2.89;-0.87;-5.2;0.0;0.0;0.0;0.0;29.0;22.0;-25.0;-63.0;-0.19;0.6;-10.62;0.71;0.41;0.99
1753877889.951525;-13.947;4.437;-0.285;-2.89;-0.87;-5.2;0.0;0.0;0.0;0.0;29.0;22.0;-25.0;-63.0;-0.19;0.6;-10.62;0.77;0.45;0.96
1753877889.956525;-13.947;4.437;-0.285;-2.89;-0.87;-5.2;0.0;0.0;0.0;0.0;29.0;22.0;-25.0;-63.0;-0.19;0.6;-10.62;0.64;0.31;1.12
1753877889.961525;-13.947;4.437;-0.285;-2.89;-0.87;-5.2;0.0;0.0;0.0;0.0;29.0;22.0;-25.0;-63.0;-0.18;0.59;-10.62;0.67;0.33;0.94
1753877889.966525;-13.947;4.437;-0.285;-2.89;-0.87;-5.2;0.0;0.0;0.0;0.0;29.0;22.0;-25.0;-63.0;-0.19;0.59;-10.62;0.67;0.27;0.99
1753877889.971525;-13.947;4.437;-0.285;-2.89;-0.87;-5.2;0.0;0.0;0.0;0.0;29.0;22.0;-25.0;-63.0;-0.19;0.6;-10.62;0.7;0.35;0.9
1753877889.976525;-13.947;4.437;-0.285;-2.89;-0.87;-5.2;0.0;0.0;0.0;0.0;29.0;22.0;-25.0;-63.0;-0.19;0.59;-10.63;0.74;0.4;0.77
1753877889.981525;-13.947;4.437;-0.285;-2.89;-0.87;-5.2;0.0;0.0;0.0;0.0;29.0;22.0;-25.0;-63.0;-0.19;0.59;-10.63;0.82;0.32;0.9
1753877889.986525;-13.947;4.437;-0.285;-2.89;-0.87;-5.2;0.0;0.0;0.0;0.0;29.0;22.0;-25.0;-63.0;-0.19;0.59;-10.63;0.76;0.29;0.93
1753877889.991525;-13.947;4.437;-0.285;-2.89;-0.87;-5.2;0.0;0.0;0.0;0.0;29.0;22.0;-25.0;-63.0;-0.19;0.59;-10.64;0.72;0.35;0.85
1753877889.996525;-13.947;4.437;-0.285;-2.89;-0.87;-5.2;0.0;0.0;0.0;0.0;29.0;22.0;-25.0;-63.0;-0.2;0.59;-10.63;0.7;0.24;0.86
1753877890.001525;-13.947;4.437;-0.285;-2.89;-0.87;-5.2;0.0;0.0;0.0;0.0;29.0;21.8;-24.9;-62.7;-0.21;0.59;-10.63;0.7;0.08;0.8
1753877890.006525;-13.947;4.437;-0.285;-2.89;-0.87;-5.2;0.0;0.0;0.0;0.0;29.0;21.9;-24.0;-63.0;-0.2;0.6;-10.63;0.71;0.21;0.8
1753877890.011526;-13.947;4.437;-0.285;-2.89;-0.87;-5.2;0.0;0.0;0.0;0.0;29.0;22.0;-28.5;-63.0;-0.2;0.58;-10.64;0.85;0.28;0.86
1753877890.016526;-13.947;4.437;-0.285;-2.89;-0.87;-5.2;0.0;0.0;0.0;0.0;29.0;21.8;-26.6;-63.1;-0.2;0.59;-10.63;0.7;0.29;1.1
1753877890.021526;-13.947;4.437;-0.285;-2.89;-0.87;-5.2;0.0;0.0;0.0;0.0;29.0;22.3;-26.4;-62.9;-0.21;0.58;-10.63;0.64;0.28;0.79
1753877890.026526;-13.947;4.437;-0.285;-2.89;-0.87;-5.2;0.0;0.0;0.0;0.0;29.0;22.6;-28.6;-63.2;-0.2;0.57;-10.62;0.59;0.44;0.89
1753877890.031526;-13.947;4.437;-0.285;-2.89;-0.87;-5.2;0.0;0.0;0.0;0.0;29.0;22.5;-27.6;-62.9;-0.2;0.59;-10.63;0.78;0.15;0.88
1753877890.036526;-13.947;4.437;-0.285;-2.89;-0.87;-5.2;0.0;0.0;0.0;0.0;29.0;22.0;-26.0;-63.4;-0.2;0.58;-10.63;0.76;0.13;0.99
1753877890.041526;-13.947;4.437;-0.285;-2.89;-0.87;-5.2;0.0;0.0;0.0;0.0;29.0;21.7;-30.0;-63.3;-0.2;0.58;-10.62;0.71;0.3;0.76
1753877890.046526;-13.947;4.437;-0.285;-2.89;-0.87;-5.2;0.0;0.0;0.0;0.0;29.0;22.3;-26.5;-63.4;-0.2;0.6;-10.62;0.76;0.26;0.96
1753877890.051526;-13.947;4.437;-0.285;-2.89;-0.87;-5.2;0.0;0.0;0.0;0.0;29.0;22.5;-26.6;-63.5;-0.2;0.59;-10.63;0.77;0.29;0.95
1753877890.056526;-13.947;4.437;-0.285;-2.89;-0.87;-5.2;0.0;0.0;0.0;0.0;29.0;22.3;-27.4;-63.1;-0.2;0.59;-10.63;0.73;0.18;0.79
1753877890.061526;-13.947;4.437;-0.285;-2.88;-0.87;-5.2;0.0;0.0;0.0;0.0;29.0;22.2;-26.9;-63.5;-0.21;0.59;-10.63;0.84;0.25;0.83
1753877890.066527;-13.947;4.437;-0.285;-2.89;-0.87;-5.2;0.0;0.0;0.0;0.0;29.0;22.4;-29.5;-63.2;-0.21;0.6;-10.63;0.76;0.22;0.99
1753877890.071527;-13.947;4.437;-0.285;-2.89;-0.88;-5.2;0.0;0.0;0.0;0.0;29.0;22.5;-24.5;-63.5;-0.2;0.59;-10.62;0.86;0.26;0.85
1753877890.076527;-13.947;4.437;-0.285;-2.89;-0.88;-5.2;0.0;0.0;0.0;0.0;29.0;22.4;-27.8;-63.3;-0.2;0.6;-10.63;0.76;0.22;1.05
1753877890.081527;-13.947;4.437;-0.285;-2.88;-0.87;-5.2;0.0;0.0;0.0;0.0;29.0;22.4;-25.8;-63.4;-0.19;0.59;-10.63;0.66;0.29;0.87
1753877890.086527;-13.947;4.437;-0.285;-2.88;-0.87;-5.2;0.0;0.0;0.0;0.0;29.0;22.5;-29.7;-63.8;-0.2;0.59;-10.62;0.77;0.22;0.86
1753877890.091527;-13.947;4.437;-0.285;-2.88;-0.87;-5.2;0.0;0.0;0.0;0.0;29.0;22.4;-29.0;-63.6;-0.2;0.6;-10.63;0.75;0.21;0.95
1753877890.096527;-13.947;4.437;-0.285;-2.88;-0.88;-5.2;0.0;0.0;0.0;0.0;29.0;22.8;-28.6;-63.6;-0.19;0.58;-10.62;0.81;0.29;0.86
1753877890.101528;-13.947;4.437;-0.285;-2.89;-0.88;-5.2;0.0;0.0;0.0;0.0;29.0;23.2;-30.4;-63.1;-0.2;0.58;-10.62;0.75;0.39;0.91
1753877890.106528;-13.947;4.437;-0.285;-2.88;-0.88;-5.2;0.0;0.0;0.0;0.0;29.0;22.7;-27.6;-63.8;-0.2;0.58;-10.63;0.78;0.32;0.96
1753877890.111528;-13.947;4.437;-0.285;-2.89;-0.88;-5.2;0.0;0.0;0.0;0.0;29.0;22.7;-30.4;-63.8;-0.19;0.57;-10.62;0.76;0.32;0.88
1753877890.116528;-13.947;4.437;-0.285;-2.88;-0.88;-5.2;0.0;0.0;0.0;0.0;29.0;23.2;-32.2;-63.4;-0.21;0.59;-10.63;0.66;0.32;0.98
1753877890.121528;-13.947;4.437;-0.285;-2.88;-0.88;-5.2;0.0;0.0;0.0;0.0;29.0;22.9;-31.4;-63.7;-0.2;0.59;-10.63;0.65;0.43;0.95
1753877890.126528;-13.947;4.437;-0.285;-2.88;-0.88;-5.2;0.0;0.0;0.0;0.0;29.0;23.0;-29.2;-63.7;-0.19;0.6;-10.63;0.72;0.29;0.92
1753877890.131528;-13.947;4.437;-0.285;-2.88;-0.88;-5.2;0.0;0.0;0.0;0.0;29.0;22.8;-30.9;-63.5;-0.21;0.6;-10.63;0.79;0.37;1.09
1753877890.136528;-13.947;4.437;-0.285;-2.88;-0.88;-5.2;0.0;0.0;0.0;0.0;29.0;22.8;-34.9;-63.9;-0.21;0.59;-10.62;0.65;0.29;1.0
1753877890.141528;-13.947;4.437;-0.285;-2.88;-0.88;-5.2;0.0;0.0;0.0;0.0;29.0;22.7;-31.1;-63.8;-0.2;0.6;-10.62;0.89;0.44;0.96
1753877890.146528;-13.947;4.437;-0.285;-2.88;-0.88;-5.2;0.0;0.0;0.0;0.0;29.0;22.6;-30.9;-63.6;-0.2;0.59;-10.62;0.65;0.24;1.03
1753877890.151528;-13.947;4.437;-0.285;-2.88;-0.88;-5.2;0.0;0.0;0.0;0.0;29.0;22.8;-35.3;-64.0;-0.19;0.59;-10.62;0.87;0.4;1.02
1753877890.156529;-13.947;4.437;-0.285;-2.89;-0.88;-5.2;0.0;0.0;0.0;0.0;29.0;22.6;-30.0;-63.8;-0.2;0.59;-10.63;0.82;0.27;1.1
1753877890.161529;-13.947;4.437;-0.285;-2.88;-0.88;-5.2;0.0;0.0;0.0;0.0;29.0;23.1;-30.7;-63.9;-0.21;0.59;-10.62;0.76;0.38;0.9
1753877890.166529;-13.947;4.437;-0.285;-2.88;-0.88;-5.2;0.0;0.0;0.0;0.0;29.0;23.0;-32.8;-64.1;-0.2;0.58;-10.62;0.79;0.45;1.2
1753877890.171529;-13.947;4.437;-0.285;-2.88;-0.88;-5.2;0.0;0.0;0.0;0.0;29.0;22.9;-31.6;-63.8;-0.2;0.6;-10.63;0.96;0.35;1.03
1753877890.176525;-13.947;4.437;-0.285;-2.88;-0.88;-5.2;0.0;0.0;0.0;0.0;29.0;23.0;-33.0;-64.0;-0.2;0.59;-10.62;0.81;0.32;0.98
1753877890.181525;-13.947;4.437;-0.285;-2.88;-0.88;-5.2;0.0;0.0;0.0;0.0;29.0;23.0;-33.0;-64.0;-0.2;0.59;-10.61;0.67;0.24;0.91
1753877890.186525;-13.947;4.437;-0.285;-2.88;-0.88;-5.2;0.0;0.0;0.0;0.0;29.0;23.0;-33.0;-64.0;-0.2;0.59;-10.61;0.74;0.47;0.92
1753877890.191525;-13.947;4.437;-0.285;-2.88;-0.88;-5.2;0.0;0.0;0.0;0.0;29.0;23.0;-33.0;-64.0;-0.2;0.59;-10.62;0.7;0.3;1.13
1753877890.196525;-13.947;4.437;-0.285;-2.88;-0.88;-5.2;0.0;0.0;0.0;0.0;29.0;23.0;-33.0;-64.0;-0.2;0.59;-10.62;0.62;0.35;1.06
1753877890.201525;-13.947;4.437;-0.285;-2.88;-0.88;-5.2;0.0;0.0;0.0;0.0;29.0;23.0;-33.0;-64.0;-0.2;0.59;-10.61;0.73;0.25;0.98
1753877890.206525;-13.947;4.437;-0.285;-2.88;-0.88;-5.2;0.0;0.0;0.0;0.0;29.0;23.0;-33.0;-64.0;-0.2;0.6;-10.61;0.66;0.27;1.0
1753877890.211525;-13.947;4.437;-0.285;-2.88;-0.88;-5.2;0.0;0.0;0.0;0.0;29.0;23.0;-33.0;-64.0;-0.2;0.59;-10.6;0.6;0.32;0.94
1753877890.216525;-13.947;4.437;-0.285;-2.88;-0.88;-5.2;0.0;0.0;0.0;0.0;29.0;23.0;-33.0;-64.0;-0.2;0.59;-10.61;0.61;0.42;0.93
1753877890.221525;-13.947;4.437;-0.285;-2.88;-0.88;-5.2;0.0;0.0;0.0;0.0;29.0;23.0;-33.0;-64.0;-0.21;0.59;-10.61;0.7;0.36;0.83
1753877890.226525;-13.947;4.437;-0.285;-2.88;-0.88;-5.2;0.0;0.0;0.0;0.0;29.0;23.0;-33.0;-64.0;-0.2;0.59;-10.61;0.62;0.22;0.96
1753877890.231525;-13.947;4.437;-0.285;-2.88;-0.88;-5.2;0.0;0.0;0.0;0.0;29.0;23.0;-33.0;-64.0;-0.2;0.59;-10.62;0.73;0.31;0.97
1753877890.236525;-13.947;4.437;-0.285;-2.88;-0.88;-5.2;0.0;0.0;0.0;0.0;29.0;23.0;-33.0;-64.0;-0.2;0.59;-10.62;0.76;0.11;0.91
1753877890.241525;-13.947;4.437;-0.285;-2.88;-0.88;-5.2;0.0;0.0;0.0;0.0;29.0;23.0;-33.0;-64.0;-0.19;0.59;-10.62;0.8;0.27;0.93
1753877890.246525;-13.947;4.437;-0.285;-2.88;-0.88;-5.2;0.0;0.0;0.0;0.0;29.0;23.0;-33.0;-64.0;-0.2;0.59;-10.61;0.69;0.39;0.97
1753877890.251525;-13.947;4.437;-0.285;-2.88;-0.88;-5.2;0.0;0.0;0.0;0.0;29.0;23.0;-33.0;-64.0;-0.2;0.59;-10.61;0.77;0.27;0.93
1753877890.256525;-13.947;4.437;-0.285;-2.88;-0.88;-5.2;0.0;0.0;0.0;0.0;29.0;23.0;-33.0;-64.0;-0.2;0.59;-10.62;0.67;0.29;1.05
1753877890.261525;-13.947;4.437;-0.285;-2.88;-0.88;-5.2;0.0;0.0;0.0;0.0;29.0;23.0;-33.0;-64.0;-0.2;0.59;-10.61;0.69;0.38;0.93
1753877890.266525;-13.947;4.437;-0.285;-2.88;-0.88;-5.2;0.0;0.0;0.0;0.0;29.0;23.0;-33.0;-64.0;-0.2;0.59;-10.62;0.57;0.34;0.93
1753877890.271525;-13.947;4.437;-0.285;-2.88;-0.88;-5.2;0.0;0.0;0.0;0.0;29.0;23.0;-33.0;-64.0;-0.2;0.59;-10.62;0.62;0.35;0.96
1753877890.276525;-13.947;4.437;-0.285;-2.88;-0.88;-5.2;0.0;0.0;0.0;0.0;29.0;23.0;-33.0;-64.0;-0.2;0.59;-10.62;0.73;0.13;0.92
1753877890.281525;-13.947;4.437;-0.285;-2.88;-0.88;-5.2;0.0;0.0;0.0;0.0;29.0;23.0;-33.0;-64.0;-0.2;0.59;-10.62;0.71;0.32;0.86
1753877890.286525;-13.947;4.437;-0.285;-2.88;-0.88;-5.2;0.0;0.0;0.0;0.0;29.0;23.0;-33.0;-64.0;-0.2;0.58;-10.62;0.6;0.24;0.99
1753877890.291525;-13.947;4.437;-0.285;-2.88;-0.88;-5.2;0.0;0.0;0.0;0.0;29.0;23.0;-33.0;-64.0;-0.2;0.58;-10.63;0.64;0.27;0.86
1753877890.296525;-13.947;4.437;-0.285;-2.88;-0.88;-5.2;0.0;0.0;0.0;0.0;29.0;23.0;-33.0;-64.0;-0.2;0.59;-10.64;0.78;0.45;0.94
1753877890.301525;-13.947;4.437;-0.285;-2.88;-0.88;-5.2;0.0;0.0;0.0;0.0;29.0;23.0;-33.0;-64.0;-0.21;0.59;-10.65;0.63;0.32;0.93
1753877890.306525;-13.947;4.437;-0.285;-2.88;-0.88;-5.2;0.0;0.0;0.0;0.0;29.0;23.0;-33.0;-64.0;-0.2;0.6;-10.66;0.69;0.35;0.89
1753877890.311525;-13.947;4.437;-0.285;-2.88;-0.88;-5.2;0.0;0.0;0.0;0.0;29.0;23.0;-33.0;-64.0;-0.2;0.6;-10.66;0.69;0.25;0.85
1753877890.316525;-13.947;4.437;-0.285;-2.88;-0.88;-5.2;0.0;0.0;0.0;0.0;29.0;23.0;-33.0;-64.0;-0.2;0.6;-10.66;0.74;0.32;0.95
1753877890.321525;-13.947;4.437;-0.285;-2.88;-0.88;-5.2;0.0;0.0;0.0;0.0;29.0;23.0;-33.0;-64.0;-0.2;0.6;-10.66;0.86;0.39;0.87
1753877890.326525;-13.947;4.437;-0.285;-2.88;-0.88;-5.2;0.0;0.0;0.0;0.0;29.0;23.0;-33.0;-64.0;-0.2;0.6;-10.66;0.75;0.27;0.8
1753877890.331525;-13.947;4.437;-0.285;-2.87;-0.88;-5.2;0.0;0.0;0.0;0.0;28.8;21.7;-33.4;-64.8;-0.2;0.59;-10.64;0.69;0.23;0.88
1753877890.336525;-13.947;4.437;-0.285;-2.88;-0.89;-5.2;0.0;0.0;0.0;0.0;28.4;23.3;-31.7;-63.5;-0.2;0.59;-10.62;0.72;0.33;0.8
1753877890.341525;-13.947;4.437;-0.285;-2.87;-0.89;-5.2;0.0;0.0;0.0;0.0;28.1;22.6;-31.7;-62.9;-0.2;0.6;-10.63;0.54;0.05;0.89
1753877890.346526;-13.947;4.437;-0.285;-2.87;-0.89;-5.2;0.0;0.0;0.0;0.0;28.4;24.5;-32.1;-63.0;-0.2;0.6;-10.62;0.71;0.19;0.92
1753877890.351526;-13.947;4.437;-0.285;-2.87;-0.89;-5.2;0.0;0.0;0.0;0.0;27.9;27.0;-31.6;-62.7;-0.2;0.6;-10.66;0.68;0.1;0.8
1753877890.356525;-13.947;4.437;-0.285;-2.87;-0.89;-5.2;0.0;0.0;0.0;0.0;28.0;27.0;-31.0;-62.0;-0.2;0.6;-10.64;0.63;0.21;0.99
1753877890.361525;-13.947;4.437;-0.285;-2.87;-0.89;-5.2;0.0;0.0;0.0;0.0;28.0;27.0;-31.0;-62.0;-0.2;0.6;-10.64;0.78;0.35;0.78
1753877890.366525;-13.947;4.437;-0.285;-2.87;-0.89;-5.2;0.0;0.0;0.0;0.0;28.0;27.0;-31.0;-62.0;-0.2;0.6;-10.63;0.73;0.36;0.82
1753877890.371525;-13.947;4.437;-0.285;-2.87;-0.89;-5.2;0.0;0.0;0.0;0.0;28.0;27.0;-31.0;-62.0;-0.2;0.6;-10.64;0.71;0.32;0.98
1753877890.376525;-13.947;4.437;-0.285;-2.87;-0.89;-5.2;0.0;0.0;0.0;0.0;28.0;27.0;-31.0;-62.0;-0.2;0.6;-10.64;0.79;0.32;0.93
1753877890.381525;-13.947;4.437;-0.285;-2.87;-0.89;-5.2;0.0;0.0;0.0;0.0;28.0;27.0;-31.0;-62.0;-0.2;0.6;-10.64;0.57;0.24;1.06
1753877890.386525;-13.947;4.437;-0.285;-2.87;-0.89;-5.2;0.0;0.0;0.0;0.0;28.0;27.0;-31.0;-62.0;-0.19;0.6;-10.63;0.7;0.39;0.98
1753877890.391525;-13.947;4.437;-0.285;-2.87;-0.89;-5.2;0.0;0.0;0.0;0.0;28.0;27.0;-31.0;-62.0;-0.2;0.6;-10.64;0.74;0.4;0.86
1753877890.396525;-13.947;4.437;-0.285;-2.87;-0.89;-5.2;0.0;0.0;0.0;0.0;28.0;24.5;-30.7;-63.3;-0.2;0.59;-10.67;0.85;0.38;0.91
1753877890.401525;-13.947;4.437;-0.285;-2.87;-0.89;-5.2;0.0;0.0;0.0;0.0;28.0;27.0;-31.0;-62.0;-0.2;0.61;-10.64;0.8;0.45;0.9
1753877890.406525;-13.947;4.437;-0.285;-2.87;-0.89;-5.2;0.0;0.0;0.0;0.0;28.0;27.0;-31.0;-62.0;-0.21;0.61;-10.63;0.81;0.32;0.81
1753877890.411525;-13.947;4.437;-0.285;-2.87;-0.89;-5.2;0.0;0.0;0.0;0.0;28.0;27.0;-31.0;-62.0;-0.21;0.6;-10.64;0.81;0.26;0.88
1753877890.416525;-13.947;4.437;-0.285;-2.87;-0.89;-5.2;0.0;0.0;0.0;0.0;28.0;27.0;-31.0;-62.0;-0.21;0.61;-10.64;0.62;0.42;1.07
1753877890.421525;-13.947;4.437;-0.285;-2.87;-0.89;-5.2;0.0;0.0;0.0;0.0;28.0;27.0;-31.0;-62.0;-0.2;0.6;-10.64;0.7;0.39;0.98
1753877890.426525;-13.947;4.437;-0.285;-2.87;-0.89;-5.2;0.0;0.0;0.0;0.0;28.0;27.0;-31.0;-62.0;-0.2;0.6;-10.63;0.6;0.41;1.05
1753877890.431525;-13.947;4.437;-0.285;-2.87;-0.89;-5.2;0.0;0.0;0.0;0.0;28.0;27.0;-31.0;-62.0;-0.2;0.6;-10.63;0.69;0.29;1.06
1753877890.436525;-13.947;4.437;-0.285;-2.86;-0.88;-5.2;0.0;0.0;0.0;0.0;27.6;25.8;-31.7;-62.6;-0.21;0.6;-10.62;0.75;0.29;1.09
1753877890.441525;-13.947;4.437;-0.285;-2.86;-0.89;-5.2;0.0;0.0;0.0;0.0;28.6;24.4;-28.7;-62.5;-0.21;0.6;-10.62;0.69;0.33;0.93
1753877890.446525;-13.947;4.437;-0.285;-2.87;-0.89;-5.2;0.0;0.0;0.0;0.0;28.9;28.9;-29.8;-64.8;-0.21;0.6;-10.63;0.57;0.24;1.27
1753877890.451526;-13.947;4.437;-0.285;-2.88;-0.89;-5.2;0.0;0.0;0.0;0.0;27.9;27.2;-32.9;-64.2;-0.2;0.6;-10.62;0.87;0.39;1.16
1753877890.456526;-13.947;4.437;-0.285;-2.87;-0.89;-5.2;0.0;0.0;0.0;0.0;28.9;27.7;-29.7;-61.1;-0.2;0.6;-10.62;0.61;0.33;0.95
1753877890.461526;-13.947;4.437;-0.285;-2.87;-0.89;-5.2;0.0;0.0;0.0;0.0;28.2;27.1;-31.5;-66.8;-0.2;0.6;-10.61;0.69;0.37;1.0
1753877890.466526;-13.947;4.437;-0.285;-2.87;-0.89;-5.2;0.0;0.0;0.0;0.0;27.9;27.1;-30.7;-59.8;-0.2;0.6;-10.64;0.76;0.12;0.93
1753877890.471526;-13.947;4.437;-0.285;-2.87;-0.9;-5.2;0.0;0.0;0.0;0.0;28.5;26.7;-30.4;-65.5;-0.19;0.59;-10.61;0.83;0.34;1.02
1753877890.476526;-13.947;4.437;-0.285;-2.87;-0.89;-5.2;0.0;0.0;0.0;0.0;28.3;28.3;-30.3;-63.4;-0.2;0.6;-10.61;0.83;0.36;0.99
1753877890.481526;-13.947;4.437;-0.285;-2.87;-0.89;-5.2;0.0;0.0;0.0;0.0;27.4;27.5;-29.7;-62.9;-0.19;0.6;-10.63;0.79;0.21;1.03
1753877890.486526;-13.947;4.437;-0.285;-2.87;-0.9;-5.2;0.0;0.0;0.0;0.0;28.5;27.0;-29.8;-65.3;-0.19;0.6;-10.62;0.74;0.38;1.1
1753877890.491526;-13.947;4.437;-0.285;-2.88;-0.89;-5.2;0.0;0.0;0.0;0.0;28.9;26.2;-28.8;-65.7;-0.19;0.59;-10.64;0.78;0.31;0.99
1753877890.496526;-13.947;4.437;-0.285;-2.87;-0.89;-5.2;0.0;0.0;0.0;0.0;28.5;28.1;-31.5;-66.5;-0.2;0.6;-10.62;0.86;0.35;0.87
1753877890.501526;-13.947;4.437;-0.285;-2.88;-0.88;-5.2;0.0;0.0;0.0;0.0;28.2;32.3;-30.5;-65.1;-0.2;0.6;-10.64;0.71;0.33;0.9
1753877890.506527;-13.947;4.437;-0.285;-2.88;-0.89;-5.2;0.0;0.0;0.0;0.0;29.3;26.4;-27.6;-67.9;-0.21;0.6;-10.63;0.73;0.33;1.0
1753877890.511527;-13.947;4.437;-0.285;-2.88;-0.89;-5.2;0.0;0.0;0.0;0.0;28.8;25.6;-29.1;-70.9;-0.19;0.6;-10.62;0.7;0.24;0.77
1753877890.516527;-13.947;4.437;-0.285;-2.87;-0.9;-5.2;0.0;0.0;0.0;0.0;28.7;26.7;-28.2;-69.2;-0.19;0.6;-10.63;0.77;0.23;0.96
1753877890.521527;-13.947;4.437;-0.285;-2.88;-0.88;-5.2;0.0;0.0;0.0;0.0;28.3;25.4;-29.3;-65.1;-0.19;0.6;-10.61;0.7;0.39;1.02
1753877890.526527;-13.947;4.437;-0.285;-2.88;-0.89;-5.2;0.0;0.0;0.0;0.0;28.6;24.9;-26.6;-70.8;-0.19;0.6;-10.63;0.78;0.3;1.12
1753877890.531527;-13.947;4.437;-0.285;-2.88;-0.88;-5.2;0.0;0.0;0.0;0.0;28.6;26.1;-27.1;-66.0;-0.19;0.6;-10.64;0.76;0.19;0.91
1753877890.536528;-13.947;4.437;-0.285;-2.88;-0.89;-5.2;0.0;0.0;0.0;0.0;30.1;27.5;-27.3;-70.0;-0.19;0.6;-10.62;0.72;0.5;0.88
1753877890.541528;-13.947;4.437;-0.285;-2.88;-0.89;-5.2;0.0;0.0;0.0;0.0;28.9;25.8;-28.3;-69.9;-0.2;0.6;-10.65;0.82;0.44;1.07
1753877890.546528;-13.947;4.437;-0.285;-2.88;-0.88;-5.2;0.0;0.0;0.0;0.0;28.9;26.5;-28.1;-67.4;-0.19;0.6;-10.62;0.97;0.31;0.83
1753877890.551525;-13.947;4.437;-0.285;-2.88;-0.89;-5.2;0.0;0.0;0.0;0.0;29.0;25.0;-27.0;-69.0;-0.19;0.6;-10.62;0.8;0.32;0.93
1753877890.556525;-13.947;4.437;-0.285;-2.88;-0.89;-5.2;0.0;0.0;0.0;0.0;29.0;25.0;-27.0;-69.0;-0.19;0.6;-10.62;0.6;0.41;1.02
1753877890.561525;-13.947;4.437;-0.285;-2.88;-0.89;-5.2;0.0;0.0;0.0;0.0;29.0;25.0;-27.0;-69.0;-0.19;0.6;-10.62;0.51;0.22;0.87
1753877890.566525;-13.947;4.437;-0.285;-2.88;-0.89;-5.2;0.0;0.0;0.0;0.0;29.0;25.0;-27.0;-69.0;-0.2;0.6;-10.62;0.55;0.32;1.05
1753877890.571525;-13.947;4.437;-0.285;-2.88;-0.89;-5.2;0.0;0.0;0.0;0.0;29.0;25.0;-27.0;-69.0;-0.2;0.6;-10.61;0.72;0.35;1.07
1753877890.576525;-13.947;4.437;-0.285;-2.88;-0.89;-5.2;0.0;0.0;0.0;0.0;29.0;25.0;-27.0;-69.0;-0.2;0.6;-10.62;0.58;0.27;0.92
1753877890.581525;-13.947;4.437;-0.285;-2.88;-0.89;-5.2;0.0;0.0;0.0;0.0;29.0;25.0;-27.0;-69.0;-0.2;0.6;-10.62;0.77;0.22;0.94
1753877890.586525;-13.947;4.437;-0.285;-2.88;-0.89;-5.2;0.0;0.0;0.0;0.0;29.0;25.0;-27.0;-69.0;-0.2;0.6;-10.63;0.71;0.32;0.92
1753877890.591525;-13.947;4.437;-0.285;-2.88;-0.89;-5.2;0.0;0.0;0.0;0.0;29.0;25.0;-27.0;-69.0;-0.2;0.59;-10.63;0.67;0.27;1.02
1753877890.596525;-13.947;4.437;-0.285;-2.88;-0.89;-5.2;0.0;0.0;0.0;0.0;29.0;25.0;-27.0;-69.0;-0.2;0.59;-10.63;0.7;0.29;1.02
1753877890.601525;-13.947;4.437;-0.285;-2.88;-0.89;-5.2;0.0;0.0;0.0;0.0;29.0;25.0;-27.0;-69.0;-0.2;0.59;-10.64;0.59;0.34;1.01
1753877890.606525;-13.947;4.437;-0.285;-2.88;-0.89;-5.2;0.0;0.0;0.0;0.0;29.0;25.0;-27.0;-69.0;-0.19;0.6;-10.63;0.79;0.49;0.9
1753877890.611525;-13.947;4.437;-0.285;-2.88;-0.89;-5.2;0.0;0.0;0.0;0.0;29.0;25.0;-27.0;-69.0;-0.19;0.6;-10.63;0.78;0.2;0.86
1753877890.616525;-13.947;4.437;-0.285;-2.88;-0.89;-5.2;0.0;0.0;0.0;0.0;29.0;25.0;-27.0;-69.0;-0.19;0.6;-10.63;0.73;0.32;0.93
1753877890.621525;-13.947;4.437;-0.285;-2.88;-0.89;-5.2;0.0;0.0;0.0;0.0;29.0;25.0;-27.0;-69.0;-0.19;0.6;-10.62;0.77;0.28;1.0
1753877890.626525;-13.947;4.437;-0.285;-2.88;-0.89;-5.2;0.0;0.0;0.0;0.0;29.0;25.0;-27.0;-69.0;-0.18;0.59;-10.63;0.73;0.24;1.08
1753877890.631525;-13.947;4.437;-0.285;-2.88;-0.89;-5.2;0.0;0.0;0.0;0.0;29.0;25.0;-27.0;-69.0;-0.18;0.59;-10.63;0.73;0.35;0.93
1753877890.636525;-13.947;4.437;-0.285;-2.88;-0.89;-5.2;0.0;0.0;0.0;0.0;29.0;25.0;-27.0;-69.0;-0.18;0.6;-10.63;0.74;0.45;0.92
1753877890.641525;-13.947;4.437;-0.285;-2.88;-0.89;-5.2;0.0;0.0;0.0;0.0;29.0;25.0;-27.0;-69.0;-0.18;0.6;-10.62;0.61;0.33;1.07
1753877890.646525;-13.947;4.437;-0.285;-2.88;-0.89;-5.2;0.0;0.0;0.0;0.0;29.0;25.0;-27.0;-69.0;-0.18;0.6;-10.62;0.77;0.49;0.93
1753877890.651525;-13.947;4.437;-0.285;-2.88;-0.89;-5.2;0.0;0.0;0.0;0.0;29.0;25.0;-27.0;-69.0;-0.19;0.61;-10.62;0.72;0.32;0.95
1753877890.656525;-13.947;4.437;-0.285;-2.88;-0.89;-5.2;0.0;0.0;0.0;0.0;29.0;25.0;-27.0;-69.0;-0.19;0.61;-10.62;0.67;0.15;0.88
1753877890.661525;-13.947;4.437;-0.285;-2.88;-0.89;-5.2;0.0;0.0;0.0;0.0;29.0;25.0;-27.0;-69.0;-0.19;0.61;-10.63;0.69;0.33;0.93
1753877890.666525;-13.947;4.437;-0.285;-2.88;-0.89;-5.2;0.0;0.0;0.0;0.0;29.0;25.0;-27.0;-69.0;-0.19;0.6;-10.63;0.56;0.31;0.98
1753877890.671525;-13.947;4.437;-0.285;-2.88;-0.89;-5.2;0.0;0.0;0.0;0.0;29.0;25.0;-27.0;-69.0;-0.19;0.61;-10.63;0.62;0.39;1.06
1753877890.676525;-13.947;4.437;-0.285;-2.88;-0.89;-5.2;0.0;0.0;0.0;0.0;29.0;25.0;-27.0;-69.0;-0.18;0.61;-10.63;0.65;0.38;0.91
1753877890.681525;-13.947;4.437;-0.285;-2.88;-0.89;-5.2;0.0;0.0;0.0;0.0;29.0;25.0;-27.0;-69.0;-0.19;0.62;-10.62;0.69;0.32;0.93
1753877890.686525;-13.947;4.437;-0.285;-2.88;-0.89;-5.2;0.0;0.0;0.0;0.0;29.0;25.0;-27.0;-69.0;-0.19;0.61;-10.62;0.69;0.27;0.87
1753877890.691525;-13.947;4.437;-0.285;-2.88;-0.89;-5.2;0.0;0.0;0.0;0.0;29.0;25.0;-27.0;-69.0;-0.19;0.6;-10.62;0.66;0.41;1.06
1753877890.696525;-13.947;4.437;-0.285;-2.88;-0.89;-5.2;0.0;0.0;0.0;0.0;29.0;25.0;-27.0;-69.0;-0.19;0.61;-10.62;0.7;0.28;1.08
1753877890.701525;-13.947;4.437;-0.285;-2.88;-0.89;-5.2;0.0;0.0;0.0;0.0;29.0;25.0;-27.0;-69.0;-0.19;0.61;-10.62;0.61;0.38;1.03
1753877890.706525;-13.947;4.437;-0.285;-2.88;-0.89;-5.2;0.0;0.0;0.0;0.0;29.0;25.0;-27.0;-69.0;-0.18;0.6;-10.62;0.59;0.34;1.02
1753877890.711525;-13.947;4.437;-0.285;-2.88;-0.89;-5.2;0.0;0.0;0.0;0.0;29.0;25.0;-27.0;-69.0;-0.19;0.6;-10.61;0.7;0.19;0.91
1753877890.716525;-13.947;4.437;-0.285;-2.88;-0.89;-5.2;0.0;0.0;0.0;0.0;29.0;25.0;-27.0;-69.0;-0.19;0.6;-10.61;0.73;0.2;0.76
1753877890.721525;-13.947;4.437;-0.285;-2.88;-0.89;-5.2;0.0;0.0;0.0;0.0;29.0;25.0;-27.0;-69.0;-0.19;0.61;-10.62;0.74;0.33;0.99
1753877890.726525;-13.947;4.437;-0.285;-2.88;-0.89;-5.2;0.0;0.0;0.0;0.0;29.0;25.0;-27.0;-69.0;-0.19;0.6;-10.61;0.83;0.33;1.05
1753877890.731525;-13.947;4.437;-0.285;-2.87;-0.89;-5.2;0.0;0.0;0.0;0.0;29.5;23.7;-29.7;-69.1;-0.2;0.61;-10.6;0.88;0.39;0.98
1753877890.736525;-13.947;4.437;-0.285;-2.88;-0.89;-5.2;0.0;0.0;0.0;0.0;30.7;23.2;-30.2;-68.7;-0.2;0.61;-10.63;0.8;0.27;1.23
1753877890.741526;-13.947;4.437;-0.285;-2.89;-0.88;-5.2;0.0;0.0;0.0;0.0;30.6;22.8;-28.8;-67.3;-0.21;0.6;-10.62;0.77;0.1;0.99
1753877890.746526;-13.947;4.437;-0.285;-2.9;-0.88;-5.2;0.0;0.0;0.0;0.0;31.4;22.4;-29.7;-67.2;-0.2;0.61;-10.63;0.76;0.38;0.86
1753877890.751525;-13.947;4.437;-0.285;-2.9;-0.88;-5.2;0.0;0.0;0.0;0.0;32.0;22.0;-30.0;-67.0;-0.2;0.61;-10.63;0.71;0.28;0.9
1753877890.756525;-13.947;4.437;-0.285;-2.9;-0.88;-5.2;0.0;0.0;0.0;0.0;32.0;22.0;-30.0;-67.0;-0.2;0.61;-10.63;0.8;0.31;0.96
1753877890.761525;-13.947;4.437;-0.285;-2.9;-0.88;-5.2;0.0;0.0;0.0;0.0;32.0;22.0;-30.0;-67.0;-0.2;0.6;-10.63;0.61;0.38;0.87
1753877890.766525;-13.947;4.437;-0.285;-2.9;-0.88;-5.2;0.0;0.0;0.0;0.0;32.0;22.0;-30.0;-67.0;-0.2;0.6;-10.63;0.64;0.4;1.02
1753877890.771525;-13.947;4.437;-0.285;-2.9;-0.88;-5.2;0.0;0.0;0.0;0.0;32.0;22.0;-30.0;-67.0;-0.2;0.6;-10.63;0.64;0.27;0.93
1753877890.776525;-13.947;4.437;-0.285;-2.9;-0.88;-5.2;0.0;0.0;0.0;0.0;32.0;22.0;-30.0;-67.0;-0.2;0.6;-10.63;0.71;0.27;1.0
1753877890.781525;-13.947;4.437;-0.285;-2.9;-0.88;-5.2;0.0;0.0;0.0;0.0;32.0;22.0;-30.0;-67.0;-0.2;0.6;-10.64;0.74;0.38;1.0
1753877890.786525;-13.947;4.437;-0.285;-2.9;-0.88;-5.2;0.0;0.0;0.0;0.0;32.0;22.0;-30.0;-67.0;-0.2;0.6;-10.64;0.7;0.22;1.01
1753877890.791525;-13.947;4.437;-0.285;-2.88;-0.88;-5.2;0.0;0.0;0.0;0.0;30.3;22.1;-28.8;-66.6;-0.2;0.6;-10.64;0.77;0.29;0.94
1753877890.796525;-13.947;4.437;-0.285;-2.91;-0.88;-5.2;0.0;0.0;0.0;0.0;33.0;22.5;-30.7;-66.6;-0.2;0.6;-10.63;0.76;0.21;0.98
1753877890.801525;-13.947;4.437;-0.285;-2.9;-0.89;-5.2;0.0;0.0;0.0;0.0;31.9;21.3;-33.0;-67.4;-0.2;0.6;-10.64;0.7;0.29;1.05
1753877890.806526;-13.947;4.437;-0.285;-2.9;-0.88;-5.2;0.0;0.0;0.0;0.0;30.0;23.8;-29.0;-66.5;-0.2;0.59;-10.63;0.68;0.13;0.88
1753877890.811526;-13.947;4.437;-0.285;-2.88;-0.88;-5.2;0.0;0.0;0.0;0.0;31.0;22.1;-32.1;-67.6;-0.2;0.6;-10.65;0.59;0.22;0.93
1753877890.816526;-13.947;4.437;-0.285;-2.9;-0.88;-5.2;0.0;0.0;0.0;0.0;30.9;23.9;-31.7;-65.4;-0.2;0.58;-10.63;0.74;0.15;1.01
1753877890.821526;-13.947;4.437;-0.285;-2.9;-0.88;-5.2;0.0;0.0;0.0;0.0;32.0;22.4;-29.5;-66.5;-0.2;0.6;-10.65;0.74;0.29;0.89
1753877890.826526;-13.947;4.437;-0.285;-2.91;-0.87;-5.2;0.0;0.0;0.0;0.0;31.5;24.8;-33.2;-67.8;-0.2;0.6;-10.63;0.66;0.31;0.94
1753877890.831526;-13.947;4.437;-0.285;-2.9;-0.88;-5.2;0.0;0.0;0.0;0.0;31.1;22.6;-29.3;-66.7;-0.19;0.6;-10.64;0.62;0.2;1.08
1753877890.836526;-13.947;4.437;-0.285;-2.9;-0.88;-5.2;0.0;0.0;0.0;0.0;29.1;23.1;-34.0;-66.1;-0.21;0.59;-10.64;0.78;0.16;1.07
1753877890.841526;-13.947;4.437;-0.285;-2.88;-0.87;-5.2;0.0;0.0;0.0;0.0;32.4;20.5;-30.9;-68.5;-0.19;0.6;-10.63;0.64;0.25;1.01
1753877890.846526;-13.947;4.437;-0.285;-2.89;-0.87;-5.2;0.0;0.0;0.0;0.0;30.7;23.5;-30.8;-67.0;-0.19;0.6;-10.65;0.78;0.32;0.95
1753877890.851526;-13.947;4.437;-0.285;-2.9;-0.87;-5.2;0.0;0.0;0.0;0.0;32.4;20.5;-29.7;-65.6;-0.21;0.6;-10.63;0.76;0.29;1.05
1753877890.856526;-13.947;4.437;-0.285;-2.91;-0.87;-5.2;0.0;0.0;0.0;0.0;29.7;24.0;-31.7;-65.3;-0.19;0.6;-10.62;0.79;0.24;0.98
1753877890.861527;-13.947;4.437;-0.285;-2.89;-0.89;-5.2;0.0;0.0;0.0;0.0;26.7;22.2;-32.8;-67.0;-0.2;0.59;-10.64;0.65;0.32;1.05
1753877890.866527;-13.947;4.437;-0.285;-2.9;-0.88;-5.2;0.0;0.0;0.0;0.0;30.6;23.1;-30.2;-67.5;-0.19;0.59;-10.65;0.65;0.18;1.0
1753877890.871527;-13.947;4.437;-0.285;-2.88;-0.87;-5.2;0.0;0.0;0.0;0.0;29.7;19.9;-32.5;-65.8;-0.19;0.6;-10.65;0.72;0.29;1.04
1753877890.876527;-13.947;4.437;-0.285;-2.91;-0.89;-5.2;0.0;0.0;0.0;0.0;31.7;22.3;-28.1;-66.3;-0.19;0.6;-10.63;0.69;0.25;0.95
1753877890.881527;-13.947;4.437;-0.285;-2.9;-0.89;-5.2;0.0;0.0;0.0;0.0;29.4;23.8;-32.6;-66.1;-0.19;0.6;-10.62;0.73;0.19;1.06
1753877890.886527;-13.947;4.437;-0.285;-2.89;-0.88;-5.2;0.0;0.0;0.0;0.0;28.4;23.0;-33.3;-65.2;-0.19;0.59;-10.64;0.74;0.34;0.9
1753877890.891528;-13.947;4.437;-0.285;-2.91;-0.88;-5.2;0.0;0.0;0.0;0.0;30.2;22.5;-34.8;-66.6;-0.19;0.61;-10.64;0.71;0.37;1.05
1753877890.896528;-13.947;4.437;-0.285;-2.9;-0.88;-5.2;0.0;0.0;0.0;0.0;29.2;21.4;-32.4;-65.6;-0.19;0.6;-10.64;0.61;0.28;0.9
1753877890.901528;-13.947;4.437;-0.285;-2.9;-0.87;-5.2;0.0;0.0;0.0;0.0;29.5;25.9;-30.6;-66.2;-0.19;0.6;-10.64;0.8;0.22;1.09
1753877890.906528;-13.947;4.437;-0.285;-2.91;-0.88;-5.2;0.0;0.0;0.0;0.0;30.2;24.3;-32.6;-66.9;-0.19;0.6;-10.63;0.62;0.31;0.87
1753877890.911528;-13.947;4.437;-0.285;-2.92;-0.89;-5.2;0.0;0.0;0.0;0.0;27.1;19.2;-32.9;-66.1;-0.18;0.59;-10.63;0.8;0.32;0.97
1753877890.916528;-13.947;4.437;-0.285;-2.89;-0.88;-5.2;0.0;0.0;0.0;0.0;28.0;23.4;-31.5;-66.7;-0.2;0.59;-10.64;0.75;0.25;1.04
1753877890.921528;-13.947;4.437;-0.285;-2.9;-0.87;-5.2;0.0;0.0;0.0;0.0;25.6;20.6;-30.4;-65.3;-0.19;0.59;-10.63;0.74;0.37;1.02
1753877890.926528;-13.947;4.437;-0.285;-2.91;-0.89;-5.2;0.0;0.0;0.0;0.0;29.2;24.8;-30.8;-66.1;-0.19;0.59;-10.61;0.8;0.33;1.0
1753877890.931528;-13.947;4.437;-0.285;-2.9;-0.88;-5.2;0.0;0.0;0.0;0.0;29.0;23.5;-32.3;-66.1;-0.19;0.58;-10.65;0.63;0.47;0.9
1753877890.936525;-13.947;4.437;-0.285;-2.9;-0.88;-5.2;0.0;0.0;0.0;0.0;28.0;23.0;-31.0;-66.0;-0.19;0.59;-10.64;0.75;0.32;0.96
1753877890.941525;-13.947;4.437;-0.285;-2.9;-0.88;-5.2;0.0;0.0;0.0;0.0;28.0;23.0;-31.0;-66.0;-0.19;0.59;-10.64;0.8;0.37;0.88
1753877890.946525;-13.947;4.437;-0.285;-2.9;-0.88;-5.2;0.0;0.0;0.0;0.0;28.0;23.0;-31.0;-66.0;-0.2;0.6;-10.63;0.73;0.38;0.87
1753877890.951525;-13.947;4.437;-0.285;-2.9;-0.88;-5.2;0.0;0.0;0.0;0.0;28.0;23.0;-31.0;-66.0;-0.2;0.59;-10.62;0.73;0.26;0.94
1753877890.956525;-13.947;4.437;-0.285;-2.9;-0.88;-5.2;0.0;0.0;0.0;0.0;28.0;23.0;-31.0;-66.0;-0.2;0.59;-10.62;0.85;0.47;1.06
1753877890.961525;-13.947;4.437;-0.285;-2.9;-0.88;-5.2;0.0;0.0;0.0;0.0;28.0;23.0;-31.0;-66.0;-0.19;0.59;-10.61;0.78;0.27;0.93
1753877890.966525;-13.947;4.437;-0.285;-2.9;-0.88;-5.2;0.0;0.0;0.0;0.0;28.0;23.0;-31.0;-66.0;-0.19;0.59;-10.61;0.65;0.33;0.96
1753877890.971525;-13.947;4.437;-0.285;-2.9;-0.88;-5.2;0.0;0.0;0.0;0.0;28.0;23.0;-31.0;-66.0;-0.19;0.59;-10.61;0.7;0.31;0.95
1753877890.976525;-13.947;4.437;-0.285;-2.9;-0.88;-5.2;0.0;0.0;0.0;0.0;28.0;23.0;-31.0;-66.0;-0.2;0.59;-10.62;0.79;0.31;0.97
1753877890.981525;-13.947;4.437;-0.285;-2.9;-0.88;-5.2;0.0;0.0;0.0;0.0;28.0;23.0;-31.0;-66.0;-0.2;0.59;-10.61;0.81;0.23;0.93
1753877890.986525;-13.947;4.437;-0.285;-2.9;-0.88;-5.2;0.0;0.0;0.0;0.0;28.0;23.0;-31.0;-66.0;-0.2;0.59;-10.61;0.7;0.36;0.98
1753877890.991525;-13.947;4.437;-0.285;-2.9;-0.88;-5.2;0.0;0.0;0.0;0.0;28.0;23.0;-31.0;-66.0;-0.2;0.59;-10.62;0.77;0.35;0.93
1753877890.996525;-13.947;4.437;-0.285;-2.9;-0.88;-5.2;0.0;0.0;0.0;0.0;28.0;23.0;-31.0;-66.0;-0.2;0.58;-10.62;0.61;0.27;0.96
1753877891.001525;-13.947;4.437;-0.285;-2.9;-0.88;-5.2;0.0;0.0;0.0;0.0;28.0;23.0;-31.0;-66.0;-0.2;0.58;-10.62;0.74;0.3;0.95
1753877891.006525;-13.947;4.437;-0.285;-2.9;-0.88;-5.2;0.0;0.0;0.0;0.0;28.0;23.0;-31.0;-66.0;-0.2;0.58;-10.62;0.62;0.38;0.95
1753877891.011525;-13.947;4.437;-0.285;-2.9;-0.88;-5.2;0.0;0.0;0.0;0.0;28.0;23.0;-31.0;-66.0;-0.2;0.59;-10.63;0.65;0.28;1.03
1753877891.016525;-13.947;4.437;-0.285;-2.9;-0.88;-5.2;0.0;0.0;0.0;0.0;28.0;23.0;-31.0;-66.0;-0.2;0.59;-10.63;0.8;0.32;0.9
1753877891.021525;-13.947;4.437;-0.285;-2.9;-0.88;-5.2;0.0;0.0;0.0;0.0;28.0;23.0;-31.0;-66.0;-0.2;0.58;-10.63;0.65;0.19;0.83
1753877891.026525;-13.947;4.437;-0.285;-2.9;-0.88;-5.2;0.0;0.0;0.0;0.0;28.4;23.6;-31.6;-66.4;-0.2;0.59;-10.62;0.77;0.24;0.85
1753877891.031525;-13.947;4.437;-0.285;-2.9;-0.88;-5.2;0.0;0.0;0.0;0.0;28.7;23.1;-31.2;-66.4;-0.19;0.6;-10.63;0.8;0.23;0.75
1753877891.036525;-13.947;4.437;-0.285;-2.9;-0.88;-5.2;0.0;0.0;0.0;0.0;29.2;23.0;-31.6;-66.3;-0.19;0.58;-10.63;0.58;0.18;0.85
1753877891.041525;-13.947;4.437;-0.285;-2.9;-0.88;-5.2;0.0;0.0;0.0;0.0;31.0;23.1;-31.1;-65.0;-0.2;0.58;-10.62;0.56;0.37;0.77
1753877891.046526;-13.947;4.437;-0.285;-2.9;-0.88;-5.2;0.0;0.0;0.0;0.0;29.9;23.3;-31.1;-65.7;-0.2;0.59;-10.62;0.71;0.17;0.92
1753877891.051526;-13.947;4.437;-0.285;-2.89;-0.88;-5.2;0.0;0.0;0.0;0.0;29.3;22.4;-31.1;-66.2;-0.2;0.6;-10.62;0.62;0.17;0.83
1753877891.056526;-13.947;4.437;-0.285;-2.9;-0.88;-5.2;0.0;0.0;0.0;0.0;29.0;23.1;-31.4;-65.3;-0.2;0.59;-10.63;0.66;0.2;0.89
1753877891.061526;-13.947;4.437;-0.285;-2.9;-0.88;-5.2;0.0;0.0;0.0;0.0;29.4;23.4;-31.2;-65.6;-0.2;0.59;-10.62;0.82;0.3;0.71
1753877891.066526;-13.947;4.437;-0.285;-2.89;-0.88;-5.2;0.0;0.0;0.0;0.0;28.6;23.3;-31.4;-65.0;-0.2;0.6;-10.63;0.8;0.22;0.88
1753877891.071526;-13.947;4.437;-0.285;-2.89;-0.88;-5.2;0.0;0.0;0.0;0.0;30.3;24.1;-31.8;-64.5;-0.19;0.6;-10.64;0.78;0.15;0.78
1753877891.076526;-13.947;4.437;-0.285;-2.89;-0.88;-5.2;0.0;0.0;0.0;0.0;30.5;23.9;-31.3;-64.5;-0.19;0.6;-10.62;0.66;0.22;0.81
1753877891.081526;-13.947;4.437;-0.285;-2.9;-0.88;-5.2;0.0;0.0;0.0;0.0;30.6;24.2;-31.4;-64.3;-0.19;0.59;-10.64;0.7;0.4;0.81
1753877891.086526;-13.947;4.437;-0.285;-2.89;-0.88;-5.2;0.0;0.0;0.0;0.0;28.1;23.4;-32.0;-64.8;-0.2;0.6;-10.63;0.61;0.23;0.84
1753877891.091526;-13.947;4.437;-0.285;-2.89;-0.88;-5.2;0.0;0.0;0.0;0.0;30.4;23.7;-31.7;-64.9;-0.2;0.61;-10.63;0.68;0.43;0.92
1753877891.096526;-13.947;4.437;-0.285;-2.89;-0.88;-5.2;0.0;0.0;0.0;0.0;32.6;23.8;-31.6;-64.4;-0.2;0.61;-10.62;0.67;0.43;0.92
1753877891.101527;-13.947;4.437;-0.285;-2.89;-0.88;-5.2;0.0;0.0;0.0;0.0;31.3;23.3;-31.8;-64.0;-0.19;0.59;-10.62;0.68;0.37;0.82
1753877891.106527;-13.947;4.437;-0.285;-2.89;-0.88;-5.2;0.0;0.0;0.0;0.0;31.0;24.4;-31.5;-64.7;-0.19;0.61;-10.62;0.72;0.39;0.91
1753877891.111527;-13.947;4.437;-0.285;-2.89;-0.88;-5.2;0.0;0.0;0.0;0.0;30.9;23.9;-31.6;-63.7;-0.19;0.6;-10.63;0.65;0.44;0.81
1753877891.116525;-13.947;4.437;-0.285;-2.89;-0.88;-5.2;0.0;0.0;0.0;0.0;32.0;24.0;-32.0;-64.0;-0.19;0.61;-10.62;0.68;0.4;0.84
1753877891.121525;-13.947;4.437;-0.285;-2.89;-0.88;-5.2;0.0;0.0;0.0;0.0;32.0;24.0;-32.0;-64.0;-0.2;0.61;-10.62;0.64;0.31;1.09
1753877891.126525;-13.947;4.437;-0.285;-2.89;-0.88;-5.2;0.0;0.0;0.0;0.0;32.0;24.0;-32.0;-64.0;-0.19;0.61;-10.62;0.72;0.35;1.18
1753877891.131525;-13.947;4.437;-0.285;-2.89;-0.88;-5.2;0.0;0.0;0.0;0.0;32.0;24.0;-32.0;-64.0;-0.19;0.61;-10.63;0.74;0.32;0.99
1753877891.136525;-13.947;4.437;-0.285;-2.89;-0.88;-5.2;0.0;0.0;0.0;0.0;32.0;24.0;-32.0;-64.0;-0.19;0.6;-10.64;0.83;0.38;0.81
1753877891.141525;-13.947;4.437;-0.285;-2.89;-0.88;-5.2;0.0;0.0;0.0;0.0;32.0;24.0;-32.0;-64.0;-0.19;0.6;-10.65;0.82;0.16;0.97
1753877891.146525;-13.947;4.437;-0.285;-2.89;-0.88;-5.2;0.0;0.0;0.0;0.0;32.0;24.0;-32.0;-64.0;-0.19;0.6;-10.65;0.64;0.35;0.86
1753877891.151525;-13.947;4.437;-0.285;-2.89;-0.88;-5.2;0.0;0.0;0.0;0.0;28.7;24.2;-31.9;-63.6;-0.18;0.59;-10.65;0.63;0.33;0.94
1753877891.156525;-13.947;4.437;-0.285;-2.9;-0.88;-5.2;0.0;0.0;0.0;0.0;34.7;24.1;-31.0;-65.6;-0.19;0.6;-10.64;0.69;0.35;0.86
1753877891.161525;-13.947;4.437;-0.285;-2.9;-0.88;-5.2;0.0;0.0;0.0;0.0;32.3;23.1;-32.3;-64.4;-0.19;0.61;-10.63;0.73;0.32;0.76
1753877891.166525;-13.947;4.437;-0.285;-2.89;-0.88;-5.2;0.0;0.0;0.0;0.0;32.6;24.9;-30.7;-64.5;-0.19;0.59;-10.64;0.53;0.34;0.99
1753877891.171526;-13.947;4.437;-0.285;-2.9;-0.88;-5.2;0.0;0.0;0.0;0.0;34.8;25.6;-31.1;-65.1;-0.19;0.58;-10.66;0.65;0.29;1.01
1753877891.176526;-13.947;4.437;-0.285;-2.89;-0.88;-5.2;0.0;0.0;0.0;0.0;33.3;25.2;-32.5;-64.8;-0.2;0.6;-10.62;0.72;0.36;0.95
1753877891.181526;-13.947;4.437;-0.285;-2.9;-0.88;-5.2;0.0;0.0;0.0;0.0;34.5;24.2;-31.7;-63.1;-0.2;0.59;-10.66;0.76;0.46;0.84
1753877891.186526;-13.947;4.437;-0.285;-2.89;-0.88;-5.2;0.0;0.0;0.0;0.0;32.2;23.2;-31.6;-64.1;-0.19;0.59;-10.65;0.64;0.35;0.98
1753877891.191526;-13.947;4.437;-0.285;-2.89;-0.88;-5.2;0.0;0.0;0.0;0.0;34.2;25.1;-30.8;-64.7;-0.2;0.6;-10.63;0.58;0.3;0.93
1753877891.196526;-13.947;4.437;-0.285;-2.89;-0.88;-5.2;0.0;0.0;0.0;0.0;31.3;25.2;-30.8;-62.7;-0.2;0.6;-10.65;0.66;0.26;0.94
1753877891.201526;-13.947;4.437;-0.285;-2.89;-0.89;-5.2;0.0;0.0;0.0;0.0;34.1;24.6;-30.5;-62.3;-0.19;0.59;-10.63;0.79;0.36;1.02
1753877891.206526;-13.947;4.437;-0.285;-2.89;-0.88;-5.2;0.0;0.0;0.0;0.0;30.7;24.2;-31.3;-63.9;-0.19;0.6;-10.64;0.78;0.47;0.92
1753877891.211526;-13.947;4.437;-0.285;-2.9;-0.88;-5.2;0.0;0.0;0.0;0.0;30.7;24.5;-30.5;-63.4;-0.2;0.61;-10.66;0.72;0.33;0.89
1753877891.216526;-13.947;4.437;-0.285;-2.9;-0.88;-5.2;0.0;0.0;0.0;0.0;30.3;24.5;-30.5;-64.5;-0.19;0.61;-10.66;0.86;0.3;1.04
1753877891.221526;-13.947;4.437;-0.285;-2.9;-0.88;-5.2;0.0;0.0;0.0;0.0;29.5;24.9;-31.3;-63.9;-0.2;0.61;-10.62;0.73;0.24;0.99
1753877891.226527;-13.947;4.437;-0.285;-2.89;-0.89;-5.2;0.0;0.0;0.0;0.0;32.0;24.2;-30.8;-63.5;-0.2;0.59;-10.61;0.7;0.23;0.78
1753877891.231527;-13.947;4.437;-0.285;-2.89;-0.89;-5.2;0.0;0.0;0.0;0.0;28.5;25.0;-30.7;-64.6;-0.19;0.61;-10.65;0.76;0.24;0.78
1753877891.236527;-13.947;4.437;-0.285;-2.9;-0.89;-5.2;0.0;0.0;0.0;0.0;27.6;26.7;-29.7;-65.0;-0.21;0.6;-10.62;0.71;0.26;0.91
1753877891.241527;-13.947;4.437;-0.285;-2.9;-0.88;-5.2;0.0;0.0;0.0;0.0;29.1;25.1;-31.3;-64.3;-0.2;0.58;-10.64;0.82;0.28;1.02
1753877891.246527;-13.947;4.437;-0.285;-2.89;-0.89;-5.2;0.0;0.0;0.0;0.0;31.5;24.9;-31.1;-63.7;-0.2;0.58;-10.63;0.8;0.24;0.82
1753877891.251527;-13.947;4.437;-0.285;-2.9;-0.89;-5.2;0.0;0.0;0.0;0.0;32.6;23.2;-30.0;-63.0;-0.19;0.58;-10.66;0.65;0.27;0.93
1753877891.256528;-13.947;4.437;-0.285;-2.89;-0.89;-5.2;0.0;0.0;0.0;0.0;32.3;26.4;-31.3;-64.0;-0.2;0.6;-10.63;0.74;0.25;0.81
1753877891.261528;-13.947;4.437;-0.285;-2.9;-0.89;-5.2;0.0;0.0;0.0;0.0;31.5;26.5;-32.2;-63.5;-0.19;0.59;-10.62;0.73;0.14;0.81
1753877891.266528;-13.947;4.437;-0.285;-2.91;-0.88;-5.2;0.0;0.0;0.0;0.0;31.9;25.2;-30.7;-62.9;-0.2;0.6;-10.65;0.77;0.33;0.92
1753877891.271528;-13.947;4.437;-0.285;-2.9;-0.89;-5.2;0.0;0.0;0.0;0.0;31.6;24.9;-29.9;-64.4;-0.19;0.59;-10.62;0.69;0.33;0.9
1753877891.276528;-13.947;4.437;-0.285;-2.89;-0.89;-5.2;0.0;0.0;0.0;0.0;32.3;25.2;-30.3;-64.2;-0.2;0.57;-10.64;0.82;0.28;0.88
1753877891.281528;-13.947;4.437;-0.285;-2.89;-0.89;-5.2;0.0;0.0;0.0;0.0;33.1;24.9;-30.6;-64.2;-0.2;0.59;-10.62;0.8;0.3;0.91
1753877891.286528;-13.947;4.437;-0.285;-2.9;-0.89;-5.2;0.0;0.0;0.0;0.0;31.4;27.3;-29.8;-63.6;-0.21;0.6;-10.63;0.7;0.23;0.94
1753877891.291528;-13.947;4.437;-0.285;-2.91;-0.89;-5.2;0.0;0.0;0.0;0.0;28.0;26.0;-30.0;-64.6;-0.2;0.6;-10.64;0.76;0.32;0.84
1753877891.296528;-13.947;4.437;-0.285;-2.9;-0.89;-5.2;0.0;0.0;0.0;0.0;32.0;25.8;-29.3;-64.1;-0.2;0.58;-10.6;0.97;0.35;0.92
1753877891.301525;-13.947;4.437;-0.285;-2.9;-0.89;-5.2;0.0;0.0;0.0;0.0;30.0;26.0;-30.0;-64.0;-0.2;0.59;-10.62;0.77;0.27;0.93
1753877891.306525;-13.947;4.437;-0.285;-2.9;-0.89;-5.2;0.0;0.0;0.0;0.0;30.0;26.0;-30.0;-64.0;-0.2;0.59;-10.63;0.76;0.28;0.99
1753877891.311525;-13.947;4.437;-0.285;-2.9;-0.89;-5.2;0.0;0.0;0.0;0.0;30.0;26.0;-30.0;-64.0;-0.2;0.6;-10.63;0.74;0.38;0.95
1753877891.316525;-13.947;4.437;-0.285;-2.9;-0.89;-5.2;0.0;0.0;0.0;0.0;30.0;26.0;-30.0;-64.0;-0.2;0.6;-10.63;0.76;0.3;0.99
1753877891.321525;-13.947;4.437;-0.285;-2.9;-0.89;-5.2;0.0;0.0;0.0;0.0;30.0;26.0;-30.0;-64.0;-0.2;0.59;-10.63;0.88;0.28;0.93
1753877891.326525;-13.947;4.437;-0.285;-2.9;-0.89;-5.2;0.0;0.0;0.0;0.0;30.0;26.0;-30.0;-64.0;-0.2;0.59;-10.63;0.71;0.25;1.03
1753877891.331525;-13.947;4.437;-0.285;-2.9;-0.89;-5.2;0.0;0.0;0.0;0.0;30.0;26.0;-30.0;-64.0;-0.19;0.6;-10.62;0.71;0.23;0.74
1753877891.336525;-13.947;4.437;-0.285;-2.9;-0.89;-5.2;0.0;0.0;0.0;0.0;30.0;26.0;-30.0;-64.0;-0.2;0.6;-10.63;0.81;0.26;0.85
1753877891.341525;-13.947;4.437;-0.285;-2.9;-0.89;-5.2;0.0;0.0;0.0;0.0;30.0;26.0;-30.0;-64.0;-0.19;0.6;-10.62;0.71;0.31;1.01
1753877891.346525;-13.947;4.437;-0.285;-2.9;-0.89;-5.2;0.0;0.0;0.0;0.0;29.3;25.3;-28.7;-64.3;-0.18;0.61;-10.63;0.73;0.29;1.02
1753877891.351525;-13.947;4.437;-0.285;-2.9;-0.89;-5.2;0.0;0.0;0.0;0.0;31.9;25.3;-31.7;-62.4;-0.18;0.6;-10.62;0.74;0.29;0.81
1753877891.356526;-13.947;4.437;-0.285;-2.9;-0.89;-5.2;0.0;0.0;0.0;0.0;28.9;25.6;-28.4;-63.7;-0.19;0.61;-10.62;0.69;0.35;1.11
1753877891.361526;-13.947;4.437;-0.285;-2.9;-0.89;-5.2;0.0;0.0;0.0;0.0;30.4;22.7;-30.6;-63.8;-0.18;0.61;-10.62;0.73;0.36;0.79
1753877891.366526;-13.947;4.437;-0.285;-2.91;-0.89;-5.2;0.0;0.0;0.0;0.0;31.5;25.8;-30.6;-64.7;-0.18;0.61;-10.62;0.79;0.38;1.07
1753877891.371526;-13.947;4.437;-0.285;-2.9;-0.89;-5.2;0.0;0.0;0.0;0.0;27.4;22.4;-29.8;-62.6;-0.19;0.59;-10.62;0.7;0.35;0.89
1753877891.376526;-13.947;4.437;-0.285;-2.9;-0.91;-5.2;0.0;0.0;0.0;0.0;31.4;26.2;-29.2;-64.1;-0.2;0.6;-10.61;0.67;0.31;1.15
1753877891.381526;-13.947;4.437;-0.285;-2.9;-0.89;-5.2;0.0;0.0;0.0;0.0;30.5;25.5;-29.1;-63.9;-0.17;0.6;-10.63;0.69;0.3;0.82
1753877891.386526;-13.947;4.437;-0.285;-2.9;-0.89;-5.2;0.0;0.0;0.0;0.0;30.4;23.5;-30.1;-63.6;-0.18;0.59;-10.62;0.67;0.36;0.86
1753877891.391526;-13.947;4.437;-0.285;-2.9;-0.89;-5.2;0.0;0.0;0.0;0.0;29.9;22.9;-29.5;-63.5;-0.18;0.6;-10.63;0.61;0.35;1.14
1753877891.396526;-13.947;4.437;-0.285;-2.89;-0.88;-5.2;0.0;0.0;0.0;0.0;28.5;23.9;-30.2;-64.6;-0.18;0.59;-10.63;0.84;0.36;1.09
1753877891.401526;-13.947;4.437;-0.285;-2.91;-0.89;-5.2;0.0;0.0;0.0;0.0;28.4;20.5;-29.2;-63.5;-0.18;0.6;-10.62;0.63;0.32;1.12
1753877891.406526;-13.947;4.437;-0.285;-2.91;-0.89;-5.2;0.0;0.0;0.0;0.0;31.7;20.1;-31.6;-64.0;-0.19;0.61;-10.62;0.64;0.33;1.06
1753877891.411527;-13.947;4.437;-0.285;-2.91;-0.88;-5.2;0.0;0.0;0.0;0.0;29.0;22.7;-31.4;-64.4;-0.18;0.6;-10.6;0.72;0.42;1.0
1753877891.416527;-13.947;4.437;-0.285;-2.9;-0.88;-5.2;0.0;0.0;0.0;0.0;31.6;21.6;-29.8;-63.6;-0.18;0.61;-10.62;0.76;0.39;1.14
1753877891.421527;-13.947;4.437;-0.285;-2.9;-0.89;-5.2;0.0;0.0;0.0;0.0;29.3;22.7;-29.3;-64.4;-0.18;0.6;-10.62;0.8;0.44;0.98
1753877891.426527;-13.947;4.437;-0.285;-2.9;-0.89;-5.2;0.0;0.0;0.0;0.0;29.9;21.3;-30.4;-63.6;-0.18;0.6;-10.63;0.79;0.48;1.1
1753877891.431527;-13.947;4.437;-0.285;-2.9;-0.89;-5.2;0.0;0.0;0.0;0.0;27.5;22.9;-29.7;-63.5;-0.19;0.6;-10.62;0.75;0.47;0.85
1753877891.436527;-13.947;4.437;-0.285;-2.9;-0.9;-5.2;0.0;0.0;0.0;0.0;28.1;24.7;-29.3;-62.9;-0.18;0.6;-10.62;0.62;0.43;0.86
1753877891.441527;-13.947;4.437;-0.285;-2.9;-0.89;-5.2;0.0;0.0;0.0;0.0;28.7;19.3;-30.2;-64.4;-0.19;0.6;-10.62;0.74;0.54;1.16
1753877891.446528;-13.947;4.437;-0.285;-2.9;-0.89;-5.2;0.0;0.0;0.0;0.0;28.1;18.5;-29.3;-62.3;-0.18;0.59;-10.63;0.75;0.35;0.93
1753877891.451528;-13.947;4.437;-0.285;-2.9;-0.89;-5.2;0.0;0.0;0.0;0.0;29.0;19.1;-31.0;-63.8;-0.17;0.61;-10.63;0.62;0.43;1.11
1753877891.456528;-13.947;4.437;-0.285;-2.9;-0.9;-5.2;0.0;0.0;0.0;0.0;29.7;21.2;-30.2;-64.0;-0.17;0.59;-10.62;0.72;0.57;1.13
1753877891.461528;-13.947;4.437;-0.285;-2.9;-0.88;-5.2;0.0;0.0;0.0;0.0;25.7;20.6;-31.5;-63.6;-0.17;0.6;-10.65;0.7;0.35;0.98
1753877891.466528;-13.947;4.437;-0.285;-2.89;-0.9;-5.2;0.0;0.0;0.0;0.0;30.0;18.1;-32.7;-63.7;-0.17;0.6;-10.62;0.66;0.49;0.97
1753877891.471528;-13.947;4.437;-0.285;-2.9;-0.88;-5.2;0.0;0.0;0.0;0.0;27.8;19.5;-29.6;-62.7;-0.17;0.59;-10.61;0.71;0.45;0.83
1753877891.476528;-13.947;4.437;-0.285;-2.9;-0.89;-5.2;0.0;0.0;0.0;0.0;29.2;18.5;-30.0;-62.6;-0.17;0.6;-10.63;0.76;0.51;0.87
1753877891.481525;-13.947;4.437;-0.285;-2.9;-0.89;-5.2;0.0;0.0;0.0;0.0;29.0;19.0;-30.0;-63.0;-0.17;0.6;-10.62;0.71;0.46;0.96
1753877891.486525;-13.947;4.437;-0.285;-2.9;-0.89;-5.2;0.0;0.0;0.0;0.0;29.0;19.0;-30.0;-63.0;-0.17;0.6;-10.62;0.72;0.23;1.0
1753877891.491525;-13.947;4.437;-0.285;-2.9;-0.89;-5.2;0.0;0.0;0.0;0.0;29.0;19.0;-30.0;-63.0;-0.16;0.6;-10.62;0.76;0.16;0.89
1753877891.496525;-13.947;4.437;-0.285;-2.9;-0.89;-5.2;0.0;0.0;0.0;0.0;29.0;19.0;-30.0;-63.0;-0.16;0.6;-10.62;0.69;0.35;0.99
1753877891.501525;-13.947;4.437;-0.285;-2.9;-0.89;-5.2;0.0;0.0;0.0;0.0;29.0;19.0;-30.0;-63.0;-0.16;0.6;-10.62;0.58;0.25;0.89
1753877891.506525;-13.947;4.437;-0.285;-2.9;-0.89;-5.2;0.0;0.0;0.0;0.0;29.0;19.0;-30.0;-63.0;-0.17;0.6;-10.63;0.67;0.25;0.91
1753877891.511525;-13.947;4.437;-0.285;-2.9;-0.89;-5.2;0.0;0.0;0.0;0.0;29.0;19.0;-30.0;-63.0;-0.17;0.6;-10.63;0.7;0.4;0.83
1753877891.516525;-13.947;4.437;-0.285;-2.9;-0.89;-5.2;0.0;0.0;0.0;0.0;29.0;19.0;-30.0;-63.0;-0.17;0.6;-10.63;0.8;0.28;0.74
1753877891.521525;-13.947;4.437;-0.285;-2.89;-0.89;-5.2;0.0;0.0;0.0;0.0;28.5;15.3;-30.0;-63.6;-0.18;0.6;-10.61;0.88;0.45;0.64
1753877891.526525;-13.947;4.437;-0.285;-2.92;-0.89;-5.2;0.0;0.0;0.0;0.0;29.9;20.4;-27.6;-65.4;-0.18;0.6;-10.63;0.84;0.18;0.82
1753877891.531525;-13.947;4.437;-0.285;-2.91;-0.87;-5.2;0.0;0.0;0.0;0.0;29.5;25.9;-30.1;-65.3;-0.17;0.61;-10.64;0.78;0.37;0.89
1753877891.536526;-13.947;4.437;-0.285;-2.91;-0.9;-5.2;0.0;0.0;0.0;0.0;27.3;15.3;-28.5;-63.9;-0.15;0.6;-10.62;0.69;0.33;0.77
1753877891.541526;-13.947;4.437;-0.285;-2.89;-0.9;-5.2;0.0;0.0;0.0;0.0;28.2;20.5;-29.3;-66.7;-0.16;0.59;-10.63;0.7;0.46;0.65
1753877891.546526;-13.947;4.437;-0.285;-2.9;-0.88;-5.2;0.0;0.0;0.0;0.0;28.8;18.2;-30.4;-65.6;-0.16;0.6;-10.64;0.78;0.36;0.71
1753877891.551526;-13.947;4.437;-0.285;-2.9;-0.88;-5.2;0.0;0.0;0.0;0.0;28.7;16.9;-28.7;-64.0;-0.18;0.6;-10.65;0.72;0.31;0.83
1753877891.556526;-13.947;4.437;-0.285;-2.9;-0.9;-5.2;0.0;0.0;0.0;0.0;29.5;17.2;-29.6;-65.9;-0.17;0.59;-10.64;0.72;0.39;0.85
1753877891.561526;-13.947;4.437;-0.285;-2.92;-0.87;-5.2;0.0;0.0;0.0;0.0;28.8;14.4;-27.5;-66.1;-0.18;0.6;-10.63;0.81;0.26;0.79
1753877891.566526;-13.947;4.437;-0.285;-2.91;-0.88;-5.2;0.0;0.0;0.0;0.0;29.9;21.7;-27.8;-66.2;-0.18;0.6;-10.64;0.73;0.4;0.98
1753877891.571526;-13.947;4.437;-0.285;-2.91;-0.87;-5.2;0.0;0.0;0.0;0.0;29.4;18.5;-28.4;-67.8;-0.18;0.6;-10.67;0.79;0.37;0.76
1753877891.576526;-13.947;4.437;-0.285;-2.91;-0.89;-5.2;0.0;0.0;0.0;0.0;27.2;14.0;-28.1;-66.1;-0.2;0.6;-10.62;0.66;0.35;0.87
1753877891.581526;-13.947;4.437;-0.285;-2.91;-0.87;-5.2;0.0;0.0;0.0;0.0;30.0;16.5;-28.3;-65.1;-0.18;0.59;-10.65;0.75;0.31;0.82
1753877891.586527;-13.947;4.437;-0.285;-2.9;-0.87;-5.2;0.0;0.0;0.0;0.0;29.4;18.9;-27.7;-67.3;-0.16;0.6;-10.64;0.77;0.35;0.95
1753877891.591527;-13.947;4.437;-0.285;-2.92;-0.88;-5.2;0.0;0.0;0.0;0.0;30.2;20.7;-28.6;-65.7;-0.19;0.6;-10.63;0.66;0.31;0.98
1753877891.596527;-13.947;4.437;-0.285;-2.91;-0.88;-5.2;0.0;0.0;0.0;0.0;30.1;23.2;-30.0;-68.1;-0.19;0.59;-10.62;0.74;0.27;0.71
1753877891.601527;-13.947;4.437;-0.285;-2.9;-0.86;-5.2;0.0;0.0;0.0;0.0;27.4;23.2;-26.6;-67.3;-0.2;0.6;-10.64;0.72;0.54;0.92
1753877891.606527;-13.947;4.437;-0.285;-2.92;-0.88;-5.2;0.0;0.0;0.0;0.0;30.0;16.3;-27.1;-68.0;-0.18;0.59;-10.63;0.77;0.51;0.98
1753877891.611527;-13.947;4.437;-0.285;-2.91;-0.87;-5.2;0.0;0.0;0.0;0.0;29.0;20.8;-27.1;-67.5;-0.19;0.59;-10.64;0.66;0.34;1.0
1753877891.616527;-13.947;4.437;-0.285;-2.91;-0.87;-5.2;0.0;0.0;0.0;0.0;29.1;25.7;-28.4;-69.4;-0.18;0.6;-10.64;0.72;0.42;0.95
1753877891.621528;-13.947;4.437;-0.285;-2.91;-0.88;-5.2;0.0;0.0;0.0;0.0;29.2;14.1;-27.3;-69.2;-0.2;0.59;-10.64;0.77;0.39;0.83
1753877891.626528;-13.947;4.437;-0.285;-2.91;-0.87;-5.2;0.0;0.0;0.0;0.0;29.8;17.8;-27.4;-66.3;-0.17;0.59;-10.64;0.66;0.52;0.76
1753877891.631528;-13.947;4.437;-0.285;-2.91;-0.85;-5.2;0.0;0.0;0.0;0.0;28.2;22.3;-27.3;-69.3;-0.16;0.6;-10.66;0.75;0.55;0.93
1753877891.636528;-13.947;4.437;-0.285;-2.91;-0.86;-5.2;0.0;0.0;0.0;0.0;30.2;25.2;-28.3;-69.0;-0.18;0.59;-10.65;0.74;0.48;1.02
1753877891.641528;-13.947;4.437;-0.285;-2.92;-0.86;-5.2;0.0;0.0;0.0;0.0;30.6;21.8;-28.3;-70.6;-0.18;0.59;-10.62;0.77;0.39;0.94
1753877891.646528;-13.947;4.437;-0.285;-2.93;-0.87;-5.2;0.0;0.0;0.0;0.0;29.3;22.1;-26.8;-68.6;-0.2;0.59;-10.64;0.74;0.28;0.81
1753877891.651528;-13.947;4.437;-0.285;-2.92;-0.85;-5.2;0.0;0.0;0.0;0.0;28.3;23.1;-26.6;-64.9;-0.19;0.6;-10.64;0.83;0.44;0.9
1753877891.656528;-13.947;4.437;-0.285;-2.93;-0.86;-5.2;0.0;0.0;0.0;0.0;29.3;21.1;-26.8;-69.6;-0.22;0.59;-10.64;0.82;0.5;0.94
1753877891.661525;-13.947;4.437;-0.285;-2.92;-0.86;-5.2;0.0;0.0;0.0;0.0;29.0;22.0;-27.0;-70.0;-0.19;0.59;-10.64;0.71;0.41;1.01
1753877891.666525;-13.947;4.437;-0.285;-2.92;-0.86;-5.2;0.0;0.0;0.0;0.0;29.0;22.0;-27.0;-70.0;-0.2;0.59;-10.63;0.67;0.41;0.98
1753877891.671525;-13.947;4.437;-0.285;-2.92;-0.86;-5.2;0.0;0.0;0.0;0.0;29.0;22.0;-27.0;-70.0;-0.2;0.59;-10.64;0.8;0.31;0.88
1753877891.676525;-13.947;4.437;-0.285;-2.92;-0.86;-5.2;0.0;0.0;0.0;0.0;29.0;22.0;-27.0;-70.0;-0.2;0.59;-10.64;0.7;0.38;0.99
1753877891.681525;-13.947;4.437;-0.285;-2.92;-0.86;-5.2;0.0;0.0;0.0;0.0;29.0;22.0;-27.0;-70.0;-0.2;0.59;-10.63;0.69;0.27;1.09
1753877891.686525;-13.947;4.437;-0.285;-2.92;-0.86;-5.2;0.0;0.0;0.0;0.0;29.0;22.0;-27.0;-70.0;-0.2;0.59;-10.63;0.68;0.35;1.03
1753877891.691525;-13.947;4.437;-0.285;-2.92;-0.86;-5.2;0.0;0.0;0.0;0.0;29.0;22.0;-27.0;-70.0;-0.2;0.59;-10.63;0.82;0.18;0.96
1753877891.696525;-13.947;4.437;-0.285;-2.92;-0.86;-5.2;0.0;0.0;0.0;0.0;29.0;22.0;-27.0;-70.0;-0.2;0.59;-10.63;0.71;0.21;1.01
1753877891.701525;-13.947;4.437;-0.285;-2.92;-0.86;-5.2;0.0;0.0;0.0;0.0;29.0;22.0;-27.0;-70.0;-0.2;0.59;-10.63;0.68;0.44;0.84
1753877891.706525;-13.947;4.437;-0.285;-2.92;-0.86;-5.2;0.0;0.0;0.0;0.0;29.0;22.0;-27.0;-70.0;-0.2;0.59;-10.63;0.64;0.22;0.99
1753877891.711525;-13.947;4.437;-0.285;-2.92;-0.86;-5.2;0.0;0.0;0.0;0.0;29.0;22.0;-27.0;-70.0;-0.2;0.59;-10.63;0.69;0.13;1.09
1753877891.716525;-13.947;4.437;-0.285;-2.92;-0.86;-5.2;0.0;0.0;0.0;0.0;29.0;22.0;-27.0;-70.0;-0.2;0.59;-10.63;0.62;0.38;1.04
1753877891.721525;-13.947;4.437;-0.285;-2.92;-0.86;-5.2;0.0;0.0;0.0;0.0;29.0;22.0;-27.0;-70.0;-0.2;0.6;-10.64;0.57;0.38;1.01
1753877891.726525;-13.947;4.437;-0.285;-2.92;-0.86;-5.2;0.0;0.0;0.0;0.0;29.0;22.0;-27.0;-70.0;-0.2;0.6;-10.64;0.7;0.38;0.93
1753877891.731525;-13.947;4.437;-0.285;-2.92;-0.86;-5.2;0.0;0.0;0.0;0.0;29.0;22.0;-27.0;-70.0;-0.2;0.61;-10.64;0.69;0.4;0.98
1753877891.736525;-13.947;4.437;-0.285;-2.92;-0.86;-5.2;0.0;0.0;0.0;0.0;29.0;22.0;-27.0;-70.0;-0.2;0.6;-10.64;0.59;0.42;0.94
1753877891.741525;-13.947;4.437;-0.285;-2.92;-0.87;-5.2;0.0;0.0;0.0;0.0;29.0;20.6;-25.4;-69.1;-0.2;0.6;-10.65;0.63;0.51;0.82
1753877891.746525;-13.947;4.437;-0.285;-2.93;-0.85;-5.2;0.0;0.0;0.0;0.0;29.0;20.7;-25.9;-70.5;-0.18;0.6;-10.64;0.58;0.35;0.96
1753877891.751526;-13.947;4.437;-0.285;-2.91;-0.86;-5.2;0.0;0.0;0.0;0.0;29.0;23.3;-26.6;-66.4;-0.21;0.59;-10.63;0.51;0.56;0.94
1753877891.756526;-13.947;4.437;-0.285;-2.93;-0.86;-5.2;0.0;0.0;0.0;0.0;29.0;20.2;-28.5;-68.7;-0.19;0.57;-10.63;0.56;0.42;0.94
1753877891.761526;-13.947;4.437;-0.285;-2.91;-0.84;-5.2;0.0;0.0;0.0;0.0;29.0;21.0;-29.7;-70.5;-0.18;0.61;-10.63;0.5;0.47;0.85
1753877891.766526;-13.947;4.437;-0.285;-2.91;-0.87;-5.2;0.0;0.0;0.0;0.0;29.0;22.6;-26.0;-68.8;-0.17;0.61;-10.63;0.59;0.29;0.89
1753877891.771526;-13.947;4.437;-0.285;-2.92;-0.86;-5.2;0.0;0.0;0.0;0.0;29.0;21.9;-28.0;-75.6;-0.19;0.6;-10.65;0.66;0.32;0.75
1753877891.776526;-13.947;4.437;-0.285;-2.92;-0.87;-5.2;0.0;0.0;0.0;0.0;29.0;21.7;-26.2;-77.1;-0.21;0.61;-10.64;0.6;0.38;0.83
1753877891.781526;-13.947;4.437;-0.285;-2.91;-0.88;-5.2;0.0;0.0;0.0;0.0;29.0;21.5;-25.7;-72.3;-0.19;0.6;-10.63;0.71;0.3;1.02
1753877891.786526;-13.947;4.437;-0.285;-2.91;-0.85;-5.2;0.0;0.0;0.0;0.0;29.0;21.7;-25.3;-68.4;-0.2;0.59;-10.64;0.68;0.27;0.87
1753877891.791526;-13.947;4.437;-0.285;-2.91;-0.87;-5.2;0.0;0.0;0.0;0.0;29.0;22.2;-27.3;-68.8;-0.2;0.61;-10.65;0.58;0.28;0.88
1753877891.796526;-13.947;4.437;-0.285;-2.91;-0.86;-5.2;0.0;0.0;0.0;0.0;29.0;22.9;-27.1;-71.7;-0.19;0.61;-10.64;0.6;0.36;0.94
1753877891.801526;-13.947;4.437;-0.285;-2.91;-0.87;-5.2;0.0;0.0;0.0;0.0;29.0;22.7;-27.2;-69.4;-0.2;0.6;-10.64;0.61;0.31;0.74
1753877891.806527;-13.947;4.437;-0.285;-2.92;-0.85;-5.2;0.0;0.0;0.0;0.0;29.0;22.0;-27.0;-70.1;-0.18;0.6;-10.64;0.76;0.22;1.0
1753877891.811527;-13.947;4.437;-0.285;-2.92;-0.87;-5.2;0.0;0.0;0.0;0.0;29.0;20.7;-28.5;-74.1;-0.19;0.6;-10.64;0.57;0.34;0.73
1753877891.816527;-13.947;4.437;-0.285;-2.92;-0.85;-5.2;0.0;0.0;0.0;0.0;29.0;22.7;-27.2;-72.5;-0.22;0.61;-10.63;0.72;0.22;0.98
1753877891.821527;-13.947;4.437;-0.285;-2.92;-0.86;-5.2;0.0;0.0;0.0;0.0;29.0;23.8;-25.5;-73.1;-0.17;0.62;-10.64;0.61;0.31;1.01
1753877891.826527;-13.947;4.437;-0.285;-2.92;-0.88;-5.2;0.0;0.0;0.0;0.0;29.0;22.4;-27.9;-68.3;-0.19;0.61;-10.64;0.7;0.38;0.9
1753877891.831527;-13.947;4.437;-0.285;-2.92;-0.88;-5.2;0.0;0.0;0.0;0.0;29.0;20.9;-26.8;-70.7;-0.17;0.61;-10.63;0.67;0.09;0.96
1753877891.836527;-13.947;4.437;-0.285;-2.92;-0.89;-5.2;0.0;0.0;0.0;0.0;29.0;21.8;-27.5;-71.7;-0.16;0.61;-10.64;0.65;0.15;0.85
1753877891.841528;-13.947;4.437;-0.285;-2.91;-0.87;-5.2;0.0;0.0;0.0;0.0;29.0;23.3;-24.9;-71.6;-0.17;0.61;-10.64;0.61;0.17;0.87
1753877891.846528;-13.947;4.437;-0.285;-2.92;-0.89;-5.2;0.0;0.0;0.0;0.0;29.0;21.0;-27.1;-65.6;-0.19;0.6;-10.64;0.66;0.21;1.03
1753877891.851525;-13.947;4.437;-0.285;-2.92;-0.86;-5.2;0.0;0.0;0.0;0.0;29.0;22.0;-27.0;-70.0;-0.18;0.61;-10.64;0.67;0.18;0.89
1753877891.856525;-13.947;4.437;-0.285;-2.92;-0.86;-5.2;0.0;0.0;0.0;0.0;29.0;22.0;-27.0;-70.0;-0.19;0.61;-10.64;0.57;0.37;0.9
1753877891.861525;-13.947;4.437;-0.285;-2.92;-0.86;-5.2;0.0;0.0;0.0;0.0;29.0;22.0;-27.0;-70.0;-0.2;0.61;-10.64;0.77;0.39;0.99
1753877891.866525;-13.947;4.437;-0.285;-2.92;-0.86;-5.2;0.0;0.0;0.0;0.0;29.0;22.0;-27.0;-70.0;-0.2;0.61;-10.65;0.77;0.32;0.93
1753877891.871525;-13.947;4.437;-0.285;-2.92;-0.86;-5.2;0.0;0.0;0.0;0.0;29.0;22.0;-27.0;-70.0;-0.2;0.6;-10.65;0.74;0.46;0.8
1753877891.876525;-13.947;4.437;-0.285;-2.92;-0.86;-5.2;0.0;0.0;0.0;0.0;29.0;22.0;-27.0;-70.0;-0.2;0.61;-10.65;0.56;0.41;0.85
1753877891.881525;-13.947;4.437;-0.285;-2.92;-0.86;-5.2;0.0;0.0;0.0;0.0;29.0;22.0;-27.0;-70.0;-0.19;0.6;-10.65;0.69;0.35;0.94
1753877891.886525;-13.947;4.437;-0.285;-2.92;-0.86;-5.2;0.0;0.0;0.0;0.0;29.0;22.0;-27.0;-70.0;-0.19;0.61;-10.64;0.64;0.29;1.02
1753877891.891525;-13.947;4.437;-0.285;-2.92;-0.86;-5.2;0.0;0.0;0.0;0.0;29.0;22.0;-27.0;-70.0;-0.2;0.61;-10.64;0.7;0.28;0.86
1753877891.896525;-13.947;4.437;-0.285;-2.92;-0.86;-5.2;0.0;0.0;0.0;0.0;29.0;22.0;-27.0;-70.0;-0.2;0.6;-10.64;0.68;0.41;0.97
1753877891.901525;-13.947;4.437;-0.285;-2.92;-0.86;-5.2;0.0;0.0;0.0;0.0;29.0;22.0;-27.0;-70.0;-0.2;0.6;-10.65;0.72;0.32;0.94
1753877891.906525;-13.947;4.437;-0.285;-2.92;-0.86;-5.2;0.0;0.0;0.0;0.0;29.0;22.0;-27.0;-70.0;-0.21;0.61;-10.64;0.72;0.3;0.89
1753877891.911525;-13.947;4.437;-0.285;-2.92;-0.86;-5.2;0.0;0.0;0.0;0.0;29.0;22.0;-27.0;-70.0;-0.21;0.61;-10.64;0.72;0.39;0.92
1753877891.916525;-13.947;4.437;-0.285;-2.92;-0.86;-5.2;0.0;0.0;0.0;0.0;29.0;22.0;-27.0;-70.0;-0.2;0.61;-10.65;0.69;0.41;0.87
1753877891.921525;-13.947;4.437;-0.285;-2.92;-0.86;-5.2;0.0;0.0;0.0;0.0;29.0;22.0;-27.0;-70.0;-0.2;0.61;-10.64;0.65;0.37;0.92
1753877891.926525;-13.947;4.437;-0.285;-2.92;-0.86;-5.2;0.0;0.0;0.0;0.0;29.0;22.0;-27.0;-70.0;-0.2;0.61;-10.64;0.59;0.36;0.91
1753877891.931525;-13.947;4.437;-0.285;-2.92;-0.86;-5.2;0.0;0.0;0.0;0.0;29.0;22.0;-27.0;-70.0;-0.2;0.61;-10.64;0.67;0.19;0.93
1753877891.936525;-13.947;4.437;-0.285;-2.92;-0.86;-5.2;0.0;0.0;0.0;0.0;29.0;22.0;-27.0;-70.0;-0.2;0.61;-10.63;0.74;0.38;0.99
1753877891.941525;-13.947;4.437;-0.285;-2.92;-0.86;-5.2;0.0;0.0;0.0;0.0;29.0;22.0;-27.0;-70.0;-0.21;0.61;-10.63;0.59;0.26;0.93
1753877891.946525;-13.947;4.437;-0.285;-2.92;-0.86;-5.2;0.0;0.0;0.0;0.0;29.0;22.0;-27.0;-70.0;-0.2;0.61;-10.63;0.7;0.31;1.05
1753877891.951525;-13.947;4.437;-0.285;-2.92;-0.86;-5.2;0.0;0.0;0.0;0.0;29.0;22.0;-27.0;-70.0;-0.2;0.61;-10.62;0.63;0.33;0.93
1753877891.956525;-13.947;4.437;-0.285;-2.92;-0.86;-5.2;0.0;0.0;0.0;0.0;29.0;22.0;-27.0;-70.0;-0.2;0.61;-10.62;0.7;0.37;0.96
1753877891.961525;-13.947;4.437;-0.285;-2.92;-0.86;-5.2;0.0;0.0;0.0;0.0;29.0;22.0;-27.0;-70.0;-0.2;0.61;-10.63;0.65;0.28;0.87
1753877891.966525;-13.947;4.437;-0.285;-2.92;-0.86;-5.2;0.0;0.0;0.0;0.0;29.0;22.0;-27.0;-70.0;-0.2;0.61;-10.63;0.82;0.32;0.97
1753877891.971525;-13.947;4.437;-0.285;-2.92;-0.86;-5.2;0.0;0.0;0.0;0.0;29.0;22.0;-27.0;-70.0;-0.2;0.61;-10.63;0.85;0.34;0.87
1753877891.976525;-13.947;4.437;-0.285;-2.92;-0.86;-5.2;0.0;0.0;0.0;0.0;29.0;22.0;-27.0;-70.0;-0.2;0.61;-10.63;0.77;0.37;0.89
1753877891.981525;-13.947;4.437;-0.285;-2.92;-0.86;-5.2;0.0;0.0;0.0;0.0;29.0;22.0;-27.0;-70.0;-0.2;0.61;-10.62;0.69;0.28;0.86
1753877891.986525;-13.947;4.437;-0.285;-2.92;-0.86;-5.2;0.0;0.0;0.0;0.0;29.0;22.0;-27.0;-70.0;-0.2;0.61;-10.63;0.61;0.31;1.04
1753877891.991525;-13.947;4.437;-0.285;-2.92;-0.86;-5.2;0.0;0.0;0.0;0.0;29.0;22.0;-27.0;-70.0;-0.2;0.61;-10.63;0.61;0.25;0.99
1753877891.996525;-13.947;4.437;-0.285;-2.92;-0.86;-5.2;0.0;0.0;0.0;0.0;29.0;22.0;-27.0;-70.0;-0.2;0.61;-10.63;0.77;0.45;0.94
1753877892.001525;-13.947;4.437;-0.285;-2.92;-0.86;-5.2;0.0;0.0;0.0;0.0;29.0;22.0;-27.0;-70.0;-0.2;0.61;-10.62;0.72;0.31;0.9
1753877892.006525;-13.947;4.437;-0.285;-2.92;-0.86;-5.2;0.0;0.0;0.0;0.0;29.0;22.0;-27.0;-70.0;-0.2;0.61;-10.62;0.7;0.39;0.96
1753877892.011525;-13.947;4.437;-0.285;-2.92;-0.86;-5.2;0.0;0.0;0.0;0.0;29.0;22.0;-27.0;-70.0;-0.2;0.61;-10.62;0.7;0.41;0.86
1753877892.016525;-13.947;4.437;-0.285;-2.92;-0.86;-5.2;0.0;0.0;0.0;0.0;29.0;22.0;-27.0;-70.0;-0.2;0.61;-10.61;0.75;0.22;0.96
1753877892.021525;-13.947;4.437;-0.285;-2.92;-0.86;-5.2;0.0;0.0;0.0;0.0;29.0;22.0;-27.0;-70.0;-0.2;0.61;-10.62;0.74;0.37;1.04
1753877892.026525;-13.947;4.437;-0.285;-2.92;-0.86;-5.2;0.0;0.0;0.0;0.0;29.0;22.0;-27.0;-70.0;-0.2;0.61;-10.62;0.59;0.25;0.95
1753877892.031525;-13.947;4.437;-0.285;-2.92;-0.86;-5.2;0.0;0.0;0.0;0.0;29.0;22.0;-27.0;-70.0;-0.19;0.61;-10.62;0.67;0.36;0.97
1753877892.036525;-13.947;4.437;-0.285;-2.92;-0.86;-5.2;0.0;0.0;0.0;0.0;29.0;22.0;-27.0;-70.0;-0.2;0.61;-10.63;0.68;0.27;0.96
1753877892.041525;-13.947;4.437;-0.285;-2.92;-0.86;-5.2;0.0;0.0;0.0;0.0;29.0;22.0;-27.0;-70.0;-0.2;0.61;-10.63;0.57;0.23;0.88
1753877892.046525;-13.947;4.437;-0.285;-2.92;-0.86;-5.2;0.0;0.0;0.0;0.0;29.0;22.0;-27.0;-70.0;-0.2;0.61;-10.62;0.68;0.39;0.99
1753877892.051525;-13.947;4.437;-0.285;-2.92;-0.86;-5.2;0.0;0.0;0.0;0.0;29.0;22.0;-27.0;-70.0;-0.19;0.61;-10.63;0.8;0.31;1.01
1753877892.056525;-13.947;4.437;-0.285;-2.92;-0.86;-5.2;0.0;0.0;0.0;0.0;29.0;22.0;-27.0;-70.0;-0.19;0.6;-10.64;0.73;0.35;0.96
1753877892.061525;-13.947;4.437;-0.285;-2.92;-0.86;-5.2;0.0;0.0;0.0;0.0;29.0;22.0;-27.0;-70.0;-0.19;0.6;-10.64;0.64;0.43;1.0
1753877892.066525;-13.947;4.437;-0.285;-2.92;-0.86;-5.2;0.0;0.0;0.0;0.0;29.0;22.0;-27.0;-70.0;-0.19;0.61;-10.63;0.65;0.42;1.1
1753877892.071525;-13.947;4.437;-0.285;-2.92;-0.86;-5.2;0.0;0.0;0.0;0.0;29.0;22.0;-27.0;-70.0;-0.19;0.6;-10.64;0.62;0.37;0.99
1753877892.076525;-13.947;4.437;-0.285;-2.92;-0.86;-5.2;0.0;0.0;0.0;0.0;29.0;22.0;-27.0;-70.0;-0.19;0.6;-10.64;0.83;0.44;0.91
1753877892.081525;-13.947;4.437;-0.285;-2.92;-0.86;-5.2;0.0;0.0;0.0;0.0;29.0;22.0;-27.0;-70.0;-0.19;0.6;-10.64;0.57;0.32;0.9
1753877892.086525;-13.947;4.437;-0.285;-2.92;-0.86;-5.2;0.0;0.0;0.0;0.0;29.0;22.0;-27.0;-70.0;-0.19;0.6;-10.64;0.66;0.41;0.99
1753877892.091525;-13.947;4.437;-0.285;-2.92;-0.86;-5.2;0.0;0.0;0.0;0.0;29.0;22.0;-27.0;-70.0;-0.18;0.6;-10.65;0.75;0.39;0.91
1753877892.096525;-13.947;4.437;-0.285;-2.92;-0.86;-5.2;0.0;0.0;0.0;0.0;29.0;22.0;-27.0;-70.0;-0.18;0.59;-10.64;0.87;0.41;0.97
1753877892.101525;-13.947;4.437;-0.285;-2.92;-0.86;-5.2;0.0;0.0;0.0;0.0;29.0;22.0;-27.0;-70.0;-0.18;0.59;-10.64;0.89;0.28;0.91
1753877892.106525;-13.947;4.437;-0.285;-2.92;-0.86;-5.2;0.0;0.0;0.0;0.0;29.0;22.0;-27.0;-70.0;-0.18;0.59;-10.63;0.8;0.19;1.09
1753877892.111525;-13.947;4.437;-0.285;-2.92;-0.86;-5.2;0.0;0.0;0.0;0.0;29.0;22.0;-27.0;-70.0;-0.19;0.59;-10.63;0.64;0.5;1.06
1753877892.116525;-13.947;4.437;-0.285;-2.92;-0.86;-5.2;0.0;0.0;0.0;0.0;29.0;22.0;-27.0;-70.0;-0.19;0.59;-10.63;0.65;0.27;0.95
1753877892.121525;-13.947;4.437;-0.285;-2.92;-0.86;-5.2;0.0;0.0;0.0;0.0;29.0;22.0;-27.0;-70.0;-0.18;0.59;-10.64;0.7;0.3;1.03
1753877892.126525;-13.947;4.437;-0.285;-2.92;-0.86;-5.2;0.0;0.0;0.0;0.0;29.0;22.0;-27.0;-70.0;-0.18;0.6;-10.63;0.55;0.24;0.88
1753877892.131525;-13.947;4.437;-0.285;-2.92;-0.86;-5.2;0.0;0.0;0.0;0.0;29.0;22.0;-27.0;-70.0;-0.19;0.59;-10.63;0.7;0.32;0.79
1753877892.136525;-13.947;4.437;-0.285;-2.92;-0.86;-5.2;0.0;0.0;0.0;0.0;29.0;22.0;-27.0;-70.0;-0.19;0.59;-10.63;0.72;0.23;0.96
1753877892.141525;-13.947;4.437;-0.285;-2.92;-0.86;-5.2;0.0;0.0;0.0;0.0;29.0;22.0;-27.0;-70.0;-0.19;0.59;-10.62;0.7;0.36;0.88
1753877892.146525;-13.947;4.437;-0.285;-2.92;-0.86;-5.2;0.0;0.0;0.0;0.0;29.0;22.0;-27.0;-70.0;-0.19;0.6;-10.62;0.82;0.25;1.06
1753877892.151525;-13.947;4.437;-0.285;-2.92;-0.86;-5.2;0.0;0.0;0.0;0.0;29.0;22.0;-27.0;-70.0;-0.19;0.6;-10.62;0.76;0.41;0.93
1753877892.156525;-13.947;4.437;-0.285;-2.92;-0.86;-5.2;0.0;0.0;0.0;0.0;29.0;22.0;-27.0;-70.0;-0.19;0.6;-10.62;0.72;0.41;0.93
1753877892.161525;-13.947;4.437;-0.285;-2.92;-0.86;-5.2;0.0;0.0;0.0;0.0;29.0;22.0;-27.0;-70.0;-0.2;0.6;-10.62;0.67;0.22;0.77
1753877892.166525;-13.947;4.437;-0.285;-2.92;-0.86;-5.2;0.0;0.0;0.0;0.0;29.0;22.0;-27.0;-70.0;-0.2;0.6;-10.62;0.78;0.35;0.98
1753877892.171525;-13.947;4.437;-0.285;-2.92;-0.86;-5.2;0.0;0.0;0.0;0.0;29.0;22.0;-27.0;-70.0;-0.19;0.6;-10.63;0.65;0.35;1.03
1753877892.176525;-13.947;4.437;-0.285;-2.92;-0.86;-5.2;0.0;0.0;0.0;0.0;29.0;22.0;-27.0;-70.0;-0.19;0.6;-10.62;0.81;0.28;1.02
1753877892.181525;-13.947;4.437;-0.285;-2.92;-0.86;-5.2;0.0;0.0;0.0;0.0;29.0;22.0;-27.0;-70.0;-0.19;0.59;-10.62;0.71;0.41;1.02
1753877892.186525;-13.947;4.437;-0.285;-2.92;-0.86;-5.2;0.0;0.0;0.0;0.0;29.0;22.0;-27.0;-70.0;-0.19;0.59;-10.62;0.69;0.38;0.95
1753877892.191525;-13.947;4.437;-0.285;-2.92;-0.86;-5.2;0.0;0.0;0.0;0.0;29.0;22.0;-27.0;-70.0;-0.19;0.6;-10.62;0.7;0.22;0.99
1753877892.196525;-13.947;4.437;-0.285;-2.92;-0.86;-5.2;0.0;0.0;0.0;0.0;29.0;22.0;-27.0;-70.0;-0.18;0.6;-10.63;0.67;0.35;1.08
1753877892.201525;-13.947;4.437;-0.285;-2.92;-0.86;-5.2;0.0;0.0;0.0;0.0;29.0;22.0;-27.0;-70.0;-0.19;0.6;-10.63;0.74;0.26;1.09
1753877892.206525;-13.947;4.437;-0.285;-2.92;-0.86;-5.2;0.0;0.0;0.0;0.0;29.0;22.0;-27.0;-70.0;-0.19;0.6;-10.64;0.75;0.16;0.95
1753877892.211525;-13.947;4.437;-0.285;-2.92;-0.86;-5.2;0.0;0.0;0.0;0.0;29.0;22.0;-27.0;-70.0;-0.19;0.6;-10.64;0.68;0.29;0.93
1753877892.216525;-13.947;4.437;-0.285;-2.92;-0.86;-5.2;0.0;0.0;0.0;0.0;29.0;22.0;-27.0;-70.0;-0.18;0.6;-10.64;0.71;0.26;0.9
1753877892.221525;-13.947;4.437;-0.285;-2.92;-0.86;-5.2;0.0;0.0;0.0;0.0;29.0;22.0;-27.0;-70.0;-0.19;0.6;-10.64;0.8;0.12;1.01
1753877892.226525;-13.947;4.437;-0.285;-2.92;-0.86;-5.2;0.0;0.0;0.0;0.0;29.0;22.0;-27.0;-70.0;-0.19;0.6;-10.64;0.72;0.28;0.89
1753877892.231525;-13.947;4.437;-0.285;-2.92;-0.86;-5.2;0.0;0.0;0.0;0.0;29.0;22.0;-27.0;-70.0;-0.19;0.6;-10.64;0.78;0.25;0.91
1753877892.236525;-13.947;4.437;-0.285;-2.92;-0.86;-5.2;0.0;0.0;0.0;0.0;29.0;22.0;-27.0;-70.0;-0.19;0.61;-10.64;0.67;0.31;1.11
1753877892.241525;-13.947;4.437;-0.285;-2.92;-0.86;-5.2;0.0;0.0;0.0;0.0;29.0;22.0;-27.0;-70.0;-0.19;0.61;-10.64;0.68;0.27;0.96
1753877892.246525;-13.947;4.437;-0.285;-2.92;-0.86;-5.2;0.0;0.0;0.0;0.0;29.0;22.0;-27.0;-70.0;-0.18;0.61;-10.64;0.75;0.34;0.86
1753877892.251525;-13.947;4.437;-0.285;-2.92;-0.86;-5.2;0.0;0.0;0.0;0.0;29.0;22.0;-27.0;-70.0;-0.18;0.61;-10.64;0.54;0.34;1.03
1753877892.256525;-13.947;4.437;-0.285;-2.92;-0.86;-5.2;0.0;0.0;0.0;0.0;29.0;22.0;-27.0;-70.0;-0.18;0.61;-10.63;0.81;0.31;1.04
1753877892.261525;-13.947;4.437;-0.285;-2.92;-0.86;-5.2;0.0;0.0;0.0;0.0;29.0;22.0;-27.0;-70.0;-0.18;0.61;-10.63;0.66;0.44;0.87
1753877892.266525;-13.947;4.437;-0.285;-2.92;-0.86;-5.2;0.0;0.0;0.0;0.0;29.0;22.0;-27.0;-70.0;-0.18;0.61;-10.62;0.65;0.28;0.99
1753877892.271525;-13.947;4.437;-0.285;-2.92;-0.86;-5.2;0.0;0.0;0.0;0.0;29.0;22.0;-27.0;-70.0;-0.18;0.61;-10.62;0.6;0.3;0.96
1753877892.276525;-13.947;4.437;-0.285;-2.92;-0.86;-5.2;0.0;0.0;0.0;0.0;29.0;22.0;-27.0;-70.0;-0.17;0.61;-10.61;0.66;0.32;0.96
1753877892.281525;-13.947;4.437;-0.285;-2.92;-0.86;-5.2;0.0;0.0;0.0;0.0;29.0;22.0;-27.0;-70.0;-0.17;0.6;-10.62;0.62;0.35;0.86
1753877892.286525;-13.947;4.437;-0.285;-2.92;-0.86;-5.2;0.0;0.0;0.0;0.0;29.0;22.0;-27.0;-70.0;-0.18;0.61;-10.62;0.78;0.26;1.04
1753877892.291525;-13.947;4.437;-0.285;-2.92;-0.86;-5.2;0.0;0.0;0.0;0.0;29.0;22.0;-27.0;-70.0;-0.18;0.61;-10.62;0.63;0.29;0.8
1753877892.296525;-13.947;4.437;-0.285;-2.92;-0.86;-5.2;0.0;0.0;0.0;0.0;29.0;22.0;-27.0;-70.0;-0.18;0.61;-10.62;0.64;0.3;0.85
1753877892.301525;-13.947;4.437;-0.285;-2.92;-0.86;-5.2;0.0;0.0;0.0;0.0;29.0;22.0;-27.0;-70.0;-0.18;0.61;-10.61;0.65;0.32;0.96
1753877892.306525;-13.947;4.437;-0.285;-2.92;-0.86;-5.2;0.0;0.0;0.0;0.0;29.0;22.0;-27.0;-70.0;-0.18;0.6;-10.61;0.7;0.29;0.92
1753877892.311525;-13.947;4.437;-0.285;-2.92;-0.86;-5.2;0.0;0.0;0.0;0.0;29.0;22.0;-27.0;-70.0;-0.19;0.59;-10.62;0.7;0.38;0.95
1753877892.316525;-13.947;4.437;-0.285;-2.92;-0.86;-5.2;0.0;0.0;0.0;0.0;29.0;22.0;-27.0;-70.0;-0.19;0.59;-10.62;0.62;0.29;0.97
1753877892.321525;-13.947;4.437;-0.285;-2.92;-0.86;-5.2;0.0;0.0;0.0;0.0;28.6;22.9;-30.0;-66.5;-0.18;0.6;-10.62;0.76;0.42;1.1
1753877892.326525;-13.947;4.437;-0.285;-2.92;-0.86;-5.2;0.0;0.0;0.0;0.0;28.0;23.0;-33.0;-62.0;-0.19;0.6;-10.62;0.81;0.3;1.02
1753877892.331525;-13.947;4.437;-0.285;-2.92;-0.86;-5.2;0.0;0.0;0.0;0.0;28.0;23.0;-33.0;-62.0;-0.19;0.6;-10.62;0.81;0.32;1.06
1753877892.336525;-13.947;4.437;-0.285;-2.92;-0.86;-5.2;0.0;0.0;0.0;0.0;28.0;23.0;-33.0;-62.0;-0.19;0.6;-10.62;0.64;0.35;1.05
1753877892.341525;-13.947;4.437;-0.285;-2.92;-0.86;-5.2;0.0;0.0;0.0;0.0;28.0;23.0;-33.0;-62.0;-0.18;0.6;-10.62;0.7;0.34;1.03
1753877892.346525;-13.947;4.437;-0.285;-2.92;-0.86;-5.2;0.0;0.0;0.0;0.0;28.0;23.0;-33.0;-62.0;-0.19;0.6;-10.62;0.84;0.29;0.89
1753877892.351525;-13.947;4.437;-0.285;-2.92;-0.86;-5.2;0.0;0.0;0.0;0.0;28.0;23.0;-33.0;-62.0;-0.19;0.6;-10.62;0.67;0.29;0.86
1753877892.356525;-13.947;4.437;-0.285;-2.92;-0.86;-5.2;0.0;0.0;0.0;0.0;28.1;22.6;-37.1;-61.8;-0.18;0.61;-10.62;0.65;0.26;0.81
1753877892.361525;-13.947;4.437;-0.285;-2.92;-0.86;-5.2;0.0;0.0;0.0;0.0;28.9;22.5;-37.2;-60.8;-0.18;0.6;-10.63;0.64;0.25;0.97
1753877892.366526;-13.947;4.437;-0.285;-2.92;-0.86;-5.2;0.0;0.0;0.0;0.0;28.4;22.6;-33.5;-66.4;-0.19;0.61;-10.62;0.68;0.16;0.84
1753877892.371526;-13.947;4.437;-0.285;-2.92;-0.86;-5.2;0.0;0.0;0.0;0.0;28.0;23.3;-33.6;-62.7;-0.19;0.59;-10.62;0.65;0.27;0.87
1753877892.376526;-13.947;4.437;-0.285;-2.92;-0.86;-5.2;0.0;0.0;0.0;0.0;27.0;22.6;-32.8;-62.0;-0.18;0.59;-10.63;0.76;0.24;0.88
1753877892.381526;-13.947;4.437;-0.285;-2.92;-0.86;-5.2;0.0;0.0;0.0;0.0;28.3;23.5;-35.8;-62.1;-0.2;0.6;-10.62;0.67;0.32;1.01
1753877892.386526;-13.947;4.437;-0.285;-2.92;-0.86;-5.2;0.0;0.0;0.0;0.0;28.3;23.1;-33.3;-65.4;-0.19;0.58;-10.63;0.73;0.16;0.76
1753877892.391526;-13.947;4.437;-0.285;-2.92;-0.86;-5.2;0.0;0.0;0.0;0.0;28.6;22.2;-38.3;-60.8;-0.2;0.59;-10.62;0.73;0.25;0.89
1753877892.396525;-13.947;4.437;-0.285;-2.92;-0.86;-5.2;0.0;0.0;0.0;0.0;28.0;23.0;-33.0;-62.0;-0.19;0.59;-10.63;0.68;0.22;0.9
1753877892.401525;-13.947;4.437;-0.285;-2.92;-0.86;-5.2;0.0;0.0;0.0;0.0;28.0;23.0;-33.0;-62.0;-0.18;0.59;-10.63;0.65;0.29;0.99
1753877892.406525;-13.947;4.437;-0.285;-2.92;-0.86;-5.2;0.0;0.0;0.0;0.0;28.0;23.0;-33.0;-62.0;-0.18;0.58;-10.63;0.72;0.45;0.96
1753877892.411525;-13.947;4.437;-0.285;-2.92;-0.86;-5.2;0.0;0.0;0.0;0.0;28.0;23.0;-33.0;-62.0;-0.18;0.58;-10.63;0.64;0.4;0.99
1753877892.416525;-13.947;4.437;-0.285;-2.92;-0.86;-5.2;0.0;0.0;0.0;0.0;28.0;23.0;-33.0;-62.0;-0.18;0.58;-10.63;0.61;0.32;0.86
1753877892.421525;-13.947;4.437;-0.285;-2.92;-0.86;-5.2;0.0;0.0;0.0;0.0;28.0;23.0;-33.0;-62.0;-0.18;0.58;-10.63;0.65;0.35;0.87
1753877892.426525;-13.947;4.437;-0.285;-2.92;-0.86;-5.2;0.0;0.0;0.0;0.0;28.0;23.0;-33.0;-62.0;-0.19;0.58;-10.62;0.66;0.35;0.9
1753877892.431525;-13.947;4.437;-0.285;-2.92;-0.86;-5.2;0.0;0.0;0.0;0.0;28.0;23.0;-33.0;-62.0;-0.19;0.58;-10.64;0.61;0.38;1.02
1753877892.436525;-13.947;4.437;-0.285;-2.92;-0.86;-5.2;0.0;0.0;0.0;0.0;28.0;23.0;-33.0;-62.0;-0.2;0.58;-10.64;0.65;0.22;0.96
1753877892.441525;-13.947;4.437;-0.285;-2.92;-0.86;-5.2;0.0;0.0;0.0;0.0;28.0;23.0;-33.0;-62.0;-0.19;0.59;-10.64;0.54;0.24;0.91
1753877892.446525;-13.947;4.437;-0.285;-2.92;-0.86;-5.2;0.0;0.0;0.0;0.0;28.0;23.0;-33.0;-62.0;-0.2;0.59;-10.64;0.64;0.33;1.02
1753877892.451525;-13.947;4.437;-0.285;-2.92;-0.86;-5.2;0.0;0.0;0.0;0.0;28.0;23.0;-33.0;-62.0;-0.2;0.59;-10.64;0.69;0.31;0.86
1753877892.456525;-13.947;4.437;-0.285;-2.92;-0.86;-5.2;0.0;0.0;0.0;0.0;28.0;23.0;-33.0;-62.0;-0.2;0.59;-10.63;0.72;0.27;0.79
1753877892.461525;-13.947;4.437;-0.285;-2.92;-0.86;-5.2;0.0;0.0;0.0;0.0;28.0;23.0;-33.0;-62.0;-0.21;0.59;-10.64;0.67;0.42;0.96
1753877892.466525;-13.947;4.437;-0.285;-2.92;-0.86;-5.2;0.0;0.0;0.0;0.0;28.0;23.0;-33.0;-62.0;-0.2;0.59;-10.64;0.54;0.26;0.88
1753877892.471525;-13.947;4.437;-0.285;-2.92;-0.86;-5.2;0.0;0.0;0.0;0.0;28.0;23.0;-33.0;-62.0;-0.21;0.59;-10.65;0.65;0.4;1.02
1753877892.476525;-13.947;4.437;-0.285;-2.92;-0.86;-5.2;0.0;0.0;0.0;0.0;28.0;23.0;-33.0;-62.0;-0.2;0.59;-10.65;0.68;0.26;0.9
1753877892.481525;-13.947;4.437;-0.285;-2.92;-0.86;-5.2;0.0;0.0;0.0;0.0;28.0;23.0;-33.0;-62.0;-0.2;0.6;-10.64;0.71;0.42;0.96
1753877892.486525;-13.947;4.437;-0.285;-2.92;-0.86;-5.2;0.0;0.0;0.0;0.0;28.0;23.0;-33.0;-62.0;-0.2;0.6;-10.64;0.74;0.23;0.97
1753877892.491525;-13.947;4.437;-0.285;-2.92;-0.86;-5.2;0.0;0.0;0.0;0.0;28.0;23.0;-33.0;-62.0;-0.19;0.6;-10.63;0.77;0.27;0.95
1753877892.496525;-13.947;4.437;-0.285;-2.92;-0.86;-5.2;0.0;0.0;0.0;0.0;28.0;23.0;-33.0;-62.0;-0.19;0.6;-10.63;0.65;0.38;0.87
1753877892.501525;-13.947;4.437;-0.285;-2.92;-0.86;-5.2;0.0;0.0;0.0;0.0;28.0;23.0;-33.0;-62.0;-0.2;0.61;-10.63;0.68;0.31;0.9
1753877892.506525;-13.947;4.437;-0.285;-2.92;-0.86;-5.2;0.0;0.0;0.0;0.0;28.0;23.0;-33.0;-62.0;-0.2;0.6;-10.64;0.74;0.18;0.93
1753877892.511525;-13.947;4.437;-0.285;-2.92;-0.86;-5.2;0.0;0.0;0.0;0.0;28.0;23.0;-33.0;-62.0;-0.19;0.61;-10.64;0.57;0.4;0.89
1753877892.516525;-13.947;4.437;-0.285;-2.92;-0.86;-5.2;0.0;0.0;0.0;0.0;28.0;23.0;-33.0;-62.0;-0.19;0.61;-10.64;0.64;0.24;1.06
1753877892.521525;-13.947;4.437;-0.285;-2.92;-0.86;-5.2;0.0;0.0;0.0;0.0;28.0;23.0;-33.0;-62.0;-0.19;0.6;-10.64;0.62;0.21;0.85
1753877892.526525;-13.947;4.437;-0.285;-2.92;-0.86;-5.2;0.0;0.0;0.0;0.0;28.0;23.0;-33.0;-62.0;-0.19;0.6;-10.63;0.65;0.26;0.91
1753877892.531525;-13.947;4.437;-0.285;-2.92;-0.86;-5.2;0.0;0.0;0.0;0.0;28.0;23.0;-33.0;-62.0;-0.19;0.61;-10.63;0.79;0.43;0.93
1753877892.536525;-13.947;4.437;-0.285;-2.92;-0.86;-5.2;0.0;0.0;0.0;0.0;26.8;23.0;-33.0;-62.0;-0.2;0.61;-10.62;0.65;0.48;0.91
1753877892.541525;-13.947;4.437;-0.285;-2.92;-0.86;-5.2;0.0;0.0;0.0;0.0;28.3;23.0;-33.0;-62.0;-0.19;0.61;-10.64;0.77;0.47;1.1
1753877892.546525;-13.947;4.437;-0.285;-2.92;-0.86;-5.2;0.0;0.0;0.0;0.0;27.9;23.0;-33.0;-62.0;-0.18;0.62;-10.61;0.72;0.44;1.0
1753877892.551525;-13.947;4.437;-0.285;-2.92;-0.86;-5.2;0.0;0.0;0.0;0.0;31.5;23.0;-33.0;-62.0;-0.19;0.62;-10.61;0.73;0.16;1.0
1753877892.556526;-13.947;4.437;-0.285;-2.92;-0.86;-5.2;0.0;0.0;0.0;0.0;31.0;23.0;-33.0;-62.0;-0.2;0.61;-10.62;0.9;0.39;0.93
1753877892.561526;-13.947;4.437;-0.285;-2.92;-0.87;-5.2;0.0;0.0;0.0;0.0;31.3;23.0;-33.0;-62.0;-0.19;0.62;-10.62;0.81;0.4;0.98
1753877892.566526;-13.947;4.437;-0.285;-2.91;-0.86;-5.2;0.0;0.0;0.0;0.0;30.2;23.0;-33.0;-62.0;-0.18;0.61;-10.61;0.77;0.22;0.95
1753877892.571526;-13.947;4.437;-0.285;-2.91;-0.87;-5.2;0.0;0.0;0.0;0.0;29.7;23.0;-33.0;-62.0;-0.19;0.6;-10.62;0.65;0.13;1.0
1753877892.576526;-13.947;4.437;-0.285;-2.91;-0.86;-5.2;0.0;0.0;0.0;0.0;33.9;23.0;-33.0;-62.0;-0.19;0.6;-10.6;0.81;0.21;0.95
1753877892.581525;-13.947;4.437;-0.285;-2.91;-0.87;-5.2;0.0;0.0;0.0;0.0;33.0;23.0;-33.0;-62.0;-0.19;0.61;-10.61;0.77;0.21;0.99
1753877892.586525;-13.947;4.437;-0.285;-2.91;-0.87;-5.2;0.0;0.0;0.0;0.0;33.0;23.0;-33.0;-62.0;-0.19;0.6;-10.61;0.66;0.29;0.96
1753877892.591525;-13.947;4.437;-0.285;-2.91;-0.87;-5.2;0.0;0.0;0.0;0.0;33.0;23.0;-33.0;-62.0;-0.19;0.6;-10.62;0.61;0.16;1.05
1753877892.596525;-13.947;4.437;-0.285;-2.91;-0.87;-5.2;0.0;0.0;0.0;0.0;33.0;23.0;-33.0;-62.0;-0.19;0.61;-10.62;0.63;0.28;0.93
1753877892.601525;-13.947;4.437;-0.285;-2.91;-0.87;-5.2;0.0;0.0;0.0;0.0;33.0;23.0;-33.0;-62.0;-0.19;0.61;-10.62;0.62;0.22;0.87
1753877892.606525;-13.947;4.437;-0.285;-2.91;-0.87;-5.2;0.0;0.0;0.0;0.0;33.0;23.0;-33.0;-62.0;-0.19;0.6;-10.62;0.66;0.24;0.78
1753877892.611525;-13.947;4.437;-0.285;-2.91;-0.87;-5.2;0.0;0.0;0.0;0.0;33.0;23.0;-33.0;-62.0;-0.19;0.61;-10.63;0.67;0.31;0.87
1753877892.616525;-13.947;4.437;-0.285;-2.91;-0.87;-5.2;0.0;0.0;0.0;0.0;33.0;23.0;-33.0;-62.0;-0.19;0.6;-10.64;0.78;0.27;0.93
1753877892.621525;-13.947;4.437;-0.285;-2.91;-0.87;-5.2;0.0;0.0;0.0;0.0;33.0;23.0;-33.0;-62.0;-0.19;0.6;-10.65;0.79;0.32;0.95
1753877892.626525;-13.947;4.437;-0.285;-2.91;-0.87;-5.2;0.0;0.0;0.0;0.0;33.0;23.0;-33.0;-62.0;-0.19;0.6;-10.65;0.73;0.24;1.02
1753877892.631525;-13.947;4.437;-0.285;-2.91;-0.87;-5.2;0.0;0.0;0.0;0.0;33.0;23.0;-33.0;-62.0;-0.19;0.6;-10.65;0.65;0.35;0.94
1753877892.636525;-13.947;4.437;-0.285;-2.91;-0.87;-5.2;0.0;0.0;0.0;0.0;33.0;23.0;-33.0;-62.0;-0.19;0.6;-10.66;0.78;0.16;0.96
1753877892.641525;-13.947;4.437;-0.285;-2.91;-0.87;-5.2;0.0;0.0;0.0;0.0;33.0;23.0;-33.0;-62.0;-0.19;0.6;-10.66;0.69;0.22;0.99
1753877892.646525;-13.947;4.437;-0.285;-2.91;-0.87;-5.2;0.0;0.0;0.0;0.0;33.0;23.0;-33.0;-62.0;-0.19;0.6;-10.65;0.73;0.38;0.85
1753877892.651525;-13.947;4.437;-0.285;-2.91;-0.87;-5.2;0.0;0.0;0.0;0.0;33.0;23.0;-33.0;-62.0;-0.19;0.6;-10.65;0.79;0.18;0.93
1753877892.656525;-13.947;4.437;-0.285;-2.91;-0.87;-5.2;0.0;0.0;0.0;0.0;33.0;23.0;-33.0;-62.0;-0.19;0.6;-10.64;0.83;0.28;0.95
1753877892.661525;-13.947;4.437;-0.285;-2.91;-0.87;-5.2;0.0;0.0;0.0;0.0;33.0;23.0;-33.0;-62.0;-0.18;0.6;-10.64;0.7;0.53;1.0
1753877892.666525;-13.947;4.437;-0.285;-2.91;-0.87;-5.2;0.0;0.0;0.0;0.0;33.0;23.0;-33.0;-62.0;-0.19;0.6;-10.65;0.69;0.31;0.9
1753877892.671525;-13.947;4.437;-0.285;-2.91;-0.87;-5.2;0.0;0.0;0.0;0.0;33.0;23.0;-33.0;-62.0;-0.18;0.6;-10.64;0.63;0.32;1.05
1753877892.676525;-13.947;4.437;-0.285;-2.91;-0.87;-5.2;0.0;0.0;0.0;0.0;33.0;23.0;-33.0;-62.0;-0.18;0.6;-10.64;0.57;0.49;0.95
1753877892.681525;-13.947;4.437;-0.285;-2.91;-0.87;-5.2;0.0;0.0;0.0;0.0;33.0;23.0;-33.0;-62.0;-0.18;0.6;-10.64;0.75;0.3;0.97
1753877892.686525;-13.947;4.437;-0.285;-2.91;-0.87;-5.2;0.0;0.0;0.0;0.0;33.0;23.0;-33.0;-62.0;-0.19;0.6;-10.64;0.79;0.49;0.99
1753877892.691525;-13.947;4.437;-0.285;-2.91;-0.87;-5.2;0.0;0.0;0.0;0.0;33.0;23.0;-33.0;-62.0;-0.19;0.6;-10.64;0.63;0.23;1.02
1753877892.696525;-13.947;4.437;-0.285;-2.91;-0.87;-5.2;0.0;0.0;0.0;0.0;33.0;23.0;-33.0;-62.0;-0.19;0.6;-10.63;0.71;0.36;0.96
1753877892.701525;-13.947;4.437;-0.285;-2.91;-0.87;-5.2;0.0;0.0;0.0;0.0;33.0;23.0;-33.0;-62.0;-0.19;0.6;-10.64;0.69;0.32;0.89
1753877892.706525;-13.947;4.437;-0.285;-2.91;-0.87;-5.2;0.0;0.0;0.0;0.0;33.0;23.0;-33.0;-62.0;-0.19;0.61;-10.64;0.56;0.39;0.88
1753877892.711525;-13.947;4.437;-0.285;-2.91;-0.87;-5.2;0.0;0.0;0.0;0.0;33.0;23.0;-33.0;-62.0;-0.19;0.61;-10.64;0.7;0.57;0.98
1753877892.716525;-13.947;4.437;-0.285;-2.91;-0.87;-5.2;0.0;0.0;0.0;0.0;33.0;23.0;-33.0;-62.0;-0.19;0.6;-10.65;0.74;0.28;1.11
1753877892.721525;-13.947;4.437;-0.285;-2.91;-0.87;-5.2;0.0;0.0;0.0;0.0;33.0;23.0;-33.0;-62.0;-0.19;0.6;-10.64;0.67;0.25;0.93
1753877892.726525;-13.947;4.437;-0.285;-2.91;-0.87;-5.2;0.0;0.0;0.0;0.0;33.0;23.0;-33.0;-62.0;-0.19;0.6;-10.63;0.83;0.35;1.02
1753877892.731525;-13.947;4.437;-0.285;-2.91;-0.87;-5.2;0.0;0.0;0.0;0.0;33.0;23.0;-33.0;-62.0;-0.18;0.6;-10.63;0.71;0.29;0.99
1753877892.736525;-13.947;4.437;-0.285;-2.91;-0.87;-5.2;0.0;0.0;0.0;0.0;33.0;23.0;-33.0;-62.0;-0.18;0.6;-10.63;0.76;0.22;0.88
1753877892.741525;-13.947;4.437;-0.285;-2.91;-0.87;-5.2;0.0;0.0;0.0;0.0;33.0;23.0;-33.0;-62.0;-0.18;0.6;-10.63;0.64;0.32;0.91
1753877892.746525;-13.947;4.437;-0.285;-2.91;-0.87;-5.2;0.0;0.0;0.0;0.0;33.0;23.0;-33.0;-62.0;-0.18;0.61;-10.63;0.7;0.45;0.91
1753877892.751525;-13.947;4.437;-0.285;-2.91;-0.87;-5.2;0.0;0.0;0.0;0.0;33.0;23.0;-33.0;-62.0;-0.18;0.61;-10.63;0.74;0.35;0.91
1753877892.756525;-13.947;4.437;-0.285;-2.91;-0.87;-5.2;0.0;0.0;0.0;0.0;33.0;23.0;-33.0;-62.0;-0.18;0.6;-10.63;0.61;0.32;0.98
1753877892.761525;-13.947;4.437;-0.285;-2.91;-0.87;-5.2;0.0;0.0;0.0;0.0;33.0;23.0;-33.0;-62.0;-0.19;0.6;-10.63;0.74;0.3;0.99
1753877892.766525;-13.947;4.437;-0.285;-2.91;-0.87;-5.2;0.0;0.0;0.0;0.0;33.0;23.0;-33.0;-62.0;-0.18;0.6;-10.62;0.77;0.34;0.86
1753877892.771525;-13.947;4.437;-0.285;-2.91;-0.87;-5.2;0.0;0.0;0.0;0.0;33.0;23.0;-33.0;-62.0;-0.19;0.6;-10.62;0.75;0.36;0.79
1753877892.776525;-13.947;4.437;-0.285;-2.91;-0.87;-5.2;0.0;0.0;0.0;0.0;33.0;23.0;-33.0;-62.0;-0.19;0.59;-10.62;0.78;0.28;1.02
1753877892.781525;-13.947;4.437;-0.285;-2.91;-0.87;-5.2;0.0;0.0;0.0;0.0;33.0;23.0;-33.0;-62.0;-0.19;0.6;-10.63;0.66;0.31;0.96
1753877892.786525;-13.947;4.437;-0.285;-2.91;-0.87;-5.2;0.0;0.0;0.0;0.0;33.0;23.0;-33.0;-62.0;-0.19;0.6;-10.62;0.65;0.38;1.0
1753877892.791525;-13.947;4.437;-0.285;-2.91;-0.87;-5.2;0.0;0.0;0.0;0.0;33.0;23.0;-33.0;-62.0;-0.19;0.6;-10.63;0.7;0.36;0.94
1753877892.796525;-13.947;4.437;-0.285;-2.91;-0.87;-5.2;0.0;0.0;0.0;0.0;33.0;23.0;-33.0;-62.0;-0.19;0.6;-10.62;0.61;0.38;0.88
1753877892.801525;-13.947;4.437;-0.285;-2.91;-0.87;-5.2;0.0;0.0;0.0;0.0;33.0;23.0;-33.0;-62.0;-0.19;0.6;-10.62;0.61;0.3;0.9
1753877892.806525;-13.947;4.437;-0.285;-2.91;-0.87;-5.2;0.0;0.0;0.0;0.0;33.0;23.0;-33.0;-62.0;-0.19;0.6;-10.62;0.78;0.45;1.09
1753877892.811525;-13.947;4.437;-0.285;-2.91;-0.87;-5.2;0.0;0.0;0.0;0.0;33.0;23.0;-33.0;-62.0;-0.19;0.61;-10.62;0.77;0.4;0.99
1753877892.816525;-13.947;4.437;-0.285;-2.91;-0.87;-5.2;0.0;0.0;0.0;0.0;33.0;23.0;-33.0;-62.0;-0.19;0.61;-10.62;0.68;0.26;0.98
1753877892.821525;-13.947;4.437;-0.285;-2.91;-0.87;-5.2;0.0;0.0;0.0;0.0;33.0;23.0;-33.0;-62.0;-0.19;0.61;-10.63;0.71;0.48;0.87
1753877892.826525;-13.947;4.437;-0.285;-2.91;-0.87;-5.2;0.0;0.0;0.0;0.0;33.0;23.0;-33.0;-62.0;-0.18;0.62;-10.63;0.79;0.22;0.92
1753877892.831525;-13.947;4.437;-0.285;-2.91;-0.87;-5.2;0.0;0.0;0.0;0.0;33.0;23.0;-33.0;-62.0;-0.18;0.62;-10.63;0.72;0.39;0.86
1753877892.836525;-13.947;4.437;-0.285;-2.91;-0.87;-5.2;0.0;0.0;0.0;0.0;33.0;23.0;-33.0;-62.0;-0.17;0.62;-10.63;0.73;0.42;1.07
1753877892.841525;-13.947;4.437;-0.285;-2.91;-0.87;-5.2;0.0;0.0;0.0;0.0;33.0;23.0;-33.0;-62.0;-0.18;0.61;-10.63;0.77;0.38;0.96
1753877892.846525;-13.947;4.437;-0.285;-2.91;-0.87;-5.2;0.0;0.0;0.0;0.0;33.0;23.0;-33.0;-62.0;-0.18;0.61;-10.63;0.74;0.32;0.93
1753877892.851525;-13.947;4.437;-0.285;-2.91;-0.87;-5.2;0.0;0.0;0.0;0.0;33.0;23.0;-33.0;-62.0;-0.18;0.61;-10.64;0.82;0.4;0.9
1753877892.856525;-13.947;4.437;-0.285;-2.91;-0.87;-5.2;0.0;0.0;0.0;0.0;33.0;23.0;-33.0;-62.0;-0.18;0.62;-10.64;0.75;0.3;0.86
1753877892.861525;-13.947;4.437;-0.285;-2.91;-0.87;-5.2;0.0;0.0;0.0;0.0;33.0;23.0;-33.0;-62.0;-0.19;0.61;-10.65;0.69;0.38;0.81
1753877892.866526;-13.947;4.437;-0.285;-2.91;-0.87;-5.2;0.0;0.0;0.0;0.0;33.0;23.0;-33.0;-62.0;-0.18;0.62;-10.64;0.67;0.24;0.88
1753877892.871526;-13.947;4.437;-0.285;-2.91;-0.87;-5.2;0.0;0.0;0.0;0.0;33.0;23.0;-33.0;-62.0;-0.18;0.6;-10.62;0.68;0.4;0.9
1753877892.876526;-13.947;4.437;-0.285;-2.91;-0.87;-5.2;0.0;0.0;0.0;0.0;33.0;23.0;-33.0;-62.0;-0.18;0.6;-10.63;0.7;0.36;0.88
1753877892.881526;-13.947;4.437;-0.285;-2.91;-0.87;-5.2;0.0;0.0;0.0;0.0;33.0;23.0;-33.0;-62.0;-0.18;0.61;-10.63;0.77;0.19;0.98
1753877892.886526;-13.947;4.437;-0.285;-2.91;-0.87;-5.2;0.0;0.0;0.0;0.0;33.0;23.0;-33.0;-62.0;-0.18;0.6;-10.64;0.75;0.37;0.88
1753877892.891526;-13.947;4.437;-0.285;-2.91;-0.87;-5.2;0.0;0.0;0.0;0.0;33.0;23.0;-33.0;-62.0;-0.18;0.59;-10.63;0.81;0.33;0.89
1753877892.896526;-13.947;4.437;-0.285;-2.91;-0.87;-5.2;0.0;0.0;0.0;0.0;33.0;23.0;-33.0;-62.0;-0.18;0.59;-10.65;0.79;0.08;0.88
1753877892.901526;-13.947;4.437;-0.285;-2.91;-0.87;-5.2;0.0;0.0;0.0;0.0;33.0;23.0;-33.0;-62.0;-0.19;0.61;-10.65;0.83;0.35;0.9
1753877892.906526;-13.947;4.437;-0.285;-2.91;-0.87;-5.2;0.0;0.0;0.0;0.0;33.0;23.0;-33.0;-62.0;-0.18;0.58;-10.65;0.78;0.2;0.96
1753877892.911526;-13.947;4.437;-0.285;-2.91;-0.87;-5.2;0.0;0.0;0.0;0.0;33.0;23.0;-33.0;-62.0;-0.19;0.59;-10.64;0.84;0.21;0.95
1753877892.916526;-13.947;4.437;-0.285;-2.91;-0.87;-5.2;0.0;0.0;0.0;0.0;33.0;23.0;-33.0;-62.0;-0.19;0.58;-10.65;0.77;0.24;0.87
1753877892.921527;-13.947;4.437;-0.285;-2.91;-0.87;-5.2;0.0;0.0;0.0;0.0;33.0;23.0;-33.0;-62.0;-0.18;0.59;-10.64;0.72;0.21;0.91
1753877892.926527;-13.947;4.437;-0.285;-2.91;-0.87;-5.2;0.0;0.0;0.0;0.0;33.0;23.0;-33.0;-62.0;-0.19;0.58;-10.64;0.79;0.19;0.97
1753877892.931527;-13.947;4.437;-0.285;-2.91;-0.87;-5.2;0.0;0.0;0.0;0.0;33.0;23.0;-33.0;-62.0;-0.19;0.61;-10.66;0.79;0.22;1.0
1753877892.936527;-13.947;4.437;-0.285;-2.91;-0.87;-5.2;0.0;0.0;0.0;0.0;33.0;23.0;-33.0;-62.0;-0.2;0.59;-10.66;0.89;0.29;1.01
1753877892.941527;-13.947;4.437;-0.285;-2.91;-0.87;-5.2;0.0;0.0;0.0;0.0;33.0;23.0;-33.0;-62.0;-0.18;0.59;-10.65;0.8;0.11;1.0
1753877892.946527;-13.947;4.437;-0.285;-2.91;-0.87;-5.2;0.0;0.0;0.0;0.0;33.0;23.0;-33.0;-62.0;-0.19;0.59;-10.65;0.79;0.04;0.97
1753877892.951525;-13.947;4.437;-0.285;-2.91;-0.87;-5.2;0.0;0.0;0.0;0.0;33.0;23.0;-33.0;-62.0;-0.19;0.59;-10.65;0.81;0.22;0.96
1753877892.956525;-13.947;4.437;-0.285;-2.91;-0.87;-5.2;0.0;0.0;0.0;0.0;33.0;23.0;-33.0;-62.0;-0.18;0.6;-10.65;0.76;0.32;0.96
1753877892.961525;-13.947;4.437;-0.285;-2.91;-0.87;-5.2;0.0;0.0;0.0;0.0;33.0;23.0;-33.0;-62.0;-0.18;0.59;-10.66;0.61;0.25;0.97
1753877892.966525;-13.947;4.437;-0.285;-2.91;-0.87;-5.2;0.0;0.0;0.0;0.0;33.0;23.0;-33.0;-62.0;-0.19;0.6;-10.65;0.62;0.31;1.0
1753877892.971525;-13.947;4.437;-0.285;-2.91;-0.87;-5.2;0.0;0.0;0.0;0.0;33.0;23.0;-33.0;-62.0;-0.19;0.6;-10.65;0.64;0.33;0.99
1753877892.976525;-13.947;4.437;-0.285;-2.91;-0.87;-5.2;0.0;0.0;0.0;0.0;33.0;23.0;-33.0;-62.0;-0.18;0.6;-10.64;0.69;0.34;0.99
1753877892.981525;-13.947;4.437;-0.285;-2.91;-0.87;-5.2;0.0;0.0;0.0;0.0;33.0;23.0;-33.0;-62.0;-0.19;0.6;-10.65;0.67;0.39;1.02
1753877892.986525;-13.947;4.437;-0.285;-2.91;-0.87;-5.2;0.0;0.0;0.0;0.0;33.0;23.0;-33.0;-62.0;-0.19;0.6;-10.64;0.77;0.29;0.95
1753877892.991525;-13.947;4.437;-0.285;-2.91;-0.87;-5.2;0.0;0.0;0.0;0.0;33.0;23.0;-33.0;-62.0;-0.18;0.6;-10.64;0.7;0.3;0.96
1753877892.996525;-13.947;4.437;-0.285;-2.91;-0.87;-5.2;0.0;0.0;0.0;0.0;33.0;23.0;-33.0;-62.0;-0.19;0.59;-10.64;0.8;0.32;0.98
1753877893.001525;-13.947;4.437;-0.285;-2.91;-0.87;-5.2;0.0;0.0;0.0;0.0;33.0;23.0;-33.0;-62.0;-0.19;0.6;-10.64;0.8;0.35;0.88
1753877893.006525;-13.947;4.437;-0.285;-2.91;-0.87;-5.2;0.0;0.0;0.0;0.0;33.0;23.0;-33.0;-62.0;-0.19;0.6;-10.63;0.91;0.38;0.97
1753877893.011525;-13.947;4.437;-0.285;-2.91;-0.87;-5.2;0.0;0.0;0.0;0.0;33.0;23.0;-33.0;-62.0;-0.19;0.6;-10.64;0.81;0.38;0.89
1753877893.016525;-13.947;4.437;-0.285;-2.91;-0.87;-5.2;0.0;0.0;0.0;0.0;33.0;23.0;-33.0;-62.0;-0.2;0.6;-10.64;0.73;0.27;1.04
1753877893.021525;-13.947;4.437;-0.285;-2.91;-0.87;-5.2;0.0;0.0;0.0;0.0;33.0;23.0;-33.0;-62.0;-0.19;0.6;-10.64;0.69;0.54;0.89
1753877893.026525;-13.947;4.437;-0.285;-2.91;-0.87;-5.2;0.0;0.0;0.0;0.0;33.0;23.0;-33.0;-62.0;-0.2;0.6;-10.65;0.74;0.31;0.99
1753877893.031525;-13.947;4.437;-0.285;-2.91;-0.87;-5.2;0.0;0.0;0.0;0.0;33.0;23.0;-33.0;-62.0;-0.2;0.6;-10.64;0.58;0.47;1.09
1753877893.036525;-13.947;4.437;-0.285;-2.91;-0.87;-5.2;0.0;0.0;0.0;0.0;33.0;23.0;-33.0;-62.0;-0.19;0.6;-10.64;0.67;0.45;0.94
1753877893.041525;-13.947;4.437;-0.285;-2.91;-0.87;-5.2;0.0;0.0;0.0;0.0;33.0;23.0;-33.0;-62.0;-0.19;0.6;-10.63;0.79;0.43;0.89
1753877893.046525;-13.947;4.437;-0.285;-2.91;-0.87;-5.2;0.0;0.0;0.0;0.0;33.0;23.0;-33.0;-62.0;-0.19;0.6;-10.63;0.75;0.37;0.92
1753877893.051525;-13.947;4.437;-0.285;-2.91;-0.87;-5.2;0.0;0.0;0.0;0.0;33.0;23.0;-33.0;-62.0;-0.19;0.6;-10.63;0.72;0.25;0.96
1753877893.056525;-13.947;4.437;-0.285;-2.91;-0.87;-5.2;0.0;0.0;0.0;0.0;33.0;23.0;-33.0;-62.0;-0.19;0.6;-10.62;0.75;0.29;1.0
1753877893.061525;-13.947;4.437;-0.285;-2.91;-0.87;-5.2;0.0;0.0;0.0;0.0;33.0;23.0;-33.0;-62.0;-0.19;0.59;-10.62;0.6;0.3;0.91
1753877893.066525;-13.947;4.437;-0.285;-2.91;-0.87;-5.2;0.0;0.0;0.0;0.0;33.0;23.0;-33.0;-62.0;-0.18;0.6;-10.62;0.59;0.47;0.94
1753877893.071525;-13.947;4.437;-0.285;-2.91;-0.87;-5.2;0.0;0.0;0.0;0.0;33.0;23.0;-33.0;-62.0;-0.18;0.59;-10.61;0.77;0.28;0.97
1753877893.076525;-13.947;4.437;-0.285;-2.91;-0.87;-5.2;0.0;0.0;0.0;0.0;33.0;23.0;-33.0;-62.0;-0.18;0.6;-10.61;0.7;0.42;1.01
1753877893.081525;-13.947;4.437;-0.285;-2.91;-0.87;-5.2;0.0;0.0;0.0;0.0;33.0;23.0;-33.0;-62.0;-0.18;0.59;-10.61;0.76;0.32;0.92
1753877893.086525;-13.947;4.437;-0.285;-2.91;-0.87;-5.2;0.0;0.0;0.0;0.0;33.0;23.0;-33.0;-62.0;-0.19;0.6;-10.59;0.87;0.32;0.93
1753877893.091525;-13.947;4.437;-0.285;-2.91;-0.87;-5.2;0.0;0.0;0.0;0.0;33.0;23.0;-33.0;-62.0;-0.19;0.6;-10.61;0.69;0.26;0.93
1753877893.096526;-13.947;4.437;-0.285;-2.91;-0.87;-5.2;0.0;0.0;0.0;0.0;33.0;23.0;-33.0;-62.0;-0.19;0.59;-10.62;0.65;0.27;0.86
1753877893.101526;-13.947;4.437;-0.285;-2.91;-0.87;-5.2;0.0;0.0;0.0;0.0;33.0;23.0;-33.0;-62.0;-0.18;0.59;-10.61;0.62;0.34;0.93
1753877893.106526;-13.947;4.437;-0.285;-2.91;-0.87;-5.2;0.0;0.0;0.0;0.0;33.0;23.0;-33.0;-62.0;-0.19;0.59;-10.61;0.57;0.26;0.8
1753877893.111526;-13.947;4.437;-0.285;-2.91;-0.87;-5.2;0.0;0.0;0.0;0.0;33.0;23.0;-33.0;-62.0;-0.18;0.59;-10.62;0.52;0.32;0.79
1753877893.116526;-13.947;4.437;-0.285;-2.91;-0.87;-5.2;0.0;0.0;0.0;0.0;33.0;23.0;-33.0;-62.0;-0.2;0.59;-10.65;0.65;0.2;0.9
1753877893.121526;-13.947;4.437;-0.285;-2.91;-0.87;-5.2;0.0;0.0;0.0;0.0;33.0;23.0;-33.0;-62.0;-0.18;0.59;-10.63;0.68;0.3;0.86
1753877893.126526;-13.947;4.437;-0.285;-2.91;-0.87;-5.2;0.0;0.0;0.0;0.0;33.0;23.0;-33.0;-62.0;-0.18;0.59;-10.63;0.69;0.2;0.83
1753877893.131526;-13.947;4.437;-0.285;-2.91;-0.87;-5.2;0.0;0.0;0.0;0.0;33.0;23.0;-33.0;-62.0;-0.19;0.6;-10.63;0.56;0.22;0.82
1753877893.136526;-13.947;4.437;-0.285;-2.91;-0.87;-5.2;0.0;0.0;0.0;0.0;33.0;23.0;-33.0;-62.0;-0.19;0.58;-10.63;0.65;0.28;0.8
1753877893.141526;-13.947;4.437;-0.285;-2.91;-0.87;-5.2;0.0;0.0;0.0;0.0;33.0;23.0;-33.0;-62.0;-0.18;0.59;-10.62;0.47;0.32;0.86
1753877893.146526;-13.947;4.437;-0.285;-2.91;-0.87;-5.2;0.0;0.0;0.0;0.0;33.0;23.0;-33.0;-62.0;-0.18;0.59;-10.61;0.59;0.19;0.75
1753877893.151525;-13.947;4.437;-0.285;-2.91;-0.87;-5.2;0.0;0.0;0.0;0.0;33.0;23.0;-33.0;-62.0;-0.19;0.59;-10.64;0.54;0.21;0.83
1753877893.156525;-13.947;4.437;-0.285;-2.91;-0.87;-5.2;0.0;0.0;0.0;0.0;33.0;23.0;-33.0;-62.0;-0.19;0.58;-10.64;0.68;0.35;0.9
1753877893.161525;-13.947;4.437;-0.285;-2.91;-0.87;-5.2;0.0;0.0;0.0;0.0;33.0;23.0;-33.0;-62.0;-0.19;0.59;-10.63;0.72;0.31;0.83
1753877893.166525;-13.947;4.437;-0.285;-2.91;-0.87;-5.2;0.0;0.0;0.0;0.0;33.0;23.0;-33.0;-62.0;-0.19;0.59;-10.63;0.66;0.26;0.91
1753877893.171525;-13.947;4.437;-0.285;-2.91;-0.87;-5.2;0.0;0.0;0.0;0.0;33.0;23.0;-33.0;-62.0;-0.19;0.59;-10.63;0.78;0.38;0.99
1753877893.176525;-13.947;4.437;-0.285;-2.91;-0.87;-5.2;0.0;0.0;0.0;0.0;33.0;23.0;-33.0;-62.0;-0.19;0.59;-10.63;0.71;0.35;0.97
1753877893.181525;-13.947;4.437;-0.285;-2.91;-0.87;-5.2;0.0;0.0;0.0;0.0;33.0;23.0;-33.0;-62.0;-0.19;0.59;-10.63;0.57;0.32;1.09
1753877893.186525;-13.947;4.437;-0.285;-2.91;-0.87;-5.2;0.0;0.0;0.0;0.0;33.0;23.0;-33.0;-62.0;-0.18;0.59;-10.63;0.7;0.34;1.01
1753877893.191525;-13.947;4.437;-0.285;-2.91;-0.87;-5.2;0.0;0.0;0.0;0.0;33.0;23.0;-33.0;-62.0;-0.19;0.6;-10.64;0.63;0.4;1.03
1753877893.196525;-13.947;4.437;-0.285;-2.91;-0.87;-5.2;0.0;0.0;0.0;0.0;32.5;19.4;-31.2;-62.0;-0.18;0.6;-10.61;0.61;0.41;1.02
1753877893.201525;-13.947;4.437;-0.285;-2.9;-0.85;-5.2;0.0;0.0;0.0;0.0;32.0;12.0;-28.0;-62.0;-0.18;0.6;-10.63;0.72;0.3;0.93
1753877893.206525;-13.947;4.437;-0.285;-2.9;-0.85;-5.2;0.0;0.0;0.0;0.0;32.0;12.0;-28.0;-62.0;-0.18;0.6;-10.63;0.82;0.29;0.98
1753877893.211525;-13.947;4.437;-0.285;-2.9;-0.85;-5.2;0.0;0.0;0.0;0.0;32.0;12.0;-28.0;-62.0;-0.18;0.61;-10.64;0.74;0.29;1.02
1753877893.216525;-13.947;4.437;-0.285;-2.9;-0.85;-5.2;0.0;0.0;0.0;0.0;32.0;12.0;-28.0;-62.0;-0.18;0.61;-10.65;0.74;0.36;0.9
1753877893.221525;-13.947;4.437;-0.285;-2.9;-0.85;-5.2;0.0;0.0;0.0;0.0;32.0;12.0;-28.0;-62.0;-0.19;0.61;-10.65;0.81;0.35;1.01
1753877893.226525;-13.947;4.437;-0.285;-2.9;-0.85;-5.2;0.0;0.0;0.0;0.0;32.0;12.0;-28.0;-62.0;-0.18;0.61;-10.65;0.64;0.12;0.91
1753877893.231525;-13.947;4.437;-0.285;-2.9;-0.85;-5.2;0.0;0.0;0.0;0.0;32.0;12.0;-28.0;-62.0;-0.19;0.61;-10.66;0.68;0.26;0.88
1753877893.236525;-13.947;4.437;-0.285;-2.9;-0.85;-5.2;0.0;0.0;0.0;0.0;32.0;12.0;-28.0;-62.0;-0.19;0.61;-10.66;0.7;0.29;0.92
1753877893.241525;-13.947;4.437;-0.285;-2.9;-0.85;-5.2;0.0;0.0;0.0;0.0;32.0;12.0;-28.0;-62.0;-0.19;0.61;-10.67;0.62;0.37;0.9
1753877893.246525;-13.947;4.437;-0.285;-2.9;-0.85;-5.2;0.0;0.0;0.0;0.0;32.0;12.0;-28.0;-62.0;-0.19;0.59;-10.66;0.65;0.33;0.92
1753877893.251525;-13.947;4.437;-0.285;-2.9;-0.85;-5.2;0.0;0.0;0.0;0.0;32.0;12.0;-28.0;-62.0;-0.19;0.6;-10.65;0.56;0.3;0.95
1753877893.256525;-13.947;4.437;-0.285;-2.9;-0.85;-5.2;0.0;0.0;0.0;0.0;32.0;12.0;-28.0;-62.0;-0.2;0.6;-10.65;0.62;0.52;0.98
1753877893.261525;-13.947;4.437;-0.285;-2.9;-0.85;-5.2;0.0;0.0;0.0;0.0;32.0;12.0;-28.0;-62.0;-0.2;0.6;-10.65;0.72;0.28;0.86
1753877893.266525;-13.947;4.437;-0.285;-2.9;-0.85;-5.2;0.0;0.0;0.0;0.0;32.0;12.0;-28.0;-62.0;-0.2;0.59;-10.65;0.72;0.22;0.91
1753877893.271525;-13.947;4.437;-0.285;-2.91;-0.85;-5.2;0.0;0.0;0.0;0.0;31.7;15.1;-29.0;-62.0;-0.21;0.58;-10.65;0.69;0.23;0.94
1753877893.276525;-13.947;4.437;-0.285;-2.9;-0.85;-5.2;0.0;0.0;0.0;0.0;32.4;13.9;-28.6;-62.0;-0.2;0.6;-10.64;0.71;0.05;0.85
1753877893.281525;-13.947;4.437;-0.285;-2.9;-0.85;-5.2;0.0;0.0;0.0;0.0;31.8;7.5;-28.8;-62.0;-0.2;0.58;-10.64;0.68;0.21;0.88
1753877893.286526;-13.947;4.437;-0.285;-2.9;-0.83;-5.2;0.0;0.0;0.0;0.0;31.2;9.6;-27.6;-62.0;-0.22;0.57;-10.64;0.61;0.28;0.96
1753877893.291526;-13.947;4.437;-0.285;-2.9;-0.86;-5.2;0.0;0.0;0.0;0.0;31.6;17.7;-28.1;-62.0;-0.19;0.59;-10.64;0.74;0.17;0.99
1753877893.296526;-13.947;4.437;-0.285;-2.9;-0.86;-5.2;0.0;0.0;0.0;0.0;31.6;3.1;-29.6;-62.0;-0.19;0.58;-10.62;0.73;0.26;0.91
1753877893.301526;-13.947;4.437;-0.285;-2.9;-0.85;-5.2;0.0;0.0;0.0;0.0;31.5;4.2;-26.4;-62.0;-0.19;0.59;-10.6;0.57;0.26;0.92
1753877893.306526;-13.947;4.437;-0.285;-2.9;-0.86;-5.2;0.0;0.0;0.0;0.0;32.3;18.6;-23.2;-62.0;-0.22;0.6;-10.63;0.73;0.14;0.94
1753877893.311525;-13.947;4.437;-0.285;-2.9;-0.85;-5.2;0.0;0.0;0.0;0.0;32.0;12.0;-28.0;-62.0;-0.2;0.59;-10.61;0.61;0.26;0.99
1753877893.316525;-13.947;4.437;-0.285;-2.9;-0.85;-5.2;0.0;0.0;0.0;0.0;32.0;12.0;-28.0;-62.0;-0.2;0.6;-10.62;0.79;0.31;0.98
1753877893.321525;-13.947;4.437;-0.285;-2.9;-0.85;-5.2;0.0;0.0;0.0;0.0;32.0;12.0;-28.0;-62.0;-0.19;0.6;-10.61;0.6;0.22;1.03
1753877893.326525;-13.947;4.437;-0.285;-2.9;-0.85;-5.2;0.0;0.0;0.0;0.0;32.0;12.0;-28.0;-62.0;-0.19;0.6;-10.61;0.78;0.25;0.95
1753877893.331525;-13.947;4.437;-0.285;-2.9;-0.85;-5.2;0.0;0.0;0.0;0.0;32.0;12.0;-28.0;-62.0;-0.19;0.6;-10.62;0.67;0.24;0.85
1753877893.336525;-13.947;4.437;-0.285;-2.9;-0.85;-5.2;0.0;0.0;0.0;0.0;32.0;12.0;-28.0;-62.0;-0.2;0.6;-10.62;0.69;0.27;0.9
1753877893.341525;-13.947;4.437;-0.285;-2.9;-0.85;-5.2;0.0;0.0;0.0;0.0;32.0;12.0;-28.0;-62.0;-0.2;0.6;-10.63;0.67;0.32;0.95
1753877893.346525;-13.947;4.437;-0.285;-2.9;-0.85;-5.2;0.0;0.0;0.0;0.0;32.0;12.0;-28.0;-62.0;-0.2;0.6;-10.63;0.69;0.28;0.82
1753877893.351525;-13.947;4.437;-0.285;-2.9;-0.85;-5.2;0.0;0.0;0.0;0.0;32.0;12.0;-28.0;-62.0;-0.2;0.61;-10.62;0.7;0.35;0.98
1753877893.356525;-13.947;4.437;-0.285;-2.9;-0.85;-5.2;0.0;0.0;0.0;0.0;32.0;12.0;-28.0;-62.0;-0.2;0.61;-10.63;0.77;0.43;1.04
1753877893.361525;-13.947;4.437;-0.285;-2.9;-0.85;-5.2;0.0;0.0;0.0;0.0;32.0;12.0;-28.0;-62.0;-0.2;0.61;-10.63;0.67;0.34;1.02
1753877893.366525;-13.947;4.437;-0.285;-2.9;-0.85;-5.2;0.0;0.0;0.0;0.0;32.0;12.0;-28.0;-62.0;-0.19;0.61;-10.64;0.8;0.27;1.06
1753877893.371525;-13.947;4.437;-0.285;-2.9;-0.85;-5.2;0.0;0.0;0.0;0.0;32.0;12.0;-28.0;-62.0;-0.2;0.6;-10.64;0.67;0.25;0.96
1753877893.376525;-13.947;4.437;-0.285;-2.9;-0.85;-5.2;0.0;0.0;0.0;0.0;32.0;12.0;-28.0;-62.0;-0.21;0.61;-10.63;0.66;0.28;1.05
1753877893.381525;-13.947;4.437;-0.285;-2.9;-0.85;-5.2;0.0;0.0;0.0;0.0;32.0;12.0;-28.0;-62.0;-0.2;0.61;-10.63;0.68;0.41;1.01
1753877893.386525;-13.947;4.437;-0.285;-2.9;-0.85;-5.2;0.0;0.0;0.0;0.0;32.0;12.0;-28.0;-62.0;-0.2;0.61;-10.63;0.77;0.46;0.93
1753877893.391525;-13.947;4.437;-0.285;-2.9;-0.85;-5.2;0.0;0.0;0.0;0.0;32.0;12.0;-28.0;-62.0;-0.19;0.62;-10.62;0.76;0.41;0.9
1753877893.396525;-13.947;4.437;-0.285;-2.9;-0.85;-5.2;0.0;0.0;0.0;0.0;32.0;12.0;-28.0;-62.0;-0.2;0.61;-10.62;0.68;0.2;0.84
1753877893.401525;-13.947;4.437;-0.285;-2.9;-0.85;-5.2;0.0;0.0;0.0;0.0;32.0;12.0;-28.0;-62.0;-0.2;0.61;-10.62;0.72;0.16;1.03
1753877893.406525;-13.947;4.437;-0.285;-2.9;-0.85;-5.2;0.0;0.0;0.0;0.0;32.0;12.0;-28.0;-62.0;-0.2;0.6;-10.62;0.71;0.35;0.95
1753877893.411525;-13.947;4.437;-0.285;-2.9;-0.85;-5.2;0.0;0.0;0.0;0.0;32.0;12.0;-28.0;-62.0;-0.2;0.6;-10.62;0.67;0.31;0.96
1753877893.416525;-13.947;4.437;-0.285;-2.9;-0.85;-5.2;0.0;0.0;0.0;0.0;32.0;12.0;-28.0;-62.0;-0.2;0.6;-10.62;0.69;0.37;0.99
1753877893.421525;-13.947;4.437;-0.285;-2.9;-0.85;-5.2;0.0;0.0;0.0;0.0;32.0;12.0;-28.0;-62.0;-0.21;0.6;-10.62;0.81;0.31;0.96
1753877893.426525;-13.947;4.437;-0.285;-2.9;-0.85;-5.2;0.0;0.0;0.0;0.0;32.0;12.0;-28.0;-62.0;-0.2;0.6;-10.62;0.83;0.39;0.99
1753877893.431525;-13.947;4.437;-0.285;-2.9;-0.85;-5.2;0.0;0.0;0.0;0.0;32.0;12.0;-28.0;-62.0;-0.2;0.59;-10.63;0.75;0.25;0.94
1753877893.436525;-13.947;4.437;-0.285;-2.9;-0.85;-5.2;0.0;0.0;0.0;0.0;32.0;12.0;-28.0;-62.0;-0.2;0.59;-10.63;0.69;0.35;1.01
1753877893.441525;-13.947;4.437;-0.285;-2.9;-0.85;-5.2;0.0;0.0;0.0;0.0;32.0;12.0;-28.0;-62.0;-0.2;0.59;-10.63;0.67;0.28;0.88
1753877893.446525;-13.947;4.437;-0.285;-2.9;-0.85;-5.2;0.0;0.0;0.0;0.0;32.0;12.0;-28.0;-62.0;-0.19;0.59;-10.63;0.64;0.38;0.85
1753877893.451525;-13.947;4.437;-0.285;-2.9;-0.85;-5.2;0.0;0.0;0.0;0.0;32.0;12.0;-28.0;-62.0;-0.19;0.59;-10.63;0.65;0.24;0.97
1753877893.456525;-13.947;4.437;-0.285;-2.9;-0.85;-5.2;0.0;0.0;0.0;0.0;32.0;12.0;-28.0;-62.0;-0.19;0.59;-10.63;0.64;0.19;0.9
1753877893.461525;-13.947;4.437;-0.285;-2.9;-0.85;-5.2;0.0;0.0;0.0;0.0;32.0;12.0;-28.0;-62.0;-0.19;0.6;-10.62;0.75;0.32;0.99
1753877893.466525;-13.947;4.437;-0.285;-2.9;-0.85;-5.2;0.0;0.0;0.0;0.0;32.0;12.0;-28.0;-62.0;-0.19;0.6;-10.62;0.75;0.33;0.87
1753877893.471525;-13.947;4.437;-0.285;-2.9;-0.85;-5.2;0.0;0.0;0.0;0.0;32.0;12.0;-28.0;-62.0;-0.2;0.6;-10.62;0.74;0.38;1.08
1753877893.476525;-13.947;4.437;-0.285;-2.9;-0.85;-5.2;0.0;0.0;0.0;0.0;32.0;12.0;-28.0;-62.0;-0.2;0.6;-10.61;0.7;0.41;0.93
1753877893.481525;-13.947;4.437;-0.285;-2.9;-0.85;-5.2;0.0;0.0;0.0;0.0;32.0;12.0;-28.0;-62.0;-0.2;0.6;-10.61;0.72;0.4;0.9
1753877893.486525;-13.947;4.437;-0.285;-2.9;-0.85;-5.2;0.0;0.0;0.0;0.0;32.0;12.0;-28.0;-62.0;-0.21;0.59;-10.6;0.79;0.45;0.97
1753877893.491525;-13.947;4.437;-0.285;-2.9;-0.85;-5.2;0.0;0.0;0.0;0.0;32.0;12.0;-28.0;-62.0;-0.2;0.61;-10.61;0.69;0.38;1.0
1753877893.496525;-13.947;4.437;-0.285;-2.9;-0.85;-5.2;0.0;0.0;0.0;0.0;32.0;12.0;-28.0;-62.0;-0.2;0.6;-10.61;0.7;0.35;1.0
1753877893.501525;-13.947;4.437;-0.285;-2.9;-0.85;-5.2;0.0;0.0;0.0;0.0;32.0;12.0;-28.0;-62.0;-0.2;0.6;-10.61;0.73;0.38;0.77
1753877893.506525;-13.947;4.437;-0.285;-2.9;-0.85;-5.2;0.0;0.0;0.0;0.0;32.0;12.0;-28.0;-62.0;-0.2;0.59;-10.61;0.75;0.28;0.95
1753877893.511525;-13.947;4.437;-0.285;-2.9;-0.85;-5.2;0.0;0.0;0.0;0.0;32.0;12.0;-28.0;-62.0;-0.2;0.59;-10.61;0.77;0.24;1.02
1753877893.516525;-13.947;4.437;-0.285;-2.9;-0.85;-5.2;0.0;0.0;0.0;0.0;32.0;12.0;-28.0;-62.0;-0.19;0.59;-10.61;0.74;0.32;0.9
1753877893.521525;-13.947;4.437;-0.285;-2.9;-0.85;-5.2;0.0;0.0;0.0;0.0;32.0;12.0;-28.0;-62.0;-0.19;0.59;-10.61;0.71;0.28;0.96
1753877893.526525;-13.947;4.437;-0.285;-2.9;-0.85;-5.2;0.0;0.0;0.0;0.0;32.0;12.0;-28.0;-62.0;-0.19;0.59;-10.61;0.62;0.36;0.91
1753877893.531525;-13.947;4.437;-0.285;-2.9;-0.85;-5.2;0.0;0.0;0.0;0.0;32.0;12.0;-28.0;-62.0;-0.19;0.6;-10.62;0.68;0.3;0.86
1753877893.536525;-13.947;4.437;-0.285;-2.9;-0.85;-5.2;0.0;0.0;0.0;0.0;32.0;12.0;-28.0;-62.0;-0.2;0.6;-10.62;0.77;0.44;0.92
1753877893.541525;-13.947;4.437;-0.285;-2.9;-0.85;-5.2;0.0;0.0;0.0;0.0;32.0;12.0;-28.0;-62.0;-0.2;0.6;-10.62;0.68;0.3;0.96
1753877893.546525;-13.947;4.437;-0.285;-2.9;-0.85;-5.2;0.0;0.0;0.0;0.0;32.0;12.0;-28.0;-62.0;-0.2;0.59;-10.63;0.63;0.27;0.83
1753877893.551525;-13.947;4.437;-0.285;-2.9;-0.85;-5.2;0.0;0.0;0.0;0.0;31.5;12.6;-28.5;-62.0;-0.2;0.6;-10.63;0.69;0.37;1.03
1753877893.556525;-13.947;4.437;-0.285;-2.9;-0.85;-5.2;0.0;0.0;0.0;0.0;33.0;16.3;-30.4;-62.0;-0.2;0.59;-10.62;0.57;0.21;0.93
1753877893.561525;-13.947;4.437;-0.285;-2.9;-0.85;-5.2;0.0;0.0;0.0;0.0;32.1;12.6;-29.2;-62.0;-0.19;0.59;-10.63;0.66;0.35;0.8
1753877893.566526;-13.947;4.437;-0.285;-2.9;-0.85;-5.2;0.0;0.0;0.0;0.0;31.6;14.7;-29.8;-62.0;-0.2;0.59;-10.62;0.65;0.26;0.96
1753877893.571526;-13.947;4.437;-0.285;-2.9;-0.85;-5.2;0.0;0.0;0.0;0.0;31.5;15.6;-29.4;-62.0;-0.2;0.59;-10.62;0.58;0.17;0.86
1753877893.576526;-13.947;4.437;-0.285;-2.9;-0.85;-5.2;0.0;0.0;0.0;0.0;30.9;15.5;-28.5;-62.0;-0.21;0.59;-10.63;0.76;0.32;0.9
1753877893.581526;-13.947;4.437;-0.285;-2.9;-0.85;-5.2;0.0;0.0;0.0;0.0;30.4;15.3;-32.0;-62.0;-0.21;0.59;-10.63;0.63;0.24;0.96
1753877893.586526;-13.947;4.437;-0.285;-2.9;-0.85;-5.2;0.0;0.0;0.0;0.0;31.1;14.9;-30.2;-62.0;-0.2;0.6;-10.62;0.66;0.19;0.9
1753877893.591526;-13.947;4.437;-0.285;-2.9;-0.85;-5.2;0.0;0.0;0.0;0.0;30.4;18.5;-29.0;-62.0;-0.2;0.59;-10.61;0.7;0.2;0.92
1753877893.596526;-13.947;4.437;-0.285;-2.9;-0.85;-5.2;0.0;0.0;0.0;0.0;31.1;16.3;-30.7;-62.0;-0.2;0.6;-10.62;0.68;0.3;0.99
1753877893.601526;-13.947;4.437;-0.285;-2.9;-0.85;-5.2;0.0;0.0;0.0;0.0;29.8;12.2;-28.6;-62.0;-0.2;0.59;-10.63;0.63;0.31;1.0
1753877893.606526;-13.947;4.437;-0.285;-2.9;-0.86;-5.2;0.0;0.0;0.0;0.0;29.7;17.7;-30.4;-62.0;-0.21;0.6;-10.62;0.7;0.3;0.95
1753877893.611526;-13.947;4.437;-0.285;-2.9;-0.86;-5.2;0.0;0.0;0.0;0.0;30.2;18.4;-31.4;-62.0;-0.2;0.6;-10.61;0.68;0.27;0.88
1753877893.616526;-13.947;4.437;-0.285;-2.9;-0.86;-5.2;0.0;0.0;0.0;0.0;30.2;14.3;-30.4;-62.0;-0.21;0.6;-10.62;0.68;0.19;0.92
1753877893.621527;-13.947;4.437;-0.285;-2.9;-0.86;-5.2;0.0;0.0;0.0;0.0;30.3;15.5;-32.4;-62.0;-0.2;0.6;-10.63;0.71;0.34;0.98
1753877893.626527;-13.947;4.437;-0.285;-2.9;-0.86;-5.2;0.0;0.0;0.0;0.0;30.5;22.4;-31.7;-62.0;-0.2;0.58;-10.62;0.77;0.23;0.89
1753877893.631527;-13.947;4.437;-0.285;-2.9;-0.86;-5.2;0.0;0.0;0.0;0.0;31.6;20.6;-32.1;-62.0;-0.19;0.6;-10.63;0.75;0.24;0.93
1753877893.636527;-13.947;4.437;-0.285;-2.9;-0.87;-5.2;0.0;0.0;0.0;0.0;29.7;20.5;-31.3;-62.0;-0.2;0.59;-10.62;0.73;0.24;0.89
1753877893.641527;-13.947;4.437;-0.285;-2.9;-0.87;-5.2;0.0;0.0;0.0;0.0;29.5;14.3;-30.0;-62.0;-0.2;0.6;-10.62;0.65;0.36;0.94
1753877893.646527;-13.947;4.437;-0.285;-2.9;-0.86;-5.2;0.0;0.0;0.0;0.0;28.8;22.0;-31.2;-62.0;-0.2;0.6;-10.62;0.72;0.3;1.08
1753877893.651528;-13.947;4.437;-0.285;-2.9;-0.86;-5.2;0.0;0.0;0.0;0.0;28.7;24.4;-33.3;-62.0;-0.2;0.6;-10.62;0.78;0.29;0.95
1753877893.656528;-13.947;4.437;-0.285;-2.9;-0.87;-5.2;0.0;0.0;0.0;0.0;29.5;18.6;-31.8;-62.0;-0.2;0.6;-10.62;0.76;0.35;1.04
1753877893.661528;-13.947;4.437;-0.285;-2.9;-0.87;-5.2;0.0;0.0;0.0;0.0;29.9;21.3;-33.8;-62.0;-0.2;0.59;-10.62;0.77;0.3;0.86
1753877893.666528;-13.947;4.437;-0.285;-2.9;-0.87;-5.2;0.0;0.0;0.0;0.0;29.3;22.8;-33.3;-62.0;-0.2;0.6;-10.61;0.69;0.26;0.83
1753877893.671528;-13.947;4.437;-0.285;-2.9;-0.87;-5.2;0.0;0.0;0.0;0.0;28.6;22.5;-31.8;-62.0;-0.2;0.6;-10.63;0.79;0.33;0.84
1753877893.676528;-13.947;4.437;-0.285;-2.9;-0.87;-5.2;0.0;0.0;0.0;0.0;28.5;22.8;-33.5;-62.0;-0.2;0.61;-10.63;0.86;0.29;1.01
1753877893.681525;-13.947;4.437;-0.285;-2.9;-0.87;-5.2;0.0;0.0;0.0;0.0;29.0;24.0;-33.0;-62.0;-0.2;0.6;-10.62;0.77;0.29;0.96
1753877893.686525;-13.947;4.437;-0.285;-2.9;-0.89;-5.2;0.0;0.0;0.0;0.0;32.4;28.8;-32.5;-62.2;-0.19;0.6;-10.62;0.78;0.24;0.96
1753877893.691525;-13.947;4.437;-0.285;-2.9;-0.87;-5.2;0.0;0.0;0.0;0.0;29.2;21.6;-33.0;-62.8;-0.21;0.59;-10.61;0.76;0.32;0.92
1753877893.696525;-13.947;4.437;-0.285;-2.9;-0.87;-5.2;0.0;0.0;0.0;0.0;30.4;24.1;-33.0;-61.2;-0.2;0.59;-10.61;0.78;0.15;0.98
1753877893.701526;-13.947;4.437;-0.285;-2.9;-0.87;-5.2;0.0;0.0;0.0;0.0;28.7;27.0;-32.9;-62.9;-0.2;0.6;-10.62;0.75;0.41;0.94
1753877893.706526;-13.947;4.437;-0.285;-2.9;-0.88;-5.2;0.0;0.0;0.0;0.0;29.4;25.4;-32.2;-61.7;-0.2;0.6;-10.62;0.79;0.18;1.06
1753877893.711526;-13.947;4.437;-0.285;-2.9;-0.88;-5.2;0.0;0.0;0.0;0.0;28.6;18.1;-32.6;-61.1;-0.2;0.6;-10.62;0.72;0.24;0.89
1753877893.716526;-13.947;4.437;-0.285;-2.9;-0.87;-5.2;0.0;0.0;0.0;0.0;27.3;23.3;-30.4;-63.0;-0.19;0.6;-10.64;0.87;0.19;0.96
1753877893.721526;-13.947;4.437;-0.285;-2.9;-0.87;-5.2;0.0;0.0;0.0;0.0;29.1;26.2;-30.9;-62.8;-0.19;0.6;-10.62;0.74;0.29;0.89
1753877893.726526;-13.947;4.437;-0.285;-2.9;-0.88;-5.2;0.0;0.0;0.0;0.0;27.7;25.1;-30.4;-63.8;-0.19;0.59;-10.62;0.84;0.26;1.01
1753877893.731526;-13.947;4.437;-0.285;-2.9;-0.88;-5.2;0.0;0.0;0.0;0.0;27.2;23.3;-28.3;-64.1;-0.19;0.6;-10.61;0.82;0.3;0.94
1753877893.736526;-13.947;4.437;-0.285;-2.9;-0.88;-5.2;0.0;0.0;0.0;0.0;28.9;23.9;-31.6;-64.9;-0.18;0.6;-10.62;0.84;0.31;0.91
1753877893.741526;-13.947;4.437;-0.285;-2.9;-0.86;-5.2;0.0;0.0;0.0;0.0;27.4;25.2;-34.4;-63.3;-0.2;0.6;-10.62;0.79;0.31;0.9
1753877893.746526;-13.947;4.437;-0.285;-2.9;-0.88;-5.2;0.0;0.0;0.0;0.0;28.6;24.2;-30.6;-65.8;-0.19;0.6;-10.63;0.78;0.42;0.94
1753877893.751526;-13.947;4.437;-0.285;-2.9;-0.89;-5.2;0.0;0.0;0.0;0.0;23.9;31.9;-30.0;-63.2;-0.19;0.61;-10.63;0.8;0.21;1.04
1753877893.756527;-13.947;4.437;-0.285;-2.9;-0.87;-5.2;0.0;0.0;0.0;0.0;28.1;23.2;-30.9;-65.7;-0.19;0.6;-10.63;0.7;0.3;0.86
1753877893.761527;-13.947;4.437;-0.285;-2.9;-0.87;-5.2;0.0;0.0;0.0;0.0;26.0;18.7;-29.4;-64.6;-0.2;0.6;-10.62;0.79;0.35;1.06
1753877893.766527;-13.947;4.437;-0.285;-2.89;-0.87;-5.2;0.0;0.0;0.0;0.0;27.4;17.3;-30.9;-67.3;-0.2;0.6;-10.62;0.75;0.35;0.88
1753877893.771527;-13.947;4.437;-0.285;-2.89;-0.88;-5.2;0.0;0.0;0.0;0.0;25.9;13.5;-31.0;-66.1;-0.18;0.6;-10.62;0.73;0.45;0.96
1753877893.776527;-13.947;4.437;-0.285;-2.89;-0.89;-5.2;0.0;0.0;0.0;0.0;25.5;23.5;-29.1;-65.3;-0.19;0.6;-10.64;0.76;0.34;0.95
1753877893.781527;-13.947;4.437;-0.285;-2.9;-0.87;-5.2;0.0;0.0;0.0;0.0;28.6;21.9;-28.7;-67.1;-0.18;0.6;-10.62;0.72;0.27;1.02
1753877893.786528;-13.947;4.437;-0.285;-2.89;-0.89;-5.2;0.0;0.0;0.0;0.0;24.8;22.9;-30.1;-65.2;-0.18;0.59;-10.62;0.86;0.36;0.87
1753877893.791528;-13.947;4.437;-0.285;-2.89;-0.87;-5.2;0.0;0.0;0.0;0.0;27.9;21.5;-27.7;-67.3;-0.19;0.6;-10.62;0.76;0.2;0.98
1753877893.796528;-13.947;4.437;-0.285;-2.9;-0.88;-5.2;0.0;0.0;0.0;0.0;27.3;27.8;-28.3;-66.6;-0.18;0.6;-10.62;0.81;0.27;1.0
1753877893.801528;-13.947;4.437;-0.285;-2.89;-0.88;-5.2;0.0;0.0;0.0;0.0;26.9;30.1;-27.7;-67.1;-0.18;0.6;-10.62;0.75;0.24;0.93
1753877893.806528;-13.947;4.437;-0.285;-2.89;-0.89;-5.2;0.0;0.0;0.0;0.0;27.9;20.3;-28.4;-66.6;-0.18;0.61;-10.62;0.77;0.31;0.95
1753877893.811528;-13.947;4.437;-0.285;-2.89;-0.86;-5.2;0.0;0.0;0.0;0.0;26.2;22.7;-27.8;-67.9;-0.19;0.59;-10.62;0.79;0.26;0.88
1753877893.816528;-13.947;4.437;-0.285;-2.89;-0.87;-5.2;0.0;0.0;0.0;0.0;28.3;15.0;-27.0;-65.9;-0.17;0.6;-10.62;0.79;0.45;0.92
1753877893.821528;-13.947;4.437;-0.285;-2.89;-0.87;-5.2;0.0;0.0;0.0;0.0;25.6;25.0;-27.6;-67.6;-0.18;0.6;-10.63;0.8;0.15;0.84
1753877893.826528;-13.947;4.437;-0.285;-2.89;-0.87;-5.2;0.0;0.0;0.0;0.0;27.6;17.8;-30.8;-66.7;-0.19;0.59;-10.62;0.86;0.33;0.83
1753877893.831528;-13.947;4.437;-0.285;-2.9;-0.87;-5.2;0.0;0.0;0.0;0.0;26.0;24.1;-26.8;-66.9;-0.19;0.59;-10.62;0.77;0.32;0.96
1753877893.836528;-13.947;4.437;-0.285;-2.89;-0.88;-5.2;0.0;0.0;0.0;0.0;26.6;21.7;-25.8;-65.1;-0.2;0.6;-10.62;0.68;0.49;0.98
1753877893.841529;-13.947;4.437;-0.285;-2.89;-0.89;-5.2;0.0;0.0;0.0;0.0;27.0;26.0;-29.8;-68.6;-0.18;0.59;-10.61;0.71;0.34;1.01
1753877893.846529;-13.947;4.437;-0.285;-2.89;-0.88;-5.2;0.0;0.0;0.0;0.0;24.5;25.1;-26.6;-65.7;-0.19;0.61;-10.61;0.74;0.23;0.86
1753877893.851529;-13.947;4.437;-0.285;-2.89;-0.88;-5.2;0.0;0.0;0.0;0.0;24.6;19.8;-25.4;-65.0;-0.18;0.61;-10.63;0.79;0.33;0.96
1753877893.856529;-13.947;4.437;-0.285;-2.89;-0.87;-5.2;0.0;0.0;0.0;0.0;25.2;25.6;-24.1;-69.6;-0.18;0.6;-10.62;0.79;0.31;1.0
1753877893.861525;-13.947;4.437;-0.285;-2.89;-0.88;-5.2;0.0;0.0;0.0;0.0;26.0;24.0;-26.0;-68.0;-0.18;0.6;-10.62;0.77;0.32;0.94
1753877893.866525;-13.947;4.437;-0.285;-2.89;-0.88;-5.2;0.0;0.0;0.0;0.0;26.0;24.0;-26.0;-68.0;-0.19;0.6;-10.63;0.57;0.31;0.83
1753877893.871525;-13.947;4.437;-0.285;-2.89;-0.89;-5.2;0.0;0.0;0.0;0.0;29.5;23.4;-28.1;-64.2;-0.19;0.6;-10.63;0.56;0.28;0.78
1753877893.876525;-13.947;4.437;-0.285;-2.9;-0.9;-5.2;0.0;0.0;0.0;0.0;24.9;23.4;-26.1;-67.0;-0.19;0.59;-10.63;0.57;0.33;0.83
1753877893.881525;-13.947;4.437;-0.285;-2.89;-0.9;-5.2;0.0;0.0;0.0;0.0;24.7;22.2;-25.2;-66.4;-0.2;0.6;-10.64;0.59;0.29;0.85
1753877893.886526;-13.947;4.437;-0.285;-2.89;-0.88;-5.2;0.0;0.0;0.0;0.0;24.9;29.4;-26.4;-68.2;-0.19;0.6;-10.63;0.58;0.23;0.91
1753877893.891526;-13.947;4.437;-0.285;-2.89;-0.9;-5.2;0.0;0.0;0.0;0.0;26.1;20.1;-25.9;-69.7;-0.18;0.6;-10.62;0.54;0.27;0.82
1753877893.896526;-13.947;4.437;-0.285;-2.89;-0.9;-5.2;0.0;0.0;0.0;0.0;26.2;20.8;-25.8;-72.0;-0.2;0.59;-10.63;0.62;0.31;0.68
1753877893.901526;-13.947;4.437;-0.285;-2.89;-0.87;-5.2;0.0;0.0;0.0;0.0;22.3;24.3;-27.8;-67.3;-0.2;0.6;-10.63;0.66;0.38;0.87
1753877893.906526;-13.947;4.437;-0.285;-2.89;-0.88;-5.2;0.0;0.0;0.0;0.0;26.6;19.3;-26.8;-71.5;-0.2;0.6;-10.62;0.68;0.32;0.86
1753877893.911526;-13.947;4.437;-0.285;-2.89;-0.88;-5.2;0.0;0.0;0.0;0.0;28.4;17.8;-26.8;-65.5;-0.2;0.59;-10.64;0.63;0.22;0.86
1753877893.916526;-13.947;4.437;-0.285;-2.89;-0.87;-5.2;0.0;0.0;0.0;0.0;27.4;17.0;-26.9;-65.3;-0.19;0.59;-10.63;0.66;0.28;0.96
1753877893.921526;-13.947;4.437;-0.285;-2.89;-0.9;-5.2;0.0;0.0;0.0;0.0;24.8;27.3;-25.2;-69.6;-0.2;0.59;-10.63;0.75;0.28;0.79
1753877893.926526;-13.947;4.437;-0.285;-2.89;-0.88;-5.2;0.0;0.0;0.0;0.0;27.1;26.4;-29.6;-68.6;-0.18;0.59;-10.63;0.65;0.29;0.76
1753877893.931526;-13.947;4.437;-0.285;-2.89;-0.88;-5.2;0.0;0.0;0.0;0.0;26.0;26.8;-26.8;-66.9;-0.19;0.59;-10.65;0.58;0.32;0.83
1753877893.936526;-13.947;4.437;-0.285;-2.89;-0.87;-5.2;0.0;0.0;0.0;0.0;29.8;16.6;-27.2;-66.7;-0.2;0.59;-10.62;0.63;0.27;1.03
1753877893.941527;-13.947;4.437;-0.285;-2.89;-0.89;-5.2;0.0;0.0;0.0;0.0;27.4;23.7;-28.4;-72.1;-0.19;0.6;-10.63;0.66;0.33;0.78
1753877893.946527;-13.947;4.437;-0.285;-2.89;-0.89;-5.2;0.0;0.0;0.0;0.0;29.9;27.5;-29.3;-66.2;-0.19;0.59;-10.62;0.67;0.3;0.88
1753877893.951527;-13.947;4.437;-0.285;-2.89;-0.88;-5.2;0.0;0.0;0.0;0.0;27.7;21.5;-27.1;-67.4;-0.2;0.6;-10.64;0.7;0.32;0.91
1753877893.956527;-13.947;4.437;-0.285;-2.89;-0.89;-5.2;0.0;0.0;0.0;0.0;28.8;21.4;-28.0;-65.0;-0.21;0.6;-10.63;0.73;0.25;0.98
1753877893.961527;-13.947;4.437;-0.285;-2.89;-0.89;-5.2;0.0;0.0;0.0;0.0;25.8;23.0;-28.5;-64.7;-0.2;0.6;-10.65;0.64;0.3;0.98
1753877893.966527;-13.947;4.437;-0.285;-2.89;-0.85;-5.2;0.0;0.0;0.0;0.0;31.9;14.2;-26.5;-67.1;-0.2;0.59;-10.63;0.67;0.25;0.76
1753877893.971527;-13.947;4.437;-0.285;-2.89;-0.88;-5.2;0.0;0.0;0.0;0.0;31.9;26.4;-29.2;-69.8;-0.2;0.59;-10.63;0.7;0.25;0.88
1753877893.976528;-13.947;4.437;-0.285;-2.89;-0.89;-5.2;0.0;0.0;0.0;0.0;28.5;23.9;-26.8;-65.6;-0.19;0.59;-10.63;0.68;0.27;0.82
1753877893.981528;-13.947;4.437;-0.285;-2.89;-0.89;-5.2;0.0;0.0;0.0;0.0;28.8;25.1;-26.6;-68.4;-0.2;0.6;-10.63;0.62;0.27;0.86
1753877893.986528;-13.947;4.437;-0.285;-2.89;-0.88;-5.2;0.0;0.0;0.0;0.0;31.8;19.0;-27.5;-66.8;-0.2;0.59;-10.63;0.64;0.35;0.83
1753877893.991528;-13.947;4.437;-0.285;-2.89;-0.88;-5.2;0.0;0.0;0.0;0.0;32.9;16.3;-27.0;-67.1;-0.21;0.6;-10.63;0.67;0.29;0.87
1753877893.996528;-13.947;4.437;-0.285;-2.89;-0.9;-5.2;0.0;0.0;0.0;0.0;33.6;22.3;-28.4;-66.8;-0.2;0.6;-10.63;0.76;0.31;0.92
1753877894.001528;-13.947;4.437;-0.285;-2.89;-0.89;-5.2;0.0;0.0;0.0;0.0;32.0;24.8;-28.8;-65.2;-0.21;0.6;-10.64;0.64;0.28;0.89
1753877894.006528;-13.947;4.437;-0.285;-2.89;-0.87;-5.2;0.0;0.0;0.0;0.0;25.9;20.2;-27.4;-67.1;-0.2;0.59;-10.63;0.66;0.27;0.95
1753877894.011528;-13.947;4.437;-0.285;-2.89;-0.88;-5.2;0.0;0.0;0.0;0.0;32.7;17.4;-30.2;-64.3;-0.21;0.59;-10.63;0.66;0.22;0.98
1753877894.016528;-13.947;4.437;-0.285;-2.89;-0.88;-5.2;0.0;0.0;0.0;0.0;32.4;23.5;-28.2;-67.3;-0.21;0.59;-10.62;0.71;0.28;0.94
1753877894.021528;-13.947;4.437;-0.285;-2.89;-0.88;-5.2;0.0;0.0;0.0;0.0;29.6;24.8;-28.4;-67.7;-0.21;0.59;-10.63;0.75;0.29;0.86
1753877894.026528;-13.947;4.437;-0.285;-2.89;-0.87;-5.2;0.0;0.0;0.0;0.0;33.5;30.0;-30.4;-65.4;-0.21;0.59;-10.61;0.7;0.26;0.89
1753877894.031529;-13.947;4.437;-0.285;-2.89;-0.87;-5.2;0.0;0.0;0.0;0.0;31.2;12.8;-28.1;-64.9;-0.22;0.59;-10.63;0.8;0.37;0.95
1753877894.036529;-13.947;4.437;-0.285;-2.89;-0.87;-5.2;0.0;0.0;0.0;0.0;32.8;22.8;-29.2;-68.0;-0.2;0.59;-10.64;0.69;0.25;1.08
1753877894.041529;-13.947;4.437;-0.285;-2.89;-0.88;-5.2;0.0;0.0;0.0;0.0;34.7;18.9;-31.5;-66.0;-0.2;0.6;-10.62;0.72;0.38;1.03
1753877894.046529;-13.947;4.437;-0.285;-2.89;-0.88;-5.2;0.0;0.0;0.0;0.0;33.3;26.8;-27.8;-70.4;-0.2;0.59;-10.62;0.76;0.31;0.95
1753877894.051525;-13.947;4.437;-0.285;-2.89;-0.88;-5.2;0.0;0.0;0.0;0.0;32.0;22.0;-30.0;-66.0;-0.21;0.59;-10.63;0.73;0.3;0.98
1753877894.056525;-13.947;4.437;-0.285;-2.89;-0.88;-5.2;0.0;0.0;0.0;0.0;32.0;22.0;-30.0;-66.0;-0.21;0.59;-10.63;0.68;0.22;0.99
1753877894.061525;-13.947;4.437;-0.285;-2.89;-0.88;-5.2;0.0;0.0;0.0;0.0;32.0;22.0;-30.0;-66.0;-0.21;0.59;-10.63;0.7;0.22;0.94
1753877894.066525;-13.947;4.437;-0.285;-2.89;-0.88;-5.2;0.0;0.0;0.0;0.0;32.0;22.0;-30.0;-66.0;-0.21;0.58;-10.62;0.61;0.23;0.94
1753877894.071525;-13.947;4.437;-0.285;-2.89;-0.88;-5.2;0.0;0.0;0.0;0.0;32.0;22.0;-30.0;-66.0;-0.2;0.58;-10.63;0.64;0.22;0.96
1753877894.076525;-13.947;4.437;-0.285;-2.89;-0.89;-5.2;0.0;0.0;0.0;0.0;33.6;16.8;-27.3;-64.1;-0.21;0.58;-10.61;0.69;0.32;0.98
1753877894.081525;-13.947;4.437;-0.285;-2.89;-0.88;-5.2;0.0;0.0;0.0;0.0;32.0;22.0;-30.0;-66.0;-0.2;0.58;-10.62;0.57;0.41;1.02
1753877894.086525;-13.947;4.437;-0.285;-2.89;-0.88;-5.2;0.0;0.0;0.0;0.0;32.0;22.0;-30.0;-66.0;-0.2;0.58;-10.62;0.65;0.34;1.03
1753877894.091525;-13.947;4.437;-0.285;-2.89;-0.88;-5.2;0.0;0.0;0.0;0.0;32.0;22.0;-30.0;-66.0;-0.2;0.59;-10.63;0.64;0.17;1.16
1753877894.096525;-13.947;4.437;-0.285;-2.89;-0.88;-5.2;0.0;0.0;0.0;0.0;32.0;22.0;-30.0;-66.0;-0.19;0.59;-10.64;0.78;0.33;0.99
1753877894.101525;-13.947;4.437;-0.285;-2.89;-0.88;-5.2;0.0;0.0;0.0;0.0;32.0;22.0;-30.0;-66.0;-0.19;0.59;-10.64;0.73;0.35;0.96
1753877894.106525;-13.947;4.437;-0.285;-2.89;-0.88;-5.2;0.0;0.0;0.0;0.0;32.0;22.0;-30.0;-66.0;-0.19;0.59;-10.63;0.63;0.21;0.72
1753877894.111525;-13.947;4.437;-0.285;-2.89;-0.88;-5.2;0.0;0.0;0.0;0.0;32.0;22.0;-30.0;-66.0;-0.19;0.59;-10.63;0.74;0.35;0.9
1753877894.116525;-13.947;4.437;-0.285;-2.89;-0.88;-5.2;0.0;0.0;0.0;0.0;32.0;22.0;-30.0;-66.0;-0.19;0.6;-10.63;0.8;0.48;0.88
1753877894.121525;-13.947;4.437;-0.285;-2.89;-0.88;-5.2;0.0;0.0;0.0;0.0;32.0;22.0;-30.0;-66.0;-0.19;0.6;-10.64;0.77;0.31;1.03
1753877894.126525;-13.947;4.437;-0.285;-2.89;-0.88;-5.2;0.0;0.0;0.0;0.0;32.0;22.0;-30.0;-66.0;-0.19;0.6;-10.64;0.75;0.39;0.96
1753877894.131525;-13.947;4.437;-0.285;-2.89;-0.88;-5.2;0.0;0.0;0.0;0.0;32.6;22.3;-30.7;-67.0;-0.2;0.6;-10.63;0.68;0.33;1.03
1753877894.136525;-13.947;4.437;-0.285;-2.89;-0.88;-5.2;0.0;0.0;0.0;0.0;32.0;22.0;-30.0;-66.0;-0.2;0.6;-10.63;0.71;0.35;1.07
1753877894.141525;-13.947;4.437;-0.285;-2.89;-0.88;-5.2;0.0;0.0;0.0;0.0;32.0;22.0;-30.0;-66.0;-0.2;0.59;-10.63;0.61;0.33;0.91
1753877894.146525;-13.947;4.437;-0.285;-2.89;-0.88;-5.2;0.0;0.0;0.0;0.0;32.0;22.0;-30.0;-66.0;-0.2;0.59;-10.64;0.77;0.33;0.96
1753877894.151525;-13.947;4.437;-0.285;-2.89;-0.88;-5.2;0.0;0.0;0.0;0.0;32.0;22.0;-30.0;-66.0;-0.21;0.59;-10.63;0.64;0.31;1.02
1753877894.156525;-13.947;4.437;-0.285;-2.89;-0.88;-5.2;0.0;0.0;0.0;0.0;32.0;22.0;-30.0;-66.0;-0.2;0.6;-10.62;0.64;0.38;1.02
1753877894.161525;-13.947;4.437;-0.285;-2.89;-0.88;-5.2;0.0;0.0;0.0;0.0;32.0;22.0;-30.0;-66.0;-0.21;0.59;-10.63;0.76;0.34;0.97
1753877894.166525;-13.947;4.437;-0.285;-2.89;-0.88;-5.2;0.0;0.0;0.0;0.0;32.0;22.0;-30.0;-66.0;-0.21;0.6;-10.64;0.71;0.29;0.99
1753877894.171525;-13.947;4.437;-0.285;-2.89;-0.88;-5.2;0.0;0.0;0.0;0.0;32.0;22.0;-30.0;-66.0;-0.21;0.6;-10.63;0.77;0.3;1.03
1753877894.176525;-13.947;4.437;-0.285;-2.89;-0.88;-5.2;0.0;0.0;0.0;0.0;32.0;22.0;-30.0;-66.0;-0.2;0.6;-10.63;0.8;0.36;0.91
1753877894.181525;-13.947;4.437;-0.285;-2.89;-0.88;-5.2;0.0;0.0;0.0;0.0;32.0;22.0;-30.0;-66.0;-0.2;0.6;-10.62;0.64;0.3;0.93
1753877894.186525;-13.947;4.437;-0.285;-2.89;-0.88;-5.2;0.0;0.0;0.0;0.0;32.0;22.0;-30.0;-66.0;-0.2;0.6;-10.63;0.67;0.43;0.87
1753877894.191525;-13.947;4.437;-0.285;-2.89;-0.88;-5.2;0.0;0.0;0.0;0.0;32.0;22.0;-30.0;-66.0;-0.2;0.6;-10.62;0.77;0.37;0.96
1753877894.196525;-13.947;4.437;-0.285;-2.89;-0.88;-5.2;0.0;0.0;0.0;0.0;32.0;22.0;-30.0;-66.0;-0.19;0.6;-10.62;0.72;0.3;0.91
1753877894.201525;-13.947;4.437;-0.285;-2.89;-0.88;-5.2;0.0;0.0;0.0;0.0;32.0;22.0;-30.0;-66.0;-0.19;0.59;-10.61;0.8;0.4;0.87
1753877894.206525;-13.947;4.437;-0.285;-2.89;-0.88;-5.2;0.0;0.0;0.0;0.0;32.0;22.0;-30.0;-66.0;-0.19;0.59;-10.61;0.67;0.27;0.84
1753877894.211525;-13.947;4.437;-0.285;-2.89;-0.88;-5.2;0.0;0.0;0.0;0.0;32.0;22.0;-30.0;-66.0;-0.19;0.59;-10.62;0.73;0.36;0.75
1753877894.216525;-13.947;4.437;-0.285;-2.89;-0.88;-5.2;0.0;0.0;0.0;0.0;32.0;22.0;-30.0;-66.0;-0.19;0.58;-10.62;0.69;0.28;0.98
1753877894.221525;-13.947;4.437;-0.285;-2.89;-0.88;-5.2;0.0;0.0;0.0;0.0;32.0;22.0;-30.0;-66.0;-0.19;0.58;-10.61;0.7;0.26;0.83
1753877894.226525;-13.947;4.437;-0.285;-2.89;-0.88;-5.2;0.0;0.0;0.0;0.0;32.0;22.0;-30.0;-66.0;-0.2;0.58;-10.63;0.75;0.35;0.87
1753877894.231525;-13.947;4.437;-0.285;-2.89;-0.88;-5.2;0.0;0.0;0.0;0.0;32.0;22.0;-30.0;-66.0;-0.2;0.58;-10.62;0.64;0.37;1.0
1753877894.236525;-13.947;4.437;-0.285;-2.89;-0.88;-5.2;0.0;0.0;0.0;0.0;32.0;22.0;-30.0;-66.0;-0.2;0.58;-10.63;0.65;0.35;1.07
1753877894.241525;-13.947;4.437;-0.285;-2.89;-0.88;-5.2;0.0;0.0;0.0;0.0;32.0;22.0;-30.0;-66.0;-0.2;0.58;-10.63;0.72;0.37;1.04
1753877894.246525;-13.947;4.437;-0.285;-2.89;-0.88;-5.2;0.0;0.0;0.0;0.0;32.0;22.0;-30.0;-66.0;-0.2;0.58;-10.64;0.75;0.34;0.91
1753877894.251525;-13.947;4.437;-0.285;-2.89;-0.88;-5.2;0.0;0.0;0.0;0.0;32.0;22.0;-30.0;-66.0;-0.2;0.59;-10.64;0.71;0.32;0.91
1753877894.256525;-13.947;4.437;-0.285;-2.89;-0.88;-5.2;0.0;0.0;0.0;0.0;32.0;22.0;-30.0;-66.0;-0.2;0.59;-10.64;0.75;0.47;0.93
1753877894.261525;-13.947;4.437;-0.285;-2.89;-0.88;-5.2;0.0;0.0;0.0;0.0;33.2;22.3;-29.1;-66.0;-0.2;0.59;-10.65;0.74;0.51;0.93
1753877894.266525;-13.947;4.437;-0.285;-2.89;-0.88;-5.2;0.0;0.0;0.0;0.0;30.8;22.1;-29.6;-66.0;-0.21;0.6;-10.64;0.8;0.42;0.85
1753877894.271526;-13.947;4.437;-0.285;-2.89;-0.88;-5.2;0.0;0.0;0.0;0.0;31.2;22.0;-30.2;-66.0;-0.19;0.6;-10.65;0.75;0.43;0.83
1753877894.276526;-13.947;4.437;-0.285;-2.89;-0.88;-5.2;0.0;0.0;0.0;0.0;31.8;21.7;-30.1;-66.0;-0.2;0.58;-10.62;0.77;0.4;0.95
1753877894.281526;-13.947;4.437;-0.285;-2.89;-0.88;-5.2;0.0;0.0;0.0;0.0;31.5;22.2;-30.5;-66.0;-0.2;0.6;-10.64;0.8;0.43;1.0
1753877894.286526;-13.947;4.437;-0.285;-2.89;-0.88;-5.2;0.0;0.0;0.0;0.0;29.9;22.0;-29.1;-66.0;-0.2;0.6;-10.65;0.77;0.48;0.96
1753877894.291526;-13.947;4.437;-0.285;-2.89;-0.88;-5.2;0.0;0.0;0.0;0.0;32.1;22.2;-29.6;-66.0;-0.2;0.58;-10.64;0.75;0.43;0.85
1753877894.296526;-13.947;4.437;-0.285;-2.88;-0.89;-5.2;0.0;0.0;0.0;0.0;30.1;22.2;-29.0;-66.0;-0.21;0.59;-10.65;0.71;0.46;1.09
1753877894.301526;-13.947;4.437;-0.285;-2.89;-0.88;-5.2;0.0;0.0;0.0;0.0;30.9;21.5;-29.3;-66.0;-0.2;0.6;-10.63;0.8;0.44;0.85
1753877894.306526;-13.947;4.437;-0.285;-2.89;-0.88;-5.2;0.0;0.0;0.0;0.0;32.9;21.6;-29.3;-66.0;-0.2;0.59;-10.62;0.81;0.38;0.74
1753877894.311526;-13.947;4.437;-0.285;-2.89;-0.88;-5.2;0.0;0.0;0.0;0.0;29.3;21.6;-29.8;-66.0;-0.21;0.6;-10.65;0.71;0.35;1.0
1753877894.316526;-13.947;4.437;-0.285;-2.89;-0.88;-5.2;0.0;0.0;0.0;0.0;30.9;21.7;-28.8;-66.0;-0.21;0.59;-10.66;0.73;0.4;0.81
1753877894.321526;-13.947;4.437;-0.285;-2.89;-0.88;-5.2;0.0;0.0;0.0;0.0;30.4;21.3;-29.2;-66.0;-0.2;0.6;-10.64;0.72;0.36;1.03
1753877894.326527;-13.947;4.437;-0.285;-2.89;-0.88;-5.2;0.0;0.0;0.0;0.0;30.3;21.9;-29.2;-66.0;-0.19;0.61;-10.64;0.73;0.41;0.9
1753877894.331527;-13.947;4.437;-0.285;-2.89;-0.88;-5.2;0.0;0.0;0.0;0.0;30.4;21.9;-29.2;-66.0;-0.2;0.57;-10.64;0.73;0.37;0.95
1753877894.336527;-13.947;4.437;-0.285;-2.88;-0.88;-5.2;0.0;0.0;0.0;0.0;29.3;21.5;-28.2;-66.0;-0.21;0.6;-10.65;0.74;0.31;0.91
1753877894.341527;-13.947;4.437;-0.285;-2.88;-0.88;-5.2;0.0;0.0;0.0;0.0;30.5;21.1;-28.1;-66.0;-0.2;0.59;-10.65;0.69;0.37;0.9
1753877894.346527;-13.947;4.437;-0.285;-2.88;-0.89;-5.2;0.0;0.0;0.0;0.0;31.2;21.8;-29.1;-66.0;-0.21;0.6;-10.66;0.75;0.3;0.93
1753877894.351527;-13.947;4.437;-0.285;-2.89;-0.89;-5.2;0.0;0.0;0.0;0.0;30.9;21.6;-28.8;-66.0;-0.2;0.59;-10.63;0.85;0.36;0.89
1753877894.356527;-13.947;4.437;-0.285;-2.89;-0.89;-5.2;0.0;0.0;0.0;0.0;30.8;21.0;-28.5;-66.0;-0.2;0.59;-10.66;0.74;0.33;0.83
1753877894.361528;-13.947;4.437;-0.285;-2.88;-0.88;-5.2;0.0;0.0;0.0;0.0;29.6;21.0;-28.6;-66.0;-0.2;0.6;-10.66;0.75;0.29;0.95
1753877894.366528;-13.947;4.437;-0.285;-2.89;-0.89;-5.2;0.0;0.0;0.0;0.0;30.5;21.4;-27.4;-66.0;-0.21;0.6;-10.65;0.73;0.37;1.03
1753877894.371528;-13.947;4.437;-0.285;-2.88;-0.89;-5.2;0.0;0.0;0.0;0.0;28.8;21.4;-27.6;-66.0;-0.2;0.61;-10.65;0.7;0.37;0.95
1753877894.376528;-13.947;4.437;-0.285;-2.88;-0.89;-5.2;0.0;0.0;0.0;0.0;27.6;21.6;-28.2;-66.0;-0.19;0.59;-10.66;0.72;0.37;0.96
1753877894.381528;-13.947;4.437;-0.285;-2.88;-0.89;-5.2;0.0;0.0;0.0;0.0;30.2;21.2;-28.1;-66.0;-0.21;0.6;-10.65;0.77;0.26;0.86
1753877894.386528;-13.947;4.437;-0.285;-2.88;-0.89;-5.2;0.0;0.0;0.0;0.0;29.4;21.4;-28.2;-66.0;-0.22;0.6;-10.66;0.69;0.28;1.04
1753877894.391528;-13.947;4.437;-0.285;-2.88;-0.89;-5.2;0.0;0.0;0.0;0.0;28.5;21.3;-27.6;-66.0;-0.21;0.59;-10.64;0.7;0.27;0.86
1753877894.396528;-13.947;4.437;-0.285;-2.88;-0.89;-5.2;0.0;0.0;0.0;0.0;28.6;21.4;-28.6;-66.0;-0.22;0.6;-10.64;0.81;0.27;1.13
1753877894.401528;-13.947;4.437;-0.285;-2.88;-0.89;-5.2;0.0;0.0;0.0;0.0;28.6;20.6;-27.0;-66.0;-0.21;0.61;-10.65;0.68;0.18;1.02
1753877894.406528;-13.947;4.437;-0.285;-2.88;-0.89;-5.2;0.0;0.0;0.0;0.0;28.9;21.2;-28.1;-66.0;-0.2;0.6;-10.64;0.75;0.27;0.92
1753877894.411528;-13.947;4.437;-0.285;-2.88;-0.89;-5.2;0.0;0.0;0.0;0.0;28.7;20.7;-27.5;-66.0;-0.19;0.61;-10.66;0.72;0.29;0.84
1753877894.416529;-13.947;4.437;-0.285;-2.88;-0.88;-5.2;0.0;0.0;0.0;0.0;29.3;21.1;-27.7;-66.0;-0.19;0.6;-10.65;0.73;0.22;1.02
1753877894.421529;-13.947;4.437;-0.285;-2.88;-0.89;-5.2;0.0;0.0;0.0;0.0;29.2;21.0;-27.0;-66.0;-0.19;0.6;-10.66;0.76;0.15;0.92
1753877894.426529;-13.947;4.437;-0.285;-2.88;-0.89;-5.2;0.0;0.0;0.0;0.0;27.7;20.9;-26.0;-66.0;-0.2;0.6;-10.66;0.77;0.29;0.89
1753877894.431529;-13.947;4.437;-0.285;-2.88;-0.89;-5.2;0.0;0.0;0.0;0.0;29.3;20.8;-26.9;-66.0;-0.2;0.6;-10.65;0.72;0.31;0.9
1753877894.436525;-13.947;4.437;-0.285;-2.88;-0.89;-5.2;0.0;0.0;0.0;0.0;28.0;21.0;-27.0;-66.0;-0.2;0.6;-10.65;0.74;0.25;0.92
1753877894.441525;-13.947;4.437;-0.285;-2.88;-0.89;-5.2;0.0;0.0;0.0;0.0;28.0;21.0;-27.0;-66.0;-0.2;0.6;-10.65;0.67;0.41;0.99
1753877894.446525;-13.947;4.437;-0.285;-2.88;-0.89;-5.2;0.0;0.0;0.0;0.0;28.0;21.0;-27.0;-66.0;-0.2;0.6;-10.65;0.62;0.42;0.95
1753877894.451525;-13.947;4.437;-0.285;-2.88;-0.89;-5.2;0.0;0.0;0.0;0.0;28.0;21.0;-27.0;-66.0;-0.19;0.6;-10.64;0.73;0.41;1.08
1753877894.456525;-13.947;4.437;-0.285;-2.88;-0.89;-5.2;0.0;0.0;0.0;0.0;28.0;21.0;-27.0;-66.0;-0.2;0.6;-10.64;0.77;0.35;0.96
1753877894.461525;-13.947;4.437;-0.285;-2.88;-0.89;-5.2;0.0;0.0;0.0;0.0;28.0;21.0;-27.0;-66.0;-0.19;0.6;-10.64;0.68;0.31;0.91
1753877894.466525;-13.947;4.437;-0.285;-2.88;-0.89;-5.2;0.0;0.0;0.0;0.0;28.0;21.0;-27.0;-66.0;-0.19;0.6;-10.64;0.66;0.49;1.01
1753877894.471525;-13.947;4.437;-0.285;-2.88;-0.89;-5.2;0.0;0.0;0.0;0.0;28.0;21.0;-27.0;-66.0;-0.19;0.6;-10.64;0.76;0.35;0.96
1753877894.476525;-13.947;4.437;-0.285;-2.88;-0.89;-5.2;0.0;0.0;0.0;0.0;28.0;21.0;-27.0;-66.0;-0.19;0.6;-10.63;0.76;0.33;0.99
1753877894.481525;-13.947;4.437;-0.285;-2.88;-0.89;-5.2;0.0;0.0;0.0;0.0;28.0;21.0;-27.0;-66.0;-0.19;0.61;-10.62;0.74;0.35;1.04
1753877894.486525;-13.947;4.437;-0.285;-2.88;-0.89;-5.2;0.0;0.0;0.0;0.0;28.0;21.0;-27.0;-66.0;-0.2;0.61;-10.62;0.71;0.32;0.86
