DeviceID;Timestamp;Temperature;GyroX;GyroY;GyroZ;AccelX;AccelY;AccelZ;Dist1;Dist2;Dist3;Err1;Err2;Err3
3.0;1753877889.721791;17.698067;0.6;-1.07;-0.91;-0.045383;1.007927;0.030992;0.2;0.5;-0.5;0.1;0.0;-0.0
3.0;1753877889.726953;17.699219;0.7;-1.4;-0.14;-0.048922;0.983076;0.021228;0.0;0.0;0.0;0.0;0.0;0.0
3.0;1753877889.732543;17.675781;0.7;-1.33;-0.21;-0.051484;0.98332;0.020618;0.0;0.0;0.0;0.0;0.0;0.0
3.0;1753877889.735649;17.675781;0.7;-1.4;-0.21;-0.049532;0.982466;0.019154;0.0;0.0;0.0;0.0;0.0;0.0
3.0;1753877889.740352;17.675781;0.63;-1.33;-0.21;-0.051972;0.98332;0.020008;0.0;0.0;0.0;0.0;0.0;0.0
3.0;1753877889.745017;17.675781;0.7;-1.33;-0.21;-0.050508;0.982832;0.021472;0.0;0.0;0.0;0.0;0.0;0.0
3.0;1753877889.751027;17.683594;0.7;-1.26;-0.28;-0.049654;0.98271;0.020496;0.0;0.0;0.0;0.0;0.0;0.0
3.0;1753877889.754388;17.683594;0.84;-1.33;-0.21;-0.050874;0.984052;0.02074;0.0;0.0;0.0;0.0;0.0;0.0
3.0;1753877889.759177;17.683594;0.63;-1.33;-0.28;-0.049898;0.98332;0.019764;0.0;0.0;0.0;0.0;0.0;0.0
3.0;1753877889.763743;17.683594;0.7;-1.33;-0.28;-0.050874;0.984418;0.020496;0.0;0.0;0.0;0.0;0.0;0.0
3.0;1753877889.769306;17.726562;0.77;-1.33;-0.14;-0.050874;0.984418;0.020496;0.0;0.0;0.0;0.0;0.0;0.0
3.0;1753877889.77566;17.726562;0.77;-1.33;-0.14;-0.05002;0.982954;0.02074;0.0;0.0;0.0;0.0;0.0;0.0
3.0;1753877889.781792;17.726562;0.63;-1.33;-0.21;-0.051484;0.98271;0.020496;0.0;0.0;0.0;0.0;0.0;0.0
3.0;1753877889.782405;17.726562;0.77;-1.4;-0.21;-0.05002;0.982954;0.019276;0.0;0.0;0.0;0.0;0.0;0.0
3.0;1753877889.788307;17.652344;0.77;-1.4;-0.21;-0.051484;0.983198;0.021594;0.0;0.0;0.0;0.0;0.0;0.0
3.0;1753877889.792779;17.652344;0.7;-1.33;-0.14;-0.050386;0.983442;0.02074;0.0;0.0;0.0;0.0;0.0;0.0
3.0;1753877889.799949;17.652344;0.84;-1.33;-0.28;-0.049288;0.98454;0.021838;0.0;0.0;0.0;0.0;0.0;0.0
3.0;1753877889.801124;17.652344;0.77;-1.33;-0.14;-0.050874;0.983198;0.021228;0.0;0.0;0.0;0.0;0.0;0.0
3.0;1753877889.806494;17.675781;0.7;-1.26;-0.21;-0.050752;0.982954;0.021716;0.0;0.0;0.0;0.0;0.0;0.0
3.0;1753877889.81053;17.675781;0.7;-1.26;-0.21;-0.050752;0.983808;0.021228;0.0;0.0;0.0;0.0;0.0;0.0
3.0;1753877889.815218;17.675781;0.7;-1.33;-0.14;-0.049532;0.983564;0.020618;0.0;0.0;0.0;0.0;0.0;0.0
3.0;1753877889.823532;17.675781;0.7;-1.26;-0.21;-0.050874;0.9821;0.020252;0.0;0.0;0.0;0.0;0.0;0.0
3.0;1753877889.824526;17.667969;0.7;-1.26;-0.14;-0.050264;0.98393;0.020862;0.0;0.0;0.0;0.0;0.0;0.0
3.0;1753877889.831978;17.667969;0.84;-1.33;-0.21;-0.048556;0.98271;0.020374;0.0;0.0;0.0;0.0;0.0;0.0
3.0;1753877889.834181;17.667969;0.84;-1.26;-0.21;-0.051484;0.983076;0.019886;0.0;0.0;0.0;0.0;0.0;0.0
3.0;1753877889.840042;17.667969;0.77;-1.4;-0.21;-0.048556;0.983076;0.019642;0.0;0.0;0.0;0.0;0.0;0.0
3.0;1753877889.844771;17.647045;0.85;-1.36;-0.16;-0.048948;0.982969;0.018335;0.0;0.0;0.0;0.0;0.0;0.0
3.0;1753877889.849395;17.691406;0.77;-1.33;-0.21;-0.05185;0.982832;0.01891;0.0;0.0;0.0;0.0;0.0;0.0
3.0;1753877889.853609;17.691406;0.63;-1.33;-0.21;-0.050264;0.984662;0.019276;0.0;0.0;0.0;0.0;0.0;0.0
3.0;1753877889.857332;17.691406;0.84;-1.19;-0.21;-0.051606;0.983198;0.01891;0.0;0.0;0.0;0.0;0.0;0.0
3.0;1753877889.862007;17.75;0.84;-1.26;-0.28;-0.050752;0.984296;0.01952;0.0;0.0;0.0;0.0;0.0;0.0
3.0;1753877889.86669;17.75;0.7;-1.33;-0.28;-0.051362;0.983564;0.020008;0.0;0.0;0.0;0.0;0.0;0.0
3.0;1753877889.872649;17.75;0.63;-1.33;-0.14;-0.050142;0.98332;0.01952;0.0;0.0;0.0;0.0;0.0;0.0
3.0;1753877889.87845;17.75;0.7;-1.26;-0.14;-0.051972;0.984296;0.019154;0.0;0.0;0.0;0.0;0.0;0.0
3.0;1753877889.882794;17.632812;0.7;-1.26;-0.21;-0.050264;0.982954;0.01952;0.0;0.0;0.0;0.0;0.0;0.0
3.0;1753877889.885459;17.632812;0.77;-1.33;-0.21;-0.049776;0.984052;0.021106;0.0;0.0;0.0;0.0;0.0;0.0
3.0;1753877889.890086;17.632812;0.7;-1.33;-0.21;-0.051118;0.983198;0.02135;0.0;0.0;0.0;0.0;0.0;0.0
3.0;1753877889.897931;17.632812;0.7;-1.33;-0.21;-0.049288;0.982832;0.020374;0.0;0.0;0.0;0.0;0.0;0.0
3.0;1753877889.899395;17.640625;0.7;-1.33;-0.21;-0.052216;0.984662;0.019032;0.0;0.0;0.0;0.0;0.0;0.0
3.0;1753877889.904128;17.640625;0.63;-1.33;-0.21;-0.050752;0.983564;0.020374;0.0;0.0;0.0;0.0;0.0;0.0
3.0;1753877889.90913;17.640625;0.63;-1.26;-0.28;-0.051606;0.984296;0.020984;0.0;0.0;0.0;0.0;0.0;0.0
3.0;1753877889.913483;17.640625;0.7;-1.33;-0.21;-0.049654;0.983564;0.018544;0.0;0.0;0.0;0.0;0.0;0.0
3.0;1753877889.921522;17.632812;0.7;-1.33;-0.28;-0.051362;0.983564;0.020374;0.0;0.0;0.0;0.0;0.0;0.0
3.0;1753877889.927896;17.632812;0.7;-1.33;-0.21;-0.04941;0.982954;0.019764;0.0;0.0;0.0;0.0;0.0;0.0
3.0;1753877889.933046;17.632812;0.77;-1.4;-0.14;-0.049776;0.984296;0.022692;0.0;0.0;0.0;0.0;0.0;0.0
3.0;1753877889.937001;17.671875;0.7;-1.33;-0.14;-0.05002;0.983808;0.021228;0.0;0.0;0.0;0.0;0.0;0.0
3.0;1753877889.945756;17.671875;0.7;-1.4;-0.14;-0.049776;0.984052;0.021228;0.0;0.0;0.0;0.0;0.0;0.0
3.0;1753877889.946191;17.671875;0.7;-1.26;-0.21;-0.05124;0.983198;0.019276;0.0;0.0;0.0;0.0;0.0;0.0
3.0;1753877889.951077;17.671875;0.7;-1.26;-0.28;-0.05124;0.983198;0.019276;0.0;0.0;0.0;0.0;0.0;0.0
3.0;1753877889.95643;17.644531;0.7;-1.26;-0.14;-0.049288;0.98332;0.021106;0.0;0.0;0.0;0.0;0.0;0.0
3.0;1753877889.960383;17.644531;0.63;-1.33;-0.21;-0.051362;0.984052;0.019276;0.0;0.0;0.0;0.0;0.0;0.0
3.0;1753877889.964962;17.644531;0.7;-1.26;-0.14;-0.050142;0.982832;0.020984;0.0;0.0;0.0;0.0;0.0;0.0
3.0;1753877889.971369;17.644531;0.7;-1.33;-0.21;-0.05063;0.983686;0.019398;0.0;0.0;0.0;0.0;0.0;0.0
3.0;1753877889.97694;17.625;0.7;-1.33;-0.21;-0.048678;0.983686;0.02013;0.0;0.0;0.0;0.0;0.0;0.0
3.0;1753877889.97924;17.625;0.63;-1.33;-0.21;-0.05002;0.98393;0.020496;0.0;0.0;0.0;0.0;0.0;0.0
3.0;1753877889.983666;17.625;0.77;-1.33;-0.28;-0.04941;0.982588;0.020374;0.0;0.0;0.0;0.0;0.0;0.0
3.0;1753877889.988581;17.625;0.63;-1.26;-0.21;-0.050752;0.984906;0.020496;0.0;0.0;0.0;0.0;0.0;0.0
3.0;1753877889.995725;17.636719;0.7;-1.33;-0.21;-0.049654;0.983198;0.019276;0.0;0.0;0.0;0.0;0.0;0.0
3.0;1753877889.997887;17.636719;0.77;-1.33;-0.21;-0.049654;0.983198;0.019276;0.0;0.0;0.0;0.0;0.0;0.0
3.0;1753877890.002616;17.650213;0.76;-1.36;-0.25;-0.050914;0.982884;0.019521;0.0;0.0;0.0;0.0;0.0;0.0
3.0;1753877890.007345;17.637161;0.7;-1.37;-0.1;-0.049024;0.98365;0.020841;0.0;0.0;0.0;0.0;0.0;0.0
3.0;1753877890.012074;17.642885;0.77;-1.33;-0.1;-0.050849;0.983241;0.019809;0.0;0.0;0.0;0.0;0.0;0.0
3.0;1753877890.016803;17.641902;0.81;-1.28;-0.19;-0.048445;0.982658;0.019023;0.0;0.0;0.0;0.0;0.0;0.0
3.0;1753877890.021532;17.665579;0.77;-1.32;-0.24;-0.049097;0.983679;0.021697;0.0;0.0;0.0;0.0;0.0;0.0
3.0;1753877890.026261;17.652237;0.8;-1.28;-0.24;-0.048986;0.981705;0.018242;0.0;0.0;0.0;0.0;0.0;0.0
3.0;1753877890.03099;17.624598;0.77;-1.25;-0.1;-0.050175;0.983309;0.020326;0.0;0.0;0.0;0.0;0.0;0.0
3.0;1753877890.035719;17.631988;0.86;-1.24;-0.18;-0.049465;0.982414;0.018856;0.0;0.0;0.0;0.0;0.0;0.0
3.0;1753877890.040448;17.612164;0.76;-1.33;-0.16;-0.050132;0.982894;0.019286;0.0;0.0;0.0;0.0;0.0;0.0
3.0;1753877890.045177;17.648909;0.79;-1.24;-0.18;-0.049099;0.98366;0.019737;0.0;0.0;0.0;0.0;0.0;0.0
3.0;1753877890.049906;17.644073;0.75;-1.33;-0.29;-0.04858;0.982923;0.017286;0.0;0.0;0.0;0.0;0.0;0.0
3.0;1753877890.054635;17.642726;0.8;-1.29;-0.26;-0.049049;0.983389;0.019433;0.0;0.0;0.0;0.0;0.0;0.0
3.0;1753877890.059364;17.640112;0.75;-1.31;-0.27;-0.051132;0.982881;0.019213;0.0;0.0;0.0;0.0;0.0;0.0
3.0;1753877890.064093;17.645031;0.76;-1.31;-0.23;-0.049351;0.982708;0.020152;0.0;0.0;0.0;0.0;0.0;0.0
3.0;1753877890.068822;17.64988;0.71;-1.32;-0.26;-0.049821;0.983236;0.01904;0.0;0.0;0.0;0.0;0.0;0.0
3.0;1753877890.073552;17.650168;0.84;-1.3;-0.1;-0.049044;0.98307;0.018637;0.0;0.0;0.0;0.0;0.0;0.0
3.0;1753877890.07828;17.622894;0.82;-1.36;-0.25;-0.049376;0.982892;0.01918;0.0;0.0;0.0;0.0;0.0;0.0
3.0;1753877890.08301;17.657613;0.7;-1.34;-0.13;-0.049957;0.983312;0.018877;0.0;0.0;0.0;0.0;0.0;0.0
3.0;1753877890.087738;17.650797;0.74;-1.42;-0.18;-0.049635;0.982921;0.020041;0.0;0.0;0.0;0.0;0.0;0.0
3.0;1753877890.092468;17.604658;0.81;-1.3;-0.27;-0.049343;0.983398;0.018451;0.0;0.0;0.0;0.0;0.0;0.0
3.0;1753877890.097196;17.64054;0.73;-1.3;-0.11;-0.049437;0.983417;0.01963;0.0;0.0;0.0;0.0;0.0;0.0
3.0;1753877890.101926;17.657216;0.76;-1.37;-0.32;-0.050383;0.983426;0.019185;0.0;0.0;0.0;0.0;0.0;0.0
3.0;1753877890.106655;17.664032;0.81;-1.34;-0.32;-0.050212;0.983521;0.021189;0.0;0.0;0.0;0.0;0.0;0.0
3.0;1753877890.111384;17.651082;0.74;-1.32;-0.24;-0.050469;0.983609;0.01905;0.0;0.0;0.0;0.0;0.0;0.0
3.0;1753877890.116113;17.643628;0.77;-1.27;-0.14;-0.050136;0.982058;0.019849;0.0;0.0;0.0;0.0;0.0;0.0
3.0;1753877890.120842;17.630428;0.76;-1.26;-0.13;-0.048411;0.983537;0.019542;0.0;0.0;0.0;0.0;0.0;0.0
3.0;1753877890.125571;17.612792;0.72;-1.25;-0.14;-0.050188;0.983251;0.019052;0.0;0.0;0.0;0.0;0.0;0.0
3.0;1753877890.1303;17.65736;0.74;-1.26;-0.18;-0.049985;0.983406;0.020655;0.0;0.0;0.0;0.0;0.0;0.0
3.0;1753877890.135029;17.642376;0.73;-1.34;-0.25;-0.048569;0.982743;0.019786;0.0;0.0;0.0;0.0;0.0;0.0
3.0;1753877890.139758;17.639915;0.72;-1.28;-0.24;-0.050703;0.981847;0.019785;0.0;0.0;0.0;0.0;0.0;0.0
3.0;1753877890.144487;17.649113;0.71;-1.36;-0.21;-0.05092;0.982748;0.021038;0.0;0.0;0.0;0.0;0.0;0.0
3.0;1753877890.149216;17.649322;0.8;-1.28;-0.22;-0.050973;0.983807;0.021417;0.0;0.0;0.0;0.0;0.0;0.0
3.0;1753877890.153945;17.658028;0.81;-1.31;-0.28;-0.050576;0.983238;0.019632;0.0;0.0;0.0;0.0;0.0;0.0
3.0;1753877890.158674;17.627478;0.76;-1.28;-0.13;-0.049794;0.982319;0.017574;0.0;0.0;0.0;0.0;0.0;0.0
3.0;1753877890.163403;17.646287;0.8;-1.27;-0.12;-0.050826;0.982674;0.02035;0.0;0.0;0.0;0.0;0.0;0.0
3.0;1753877890.168132;17.634634;0.79;-1.26;-0.22;-0.048668;0.982302;0.020995;0.0;0.0;0.0;0.0;0.0;0.0
3.0;1753877890.172861;17.610583;0.73;-1.31;-0.18;-0.048318;0.982268;0.019446;0.0;0.0;0.0;0.0;0.0;0.0
3.0;1753877890.17759;17.660177;0.81;-1.28;-0.14;-0.049633;0.982652;0.018904;0.0;0.0;0.0;0.0;0.0;0.0
3.0;1753877890.182319;17.661474;0.76;-1.34;-0.21;-0.048285;0.983408;0.020757;0.0;0.0;0.0;0.0;0.0;0.0
3.0;1753877890.187048;17.66532;0.7;-1.26;-0.31;-0.048191;0.983305;0.019664;0.0;0.0;0.0;0.0;0.0;0.0
3.0;1753877890.191777;17.635911;0.74;-1.25;-0.23;-0.050269;0.983263;0.020547;0.0;0.0;0.0;0.0;0.0;0.0
3.0;1753877890.196506;17.651074;0.72;-1.33;-0.18;-0.04953;0.98263;0.020736;0.0;0.0;0.0;0.0;0.0;0.0
3.0;1753877890.201235;17.638945;0.72;-1.28;-0.16;-0.051475;0.982234;0.0205;0.0;0.0;0.0;0.0;0.0;0.0
3.0;1753877890.205964;17.649108;0.71;-1.32;-0.17;-0.049486;0.982226;0.017992;0.0;0.0;0.0;0.0;0.0;0.0
3.0;1753877890.210693;17.653019;0.73;-1.34;-0.21;-0.04931;0.982969;0.021259;0.0;0.0;0.0;0.0;0.0;0.0
3.0;1753877890.215422;17.609621;0.66;-1.32;-0.2;-0.050087;0.982961;0.020244;0.0;0.0;0.0;0.0;0.0;0.0
3.0;1753877890.220152;17.611954;0.72;-1.22;-0.21;-0.049593;0.982651;0.020108;0.0;0.0;0.0;0.0;0.0;0.0
3.0;1753877890.22488;17.643053;0.63;-1.23;-0.2;-0.050656;0.983294;0.02148;0.0;0.0;0.0;0.0;0.0;0.0
3.0;1753877890.22961;17.622109;0.68;-1.27;-0.2;-0.049556;0.982623;0.019042;0.0;0.0;0.0;0.0;0.0;0.0
3.0;1753877890.234338;17.646664;0.67;-1.3;-0.14;-0.04951;0.98277;0.018448;0.0;0.0;0.0;0.0;0.0;0.0
3.0;1753877890.239068;17.658141;0.71;-1.36;-0.23;-0.04852;0.982762;0.022027;0.0;0.0;0.0;0.0;0.0;0.0
3.0;1753877890.243796;17.634344;0.75;-1.31;-0.14;-0.048979;0.983361;0.020874;0.0;0.0;0.0;0.0;0.0;0.0
3.0;1753877890.248526;17.6523;0.63;-1.25;-0.25;-0.05017;0.982654;0.018949;0.0;0.0;0.0;0.0;0.0;0.0
3.0;1753877890.253255;17.63706;0.69;-1.29;-0.14;-0.050424;0.982607;0.021853;0.0;0.0;0.0;0.0;0.0;0.0
3.0;1753877890.257984;17.639821;0.71;-1.34;-0.29;-0.050106;0.98241;0.020335;0.0;0.0;0.0;0.0;0.0;0.0
3.0;1753877890.262713;17.616484;0.7;-1.23;-0.13;-0.051133;0.982617;0.018999;0.0;0.0;0.0;0.0;0.0;0.0
3.0;1753877890.267442;17.651271;0.8;-1.25;-0.22;-0.050662;0.982645;0.021196;0.0;0.0;0.0;0.0;0.0;0.0
3.0;1753877890.272171;17.615613;0.75;-1.31;-0.21;-0.050073;0.982241;0.020409;0.0;0.0;0.0;0.0;0.0;0.0
3.0;1753877890.2769;17.640044;0.73;-1.23;-0.18;-0.048687;0.983297;0.017967;0.0;0.0;0.0;0.0;0.0;0.0
3.0;1753877890.281629;17.673086;0.73;-1.28;-0.21;-0.050087;0.98225;0.021195;0.0;0.0;0.0;0.0;0.0;0.0
3.0;1753877890.286358;17.622617;0.73;-1.34;-0.2;-0.050596;0.982853;0.019555;0.0;0.0;0.0;0.0;0.0;0.0
3.0;1753877890.291087;17.62167;0.71;-1.24;-0.23;-0.049415;0.982723;0.020731;0.0;0.0;0.0;0.0;0.0;0.0
3.0;1753877890.295816;17.633309;0.67;-1.3;-0.2;-0.049421;0.981421;0.019664;0.0;0.0;0.0;0.0;0.0;0.0
3.0;1753877890.300545;17.644998;0.73;-1.24;-0.28;-0.049894;0.982459;0.023167;0.0;0.0;0.0;0.0;0.0;0.0
3.0;1753877890.3092;17.636719;0.7;-1.26;-0.21;-0.049898;0.98271;0.020496;0.0;0.0;0.0;0.0;0.0;0.0
3.0;1753877890.313929;17.612664;0.66;-1.21;-0.23;-0.049698;0.982953;0.021624;0.0;0.0;0.0;0.0;0.0;0.0
3.0;1753877890.318658;17.631004;0.65;-1.27;-0.27;-0.050277;0.982578;0.020621;0.0;0.0;0.0;0.0;0.0;0.0
3.0;1753877890.323387;17.616168;0.72;-1.17;-0.24;-0.049486;0.982651;0.01983;0.0;0.0;0.0;0.0;0.0;0.0
3.0;1753877890.328116;17.642946;0.74;-1.21;-0.14;-0.049495;0.982616;0.021201;0.0;0.0;0.0;0.0;0.0;0.0
3.0;1753877890.332845;17.649442;0.78;-1.22;-0.2;-0.048597;0.983911;0.020145;0.0;0.0;0.0;0.0;0.0;0.0
3.0;1753877890.337574;17.634352;0.69;-1.3;-0.23;-0.04978;0.982547;0.019528;0.0;0.0;0.0;0.0;0.0;0.0
3.0;1753877890.342303;17.647287;0.64;-1.27;-0.27;-0.049996;0.982097;0.020402;0.0;0.0;0.0;0.0;0.0;0.0
3.0;1753877890.347032;17.630941;0.64;-1.24;-0.21;-0.050723;0.983454;0.019417;0.0;0.0;0.0;0.0;0.0;0.0
3.0;1753877890.351761;17.627446;0.67;-1.22;-0.17;-0.049724;0.983358;0.020258;0.0;0.0;0.0;0.0;0.0;0.0
3.0;1753877890.35649;17.641477;0.64;-1.25;-0.21;-0.050864;0.981931;0.021958;0.0;0.0;0.0;0.0;0.0;0.0
3.0;1753877890.36122;17.63194;0.77;-1.33;-0.16;-0.050865;0.982321;0.019114;0.0;0.0;0.0;0.0;0.0;0.0
3.0;1753877890.365948;17.630184;0.65;-1.35;-0.23;-0.050781;0.982604;0.021075;0.0;0.0;0.0;0.0;0.0;0.0
3.0;1753877890.370678;17.61297;0.71;-1.33;-0.18;-0.049686;0.983633;0.017718;0.0;0.0;0.0;0.0;0.0;0.0
3.0;1753877890.375406;17.643787;0.71;-1.29;-0.24;-0.050397;0.981953;0.021488;0.0;0.0;0.0;0.0;0.0;0.0
3.0;1753877890.380136;17.653483;0.7;-1.23;-0.22;-0.050172;0.982263;0.02105;0.0;0.0;0.0;0.0;0.0;0.0
3.0;1753877890.384864;17.632776;0.77;-1.28;-0.13;-0.049124;0.982799;0.02002;0.0;0.0;0.0;0.0;0.0;0.0
3.0;1753877890.389594;17.639353;0.67;-1.3;-0.21;-0.050447;0.982138;0.02051;0.0;0.0;0.0;0.0;0.0;0.0
3.0;1753877890.394323;17.63658;0.71;-1.25;-0.2;-0.048966;0.983505;0.018987;0.0;0.0;0.0;0.0;0.0;0.0
3.0;1753877890.399052;17.62084;0.66;-1.14;-0.19;-0.050187;0.981363;0.021296;0.0;0.0;0.0;0.0;0.0;0.0
3.0;1753877890.403781;17.639598;0.71;-1.24;-0.12;-0.050795;0.982494;0.021549;0.0;0.0;0.0;0.0;0.0;0.0
3.0;1753877890.40851;17.642659;0.67;-1.23;-0.19;-0.050944;0.981878;0.019218;0.0;0.0;0.0;0.0;0.0;0.0
3.0;1753877890.413239;17.653426;0.67;-1.23;-0.16;-0.049199;0.982603;0.021704;0.0;0.0;0.0;0.0;0.0;0.0
3.0;1753877890.417968;17.61366;0.79;-1.25;-0.21;-0.050155;0.98313;0.01921;0.0;0.0;0.0;0.0;0.0;0.0
3.0;1753877890.422697;17.633111;0.73;-1.15;-0.21;-0.050689;0.981587;0.02061;0.0;0.0;0.0;0.0;0.0;0.0
3.0;1753877890.427426;17.643387;0.76;-1.2;-0.16;-0.050466;0.98107;0.019214;0.0;0.0;0.0;0.0;0.0;0.0
3.0;1753877890.432155;17.64915;0.79;-1.27;-0.17;-0.049469;0.982799;0.019029;0.0;0.0;0.0;0.0;0.0;0.0
3.0;1753877890.436884;17.647378;0.63;-1.28;-0.17;-0.049483;0.982922;0.019226;0.0;0.0;0.0;0.0;0.0;0.0
3.0;1753877890.441613;17.634439;0.7;-1.29;-0.2;-0.049152;0.981878;0.020769;0.0;0.0;0.0;0.0;0.0;0.0
3.0;1753877890.446342;17.647804;0.69;-1.2;-0.16;-0.049579;0.983696;0.01896;0.0;0.0;0.0;0.0;0.0;0.0
3.0;1753877890.451071;17.642388;0.72;-1.28;-0.21;-0.049925;0.983353;0.018947;0.0;0.0;0.0;0.0;0.0;0.0
3.0;1753877890.4558;17.641635;0.78;-1.23;-0.18;-0.049619;0.983886;0.02083;0.0;0.0;0.0;0.0;0.0;0.0
3.0;1753877890.460529;17.644751;0.83;-1.25;-0.12;-0.049362;0.982114;0.019908;0.0;0.0;0.0;0.0;0.0;0.0
3.0;1753877890.465258;17.62734;0.69;-1.23;-0.19;-0.050868;0.982305;0.020258;0.0;0.0;0.0;0.0;0.0;0.0
3.0;1753877890.469987;17.675964;0.7;-1.22;-0.28;-0.049601;0.982252;0.019468;0.0;0.0;0.0;0.0;0.0;0.0
3.0;1753877890.474716;17.664543;0.73;-1.32;-0.22;-0.049504;0.982268;0.020121;0.0;0.0;0.0;0.0;0.0;0.0
3.0;1753877890.479445;17.646027;0.72;-1.25;-0.17;-0.049724;0.98275;0.019552;0.0;0.0;0.0;0.0;0.0;0.0
3.0;1753877890.484174;17.654258;0.73;-1.17;-0.15;-0.048687;0.982222;0.01962;0.0;0.0;0.0;0.0;0.0;0.0
3.0;1753877890.488903;17.650457;0.67;-1.28;-0.15;-0.050573;0.982067;0.020164;0.0;0.0;0.0;0.0;0.0;0.0
3.0;1753877890.493632;17.622995;0.78;-1.28;-0.17;-0.049152;0.982264;0.018616;0.0;0.0;0.0;0.0;0.0;0.0
3.0;1753877890.498361;17.646622;0.82;-1.29;-0.25;-0.049038;0.983408;0.020855;0.0;0.0;0.0;0.0;0.0;0.0
3.0;1753877890.50309;17.627684;0.75;-1.22;-0.24;-0.050999;0.981992;0.018065;0.0;0.0;0.0;0.0;0.0;0.0
3.0;1753877890.50782;17.633098;0.72;-1.23;-0.13;-0.050765;0.983345;0.020457;0.0;0.0;0.0;0.0;0.0;0.0
3.0;1753877890.512548;17.643791;0.68;-1.25;-0.16;-0.048816;0.983154;0.020748;0.0;0.0;0.0;0.0;0.0;0.0
3.0;1753877890.517278;17.626858;0.76;-1.23;-0.24;-0.04933;0.981778;0.020331;0.0;0.0;0.0;0.0;0.0;0.0
3.0;1753877890.522006;17.62811;0.73;-1.33;-0.2;-0.049503;0.982065;0.019226;0.0;0.0;0.0;0.0;0.0;0.0
3.0;1753877890.526736;17.606857;0.76;-1.25;-0.15;-0.050122;0.982717;0.019339;0.0;0.0;0.0;0.0;0.0;0.0
3.0;1753877890.531464;17.653131;0.69;-1.23;-0.1;-0.049833;0.981962;0.020223;0.0;0.0;0.0;0.0;0.0;0.0
3.0;1753877890.536194;17.641685;0.66;-1.26;-0.14;-0.050434;0.981654;0.019468;0.0;0.0;0.0;0.0;0.0;0.0
3.0;1753877890.540923;17.649054;0.72;-1.2;-0.27;-0.049845;0.982012;0.019713;0.0;0.0;0.0;0.0;0.0;0.0
3.0;1753877890.545652;17.637513;0.72;-1.19;-0.19;-0.050355;0.982861;0.018354;0.0;0.0;0.0;0.0;0.0;0.0
3.0;1753877890.550381;17.641644;0.72;-1.21;-0.2;-0.050193;0.982692;0.019491;0.0;0.0;0.0;0.0;0.0;0.0
3.0;1753877890.55511;17.620288;0.67;-1.29;-0.15;-0.050159;0.981677;0.019657;0.0;0.0;0.0;0.0;0.0;0.0
3.0;1753877890.559839;17.624826;0.77;-1.18;-0.11;-0.049645;0.982386;0.021594;0.0;0.0;0.0;0.0;0.0;0.0
3.0;1753877890.564568;17.610863;0.76;-1.13;-0.14;-0.050342;0.983063;0.021136;0.0;0.0;0.0;0.0;0.0;0.0
3.0;1753877890.569297;17.628056;0.69;-1.18;-0.12;-0.048978;0.982389;0.019992;0.0;0.0;0.0;0.0;0.0;0.0
3.0;1753877890.574026;17.670384;0.72;-1.14;-0.26;-0.050663;0.982519;0.021311;0.0;0.0;0.0;0.0;0.0;0.0
3.0;1753877890.578755;17.642732;0.74;-1.15;-0.18;-0.049305;0.982015;0.01774;0.0;0.0;0.0;0.0;0.0;0.0
3.0;1753877890.583484;17.613581;0.76;-1.27;-0.12;-0.049724;0.98221;0.020445;0.0;0.0;0.0;0.0;0.0;0.0
3.0;1753877890.588213;17.647721;0.77;-1.21;-0.22;-0.049492;0.983306;0.019698;0.0;0.0;0.0;0.0;0.0;0.0
3.0;1753877890.592942;17.650136;0.75;-1.26;-0.19;-0.050514;0.983694;0.021017;0.0;0.0;0.0;0.0;0.0;0.0
3.0;1753877890.597671;17.640011;0.81;-1.32;-0.2;-0.050911;0.981596;0.019675;0.0;0.0;0.0;0.0;0.0;0.0
3.0;1753877890.6024;17.636718;0.78;-1.26;-0.17;-0.051037;0.981813;0.018969;0.0;0.0;0.0;0.0;0.0;0.0
3.0;1753877890.607129;17.662062;0.77;-1.14;-0.23;-0.049681;0.983397;0.019155;0.0;0.0;0.0;0.0;0.0;0.0
3.0;1753877890.611858;17.644072;0.76;-1.15;-0.14;-0.049694;0.982721;0.017967;0.0;0.0;0.0;0.0;0.0;0.0
3.0;1753877890.616587;17.639635;0.76;-1.26;-0.2;-0.049921;0.982257;0.01953;0.0;0.0;0.0;0.0;0.0;0.0
3.0;1753877890.621316;17.613569;0.8;-1.16;-0.18;-0.050572;0.981871;0.019186;0.0;0.0;0.0;0.0;0.0;0.0
3.0;1753877890.626045;17.637839;0.66;-1.21;-0.19;-0.050941;0.983121;0.019474;0.0;0.0;0.0;0.0;0.0;0.0
3.0;1753877890.630774;17.640616;0.72;-1.27;-0.16;-0.051423;0.981835;0.017766;0.0;0.0;0.0;0.0;0.0;0.0
3.0;1753877890.635503;17.621596;0.71;-1.21;-0.17;-0.049952;0.98244;0.019813;0.0;0.0;0.0;0.0;0.0;0.0
3.0;1753877890.640232;17.632807;0.7;-1.24;-0.2;-0.05015;0.982281;0.019648;0.0;0.0;0.0;0.0;0.0;0.0
3.0;1753877890.644961;17.636594;0.85;-1.3;-0.18;-0.05124;0.981866;0.021027;0.0;0.0;0.0;0.0;0.0;0.0
3.0;1753877890.64969;17.635844;0.68;-1.26;-0.19;-0.050667;0.981144;0.017992;0.0;0.0;0.0;0.0;0.0;0.0
3.0;1753877890.65442;17.656503;0.77;-1.26;-0.16;-0.051235;0.982432;0.017326;0.0;0.0;0.0;0.0;0.0;0.0
3.0;1753877890.659148;17.638219;0.74;-1.18;-0.1;-0.049557;0.982288;0.020815;0.0;0.0;0.0;0.0;0.0;0.0
3.0;1753877890.663878;17.632042;0.8;-1.14;-0.22;-0.049385;0.982795;0.019172;0.0;0.0;0.0;0.0;0.0;0.0
3.0;1753877890.668606;17.649747;0.82;-1.17;-0.22;-0.049896;0.982181;0.019221;0.0;0.0;0.0;0.0;0.0;0.0
3.0;1753877890.673336;17.670709;0.78;-1.17;-0.13;-0.049869;0.981659;0.019759;0.0;0.0;0.0;0.0;0.0;0.0
3.0;1753877890.678064;17.644434;0.73;-1.16;-0.26;-0.05002;0.982467;0.018772;0.0;0.0;0.0;0.0;0.0;0.0
3.0;1753877890.682794;17.629758;0.73;-1.25;-0.2;-0.049631;0.981082;0.018399;0.0;0.0;0.0;0.0;0.0;0.0
3.0;1753877890.687523;17.632996;0.75;-1.09;-0.07;-0.051798;0.981859;0.017429;0.0;0.0;0.0;0.0;0.0;0.0
3.0;1753877890.692252;17.626753;0.79;-1.27;-0.18;-0.050116;0.981784;0.019837;0.0;0.0;0.0;0.0;0.0;0.0
3.0;1753877890.696981;17.629197;0.74;-1.16;-0.15;-0.049944;0.982146;0.018888;0.0;0.0;0.0;0.0;0.0;0.0
3.0;1753877890.70171;17.624948;0.81;-1.19;-0.15;-0.049141;0.983112;0.019319;0.0;0.0;0.0;0.0;0.0;0.0
3.0;1753877890.706439;17.590919;0.79;-1.23;-0.21;-0.050074;0.982373;0.020557;0.0;0.0;0.0;0.0;0.0;0.0
3.0;1753877890.711168;17.632938;0.78;-1.22;-0.22;-0.050495;0.982231;0.017875;0.0;0.0;0.0;0.0;0.0;0.0
3.0;1753877890.715897;17.667644;0.74;-1.2;-0.18;-0.049395;0.983857;0.019181;0.0;0.0;0.0;0.0;0.0;0.0
3.0;1753877890.720626;17.645957;0.74;-1.12;-0.16;-0.050545;0.982262;0.018556;0.0;0.0;0.0;0.0;0.0;0.0
3.0;1753877890.725355;17.633619;0.8;-1.2;-0.18;-0.050285;0.982668;0.019201;0.0;0.0;0.0;0.0;0.0;0.0
3.0;1753877890.730084;17.629013;0.76;-1.24;-0.25;-0.050404;0.981807;0.020573;0.0;0.0;0.0;0.0;0.0;0.0
3.0;1753877890.734813;17.610616;0.73;-1.26;-0.18;-0.049644;0.981068;0.020422;0.0;0.0;0.0;0.0;0.0;0.0
3.0;1753877890.739542;17.641278;0.75;-1.17;-0.14;-0.051702;0.982226;0.020972;0.0;0.0;0.0;0.0;0.0;0.0
3.0;1753877890.744271;17.608409;0.74;-1.23;-0.22;-0.051019;0.982484;0.018039;0.0;0.0;0.0;0.0;0.0;0.0
3.0;1753877890.749;17.626185;0.79;-1.23;-0.17;-0.049739;0.982627;0.017253;0.0;0.0;0.0;0.0;0.0;0.0
3.0;1753877890.753729;17.635372;0.74;-1.19;-0.25;-0.049444;0.982438;0.020244;0.0;0.0;0.0;0.0;0.0;0.0
3.0;1753877890.758458;17.623586;0.7;-1.07;-0.21;-0.049227;0.982926;0.017377;0.0;0.0;0.0;0.0;0.0;0.0
3.0;1753877890.763187;17.608042;0.77;-1.21;-0.11;-0.051057;0.983076;0.019307;0.0;0.0;0.0;0.0;0.0;0.0
3.0;1753877890.767916;17.672246;0.79;-1.19;-0.1;-0.051081;0.982641;0.018752;0.0;0.0;0.0;0.0;0.0;0.0
3.0;1753877890.772645;17.650174;0.84;-1.16;-0.21;-0.050253;0.98338;0.018089;0.0;0.0;0.0;0.0;0.0;0.0
3.0;1753877890.777374;17.648415;0.79;-1.2;-0.17;-0.05048;0.98253;0.018301;0.0;0.0;0.0;0.0;0.0;0.0
3.0;1753877890.782103;17.646625;0.76;-1.24;-0.18;-0.049976;0.98211;0.016616;0.0;0.0;0.0;0.0;0.0;0.0
3.0;1753877890.786832;17.650206;0.77;-1.19;-0.14;-0.050421;0.982858;0.019592;0.0;0.0;0.0;0.0;0.0;0.0
3.0;1753877890.791561;17.625634;0.77;-1.28;-0.17;-0.050776;0.981686;0.017957;0.0;0.0;0.0;0.0;0.0;0.0
3.0;1753877890.7966;17.636719;0.77;-1.19;-0.14;-0.050264;0.982222;0.018788;0.0;0.0;0.0;0.0;0.0;0.0
3.0;1753877890.801329;17.623023;0.71;-1.19;-0.22;-0.048462;0.98171;0.02003;0.0;0.0;0.0;0.0;0.0;0.0
3.0;1753877890.806058;17.678736;0.63;-1.23;-0.21;-0.050103;0.981858;0.017338;0.0;0.0;0.0;0.0;0.0;0.0
3.0;1753877890.810787;17.688875;0.62;-1.37;-0.07;-0.050432;0.982941;0.01974;0.0;0.0;0.0;0.0;0.0;0.0
3.0;1753877890.81946;17.675781;0.7;-1.33;-0.14;-0.049288;0.98271;0.019154;0.0;0.0;0.0;0.0;0.0;0.0
3.0;1753877890.824189;17.650435;0.69;-1.45;-0.11;-0.049885;0.982575;0.020745;0.0;0.0;0.0;0.0;0.0;0.0
3.0;1753877890.828918;17.694659;0.73;-1.2;-0.1;-0.050907;0.984062;0.018048;0.0;0.0;0.0;0.0;0.0;0.0
3.0;1753877890.833647;17.686653;0.7;-1.27;-0.1;-0.051279;0.983006;0.019476;0.0;0.0;0.0;0.0;0.0;0.0
3.0;1753877890.838376;17.699547;0.71;-1.18;-0.22;-0.050701;0.983244;0.02114;0.0;0.0;0.0;0.0;0.0;0.0
3.0;1753877890.843105;17.696831;0.65;-1.36;-0.26;-0.050266;0.982744;0.018038;0.0;0.0;0.0;0.0;0.0;0.0
3.0;1753877890.847834;17.683217;0.78;-1.27;-0.2;-0.050412;0.983206;0.019021;0.0;0.0;0.0;0.0;0.0;0.0
3.0;1753877890.852563;17.670099;0.68;-1.24;-0.22;-0.052503;0.984309;0.020883;0.0;0.0;0.0;0.0;0.0;0.0
3.0;1753877890.857292;17.690318;0.73;-1.18;-0.15;-0.052272;0.983602;0.018732;0.0;0.0;0.0;0.0;0.0;0.0
3.0;1753877890.86607;17.675781;0.7;-1.19;-0.21;-0.052704;0.983808;0.02013;0.0;0.0;0.0;0.0;0.0;0.0
3.0;1753877890.870799;17.663524;0.75;-1.29;-0.17;-0.051992;0.984249;0.01947;0.0;0.0;0.0;0.0;0.0;0.0
3.0;1753877890.875528;17.656247;0.72;-1.22;-0.31;-0.050852;0.984066;0.021217;0.0;0.0;0.0;0.0;0.0;0.0
3.0;1753877890.880257;17.691835;0.8;-1.22;-0.16;-0.052574;0.983511;0.019846;0.0;0.0;0.0;0.0;0.0;0.0
3.0;1753877890.884986;17.661796;0.8;-1.25;-0.19;-0.051341;0.98364;0.021494;0.0;0.0;0.0;0.0;0.0;0.0
3.0;1753877890.889715;17.648659;0.78;-1.29;-0.2;-0.053684;0.98386;0.01894;0.0;0.0;0.0;0.0;0.0;0.0
3.0;1753877890.894444;17.676053;0.75;-1.23;-0.18;-0.051309;0.983238;0.02;0.0;0.0;0.0;0.0;0.0;0.0
3.0;1753877890.899173;17.664512;0.78;-1.19;-0.2;-0.05056;0.983287;0.021111;0.0;0.0;0.0;0.0;0.0;0.0
3.0;1753877890.903902;17.664528;0.71;-1.2;-0.34;-0.052024;0.984579;0.020556;0.0;0.0;0.0;0.0;0.0;0.0
3.0;1753877890.908631;17.680746;0.69;-1.16;-0.21;-0.050748;0.983015;0.021005;0.0;0.0;0.0;0.0;0.0;0.0
3.0;1753877890.91336;17.664237;0.8;-1.18;-0.26;-0.050751;0.98369;0.021152;0.0;0.0;0.0;0.0;0.0;0.0
3.0;1753877890.91809;17.67062;0.83;-1.28;-0.2;-0.051154;0.98386;0.020663;0.0;0.0;0.0;0.0;0.0;0.0
3.0;1753877890.9251;17.675781;0.77;-1.26;-0.21;-0.05063;0.983198;0.02135;0.0;0.0;0.0;0.0;0.0;0.0
3.0;1753877890.929829;17.670011;0.75;-1.26;-0.23;-0.047509;0.982858;0.021733;0.0;0.0;0.0;0.0;0.0;0.0
3.0;1753877890.934558;17.697249;0.79;-1.33;-0.18;-0.050334;0.982339;0.021974;0.0;0.0;0.0;0.0;0.0;0.0
3.0;1753877890.939287;17.677836;0.78;-1.28;-0.18;-0.047682;0.982791;0.021548;0.0;0.0;0.0;0.0;0.0;0.0
3.0;1753877890.944016;17.648161;0.67;-1.1;-0.2;-0.0499;0.984127;0.018924;0.0;0.0;0.0;0.0;0.0;0.0
3.0;1753877890.948745;17.675344;0.85;-1.33;-0.16;-0.04809;0.983873;0.020371;0.0;0.0;0.0;0.0;0.0;0.0
3.0;1753877890.953474;17.648824;0.81;-1.14;-0.18;-0.048754;0.98388;0.019792;0.0;0.0;0.0;0.0;0.0;0.0
3.0;1753877890.95985;17.675781;0.77;-1.19;-0.14;-0.049532;0.98332;0.019642;0.0;0.0;0.0;0.0;0.0;0.0
3.0;1753877890.961675;17.597656;0.77;-1.33;-0.21;-0.04941;0.983076;0.018666;0.0;0.0;0.0;0.0;0.0;0.0
3.0;1753877890.967874;17.585938;0.7;-1.26;-0.21;-0.051484;0.984174;0.020862;0.0;0.0;0.0;0.0;0.0;0.0
3.0;1753877890.975035;17.585938;0.7;-1.33;-0.21;-0.050142;0.983442;0.020984;0.0;0.0;0.0;0.0;0.0;0.0
3.0;1753877890.975678;17.585938;0.77;-1.4;-0.14;-0.050508;0.98332;0.020618;0.0;0.0;0.0;0.0;0.0;0.0
3.0;1753877890.980417;17.585938;0.7;-1.33;-0.21;-0.050508;0.983442;0.02074;0.0;0.0;0.0;0.0;0.0;0.0
3.0;1753877890.985087;17.570312;0.7;-1.33;-0.14;-0.050508;0.983808;0.02135;0.0;0.0;0.0;0.0;0.0;0.0
3.0;1753877890.989963;17.570312;0.77;-1.33;-0.21;-0.049166;0.984174;0.020252;0.0;0.0;0.0;0.0;0.0;0.0
3.0;1753877890.994432;17.570312;0.7;-1.33;-0.21;-0.050874;0.98332;0.020252;0.0;0.0;0.0;0.0;0.0;0.0
3.0;1753877890.999161;17.588399;0.73;-1.37;-0.19;-0.049906;0.984093;0.020646;0.0;0.0;0.0;0.0;0.0;0.0
3.0;1753877891.00389;17.563196;0.66;-1.3;-0.16;-0.052327;0.982554;0.019763;0.0;0.0;0.0;0.0;0.0;0.0
3.0;1753877891.008619;17.581302;0.68;-1.39;-0.25;-0.051397;0.982627;0.019947;0.0;0.0;0.0;0.0;0.0;0.0
3.0;1753877891.013348;17.581104;0.7;-1.33;-0.22;-0.051643;0.983037;0.020266;0.0;0.0;0.0;0.0;0.0;0.0
3.0;1753877891.018077;17.551241;0.76;-1.37;-0.2;-0.052338;0.981558;0.021357;0.0;0.0;0.0;0.0;0.0;0.0
3.0;1753877891.022806;17.567102;0.79;-1.31;-0.25;-0.048522;0.982924;0.019899;0.0;0.0;0.0;0.0;0.0;0.0
3.0;1753877891.027535;17.560481;0.73;-1.37;-0.17;-0.051115;0.982198;0.019528;0.0;0.0;0.0;0.0;0.0;0.0
3.0;1753877891.032264;17.585814;0.74;-1.32;-0.21;-0.052564;0.982943;0.020295;0.0;0.0;0.0;0.0;0.0;0.0
3.0;1753877891.036993;17.56852;0.69;-1.28;-0.24;-0.048561;0.982227;0.020813;0.0;0.0;0.0;0.0;0.0;0.0
3.0;1753877891.041722;17.569122;0.74;-1.3;-0.26;-0.049871;0.984176;0.020392;0.0;0.0;0.0;0.0;0.0;0.0
3.0;1753877891.046451;17.572615;0.66;-1.36;-0.21;-0.050924;0.983711;0.020988;0.0;0.0;0.0;0.0;0.0;0.0
3.0;1753877891.05118;17.552672;0.72;-1.36;-0.28;-0.051452;0.984104;0.020718;0.0;0.0;0.0;0.0;0.0;0.0
3.0;1753877891.05591;17.555762;0.74;-1.32;-0.25;-0.051029;0.982501;0.019782;0.0;0.0;0.0;0.0;0.0;0.0
3.0;1753877891.060638;17.579325;0.75;-1.32;-0.18;-0.050561;0.98386;0.020517;0.0;0.0;0.0;0.0;0.0;0.0
3.0;1753877891.065368;17.562872;0.76;-1.27;-0.21;-0.050547;0.984552;0.020757;0.0;0.0;0.0;0.0;0.0;0.0
3.0;1753877891.070096;17.576747;0.69;-1.36;-0.18;-0.050132;0.983447;0.020737;0.0;0.0;0.0;0.0;0.0;0.0
3.0;1753877891.074826;17.576779;0.68;-1.31;-0.19;-0.050489;0.983319;0.02066;0.0;0.0;0.0;0.0;0.0;0.0
3.0;1753877891.079554;17.583994;0.69;-1.33;-0.18;-0.050373;0.983708;0.019454;0.0;0.0;0.0;0.0;0.0;0.0
3.0;1753877891.084284;17.561173;0.72;-1.31;-0.21;-0.050195;0.983238;0.021705;0.0;0.0;0.0;0.0;0.0;0.0
3.0;1753877891.089012;17.578992;0.73;-1.36;-0.28;-0.049965;0.982973;0.019253;0.0;0.0;0.0;0.0;0.0;0.0
3.0;1753877891.093742;17.568567;0.71;-1.35;-0.19;-0.052154;0.982609;0.02089;0.0;0.0;0.0;0.0;0.0;0.0
3.0;1753877891.098471;17.567781;0.69;-1.34;-0.18;-0.049792;0.983422;0.020137;0.0;0.0;0.0;0.0;0.0;0.0
3.0;1753877891.1032;17.571079;0.63;-1.31;-0.16;-0.051582;0.982842;0.02087;0.0;0.0;0.0;0.0;0.0;0.0
3.0;1753877891.107929;17.584079;0.7;-1.27;-0.18;-0.048881;0.983348;0.019547;0.0;0.0;0.0;0.0;0.0;0.0
3.0;1753877891.112658;17.57072;0.68;-1.31;-0.25;-0.051297;0.982983;0.019551;0.0;0.0;0.0;0.0;0.0;0.0
3.0;1753877891.117387;17.566577;0.77;-1.4;-0.25;-0.051497;0.983465;0.021021;0.0;0.0;0.0;0.0;0.0;0.0
3.0;1753877891.122116;17.569299;0.74;-1.36;-0.22;-0.050779;0.982912;0.019798;0.0;0.0;0.0;0.0;0.0;0.0
3.0;1753877891.126845;17.574477;0.83;-1.34;-0.24;-0.050799;0.982876;0.020243;0.0;0.0;0.0;0.0;0.0;0.0
3.0;1753877891.131574;17.57701;0.64;-1.32;-0.24;-0.049583;0.982505;0.019197;0.0;0.0;0.0;0.0;0.0;0.0
3.0;1753877891.136303;17.564005;0.73;-1.28;-0.24;-0.050038;0.982625;0.019699;0.0;0.0;0.0;0.0;0.0;0.0
3.0;1753877891.141032;17.584725;0.77;-1.32;-0.16;-0.04985;0.983161;0.020756;0.0;0.0;0.0;0.0;0.0;0.0
3.0;1753877891.145761;17.572948;0.75;-1.31;-0.24;-0.051072;0.983611;0.019332;0.0;0.0;0.0;0.0;0.0;0.0
3.0;1753877891.15049;17.581383;0.68;-1.38;-0.21;-0.050451;0.982292;0.021558;0.0;0.0;0.0;0.0;0.0;0.0
3.0;1753877891.155219;17.568873;0.84;-1.29;-0.2;-0.052052;0.982638;0.020853;0.0;0.0;0.0;0.0;0.0;0.0
3.0;1753877891.159948;17.561536;0.75;-1.32;-0.16;-0.049314;0.983756;0.020876;0.0;0.0;0.0;0.0;0.0;0.0
3.0;1753877891.164677;17.567189;0.7;-1.34;-0.2;-0.051443;0.982588;0.019491;0.0;0.0;0.0;0.0;0.0;0.0
3.0;1753877891.169406;17.556628;0.81;-1.4;-0.2;-0.049878;0.984507;0.020399;0.0;0.0;0.0;0.0;0.0;0.0
3.0;1753877891.174135;17.558404;0.74;-1.35;-0.19;-0.05005;0.983937;0.019531;0.0;0.0;0.0;0.0;0.0;0.0
3.0;1753877891.178864;17.58535;0.68;-1.32;-0.17;-0.050506;0.983628;0.02032;0.0;0.0;0.0;0.0;0.0;0.0
3.0;1753877891.183593;17.572411;0.75;-1.37;-0.24;-0.050677;0.983265;0.019811;0.0;0.0;0.0;0.0;0.0;0.0
3.0;1753877891.188322;17.561812;0.72;-1.36;-0.23;-0.05037;0.982895;0.021637;0.0;0.0;0.0;0.0;0.0;0.0
3.0;1753877891.193051;17.581317;0.78;-1.3;-0.2;-0.049655;0.982616;0.021491;0.0;0.0;0.0;0.0;0.0;0.0
3.0;1753877891.19778;17.568691;0.79;-1.34;-0.22;-0.05096;0.983197;0.020373;0.0;0.0;0.0;0.0;0.0;0.0
3.0;1753877891.20251;17.562731;0.73;-1.28;-0.19;-0.050785;0.983292;0.020663;0.0;0.0;0.0;0.0;0.0;0.0
3.0;1753877891.207238;17.578101;0.71;-1.39;-0.21;-0.048977;0.983432;0.020898;0.0;0.0;0.0;0.0;0.0;0.0
3.0;1753877891.211968;17.565289;0.73;-1.27;-0.17;-0.050824;0.98297;0.02057;0.0;0.0;0.0;0.0;0.0;0.0
3.0;1753877891.216696;17.56268;0.79;-1.36;-0.23;-0.050522;0.983822;0.021144;0.0;0.0;0.0;0.0;0.0;0.0
3.0;1753877891.221426;17.568127;0.81;-1.27;-0.17;-0.050604;0.983058;0.021207;0.0;0.0;0.0;0.0;0.0;0.0
3.0;1753877891.226154;17.559992;0.77;-1.31;-0.19;-0.050217;0.981925;0.021069;0.0;0.0;0.0;0.0;0.0;0.0
3.0;1753877891.230884;17.568945;0.71;-1.29;-0.23;-0.050138;0.98444;0.020302;0.0;0.0;0.0;0.0;0.0;0.0
3.0;1753877891.235613;17.572222;0.85;-1.27;-0.21;-0.05072;0.983789;0.020424;0.0;0.0;0.0;0.0;0.0;0.0
3.0;1753877891.240342;17.577996;0.69;-1.24;-0.23;-0.049784;0.982227;0.020376;0.0;0.0;0.0;0.0;0.0;0.0
3.0;1753877891.245071;17.554489;0.75;-1.43;-0.17;-0.051219;0.982802;0.02014;0.0;0.0;0.0;0.0;0.0;0.0
3.0;1753877891.2498;17.577098;0.77;-1.33;-0.19;-0.052558;0.983543;0.021884;0.0;0.0;0.0;0.0;0.0;0.0
3.0;1753877891.254529;17.566965;0.84;-1.37;-0.22;-0.050778;0.982046;0.01982;0.0;0.0;0.0;0.0;0.0;0.0
3.0;1753877891.259258;17.560706;0.81;-1.37;-0.25;-0.051274;0.981848;0.020037;0.0;0.0;0.0;0.0;0.0;0.0
3.0;1753877891.263987;17.573145;0.69;-1.27;-0.2;-0.04964;0.983612;0.020612;0.0;0.0;0.0;0.0;0.0;0.0
3.0;1753877891.27;17.570312;0.77;-1.33;-0.21;-0.050264;0.983076;0.020496;0.0;0.0;0.0;0.0;0.0;0.0
3.0;1753877891.274729;17.573124;0.67;-1.32;-0.24;-0.049408;0.983243;0.020139;0.0;0.0;0.0;0.0;0.0;0.0
3.0;1753877891.279458;17.558317;0.77;-1.34;-0.2;-0.051264;0.983359;0.020939;0.0;0.0;0.0;0.0;0.0;0.0
3.0;1753877891.284187;17.570502;0.79;-1.34;-0.27;-0.050601;0.982075;0.018941;0.0;0.0;0.0;0.0;0.0;0.0
3.0;1753877891.288916;17.565742;0.78;-1.32;-0.16;-0.048733;0.982958;0.01953;0.0;0.0;0.0;0.0;0.0;0.0
3.0;1753877891.293645;17.560113;0.82;-1.27;-0.2;-0.052006;0.983065;0.020844;0.0;0.0;0.0;0.0;0.0;0.0
3.0;1753877891.298374;17.572066;0.76;-1.26;-0.15;-0.052261;0.983337;0.021262;0.0;0.0;0.0;0.0;0.0;0.0
3.0;1753877891.303103;17.579804;0.68;-1.32;-0.21;-0.050339;0.98237;0.019526;0.0;0.0;0.0;0.0;0.0;0.0
3.0;1753877891.307832;17.575482;0.69;-1.36;-0.18;-0.051809;0.982934;0.020532;0.0;0.0;0.0;0.0;0.0;0.0
3.0;1753877891.312561;17.551753;0.78;-1.29;-0.17;-0.050835;0.983704;0.020789;0.0;0.0;0.0;0.0;0.0;0.0
3.0;1753877891.31729;17.591754;0.77;-1.35;-0.19;-0.049333;0.982491;0.020731;0.0;0.0;0.0;0.0;0.0;0.0
3.0;1753877891.322019;17.592188;0.72;-1.29;-0.3;-0.051111;0.982829;0.021402;0.0;0.0;0.0;0.0;0.0;0.0
3.0;1753877891.326748;17.586557;0.8;-1.27;-0.26;-0.051561;0.983291;0.020692;0.0;0.0;0.0;0.0;0.0;0.0
3.0;1753877891.331478;17.581516;0.72;-1.32;-0.19;-0.049769;0.98251;0.020503;0.0;0.0;0.0;0.0;0.0;0.0
3.0;1753877891.336206;17.569214;0.73;-1.27;-0.22;-0.04849;0.983586;0.020518;0.0;0.0;0.0;0.0;0.0;0.0
3.0;1753877891.340936;17.545086;0.88;-1.3;-0.21;-0.050621;0.983348;0.020121;0.0;0.0;0.0;0.0;0.0;0.0
3.0;1753877891.345664;17.589161;0.76;-1.3;-0.26;-0.050201;0.982214;0.020861;0.0;0.0;0.0;0.0;0.0;0.0
3.0;1753877891.350394;17.577366;0.81;-1.3;-0.18;-0.050325;0.983002;0.020245;0.0;0.0;0.0;0.0;0.0;0.0
3.0;1753877891.355122;17.571998;0.72;-1.36;-0.2;-0.049943;0.982741;0.020374;0.0;0.0;0.0;0.0;0.0;0.0
3.0;1753877891.359852;17.574043;0.8;-1.34;-0.22;-0.05254;0.983465;0.020645;0.0;0.0;0.0;0.0;0.0;0.0
3.0;1753877891.364581;17.572718;0.8;-1.33;-0.17;-0.052407;0.982858;0.020778;0.0;0.0;0.0;0.0;0.0;0.0
3.0;1753877891.36931;17.587286;0.71;-1.32;-0.17;-0.04964;0.98392;0.019745;0.0;0.0;0.0;0.0;0.0;0.0
3.0;1753877891.374039;17.594046;0.74;-1.27;-0.15;-0.0508;0.982914;0.021219;0.0;0.0;0.0;0.0;0.0;0.0
3.0;1753877891.378768;17.59239;0.77;-1.34;-0.31;-0.051906;0.983479;0.019487;0.0;0.0;0.0;0.0;0.0;0.0
3.0;1753877891.383497;17.553949;0.72;-1.26;-0.15;-0.050474;0.982786;0.021571;0.0;0.0;0.0;0.0;0.0;0.0
3.0;1753877891.388226;17.581626;0.73;-1.29;-0.21;-0.051632;0.982951;0.020605;0.0;0.0;0.0;0.0;0.0;0.0
3.0;1753877891.392955;17.576589;0.62;-1.32;-0.16;-0.050068;0.982308;0.019775;0.0;0.0;0.0;0.0;0.0;0.0
3.0;1753877891.397684;17.567142;0.77;-1.37;-0.24;-0.050741;0.983026;0.019734;0.0;0.0;0.0;0.0;0.0;0.0
3.0;1753877891.402413;17.569413;0.77;-1.36;-0.22;-0.050581;0.984048;0.020269;0.0;0.0;0.0;0.0;0.0;0.0
3.0;1753877891.407142;17.610486;0.74;-1.27;-0.17;-0.051156;0.98284;0.020581;0.0;0.0;0.0;0.0;0.0;0.0
3.0;1753877891.411871;17.601494;0.75;-1.33;-0.18;-0.050414;0.984926;0.020805;0.0;0.0;0.0;0.0;0.0;0.0
3.0;1753877891.4166;17.576672;0.67;-1.35;-0.19;-0.051489;0.982862;0.020099;0.0;0.0;0.0;0.0;0.0;0.0
3.0;1753877891.421329;17.5899;0.67;-1.3;-0.17;-0.04992;0.982219;0.020973;0.0;0.0;0.0;0.0;0.0;0.0
3.0;1753877891.426058;17.575039;0.69;-1.3;-0.21;-0.049765;0.983289;0.021165;0.0;0.0;0.0;0.0;0.0;0.0
3.0;1753877891.430787;17.597229;0.74;-1.3;-0.26;-0.051177;0.981595;0.020286;0.0;0.0;0.0;0.0;0.0;0.0
3.0;1753877891.435516;17.578102;0.81;-1.31;-0.17;-0.049316;0.982301;0.020586;0.0;0.0;0.0;0.0;0.0;0.0
3.0;1753877891.440245;17.594676;0.75;-1.23;-0.25;-0.050151;0.98349;0.019806;0.0;0.0;0.0;0.0;0.0;0.0
3.0;1753877891.444974;17.5914;0.77;-1.37;-0.19;-0.051356;0.983066;0.020367;0.0;0.0;0.0;0.0;0.0;0.0
3.0;1753877891.449703;17.577332;0.69;-1.4;-0.14;-0.050903;0.983625;0.021182;0.0;0.0;0.0;0.0;0.0;0.0
3.0;1753877891.454432;17.602497;0.74;-1.35;-0.27;-0.049715;0.982951;0.020273;0.0;0.0;0.0;0.0;0.0;0.0
3.0;1753877891.459161;17.593163;0.69;-1.35;-0.24;-0.051693;0.983264;0.020162;0.0;0.0;0.0;0.0;0.0;0.0
3.0;1753877891.46389;17.582951;0.7;-1.34;-0.22;-0.052023;0.983227;0.021259;0.0;0.0;0.0;0.0;0.0;0.0
3.0;1753877891.468619;17.567918;0.61;-1.35;-0.22;-0.05162;0.984669;0.020298;0.0;0.0;0.0;0.0;0.0;0.0
3.0;1753877891.473348;17.598318;0.66;-1.34;-0.23;-0.051115;0.981929;0.020394;0.0;0.0;0.0;0.0;0.0;0.0
3.0;1753877891.478078;17.608109;0.74;-1.36;-0.23;-0.051439;0.983211;0.020977;0.0;0.0;0.0;0.0;0.0;0.0
3.0;1753877891.482806;17.606931;0.73;-1.3;-0.2;-0.052159;0.983191;0.020165;0.0;0.0;0.0;0.0;0.0;0.0
3.0;1753877891.487536;17.598867;0.75;-1.28;-0.16;-0.051489;0.982632;0.021238;0.0;0.0;0.0;0.0;0.0;0.0
3.0;1753877891.492264;17.579734;0.74;-1.3;-0.19;-0.053127;0.983198;0.019507;0.0;0.0;0.0;0.0;0.0;0.0
3.0;1753877891.496994;17.60013;0.65;-1.35;-0.2;-0.051693;0.982774;0.020835;0.0;0.0;0.0;0.0;0.0;0.0
3.0;1753877891.501722;17.594149;0.81;-1.37;-0.2;-0.049727;0.983595;0.019636;0.0;0.0;0.0;0.0;0.0;0.0
3.0;1753877891.506452;17.580534;0.73;-1.32;-0.18;-0.052975;0.983887;0.020757;0.0;0.0;0.0;0.0;0.0;0.0
3.0;1753877891.511181;17.580012;0.76;-1.24;-0.22;-0.04993;0.982487;0.021542;0.0;0.0;0.0;0.0;0.0;0.0
3.0;1753877891.51591;17.57916;0.72;-1.35;-0.12;-0.05171;0.983352;0.020826;0.0;0.0;0.0;0.0;0.0;0.0
3.0;1753877891.520639;17.585684;0.8;-1.28;-0.22;-0.051618;0.983161;0.020521;0.0;0.0;0.0;0.0;0.0;0.0
3.0;1753877891.525368;17.601828;0.71;-1.31;-0.14;-0.051075;0.982053;0.020761;0.0;0.0;0.0;0.0;0.0;0.0
3.0;1753877891.530097;17.598563;0.7;-1.28;-0.13;-0.051134;0.982951;0.019547;0.0;0.0;0.0;0.0;0.0;0.0
3.0;1753877891.534826;17.595532;0.67;-1.26;-0.2;-0.050199;0.98324;0.021328;0.0;0.0;0.0;0.0;0.0;0.0
3.0;1753877891.539555;17.587217;0.69;-1.3;-0.25;-0.051377;0.984724;0.02031;0.0;0.0;0.0;0.0;0.0;0.0
3.0;1753877891.544284;17.591193;0.76;-1.33;-0.2;-0.050924;0.982184;0.019765;0.0;0.0;0.0;0.0;0.0;0.0
3.0;1753877891.549013;17.588001;0.69;-1.33;-0.23;-0.052311;0.983605;0.020759;0.0;0.0;0.0;0.0;0.0;0.0
3.0;1753877891.553742;17.593202;0.71;-1.38;-0.2;-0.05181;0.98336;0.020734;0.0;0.0;0.0;0.0;0.0;0.0
3.0;1753877891.558471;17.592745;0.73;-1.3;-0.17;-0.050504;0.98384;0.020613;0.0;0.0;0.0;0.0;0.0;0.0
3.0;1753877891.5632;17.584395;0.7;-1.29;-0.21;-0.051216;0.982729;0.019491;0.0;0.0;0.0;0.0;0.0;0.0
3.0;1753877891.567929;17.593331;0.65;-1.34;-0.19;-0.050379;0.983443;0.020317;0.0;0.0;0.0;0.0;0.0;0.0
3.0;1753877891.572658;17.598244;0.73;-1.27;-0.2;-0.051339;0.983965;0.01998;0.0;0.0;0.0;0.0;0.0;0.0
3.0;1753877891.577387;17.601646;0.6;-1.36;-0.24;-0.051007;0.98279;0.020009;0.0;0.0;0.0;0.0;0.0;0.0
3.0;1753877891.582116;17.578179;0.73;-1.36;-0.2;-0.051583;0.983888;0.020213;0.0;0.0;0.0;0.0;0.0;0.0
3.0;1753877891.586845;17.600817;0.63;-1.3;-0.33;-0.05144;0.983015;0.020006;0.0;0.0;0.0;0.0;0.0;0.0
3.0;1753877891.591574;17.599695;0.66;-1.29;-0.22;-0.052795;0.982458;0.019713;0.0;0.0;0.0;0.0;0.0;0.0
3.0;1753877891.596303;17.573277;0.7;-1.22;-0.11;-0.04974;0.983537;0.020441;0.0;0.0;0.0;0.0;0.0;0.0
3.0;1753877891.601032;17.58693;0.79;-1.23;-0.22;-0.051261;0.98344;0.020098;0.0;0.0;0.0;0.0;0.0;0.0
3.0;1753877891.605761;17.567188;0.75;-1.3;-0.22;-0.050482;0.984001;0.020804;0.0;0.0;0.0;0.0;0.0;0.0
3.0;1753877891.61049;17.609027;0.71;-1.29;-0.21;-0.05148;0.983195;0.020251;0.0;0.0;0.0;0.0;0.0;0.0
3.0;1753877891.615219;17.59764;0.64;-1.35;-0.3;-0.050089;0.98281;0.019978;0.0;0.0;0.0;0.0;0.0;0.0
3.0;1753877891.619948;17.598276;0.7;-1.34;-0.18;-0.050197;0.983689;0.020902;0.0;0.0;0.0;0.0;0.0;0.0
3.0;1753877891.624678;17.597121;0.74;-1.3;-0.19;-0.050693;0.982924;0.020093;0.0;0.0;0.0;0.0;0.0;0.0
3.0;1753877891.629406;17.57723;0.62;-1.23;-0.29;-0.051265;0.983126;0.020695;0.0;0.0;0.0;0.0;0.0;0.0
3.0;1753877891.634136;17.6119;0.69;-1.33;-0.26;-0.050922;0.982329;0.020897;0.0;0.0;0.0;0.0;0.0;0.0
3.0;1753877891.638864;17.604715;0.64;-1.3;-0.26;-0.051382;0.983669;0.019301;0.0;0.0;0.0;0.0;0.0;0.0
3.0;1753877891.643594;17.596309;0.64;-1.3;-0.24;-0.051141;0.982797;0.019396;0.0;0.0;0.0;0.0;0.0;0.0
3.0;1753877891.648322;17.611137;0.66;-1.26;-0.22;-0.051369;0.984067;0.020215;0.0;0.0;0.0;0.0;0.0;0.0
3.0;1753877891.653052;17.591514;0.61;-1.3;-0.26;-0.051382;0.98363;0.020019;0.0;0.0;0.0;0.0;0.0;0.0
3.0;1753877891.657781;17.592074;0.69;-1.32;-0.16;-0.052487;0.983818;0.020048;0.0;0.0;0.0;0.0;0.0;0.0
3.0;1753877891.66251;17.593914;0.6;-1.28;-0.19;-0.051389;0.983495;0.020146;0.0;0.0;0.0;0.0;0.0;0.0
3.0;1753877891.667239;17.592738;0.58;-1.25;-0.21;-0.051855;0.984002;0.019759;0.0;0.0;0.0;0.0;0.0;0.0
3.0;1753877891.671968;17.608423;0.73;-1.29;-0.16;-0.051167;0.982485;0.018691;0.0;0.0;0.0;0.0;0.0;0.0
3.0;1753877891.676697;17.612495;0.63;-1.32;-0.24;-0.050635;0.982605;0.020363;0.0;0.0;0.0;0.0;0.0;0.0
3.0;1753877891.681426;17.590864;0.7;-1.24;-0.18;-0.051631;0.982711;0.019916;0.0;0.0;0.0;0.0;0.0;0.0
3.0;1753877891.686155;17.627648;0.65;-1.32;-0.19;-0.053215;0.983336;0.020361;0.0;0.0;0.0;0.0;0.0;0.0
3.0;1753877891.690884;17.614769;0.58;-1.3;-0.24;-0.053642;0.983804;0.019254;0.0;0.0;0.0;0.0;0.0;0.0
3.0;1753877891.695613;17.594141;0.71;-1.22;-0.25;-0.05142;0.982237;0.019533;0.0;0.0;0.0;0.0;0.0;0.0
3.0;1753877891.700342;17.604562;0.62;-1.26;-0.15;-0.05187;0.983272;0.019765;0.0;0.0;0.0;0.0;0.0;0.0
3.0;1753877891.705071;17.598179;0.67;-1.29;-0.14;-0.052602;0.983431;0.020229;0.0;0.0;0.0;0.0;0.0;0.0
3.0;1753877891.7098;17.590567;0.61;-1.27;-0.22;-0.051993;0.9835;0.019802;0.0;0.0;0.0;0.0;0.0;0.0
3.0;1753877891.714529;17.639227;0.65;-1.31;-0.24;-0.052847;0.983027;0.020066;0.0;0.0;0.0;0.0;0.0;0.0
3.0;1753877891.719258;17.596683;0.63;-1.2;-0.18;-0.051737;0.982954;0.01963;0.0;0.0;0.0;0.0;0.0;0.0
3.0;1753877891.723987;17.612035;0.61;-1.25;-0.21;-0.053005;0.982326;0.020272;0.0;0.0;0.0;0.0;0.0;0.0
3.0;1753877891.728716;17.622414;0.61;-1.21;-0.21;-0.05149;0.983441;0.02054;0.0;0.0;0.0;0.0;0.0;0.0
3.0;1753877891.733445;17.598822;0.64;-1.35;-0.25;-0.05236;0.983015;0.020356;0.0;0.0;0.0;0.0;0.0;0.0
3.0;1753877891.738174;17.621405;0.67;-1.3;-0.14;-0.05001;0.984509;0.01967;0.0;0.0;0.0;0.0;0.0;0.0
3.0;1753877891.742903;17.621968;0.68;-1.25;-0.17;-0.052708;0.983537;0.019801;0.0;0.0;0.0;0.0;0.0;0.0
3.0;1753877891.747632;17.605065;0.62;-1.26;-0.18;-0.053823;0.983621;0.019233;0.0;0.0;0.0;0.0;0.0;0.0
3.0;1753877891.752361;17.618908;0.68;-1.28;-0.13;-0.051899;0.983092;0.018557;0.0;0.0;0.0;0.0;0.0;0.0
3.0;1753877891.75709;17.598731;0.62;-1.3;-0.22;-0.053372;0.981964;0.02046;0.0;0.0;0.0;0.0;0.0;0.0
3.0;1753877891.761819;17.615115;0.62;-1.26;-0.35;-0.052602;0.983094;0.020426;0.0;0.0;0.0;0.0;0.0;0.0
3.0;1753877891.766548;17.62339;0.59;-1.23;-0.18;-0.05257;0.983819;0.020351;0.0;0.0;0.0;0.0;0.0;0.0
3.0;1753877891.771278;17.631794;0.7;-1.3;-0.24;-0.051873;0.983214;0.020025;0.0;0.0;0.0;0.0;0.0;0.0
3.0;1753877891.776006;17.612572;0.72;-1.27;-0.21;-0.05284;0.984336;0.020539;0.0;0.0;0.0;0.0;0.0;0.0
3.0;1753877891.780736;17.613942;0.6;-1.21;-0.16;-0.051951;0.982963;0.020114;0.0;0.0;0.0;0.0;0.0;0.0
3.0;1753877891.785464;17.601647;0.64;-1.25;-0.16;-0.053053;0.982295;0.020929;0.0;0.0;0.0;0.0;0.0;0.0
3.0;1753877891.790194;17.613186;0.59;-1.34;-0.22;-0.051565;0.983126;0.021113;0.0;0.0;0.0;0.0;0.0;0.0
3.0;1753877891.794922;17.601025;0.62;-1.18;-0.2;-0.051569;0.983252;0.020584;0.0;0.0;0.0;0.0;0.0;0.0
3.0;1753877891.799652;17.630623;0.66;-1.25;-0.2;-0.051818;0.982741;0.020554;0.0;0.0;0.0;0.0;0.0;0.0
3.0;1753877891.804381;17.605722;0.65;-1.29;-0.24;-0.052561;0.983076;0.020568;0.0;0.0;0.0;0.0;0.0;0.0
3.0;1753877891.80911;17.612559;0.61;-1.22;-0.22;-0.053077;0.982579;0.020021;0.0;0.0;0.0;0.0;0.0;0.0
3.0;1753877891.815;17.613281;0.63;-1.26;-0.21;-0.052582;0.98332;0.020008;0.0;0.0;0.0;0.0;0.0;0.0
3.0;1753877891.819729;17.637322;0.66;-1.35;-0.27;-0.051689;0.983651;0.020291;0.0;0.0;0.0;0.0;0.0;0.0
3.0;1753877891.824458;17.62139;0.63;-1.32;-0.18;-0.052305;0.984122;0.019719;0.0;0.0;0.0;0.0;0.0;0.0
3.0;1753877891.829187;17.617094;0.78;-1.25;-0.26;-0.052046;0.983851;0.020402;0.0;0.0;0.0;0.0;0.0;0.0
3.0;1753877891.833916;17.618963;0.67;-1.41;-0.24;-0.051736;0.982131;0.020776;0.0;0.0;0.0;0.0;0.0;0.0
3.0;1753877891.838645;17.599304;0.71;-1.27;-0.13;-0.049774;0.982136;0.02161;0.0;0.0;0.0;0.0;0.0;0.0
3.0;1753877891.843;17.613281;0.7;-1.33;-0.21;-0.05063;0.983076;0.02074;0.0;0.0;0.0;0.0;0.0;0.0
3.0;1753877891.847729;17.60768;0.58;-1.36;-0.28;-0.047694;0.98237;0.019189;0.0;0.0;0.0;0.0;0.0;0.0
3.0;1753877891.852458;17.627146;0.75;-1.29;-0.22;-0.051277;0.98382;0.019907;0.0;0.0;0.0;0.0;0.0;0.0
3.0;1753877891.857187;17.599552;0.66;-1.3;-0.3;-0.052212;0.983275;0.021229;0.0;0.0;0.0;0.0;0.0;0.0
3.0;1753877891.861916;17.629441;0.76;-1.27;-0.23;-0.050359;0.9831;0.019911;0.0;0.0;0.0;0.0;0.0;0.0
3.0;1753877891.866645;17.627258;0.76;-1.2;-0.22;-0.049611;0.982788;0.021718;0.0;0.0;0.0;0.0;0.0;0.0
3.0;1753877891.871374;17.62483;0.76;-1.25;-0.24;-0.051598;0.982644;0.02007;0.0;0.0;0.0;0.0;0.0;0.0
3.0;1753877891.876103;17.599196;0.74;-1.21;-0.25;-0.048717;0.98342;0.021247;0.0;0.0;0.0;0.0;0.0;0.0
3.0;1753877891.88172;17.605469;0.77;-1.26;-0.21;-0.05002;0.983076;0.020496;0.0;0.0;0.0;0.0;0.0;0.0
3.0;1753877891.886449;17.593558;0.73;-1.26;-0.21;-0.048644;0.982434;0.022482;0.0;0.0;0.0;0.0;0.0;0.0
3.0;1753877891.891178;17.618609;0.65;-1.22;-0.23;-0.051259;0.983003;0.019388;0.0;0.0;0.0;0.0;0.0;0.0
3.0;1753877891.895907;17.600158;0.76;-1.24;-0.12;-0.049739;0.982555;0.019619;0.0;0.0;0.0;0.0;0.0;0.0
3.0;1753877891.900636;17.610644;0.69;-1.3;-0.18;-0.05088;0.983547;0.019929;0.0;0.0;0.0;0.0;0.0;0.0
3.0;1753877891.905365;17.626829;0.74;-1.27;-0.17;-0.051062;0.983873;0.021386;0.0;0.0;0.0;0.0;0.0;0.0
3.0;1753877891.910094;17.609921;0.78;-1.29;-0.16;-0.051241;0.983453;0.020412;0.0;0.0;0.0;0.0;0.0;0.0
3.0;1753877891.914823;17.604045;0.81;-1.26;-0.21;-0.051175;0.983126;0.020648;0.0;0.0;0.0;0.0;0.0;0.0
3.0;1753877891.919552;17.601555;0.81;-1.25;-0.17;-0.050634;0.983552;0.019702;0.0;0.0;0.0;0.0;0.0;0.0
3.0;1753877891.92715;17.605469;0.77;-1.26;-0.21;-0.050142;0.983442;0.020496;0.0;0.0;0.0;0.0;0.0;0.0
3.0;1753877891.930388;17.546875;0.7;-1.19;-0.21;-0.050996;0.983076;0.019398;0.0;0.0;0.0;0.0;0.0;0.0
3.0;1753877891.936808;17.546875;0.7;-1.19;-0.21;-0.049776;0.98332;0.020374;0.0;0.0;0.0;0.0;0.0;0.0
3.0;1753877891.939691;17.5625;0.7;-1.26;-0.21;-0.051118;0.984174;0.019276;0.0;0.0;0.0;0.0;0.0;0.0
3.0;1753877891.944678;17.5625;0.77;-1.4;-0.21;-0.049044;0.983198;0.019276;0.0;0.0;0.0;0.0;0.0;0.0
3.0;1753877891.952461;17.5625;0.7;-1.33;-0.21;-0.050386;0.983808;0.020984;0.0;0.0;0.0;0.0;0.0;0.0
3.0;1753877891.953686;17.5625;0.7;-1.4;-0.21;-0.050874;0.98393;0.020496;0.0;0.0;0.0;0.0;0.0;0.0
3.0;1753877891.958433;17.5625;0.77;-1.33;-0.21;-0.05002;0.984174;0.02074;0.0;0.0;0.0;0.0;0.0;0.0
3.0;1753877891.963103;17.5625;0.77;-1.33;-0.14;-0.050142;0.983076;0.020252;0.0;0.0;0.0;0.0;0.0;0.0
3.0;1753877891.967782;17.5625;0.7;-1.4;-0.21;-0.051118;0.982222;0.020374;0.0;0.0;0.0;0.0;0.0;0.0
3.0;1753877891.972465;17.5625;0.7;-1.26;-0.21;-0.05185;0.983808;0.020862;0.0;0.0;0.0;0.0;0.0;0.0
3.0;1753877891.978732;17.546875;0.7;-1.33;-0.28;-0.050264;0.983198;0.020374;0.0;0.0;0.0;0.0;0.0;0.0
3.0;1753877891.984724;17.546875;0.77;-1.33;-0.21;-0.052216;0.984418;0.019886;0.0;0.0;0.0;0.0;0.0;0.0
3.0;1753877891.988006;17.546875;0.7;-1.26;-0.14;-0.048068;0.982832;0.020862;0.0;0.0;0.0;0.0;0.0;0.0
3.0;1753877891.991147;17.546875;0.77;-1.4;-0.21;-0.05063;0.984296;0.020862;0.0;0.0;0.0;0.0;0.0;0.0
3.0;1753877891.995876;17.547052;0.76;-1.34;-0.26;-0.05006;0.983541;0.021246;0.0;0.0;0.0;0.0;0.0;0.0
3.0;1753877892.000605;17.546097;0.78;-1.51;-0.25;-0.050159;0.983888;0.019926;0.0;0.0;0.0;0.0;0.0;0.0
3.0;1753877892.005334;17.540326;0.79;-1.44;-0.23;-0.049928;0.98481;0.021892;0.0;0.0;0.0;0.0;0.0;0.0
3.0;1753877892.010063;17.551086;0.68;-1.43;-0.18;-0.050162;0.983645;0.020452;0.0;0.0;0.0;0.0;0.0;0.0
3.0;1753877892.014792;17.54028;0.8;-1.37;-0.18;-0.049415;0.983448;0.019845;0.0;0.0;0.0;0.0;0.0;0.0
3.0;1753877892.019521;17.564254;0.73;-1.33;-0.21;-0.049137;0.984087;0.020137;0.0;0.0;0.0;0.0;0.0;0.0
3.0;1753877892.02425;17.54827;0.79;-1.21;-0.31;-0.049371;0.984282;0.021887;0.0;0.0;0.0;0.0;0.0;0.0
3.0;1753877892.028979;17.549717;0.73;-1.43;-0.26;-0.047614;0.984288;0.020829;0.0;0.0;0.0;0.0;0.0;0.0
3.0;1753877892.033708;17.535168;0.74;-1.32;-0.25;-0.049567;0.983163;0.020674;0.0;0.0;0.0;0.0;0.0;0.0
3.0;1753877892.038437;17.544305;0.69;-1.53;-0.21;-0.052183;0.983536;0.020407;0.0;0.0;0.0;0.0;0.0;0.0
3.0;1753877892.043166;17.555381;0.75;-1.42;-0.16;-0.049508;0.98323;0.021112;0.0;0.0;0.0;0.0;0.0;0.0
3.0;1753877892.047896;17.554015;0.73;-1.34;-0.2;-0.050683;0.982527;0.020847;0.0;0.0;0.0;0.0;0.0;0.0
3.0;1753877892.052624;17.546657;0.72;-1.38;-0.18;-0.048096;0.984092;0.020053;0.0;0.0;0.0;0.0;0.0;0.0
3.0;1753877892.057354;17.548536;0.78;-1.46;-0.23;-0.047738;0.983552;0.02138;0.0;0.0;0.0;0.0;0.0;0.0
3.0;1753877892.062082;17.55268;0.71;-1.31;-0.21;-0.047737;0.982506;0.018782;0.0;0.0;0.0;0.0;0.0;0.0
3.0;1753877892.066812;17.553306;0.72;-1.4;-0.11;-0.048944;0.982662;0.01986;0.0;0.0;0.0;0.0;0.0;0.0
3.0;1753877892.07154;17.538074;0.74;-1.32;-0.18;-0.048403;0.982659;0.019669;0.0;0.0;0.0;0.0;0.0;0.0
3.0;1753877892.07627;17.540465;0.66;-1.49;-0.23;-0.050388;0.984155;0.021833;0.0;0.0;0.0;0.0;0.0;0.0
3.0;1753877892.080999;17.556042;0.7;-1.31;-0.26;-0.048924;0.982467;0.021434;0.0;0.0;0.0;0.0;0.0;0.0
3.0;1753877892.085728;17.563574;0.75;-1.35;-0.13;-0.048206;0.982161;0.019712;0.0;0.0;0.0;0.0;0.0;0.0
3.0;1753877892.090457;17.546398;0.73;-1.45;-0.2;-0.048729;0.983219;0.020674;0.0;0.0;0.0;0.0;0.0;0.0
3.0;1753877892.095186;17.550254;0.63;-1.47;-0.18;-0.047559;0.982783;0.021651;0.0;0.0;0.0;0.0;0.0;0.0
3.0;1753877892.1005;17.546875;0.7;-1.4;-0.21;-0.048556;0.982344;0.02013;0.0;0.0;0.0;0.0;0.0;0.0
3.0;1753877892.105229;17.545864;0.7;-1.31;-0.23;-0.049348;0.983472;0.019509;0.0;0.0;0.0;0.0;0.0;0.0
3.0;1753877892.109958;17.559039;0.67;-1.27;-0.21;-0.048372;0.982738;0.018805;0.0;0.0;0.0;0.0;0.0;0.0
3.0;1753877892.114687;17.549954;0.75;-1.39;-0.14;-0.048336;0.981632;0.021102;0.0;0.0;0.0;0.0;0.0;0.0
3.0;1753877892.119416;17.551147;0.65;-1.34;-0.22;-0.049525;0.981447;0.020609;0.0;0.0;0.0;0.0;0.0;0.0
3.0;1753877892.124145;17.543595;0.66;-1.41;-0.21;-0.050101;0.982781;0.019854;0.0;0.0;0.0;0.0;0.0;0.0
3.0;1753877892.128874;17.551639;0.75;-1.43;-0.18;-0.049653;0.982797;0.019487;0.0;0.0;0.0;0.0;0.0;0.0
3.0;1753877892.133603;17.542631;0.74;-1.47;-0.16;-0.048253;0.981415;0.02068;0.0;0.0;0.0;0.0;0.0;0.0
3.0;1753877892.138332;17.536353;0.73;-1.5;-0.21;-0.048759;0.9828;0.020183;0.0;0.0;0.0;0.0;0.0;0.0
3.0;1753877892.143062;17.551226;0.69;-1.48;-0.2;-0.049102;0.983541;0.019872;0.0;0.0;0.0;0.0;0.0;0.0
3.0;1753877892.14779;17.548236;0.74;-1.3;-0.2;-0.048412;0.982574;0.020235;0.0;0.0;0.0;0.0;0.0;0.0
3.0;1753877892.15252;17.54921;0.71;-1.39;-0.22;-0.048557;0.983713;0.020784;0.0;0.0;0.0;0.0;0.0;0.0
3.0;1753877892.157248;17.544268;0.68;-1.31;-0.2;-0.047902;0.981931;0.01991;0.0;0.0;0.0;0.0;0.0;0.0
3.0;1753877892.161978;17.546729;0.7;-1.4;-0.19;-0.048373;0.982748;0.02108;0.0;0.0;0.0;0.0;0.0;0.0
3.0;1753877892.166706;17.532298;0.66;-1.41;-0.27;-0.048478;0.981654;0.020895;0.0;0.0;0.0;0.0;0.0;0.0
3.0;1753877892.171436;17.549636;0.75;-1.48;-0.22;-0.047809;0.981907;0.019497;0.0;0.0;0.0;0.0;0.0;0.0
3.0;1753877892.176165;17.546316;0.74;-1.52;-0.22;-0.048815;0.982749;0.020154;0.0;0.0;0.0;0.0;0.0;0.0
3.0;1753877892.180894;17.549689;0.71;-1.43;-0.22;-0.050387;0.982335;0.019311;0.0;0.0;0.0;0.0;0.0;0.0
3.0;1753877892.185623;17.556032;0.69;-1.48;-0.26;-0.050768;0.981472;0.021044;0.0;0.0;0.0;0.0;0.0;0.0
3.0;1753877892.190352;17.538557;0.71;-1.5;-0.25;-0.048692;0.982745;0.020075;0.0;0.0;0.0;0.0;0.0;0.0
3.0;1753877892.195081;17.553631;0.66;-1.45;-0.18;-0.048205;0.982224;0.020658;0.0;0.0;0.0;0.0;0.0;0.0
3.0;1753877892.19981;17.540813;0.72;-1.51;-0.22;-0.049309;0.983022;0.019137;0.0;0.0;0.0;0.0;0.0;0.0
3.0;1753877892.204539;17.538486;0.67;-1.33;-0.24;-0.048643;0.981651;0.021174;0.0;0.0;0.0;0.0;0.0;0.0
3.0;1753877892.209268;17.549203;0.76;-1.35;-0.24;-0.049099;0.982788;0.018807;0.0;0.0;0.0;0.0;0.0;0.0
3.0;1753877892.213997;17.549477;0.79;-1.4;-0.2;-0.049185;0.982151;0.021156;0.0;0.0;0.0;0.0;0.0;0.0
3.0;1753877892.218726;17.542857;0.75;-1.43;-0.21;-0.05031;0.981853;0.020458;0.0;0.0;0.0;0.0;0.0;0.0
3.0;1753877892.223455;17.545873;0.7;-1.35;-0.26;-0.05049;0.981991;0.020695;0.0;0.0;0.0;0.0;0.0;0.0
3.0;1753877892.228184;17.540715;0.7;-1.29;-0.25;-0.049071;0.98271;0.019006;0.0;0.0;0.0;0.0;0.0;0.0
3.0;1753877892.232913;17.546582;0.69;-1.38;-0.25;-0.050047;0.98351;0.019111;0.0;0.0;0.0;0.0;0.0;0.0
3.0;1753877892.237642;17.551652;0.71;-1.34;-0.18;-0.050602;0.982756;0.021219;0.0;0.0;0.0;0.0;0.0;0.0
3.0;1753877892.242371;17.546269;0.8;-1.5;-0.16;-0.049174;0.983421;0.019127;0.0;0.0;0.0;0.0;0.0;0.0
3.0;1753877892.2471;17.554029;0.73;-1.51;-0.19;-0.050002;0.982769;0.019344;0.0;0.0;0.0;0.0;0.0;0.0
3.0;1753877892.251829;17.546028;0.76;-1.37;-0.17;-0.050051;0.983442;0.019848;0.0;0.0;0.0;0.0;0.0;0.0
3.0;1753877892.256558;17.53719;0.71;-1.31;-0.2;-0.048278;0.982744;0.020122;0.0;0.0;0.0;0.0;0.0;0.0
3.0;1753877892.261287;17.557643;0.77;-1.45;-0.18;-0.049045;0.9823;0.019549;0.0;0.0;0.0;0.0;0.0;0.0
3.0;1753877892.266016;17.552436;0.78;-1.45;-0.2;-0.049568;0.982661;0.019762;0.0;0.0;0.0;0.0;0.0;0.0
3.0;1753877892.270745;17.5549;0.77;-1.32;-0.24;-0.049375;0.981987;0.019284;0.0;0.0;0.0;0.0;0.0;0.0
3.0;1753877892.275474;17.540431;0.71;-1.31;-0.23;-0.051388;0.98386;0.019386;0.0;0.0;0.0;0.0;0.0;0.0
3.0;1753877892.280203;17.541376;0.73;-1.51;-0.25;-0.0508;0.982549;0.020322;0.0;0.0;0.0;0.0;0.0;0.0
3.0;1753877892.284932;17.546388;0.74;-1.31;-0.26;-0.051119;0.982681;0.020809;0.0;0.0;0.0;0.0;0.0;0.0
3.0;1753877892.289662;17.553314;0.73;-1.4;-0.19;-0.049696;0.982418;0.02026;0.0;0.0;0.0;0.0;0.0;0.0
3.0;1753877892.29439;17.542997;0.71;-1.37;-0.26;-0.049698;0.983321;0.021647;0.0;0.0;0.0;0.0;0.0;0.0
3.0;1753877892.29912;17.544398;0.79;-1.32;-0.23;-0.050975;0.982042;0.019688;0.0;0.0;0.0;0.0;0.0;0.0
3.0;1753877892.303848;17.546675;0.76;-1.43;-0.22;-0.049457;0.982364;0.018916;0.0;0.0;0.0;0.0;0.0;0.0
3.0;1753877892.308578;17.550254;0.69;-1.59;-0.24;-0.050809;0.982066;0.019955;0.0;0.0;0.0;0.0;0.0;0.0
3.0;1753877892.313306;17.556284;0.7;-1.43;-0.29;-0.050443;0.983905;0.020272;0.0;0.0;0.0;0.0;0.0;0.0
3.0;1753877892.318036;17.553366;0.7;-1.44;-0.16;-0.051383;0.982998;0.020822;0.0;0.0;0.0;0.0;0.0;0.0
3.0;1753877892.322765;17.537613;0.69;-1.39;-0.25;-0.051769;0.981666;0.021615;0.0;0.0;0.0;0.0;0.0;0.0
3.0;1753877892.327494;17.557798;0.75;-1.35;-0.12;-0.049936;0.983413;0.020089;0.0;0.0;0.0;0.0;0.0;0.0
3.0;1753877892.332223;17.548966;0.75;-1.39;-0.26;-0.048944;0.982979;0.019316;0.0;0.0;0.0;0.0;0.0;0.0
3.0;1753877892.336952;17.552655;0.83;-1.48;-0.25;-0.04791;0.982302;0.020393;0.0;0.0;0.0;0.0;0.0;0.0
3.0;1753877892.341681;17.541079;0.72;-1.31;-0.24;-0.05148;0.982803;0.019807;0.0;0.0;0.0;0.0;0.0;0.0
3.0;1753877892.34641;17.553804;0.73;-1.45;-0.18;-0.050755;0.982948;0.01958;0.0;0.0;0.0;0.0;0.0;0.0
3.0;1753877892.351139;17.540484;0.76;-1.28;-0.24;-0.050268;0.983032;0.021474;0.0;0.0;0.0;0.0;0.0;0.0
3.0;1753877892.355868;17.544416;0.76;-1.55;-0.23;-0.050905;0.982669;0.020262;0.0;0.0;0.0;0.0;0.0;0.0
3.0;1753877892.360597;17.538975;0.75;-1.23;-0.25;-0.05046;0.983128;0.019605;0.0;0.0;0.0;0.0;0.0;0.0
3.0;1753877892.365326;17.549774;0.74;-1.36;-0.16;-0.048971;0.9832;0.02041;0.0;0.0;0.0;0.0;0.0;0.0
3.0;1753877892.370055;17.540893;0.75;-1.42;-0.22;-0.051247;0.983865;0.020447;0.0;0.0;0.0;0.0;0.0;0.0
3.0;1753877892.374784;17.551939;0.7;-1.33;-0.22;-0.050521;0.983687;0.019835;0.0;0.0;0.0;0.0;0.0;0.0
3.0;1753877892.379513;17.532777;0.71;-1.3;-0.23;-0.04869;0.98339;0.019755;0.0;0.0;0.0;0.0;0.0;0.0
3.0;1753877892.384242;17.539327;0.72;-1.19;-0.24;-0.05052;0.983381;0.019911;0.0;0.0;0.0;0.0;0.0;0.0
3.0;1753877892.388971;17.546645;0.72;-1.43;-0.23;-0.050659;0.983292;0.020638;0.0;0.0;0.0;0.0;0.0;0.0
3.0;1753877892.3937;17.541773;0.76;-1.19;-0.22;-0.050715;0.983358;0.020493;0.0;0.0;0.0;0.0;0.0;0.0
3.0;1753877892.398429;17.545733;0.76;-1.38;-0.27;-0.05063;0.982757;0.020604;0.0;0.0;0.0;0.0;0.0;0.0
3.0;1753877892.403158;17.550928;0.72;-1.23;-0.23;-0.050882;0.982872;0.020876;0.0;0.0;0.0;0.0;0.0;0.0
3.0;1753877892.407887;17.549749;0.74;-1.36;-0.19;-0.0501;0.982452;0.020427;0.0;0.0;0.0;0.0;0.0;0.0
3.0;1753877892.412616;17.55422;0.73;-1.36;-0.17;-0.049981;0.981865;0.02093;0.0;0.0;0.0;0.0;0.0;0.0
3.0;1753877892.417345;17.531863;0.77;-1.41;-0.28;-0.051273;0.983813;0.022037;0.0;0.0;0.0;0.0;0.0;0.0
3.0;1753877892.422074;17.546062;0.71;-1.3;-0.16;-0.053054;0.983569;0.019729;0.0;0.0;0.0;0.0;0.0;0.0
3.0;1753877892.426803;17.522612;0.68;-1.33;-0.28;-0.050978;0.982716;0.020189;0.0;0.0;0.0;0.0;0.0;0.0
3.0;1753877892.431532;17.553119;0.71;-1.27;-0.22;-0.052568;0.982831;0.020552;0.0;0.0;0.0;0.0;0.0;0.0
3.0;1753877892.436262;17.549593;0.75;-1.24;-0.19;-0.049653;0.983907;0.020847;0.0;0.0;0.0;0.0;0.0;0.0
3.0;1753877892.44099;17.548413;0.74;-1.27;-0.16;-0.052926;0.982771;0.020613;0.0;0.0;0.0;0.0;0.0;0.0
3.0;1753877892.44572;17.558981;0.78;-1.43;-0.26;-0.05101;0.98262;0.021705;0.0;0.0;0.0;0.0;0.0;0.0
3.0;1753877892.450448;17.542927;0.72;-1.37;-0.19;-0.050788;0.983727;0.019113;0.0;0.0;0.0;0.0;0.0;0.0
3.0;1753877892.455178;17.550948;0.74;-1.4;-0.24;-0.055275;0.982641;0.02017;0.0;0.0;0.0;0.0;0.0;0.0
3.0;1753877892.459906;17.545651;0.8;-1.31;-0.21;-0.053373;0.98282;0.020335;0.0;0.0;0.0;0.0;0.0;0.0
3.0;1753877892.464636;17.549059;0.77;-1.42;-0.22;-0.051615;0.982708;0.020396;0.0;0.0;0.0;0.0;0.0;0.0
3.0;1753877892.469365;17.558554;0.77;-1.32;-0.29;-0.050827;0.983931;0.021044;0.0;0.0;0.0;0.0;0.0;0.0
3.0;1753877892.474094;17.547972;0.8;-1.42;-0.18;-0.050096;0.983956;0.020046;0.0;0.0;0.0;0.0;0.0;0.0
3.0;1753877892.478823;17.537337;0.78;-1.39;-0.19;-0.050623;0.982785;0.020788;0.0;0.0;0.0;0.0;0.0;0.0
3.0;1753877892.483552;17.5483;0.75;-1.4;-0.22;-0.05106;0.983263;0.020239;0.0;0.0;0.0;0.0;0.0;0.0
3.0;1753877892.488281;17.565859;0.76;-1.27;-0.22;-0.049135;0.983159;0.019838;0.0;0.0;0.0;0.0;0.0;0.0
3.0;1753877892.49301;17.549106;0.78;-1.22;-0.23;-0.049081;0.983028;0.020331;0.0;0.0;0.0;0.0;0.0;0.0
3.0;1753877892.497739;17.545872;0.77;-1.41;-0.13;-0.052426;0.983985;0.019571;0.0;0.0;0.0;0.0;0.0;0.0
3.0;1753877892.502468;17.54145;0.75;-1.25;-0.18;-0.054666;0.983007;0.019946;0.0;0.0;0.0;0.0;0.0;0.0
3.0;1753877892.507197;17.550439;0.74;-1.36;-0.19;-0.051036;0.984151;0.020082;0.0;0.0;0.0;0.0;0.0;0.0
3.0;1753877892.511926;17.543315;0.75;-1.28;-0.23;-0.052687;0.982847;0.020643;0.0;0.0;0.0;0.0;0.0;0.0
3.0;1753877892.516655;17.543385;0.8;-1.32;-0.23;-0.052442;0.983282;0.020274;0.0;0.0;0.0;0.0;0.0;0.0
3.0;1753877892.521384;17.550698;0.73;-1.27;-0.17;-0.05171;0.983487;0.019316;0.0;0.0;0.0;0.0;0.0;0.0
3.0;1753877892.526113;17.553513;0.71;-1.34;-0.17;-0.053231;0.983036;0.020346;0.0;0.0;0.0;0.0;0.0;0.0
3.0;1753877892.530842;17.551918;0.78;-1.39;-0.22;-0.053036;0.983981;0.020627;0.0;0.0;0.0;0.0;0.0;0.0
3.0;1753877892.5382;17.546875;0.77;-1.33;-0.21;-0.05185;0.98332;0.020252;0.0;0.0;0.0;0.0;0.0;0.0
3.0;1753877892.542929;17.54562;0.8;-1.27;-0.18;-0.051614;0.982755;0.021321;0.0;0.0;0.0;0.0;0.0;0.0
3.0;1753877892.547658;17.538947;0.74;-1.36;-0.24;-0.052169;0.983045;0.020903;0.0;0.0;0.0;0.0;0.0;0.0
3.0;1753877892.552387;17.575653;0.78;-1.44;-0.23;-0.051218;0.983646;0.019664;0.0;0.0;0.0;0.0;0.0;0.0
3.0;1753877892.557116;17.545063;0.69;-1.45;-0.17;-0.051896;0.983071;0.020245;0.0;0.0;0.0;0.0;0.0;0.0
3.0;1753877892.561845;17.538207;0.76;-1.42;-0.23;-0.051393;0.983074;0.019533;0.0;0.0;0.0;0.0;0.0;0.0
3.0;1753877892.566574;17.544423;0.73;-1.3;-0.25;-0.051857;0.983005;0.020468;0.0;0.0;0.0;0.0;0.0;0.0
3.0;1753877892.571303;17.553394;0.78;-1.3;-0.15;-0.052124;0.983127;0.020953;0.0;0.0;0.0;0.0;0.0;0.0
3.0;1753877892.576032;17.539619;0.82;-1.32;-0.17;-0.050546;0.983143;0.020868;0.0;0.0;0.0;0.0;0.0;0.0
3.0;1753877892.580761;17.542715;0.77;-1.32;-0.18;-0.052069;0.983794;0.020133;0.0;0.0;0.0;0.0;0.0;0.0
3.0;1753877892.58549;17.550141;0.75;-1.3;-0.22;-0.051364;0.985063;0.019738;0.0;0.0;0.0;0.0;0.0;0.0
3.0;1753877892.590219;17.552462;0.79;-1.31;-0.24;-0.052031;0.983384;0.019697;0.0;0.0;0.0;0.0;0.0;0.0
3.0;1753877892.594948;17.549976;0.75;-1.46;-0.18;-0.051993;0.984055;0.021401;0.0;0.0;0.0;0.0;0.0;0.0
3.0;1753877892.599677;17.542119;0.7;-1.29;-0.2;-0.051997;0.983309;0.019822;0.0;0.0;0.0;0.0;0.0;0.0
3.0;1753877892.604406;17.542362;0.78;-1.38;-0.2;-0.052364;0.98373;0.020047;0.0;0.0;0.0;0.0;0.0;0.0
3.0;1753877892.609136;17.550738;0.78;-1.38;-0.21;-0.050628;0.981933;0.019526;0.0;0.0;0.0;0.0;0.0;0.0
3.0;1753877892.613864;17.555553;0.8;-1.25;-0.17;-0.050958;0.981544;0.020149;0.0;0.0;0.0;0.0;0.0;0.0
3.0;1753877892.618594;17.531275;0.75;-1.31;-0.19;-0.053208;0.983454;0.019931;0.0;0.0;0.0;0.0;0.0;0.0
3.0;1753877892.623322;17.540963;0.73;-1.42;-0.16;-0.051155;0.98386;0.020712;0.0;0.0;0.0;0.0;0.0;0.0
3.0;1753877892.628052;17.531183;0.77;-1.28;-0.19;-0.05186;0.982786;0.020654;0.0;0.0;0.0;0.0;0.0;0.0
3.0;1753877892.63278;17.549227;0.75;-1.22;-0.26;-0.05082;0.984169;0.020976;0.0;0.0;0.0;0.0;0.0;0.0
3.0;1753877892.63751;17.54011;0.79;-1.3;-0.21;-0.050902;0.983047;0.021197;0.0;0.0;0.0;0.0;0.0;0.0
3.0;1753877892.642238;17.543596;0.76;-1.35;-0.17;-0.051274;0.983092;0.01913;0.0;0.0;0.0;0.0;0.0;0.0
3.0;1753877892.646968;17.550633;0.78;-1.39;-0.19;-0.05197;0.9838;0.020051;0.0;0.0;0.0;0.0;0.0;0.0
3.0;1753877892.651697;17.53972;0.73;-1.25;-0.23;-0.052177;0.983457;0.020352;0.0;0.0;0.0;0.0;0.0;0.0
3.0;1753877892.656426;17.558072;0.79;-1.08;-0.18;-0.053455;0.982918;0.020842;0.0;0.0;0.0;0.0;0.0;0.0
3.0;1753877892.661155;17.547187;0.79;-1.25;-0.18;-0.053395;0.983439;0.020329;0.0;0.0;0.0;0.0;0.0;0.0
3.0;1753877892.665884;17.541464;0.75;-1.32;-0.19;-0.051736;0.982826;0.019698;0.0;0.0;0.0;0.0;0.0;0.0
3.0;1753877892.670613;17.552333;0.79;-1.38;-0.2;-0.053609;0.982391;0.020333;0.0;0.0;0.0;0.0;0.0;0.0
3.0;1753877892.675342;17.549639;0.79;-1.27;-0.21;-0.052838;0.982423;0.019764;0.0;0.0;0.0;0.0;0.0;0.0
3.0;1753877892.680071;17.547609;0.77;-1.37;-0.22;-0.053039;0.98354;0.019026;0.0;0.0;0.0;0.0;0.0;0.0
3.0;1753877892.6848;17.535361;0.74;-1.32;-0.25;-0.051603;0.984137;0.020262;0.0;0.0;0.0;0.0;0.0;0.0
3.0;1753877892.689529;17.54109;0.79;-1.36;-0.25;-0.052336;0.983079;0.019221;0.0;0.0;0.0;0.0;0.0;0.0
3.0;1753877892.694258;17.54082;0.72;-1.36;-0.21;-0.050796;0.98395;0.020158;0.0;0.0;0.0;0.0;0.0;0.0
3.0;1753877892.698987;17.542886;0.76;-1.29;-0.25;-0.050933;0.98342;0.020205;0.0;0.0;0.0;0.0;0.0;0.0
3.0;1753877892.703716;17.550061;0.75;-1.36;-0.17;-0.052003;0.983253;0.020874;0.0;0.0;0.0;0.0;0.0;0.0
3.0;1753877892.708445;17.549771;0.74;-1.44;-0.23;-0.05317;0.982871;0.02023;0.0;0.0;0.0;0.0;0.0;0.0
3.0;1753877892.713174;17.5399;0.74;-1.15;-0.22;-0.050451;0.983887;0.020839;0.0;0.0;0.0;0.0;0.0;0.0
3.0;1753877892.717903;17.54953;0.68;-1.25;-0.29;-0.051105;0.983445;0.019329;0.0;0.0;0.0;0.0;0.0;0.0
3.0;1753877892.722632;17.553068;0.68;-1.43;-0.18;-0.051231;0.983075;0.019614;0.0;0.0;0.0;0.0;0.0;0.0
3.0;1753877892.727361;17.529904;0.79;-1.28;-0.15;-0.049281;0.983014;0.01889;0.0;0.0;0.0;0.0;0.0;0.0
3.0;1753877892.73209;17.541764;0.73;-1.26;-0.15;-0.05367;0.982081;0.020798;0.0;0.0;0.0;0.0;0.0;0.0
3.0;1753877892.736819;17.548986;0.77;-1.37;-0.25;-0.051465;0.983187;0.021311;0.0;0.0;0.0;0.0;0.0;0.0
3.0;1753877892.741548;17.54834;0.72;-1.2;-0.18;-0.053304;0.983284;0.021335;0.0;0.0;0.0;0.0;0.0;0.0
3.0;1753877892.746277;17.562278;0.74;-1.33;-0.15;-0.051055;0.982487;0.019692;0.0;0.0;0.0;0.0;0.0;0.0
3.0;1753877892.751006;17.549586;0.81;-1.23;-0.22;-0.053207;0.982277;0.019821;0.0;0.0;0.0;0.0;0.0;0.0
3.0;1753877892.755736;17.550582;0.79;-1.22;-0.22;-0.050704;0.984419;0.019367;0.0;0.0;0.0;0.0;0.0;0.0
3.0;1753877892.760464;17.539304;0.7;-1.31;-0.22;-0.051916;0.984403;0.01945;0.0;0.0;0.0;0.0;0.0;0.0
3.0;1753877892.765194;17.549645;0.75;-1.27;-0.28;-0.052932;0.983138;0.021403;0.0;0.0;0.0;0.0;0.0;0.0
3.0;1753877892.769922;17.557242;0.73;-1.26;-0.22;-0.050531;0.984334;0.02075;0.0;0.0;0.0;0.0;0.0;0.0
3.0;1753877892.774652;17.554022;0.76;-1.22;-0.18;-0.052584;0.983519;0.019253;0.0;0.0;0.0;0.0;0.0;0.0
3.0;1753877892.77938;17.54911;0.72;-1.22;-0.18;-0.050199;0.983087;0.020678;0.0;0.0;0.0;0.0;0.0;0.0
3.0;1753877892.78411;17.542453;0.79;-1.21;-0.22;-0.052667;0.982715;0.020845;0.0;0.0;0.0;0.0;0.0;0.0
3.0;1753877892.788838;17.538975;0.71;-1.35;-0.2;-0.052451;0.983423;0.020939;0.0;0.0;0.0;0.0;0.0;0.0
3.0;1753877892.793568;17.551506;0.77;-1.2;-0.19;-0.053059;0.981849;0.019946;0.0;0.0;0.0;0.0;0.0;0.0
3.0;1753877892.798297;17.549326;0.6;-1.37;-0.23;-0.050607;0.982744;0.020508;0.0;0.0;0.0;0.0;0.0;0.0
3.0;1753877892.803026;17.558137;0.71;-1.25;-0.27;-0.052371;0.983524;0.019708;0.0;0.0;0.0;0.0;0.0;0.0
3.0;1753877892.807755;17.543836;0.76;-1.3;-0.2;-0.053391;0.98243;0.01942;0.0;0.0;0.0;0.0;0.0;0.0
3.0;1753877892.812484;17.560075;0.69;-1.32;-0.14;-0.051659;0.984291;0.01958;0.0;0.0;0.0;0.0;0.0;0.0
3.0;1753877892.817213;17.543392;0.79;-1.3;-0.18;-0.052101;0.983815;0.021178;0.0;0.0;0.0;0.0;0.0;0.0
3.0;1753877892.821942;17.548704;0.7;-1.42;-0.25;-0.051865;0.98396;0.021378;0.0;0.0;0.0;0.0;0.0;0.0
3.0;1753877892.826671;17.564132;0.72;-1.27;-0.2;-0.052639;0.983427;0.020482;0.0;0.0;0.0;0.0;0.0;0.0
3.0;1753877892.8314;17.554357;0.74;-1.27;-0.17;-0.052274;0.983471;0.0204;0.0;0.0;0.0;0.0;0.0;0.0
3.0;1753877892.836129;17.567507;0.74;-1.26;-0.24;-0.052166;0.983453;0.020814;0.0;0.0;0.0;0.0;0.0;0.0
3.0;1753877892.840858;17.546139;0.72;-1.36;-0.23;-0.052227;0.982471;0.019881;0.0;0.0;0.0;0.0;0.0;0.0
3.0;1753877892.845587;17.550598;0.7;-1.21;-0.19;-0.051884;0.982985;0.020562;0.0;0.0;0.0;0.0;0.0;0.0
3.0;1753877892.850316;17.54276;0.65;-1.39;-0.23;-0.053909;0.983165;0.02088;0.0;0.0;0.0;0.0;0.0;0.0
3.0;1753877892.855045;17.551474;0.72;-1.26;-0.26;-0.052505;0.98353;0.019992;0.0;0.0;0.0;0.0;0.0;0.0
3.0;1753877892.859774;17.542678;0.69;-1.35;-0.23;-0.052267;0.984051;0.022277;0.0;0.0;0.0;0.0;0.0;0.0
3.0;1753877892.864503;17.540157;0.69;-1.2;-0.2;-0.052623;0.983229;0.02048;0.0;0.0;0.0;0.0;0.0;0.0
3.0;1753877892.869232;17.552417;0.73;-1.37;-0.2;-0.050409;0.982758;0.020756;0.0;0.0;0.0;0.0;0.0;0.0
3.0;1753877892.873961;17.538753;0.71;-1.29;-0.18;-0.050781;0.984059;0.021285;0.0;0.0;0.0;0.0;0.0;0.0
3.0;1753877892.87869;17.555851;0.76;-1.17;-0.17;-0.050794;0.98345;0.020038;0.0;0.0;0.0;0.0;0.0;0.0
3.0;1753877892.883419;17.552569;0.72;-1.21;-0.2;-0.052961;0.983685;0.020467;0.0;0.0;0.0;0.0;0.0;0.0
3.0;1753877892.888148;17.549009;0.67;-1.22;-0.2;-0.050414;0.982801;0.019076;0.0;0.0;0.0;0.0;0.0;0.0
3.0;1753877892.892877;17.548872;0.7;-1.25;-0.19;-0.053896;0.983397;0.019381;0.0;0.0;0.0;0.0;0.0;0.0
3.0;1753877892.897606;17.547513;0.71;-1.27;-0.23;-0.051168;0.982964;0.020969;0.0;0.0;0.0;0.0;0.0;0.0
3.0;1753877892.902336;17.54577;0.72;-1.18;-0.22;-0.049811;0.9836;0.021005;0.0;0.0;0.0;0.0;0.0;0.0
3.0;1753877892.907064;17.544004;0.68;-1.28;-0.15;-0.052163;0.982312;0.020388;0.0;0.0;0.0;0.0;0.0;0.0
3.0;1753877892.911794;17.550182;0.72;-1.33;-0.18;-0.053408;0.983559;0.020866;0.0;0.0;0.0;0.0;0.0;0.0
3.0;1753877892.916522;17.540874;0.71;-1.3;-0.21;-0.052221;0.984132;0.020518;0.0;0.0;0.0;0.0;0.0;0.0
3.0;1753877892.921252;17.555198;0.75;-1.27;-0.23;-0.050981;0.983283;0.021087;0.0;0.0;0.0;0.0;0.0;0.0
3.0;1753877892.92598;17.549369;0.73;-1.28;-0.2;-0.051366;0.98367;0.020861;0.0;0.0;0.0;0.0;0.0;0.0
3.0;1753877892.93071;17.543989;0.64;-1.09;-0.2;-0.052549;0.983779;0.021488;0.0;0.0;0.0;0.0;0.0;0.0
3.0;1753877892.935439;17.544396;0.71;-1.23;-0.18;-0.052754;0.983053;0.020304;0.0;0.0;0.0;0.0;0.0;0.0
3.0;1753877892.940168;17.536583;0.75;-1.35;-0.24;-0.052539;0.984398;0.019883;0.0;0.0;0.0;0.0;0.0;0.0
3.0;1753877892.944897;17.544103;0.75;-1.41;-0.23;-0.052296;0.983642;0.020195;0.0;0.0;0.0;0.0;0.0;0.0
3.0;1753877892.949626;17.539092;0.74;-1.39;-0.26;-0.051073;0.982417;0.020775;0.0;0.0;0.0;0.0;0.0;0.0
3.0;1753877892.954355;17.544815;0.75;-1.28;-0.24;-0.052897;0.983512;0.020532;0.0;0.0;0.0;0.0;0.0;0.0
3.0;1753877892.959084;17.542918;0.68;-1.32;-0.22;-0.051884;0.983689;0.02087;0.0;0.0;0.0;0.0;0.0;0.0
3.0;1753877892.963813;17.558622;0.72;-1.3;-0.19;-0.050859;0.983588;0.020731;0.0;0.0;0.0;0.0;0.0;0.0
3.0;1753877892.968542;17.546973;0.77;-1.25;-0.19;-0.05237;0.982785;0.021259;0.0;0.0;0.0;0.0;0.0;0.0
3.0;1753877892.973271;17.537849;0.72;-1.31;-0.28;-0.052159;0.98395;0.02085;0.0;0.0;0.0;0.0;0.0;0.0
3.0;1753877892.9792;17.546875;0.7;-1.26;-0.21;-0.05185;0.98332;0.020252;0.0;0.0;0.0;0.0;0.0;0.0
3.0;1753877892.98059;17.539062;0.7;-1.33;-0.28;-0.050386;0.982222;0.020374;0.0;0.0;0.0;0.0;0.0;0.0
3.0;1753877892.983912;17.539062;0.7;-1.26;-0.14;-0.051362;0.983686;0.021716;0.0;0.0;0.0;0.0;0.0;0.0
3.0;1753877892.987912;17.554688;0.77;-1.19;-0.14;-0.050142;0.983076;0.021106;0.0;0.0;0.0;0.0;0.0;0.0
3.0;1753877892.992589;17.554688;0.7;-1.33;-0.14;-0.04941;0.98271;0.021228;0.0;0.0;0.0;0.0;0.0;0.0
3.0;1753877892.997447;17.554688;0.7;-1.26;-0.21;-0.049776;0.983198;0.019886;0.0;0.0;0.0;0.0;0.0;0.0
3.0;1753877893.002176;17.552104;0.71;-1.38;-0.22;-0.050782;0.982231;0.020493;0.0;0.0;0.0;0.0;0.0;0.0
3.0;1753877893.006905;17.541409;0.75;-1.26;-0.13;-0.049248;0.984675;0.020724;0.0;0.0;0.0;0.0;0.0;0.0
3.0;1753877893.011634;17.565499;0.73;-1.24;-0.23;-0.049779;0.984529;0.018836;0.0;0.0;0.0;0.0;0.0;0.0
3.0;1753877893.016363;17.558699;0.69;-1.17;-0.21;-0.04863;0.983339;0.021267;0.0;0.0;0.0;0.0;0.0;0.0
3.0;1753877893.021092;17.561672;0.63;-1.26;-0.19;-0.048966;0.982912;0.020811;0.0;0.0;0.0;0.0;0.0;0.0
3.0;1753877893.025821;17.555192;0.81;-1.34;-0.24;-0.050708;0.982915;0.020859;0.0;0.0;0.0;0.0;0.0;0.0
3.0;1753877893.03055;17.561578;0.75;-1.45;-0.23;-0.04858;0.982827;0.019048;0.0;0.0;0.0;0.0;0.0;0.0
3.0;1753877893.035279;17.552596;0.62;-1.21;-0.18;-0.047808;0.983053;0.020134;0.0;0.0;0.0;0.0;0.0;0.0
3.0;1753877893.040008;17.541806;0.69;-1.27;-0.24;-0.047983;0.982716;0.018968;0.0;0.0;0.0;0.0;0.0;0.0
3.0;1753877893.044737;17.573158;0.75;-1.34;-0.21;-0.050075;0.98314;0.020286;0.0;0.0;0.0;0.0;0.0;0.0
3.0;1753877893.049466;17.568222;0.67;-1.12;-0.2;-0.05119;0.983158;0.020484;0.0;0.0;0.0;0.0;0.0;0.0
3.0;1753877893.054196;17.574552;0.78;-1.29;-0.21;-0.049482;0.981824;0.020347;0.0;0.0;0.0;0.0;0.0;0.0
3.0;1753877893.058924;17.576924;0.64;-1.29;-0.19;-0.050296;0.983709;0.018893;0.0;0.0;0.0;0.0;0.0;0.0
3.0;1753877893.063654;17.554883;0.65;-1.31;-0.28;-0.052817;0.98321;0.018578;0.0;0.0;0.0;0.0;0.0;0.0
3.0;1753877893.068382;17.552021;0.68;-1.23;-0.2;-0.049964;0.982367;0.021626;0.0;0.0;0.0;0.0;0.0;0.0
3.0;1753877893.073112;17.547624;0.7;-1.28;-0.2;-0.049444;0.98243;0.020189;0.0;0.0;0.0;0.0;0.0;0.0
3.0;1753877893.07784;17.555128;0.7;-1.4;-0.23;-0.049374;0.982904;0.021284;0.0;0.0;0.0;0.0;0.0;0.0
3.0;1753877893.08257;17.555968;0.8;-1.33;-0.23;-0.048944;0.982925;0.01945;0.0;0.0;0.0;0.0;0.0;0.0
3.0;1753877893.087299;17.557396;0.66;-1.28;-0.19;-0.049329;0.982298;0.019192;0.0;0.0;0.0;0.0;0.0;0.0
3.0;1753877893.092028;17.540686;0.65;-1.22;-0.23;-0.049058;0.983452;0.019189;0.0;0.0;0.0;0.0;0.0;0.0
3.0;1753877893.096757;17.54596;0.73;-1.31;-0.23;-0.049228;0.982924;0.021417;0.0;0.0;0.0;0.0;0.0;0.0
3.0;1753877893.101486;17.558954;0.67;-1.32;-0.18;-0.049608;0.982631;0.020702;0.0;0.0;0.0;0.0;0.0;0.0
3.0;1753877893.106215;17.540729;0.67;-1.36;-0.17;-0.050812;0.982136;0.019374;0.0;0.0;0.0;0.0;0.0;0.0
3.0;1753877893.110944;17.569198;0.71;-1.43;-0.21;-0.048666;0.982989;0.019612;0.0;0.0;0.0;0.0;0.0;0.0
3.0;1753877893.115673;17.56412;0.7;-1.31;-0.14;-0.049114;0.982682;0.019779;0.0;0.0;0.0;0.0;0.0;0.0
3.0;1753877893.120402;17.535886;0.7;-1.36;-0.24;-0.049795;0.983343;0.018933;0.0;0.0;0.0;0.0;0.0;0.0
3.0;1753877893.125131;17.554318;0.7;-1.37;-0.14;-0.048374;0.982888;0.020322;0.0;0.0;0.0;0.0;0.0;0.0
3.0;1753877893.12986;17.563139;0.67;-1.42;-0.2;-0.050248;0.983769;0.021382;0.0;0.0;0.0;0.0;0.0;0.0
3.0;1753877893.134589;17.571534;0.7;-1.34;-0.22;-0.049505;0.983235;0.020824;0.0;0.0;0.0;0.0;0.0;0.0
3.0;1753877893.139318;17.564014;0.73;-1.37;-0.2;-0.050001;0.982223;0.020018;0.0;0.0;0.0;0.0;0.0;0.0
3.0;1753877893.144047;17.555057;0.76;-1.41;-0.21;-0.049278;0.983181;0.019302;0.0;0.0;0.0;0.0;0.0;0.0
3.0;1753877893.148776;17.570465;0.74;-1.36;-0.27;-0.049744;0.982711;0.01923;0.0;0.0;0.0;0.0;0.0;0.0
3.0;1753877893.153505;17.552432;0.71;-1.36;-0.14;-0.050245;0.984309;0.019588;0.0;0.0;0.0;0.0;0.0;0.0
3.0;1753877893.158234;17.553306;0.68;-1.28;-0.13;-0.049679;0.982629;0.02097;0.0;0.0;0.0;0.0;0.0;0.0
3.0;1753877893.162963;17.552558;0.72;-1.4;-0.13;-0.04974;0.983239;0.019877;0.0;0.0;0.0;0.0;0.0;0.0
3.0;1753877893.167692;17.546839;0.7;-1.42;-0.19;-0.049766;0.984055;0.019058;0.0;0.0;0.0;0.0;0.0;0.0
3.0;1753877893.172421;17.548957;0.73;-1.3;-0.22;-0.050488;0.983512;0.019894;0.0;0.0;0.0;0.0;0.0;0.0
3.0;1753877893.17715;17.541517;0.63;-1.22;-0.21;-0.048043;0.98184;0.018799;0.0;0.0;0.0;0.0;0.0;0.0
3.0;1753877893.181879;17.546525;0.71;-1.4;-0.19;-0.050588;0.982381;0.018491;0.0;0.0;0.0;0.0;0.0;0.0
3.0;1753877893.186608;17.560566;0.77;-1.31;-0.28;-0.049535;0.983567;0.020542;0.0;0.0;0.0;0.0;0.0;0.0
3.0;1753877893.191337;17.569667;0.69;-1.38;-0.21;-0.048234;0.983431;0.01841;0.0;0.0;0.0;0.0;0.0;0.0
3.0;1753877893.196066;17.552373;0.78;-1.45;-0.19;-0.049178;0.98269;0.019028;0.0;0.0;0.0;0.0;0.0;0.0
3.0;1753877893.200796;17.537912;0.66;-1.35;-0.24;-0.04879;0.982401;0.020768;0.0;0.0;0.0;0.0;0.0;0.0
3.0;1753877893.205524;17.56418;0.67;-1.34;-0.24;-0.049637;0.983854;0.019851;0.0;0.0;0.0;0.0;0.0;0.0
3.0;1753877893.210254;17.529116;0.68;-1.44;-0.19;-0.048172;0.981956;0.019743;0.0;0.0;0.0;0.0;0.0;0.0
3.0;1753877893.214982;17.545028;0.68;-1.27;-0.21;-0.047752;0.98364;0.019154;0.0;0.0;0.0;0.0;0.0;0.0
3.0;1753877893.219712;17.551563;0.67;-1.37;-0.22;-0.050739;0.983216;0.018577;0.0;0.0;0.0;0.0;0.0;0.0
3.0;1753877893.22444;17.564159;0.71;-1.31;-0.18;-0.050491;0.981836;0.02;0.0;0.0;0.0;0.0;0.0;0.0
3.0;1753877893.22917;17.556346;0.65;-1.25;-0.22;-0.049437;0.983262;0.017776;0.0;0.0;0.0;0.0;0.0;0.0
3.0;1753877893.233899;17.562763;0.85;-1.36;-0.18;-0.049262;0.982996;0.020189;0.0;0.0;0.0;0.0;0.0;0.0
3.0;1753877893.238628;17.561296;0.71;-1.4;-0.25;-0.049246;0.982853;0.019222;0.0;0.0;0.0;0.0;0.0;0.0
3.0;1753877893.243357;17.566398;0.69;-1.49;-0.21;-0.051005;0.982265;0.019423;0.0;0.0;0.0;0.0;0.0;0.0
3.0;1753877893.248086;17.559305;0.65;-1.5;-0.18;-0.051579;0.982318;0.017242;0.0;0.0;0.0;0.0;0.0;0.0
3.0;1753877893.252815;17.563233;0.68;-1.47;-0.23;-0.050076;0.982729;0.018744;0.0;0.0;0.0;0.0;0.0;0.0
3.0;1753877893.257544;17.561717;0.69;-1.45;-0.19;-0.04932;0.982967;0.019707;0.0;0.0;0.0;0.0;0.0;0.0
3.0;1753877893.262273;17.554139;0.77;-1.46;-0.24;-0.05055;0.982268;0.019242;0.0;0.0;0.0;0.0;0.0;0.0
3.0;1753877893.267002;17.577651;0.72;-1.34;-0.15;-0.047585;0.981381;0.019706;0.0;0.0;0.0;0.0;0.0;0.0
3.0;1753877893.271731;17.543381;0.74;-1.31;-0.24;-0.050157;0.983955;0.019459;0.0;0.0;0.0;0.0;0.0;0.0
3.0;1753877893.27646;17.532412;0.67;-1.4;-0.21;-0.049408;0.982292;0.018552;0.0;0.0;0.0;0.0;0.0;0.0
3.0;1753877893.281189;17.557591;0.69;-1.39;-0.18;-0.047387;0.982109;0.018291;0.0;0.0;0.0;0.0;0.0;0.0
3.0;1753877893.285918;17.561204;0.72;-1.45;-0.16;-0.049795;0.982429;0.019101;0.0;0.0;0.0;0.0;0.0;0.0
3.0;1753877893.290647;17.553708;0.64;-1.47;-0.23;-0.048701;0.982504;0.018556;0.0;0.0;0.0;0.0;0.0;0.0
3.0;1753877893.295376;17.567109;0.72;-1.41;-0.18;-0.050556;0.982671;0.019454;0.0;0.0;0.0;0.0;0.0;0.0
3.0;1753877893.300105;17.551397;0.68;-1.34;-0.14;-0.048215;0.9821;0.019719;0.0;0.0;0.0;0.0;0.0;0.0
3.0;1753877893.304834;17.543789;0.79;-1.49;-0.19;-0.049202;0.98351;0.021397;0.0;0.0;0.0;0.0;0.0;0.0
3.0;1753877893.309563;17.556171;0.67;-1.43;-0.2;-0.049696;0.982687;0.021183;0.0;0.0;0.0;0.0;0.0;0.0
3.0;1753877893.314292;17.571801;0.73;-1.41;-0.2;-0.047322;0.983001;0.018524;0.0;0.0;0.0;0.0;0.0;0.0
3.0;1753877893.319021;17.543597;0.61;-1.46;-0.23;-0.049071;0.982888;0.020724;0.0;0.0;0.0;0.0;0.0;0.0
3.0;1753877893.32375;17.553275;0.69;-1.52;-0.23;-0.04758;0.982654;0.020268;0.0;0.0;0.0;0.0;0.0;0.0
3.0;1753877893.328479;17.545125;0.71;-1.46;-0.26;-0.048847;0.982484;0.020036;0.0;0.0;0.0;0.0;0.0;0.0
3.0;1753877893.333208;17.573375;0.67;-1.48;-0.18;-0.051209;0.981157;0.019875;0.0;0.0;0.0;0.0;0.0;0.0
3.0;1753877893.337937;17.552532;0.67;-1.58;-0.22;-0.048417;0.983171;0.020422;0.0;0.0;0.0;0.0;0.0;0.0
3.0;1753877893.342666;17.571496;0.75;-1.45;-0.19;-0.049658;0.983561;0.022131;0.0;0.0;0.0;0.0;0.0;0.0
3.0;1753877893.347396;17.547326;0.74;-1.3;-0.24;-0.049581;0.983228;0.019403;0.0;0.0;0.0;0.0;0.0;0.0
3.0;1753877893.352124;17.549071;0.78;-1.29;-0.14;-0.050116;0.983279;0.020075;0.0;0.0;0.0;0.0;0.0;0.0
3.0;1753877893.356854;17.544811;0.77;-1.54;-0.16;-0.050813;0.980824;0.019575;0.0;0.0;0.0;0.0;0.0;0.0
3.0;1753877893.361582;17.551425;0.75;-1.34;-0.22;-0.049517;0.982048;0.019516;0.0;0.0;0.0;0.0;0.0;0.0
3.0;1753877893.366312;17.544922;0.74;-1.44;-0.22;-0.048858;0.98277;0.019238;0.0;0.0;0.0;0.0;0.0;0.0
3.0;1753877893.37104;17.538803;0.71;-1.52;-0.24;-0.048961;0.984004;0.021166;0.0;0.0;0.0;0.0;0.0;0.0
3.0;1753877893.37577;17.551534;0.61;-1.45;-0.17;-0.048314;0.98311;0.018007;0.0;0.0;0.0;0.0;0.0;0.0
3.0;1753877893.380499;17.565095;0.68;-1.41;-0.22;-0.049701;0.981999;0.020162;0.0;0.0;0.0;0.0;0.0;0.0
3.0;1753877893.385228;17.564763;0.72;-1.58;-0.12;-0.051059;0.982624;0.020852;0.0;0.0;0.0;0.0;0.0;0.0
3.0;1753877893.389957;17.567101;0.66;-1.46;-0.17;-0.049097;0.981964;0.019112;0.0;0.0;0.0;0.0;0.0;0.0
3.0;1753877893.396;17.554688;0.7;-1.47;-0.21;-0.049288;0.982588;0.019642;0.0;0.0;0.0;0.0;0.0;0.0
3.0;1753877893.400729;17.538402;0.71;-1.53;-0.22;-0.048022;0.982066;0.021068;0.0;0.0;0.0;0.0;0.0;0.0
3.0;1753877893.405458;17.535287;0.6;-1.49;-0.14;-0.050642;0.983223;0.019771;0.0;0.0;0.0;0.0;0.0;0.0
3.0;1753877893.410187;17.563566;0.67;-1.54;-0.22;-0.049266;0.982152;0.018854;0.0;0.0;0.0;0.0;0.0;0.0
3.0;1753877893.414916;17.561706;0.68;-1.55;-0.28;-0.050983;0.983469;0.019492;0.0;0.0;0.0;0.0;0.0;0.0
3.0;1753877893.419645;17.549529;0.66;-1.41;-0.18;-0.049582;0.983658;0.017605;0.0;0.0;0.0;0.0;0.0;0.0
3.0;1753877893.424374;17.553832;0.73;-1.31;-0.17;-0.050444;0.982877;0.020893;0.0;0.0;0.0;0.0;0.0;0.0
3.0;1753877893.429103;17.549016;0.71;-1.36;-0.19;-0.049542;0.98209;0.018963;0.0;0.0;0.0;0.0;0.0;0.0
3.0;1753877893.433832;17.543819;0.72;-1.55;-0.23;-0.050499;0.982299;0.019605;0.0;0.0;0.0;0.0;0.0;0.0
3.0;1753877893.438561;17.550996;0.66;-1.52;-0.2;-0.048613;0.9831;0.019762;0.0;0.0;0.0;0.0;0.0;0.0
3.0;1753877893.44329;17.564517;0.75;-1.61;-0.26;-0.048939;0.983255;0.018686;0.0;0.0;0.0;0.0;0.0;0.0
3.0;1753877893.448019;17.557509;0.64;-1.48;-0.26;-0.049462;0.983288;0.02137;0.0;0.0;0.0;0.0;0.0;0.0
3.0;1753877893.452748;17.551108;0.61;-1.42;-0.1;-0.0494;0.981787;0.018703;0.0;0.0;0.0;0.0;0.0;0.0
3.0;1753877893.457477;17.536555;0.67;-1.5;-0.24;-0.048142;0.983614;0.020079;0.0;0.0;0.0;0.0;0.0;0.0
3.0;1753877893.462206;17.553496;0.64;-1.55;-0.21;-0.049016;0.983736;0.018972;0.0;0.0;0.0;0.0;0.0;0.0
3.0;1753877893.466936;17.550808;0.75;-1.36;-0.14;-0.049757;0.982968;0.020265;0.0;0.0;0.0;0.0;0.0;0.0
3.0;1753877893.471664;17.533167;0.66;-1.55;-0.12;-0.049356;0.983259;0.019645;0.0;0.0;0.0;0.0;0.0;0.0
3.0;1753877893.476394;17.545664;0.68;-1.53;-0.24;-0.049546;0.984056;0.02031;0.0;0.0;0.0;0.0;0.0;0.0
3.0;1753877893.481122;17.561748;0.7;-1.47;-0.15;-0.048662;0.982853;0.020961;0.0;0.0;0.0;0.0;0.0;0.0
3.0;1753877893.485852;17.553657;0.7;-1.45;-0.19;-0.04969;0.983325;0.021216;0.0;0.0;0.0;0.0;0.0;0.0
3.0;1753877893.49058;17.560426;0.65;-1.49;-0.15;-0.048966;0.981291;0.019048;0.0;0.0;0.0;0.0;0.0;0.0
3.0;1753877893.49531;17.558039;0.6;-1.36;-0.3;-0.049578;0.982691;0.019976;0.0;0.0;0.0;0.0;0.0;0.0
3.0;1753877893.500038;17.541786;0.54;-1.54;-0.19;-0.049384;0.983052;0.018545;0.0;0.0;0.0;0.0;0.0;0.0
3.0;1753877893.504768;17.568287;0.77;-1.48;-0.24;-0.049926;0.982988;0.020156;0.0;0.0;0.0;0.0;0.0;0.0
3.0;1753877893.509497;17.554798;0.66;-1.37;-0.22;-0.049064;0.981885;0.020361;0.0;0.0;0.0;0.0;0.0;0.0
3.0;1753877893.514226;17.544036;0.68;-1.5;-0.2;-0.050742;0.982558;0.020542;0.0;0.0;0.0;0.0;0.0;0.0
3.0;1753877893.518955;17.5544;0.61;-1.47;-0.19;-0.049624;0.983866;0.021442;0.0;0.0;0.0;0.0;0.0;0.0
3.0;1753877893.523684;17.559942;0.82;-1.44;-0.14;-0.048366;0.982451;0.01834;0.0;0.0;0.0;0.0;0.0;0.0
3.0;1753877893.528413;17.552682;0.74;-1.35;-0.21;-0.049312;0.983827;0.020241;0.0;0.0;0.0;0.0;0.0;0.0
3.0;1753877893.533142;17.545301;0.63;-1.32;-0.31;-0.05022;0.983515;0.019959;0.0;0.0;0.0;0.0;0.0;0.0
3.0;1753877893.537871;17.563485;0.65;-1.48;-0.26;-0.049704;0.983798;0.0206;0.0;0.0;0.0;0.0;0.0;0.0
3.0;1753877893.5426;17.52872;0.69;-1.5;-0.23;-0.049542;0.983971;0.020228;0.0;0.0;0.0;0.0;0.0;0.0
3.0;1753877893.547329;17.540525;0.66;-1.41;-0.22;-0.050027;0.982585;0.02016;0.0;0.0;0.0;0.0;0.0;0.0
3.0;1753877893.552058;17.548954;0.71;-1.41;-0.23;-0.05011;0.983154;0.019243;0.0;0.0;0.0;0.0;0.0;0.0
3.0;1753877893.556787;17.540121;0.66;-1.38;-0.22;-0.05064;0.983865;0.019161;0.0;0.0;0.0;0.0;0.0;0.0
3.0;1753877893.561516;17.552853;0.57;-1.35;-0.17;-0.051267;0.984226;0.020598;0.0;0.0;0.0;0.0;0.0;0.0
3.0;1753877893.566245;17.562768;0.64;-1.49;-0.25;-0.048792;0.983646;0.01981;0.0;0.0;0.0;0.0;0.0;0.0
3.0;1753877893.570974;17.540513;0.62;-1.4;-0.24;-0.04944;0.984444;0.0206;0.0;0.0;0.0;0.0;0.0;0.0
3.0;1753877893.575703;17.530214;0.65;-1.49;-0.22;-0.050301;0.983017;0.022036;0.0;0.0;0.0;0.0;0.0;0.0
3.0;1753877893.580432;17.535653;0.6;-1.49;-0.18;-0.04819;0.982961;0.020232;0.0;0.0;0.0;0.0;0.0;0.0
3.0;1753877893.585161;17.523445;0.62;-1.4;-0.26;-0.051354;0.982884;0.019716;0.0;0.0;0.0;0.0;0.0;0.0
3.0;1753877893.58989;17.546387;0.62;-1.4;-0.22;-0.052179;0.983535;0.020734;0.0;0.0;0.0;0.0;0.0;0.0
3.0;1753877893.594619;17.528337;0.74;-1.38;-0.22;-0.049267;0.98261;0.020225;0.0;0.0;0.0;0.0;0.0;0.0
3.0;1753877893.599348;17.519181;0.55;-1.36;-0.22;-0.051148;0.983837;0.021277;0.0;0.0;0.0;0.0;0.0;0.0
3.0;1753877893.604077;17.532815;0.63;-1.3;-0.23;-0.049917;0.982966;0.021826;0.0;0.0;0.0;0.0;0.0;0.0
3.0;1753877893.608806;17.522443;0.75;-1.42;-0.28;-0.049827;0.983296;0.019676;0.0;0.0;0.0;0.0;0.0;0.0
3.0;1753877893.613536;17.554776;0.58;-1.51;-0.18;-0.050456;0.983903;0.018442;0.0;0.0;0.0;0.0;0.0;0.0
3.0;1753877893.618264;17.521387;0.68;-1.45;-0.29;-0.051673;0.983834;0.021951;0.0;0.0;0.0;0.0;0.0;0.0
3.0;1753877893.622994;17.539358;0.63;-1.38;-0.3;-0.049679;0.983445;0.020243;0.0;0.0;0.0;0.0;0.0;0.0
3.0;1753877893.627722;17.537691;0.7;-1.49;-0.25;-0.049921;0.983375;0.020618;0.0;0.0;0.0;0.0;0.0;0.0
3.0;1753877893.632452;17.542052;0.62;-1.41;-0.2;-0.049141;0.982788;0.021078;0.0;0.0;0.0;0.0;0.0;0.0
3.0;1753877893.63718;17.556602;0.72;-1.39;-0.29;-0.04972;0.982446;0.02044;0.0;0.0;0.0;0.0;0.0;0.0
3.0;1753877893.64191;17.542734;0.63;-1.33;-0.21;-0.049606;0.983254;0.019833;0.0;0.0;0.0;0.0;0.0;0.0
3.0;1753877893.646639;17.540768;0.65;-1.43;-0.24;-0.050514;0.983112;0.019986;0.0;0.0;0.0;0.0;0.0;0.0
3.0;1753877893.651368;17.535715;0.63;-1.46;-0.16;-0.050279;0.982806;0.019975;0.0;0.0;0.0;0.0;0.0;0.0
3.0;1753877893.656097;17.53974;0.66;-1.46;-0.28;-0.050815;0.984098;0.022149;0.0;0.0;0.0;0.0;0.0;0.0
3.0;1753877893.660826;17.539735;0.64;-1.55;-0.19;-0.050316;0.983846;0.021016;0.0;0.0;0.0;0.0;0.0;0.0
3.0;1753877893.665555;17.558644;0.58;-1.51;-0.19;-0.05101;0.982297;0.020804;0.0;0.0;0.0;0.0;0.0;0.0
3.0;1753877893.670284;17.529552;0.59;-1.48;-0.15;-0.049131;0.983453;0.021546;0.0;0.0;0.0;0.0;0.0;0.0
3.0;1753877893.675013;17.554405;0.65;-1.51;-0.25;-0.050094;0.98401;0.022007;0.0;0.0;0.0;0.0;0.0;0.0
3.0;1753877893.679742;17.500676;0.58;-1.35;-0.14;-0.049792;0.983354;0.020736;0.0;0.0;0.0;0.0;0.0;0.0
3.0;1753877893.684471;17.530771;0.58;-1.53;-0.27;-0.050219;0.983898;0.018796;0.0;0.0;0.0;0.0;0.0;0.0
3.0;1753877893.6892;17.570201;0.69;-1.35;-0.22;-0.050564;0.984246;0.020311;0.0;0.0;0.0;0.0;0.0;0.0
3.0;1753877893.693929;17.51601;0.6;-1.49;-0.23;-0.050796;0.984197;0.020421;0.0;0.0;0.0;0.0;0.0;0.0
3.0;1753877893.698658;17.544021;0.64;-1.42;-0.22;-0.050738;0.983811;0.0198;0.0;0.0;0.0;0.0;0.0;0.0
3.0;1753877893.703387;17.529493;0.62;-1.42;-0.16;-0.049219;0.98457;0.022617;0.0;0.0;0.0;0.0;0.0;0.0
3.0;1753877893.708116;17.566178;0.61;-1.38;-0.22;-0.050538;0.984016;0.020554;0.0;0.0;0.0;0.0;0.0;0.0
3.0;1753877893.712845;17.540527;0.66;-1.46;-0.19;-0.050893;0.98403;0.020558;0.0;0.0;0.0;0.0;0.0;0.0
3.0;1753877893.717574;17.530898;0.63;-1.43;-0.28;-0.050907;0.98441;0.021298;0.0;0.0;0.0;0.0;0.0;0.0
3.0;1753877893.722303;17.541173;0.69;-1.53;-0.16;-0.050487;0.983672;0.01929;0.0;0.0;0.0;0.0;0.0;0.0
3.0;1753877893.727032;17.533377;0.61;-1.31;-0.2;-0.05119;0.983373;0.018138;0.0;0.0;0.0;0.0;0.0;0.0
3.0;1753877893.731761;17.546587;0.68;-1.3;-0.18;-0.051644;0.984901;0.021692;0.0;0.0;0.0;0.0;0.0;0.0
3.0;1753877893.73649;17.542331;0.61;-1.35;-0.18;-0.051138;0.984129;0.018227;0.0;0.0;0.0;0.0;0.0;0.0
3.0;1753877893.741219;17.529651;0.66;-1.44;-0.25;-0.049794;0.982624;0.020333;0.0;0.0;0.0;0.0;0.0;0.0
3.0;1753877893.745948;17.518337;0.56;-1.39;-0.17;-0.052026;0.984327;0.022095;0.0;0.0;0.0;0.0;0.0;0.0
3.0;1753877893.750677;17.517736;0.66;-1.4;-0.23;-0.050086;0.983989;0.02215;0.0;0.0;0.0;0.0;0.0;0.0
3.0;1753877893.755406;17.524497;0.6;-1.34;-0.13;-0.049675;0.98354;0.021262;0.0;0.0;0.0;0.0;0.0;0.0
3.0;1753877893.760136;17.515557;0.62;-1.51;-0.2;-0.050358;0.985211;0.020546;0.0;0.0;0.0;0.0;0.0;0.0
3.0;1753877893.764864;17.529531;0.63;-1.38;-0.19;-0.051289;0.984412;0.020432;0.0;0.0;0.0;0.0;0.0;0.0
3.0;1753877893.769594;17.530242;0.69;-1.34;-0.24;-0.050599;0.9837;0.021052;0.0;0.0;0.0;0.0;0.0;0.0
3.0;1753877893.7762;17.53125;0.63;-1.4;-0.21;-0.050508;0.984174;0.02074;0.0;0.0;0.0;0.0;0.0;0.0
3.0;1753877893.78466;17.53125;0.7;-1.26;-0.21;-0.049776;0.982466;0.018788;0.0;0.0;0.0;0.0;0.0;0.0
3.0;1753877893.789389;17.545036;0.65;-1.27;-0.21;-0.050184;0.982362;0.018881;0.0;0.0;0.0;0.0;0.0;0.0
3.0;1753877893.794118;17.545555;0.74;-1.27;-0.21;-0.048567;0.982294;0.017152;0.0;0.0;0.0;0.0;0.0;0.0
3.0;1753877893.798847;17.534996;0.67;-1.45;-0.28;-0.049334;0.983626;0.020762;0.0;0.0;0.0;0.0;0.0;0.0
3.0;1753877893.803576;17.522423;0.7;-1.39;-0.21;-0.050481;0.981814;0.019557;0.0;0.0;0.0;0.0;0.0;0.0
3.0;1753877893.808305;17.56031;0.72;-1.37;-0.23;-0.049899;0.982719;0.018763;0.0;0.0;0.0;0.0;0.0;0.0
3.0;1753877893.81391;17.546875;0.7;-1.4;-0.21;-0.049776;0.982466;0.018788;0.0;0.0;0.0;0.0;0.0;0.0
3.0;1753877893.818639;17.554137;0.69;-1.34;-0.21;-0.049812;0.983107;0.019486;0.0;0.0;0.0;0.0;0.0;0.0
3.0;1753877893.823368;17.549865;0.67;-1.33;-0.19;-0.050369;0.982977;0.019837;0.0;0.0;0.0;0.0;0.0;0.0
3.0;1753877893.828097;17.556997;0.72;-1.44;-0.2;-0.049708;0.980994;0.017628;0.0;0.0;0.0;0.0;0.0;0.0
3.0;1753877893.832826;17.547153;0.73;-1.43;-0.19;-0.048816;0.980959;0.019594;0.0;0.0;0.0;0.0;0.0;0.0
3.0;1753877893.837555;17.556686;0.82;-1.47;-0.15;-0.050497;0.9821;0.019945;0.0;0.0;0.0;0.0;0.0;0.0
3.0;1753877893.842284;17.541829;0.69;-1.32;-0.18;-0.050992;0.981577;0.018651;0.0;0.0;0.0;0.0;0.0;0.0
3.0;1753877893.847013;17.559332;0.66;-1.37;-0.18;-0.051648;0.981904;0.01926;0.0;0.0;0.0;0.0;0.0;0.0
3.0;1753877893.851742;17.556298;0.66;-1.3;-0.12;-0.052513;0.983107;0.021038;0.0;0.0;0.0;0.0;0.0;0.0
3.0;1753877893.856471;17.557609;0.84;-1.41;-0.15;-0.052052;0.983713;0.020562;0.0;0.0;0.0;0.0;0.0;0.0
3.0;1753877893.8618;17.546875;0.77;-1.33;-0.14;-0.051728;0.983686;0.02074;0.0;0.0;0.0;0.0;0.0;0.0
3.0;1753877893.866529;17.557314;0.65;-1.25;-0.16;-0.053231;0.984108;0.020438;0.0;0.0;0.0;0.0;0.0;0.0
3.0;1753877893.871258;17.539684;0.88;-1.19;-0.09;-0.051965;0.982473;0.020167;0.0;0.0;0.0;0.0;0.0;0.0
3.0;1753877893.875987;17.553364;0.7;-1.38;-0.16;-0.052513;0.983682;0.019807;0.0;0.0;0.0;0.0;0.0;0.0
3.0;1753877893.880716;17.55352;0.75;-1.34;-0.16;-0.050103;0.985669;0.021786;0.0;0.0;0.0;0.0;0.0;0.0
3.0;1753877893.885445;17.545976;0.66;-1.29;-0.15;-0.051908;0.983288;0.020217;0.0;0.0;0.0;0.0;0.0;0.0
3.0;1753877893.890174;17.539462;0.72;-1.32;-0.17;-0.04937;0.98269;0.019856;0.0;0.0;0.0;0.0;0.0;0.0
3.0;1753877893.894903;17.527816;0.72;-1.19;-0.13;-0.047996;0.983767;0.01868;0.0;0.0;0.0;0.0;0.0;0.0
3.0;1753877893.899632;17.533057;0.56;-1.36;-0.12;-0.050249;0.984416;0.01946;0.0;0.0;0.0;0.0;0.0;0.0
3.0;1753877893.90807;17.546875;0.63;-1.33;-0.14;-0.047824;0.98332;0.019032;0.0;0.0;0.0;0.0;0.0;0.0
3.0;1753877893.912799;17.539692;0.6;-1.37;-0.14;-0.04914;0.983448;0.01865;0.0;0.0;0.0;0.0;0.0;0.0
3.0;1753877893.917528;17.545488;0.7;-1.36;-0.19;-0.045658;0.981988;0.020407;0.0;0.0;0.0;0.0;0.0;0.0
3.0;1753877893.922257;17.554957;0.69;-1.35;-0.16;-0.048626;0.984026;0.020281;0.0;0.0;0.0;0.0;0.0;0.0
3.0;1753877893.926986;17.543577;0.69;-1.31;-0.16;-0.04872;0.981806;0.020561;0.0;0.0;0.0;0.0;0.0;0.0
3.0;1753877893.931715;17.538049;0.67;-1.25;-0.15;-0.049679;0.984154;0.019301;0.0;0.0;0.0;0.0;0.0;0.0
3.0;1753877893.936444;17.554704;0.65;-1.26;-0.14;-0.05083;0.984677;0.020689;0.0;0.0;0.0;0.0;0.0;0.0
3.0;1753877893.941173;17.548159;0.55;-1.27;-0.05;-0.050235;0.984018;0.01998;0.0;0.0;0.0;0.0;0.0;0.0
3.0;1753877893.945902;17.540746;0.59;-1.4;-0.15;-0.05027;0.9836;0.020477;0.0;0.0;0.0;0.0;0.0;0.0
3.0;1753877893.950632;17.54871;0.62;-1.3;-0.16;-0.049073;0.983066;0.019633;0.0;0.0;0.0;0.0;0.0;0.0
3.0;1753877893.95536;17.542778;0.7;-1.34;-0.08;-0.050504;0.98334;0.021214;0.0;0.0;0.0;0.0;0.0;0.0
3.0;1753877893.96363;17.546875;0.7;-1.26;-0.14;-0.051972;0.983808;0.020496;0.0;0.0;0.0;0.0;0.0;0.0
3.0;1753877893.965913;17.554688;0.7;-1.33;-0.21;-0.051118;0.982954;0.02074;0.0;0.0;0.0;0.0;0.0;0.0
3.0;1753877893.970594;17.554688;0.7;-1.4;-0.07;-0.050874;0.981856;0.018666;0.0;0.0;0.0;0.0;0.0;0.0
3.0;1753877893.975252;17.554688;0.77;-1.33;-0.21;-0.050142;0.98271;0.021106;0.0;0.0;0.0;0.0;0.0;0.0
3.0;1753877893.983672;17.53125;0.7;-1.33;-0.21;-0.050996;0.983198;0.019764;0.0;0.0;0.0;0.0;0.0;0.0
3.0;1753877893.984587;17.53125;0.77;-1.4;-0.21;-0.05002;0.983442;0.01952;0.0;0.0;0.0;0.0;0.0;0.0
3.0;1753877893.989329;17.53125;0.77;-1.33;-0.14;-0.050752;0.982954;0.02013;0.0;0.0;0.0;0.0;0.0;0.0
3.0;1753877893.994154;17.53125;0.7;-1.33;-0.21;-0.051118;0.983198;0.019642;0.0;0.0;0.0;0.0;0.0;0.0
3.0;1753877893.998883;17.540706;0.72;-1.3;-0.24;-0.051195;0.983502;0.020063;0.0;0.0;0.0;0.0;0.0;0.0
3.0;1753877894.003612;17.515286;0.64;-1.36;-0.22;-0.050957;0.983437;0.020604;0.0;0.0;0.0;0.0;0.0;0.0
3.0;1753877894.008341;17.545615;0.79;-1.33;-0.12;-0.052131;0.983483;0.019608;0.0;0.0;0.0;0.0;0.0;0.0
3.0;1753877894.01307;17.525009;0.67;-1.29;-0.15;-0.050548;0.983199;0.019897;0.0;0.0;0.0;0.0;0.0;0.0
3.0;1753877894.017799;17.540215;0.7;-1.33;-0.21;-0.050514;0.983785;0.020855;0.0;0.0;0.0;0.0;0.0;0.0
3.0;1753877894.022528;17.555849;0.66;-1.36;-0.13;-0.05058;0.98295;0.018802;0.0;0.0;0.0;0.0;0.0;0.0
3.0;1753877894.027257;17.525061;0.68;-1.21;-0.23;-0.050674;0.983526;0.01859;0.0;0.0;0.0;0.0;0.0;0.0
3.0;1753877894.031986;17.528392;0.69;-1.24;-0.19;-0.050415;0.982894;0.019939;0.0;0.0;0.0;0.0;0.0;0.0
3.0;1753877894.036715;17.514317;0.7;-1.38;-0.25;-0.050841;0.983854;0.021105;0.0;0.0;0.0;0.0;0.0;0.0
3.0;1753877894.041444;17.529124;0.78;-1.27;-0.22;-0.050346;0.983151;0.019697;0.0;0.0;0.0;0.0;0.0;0.0
3.0;1753877894.046173;17.550457;0.76;-1.28;-0.19;-0.050199;0.983239;0.018657;0.0;0.0;0.0;0.0;0.0;0.0
3.0;1753877894.050902;17.504753;0.74;-1.26;-0.13;-0.050047;0.983353;0.020555;0.0;0.0;0.0;0.0;0.0;0.0
3.0;1753877894.055632;17.549396;0.75;-1.35;-0.2;-0.049836;0.984237;0.019501;0.0;0.0;0.0;0.0;0.0;0.0
3.0;1753877894.06036;17.53207;0.71;-1.32;-0.29;-0.049493;0.9841;0.020233;0.0;0.0;0.0;0.0;0.0;0.0
3.0;1753877894.06509;17.553963;0.67;-1.27;-0.23;-0.047963;0.983318;0.019449;0.0;0.0;0.0;0.0;0.0;0.0
3.0;1753877894.069818;17.49427;0.76;-1.28;-0.21;-0.050086;0.983027;0.018839;0.0;0.0;0.0;0.0;0.0;0.0
3.0;1753877894.074548;17.519269;0.83;-1.23;-0.29;-0.050526;0.982282;0.021625;0.0;0.0;0.0;0.0;0.0;0.0
3.0;1753877894.079276;17.517521;0.73;-1.3;-0.2;-0.05003;0.984131;0.02012;0.0;0.0;0.0;0.0;0.0;0.0
3.0;1753877894.084006;17.514911;0.74;-1.12;-0.18;-0.050742;0.984373;0.019508;0.0;0.0;0.0;0.0;0.0;0.0
3.0;1753877894.088735;17.521636;0.75;-1.22;-0.2;-0.049799;0.983772;0.020643;0.0;0.0;0.0;0.0;0.0;0.0
3.0;1753877894.093464;17.509022;0.8;-1.22;-0.3;-0.051535;0.982912;0.021067;0.0;0.0;0.0;0.0;0.0;0.0
3.0;1753877894.098193;17.536899;0.74;-1.26;-0.19;-0.048604;0.983571;0.020753;0.0;0.0;0.0;0.0;0.0;0.0
3.0;1753877894.102922;17.505359;0.73;-1.22;-0.2;-0.049383;0.982908;0.020091;0.0;0.0;0.0;0.0;0.0;0.0
3.0;1753877894.107651;17.52452;0.72;-1.26;-0.31;-0.050085;0.983542;0.019467;0.0;0.0;0.0;0.0;0.0;0.0
3.0;1753877894.11238;17.539249;0.75;-1.25;-0.3;-0.050353;0.983421;0.020868;0.0;0.0;0.0;0.0;0.0;0.0
3.0;1753877894.117109;17.549995;0.76;-1.23;-0.25;-0.051761;0.981239;0.020604;0.0;0.0;0.0;0.0;0.0;0.0
3.0;1753877894.121838;17.528988;0.72;-1.22;-0.21;-0.050966;0.982564;0.019892;0.0;0.0;0.0;0.0;0.0;0.0
3.0;1753877894.126567;17.5127;0.76;-1.21;-0.22;-0.050247;0.982213;0.020269;0.0;0.0;0.0;0.0;0.0;0.0
3.0;1753877894.131296;17.531045;0.66;-1.33;-0.28;-0.050747;0.983727;0.020429;0.0;0.0;0.0;0.0;0.0;0.0
3.0;1753877894.136025;17.513806;0.77;-1.13;-0.19;-0.049682;0.982951;0.02033;0.0;0.0;0.0;0.0;0.0;0.0
3.0;1753877894.140754;17.547001;0.71;-1.31;-0.2;-0.050243;0.983128;0.020638;0.0;0.0;0.0;0.0;0.0;0.0
3.0;1753877894.145483;17.507423;0.67;-1.23;-0.15;-0.048581;0.982652;0.020625;0.0;0.0;0.0;0.0;0.0;0.0
3.0;1753877894.150212;17.513599;0.66;-1.19;-0.2;-0.050529;0.982686;0.02102;0.0;0.0;0.0;0.0;0.0;0.0
3.0;1753877894.154941;17.533718;0.73;-1.25;-0.19;-0.04918;0.983383;0.021703;0.0;0.0;0.0;0.0;0.0;0.0
3.0;1753877894.15967;17.512244;0.81;-1.16;-0.21;-0.049698;0.983151;0.020254;0.0;0.0;0.0;0.0;0.0;0.0
3.0;1753877894.164399;17.532644;0.81;-1.25;-0.25;-0.048169;0.98287;0.02104;0.0;0.0;0.0;0.0;0.0;0.0
3.0;1753877894.169128;17.512481;0.83;-1.18;-0.26;-0.049601;0.983411;0.021287;0.0;0.0;0.0;0.0;0.0;0.0
3.0;1753877894.1746;17.523438;0.77;-1.19;-0.21;-0.0488;0.983198;0.020862;0.0;0.0;0.0;0.0;0.0;0.0
3.0;1753877894.179329;17.529288;0.76;-1.21;-0.4;-0.048661;0.982776;0.022073;0.0;0.0;0.0;0.0;0.0;0.0
3.0;1753877894.184058;17.516721;0.7;-1.2;-0.21;-0.047605;0.983324;0.021315;0.0;0.0;0.0;0.0;0.0;0.0
3.0;1753877894.188787;17.501421;0.81;-1.13;-0.27;-0.049188;0.982266;0.021215;0.0;0.0;0.0;0.0;0.0;0.0
3.0;1753877894.193516;17.536201;0.73;-1.19;-0.24;-0.047942;0.982044;0.020289;0.0;0.0;0.0;0.0;0.0;0.0
3.0;1753877894.198245;17.513389;0.78;-1.11;-0.2;-0.050149;0.982372;0.021696;0.0;0.0;0.0;0.0;0.0;0.0
3.0;1753877894.202974;17.521173;0.78;-1.15;-0.13;-0.048011;0.982784;0.020079;0.0;0.0;0.0;0.0;0.0;0.0
3.0;1753877894.207703;17.514152;0.75;-1.21;-0.17;-0.049723;0.983601;0.020613;0.0;0.0;0.0;0.0;0.0;0.0
3.0;1753877894.212432;17.498581;0.74;-1.23;-0.22;-0.048748;0.98324;0.022118;0.0;0.0;0.0;0.0;0.0;0.0
3.0;1753877894.217161;17.547494;0.67;-1.05;-0.28;-0.04886;0.982765;0.020815;0.0;0.0;0.0;0.0;0.0;0.0
3.0;1753877894.22189;17.499649;0.84;-1.16;-0.17;-0.048989;0.983033;0.021213;0.0;0.0;0.0;0.0;0.0;0.0
3.0;1753877894.226619;17.521672;0.79;-1.28;-0.23;-0.04899;0.984513;0.020409;0.0;0.0;0.0;0.0;0.0;0.0
3.0;1753877894.231348;17.510039;0.77;-1.23;-0.21;-0.049121;0.983382;0.020944;0.0;0.0;0.0;0.0;0.0;0.0
3.0;1753877894.236077;17.531876;0.67;-1.28;-0.3;-0.048563;0.984118;0.021516;0.0;0.0;0.0;0.0;0.0;0.0
3.0;1753877894.240806;17.533728;0.79;-1.2;-0.2;-0.049052;0.983605;0.021171;0.0;0.0;0.0;0.0;0.0;0.0
3.0;1753877894.245535;17.526223;0.74;-1.18;-0.21;-0.048116;0.984132;0.020879;0.0;0.0;0.0;0.0;0.0;0.0
3.0;1753877894.250264;17.552557;0.7;-1.23;-0.16;-0.048563;0.982712;0.021735;0.0;0.0;0.0;0.0;0.0;0.0
3.0;1753877894.254994;17.49809;0.75;-1.19;-0.23;-0.047823;0.984087;0.020325;0.0;0.0;0.0;0.0;0.0;0.0
3.0;1753877894.259722;17.552204;0.82;-1.25;-0.21;-0.050266;0.983636;0.021805;0.0;0.0;0.0;0.0;0.0;0.0
3.0;1753877894.264452;17.496299;0.67;-1.11;-0.13;-0.050478;0.983339;0.021375;0.0;0.0;0.0;0.0;0.0;0.0
3.0;1753877894.26918;17.515811;0.73;-1.22;-0.2;-0.04778;0.982686;0.021791;0.0;0.0;0.0;0.0;0.0;0.0
3.0;1753877894.27391;17.502857;0.75;-1.28;-0.29;-0.048626;0.982615;0.019985;0.0;0.0;0.0;0.0;0.0;0.0
3.0;1753877894.278638;17.501428;0.79;-1.18;-0.28;-0.048705;0.982571;0.01941;0.0;0.0;0.0;0.0;0.0;0.0
3.0;1753877894.283368;17.518578;0.76;-1.22;-0.09;-0.050134;0.982513;0.021035;0.0;0.0;0.0;0.0;0.0;0.0
3.0;1753877894.288097;17.519906;0.72;-1.25;-0.15;-0.049365;0.983006;0.020438;0.0;0.0;0.0;0.0;0.0;0.0
3.0;1753877894.292826;17.535102;0.72;-1.25;-0.12;-0.049402;0.982527;0.021527;0.0;0.0;0.0;0.0;0.0;0.0
3.0;1753877894.297555;17.484418;0.77;-1.24;-0.21;-0.049029;0.98265;0.020297;0.0;0.0;0.0;0.0;0.0;0.0
3.0;1753877894.302284;17.519943;0.65;-1.19;-0.26;-0.050026;0.983873;0.020674;0.0;0.0;0.0;0.0;0.0;0.0
3.0;1753877894.307013;17.516942;0.75;-1.34;-0.27;-0.048242;0.982501;0.022432;0.0;0.0;0.0;0.0;0.0;0.0
3.0;1753877894.311742;17.539845;0.71;-1.29;-0.18;-0.049122;0.982472;0.020527;0.0;0.0;0.0;0.0;0.0;0.0
3.0;1753877894.316471;17.561602;0.79;-1.23;-0.1;-0.04962;0.983405;0.019161;0.0;0.0;0.0;0.0;0.0;0.0
3.0;1753877894.3212;17.540093;0.72;-1.27;-0.33;-0.050899;0.98353;0.021383;0.0;0.0;0.0;0.0;0.0;0.0
3.0;1753877894.325929;17.541135;0.8;-1.14;-0.14;-0.049308;0.983025;0.021125;0.0;0.0;0.0;0.0;0.0;0.0
3.0;1753877894.330658;17.542126;0.72;-1.18;-0.13;-0.047884;0.982449;0.020729;0.0;0.0;0.0;0.0;0.0;0.0
3.0;1753877894.335387;17.53562;0.74;-1.14;-0.15;-0.048541;0.982665;0.020719;0.0;0.0;0.0;0.0;0.0;0.0
3.0;1753877894.340116;17.529329;0.78;-1.25;-0.25;-0.04943;0.983866;0.022401;0.0;0.0;0.0;0.0;0.0;0.0
3.0;1753877894.344845;17.534539;0.75;-1.22;-0.24;-0.049124;0.982344;0.021103;0.0;0.0;0.0;0.0;0.0;0.0
3.0;1753877894.349574;17.498865;0.77;-1.3;-0.18;-0.049718;0.983815;0.019418;0.0;0.0;0.0;0.0;0.0;0.0
3.0;1753877894.354303;17.514482;0.74;-1.19;-0.17;-0.049453;0.982019;0.021632;0.0;0.0;0.0;0.0;0.0;0.0
3.0;1753877894.359032;17.505215;0.81;-1.2;-0.18;-0.046997;0.983216;0.021473;0.0;0.0;0.0;0.0;0.0;0.0
3.0;1753877894.363761;17.537063;0.82;-1.25;-0.15;-0.049493;0.982894;0.020658;0.0;0.0;0.0;0.0;0.0;0.0
3.0;1753877894.36849;17.546839;0.72;-1.3;-0.26;-0.048976;0.98237;0.020242;0.0;0.0;0.0;0.0;0.0;0.0
3.0;1753877894.373219;17.509405;0.78;-1.31;-0.25;-0.050177;0.98257;0.019597;0.0;0.0;0.0;0.0;0.0;0.0
3.0;1753877894.377948;17.52725;0.8;-1.15;-0.18;-0.049656;0.983163;0.020567;0.0;0.0;0.0;0.0;0.0;0.0
3.0;1753877894.382677;17.483729;0.8;-1.25;-0.25;-0.049701;0.983115;0.02013;0.0;0.0;0.0;0.0;0.0;0.0
3.0;1753877894.387406;17.553013;0.65;-1.28;-0.27;-0.04972;0.983537;0.022042;0.0;0.0;0.0;0.0;0.0;0.0
3.0;1753877894.392136;17.515782;0.8;-1.24;-0.18;-0.049727;0.982676;0.021279;0.0;0.0;0.0;0.0;0.0;0.0
3.0;1753877894.396864;17.506954;0.81;-1.31;-0.12;-0.050212;0.98305;0.021581;0.0;0.0;0.0;0.0;0.0;0.0
3.0;1753877894.401594;17.546176;0.8;-1.17;-0.27;-0.049481;0.982524;0.020669;0.0;0.0;0.0;0.0;0.0;0.0
3.0;1753877894.406322;17.52618;0.75;-1.25;-0.22;-0.048728;0.983878;0.020013;0.0;0.0;0.0;0.0;0.0;0.0
3.0;1753877894.411052;17.544052;0.75;-1.24;-0.22;-0.049488;0.981774;0.019685;0.0;0.0;0.0;0.0;0.0;0.0
3.0;1753877894.41578;17.539;0.76;-1.17;-0.15;-0.048541;0.983579;0.021511;0.0;0.0;0.0;0.0;0.0;0.0
3.0;1753877894.42051;17.52779;0.77;-1.23;-0.24;-0.049371;0.982334;0.020462;0.0;0.0;0.0;0.0;0.0;0.0
3.0;1753877894.425238;17.562968;0.73;-1.24;-0.15;-0.05049;0.982377;0.019075;0.0;0.0;0.0;0.0;0.0;0.0
3.0;1753877894.429968;17.524945;0.73;-1.21;-0.2;-0.050131;0.984205;0.02125;0.0;0.0;0.0;0.0;0.0;0.0
3.0;1753877894.434697;17.52725;0.69;-1.29;-0.27;-0.048771;0.981843;0.020736;0.0;0.0;0.0;0.0;0.0;0.0
3.0;1753877894.439426;17.513044;0.7;-1.22;-0.19;-0.049938;0.983197;0.021065;0.0;0.0;0.0;0.0;0.0;0.0
3.0;1753877894.444155;17.47518;0.76;-1.31;-0.19;-0.050276;0.982708;0.020487;0.0;0.0;0.0;0.0;0.0;0.0
3.0;1753877894.448884;17.532345;0.74;-1.2;-0.26;-0.049057;0.983874;0.020565;0.0;0.0;0.0;0.0;0.0;0.0
3.0;1753877894.453613;17.529349;0.67;-1.22;-0.29;-0.049578;0.983412;0.021096;0.0;0.0;0.0;0.0;0.0;0.0
3.0;1753877894.458342;17.507422;0.64;-1.22;-0.23;-0.048646;0.982195;0.020947;0.0;0.0;0.0;0.0;0.0;0.0
3.0;1753877894.463071;17.533163;0.79;-1.3;-0.23;-0.049203;0.98242;0.020482;0.0;0.0;0.0;0.0;0.0;0.0
3.0;1753877894.4678;17.55039;0.71;-1.24;-0.26;-0.048695;0.982873;0.019656;0.0;0.0;0.0;0.0;0.0;0.0
3.0;1753877894.472529;17.523287;0.64;-1.17;-0.19;-0.050088;0.982524;0.019579;0.0;0.0;0.0;0.0;0.0;0.0
3.0;1753877894.477258;17.581685;0.79;-1.22;-0.29;-0.049442;0.983477;0.020891;0.0;0.0;0.0;0.0;0.0;0.0
3.0;1753877894.481987;17.527355;0.7;-1.3;-0.25;-0.049792;0.982216;0.020355;0.0;0.0;0.0;0.0;0.0;0.0
3.0;1753877894.486716;17.536253;0.75;-1.26;-0.2;-0.051059;0.981883;0.019429;0.0;0.0;0.0;0.0;0.0;0.0
3.0;1753877894.491445;17.48984;0.7;-1.3;-0.3;-0.049555;0.982725;0.02025;0.0;0.0;0.0;0.0;0.0;0.0
3.0;1753877894.496174;17.542791;0.82;-1.23;-0.22;-0.050051;0.982276;0.020629;0.0;0.0;0.0;0.0;0.0;0.0
3.0;1753877894.500903;17.509777;0.73;-1.26;-0.25;-0.049887;0.983042;0.021252;0.0;0.0;0.0;0.0;0.0;0.0
3.0;1753877894.505632;17.492072;0.69;-1.2;-0.26;-0.05049;0.982869;0.019986;0.0;0.0;0.0;0.0;0.0;0.0
3.0;1753877894.510361;17.520919;0.78;-1.25;-0.23;-0.050876;0.983319;0.02114;0.0;0.0;0.0;0.0;0.0;0.0
3.0;1753877894.51509;17.525962;0.69;-1.31;-0.22;-0.050158;0.983592;0.021083;0.0;0.0;0.0;0.0;0.0;0.0
3.0;1753877894.519819;17.533467;0.75;-1.23;-0.22;-0.050884;0.982653;0.02073;0.0;0.0;0.0;0.0;0.0;0.0
3.0;1753877894.524548;17.517625;0.66;-1.19;-0.28;-0.049693;0.982517;0.019553;0.0;0.0;0.0;0.0;0.0;0.0
3.0;1753877894.529277;17.530828;0.71;-1.37;-0.23;-0.049279;0.982945;0.020088;0.0;0.0;0.0;0.0;0.0;0.0
3.0;1753877894.534006;17.500744;0.71;-1.3;-0.26;-0.050909;0.982977;0.02103;0.0;0.0;0.0;0.0;0.0;0.0
3.0;1753877894.538736;17.520775;0.68;-1.26;-0.33;-0.049327;0.981759;0.020905;0.0;0.0;0.0;0.0;0.0;0.0
3.0;1753877894.543464;17.532367;0.74;-1.34;-0.25;-0.049519;0.982397;0.018905;0.0;0.0;0.0;0.0;0.0;0.0
3.0;1753877894.548194;17.551365;0.8;-1.35;-0.3;-0.048867;0.98253;0.020127;0.0;0.0;0.0;0.0;0.0;0.0
3.0;1753877894.552922;17.517341;0.77;-1.28;-0.18;-0.050777;0.981872;0.020059;0.0;0.0;0.0;0.0;0.0;0.0
3.0;1753877894.557652;17.543766;0.76;-1.37;-0.2;-0.04789;0.982993;0.021238;0.0;0.0;0.0;0.0;0.0;0.0
3.0;1753877894.56238;17.534871;0.7;-1.37;-0.18;-0.050243;0.982148;0.019694;0.0;0.0;0.0;0.0;0.0;0.0
3.0;1753877894.56711;17.481543;0.71;-1.3;-0.27;-0.047799;0.982167;0.020762;0.0;0.0;0.0;0.0;0.0;0.0
3.0;1753877894.571838;17.511655;0.71;-1.2;-0.26;-0.050618;0.983174;0.021242;0.0;0.0;0.0;0.0;0.0;0.0
3.0;1753877894.576568;17.53743;0.69;-1.36;-0.23;-0.051213;0.982729;0.020553;0.0;0.0;0.0;0.0;0.0;0.0
3.0;1753877894.581297;17.528323;0.71;-1.32;-0.3;-0.050765;0.983332;0.019739;0.0;0.0;0.0;0.0;0.0;0.0
3.0;1753877894.586026;17.535606;0.69;-1.41;-0.28;-0.048582;0.983425;0.019914;0.0;0.0;0.0;0.0;0.0;0.0
3.0;1753877894.590755;17.53875;0.57;-1.34;-0.24;-0.049171;0.983285;0.020671;0.0;0.0;0.0;0.0;0.0;0.0
3.0;1753877894.595484;17.513314;0.73;-1.28;-0.24;-0.049528;0.983717;0.018765;0.0;0.0;0.0;0.0;0.0;0.0
3.0;1753877894.600213;17.530856;0.69;-1.31;-0.29;-0.050549;0.983447;0.019906;0.0;0.0;0.0;0.0;0.0;0.0
3.0;1753877894.604942;17.538942;0.78;-1.27;-0.25;-0.05022;0.981756;0.020467;0.0;0.0;0.0;0.0;0.0;0.0
3.0;1753877894.609671;17.550907;0.66;-1.34;-0.15;-0.051519;0.983483;0.021513;0.0;0.0;0.0;0.0;0.0;0.0
3.0;1753877894.6144;17.554171;0.63;-1.38;-0.27;-0.049801;0.982535;0.02;0.0;0.0;0.0;0.0;0.0;0.0
3.0;1753877894.619129;17.529956;0.66;-1.3;-0.27;-0.047955;0.98255;0.019447;0.0;0.0;0.0;0.0;0.0;0.0
3.0;1753877894.623858;17.537402;0.68;-1.25;-0.18;-0.049921;0.982667;0.022247;0.0;0.0;0.0;0.0;0.0;0.0
3.0;1753877894.628587;17.521093;0.74;-1.31;-0.28;-0.049956;0.982946;0.019585;0.0;0.0;0.0;0.0;0.0;0.0
3.0;1753877894.633316;17.540407;0.73;-1.23;-0.26;-0.050176;0.983453;0.019704;0.0;0.0;0.0;0.0;0.0;0.0
3.0;1753877894.638045;17.520148;0.64;-1.26;-0.25;-0.051536;0.98216;0.021987;0.0;0.0;0.0;0.0;0.0;0.0
3.0;1753877894.642774;17.501702;0.79;-1.31;-0.24;-0.048937;0.981669;0.020337;0.0;0.0;0.0;0.0;0.0;0.0
3.0;1753877894.647503;17.541294;0.67;-1.17;-0.24;-0.050932;0.982114;0.020106;0.0;0.0;0.0;0.0;0.0;0.0
3.0;1753877894.652232;17.502586;0.75;-1.33;-0.32;-0.050085;0.983688;0.02131;0.0;0.0;0.0;0.0;0.0;0.0
3.0;1753877894.656961;17.505069;0.73;-1.24;-0.24;-0.049346;0.982863;0.020161;0.0;0.0;0.0;0.0;0.0;0.0
3.0;1753877894.66169;17.504767;0.77;-1.25;-0.21;-0.049776;0.982577;0.019929;0.0;0.0;0.0;0.0;0.0;0.0
3.0;1753877894.666419;17.536051;0.71;-1.33;-0.24;-0.050209;0.982319;0.019797;0.0;0.0;0.0;0.0;0.0;0.0
3.0;1753877894.671148;17.536662;0.71;-1.32;-0.25;-0.050795;0.982579;0.019556;0.0;0.0;0.0;0.0;0.0;0.0
3.0;1753877894.675877;17.560716;0.7;-1.3;-0.27;-0.049646;0.981958;0.020794;0.0;0.0;0.0;0.0;0.0;0.0
3.0;1753877894.680606;17.519976;0.74;-1.31;-0.29;-0.052155;0.982177;0.020606;0.0;0.0;0.0;0.0;0.0;0.0
3.0;1753877894.685336;17.504485;0.7;-1.37;-0.26;-0.050022;0.982423;0.019705;0.0;0.0;0.0;0.0;0.0;0.0
3.0;1753877894.690064;17.53324;0.76;-1.25;-0.28;-0.050689;0.983058;0.022848;0.0;0.0;0.0;0.0;0.0;0.0
3.0;1753877894.694794;17.528771;0.77;-1.34;-0.25;-0.050747;0.982475;0.021992;0.0;0.0;0.0;0.0;0.0;0.0
3.0;1753877894.699522;17.50786;0.69;-1.3;-0.32;-0.049759;0.983626;0.020188;0.0;0.0;0.0;0.0;0.0;0.0
3.0;1753877894.704252;17.533221;0.73;-1.35;-0.3;-0.048688;0.980767;0.019889;0.0;0.0;0.0;0.0;0.0;0.0
3.0;1753877894.70898;17.490515;0.71;-1.27;-0.21;-0.048129;0.98328;0.019602;0.0;0.0;0.0;0.0;0.0;0.0
3.0;1753877894.71371;17.505319;0.67;-1.29;-0.34;-0.04919;0.982913;0.022114;0.0;0.0;0.0;0.0;0.0;0.0
3.0;1753877894.718439;17.538214;0.72;-1.29;-0.31;-0.049448;0.983404;0.020766;0.0;0.0;0.0;0.0;0.0;0.0
3.0;1753877894.723168;17.510731;0.65;-1.36;-0.28;-0.051081;0.982226;0.019955;0.0;0.0;0.0;0.0;0.0;0.0
3.0;1753877894.727897;17.504129;0.62;-1.24;-0.24;-0.050506;0.982463;0.019528;0.0;0.0;0.0;0.0;0.0;0.0
3.0;1753877894.732626;17.532461;0.82;-1.33;-0.32;-0.048036;0.982529;0.020083;0.0;0.0;0.0;0.0;0.0;0.0
3.0;1753877894.737355;17.51328;0.74;-1.22;-0.32;-0.050435;0.982354;0.019305;0.0;0.0;0.0;0.0;0.0;0.0
3.0;1753877894.742084;17.537201;0.67;-1.34;-0.21;-0.049372;0.982866;0.020308;0.0;0.0;0.0;0.0;0.0;0.0
3.0;1753877894.746813;17.518984;0.74;-1.34;-0.19;-0.050288;0.983078;0.019923;0.0;0.0;0.0;0.0;0.0;0.0
3.0;1753877894.751542;17.503868;0.78;-1.33;-0.2;-0.051009;0.982452;0.02032;0.0;0.0;0.0;0.0;0.0;0.0
3.0;1753877894.756271;17.518416;0.78;-1.32;-0.29;-0.04914;0.982155;0.021286;0.0;0.0;0.0;0.0;0.0;0.0
3.0;1753877894.761;17.50998;0.62;-1.28;-0.25;-0.050458;0.982692;0.021367;0.0;0.0;0.0;0.0;0.0;0.0
3.0;1753877894.765729;17.518605;0.65;-1.39;-0.26;-0.049101;0.983352;0.020624;0.0;0.0;0.0;0.0;0.0;0.0
3.0;1753877894.770458;17.534773;0.67;-1.43;-0.26;-0.051566;0.983265;0.022102;0.0;0.0;0.0;0.0;0.0;0.0
3.0;1753877894.775187;17.536773;0.71;-1.38;-0.23;-0.048398;0.983122;0.018338;0.0;0.0;0.0;0.0;0.0;0.0
3.0;1753877894.779916;17.503505;0.72;-1.37;-0.23;-0.049727;0.982928;0.021699;0.0;0.0;0.0;0.0;0.0;0.0
3.0;1753877894.784645;17.505133;0.67;-1.34;-0.2;-0.050034;0.982239;0.019705;0.0;0.0;0.0;0.0;0.0;0.0
3.0;1753877894.789374;17.532465;0.78;-1.37;-0.35;-0.04948;0.983174;0.019945;0.0;0.0;0.0;0.0;0.0;0.0
3.0;1753877894.794103;17.54245;0.69;-1.36;-0.33;-0.049975;0.981737;0.018925;0.0;0.0;0.0;0.0;0.0;0.0
3.0;1753877894.798832;17.5702;0.73;-1.2;-0.27;-0.050592;0.98341;0.02099;0.0;0.0;0.0;0.0;0.0;0.0
3.0;1753877894.803561;17.547354;0.81;-1.31;-0.26;-0.049132;0.983334;0.020476;0.0;0.0;0.0;0.0;0.0;0.0
3.0;1753877894.80829;17.514537;0.68;-1.36;-0.23;-0.049579;0.98232;0.021215;0.0;0.0;0.0;0.0;0.0;0.0
3.0;1753877894.813019;17.52423;0.73;-1.3;-0.26;-0.049076;0.981933;0.020713;0.0;0.0;0.0;0.0;0.0;0.0
3.0;1753877894.8217;17.523438;0.7;-1.33;-0.28;-0.05002;0.982466;0.020374;0.0;0.0;0.0;0.0;0.0;0.0
3.0;1753877894.82859;17.515625;0.63;-1.33;-0.14;-0.050752;0.982954;0.01891;0.0;0.0;0.0;0.0;0.0;0.0
3.0;1753877894.833319;17.530042;0.56;-1.38;-0.14;-0.050557;0.982913;0.019533;0.0;0.0;0.0;0.0;0.0;0.0
3.0;1753877894.838048;17.503476;0.62;-1.28;-0.14;-0.049854;0.981876;0.018935;0.0;0.0;0.0;0.0;0.0;0.0
3.0;1753877894.842777;17.514311;0.65;-1.38;-0.2;-0.051548;0.982318;0.019281;0.0;0.0;0.0;0.0;0.0;0.0
3.0;1753877894.847506;17.515389;0.72;-1.29;-0.23;-0.049875;0.982603;0.020321;0.0;0.0;0.0;0.0;0.0;0.0
3.0;1753877894.852235;17.538261;0.55;-1.32;-0.19;-0.050526;0.982255;0.019553;0.0;0.0;0.0;0.0;0.0;0.0
3.0;1753877894.856964;17.507845;0.75;-1.22;-0.24;-0.050948;0.982203;0.018436;0.0;0.0;0.0;0.0;0.0;0.0
3.0;1753877894.861693;17.511288;0.67;-1.33;-0.09;-0.049577;0.983873;0.019521;0.0;0.0;0.0;0.0;0.0;0.0
3.0;1753877894.866422;17.523058;0.74;-1.29;-0.2;-0.048043;0.982798;0.019862;0.0;0.0;0.0;0.0;0.0;0.0
3.0;1753877894.871151;17.507453;0.62;-1.21;-0.18;-0.049941;0.983223;0.020228;0.0;0.0;0.0;0.0;0.0;0.0
3.0;1753877894.87805;17.515625;0.7;-1.26;-0.21;-0.049898;0.983076;0.019642;0.0;0.0;0.0;0.0;0.0;0.0
3.0;1753877894.882779;17.504289;0.75;-1.27;-0.2;-0.04759;0.983325;0.020097;0.0;0.0;0.0;0.0;0.0;0.0
3.0;1753877894.887508;17.524474;0.71;-1.28;-0.23;-0.051756;0.983672;0.018736;0.0;0.0;0.0;0.0;0.0;0.0
3.0;1753877894.892237;17.547186;0.81;-1.26;-0.15;-0.049972;0.983469;0.017561;0.0;0.0;0.0;0.0;0.0;0.0
3.0;1753877894.896966;17.546908;0.64;-1.25;-0.16;-0.050297;0.982655;0.021239;0.0;0.0;0.0;0.0;0.0;0.0
3.0;1753877894.901695;17.499983;0.67;-1.26;-0.14;-0.049431;0.983068;0.020036;0.0;0.0;0.0;0.0;0.0;0.0
3.0;1753877894.906424;17.558104;0.68;-1.25;-0.19;-0.050083;0.983893;0.02042;0.0;0.0;0.0;0.0;0.0;0.0
3.0;1753877894.911153;17.529277;0.69;-1.22;-0.22;-0.049239;0.982168;0.019788;0.0;0.0;0.0;0.0;0.0;0.0
3.0;1753877894.915882;17.54524;0.82;-1.11;-0.23;-0.051507;0.981472;0.0196;0.0;0.0;0.0;0.0;0.0;0.0
3.0;1753877894.92266;17.539062;0.7;-1.33;-0.21;-0.050386;0.982832;0.020252;0.0;0.0;0.0;0.0;0.0;0.0
3.0;1753877894.925204;17.539062;0.56;-1.26;-0.21;-0.05307;0.983808;0.020008;0.0;0.0;0.0;0.0;0.0;0.0
3.0;1753877894.929933;17.538362;0.68;-1.31;-0.25;-0.055361;0.984857;0.019375;0.0;0.0;0.0;0.0;0.0;0.0
3.0;1753877894.938801;17.546875;0.7;-1.33;-0.28;-0.052582;0.984906;0.019276;0.0;0.0;0.0;0.0;0.0;0.0
3.0;1753877894.939132;17.546875;0.84;-1.33;-0.21;-0.052582;0.984906;0.019276;0.0;0.0;0.0;0.0;0.0;0.0
3.0;1753877894.944097;17.546875;0.77;-1.33;-0.28;-0.052338;0.983442;0.020374;0.0;0.0;0.0;0.0;0.0;0.0
3.0;1753877894.94926;17.546875;0.77;-1.33;-0.28;-0.050508;0.982954;0.019886;0.0;0.0;0.0;0.0;0.0;0.0
3.0;1753877894.953284;17.523438;0.77;-1.26;-0.21;-0.05002;0.982466;0.017934;0.0;0.0;0.0;0.0;0.0;0.0
3.0;1753877894.958244;17.523438;0.63;-1.33;-0.42;-0.049166;0.981856;0.01525;0.0;0.0;0.0;0.0;0.0;0.0
3.0;1753877894.963736;17.523438;0.49;-1.4;-0.56;-0.055754;0.984418;0.011102;0.0;0.0;0.0;0.0;0.0;0.0
3.0;1753877894.967342;17.523438;0.63;-1.19;-0.28;-0.0427;0.983442;0.015494;0.0;0.0;0.0;0.0;0.0;0.0
3.0;1753877894.972009;17.546875;0.7;-0.98;0.0;-0.048556;0.983808;0.016226;0.0;0.0;0.0;0.0;0.0;0.0
3.0;1753877894.976677;17.546875;0.77;-0.98;-0.14;-0.027938;0.982344;0.025864;0.0;0.0;0.0;0.0;0.0;0.0
3.0;1753877894.981406;17.537943;0.17;-1.27;-2.43;0.02039;0.99083;0.034066;0.0;0.0;0.0;0.0;0.0;0.0
3.0;1753877894.988479;17.546875;-0.07;-1.68;-6.44;0.081862;0.996496;0.055754;0.0;0.0;0.0;0.0;0.0;0.0
3.0;1753877894.990714;17.554688;-0.07;-1.75;-6.16;-0.077836;0.996374;0.024034;0.0;0.0;0.0;0.0;0.0;0.0
3.0;1753877894.995861;17.554688;0.21;-1.47;-7.49;0.087352;0.958554;0.047214;0.0;0.0;0.0;0.0;0.0;0.0
3.0;1753877895.00059;17.562041;-0.13;-1.16;-6.23;0.028426;0.958321;0.037454;0.0;0.0;0.0;0.0;0.0;0.0
3.0;1753877895.005319;17.548671;0.2;-1.23;-8.93;0.051766;0.966965;0.067618;0.0;0.0;0.0;0.0;0.0;0.0
3.0;1753877895.010048;17.554447;0.36;-1.0;-11.53;0.058538;0.951056;0.06679;0.0;0.0;0.0;0.0;0.0;0.0
3.0;1753877895.014777;17.56049;0.14;-0.87;-2.85;0.196836;0.96837;0.051721;0.0;0.0;0.0;0.0;0.0;0.0
3.0;1753877895.019506;17.54445;-0.18;-1.7;-4.53;0.062506;0.94381;0.034498;0.0;0.0;0.0;0.0;0.0;0.0
3.0;1753877895.024235;17.560346;0.4;-1.79;-11.13;0.104782;0.958699;0.064027;0.0;0.0;0.0;0.0;0.0;0.0
3.0;1753877895.028964;17.559903;0.09;-1.54;-7.82;0.095329;0.975436;0.055945;0.0;0.0;0.0;0.0;0.0;0.0
3.0;1753877895.033693;17.545017;0.27;-1.55;-12.48;0.062811;0.952934;0.045894;0.0;0.0;0.0;0.0;0.0;0.0
3.0;1753877895.038422;17.572871;0.38;-1.09;-5.97;0.037151;0.961403;0.053922;0.0;0.0;0.0;0.0;0.0;0.0
3.0;1753877895.043152;17.561234;0.52;-1.54;-5.68;0.128517;0.973728;0.044888;0.0;0.0;0.0;0.0;0.0;0.0
3.0;1753877895.04788;17.575539;0.1;-1.62;-5.27;0.042288;0.948458;0.056864;0.0;0.0;0.0;0.0;0.0;0.0
3.0;1753877895.05261;17.557647;0.15;-2.32;-6.94;0.079048;0.958032;0.059578;0.0;0.0;0.0;0.0;0.0;0.0
3.0;1753877895.057338;17.542688;-0.09;-1.7;-7.15;0.102822;0.975474;0.033646;0.0;0.0;0.0;0.0;0.0;0.0
3.0;1753877895.062068;17.55283;0.36;-1.79;-7.91;0.091499;0.976305;0.051117;0.0;0.0;0.0;0.0;0.0;0.0
3.0;1753877895.066796;17.548928;0.19;-1.36;-10.47;0.081679;0.96573;0.057464;0.0;0.0;0.0;0.0;0.0;0.0
3.0;1753877895.071526;17.55596;0.63;-1.43;-9.11;0.010173;0.970833;0.055878;0.0;0.0;0.0;0.0;0.0;0.0
3.0;1753877895.076254;17.571428;-0.09;-1.9;-3.28;0.090312;0.958292;0.053618;0.0;0.0;0.0;0.0;0.0;0.0
3.0;1753877895.080984;17.540412;-0.12;-1.63;-10.29;0.026419;0.973325;0.038977;0.0;0.0;0.0;0.0;0.0;0.0
3.0;1753877895.085713;17.55735;-0.32;-1.22;-8.46;0.005616;0.973507;0.052399;0.0;0.0;0.0;0.0;0.0;0.0
3.0;1753877895.090442;17.556578;-0.12;-1.93;-5.44;0.133408;0.953701;0.048863;0.0;0.0;0.0;0.0;0.0;0.0
3.0;1753877895.095171;17.567467;0.03;-1.59;-8.94;0.121097;0.968343;0.039772;0.0;0.0;0.0;0.0;0.0;0.0
3.0;1753877895.0999;17.552567;-0.1;-1.55;-5.3;0.127727;0.968755;0.042114;0.0;0.0;0.0;0.0;0.0;0.0
3.0;1753877895.104629;17.554442;0.22;-1.91;-12.64;-0.010077;0.962137;0.039568;0.0;0.0;0.0;0.0;0.0;0.0
3.0;1753877895.109358;17.567622;0.77;-1.7;-10.33;0.055132;0.96851;0.046546;0.0;0.0;0.0;0.0;0.0;0.0
3.0;1753877895.114087;17.564461;0.19;-1.68;-2.06;0.116488;0.962915;0.063856;0.0;0.0;0.0;0.0;0.0;0.0
3.0;1753877895.118816;17.573584;0.33;-1.75;-11.59;0.099562;0.968731;0.042137;0.0;0.0;0.0;0.0;0.0;0.0
3.0;1753877895.123545;17.549359;-0.05;-2.03;-13.51;0.064849;0.952748;0.048187;0.0;0.0;0.0;0.0;0.0;0.0
3.0;1753877895.128274;17.549157;0.19;-1.57;-8.66;0.102048;0.961092;0.035862;0.0;0.0;0.0;0.0;0.0;0.0
3.0;1753877895.133003;17.540246;0.88;-2.17;-11.42;0.052167;0.965418;0.053262;0.0;0.0;0.0;0.0;0.0;0.0
3.0;1753877895.137732;17.561081;0.35;-1.53;-11.61;0.027722;0.957366;0.049143;0.0;0.0;0.0;0.0;0.0;0.0
3.0;1753877895.142461;17.54352;0.21;-1.7;-10.05;0.052269;0.956642;0.05789;0.0;0.0;0.0;0.0;0.0;0.0
3.0;1753877895.14719;17.583263;0.29;-1.43;-12.57;0.064223;0.959706;0.051563;0.0;0.0;0.0;0.0;0.0;0.0
3.0;1753877895.151919;17.573115;-0.19;-1.75;-6.99;0.045572;0.972982;0.062391;0.0;0.0;0.0;0.0;0.0;0.0
3.0;1753877895.156648;17.551447;0.18;-1.19;-8.93;0.065489;0.963246;0.045825;0.0;0.0;0.0;0.0;0.0;0.0
3.0;1753877895.161377;17.56011;-0.28;-1.49;-7.05;0.110289;0.963665;0.043363;0.0;0.0;0.0;0.0;0.0;0.0
3.0;1753877895.166106;17.571435;0.14;-1.32;-9.34;0.040949;0.952276;0.0652;0.0;0.0;0.0;0.0;0.0;0.0
3.0;1753877895.170835;17.563154;-0.28;-2.37;-10.91;0.032639;0.96975;0.072277;0.0;0.0;0.0;0.0;0.0;0.0
3.0;1753877895.175564;17.546898;0.09;-1.81;-9.52;0.086424;0.965205;0.056256;0.0;0.0;0.0;0.0;0.0;0.0
3.0;1753877895.180293;17.564914;0.21;-1.44;-13.71;0.06802;0.949129;0.048921;0.0;0.0;0.0;0.0;0.0;0.0
3.0;1753877895.185022;17.560409;0.18;-1.92;-8.5;0.072098;0.986368;0.030627;0.0;0.0;0.0;0.0;0.0;0.0
3.0;1753877895.189752;17.57783;0.02;-1.48;-11.46;0.11551;0.974765;0.051524;0.0;0.0;0.0;0.0;0.0;0.0
3.0;1753877895.19448;17.546099;0.21;-1.22;-4.11;0.059659;0.953411;0.063653;0.0;0.0;0.0;0.0;0.0;0.0
3.0;1753877895.19921;17.537555;0.18;-1.49;-5.56;0.023063;0.960773;0.047267;0.0;0.0;0.0;0.0;0.0;0.0
3.0;1753877895.203938;17.556043;0.59;-1.98;-9.66;0.087275;0.957459;0.062926;0.0;0.0;0.0;0.0;0.0;0.0
3.0;1753877895.208668;17.553099;0.28;-1.97;-5.76;0.000765;0.956879;0.058808;0.0;0.0;0.0;0.0;0.0;0.0
3.0;1753877895.213396;17.54671;-0.16;-1.24;-8.81;0.059397;0.974891;0.045981;0.0;0.0;0.0;0.0;0.0;0.0
3.0;1753877895.218126;17.542828;0.43;-2.08;-13.45;0.056618;0.957834;0.045497;0.0;0.0;0.0;0.0;0.0;0.0
3.0;1753877895.222854;17.560321;0.58;-2.01;-7.51;0.084103;0.968039;0.037516;0.0;0.0;0.0;0.0;0.0;0.0
3.0;1753877895.227584;17.538511;0.32;-1.01;-6.18;0.048107;0.978339;0.041344;0.0;0.0;0.0;0.0;0.0;0.0
3.0;1753877895.232313;17.555798;-0.14;-1.64;-7.97;0.046938;0.976996;0.033712;0.0;0.0;0.0;0.0;0.0;0.0
3.0;1753877895.237042;17.557573;0.7;-2.15;-11.06;0.006213;0.962174;0.054804;0.0;0.0;0.0;0.0;0.0;0.0
3.0;1753877895.241771;17.556453;0.5;-1.79;-5.65;0.047115;0.978215;0.050587;0.0;0.0;0.0;0.0;0.0;0.0
3.0;1753877895.2465;17.567839;0.18;-2.02;-7.01;0.083146;0.970335;0.041161;0.0;0.0;0.0;0.0;0.0;0.0
3.0;1753877895.251229;17.55346;0.28;-1.66;-13.61;0.102346;0.970829;0.063401;0.0;0.0;0.0;0.0;0.0;0.0
3.0;1753877895.255958;17.56744;-0.02;-1.92;-11.13;0.073985;0.98861;0.054017;0.0;0.0;0.0;0.0;0.0;0.0
3.0;1753877895.260687;17.568334;0.47;-2.01;-16.23;0.155662;0.984557;0.052232;0.0;0.0;0.0;0.0;0.0;0.0
3.0;1753877895.265416;17.555268;0.65;-1.98;-10.43;0.063981;0.974333;0.067903;0.0;0.0;0.0;0.0;0.0;0.0
3.0;1753877895.270145;17.548912;0.4;-1.67;-5.01;0.060358;0.968165;0.033066;0.0;0.0;0.0;0.0;0.0;0.0
3.0;1753877895.274874;17.557564;0.58;-1.02;-11.96;0.122712;0.984969;0.066034;0.0;0.0;0.0;0.0;0.0;0.0
3.0;1753877895.279603;17.536446;-0.21;-1.48;-8.42;0.065699;0.970692;0.042277;0.0;0.0;0.0;0.0;0.0;0.0
3.0;1753877895.284332;17.547952;-0.09;-1.51;-12.06;0.114363;0.957957;0.059433;0.0;0.0;0.0;0.0;0.0;0.0
3.0;1753877895.289061;17.560383;0.57;-1.71;-6.71;0.045951;0.963325;0.059639;0.0;0.0;0.0;0.0;0.0;0.0
3.0;1753877895.29379;17.555934;0.45;-1.64;-10.8;0.126074;0.989753;0.059281;0.0;0.0;0.0;0.0;0.0;0.0
3.0;1753877895.298519;17.553871;0.44;-1.89;-6.58;0.024244;0.970157;0.06649;0.0;0.0;0.0;0.0;0.0;0.0
3.0;1753877895.303248;17.564487;0.68;-1.24;-9.58;0.118237;0.974342;0.02909;0.0;0.0;0.0;0.0;0.0;0.0
3.0;1753877895.307977;17.56529;0.32;-1.58;-5.56;0.109885;0.968497;0.05204;0.0;0.0;0.0;0.0;0.0;0.0
3.0;1753877895.312706;17.554486;0.49;-2.02;-3.93;0.008074;0.97581;0.045425;0.0;0.0;0.0;0.0;0.0;0.0
3.0;1753877895.317435;17.558356;0.16;-1.74;-8.19;0.100041;0.989949;0.026455;0.0;0.0;0.0;0.0;0.0;0.0
3.0;1753877895.322164;17.564622;0.21;-1.8;-9.45;0.050458;0.974521;0.033268;0.0;0.0;0.0;0.0;0.0;0.0
3.0;1753877895.326893;17.563282;0.17;-1.79;-0.56;0.037477;0.978635;0.051655;0.0;0.0;0.0;0.0;0.0;0.0
3.0;1753877895.331622;17.556645;0.2;-1.9;-6.15;0.027105;0.964435;0.033307;0.0;0.0;0.0;0.0;0.0;0.0
3.0;1753877895.336352;17.566124;0.09;-1.94;-9.68;0.077249;0.974743;0.057181;0.0;0.0;0.0;0.0;0.0;0.0
3.0;1753877895.34108;17.559596;0.58;-1.98;-7.81;0.087387;0.982581;0.064269;0.0;0.0;0.0;0.0;0.0;0.0
3.0;1753877895.34581;17.57065;0.56;-1.66;-9.42;0.155949;0.973921;0.04349;0.0;0.0;0.0;0.0;0.0;0.0
3.0;1753877895.350538;17.560562;0.21;-1.69;-8.72;0.023285;0.973366;0.052269;0.0;0.0;0.0;0.0;0.0;0.0
3.0;1753877895.355268;17.550018;0.26;-1.38;-9.67;0.033217;0.97478;0.073047;0.0;0.0;0.0;0.0;0.0;0.0
3.0;1753877895.359996;17.572348;0.09;-1.62;-13.19;0.079236;0.974;0.038373;0.0;0.0;0.0;0.0;0.0;0.0
3.0;1753877895.364726;17.546701;0.28;-1.66;-7.78;0.010226;0.981384;0.044827;0.0;0.0;0.0;0.0;0.0;0.0
3.0;1753877895.369454;17.559253;0.39;-1.47;-10.07;0.079146;0.970409;0.064297;0.0;0.0;0.0;0.0;0.0;0.0
3.0;1753877895.374184;17.555632;0.41;-1.69;-5.45;0.051773;0.968524;0.046159;0.0;0.0;0.0;0.0;0.0;0.0
3.0;1753877895.378913;17.55392;0.72;-1.71;-2.1;0.039004;1.007614;0.031969;0.0;0.0;0.0;0.0;0.0;0.0
3.0;1753877895.383642;17.542545;0.65;-1.65;-3.99;0.122332;0.983773;0.043848;0.0;0.0;0.0;0.0;0.0;0.0
3.0;1753877895.388371;17.551756;0.22;-2.0;-13.9;0.073484;0.997094;0.069139;0.0;0.0;0.0;0.0;0.0;0.0
3.0;1753877895.3931;17.553575;0.59;-1.65;-10.11;0.007749;0.988919;0.067004;0.0;0.0;0.0;0.0;0.0;0.0
3.0;1753877895.397829;17.564966;0.73;-1.78;-13.33;0.127025;0.980671;0.046215;0.0;0.0;0.0;0.0;0.0;0.0
3.0;1753877895.402558;17.55079;-0.01;-1.75;-13.47;0.10844;0.972917;0.052574;0.0;0.0;0.0;0.0;0.0;0.0
3.0;1753877895.407287;17.565201;0.41;-2.0;-10.07;0.054957;0.966177;0.035451;0.0;0.0;0.0;0.0;0.0;0.0
3.0;1753877895.412016;17.561773;0.4;-1.82;-2.97;0.064757;0.962686;0.040123;0.0;0.0;0.0;0.0;0.0;0.0
3.0;1753877895.416745;17.537469;0.69;-2.0;-9.92;0.07388;0.986402;0.052559;0.0;0.0;0.0;0.0;0.0;0.0
3.0;1753877895.421474;17.543003;0.18;-1.98;-14.45;0.037118;0.97369;0.044179;0.0;0.0;0.0;0.0;0.0;0.0
3.0;1753877895.426203;17.545742;0.14;-1.61;-12.74;0.021702;0.974773;0.045617;0.0;0.0;0.0;0.0;0.0;0.0
