DeviceID;Timestamp;Temperature;GyroX;GyroY;GyroZ;AccelX;AccelY;AccelZ;Dist1;Dist2;Dist3;Err1;Err2;Err3
1.0;1753877889.723396;18.3125;1.05;-1.61;0.07;-0.673806;-0.752984;-0.022936;0.0;0.0;0.0;0.0;0.0;0.0
1.0;1753877889.72766;18.3125;1.12;-1.61;0.07;-0.669658;-0.754692;-0.023424;0.0;0.0;0.0;0.0;0.0;0.0
1.0;1753877889.732237;18.3125;1.05;-1.61;0.07;-0.674782;-0.754448;-0.024644;0.0;0.0;0.0;0.0;0.0;0.0
1.0;1753877889.736789;18.34375;1.05;-1.75;0.07;-0.669902;-0.754204;-0.02501;0.0;0.0;0.0;0.0;0.0;0.0
1.0;1753877889.742077;18.34375;1.05;-1.61;0.07;-0.67283;-0.753838;-0.024156;0.0;0.0;0.0;0.0;0.0;0.0
1.0;1753877889.746125;18.34375;1.05;-1.68;0.07;-0.671976;-0.75396;-0.023424;0.0;0.0;0.0;0.0;0.0;0.0
1.0;1753877889.750521;18.34375;0.91;-1.61;0.07;-0.67344;-0.753472;-0.024278;0.0;0.0;0.0;0.0;0.0;0.0
1.0;1753877889.75752;18.351562;0.98;-1.68;0.14;-0.674294;-0.752618;-0.023546;0.0;0.0;0.0;0.0;0.0;0.0
1.0;1753877889.762958;18.351562;1.12;-1.68;0.14;-0.671;-0.754936;-0.024522;0.0;0.0;0.0;0.0;0.0;0.0
1.0;1753877889.764191;18.351562;1.05;-1.68;0.07;-0.673806;-0.753472;-0.021838;0.0;0.0;0.0;0.0;0.0;0.0
1.0;1753877889.768981;18.351562;1.05;-1.68;0.07;-0.670634;-0.757132;-0.023668;0.0;0.0;0.0;0.0;0.0;0.0
1.0;1753877889.773418;18.34375;1.12;-1.75;0.07;-0.673806;-0.754814;-0.022204;0.0;0.0;0.0;0.0;0.0;0.0
1.0;1753877889.779073;18.34375;1.12;-1.68;0.14;-0.67161;-0.75396;-0.023912;0.0;0.0;0.0;0.0;0.0;0.0
1.0;1753877889.782519;18.34375;1.12;-1.68;0.07;-0.672952;-0.754448;-0.022936;0.0;0.0;0.0;0.0;0.0;0.0
1.0;1753877889.787526;18.34375;0.98;-1.68;0.0;-0.671976;-0.753838;-0.02257;0.0;0.0;0.0;0.0;0.0;0.0
1.0;1753877889.791678;18.359375;0.98;-1.68;0.07;-0.670512;-0.75396;-0.02501;0.0;0.0;0.0;0.0;0.0;0.0
1.0;1753877889.796246;18.359375;1.05;-1.61;0.07;-0.672464;-0.753228;-0.022326;0.0;0.0;0.0;0.0;0.0;0.0
1.0;1753877889.800839;18.357605;1.22;-1.53;-1.45;-0.659586;-0.716605;-0.017055;0.0;-0.8;0.5;0.0;0.0;0.0
1.0;1753877889.805167;18.359375;1.05;-1.61;0.0;-0.671366;-0.75518;-0.02501;0.0;0.0;0.0;0.0;0.0;0.0
1.0;1753877889.810518;18.351562;1.05;-1.68;0.07;-0.671;-0.75579;-0.024156;0.0;0.0;0.0;0.0;0.0;0.0
1.0;1753877889.814548;18.351562;1.12;-1.61;0.0;-0.671488;-0.753472;-0.024034;0.0;0.0;0.0;0.0;0.0;0.0
1.0;1753877889.819128;18.351562;1.05;-1.68;0.14;-0.670756;-0.753716;-0.024278;0.0;0.0;0.0;0.0;0.0;0.0
1.0;1753877889.823692;18.351562;1.05;-1.75;0.07;-0.672708;-0.753228;-0.023912;0.0;0.0;0.0;0.0;0.0;0.0
1.0;1753877889.828254;18.34375;1.19;-1.75;0.14;-0.672952;-0.754936;-0.024034;0.0;0.0;0.0;0.0;0.0;0.0
1.0;1753877889.832837;18.34375;0.98;-1.68;0.14;-0.67161;-0.754326;-0.024888;0.0;0.0;0.0;0.0;0.0;0.0
1.0;1753877889.837302;18.34375;1.12;-1.68;0.07;-0.67161;-0.754326;-0.024888;0.0;0.0;0.0;0.0;0.0;0.0
1.0;1753877889.843441;18.34375;1.05;-1.61;0.07;-0.670756;-0.753716;-0.025376;0.0;0.0;0.0;0.0;0.0;0.0
1.0;1753877889.84655;18.34375;1.05;-1.61;0.0;-0.67405;-0.75457;-0.023302;0.0;0.0;0.0;0.0;0.0;0.0
1.0;1753877889.854759;18.34375;1.05;-1.68;0.07;-0.672342;-0.753228;-0.02379;0.0;0.0;0.0;0.0;0.0;0.0
1.0;1753877889.860311;18.34375;1.05;-1.75;0.07;-0.671488;-0.754204;-0.02318;0.0;0.0;0.0;0.0;0.0;0.0
1.0;1753877889.864843;18.351562;1.05;-1.68;0.07;-0.67161;-0.754448;-0.024766;0.0;0.0;0.0;0.0;0.0;0.0
1.0;1753877889.869417;18.351562;0.98;-1.68;0.14;-0.672586;-0.754082;-0.022082;0.0;0.0;0.0;0.0;0.0;0.0
1.0;1753877889.873993;18.351562;1.05;-1.68;0.21;-0.671732;-0.75518;-0.023912;0.0;0.0;0.0;0.0;0.0;0.0
1.0;1753877889.878539;18.351562;1.05;-1.61;0.14;-0.672098;-0.753472;-0.024034;0.0;0.0;0.0;0.0;0.0;0.0
1.0;1753877889.884072;18.335938;1.12;-1.61;0.07;-0.672952;-0.752862;-0.024034;0.0;0.0;0.0;0.0;0.0;0.0
1.0;1753877889.888156;18.335938;0.98;-1.61;0.07;-0.672952;-0.752862;-0.024034;0.0;0.0;0.0;0.0;0.0;0.0
1.0;1753877889.892289;18.335938;1.05;-1.61;0.0;-0.673684;-0.75152;-0.025864;0.0;0.0;0.0;0.0;0.0;0.0
1.0;1753877889.897023;18.335938;1.05;-1.68;0.0;-0.671;-0.75396;-0.025376;0.0;0.0;0.0;0.0;0.0;0.0
1.0;1753877889.903812;18.34375;0.98;-1.68;0.0;-0.672952;-0.75274;-0.023668;0.0;0.0;0.0;0.0;0.0;0.0
1.0;1753877889.909536;18.34375;0.98;-1.68;0.0;-0.671488;-0.754448;-0.025498;0.0;0.0;0.0;0.0;0.0;0.0
1.0;1753877889.910527;18.34375;1.05;-1.68;0.07;-0.673318;-0.753594;-0.023912;0.0;0.0;0.0;0.0;0.0;0.0
1.0;1753877889.916181;18.34375;1.19;-1.68;0.0;-0.67039;-0.754326;-0.023424;0.0;0.0;0.0;0.0;0.0;0.0
1.0;1753877889.919899;18.320312;1.12;-1.61;0.14;-0.67161;-0.753228;-0.025864;0.0;0.0;0.0;0.0;0.0;0.0
1.0;1753877889.924285;18.320312;1.05;-1.68;0.07;-0.67283;-0.75518;-0.022936;0.0;0.0;0.0;0.0;0.0;0.0
1.0;1753877889.928866;18.320312;1.05;-1.68;0.14;-0.671122;-0.753594;-0.024766;0.0;0.0;0.0;0.0;0.0;0.0
1.0;1753877889.933431;18.320312;1.19;-1.61;0.14;-0.674416;-0.754082;-0.024522;0.0;0.0;0.0;0.0;0.0;0.0
1.0;1753877889.937987;18.3125;1.19;-1.61;0.14;-0.67161;-0.754326;-0.025498;0.0;0.0;0.0;0.0;0.0;0.0
1.0;1753877889.943055;18.3125;1.12;-1.68;0.14;-0.673196;-0.754082;-0.023668;0.0;0.0;0.0;0.0;0.0;0.0
1.0;1753877889.947776;18.3125;1.19;-1.61;0.07;-0.673196;-0.754082;-0.023668;0.0;0.0;0.0;0.0;0.0;0.0
1.0;1753877889.95315;18.3125;1.05;-1.61;0.07;-0.673806;-0.754082;-0.023912;0.0;0.0;0.0;0.0;0.0;0.0
1.0;1753877889.958957;18.320312;1.12;-1.68;0.14;-0.671366;-0.753716;-0.023058;0.0;0.0;0.0;0.0;0.0;0.0
1.0;1753877889.961224;18.320312;1.12;-1.68;0.07;-0.671366;-0.753716;-0.023058;0.0;0.0;0.0;0.0;0.0;0.0
1.0;1753877889.965455;18.320312;0.98;-1.61;0.07;-0.672098;-0.752496;-0.022448;0.0;0.0;0.0;0.0;0.0;0.0
1.0;1753877889.970015;18.320312;1.05;-1.68;0.14;-0.671244;-0.75396;-0.025254;0.0;0.0;0.0;0.0;0.0;0.0
1.0;1753877889.974597;18.304688;1.05;-1.61;0.14;-0.67222;-0.754204;-0.024156;0.0;0.0;0.0;0.0;0.0;0.0
1.0;1753877889.979174;18.304688;1.12;-1.75;0.07;-0.672952;-0.753228;-0.024034;0.0;0.0;0.0;0.0;0.0;0.0
1.0;1753877889.983723;18.304688;1.05;-1.75;0.14;-0.672098;-0.754936;-0.023668;0.0;0.0;0.0;0.0;0.0;0.0
1.0;1753877889.988647;18.304688;1.05;-1.68;0.07;-0.674904;-0.753594;-0.023424;0.0;0.0;0.0;0.0;0.0;0.0
1.0;1753877889.99353;18.328125;1.12;-1.61;0.07;-0.670634;-0.754204;-0.024644;0.0;0.0;0.0;0.0;0.0;0.0
1.0;1753877889.998123;18.321484;1.1;-1.65;0.05;-0.67082;-0.754603;-0.024744;0.0;0.0;0.0;0.0;0.0;0.0
1.0;1753877890.002716;18.334688;1.06;-1.63;0.1;-0.670774;-0.754354;-0.022832;0.0;0.0;0.0;0.0;0.0;0.0
1.0;1753877890.007309;18.33857;1.03;-1.7;0.06;-0.671815;-0.754537;-0.025859;0.0;0.0;0.0;0.0;0.0;0.0
1.0;1753877890.011902;18.323372;1.15;-1.68;0.07;-0.673238;-0.755175;-0.022954;0.0;0.0;0.0;0.0;0.0;0.0
1.0;1753877890.016494;18.308524;1.06;-1.67;0.1;-0.67131;-0.753955;-0.024323;0.0;0.0;0.0;0.0;0.0;0.0
1.0;1753877890.021088;18.313857;1.1;-1.59;-0.0;-0.670713;-0.754466;-0.024271;0.0;0.0;0.0;0.0;0.0;0.0
1.0;1753877890.02568;18.310068;1.03;-1.57;0.08;-0.670496;-0.754201;-0.024505;0.0;0.0;0.0;0.0;0.0;0.0
1.0;1753877890.030273;18.325254;1.14;-1.69;0.0;-0.670963;-0.753637;-0.024305;0.0;0.0;0.0;0.0;0.0;0.0
1.0;1753877890.034866;18.31371;1.12;-1.69;0.13;-0.671427;-0.753273;-0.025538;0.0;0.0;0.0;0.0;0.0;0.0
1.0;1753877890.039459;18.346383;1.09;-1.61;0.03;-0.671816;-0.75333;-0.023978;0.0;0.0;0.0;0.0;0.0;0.0
1.0;1753877890.044052;18.343806;1.08;-1.56;0.1;-0.675009;-0.753209;-0.024614;0.0;0.0;0.0;0.0;0.0;0.0
1.0;1753877890.048645;18.321454;1.22;-1.66;0.15;-0.673101;-0.754298;-0.023567;0.0;0.0;0.0;0.0;0.0;0.0
1.0;1753877890.053238;18.332782;1.14;-1.63;0.07;-0.673794;-0.754378;-0.022875;0.0;0.0;0.0;0.0;0.0;0.0
1.0;1753877890.05783;18.316727;1.16;-1.64;0.09;-0.672528;-0.753188;-0.023792;0.0;0.0;0.0;0.0;0.0;0.0
1.0;1753877890.062424;18.330029;1.09;-1.7;0.08;-0.673176;-0.755116;-0.024064;0.0;0.0;0.0;0.0;0.0;0.0
1.0;1753877890.067016;18.298941;1.25;-1.69;0.06;-0.675726;-0.753956;-0.023493;0.0;0.0;0.0;0.0;0.0;0.0
1.0;1753877890.071609;18.332954;1.1;-1.74;0.05;-0.673639;-0.754191;-0.023839;0.0;0.0;0.0;0.0;0.0;0.0
1.0;1753877890.076202;18.331945;1.21;-1.59;0.1;-0.673136;-0.754347;-0.023882;0.0;0.0;0.0;0.0;0.0;0.0
1.0;1753877890.080795;18.317618;1.11;-1.67;-0.01;-0.674452;-0.753808;-0.023915;0.0;0.0;0.0;0.0;0.0;0.0
1.0;1753877890.085388;18.320657;1.21;-1.67;0.07;-0.674894;-0.753928;-0.023832;0.0;0.0;0.0;0.0;0.0;0.0
1.0;1753877890.089981;18.308625;1.15;-1.7;0.05;-0.67418;-0.754318;-0.023569;0.0;0.0;0.0;0.0;0.0;0.0
1.0;1753877890.094574;18.315225;1.06;-1.64;0.08;-0.673615;-0.754607;-0.024005;0.0;0.0;0.0;0.0;0.0;0.0
1.0;1753877890.1004;18.328125;1.12;-1.68;0.07;-0.674294;-0.754082;-0.023912;0.0;0.0;0.0;0.0;0.0;0.0
1.0;1753877890.104993;18.342252;1.09;-1.74;0.09;-0.675035;-0.754328;-0.023315;0.0;0.0;0.0;0.0;0.0;0.0
1.0;1753877890.109586;18.327521;1.15;-1.66;0.11;-0.674736;-0.754153;-0.023991;0.0;0.0;0.0;0.0;0.0;0.0
1.0;1753877890.114179;18.339848;1.13;-1.72;0.09;-0.674229;-0.753079;-0.023601;0.0;0.0;0.0;0.0;0.0;0.0
1.0;1753877890.118772;18.313659;1.08;-1.69;0.1;-0.672754;-0.754171;-0.023793;0.0;0.0;0.0;0.0;0.0;0.0
1.0;1753877890.123364;18.323575;1.18;-1.64;0.01;-0.672405;-0.753126;-0.025158;0.0;0.0;0.0;0.0;0.0;0.0
1.0;1753877890.127957;18.3261;1.21;-1.71;0.09;-0.674128;-0.754113;-0.023644;0.0;0.0;0.0;0.0;0.0;0.0
1.0;1753877890.13255;18.317755;1.02;-1.71;0.08;-0.673505;-0.753231;-0.024634;0.0;0.0;0.0;0.0;0.0;0.0
1.0;1753877890.137143;18.311729;1.03;-1.67;0.01;-0.67476;-0.754726;-0.023753;0.0;0.0;0.0;0.0;0.0;0.0
1.0;1753877890.141736;18.326312;1.03;-1.61;0.05;-0.675199;-0.754937;-0.025403;0.0;0.0;0.0;0.0;0.0;0.0
1.0;1753877890.146329;18.322016;1.18;-1.67;0.05;-0.673673;-0.754587;-0.023527;0.0;0.0;0.0;0.0;0.0;0.0
1.0;1753877890.150922;18.329093;1.1;-1.61;0.15;-0.674337;-0.753387;-0.024806;0.0;0.0;0.0;0.0;0.0;0.0
1.0;1753877890.155515;18.335354;1.04;-1.68;-0.06;-0.674233;-0.754195;-0.02407;0.0;0.0;0.0;0.0;0.0;0.0
1.0;1753877890.160108;18.326934;1.04;-1.65;-0.0;-0.674;-0.753957;-0.024945;0.0;0.0;0.0;0.0;0.0;0.0
1.0;1753877890.1647;18.339135;1.2;-1.6;0.1;-0.674283;-0.753401;-0.023962;0.0;0.0;0.0;0.0;0.0;0.0
1.0;1753877890.169294;18.3376;1.04;-1.61;0.08;-0.675534;-0.754385;-0.023778;0.0;0.0;0.0;0.0;0.0;0.0
1.0;1753877890.173886;18.315742;1.03;-1.68;0.14;-0.674009;-0.753595;-0.023732;0.0;0.0;0.0;0.0;0.0;0.0
1.0;1753877890.178479;18.326725;1.24;-1.65;0.02;-0.672688;-0.754245;-0.023883;0.0;0.0;0.0;0.0;0.0;0.0
1.0;1753877890.183072;18.336507;1.04;-1.71;0.02;-0.675381;-0.754225;-0.022717;0.0;0.0;0.0;0.0;0.0;0.0
1.0;1753877890.187665;18.322869;1.14;-1.71;0.03;-0.673652;-0.753902;-0.023339;0.0;0.0;0.0;0.0;0.0;0.0
1.0;1753877890.192258;18.314963;1.05;-1.71;0.09;-0.674369;-0.754389;-0.023461;0.0;0.0;0.0;0.0;0.0;0.0
1.0;1753877890.196851;18.328776;1.11;-1.71;0.06;-0.672384;-0.753109;-0.024327;0.0;0.0;0.0;0.0;0.0;0.0
1.0;1753877890.201444;18.330113;1.06;-1.73;0.09;-0.675645;-0.754016;-0.023396;0.0;0.0;0.0;0.0;0.0;0.0
1.0;1753877890.206036;18.328812;1.1;-1.69;0.04;-0.674157;-0.754998;-0.024861;0.0;0.0;0.0;0.0;0.0;0.0
1.0;1753877890.21063;18.325763;1.04;-1.71;-0.02;-0.675466;-0.754709;-0.023398;0.0;0.0;0.0;0.0;0.0;0.0
1.0;1753877890.215222;18.314688;1.14;-1.64;0.06;-0.674176;-0.753556;-0.023711;0.0;0.0;0.0;0.0;0.0;0.0
1.0;1753877890.219815;18.345055;1.1;-1.71;0.0;-0.672652;-0.754324;-0.024002;0.0;0.0;0.0;0.0;0.0;0.0
1.0;1753877890.224408;18.317439;1.03;-1.75;0.06;-0.675763;-0.754744;-0.023134;0.0;0.0;0.0;0.0;0.0;0.0
1.0;1753877890.229001;18.329185;1.11;-1.68;0.15;-0.674562;-0.754578;-0.022988;0.0;0.0;0.0;0.0;0.0;0.0
1.0;1753877890.233594;18.318147;1.1;-1.61;0.14;-0.674108;-0.754652;-0.023669;0.0;0.0;0.0;0.0;0.0;0.0
1.0;1753877890.238187;18.337542;1.01;-1.64;0.01;-0.671557;-0.753445;-0.023707;0.0;0.0;0.0;0.0;0.0;0.0
1.0;1753877890.24278;18.318429;1.1;-1.67;0.05;-0.673817;-0.754545;-0.024914;0.0;0.0;0.0;0.0;0.0;0.0
1.0;1753877890.247373;18.329262;1.19;-1.65;0.08;-0.671996;-0.754035;-0.025471;0.0;0.0;0.0;0.0;0.0;0.0
1.0;1753877890.251966;18.316763;1.13;-1.74;-0.0;-0.672518;-0.753421;-0.023715;0.0;0.0;0.0;0.0;0.0;0.0
1.0;1753877890.256558;18.341283;1.12;-1.58;0.11;-0.675358;-0.753421;-0.024379;0.0;0.0;0.0;0.0;0.0;0.0
1.0;1753877890.261151;18.333762;1.13;-1.68;-0.02;-0.673173;-0.754071;-0.023248;0.0;0.0;0.0;0.0;0.0;0.0
1.0;1753877890.265744;18.312357;1.13;-1.73;0.03;-0.673896;-0.753794;-0.024216;0.0;0.0;0.0;0.0;0.0;0.0
1.0;1753877890.270337;18.345237;1.2;-1.65;0.07;-0.673761;-0.754701;-0.023681;0.0;0.0;0.0;0.0;0.0;0.0
1.0;1753877890.27493;18.326557;1.17;-1.66;0.06;-0.673035;-0.753619;-0.024998;0.0;0.0;0.0;0.0;0.0;0.0
1.0;1753877890.279523;18.347433;1.06;-1.75;0.12;-0.673248;-0.754841;-0.023644;0.0;0.0;0.0;0.0;0.0;0.0
1.0;1753877890.284116;18.30802;1.18;-1.65;0.1;-0.675085;-0.753074;-0.023676;0.0;0.0;0.0;0.0;0.0;0.0
1.0;1753877890.288709;18.336597;1.09;-1.64;0.06;-0.673259;-0.754295;-0.024284;0.0;0.0;0.0;0.0;0.0;0.0
1.0;1753877890.293302;18.328963;1.12;-1.67;0.02;-0.672571;-0.754817;-0.023459;0.0;0.0;0.0;0.0;0.0;0.0
1.0;1753877890.297894;18.311935;1.12;-1.7;-0.02;-0.673882;-0.755291;-0.024186;0.0;0.0;0.0;0.0;0.0;0.0
1.0;1753877890.302487;18.338091;1.13;-1.69;0.02;-0.672019;-0.754117;-0.022722;0.0;0.0;0.0;0.0;0.0;0.0
1.0;1753877890.30708;18.337268;1.08;-1.67;-0.0;-0.672538;-0.754593;-0.023989;0.0;0.0;0.0;0.0;0.0;0.0
1.0;1753877890.311673;18.343911;1.26;-1.75;0.06;-0.671648;-0.754299;-0.02377;0.0;0.0;0.0;0.0;0.0;0.0
1.0;1753877890.316266;18.31136;1.19;-1.75;0.04;-0.67449;-0.754176;-0.022606;0.0;0.0;0.0;0.0;0.0;0.0
1.0;1753877890.320859;18.328271;1.17;-1.66;0.07;-0.674879;-0.753688;-0.02454;0.0;0.0;0.0;0.0;0.0;0.0
1.0;1753877890.325452;18.335316;1.07;-1.78;0.11;-0.671629;-0.753855;-0.024312;0.0;0.0;0.0;0.0;0.0;0.0
1.0;1753877890.330045;18.34315;1.31;-1.67;0.04;-0.674942;-0.754483;-0.024089;0.0;0.0;0.0;0.0;0.0;0.0
1.0;1753877890.334638;18.333867;1.2;-1.68;0.04;-0.673482;-0.752884;-0.024574;0.0;0.0;0.0;0.0;0.0;0.0
1.0;1753877890.33923;18.321027;1.06;-1.74;-0.02;-0.673587;-0.755319;-0.023267;0.0;0.0;0.0;0.0;0.0;0.0
1.0;1753877890.343824;18.329638;1.23;-1.66;0.01;-0.671904;-0.755019;-0.022876;0.0;0.0;0.0;0.0;0.0;0.0
1.0;1753877890.348416;18.321409;1.04;-1.65;0.03;-0.673353;-0.753836;-0.023767;0.0;0.0;0.0;0.0;0.0;0.0
1.0;1753877890.353009;18.332023;1.1;-1.73;0.11;-0.67211;-0.754912;-0.022524;0.0;0.0;0.0;0.0;0.0;0.0
1.0;1753877890.357602;18.329672;1.12;-1.62;-0.04;-0.670797;-0.753811;-0.023078;0.0;0.0;0.0;0.0;0.0;0.0
1.0;1753877890.362195;18.323414;0.98;-1.74;0.01;-0.673574;-0.75318;-0.0243;0.0;0.0;0.0;0.0;0.0;0.0
1.0;1753877890.366788;18.332859;1.14;-1.68;0.0;-0.672584;-0.753742;-0.02413;0.0;0.0;0.0;0.0;0.0;0.0
1.0;1753877890.371381;18.345174;1.15;-1.69;0.02;-0.671775;-0.753398;-0.024637;0.0;0.0;0.0;0.0;0.0;0.0
1.0;1753877890.375974;18.30873;1.12;-1.63;0.03;-0.675392;-0.7539;-0.023634;0.0;0.0;0.0;0.0;0.0;0.0
1.0;1753877890.380566;18.321451;1.22;-1.59;0.0;-0.674491;-0.753183;-0.024471;0.0;0.0;0.0;0.0;0.0;0.0
1.0;1753877890.38516;18.327279;1.14;-1.62;0.09;-0.67339;-0.754213;-0.023541;0.0;0.0;0.0;0.0;0.0;0.0
1.0;1753877890.389752;18.324315;1.19;-1.68;0.08;-0.673716;-0.754798;-0.025414;0.0;0.0;0.0;0.0;0.0;0.0
1.0;1753877890.394345;18.314967;1.09;-1.65;-0.02;-0.674734;-0.754873;-0.022899;0.0;0.0;0.0;0.0;0.0;0.0
1.0;1753877890.398938;18.32791;1.09;-1.63;0.03;-0.672402;-0.754829;-0.023591;0.0;0.0;0.0;0.0;0.0;0.0
1.0;1753877890.403531;18.329857;1.19;-1.75;0.1;-0.674626;-0.754164;-0.024944;0.0;0.0;0.0;0.0;0.0;0.0
1.0;1753877890.408124;18.340855;1.16;-1.76;0.03;-0.672645;-0.753314;-0.023684;0.0;0.0;0.0;0.0;0.0;0.0
1.0;1753877890.412717;18.335018;1.06;-1.68;-0.0;-0.674781;-0.754709;-0.023153;0.0;0.0;0.0;0.0;0.0;0.0
1.0;1753877890.41731;18.310541;1.18;-1.67;0.06;-0.674194;-0.75352;-0.023251;0.0;0.0;0.0;0.0;0.0;0.0
1.0;1753877890.421903;18.324906;1.17;-1.7;0.11;-0.673249;-0.75399;-0.025183;0.0;0.0;0.0;0.0;0.0;0.0
1.0;1753877890.426496;18.33041;1.11;-1.69;0.09;-0.674532;-0.755033;-0.02413;0.0;0.0;0.0;0.0;0.0;0.0
1.0;1753877890.431088;18.334613;1.16;-1.7;0.0;-0.671296;-0.755517;-0.023898;0.0;0.0;0.0;0.0;0.0;0.0
1.0;1753877890.435681;18.315996;1.18;-1.68;0.04;-0.672411;-0.753977;-0.024607;0.0;0.0;0.0;0.0;0.0;0.0
1.0;1753877890.440274;18.321335;1.16;-1.67;0.06;-0.672319;-0.753731;-0.022967;0.0;0.0;0.0;0.0;0.0;0.0
1.0;1753877890.444867;18.340541;1.13;-1.72;0.08;-0.6743;-0.755823;-0.022879;0.0;0.0;0.0;0.0;0.0;0.0
1.0;1753877890.44946;18.318051;1.15;-1.63;0.01;-0.676373;-0.753785;-0.022836;0.0;0.0;0.0;0.0;0.0;0.0
1.0;1753877890.454053;18.329611;1.31;-1.71;-0.04;-0.673782;-0.754165;-0.023709;0.0;0.0;0.0;0.0;0.0;0.0
1.0;1753877890.458646;18.339915;1.15;-1.73;-0.0;-0.673833;-0.754893;-0.023148;0.0;0.0;0.0;0.0;0.0;0.0
1.0;1753877890.463239;18.328945;1.16;-1.68;0.07;-0.674023;-0.754402;-0.024581;0.0;0.0;0.0;0.0;0.0;0.0
1.0;1753877890.467832;18.320151;1.08;-1.63;0.04;-0.674542;-0.754389;-0.025035;0.0;0.0;0.0;0.0;0.0;0.0
1.0;1753877890.472424;18.319328;1.1;-1.66;0.02;-0.673175;-0.754995;-0.023817;0.0;0.0;0.0;0.0;0.0;0.0
1.0;1753877890.477018;18.337624;1.18;-1.69;0.03;-0.673605;-0.75508;-0.024539;0.0;0.0;0.0;0.0;0.0;0.0
1.0;1753877890.48161;18.311084;1.17;-1.66;-0.04;-0.672624;-0.753916;-0.023589;0.0;0.0;0.0;0.0;0.0;0.0
1.0;1753877890.486203;18.321743;1.25;-1.7;-0.01;-0.672211;-0.755173;-0.023599;0.0;0.0;0.0;0.0;0.0;0.0
1.0;1753877890.490796;18.333501;1.04;-1.79;-0.01;-0.672654;-0.755058;-0.022792;0.0;0.0;0.0;0.0;0.0;0.0
1.0;1753877890.495389;18.327962;1.12;-1.68;0.04;-0.67341;-0.754324;-0.023849;0.0;0.0;0.0;0.0;0.0;0.0
1.0;1753877890.499982;18.33083;1.11;-1.61;0.02;-0.674366;-0.754015;-0.021455;0.0;0.0;0.0;0.0;0.0;0.0
1.0;1753877890.504575;18.325562;1.24;-1.62;0.09;-0.673913;-0.754626;-0.025343;0.0;0.0;0.0;0.0;0.0;0.0
1.0;1753877890.509168;18.329554;1.14;-1.73;0.1;-0.671561;-0.754725;-0.023282;0.0;0.0;0.0;0.0;0.0;0.0
1.0;1753877890.51376;18.328986;1.22;-1.67;0.06;-0.670556;-0.754509;-0.024599;0.0;0.0;0.0;0.0;0.0;0.0
1.0;1753877890.518354;18.327639;1.15;-1.69;-0.03;-0.675465;-0.754624;-0.023756;0.0;0.0;0.0;0.0;0.0;0.0
1.0;1753877890.522946;18.326384;1.01;-1.77;0.04;-0.672952;-0.754328;-0.02399;0.0;0.0;0.0;0.0;0.0;0.0
1.0;1753877890.527539;18.323103;1.11;-1.74;0.0;-0.672827;-0.754536;-0.024072;0.0;0.0;0.0;0.0;0.0;0.0
1.0;1753877890.532132;18.332176;1.19;-1.68;0.14;-0.673695;-0.754756;-0.023997;0.0;0.0;0.0;0.0;0.0;0.0
1.0;1753877890.536725;18.318117;1.06;-1.7;0.1;-0.672277;-0.754341;-0.023551;0.0;0.0;0.0;0.0;0.0;0.0
1.0;1753877890.541318;18.317906;1.18;-1.73;0.1;-0.672691;-0.755188;-0.022662;0.0;0.0;0.0;0.0;0.0;0.0
1.0;1753877890.545911;18.329084;1.22;-1.66;-0.07;-0.671811;-0.754558;-0.024116;0.0;0.0;0.0;0.0;0.0;0.0
1.0;1753877890.550504;18.324797;1.04;-1.7;0.02;-0.672167;-0.753557;-0.021885;0.0;0.0;0.0;0.0;0.0;0.0
1.0;1753877890.555097;18.327761;1.15;-1.67;0.01;-0.675976;-0.7549;-0.024288;0.0;0.0;0.0;0.0;0.0;0.0
1.0;1753877890.55969;18.334831;1.23;-1.63;0.02;-0.67224;-0.754482;-0.023836;0.0;0.0;0.0;0.0;0.0;0.0
1.0;1753877890.564282;18.342667;1.13;-1.65;0.03;-0.672392;-0.754515;-0.024267;0.0;0.0;0.0;0.0;0.0;0.0
1.0;1753877890.568875;18.321392;1.17;-1.74;0.02;-0.673932;-0.755045;-0.024408;0.0;0.0;0.0;0.0;0.0;0.0
1.0;1753877890.573468;18.333082;1.07;-1.61;0.02;-0.669771;-0.753764;-0.022619;0.0;0.0;0.0;0.0;0.0;0.0
1.0;1753877890.578061;18.3312;1.24;-1.79;-0.02;-0.673984;-0.754255;-0.023767;0.0;0.0;0.0;0.0;0.0;0.0
1.0;1753877890.582654;18.330886;1.15;-1.69;0.01;-0.672462;-0.754428;-0.022227;0.0;0.0;0.0;0.0;0.0;0.0
1.0;1753877890.587247;18.343001;1.25;-1.73;-0.04;-0.67225;-0.754282;-0.024634;0.0;0.0;0.0;0.0;0.0;0.0
1.0;1753877890.59184;18.336035;1.06;-1.68;-0.02;-0.67257;-0.753967;-0.02321;0.0;0.0;0.0;0.0;0.0;0.0
1.0;1753877890.596433;18.331182;1.15;-1.76;0.04;-0.674877;-0.755015;-0.023502;0.0;0.0;0.0;0.0;0.0;0.0
1.0;1753877890.601026;18.320556;1.12;-1.7;0.06;-0.673014;-0.752196;-0.022551;0.0;0.0;0.0;0.0;0.0;0.0
1.0;1753877890.605618;18.319326;1.13;-1.75;0.03;-0.673511;-0.756086;-0.022951;0.0;0.0;0.0;0.0;0.0;0.0
1.0;1753877890.610211;18.325042;1.29;-1.65;0.06;-0.670173;-0.75374;-0.023336;0.0;0.0;0.0;0.0;0.0;0.0
1.0;1753877890.614804;18.332292;1.17;-1.63;0.13;-0.675197;-0.754221;-0.025425;0.0;0.0;0.0;0.0;0.0;0.0
1.0;1753877890.619397;18.341977;1.19;-1.67;0.03;-0.674462;-0.753197;-0.023632;0.0;0.0;0.0;0.0;0.0;0.0
1.0;1753877890.62399;18.323859;1.16;-1.7;-0.03;-0.674736;-0.754456;-0.022999;0.0;0.0;0.0;0.0;0.0;0.0
1.0;1753877890.628583;18.320628;1.25;-1.66;0.09;-0.673595;-0.754478;-0.022051;0.0;0.0;0.0;0.0;0.0;0.0
1.0;1753877890.633176;18.338124;1.17;-1.65;0.07;-0.672317;-0.754813;-0.023662;0.0;0.0;0.0;0.0;0.0;0.0
1.0;1753877890.637769;18.330196;1.17;-1.62;-0.04;-0.672411;-0.754428;-0.024252;0.0;0.0;0.0;0.0;0.0;0.0
1.0;1753877890.642362;18.333856;1.28;-1.7;0.02;-0.673161;-0.754007;-0.024151;0.0;0.0;0.0;0.0;0.0;0.0
1.0;1753877890.646954;18.344816;1.16;-1.75;0.0;-0.674002;-0.754711;-0.024794;0.0;0.0;0.0;0.0;0.0;0.0
1.0;1753877890.651548;18.34696;1.21;-1.63;0.03;-0.671367;-0.753811;-0.023751;0.0;0.0;0.0;0.0;0.0;0.0
1.0;1753877890.65614;18.323551;1.23;-1.66;-0.02;-0.673436;-0.754839;-0.025828;0.0;0.0;0.0;0.0;0.0;0.0
1.0;1753877890.660733;18.313111;1.27;-1.61;0.07;-0.673477;-0.754287;-0.023353;0.0;0.0;0.0;0.0;0.0;0.0
1.0;1753877890.665326;18.319485;1.15;-1.74;0.05;-0.669605;-0.754515;-0.023312;0.0;0.0;0.0;0.0;0.0;0.0
1.0;1753877890.669919;18.322439;1.18;-1.73;-0.02;-0.671856;-0.754082;-0.023425;0.0;0.0;0.0;0.0;0.0;0.0
1.0;1753877890.674512;18.34625;1.18;-1.69;0.0;-0.67233;-0.754466;-0.024354;0.0;0.0;0.0;0.0;0.0;0.0
1.0;1753877890.679105;18.316918;1.18;-1.63;0.03;-0.674785;-0.754393;-0.023035;0.0;0.0;0.0;0.0;0.0;0.0
1.0;1753877890.683698;18.32002;1.25;-1.74;0.01;-0.670567;-0.754337;-0.024495;0.0;0.0;0.0;0.0;0.0;0.0
1.0;1753877890.68829;18.327949;1.2;-1.66;-0.08;-0.674142;-0.753593;-0.021721;0.0;0.0;0.0;0.0;0.0;0.0
1.0;1753877890.692884;18.335803;1.15;-1.64;-0.08;-0.675233;-0.754899;-0.024368;0.0;0.0;0.0;0.0;0.0;0.0
1.0;1753877890.697476;18.316077;1.21;-1.66;0.04;-0.673138;-0.754785;-0.02447;0.0;0.0;0.0;0.0;0.0;0.0
1.0;1753877890.702069;18.317495;1.29;-1.65;0.05;-0.671738;-0.753041;-0.022881;0.0;0.0;0.0;0.0;0.0;0.0
1.0;1753877890.706662;18.324056;1.28;-1.69;0.1;-0.671154;-0.753889;-0.024044;0.0;0.0;0.0;0.0;0.0;0.0
1.0;1753877890.711255;18.333598;1.17;-1.67;0.03;-0.675144;-0.753327;-0.023245;0.0;0.0;0.0;0.0;0.0;0.0
1.0;1753877890.715848;18.347665;1.21;-1.69;0.04;-0.671672;-0.754585;-0.021661;0.0;0.0;0.0;0.0;0.0;0.0
1.0;1753877890.720441;18.300481;1.22;-1.67;0.01;-0.673175;-0.754758;-0.0222;0.0;0.0;0.0;0.0;0.0;0.0
1.0;1753877890.7291;18.328125;1.19;-1.68;0.0;-0.672464;-0.754448;-0.023668;0.0;0.0;0.0;0.0;0.0;0.0
1.0;1753877890.733693;18.305044;1.22;-1.63;0.0;-0.673771;-0.754786;-0.023777;0.0;0.0;0.0;0.0;0.0;0.0
1.0;1753877890.738286;18.356748;1.17;-1.58;0.11;-0.671945;-0.754631;-0.024906;0.0;0.0;0.0;0.0;0.0;0.0
1.0;1753877890.742879;18.361186;1.16;-1.72;0.01;-0.670548;-0.754338;-0.023128;0.0;0.0;0.0;0.0;0.0;0.0
1.0;1753877890.747472;18.334248;1.23;-1.6;0.02;-0.672;-0.754107;-0.025;0.0;0.0;0.0;0.0;0.0;0.0
1.0;1753877890.752064;18.352497;1.04;-1.58;-0.01;-0.672607;-0.753427;-0.025772;0.0;0.0;0.0;0.0;0.0;0.0
1.0;1753877890.756657;18.383842;1.12;-1.6;0.05;-0.671841;-0.753727;-0.026269;0.0;0.0;0.0;0.0;0.0;0.0
1.0;1753877890.76262;18.378906;1.05;-1.54;0.0;-0.671122;-0.754448;-0.025986;0.0;0.0;0.0;0.0;0.0;0.0
1.0;1753877890.767213;18.357518;1.13;-1.55;-0.01;-0.671147;-0.754454;-0.024916;0.0;0.0;0.0;0.0;0.0;0.0
1.0;1753877890.771806;18.40307;1.07;-1.57;-0.0;-0.669446;-0.753784;-0.024662;0.0;0.0;0.0;0.0;0.0;0.0
1.0;1753877890.776399;18.371363;0.96;-1.5;-0.15;-0.671787;-0.754822;-0.026151;0.0;0.0;0.0;0.0;0.0;0.0
1.0;1753877890.780992;18.363562;1.06;-1.65;-0.06;-0.670737;-0.754732;-0.027073;0.0;0.0;0.0;0.0;0.0;0.0
1.0;1753877890.785584;18.346682;1.05;-1.6;-0.03;-0.673124;-0.753856;-0.025092;0.0;0.0;0.0;0.0;0.0;0.0
1.0;1753877890.790177;18.372646;1.14;-1.65;-0.13;-0.67052;-0.753138;-0.025071;0.0;0.0;0.0;0.0;0.0;0.0
1.0;1753877890.79477;18.406242;1.08;-1.71;0.05;-0.672013;-0.753162;-0.025041;0.0;0.0;0.0;0.0;0.0;0.0
1.0;1753877890.799363;18.356893;0.95;-1.67;0.09;-0.671258;-0.752983;-0.024798;0.0;0.0;0.0;0.0;0.0;0.0
1.0;1753877890.803956;18.388403;1.03;-1.66;-0.0;-0.671929;-0.753225;-0.025942;0.0;0.0;0.0;0.0;0.0;0.0
1.0;1753877890.808549;18.357863;1.06;-1.63;-0.08;-0.672601;-0.751331;-0.024219;0.0;0.0;0.0;0.0;0.0;0.0
1.0;1753877890.81376;18.378906;1.12;-1.68;0.0;-0.67161;-0.752862;-0.024644;0.0;0.0;0.0;0.0;0.0;0.0
1.0;1753877890.818353;18.332222;1.19;-1.65;-0.04;-0.671508;-0.753908;-0.024858;0.0;0.0;0.0;0.0;0.0;0.0
1.0;1753877890.822946;18.383346;1.17;-1.66;-0.01;-0.668556;-0.753786;-0.02302;0.0;0.0;0.0;0.0;0.0;0.0
1.0;1753877890.827539;18.351478;1.32;-1.69;0.04;-0.672789;-0.75252;-0.024559;0.0;0.0;0.0;0.0;0.0;0.0
1.0;1753877890.832132;18.353661;1.19;-1.62;0.02;-0.672525;-0.753132;-0.023034;0.0;0.0;0.0;0.0;0.0;0.0
1.0;1753877890.836724;18.380433;1.16;-1.76;0.05;-0.671887;-0.753289;-0.023864;0.0;0.0;0.0;0.0;0.0;0.0
1.0;1753877890.84294;18.335938;1.19;-1.68;0.0;-0.672952;-0.75396;-0.024522;0.0;0.0;0.0;0.0;0.0;0.0
1.0;1753877890.847533;18.328133;1.15;-1.67;-0.07;-0.674775;-0.755113;-0.024403;0.0;0.0;0.0;0.0;0.0;0.0
1.0;1753877890.852126;18.353886;1.22;-1.61;0.03;-0.672408;-0.75583;-0.024246;0.0;0.0;0.0;0.0;0.0;0.0
1.0;1753877890.856719;18.332001;1.09;-1.68;-0.06;-0.673594;-0.754803;-0.025693;0.0;0.0;0.0;0.0;0.0;0.0
1.0;1753877890.861312;18.299016;1.21;-1.67;0.03;-0.672899;-0.754481;-0.025233;0.0;0.0;0.0;0.0;0.0;0.0
1.0;1753877890.865904;18.300083;1.05;-1.72;0.05;-0.671258;-0.753248;-0.024836;0.0;0.0;0.0;0.0;0.0;0.0
1.0;1753877890.870498;18.375274;1.11;-1.54;-0.01;-0.672862;-0.755307;-0.023694;0.0;0.0;0.0;0.0;0.0;0.0
1.0;1753877890.87509;18.346706;1.16;-1.76;0.08;-0.670778;-0.75416;-0.023899;0.0;0.0;0.0;0.0;0.0;0.0
1.0;1753877890.879683;18.356177;1.14;-1.61;-0.05;-0.670079;-0.755143;-0.024979;0.0;0.0;0.0;0.0;0.0;0.0
1.0;1753877890.884276;18.365216;1.01;-1.63;-0.03;-0.672123;-0.753658;-0.025707;0.0;0.0;0.0;0.0;0.0;0.0
1.0;1753877890.88875;18.335938;1.05;-1.68;0.07;-0.670512;-0.754814;-0.024766;0.0;0.0;0.0;0.0;0.0;0.0
1.0;1753877890.890583;18.3125;1.05;-1.61;0.0;-0.670512;-0.75518;-0.025132;0.0;0.0;0.0;0.0;0.0;0.0
1.0;1753877890.893762;18.3125;1.12;-1.75;0.07;-0.672952;-0.754692;-0.023912;0.0;0.0;0.0;0.0;0.0;0.0
1.0;1753877890.898328;18.3125;1.12;-1.68;0.07;-0.671732;-0.754204;-0.024034;0.0;0.0;0.0;0.0;0.0;0.0
1.0;1753877890.902803;18.3125;1.05;-1.75;0.14;-0.671732;-0.754204;-0.024034;0.0;0.0;0.0;0.0;0.0;0.0
1.0;1753877890.907456;18.3125;1.12;-1.68;0.0;-0.670756;-0.754448;-0.02501;0.0;0.0;0.0;0.0;0.0;0.0
1.0;1753877890.912053;18.3125;1.05;-1.54;0.07;-0.672586;-0.752984;-0.0244;0.0;0.0;0.0;0.0;0.0;0.0
1.0;1753877890.916621;18.3125;1.05;-1.68;0.07;-0.67283;-0.75396;-0.024034;0.0;0.0;0.0;0.0;0.0;0.0
1.0;1753877890.921208;18.3125;1.05;-1.68;0.0;-0.672098;-0.754692;-0.025498;0.0;0.0;0.0;0.0;0.0;0.0
1.0;1753877890.925768;18.292969;0.98;-1.75;0.07;-0.67222;-0.753228;-0.023546;0.0;0.0;0.0;0.0;0.0;0.0
1.0;1753877890.932532;18.292969;0.91;-1.61;0.07;-0.671976;-0.75457;-0.02562;0.0;0.0;0.0;0.0;0.0;0.0
1.0;1753877890.938548;18.292969;1.05;-1.68;0.07;-0.672708;-0.754448;-0.023302;0.0;0.0;0.0;0.0;0.0;0.0
1.0;1753877890.939437;18.292969;1.05;-1.61;0.14;-0.672464;-0.754204;-0.02318;0.0;0.0;0.0;0.0;0.0;0.0
1.0;1753877890.944162;18.308594;1.12;-1.68;0.14;-0.672464;-0.754204;-0.02318;0.0;0.0;0.0;0.0;0.0;0.0
1.0;1753877890.948638;18.308594;1.05;-1.75;0.14;-0.67405;-0.75518;-0.02318;0.0;0.0;0.0;0.0;0.0;0.0
1.0;1753877890.953219;18.308594;1.12;-1.68;0.0;-0.672464;-0.752252;-0.025376;0.0;0.0;0.0;0.0;0.0;0.0
1.0;1753877890.957727;18.308594;1.12;-1.68;0.07;-0.673074;-0.754936;-0.023912;0.0;0.0;0.0;0.0;0.0;0.0
1.0;1753877890.962353;18.296875;1.05;-1.54;0.0;-0.671854;-0.752862;-0.02379;0.0;0.0;0.0;0.0;0.0;0.0
1.0;1753877890.96715;18.296875;0.98;-1.61;0.07;-0.675026;-0.752862;-0.022936;0.0;0.0;0.0;0.0;0.0;0.0
1.0;1753877890.972576;18.296875;0.98;-1.68;0.14;-0.672098;-0.754814;-0.023302;0.0;0.0;0.0;0.0;0.0;0.0
1.0;1753877890.977169;18.307371;0.9;-1.66;0.18;-0.673018;-0.754788;-0.025735;0.0;0.0;0.0;0.0;0.0;0.0
1.0;1753877890.981777;18.285156;0.98;-1.68;0.14;-0.673684;-0.754448;-0.024766;0.0;0.0;0.0;0.0;0.0;0.0
1.0;1753877890.98874;18.285156;0.98;-1.61;0.07;-0.671122;-0.753716;-0.024766;0.0;0.0;0.0;0.0;0.0;0.0
1.0;1753877890.989738;18.285156;1.12;-1.68;0.14;-0.672586;-0.754692;-0.022692;0.0;0.0;0.0;0.0;0.0;0.0
1.0;1753877890.994365;18.285156;1.05;-1.68;0.14;-0.669658;-0.753472;-0.024156;0.0;0.0;0.0;0.0;0.0;0.0
1.0;1753877890.999197;18.289062;1.12;-1.61;0.0;-0.673074;-0.75457;-0.022082;0.0;0.0;0.0;0.0;0.0;0.0
1.0;1753877891.00379;18.297169;1.05;-1.57;-0.11;-0.671062;-0.755992;-0.020511;0.0;0.0;0.0;0.0;0.0;0.0
1.0;1753877891.008383;18.275823;1.07;-1.65;0.04;-0.673105;-0.754813;-0.021624;0.0;0.0;0.0;0.0;0.0;0.0
1.0;1753877891.012976;18.300003;1.12;-1.64;-0.11;-0.673028;-0.754251;-0.020546;0.0;0.0;0.0;0.0;0.0;0.0
1.0;1753877891.017568;18.280522;1.14;-1.54;-0.07;-0.674451;-0.75363;-0.022168;0.0;0.0;0.0;0.0;0.0;0.0
1.0;1753877891.022162;18.307472;1.11;-1.64;0.0;-0.671701;-0.754215;-0.022858;0.0;0.0;0.0;0.0;0.0;0.0
1.0;1753877891.026754;18.293821;1.02;-1.66;-0.03;-0.671253;-0.753528;-0.020225;0.0;0.0;0.0;0.0;0.0;0.0
1.0;1753877891.031347;18.273513;1.23;-1.64;0.01;-0.672007;-0.754088;-0.022379;0.0;0.0;0.0;0.0;0.0;0.0
1.0;1753877891.03594;18.287596;1.15;-1.63;-0.04;-0.672228;-0.753507;-0.020616;0.0;0.0;0.0;0.0;0.0;0.0
1.0;1753877891.040533;18.301093;1.13;-1.64;0.01;-0.673376;-0.753548;-0.022709;0.0;0.0;0.0;0.0;0.0;0.0
1.0;1753877891.045126;18.279546;1.12;-1.68;0.04;-0.675399;-0.757509;-0.021224;0.0;0.0;0.0;0.0;0.0;0.0
1.0;1753877891.049719;18.282494;1.07;-1.61;0.02;-0.671564;-0.752865;-0.022676;0.0;0.0;0.0;0.0;0.0;0.0
1.0;1753877891.054312;18.289081;1.14;-1.61;0.02;-0.670095;-0.75526;-0.023057;0.0;0.0;0.0;0.0;0.0;0.0
1.0;1753877891.058905;18.295688;1.05;-1.54;0.04;-0.673049;-0.754307;-0.022027;0.0;0.0;0.0;0.0;0.0;0.0
1.0;1753877891.063498;18.282288;1.15;-1.65;-0.06;-0.675663;-0.753721;-0.021692;0.0;0.0;0.0;0.0;0.0;0.0
1.0;1753877891.06809;18.290317;1.08;-1.73;-0.01;-0.674555;-0.75498;-0.021682;0.0;0.0;0.0;0.0;0.0;0.0
1.0;1753877891.072683;18.305257;1.07;-1.61;0.04;-0.672415;-0.753519;-0.024013;0.0;0.0;0.0;0.0;0.0;0.0
1.0;1753877891.077276;18.304851;1.12;-1.53;-0.02;-0.672289;-0.75514;-0.021299;0.0;0.0;0.0;0.0;0.0;0.0
1.0;1753877891.081869;18.298119;1.16;-1.57;0.01;-0.67429;-0.752815;-0.023098;0.0;0.0;0.0;0.0;0.0;0.0
1.0;1753877891.086462;18.309674;1.01;-1.55;0.03;-0.673351;-0.755583;-0.0216;0.0;0.0;0.0;0.0;0.0;0.0
1.0;1753877891.091055;18.299439;1.17;-1.59;0.01;-0.673166;-0.755762;-0.02225;0.0;0.0;0.0;0.0;0.0;0.0
1.0;1753877891.095648;18.290346;1.13;-1.59;-0.05;-0.671965;-0.75512;-0.022513;0.0;0.0;0.0;0.0;0.0;0.0
1.0;1753877891.100241;18.291479;1.2;-1.67;0.03;-0.672733;-0.754447;-0.02224;0.0;0.0;0.0;0.0;0.0;0.0
1.0;1753877891.104834;18.282063;1.08;-1.64;0.01;-0.672261;-0.754737;-0.023338;0.0;0.0;0.0;0.0;0.0;0.0
1.0;1753877891.109426;18.264696;1.14;-1.55;-0.1;-0.672275;-0.756072;-0.022946;0.0;0.0;0.0;0.0;0.0;0.0
1.0;1753877891.11402;18.292726;1.15;-1.65;0.07;-0.670156;-0.754741;-0.021234;0.0;0.0;0.0;0.0;0.0;0.0
1.0;1753877891.118612;18.278229;1.08;-1.6;0.09;-0.6722;-0.755713;-0.021912;0.0;0.0;0.0;0.0;0.0;0.0
1.0;1753877891.123205;18.270523;1.02;-1.67;-0.03;-0.672079;-0.753261;-0.020841;0.0;0.0;0.0;0.0;0.0;0.0
1.0;1753877891.127798;18.271833;1.03;-1.65;0.12;-0.673774;-0.75422;-0.02421;0.0;0.0;0.0;0.0;0.0;0.0
1.0;1753877891.132391;18.291898;1.04;-1.66;-0.02;-0.67278;-0.753759;-0.0227;0.0;0.0;0.0;0.0;0.0;0.0
1.0;1753877891.136984;18.285813;1.09;-1.68;-0.03;-0.671169;-0.751626;-0.023548;0.0;0.0;0.0;0.0;0.0;0.0
1.0;1753877891.141577;18.295781;1.2;-1.64;0.06;-0.673566;-0.754457;-0.022819;0.0;0.0;0.0;0.0;0.0;0.0
1.0;1753877891.14617;18.289611;1.12;-1.65;0.06;-0.67122;-0.754511;-0.023527;0.0;0.0;0.0;0.0;0.0;0.0
1.0;1753877891.150762;18.274173;1.0;-1.68;-0.01;-0.673822;-0.753782;-0.025165;0.0;0.0;0.0;0.0;0.0;0.0
1.0;1753877891.155356;18.314728;1.03;-1.58;0.01;-0.673701;-0.75529;-0.022574;0.0;0.0;0.0;0.0;0.0;0.0
1.0;1753877891.159948;18.298103;1.08;-1.61;0.04;-0.672946;-0.754477;-0.023577;0.0;0.0;0.0;0.0;0.0;0.0
1.0;1753877891.164541;18.270439;1.11;-1.78;0.09;-0.673081;-0.756225;-0.023806;0.0;0.0;0.0;0.0;0.0;0.0
1.0;1753877891.169134;18.282295;1.1;-1.68;0.1;-0.672647;-0.756263;-0.02153;0.0;0.0;0.0;0.0;0.0;0.0
1.0;1753877891.173727;18.290277;1.04;-1.78;-0.05;-0.673117;-0.754669;-0.022867;0.0;0.0;0.0;0.0;0.0;0.0
1.0;1753877891.17832;18.30256;1.01;-1.63;0.03;-0.672615;-0.754224;-0.024358;0.0;0.0;0.0;0.0;0.0;0.0
1.0;1753877891.182913;18.304423;0.94;-1.73;-0.01;-0.674391;-0.754133;-0.022634;0.0;0.0;0.0;0.0;0.0;0.0
1.0;1753877891.187506;18.302006;1.11;-1.61;0.02;-0.671168;-0.754614;-0.025156;0.0;0.0;0.0;0.0;0.0;0.0
1.0;1753877891.192098;18.282473;1.03;-1.62;0.13;-0.671911;-0.754808;-0.022203;0.0;0.0;0.0;0.0;0.0;0.0
1.0;1753877891.196692;18.274893;1.05;-1.64;0.02;-0.672709;-0.753846;-0.025509;0.0;0.0;0.0;0.0;0.0;0.0
1.0;1753877891.201284;18.298228;1.09;-1.62;0.01;-0.671823;-0.75601;-0.02448;0.0;0.0;0.0;0.0;0.0;0.0
1.0;1753877891.205877;18.291669;1.03;-1.77;0.08;-0.672448;-0.754422;-0.021967;0.0;0.0;0.0;0.0;0.0;0.0
1.0;1753877891.21047;18.279244;1.05;-1.61;0.12;-0.670857;-0.753968;-0.024347;0.0;0.0;0.0;0.0;0.0;0.0
1.0;1753877891.215063;18.312662;1.08;-1.62;0.03;-0.675046;-0.754847;-0.023676;0.0;0.0;0.0;0.0;0.0;0.0
1.0;1753877891.219656;18.286619;1.17;-1.62;-0.03;-0.672452;-0.755823;-0.021644;0.0;0.0;0.0;0.0;0.0;0.0
1.0;1753877891.224249;18.279609;1.08;-1.73;0.05;-0.669978;-0.753906;-0.023769;0.0;0.0;0.0;0.0;0.0;0.0
1.0;1753877891.228842;18.280191;1.04;-1.65;-0.02;-0.671999;-0.753772;-0.024221;0.0;0.0;0.0;0.0;0.0;0.0
1.0;1753877891.233435;18.298278;1.06;-1.71;-0.02;-0.671066;-0.75469;-0.023836;0.0;0.0;0.0;0.0;0.0;0.0
1.0;1753877891.238028;18.280598;1.05;-1.64;0.09;-0.673612;-0.754749;-0.022753;0.0;0.0;0.0;0.0;0.0;0.0
1.0;1753877891.24262;18.298126;1.03;-1.65;0.05;-0.671195;-0.754781;-0.023019;0.0;0.0;0.0;0.0;0.0;0.0
1.0;1753877891.247213;18.296174;1.06;-1.71;0.1;-0.674028;-0.755435;-0.021201;0.0;0.0;0.0;0.0;0.0;0.0
1.0;1753877891.251806;18.29906;1.12;-1.64;0.03;-0.67016;-0.755493;-0.024006;0.0;0.0;0.0;0.0;0.0;0.0
1.0;1753877891.256399;18.293849;1.04;-1.73;0.02;-0.673445;-0.753711;-0.02477;0.0;0.0;0.0;0.0;0.0;0.0
1.0;1753877891.260992;18.286141;1.04;-1.68;0.04;-0.669355;-0.754052;-0.024826;0.0;0.0;0.0;0.0;0.0;0.0
1.0;1753877891.265585;18.297551;1.06;-1.7;0.01;-0.670834;-0.755486;-0.025289;0.0;0.0;0.0;0.0;0.0;0.0
1.0;1753877891.270178;18.297951;0.99;-1.68;0.06;-0.670899;-0.755329;-0.023129;0.0;0.0;0.0;0.0;0.0;0.0
1.0;1753877891.274771;18.283192;1.06;-1.58;0.04;-0.671791;-0.754951;-0.024407;0.0;0.0;0.0;0.0;0.0;0.0
1.0;1753877891.279364;18.274284;1.05;-1.57;0.05;-0.673089;-0.754704;-0.025508;0.0;0.0;0.0;0.0;0.0;0.0
1.0;1753877891.283956;18.276923;0.94;-1.76;0.08;-0.671332;-0.754548;-0.024809;0.0;0.0;0.0;0.0;0.0;0.0
1.0;1753877891.28855;18.283289;0.93;-1.78;0.07;-0.67108;-0.754742;-0.023721;0.0;0.0;0.0;0.0;0.0;0.0
1.0;1753877891.293142;18.300811;1.02;-1.71;0.03;-0.672115;-0.754072;-0.024384;0.0;0.0;0.0;0.0;0.0;0.0
1.0;1753877891.297735;18.288805;1.01;-1.75;0.06;-0.67094;-0.754397;-0.023262;0.0;0.0;0.0;0.0;0.0;0.0
1.0;1753877891.302328;18.27923;1.1;-1.6;0.03;-0.671176;-0.754656;-0.024068;0.0;0.0;0.0;0.0;0.0;0.0
1.0;1753877891.306921;18.29761;1.06;-1.58;-0.02;-0.671304;-0.753574;-0.024265;0.0;0.0;0.0;0.0;0.0;0.0
1.0;1753877891.311514;18.301235;0.96;-1.71;0.16;-0.672633;-0.755812;-0.025031;0.0;0.0;0.0;0.0;0.0;0.0
1.0;1753877891.316107;18.276315;0.94;-1.73;0.08;-0.673639;-0.755181;-0.022991;0.0;0.0;0.0;0.0;0.0;0.0
1.0;1753877891.3207;18.285735;1.02;-1.82;-0.04;-0.671824;-0.754188;-0.024393;0.0;0.0;0.0;0.0;0.0;0.0
1.0;1753877891.325292;18.291557;0.96;-1.6;0.1;-0.669001;-0.754537;-0.024114;0.0;0.0;0.0;0.0;0.0;0.0
1.0;1753877891.329886;18.285345;1.02;-1.69;0.11;-0.670693;-0.753768;-0.024524;0.0;0.0;0.0;0.0;0.0;0.0
1.0;1753877891.334478;18.289289;1.02;-1.64;0.08;-0.669861;-0.753055;-0.023255;0.0;0.0;0.0;0.0;0.0;0.0
1.0;1753877891.339071;18.303135;0.92;-1.7;0.08;-0.671161;-0.754004;-0.025202;0.0;0.0;0.0;0.0;0.0;0.0
1.0;1753877891.343664;18.289008;1.0;-1.63;0.01;-0.670752;-0.755346;-0.023438;0.0;0.0;0.0;0.0;0.0;0.0
1.0;1753877891.3506;18.289062;0.98;-1.68;0.07;-0.671366;-0.754448;-0.0244;0.0;0.0;0.0;0.0;0.0;0.0
1.0;1753877891.355193;18.281176;0.92;-1.73;0.09;-0.671274;-0.754123;-0.025832;0.0;0.0;0.0;0.0;0.0;0.0
1.0;1753877891.359786;18.287389;0.93;-1.61;0.07;-0.672144;-0.754818;-0.025338;0.0;0.0;0.0;0.0;0.0;0.0
1.0;1753877891.364379;18.302028;0.99;-1.68;-0.03;-0.671468;-0.754506;-0.024681;0.0;0.0;0.0;0.0;0.0;0.0
1.0;1753877891.368972;18.291587;0.98;-1.72;0.04;-0.672047;-0.754969;-0.024704;0.0;0.0;0.0;0.0;0.0;0.0
1.0;1753877891.373564;18.291018;1.04;-1.64;-0.01;-0.672744;-0.754751;-0.024329;0.0;0.0;0.0;0.0;0.0;0.0
1.0;1753877891.378158;18.306371;1.05;-1.61;0.06;-0.671033;-0.75349;-0.023448;0.0;0.0;0.0;0.0;0.0;0.0
1.0;1753877891.38275;18.282289;0.98;-1.69;0.02;-0.672388;-0.754025;-0.025899;0.0;0.0;0.0;0.0;0.0;0.0
1.0;1753877891.387343;18.295938;1.05;-1.67;0.14;-0.673232;-0.753656;-0.024194;0.0;0.0;0.0;0.0;0.0;0.0
1.0;1753877891.391936;18.300313;0.88;-1.74;0.11;-0.671407;-0.753539;-0.022345;0.0;0.0;0.0;0.0;0.0;0.0
1.0;1753877891.396529;18.278938;0.99;-1.55;0.04;-0.671301;-0.755693;-0.023917;0.0;0.0;0.0;0.0;0.0;0.0
1.0;1753877891.401122;18.291839;0.95;-1.67;0.07;-0.671702;-0.75322;-0.024709;0.0;0.0;0.0;0.0;0.0;0.0
1.0;1753877891.405715;18.258134;1.08;-1.66;0.03;-0.669404;-0.75346;-0.023045;0.0;0.0;0.0;0.0;0.0;0.0
1.0;1753877891.410308;18.291671;1.04;-1.64;0.04;-0.671464;-0.754222;-0.022231;0.0;0.0;0.0;0.0;0.0;0.0
1.0;1753877891.4149;18.284894;1.07;-1.69;0.07;-0.672032;-0.754595;-0.02567;0.0;0.0;0.0;0.0;0.0;0.0
1.0;1753877891.419494;18.289949;0.88;-1.69;0.09;-0.673853;-0.754304;-0.023517;0.0;0.0;0.0;0.0;0.0;0.0
1.0;1753877891.424086;18.289315;0.98;-1.66;0.03;-0.670552;-0.753514;-0.025065;0.0;0.0;0.0;0.0;0.0;0.0
1.0;1753877891.428679;18.27249;0.94;-1.69;0.12;-0.673824;-0.75439;-0.024324;0.0;0.0;0.0;0.0;0.0;0.0
1.0;1753877891.433272;18.29054;0.97;-1.68;0.2;-0.672333;-0.754973;-0.023054;0.0;0.0;0.0;0.0;0.0;0.0
1.0;1753877891.437865;18.302244;0.98;-1.64;0.11;-0.671292;-0.755544;-0.024448;0.0;0.0;0.0;0.0;0.0;0.0
1.0;1753877891.442458;18.282309;1.05;-1.56;0.13;-0.672032;-0.754355;-0.023164;0.0;0.0;0.0;0.0;0.0;0.0
1.0;1753877891.447051;18.279078;1.01;-1.63;0.01;-0.670218;-0.754147;-0.02371;0.0;0.0;0.0;0.0;0.0;0.0
1.0;1753877891.451644;18.293637;0.95;-1.72;0.09;-0.670895;-0.755416;-0.023664;0.0;0.0;0.0;0.0;0.0;0.0
1.0;1753877891.456236;18.257458;1.1;-1.75;-0.01;-0.67439;-0.754861;-0.02488;0.0;0.0;0.0;0.0;0.0;0.0
1.0;1753877891.46083;18.290387;0.91;-1.71;0.14;-0.671893;-0.75426;-0.024596;0.0;0.0;0.0;0.0;0.0;0.0
1.0;1753877891.465422;18.30352;1.05;-1.65;0.09;-0.671818;-0.753621;-0.02274;0.0;0.0;0.0;0.0;0.0;0.0
1.0;1753877891.470015;18.302481;1.02;-1.62;0.03;-0.672226;-0.755127;-0.023576;0.0;0.0;0.0;0.0;0.0;0.0
1.0;1753877891.474608;18.283231;0.93;-1.73;0.07;-0.671206;-0.755119;-0.023441;0.0;0.0;0.0;0.0;0.0;0.0
1.0;1753877891.479201;18.271219;0.99;-1.55;0.11;-0.670974;-0.755231;-0.024297;0.0;0.0;0.0;0.0;0.0;0.0
1.0;1753877891.483794;18.301712;0.9;-1.63;0.07;-0.672549;-0.754181;-0.022832;0.0;0.0;0.0;0.0;0.0;0.0
1.0;1753877891.488387;18.286952;1.06;-1.63;0.08;-0.674217;-0.754549;-0.024987;0.0;0.0;0.0;0.0;0.0;0.0
1.0;1753877891.49298;18.28531;0.97;-1.64;0.04;-0.671702;-0.753678;-0.025614;0.0;0.0;0.0;0.0;0.0;0.0
1.0;1753877891.497573;18.276975;0.98;-1.66;0.08;-0.671896;-0.755028;-0.023605;0.0;0.0;0.0;0.0;0.0;0.0
1.0;1753877891.502166;18.272098;1.06;-1.69;0.0;-0.673237;-0.75428;-0.024362;0.0;0.0;0.0;0.0;0.0;0.0
1.0;1753877891.506758;18.289425;0.86;-1.61;0.12;-0.672678;-0.755793;-0.021727;0.0;0.0;0.0;0.0;0.0;0.0
1.0;1753877891.511351;18.279409;0.99;-1.62;0.08;-0.671476;-0.753984;-0.024086;0.0;0.0;0.0;0.0;0.0;0.0
1.0;1753877891.515944;18.277583;1.07;-1.7;0.13;-0.671139;-0.7543;-0.021199;0.0;0.0;0.0;0.0;0.0;0.0
1.0;1753877891.520537;18.301893;1.01;-1.58;0.08;-0.673738;-0.753465;-0.023231;0.0;0.0;0.0;0.0;0.0;0.0
1.0;1753877891.52513;18.292008;0.88;-1.7;0.18;-0.673392;-0.754264;-0.021441;0.0;0.0;0.0;0.0;0.0;0.0
1.0;1753877891.529723;18.301851;1.07;-1.71;0.15;-0.672922;-0.755759;-0.025421;0.0;0.0;0.0;0.0;0.0;0.0
1.0;1753877891.534316;18.269964;0.9;-1.68;0.03;-0.671425;-0.755896;-0.023202;0.0;0.0;0.0;0.0;0.0;0.0
1.0;1753877891.538909;18.295513;1.03;-1.6;0.11;-0.670822;-0.754418;-0.023279;0.0;0.0;0.0;0.0;0.0;0.0
1.0;1753877891.543502;18.277619;1.04;-1.72;0.13;-0.672447;-0.754948;-0.022217;0.0;0.0;0.0;0.0;0.0;0.0
1.0;1753877891.548094;18.295572;0.99;-1.63;0.13;-0.673321;-0.754998;-0.022786;0.0;0.0;0.0;0.0;0.0;0.0
1.0;1753877891.552688;18.293403;0.95;-1.65;0.11;-0.674025;-0.754233;-0.023488;0.0;0.0;0.0;0.0;0.0;0.0
1.0;1753877891.55728;18.279542;1.0;-1.59;0.06;-0.674891;-0.754899;-0.02275;0.0;0.0;0.0;0.0;0.0;0.0
1.0;1753877891.561873;18.296602;0.99;-1.66;0.18;-0.673277;-0.754089;-0.022256;0.0;0.0;0.0;0.0;0.0;0.0
1.0;1753877891.566466;18.307274;1.07;-1.75;0.18;-0.671441;-0.754304;-0.024906;0.0;0.0;0.0;0.0;0.0;0.0
1.0;1753877891.571059;18.275772;0.98;-1.64;0.16;-0.67184;-0.7557;-0.024289;0.0;0.0;0.0;0.0;0.0;0.0
1.0;1753877891.575652;18.282266;0.93;-1.62;0.11;-0.672989;-0.753022;-0.023872;0.0;0.0;0.0;0.0;0.0;0.0
1.0;1753877891.580245;18.285991;0.96;-1.52;0.08;-0.67348;-0.754817;-0.024859;0.0;0.0;0.0;0.0;0.0;0.0
1.0;1753877891.584838;18.30969;0.93;-1.71;0.17;-0.673573;-0.754696;-0.023333;0.0;0.0;0.0;0.0;0.0;0.0
1.0;1753877891.58943;18.292823;0.98;-1.73;0.01;-0.672708;-0.753232;-0.023766;0.0;0.0;0.0;0.0;0.0;0.0
1.0;1753877891.594024;18.292444;0.91;-1.67;0.12;-0.67304;-0.75617;-0.024025;0.0;0.0;0.0;0.0;0.0;0.0
1.0;1753877891.598616;18.291006;1.0;-1.63;0.07;-0.673752;-0.754583;-0.022327;0.0;0.0;0.0;0.0;0.0;0.0
1.0;1753877891.603209;18.277035;0.94;-1.56;0.14;-0.67463;-0.755319;-0.022609;0.0;0.0;0.0;0.0;0.0;0.0
1.0;1753877891.607802;18.306594;1.0;-1.65;0.14;-0.672844;-0.753195;-0.021649;0.0;0.0;0.0;0.0;0.0;0.0
1.0;1753877891.612395;18.282814;0.98;-1.73;0.07;-0.674155;-0.754279;-0.025114;0.0;0.0;0.0;0.0;0.0;0.0
1.0;1753877891.616988;18.269396;0.91;-1.65;0.12;-0.67519;-0.754855;-0.023741;0.0;0.0;0.0;0.0;0.0;0.0
1.0;1753877891.621581;18.298638;0.96;-1.64;0.14;-0.671614;-0.752554;-0.02279;0.0;0.0;0.0;0.0;0.0;0.0
1.0;1753877891.626174;18.292443;1.01;-1.53;0.09;-0.671688;-0.753963;-0.022229;0.0;0.0;0.0;0.0;0.0;0.0
1.0;1753877891.630767;18.295678;0.99;-1.65;0.1;-0.67331;-0.755135;-0.024839;0.0;0.0;0.0;0.0;0.0;0.0
1.0;1753877891.63536;18.285227;0.91;-1.64;0.08;-0.672914;-0.754794;-0.023098;0.0;0.0;0.0;0.0;0.0;0.0
1.0;1753877891.639952;18.292011;0.98;-1.66;0.13;-0.673162;-0.755035;-0.023281;0.0;0.0;0.0;0.0;0.0;0.0
1.0;1753877891.644545;18.286226;0.83;-1.62;0.06;-0.673;-0.753654;-0.023516;0.0;0.0;0.0;0.0;0.0;0.0
1.0;1753877891.649138;18.293042;1.03;-1.66;0.09;-0.672285;-0.755029;-0.02261;0.0;0.0;0.0;0.0;0.0;0.0
1.0;1753877891.653731;18.280154;1.05;-1.6;0.11;-0.674475;-0.754461;-0.023448;0.0;0.0;0.0;0.0;0.0;0.0
1.0;1753877891.658324;18.291842;1.01;-1.66;0.15;-0.672882;-0.75364;-0.022764;0.0;0.0;0.0;0.0;0.0;0.0
1.0;1753877891.662917;18.29137;0.99;-1.6;0.12;-0.672915;-0.754229;-0.024976;0.0;0.0;0.0;0.0;0.0;0.0
1.0;1753877891.66751;18.272616;0.98;-1.73;0.13;-0.671353;-0.7555;-0.021546;0.0;0.0;0.0;0.0;0.0;0.0
1.0;1753877891.672103;18.276818;0.95;-1.6;0.12;-0.674811;-0.75241;-0.023883;0.0;0.0;0.0;0.0;0.0;0.0
1.0;1753877891.676696;18.289588;1.02;-1.72;0.06;-0.674532;-0.756135;-0.022094;0.0;0.0;0.0;0.0;0.0;0.0
1.0;1753877891.681288;18.268951;0.91;-1.62;0.17;-0.675082;-0.753571;-0.023542;0.0;0.0;0.0;0.0;0.0;0.0
1.0;1753877891.685882;18.275404;0.93;-1.67;0.12;-0.673034;-0.755139;-0.023058;0.0;0.0;0.0;0.0;0.0;0.0
1.0;1753877891.690474;18.297461;0.94;-1.74;0.01;-0.674627;-0.754356;-0.022747;0.0;0.0;0.0;0.0;0.0;0.0
1.0;1753877891.695067;18.277124;1.1;-1.52;0.15;-0.670872;-0.754865;-0.023677;0.0;0.0;0.0;0.0;0.0;0.0
1.0;1753877891.69966;18.288352;0.99;-1.62;0.13;-0.674007;-0.755656;-0.022102;0.0;0.0;0.0;0.0;0.0;0.0
1.0;1753877891.704253;18.291546;0.92;-1.57;0.14;-0.673799;-0.754013;-0.021893;0.0;0.0;0.0;0.0;0.0;0.0
1.0;1753877891.708846;18.279184;0.97;-1.56;0.15;-0.675061;-0.754238;-0.022999;0.0;0.0;0.0;0.0;0.0;0.0
1.0;1753877891.713439;18.295464;0.92;-1.73;0.14;-0.674762;-0.753491;-0.023615;0.0;0.0;0.0;0.0;0.0;0.0
1.0;1753877891.718032;18.28219;0.97;-1.62;0.07;-0.6755;-0.754932;-0.023131;0.0;0.0;0.0;0.0;0.0;0.0
1.0;1753877891.722624;18.273032;1.02;-1.59;0.14;-0.674032;-0.754108;-0.024701;0.0;0.0;0.0;0.0;0.0;0.0
1.0;1753877891.727218;18.288187;0.96;-1.73;0.23;-0.674505;-0.753972;-0.023931;0.0;0.0;0.0;0.0;0.0;0.0
1.0;1753877891.73181;18.266317;1.08;-1.56;0.05;-0.673747;-0.75416;-0.023367;0.0;0.0;0.0;0.0;0.0;0.0
1.0;1753877891.736403;18.292755;1.02;-1.73;0.14;-0.671783;-0.753589;-0.021789;0.0;0.0;0.0;0.0;0.0;0.0
1.0;1753877891.740996;18.26491;0.95;-1.62;0.09;-0.673898;-0.754428;-0.022603;0.0;0.0;0.0;0.0;0.0;0.0
1.0;1753877891.745589;18.279795;1.05;-1.53;0.02;-0.673885;-0.754228;-0.02104;0.0;0.0;0.0;0.0;0.0;0.0
1.0;1753877891.750182;18.292574;1.01;-1.57;0.12;-0.673788;-0.754464;-0.024189;0.0;0.0;0.0;0.0;0.0;0.0
1.0;1753877891.754775;18.279086;1.06;-1.69;0.16;-0.674112;-0.753037;-0.020154;0.0;0.0;0.0;0.0;0.0;0.0
1.0;1753877891.759368;18.304656;1.04;-1.63;0.21;-0.674172;-0.755033;-0.022574;0.0;0.0;0.0;0.0;0.0;0.0
1.0;1753877891.76396;18.300625;0.86;-1.61;0.18;-0.675358;-0.754248;-0.023229;0.0;0.0;0.0;0.0;0.0;0.0
1.0;1753877891.768554;18.28928;1.01;-1.74;0.06;-0.673026;-0.754216;-0.023585;0.0;0.0;0.0;0.0;0.0;0.0
1.0;1753877891.773146;18.278603;0.92;-1.68;0.13;-0.67306;-0.754525;-0.023792;0.0;0.0;0.0;0.0;0.0;0.0
1.0;1753877891.777739;18.278931;1.06;-1.68;0.07;-0.675766;-0.755722;-0.023776;0.0;0.0;0.0;0.0;0.0;0.0
1.0;1753877891.782332;18.293543;1.11;-1.59;0.15;-0.67346;-0.753111;-0.023779;0.0;0.0;0.0;0.0;0.0;0.0
1.0;1753877891.786925;18.288919;1.01;-1.55;0.13;-0.6744;-0.754895;-0.022205;0.0;0.0;0.0;0.0;0.0;0.0
1.0;1753877891.791518;18.284219;1.04;-1.67;0.14;-0.674135;-0.755037;-0.021882;0.0;0.0;0.0;0.0;0.0;0.0
1.0;1753877891.796111;18.284746;0.93;-1.68;0.11;-0.673906;-0.754369;-0.022862;0.0;0.0;0.0;0.0;0.0;0.0
1.0;1753877891.800704;18.276242;1.05;-1.6;0.12;-0.676201;-0.753801;-0.02295;0.0;0.0;0.0;0.0;0.0;0.0
1.0;1753877891.8061;18.289062;0.98;-1.61;0.14;-0.674782;-0.754692;-0.02257;0.0;0.0;0.0;0.0;0.0;0.0
1.0;1753877891.810693;18.30318;0.96;-1.59;0.02;-0.67595;-0.752636;-0.021905;0.0;0.0;0.0;0.0;0.0;0.0
1.0;1753877891.815286;18.302338;0.85;-1.63;0.06;-0.674235;-0.754906;-0.022091;0.0;0.0;0.0;0.0;0.0;0.0
1.0;1753877891.819878;18.296156;0.99;-1.61;0.16;-0.674943;-0.754893;-0.022367;0.0;0.0;0.0;0.0;0.0;0.0
1.0;1753877891.824472;18.287765;0.95;-1.67;0.08;-0.671541;-0.753419;-0.023058;0.0;0.0;0.0;0.0;0.0;0.0
1.0;1753877891.829064;18.301309;0.93;-1.58;0.14;-0.67362;-0.754319;-0.02199;0.0;0.0;0.0;0.0;0.0;0.0
1.0;1753877891.833657;18.305581;1.03;-1.57;0.2;-0.674827;-0.754279;-0.024542;0.0;0.0;0.0;0.0;0.0;0.0
1.0;1753877891.83825;18.292501;1.15;-1.56;0.11;-0.673949;-0.753813;-0.021775;0.0;0.0;0.0;0.0;0.0;0.0
1.0;1753877891.842843;18.308115;1.01;-1.73;0.05;-0.672375;-0.752664;-0.023898;0.0;0.0;0.0;0.0;0.0;0.0
1.0;1753877891.847436;18.301648;0.99;-1.75;0.16;-0.671436;-0.752172;-0.024662;0.0;0.0;0.0;0.0;0.0;0.0
1.0;1753877891.852029;18.317;1.11;-1.68;0.09;-0.67017;-0.753536;-0.0235;0.0;0.0;0.0;0.0;0.0;0.0
1.0;1753877891.85935;18.308594;1.12;-1.68;0.07;-0.67161;-0.752984;-0.023912;0.0;0.0;0.0;0.0;0.0;0.0
1.0;1753877891.863943;18.305052;0.98;-1.66;0.07;-0.67248;-0.75226;-0.024432;0.0;0.0;0.0;0.0;0.0;0.0
1.0;1753877891.868536;18.297902;1.11;-1.67;0.05;-0.672356;-0.753481;-0.023702;0.0;0.0;0.0;0.0;0.0;0.0
1.0;1753877891.873129;18.30064;1.13;-1.7;0.02;-0.672949;-0.753118;-0.024339;0.0;0.0;0.0;0.0;0.0;0.0
1.0;1753877891.877722;18.30985;1.12;-1.64;0.05;-0.670313;-0.753977;-0.024552;0.0;0.0;0.0;0.0;0.0;0.0
1.0;1753877891.882314;18.303739;1.14;-1.69;0.18;-0.671322;-0.753243;-0.02278;0.0;0.0;0.0;0.0;0.0;0.0
1.0;1753877891.886907;18.287835;1.04;-1.62;0.06;-0.670528;-0.754265;-0.023492;0.0;0.0;0.0;0.0;0.0;0.0
1.0;1753877891.8915;18.293448;1.05;-1.7;0.09;-0.673063;-0.753218;-0.024487;0.0;0.0;0.0;0.0;0.0;0.0
1.0;1753877891.896093;18.275355;1.05;-1.74;0.12;-0.672187;-0.753158;-0.023869;0.0;0.0;0.0;0.0;0.0;0.0
1.0;1753877891.90393;18.277344;1.05;-1.68;0.07;-0.671244;-0.753594;-0.022936;0.0;0.0;0.0;0.0;0.0;0.0
1.0;1753877891.908523;18.289521;1.09;-1.67;0.07;-0.6747;-0.754171;-0.022982;0.0;0.0;0.0;0.0;0.0;0.0
1.0;1753877891.913116;18.272514;1.04;-1.69;0.11;-0.672456;-0.752946;-0.023167;0.0;0.0;0.0;0.0;0.0;0.0
1.0;1753877891.917709;18.272144;1.09;-1.7;0.1;-0.673203;-0.75408;-0.021465;0.0;0.0;0.0;0.0;0.0;0.0
1.0;1753877891.922302;18.268807;0.95;-1.72;0.04;-0.672536;-0.753432;-0.022014;0.0;0.0;0.0;0.0;0.0;0.0
1.0;1753877891.926894;18.284793;1.1;-1.68;0.05;-0.672852;-0.753952;-0.024403;0.0;0.0;0.0;0.0;0.0;0.0
1.0;1753877891.931487;18.266967;1.1;-1.63;0.08;-0.671889;-0.753855;-0.022869;0.0;0.0;0.0;0.0;0.0;0.0
1.0;1753877891.93608;18.280802;1.11;-1.6;0.08;-0.67264;-0.753313;-0.02127;0.0;0.0;0.0;0.0;0.0;0.0
1.0;1753877891.940673;18.289869;1.11;-1.66;0.13;-0.671041;-0.75274;-0.021339;0.0;0.0;0.0;0.0;0.0;0.0
1.0;1753877891.945266;18.283621;1.07;-1.72;0.09;-0.674087;-0.754312;-0.021493;0.0;0.0;0.0;0.0;0.0;0.0
1.0;1753877891.94967;18.277344;1.05;-1.68;0.07;-0.673806;-0.754204;-0.022326;0.0;0.0;0.0;0.0;0.0;0.0
1.0;1753877891.954263;18.289302;0.93;-1.67;-0.04;-0.674236;-0.753632;-0.022957;0.0;0.0;0.0;0.0;0.0;0.0
1.0;1753877891.958856;18.289934;1.1;-1.73;0.12;-0.674026;-0.753334;-0.02225;0.0;0.0;0.0;0.0;0.0;0.0
1.0;1753877891.963449;18.283161;1.09;-1.69;0.01;-0.672154;-0.754338;-0.023775;0.0;0.0;0.0;0.0;0.0;0.0
1.0;1753877891.968042;18.281456;1.25;-1.67;0.09;-0.67287;-0.753047;-0.023689;0.0;0.0;0.0;0.0;0.0;0.0
1.0;1753877891.972634;18.266554;1.16;-1.73;0.02;-0.670585;-0.754752;-0.023029;0.0;0.0;0.0;0.0;0.0;0.0
1.0;1753877891.977228;18.272712;1.08;-1.74;0.12;-0.670029;-0.753959;-0.022141;0.0;0.0;0.0;0.0;0.0;0.0
1.0;1753877891.98182;18.291681;1.17;-1.8;0.03;-0.67163;-0.753752;-0.023718;0.0;0.0;0.0;0.0;0.0;0.0
1.0;1753877891.986413;18.277951;1.06;-1.73;0.04;-0.671749;-0.753064;-0.022148;0.0;0.0;0.0;0.0;0.0;0.0
1.0;1753877891.991006;18.266244;1.07;-1.75;0.06;-0.672201;-0.753946;-0.024726;0.0;0.0;0.0;0.0;0.0;0.0
1.0;1753877891.99544;18.277344;1.12;-1.75;0.07;-0.670512;-0.754326;-0.023668;0.0;0.0;0.0;0.0;0.0;0.0
1.0;1753877891.995834;18.277344;1.12;-1.75;0.14;-0.671366;-0.754936;-0.02379;0.0;0.0;0.0;0.0;0.0;0.0
1.0;1753877892.000427;18.262775;1.12;-1.71;0.1;-0.670683;-0.753594;-0.023379;0.0;0.0;0.0;0.0;0.0;0.0
1.0;1753877892.00502;18.283467;1.15;-1.77;0.18;-0.6712;-0.754822;-0.024039;0.0;0.0;0.0;0.0;0.0;0.0
1.0;1753877892.009613;18.256873;1.05;-1.79;0.22;-0.672799;-0.754511;-0.024228;0.0;0.0;0.0;0.0;0.0;0.0
1.0;1753877892.014206;18.258107;1.11;-1.82;0.16;-0.671566;-0.755346;-0.022955;0.0;0.0;0.0;0.0;0.0;0.0
1.0;1753877892.018798;18.28681;1.08;-1.78;0.11;-0.670483;-0.755929;-0.022795;0.0;0.0;0.0;0.0;0.0;0.0
1.0;1753877892.023392;18.274743;1.08;-1.68;0.19;-0.667337;-0.755443;-0.024459;0.0;0.0;0.0;0.0;0.0;0.0
1.0;1753877892.027984;18.288838;1.09;-1.77;0.09;-0.671709;-0.754785;-0.024208;0.0;0.0;0.0;0.0;0.0;0.0
1.0;1753877892.032577;18.279542;1.18;-1.77;0.09;-0.669128;-0.754492;-0.023291;0.0;0.0;0.0;0.0;0.0;0.0
1.0;1753877892.03717;18.273231;1.15;-1.76;0.16;-0.671428;-0.754742;-0.02411;0.0;0.0;0.0;0.0;0.0;0.0
1.0;1753877892.041763;18.296521;1.09;-1.69;0.15;-0.674026;-0.755194;-0.024229;0.0;0.0;0.0;0.0;0.0;0.0
1.0;1753877892.046356;18.280084;1.01;-1.7;0.13;-0.671967;-0.753066;-0.024056;0.0;0.0;0.0;0.0;0.0;0.0
1.0;1753877892.050949;18.264186;1.15;-1.75;0.15;-0.671834;-0.75445;-0.023709;0.0;0.0;0.0;0.0;0.0;0.0
1.0;1753877892.055542;18.230545;1.04;-1.77;0.15;-0.672053;-0.754982;-0.024611;0.0;0.0;0.0;0.0;0.0;0.0
1.0;1753877892.060135;18.283477;1.1;-1.7;0.26;-0.67184;-0.755638;-0.023499;0.0;0.0;0.0;0.0;0.0;0.0
1.0;1753877892.064728;18.255562;1.16;-1.64;0.14;-0.670553;-0.755339;-0.024179;0.0;0.0;0.0;0.0;0.0;0.0
1.0;1753877892.06932;18.288201;1.06;-1.79;0.15;-0.671273;-0.753939;-0.023746;0.0;0.0;0.0;0.0;0.0;0.0
1.0;1753877892.073913;18.272696;1.04;-1.74;0.1;-0.672459;-0.755127;-0.023765;0.0;0.0;0.0;0.0;0.0;0.0
1.0;1753877892.078506;18.260882;1.04;-1.66;0.1;-0.673335;-0.754851;-0.023555;0.0;0.0;0.0;0.0;0.0;0.0
1.0;1753877892.083099;18.272663;1.25;-1.72;0.16;-0.672179;-0.755237;-0.02309;0.0;0.0;0.0;0.0;0.0;0.0
1.0;1753877892.087692;18.276386;1.03;-1.66;0.18;-0.672875;-0.755174;-0.023748;0.0;0.0;0.0;0.0;0.0;0.0
1.0;1753877892.092285;18.249691;1.22;-1.6;0.18;-0.670855;-0.755126;-0.024325;0.0;0.0;0.0;0.0;0.0;0.0
1.0;1753877892.096878;18.24919;1.16;-1.71;0.14;-0.67227;-0.755509;-0.023932;0.0;0.0;0.0;0.0;0.0;0.0
1.0;1753877892.101471;18.23093;1.2;-1.73;0.11;-0.672939;-0.75391;-0.023976;0.0;0.0;0.0;0.0;0.0;0.0
1.0;1753877892.106064;18.280092;1.25;-1.64;0.16;-0.670695;-0.753744;-0.024817;0.0;0.0;0.0;0.0;0.0;0.0
1.0;1753877892.110656;18.289925;1.0;-1.65;0.09;-0.675083;-0.75458;-0.023697;0.0;0.0;0.0;0.0;0.0;0.0
1.0;1753877892.11525;18.286414;1.17;-1.64;0.13;-0.671113;-0.754997;-0.024348;0.0;0.0;0.0;0.0;0.0;0.0
1.0;1753877892.119842;18.268125;1.08;-1.71;0.15;-0.673906;-0.754086;-0.024181;0.0;0.0;0.0;0.0;0.0;0.0
1.0;1753877892.124435;18.242778;1.07;-1.71;0.2;-0.671879;-0.753811;-0.024224;0.0;0.0;0.0;0.0;0.0;0.0
1.0;1753877892.129028;18.27696;1.11;-1.64;0.09;-0.66974;-0.755722;-0.023568;0.0;0.0;0.0;0.0;0.0;0.0
1.0;1753877892.133621;18.26645;1.07;-1.74;0.09;-0.671794;-0.754087;-0.02443;0.0;0.0;0.0;0.0;0.0;0.0
1.0;1753877892.138214;18.265431;1.1;-1.66;0.09;-0.672091;-0.754703;-0.023886;0.0;0.0;0.0;0.0;0.0;0.0
1.0;1753877892.142807;18.287169;1.16;-1.82;0.1;-0.668733;-0.754071;-0.02355;0.0;0.0;0.0;0.0;0.0;0.0
1.0;1753877892.1474;18.271726;1.14;-1.64;0.27;-0.672867;-0.75524;-0.024141;0.0;0.0;0.0;0.0;0.0;0.0
1.0;1753877892.151992;18.273453;1.17;-1.68;0.07;-0.675964;-0.755297;-0.024576;0.0;0.0;0.0;0.0;0.0;0.0
1.0;1753877892.156586;18.272245;1.18;-1.65;0.13;-0.670815;-0.753432;-0.02346;0.0;0.0;0.0;0.0;0.0;0.0
1.0;1753877892.161178;18.28289;1.06;-1.7;0.21;-0.674285;-0.754167;-0.025099;0.0;0.0;0.0;0.0;0.0;0.0
1.0;1753877892.165771;18.278415;1.09;-1.73;0.23;-0.671433;-0.753901;-0.023935;0.0;0.0;0.0;0.0;0.0;0.0
1.0;1753877892.170364;18.258102;1.18;-1.75;0.02;-0.669341;-0.754716;-0.023357;0.0;0.0;0.0;0.0;0.0;0.0
1.0;1753877892.174957;18.321854;1.08;-1.72;0.14;-0.670719;-0.753364;-0.023426;0.0;0.0;0.0;0.0;0.0;0.0
1.0;1753877892.17955;18.328461;1.07;-1.79;0.2;-0.672821;-0.753838;-0.023923;0.0;0.0;0.0;0.0;0.0;0.0
1.0;1753877892.184143;18.279036;1.01;-1.67;0.21;-0.671051;-0.754583;-0.024135;0.0;0.0;0.0;0.0;0.0;0.0
1.0;1753877892.188736;18.282922;1.07;-1.74;0.11;-0.674675;-0.754977;-0.023997;0.0;0.0;0.0;0.0;0.0;0.0
1.0;1753877892.193328;18.252341;1.17;-1.74;0.04;-0.675076;-0.754035;-0.02477;0.0;0.0;0.0;0.0;0.0;0.0
1.0;1753877892.197922;18.293422;1.22;-1.66;0.12;-0.674088;-0.754575;-0.022965;0.0;0.0;0.0;0.0;0.0;0.0
1.0;1753877892.202514;18.288462;1.17;-1.7;0.17;-0.673854;-0.755034;-0.024122;0.0;0.0;0.0;0.0;0.0;0.0
1.0;1753877892.207107;18.29426;1.22;-1.63;0.15;-0.671169;-0.754536;-0.024819;0.0;0.0;0.0;0.0;0.0;0.0
1.0;1753877892.2117;18.274572;1.21;-1.67;0.06;-0.670849;-0.755783;-0.024671;0.0;0.0;0.0;0.0;0.0;0.0
1.0;1753877892.216293;18.272091;1.14;-1.65;0.21;-0.673914;-0.754487;-0.024689;0.0;0.0;0.0;0.0;0.0;0.0
1.0;1753877892.220886;18.262716;1.22;-1.67;0.13;-0.672178;-0.754303;-0.023585;0.0;0.0;0.0;0.0;0.0;0.0
1.0;1753877892.225479;18.267564;1.02;-1.66;0.22;-0.674075;-0.755667;-0.024057;0.0;0.0;0.0;0.0;0.0;0.0
1.0;1753877892.230072;18.302364;1.19;-1.59;0.05;-0.67026;-0.753924;-0.023364;0.0;0.0;0.0;0.0;0.0;0.0
1.0;1753877892.234665;18.305914;1.13;-1.73;0.19;-0.672295;-0.755094;-0.023562;0.0;0.0;0.0;0.0;0.0;0.0
1.0;1753877892.239258;18.292726;1.14;-1.65;0.12;-0.674301;-0.754043;-0.02443;0.0;0.0;0.0;0.0;0.0;0.0
1.0;1753877892.24385;18.283653;1.07;-1.7;0.16;-0.671908;-0.755531;-0.023355;0.0;0.0;0.0;0.0;0.0;0.0
1.0;1753877892.248443;18.262333;1.15;-1.76;0.15;-0.673782;-0.754978;-0.0242;0.0;0.0;0.0;0.0;0.0;0.0
1.0;1753877892.253036;18.273064;1.18;-1.59;0.13;-0.675217;-0.75501;-0.024526;0.0;0.0;0.0;0.0;0.0;0.0
1.0;1753877892.257629;18.3069;1.04;-1.64;0.18;-0.671725;-0.754161;-0.023611;0.0;0.0;0.0;0.0;0.0;0.0
1.0;1753877892.262222;18.248676;1.07;-1.63;0.04;-0.673702;-0.754099;-0.025032;0.0;0.0;0.0;0.0;0.0;0.0
1.0;1753877892.266815;18.282278;1.18;-1.71;0.19;-0.670941;-0.753415;-0.023876;0.0;0.0;0.0;0.0;0.0;0.0
1.0;1753877892.271408;18.283342;1.11;-1.63;0.13;-0.673847;-0.75403;-0.023498;0.0;0.0;0.0;0.0;0.0;0.0
1.0;1753877892.276001;18.275818;1.08;-1.73;0.14;-0.672534;-0.754261;-0.023031;0.0;0.0;0.0;0.0;0.0;0.0
1.0;1753877892.280594;18.288293;1.03;-1.62;0.15;-0.672006;-0.754222;-0.024741;0.0;0.0;0.0;0.0;0.0;0.0
1.0;1753877892.285186;18.289457;1.12;-1.71;0.13;-0.672162;-0.754901;-0.023366;0.0;0.0;0.0;0.0;0.0;0.0
1.0;1753877892.28978;18.274361;1.13;-1.6;0.13;-0.67352;-0.75458;-0.023379;0.0;0.0;0.0;0.0;0.0;0.0
1.0;1753877892.294372;18.273513;1.04;-1.78;0.08;-0.673274;-0.754356;-0.023494;0.0;0.0;0.0;0.0;0.0;0.0
1.0;1753877892.298965;18.274003;1.14;-1.67;0.18;-0.673688;-0.753662;-0.024648;0.0;0.0;0.0;0.0;0.0;0.0
1.0;1753877892.303558;18.272197;1.12;-1.67;0.26;-0.674397;-0.755688;-0.024317;0.0;0.0;0.0;0.0;0.0;0.0
1.0;1753877892.308151;18.26946;1.12;-1.66;0.2;-0.672506;-0.755214;-0.024624;0.0;0.0;0.0;0.0;0.0;0.0
1.0;1753877892.312744;18.300769;1.07;-1.64;0.07;-0.670515;-0.755324;-0.024723;0.0;0.0;0.0;0.0;0.0;0.0
1.0;1753877892.317337;18.271971;1.21;-1.72;0.12;-0.671735;-0.755745;-0.024027;0.0;0.0;0.0;0.0;0.0;0.0
1.0;1753877892.32193;18.300667;1.14;-1.67;0.08;-0.673814;-0.756134;-0.024182;0.0;0.0;0.0;0.0;0.0;0.0
1.0;1753877892.326522;18.274;1.2;-1.65;0.06;-0.671265;-0.754049;-0.024376;0.0;0.0;0.0;0.0;0.0;0.0
1.0;1753877892.331116;18.264123;1.04;-1.6;0.2;-0.673454;-0.754766;-0.023088;0.0;0.0;0.0;0.0;0.0;0.0
1.0;1753877892.335708;18.269433;1.06;-1.6;0.12;-0.672026;-0.754478;-0.024042;0.0;0.0;0.0;0.0;0.0;0.0
1.0;1753877892.340301;18.29858;1.04;-1.67;0.09;-0.675552;-0.75424;-0.023835;0.0;0.0;0.0;0.0;0.0;0.0
1.0;1753877892.344894;18.256757;1.14;-1.6;0.23;-0.671455;-0.754604;-0.023942;0.0;0.0;0.0;0.0;0.0;0.0
1.0;1753877892.349487;18.272013;1.1;-1.65;0.08;-0.672614;-0.754681;-0.02425;0.0;0.0;0.0;0.0;0.0;0.0
1.0;1753877892.35408;18.258439;1.13;-1.57;0.18;-0.673219;-0.754204;-0.024705;0.0;0.0;0.0;0.0;0.0;0.0
1.0;1753877892.358673;18.288909;1.15;-1.66;0.13;-0.674493;-0.75405;-0.024284;0.0;0.0;0.0;0.0;0.0;0.0
1.0;1753877892.363266;18.295781;1.2;-1.7;0.21;-0.670786;-0.754631;-0.02462;0.0;0.0;0.0;0.0;0.0;0.0
1.0;1753877892.367859;18.270148;1.1;-1.57;0.14;-0.67336;-0.754156;-0.022772;0.0;0.0;0.0;0.0;0.0;0.0
1.0;1753877892.372452;18.307932;1.16;-1.6;0.15;-0.671088;-0.754669;-0.024125;0.0;0.0;0.0;0.0;0.0;0.0
1.0;1753877892.377044;18.327892;1.09;-1.68;0.21;-0.673933;-0.755814;-0.024416;0.0;0.0;0.0;0.0;0.0;0.0
1.0;1753877892.381637;18.254977;1.13;-1.54;0.23;-0.670716;-0.75375;-0.024551;0.0;0.0;0.0;0.0;0.0;0.0
1.0;1753877892.38623;18.259035;1.1;-1.72;0.11;-0.671501;-0.7536;-0.023589;0.0;0.0;0.0;0.0;0.0;0.0
1.0;1753877892.390823;18.272157;1.06;-1.63;0.14;-0.670693;-0.754752;-0.023244;0.0;0.0;0.0;0.0;0.0;0.0
1.0;1753877892.395416;18.26563;1.11;-1.62;0.16;-0.671956;-0.753615;-0.024277;0.0;0.0;0.0;0.0;0.0;0.0
1.0;1753877892.400009;18.252521;1.08;-1.58;0.24;-0.673269;-0.754216;-0.024217;0.0;0.0;0.0;0.0;0.0;0.0
1.0;1753877892.404602;18.245578;1.15;-1.64;0.21;-0.674405;-0.753704;-0.02431;0.0;0.0;0.0;0.0;0.0;0.0
1.0;1753877892.412;18.277344;1.12;-1.61;0.14;-0.673196;-0.754082;-0.024034;0.0;0.0;0.0;0.0;0.0;0.0
1.0;1753877892.416593;18.28564;1.15;-1.64;0.17;-0.674499;-0.753843;-0.024619;0.0;0.0;0.0;0.0;0.0;0.0
1.0;1753877892.421186;18.23965;1.21;-1.62;0.15;-0.670875;-0.753583;-0.025305;0.0;0.0;0.0;0.0;0.0;0.0
1.0;1753877892.425779;18.290684;1.21;-1.66;0.11;-0.675268;-0.7541;-0.02408;0.0;0.0;0.0;0.0;0.0;0.0
1.0;1753877892.430372;18.267031;1.18;-1.61;-0.01;-0.672518;-0.754678;-0.024492;0.0;0.0;0.0;0.0;0.0;0.0
1.0;1753877892.434964;18.274178;1.07;-1.52;0.13;-0.671459;-0.753592;-0.023417;0.0;0.0;0.0;0.0;0.0;0.0
1.0;1753877892.439557;18.238979;1.06;-1.54;0.13;-0.67479;-0.754756;-0.023608;0.0;0.0;0.0;0.0;0.0;0.0
1.0;1753877892.44415;18.281915;1.09;-1.63;0.18;-0.670675;-0.754432;-0.023494;0.0;0.0;0.0;0.0;0.0;0.0
1.0;1753877892.448743;18.258969;1.26;-1.69;0.17;-0.672669;-0.753814;-0.023823;0.0;0.0;0.0;0.0;0.0;0.0
1.0;1753877892.453336;18.269806;1.11;-1.67;0.09;-0.674491;-0.753798;-0.023364;0.0;0.0;0.0;0.0;0.0;0.0
1.0;1753877892.457929;18.274797;1.11;-1.69;0.09;-0.673975;-0.754791;-0.023639;0.0;0.0;0.0;0.0;0.0;0.0
1.0;1753877892.462522;18.251227;1.07;-1.59;0.09;-0.674759;-0.754729;-0.024387;0.0;0.0;0.0;0.0;0.0;0.0
1.0;1753877892.467115;18.2473;1.14;-1.61;0.13;-0.673134;-0.75325;-0.024253;0.0;0.0;0.0;0.0;0.0;0.0
1.0;1753877892.471708;18.269419;1.12;-1.62;0.14;-0.672336;-0.753815;-0.023592;0.0;0.0;0.0;0.0;0.0;0.0
1.0;1753877892.4763;18.276591;1.06;-1.62;0.2;-0.672625;-0.754073;-0.023033;0.0;0.0;0.0;0.0;0.0;0.0
1.0;1753877892.480893;18.27939;1.12;-1.63;0.11;-0.671499;-0.753741;-0.023656;0.0;0.0;0.0;0.0;0.0;0.0
1.0;1753877892.485486;18.299606;1.12;-1.65;0.2;-0.67197;-0.753715;-0.024211;0.0;0.0;0.0;0.0;0.0;0.0
1.0;1753877892.490079;18.249019;1.1;-1.66;0.09;-0.672543;-0.753605;-0.023574;0.0;0.0;0.0;0.0;0.0;0.0
1.0;1753877892.494672;18.287517;1.15;-1.64;0.04;-0.670687;-0.753901;-0.024225;0.0;0.0;0.0;0.0;0.0;0.0
1.0;1753877892.499265;18.279874;1.06;-1.57;0.16;-0.672653;-0.75371;-0.02364;0.0;0.0;0.0;0.0;0.0;0.0
1.0;1753877892.503858;18.266244;1.07;-1.76;0.05;-0.674959;-0.753407;-0.024157;0.0;0.0;0.0;0.0;0.0;0.0
1.0;1753877892.508451;18.267248;1.23;-1.7;0.14;-0.673582;-0.753072;-0.022502;0.0;0.0;0.0;0.0;0.0;0.0
1.0;1753877892.513044;18.237435;1.02;-1.62;-0.01;-0.675969;-0.754635;-0.024514;0.0;0.0;0.0;0.0;0.0;0.0
1.0;1753877892.517636;18.278403;1.13;-1.62;0.15;-0.671941;-0.754016;-0.023567;0.0;0.0;0.0;0.0;0.0;0.0
1.0;1753877892.52223;18.25307;1.02;-1.6;0.18;-0.674125;-0.752671;-0.023579;0.0;0.0;0.0;0.0;0.0;0.0
1.0;1753877892.526822;18.290172;1.06;-1.63;0.16;-0.671034;-0.753751;-0.024061;0.0;0.0;0.0;0.0;0.0;0.0
1.0;1753877892.531415;18.266171;1.29;-1.56;0.13;-0.672015;-0.753697;-0.02449;0.0;0.0;0.0;0.0;0.0;0.0
1.0;1753877892.536008;18.266249;1.05;-1.72;0.15;-0.674638;-0.752759;-0.024368;0.0;0.0;0.0;0.0;0.0;0.0
1.0;1753877892.540601;18.290861;1.08;-1.63;0.11;-0.671157;-0.753236;-0.025093;0.0;0.0;0.0;0.0;0.0;0.0
1.0;1753877892.545194;18.275808;1.05;-1.57;0.12;-0.672447;-0.755961;-0.025185;0.0;0.0;0.0;0.0;0.0;0.0
1.0;1753877892.549787;18.250277;1.12;-1.69;0.09;-0.674473;-0.753493;-0.024714;0.0;0.0;0.0;0.0;0.0;0.0
1.0;1753877892.55438;18.258874;1.05;-1.67;0.18;-0.674491;-0.755379;-0.024177;0.0;0.0;0.0;0.0;0.0;0.0
1.0;1753877892.558972;18.295346;1.16;-1.6;0.06;-0.673937;-0.753968;-0.02427;0.0;0.0;0.0;0.0;0.0;0.0
1.0;1753877892.563566;18.269944;1.2;-1.67;0.11;-0.673315;-0.754002;-0.024981;0.0;0.0;0.0;0.0;0.0;0.0
1.0;1753877892.568158;18.296762;1.1;-1.64;0.22;-0.672468;-0.754394;-0.023678;0.0;0.0;0.0;0.0;0.0;0.0
1.0;1753877892.572751;18.258389;1.11;-1.62;0.15;-0.674411;-0.754131;-0.023962;0.0;0.0;0.0;0.0;0.0;0.0
1.0;1753877892.577344;18.261651;1.06;-1.67;0.2;-0.66884;-0.754451;-0.024295;0.0;0.0;0.0;0.0;0.0;0.0
1.0;1753877892.581937;18.253025;1.03;-1.69;0.14;-0.674114;-0.755415;-0.024575;0.0;0.0;0.0;0.0;0.0;0.0
1.0;1753877892.58653;18.271056;1.11;-1.63;0.12;-0.674016;-0.754227;-0.024013;0.0;0.0;0.0;0.0;0.0;0.0
1.0;1753877892.591123;18.296951;1.08;-1.6;0.16;-0.671099;-0.754493;-0.02391;0.0;0.0;0.0;0.0;0.0;0.0
1.0;1753877892.595716;18.261797;1.01;-1.54;0.13;-0.671923;-0.754802;-0.023944;0.0;0.0;0.0;0.0;0.0;0.0
1.0;1753877892.600309;18.276472;1.04;-1.56;0.14;-0.673491;-0.75502;-0.02369;0.0;0.0;0.0;0.0;0.0;0.0
1.0;1753877892.604902;18.242165;1.11;-1.59;0.1;-0.672381;-0.754073;-0.024337;0.0;0.0;0.0;0.0;0.0;0.0
1.0;1753877892.609494;18.291434;0.97;-1.67;0.09;-0.671657;-0.755515;-0.023736;0.0;0.0;0.0;0.0;0.0;0.0
1.0;1753877892.614087;18.263703;1.04;-1.63;0.06;-0.671937;-0.754693;-0.023686;0.0;0.0;0.0;0.0;0.0;0.0
1.0;1753877892.61868;18.259027;1.08;-1.69;0.1;-0.673842;-0.753971;-0.023856;0.0;0.0;0.0;0.0;0.0;0.0
1.0;1753877892.623273;18.297968;0.98;-1.72;0.11;-0.671222;-0.752665;-0.023252;0.0;0.0;0.0;0.0;0.0;0.0
1.0;1753877892.627866;18.282056;1.07;-1.6;0.12;-0.67246;-0.754364;-0.02427;0.0;0.0;0.0;0.0;0.0;0.0
1.0;1753877892.632459;18.265353;1.0;-1.7;0.13;-0.67338;-0.755727;-0.023667;0.0;0.0;0.0;0.0;0.0;0.0
1.0;1753877892.637052;18.224283;1.16;-1.64;0.08;-0.671242;-0.754517;-0.024279;0.0;0.0;0.0;0.0;0.0;0.0
1.0;1753877892.641645;18.253462;1.07;-1.72;0.16;-0.674656;-0.755661;-0.023745;0.0;0.0;0.0;0.0;0.0;0.0
1.0;1753877892.646238;18.233072;1.1;-1.68;0.06;-0.672829;-0.75409;-0.024273;0.0;0.0;0.0;0.0;0.0;0.0
1.0;1753877892.65083;18.229071;0.91;-1.75;0.1;-0.671345;-0.754704;-0.024162;0.0;0.0;0.0;0.0;0.0;0.0
1.0;1753877892.655424;18.248365;1.07;-1.63;0.06;-0.670561;-0.755475;-0.024196;0.0;0.0;0.0;0.0;0.0;0.0
1.0;1753877892.660016;18.282557;1.08;-1.64;0.01;-0.672879;-0.753984;-0.024691;0.0;0.0;0.0;0.0;0.0;0.0
1.0;1753877892.664609;18.280147;1.08;-1.56;0.19;-0.672742;-0.754107;-0.024205;0.0;0.0;0.0;0.0;0.0;0.0
1.0;1753877892.669202;18.298046;1.04;-1.54;0.11;-0.671538;-0.755067;-0.023228;0.0;0.0;0.0;0.0;0.0;0.0
1.0;1753877892.673795;18.225713;1.05;-1.62;0.09;-0.672608;-0.754959;-0.024311;0.0;0.0;0.0;0.0;0.0;0.0
1.0;1753877892.678388;18.260377;1.12;-1.65;0.02;-0.67172;-0.755441;-0.023777;0.0;0.0;0.0;0.0;0.0;0.0
1.0;1753877892.682981;18.251955;1.01;-1.62;0.08;-0.673814;-0.754192;-0.024592;0.0;0.0;0.0;0.0;0.0;0.0
1.0;1753877892.687574;18.233952;1.05;-1.64;0.11;-0.67323;-0.754949;-0.024612;0.0;0.0;0.0;0.0;0.0;0.0
1.0;1753877892.692166;18.238439;0.95;-1.57;0.07;-0.673728;-0.754623;-0.023906;0.0;0.0;0.0;0.0;0.0;0.0
1.0;1753877892.69676;18.232759;1.24;-1.73;0.16;-0.675132;-0.754141;-0.024407;0.0;0.0;0.0;0.0;0.0;0.0
1.0;1753877892.701352;18.31186;1.07;-1.65;0.08;-0.67308;-0.754958;-0.024247;0.0;0.0;0.0;0.0;0.0;0.0
1.0;1753877892.705945;18.266884;1.06;-1.65;0.15;-0.671222;-0.754223;-0.023378;0.0;0.0;0.0;0.0;0.0;0.0
1.0;1753877892.710538;18.260894;1.02;-1.65;0.1;-0.672922;-0.754865;-0.025208;0.0;0.0;0.0;0.0;0.0;0.0
1.0;1753877892.715131;18.237912;1.09;-1.61;0.13;-0.673582;-0.754549;-0.025542;0.0;0.0;0.0;0.0;0.0;0.0
1.0;1753877892.719724;18.241841;1.06;-1.69;0.09;-0.66813;-0.75409;-0.024711;0.0;0.0;0.0;0.0;0.0;0.0
1.0;1753877892.724317;18.26742;0.99;-1.61;0.02;-0.671883;-0.754221;-0.024289;0.0;0.0;0.0;0.0;0.0;0.0
1.0;1753877892.72891;18.286442;1.01;-1.58;0.15;-0.673731;-0.754118;-0.024238;0.0;0.0;0.0;0.0;0.0;0.0
1.0;1753877892.733503;18.275605;1.01;-1.67;-0.01;-0.671623;-0.755447;-0.024588;0.0;0.0;0.0;0.0;0.0;0.0
1.0;1753877892.738096;18.270677;1.06;-1.59;0.13;-0.673597;-0.754664;-0.024147;0.0;0.0;0.0;0.0;0.0;0.0
1.0;1753877892.742688;18.259863;1.19;-1.69;0.08;-0.670532;-0.753341;-0.02358;0.0;0.0;0.0;0.0;0.0;0.0
1.0;1753877892.747281;18.25606;1.1;-1.61;0.15;-0.672406;-0.754249;-0.024178;0.0;0.0;0.0;0.0;0.0;0.0
1.0;1753877892.751874;18.239417;1.06;-1.62;0.1;-0.670836;-0.754459;-0.024522;0.0;0.0;0.0;0.0;0.0;0.0
1.0;1753877892.756467;18.27002;0.95;-1.64;0.04;-0.673585;-0.754662;-0.022962;0.0;0.0;0.0;0.0;0.0;0.0
1.0;1753877892.76106;18.24985;1.0;-1.63;0.04;-0.674124;-0.753885;-0.024409;0.0;0.0;0.0;0.0;0.0;0.0
1.0;1753877892.765653;18.263257;1.08;-1.54;0.08;-0.668575;-0.754661;-0.023653;0.0;0.0;0.0;0.0;0.0;0.0
1.0;1753877892.770246;18.260495;0.93;-1.71;0.2;-0.673023;-0.755098;-0.025274;0.0;0.0;0.0;0.0;0.0;0.0
1.0;1753877892.774839;18.289341;1.01;-1.63;0.1;-0.672163;-0.754057;-0.024942;0.0;0.0;0.0;0.0;0.0;0.0
1.0;1753877892.779432;18.290469;1.1;-1.63;0.14;-0.67097;-0.753978;-0.023424;0.0;0.0;0.0;0.0;0.0;0.0
1.0;1753877892.784024;18.25201;1.01;-1.59;0.09;-0.672277;-0.754133;-0.023506;0.0;0.0;0.0;0.0;0.0;0.0
1.0;1753877892.788617;18.251827;1.0;-1.68;0.21;-0.672861;-0.754687;-0.024401;0.0;0.0;0.0;0.0;0.0;0.0
1.0;1753877892.79321;18.261671;0.98;-1.7;0.1;-0.67016;-0.754014;-0.02433;0.0;0.0;0.0;0.0;0.0;0.0
1.0;1753877892.797803;18.263959;0.93;-1.63;0.01;-0.673236;-0.754614;-0.024473;0.0;0.0;0.0;0.0;0.0;0.0
1.0;1753877892.802396;18.250028;0.95;-1.65;0.03;-0.672485;-0.754633;-0.024775;0.0;0.0;0.0;0.0;0.0;0.0
1.0;1753877892.806989;18.244935;1.06;-1.63;0.04;-0.672224;-0.75452;-0.023174;0.0;0.0;0.0;0.0;0.0;0.0
1.0;1753877892.811582;18.235446;1.05;-1.75;0.09;-0.672506;-0.75446;-0.023572;0.0;0.0;0.0;0.0;0.0;0.0
1.0;1753877892.816175;18.257128;1.05;-1.74;0.13;-0.670775;-0.755345;-0.024557;0.0;0.0;0.0;0.0;0.0;0.0
1.0;1753877892.820768;18.262727;1.17;-1.64;0.14;-0.669694;-0.754616;-0.02326;0.0;0.0;0.0;0.0;0.0;0.0
1.0;1753877892.82536;18.239042;0.87;-1.72;0.14;-0.669913;-0.753031;-0.023128;0.0;0.0;0.0;0.0;0.0;0.0
1.0;1753877892.829954;18.283995;0.91;-1.63;0.08;-0.673356;-0.754558;-0.02463;0.0;0.0;0.0;0.0;0.0;0.0
1.0;1753877892.834546;18.295545;0.94;-1.71;0.04;-0.672738;-0.753561;-0.024432;0.0;0.0;0.0;0.0;0.0;0.0
1.0;1753877892.839139;18.204138;1.19;-1.61;0.04;-0.671303;-0.755389;-0.023796;0.0;0.0;0.0;0.0;0.0;0.0
1.0;1753877892.843732;18.243387;0.95;-1.58;0.07;-0.672615;-0.755123;-0.024105;0.0;0.0;0.0;0.0;0.0;0.0
1.0;1753877892.848325;18.246199;1.04;-1.67;0.15;-0.67355;-0.753876;-0.02446;0.0;0.0;0.0;0.0;0.0;0.0
1.0;1753877892.852918;18.28383;1.02;-1.74;0.08;-0.670488;-0.753721;-0.024274;0.0;0.0;0.0;0.0;0.0;0.0
1.0;1753877892.857511;18.250138;1.03;-1.72;0.02;-0.674103;-0.753335;-0.024991;0.0;0.0;0.0;0.0;0.0;0.0
1.0;1753877892.862104;18.242912;1.05;-1.8;0.02;-0.673579;-0.75458;-0.024832;0.0;0.0;0.0;0.0;0.0;0.0
1.0;1753877892.866696;18.235098;1.04;-1.69;0.13;-0.67269;-0.753302;-0.023893;0.0;0.0;0.0;0.0;0.0;0.0
1.0;1753877892.87129;18.267131;1.02;-1.63;0.12;-0.673562;-0.754873;-0.024615;0.0;0.0;0.0;0.0;0.0;0.0
1.0;1753877892.875882;18.273082;0.95;-1.56;0.03;-0.671603;-0.754262;-0.024713;0.0;0.0;0.0;0.0;0.0;0.0
1.0;1753877892.880475;18.276912;1.12;-1.64;-0.04;-0.671881;-0.754289;-0.024046;0.0;0.0;0.0;0.0;0.0;0.0
1.0;1753877892.885068;18.252707;0.86;-1.66;0.15;-0.671412;-0.754469;-0.024182;0.0;0.0;0.0;0.0;0.0;0.0
1.0;1753877892.889661;18.212201;1.02;-1.69;0.02;-0.672565;-0.754032;-0.023783;0.0;0.0;0.0;0.0;0.0;0.0
1.0;1753877892.894254;18.25405;0.99;-1.71;0.06;-0.670348;-0.753926;-0.024393;0.0;0.0;0.0;0.0;0.0;0.0
1.0;1753877892.898847;18.259382;1.01;-1.68;0.12;-0.672625;-0.754354;-0.024945;0.0;0.0;0.0;0.0;0.0;0.0
1.0;1753877892.90344;18.2345;0.99;-1.69;0.05;-0.668466;-0.754167;-0.02475;0.0;0.0;0.0;0.0;0.0;0.0
1.0;1753877892.908033;18.250981;1.17;-1.68;0.15;-0.669848;-0.754131;-0.023507;0.0;0.0;0.0;0.0;0.0;0.0
1.0;1753877892.912626;18.222592;0.99;-1.64;0.02;-0.670162;-0.753265;-0.025074;0.0;0.0;0.0;0.0;0.0;0.0
1.0;1753877892.917218;18.225768;0.94;-1.59;0.14;-0.672078;-0.75441;-0.024645;0.0;0.0;0.0;0.0;0.0;0.0
1.0;1753877892.921811;18.264764;0.93;-1.63;0.04;-0.670941;-0.754971;-0.024116;0.0;0.0;0.0;0.0;0.0;0.0
1.0;1753877892.926404;18.255123;0.93;-1.74;0.05;-0.674536;-0.754624;-0.023967;0.0;0.0;0.0;0.0;0.0;0.0
1.0;1753877892.930997;18.241699;0.97;-1.61;0.01;-0.67291;-0.754841;-0.024056;0.0;0.0;0.0;0.0;0.0;0.0
1.0;1753877892.93559;18.260019;1.03;-1.72;-0.08;-0.672575;-0.75565;-0.024747;0.0;0.0;0.0;0.0;0.0;0.0
1.0;1753877892.940183;18.246032;1.07;-1.65;0.08;-0.674687;-0.755131;-0.024367;0.0;0.0;0.0;0.0;0.0;0.0
1.0;1753877892.944776;18.236091;0.9;-1.67;0.15;-0.672722;-0.755341;-0.024171;0.0;0.0;0.0;0.0;0.0;0.0
1.0;1753877892.949369;18.248104;1.0;-1.62;0.09;-0.670235;-0.754756;-0.023913;0.0;0.0;0.0;0.0;0.0;0.0
1.0;1753877892.953962;18.210118;1.03;-1.72;0.01;-0.672139;-0.755375;-0.024033;0.0;0.0;0.0;0.0;0.0;0.0
1.0;1753877892.958554;18.267986;0.99;-1.7;0.13;-0.670757;-0.754687;-0.025135;0.0;0.0;0.0;0.0;0.0;0.0
1.0;1753877892.9635;18.25;0.98;-1.68;0.07;-0.671488;-0.754448;-0.0244;0.0;0.0;0.0;0.0;0.0;0.0
1.0;1753877892.96671;18.234375;1.05;-1.61;0.0;-0.671976;-0.752862;-0.021594;0.0;0.0;0.0;0.0;0.0;0.0
1.0;1753877892.969774;18.207031;1.12;-1.68;0.07;-0.673928;-0.754082;-0.024644;0.0;0.0;0.0;0.0;0.0;0.0
1.0;1753877892.974467;18.242188;1.05;-1.61;0.14;-0.672586;-0.754326;-0.0244;0.0;0.0;0.0;0.0;0.0;0.0
1.0;1753877892.979022;18.242188;0.98;-1.68;0.14;-0.671366;-0.753472;-0.024888;0.0;0.0;0.0;0.0;0.0;0.0
1.0;1753877892.983615;18.229349;1.07;-1.69;0.04;-0.672555;-0.754048;-0.021875;0.0;0.0;0.0;0.0;0.0;0.0
1.0;1753877892.987905;18.242188;0.98;-1.68;-0.07;-0.673928;-0.75335;-0.023424;0.0;0.0;0.0;0.0;0.0;0.0
1.0;1753877892.989075;18.242188;1.05;-1.61;0.0;-0.67161;-0.753716;-0.025864;0.0;0.0;0.0;0.0;0.0;0.0
1.0;1753877892.997056;18.289062;1.05;-1.68;0.14;-0.672098;-0.755302;-0.025498;0.0;0.0;0.0;0.0;0.0;0.0
1.0;1753877892.997264;18.289062;1.05;-1.61;0.07;-0.671366;-0.754082;-0.024156;0.0;0.0;0.0;0.0;0.0;0.0
1.0;1753877893.001857;18.276362;1.02;-1.62;-0.02;-0.672833;-0.754039;-0.025069;0.0;0.0;0.0;0.0;0.0;0.0
1.0;1753877893.00645;18.289907;0.9;-1.61;0.17;-0.670833;-0.754857;-0.023026;0.0;0.0;0.0;0.0;0.0;0.0
1.0;1753877893.011042;18.371912;1.06;-1.55;0.05;-0.670272;-0.754429;-0.024221;0.0;0.0;0.0;0.0;0.0;0.0
1.0;1753877893.015636;18.263693;1.1;-1.64;0.01;-0.671043;-0.754332;-0.024015;0.0;0.0;0.0;0.0;0.0;0.0
1.0;1753877893.020228;18.276495;1.04;-1.58;0.06;-0.671721;-0.753943;-0.025783;0.0;0.0;0.0;0.0;0.0;0.0
1.0;1753877893.024821;18.276641;1.04;-1.64;-0.04;-0.671149;-0.752433;-0.024858;0.0;0.0;0.0;0.0;0.0;0.0
1.0;1753877893.029414;18.314555;0.94;-1.67;0.2;-0.669305;-0.754261;-0.024519;0.0;0.0;0.0;0.0;0.0;0.0
1.0;1753877893.034007;18.255045;1.05;-1.62;0.15;-0.671454;-0.754571;-0.024245;0.0;0.0;0.0;0.0;0.0;0.0
1.0;1753877893.0386;18.27733;1.1;-1.65;0.04;-0.671451;-0.754123;-0.024628;0.0;0.0;0.0;0.0;0.0;0.0
1.0;1753877893.043193;18.286554;1.09;-1.65;0.15;-0.671868;-0.754284;-0.025205;0.0;0.0;0.0;0.0;0.0;0.0
1.0;1753877893.047786;18.285915;1.08;-1.63;0.15;-0.67155;-0.754772;-0.024889;0.0;0.0;0.0;0.0;0.0;0.0
1.0;1753877893.052379;18.263929;1.06;-1.69;0.12;-0.670827;-0.754202;-0.024379;0.0;0.0;0.0;0.0;0.0;0.0
1.0;1753877893.056972;18.291154;1.1;-1.64;0.19;-0.671723;-0.753728;-0.023744;0.0;0.0;0.0;0.0;0.0;0.0
1.0;1753877893.061564;18.278212;1.07;-1.63;0.1;-0.672073;-0.753649;-0.025449;0.0;0.0;0.0;0.0;0.0;0.0
1.0;1753877893.066157;18.322501;1.06;-1.51;0.1;-0.671659;-0.753396;-0.024142;0.0;0.0;0.0;0.0;0.0;0.0
1.0;1753877893.07075;18.269529;1.01;-1.66;0.03;-0.672305;-0.752541;-0.024702;0.0;0.0;0.0;0.0;0.0;0.0
1.0;1753877893.075343;18.286873;1.05;-1.66;0.04;-0.672256;-0.753766;-0.024395;0.0;0.0;0.0;0.0;0.0;0.0
1.0;1753877893.079936;18.259206;1.11;-1.56;0.0;-0.672959;-0.75384;-0.023388;0.0;0.0;0.0;0.0;0.0;0.0
1.0;1753877893.084529;18.28932;0.98;-1.56;0.09;-0.669409;-0.753887;-0.024329;0.0;0.0;0.0;0.0;0.0;0.0
1.0;1753877893.089122;18.306955;1.0;-1.58;0.04;-0.672896;-0.753208;-0.023694;0.0;0.0;0.0;0.0;0.0;0.0
1.0;1753877893.093715;18.288353;1.02;-1.56;0.0;-0.671467;-0.754281;-0.023719;0.0;0.0;0.0;0.0;0.0;0.0
1.0;1753877893.098308;18.232838;1.04;-1.63;0.04;-0.670527;-0.753405;-0.025243;0.0;0.0;0.0;0.0;0.0;0.0
1.0;1753877893.1029;18.268367;1.02;-1.64;0.07;-0.671424;-0.753345;-0.024103;0.0;0.0;0.0;0.0;0.0;0.0
1.0;1753877893.107494;18.273786;1.07;-1.69;0.09;-0.672881;-0.753634;-0.024716;0.0;0.0;0.0;0.0;0.0;0.0
1.0;1753877893.112086;18.290906;1.07;-1.68;0.03;-0.672103;-0.753848;-0.025312;0.0;0.0;0.0;0.0;0.0;0.0
1.0;1753877893.116679;18.304663;1.08;-1.58;0.2;-0.672105;-0.752381;-0.024718;0.0;0.0;0.0;0.0;0.0;0.0
1.0;1753877893.121272;18.320477;1.01;-1.67;0.1;-0.671837;-0.753555;-0.023344;0.0;0.0;0.0;0.0;0.0;0.0
1.0;1753877893.125865;18.297696;1.02;-1.52;0.1;-0.671905;-0.752527;-0.023976;0.0;0.0;0.0;0.0;0.0;0.0
1.0;1753877893.130458;18.343632;1.11;-1.61;0.04;-0.671885;-0.753493;-0.026008;0.0;0.0;0.0;0.0;0.0;0.0
1.0;1753877893.135051;18.256551;1.05;-1.55;-0.06;-0.672579;-0.75341;-0.024368;0.0;0.0;0.0;0.0;0.0;0.0
1.0;1753877893.139644;18.293256;1.03;-1.59;-0.0;-0.670804;-0.752973;-0.025098;0.0;0.0;0.0;0.0;0.0;0.0
1.0;1753877893.144236;18.293736;1.08;-1.52;0.11;-0.672491;-0.752191;-0.024385;0.0;0.0;0.0;0.0;0.0;0.0
1.0;1753877893.14883;18.270506;1.04;-1.65;0.13;-0.6731;-0.754427;-0.024148;0.0;0.0;0.0;0.0;0.0;0.0
1.0;1753877893.153422;18.275596;1.0;-1.63;0.11;-0.67308;-0.753268;-0.02474;0.0;0.0;0.0;0.0;0.0;0.0
1.0;1753877893.158015;18.324669;1.0;-1.63;0.12;-0.671913;-0.753809;-0.024651;0.0;0.0;0.0;0.0;0.0;0.0
1.0;1753877893.162608;18.280403;1.01;-1.57;0.0;-0.672821;-0.752411;-0.025064;0.0;0.0;0.0;0.0;0.0;0.0
1.0;1753877893.167201;18.265032;1.09;-1.61;0.07;-0.673838;-0.752975;-0.023784;0.0;0.0;0.0;0.0;0.0;0.0
1.0;1753877893.171794;18.298401;1.04;-1.56;0.03;-0.670353;-0.752225;-0.024064;0.0;0.0;0.0;0.0;0.0;0.0
1.0;1753877893.176387;18.268478;1.09;-1.63;0.11;-0.671969;-0.753133;-0.02441;0.0;0.0;0.0;0.0;0.0;0.0
1.0;1753877893.1835;18.289062;1.05;-1.61;0.07;-0.672342;-0.752862;-0.024522;0.0;0.0;0.0;0.0;0.0;0.0
1.0;1753877893.188093;18.294865;0.99;-1.57;0.09;-0.671651;-0.753255;-0.025196;0.0;0.0;0.0;0.0;0.0;0.0
1.0;1753877893.192686;18.244548;1.0;-1.59;0.01;-0.671359;-0.752235;-0.024279;0.0;0.0;0.0;0.0;0.0;0.0
1.0;1753877893.197279;18.287118;1.02;-1.66;0.11;-0.671543;-0.753158;-0.024856;0.0;0.0;0.0;0.0;0.0;0.0
1.0;1753877893.201872;18.306637;1.07;-1.57;0.06;-0.67281;-0.753397;-0.02416;0.0;0.0;0.0;0.0;0.0;0.0
1.0;1753877893.206464;18.25089;0.93;-1.57;0.03;-0.67215;-0.753126;-0.022934;0.0;0.0;0.0;0.0;0.0;0.0
1.0;1753877893.211058;18.281194;1.05;-1.67;0.06;-0.670998;-0.752414;-0.024338;0.0;0.0;0.0;0.0;0.0;0.0
1.0;1753877893.21565;18.261085;1.06;-1.57;0.04;-0.673131;-0.753092;-0.025489;0.0;0.0;0.0;0.0;0.0;0.0
1.0;1753877893.220243;18.288946;1.05;-1.58;-0.01;-0.672373;-0.752955;-0.024524;0.0;0.0;0.0;0.0;0.0;0.0
1.0;1753877893.224836;18.294474;1.1;-1.63;-0.01;-0.672653;-0.753605;-0.024165;0.0;0.0;0.0;0.0;0.0;0.0
1.0;1753877893.229429;18.261331;1.07;-1.68;0.09;-0.672298;-0.751875;-0.023601;0.0;0.0;0.0;0.0;0.0;0.0
1.0;1753877893.234022;18.331547;1.01;-1.66;0.04;-0.673102;-0.752544;-0.024203;0.0;0.0;0.0;0.0;0.0;0.0
1.0;1753877893.238615;18.287731;1.11;-1.63;0.06;-0.672313;-0.752827;-0.024457;0.0;0.0;0.0;0.0;0.0;0.0
1.0;1753877893.243208;18.272853;1.08;-1.64;0.09;-0.672003;-0.753582;-0.024723;0.0;0.0;0.0;0.0;0.0;0.0
1.0;1753877893.2478;18.351976;0.99;-1.63;0.08;-0.672027;-0.75266;-0.024783;0.0;0.0;0.0;0.0;0.0;0.0
1.0;1753877893.252394;18.286138;1.04;-1.67;0.1;-0.674399;-0.752948;-0.025466;0.0;0.0;0.0;0.0;0.0;0.0
1.0;1753877893.256986;18.318179;1.06;-1.59;0.07;-0.671711;-0.753376;-0.025167;0.0;0.0;0.0;0.0;0.0;0.0
1.0;1753877893.261579;18.28489;1.06;-1.59;-0.01;-0.672313;-0.753551;-0.022827;0.0;0.0;0.0;0.0;0.0;0.0
1.0;1753877893.266172;18.292495;1.08;-1.55;0.05;-0.671365;-0.753251;-0.023874;0.0;0.0;0.0;0.0;0.0;0.0
1.0;1753877893.270765;18.312012;1.05;-1.66;0.14;-0.672208;-0.754179;-0.024038;0.0;0.0;0.0;0.0;0.0;0.0
1.0;1753877893.275358;18.287199;1.05;-1.61;0.04;-0.673956;-0.752648;-0.023558;0.0;0.0;0.0;0.0;0.0;0.0
1.0;1753877893.279951;18.330537;1.0;-1.64;0.08;-0.671458;-0.753363;-0.025042;0.0;0.0;0.0;0.0;0.0;0.0
1.0;1753877893.284544;18.271927;1.01;-1.62;0.02;-0.672452;-0.753857;-0.023573;0.0;0.0;0.0;0.0;0.0;0.0
1.0;1753877893.289137;18.264356;1.04;-1.72;0.15;-0.671735;-0.753079;-0.023261;0.0;0.0;0.0;0.0;0.0;0.0
1.0;1753877893.29373;18.261281;1.01;-1.57;0.13;-0.674919;-0.754448;-0.022615;0.0;0.0;0.0;0.0;0.0;0.0
1.0;1753877893.298322;18.282215;1.1;-1.69;0.12;-0.67279;-0.753452;-0.023793;0.0;0.0;0.0;0.0;0.0;0.0
1.0;1753877893.302915;18.311297;1.0;-1.74;0.1;-0.673146;-0.753151;-0.023251;0.0;0.0;0.0;0.0;0.0;0.0
1.0;1753877893.307508;18.316299;1.1;-1.62;0.03;-0.67239;-0.7532;-0.025608;0.0;0.0;0.0;0.0;0.0;0.0
1.0;1753877893.312101;18.223393;1.09;-1.64;0.05;-0.673293;-0.753231;-0.025576;0.0;0.0;0.0;0.0;0.0;0.0
1.0;1753877893.316694;18.27531;1.08;-1.57;0.09;-0.674013;-0.753266;-0.025202;0.0;0.0;0.0;0.0;0.0;0.0
1.0;1753877893.321287;18.224791;1.06;-1.6;0.06;-0.671274;-0.75281;-0.024984;0.0;0.0;0.0;0.0;0.0;0.0
1.0;1753877893.32588;18.298863;0.98;-1.59;0.11;-0.669743;-0.753252;-0.024765;0.0;0.0;0.0;0.0;0.0;0.0
1.0;1753877893.330473;18.270792;1.12;-1.61;0.05;-0.670584;-0.753629;-0.025178;0.0;0.0;0.0;0.0;0.0;0.0
1.0;1753877893.335066;18.298059;1.06;-1.65;0.19;-0.671567;-0.752599;-0.023793;0.0;0.0;0.0;0.0;0.0;0.0
1.0;1753877893.339658;18.324222;1.1;-1.52;0.2;-0.673972;-0.754374;-0.022871;0.0;0.0;0.0;0.0;0.0;0.0
1.0;1753877893.344252;18.254044;1.03;-1.57;0.16;-0.673232;-0.753556;-0.024752;0.0;0.0;0.0;0.0;0.0;0.0
1.0;1753877893.348844;18.296377;1.02;-1.6;0.11;-0.672286;-0.754131;-0.0242;0.0;0.0;0.0;0.0;0.0;0.0
1.0;1753877893.353437;18.266467;0.98;-1.6;0.08;-0.671266;-0.752825;-0.025742;0.0;0.0;0.0;0.0;0.0;0.0
1.0;1753877893.35803;18.293834;1.1;-1.63;0.06;-0.673081;-0.752964;-0.025287;0.0;0.0;0.0;0.0;0.0;0.0
1.0;1753877893.362623;18.304663;1.11;-1.65;0.13;-0.672228;-0.753607;-0.024449;0.0;0.0;0.0;0.0;0.0;0.0
1.0;1753877893.367216;18.253987;1.1;-1.61;-0.01;-0.672556;-0.753573;-0.023893;0.0;0.0;0.0;0.0;0.0;0.0
1.0;1753877893.371809;18.317137;1.02;-1.54;0.14;-0.672714;-0.753612;-0.023503;0.0;0.0;0.0;0.0;0.0;0.0
1.0;1753877893.376402;18.28538;1.07;-1.65;0.22;-0.673502;-0.754347;-0.024211;0.0;0.0;0.0;0.0;0.0;0.0
1.0;1753877893.380994;18.284906;1.03;-1.59;-0.01;-0.671945;-0.752803;-0.024345;0.0;0.0;0.0;0.0;0.0;0.0
1.0;1753877893.385588;18.310202;0.95;-1.61;-0.02;-0.671168;-0.752273;-0.024222;0.0;0.0;0.0;0.0;0.0;0.0
1.0;1753877893.39018;18.307951;1.0;-1.71;0.09;-0.672315;-0.75248;-0.024641;0.0;0.0;0.0;0.0;0.0;0.0
1.0;1753877893.394773;18.299278;1.08;-1.68;0.03;-0.672754;-0.754297;-0.025031;0.0;0.0;0.0;0.0;0.0;0.0
1.0;1753877893.399366;18.365319;1.07;-1.69;0.05;-0.671713;-0.753711;-0.023593;0.0;0.0;0.0;0.0;0.0;0.0
1.0;1753877893.403959;18.284766;1.08;-1.68;0.04;-0.672286;-0.753059;-0.025248;0.0;0.0;0.0;0.0;0.0;0.0
1.0;1753877893.408552;18.274386;1.16;-1.63;-0.07;-0.673354;-0.753172;-0.024008;0.0;0.0;0.0;0.0;0.0;0.0
1.0;1753877893.413145;18.297623;1.01;-1.61;0.13;-0.673092;-0.753947;-0.02455;0.0;0.0;0.0;0.0;0.0;0.0
1.0;1753877893.417738;18.293234;0.98;-1.69;0.2;-0.671975;-0.753032;-0.024397;0.0;0.0;0.0;0.0;0.0;0.0
1.0;1753877893.42233;18.274272;0.99;-1.67;0.11;-0.672296;-0.752461;-0.02514;0.0;0.0;0.0;0.0;0.0;0.0
1.0;1753877893.426924;18.259208;1.03;-1.57;0.1;-0.670661;-0.753537;-0.025921;0.0;0.0;0.0;0.0;0.0;0.0
1.0;1753877893.431516;18.277861;1.1;-1.63;-0.02;-0.674945;-0.753449;-0.023442;0.0;0.0;0.0;0.0;0.0;0.0
1.0;1753877893.436109;18.334461;1.05;-1.62;0.04;-0.672304;-0.754154;-0.025053;0.0;0.0;0.0;0.0;0.0;0.0
1.0;1753877893.440702;18.280691;1.03;-1.62;0.07;-0.672507;-0.753929;-0.023855;0.0;0.0;0.0;0.0;0.0;0.0
1.0;1753877893.445295;18.333935;1.14;-1.58;-0.02;-0.672127;-0.754653;-0.025005;0.0;0.0;0.0;0.0;0.0;0.0
1.0;1753877893.449888;18.273719;1.16;-1.62;0.04;-0.672371;-0.755073;-0.024601;0.0;0.0;0.0;0.0;0.0;0.0
1.0;1753877893.454481;18.284757;0.9;-1.68;0.0;-0.673177;-0.753982;-0.025315;0.0;0.0;0.0;0.0;0.0;0.0
1.0;1753877893.459074;18.320998;1.1;-1.68;0.02;-0.671204;-0.753578;-0.024146;0.0;0.0;0.0;0.0;0.0;0.0
1.0;1753877893.463667;18.297341;1.07;-1.73;0.09;-0.674315;-0.753677;-0.024387;0.0;0.0;0.0;0.0;0.0;0.0
1.0;1753877893.46826;18.252262;1.0;-1.61;0.11;-0.672699;-0.754099;-0.023876;0.0;0.0;0.0;0.0;0.0;0.0
1.0;1753877893.472852;18.301188;1.01;-1.63;0.1;-0.673132;-0.754375;-0.025896;0.0;0.0;0.0;0.0;0.0;0.0
1.0;1753877893.477445;18.283856;1.06;-1.67;-0.02;-0.672663;-0.753801;-0.024829;0.0;0.0;0.0;0.0;0.0;0.0
1.0;1753877893.482038;18.305645;1.09;-1.53;0.01;-0.671658;-0.754482;-0.024883;0.0;0.0;0.0;0.0;0.0;0.0
1.0;1753877893.486631;18.27277;1.0;-1.57;0.11;-0.6709;-0.753998;-0.024522;0.0;0.0;0.0;0.0;0.0;0.0
1.0;1753877893.491224;18.268878;1.08;-1.65;0.02;-0.672115;-0.75416;-0.024318;0.0;0.0;0.0;0.0;0.0;0.0
1.0;1753877893.495817;18.275991;0.98;-1.75;0.08;-0.673805;-0.754418;-0.025315;0.0;0.0;0.0;0.0;0.0;0.0
1.0;1753877893.50041;18.320659;1.06;-1.58;0.04;-0.673267;-0.754305;-0.024336;0.0;0.0;0.0;0.0;0.0;0.0
1.0;1753877893.505003;18.269689;1.06;-1.71;0.09;-0.670919;-0.75502;-0.023232;0.0;0.0;0.0;0.0;0.0;0.0
1.0;1753877893.509596;18.28479;1.01;-1.64;0.03;-0.67179;-0.754143;-0.024266;0.0;0.0;0.0;0.0;0.0;0.0
1.0;1753877893.514188;18.265822;1.09;-1.71;0.12;-0.672968;-0.754485;-0.024079;0.0;0.0;0.0;0.0;0.0;0.0
1.0;1753877893.518782;18.287739;0.96;-1.74;0.1;-0.672175;-0.753939;-0.024342;0.0;0.0;0.0;0.0;0.0;0.0
1.0;1753877893.523374;18.309788;1.1;-1.65;0.07;-0.67274;-0.753545;-0.02489;0.0;0.0;0.0;0.0;0.0;0.0
1.0;1753877893.527967;18.326544;1.06;-1.67;-0.05;-0.673841;-0.753963;-0.023857;0.0;0.0;0.0;0.0;0.0;0.0
1.0;1753877893.53256;18.297122;1.07;-1.7;0.03;-0.671819;-0.752845;-0.025491;0.0;0.0;0.0;0.0;0.0;0.0
1.0;1753877893.537153;18.313726;1.1;-1.69;0.05;-0.673142;-0.754322;-0.023992;0.0;0.0;0.0;0.0;0.0;0.0
1.0;1753877893.541746;18.275354;1.11;-1.65;0.07;-0.672213;-0.755401;-0.025499;0.0;0.0;0.0;0.0;0.0;0.0
1.0;1753877893.546339;18.250792;1.06;-1.58;0.18;-0.672923;-0.753725;-0.023222;0.0;0.0;0.0;0.0;0.0;0.0
1.0;1753877893.550932;18.282459;1.02;-1.71;0.03;-0.673447;-0.755;-0.023822;0.0;0.0;0.0;0.0;0.0;0.0
1.0;1753877893.555524;18.244817;1.01;-1.64;0.04;-0.672984;-0.755074;-0.023462;0.0;0.0;0.0;0.0;0.0;0.0
1.0;1753877893.560118;18.283334;1.03;-1.75;0.15;-0.673741;-0.753832;-0.025582;0.0;0.0;0.0;0.0;0.0;0.0
1.0;1753877893.56471;18.261726;1.05;-1.72;0.18;-0.67225;-0.754191;-0.024072;0.0;0.0;0.0;0.0;0.0;0.0
1.0;1753877893.569303;18.373792;1.04;-1.73;0.13;-0.672208;-0.753286;-0.023513;0.0;0.0;0.0;0.0;0.0;0.0
1.0;1753877893.573896;18.268175;1.03;-1.73;0.09;-0.67069;-0.753684;-0.024146;0.0;0.0;0.0;0.0;0.0;0.0
1.0;1753877893.578489;18.262824;0.9;-1.74;0.12;-0.673798;-0.754202;-0.02379;0.0;0.0;0.0;0.0;0.0;0.0
1.0;1753877893.583082;18.238961;1.1;-1.79;0.08;-0.673902;-0.753316;-0.024176;0.0;0.0;0.0;0.0;0.0;0.0
1.0;1753877893.587675;18.27193;1.04;-1.66;0.11;-0.672998;-0.754235;-0.023726;0.0;0.0;0.0;0.0;0.0;0.0
1.0;1753877893.592268;18.237799;1.07;-1.61;0.07;-0.673288;-0.753673;-0.025444;0.0;0.0;0.0;0.0;0.0;0.0
1.0;1753877893.596861;18.309898;1.12;-1.7;0.18;-0.673574;-0.754292;-0.023463;0.0;0.0;0.0;0.0;0.0;0.0
1.0;1753877893.601454;18.304833;1.04;-1.57;0.16;-0.672684;-0.754641;-0.024687;0.0;0.0;0.0;0.0;0.0;0.0
1.0;1753877893.606046;18.2993;1.04;-1.68;0.19;-0.673218;-0.754914;-0.024246;0.0;0.0;0.0;0.0;0.0;0.0
1.0;1753877893.610639;18.282432;1.04;-1.67;0.2;-0.671007;-0.754988;-0.025276;0.0;0.0;0.0;0.0;0.0;0.0
1.0;1753877893.615232;18.301121;1.03;-1.67;0.06;-0.672489;-0.754578;-0.025119;0.0;0.0;0.0;0.0;0.0;0.0
1.0;1753877893.619825;18.319451;1.09;-1.69;0.08;-0.671496;-0.754056;-0.023687;0.0;0.0;0.0;0.0;0.0;0.0
1.0;1753877893.624418;18.291228;1.0;-1.69;0.03;-0.67111;-0.755573;-0.023568;0.0;0.0;0.0;0.0;0.0;0.0
1.0;1753877893.629011;18.311286;1.07;-1.68;0.13;-0.672821;-0.753885;-0.025012;0.0;0.0;0.0;0.0;0.0;0.0
1.0;1753877893.633604;18.29095;0.98;-1.68;0.09;-0.673143;-0.755019;-0.026157;0.0;0.0;0.0;0.0;0.0;0.0
1.0;1753877893.638197;18.286807;1.05;-1.75;0.02;-0.672118;-0.752653;-0.024713;0.0;0.0;0.0;0.0;0.0;0.0
1.0;1753877893.64279;18.255964;1.05;-1.75;0.08;-0.671625;-0.754389;-0.024364;0.0;0.0;0.0;0.0;0.0;0.0
1.0;1753877893.647382;18.327819;1.09;-1.65;0.04;-0.670823;-0.75476;-0.024186;0.0;0.0;0.0;0.0;0.0;0.0
1.0;1753877893.651976;18.277562;1.08;-1.74;-0.06;-0.67278;-0.75504;-0.02461;0.0;0.0;0.0;0.0;0.0;0.0
1.0;1753877893.656568;18.284665;1.04;-1.69;0.14;-0.671249;-0.753087;-0.023731;0.0;0.0;0.0;0.0;0.0;0.0
1.0;1753877893.661161;18.291157;1.11;-1.61;0.11;-0.673454;-0.753933;-0.02466;0.0;0.0;0.0;0.0;0.0;0.0
1.0;1753877893.665754;18.267767;1.06;-1.54;0.07;-0.672723;-0.754256;-0.0254;0.0;0.0;0.0;0.0;0.0;0.0
1.0;1753877893.670347;18.269066;0.96;-1.57;0.03;-0.672978;-0.753939;-0.023259;0.0;0.0;0.0;0.0;0.0;0.0
1.0;1753877893.67494;18.304162;0.97;-1.73;0.18;-0.671281;-0.755156;-0.02338;0.0;0.0;0.0;0.0;0.0;0.0
1.0;1753877893.679533;18.306045;1.01;-1.71;0.08;-0.672428;-0.75351;-0.024253;0.0;0.0;0.0;0.0;0.0;0.0
1.0;1753877893.6849;18.289062;1.05;-1.68;0.07;-0.672708;-0.75457;-0.024156;0.0;0.0;0.0;0.0;0.0;0.0
1.0;1753877893.689493;18.293473;0.97;-1.7;0.14;-0.672225;-0.75493;-0.024601;0.0;0.0;0.0;0.0;0.0;0.0
1.0;1753877893.694086;18.231411;1.05;-1.69;0.09;-0.671079;-0.753614;-0.024758;0.0;0.0;0.0;0.0;0.0;0.0
1.0;1753877893.698679;18.287095;1.14;-1.62;0.07;-0.670863;-0.754718;-0.023291;0.0;0.0;0.0;0.0;0.0;0.0
1.0;1753877893.70366;18.257812;1.12;-1.68;0.14;-0.67222;-0.754326;-0.023912;0.0;0.0;0.0;0.0;0.0;0.0
1.0;1753877893.708253;18.285705;1.12;-1.68;0.13;-0.672341;-0.754233;-0.023841;0.0;0.0;0.0;0.0;0.0;0.0
1.0;1753877893.712846;18.261884;1.08;-1.69;0.15;-0.67235;-0.755207;-0.024548;0.0;0.0;0.0;0.0;0.0;0.0
1.0;1753877893.717439;18.25441;1.19;-1.67;0.14;-0.671511;-0.755108;-0.022651;0.0;0.0;0.0;0.0;0.0;0.0
1.0;1753877893.722032;18.265524;1.12;-1.65;0.22;-0.671104;-0.754949;-0.024743;0.0;0.0;0.0;0.0;0.0;0.0
1.0;1753877893.726624;18.273746;1.05;-1.65;0.1;-0.671453;-0.754821;-0.025966;0.0;0.0;0.0;0.0;0.0;0.0
1.0;1753877893.731218;18.254626;1.08;-1.62;0.09;-0.66989;-0.752992;-0.024393;0.0;0.0;0.0;0.0;0.0;0.0
1.0;1753877893.73581;18.265322;1.05;-1.68;-0.04;-0.671133;-0.756131;-0.024073;0.0;0.0;0.0;0.0;0.0;0.0
1.0;1753877893.740403;18.258304;1.07;-1.63;0.07;-0.670998;-0.75584;-0.025289;0.0;0.0;0.0;0.0;0.0;0.0
1.0;1753877893.744996;18.268747;0.99;-1.65;0.15;-0.671706;-0.755058;-0.023988;0.0;0.0;0.0;0.0;0.0;0.0
1.0;1753877893.75056;18.257812;1.05;-1.68;0.07;-0.67161;-0.754326;-0.024888;0.0;0.0;0.0;0.0;0.0;0.0
1.0;1753877893.755153;18.232415;1.05;-1.66;0.05;-0.671576;-0.755101;-0.024886;0.0;0.0;0.0;0.0;0.0;0.0
1.0;1753877893.759746;18.23524;0.99;-1.78;0.09;-0.672727;-0.753767;-0.026068;0.0;0.0;0.0;0.0;0.0;0.0
1.0;1753877893.764339;18.239437;1.04;-1.57;0.06;-0.67218;-0.755021;-0.024615;0.0;0.0;0.0;0.0;0.0;0.0
1.0;1753877893.768932;18.25967;1.1;-1.73;0.05;-0.672641;-0.753897;-0.025283;0.0;0.0;0.0;0.0;0.0;0.0
1.0;1753877893.773524;18.23433;0.99;-1.68;0.08;-0.672498;-0.753559;-0.023126;0.0;0.0;0.0;0.0;0.0;0.0
1.0;1753877893.778118;18.289207;1.07;-1.72;0.06;-0.672317;-0.75297;-0.024499;0.0;0.0;0.0;0.0;0.0;0.0
1.0;1753877893.78271;18.262776;1.09;-1.73;0.04;-0.67301;-0.75166;-0.023695;0.0;0.0;0.0;0.0;0.0;0.0
1.0;1753877893.787303;18.271192;1.02;-1.78;0.13;-0.67228;-0.752902;-0.025294;0.0;0.0;0.0;0.0;0.0;0.0
1.0;1753877893.791896;18.27236;1.01;-1.77;0.03;-0.673744;-0.752739;-0.023244;0.0;0.0;0.0;0.0;0.0;0.0
1.0;1753877893.7963;18.257812;1.05;-1.75;0.07;-0.67344;-0.752862;-0.0244;0.0;0.0;0.0;0.0;0.0;0.0
1.0;1753877893.800893;18.247197;1.03;-1.75;0.08;-0.674125;-0.752088;-0.026189;0.0;0.0;0.0;0.0;0.0;0.0
1.0;1753877893.805486;18.258993;1.12;-1.73;0.08;-0.673804;-0.753883;-0.026202;0.0;0.0;0.0;0.0;0.0;0.0
1.0;1753877893.810078;18.254193;1.02;-1.77;0.04;-0.672609;-0.754882;-0.024765;0.0;0.0;0.0;0.0;0.0;0.0
1.0;1753877893.814672;18.288207;1.11;-1.74;0.09;-0.673335;-0.754464;-0.025229;0.0;0.0;0.0;0.0;0.0;0.0
1.0;1753877893.819264;18.265347;0.99;-1.79;0.1;-0.671937;-0.75289;-0.026728;0.0;0.0;0.0;0.0;0.0;0.0
1.0;1753877893.823857;18.253642;1.05;-1.77;0.08;-0.671649;-0.753222;-0.025418;0.0;0.0;0.0;0.0;0.0;0.0
1.0;1753877893.82845;18.233201;0.98;-1.79;0.06;-0.673831;-0.754742;-0.025181;0.0;0.0;0.0;0.0;0.0;0.0
1.0;1753877893.833043;18.261183;1.03;-1.78;0.14;-0.671418;-0.752779;-0.025954;0.0;0.0;0.0;0.0;0.0;0.0
1.0;1753877893.837636;18.264288;0.96;-1.77;0.16;-0.67231;-0.755088;-0.02551;0.0;0.0;0.0;0.0;0.0;0.0
1.0;1753877893.842229;18.222789;0.97;-1.81;0.13;-0.670168;-0.754012;-0.0264;0.0;0.0;0.0;0.0;0.0;0.0
1.0;1753877893.846822;18.275736;1.02;-1.65;0.05;-0.67295;-0.753245;-0.024844;0.0;0.0;0.0;0.0;0.0;0.0
1.0;1753877893.851415;18.272307;1.03;-1.74;0.12;-0.67247;-0.754907;-0.026232;0.0;0.0;0.0;0.0;0.0;0.0
1.0;1753877893.856008;18.233595;0.97;-1.73;0.18;-0.670887;-0.752821;-0.025405;0.0;0.0;0.0;0.0;0.0;0.0
1.0;1753877893.8606;18.254716;1.0;-1.6;0.07;-0.671584;-0.75468;-0.026473;0.0;0.0;0.0;0.0;0.0;0.0
1.0;1753877893.86767;18.257812;0.98;-1.68;0.14;-0.671;-0.754936;-0.026718;0.0;0.0;0.0;0.0;0.0;0.0
1.0;1753877893.872263;18.252062;1.08;-1.77;0.08;-0.671967;-0.754269;-0.026526;0.0;0.0;0.0;0.0;0.0;0.0
1.0;1753877893.876856;18.251092;1.07;-1.69;0.13;-0.669872;-0.753808;-0.026213;0.0;0.0;0.0;0.0;0.0;0.0
1.0;1753877893.881449;18.245918;1.04;-1.66;-0.04;-0.67465;-0.755355;-0.025491;0.0;0.0;0.0;0.0;0.0;0.0
1.0;1753877893.8872;18.257812;1.05;-1.68;0.0;-0.673806;-0.754326;-0.024644;0.0;0.0;0.0;0.0;0.0;0.0
1.0;1753877893.891793;18.273668;0.99;-1.6;-0.09;-0.672224;-0.752985;-0.024289;0.0;0.0;0.0;0.0;0.0;0.0
1.0;1753877893.896386;18.252668;1.01;-1.63;0.0;-0.674187;-0.754212;-0.025949;0.0;0.0;0.0;0.0;0.0;0.0
1.0;1753877893.900979;18.266264;1.07;-1.59;0.02;-0.672779;-0.75491;-0.025335;0.0;0.0;0.0;0.0;0.0;0.0
1.0;1753877893.905572;18.253742;1.0;-1.6;-0.01;-0.672787;-0.755115;-0.025825;0.0;0.0;0.0;0.0;0.0;0.0
1.0;1753877893.910164;18.218353;1.14;-1.62;0.02;-0.672147;-0.754657;-0.024726;0.0;0.0;0.0;0.0;0.0;0.0
1.0;1753877893.914758;18.260046;0.98;-1.66;0.05;-0.672208;-0.753844;-0.026407;0.0;0.0;0.0;0.0;0.0;0.0
1.0;1753877893.91935;18.272645;1.17;-1.64;0.07;-0.672735;-0.753875;-0.022483;0.0;0.0;0.0;0.0;0.0;0.0
1.0;1753877893.923943;18.231453;1.09;-1.66;0.13;-0.670932;-0.753395;-0.02567;0.0;0.0;0.0;0.0;0.0;0.0
1.0;1753877893.928536;18.276983;0.98;-1.63;0.1;-0.671604;-0.753359;-0.02463;0.0;0.0;0.0;0.0;0.0;0.0
1.0;1753877893.93657;18.257812;1.05;-1.61;0.07;-0.671122;-0.75396;-0.025742;0.0;0.0;0.0;0.0;0.0;0.0
1.0;1753877893.941163;18.250418;0.96;-1.55;0.15;-0.672409;-0.753908;-0.028081;0.0;0.0;0.0;0.0;0.0;0.0
1.0;1753877893.945756;18.256194;0.99;-1.71;0.1;-0.669612;-0.753304;-0.023762;0.0;0.0;0.0;0.0;0.0;0.0
1.0;1753877893.950348;18.2769;1.12;-1.62;0.12;-0.671959;-0.75264;-0.027192;0.0;0.0;0.0;0.0;0.0;0.0
1.0;1753877893.954942;18.234648;1.06;-1.66;0.11;-0.670318;-0.75252;-0.025111;0.0;0.0;0.0;0.0;0.0;0.0
1.0;1753877893.959534;18.270905;1.12;-1.54;0.14;-0.672855;-0.753886;-0.025768;0.0;0.0;0.0;0.0;0.0;0.0
1.0;1753877893.964127;18.269831;1.08;-1.59;0.04;-0.672252;-0.754484;-0.025061;0.0;0.0;0.0;0.0;0.0;0.0
1.0;1753877893.96872;18.26474;1.11;-1.62;0.2;-0.672582;-0.754857;-0.024933;0.0;0.0;0.0;0.0;0.0;0.0
1.0;1753877893.973313;18.268225;1.05;-1.58;0.12;-0.672661;-0.754993;-0.023356;0.0;0.0;0.0;0.0;0.0;0.0
1.0;1753877893.97924;18.257812;1.12;-1.61;0.21;-0.672708;-0.754204;-0.025132;0.0;0.0;0.0;0.0;0.0;0.0
1.0;1753877893.980753;18.265625;1.12;-1.68;0.07;-0.671;-0.75335;-0.02501;0.0;0.0;0.0;0.0;0.0;0.0
1.0;1753877893.985686;18.265625;1.12;-1.75;0.07;-0.672342;-0.754692;-0.024644;0.0;0.0;0.0;0.0;0.0;0.0
1.0;1753877893.989809;18.265625;1.05;-1.68;0.07;-0.67222;-0.75335;-0.023912;0.0;0.0;0.0;0.0;0.0;0.0
1.0;1753877893.994207;18.265625;1.05;-1.61;0.0;-0.670512;-0.754448;-0.024034;0.0;0.0;0.0;0.0;0.0;0.0
1.0;1753877893.998795;18.242188;1.12;-1.61;0.07;-0.673074;-0.753594;-0.024156;0.0;0.0;0.0;0.0;0.0;0.0
1.0;1753877894.003388;18.234174;1.16;-1.58;0.11;-0.673238;-0.754502;-0.023967;0.0;0.0;0.0;0.0;0.0;0.0
1.0;1753877894.007981;18.23593;1.01;-1.57;0.14;-0.671734;-0.754368;-0.02426;0.0;0.0;0.0;0.0;0.0;0.0
1.0;1753877894.012574;18.216166;1.12;-1.72;-0.02;-0.674575;-0.753562;-0.023607;0.0;0.0;0.0;0.0;0.0;0.0
1.0;1753877894.017166;18.224615;1.13;-1.64;0.03;-0.674011;-0.753591;-0.024202;0.0;0.0;0.0;0.0;0.0;0.0
1.0;1753877894.02176;18.252978;1.2;-1.6;0.08;-0.673358;-0.753616;-0.024072;0.0;0.0;0.0;0.0;0.0;0.0
1.0;1753877894.026352;18.293852;1.18;-1.6;0.09;-0.67242;-0.754107;-0.023839;0.0;0.0;0.0;0.0;0.0;0.0
1.0;1753877894.030945;18.23688;0.97;-1.56;0.09;-0.673109;-0.752979;-0.02385;0.0;0.0;0.0;0.0;0.0;0.0
1.0;1753877894.035538;18.226631;1.14;-1.6;0.06;-0.67182;-0.75351;-0.022316;0.0;0.0;0.0;0.0;0.0;0.0
1.0;1753877894.040131;18.243635;0.98;-1.58;-0.0;-0.671869;-0.753615;-0.02438;0.0;0.0;0.0;0.0;0.0;0.0
1.0;1753877894.044724;18.249398;1.12;-1.62;0.13;-0.671428;-0.753143;-0.023535;0.0;0.0;0.0;0.0;0.0;0.0
1.0;1753877894.049317;18.225738;1.05;-1.7;0.06;-0.674118;-0.75405;-0.024558;0.0;0.0;0.0;0.0;0.0;0.0
1.0;1753877894.05391;18.251851;1.06;-1.54;0.03;-0.675569;-0.753188;-0.023701;0.0;0.0;0.0;0.0;0.0;0.0
1.0;1753877894.058503;18.252005;1.05;-1.77;0.1;-0.672796;-0.753715;-0.024698;0.0;0.0;0.0;0.0;0.0;0.0
1.0;1753877894.063096;18.213169;1.11;-1.65;0.08;-0.671936;-0.754149;-0.023904;0.0;0.0;0.0;0.0;0.0;0.0
1.0;1753877894.067688;18.221315;1.17;-1.68;0.05;-0.674414;-0.752855;-0.024186;0.0;0.0;0.0;0.0;0.0;0.0
1.0;1753877894.072281;18.252527;1.16;-1.65;0.04;-0.674318;-0.753281;-0.025037;0.0;0.0;0.0;0.0;0.0;0.0
1.0;1753877894.076874;18.247875;1.17;-1.63;0.05;-0.674059;-0.75471;-0.024649;0.0;0.0;0.0;0.0;0.0;0.0
1.0;1753877894.081467;18.243069;1.24;-1.55;0.14;-0.67287;-0.753284;-0.023944;0.0;0.0;0.0;0.0;0.0;0.0
1.0;1753877894.08606;18.248305;1.14;-1.72;0.05;-0.672311;-0.753321;-0.024989;0.0;0.0;0.0;0.0;0.0;0.0
1.0;1753877894.090653;18.245223;1.19;-1.82;0.14;-0.673816;-0.754055;-0.023967;0.0;0.0;0.0;0.0;0.0;0.0
1.0;1753877894.095246;18.252875;1.09;-1.67;0.14;-0.671477;-0.753653;-0.022924;0.0;0.0;0.0;0.0;0.0;0.0
1.0;1753877894.099839;18.219964;1.16;-1.69;0.02;-0.673875;-0.753451;-0.024123;0.0;0.0;0.0;0.0;0.0;0.0
1.0;1753877894.104432;18.257575;1.14;-1.64;0.02;-0.672426;-0.753315;-0.023929;0.0;0.0;0.0;0.0;0.0;0.0
1.0;1753877894.109024;18.193488;1.09;-1.59;0.19;-0.672872;-0.752925;-0.025206;0.0;0.0;0.0;0.0;0.0;0.0
1.0;1753877894.113618;18.230383;1.18;-1.62;0.16;-0.672664;-0.753706;-0.023986;0.0;0.0;0.0;0.0;0.0;0.0
1.0;1753877894.11821;18.262236;1.21;-1.64;0.12;-0.672716;-0.752989;-0.023429;0.0;0.0;0.0;0.0;0.0;0.0
1.0;1753877894.122803;18.227529;1.07;-1.64;0.08;-0.672274;-0.754156;-0.024627;0.0;0.0;0.0;0.0;0.0;0.0
1.0;1753877894.127396;18.220144;1.14;-1.59;0.07;-0.672144;-0.752347;-0.024248;0.0;0.0;0.0;0.0;0.0;0.0
1.0;1753877894.131989;18.261302;1.02;-1.64;0.14;-0.674436;-0.752678;-0.024069;0.0;0.0;0.0;0.0;0.0;0.0
1.0;1753877894.136582;18.229081;1.16;-1.57;0.11;-0.674085;-0.754551;-0.024389;0.0;0.0;0.0;0.0;0.0;0.0
1.0;1753877894.141175;18.245674;1.1;-1.72;0.12;-0.673105;-0.751645;-0.024276;0.0;0.0;0.0;0.0;0.0;0.0
1.0;1753877894.145768;18.2556;1.18;-1.64;0.14;-0.675318;-0.754578;-0.023957;0.0;0.0;0.0;0.0;0.0;0.0
1.0;1753877894.15036;18.24141;1.13;-1.62;0.05;-0.672772;-0.752387;-0.024382;0.0;0.0;0.0;0.0;0.0;0.0
1.0;1753877894.154954;18.255772;1.15;-1.64;0.03;-0.671707;-0.753218;-0.024876;0.0;0.0;0.0;0.0;0.0;0.0
1.0;1753877894.159546;18.256477;1.12;-1.77;0.11;-0.675056;-0.75373;-0.024133;0.0;0.0;0.0;0.0;0.0;0.0
1.0;1753877894.164139;18.262173;1.11;-1.63;0.1;-0.671573;-0.755885;-0.024604;0.0;0.0;0.0;0.0;0.0;0.0
1.0;1753877894.168732;18.252229;1.07;-1.64;-0.0;-0.671398;-0.753609;-0.023925;0.0;0.0;0.0;0.0;0.0;0.0
1.0;1753877894.173325;18.251616;1.07;-1.66;0.1;-0.67211;-0.752647;-0.024584;0.0;0.0;0.0;0.0;0.0;0.0
1.0;1753877894.177918;18.229013;0.93;-1.58;0.07;-0.671736;-0.75387;-0.023712;0.0;0.0;0.0;0.0;0.0;0.0
1.0;1753877894.182511;18.2474;1.06;-1.7;0.07;-0.673407;-0.752547;-0.024726;0.0;0.0;0.0;0.0;0.0;0.0
1.0;1753877894.187104;18.26283;1.19;-1.68;0.08;-0.673233;-0.753338;-0.024609;0.0;0.0;0.0;0.0;0.0;0.0
1.0;1753877894.191697;18.276622;1.14;-1.71;0.12;-0.672992;-0.753912;-0.024872;0.0;0.0;0.0;0.0;0.0;0.0
1.0;1753877894.19629;18.255398;1.17;-1.71;0.15;-0.673568;-0.754097;-0.024104;0.0;0.0;0.0;0.0;0.0;0.0
1.0;1753877894.200882;18.233846;0.98;-1.72;0.15;-0.67308;-0.752454;-0.024409;0.0;0.0;0.0;0.0;0.0;0.0
1.0;1753877894.205475;18.244952;1.18;-1.68;0.11;-0.673038;-0.755395;-0.024468;0.0;0.0;0.0;0.0;0.0;0.0
1.0;1753877894.210068;18.258467;1.27;-1.73;0.17;-0.672256;-0.754805;-0.024096;0.0;0.0;0.0;0.0;0.0;0.0
1.0;1753877894.214661;18.233624;1.0;-1.79;0.1;-0.673574;-0.753349;-0.025941;0.0;0.0;0.0;0.0;0.0;0.0
1.0;1753877894.219254;18.266537;1.11;-1.46;0.12;-0.671905;-0.753393;-0.025191;0.0;0.0;0.0;0.0;0.0;0.0
1.0;1753877894.223847;18.242757;1.16;-1.75;0.1;-0.673003;-0.754235;-0.024256;0.0;0.0;0.0;0.0;0.0;0.0
1.0;1753877894.22844;18.241704;1.15;-1.55;0.12;-0.672732;-0.753395;-0.024965;0.0;0.0;0.0;0.0;0.0;0.0
1.0;1753877894.233033;18.228818;1.26;-1.74;0.21;-0.672474;-0.7544;-0.024516;0.0;0.0;0.0;0.0;0.0;0.0
1.0;1753877894.237626;18.254066;1.12;-1.58;0.13;-0.673078;-0.753544;-0.023162;0.0;0.0;0.0;0.0;0.0;0.0
1.0;1753877894.242218;18.243425;1.2;-1.68;0.19;-0.671871;-0.752375;-0.024404;0.0;0.0;0.0;0.0;0.0;0.0
1.0;1753877894.246812;18.276311;1.26;-1.72;0.04;-0.672356;-0.752575;-0.02421;0.0;0.0;0.0;0.0;0.0;0.0
1.0;1753877894.251404;18.248099;1.05;-1.73;0.22;-0.670663;-0.753443;-0.023597;0.0;0.0;0.0;0.0;0.0;0.0
1.0;1753877894.255997;18.265428;1.22;-1.71;0.11;-0.673499;-0.754661;-0.024038;0.0;0.0;0.0;0.0;0.0;0.0
1.0;1753877894.26059;18.248535;1.16;-1.7;0.15;-0.67309;-0.752498;-0.024075;0.0;0.0;0.0;0.0;0.0;0.0
1.0;1753877894.265183;18.257759;1.12;-1.65;0.03;-0.672759;-0.753382;-0.023937;0.0;0.0;0.0;0.0;0.0;0.0
1.0;1753877894.269776;18.22888;1.15;-1.75;0.09;-0.670821;-0.753946;-0.024614;0.0;0.0;0.0;0.0;0.0;0.0
1.0;1753877894.274369;18.236601;1.26;-1.68;0.08;-0.672686;-0.753342;-0.024948;0.0;0.0;0.0;0.0;0.0;0.0
1.0;1753877894.278962;18.218118;1.21;-1.6;0.15;-0.672504;-0.753781;-0.024371;0.0;0.0;0.0;0.0;0.0;0.0
1.0;1753877894.283554;18.251243;1.07;-1.73;0.13;-0.671282;-0.753429;-0.024849;0.0;0.0;0.0;0.0;0.0;0.0
1.0;1753877894.288148;18.225127;1.15;-1.76;0.16;-0.673355;-0.753761;-0.024188;0.0;0.0;0.0;0.0;0.0;0.0
1.0;1753877894.29274;18.267785;1.14;-1.64;0.14;-0.672434;-0.753621;-0.022803;0.0;0.0;0.0;0.0;0.0;0.0
1.0;1753877894.297333;18.255247;1.11;-1.77;0.2;-0.673109;-0.752295;-0.025018;0.0;0.0;0.0;0.0;0.0;0.0
1.0;1753877894.301926;18.243513;1.08;-1.76;0.15;-0.672896;-0.752288;-0.02521;0.0;0.0;0.0;0.0;0.0;0.0
1.0;1753877894.306519;18.221005;1.18;-1.6;0.14;-0.673075;-0.754286;-0.024826;0.0;0.0;0.0;0.0;0.0;0.0
1.0;1753877894.311112;18.237681;1.09;-1.59;0.12;-0.671712;-0.752319;-0.024564;0.0;0.0;0.0;0.0;0.0;0.0
1.0;1753877894.315705;18.225956;1.3;-1.6;0.03;-0.673394;-0.753969;-0.023541;0.0;0.0;0.0;0.0;0.0;0.0
1.0;1753877894.320298;18.221443;0.95;-1.64;0.11;-0.673795;-0.753368;-0.024752;0.0;0.0;0.0;0.0;0.0;0.0
1.0;1753877894.32489;18.249086;1.1;-1.7;0.14;-0.672725;-0.754004;-0.024811;0.0;0.0;0.0;0.0;0.0;0.0
1.0;1753877894.329484;18.234735;1.26;-1.67;0.1;-0.671285;-0.75358;-0.02443;0.0;0.0;0.0;0.0;0.0;0.0
1.0;1753877894.334076;18.223935;1.04;-1.73;0.22;-0.672512;-0.753408;-0.025086;0.0;0.0;0.0;0.0;0.0;0.0
1.0;1753877894.338669;18.242553;1.17;-1.69;0.16;-0.673772;-0.754842;-0.024132;0.0;0.0;0.0;0.0;0.0;0.0
1.0;1753877894.343262;18.248376;1.14;-1.64;0.26;-0.671298;-0.753712;-0.024147;0.0;0.0;0.0;0.0;0.0;0.0
1.0;1753877894.347855;18.257503;1.06;-1.77;0.19;-0.671413;-0.754053;-0.024064;0.0;0.0;0.0;0.0;0.0;0.0
1.0;1753877894.352448;18.241262;1.07;-1.66;0.05;-0.672831;-0.753749;-0.024843;0.0;0.0;0.0;0.0;0.0;0.0
1.0;1753877894.357041;18.227105;1.14;-1.69;0.02;-0.67099;-0.75332;-0.02494;0.0;0.0;0.0;0.0;0.0;0.0
1.0;1753877894.361634;18.250392;1.12;-1.68;0.11;-0.672721;-0.75362;-0.023854;0.0;0.0;0.0;0.0;0.0;0.0
1.0;1753877894.3682;18.242188;1.12;-1.68;0.14;-0.672586;-0.753594;-0.024522;0.0;0.0;0.0;0.0;0.0;0.0
1.0;1753877894.372793;18.231138;1.1;-1.72;0.18;-0.67321;-0.754138;-0.025815;0.0;0.0;0.0;0.0;0.0;0.0
1.0;1753877894.377386;18.233222;1.17;-1.61;0.19;-0.670374;-0.754273;-0.024483;0.0;0.0;0.0;0.0;0.0;0.0
1.0;1753877894.381979;18.256845;1.2;-1.81;0.16;-0.67305;-0.753345;-0.023594;0.0;0.0;0.0;0.0;0.0;0.0
1.0;1753877894.386572;18.22862;1.04;-1.75;0.02;-0.673394;-0.754513;-0.025232;0.0;0.0;0.0;0.0;0.0;0.0
1.0;1753877894.391164;18.257857;1.15;-1.66;0.1;-0.671324;-0.752234;-0.024406;0.0;0.0;0.0;0.0;0.0;0.0
1.0;1753877894.395758;18.273349;1.15;-1.6;0.13;-0.674007;-0.753315;-0.024242;0.0;0.0;0.0;0.0;0.0;0.0
1.0;1753877894.40035;18.271021;1.06;-1.57;0.14;-0.674944;-0.752417;-0.024197;0.0;0.0;0.0;0.0;0.0;0.0
1.0;1753877894.404943;18.261905;1.14;-1.71;0.15;-0.673082;-0.754131;-0.026006;0.0;0.0;0.0;0.0;0.0;0.0
1.0;1753877894.409536;18.25436;1.22;-1.66;0.12;-0.670798;-0.753516;-0.024729;0.0;0.0;0.0;0.0;0.0;0.0
1.0;1753877894.414129;18.229179;1.18;-1.71;0.05;-0.674235;-0.75459;-0.025075;0.0;0.0;0.0;0.0;0.0;0.0
1.0;1753877894.418722;18.25682;1.13;-1.73;0.11;-0.673383;-0.753422;-0.023908;0.0;0.0;0.0;0.0;0.0;0.0
1.0;1753877894.423315;18.230765;1.11;-1.65;0.15;-0.671981;-0.753935;-0.025036;0.0;0.0;0.0;0.0;0.0;0.0
1.0;1753877894.427908;18.239871;1.16;-1.66;0.2;-0.673629;-0.753198;-0.023463;0.0;0.0;0.0;0.0;0.0;0.0
1.0;1753877894.4325;18.245049;0.98;-1.71;0.07;-0.672989;-0.754229;-0.0244;0.0;0.0;0.0;0.0;0.0;0.0
1.0;1753877894.437094;18.248113;1.07;-1.67;0.2;-0.673244;-0.753242;-0.024597;0.0;0.0;0.0;0.0;0.0;0.0
1.0;1753877894.441686;18.248812;1.16;-1.64;0.12;-0.673641;-0.753445;-0.024029;0.0;0.0;0.0;0.0;0.0;0.0
1.0;1753877894.446279;18.262357;1.09;-1.64;0.02;-0.674027;-0.754837;-0.024163;0.0;0.0;0.0;0.0;0.0;0.0
1.0;1753877894.450872;18.264536;1.06;-1.71;0.09;-0.673604;-0.753828;-0.024169;0.0;0.0;0.0;0.0;0.0;0.0
1.0;1753877894.455465;18.244637;0.97;-1.74;0.13;-0.672736;-0.753772;-0.023331;0.0;0.0;0.0;0.0;0.0;0.0
1.0;1753877894.460058;18.250459;1.12;-1.67;0.13;-0.67385;-0.754791;-0.024263;0.0;0.0;0.0;0.0;0.0;0.0
1.0;1753877894.464651;18.221599;1.15;-1.73;0.11;-0.673039;-0.752596;-0.024532;0.0;0.0;0.0;0.0;0.0;0.0
1.0;1753877894.469244;18.264748;1.15;-1.71;0.14;-0.672735;-0.753346;-0.02289;0.0;0.0;0.0;0.0;0.0;0.0
1.0;1753877894.473837;18.241628;1.07;-1.75;0.18;-0.673909;-0.753677;-0.02519;0.0;0.0;0.0;0.0;0.0;0.0
1.0;1753877894.47843;18.234063;0.96;-1.68;0.11;-0.671363;-0.753017;-0.024501;0.0;0.0;0.0;0.0;0.0;0.0
1.0;1753877894.483022;18.247424;1.14;-1.66;0.17;-0.674628;-0.752297;-0.023496;0.0;0.0;0.0;0.0;0.0;0.0
1.0;1753877894.487615;18.239999;1.1;-1.68;0.13;-0.670908;-0.754033;-0.024835;0.0;0.0;0.0;0.0;0.0;0.0
1.0;1753877894.492208;18.226254;1.08;-1.62;0.08;-0.674316;-0.753243;-0.023158;0.0;0.0;0.0;0.0;0.0;0.0
1.0;1753877894.496801;18.230329;1.0;-1.73;0.17;-0.672502;-0.752991;-0.023546;0.0;0.0;0.0;0.0;0.0;0.0
1.0;1753877894.501394;18.255137;0.93;-1.66;0.17;-0.672064;-0.753472;-0.024149;0.0;0.0;0.0;0.0;0.0;0.0
1.0;1753877894.505987;18.224649;1.28;-1.76;0.09;-0.673647;-0.752799;-0.024798;0.0;0.0;0.0;0.0;0.0;0.0
1.0;1753877894.51058;18.207686;1.09;-1.76;0.03;-0.673316;-0.753891;-0.024159;0.0;0.0;0.0;0.0;0.0;0.0
1.0;1753877894.515173;18.266396;1.01;-1.69;0.13;-0.671564;-0.753505;-0.023171;0.0;0.0;0.0;0.0;0.0;0.0
1.0;1753877894.519766;18.248114;1.0;-1.78;0.05;-0.672939;-0.754597;-0.023076;0.0;0.0;0.0;0.0;0.0;0.0
1.0;1753877894.524358;18.217809;1.04;-1.68;0.09;-0.672174;-0.753007;-0.024273;0.0;0.0;0.0;0.0;0.0;0.0
1.0;1753877894.528952;18.234876;0.99;-1.63;0.17;-0.673055;-0.752407;-0.02362;0.0;0.0;0.0;0.0;0.0;0.0
1.0;1753877894.533544;18.244654;1.07;-1.73;0.03;-0.670513;-0.753257;-0.023775;0.0;0.0;0.0;0.0;0.0;0.0
1.0;1753877894.538137;18.236504;1.09;-1.69;0.13;-0.671757;-0.753253;-0.023708;0.0;0.0;0.0;0.0;0.0;0.0
1.0;1753877894.54273;18.246544;1.11;-1.54;0.15;-0.673869;-0.754558;-0.025327;0.0;0.0;0.0;0.0;0.0;0.0
1.0;1753877894.547323;18.255412;1.15;-1.62;0.18;-0.67456;-0.752981;-0.022843;0.0;0.0;0.0;0.0;0.0;0.0
1.0;1753877894.551916;18.261288;1.08;-1.66;0.13;-0.671616;-0.752742;-0.024333;0.0;0.0;0.0;0.0;0.0;0.0
1.0;1753877894.556509;18.212482;1.16;-1.62;-0.01;-0.672339;-0.752901;-0.023562;0.0;0.0;0.0;0.0;0.0;0.0
1.0;1753877894.561102;18.206702;1.07;-1.66;0.02;-0.674029;-0.754932;-0.023253;0.0;0.0;0.0;0.0;0.0;0.0
1.0;1753877894.565694;18.232013;1.12;-1.7;0.11;-0.674;-0.752393;-0.023337;0.0;0.0;0.0;0.0;0.0;0.0
1.0;1753877894.570288;18.271999;1.15;-1.65;0.07;-0.674011;-0.753125;-0.023808;0.0;0.0;0.0;0.0;0.0;0.0
1.0;1753877894.57488;18.267418;1.03;-1.79;0.11;-0.673496;-0.753145;-0.023706;0.0;0.0;0.0;0.0;0.0;0.0
1.0;1753877894.579473;18.248677;1.09;-1.6;0.16;-0.673301;-0.753805;-0.023763;0.0;0.0;0.0;0.0;0.0;0.0
1.0;1753877894.584066;18.247006;1.03;-1.72;0.09;-0.673655;-0.753784;-0.024513;0.0;0.0;0.0;0.0;0.0;0.0
1.0;1753877894.588659;18.219664;1.0;-1.72;0.06;-0.672176;-0.753153;-0.023867;0.0;0.0;0.0;0.0;0.0;0.0
1.0;1753877894.593252;18.237426;1.0;-1.7;0.13;-0.674618;-0.752947;-0.023854;0.0;0.0;0.0;0.0;0.0;0.0
1.0;1753877894.597845;18.221301;1.08;-1.68;0.01;-0.673704;-0.753518;-0.023061;0.0;0.0;0.0;0.0;0.0;0.0
1.0;1753877894.602438;18.229719;1.12;-1.68;0.07;-0.674721;-0.755044;-0.023303;0.0;0.0;0.0;0.0;0.0;0.0
1.0;1753877894.607031;18.251273;1.06;-1.76;0.02;-0.674501;-0.753314;-0.023719;0.0;0.0;0.0;0.0;0.0;0.0
1.0;1753877894.611624;18.254846;1.07;-1.72;0.14;-0.67217;-0.753916;-0.023468;0.0;0.0;0.0;0.0;0.0;0.0
1.0;1753877894.616216;18.219374;1.16;-1.63;0.04;-0.671069;-0.753899;-0.024303;0.0;0.0;0.0;0.0;0.0;0.0
1.0;1753877894.620809;18.247493;1.05;-1.77;0.11;-0.672999;-0.752794;-0.022199;0.0;0.0;0.0;0.0;0.0;0.0
1.0;1753877894.625402;18.235453;0.97;-1.69;0.06;-0.674217;-0.752848;-0.024362;0.0;0.0;0.0;0.0;0.0;0.0
1.0;1753877894.629995;18.226701;1.04;-1.69;0.11;-0.674771;-0.752826;-0.024005;0.0;0.0;0.0;0.0;0.0;0.0
1.0;1753877894.634588;18.252913;1.16;-1.7;0.12;-0.672592;-0.753608;-0.024404;0.0;0.0;0.0;0.0;0.0;0.0
1.0;1753877894.639181;18.249327;0.93;-1.79;0.2;-0.672816;-0.754149;-0.023332;0.0;0.0;0.0;0.0;0.0;0.0
1.0;1753877894.643774;18.2262;1.02;-1.64;0.04;-0.6732;-0.752558;-0.024268;0.0;0.0;0.0;0.0;0.0;0.0
1.0;1753877894.648367;18.259937;1.0;-1.71;0.09;-0.673569;-0.75233;-0.024216;0.0;0.0;0.0;0.0;0.0;0.0
1.0;1753877894.65296;18.244208;1.14;-1.65;0.1;-0.674478;-0.754196;-0.022413;0.0;0.0;0.0;0.0;0.0;0.0
1.0;1753877894.657552;18.271779;1.06;-1.67;0.12;-0.673397;-0.753098;-0.02436;0.0;0.0;0.0;0.0;0.0;0.0
1.0;1753877894.662146;18.239631;1.03;-1.6;0.06;-0.674144;-0.753487;-0.024098;0.0;0.0;0.0;0.0;0.0;0.0
1.0;1753877894.666738;18.251932;1.01;-1.7;0.08;-0.672991;-0.752183;-0.023368;0.0;0.0;0.0;0.0;0.0;0.0
1.0;1753877894.671331;18.26162;0.97;-1.7;0.19;-0.674183;-0.753636;-0.023383;0.0;0.0;0.0;0.0;0.0;0.0
1.0;1753877894.675924;18.241566;1.12;-1.66;0.04;-0.674899;-0.752883;-0.023132;0.0;0.0;0.0;0.0;0.0;0.0
1.0;1753877894.680517;18.224375;1.08;-1.65;0.05;-0.671498;-0.753072;-0.023065;0.0;0.0;0.0;0.0;0.0;0.0
1.0;1753877894.68511;18.246969;1.08;-1.68;0.1;-0.672931;-0.753595;-0.023086;0.0;0.0;0.0;0.0;0.0;0.0
1.0;1753877894.689703;18.243435;1.14;-1.59;0.07;-0.674505;-0.753157;-0.023745;0.0;0.0;0.0;0.0;0.0;0.0
1.0;1753877894.694296;18.240632;1.18;-1.73;0.12;-0.67303;-0.752607;-0.023778;0.0;0.0;0.0;0.0;0.0;0.0
1.0;1753877894.698888;18.24232;0.95;-1.69;0.08;-0.674023;-0.75288;-0.024067;0.0;0.0;0.0;0.0;0.0;0.0
1.0;1753877894.703482;18.233728;0.95;-1.74;0.07;-0.673749;-0.752909;-0.02538;0.0;0.0;0.0;0.0;0.0;0.0
1.0;1753877894.708074;18.239267;1.06;-1.61;-0.01;-0.673673;-0.752277;-0.023226;0.0;0.0;0.0;0.0;0.0;0.0
1.0;1753877894.712667;18.272115;1.03;-1.7;0.07;-0.675108;-0.754354;-0.02347;0.0;0.0;0.0;0.0;0.0;0.0
1.0;1753877894.71726;18.244827;1.02;-1.73;0.01;-0.674951;-0.752401;-0.023147;0.0;0.0;0.0;0.0;0.0;0.0
1.0;1753877894.721853;18.203707;1.07;-1.67;0.09;-0.674435;-0.752428;-0.023636;0.0;0.0;0.0;0.0;0.0;0.0
1.0;1753877894.726446;18.264275;1.07;-1.79;0.05;-0.676183;-0.754309;-0.024384;0.0;0.0;0.0;0.0;0.0;0.0
1.0;1753877894.731039;18.236166;1.0;-1.75;0.09;-0.674015;-0.75439;-0.022487;0.0;0.0;0.0;0.0;0.0;0.0
1.0;1753877894.735632;18.251863;0.93;-1.74;0.08;-0.67355;-0.752243;-0.022808;0.0;0.0;0.0;0.0;0.0;0.0
1.0;1753877894.740224;18.230822;1.02;-1.78;-0.0;-0.673878;-0.753849;-0.023616;0.0;0.0;0.0;0.0;0.0;0.0
1.0;1753877894.744818;18.244574;0.98;-1.64;0.14;-0.672984;-0.753238;-0.024056;0.0;0.0;0.0;0.0;0.0;0.0
1.0;1753877894.74941;18.244494;1.06;-1.61;0.0;-0.676249;-0.752999;-0.023152;0.0;0.0;0.0;0.0;0.0;0.0
1.0;1753877894.754003;18.229335;1.13;-1.62;0.15;-0.67376;-0.753901;-0.024169;0.0;0.0;0.0;0.0;0.0;0.0
1.0;1753877894.758596;18.236089;1.07;-1.76;0.04;-0.674836;-0.753185;-0.022143;0.0;0.0;0.0;0.0;0.0;0.0
1.0;1753877894.763189;18.248486;1.06;-1.73;0.12;-0.67565;-0.753992;-0.022004;0.0;0.0;0.0;0.0;0.0;0.0
1.0;1753877894.767782;18.241635;0.93;-1.62;0.06;-0.673404;-0.751976;-0.023595;0.0;0.0;0.0;0.0;0.0;0.0
1.0;1753877894.772375;18.205564;1.13;-1.69;0.11;-0.674069;-0.754;-0.02319;0.0;0.0;0.0;0.0;0.0;0.0
1.0;1753877894.776968;18.234925;0.93;-1.74;-0.03;-0.673585;-0.753202;-0.022891;0.0;0.0;0.0;0.0;0.0;0.0
1.0;1753877894.781561;18.242352;1.04;-1.75;0.05;-0.673403;-0.75378;-0.022955;0.0;0.0;0.0;0.0;0.0;0.0
1.0;1753877894.786154;18.249831;1.14;-1.78;0.15;-0.673734;-0.752514;-0.021964;0.0;0.0;0.0;0.0;0.0;0.0
1.0;1753877894.7929;18.242188;1.05;-1.68;0.07;-0.67405;-0.753228;-0.022936;0.0;0.0;0.0;0.0;0.0;0.0
1.0;1753877894.797493;18.232037;1.05;-1.66;0.14;-0.67431;-0.753871;-0.02266;0.0;0.0;0.0;0.0;0.0;0.0
1.0;1753877894.802086;18.283944;1.12;-1.71;0.05;-0.673519;-0.753963;-0.023429;0.0;0.0;0.0;0.0;0.0;0.0
1.0;1753877894.806679;18.270064;1.12;-1.66;0.09;-0.673792;-0.753762;-0.0239;0.0;0.0;0.0;0.0;0.0;0.0
1.0;1753877894.81376;18.292969;1.12;-1.68;0.07;-0.673318;-0.75518;-0.024644;0.0;0.0;0.0;0.0;0.0;0.0
1.0;1753877894.818353;18.281125;1.18;-1.62;0.07;-0.672561;-0.754539;-0.025218;0.0;0.0;0.0;0.0;0.0;0.0
1.0;1753877894.822946;18.292275;1.09;-1.76;0.09;-0.672614;-0.753425;-0.024395;0.0;0.0;0.0;0.0;0.0;0.0
1.0;1753877894.827539;18.260816;1.08;-1.65;-0.03;-0.673713;-0.754811;-0.024717;0.0;0.0;0.0;0.0;0.0;0.0
1.0;1753877894.832132;18.295562;1.05;-1.68;0.12;-0.673372;-0.755577;-0.026308;0.0;0.0;0.0;0.0;0.0;0.0
1.0;1753877894.836724;18.298226;1.06;-1.54;0.11;-0.673052;-0.753819;-0.02343;0.0;0.0;0.0;0.0;0.0;0.0
1.0;1753877894.841318;18.289353;1.05;-1.66;0.04;-0.672494;-0.755666;-0.023513;0.0;0.0;0.0;0.0;0.0;0.0
1.0;1753877894.84591;18.298132;1.03;-1.61;-0.0;-0.673911;-0.753052;-0.025464;0.0;0.0;0.0;0.0;0.0;0.0
1.0;1753877894.850503;18.312012;0.99;-1.54;0.11;-0.672855;-0.75343;-0.02463;0.0;0.0;0.0;0.0;0.0;0.0
1.0;1753877894.85626;18.292969;0.98;-1.54;0.07;-0.672098;-0.75274;-0.02501;0.0;0.0;0.0;0.0;0.0;0.0
1.0;1753877894.860853;18.29056;1.02;-1.52;0.15;-0.672152;-0.752776;-0.024966;0.0;0.0;0.0;0.0;0.0;0.0
1.0;1753877894.865446;18.283456;0.95;-1.51;0.05;-0.671492;-0.754774;-0.024882;0.0;0.0;0.0;0.0;0.0;0.0
1.0;1753877894.870039;18.312057;1.11;-1.66;0.01;-0.670449;-0.752581;-0.025018;0.0;0.0;0.0;0.0;0.0;0.0
1.0;1753877894.874632;18.294637;1.12;-1.57;0.06;-0.673228;-0.752662;-0.026904;0.0;0.0;0.0;0.0;0.0;0.0
1.0;1753877894.879224;18.302858;1.06;-1.6;0.06;-0.671088;-0.752744;-0.02409;0.0;0.0;0.0;0.0;0.0;0.0
1.0;1753877894.883818;18.314992;1.1;-1.55;0.02;-0.673177;-0.753503;-0.02508;0.0;0.0;0.0;0.0;0.0;0.0
1.0;1753877894.88841;18.302419;0.99;-1.56;0.13;-0.673465;-0.752447;-0.025766;0.0;0.0;0.0;0.0;0.0;0.0
1.0;1753877894.893003;18.291133;1.12;-1.55;0.04;-0.674491;-0.753212;-0.024906;0.0;0.0;0.0;0.0;0.0;0.0
1.0;1753877894.897596;18.31667;1.09;-1.59;0.11;-0.674761;-0.754138;-0.026359;0.0;0.0;0.0;0.0;0.0;0.0
1.0;1753877894.902189;18.295085;1.07;-1.59;0.14;-0.671103;-0.752039;-0.026871;0.0;0.0;0.0;0.0;0.0;0.0
1.0;1753877894.906782;18.317487;1.11;-1.5;0.1;-0.673063;-0.753135;-0.026802;0.0;0.0;0.0;0.0;0.0;0.0
1.0;1753877894.911375;18.291631;1.17;-1.6;0.12;-0.673119;-0.75291;-0.026728;0.0;0.0;0.0;0.0;0.0;0.0
1.0;1753877894.91631;18.292969;1.19;-1.61;0.07;-0.673928;-0.753472;-0.026108;0.0;0.0;0.0;0.0;0.0;0.0
1.0;1753877894.920903;18.27734;1.11;-1.55;0.03;-0.674994;-0.753338;-0.025366;0.0;0.0;0.0;0.0;0.0;0.0
1.0;1753877894.925496;18.288815;1.2;-1.61;0.06;-0.674022;-0.753576;-0.0256;0.0;0.0;0.0;0.0;0.0;0.0
1.0;1753877894.930089;18.294127;1.16;-1.62;0.1;-0.672331;-0.7539;-0.025944;0.0;0.0;0.0;0.0;0.0;0.0
1.0;1753877894.934682;18.326427;1.17;-1.67;-0.02;-0.672362;-0.754746;-0.026056;0.0;0.0;0.0;0.0;0.0;0.0
1.0;1753877894.939274;18.307918;1.11;-1.75;0.01;-0.67092;-0.753516;-0.025435;0.0;0.0;0.0;0.0;0.0;0.0
1.0;1753877894.94772;18.292969;1.05;-1.68;0.07;-0.67161;-0.753716;-0.0244;0.0;0.0;0.0;0.0;0.0;0.0
1.0;1753877894.952313;18.312391;1.1;-1.66;0.08;-0.670171;-0.75567;-0.022955;0.0;0.0;0.0;0.0;0.0;0.0
1.0;1753877894.956906;18.284851;0.96;-1.59;0.1;-0.671192;-0.753258;-0.025787;0.0;0.0;0.0;0.0;0.0;0.0
1.0;1753877894.961499;18.287592;1.03;-1.64;0.04;-0.673233;-0.753264;-0.02488;0.0;0.0;0.0;0.0;0.0;0.0
1.0;1753877894.966092;18.272546;1.06;-1.61;0.06;-0.674077;-0.753567;-0.024542;0.0;0.0;0.0;0.0;0.0;0.0
1.0;1753877894.970684;18.297114;1.09;-1.7;0.08;-0.67137;-0.752669;-0.025095;0.0;0.0;0.0;0.0;0.0;0.0
1.0;1753877894.975278;18.288156;0.97;-1.61;0.04;-0.671481;-0.753238;-0.024301;0.0;0.0;0.0;0.0;0.0;0.0
1.0;1753877894.97987;18.297215;1.03;-1.59;0.06;-0.671945;-0.753104;-0.024828;0.0;0.0;0.0;0.0;0.0;0.0
1.0;1753877894.984463;18.285288;1.13;-1.68;0.11;-0.673179;-0.75482;-0.025805;0.0;0.0;0.0;0.0;0.0;0.0
1.0;1753877894.989056;18.281195;1.07;-1.65;0.13;-0.672469;-0.75349;-0.024875;0.0;0.0;0.0;0.0;0.0;0.0
1.0;1753877894.99739;18.292969;1.05;-1.61;0.07;-0.673074;-0.753716;-0.02562;0.0;0.0;0.0;0.0;0.0;0.0
1.0;1753877895.001983;18.327223;0.76;-1.14;0.69;-0.654774;-0.810317;-0.025184;0.0;0.0;0.0;0.0;0.0;0.0
1.0;1753877895.006576;18.322911;1.71;-1.38;-0.23;-0.674933;-0.744414;-0.01731;0.0;0.0;0.0;0.0;0.0;0.0
1.0;1753877895.011169;18.266173;0.85;-1.2;2.87;-0.664079;-0.804304;-0.030909;0.0;0.0;0.0;0.0;0.0;0.0
1.0;1753877895.015762;18.328029;1.69;-1.06;0.2;-0.64235;-0.751851;-0.036836;0.0;0.0;0.0;0.0;0.0;0.0
1.0;1753877895.020354;18.269681;1.66;-2.34;-1.03;-0.722342;-0.765105;-0.03799;0.0;0.0;0.0;0.0;0.0;0.0
1.0;1753877895.024948;18.274272;1.05;-1.9;-0.7;-0.696079;-0.837299;-0.038291;0.0;0.0;0.0;0.0;0.0;0.0
1.0;1753877895.02954;18.311093;1.53;-2.05;0.4;-0.63524;-0.783982;-0.023486;0.0;0.0;0.0;0.0;0.0;0.0
1.0;1753877895.034133;18.294578;0.93;-1.65;-4.14;-0.69464;-0.828263;-0.038882;0.0;0.0;0.0;0.0;0.0;0.0
1.0;1753877895.038726;18.253947;0.9;-1.38;0.06;-0.638372;-0.793362;-0.026605;0.0;0.0;0.0;0.0;0.0;0.0
1.0;1753877895.043319;18.288276;1.28;-1.36;1.52;-0.664482;-0.726393;-0.026941;0.0;0.0;0.0;0.0;0.0;0.0
1.0;1753877895.047912;18.290127;1.65;-1.52;-2.83;-0.647027;-0.687895;-0.034514;0.0;0.0;0.0;0.0;0.0;0.0
1.0;1753877895.052505;18.306601;0.79;-1.19;0.18;-0.688736;-0.76516;-0.008393;0.0;0.0;0.0;0.0;0.0;0.0
1.0;1753877895.057098;18.323543;0.92;-1.77;1.06;-0.630734;-0.747671;-0.023823;0.0;0.0;0.0;0.0;0.0;0.0
1.0;1753877895.06169;18.314071;1.59;-2.29;0.59;-0.659066;-0.76064;-0.032;0.0;0.0;0.0;0.0;0.0;0.0
1.0;1753877895.066284;18.256596;1.83;-1.21;-0.78;-0.693127;-0.797017;-0.021757;0.0;0.0;0.0;0.0;0.0;0.0
1.0;1753877895.070876;18.301621;1.2;-2.15;0.16;-0.666167;-0.745201;-0.031638;0.0;0.0;0.0;0.0;0.0;0.0
1.0;1753877895.075469;18.251648;0.94;-1.8;0.36;-0.664132;-0.789831;-0.033303;0.0;0.0;0.0;0.0;0.0;0.0
1.0;1753877895.080062;18.271084;1.31;-1.98;2.43;-0.669114;-0.751855;-0.024158;0.0;0.0;0.0;0.0;0.0;0.0
1.0;1753877895.084655;18.289359;1.6;-2.29;2.31;-0.639572;-0.766693;-0.005949;0.0;0.0;0.0;0.0;0.0;0.0
1.0;1753877895.089248;18.257837;1.48;-1.45;1.93;-0.675606;-0.776885;-0.034673;0.0;0.0;0.0;0.0;0.0;0.0
1.0;1753877895.093841;18.288052;1.58;-1.94;-0.21;-0.636609;-0.808033;-0.029456;0.0;0.0;0.0;0.0;0.0;0.0
1.0;1753877895.098434;18.310857;1.29;-1.65;-0.36;-0.657876;-0.767557;-0.0159;0.0;0.0;0.0;0.0;0.0;0.0
1.0;1753877895.103027;18.242721;1.3;-2.31;2.43;-0.653449;-0.710918;-0.025125;0.0;0.0;0.0;0.0;0.0;0.0
1.0;1753877895.10762;18.27973;1.79;-1.45;2.75;-0.644331;-0.768805;-0.025465;0.0;0.0;0.0;0.0;0.0;0.0
1.0;1753877895.112212;18.278018;1.66;-1.33;0.0;-0.680232;-0.741194;-0.03897;0.0;0.0;0.0;0.0;0.0;0.0
1.0;1753877895.116805;18.298379;1.27;-1.34;3.11;-0.641095;-0.752952;-0.044515;0.0;0.0;0.0;0.0;0.0;0.0
1.0;1753877895.121398;18.283358;1.32;-1.47;1.4;-0.685287;-0.806999;-0.032426;0.0;0.0;0.0;0.0;0.0;0.0
1.0;1753877895.125991;18.257742;1.51;-1.43;-2.79;-0.633798;-0.787787;-0.026296;0.0;0.0;0.0;0.0;0.0;0.0
1.0;1753877895.130584;18.301488;1.46;-2.09;2.68;-0.610696;-0.797383;-0.032771;0.0;0.0;0.0;0.0;0.0;0.0
1.0;1753877895.135177;18.295511;1.36;-1.6;2.21;-0.593851;-0.791154;-0.038602;0.0;0.0;0.0;0.0;0.0;0.0
1.0;1753877895.13977;18.289965;1.46;-2.14;-0.54;-0.64015;-0.793229;-0.029157;0.0;0.0;0.0;0.0;0.0;0.0
1.0;1753877895.144363;18.273461;1.59;-2.09;1.33;-0.651193;-0.712976;-0.035118;0.0;0.0;0.0;0.0;0.0;0.0
1.0;1753877895.148956;18.247789;1.02;-1.8;-1.53;-0.661783;-0.731432;-0.029445;0.0;0.0;0.0;0.0;0.0;0.0
1.0;1753877895.153548;18.299256;1.03;-2.17;-0.11;-0.648984;-0.7955;-0.035269;0.0;0.0;0.0;0.0;0.0;0.0
1.0;1753877895.158141;18.282689;1.48;-1.72;-0.64;-0.580947;-0.831228;-0.04009;0.0;0.0;0.0;0.0;0.0;0.0
1.0;1753877895.162734;18.321729;1.43;-2.02;1.61;-0.597774;-0.759104;-0.040668;0.0;0.0;0.0;0.0;0.0;0.0
1.0;1753877895.167327;18.333135;1.8;-1.41;3.22;-0.620102;-0.823121;-0.025975;0.0;0.0;0.0;0.0;0.0;0.0
1.0;1753877895.17192;18.265227;1.23;-1.68;4.36;-0.616806;-0.780748;-0.018472;0.0;0.0;0.0;0.0;0.0;0.0
1.0;1753877895.176513;18.248099;1.89;-1.38;2.27;-0.615189;-0.77181;-0.051718;0.0;0.0;0.0;0.0;0.0;0.0
1.0;1753877895.181106;18.2953;1.35;-1.29;2.02;-0.632663;-0.824434;-0.036106;0.0;0.0;0.0;0.0;0.0;0.0
1.0;1753877895.185699;18.307078;1.51;-1.63;0.17;-0.650883;-0.830857;-0.052881;0.0;0.0;0.0;0.0;0.0;0.0
1.0;1753877895.190292;18.320226;2.11;-1.86;0.89;-0.5759;-0.803877;-0.032984;0.0;0.0;0.0;0.0;0.0;0.0
1.0;1753877895.194884;18.275947;1.08;-2.48;-0.77;-0.667385;-0.744797;-0.011712;0.0;0.0;0.0;0.0;0.0;0.0
