sep=,
PacketCounter,SampleTimeFine,Euler_X,Euler_Y,Euler_Z,Acc_X,Acc_Y,Acc_Z,Gyr_X,Gyr_Y,Gyr_Z,Mag_X,Mag_Y,Mag_Z,Status,
0, 173554364, 75.19950866699219, -64.37176513671875, -116.49983215332031, 0, 0, 0, 0, 0, 0, -0.9580078125, 0.26806640625, 0.41357421875, 0, 
1, 173562697, 75.19490814208984, -64.37135314941406, -116.49481964111328, 9.27782154083252, 4.175206184387207, 1.0694423913955688, 1.5937304496765137, -0.9263386726379395, -0.013165716081857681, -0.9541015625, 0.263671875, 0.4150390625, 0, 
2, 173571030, 75.19248962402344, -64.37085723876953, -116.49237823486328, 8.795819282531738, 4.108949661254883, 0.9965412020683289, 1.5545663833618164, -1.0641945600509644, -0.055070601403713226, -0.95703125, 0.26953125, 0.40771484375, 0, 
3, 173579363, 75.19217681884766, -64.36992645263672, -116.49236297607422, 8.473150253295898, 4.05783224105835, 1.1228132247924805, 1.5675272941589355, -1.1618105173110962, -0.14172357320785522, -0.95361328125, 0.26708984375, 0.41552734375, 0, 
4, 173587696, 75.19417572021484, -64.37104797363281, -116.49449157714844, 8.801861763000488, 4.096132278442383, 1.1762839555740356, 1.5422204732894897, -1.370976448059082, 0.06287014484405518, -0.955078125, 0.26806640625, 0.41357421875, 0, 
5, 173596029, 75.1953125, -64.37207794189453, -116.49591064453125, 9.327147483825684, 4.229850769042969, 1.1174936294555664, 1.5873268842697144, -1.2937750816345215, 0.06935054063796997, -0.95703125, 0.265625, 0.40869140625, 0, 
6, 173604362, 75.19296264648438, -64.37214660644531, -116.49348449707031, 9.354637145996094, 4.1516852378845215, 1.0770453214645386, 1.5706008672714233, -1.079896092414856, 0.007031106855720282, -0.955078125, 0.267578125, 0.41357421875, 0, 
7, 173612695, 75.18990325927734, -64.37059020996094, -116.49054718017578, 8.917475700378418, 4.1609272956848145, 1.0021209716796875, 1.553772211074829, -0.9970085024833679, -0.17233256995677948, -0.955078125, 0.26708984375, 0.41259765625, 0, 
8, 173621028, 75.19107818603516, -64.36975860595703, -116.49105072021484, 8.427983283996582, 4.137396335601807, 1.125564455986023, 1.6835851669311523, -1.196492075920105, -0.13731791079044342, -0.95654296875, 0.2646484375, 0.41748046875, 0, 
9, 173629361, 75.1957015991211, -64.37095642089844, -116.49628448486328, 8.616747856140137, 4.15548038482666, 1.149385929107666, 1.5897090435028076, -1.4896725416183472, 0.037947483360767365, -0.95751953125, 0.2646484375, 0.4150390625, 0, 
10, 173637694, 75.1964111328125, -64.37238311767578, -116.49696350097656, 9.15832233428955, 4.174218654632568, 1.1266686916351318, 1.6381713151931763, -1.2579662799835205, 0.1302868127822876, -0.9560546875, 0.26611328125, 0.41552734375, 0, 
11, 173646027, 75.19752502441406, -64.37332153320312, -116.4984130859375, 9.464900970458984, 4.171084880828857, 1.0675221681594849, 1.5802189111709595, -1.2935316562652588, 0.05834922567009926, -0.9521484375, 0.2666015625, 0.4150390625, 0, 
12, 173654360, 75.19218444824219, -64.37030792236328, -116.49274444580078, 9.08325481414795, 4.118575096130371, 1.0076348781585693, 1.5847142934799194, -0.8096402883529663, -0.30309322476387024, -0.95703125, 0.265625, 0.4150390625, 0, 
13, 173662693, 75.19121551513672, -64.368408203125, -116.49210357666016, 8.54638385772705, 4.088341236114502, 1.0266722440719604, 1.5575376749038696, -1.1016426086425781, -0.2413373440504074, -0.955078125, 0.26708984375, 0.416015625, 0, 
14, 173671026, 75.19356536865234, -64.36830139160156, -116.4947280883789, 8.49859619140625, 4.162837505340576, 1.1224660873413086, 1.6066784858703613, -1.3143303394317627, -0.07616392523050308, -0.95703125, 0.2666015625, 0.4111328125, 0, 
15, 173679359, 75.19728088378906, -64.36962127685547, -116.49993133544922, 9.0621976852417, 4.145990371704102, 1.1752979755401611, 1.4869062900543213, -1.4929128885269165, 0.05330321937799454, -0.95849609375, 0.26611328125, 0.41748046875, 0, 
16, 173687692, 75.19876861572266, -64.37164306640625, -116.50162506103516, 9.518057823181152, 4.18345832824707, 1.129063606262207, 1.5758388042449951, -1.3533408641815186, 0.17479152977466583, -0.95458984375, 0.267578125, 0.41552734375, 0, 
17, 173696025, 75.19346618652344, -64.36994934082031, -116.49577331542969, 9.20824146270752, 4.151690483093262, 1.066463589668274, 1.601274013519287, -0.8455643057823181, -0.14729465544223785, -0.95654296875, 0.2646484375, 0.4189453125, 0, 
18, 173704358, 75.19075012207031, -64.36881256103516, -116.49341583251953, 8.634784698486328, 4.1939520835876465, 1.0303157567977905, 1.5378532409667969, -1.036928415298462, -0.1355377435684204, -0.95361328125, 0.265625, 0.41552734375, 0, 
19, 173712691, 75.19063568115234, -64.36908721923828, -116.4936752319336, 8.350869178771973, 4.201321601867676, 1.110704779624939, 1.562762975692749, -1.2135000228881836, -0.003816520795226097, -0.9580078125, 0.265625, 0.41552734375, 0, 
20, 173721024, 75.19377899169922, -64.37195587158203, -116.49694061279297, 8.86298656463623, 4.095365047454834, 1.1615777015686035, 1.639349341392517, -1.4346020221710205, 0.26512011885643005, -0.95458984375, 0.26708984375, 0.40966796875, 0, 
21, 173729357, 75.19819641113281, -64.3728256225586, -116.5, 9.414575576782227, 4.154410362243652, 1.1208616495132446, 1.8056756258010864, -1.3715271949768066, 0.029712513089179993, -0.9560546875, 0.2646484375, 0.4150390625, 0, 
22, 173737690, 75.1969985961914, -64.37250518798828, -116.4976577758789, 9.411922454833984, 4.1671552658081055, 1.096019983291626, 1.6801272630691528, -1.0805108547210693, -0.042929455637931824, -0.95556640625, 0.26708984375, 0.408203125, 0, 
23, 173746023, 75.19196319580078, -64.37004852294922, -116.492919921875, 8.859305381774902, 4.177913665771484, 0.9743862748146057, 1.5139294862747192, -0.8764551877975464, -0.2536706030368805, -0.9541015625, 0.26513671875, 0.416015625, 0, 
24, 173754356, 75.1911392211914, -64.36933898925781, -116.49127960205078, 8.40924072265625, 4.070157051086426, 1.104197382926941, 1.6329972743988037, -1.1167806386947632, -0.09792322665452957, -0.95849609375, 0.26611328125, 0.4150390625, 0, 
25, 173762689, 75.19647216796875, -64.37076568603516, -116.49696350097656, 8.694341659545898, 4.113945960998535, 1.1265743970870972, 1.6290011405944824, -1.5188215970993042, 0.05800343304872513, -0.953125, 0.26513671875, 0.41552734375, 0, 
26, 173771022, 75.1957778930664, -64.37203216552734, -116.4966812133789, 9.248587608337402, 4.196218490600586, 1.1851900815963745, 1.5497126579284668, -1.2172269821166992, 0.12205184251070023, -0.955078125, 0.265625, 0.4140625, 0, 
27, 173779355, 75.19499969482422, -64.37247467041016, -116.49568176269531, 9.437830924987793, 4.2057952880859375, 1.0549906492233276, 1.618768334388733, -1.1544463634490967, 0.032760605216026306, -0.95361328125, 0.2666015625, 0.40966796875, 0, 
28, 173787688, 75.19107818603516, -64.3708724975586, -116.49120330810547, 8.995457649230957, 4.215124130249023, 0.9858232140541077, 1.6204204559326172, -0.9169127941131592, -0.15752753615379333, -0.95654296875, 0.26611328125, 0.41357421875, 0, 
29, 173796021, 75.19204711914062, -64.36972045898438, -116.49170684814453, 8.500144004821777, 4.155585289001465, 1.0965429544448853, 1.6666028499603271, -1.1826603412628174, -0.17274238169193268, -0.95751953125, 0.265625, 0.41552734375, 0, 
30, 173804354, 75.1939926147461, -64.37064361572266, -116.49296569824219, 8.591254234313965, 4.103594779968262, 1.1127029657363892, 1.6920123100280762, -1.284963607788086, 0.060949068516492844, -0.95263671875, 0.26611328125, 0.41845703125, 0, 
31, 173812687, 75.19792175292969, -64.37141418457031, -116.49798583984375, 9.091465950012207, 4.104274272918701, 1.1536122560501099, 1.532883644104004, -1.4676058292388916, -0.0057503958232700825, -0.958984375, 0.26611328125, 0.41357421875, 0, 
32, 173821020, 75.197509765625, -64.37256622314453, -116.4977035522461, 9.464266777038574, 4.238010406494141, 1.123930811882019, 1.611801266670227, -1.1978882551193237, 0.10862996429204941, -0.95361328125, 0.2666015625, 0.41796875, 0, 
33, 173829353, 75.19340515136719, -64.37100219726562, -116.4933853149414, 9.154460906982422, 4.1741719245910645, 1.023850679397583, 1.5782208442687988, -0.9277859926223755, -0.15310907363891602, -0.95703125, 0.2666015625, 0.4140625, 0, 
34, 173837686, 75.19223022460938, -64.36909484863281, -116.49176025390625, 8.658037185668945, 4.067875862121582, 1.014016032218933, 1.6619541645050049, -1.0386700630187988, -0.2248033583164215, -0.95751953125, 0.263671875, 0.41650390625, 0, 
35, 173846019, 75.19347381591797, -64.36898803710938, -116.49283599853516, 8.429936408996582, 4.07916259765625, 1.1140578985214233, 1.636083722114563, -1.2408688068389893, -0.058720629662275314, -0.95556640625, 0.26611328125, 0.41650390625, 0, 
36, 173854352, 75.197265625, -64.37071228027344, -116.49761962890625, 8.895889282226562, 4.091641426086426, 1.1768386363983154, 1.572739601135254, -1.4706283807754517, 0.10729802399873734, -0.95654296875, 0.26513671875, 0.4150390625, 0, 
37, 173862685, 75.20014190673828, -64.37185668945312, -116.50059509277344, 9.407587051391602, 4.2368388175964355, 1.108282446861267, 1.6273363828659058, -1.3764066696166992, 0.0616406574845314, -0.95458984375, 0.2666015625, 0.416015625, 0, 
38, 173871018, 75.19583129882812, -64.37095642089844, -116.49607849121094, 9.390477180480957, 4.212184429168701, 1.1124422550201416, 1.5821402072906494, -0.9302193522453308, -0.07311583310365677, -0.95654296875, 0.2666015625, 0.4111328125, 0, 
39, 173879351, 75.19367218017578, -64.3690185546875, -116.49343872070312, 8.848105430603027, 4.152145862579346, 1.0129685401916504, 1.63016676902771, -1.0002487897872925, -0.22198575735092163, -0.955078125, 0.26611328125, 0.41796875, 0, 
40, 173887684, 75.19229125976562, -64.3678970336914, -116.49127960205078, 8.395359992980957, 4.083537578582764, 1.123041033744812, 1.65078604221344, -1.0602115392684937, -0.13366787135601044, -0.955078125, 0.26611328125, 0.41455078125, 0, 
41, 173896017, 75.19648742675781, -64.36934661865234, -116.49616241455078, 8.64497184753418, 4.178243160247803, 1.0903161764144897, 1.5800909996032715, -1.479798436164856, 0.07261636108160019, -0.95654296875, 0.26806640625, 0.41455078125, 0, 
42, 173904350, 75.19807434082031, -64.37020111083984, -116.49834442138672, 9.240260124206543, 4.219954490661621, 1.164658546447754, 1.558741569519043, -1.3279188871383667, 0.03953557461500168, -0.9541015625, 0.26708984375, 0.41162109375, 0, 
43, 173912683, 75.19754028320312, -64.37060546875, -116.49808502197266, 9.502808570861816, 4.148643493652344, 1.122259497642517, 1.5703189373016357, -1.1902166604995728, 0.020094366744160652, -0.9580078125, 0.26708984375, 0.4150390625, 0, 
44, 173921016, 75.19327545166016, -64.36906433105469, -116.49335479736328, 9.097192764282227, 4.140248775482178, 0.9872159957885742, 1.5808720588684082, -0.9169896245002747, -0.14825518429279327, -0.955078125, 0.2666015625, 0.4150390625, 0, 
45, 173929349, 75.19078826904297, -64.36864471435547, -116.49029541015625, 8.489723205566406, 4.107845306396484, 1.0502468347549438, 1.6378893852233887, -1.0253121852874756, -0.03908732160925865, -0.95654296875, 0.26416015625, 0.41455078125, 0, 
46, 173937682, 75.1930160522461, -64.37007141113281, -116.4930191040039, 8.495113372802734, 4.152778148651123, 1.074831485748291, 1.5829212665557861, -1.3667242527008057, 0.0989862009882927, -0.95654296875, 0.26904296875, 0.41259765625, 0, 
47, 173946015, 75.19709014892578, -64.371337890625, -116.49752807617188, 9.0367431640625, 4.120952129364014, 1.1235630512237549, 1.6079081296920776, -1.4550551176071167, 0.05614640936255455, -0.953125, 0.265625, 0.4169921875, 0, 
48, 173954348, 75.19767761230469, -64.37205505371094, -116.49849700927734, 9.472121238708496, 4.198262691497803, 1.126876950263977, 1.5405040979385376, -1.2793285846710205, 0.03431026637554169, -0.95751953125, 0.26513671875, 0.412109375, 0, 
49, 173962681, 75.19403076171875, -64.37066650390625, -116.49544525146484, 9.230822563171387, 4.209497451782227, 1.0429641008377075, 1.496088981628418, -0.9942165613174438, -0.1498432606458664, -0.9541015625, 0.2666015625, 0.41162109375, 0, 
50, 173971014, 75.19161224365234, -64.3690185546875, -116.49311065673828, 8.703984260559082, 4.200943470001221, 0.9956693649291992, 1.5663872957229614, -1.0252480506896973, -0.18999359011650085, -0.95654296875, 0.2666015625, 0.4140625, 0, 
51, 173979347, 75.19259643554688, -64.36886596679688, -116.49452209472656, 8.400486946105957, 4.1542582511901855, 1.088330864906311, 1.5724066495895386, -1.2561862468719482, -0.06776246428489685, -0.95263671875, 0.26611328125, 0.41796875, 0, 
52, 173987680, 75.19647979736328, -64.37053680419922, -116.49964141845703, 8.894580841064453, 4.126734733581543, 1.151650071144104, 1.5082942247390747, -1.5035171508789062, 0.094183549284935, -0.953125, 0.26513671875, 0.41552734375, 0, 
53, 173996013, 75.19696807861328, -64.37109375, -116.49986267089844, 9.36805248260498, 4.188623428344727, 1.1773803234100342, 1.640130639076233, -1.219865083694458, 0.029097769409418106, -0.95556640625, 0.2666015625, 0.4072265625, 0, 
54, 174004346, 75.1955795288086, -64.37091064453125, -116.49838256835938, 9.32487678527832, 4.150994777679443, 1.0745913982391357, 1.6029900312423706, -1.1099801063537598, -0.028675135225057602, -0.95361328125, 0.2646484375, 0.4150390625, 0, 
55, 174012679, 75.19168090820312, -64.36893463134766, -116.49376678466797, 8.843758583068848, 4.183598518371582, 0.9697079062461853, 1.636800765991211, -0.8976379632949829, -0.1969606578350067, -0.9560546875, 0.26513671875, 0.41259765625, 0, 
56, 174021012, 75.18938446044922, -64.3683090209961, -116.49229431152344, 8.425273895263672, 4.1098222732543945, 1.0802698135375977, 1.5054253339767456, -1.091896414756775, -0.08574364334344864, -0.95556640625, 0.26513671875, 0.41064453125, 0, 
57, 174029345, 75.19285583496094, -64.36918640136719, -116.49668884277344, 8.735198020935059, 4.073436260223389, 1.1731497049331665, 1.5456781387329102, -1.4396735429763794, 0.012461325153708458, -0.95458984375, 0.2666015625, 0.4140625, 0, 
58, 174037678, 75.19593811035156, -64.37098693847656, -116.49903869628906, 9.258913040161133, 4.173128128051758, 1.204685926437378, 1.6929343938827515, -1.3742294311523438, 0.14565536379814148, -0.95556640625, 0.26611328125, 0.4169921875, 0, 
59, 174046011, 75.1955337524414, -64.37114715576172, -116.49906921386719, 9.476652145385742, 4.2632222175598145, 1.1206598281860352, 1.5532726049423218, -1.1976832151412964, -0.013434665277600288, -0.9541015625, 0.2666015625, 0.41455078125, 0, 
60, 174054344, 75.19149017333984, -64.36975860595703, -116.49478912353516, 9.04179573059082, 4.285620212554932, 0.9495839476585388, 1.6011329889297485, -0.9252886176109314, -0.13158032298088074, -0.95703125, 0.2666015625, 0.41455078125, 0, 
61, 174062677, 75.18879699707031, -64.3681640625, -116.49253845214844, 8.49365520477295, 4.111590385437012, 1.0760775804519653, 1.5253660678863525, -1.0284115076065063, -0.18683022260665894, -0.95458984375, 0.2666015625, 0.4169921875, 0, 
62, 174071010, 75.19090270996094, -64.3688735961914, -116.494873046875, 8.514307975769043, 4.089754104614258, 1.125229835510254, 1.6056538820266724, -1.3303648233413696, 0.023590710014104843, -0.955078125, 0.26611328125, 0.41650390625, 0, 
63, 174079343, 75.19322204589844, -64.37025451660156, -116.49687194824219, 9.03836727142334, 4.132967472076416, 1.1689194440841675, 1.6657066345214844, -1.3339893817901611, 0.10408345609903336, -0.9541015625, 0.2666015625, 0.4140625, 0, 
64, 174087676, 75.1954116821289, -64.37141418457031, -116.50067901611328, 9.442910194396973, 4.2281389236450195, 1.0738260746002197, 1.4814376831054688, -1.4053760766983032, 0.05280374363064766, -0.955078125, 0.2666015625, 0.4130859375, 0, 
65, 174096009, 75.19063568115234, -64.37108612060547, -116.49591064453125, 9.237643241882324, 4.1703290939331055, 1.0358489751815796, 1.5472149848937988, -0.9426292777061462, -0.0064035579562187195, -0.9580078125, 0.263671875, 0.41552734375, 0, 
66, 174104342, 75.18970489501953, -64.37033081054688, -116.49445343017578, 8.709400177001953, 4.0915703773498535, 1.0309288501739502, 1.6424870491027832, -1.0965582132339478, -0.09609179943799973, -0.9541015625, 0.265625, 0.41748046875, 0, 
67, 174112675, 75.19070434570312, -64.36997985839844, -116.494384765625, 8.449294090270996, 4.065782070159912, 1.145330548286438, 1.7325979471206665, -1.1776270866394043, -0.07198880612850189, -0.95751953125, 0.2666015625, 0.41357421875, 0, 
68, 174121008, 75.1961669921875, -64.37098693847656, -116.50000762939453, 8.856486320495605, 4.13685417175293, 1.1409493684768677, 1.6777580976486206, -1.4911199808120728, 0.01687978208065033, -0.95361328125, 0.265625, 0.41064453125, 0, 
69, 174129341, 75.19822692871094, -64.37220764160156, -116.5020751953125, 9.350221633911133, 4.260915279388428, 1.1086499691009521, 1.6286554336547852, -1.3300319910049438, 0.08278520405292511, -0.95751953125, 0.2646484375, 0.4150390625, 0, 
70, 174137674, 75.19432067871094, -64.37149047851562, -116.4978256225586, 9.343894004821777, 4.145961284637451, 1.0610973834991455, 1.5810641050338745, -0.9655413627624512, -0.05956590175628662, -0.955078125, 0.2666015625, 0.41552734375, 0, 
71, 174146007, 75.192138671875, -64.37003326416016, -116.49613189697266, 8.862056732177734, 4.145856857299805, 1.0224230289459229, 1.5255070924758911, -1.0598787069320679, -0.17772437632083893, -0.9541015625, 0.26318359375, 0.416015625, 0, 
72, 174154340, 75.1921157836914, -64.36973571777344, -116.4964828491211, 8.39968204498291, 4.108389854431152, 1.1286110877990723, 1.5725092887878418, -1.194763422012329, -0.0690687894821167, -0.95849609375, 0.265625, 0.41015625, 0, 
73, 174162673, 75.19511413574219, -64.37213134765625, -116.49962615966797, 8.696468353271484, 4.118525505065918, 1.1313626766204834, 1.6225849390029907, -1.4226785898208618, 0.20529809594154358, -0.9521484375, 0.26513671875, 0.41015625, 0, 
74, 174171006, 75.19566345214844, -64.37364196777344, -116.49967193603516, 9.252184867858887, 4.165578842163086, 1.1104061603546143, 1.6361476182937622, -1.2542009353637695, 0.1408398598432541, -0.9560546875, 0.26611328125, 0.4072265625, 0, 
75, 174179339, 75.195068359375, -64.3743896484375, -116.49909210205078, 9.453474998474121, 4.1673359870910645, 1.100511074066162, 1.5964198112487793, -1.18437659740448, 0.06494487822055817, -0.95556640625, 0.26708984375, 0.41748046875, 0, 
76, 174187672, 75.19230651855469, -64.37261199951172, -116.49555969238281, 9.00908088684082, 4.157776832580566, 1.005601406097412, 1.618179202079773, -0.9776312112808228, -0.19783152639865875, -0.9560546875, 0.2646484375, 0.41455078125, 0, 
77, 174196005, 75.19309997558594, -64.37101745605469, -116.49583435058594, 8.488348007202148, 4.104113578796387, 1.063966989517212, 1.6722253561019897, -1.1556756496429443, -0.2180923968553543, -0.95654296875, 0.2646484375, 0.4150390625, 0, 
78, 174204338, 75.19530487060547, -64.37142944335938, -116.49839782714844, 8.551626205444336, 4.163024425506592, 1.0822416543960571, 1.6006593704223633, -1.32698392868042, -0.015125207602977753, -0.9541015625, 0.2666015625, 0.41748046875, 0, 
79, 174212671, 75.196533203125, -64.37251281738281, -116.50115966796875, 9.108560562133789, 4.1999688148498535, 1.2046899795532227, 1.4549397230148315, -1.3619728088378906, 0.05786256119608879, -0.95703125, 0.265625, 0.41455078125, 0, 
80, 174221004, 75.19573974609375, -64.37359619140625, -116.50193786621094, 9.478484153747559, 4.199428081512451, 1.1336846351623535, 1.4433364868164062, -1.25221586227417, 0.09095614403486252, -0.955078125, 0.26513671875, 0.41162109375, 0, 
81, 174229337, 75.18977355957031, -64.37237548828125, -116.49577331542969, 9.179452896118164, 4.1231770515441895, 1.0468860864639282, 1.5547326803207397, -0.8453593850135803, -0.0909433364868164, -0.95458984375, 0.26806640625, 0.40869140625, 0, 
82, 174237670, 75.18866729736328, -64.37139892578125, -116.49381256103516, 8.621360778808594, 4.171938419342041, 1.026597499847412, 1.6768996715545654, -1.067857265472412, -0.12079672515392303, -0.95556640625, 0.265625, 0.4150390625, 0, 
83, 174246003, 75.19013977050781, -64.37236785888672, -116.49506378173828, 8.404322624206543, 4.193424224853516, 1.0650124549865723, 1.6456761360168457, -1.2843488454818726, 0.06573892384767532, -0.95361328125, 0.26513671875, 0.4111328125, 0, 
84, 174254336, 75.19338989257812, -64.37371826171875, -116.49922943115234, 8.942625999450684, 4.070896148681641, 1.1469868421554565, 1.554502248764038, -1.4346789121627808, 0.07066967338323593, -0.95654296875, 0.2666015625, 0.40771484375, 0, 
85, 174262669, 75.19432830810547, -64.37560272216797, -116.50055694580078, 9.44176197052002, 4.170013904571533, 1.1598337888717651, 1.5718944072723389, -1.3158161640167236, 0.17074447870254517, -0.955078125, 0.2666015625, 0.41748046875, 0, 
86, 174271002, 75.19139099121094, -64.3748779296875, -116.49718475341797, 9.368005752563477, 4.2030768394470215, 1.0928934812545776, 1.5641589164733887, -1.029833197593689, -0.08108186721801758, -0.9560546875, 0.26513671875, 0.41015625, 0, 
87, 174279335, 75.18846130371094, -64.37308502197266, -116.49368286132812, 8.831887245178223, 4.183073043823242, 0.9613759517669678, 1.631011962890625, -0.9607259035110474, -0.19163288176059723, -0.9541015625, 0.2666015625, 0.4169921875, 0, 
88, 174287668, 75.18827056884766, -64.37240600585938, -116.49365997314453, 8.387605667114258, 4.091091632843018, 1.0866495370864868, 1.5557317733764648, -1.1847224235534668, -0.11163963377475739, -0.955078125, 0.265625, 0.41357421875, 0, 
89, 174296001, 75.19210815429688, -64.37338256835938, -116.4989013671875, 8.737000465393066, 4.1247711181640625, 1.1430195569992065, 1.498573660850525, -1.4833204746246338, 0.011436756700277328, -0.95556640625, 0.267578125, 0.40869140625, 0, 
90, 174304334, 75.19283294677734, -64.37393951416016, -116.5001220703125, 9.233514785766602, 4.199843406677246, 1.1723594665527344, 1.5520946979522705, -1.2723488807678223, 0.020440159365534782, -0.955078125, 0.2666015625, 0.416015625, 0, 
91, 174312667, 75.19261169433594, -64.37433624267578, -116.50086975097656, 9.42528247833252, 4.164773464202881, 1.0572700500488281, 1.4958969354629517, -1.2422775030136108, 0.005327760707587004, -0.9560546875, 0.265625, 0.408203125, 0, 
92, 174321000, 75.18639373779297, -64.37393951416016, -116.49443817138672, 9.006566047668457, 4.1958231925964355, 0.9812285900115967, 1.5603681802749634, -0.8511739373207092, 0.008862526156008244, -0.95068359375, 0.265625, 0.41162109375, 0, 
93, 174329333, 75.18495178222656, -64.3734359741211, -116.49198913574219, 8.493367195129395, 4.09303617477417, 1.1064366102218628, 1.6963539123535156, -1.0533982515335083, -0.0580802746117115, -0.95703125, 0.265625, 0.41015625, 0, 
94, 174337666, 75.18698120117188, -64.37430572509766, -116.49419403076172, 8.64223575592041, 4.068408012390137, 1.1145012378692627, 1.6039249897003174, -1.331837773323059, 0.04125172644853592, -0.95751953125, 0.2646484375, 0.41748046875, 0, 
95, 174345999, 75.1895523071289, -64.37553405761719, -116.49677276611328, 9.109115600585938, 4.177483558654785, 1.2031333446502686, 1.6330482959747314, -1.356529712677002, 0.07565164566040039, -0.955078125, 0.2646484375, 0.40966796875, 0, 
96, 174354332, 75.18789672851562, -64.3756103515625, -116.49652862548828, 9.44200325012207, 4.287446975708008, 1.140492558479309, 1.4493300914764404, -1.1721969842910767, -0.014664149843156338, -0.95654296875, 0.265625, 0.41455078125, 0, 
97, 174362665, 75.18128967285156, -64.37358093261719, -116.4898910522461, 9.158369064331055, 4.183936595916748, 0.9941375255584717, 1.5291187763214111, -0.7958727478981018, -0.17961981892585754, -0.95263671875, 0.26708984375, 0.41015625, 0, 
98, 174370998, 75.18034362792969, -64.37203216552734, -116.48916625976562, 8.603277206420898, 4.121138095855713, 1.03652822971344, 1.5713051557540894, -1.1047035455703735, -0.19514204561710358, -0.95556640625, 0.265625, 0.4111328125, 0, 
99, 174379331, 75.18013000488281, -64.37191009521484, -116.48887634277344, 8.448344230651855, 4.139105319976807, 1.1484012603759766, 1.609675407409668, -1.172248363494873, -0.041226111352443695, -0.95556640625, 0.26708984375, 0.41748046875, 0, 
100, 174387664, 75.18225860595703, -64.37384796142578, -116.4909439086914, 8.921930313110352, 4.099153518676758, 1.1525920629501343, 1.615720272064209, -1.3649441003799438, 0.16190756857395172, -0.955078125, 0.26708984375, 0.40966796875, 0, 
101, 174395997, 75.18335723876953, -64.37540435791016, -116.49290466308594, 9.427530288696289, 4.2132110595703125, 1.0971002578735352, 1.5229073762893677, -1.3368582725524902, 0.12324289232492447, -0.9580078125, 0.2666015625, 0.41455078125, 0, 
102, 174404330, 75.17899322509766, -64.37480926513672, -116.48876953125, 9.351043701171875, 4.158816814422607, 1.0890603065490723, 1.4958328008651733, -0.9842014312744141, -0.050434429198503494, -0.95458984375, 0.26708984375, 0.4111328125, 0, 
103, 174412663, 75.17874908447266, -64.37283325195312, -116.48811340332031, 8.813308715820312, 4.121427536010742, 1.0578551292419434, 1.6457017660140991, -1.0979796648025513, -0.25381141901016235, -0.95849609375, 0.267578125, 0.41455078125, 0, 
104, 174420996, 75.1788101196289, -64.37151336669922, -116.4861068725586, 8.403098106384277, 4.077229976654053, 1.0833446979522705, 1.796556830406189, -1.0648220777511597, -0.16327792406082153, -0.95458984375, 0.26513671875, 0.416015625, 0, 
105, 174429329, 75.183837890625, -64.37236022949219, -116.49176025390625, 8.7264986038208, 4.178027153015137, 1.135042428970337, 1.5959460735321045, -1.5019290447235107, -0.0059553091414272785, -0.955078125, 0.26708984375, 0.4072265625, 0, 
106, 174437662, 75.18387603759766, -64.37361145019531, -116.49278259277344, 9.276885032653809, 4.256105899810791, 1.1357918977737427, 1.5106250047683716, -1.270350694656372, 0.10404501855373383, -0.9541015625, 0.26513671875, 0.41552734375, 0, 
107, 174445995, 75.18438720703125, -64.37480163574219, -116.49334716796875, 9.448390007019043, 4.155797004699707, 1.1089566946029663, 1.6072163581848145, -1.2543673515319824, 0.10130428522825241, -0.95458984375, 0.267578125, 0.41015625, 0, 
108, 174454328, 75.18113708496094, -64.37151336669922, -116.49006652832031, 9.023697853088379, 4.170208930969238, 0.996134877204895, 1.5836001634597778, -0.9198969602584839, -0.366193950176239, -0.95751953125, 0.26611328125, 0.40966796875, 0, 
109, 174462661, 75.17974853515625, -64.37023162841797, -116.48831939697266, 8.437422752380371, 4.135131359100342, 1.1140499114990234, 1.6258121728897095, -1.06313157081604, -0.15523506700992584, -0.953125, 0.265625, 0.416015625, 0, 
110, 174470994, 75.18277740478516, -64.37126922607422, -116.49151611328125, 8.585562705993652, 4.136874198913574, 1.0932176113128662, 1.5898369550704956, -1.4042234420776367, 0.03902328759431839, -0.96044921875, 0.26513671875, 0.4150390625, 0, 
111, 174479327, 75.18476867675781, -64.37323760986328, -116.49319458007812, 9.098149299621582, 4.130011558532715, 1.1719070672988892, 1.6619924306869507, -1.3353724479675293, 0.17513732612133026, -0.95458984375, 0.2646484375, 0.416015625, 0, 
112, 174487660, 75.18621826171875, -64.3744125366211, -116.49491882324219, 9.50029468536377, 4.1669206619262695, 1.1193959712982178, 1.5942809581756592, -1.3133569955825806, 0.08265713602304459, -0.95556640625, 0.267578125, 0.416015625, 0, 
113, 174495993, 75.18377685546875, -64.37308502197266, -116.49200439453125, 9.176329612731934, 4.165499687194824, 1.0484472513198853, 1.6260172128677368, -1.0038602352142334, -0.1490364372730255, -0.95751953125, 0.26513671875, 0.41455078125, 0, 
114, 174504326, 75.18169403076172, -64.37141418457031, -116.48986053466797, 8.601374626159668, 4.1402692794799805, 1.0185576677322388, 1.5837537050247192, -1.032292127609253, -0.1889946311712265, -0.953125, 0.26611328125, 0.416015625, 0, 
115, 174512659, 75.18354034423828, -64.37141418457031, -116.49174499511719, 8.462501525878906, 4.149125576019287, 1.073425531387329, 1.623327612876892, -1.2844386100769043, -0.05633850768208504, -0.95751953125, 0.263671875, 0.4140625, 0, 
116, 174520992, 75.18592071533203, -64.37364959716797, -116.49537658691406, 8.959935188293457, 4.158746242523193, 1.2149780988693237, 1.5126229524612427, -1.4334110021591187, 0.18224526941776276, -0.95361328125, 0.2646484375, 0.4111328125, 0, 
117, 174529325, 75.18473052978516, -64.37423706054688, -116.49449157714844, 9.399524688720703, 4.2089409828186035, 1.1440616846084595, 1.557447910308838, -1.1649482250213623, 0.04794985055923462, -0.95703125, 0.26611328125, 0.4072265625, 0, 
118, 174537658, 75.18091583251953, -64.37348175048828, -116.4909439086914, 9.275619506835938, 4.152490615844727, 1.042468786239624, 1.5213576555252075, -0.9967140555381775, -0.0723218023777008, -0.95556640625, 0.267578125, 0.41455078125, 0, 
119, 174545991, 75.17965698242188, -64.3724365234375, -116.48928833007812, 8.768115997314453, 4.178102016448975, 0.9663931727409363, 1.6304740905761719, -1.0766814947128296, -0.13026118278503418, -0.9541015625, 0.26708984375, 0.40966796875, 0, 
120, 174554324, 75.17840576171875, -64.37244415283203, -116.4881362915039, 8.40898323059082, 4.103282451629639, 1.1000596284866333, 1.5719969272613525, -1.1389753818511963, -0.016277845948934555, -0.95751953125, 0.2666015625, 0.4091796875, 0, 
121, 174562657, 75.18225860595703, -64.37288665771484, -116.49302673339844, 8.813887596130371, 4.044132709503174, 1.171639323234558, 1.5385830402374268, -1.449611783027649, -0.04467122256755829, -0.953125, 0.26611328125, 0.4111328125, 0, 
122, 174570990, 75.18557739257812, -64.37403106689453, -116.49625396728516, 9.355831146240234, 4.16011381149292, 1.1953569650650024, 1.6186530590057373, -1.408193826675415, 0.05359778553247452, -0.95556640625, 0.26708984375, 0.412109375, 0, 
123, 174579323, 75.18550872802734, -64.37403869628906, -116.49625396728516, 9.467525482177734, 4.223513126373291, 1.0966498851776123, 1.5952032804489136, -1.1919710636138916, -0.029776547104120255, -0.9541015625, 0.26708984375, 0.41357421875, 0, 
124, 174587656, 75.1812515258789, -64.3711929321289, -116.49146270751953, 8.959423065185547, 4.221319198608398, 0.9712746143341064, 1.5845733880996704, -0.8787347674369812, -0.29900774359703064, -0.95361328125, 0.265625, 0.41455078125, 0, 
125, 174595989, 75.17880249023438, -64.37032318115234, -116.48815155029297, 8.44129753112793, 4.124686241149902, 1.086147427558899, 1.6676404476165771, -0.9974567294120789, -0.08984192460775375, -0.9560546875, 0.2646484375, 0.41162109375, 0, 
126, 174604322, 75.18364715576172, -64.37039947509766, -116.49369812011719, 8.59955883026123, 4.131186008453369, 1.1258383989334106, 1.5966118574142456, -1.4676059484481812, -0.09294124692678452, -0.95458984375, 0.26611328125, 0.41552734375, 0, 
127, 174612655, 75.18663024902344, -64.37169647216797, -116.49677276611328, 9.101968765258789, 4.1700663566589355, 1.1862212419509888, 1.6279512643814087, -1.386396050453186, 0.07805939018726349, -0.95703125, 0.265625, 0.41455078125, 0, 
128, 174620988, 75.187744140625, -64.37187957763672, -116.49927520751953, 9.490693092346191, 4.248875141143799, 1.0754895210266113, 1.4760075807571411, -1.3177756071090698, -0.042032960802316666, -0.9541015625, 0.2666015625, 0.41943359375, 0, 
129, 174629321, 75.18251037597656, -64.370849609375, -116.49393463134766, 9.179454803466797, 4.197205066680908, 1.0265753269195557, 1.553528904914856, -0.8923358917236328, -0.07905833423137665, -0.9560546875, 0.2666015625, 0.41552734375, 0, 
130, 174637654, 75.1836929321289, -64.36964416503906, -116.49456024169922, 8.636207580566406, 4.0556230545043945, 1.057212233543396, 1.7181005477905273, -1.1618232727050781, -0.1703731119632721, -0.9560546875, 0.265625, 0.41650390625, 0, 
131, 174645987, 75.18318939208984, -64.36992645263672, -116.49381256103516, 8.507686614990234, 4.064830780029297, 1.117948055267334, 1.624967098236084, -1.1617463827133179, 0.010296923108398914, -0.955078125, 0.26513671875, 0.4150390625, 0, 
132, 174654320, 75.18728637695312, -64.37069702148438, -116.49790954589844, 8.932564735412598, 4.137966632843018, 1.1693156957626343, 1.6653350591659546, -1.4141489267349243, 0.0071719856932759285, -0.955078125, 0.26416015625, 0.41455078125, 0, 
133, 174662653, 75.18783569335938, -64.37167358398438, -116.49931335449219, 9.400217056274414, 4.24114990234375, 1.0843656063079834, 1.5175409317016602, -1.2915593385696411, 0.06367699056863785, -0.95263671875, 0.26611328125, 0.4169921875, 0, 
134, 174670986, 75.18460845947266, -64.37033081054688, -116.49559783935547, 9.274587631225586, 4.149402141571045, 1.0100587606430054, 1.6260427236557007, -0.9574729204177856, -0.13471804559230804, -0.95751953125, 0.26611328125, 0.41357421875, 0, 
135, 174679319, 75.18339538574219, -64.3687744140625, -116.4947509765625, 8.761552810668945, 4.158028602600098, 1.030307412147522, 1.5496101379394531, -1.1021934747695923, -0.19836947321891785, -0.95556640625, 0.265625, 0.4111328125, 0, 
136, 174687652, 75.18277740478516, -64.36785888671875, -116.49420166015625, 8.41525936126709, 4.1198506355285645, 1.153733730316162, 1.5890816450119019, -1.1361323595046997, -0.13064543902873993, -0.9560546875, 0.2646484375, 0.41357421875, 0, 
137, 174695985, 75.18567657470703, -64.37062072753906, -116.49727630615234, 8.783854484558105, 4.110785007476807, 1.1157084703445435, 1.6190760135650635, -1.42959463596344, 0.2487398236989975, -0.95654296875, 0.26611328125, 0.4169921875, 0, 
138, 174704318, 75.18741607666016, -64.37187194824219, -116.49870300292969, 9.302908897399902, 4.237941741943359, 1.1203240156173706, 1.6552941799163818, -1.301267147064209, 0.09495196491479874, -0.95458984375, 0.26513671875, 0.4111328125, 0, 
139, 174712651, 75.18500518798828, -64.37206268310547, -116.49555969238281, 9.424558639526367, 4.1548686027526855, 1.0957868099212646, 1.6550383567810059, -1.0394768714904785, 0.03337535262107849, -0.958984375, 0.26708984375, 0.4140625, 0, 
140, 174720984, 75.18255615234375, -64.37083435058594, -116.49278259277344, 8.927749633789062, 4.1060919761657715, 1.0000439882278442, 1.5984821319580078, -1.0213549137115479, -0.14145462214946747, -0.955078125, 0.2646484375, 0.4169921875, 0, 
141, 174729317, 75.1800537109375, -64.369873046875, -116.4893798828125, 8.435218811035156, 4.105283260345459, 1.065266489982605, 1.6748636960983276, -0.9902591705322266, -0.09634795784950256, -0.95458984375, 0.263671875, 0.40771484375, 0, 
142, 174737650, 75.18160247802734, -64.37227630615234, -116.4917221069336, 8.639472961425781, 4.164251804351807, 1.0861806869506836, 1.559407353401184, -1.3714885711669922, 0.2192194163799286, -0.95458984375, 0.267578125, 0.4169921875, 0, 
143, 174745983, 75.18312072753906, -64.3731689453125, -116.49388885498047, 9.173349380493164, 4.1861724853515625, 1.2327543497085571, 1.5528372526168823, -1.326522707939148, 0.04257085546851158, -0.95458984375, 0.26416015625, 0.40966796875, 0, 
144, 174754316, 75.1841812133789, -64.37429809570312, -116.49637603759766, 9.533299446105957, 4.177316665649414, 1.0878533124923706, 1.47069251537323, -1.345682144165039, 0.07420443743467331, -0.9560546875, 0.26611328125, 0.4091796875, 0, 
145, 174762649, 75.17842864990234, -64.37244415283203, -116.49069213867188, 9.12657642364502, 4.1568284034729, 1.03385329246521, 1.5291441679000854, -0.8480744957923889, -0.17231976985931396, -0.9541015625, 0.26708984375, 0.416015625, 0, 
146, 174770982, 75.17513275146484, -64.37069702148438, -116.4872817993164, 8.497309684753418, 4.172215938568115, 1.0409940481185913, 1.5499941110610962, -0.9802951216697693, -0.1930672973394394, -0.955078125, 0.267578125, 0.41357421875, 0, 
147, 174779315, 75.174560546875, -64.37175750732422, -116.48756408691406, 8.476883888244629, 4.176936149597168, 1.0974141359329224, 1.505886435508728, -1.2386915683746338, 0.08783121407032013, -0.95556640625, 0.2666015625, 0.40966796875, 0, 
148, 174787648, 75.17678833007812, -64.37454986572266, -116.48999786376953, 8.998703956604004, 4.100215911865234, 1.1623045206069946, 1.595971703529358, -1.405030369758606, 0.2610090374946594, -0.95458984375, 0.26806640625, 0.41650390625, 0, 
149, 174795981, 75.17764282226562, -64.37525177001953, -116.49117279052734, 9.454056739807129, 4.189223289489746, 1.1334129571914673, 1.5786054134368896, -1.2731684446334839, 0.03404131904244423, -0.95458984375, 0.2666015625, 0.4150390625, 0, 
150, 174804314, 75.1727066040039, -64.37523651123047, -116.48526763916016, 9.291219711303711, 4.199228286743164, 1.064653992652893, 1.6511448621749878, -0.8956658840179443, 0.04892319068312645, -0.95458984375, 0.26416015625, 0.4091796875, 0, 
151, 174812647, 75.1705322265625, -64.37437438964844, -116.48275756835938, 8.739294052124023, 4.175437927246094, 1.0259945392608643, 1.6142730712890625, -1.0377864837646484, -0.09958814084529877, -0.95556640625, 0.26611328125, 0.40869140625, 0, 
152, 174820980, 75.17028045654297, -64.37419891357422, -116.4821548461914, 8.435308456420898, 4.067262649536133, 1.0904572010040283, 1.6275668144226074, -1.1632962226867676, -0.044543150812387466, -0.95654296875, 0.26611328125, 0.4111328125, 0, 
153, 174829313, 75.17496490478516, -64.37614440917969, -116.48757934570312, 8.819403648376465, 4.094229221343994, 1.1528854370117188, 1.5766332149505615, -1.5232146978378296, 0.12179569154977798, -0.9541015625, 0.26708984375, 0.4140625, 0, 
154, 174837646, 75.17717742919922, -64.37664031982422, -116.48937225341797, 9.272134780883789, 4.201784133911133, 1.161292314529419, 1.6603145599365234, -1.306185007095337, 0.0024077382404357195, -0.95654296875, 0.26513671875, 0.41650390625, 0, 
155, 174845979, 75.17716217041016, -64.37655639648438, -116.48812866210938, 9.37706184387207, 4.177218437194824, 1.0808161497116089, 1.7381820678710938, -1.1260402202606201, -0.02432071603834629, -0.9541015625, 0.26611328125, 0.4111328125, 0, 
156, 174854312, 75.17491912841797, -64.37520599365234, -116.48562622070312, 8.923591613769531, 4.193652153015137, 0.9992644786834717, 1.6175005435943604, -1.019574522972107, -0.15481244027614594, -0.9560546875, 0.2666015625, 0.408203125, 0, 
157, 174862645, 75.17225646972656, -64.37435150146484, -116.48323822021484, 8.474016189575195, 4.136397361755371, 1.0864779949188232, 1.544589638710022, -1.0451760292053223, -0.09780795872211456, -0.95458984375, 0.26611328125, 0.41796875, 0, 
158, 174870978, 75.17816925048828, -64.37586975097656, -116.48892211914062, 8.675827026367188, 4.113365173339844, 1.111230731010437, 1.6643362045288086, -1.5420923233032227, 0.06636648625135422, -0.95703125, 0.2646484375, 0.40771484375, 0, 
159, 174879311, 75.17984008789062, -64.37591552734375, -116.49043273925781, 9.118542671203613, 4.151438236236572, 1.2041103839874268, 1.6394647359848022, -1.2675590515136719, -0.04686124995350838, -0.95556640625, 0.267578125, 0.41796875, 0, 
160, 174887644, 75.18026733398438, -64.37680053710938, -116.49098205566406, 9.455290794372559, 4.2398600578308105, 1.1186861991882324, 1.5589079856872559, -1.270658254623413, 0.059553101658821106, -0.95654296875, 0.26708984375, 0.41357421875, 0, 
161, 174895977, 75.1749496459961, -64.37433624267578, -116.4852066040039, 9.110189437866211, 4.1889190673828125, 1.0153651237487793, 1.5915277004241943, -0.8253675103187561, -0.24115802347660065, -0.95556640625, 0.267578125, 0.4150390625, 0, 
162, 174904310, 75.17327117919922, -64.37316131591797, -116.48338317871094, 8.597943305969238, 4.108527660369873, 1.0212732553482056, 1.5872758626937866, -1.0709311962127686, -0.14761485159397125, -0.955078125, 0.265625, 0.4150390625, 0, 
163, 174912643, 75.17536926269531, -64.3725357055664, -116.48605346679688, 8.505494117736816, 4.072326183319092, 1.149072527885437, 1.5694098472595215, -1.3056215047836304, -0.13784301280975342, -0.9560546875, 0.2646484375, 0.41162109375, 0, 
164, 174920976, 75.17881774902344, -64.37483215332031, -116.4893798828125, 8.951652526855469, 4.085567951202393, 1.202447533607483, 1.6667182445526123, -1.4221664667129517, 0.19584643840789795, -0.95361328125, 0.2666015625, 0.41748046875, 0, 
165, 174929309, 75.17998504638672, -64.37651062011719, -116.490966796875, 9.440813064575195, 4.238797664642334, 1.091613531112671, 1.57389235496521, -1.3231160640716553, 0.1413905769586563, -0.95751953125, 0.2666015625, 0.4140625, 0, 
166, 174937642, 75.17754364013672, -64.37592315673828, -116.48861694335938, 9.310312271118164, 4.2261061668396, 1.0989056825637817, 1.5904262065887451, -1.0409367084503174, -0.06203767657279968, -0.95654296875, 0.265625, 0.416015625, 0, 
167, 174945975, 75.17674255371094, -64.37428283691406, -116.4867172241211, 8.780892372131348, 4.1564860343933105, 1.0433310270309448, 1.7136563062667847, -1.046418309211731, -0.1979980170726776, -0.9541015625, 0.2646484375, 0.41650390625, 0, 
168, 174954308, 75.17579650878906, -64.37313079833984, -116.48524475097656, 8.433183670043945, 4.082238674163818, 1.0773358345031738, 1.6625815629959106, -1.0723398923873901, -0.14187723398208618, -0.95703125, 0.2646484375, 0.40625, 0, 
169, 174962641, 75.18087768554688, -64.37494659423828, -116.49017333984375, 8.722574234008789, 4.157347202301025, 1.12797212600708, 1.678808331489563, -1.4954231977462769, 0.11546897888183594, -0.9541015625, 0.26513671875, 0.41650390625, 0, 
170, 174970974, 75.18057250976562, -64.37539672851562, -116.4888916015625, 9.263471603393555, 4.239631652832031, 1.152914047241211, 1.659443736076355, -1.167150855064392, 0.02968689799308777, -0.95654296875, 0.2666015625, 0.41162109375, 0, 
171, 174979307, 75.1799087524414, -64.37635040283203, -116.48930358886719, 9.46762752532959, 4.1454081535339355, 1.0849121809005737, 1.4796189069747925, -1.241496205329895, 0.07401233166456223, -0.958984375, 0.2666015625, 0.41552734375, 0, 
172, 174987640, 75.17591857910156, -64.374755859375, -116.48436737060547, 9.027619361877441, 4.117448806762695, 0.9921068549156189, 1.6404635906219482, -0.9054503440856934, -0.15472276508808136, -0.9560546875, 0.265625, 0.41455078125, 0, 
173, 174995973, 75.17583465576172, -64.37263488769531, -116.48368835449219, 8.476332664489746, 4.125528812408447, 1.0549049377441406, 1.6687419414520264, -1.0921525955200195, -0.2649920880794525, -0.95654296875, 0.26416015625, 0.41455078125, 0, 
174, 175004306, 75.17515563964844, -64.3733139038086, -116.48310089111328, 8.557658195495605, 4.121036052703857, 1.1054565906524658, 1.5900803804397583, -1.1789336204528809, 0.05681237205862999, -0.9541015625, 0.26611328125, 0.41845703125, 0, 
175, 175012639, 75.1764907836914, -64.37503814697266, -116.48472595214844, 9.08351993560791, 4.120386123657227, 1.1562331914901733, 1.5897220373153687, -1.3267533779144287, 0.14697448909282684, -0.95556640625, 0.26708984375, 0.408203125, 0, 
176, 175020972, 75.17756652832031, -64.3766098022461, -116.4858169555664, 9.496563911437988, 4.195570468902588, 1.108040452003479, 1.6309735774993896, -1.2849892377853394, 0.14381112158298492, -0.95458984375, 0.2666015625, 0.41259765625, 0, 
177, 175029305, 75.17369079589844, -64.37421417236328, -116.48187255859375, 9.17630672454834, 4.2016167640686035, 1.013376235961914, 1.568269968032837, -0.9198327660560608, -0.2573206126689911, -0.95556640625, 0.26611328125, 0.4140625, 0, 
178, 175037638, 75.17157745361328, -64.37266540527344, -116.47997283935547, 8.61491584777832, 4.159287929534912, 1.049346923828125, 1.544986605644226, -1.05156672000885, -0.1860618144273758, -0.95654296875, 0.2666015625, 0.4091796875, 0, 
179, 175045971, 75.17334747314453, -64.37288665771484, -116.48149108886719, 8.472476959228516, 4.146098613739014, 1.0855216979980469, 1.6529632806777954, -1.2736804485321045, -0.02552458457648754, -0.955078125, 0.26513671875, 0.41015625, 0, 
180, 175054304, 75.17794799804688, -64.37448120117188, -116.4856948852539, 8.944417953491211, 4.136839389801025, 1.2170896530151367, 1.6643617153167725, -1.4712175130844116, 0.09195509552955627, -0.9580078125, 0.26611328125, 0.41259765625, 0, 
181, 175062637, 75.1802978515625, -64.37590026855469, -116.48799133300781, 9.39539909362793, 4.207022666931152, 1.1159348487854004, 1.6389268636703491, -1.3498317003250122, 0.10299482941627502, -0.955078125, 0.263671875, 0.41845703125, 0, 
182, 175070970, 75.17666625976562, -64.37584686279297, -116.48324584960938, 9.306288719177246, 4.153687477111816, 1.0719369649887085, 1.6619795560836792, -0.9636971354484558, 0.02248929813504219, -0.95654296875, 0.26611328125, 0.4140625, 0, 
183, 175079303, 75.17333221435547, -64.37432098388672, -116.4800796508789, 8.785300254821777, 4.173365116119385, 0.9914679527282715, 1.5473304986953735, -0.9846242070198059, -0.1651477962732315, -0.955078125, 0.26611328125, 0.41552734375, 0, 
184, 175087636, 75.17381286621094, -64.37320709228516, -116.48035430908203, 8.43887710571289, 4.125878810882568, 1.087777018547058, 1.6286810636520386, -1.1708650588989258, -0.16358530521392822, -0.955078125, 0.26611328125, 0.41845703125, 0, 
185, 175095969, 75.17737579345703, -64.37427520751953, -116.48370361328125, 8.78936767578125, 4.053043842315674, 1.1950803995132446, 1.6692156791687012, -1.3923898935317993, 0.04875670000910759, -0.95703125, 0.2646484375, 0.416015625, 0, 
186, 175104302, 75.17800903320312, -64.3758544921875, -116.48436737060547, 9.276823997497559, 4.192495822906494, 1.1872589588165283, 1.6383247375488281, -1.2541240453720093, 0.14537358283996582, -0.95654296875, 0.26611328125, 0.416015625, 0, 
187, 175112635, 75.17593383789062, -64.3762435913086, -116.48284149169922, 9.462157249450684, 4.2324419021606445, 1.1173756122589111, 1.5180147886276245, -1.127333641052246, 0.0361032634973526, -0.95947265625, 0.265625, 0.4111328125, 0, 
188, 175120968, 75.17294311523438, -64.37493896484375, -116.47966766357422, 8.95833683013916, 4.225678443908691, 0.9800916314125061, 1.5992374420166016, -0.9859430193901062, -0.13660070300102234, -0.953125, 0.26513671875, 0.40966796875, 0, 
189, 175129301, 75.16929626464844, -64.37344360351562, -116.4765396118164, 8.434465408325195, 4.131527423858643, 1.0661282539367676, 1.5031328201293945, -0.9884788393974304, -0.16318827867507935, -0.9541015625, 0.2666015625, 0.40869140625, 0, 
190, 175137634, 75.17204284667969, -64.37439727783203, -116.4802017211914, 8.54530143737793, 4.108199119567871, 1.1417876482009888, 1.5174641609191895, -1.4136368036270142, 0.02838057093322277, -0.9560546875, 0.26611328125, 0.41845703125, 0, 
191, 175145967, 75.17542266845703, -64.37557220458984, -116.48356628417969, 9.070429801940918, 4.1172685623168945, 1.173531413078308, 1.6454071998596191, -1.396193504333496, 0.062216974794864655, -0.9541015625, 0.2685546875, 0.41455078125, 0, 
192, 175154300, 75.1751937866211, -64.37738800048828, -116.48324584960938, 9.47982120513916, 4.221108436584473, 1.0922807455062866, 1.634777307510376, -1.2180976867675781, 0.18739373981952667, -0.95947265625, 0.26708984375, 0.41455078125, 0, 
193, 175162633, 75.17151641845703, -64.37547302246094, -116.47908020019531, 9.183789253234863, 4.177517890930176, 1.064795732498169, 1.6123777627944946, -0.9253911972045898, -0.19807490706443787, -0.95751953125, 0.26611328125, 0.4150390625, 0, 
194, 175170966, 75.16842651367188, -64.3743667602539, -116.47621154785156, 8.664299011230469, 4.082204341888428, 1.0456241369247437, 1.5457549095153809, -1.0132478475570679, -0.1225384920835495, -0.9580078125, 0.26708984375, 0.41552734375, 0, 
195, 175179299, 75.17061614990234, -64.37419128417969, -116.47848510742188, 8.471843719482422, 4.078178405761719, 1.0718077421188354, 1.6223032474517822, -1.2987825870513916, -0.07949377596378326, -0.95654296875, 0.265625, 0.41552734375, 0, 
196, 175187632, 75.1760482788086, -64.37567138671875, -116.4841079711914, 8.859892845153809, 4.171054840087891, 1.1740018129348755, 1.6534245014190674, -1.5170159339904785, 0.06590542942285538, -0.95458984375, 0.265625, 0.40869140625, 0, 
197, 175195965, 75.17548370361328, -64.37625885009766, -116.48438262939453, 9.384977340698242, 4.281285285949707, 1.0907728672027588, 1.5048106908798218, -1.2222728729248047, 0.033733949065208435, -0.95849609375, 0.267578125, 0.41259765625, 0, 
198, 175204298, 75.1724853515625, -64.37580108642578, -116.48206329345703, 9.307149887084961, 4.162239074707031, 1.0628387928009033, 1.4636229276657104, -1.079319715499878, -0.05608236417174339, -0.95654296875, 0.26708984375, 0.40966796875, 0, 
199, 175212631, 75.16847229003906, -64.37429809570312, -116.47823333740234, 8.813752174377441, 4.137056350708008, 1.0703293085098267, 1.5345104932785034, -0.9544377326965332, -0.15535034239292145, -0.958984375, 0.26708984375, 0.4130859375, 0, 
200, 175220964, 75.16837310791016, -64.37450408935547, -116.47698211669922, 8.423382759094238, 4.122150897979736, 1.133906364440918, 1.6948938369750977, -1.149144172668457, 0.007018300238996744, -0.9541015625, 0.2646484375, 0.41259765625, 0, 
201, 175229297, 75.17334747314453, -64.37638092041016, -116.48194885253906, 8.724581718444824, 4.112232208251953, 1.092396855354309, 1.6636956930160522, -1.4989067316055298, 0.1198233813047409, -0.955078125, 0.26416015625, 0.41357421875, 0, 
202, 175237630, 75.1762466430664, -64.37793731689453, -116.4848861694336, 9.27234172821045, 4.180630207061768, 1.135148286819458, 1.633035659790039, -1.3854098320007324, 0.11252332478761673, -0.95654296875, 0.26611328125, 0.412109375, 0, 
203, 175245963, 75.17591094970703, -64.37751770019531, -116.4845199584961, 9.470529556274414, 4.171701431274414, 1.1138193607330322, 1.604475498199463, -1.1603376865386963, -0.0779569149017334, -0.953125, 0.26708984375, 0.4169921875, 0, 
204, 175254296, 75.17278289794922, -64.37531280517578, -116.48046112060547, 8.987051963806152, 4.12866735458374, 1.019993782043457, 1.6526046991348267, -0.9280677437782288, -0.23348654806613922, -0.95751953125, 0.26708984375, 0.4140625, 0, 
205, 175262629, 75.1722412109375, -64.37449645996094, -116.4790267944336, 8.492966651916504, 4.111487865447998, 1.0599470138549805, 1.6927165985107422, -1.0938687324523926, -0.10436519235372543, -0.95458984375, 0.265625, 0.4169921875, 0, 
206, 175270962, 75.17402648925781, -64.37493133544922, -116.48088836669922, 8.535758972167969, 4.2079997062683105, 1.1078588962554932, 1.6081898212432861, -1.302291750907898, -0.0056479391641914845, -0.9560546875, 0.265625, 0.40771484375, 0, 
207, 175279295, 75.17713165283203, -64.37621307373047, -116.48413848876953, 9.103736877441406, 4.202064514160156, 1.1963605880737305, 1.628258466720581, -1.391928791999817, 0.0754467248916626, -0.9560546875, 0.26708984375, 0.41162109375, 0, 
208, 175287628, 75.17838287353516, -64.37736511230469, -116.48561096191406, 9.522750854492188, 4.178022384643555, 1.13223135471344, 1.5480859279632568, -1.3280467987060547, 0.07329513132572174, -0.95703125, 0.26611328125, 0.4150390625, 0, 
209, 175295961, 75.1754379272461, -64.37642669677734, -116.4823989868164, 9.185129165649414, 4.155165672302246, 1.077178716659546, 1.5977264642715454, -0.999877393245697, -0.09715479612350464, -0.95751953125, 0.26611328125, 0.4150390625, 0, 
210, 175304294, 75.1709213256836, -64.3746337890625, -116.47779846191406, 8.5973482131958, 4.153204917907715, 1.0231094360351562, 1.5613155364990234, -0.903887927532196, -0.17447134852409363, -0.95263671875, 0.267578125, 0.4111328125, 0, 
211, 175312627, 75.1715087890625, -64.37511444091797, -116.47843933105469, 8.433805465698242, 4.120844841003418, 1.0687521696090698, 1.6065247058868408, -1.2386401891708374, 0.01716153509914875, -0.95703125, 0.26513671875, 0.40771484375, 0, 
212, 175320960, 75.1744155883789, -64.37690734863281, -116.48118591308594, 8.920794486999512, 4.06571102142334, 1.144559621810913, 1.639695167541504, -1.3925819396972656, 0.13867546617984772, -0.9541015625, 0.2646484375, 0.41748046875, 0, 
213, 175329293, 75.17425537109375, -64.37805938720703, -116.48182678222656, 9.41594123840332, 4.169981002807617, 1.1726815700531006, 1.5149284601211548, -1.2578766345977783, 0.09277476370334625, -0.955078125, 0.26611328125, 0.40869140625, 0, 
214, 175337626, 75.17151641845703, -64.37675476074219, -116.47923278808594, 9.34520435333252, 4.197033405303955, 1.0994200706481934, 1.5936410427093506, -1.0012221336364746, -0.14142900705337524, -0.95654296875, 0.26513671875, 0.4091796875, 0, 
215, 175345959, 75.16858673095703, -64.3756103515625, -116.47557067871094, 8.838884353637695, 4.239862442016602, 0.9774434566497803, 1.6479942798614502, -0.9743526577949524, -0.11571230739355087, -0.95458984375, 0.2666015625, 0.416015625, 0, 
216, 175354292, 75.1678466796875, -64.37506103515625, -116.47449493408203, 8.41300106048584, 4.09400749206543, 1.071507453918457, 1.6064735651016235, -1.1342110633850098, -0.08430925011634827, -0.95703125, 0.265625, 0.40869140625, 0, 
217, 175362625, 75.16911315917969, -64.37651062011719, -116.4762954711914, 8.707481384277344, 4.083415508270264, 1.1670145988464355, 1.5604192018508911, -1.326087474822998, 0.11569949984550476, -0.9560546875, 0.26611328125, 0.4169921875, 0, 
218, 175370958, 75.17203521728516, -64.3774642944336, -116.47931671142578, 9.203563690185547, 4.159887790679932, 1.1470274925231934, 1.606947422027588, -1.384116291999817, 0.03602641820907593, -0.9560546875, 0.265625, 0.41357421875, 0, 
219, 175379291, 75.17195129394531, -64.3786849975586, -116.47980499267578, 9.417116165161133, 4.19775915145874, 1.0745173692703247, 1.5414005517959595, -1.2521517276763916, 0.10375044494867325, -0.95947265625, 0.2666015625, 0.416015625, 0, 
220, 175387624, 75.16680908203125, -64.37788391113281, -116.47449493408203, 9.012337684631348, 4.185459136962891, 0.9832172989845276, 1.5580884218215942, -0.901019275188446, -0.05131812393665314, -0.95556640625, 0.2666015625, 0.40869140625, 0, 
221, 175395957, 75.16345977783203, -64.37692260742188, -116.47183227539062, 8.57144546508789, 4.073400974273682, 1.0400452613830566, 1.4920803308486938, -1.0275534391403198, -0.10682415962219238, -0.95849609375, 0.2646484375, 0.412109375, 0, 
222, 175404290, 75.16551208496094, -64.37612915039062, -116.47435760498047, 8.608504295349121, 4.0648016929626465, 1.100099802017212, 1.539953351020813, -1.3164819478988647, -0.1612544059753418, -0.95361328125, 0.26513671875, 0.4150390625, 0, 
223, 175412623, 75.16698455810547, -64.3767318725586, -116.4767074584961, 9.064827919006348, 4.1516032218933105, 1.1695514917373657, 1.5248920917510986, -1.3283926248550415, 0.007556198630481958, -0.95751953125, 0.265625, 0.4150390625, 0, 
224, 175420956, 75.16571807861328, -64.37805938720703, -116.47662353515625, 9.428288459777832, 4.282317638397217, 1.116287112236023, 1.471255898475647, -1.221914291381836, 0.12374237924814224, -0.9541015625, 0.265625, 0.4150390625, 0, 
225, 175429289, 75.1622314453125, -64.37736511230469, -116.4729232788086, 9.163710594177246, 4.193495750427246, 1.0223907232284546, 1.5877623558044434, -0.9844573736190796, -0.06088503450155258, -0.9541015625, 0.26513671875, 0.41455078125, 0, 
226, 175437622, 75.16107940673828, -64.37616729736328, -116.4708480834961, 8.691864013671875, 4.142195701599121, 0.978622317314148, 1.6974680423736572, -1.047135353088379, -0.14374707639217377, -0.95751953125, 0.26611328125, 0.41650390625, 0, 
227, 175445955, 75.16134643554688, -64.37635803222656, -116.47161102294922, 8.457642555236816, 4.123831748962402, 1.1208208799362183, 1.5534263849258423, -1.2353103160858154, -0.01881365478038788, -0.9541015625, 0.26513671875, 0.41650390625, 0, 
228, 175454288, 75.16443634033203, -64.378173828125, -116.47506713867188, 8.86935043334961, 4.0925092697143555, 1.1783360242843628, 1.61469566822052, -1.4122023582458496, 0.1377021223306656, -0.95703125, 0.2646484375, 0.4140625, 0, 
229, 175462621, 75.16582489013672, -64.37938690185547, -116.4765396118164, 9.372502326965332, 4.210226058959961, 1.1176402568817139, 1.612544059753418, -1.3032649755477905, 0.09034139662981033, -0.95458984375, 0.2666015625, 0.41650390625, 0, 
230, 175470954, 75.1651611328125, -64.38009643554688, -116.47673034667969, 9.404441833496094, 4.194637775421143, 1.1032510995864868, 1.5035810470581055, -1.2227338552474976, 0.04746317118406296, -0.9560546875, 0.265625, 0.41455078125, 0, 
231, 175479287, 75.16272735595703, -64.377685546875, -116.47396087646484, 8.885762214660645, 4.1523284912109375, 1.023880124092102, 1.611647605895996, -0.9777849316596985, -0.27244579792022705, -0.95654296875, 0.263671875, 0.41650390625, 0, 
232, 175487620, 75.16149139404297, -64.37724304199219, -116.47282409667969, 8.449031829833984, 4.078208923339844, 1.116837739944458, 1.585290551185608, -1.1167933940887451, -0.06356171518564224, -0.9560546875, 0.26416015625, 0.408203125, 0, 
233, 175495953, 75.16694641113281, -64.37723541259766, -116.4784164428711, 8.620137214660645, 4.159718990325928, 1.1399120092391968, 1.6547821760177612, -1.471397042274475, -0.10603013634681702, -0.95751953125, 0.26708984375, 0.41650390625, 0, 
234, 175504286, 75.1660385131836, -64.37870025634766, -116.477783203125, 9.155835151672363, 4.226771831512451, 1.1924158334732056, 1.5420154333114624, -1.2161638736724854, 0.14270970225334167, -0.955078125, 0.26611328125, 0.41650390625, 0, 
235, 175512619, 75.16584014892578, -64.3804931640625, -116.4780044555664, 9.456299781799316, 4.2198896408081055, 1.1351900100708008, 1.5558085441589355, -1.2578765153884888, 0.17379257082939148, -0.95947265625, 0.26611328125, 0.4140625, 0, 
236, 175520952, 75.16029357910156, -64.37911987304688, -116.47157287597656, 9.116127014160156, 4.171138763427734, 1.0349568128585815, 1.6562422513961792, -0.8136234283447266, -0.10075360536575317, -0.95556640625, 0.265625, 0.41650390625, 0, 
237, 175529285, 75.15787506103516, -64.37786865234375, -116.46952056884766, 8.55729866027832, 4.135893821716309, 1.0589531660079956, 1.5339852571487427, -1.0506575107574463, -0.14875467121601105, -0.955078125, 0.2646484375, 0.41259765625, 0, 
238, 175537618, 75.15914154052734, -64.37838745117188, -116.47136688232422, 8.475112915039062, 4.127082824707031, 1.1077656745910645, 1.5719454288482666, -1.2909703254699707, 0.009989551268517971, -0.955078125, 0.26611328125, 0.40869140625, 0, 
239, 175545951, 75.16057586669922, -64.3803482055664, -116.47312927246094, 8.996907234191895, 4.100455284118652, 1.1399275064468384, 1.586238145828247, -1.339176058769226, 0.17315220832824707, -0.955078125, 0.265625, 0.41552734375, 0, 
240, 175554284, 75.16039276123047, -64.38186645507812, -116.47356414794922, 9.460070610046387, 4.193980693817139, 1.145290732383728, 1.497715711593628, -1.28190279006958, 0.13378316164016724, -0.95654296875, 0.265625, 0.41259765625, 0, 
241, 175562617, 75.15658569335938, -64.38066101074219, -116.47003936767578, 9.261905670166016, 4.151470184326172, 1.031672716140747, 1.5301685333251953, -0.9767347574234009, -0.12501025199890137, -0.955078125, 0.26513671875, 0.41650390625, 0, 
242, 175570950, 75.15291595458984, -64.37904357910156, -116.46627044677734, 8.741727828979492, 4.187328338623047, 1.0153026580810547, 1.576030969619751, -0.9514407515525818, -0.1685672551393509, -0.9560546875, 0.26318359375, 0.408203125, 0, 
243, 175579283, 75.15403747558594, -64.37815856933594, -116.46785736083984, 8.420449256896973, 4.127036094665527, 1.076408863067627, 1.5667331218719482, -1.2424440383911133, -0.15281453728675842, -0.95654296875, 0.265625, 0.41650390625, 0, 
244, 175587616, 75.15892791748047, -64.38047790527344, -116.4719009399414, 8.81874942779541, 4.128292083740234, 1.1806418895721436, 1.730164647102356, -1.4770833253860474, 0.1807340383529663, -0.95556640625, 0.26611328125, 0.41455078125, 0, 
245, 175595949, 75.16050720214844, -64.38186645507812, -116.47392272949219, 9.303980827331543, 4.195828437805176, 1.173279881477356, 1.574891209602356, -1.334898591041565, 0.10271307826042175, -0.95703125, 0.26611328125, 0.4150390625, 0, 
246, 175604282, 75.1585693359375, -64.38101196289062, -116.47181701660156, 9.368080139160156, 4.158809185028076, 1.0810378789901733, 1.6017347574234009, -1.0581623315811157, -0.10072796791791916, -0.95458984375, 0.265625, 0.4169921875, 0, 
247, 175612615, 75.15371704101562, -64.37981414794922, -116.46722412109375, 8.907791137695312, 4.183418273925781, 0.888378918170929, 1.5177717208862305, -0.924994170665741, -0.10836103558540344, -0.95849609375, 0.267578125, 0.41357421875, 0, 
248, 175620948, 75.15229034423828, -64.37860107421875, -116.4656982421875, 8.44331169128418, 4.119295597076416, 1.0876579284667969, 1.6270675659179688, -1.061159372329712, -0.1455785036087036, -0.95703125, 0.26611328125, 0.41748046875, 0, 
249, 175629281, 75.15694427490234, -64.379150390625, -116.47021484375, 8.672042846679688, 4.058690547943115, 1.1439707279205322, 1.6743510961532593, -1.4341025352478027, -0.027368808165192604, -0.95556640625, 0.2646484375, 0.4150390625, 0, 
250, 175637614, 75.16016387939453, -64.38016510009766, -116.47309875488281, 9.207478523254395, 4.146032333374023, 1.20110285282135, 1.6925116777420044, -1.3597700595855713, 0.049691613763570786, -0.95458984375, 0.265625, 0.40966796875, 0, 
251, 175645947, 75.16075134277344, -64.3809585571289, -116.47354888916016, 9.521049499511719, 4.211528301239014, 1.1124014854431152, 1.6276822090148926, -1.2384097576141357, 0.053738661110401154, -0.955078125, 0.26611328125, 0.416015625, 0, 
252, 175654280, 75.15794372558594, -64.37934875488281, -116.47050476074219, 9.106783866882324, 4.235976696014404, 1.00260591506958, 1.5757876634597778, -0.9996596574783325, -0.1820787787437439, -0.95751953125, 0.267578125, 0.408203125, 0, 
253, 175662613, 75.15665435791016, -64.37830352783203, -116.46903991699219, 8.5690279006958, 4.156364440917969, 1.0517730712890625, 1.6070371866226196, -1.0860819816589355, -0.13087593019008636, -0.95166015625, 0.265625, 0.41796875, 0, 
254, 175670946, 75.15765380859375, -64.37755584716797, -116.46995544433594, 8.473848342895508, 4.100165843963623, 1.0973994731903076, 1.576889157295227, -1.2399978637695312, -0.13574263453483582, -0.95654296875, 0.2666015625, 0.40625, 0, 
255, 175679279, 75.15872192382812, -64.37859344482422, -116.47151184082031, 8.959607124328613, 4.11611795425415, 1.2181057929992676, 1.5630062818527222, -1.3030089139938354, 0.06731421500444412, -0.95361328125, 0.2666015625, 0.41552734375, 0, 
256, 175687612, 75.1614761352539, -64.38076782226562, -116.47451782226562, 9.440225601196289, 4.261033535003662, 1.0943905115127563, 1.55555260181427, -1.4373301267623901, 0.17394627630710602, -0.95361328125, 0.26416015625, 0.416015625, 0, 
257, 175695945, 75.15695190429688, -64.38072967529297, -116.469970703125, 9.29651165008545, 4.195870399475098, 1.0800625085830688, 1.5531959533691406, -0.9634153842926025, 0.024922650307416916, -0.95849609375, 0.2666015625, 0.4130859375, 0, 
258, 175704278, 75.15365600585938, -64.37934112548828, -116.4667739868164, 8.801234245300293, 4.122128009796143, 1.0144115686416626, 1.5785667896270752, -0.9737507104873657, -0.1425175964832306, -0.95556640625, 0.26416015625, 0.4091796875, 0, 
259, 175712611, 75.15274047851562, -64.37873840332031, -116.46509552001953, 8.449420928955078, 4.049301624298096, 1.0953090190887451, 1.6768742799758911, -1.0888867378234863, -0.07832833379507065, -0.9580078125, 0.26708984375, 0.4150390625, 0, 
260, 175720944, 75.15875244140625, -64.37940979003906, -116.47126770019531, 8.754268646240234, 4.123034954071045, 1.155842900276184, 1.6353791952133179, -1.53175687789917, -0.03511711582541466, -0.955078125, 0.265625, 0.41650390625, 0, 
261, 175729277, 75.15980529785156, -64.3802490234375, -116.47285461425781, 9.276632308959961, 4.2490105628967285, 1.147207498550415, 1.556115984916687, -1.2967334985733032, 0.045567721128463745, -0.9560546875, 0.263671875, 0.4091796875, 0, 
262, 175737610, 75.15900421142578, -64.38084411621094, -116.47312927246094, 9.398133277893066, 4.14137601852417, 1.0983692407608032, 1.5005842447280884, -1.2125394344329834, 0.03580870106816292, -0.95556640625, 0.265625, 0.41552734375, 0, 
263, 175745943, 75.1574935913086, -64.37859344482422, -116.47114562988281, 9.000859260559082, 4.131166934967041, 1.0083508491516113, 1.6373131275177002, -1.0224560499191284, -0.26532503962516785, -0.95556640625, 0.267578125, 0.41552734375, 0, 
264, 175754276, 75.15946960449219, -64.3774642944336, -116.47285461425781, 8.450355529785156, 4.13455057144165, 1.1113605499267578, 1.6679989099502563, -1.2351312637329102, -0.18389739096164703, -0.95947265625, 0.26708984375, 0.4130859375, 0, 
265, 175762609, 75.16295623779297, -64.37837982177734, -116.4765853881836, 8.599078178405762, 4.168511390686035, 1.130528450012207, 1.6162327527999878, -1.4073870182037354, 0.027432847768068314, -0.95361328125, 0.265625, 0.41943359375, 0, 
266, 175770942, 75.16627502441406, -64.37890625, -116.48052978515625, 9.117496490478516, 4.164811134338379, 1.1318745613098145, 1.5668995380401611, -1.4124585390090942, -0.022502105683088303, -0.95703125, 0.2666015625, 0.41552734375, 0, 
267, 175779275, 75.16736602783203, -64.37959289550781, -116.48263549804688, 9.471901893615723, 4.191337585449219, 1.1508102416992188, 1.5090112686157227, -1.3167251348495483, 0.02031208761036396, -0.95458984375, 0.2666015625, 0.41064453125, 0, 
268, 175787608, 75.16322326660156, -64.37813568115234, -116.47843933105469, 9.152474403381348, 4.176512718200684, 1.001123070716858, 1.5658494234085083, -0.9333441853523254, -0.14478445053100586, -0.95654296875, 0.2666015625, 0.41455078125, 0, 
269, 175795941, 75.1612777709961, -64.37701416015625, -116.47573852539062, 8.599306106567383, 4.101831912994385, 1.029797077178955, 1.6635676622390747, -1.0203303098678589, -0.12480535358190536, -0.95947265625, 0.26708984375, 0.4072265625, 0, 
270, 175804274, 75.16199493408203, -64.37654876708984, -116.4762954711914, 8.437942504882812, 4.125558853149414, 1.0745059251785278, 1.629321575164795, -1.2047526836395264, -0.08956017345190048, -0.95458984375, 0.267578125, 0.41845703125, 0, 
271, 175812607, 75.16568756103516, -64.37793731689453, -116.4806137084961, 8.976081848144531, 4.143879413604736, 1.183850646018982, 1.5809617042541504, -1.4509824514389038, 0.07233460247516632, -0.95654296875, 0.26611328125, 0.41015625, 0, 
272, 175820940, 75.19004821777344, -64.37064361572266, -116.49504852294922, 9.419197082519531, 4.178865909576416, 1.1697276830673218, 1.4897494316101074, -1.2180976867675781, 0.03755046799778938, -0.95654296875, 0.2646484375, 0.41650390625, 0, 
273, 175829273, 75.18742370605469, -64.36954498291016, -116.49256896972656, 9.31484603881836, 4.147671699523926, 1.08047354221344, 1.5560007095336914, -1.0325610637664795, -0.12392165511846542, -0.9560546875, 0.2646484375, 0.41650390625, 0, 
274, 175837606, 75.18620300292969, -64.36773681640625, -116.49058532714844, 8.760202407836914, 4.23212194442749, 1.0134249925613403, 1.685135006904602, -1.0290647745132446, -0.2126622051000595, -0.9560546875, 0.26611328125, 0.4111328125, 0, 
275, 175845939, 75.18647766113281, -64.36668395996094, -116.48980712890625, 8.371539115905762, 4.157153606414795, 1.0714391469955444, 1.718305230140686, -1.1189707517623901, -0.1411728411912918, -0.95263671875, 0.2646484375, 0.4140625, 0, 
276, 175854272, 75.19145202636719, -64.36817169189453, -116.49530792236328, 8.747331619262695, 4.0932297706604, 1.0988295078277588, 1.5965863466262817, -1.5195003747940063, 0.06411242485046387, -0.95703125, 0.26708984375, 0.40966796875, 0, 
277, 175862605, 75.19261932373047, -64.36908721923828, -116.49725341796875, 9.26890754699707, 4.167311191558838, 1.1585367918014526, 1.5359832048416138, -1.3166868686676025, 0.05240672081708908, -0.953125, 0.2646484375, 0.41455078125, 0, 
278, 175870938, 75.19190979003906, -64.36947631835938, -116.49684143066406, 9.433300971984863, 4.174849987030029, 1.1309705972671509, 1.531295657157898, -1.1984003782272339, 0.01562468335032463, -0.95751953125, 0.26708984375, 0.4140625, 0, 
279, 175879271, 75.18746185302734, -64.36746215820312, -116.4920883178711, 9.003447532653809, 4.213876724243164, 0.9542829394340515, 1.5835232734680176, -0.891080915927887, -0.20226280391216278, -0.95361328125, 0.265625, 0.4091796875, 0, 
280, 175887604, 75.18558502197266, -64.36665344238281, -116.48987579345703, 8.481563568115234, 4.092000484466553, 1.0457435846328735, 1.6054233312606812, -1.0622607469558716, -0.09445247799158096, -0.95556640625, 0.267578125, 0.41357421875, 0, 
281, 175895937, 75.18891906738281, -64.3676528930664, -116.49360656738281, 8.59350299835205, 4.080425262451172, 1.076490879058838, 1.6013509035110474, -1.4092824459075928, 0.03457922115921974, -0.95556640625, 0.265625, 0.40966796875, 0, 
282, 175904270, 75.18998718261719, -64.36837005615234, -116.4952163696289, 9.0869722366333, 4.112337112426758, 1.2254502773284912, 1.5514541864395142, -1.2966822385787964, 0.032709378749132156, -0.95458984375, 0.26611328125, 0.4189453125, 0, 
283, 175912603, 75.19091796875, -64.36924743652344, -116.49656677246094, 9.439634323120117, 4.216298580169678, 1.094312310218811, 1.5668997764587402, -1.2871794700622559, 0.05463516712188721, -0.95751953125, 0.265625, 0.408203125, 0, 
284, 175920936, 75.18640899658203, -64.36750793457031, -116.49231719970703, 9.175446510314941, 4.216158866882324, 1.006884217262268, 1.558562159538269, -0.9065390229225159, -0.17397187650203705, -0.95458984375, 0.26611328125, 0.416015625, 0, 
285, 175929269, 75.18543243408203, -64.36669158935547, -116.49044799804688, 8.685445785522461, 4.125616550445557, 1.021850347518921, 1.6876451969146729, -1.0726345777511597, -0.09934481233358383, -0.9580078125, 0.265625, 0.41552734375, 0, 
286, 175937602, 75.18741607666016, -64.3659896850586, -116.49305725097656, 8.512864112854004, 4.091385841369629, 1.1283990144729614, 1.5644276142120361, -1.299845576286316, -0.14500218629837036, -0.95654296875, 0.265625, 0.41455078125, 0, 
287, 175945935, 75.19161987304688, -64.36845397949219, -116.49701690673828, 8.909377098083496, 4.140768527984619, 1.1839948892593384, 1.6777323484420776, -1.4650189876556396, 0.2007131427526474, -0.95361328125, 0.26611328125, 0.4169921875, 0, 
288, 175954268, 75.19416046142578, -64.36844635009766, -116.5000228881836, 9.363654136657715, 4.284205913543701, 1.139882206916809, 1.5900803804397583, -1.339483618736267, -0.06778807193040848, -0.95654296875, 0.26708984375, 0.41015625, 0, 
289, 175962601, 75.19075775146484, -64.36910247802734, -116.4962387084961, 9.310765266418457, 4.170002460479736, 1.0453685522079468, 1.605743646621704, -1.0210603475570679, 0.09652725607156754, -0.953125, 0.2666015625, 0.41796875, 0, 
290, 175970934, 75.1879653930664, -64.36724090576172, -116.49331665039062, 8.845569610595703, 4.11953592300415, 0.9960620999336243, 1.5567306280136108, -1.0041675567626953, -0.21491622924804688, -0.95654296875, 0.26611328125, 0.408203125, 0, 
291, 175979267, 75.18900299072266, -64.36627960205078, -116.49431610107422, 8.438365936279297, 4.087207794189453, 1.109667420387268, 1.6199465990066528, -1.2121808528900146, -0.15500454604625702, -0.95458984375, 0.26416015625, 0.408203125, 0, 
292, 175987600, 75.19320678710938, -64.36759185791016, -116.4986572265625, 8.70251750946045, 4.068387508392334, 1.1462070941925049, 1.5903879404067993, -1.4726519584655762, 0.058554138988256454, -0.95556640625, 0.26513671875, 0.4091796875, 0, 
293, 175995933, 75.19349670410156, -64.36890411376953, -116.49844360351562, 9.238543510437012, 4.18229866027832, 1.1244449615478516, 1.6635931730270386, -1.2199931144714355, 0.12686729431152344, -0.9560546875, 0.2666015625, 0.4091796875, 0, 
294, 176004266, 75.19255065917969, -64.36923217773438, -116.49826049804688, 9.479432106018066, 4.204934120178223, 1.1282033920288086, 1.489442229270935, -1.205700397491455, 0.008708840236067772, -0.953125, 0.265625, 0.4150390625, 0, 
295, 176012599, 75.18949127197266, -64.36643981933594, -116.49536895751953, 9.058645248413086, 4.167070388793945, 1.0022881031036377, 1.549353837966919, -0.9586511850357056, -0.3188844323158264, -0.958984375, 0.2646484375, 0.41552734375, 0, 
296, 176020932, 75.1877670288086, -64.36454772949219, -116.49290466308594, 8.502456665039062, 4.084715366363525, 1.1010363101959229, 1.67576003074646, -1.0046542882919312, -0.2174520343542099, -0.955078125, 0.265625, 0.4169921875, 0, 
297, 176029265, 75.18804168701172, -64.36567687988281, -116.49320983886719, 8.490994453430176, 4.202639579772949, 1.0999548435211182, 1.6028876304626465, -1.2404589653015137, 0.09666812419891357, -0.95556640625, 0.265625, 0.4130859375, 0, 
298, 176037598, 75.19005584716797, -64.36931610107422, -116.49544525146484, 9.027799606323242, 4.224424839019775, 1.1662747859954834, 1.6281431913375854, -1.4030838012695312, 0.3685888350009918, -0.95654296875, 0.2666015625, 0.41796875, 0, 
299, 176045931, 75.19189453125, -64.37092590332031, -116.49772644042969, 9.455533981323242, 4.164988040924072, 1.1045420169830322, 1.5766586065292358, -1.353776216506958, 0.12597081065177917, -0.955078125, 0.26513671875, 0.41552734375, 0, 
300, 176054264, 75.18765258789062, -64.36986541748047, -116.49368286132812, 9.265315055847168, 4.122920036315918, 1.0632513761520386, 1.5611621141433716, -0.9439743161201477, -0.09734690189361572, -0.9580078125, 0.265625, 0.41455078125, 0, 
301, 176062597, 75.18359375, -64.36797332763672, -116.48966979980469, 8.676280975341797, 4.11672306060791, 1.0312247276306152, 1.5515695810317993, -0.9309494495391846, -0.19856156408786774, -0.95458984375, 0.2646484375, 0.40771484375, 0, 
302, 176070930, 75.18147277832031, -64.36811065673828, -116.4871826171875, 8.425732612609863, 4.105379104614258, 1.069093108177185, 1.6141194105148315, -1.0723142623901367, 0.020862793549895287, -0.9560546875, 0.2646484375, 0.40771484375, 0, 
303, 176079263, 75.18333435058594, -64.3707504272461, -116.48872375488281, 8.8894681930542, 4.08006477355957, 1.155588150024414, 1.661608338356018, -1.3480515480041504, 0.2556684613227844, -0.95556640625, 0.26611328125, 0.416015625, 0, 
304, 176087596, 75.18527221679688, -64.37199401855469, -116.49029541015625, 9.360610008239746, 4.186416149139404, 1.166554570198059, 1.6194086074829102, -1.3330544233322144, 0.086857870221138, -0.9560546875, 0.2666015625, 0.41015625, 0, 
305, 176095929, 75.18575286865234, -64.37223052978516, -116.48995971679688, 9.348435401916504, 4.206200122833252, 1.0600818395614624, 1.6964308023452759, -1.1811107397079468, 0.001229483401402831, -0.95751953125, 0.26513671875, 0.41455078125, 0, 
306, 176104262, 75.18260192871094, -64.36975860595703, -116.485595703125, 8.832608222961426, 4.245214462280273, 0.9844900965690613, 1.6727888584136963, -0.9124430418014526, -0.26138046383857727, -0.953125, 0.26416015625, 0.4150390625, 0, 
307, 176112595, 75.18230438232422, -64.36837005615234, -116.4847412109375, 8.3995943069458, 4.15538215637207, 1.0870577096939087, 1.658867597579956, -1.1056896448135376, -0.1793508678674698, -0.955078125, 0.26708984375, 0.4150390625, 0, 
308, 176120928, 75.18659210205078, -64.36991882324219, -116.4898452758789, 8.739938735961914, 4.138670444488525, 1.1179208755493164, 1.578182578086853, -1.4883151054382324, 0.08003167808055878, -0.95361328125, 0.26513671875, 0.41064453125, 0, 
309, 176129261, 75.18717956542969, -64.37115478515625, -116.49072265625, 9.219331741333008, 4.1480841636657715, 1.1587533950805664, 1.5789766311645508, -1.273104190826416, 0.10426273941993713, -0.955078125, 0.2666015625, 0.416015625, 0, 
310, 176137594, 75.1843032836914, -64.37200927734375, -116.4876480102539, 9.420379638671875, 4.167324066162109, 1.085265874862671, 1.5773630142211914, -1.0704189538955688, 0.10134272277355194, -0.95703125, 0.26416015625, 0.41455078125, 0, 
311, 176145927, 75.1802749633789, -64.36958312988281, -116.48320770263672, 9.012584686279297, 4.161226272583008, 0.9809225797653198, 1.5987125635147095, -0.8955890536308289, -0.2513909339904785, -0.95458984375, 0.26611328125, 0.416015625, 0, 
312, 176154260, 75.1801528930664, -64.36895751953125, -116.4830551147461, 8.509134292602539, 4.115288734436035, 1.058204174041748, 1.6193063259124756, -1.1551378965377808, -0.099729023873806, -0.95751953125, 0.2666015625, 0.41357421875, 0, 
313, 176162593, 75.1840591430664, -64.3692855834961, -116.48773193359375, 8.579789161682129, 4.087222099304199, 1.1218273639678955, 1.5662592649459839, -1.4357930421829224, -0.054724808782339096, -0.9541015625, 0.265625, 0.41552734375, 0, 
314, 176170926, 75.18751525878906, -64.369873046875, -116.49144744873047, 9.083401679992676, 4.114138126373291, 1.2254998683929443, 1.608535647392273, -1.4015341997146606, -0.012602204456925392, -0.9560546875, 0.26513671875, 0.4150390625, 0, 
315, 176179259, 75.19017028808594, -64.37084197998047, -116.49456024169922, 9.47970199584961, 4.274400234222412, 1.1367305517196655, 1.5829724073410034, -1.3768162727355957, 0.03945872560143471, -0.95458984375, 0.26513671875, 0.40966796875, 0, 
316, 176187592, 75.18692016601562, -64.37012481689453, -116.49137878417969, 9.211230278015137, 4.249846458435059, 1.012894868850708, 1.5674887895584106, -1.0040396451950073, -0.06993967294692993, -0.95458984375, 0.26708984375, 0.41357421875, 0, 
317, 176195925, 75.18560028076172, -64.36966705322266, -116.48961639404297, 8.626143455505371, 4.158961772918701, 1.0367262363433838, 1.6368775367736816, -1.088976263999939, -0.059360988438129425, -0.9580078125, 0.26611328125, 0.41162109375, 0, 
318, 176204258, 75.1859359741211, -64.37040710449219, -116.48951721191406, 8.404932975769043, 4.1127448081970215, 1.118226170539856, 1.6496208906173706, -1.2094529867172241, 0.05936099588871002, -0.955078125, 0.26708984375, 0.41552734375, 0, 
319, 176212591, 75.18911743164062, -64.37330627441406, -116.49311065673828, 8.878312110900879, 4.106757640838623, 1.1771738529205322, 1.5957540273666382, -1.4600625038146973, 0.25538673996925354, -0.95556640625, 0.26611328125, 0.41357421875, 0, 
320, 176220924, 75.19207763671875, -64.37521362304688, -116.49684143066406, 9.395511627197266, 4.211550712585449, 1.1229625940322876, 1.5586134195327759, -1.434166669845581, 0.14519427716732025, -0.955078125, 0.265625, 0.40966796875, 0, 
321, 176229257, 75.19026184082031, -64.37454986572266, -116.49443817138672, 9.400588989257812, 4.152207851409912, 1.0764209032058716, 1.6475203037261963, -1.0499018430709839, -0.07776481658220291, -0.955078125, 0.26611328125, 0.4072265625, 0, 
322, 176237590, 75.1880111694336, -64.37183380126953, -116.49188232421875, 8.867427825927734, 4.106882095336914, 1.0184153318405151, 1.5858924388885498, -0.9914758205413818, -0.3117508292198181, -0.9580078125, 0.267578125, 0.4140625, 0, 
323, 176245923, 75.18768310546875, -64.37105560302734, -116.49185180664062, 8.437065124511719, 4.047776699066162, 1.0996413230895996, 1.566937804222107, -1.1659085750579834, -0.11715950071811676, -0.9541015625, 0.2646484375, 0.4091796875, 0, 
324, 176254256, 75.19300079345703, -64.37288665771484, -116.49666595458984, 8.68659496307373, 4.151383876800537, 1.111592173576355, 1.711530327796936, -1.4951796531677246, 0.11158841103315353, -0.95751953125, 0.265625, 0.41259765625, 0, 
325, 176262589, 75.19644165039062, -64.37408447265625, -116.4997787475586, 9.205009460449219, 4.267217636108398, 1.1226407289505005, 1.678513526916504, -1.3837577104568481, 0.06599507480859756, -0.953125, 0.265625, 0.41064453125, 0, 
326, 176270922, 75.19427490234375, -64.37540435791016, -116.49805450439453, 9.445534706115723, 4.177130222320557, 1.0176541805267334, 1.5236369371414185, -1.1499894857406616, 0.14497657120227814, -0.95849609375, 0.26611328125, 0.4130859375, 0, 
327, 176279255, 75.1923599243164, -64.37352752685547, -116.49557495117188, 9.029540061950684, 4.143997669219971, 0.9987636208534241, 1.6430124044418335, -1.0081251859664917, -0.21608170866966248, -0.955078125, 0.265625, 0.41796875, 0, 
328, 176287588, 75.19035339355469, -64.37226104736328, -116.49346923828125, 8.474043846130371, 4.121632099151611, 1.117152214050293, 1.578336238861084, -1.0520790815353394, -0.14948466420173645, -0.95556640625, 0.2646484375, 0.4169921875, 0, 
329, 176295921, 75.1925048828125, -64.37324523925781, -116.49603271484375, 8.555960655212402, 4.120233535766602, 1.0961800813674927, 1.58324134349823, -1.3504977226257324, 0.04935862869024277, -0.9560546875, 0.26611328125, 0.41455078125, 0, 
330, 176304254, 75.19598388671875, -64.37529754638672, -116.49974822998047, 9.080933570861816, 4.111688137054443, 1.1483392715454102, 1.645035743713379, -1.4259443283081055, 0.1649172306060791, -0.95361328125, 0.267578125, 0.4169921875, 0, 
331, 176312587, 75.19764709472656, -64.37673950195312, -116.5019760131836, 9.490663528442383, 4.190819263458252, 1.103807806968689, 1.5623914003372192, -1.3456310033798218, 0.10655521601438522, -0.95654296875, 0.2666015625, 0.41455078125, 0, 
332, 176320920, 75.19276428222656, -64.37484741210938, -116.49734497070312, 9.183754920959473, 4.136117935180664, 1.055139183998108, 1.5331400632858276, -0.8931043744087219, -0.18863603472709656, -0.9541015625, 0.26611328125, 0.40966796875, 0, 
333, 176329253, 75.19176483154297, -64.37178039550781, -116.49606323242188, 8.631278991699219, 4.130960941314697, 1.0226200819015503, 1.6245956420898438, -1.0333806276321411, -0.36797410249710083, -0.955078125, 0.2666015625, 0.408203125, 0, 
334, 176337586, 75.19483947753906, -64.37129211425781, -116.49903106689453, 8.431153297424316, 4.194420337677002, 1.0860323905944824, 1.618473768234253, -1.3420578241348267, -0.1316571831703186, -0.95703125, 0.2646484375, 0.4140625, 0, 
335, 176345919, 75.19941711425781, -64.37212371826172, -116.50503540039062, 8.916696548461914, 4.158512592315674, 1.1857181787490845, 1.5053614377975464, -1.5167980194091797, -0.014369585551321507, -0.9541015625, 0.26708984375, 0.41650390625, 0, 
336, 176354252, 75.20174407958984, -64.3729476928711, -116.5069351196289, 9.437162399291992, 4.169241905212402, 1.140516757965088, 1.6784368753433228, -1.3107315301895142, 0.043275248259305954, -0.95849609375, 0.26806640625, 0.4072265625, 0, 
337, 176362585, 75.1994400024414, -64.37281799316406, -116.50323486328125, 9.359930038452148, 4.1260247230529785, 1.0702855587005615, 1.726962924003601, -1.000684142112732, 0.004175120033323765, -0.95458984375, 0.2646484375, 0.41650390625, 0, 
338, 176370918, 75.19833374023438, -64.37047576904297, -116.50081634521484, 8.77800464630127, 4.196156024932861, 0.993120551109314, 1.6988897323608398, -1.018870234489441, -0.2749303877353668, -0.9580078125, 0.265625, 0.4072265625, 0, 
339, 176379251, 75.19739532470703, -64.36956024169922, -116.49850463867188, 8.381429672241211, 4.125301837921143, 1.0323479175567627, 1.7400517463684082, -1.0482498407363892, -0.10428836196660995, -0.9560546875, 0.26708984375, 0.41748046875, 0, 
340, 176387584, 75.20187377929688, -64.37039184570312, -116.50338745117188, 8.73190975189209, 4.079903602600098, 1.1034090518951416, 1.5725346803665161, -1.4844088554382324, -0.00697987899184227, -0.9560546875, 0.26611328125, 0.41650390625, 0, 
341, 176395917, 75.2023696899414, -64.37135314941406, -116.50442504882812, 9.230862617492676, 4.161699295043945, 1.1892117261886597, 1.55135178565979, -1.2720670700073242, 0.06657139956951141, -0.955078125, 0.26611328125, 0.4140625, 0, 
342, 176404250, 75.20153045654297, -64.37165069580078, -116.50371551513672, 9.481287002563477, 4.207362174987793, 1.1119635105133057, 1.5980209112167358, -1.155368447303772, 0.019671732559800148, -0.95361328125, 0.26708984375, 0.41162109375, 0, 
343, 176412583, 75.19550323486328, -64.3696060180664, -116.49725341796875, 9.019755363464355, 4.230290412902832, 1.0186221599578857, 1.5765049457550049, -0.8037874102592468, -0.18220683932304382, -0.95703125, 0.26708984375, 0.4111328125, 0, 
344, 176420916, 75.19385528564453, -64.36927795410156, -116.49485778808594, 8.488322257995605, 4.11387300491333, 1.0552144050598145, 1.6482887268066406, -1.0721862316131592, -0.043159984052181244, -0.9541015625, 0.26611328125, 0.41650390625, 0, 
345, 176429249, 75.19432830810547, -64.369873046875, -116.49555969238281, 8.552270889282227, 4.090957164764404, 1.113406777381897, 1.5846502780914307, -1.2439168691635132, 0.029302682727575302, -0.95556640625, 0.26806640625, 0.41455078125, 0, 
346, 176437582, 75.19623565673828, -64.3717041015625, -116.49775695800781, 9.019556045532227, 4.1338629722595215, 1.170407772064209, 1.6132612228393555, -1.3479361534118652, 0.1594742238521576, -0.95654296875, 0.26611328125, 0.4130859375, 0, 
347, 176445915, 75.19546508789062, -64.37284851074219, -116.49751281738281, 9.423910140991211, 4.231503963470459, 1.1018133163452148, 1.5355350971221924, -1.2131158113479614, 0.1045445129275322, -0.95458984375, 0.26708984375, 0.40966796875, 0, 
348, 176454248, 75.19091796875, -64.3718032836914, -116.49288177490234, 9.198945045471191, 4.160422325134277, 1.045675277709961, 1.5478425025939941, -0.9335234761238098, -0.09143000841140747, -0.95654296875, 0.26708984375, 0.41455078125, 0, 
349, 176462581, 75.19005584716797, -64.37078094482422, -116.49136352539062, 8.692429542541504, 4.1082539558410645, 1.0152901411056519, 1.6667951345443726, -1.082162857055664, -0.12834012508392334, -0.95458984375, 0.265625, 0.41455078125, 0, 
350, 176470914, 75.18952178955078, -64.37059020996094, -116.49095153808594, 8.512534141540527, 4.082275867462158, 1.0928304195404053, 1.5784261226654053, -1.1683293581008911, -0.04791142791509628, -0.95654296875, 0.265625, 0.41455078125, 0, 
351, 176479247, 75.19347381591797, -64.37142944335938, -116.49483489990234, 8.860921859741211, 4.123782634735107, 1.2007073163986206, 1.6589826345443726, -1.4108959436416626, 0.013421858660876751, -0.95654296875, 0.26611328125, 0.4150390625, 0, 
352, 176487580, 75.19534301757812, -64.37326049804688, -116.49681091308594, 9.341753005981445, 4.262956619262695, 1.0906307697296143, 1.6145163774490356, -1.3469629287719727, 0.15739946067333221, -0.955078125, 0.267578125, 0.41650390625, 0, 
353, 176495913, 75.19042205810547, -64.37299346923828, -116.49236297607422, 9.331374168395996, 4.195688247680664, 1.065304160118103, 1.4938479661941528, -0.9601625204086304, -0.0015240471111610532, -0.95849609375, 0.2646484375, 0.4150390625, 0, 
354, 176504246, 75.18582153320312, -64.37102508544922, -116.48745727539062, 8.838089942932129, 4.16206693649292, 1.0001482963562012, 1.5854058265686035, -0.8838703632354736, -0.19500117003917694, -0.953125, 0.267578125, 0.41259765625, 0, 
355, 176512579, 75.18448638916016, -64.3699722290039, -116.48652648925781, 8.432016372680664, 4.103433132171631, 1.1023074388504028, 1.5431551933288574, -1.1121060848236084, -0.14109602570533752, -0.95751953125, 0.26513671875, 0.408203125, 0, 
356, 176520912, 75.1852035522461, -64.37113952636719, -116.48761749267578, 8.746891975402832, 4.089850425720215, 1.1756224632263184, 1.5591641664505005, -1.2890748977661133, 0.08962421119213104, -0.955078125, 0.26708984375, 0.41064453125, 0, 
357, 176529245, 75.187744140625, -64.37187957763672, -116.49034118652344, 9.23487377166748, 4.1718878746032715, 1.1567825078964233, 1.6134151220321655, -1.3498318195343018, 0.01915944740176201, -0.95556640625, 0.26611328125, 0.408203125, 0, 
358, 176537578, 75.1875228881836, -64.3729248046875, -116.49027252197266, 9.526413917541504, 4.191763877868652, 1.0991554260253906, 1.5623915195465088, -1.234029769897461, 0.08818981051445007, -0.95703125, 0.2666015625, 0.41455078125, 0, 
359, 176545911, 75.18376922607422, -64.37129211425781, -116.48621368408203, 9.061137199401855, 4.1588454246521, 1.012613296508789, 1.5894402265548706, -0.93780118227005, -0.16914361715316772, -0.95654296875, 0.26513671875, 0.41552734375, 0, 
360, 176554244, 75.17932891845703, -64.37008666992188, -116.48117065429688, 8.50387191772461, 4.085559844970703, 1.0560598373413086, 1.6158483028411865, -0.9007374048233032, -0.1010865718126297, -0.9580078125, 0.267578125, 0.4072265625, 0, 
361, 176562577, 75.18415069580078, -64.37013244628906, -116.48643493652344, 8.502257347106934, 4.1636834144592285, 1.0792195796966553, 1.6132614612579346, -1.4569505453109741, -0.09447810798883438, -0.953125, 0.265625, 0.41748046875, 0, 
362, 176570910, 75.18682861328125, -64.37181854248047, -116.4896011352539, 9.033731460571289, 4.189169883728027, 1.1954504251480103, 1.520922064781189, -1.4343843460083008, 0.11674968898296356, -0.9560546875, 0.2646484375, 0.41455078125, 0, 
363, 176579243, 75.18915557861328, -64.3731460571289, -116.49243927001953, 9.465705871582031, 4.21084451675415, 1.1113777160644531, 1.5730212926864624, -1.3749334812164307, 0.08649926632642746, -0.95654296875, 0.26708984375, 0.41748046875, 0, 
364, 176587576, 75.185546875, -64.37225341796875, -116.48866271972656, 9.226459503173828, 4.120859622955322, 1.061602234840393, 1.591770887374878, -0.9685638546943665, -0.0863327756524086, -0.95654296875, 0.2666015625, 0.41552734375, 0, 
365, 176595909, 75.18119049072266, -64.37118530273438, -116.48448181152344, 8.640745162963867, 4.119600772857666, 1.0005093812942505, 1.5319873094558716, -0.9484822154045105, -0.09832023829221725, -0.95703125, 0.267578125, 0.41015625, 0, 
366, 176604242, 75.18138885498047, -64.37026977539062, -116.48406982421875, 8.421985626220703, 4.1585869789123535, 1.0895757675170898, 1.6745561361312866, -1.1399229764938354, -0.1282888948917389, -0.95068359375, 0.265625, 0.41015625, 0, 
367, 176612575, 75.186767578125, -64.37276458740234, -116.49032592773438, 8.85983657836914, 4.093997955322266, 1.1781654357910156, 1.5727651119232178, -1.5813076496124268, 0.17479152977466583, -0.95654296875, 0.2685546875, 0.41845703125, 0, 
368, 176620908, 75.18894958496094, -64.37468719482422, -116.49264526367188, 9.3839111328125, 4.152082443237305, 1.1329351663589478, 1.6062302589416504, -1.3719496726989746, 0.16038353741168976, -0.95556640625, 0.267578125, 0.41552734375, 0, 
369, 176629241, 75.18824768066406, -64.37322235107422, -116.4914321899414, 9.361087799072266, 4.151545524597168, 1.065536618232727, 1.6470719575881958, -1.0856208801269531, -0.18497318029403687, -0.955078125, 0.26611328125, 0.41455078125, 0, 
370, 176637574, 75.1869125366211, -64.37054443359375, -116.48963165283203, 8.84253978729248, 4.2079291343688965, 1.0046888589859009, 1.641283392906189, -1.0171284675598145, -0.31721949577331543, -0.9580078125, 0.26708984375, 0.408203125, 0, 
371, 176645907, 75.1859359741211, -64.36909484863281, -116.48892974853516, 8.396934509277344, 4.104796409606934, 1.0760947465896606, 1.5625709295272827, -1.111491322517395, -0.186996728181839, -0.95458984375, 0.26611328125, 0.41845703125, 0, 
372, 176654240, 75.18783569335938, -64.37085723876953, -116.4913330078125, 8.746280670166016, 4.107142448425293, 1.1866976022720337, 1.520179271697998, -1.3929150104522705, 0.13611404597759247, -0.95751953125, 0.265625, 0.40966796875, 0, 
373, 176662573, 75.1873550415039, -64.3718490600586, -116.49079132080078, 9.223417282104492, 4.195865631103516, 1.18740975856781, 1.6039377450942993, -1.1942508220672607, 0.09180141240358353, -0.95556640625, 0.265625, 0.41845703125, 0, 
374, 176670906, 75.18497467041016, -64.37242126464844, -116.48880767822266, 9.449959754943848, 4.179280757904053, 1.0714752674102783, 1.5078587532043457, -1.1234787702560425, 0.05673552677035332, -0.95703125, 0.26416015625, 0.416015625, 0, 
375, 176679239, 75.18038177490234, -64.37083435058594, -116.4836196899414, 8.981527328491211, 4.17582893371582, 0.9884225726127625, 1.612531304359436, -0.8824615478515625, -0.14518147706985474, -0.95556640625, 0.26611328125, 0.41015625, 0, 
376, 176687572, 75.17965698242188, -64.37012481689453, -116.48311614990234, 8.487676620483398, 4.14076042175293, 1.0650643110275269, 1.5876598358154297, -1.1351203918457031, -0.10033095628023148, -0.95556640625, 0.2666015625, 0.4140625, 0, 
377, 176695905, 75.18217468261719, -64.37126159667969, -116.48481750488281, 8.603681564331055, 4.079020977020264, 1.1270840167999268, 1.7230182886123657, -1.3093868494033813, 0.07666340470314026, -0.9580078125, 0.2666015625, 0.4150390625, 0, 
378, 176704238, 75.18321990966797, -64.37338256835938, -116.48625183105469, 9.10932731628418, 4.134196758270264, 1.2072805166244507, 1.5681675672531128, -1.332554817199707, 0.19524449110031128, -0.953125, 0.265625, 0.4091796875, 0, 
379, 176712571, 75.18238830566406, -64.37468719482422, -116.48561096191406, 9.526589393615723, 4.221619606018066, 1.1168432235717773, 1.5743663311004639, -1.19808030128479, 0.12949277460575104, -0.9580078125, 0.26708984375, 0.4150390625, 0, 
380, 176720904, 75.17645263671875, -64.37454223632812, -116.4790267944336, 9.171835899353027, 4.180603504180908, 1.022282600402832, 1.5822042226791382, -0.8654282093048096, 0.03766573593020439, -0.955078125, 0.267578125, 0.42236328125, 0, 
381, 176729237, 75.17280578613281, -64.37212371826172, -116.4751205444336, 8.594261169433594, 4.149526119232178, 1.0145478248596191, 1.589747428894043, -0.9211262464523315, -0.2572053372859955, -0.95361328125, 0.2666015625, 0.4140625, 0, 
382, 176737570, 75.17247009277344, -64.37214660644531, -116.47555541992188, 8.446231842041016, 4.126611232757568, 1.0893571376800537, 1.5558598041534424, -1.1894608736038208, -0.028828822076320648, -0.95654296875, 0.265625, 0.416015625, 0, 
383, 176745903, 75.17735290527344, -64.37422943115234, -116.4803695678711, 8.910076141357422, 4.110079765319824, 1.1997156143188477, 1.6686906814575195, -1.4967294931411743, 0.14656466245651245, -0.95458984375, 0.26806640625, 0.4130859375, 0, 
384, 176754236, 75.17984008789062, -64.37596130371094, -116.48275756835938, 9.4284029006958, 4.252826690673828, 1.0756111145019531, 1.6573433876037598, -1.3578873872756958, 0.14226144552230835, -0.95751953125, 0.26806640625, 0.41162109375, 0, 
385, 176762569, 75.17611694335938, -64.37435913085938, -116.4786605834961, 9.368754386901855, 4.180349349975586, 1.0588337182998657, 1.597815990447998, -0.9365716576576233, -0.15902598202228546, -0.95361328125, 0.26806640625, 0.41064453125, 0, 
386, 176770902, 75.17274475097656, -64.37310791015625, -116.47463989257812, 8.802742958068848, 4.1147589683532715, 1.0206081867218018, 1.6060124635696411, -0.9660281538963318, -0.127341166138649, -0.95654296875, 0.267578125, 0.41162109375, 0, 
387, 176779235, 75.173583984375, -64.37181854248047, -116.47438049316406, 8.427811622619629, 4.030078411102295, 1.115631341934204, 1.730318307876587, -1.140332818031311, -0.17672540247440338, -0.9541015625, 0.2666015625, 0.41650390625, 0, 
388, 176787568, 75.17871856689453, -64.3731918334961, -116.47988891601562, 8.72093677520752, 4.140456676483154, 1.128135323524475, 1.6141321659088135, -1.5131992101669312, 0.0550449900329113, -0.95556640625, 0.26611328125, 0.41552734375, 0, 
389, 176795901, 75.18221282958984, -64.37528228759766, -116.483642578125, 9.26518440246582, 4.2398271560668945, 1.125411868095398, 1.6173725128173828, -1.4443867206573486, 0.15943580865859985, -0.95703125, 0.2685546875, 0.41455078125, 0, 
390, 176804234, 75.1791000366211, -64.3758544921875, -116.4812240600586, 9.432881355285645, 4.136768817901611, 1.0402452945709229, 1.496832013130188, -1.0843532085418701, 0.06983722746372223, -0.953125, 0.265625, 0.40966796875, 0, 
391, 176812567, 75.17457580566406, -64.37419891357422, -116.47637939453125, 8.984402656555176, 4.13941764831543, 1.0240590572357178, 1.5833566188812256, -0.8966262340545654, -0.1593717634677887, -0.9580078125, 0.26513671875, 0.4130859375, 0, 
392, 176820900, 75.17279052734375, -64.37353515625, -116.47413635253906, 8.449597358703613, 4.138528347015381, 1.0977317094802856, 1.6121342182159424, -1.067793369293213, -0.07708603888750076, -0.95361328125, 0.2685546875, 0.412109375, 0, 
393, 176829233, 75.17556762695312, -64.37435913085938, -116.477294921875, 8.600528717041016, 4.151089191436768, 1.1108205318450928, 1.5956131219863892, -1.3746775388717651, 0.02476896345615387, -0.955078125, 0.2666015625, 0.41259765625, 0, 
394, 176837566, 75.17765808105469, -64.37535095214844, -116.47911071777344, 9.11689567565918, 4.164159297943115, 1.138170838356018, 1.6405918598175049, -1.322475790977478, 0.05732465907931328, -0.9560546875, 0.265625, 0.40966796875, 0, 
395, 176845899, 75.17899322509766, -64.37704467773438, -116.48126983642578, 9.514300346374512, 4.208293914794922, 1.1177387237548828, 1.5306555032730103, -1.351240634918213, 0.13639581203460693, -0.95751953125, 0.265625, 0.41357421875, 0, 
396, 176854232, 75.17583465576172, -64.37586975097656, -116.47686004638672, 9.111462593078613, 4.144718647003174, 1.0339195728302002, 1.6738133430480957, -0.9484822154045105, -0.11263860017061234, -0.95703125, 0.26708984375, 0.4091796875, 0, 
397, 176862565, 75.1742935180664, -64.37521362304688, -116.47484588623047, 8.571235656738281, 4.101226329803467, 1.0489379167556763, 1.6358789205551147, -1.0698682069778442, -0.08144047111272812, -0.95556640625, 0.26708984375, 0.4169921875, 0, 
398, 176870898, 75.17601013183594, -64.37481689453125, -116.47669219970703, 8.452388763427734, 4.159669399261475, 1.0943011045455933, 1.583074927330017, -1.2882423400878906, -0.10337904840707779, -0.95703125, 0.26611328125, 0.4150390625, 0, 
399, 176879231, 75.18000030517578, -64.37677001953125, -116.4814224243164, 8.999001502990723, 4.1192402839660645, 1.19740629196167, 1.5712922811508179, -1.4870854616165161, 0.13166995346546173, -0.95361328125, 0.265625, 0.4169921875, 0, 
400, 176887564, 75.18156433105469, -64.37800598144531, -116.48334503173828, 9.509318351745605, 4.152103424072266, 1.1305043697357178, 1.5827293395996094, -1.3252677917480469, 0.0868578776717186, -0.953125, 0.26708984375, 0.4150390625, 0, 
401, 176895897, 75.17986297607422, -64.37706756591797, -116.48117065429688, 9.291593551635742, 4.126865863800049, 1.11411452293396, 1.6346749067306519, -1.052757740020752, -0.10772066563367844, -0.9580078125, 0.265625, 0.4140625, 0, 
402, 176904230, 75.17928314208984, -64.3759536743164, -116.48077392578125, 8.737204551696777, 4.183940410614014, 0.980478048324585, 1.579245924949646, -1.1352101564407349, -0.15659262239933014, -0.9521484375, 0.2685546875, 0.4150390625, 0, 
403, 176912563, 75.1798324584961, -64.37590026855469, -116.48170471191406, 8.403901100158691, 4.134454727172852, 1.095041275024414, 1.5688846111297607, -1.2346829175949097, -0.04823160171508789, -0.955078125, 0.26513671875, 0.4140625, 0, 
404, 176920896, 75.18376922607422, -64.37787628173828, -116.487060546875, 8.795098304748535, 4.122515678405762, 1.1569709777832031, 1.4956151247024536, -1.5208323001861572, 0.12878836691379547, -0.955078125, 0.26708984375, 0.41845703125, 0, 
405, 176929229, 75.1874771118164, -64.37932586669922, -116.49027252197266, 9.33922004699707, 4.1870551109313965, 1.137874960899353, 1.7023732662200928, -1.396782398223877, 0.09551548212766647, -0.95751953125, 0.26611328125, 0.40771484375, 0, 
406, 176937562, 75.18543243408203, -64.37903594970703, -116.48819732666016, 9.416661262512207, 4.194129467010498, 1.107469081878662, 1.5983152389526367, -1.068497657775879, -0.034015703946352005, -0.95654296875, 0.2646484375, 0.412109375, 0, 
407, 176945895, 75.18234252929688, -64.37723541259766, -116.48416137695312, 8.903524398803711, 4.210512161254883, 0.9803829193115234, 1.6697280406951904, -0.9328192472457886, -0.18319299817085266, -0.9541015625, 0.26708984375, 0.41748046875, 0, 
408, 176954228, 75.17878723144531, -64.37640380859375, -116.48087310791016, 8.450881958007812, 4.111400127410889, 1.0836811065673828, 1.5287983417510986, -1.000901699066162, -0.08375854045152664, -0.9560546875, 0.2666015625, 0.41455078125, 0, 
409, 176962561, 75.18284606933594, -64.37857818603516, -116.48526000976562, 8.67200756072998, 4.057171821594238, 1.1455336809158325, 1.6156820058822632, -1.4778391122817993, 0.16432814300060272, -0.953125, 0.2666015625, 0.41064453125, 0, 
410, 176970894, 75.18312072753906, -64.38011932373047, -116.48512268066406, 9.144746780395508, 4.123080730438232, 1.1486852169036865, 1.6525022983551025, -1.2309815883636475, 0.1473330855369568, -0.9560546875, 0.26708984375, 0.4150390625, 0, 
411, 176979227, 75.18474578857422, -64.38003540039062, -116.4880599975586, 9.450711250305176, 4.2047929763793945, 1.0512568950653076, 1.4778645038604736, -1.3368452787399292, -0.07928885519504547, -0.9560546875, 0.265625, 0.41796875, 0, 
412, 176987560, 75.18154907226562, -64.37847137451172, -116.48429870605469, 9.059932708740234, 4.207103729248047, 1.0292863845825195, 1.6303075551986694, -0.9544632434844971, -0.16265040636062622, -0.95458984375, 0.2666015625, 0.4150390625, 0, 
413, 176995893, 75.17977905273438, -64.37696838378906, -116.48255157470703, 8.601076126098633, 4.132850170135498, 1.0403189659118652, 1.5785155296325684, -1.0573298931121826, -0.18052911758422852, -0.95703125, 0.26416015625, 0.408203125, 0, 
414, 177004226, 75.18094635009766, -64.37661743164062, -116.48441314697266, 8.543262481689453, 4.118983745574951, 1.1302251815795898, 1.5413621664047241, -1.273142695426941, -0.09598933905363083, -0.9541015625, 0.267578125, 0.416015625, 0, 
415, 177012559, 75.1839599609375, -64.3775863647461, -116.48831939697266, 8.96957015991211, 4.166106700897217, 1.1958070993423462, 1.5435137748718262, -1.4170948266983032, 0.029225843027234077, -0.9560546875, 0.26513671875, 0.40673828125, 0, 
416, 177020892, 75.18456268310547, -64.37896728515625, -116.48951721191406, 9.428349494934082, 4.2882981300354, 1.1041141748428345, 1.5516078472137451, -1.2921741008758545, 0.1173131987452507, -0.95556640625, 0.26611328125, 0.4169921875, 0, 
417, 177029225, 75.17955017089844, -64.37872314453125, -116.48480987548828, 9.210259437561035, 4.157407283782959, 1.0522655248641968, 1.5101641416549683, -0.9465612173080444, 0.0014343971852213144, -0.95703125, 0.2666015625, 0.41552734375, 0, 
418, 177037558, 75.17721557617188, -64.37748718261719, -116.48265838623047, 8.72612190246582, 4.103370666503906, 1.0016145706176758, 1.5738409757614136, -1.0379784107208252, -0.1401226669549942, -0.95703125, 0.26806640625, 0.41259765625, 0, 
419, 177045891, 75.18119812011719, -64.37779235839844, -116.486572265625, 8.436457633972168, 4.087771415710449, 1.1490525007247925, 1.6570616960525513, -1.398268222808838, -0.047527212649583817, -0.95458984375, 0.265625, 0.40869140625, 0, 
420, 177054224, 75.18424224853516, -64.37874603271484, -116.48937225341797, 8.807967185974121, 4.062110424041748, 1.1631280183792114, 1.6531426906585693, -1.3685686588287354, 0.040086276829242706, -0.9580078125, 0.26513671875, 0.41455078125, 0, 
421, 177062557, 75.1842269897461, -64.38014221191406, -116.49041748046875, 9.345820426940918, 4.186072826385498, 1.0994315147399902, 1.4868932962417603, -1.2872687578201294, 0.1167880967259407, -0.95361328125, 0.26611328125, 0.416015625, 0, 
422, 177070890, 75.18045043945312, -64.3799057006836, -116.48685455322266, 9.44444751739502, 4.20361328125, 1.0755630731582642, 1.5406321287155151, -1.001542091369629, -0.006915843114256859, -0.95751953125, 0.26611328125, 0.4130859375, 0, 
423, 177079223, 75.17724609375, -64.37716674804688, -116.48419189453125, 8.898255348205566, 4.184310436248779, 1.0177873373031616, 1.5062451362609863, -0.9729440212249756, -0.31304439902305603, -0.95703125, 0.267578125, 0.4150390625, 0, 
424, 177087556, 75.17559814453125, -64.37594604492188, -116.48307037353516, 8.41177749633789, 4.108822345733643, 1.0948632955551147, 1.5145184993743896, -1.1024237871170044, -0.16268882155418396, -0.95556640625, 0.2666015625, 0.41455078125, 0, 
425, 177095889, 75.17916107177734, -64.37698364257812, -116.4876480102539, 8.58027172088623, 4.226845741271973, 1.0932626724243164, 1.5362904071807861, -1.4531081914901733, 0.029610054567456245, -0.95703125, 0.26806640625, 0.41455078125, 0, 
426, 177104222, 75.18148803710938, -64.37938690185547, -116.49046325683594, 9.151202201843262, 4.241323947906494, 1.1444557905197144, 1.5822681188583374, -1.4055426120758057, 0.21223953366279602, -0.95263671875, 0.26513671875, 0.41552734375, 0, 
427, 177112555, 75.18183135986328, -64.38042449951172, -116.49153137207031, 9.500567436218262, 4.163506507873535, 1.0756886005401611, 1.5279659032821655, -1.2762932777404785, 0.07740622013807297, -0.9560546875, 0.267578125, 0.41455078125, 0, 
428, 177120888, 75.178466796875, -64.37863159179688, -116.4878158569336, 9.115213394165039, 4.110882759094238, 1.0426766872406006, 1.6209710836410522, -0.939670979976654, -0.18876409530639648, -0.95361328125, 0.26611328125, 0.4111328125, 0, 
429, 177129221, 75.17803192138672, -64.37792205810547, -116.48667907714844, 8.58271598815918, 4.085127353668213, 1.0406928062438965, 1.6773993968963623, -1.111311912536621, -0.09686022996902466, -0.95751953125, 0.26708984375, 0.41357421875, 0, 
430, 177137554, 75.18018341064453, -64.37738800048828, -116.48820495605469, 8.509921073913574, 4.093021392822266, 1.0790910720825195, 1.678206205368042, -1.2616547346115112, -0.11318929493427277, -0.9541015625, 0.265625, 0.408203125, 0, 
431, 177145887, 75.18235778808594, -64.37921142578125, -116.4915542602539, 9.004866600036621, 4.133055210113525, 1.1501778364181519, 1.5018523931503296, -1.4149304628372192, 0.13525596261024475, -0.953125, 0.265625, 0.41552734375, 0, 
432, 177154220, 75.18179321289062, -64.37895965576172, -116.4916763305664, 9.468992233276367, 4.201432228088379, 1.1443246603012085, 1.4835764169692993, -1.2104390859603882, -0.06640490144491196, -0.95556640625, 0.265625, 0.4130859375, 0, 
433, 177162553, 75.17747497558594, -64.37804412841797, -116.48790740966797, 9.237410545349121, 4.154969692230225, 1.0608819723129272, 1.4961786270141602, -0.9729695320129395, -0.08630716055631638, -0.9541015625, 0.2685546875, 0.4169921875, 0, 
434, 177170886, 75.17631530761719, -64.375732421875, -116.48564147949219, 8.714168548583984, 4.191924095153809, 1.0071662664413452, 1.7044223546981812, -1.0071130990982056, -0.2672973573207855, -0.95556640625, 0.26904296875, 0.4150390625, 0, 
435, 177179219, 75.17557525634766, -64.375732421875, -116.4840316772461, 8.4077787399292, 4.177799701690674, 1.1130616664886475, 1.6885415315628052, -1.1105947494506836, -0.008209362626075745, -0.95654296875, 0.26806640625, 0.41455078125, 0, 
436, 177187552, 75.17922973632812, -64.37842559814453, -116.48804473876953, 8.833023071289062, 4.1326727867126465, 1.1771283149719238, 1.6081640720367432, -1.4763405323028564, 0.22881194949150085, -0.955078125, 0.26416015625, 0.4091796875, 0, 
437, 177195885, 75.18077087402344, -64.3797607421875, -116.4897232055664, 9.343027114868164, 4.176186561584473, 1.148918628692627, 1.6058846712112427, -1.3166613578796387, 0.10127869248390198, -0.95556640625, 0.2666015625, 0.41455078125, 0, 
438, 177204218, 75.17979431152344, -64.38004302978516, -116.48920440673828, 9.358992576599121, 4.132977485656738, 1.1100867986679077, 1.5209476947784424, -1.1851577758789062, 0.0068646143190562725, -0.955078125, 0.26611328125, 0.41552734375, 0, 
439, 177212551, 75.175537109375, -64.37864685058594, -116.48528289794922, 8.893731117248535, 4.147286415100098, 0.9741937518119812, 1.515389323234558, -0.9514535665512085, -0.14045564830303192, -0.9560546875, 0.26513671875, 0.41357421875, 0, 
440, 177220884, 75.17636108398438, -64.37783813476562, -116.48573303222656, 8.445204734802246, 4.095685005187988, 1.0681239366531372, 1.6607885360717773, -1.1865025758743286, -0.13045328855514526, -0.95703125, 0.26318359375, 0.41650390625, 0, 
441, 177229217, 75.18094635009766, -64.37874603271484, -116.4910888671875, 8.676197052001953, 4.091643810272217, 1.1894936561584473, 1.573264718055725, -1.4888274669647217, 0.004008627962321043, -0.955078125, 0.26513671875, 0.408203125, 0, 
442, 177237550, 75.18205261230469, -64.37964630126953, -116.49153900146484, 9.20132827758789, 4.1673359870910645, 1.1757057905197144, 1.7093274593353271, -1.22879159450531, 0.07145090401172638, -0.95703125, 0.265625, 0.4169921875, 0, 
443, 177245883, 75.17984008789062, -64.3802719116211, -116.49010467529297, 9.469228744506836, 4.239377975463867, 1.1445505619049072, 1.4940528869628906, -1.1381558179855347, 0.061218030750751495, -0.95458984375, 0.26708984375, 0.408203125, 0, 
444, 177254216, 75.17646789550781, -64.37825012207031, -116.48603820800781, 9.042862892150879, 4.242227554321289, 0.9853653907775879, 1.6471999883651733, -0.920562744140625, -0.20789791643619537, -0.95654296875, 0.2646484375, 0.4091796875, 0, 
445, 177262549, 75.17411804199219, -64.37775421142578, -116.48391723632812, 8.53734302520752, 4.159051895141602, 1.0566887855529785, 1.552120327949524, -1.0695865154266357, -0.05741431191563606, -0.95556640625, 0.26708984375, 0.4111328125, 0, 
446, 177270882, 75.1760482788086, -64.37788391113281, -116.48641967773438, 8.456488609313965, 4.120291709899902, 1.13357675075531, 1.5431550741195679, -1.3315943479537964, -0.05521148070693016, -0.95703125, 0.2666015625, 0.412109375, 0, 
447, 177279215, 75.17913818359375, -64.37953186035156, -116.48859405517578, 8.972833633422852, 4.092071533203125, 1.1693849563598633, 1.7379001379013062, -1.3500622510910034, 0.1299666315317154, -0.95361328125, 0.26611328125, 0.4169921875, 0, 
448, 177287548, 75.1804428100586, -64.37980651855469, -116.49032592773438, 9.44028091430664, 4.228078842163086, 1.0848127603530884, 1.5604448318481445, -1.2947354316711426, -0.023296145722270012, -0.95361328125, 0.265625, 0.4091796875, 0, 
449, 177295881, 75.17646789550781, -64.37879943847656, -116.4859390258789, 9.277409553527832, 4.206747531890869, 1.045749545097351, 1.6003773212432861, -0.9421043395996094, -0.08902227878570557, -0.955078125, 0.265625, 0.4072265625, 0, 
450, 177304214, 75.17398071289062, -64.37720489501953, -116.48294830322266, 8.808344841003418, 4.113200664520264, 1.0219981670379639, 1.596714735031128, -1.005858302116394, -0.17897947132587433, -0.95361328125, 0.265625, 0.416015625, 0, 
451, 177312547, 75.17330169677734, -64.37564086914062, -116.48129272460938, 8.440581321716309, 4.023736953735352, 1.0926600694656372, 1.7019124031066895, -1.0598530769348145, -0.1880725473165512, -0.955078125, 0.26513671875, 0.40673828125, 0, 
452, 177320880, 75.17967987060547, -64.3760757446289, -116.48735046386719, 8.783259391784668, 4.144221305847168, 1.1227068901062012, 1.7378745079040527, -1.4965755939483643, -0.06018063798546791, -0.955078125, 0.2666015625, 0.41748046875, 0, 
453, 177329213, 75.18135833740234, -64.37722778320312, -116.48885345458984, 9.287514686584473, 4.292931079864502, 1.1364891529083252, 1.6398231983184814, -1.3019330501556396, 0.08219607919454575, -0.95703125, 0.265625, 0.4140625, 0, 
454, 177337546, 75.1799087524414, -64.37628173828125, -116.48760986328125, 9.364405632019043, 4.17553186416626, 1.0730000734329224, 1.5837537050247192, -1.0912048816680908, -0.11781267821788788, -0.95751953125, 0.26611328125, 0.41650390625, 0, 
455, 177345879, 75.1761474609375, -64.37478637695312, -116.48381042480469, 8.92995548248291, 4.141945838928223, 1.0024245977401733, 1.5625578165054321, -0.9547706246376038, -0.15368540585041046, -0.95361328125, 0.265625, 0.4091796875, 0, 
456, 177354212, 75.17616271972656, -64.37407684326172, -116.48400115966797, 8.454174041748047, 4.124277114868164, 1.1053723096847534, 1.598097801208496, -1.170352816581726, -0.11404739320278168, -0.95654296875, 0.26611328125, 0.41357421875, 0, 
457, 177362545, 75.17725372314453, -64.37577056884766, -116.48539733886719, 8.61205005645752, 4.143958568572998, 1.0978639125823975, 1.5842149257659912, -1.3128705024719238, 0.14812712371349335, -0.95361328125, 0.26611328125, 0.4150390625, 0, 
458, 177370878, 75.1800537109375, -64.37781524658203, -116.48822021484375, 9.173055648803711, 4.153500080108643, 1.1629958152770996, 1.63126802444458, -1.394195556640625, 0.16984796524047852, -0.95751953125, 0.2646484375, 0.41357421875, 0, 
459, 177379211, 75.17965698242188, -64.3779525756836, -116.48866271972656, 9.509251594543457, 4.1909637451171875, 1.124118685722351, 1.5068470239639282, -1.218571662902832, -0.019979102537035942, -0.95556640625, 0.26611328125, 0.41650390625, 0, 
460, 177387544, 75.17369079589844, -64.37667846679688, -116.4826889038086, 9.145462989807129, 4.152653217315674, 1.0202610492706299, 1.538185954093933, -0.8494833111763, -0.09903743863105774, -0.95361328125, 0.26416015625, 0.4150390625, 0, 
461, 177395877, 75.17156219482422, -64.37483978271484, -116.48080444335938, 8.58036994934082, 4.123868942260742, 1.0324106216430664, 1.5505319833755493, -1.0408215522766113, -0.22047452628612518, -0.95703125, 0.26611328125, 0.416015625, 0, 
462, 177404210, 75.17457580566406, -64.37421417236328, -116.48419189453125, 8.445942878723145, 4.16176700592041, 1.09932541847229, 1.6190757751464844, -1.3335410356521606, -0.14491252601146698, -0.953125, 0.26611328125, 0.41015625, 0, 
463, 177412543, 75.17633056640625, -64.37569427490234, -116.48685455322266, 8.979626655578613, 4.138453960418701, 1.2020094394683838, 1.5203200578689575, -1.371001958847046, 0.10754135996103287, -0.95751953125, 0.265625, 0.41455078125, 0, 
464, 177420876, 75.1768569946289, -64.3770751953125, -116.4869384765625, 9.448189735412598, 4.194967269897461, 1.1131198406219482, 1.6413602828979492, -1.2459661960601807, 0.12658555805683136, -0.95361328125, 0.2646484375, 0.40966796875, 0, 
465, 177429209, 75.1732406616211, -64.37625885009766, -116.48291015625, 9.315098762512207, 4.153946876525879, 1.094483494758606, 1.605769157409668, -0.9625829458236694, -0.072001613676548, -0.95654296875, 0.2666015625, 0.4140625, 0, 
466, 177437542, 75.16755676269531, -64.37460327148438, -116.47724151611328, 8.78672981262207, 4.194949150085449, 0.9711557030677795, 1.502851128578186, -0.8741368651390076, -0.1541464477777481, -0.95556640625, 0.265625, 0.4091796875, 0, 
467, 177445875, 75.16790771484375, -64.37327575683594, -116.47731018066406, 8.374141693115234, 4.1293416023254395, 1.1030926704406738, 1.6365063190460205, -1.1535626649856567, -0.186702162027359, -0.95458984375, 0.26416015625, 0.4169921875, 0, 
468, 177454208, 75.1722183227539, -64.37462615966797, -116.48184204101562, 8.785966873168945, 4.077285289764404, 1.1262636184692383, 1.6027849912643433, -1.474726676940918, 0.06354891508817673, -0.95556640625, 0.26416015625, 0.4130859375, 0, 
469, 177462541, 75.17213439941406, -64.37606811523438, -116.48194885253906, 9.31057357788086, 4.167529106140137, 1.173338532447815, 1.5827549695968628, -1.240407943725586, 0.13506387174129486, -0.9541015625, 0.26416015625, 0.41796875, 0, 
470, 177470874, 75.17080688476562, -64.37676239013672, -116.48076629638672, 9.425745964050293, 4.186690330505371, 1.1117732524871826, 1.5768507719039917, -1.1509243249893188, 0.06427891552448273, -0.95751953125, 0.267578125, 0.41357421875, 0, 
471, 177479207, 75.1670150756836, -64.37559509277344, -116.47657012939453, 8.973553657531738, 4.233598232269287, 0.9764821529388428, 1.599276065826416, -0.9465356469154358, -0.11087121069431305, -0.95361328125, 0.26708984375, 0.4140625, 0, 
472, 177487540, 75.16505432128906, -64.374267578125, -116.47517395019531, 8.458916664123535, 4.100078582763672, 1.0669344663619995, 1.5030561685562134, -1.0883489847183228, -0.1654423475265503, -0.95458984375, 0.2666015625, 0.416015625, 0, 
473, 177495873, 75.1688232421875, -64.37525177001953, -116.47909545898438, 8.62542724609375, 4.087623596191406, 1.121596336364746, 1.6314345598220825, -1.4177734851837158, 0.029084963724017143, -0.95654296875, 0.26708984375, 0.416015625, 0, 
474, 177504206, 75.16901397705078, -64.37614440917969, -116.47954559326172, 9.10974407196045, 4.131584644317627, 1.1586328744888306, 1.5875959396362305, -1.2353618144989014, 0.07530584186315536, -0.9541015625, 0.26708984375, 0.41552734375, 0, 
475, 177512539, 75.16960906982422, -64.37796783447266, -116.48056030273438, 9.419265747070312, 4.227207183837891, 1.0850125551223755, 1.5655163526535034, -1.2984495162963867, 0.1665949672460556, -0.95703125, 0.26513671875, 0.41357421875, 0, 
476, 177520872, 75.1660385131836, -64.37745666503906, -116.47603607177734, 9.12234878540039, 4.209492206573486, 1.0192023515701294, 1.6677173376083374, -0.9479700922966003, -0.03300394490361214, -0.95751953125, 0.26904296875, 0.41796875, 0, 
477, 177529205, 75.16548919677734, -64.37549591064453, -116.4761734008789, 8.634600639343262, 4.122992038726807, 1.022257924079895, 1.5225611925125122, -1.1378482580184937, -0.2592032253742218, -0.95458984375, 0.26611328125, 0.4140625, 0, 
478, 177537538, 75.16593933105469, -64.37421417236328, -116.47698211669922, 8.50965404510498, 4.079137325286865, 1.1299127340316772, 1.592206358909607, -1.1817511320114136, -0.1864844113588333, -0.95751953125, 0.26611328125, 0.416015625, 0, 
479, 177545871, 75.1712646484375, -64.37543487548828, -116.48126983642578, 8.969364166259766, 4.14910364151001, 1.173560619354248, 1.7780632972717285, -1.443528652191162, 0.05258602648973465, -0.9541015625, 0.26611328125, 0.41552734375, 0, 
480, 177554204, 75.17403411865234, -64.37582397460938, -116.48474884033203, 9.399778366088867, 4.271261215209961, 1.1247748136520386, 1.5688847303390503, -1.3741782903671265, -0.028226887807250023, -0.9580078125, 0.267578125, 0.4130859375, 0, 
481, 177562537, 75.1714096069336, -64.37435913085938, -116.48194122314453, 9.271825790405273, 4.168620586395264, 1.0145460367202759, 1.5928466320037842, -1.0045260190963745, -0.16368775069713593, -0.95361328125, 0.265625, 0.41357421875, 0, 
482, 177570870, 75.1699447631836, -64.37259674072266, -116.48017883300781, 8.77961540222168, 4.142125129699707, 0.9753174781799316, 1.5975598096847534, -1.057803750038147, -0.21391727030277252, -0.95751953125, 0.26611328125, 0.416015625, 0, 
483, 177579203, 75.16954803466797, -64.37139892578125, -116.47969818115234, 8.426228523254395, 4.096307754516602, 1.1401833295822144, 1.6084970235824585, -1.130804419517517, -0.16540393233299255, -0.9560546875, 0.267578125, 0.41748046875, 0, 
484, 177587536, 75.17298126220703, -64.37252807617188, -116.4832763671875, 8.766314506530762, 4.075122833251953, 1.141250491142273, 1.635046362876892, -1.3995617628097534, 0.05823396518826485, -0.955078125, 0.26611328125, 0.41650390625, 0, 
485, 177595869, 75.17430877685547, -64.3731918334961, -116.48548889160156, 9.340213775634766, 4.223239421844482, 1.144629716873169, 1.522356390953064, -1.3235002756118774, 0.01900576427578926, -0.9560546875, 0.26611328125, 0.412109375, 0, 
486, 177604202, 75.1728515625, -64.37347412109375, -116.4843978881836, 9.462912559509277, 4.2158942222595215, 1.0848993062973022, 1.5559110641479492, -1.1386679410934448, 0.019646117463707924, -0.95458984375, 0.26611328125, 0.4169921875, 0, 
487, 177612535, 75.17023468017578, -64.37061309814453, -116.48147583007812, 8.953492164611816, 4.143218040466309, 1.0010218620300293, 1.604142665863037, -0.9577802419662476, -0.32288023829460144, -0.9580078125, 0.267578125, 0.40771484375, 0, 
488, 177620868, 75.16769409179688, -64.36888885498047, -116.47852325439453, 8.453886032104492, 4.098039627075195, 1.1093865633010864, 1.6364549398422241, -0.9809995889663696, -0.19190183281898499, -0.95458984375, 0.26611328125, 0.4169921875, 0, 
489, 177629201, 75.1717529296875, -64.37001037597656, -116.48312377929688, 8.55529499053955, 4.182790279388428, 1.1277921199798584, 1.5894273519515991, -1.455938696861267, 0.03810117393732071, -0.95556640625, 0.26611328125, 0.4150390625, 0, 
490, 177637534, 75.1731948852539, -64.3719253540039, -116.48507690429688, 9.132722854614258, 4.1854681968688965, 1.183141827583313, 1.5849575996398926, -1.3396629095077515, 0.167850062251091, -0.9560546875, 0.26416015625, 0.416015625, 0, 
491, 177645867, 75.17513275146484, -64.3718490600586, -116.48697662353516, 9.477327346801758, 4.164264678955078, 1.111915946006775, 1.6295521259307861, -1.284387469291687, -0.06430453807115555, -0.9541015625, 0.2666015625, 0.40869140625, 0, 
492, 177654200, 75.16935729980469, -64.37026977539062, -116.48116302490234, 9.18481731414795, 4.133857727050781, 1.0563101768493652, 1.5763767957687378, -0.8336024284362793, -0.12939029932022095, -0.95751953125, 0.2685546875, 0.41455078125, 0, 
493, 177662533, 75.16868591308594, -64.36898040771484, -116.4804458618164, 8.597482681274414, 4.124143600463867, 1.0521246194839478, 1.598673939704895, -1.1153974533081055, -0.1699504554271698, -0.95458984375, 0.2646484375, 0.4111328125, 0, 
494, 177670866, 75.16963958740234, -64.36861419677734, -116.4817886352539, 8.458799362182617, 4.144128322601318, 1.0650321245193481, 1.5598173141479492, -1.253330111503601, -0.09308212250471115, -0.955078125, 0.26708984375, 0.40771484375, 0, 
495, 177679199, 75.17500305175781, -64.36970520019531, -116.48873901367188, 8.96904182434082, 4.170475482940674, 1.1348886489868164, 1.4958199262619019, -1.5730340480804443, 0.0023308952804654837, -0.95556640625, 0.26416015625, 0.41650390625, 0, 
