sep=,
PacketCounter,SampleTimeFine,Euler_X,Euler_Y,Euler_Z,Acc_X,Acc_Y,Acc_Z,Gyr_X,Gyr_Y,Gyr_Z,Mag_X,Mag_Y,Mag_Z,Status,
0, 305876258, 27.69603157043457, -88.86460876464844, 70.08341979980469, 0, 0, 0, 0, 0, 0, -0.00439453125, -0.12841796875, -0.72998046875, 0, 
1, 305884591, 27.730009078979492, -88.86357879638672, 70.04952239990234, 10.213334083557129, 0.08939307928085327, 0.14819946885108948, -3.150768756866455, -2.74147891998291, -0.5159347653388977, 0.0009765625, -0.12939453125, -0.73046875, 0, 
2, 305892924, 27.676233291625977, -88.86116790771484, 70.10366821289062, 9.830012321472168, 0.3452577292919159, 0.11217920482158661, -3.1589648723602295, -2.48748779296875, -0.40971246361732483, -0.0029296875, -0.1298828125, -0.7294921875, 0, 
3, 305901257, 27.604019165039062, -88.86151123046875, 70.17517852783203, 9.410300254821777, 0.20007605850696564, 0.12179476767778397, -3.2814013957977295, -2.7851767539978027, -0.2100239247083664, -0.00146484375, -0.12841796875, -0.73095703125, 0, 
4, 305909590, 27.659170150756836, -88.86288452148438, 70.11841583251953, 9.521965026855469, -0.0015990479150786996, 0.1525389552116394, -3.404196262359619, -3.011914014816284, -0.43192005157470703, -0.00146484375, -0.12744140625, -0.7314453125, 0, 
5, 305917923, 27.723621368408203, -88.8639144897461, 70.05380249023438, 9.935314178466797, -0.17346692085266113, 0.16760696470737457, -3.217442512512207, -3.0058436393737793, -0.46281084418296814, -0.00390625, -0.12744140625, -0.7275390625, 0, 
6, 305926256, 27.778806686401367, -88.86323547363281, 69.99957275390625, 10.212078094482422, 0.0791386291384697, 0.19747070968151093, -3.1231822967529297, -2.8086140155792236, -0.5300481915473938, -0.0009765625, -0.12939453125, -0.72998046875, 0, 
7, 305934589, 27.739612579345703, -88.86323547363281, 70.03877258300781, 9.964669227600098, 0.2552262544631958, 0.10593994706869125, -3.107454776763916, -2.749547243118286, -0.3144787549972534, -0.001953125, -0.12939453125, -0.7314453125, 0, 
8, 305942922, 27.637529373168945, -88.86219787597656, 70.14009094238281, 9.493488311767578, 0.25447937846183777, 0.09627990424633026, -3.3159291744232178, -2.618197441101074, -0.21320010721683502, -0.0009765625, -0.12939453125, -0.73046875, 0, 
9, 305951255, 27.633779525756836, -88.86323547363281, 70.14408874511719, 9.42334270477295, 0.04253964126110077, 0.12422098219394684, -3.165804386138916, -2.9205737113952637, -0.32147151231765747, -0.0048828125, -0.12890625, -0.73095703125, 0, 
10, 305959588, 27.7122745513916, -88.86495208740234, 70.0660629272461, 9.805610656738281, -0.10625514388084412, 0.20019802451133728, -3.1281771659851074, -3.067471504211426, -0.45717573165893555, -0.001953125, -0.12841796875, -0.73046875, 0, 
11, 305967921, 27.741859436035156, -88.86529541015625, 70.03646087646484, 10.208270072937012, 0.04695860669016838, 0.13802452385425568, -3.190906524658203, -2.8885302543640137, -0.42787301540374756, -0.0029296875, -0.1298828125, -0.73046875, 0, 
12, 305976254, 27.696413040161133, -88.86529541015625, 70.08238983154297, 10.105484962463379, 0.12150251865386963, 0.1461351364850998, -3.0415492057800293, -2.6821048259735107, -0.3270297348499298, -0.001953125, -0.12890625, -0.73046875, 0, 
13, 305984587, 27.575281143188477, -88.8639144897461, 70.20407104492188, 9.611824035644531, 0.3347100019454956, 0.09454520046710968, -3.1422643661499023, -2.533132314682007, -0.20915302634239197, -0.001953125, -0.12890625, -0.72998046875, 0, 
14, 305992920, 27.53023338317871, -88.8634033203125, 70.25004577636719, 9.39595890045166, 0.15398655831813812, 0.11679112166166306, -3.194108009338379, -2.805053234100342, -0.2651713788509369, -0.00341796875, -0.1298828125, -0.73046875, 0, 
15, 306001253, 27.571306228637695, -88.86460876464844, 70.20828247070312, 9.728439331054688, -0.07814809679985046, 0.2200692892074585, -3.281580686569214, -2.984788179397583, -0.40889284014701843, -0.0009765625, -0.13134765625, -0.73046875, 0, 
16, 306009586, 27.621780395507812, -88.86564636230469, 70.15727996826172, 10.087774276733398, -0.07173766940832138, 0.0936410203576088, -3.3027639389038086, -2.9774115085601807, -0.4353523552417755, -0.0009765625, -0.12841796875, -0.73193359375, 0, 
17, 306017919, 27.624269485473633, -88.86460876464844, 70.15554809570312, 10.103718757629395, 0.07392115145921707, 0.11512546986341476, -3.1149344444274902, -2.725572347640991, -0.4401678144931793, -0.00244140625, -0.12939453125, -0.728515625, 0, 
18, 306026252, 27.57459259033203, -88.86357879638672, 70.20574951171875, 9.764187812805176, 0.2669788599014282, 0.06652781367301941, -3.113806962966919, -2.6235506534576416, -0.34872499108314514, -0.00244140625, -0.12890625, -0.728515625, 0, 
19, 306034585, 27.529186248779297, -88.8639144897461, 70.25000762939453, 9.43514347076416, 0.2007645219564438, 0.053894057869911194, -3.308680772781372, -2.7841010093688965, -0.2840490937232971, -0.00244140625, -0.12939453125, -0.73046875, 0, 
20, 306042918, 27.513914108276367, -88.86460876464844, 70.26516723632812, 9.583248138427734, 0.07084010541439056, 0.14498205482959747, -3.2340662479400635, -2.89616322517395, -0.2998018264770508, -0.0029296875, -0.12841796875, -0.73046875, 0, 
21, 306051251, 27.519176483154297, -88.86564636230469, 70.26006317138672, 9.925081253051758, -0.09668586403131485, 0.15982578694820404, -3.201382637023926, -2.934072732925415, -0.33996495604515076, -0.0009765625, -0.12890625, -0.73046875, 0, 
22, 306059584, 27.558147430419922, -88.86512756347656, 70.22101593017578, 10.183838844299316, 0.029196204617619514, 0.14681637287139893, -3.164933443069458, -2.7760069370269775, -0.5065087676048279, 0.00048828125, -0.12841796875, -0.72900390625, 0, 
23, 306067917, 27.486024856567383, -88.86426544189453, 70.29371643066406, 9.994773864746094, 0.1866413950920105, 0.08431900292634964, -3.117854118347168, -2.654390335083008, -0.27498161792755127, -0.0009765625, -0.12890625, -0.73046875, 0, 
24, 306076250, 27.386783599853516, -88.8634033203125, 70.3917465209961, 9.529823303222656, 0.34125232696533203, 0.12842585146427155, -3.298332452774048, -2.58856201171875, -0.23527958989143372, -0.00537109375, -0.12939453125, -0.732421875, 0, 
25, 306084583, 27.316085815429688, -88.86460876464844, 70.46174621582031, 9.450784683227539, 0.08705800771713257, 0.10762369632720947, -3.3139569759368896, -2.8758769035339355, -0.16955341398715973, -0.00146484375, -0.12841796875, -0.7294921875, 0, 
26, 306092916, 27.387550354003906, -88.86564636230469, 70.38867950439453, 9.714554786682129, -0.18954499065876007, 0.17406700551509857, -3.3301711082458496, -2.991806983947754, -0.4859660863876343, -0.00146484375, -0.1279296875, -0.72900390625, 0, 
27, 306101249, 27.446338653564453, -88.86512756347656, 70.33121490478516, 10.081252098083496, -0.017321228981018066, 0.13294439017772675, -3.064730405807495, -2.829566240310669, -0.5350685119628906, -0.0029296875, -0.12939453125, -0.72998046875, 0, 
28, 306109582, 27.439311981201172, -88.86357879638672, 70.33832550048828, 10.129167556762695, 0.1304776817560196, 0.1931174248456955, -3.1237707138061523, -2.6388168334960938, -0.45253947377204895, -0.001953125, -0.12841796875, -0.72998046875, 0, 
29, 306117915, 27.376710891723633, -88.86151123046875, 70.401123046875, 9.7686767578125, 0.34813880920410156, 0.14784756302833557, -3.1779706478118896, -2.5081074237823486, -0.37731048464775085, -0.00341796875, -0.1298828125, -0.72998046875, 0, 
30, 306126248, 27.352962493896484, -88.86168670654297, 70.42271423339844, 9.429001808166504, 0.19958695769309998, 0.12363822758197784, -3.4401583671569824, -2.831845760345459, -0.31493982672691345, -0.0009765625, -0.13037109375, -0.7294921875, 0, 
31, 306134581, 27.3768310546875, -88.8637466430664, 70.39827728271484, 9.569829940795898, -0.03811027854681015, 0.18942998349666595, -3.256657838821411, -3.069033622741699, -0.32206061482429504, -0.00146484375, -0.12939453125, -0.73388671875, 0, 
32, 306142914, 27.421613693237305, -88.86443328857422, 70.35340881347656, 9.953390121459961, -0.11823780834674835, 0.1829427182674408, -3.261909008026123, -2.9468538761138916, -0.4349169433116913, -0.00341796875, -0.12939453125, -0.73193359375, 0, 
33, 306151247, 27.460813522338867, -88.8634033203125, 70.31652069091797, 10.185465812683105, 0.045303646475076675, 0.17007455229759216, -3.0138604640960693, -2.780540704727173, -0.505740225315094, -0.00048828125, -0.12890625, -0.72998046875, 0, 
34, 306159580, 27.385242462158203, -88.86219787597656, 70.39107513427734, 9.910781860351562, 0.25623419880867004, 0.0870518609881401, -3.210449457168579, -2.557568311691284, -0.3142738342285156, -0.0009765625, -0.1298828125, -0.73193359375, 0, 
35, 306167913, 27.32886505126953, -88.86082458496094, 70.44771575927734, 9.414955139160156, 0.2467404305934906, 0.08493980020284653, -3.2159311771392822, -2.6233201026916504, -0.33461156487464905, -0.00341796875, -0.12890625, -0.72998046875, 0, 
36, 306176246, 27.339487075805664, -88.86288452148438, 70.4367904663086, 9.45120906829834, -0.003880988573655486, 0.21891719102859497, -3.198693037033081, -3.016832113265991, -0.3076654076576233, -0.00439453125, -0.130859375, -0.73095703125, 0, 
37, 306184579, 27.481285095214844, -88.86357879638672, 70.29460144042969, 9.828653335571289, -0.15817891061306, 0.21227222681045532, -3.2233850955963135, -3.0465445518493652, -0.6482066512107849, 0.00146484375, -0.130859375, -0.73095703125, 0, 
38, 306192912, 27.589195251464844, -88.86357879638672, 70.18811798095703, 10.215615272521973, 0.1204274371266365, 0.14953254163265228, -3.0564827919006348, -2.9263882637023926, -0.6111940741539001, -0.0029296875, -0.13037109375, -0.7314453125, 0, 
39, 306201245, 27.55826759338379, -88.86185455322266, 70.21903228759766, 10.041313171386719, 0.22195379436016083, 0.1186443343758583, -3.1772279739379883, -2.619349956512451, -0.4065619111061096, -0.001953125, -0.12744140625, -0.7275390625, 0, 
40, 306209578, 27.470840454101562, -88.86048126220703, 70.30602264404297, 9.541398048400879, 0.33400198817253113, 0.10457928478717804, -3.2512786388397217, -2.5318005084991455, -0.2967793345451355, -0.0009765625, -0.12890625, -0.73046875, 0, 
41, 306217911, 27.409963607788086, -88.86288452148438, 70.36734008789062, 9.399263381958008, 0.08168483525514603, 0.13916368782520294, -3.128330707550049, -2.9757978916168213, -0.13891880214214325, -0.001953125, -0.12890625, -0.72998046875, 0, 
42, 306226244, 27.48247528076172, -88.86460876464844, 70.29432678222656, 9.720118522644043, -0.1294015794992447, 0.20588357746601105, -3.2906737327575684, -3.094801664352417, -0.4319969117641449, -0.00146484375, -0.12939453125, -0.72998046875, 0, 
43, 306234577, 27.528940200805664, -88.86512756347656, 70.24960327148438, 10.158367156982422, -0.01676574908196926, 0.13588456809520721, -3.015986680984497, -2.9431395530700684, -0.44208890199661255, -0.00244140625, -0.13134765625, -0.72998046875, 0, 
44, 306242910, 27.501506805419922, -88.86426544189453, 70.27633666992188, 10.160133361816406, 0.1217305064201355, 0.1593826711177826, -3.216341257095337, -2.660998821258545, -0.3884527087211609, -0.001953125, -0.12841796875, -0.73046875, 0, 
45, 306251243, 27.431413650512695, -88.8637466430664, 70.34687042236328, 9.690719604492188, 0.3179730772972107, 0.0916464775800705, -3.221796989440918, -2.690685987472534, -0.26609349250793457, -0.00341796875, -0.12841796875, -0.73095703125, 0, 
46, 306259576, 27.381450653076172, -88.86478424072266, 70.39521789550781, 9.350663185119629, 0.11552171409130096, 0.09109599143266678, -3.267390251159668, -2.8385567665100098, -0.23717501759529114, -0.00244140625, -0.130859375, -0.73046875, 0, 
47, 306267909, 27.456279754638672, -88.8659896850586, 70.32025146484375, 9.607539176940918, -0.044265009462833405, 0.1851499378681183, -3.223257303237915, -3.0663185119628906, -0.4582514762878418, -0.00048828125, -0.12841796875, -0.7294921875, 0, 
48, 306276242, 27.483186721801758, -88.8666763305664, 70.29407501220703, 10.042503356933594, -0.051114510744810104, 0.1216716542840004, -3.0753347873687744, -2.873955488204956, -0.42095711827278137, -0.0048828125, -0.1279296875, -0.73291015625, 0, 
49, 306284575, 27.50722885131836, -88.8663330078125, 70.27132415771484, 10.207967758178711, 0.12037445604801178, 0.13371692597866058, -3.0674710273742676, -2.7990336418151855, -0.45799529552459717, -0.00146484375, -0.12744140625, -0.7294921875, 0, 
50, 306292908, 27.448312759399414, -88.8663330078125, 70.33065032958984, 9.862704277038574, 0.3042435944080353, 0.09495064616203308, -3.151895523071289, -2.770346164703369, -0.24598632752895355, -0.0029296875, -0.130859375, -0.72998046875, 0, 
51, 306301241, 27.387001037597656, -88.8666763305664, 70.39088439941406, 9.430962562561035, 0.24424822628498077, 0.15484635531902313, -3.3428244590759277, -2.805694103240967, -0.23241077363491058, -0.00048828125, -0.1298828125, -0.73046875, 0, 
52, 306309574, 27.369613647460938, -88.868408203125, 70.40802001953125, 9.55226993560791, 0.016641350463032722, 0.19811385869979858, -3.2903409004211426, -3.0086355209350586, -0.2375592440366745, -0.001953125, -0.13037109375, -0.7294921875, 0, 
53, 306317907, 27.40234375, -88.8701400756836, 70.37504577636719, 9.914013862609863, -0.17606323957443237, 0.17026811838150024, -3.215111494064331, -3.0326101779937744, -0.3631202280521393, -0.00537109375, -0.1279296875, -0.7314453125, 0, 
54, 306326240, 27.452695846557617, -88.8704833984375, 70.32489776611328, 10.156253814697266, 0.03801626339554787, 0.09821529686450958, -3.1633968353271484, -2.873955726623535, -0.4853001534938812, -0.0009765625, -0.12841796875, -0.7294921875, 0, 
55, 306334573, 27.408872604370117, -88.8680648803711, 70.36823272705078, 9.974623680114746, 0.13205496966838837, 0.12382335960865021, -3.2882401943206787, -2.585103750228882, -0.39068111777305603, -0.001953125, -0.12841796875, -0.7314453125, 0, 
56, 306342906, 27.337276458740234, -88.86737060546875, 70.43927001953125, 9.544493675231934, 0.3062768578529358, 0.13674059510231018, -3.2161104679107666, -2.5938382148742676, -0.3071274757385254, 0.0009765625, -0.12646484375, -0.72900390625, 0, 
57, 306351239, 27.28036117553711, -88.8680648803711, 70.49628448486328, 9.456114768981934, 0.11490411311388016, 0.15413330495357513, -3.243723154067993, -2.8538997173309326, -0.21601766347885132, -0.0009765625, -0.12841796875, -0.732421875, 0, 
58, 306359572, 27.33441734313965, -88.86910247802734, 70.44062805175781, 9.804071426391602, -0.1063741147518158, 0.213535875082016, -3.2894184589385986, -2.9892196655273438, -0.4393225610256195, 0, -0.1279296875, -0.73193359375, 0, 
59, 306367905, 27.336593627929688, -88.86910247802734, 70.43872833251953, 10.160270690917969, 0.028348885476589203, 0.11708911508321762, -3.153074026107788, -2.785689115524292, -0.40776580572128296, -0.00146484375, -0.13134765625, -0.72900390625, 0, 
60, 306376238, 27.754663467407227, -88.86927032470703, 70.02469635009766, 10.079108238220215, 0.1363346129655838, 0.13539013266563416, -3.158529758453369, -2.7086923122406006, -0.43957868218421936, -0.00341796875, -0.130859375, -0.7294921875, 0, 
61, 306384571, 27.660242080688477, -88.86910247802734, 70.11903381347656, 9.67234992980957, 0.36481773853302, 0.09059643000364304, -3.2022528648376465, -2.670783281326294, -0.21061302721500397, -0.00341796875, -0.130859375, -0.73095703125, 0, 
62, 306392904, 27.6153507232666, -88.8704833984375, 70.16376495361328, 9.409051895141602, 0.10943382978439331, 0.13656921684741974, -3.246591567993164, -2.9261317253112793, -0.20577198266983032, -0.001953125, -0.1298828125, -0.73095703125, 0, 
63, 306401237, 27.6232852935791, -88.87152862548828, 70.1544189453125, 9.64210033416748, -0.12620218098163605, 0.2084205150604248, -3.3500478267669678, -2.936966896057129, -0.34729063510894775, -0.00146484375, -0.1298828125, -0.73193359375, 0, 
64, 306409570, 27.681486129760742, -88.87290954589844, 70.09687042236328, 10.05710506439209, -0.11613595485687256, 0.12380499392747879, -3.1030237674713135, -2.967524528503418, -0.4557925760746002, -0.00146484375, -0.12939453125, -0.72998046875, 0, 
65, 306417903, 27.71064567565918, -88.87169647216797, 70.06902313232422, 10.207097053527832, 0.10046224296092987, 0.14827445149421692, -3.0632190704345703, -2.7491116523742676, -0.4969289302825928, -0.00244140625, -0.12890625, -0.72802734375, 0, 
66, 306426236, 27.653827667236328, -88.86978912353516, 70.12545013427734, 9.860610008239746, 0.32873770594596863, 0.12862323224544525, -3.257861852645874, -2.5512161254882812, -0.3691651523113251, -0.00048828125, -0.12841796875, -0.73046875, 0, 
67, 306434569, 27.616893768310547, -88.8708267211914, 70.16073608398438, 9.407083511352539, 0.22673602402210236, 0.139356330037117, -3.3238956928253174, -2.8302066326141357, -0.28399786353111267, -0.0029296875, -0.13037109375, -0.728515625, 0, 
68, 306442902, 27.619426727294922, -88.8701400756836, 70.15792083740234, 9.50567626953125, -0.0020702295005321503, 0.1815824955701828, -3.3480751514434814, -2.835047483444214, -0.38064032793045044, -0.0009765625, -0.12939453125, -0.73095703125, 0, 
69, 306451235, 27.675785064697266, -88.8708267211914, 70.10154724121094, 9.915822982788086, -0.1673150211572647, 0.1624526083469391, -3.198692798614502, -2.952540159225464, -0.46524420380592346, -0.001953125, -0.12841796875, -0.7294921875, 0, 
70, 306459568, 27.71534538269043, -88.8701400756836, 70.06291198730469, 10.209090232849121, 0.06952453404664993, 0.16537456214427948, -3.1173932552337646, -2.799494981765747, -0.4958276152610779, -0.00341796875, -0.12841796875, -0.73046875, 0, 
71, 306467901, 27.664993286132812, -88.86892700195312, 70.11302947998047, 9.970475196838379, 0.2559027075767517, 0.1031794473528862, -3.206428289413452, -2.6281356811523438, -0.3504667580127716, -0.0029296875, -0.12841796875, -0.7314453125, 0, 
72, 306476234, 27.580787658691406, -88.86737060546875, 70.19696807861328, 9.50629711151123, 0.2908840477466583, 0.12534165382385254, -3.27543306350708, -2.567686080932617, -0.2882753908634186, -0.0029296875, -0.12841796875, -0.73095703125, 0, 
73, 306484567, 27.608991622924805, -88.8687515258789, 70.16817474365234, 9.43386173248291, 0.014253785833716393, 0.1444292813539505, -3.244363307952881, -3.0089683532714844, -0.3626079261302948, -0.00146484375, -0.12939453125, -0.73193359375, 0, 
74, 306492900, 27.692338943481445, -88.8701400756836, 70.08338928222656, 9.797256469726562, -0.14777985215187073, 0.20478321611881256, -3.2510995864868164, -2.961709976196289, -0.5313289165496826, -0.00537109375, -0.13037109375, -0.73095703125, 0, 
75, 306501233, 27.73196029663086, -88.8701400756836, 70.04417419433594, 10.196446418762207, 0.06391644477844238, 0.14075306057929993, -3.138140916824341, -2.873725175857544, -0.45996761322021484, -0.001953125, -0.1279296875, -0.73193359375, 0, 
76, 306509566, 27.712993621826172, -88.86771392822266, 70.06459045410156, 10.085679054260254, 0.13102516531944275, 0.156306192278862, -3.1494109630584717, -2.592045545578003, -0.4471604824066162, -0.00146484375, -0.12890625, -0.73095703125, 0, 
77, 306517899, 27.64594268798828, -88.86685180664062, 70.131591796875, 9.60248851776123, 0.3338589370250702, 0.09955093264579773, -3.1364505290985107, -2.6041862964630127, -0.31663039326667786, -0.00146484375, -0.1298828125, -0.72998046875, 0, 
78, 306526232, 27.66160011291504, -88.86771392822266, 70.11519622802734, 9.365389823913574, 0.13464657962322235, 0.13796864449977875, -3.315058708190918, -2.9518744945526123, -0.3561275601387024, 0, -0.12939453125, -0.73095703125, 0, 
79, 306534565, 27.74288558959961, -88.8687515258789, 70.03321075439453, 9.719034194946289, -0.051046524196863174, 0.23287169635295868, -3.294311046600342, -3.0138096809387207, -0.5005406141281128, -0.001953125, -0.12841796875, -0.73193359375, 0, 
80, 306542898, 27.840896606445312, -88.8701400756836, 69.93412017822266, 10.119460105895996, -0.02686096727848053, 0.12665390968322754, -3.2290713787078857, -3.027590036392212, -0.5356577038764954, -0.001953125, -0.1279296875, -0.7314453125, 0, 
81, 306551231, 27.848474502563477, -88.8680648803711, 69.92739868164062, 10.082282066345215, 0.10455849021673203, 0.12328147888183594, -3.1196727752685547, -2.641890525817871, -0.49662157893180847, -0.001953125, -0.1279296875, -0.72998046875, 0, 
82, 306559564, 27.801231384277344, -88.8666763305664, 69.97512817382812, 9.734916687011719, 0.2725747227668762, 0.09033810347318649, -3.0718255043029785, -2.5889971256256104, -0.3717009723186493, -0.001953125, -0.12841796875, -0.73388671875, 0, 
83, 306567897, 27.780834197998047, -88.8666763305664, 69.99433898925781, 9.397928237915039, 0.1609792709350586, 0.10247942805290222, -3.3079121112823486, -2.7731380462646484, -0.3575875461101532, -0.0029296875, -0.12890625, -0.73046875, 0, 
84, 306576230, 27.788593292236328, -88.86823272705078, 69.98686218261719, 9.597479820251465, 0.02748636156320572, 0.16724266111850739, -3.183452606201172, -3.0080718994140625, -0.2981625199317932, -0.00439453125, -0.12939453125, -0.73193359375, 0, 
85, 306584563, 27.84601402282715, -88.8708267211914, 69.9294204711914, 9.980289459228516, -0.10303550213575363, 0.18228378891944885, -3.2066333293914795, -3.1398825645446777, -0.3709069788455963, -0.00244140625, -0.12744140625, -0.73095703125, 0, 
86, 306592896, 27.86541175842285, -88.8701400756836, 69.91051483154297, 10.179478645324707, 0.04800783842802048, 0.1720939576625824, -3.116624593734741, -2.7452950477600098, -0.4697266221046448, -0.001953125, -0.12890625, -0.732421875, 0, 
87, 306601229, 27.821531295776367, -88.86823272705078, 69.9554214477539, 9.982955932617188, 0.18931818008422852, 0.12105455994606018, -3.0906519889831543, -2.600318670272827, -0.37928274273872375, -0.00244140625, -0.1279296875, -0.73193359375, 0, 
88, 306609562, 27.751171112060547, -88.8680648803711, 70.02471923828125, 9.512704849243164, 0.31778624653816223, 0.12410151213407516, -3.2426211833953857, -2.6553382873535156, -0.2798227071762085, -0.00048828125, -0.12841796875, -0.7294921875, 0, 
89, 306617895, 27.68317413330078, -88.86962127685547, 70.0914535522461, 9.449908256530762, 0.06404256820678711, 0.1580895632505417, -3.3778903484344482, -2.9205479621887207, -0.15380068123340607, -0.00439453125, -0.1298828125, -0.73095703125, 0, 
90, 306626228, 27.708072662353516, -88.8701400756836, 70.0668716430664, 9.745406150817871, -0.17733882367610931, 0.200094074010849, -3.163268566131592, -2.921828508377075, -0.3917825520038605, -0.0009765625, -0.1279296875, -0.732421875, 0, 
91, 306634561, 27.79113006591797, -88.86978912353516, 69.98468780517578, 10.101629257202148, 0.0019308713963255286, 0.10360968112945557, -3.1252825260162354, -2.8813071250915527, -0.5724141597747803, -0.00341796875, -0.12890625, -0.7294921875, 0, 
92, 306642894, 27.789127349853516, -88.8687515258789, 69.98723602294922, 10.099871635437012, 0.13304218649864197, 0.19999347627162933, -3.025438070297241, -2.6692464351654053, -0.44910719990730286, -0.0029296875, -0.12744140625, -0.72998046875, 0, 
93, 306651227, 27.780303955078125, -88.8687515258789, 69.99683380126953, 9.734545707702637, 0.3821936845779419, 0.14621831476688385, -3.0920355319976807, -2.823495864868164, -0.35743388533592224, -0.0009765625, -0.12841796875, -0.73046875, 0, 
94, 306659560, 27.68888282775879, -88.86858367919922, 70.08765411376953, 9.451623916625977, 0.15768419206142426, 0.12539373338222504, -3.3479981422424316, -2.7301061153411865, -0.18330827355384827, -0.00390625, -0.126953125, -0.734375, 0, 
95, 306667893, 27.729976654052734, -88.8687515258789, 70.04607391357422, 9.601156234741211, -0.07369301468133926, 0.19400657713413239, -3.254455327987671, -2.880948543548584, -0.4644501507282257, -0.0029296875, -0.12841796875, -0.73193359375, 0, 
96, 306676226, 27.749691009521484, -88.8704833984375, 70.0258560180664, 9.999168395996094, -0.11213066428899765, 0.1361706256866455, -3.059069871902466, -2.9226996898651123, -0.37415996193885803, -0.0029296875, -0.12646484375, -0.73193359375, 0, 
97, 306684559, 27.806852340698242, -88.86944580078125, 69.97028350830078, 10.155881881713867, 0.05103334039449692, 0.13205605745315552, -3.022594690322876, -2.774341583251953, -0.556763768196106, -0.00146484375, -0.1279296875, -0.72998046875, 0, 
98, 306692892, 27.709484100341797, -88.86771392822266, 70.06775665283203, 9.917268753051758, 0.31713569164276123, 0.11523577570915222, -3.1521260738372803, -2.535796642303467, -0.26909032464027405, -0.0009765625, -0.1298828125, -0.73046875, 0, 
99, 306701225, 27.639488220214844, -88.86737060546875, 70.13725280761719, 9.41496753692627, 0.2138119786977768, 0.10933376848697662, -3.289854049682617, -2.698446750640869, -0.26209768652915955, -0.00244140625, -0.12890625, -0.73193359375, 0, 
100, 306709558, 27.669191360473633, -88.86771392822266, 70.10749816894531, 9.48458194732666, -0.027155322954058647, 0.2097555249929428, -3.209322929382324, -2.903412342071533, -0.413708359003067, -0.0009765625, -0.12890625, -0.732421875, 0, 
101, 306717891, 27.74202537536621, -88.8680648803711, 70.03402709960938, 9.923330307006836, -0.12383130192756653, 0.2018139660358429, -3.2698748111724854, -2.9491076469421387, -0.5138087272644043, -0.0029296875, -0.12939453125, -0.7314453125, 0, 
102, 306726224, 27.81085205078125, -88.86702728271484, 69.96514129638672, 10.240087509155273, 0.11372951418161392, 0.16232837736606598, -3.1590168476104736, -2.7831790447235107, -0.5839405655860901, -0.00244140625, -0.12744140625, -0.7294921875, 0, 
103, 306734557, 27.790170669555664, -88.86564636230469, 69.98747253417969, 10.01588249206543, 0.23167684674263, 0.1069670096039772, -3.074054002761841, -2.6819510459899902, -0.39908257126808167, -0.001953125, -0.12890625, -0.73095703125, 0, 
104, 306742890, 27.703367233276367, -88.86564636230469, 70.0731201171875, 9.482704162597656, 0.29855963587760925, 0.10914751142263412, -3.222616672515869, -2.642530918121338, -0.2406841516494751, -0.0009765625, -0.12890625, -0.7294921875, 0, 
105, 306751223, 27.678255081176758, -88.86702728271484, 70.0965347290039, 9.427292823791504, 0.025731174275279045, 0.16347742080688477, -3.386291742324829, -2.9543843269348145, -0.25046879053115845, -0.00390625, -0.1298828125, -0.7314453125, 0, 
106, 306759556, 27.74338722229004, -88.86771392822266, 70.03106689453125, 9.795211791992188, -0.15864750742912292, 0.20991697907447815, -3.2470526695251465, -2.9615821838378906, -0.48071518540382385, 0, -0.12744140625, -0.7314453125, 0, 
107, 306767889, 27.8446044921875, -88.86771392822266, 69.93087768554688, 10.18109130859375, 0.024421466514468193, 0.14702634513378143, -3.093111038208008, -2.9101226329803467, -0.6050209999084473, -0.001953125, -0.12890625, -0.7294921875, 0, 
108, 306776222, 27.807798385620117, -88.86702728271484, 69.96778869628906, 10.109540939331055, 0.1414778083562851, 0.12221597135066986, -3.0860414505004883, -2.6547744274139404, -0.3669879734516144, -0.00341796875, -0.12939453125, -0.7314453125, 0, 
109, 306784555, 27.76128578186035, -88.86426544189453, 70.01457977294922, 9.644027709960938, 0.324594646692276, 0.05427638068795204, -3.1649584770202637, -2.520888566970825, -0.4156293570995331, -0.00146484375, -0.12890625, -0.7294921875, 0, 
110, 306792888, 27.729244232177734, -88.8639144897461, 70.04672241210938, 9.360103607177734, 0.09092438966035843, 0.09101689606904984, -3.2895212173461914, -2.798419237136841, -0.3081008493900299, -0.00341796875, -0.13037109375, -0.7314453125, 0, 
111, 306801221, 27.788766860961914, -88.86460876464844, 69.98750305175781, 9.660999298095703, -0.05686954781413078, 0.19625844061374664, -3.175384283065796, -2.940142869949341, -0.48109936714172363, -0.0029296875, -0.12939453125, -0.7314453125, 0, 
112, 306809554, 27.85193634033203, -88.86581420898438, 69.92503356933594, 10.097555160522461, -0.038223687559366226, 0.1450636386871338, -3.104944944381714, -3.0040247440338135, -0.44910725951194763, -0.00390625, -0.1279296875, -0.72998046875, 0, 
113, 306817887, 27.873863220214844, -88.86460876464844, 69.90391540527344, 10.17722225189209, 0.09848438948392868, 0.12400488555431366, -3.1498465538024902, -2.7491631507873535, -0.47997239232063293, -0.00146484375, -0.12939453125, -0.72998046875, 0, 
114, 306826220, 27.791725158691406, -88.86357879638672, 69.98590087890625, 9.78698444366455, 0.3081843852996826, 0.09309784322977066, -3.158785820007324, -2.6106667518615723, -0.26739978790283203, -0.00146484375, -0.12890625, -0.7294921875, 0, 
115, 306834553, 27.72869110107422, -88.86357879638672, 70.04762268066406, 9.402206420898438, 0.20993635058403015, 0.14705076813697815, -3.3659539222717285, -2.7322068214416504, -0.2640187442302704, -0.00244140625, -0.12890625, -0.73095703125, 0, 
116, 306842886, 27.7394962310791, -88.86443328857422, 70.0360107421875, 9.588698387145996, -0.011024736799299717, 0.1800859421491623, -3.267134428024292, -2.909226179122925, -0.3623773753643036, -0.0009765625, -0.12841796875, -0.73046875, 0, 
117, 306851219, 27.7868709564209, -88.86564636230469, 69.98938751220703, 9.94948673248291, -0.14947719871997833, 0.14403511583805084, -3.1460044384002686, -2.9962122440338135, -0.4182932674884796, -0.00439453125, -0.12890625, -0.728515625, 0, 
118, 306859552, 27.825613021850586, -88.86495208740234, 69.95043182373047, 10.12932014465332, 0.056713446974754333, 0.08173103630542755, -3.1354002952575684, -2.7610480785369873, -0.5127585530281067, -0.0009765625, -0.12890625, -0.73193359375, 0, 
119, 306867885, 27.82806396484375, -88.86323547363281, 69.94953155517578, 9.947406768798828, 0.19482487440109253, 0.09643738716840744, -3.045366048812866, -2.6340012550354004, -0.4859916567802429, 0.00048828125, -0.12890625, -0.72900390625, 0, 
120, 306876218, 27.81751251220703, -88.86219787597656, 69.96017456054688, 9.525140762329102, 0.3271855115890503, 0.16371145844459534, -3.1667773723602295, -2.692708969116211, -0.41760167479515076, -0.0029296875, -0.13037109375, -0.7294921875, 0, 
121, 306884551, 27.8625431060791, -88.86357879638672, 69.91490173339844, 9.519977569580078, 0.13055509328842163, 0.16724838316440582, -3.266852378845215, -3.055278778076172, -0.3830224573612213, -0.00244140625, -0.126953125, -0.732421875, 0, 
122, 306892884, 27.930145263671875, -88.86616516113281, 69.84646606445312, 9.8475923538208, -0.11969064176082611, 0.1905340701341629, -3.191572427749634, -3.072235584259033, -0.42828285694122314, -0.00244140625, -0.1298828125, -0.732421875, 0, 
123, 306901217, 28.01049041748047, -88.86616516113281, 69.76702117919922, 10.139666557312012, 0.019857244566082954, 0.1336883157491684, -3.083300828933716, -2.8998262882232666, -0.5549708604812622, 0, -0.12890625, -0.7314453125, 0, 
124, 306909550, 27.99921417236328, -88.86460876464844, 69.77896881103516, 10.008292198181152, 0.12940585613250732, 0.12740282714366913, -3.087270736694336, -2.6252667903900146, -0.4507977068424225, -0.0029296875, -0.1279296875, -0.72998046875, 0, 
125, 306917883, 27.95342445373535, -88.86357879638672, 69.82536315917969, 9.622811317443848, 0.3334685266017914, 0.10631245374679565, -3.112244129180908, -2.6579246520996094, -0.34557437896728516, -0.00244140625, -0.12841796875, -0.72998046875, 0, 
126, 306926216, 27.8848819732666, -88.86443328857422, 69.89332580566406, 9.408106803894043, 0.08040887117385864, 0.1263539046049118, -3.2363457679748535, -2.7947566509246826, -0.20869198441505432, -0.0029296875, -0.12939453125, -0.7294921875, 0, 
127, 306934549, 27.947355270385742, -88.86529541015625, 69.82991790771484, 9.669330596923828, -0.09754128754138947, 0.2004595398902893, -3.2800180912017822, -2.9624528884887695, -0.4813555181026459, -0.005859375, -0.12939453125, -0.73193359375, 0, 
128, 306942882, 28.07008934020996, -88.86426544189453, 69.70874786376953, 10.07538890838623, -0.027568861842155457, 0.15467511117458344, -3.1520495414733887, -2.9307680130004883, -0.6478992700576782, -0.00244140625, -0.12890625, -0.73046875, 0, 
129, 306951215, 28.094532012939453, -88.86219787597656, 69.6851577758789, 10.176238059997559, 0.1336047500371933, 0.15142510831356049, -3.0847091674804688, -2.6435554027557373, -0.541907548904419, -0.0029296875, -0.13037109375, -0.73046875, 0, 
130, 306959548, 28.00006675720215, -88.86082458496094, 69.78009796142578, 9.821290969848633, 0.35436931252479553, 0.11583293974399567, -3.105764150619507, -2.5254225730895996, -0.27977144718170166, 0, -0.12841796875, -0.73095703125, 0, 
131, 306967881, 27.89035415649414, -88.86064910888672, 69.88865661621094, 9.38298511505127, 0.22518116235733032, 0.13684524595737457, -3.3492279052734375, -2.674881935119629, -0.16752989590168, -0.00146484375, -0.126953125, -0.73046875, 0, 
132, 306976214, 27.901813507080078, -88.86219787597656, 69.87654113769531, 9.512005805969238, -0.002934125019237399, 0.1777903288602829, -3.239061117172241, -2.9702138900756836, -0.33202454447746277, -0.00390625, -0.13134765625, -0.73388671875, 0, 
133, 306984547, 28.002172470092773, -88.8637466430664, 69.77632141113281, 9.933152198791504, -0.16337531805038452, 0.14166651666164398, -3.2061469554901123, -3.108121395111084, -0.5020518898963928, 0.00048828125, -0.12939453125, -0.73291015625, 0, 
134, 306992880, 28.02910614013672, -88.86288452148438, 69.75016784667969, 10.198040962219238, 0.09644688665866852, 0.17605949938297272, -3.1269986629486084, -2.740300416946411, -0.49219033122062683, -0.00244140625, -0.126953125, -0.73046875, 0, 
135, 307001213, 27.912303924560547, -88.86271667480469, 69.86721801757812, 9.95232105255127, 0.291603147983551, 0.11425480991601944, -3.154815435409546, -2.6632015705108643, -0.1514185518026352, -0.00244140625, -0.1279296875, -0.73095703125, 0, 
136, 307009546, 27.79314422607422, -88.86254119873047, 69.98558807373047, 9.471330642700195, 0.24523568153381348, 0.12979818880558014, -3.2644448280334473, -2.6796975135803223, -0.13371913135051727, -0.00146484375, -0.12841796875, -0.732421875, 0, 
137, 307017879, 27.767406463623047, -88.8634033203125, 70.01083374023438, 9.439591407775879, 0.03550634905695915, 0.18637622892856598, -3.2374472618103027, -2.878617525100708, -0.2846638560295105, -0.00244140625, -0.12890625, -0.73046875, 0, 
138, 307026212, 27.862070083618164, -88.86357879638672, 69.91619110107422, 9.822859764099121, -0.1042475551366806, 0.18355996906757355, -3.1546363830566406, -2.8842267990112305, -0.5976441502571106, -0.001953125, -0.12890625, -0.72900390625, 0, 
139, 307034545, 27.906837463378906, -88.86323547363281, 69.87178039550781, 10.20712661743164, 0.06320282071828842, 0.14029937982559204, -3.1223626136779785, -2.863069534301758, -0.4796137511730194, -0.00341796875, -0.1298828125, -0.73046875, 0, 
140, 307042878, 27.825754165649414, -88.86185455322266, 69.95272064208984, 10.074508666992188, 0.10827908664941788, 0.12342480570077896, -3.2557871341705322, -2.5624866485595703, -0.2990846335887909, -0.001953125, -0.12890625, -0.73095703125, 0, 
141, 307051211, 27.722671508789062, -88.8599624633789, 70.055908203125, 9.55218505859375, 0.31786930561065674, 0.10868831723928452, -3.1691598892211914, -2.522707462310791, -0.26312220096588135, -0.00048828125, -0.126953125, -0.73095703125, 0, 
142, 307059544, 27.64440155029297, -88.86185455322266, 70.13313293457031, 9.390820503234863, 0.08974605053663254, 0.1360802799463272, -3.3598318099975586, -2.9151177406311035, -0.12193656712770462, -0.00146484375, -0.1298828125, -0.73046875, 0, 
143, 307067877, 27.697097778320312, -88.86288452148438, 70.08085632324219, 9.759273529052734, -0.12322269380092621, 0.1968744993209839, -3.1710550785064697, -3.000720500946045, -0.43069058656692505, -0.0009765625, -0.12939453125, -0.73095703125, 0, 
144, 307076210, 27.74703598022461, -88.86288452148438, 70.03136444091797, 10.129659652709961, -0.009407990612089634, 0.12411335110664368, -3.0906264781951904, -2.861840009689331, -0.4899619221687317, -0.00341796875, -0.12939453125, -0.73291015625, 0, 
145, 307084543, 27.763900756835938, -88.86185455322266, 70.01542663574219, 10.099869728088379, 0.11858638375997543, 0.11564254760742188, -3.1471316814422607, -2.7184770107269287, -0.48040780425071716, -0.0009765625, -0.13037109375, -0.73193359375, 0, 
146, 307092876, 27.688657760620117, -88.86099243164062, 70.0909652709961, 9.709263801574707, 0.2713576555252075, 0.07353245466947556, -3.143545627593994, -2.647372007369995, -0.269064724445343, -0.0009765625, -0.13037109375, -0.73095703125, 0, 
147, 307101209, 27.677505493164062, -88.86116790771484, 70.10077667236328, 9.408583641052246, 0.14250527322292328, 0.12633001804351807, -3.3264825344085693, -2.8470351696014404, -0.34214216470718384, 0.00048828125, -0.1279296875, -0.73291015625, 0, 
148, 307109542, 27.729740142822266, -88.8630599975586, 70.04893493652344, 9.62166690826416, 0.029149658977985382, 0.16804882884025574, -3.2238974571228027, -3.07633376121521, -0.3857631981372833, -0.00244140625, -0.12890625, -0.73193359375, 0, 
149, 307117875, 27.79759407043457, -88.86443328857422, 69.98143005371094, 9.998854637145996, -0.09671684354543686, 0.17883825302124023, -3.14941143989563, -3.0432145595550537, -0.447186142206192, -0.0029296875, -0.1298828125, -0.73046875, 0, 
150, 307126208, 27.85637664794922, -88.8639144897461, 69.9218521118164, 10.172454833984375, 0.053472742438316345, 0.13474290072917938, -3.1911370754241943, -2.7488303184509277, -0.5781261324882507, -0.0009765625, -0.1298828125, -0.7294921875, 0, 
151, 307134541, 27.740686416625977, -88.86202239990234, 70.03739929199219, 9.920672416687012, 0.2425922155380249, 0.10481604933738708, -3.2363712787628174, -2.5078511238098145, -0.23730307817459106, -0.00341796875, -0.13037109375, -0.7314453125, 0, 
152, 307142874, 27.699169158935547, -88.86134338378906, 70.07915496826172, 9.456780433654785, 0.28155428171157837, 0.1456611156463623, -3.192007541656494, -2.706848382949829, -0.32687610387802124, -0.0009765625, -0.12939453125, -0.72900390625, 0, 
153, 307151207, 27.65970802307129, -88.86254119873047, 70.1173324584961, 9.472467422485352, 0.008244429714977741, 0.15436425805091858, -3.313905715942383, -2.8759539127349854, -0.2516982853412628, -0.00390625, -0.12841796875, -0.73046875, 0, 
154, 307159540, 27.735979080200195, -88.86288452148438, 70.04057312011719, 9.799365043640137, -0.18396113812923431, 0.17074619233608246, -3.3500218391418457, -2.989117383956909, -0.498645156621933, -0.0029296875, -0.12890625, -0.72900390625, 0, 
155, 307167873, 27.81363296508789, -88.8630599975586, 69.96280670166016, 10.131009101867676, 0.007001278456300497, 0.11574190855026245, -3.1613729000091553, -2.899672269821167, -0.5502834320068359, -0.001953125, -0.1279296875, -0.7294921875, 0, 
156, 307176206, 27.796886444091797, -88.86168670654297, 69.97988891601562, 10.067021369934082, 0.14657190442085266, 0.11365080624818802, -3.150512218475342, -2.6129465103149414, -0.441730260848999, -0.00390625, -0.12841796875, -0.7294921875, 0, 
157, 307184539, 27.749164581298828, -88.85979461669922, 70.02762603759766, 9.664538383483887, 0.3951287567615509, 0.14915676414966583, -3.1838622093200684, -2.5788280963897705, -0.3840214014053345, -0.00341796875, -0.12939453125, -0.72998046875, 0, 
158, 307192872, 27.662683486938477, -88.86048126220703, 70.11306762695312, 9.449986457824707, 0.15080946683883667, 0.1278436779975891, -3.269157648086548, -2.760279655456543, -0.17859525978565216, -0.00244140625, -0.1298828125, -0.7333984375, 0, 
159, 307201205, 27.73015022277832, -88.86219787597656, 70.04472351074219, 9.673348426818848, -0.09554057568311691, 0.1925884336233139, -3.301790237426758, -3.070826768875122, -0.4365050196647644, -0.0009765625, -0.1298828125, -0.7314453125, 0, 
160, 307209538, 27.805002212524414, -88.86185455322266, 69.96971893310547, 10.036962509155273, -0.06763548403978348, 0.1343090832233429, -3.170671224594116, -2.8558976650238037, -0.5611183047294617, -0.00341796875, -0.12841796875, -0.72998046875, 0, 
161, 307217871, 27.848190307617188, -88.86013793945312, 69.92677307128906, 10.140345573425293, 0.09023331850767136, 0.14869797229766846, -3.1797897815704346, -2.683462619781494, -0.5737460255622864, -0.00390625, -0.12841796875, -0.72998046875, 0, 
162, 307226204, 27.81964683532715, -88.859619140625, 69.9551773071289, 9.822676658630371, 0.3562878668308258, 0.11681421101093292, -3.168750047683716, -2.6959877014160156, -0.36580967903137207, -0.00048828125, -0.12841796875, -0.7314453125, 0, 
163, 307234537, 27.73114585876465, -88.8591079711914, 70.04212188720703, 9.412396430969238, 0.1554647833108902, 0.1269489824771881, -3.449481964111328, -2.685230016708374, -0.2216527909040451, -0.00341796875, -0.1298828125, -0.73095703125, 0, 
164, 307242870, 27.726852416992188, -88.85979461669922, 70.04512786865234, 9.547871589660645, -0.05613603815436363, 0.18470634520053864, -3.3019185066223145, -2.8686535358428955, -0.34519022703170776, -0.0009765625, -0.12890625, -0.73193359375, 0, 
165, 307251203, 27.836233139038086, -88.86048126220703, 69.93590545654297, 9.973017692565918, -0.085818812251091, 0.2167070358991623, -3.1628332138061523, -3.0062787532806396, -0.579637348651886, -0.00244140625, -0.12890625, -0.732421875, 0, 
166, 307259536, 27.905725479125977, -88.85894012451172, 69.86643981933594, 10.23943042755127, 0.1451023519039154, 0.1423385590314865, -3.1890363693237305, -2.7266738414764404, -0.6173927783966064, -0.0029296875, -0.130859375, -0.73095703125, 0, 
167, 307267869, 27.819908142089844, -88.85773468017578, 69.95296478271484, 9.94710922241211, 0.2955172061920166, 0.06167493388056755, -3.0700833797454834, -2.5877420902252197, -0.2723689377307892, -0.001953125, -0.12744140625, -0.7294921875, 0, 
168, 307276202, 27.73085594177246, -88.8565444946289, 70.04191589355469, 9.412931442260742, 0.2538287937641144, 0.08423309028148651, -3.220029354095459, -2.574396848678589, -0.26583734154701233, -0.00146484375, -0.13232421875, -0.73193359375, 0, 
169, 307284535, 27.716110229492188, -88.8570556640625, 70.05728149414062, 9.433416366577148, 0.010860751383006573, 0.1259218156337738, -3.1469266414642334, -2.8516969680786133, -0.3271578252315521, -0.0029296875, -0.12890625, -0.72998046875, 0, 
170, 307292868, 27.782644271850586, -88.85807800292969, 69.99139404296875, 9.870086669921875, -0.15632463991641998, 0.20877313613891602, -3.249178647994995, -3.0271286964416504, -0.44887667894363403, -0.00244140625, -0.12890625, -0.732421875, 0, 
171, 307301201, 27.835037231445312, -88.85739135742188, 69.93920135498047, 10.21707820892334, 0.07596024125814438, 0.12735682725906372, -3.167827844619751, -2.8213953971862793, -0.5247460603713989, -0.0029296875, -0.12939453125, -0.73046875, 0, 
172, 307309534, 27.86723518371582, -88.85636138916016, 69.90611267089844, 10.059540748596191, 0.14511650800704956, 0.08562684059143066, -3.21024489402771, -2.711535930633545, -0.5251815319061279, -0.00341796875, -0.12890625, -0.73193359375, 0, 
173, 307317867, 27.803192138671875, -88.85602569580078, 69.9704360961914, 9.534910202026367, 0.2854533791542053, 0.09935665130615234, -3.1350672245025635, -2.7024426460266113, -0.27129316329956055, -0.0029296875, -0.12646484375, -0.73095703125, 0, 
174, 307326200, 27.79050636291504, -88.85773468017578, 69.98249053955078, 9.357316970825195, 0.070436030626297, 0.13782507181167603, -3.2707204818725586, -2.9373509883880615, -0.2814108431339264, -0.0029296875, -0.12841796875, -0.73046875, 0, 
175, 307334533, 27.848756790161133, -88.8587646484375, 69.92384338378906, 9.701295852661133, -0.101851686835289, 0.16523727774620056, -3.229045867919922, -3.024925947189331, -0.43486565351486206, -0.0048828125, -0.1298828125, -0.734375, 0, 
176, 307342866, 27.913930892944336, -88.8599624633789, 69.86022186279297, 10.117586135864258, 0.012002669274806976, 0.16066871583461761, -3.01460337638855, -2.9945218563079834, -0.4583539366722107, -0.00146484375, -0.12841796875, -0.72998046875, 0, 
177, 307351199, 27.863201141357422, -88.8584213256836, 69.91117858886719, 10.13652229309082, 0.13850025832653046, 0.12915726006031036, -3.172437906265259, -2.618863344192505, -0.3536941409111023, -0.001953125, -0.12841796875, -0.7314453125, 0, 
178, 307359532, 27.773239135742188, -88.85739135742188, 70.00133514404297, 9.734347343444824, 0.36583012342453003, 0.07853148132562637, -3.129918336868286, -2.563715696334839, -0.2686292827129364, -0.00244140625, -0.1298828125, -0.73046875, 0, 
179, 307367865, 27.678380966186523, -88.85688018798828, 70.09693145751953, 9.38994312286377, 0.14265236258506775, 0.14747372269630432, -3.198308229446411, -2.6865615844726562, -0.19644835591316223, -0.00048828125, -0.12744140625, -0.72998046875, 0, 
180, 307376198, 27.667522430419922, -88.8587646484375, 70.10645294189453, 9.620834350585938, -0.04917674511671066, 0.21258093416690826, -3.315877914428711, -2.977385997772217, -0.27201035618782043, -0.00341796875, -0.1298828125, -0.7314453125, 0, 
181, 307384531, 27.721858978271484, -88.85945129394531, 70.05236053466797, 9.97700023651123, -0.12685024738311768, 0.12825164198875427, -3.168365716934204, -2.9716997146606445, -0.4501829445362091, -0.001953125, -0.12548828125, -0.72998046875, 0, 
182, 307392864, 27.720035552978516, -88.8584213256836, 70.05500030517578, 10.105573654174805, 0.013514009304344654, 0.11859128624200821, -3.1255898475646973, -2.6960647106170654, -0.4371196925640106, -0.001953125, -0.12890625, -0.73046875, 0, 
183, 307401197, 27.6633358001709, -88.85688018798828, 70.11257934570312, 9.85669994354248, 0.21767191588878632, 0.11670427024364471, -3.0859129428863525, -2.587357759475708, -0.35113272070884705, -0.00048828125, -0.13134765625, -0.73046875, 0, 
184, 307409530, 27.6363525390625, -88.8565444946289, 70.13921356201172, 9.469408988952637, 0.27340811491012573, 0.16640383005142212, -3.1907272338867188, -2.7394297122955322, -0.3486737906932831, -0.00146484375, -0.1279296875, -0.73095703125, 0, 
185, 307417863, 27.655269622802734, -88.85858917236328, 70.11967468261719, 9.542205810546875, 0.0792471393942833, 0.17259740829467773, -3.2305057048797607, -3.0371952056884766, -0.3225472569465637, -0.0029296875, -0.13134765625, -0.7294921875, 0, 
186, 307426196, 27.713563919067383, -88.86013793945312, 70.06218719482422, 9.91011905670166, -0.14013919234275818, 0.202433779835701, -3.2112696170806885, -3.0935721397399902, -0.3916800916194916, -0.0029296875, -0.12939453125, -0.7314453125, 0, 
187, 307434529, 27.748489379882812, -88.86048126220703, 70.02848815917969, 10.132662773132324, 0.05602935329079628, 0.12499617040157318, -3.031867742538452, -2.8767988681793213, -0.4452906847000122, -0.00439453125, -0.1279296875, -0.7314453125, 0, 
188, 307442862, 27.710552215576172, -88.85979461669922, 70.06599426269531, 10.009491920471191, 0.19379442930221558, 0.11856582015752792, -3.1474897861480713, -2.6458096504211426, -0.3680381178855896, -0.00341796875, -0.12939453125, -0.73046875, 0, 
189, 307451195, 27.687788009643555, -88.85979461669922, 70.08734130859375, 9.549773216247559, 0.28850606083869934, 0.1460408717393875, -3.285832643508911, -2.7714476585388184, -0.3506973385810852, -0.00244140625, -0.12939453125, -0.72998046875, 0, 
190, 307459528, 27.640729904174805, -88.86048126220703, 70.1337661743164, 9.427083969116211, 0.07829182595014572, 0.12717649340629578, -3.3200273513793945, -2.849161148071289, -0.24155503511428833, -0.00390625, -0.12890625, -0.73193359375, 0, 
191, 307467861, 27.685213088989258, -88.86151123046875, 70.0899429321289, 9.72963809967041, -0.14537400007247925, 0.2236822247505188, -3.1570186614990234, -2.985992193222046, -0.4156550168991089, -0.00146484375, -0.12890625, -0.72998046875, 0, 
192, 307476194, 27.767751693725586, -88.86151123046875, 70.00737762451172, 10.110651016235352, -0.01290411502122879, 0.19306235015392303, -3.23765230178833, -2.967755079269409, -0.5227481722831726, -0.00341796875, -0.12841796875, -0.7314453125, 0, 
193, 307484527, 27.767507553100586, -88.86082458496094, 70.00823974609375, 10.157933235168457, 0.12921664118766785, 0.14362558722496033, -3.127664566040039, -2.7234206199645996, -0.4338666796684265, -0.001953125, -0.12841796875, -0.72998046875, 0, 
194, 307492860, 27.70032501220703, -88.85945129394531, 70.07501220703125, 9.760278701782227, 0.3689153492450714, 0.12828469276428223, -3.2588863372802734, -2.6163532733917236, -0.30594924092292786, -0.00244140625, -0.12890625, -0.7294921875, 0, 
195, 307501193, 27.619022369384766, -88.86013793945312, 70.15553283691406, 9.385897636413574, 0.16648241877555847, 0.0972178727388382, -3.3161087036132812, -2.8065645694732666, -0.17554718255996704, -0.00146484375, -0.12890625, -0.72802734375, 0, 
196, 307509526, 27.63419532775879, -88.86202239990234, 70.13922119140625, 9.581618309020996, -0.005889682099223137, 0.17291545867919922, -3.286139965057373, -3.029818296432495, -0.31212228536605835, -0.00146484375, -0.12939453125, -0.7294921875, 0, 
197, 307517859, 27.65592384338379, -88.86254119873047, 70.11841583251953, 9.983640670776367, -0.126654252409935, 0.14544318616390228, -3.1393704414367676, -2.947237968444824, -0.37469786405563354, -0.001953125, -0.126953125, -0.73046875, 0, 
198, 307526192, 27.712757110595703, -88.8630599975586, 70.06129455566406, 10.19439697265625, 0.07418844848871231, 0.16573956608772278, -3.096287250518799, -2.8089723587036133, -0.5363236665725708, -0.001953125, -0.1298828125, -0.732421875, 0, 
199, 307534525, 27.637779235839844, -88.86099243164062, 70.13568115234375, 9.946962356567383, 0.31265121698379517, 0.06557604670524597, -3.1973352432250977, -2.4991936683654785, -0.35164502263069153, -0.001953125, -0.1279296875, -0.73046875, 0, 
200, 307542858, 27.611242294311523, -88.859619140625, 70.16297912597656, 9.443708419799805, 0.24855898320674896, 0.12573839724063873, -3.1774587631225586, -2.692350387573242, -0.3732377886772156, -0.0029296875, -0.12939453125, -0.73046875, 0, 
201, 307551191, 27.590900421142578, -88.86116790771484, 70.18231201171875, 9.499981880187988, 0.020761841908097267, 0.16584138572216034, -3.320770502090454, -2.9517719745635986, -0.26412123441696167, -0.00244140625, -0.13037109375, -0.73291015625, 0, 
202, 307559524, 27.711177825927734, -88.86185455322266, 70.06230926513672, 9.841078758239746, -0.1384274959564209, 0.21869264543056488, -3.1878068447113037, -3.005894660949707, -0.6059432029724121, 0, -0.12890625, -0.73046875, 0, 
203, 307567857, 27.788707733154297, -88.86151123046875, 69.9841537475586, 10.183353424072266, 0.030965646728873253, 0.161756694316864, -3.262190818786621, -2.8672447204589844, -0.5691611170768738, -0.00146484375, -0.12841796875, -0.7314453125, 0, 
204, 307576190, 27.740076065063477, -88.86013793945312, 70.03353118896484, 10.068723678588867, 0.14628922939300537, 0.10262361913919449, -3.1180334091186523, -2.6232688426971436, -0.35072290897369385, -0.00439453125, -0.12841796875, -0.7314453125, 0, 
205, 307584523, 27.65841293334961, -88.85894012451172, 70.11504364013672, 9.562370300292969, 0.3244449496269226, 0.10262292623519897, -3.2550952434539795, -2.60498046875, -0.2790030241012573, -0.00146484375, -0.12890625, -0.73046875, 0, 
206, 307592856, 27.6303768157959, -88.86013793945312, 70.1416015625, 9.379504203796387, 0.0938916727900505, 0.104126937687397, -3.301815986633301, -2.906075954437256, -0.25989484786987305, -0.0029296875, -0.12841796875, -0.7314453125, 0, 
207, 307601189, 27.702617645263672, -88.86219787597656, 70.06893920898438, 9.740711212158203, -0.09876824170351028, 0.21182343363761902, -3.2536098957061768, -3.1004881858825684, -0.4337643086910248, -0.00341796875, -0.1298828125, -0.72998046875, 0, 
208, 307609522, 27.758991241455078, -88.86357879638672, 70.0118637084961, 10.098130226135254, -0.01995796523988247, 0.13071495294570923, -3.194645881652832, -2.9573299884796143, -0.45914795994758606, -0.0029296875, -0.12890625, -0.73046875, 0, 
209, 307617855, 27.81073570251465, -88.86151123046875, 69.96085357666016, 10.086036682128906, 0.12454557418823242, 0.13124766945838928, -3.119929075241089, -2.672755479812622, -0.5982075929641724, -0.0029296875, -0.1298828125, -0.7314453125, 0, 
210, 307626188, 27.751846313476562, -88.8591079711914, 70.01973724365234, 9.738321304321289, 0.2864989638328552, 0.10344768315553665, -3.1601433753967285, -2.4903311729431152, -0.39393410086631775, -0.0009765625, -0.13037109375, -0.73046875, 0, 
211, 307634521, 27.66824722290039, -88.85979461669922, 70.10313415527344, 9.41651439666748, 0.16578732430934906, 0.10462698340415955, -3.2638299465179443, -2.8007757663726807, -0.17219169437885284, -0.00048828125, -0.12841796875, -0.73193359375, 0, 
212, 307642854, 27.673185348510742, -88.86116790771484, 70.09854888916016, 9.619485855102539, 0.02147194743156433, 0.18070393800735474, -3.1178033351898193, -2.9604039192199707, -0.31629738211631775, -0.00146484375, -0.12939453125, -0.7314453125, 0, 
213, 307651187, 27.74900245666504, -88.86237335205078, 70.02230072021484, 9.961799621582031, -0.08571529388427734, 0.1646215170621872, -3.2640092372894287, -3.0415749549865723, -0.47372251749038696, -0.00390625, -0.12939453125, -0.728515625, 0, 
214, 307659520, 27.788360595703125, -88.86185455322266, 69.98411560058594, 10.165849685668945, 0.04925231263041496, 0.15536808967590332, -3.1058413982391357, -2.8172714710235596, -0.48394259810447693, -0.0009765625, -0.12841796875, -0.73095703125, 0, 
215, 307667853, 27.72818374633789, -88.86099243164062, 70.04509735107422, 9.918561935424805, 0.23644787073135376, 0.09454597532749176, -3.091292142868042, -2.633873224258423, -0.31742438673973083, 0.0009765625, -0.126953125, -0.73095703125, 0, 
216, 307676186, 27.66895294189453, -88.86048126220703, 70.10452270507812, 9.475420951843262, 0.28621017932891846, 0.13639822602272034, -3.1745383739471436, -2.691607713699341, -0.28645676374435425, -0.00048828125, -0.1298828125, -0.73046875, 0, 
217, 307684519, 27.59760093688965, -88.86202239990234, 70.1749038696289, 9.45948314666748, 0.06844771653413773, 0.1496487557888031, -3.3071181774139404, -2.8998515605926514, -0.15187960863113403, -0.00390625, -0.12841796875, -0.72998046875, 0, 
218, 307692852, 27.68321418762207, -88.86357879638672, 70.09039306640625, 9.770930290222168, -0.13802506029605865, 0.17589956521987915, -3.079535484313965, -3.0967226028442383, -0.46342551708221436, -0.0029296875, -0.12939453125, -0.73095703125, 0, 
219, 307701185, 27.67673110961914, -88.8630599975586, 70.09708404541016, 10.14330768585205, 0.04624620079994202, 0.17261739075183868, -3.1497955322265625, -2.750162363052368, -0.40261736512184143, -0.00244140625, -0.1279296875, -0.73046875, 0, 
220, 307709518, 27.594970703125, -88.86185455322266, 70.17953491210938, 10.112214088439941, 0.19341634213924408, 0.1400480568408966, -3.070185899734497, -2.5990636348724365, -0.27242013812065125, -0.00048828125, -0.12939453125, -0.72900390625, 0, 
221, 307717851, 27.513469696044922, -88.86082458496094, 70.26152038574219, 9.676673889160156, 0.36346331238746643, 0.18918165564537048, -3.2059671878814697, -2.6212711334228516, -0.2684243619441986, 0, -0.12841796875, -0.73388671875, 0, 
222, 307726184, 27.423900604248047, -88.86185455322266, 70.35041046142578, 9.431929588317871, 0.12068847566843033, 0.1041736900806427, -3.1985647678375244, -2.7884039878845215, -0.15597788989543915, -0.001953125, -0.1279296875, -0.72705078125, 0, 
223, 307734517, 27.47063446044922, -88.86426544189453, 70.3034896850586, 9.64925765991211, -0.10928554087877274, 0.190842866897583, -3.2379086017608643, -3.1370394229888916, -0.3460611402988434, -0.00341796875, -0.12939453125, -0.73095703125, 0, 
224, 307742850, 27.542510986328125, -88.86529541015625, 70.2322006225586, 10.021468162536621, -0.09544865787029266, 0.12791424989700317, -3.143622398376465, -2.98624849319458, -0.4809713065624237, -0.00244140625, -0.12939453125, -0.73095703125, 0, 
225, 307751183, 27.550594329833984, -88.86443328857422, 70.22489166259766, 10.176911354064941, 0.07468894124031067, 0.136131152510643, -3.0486702919006348, -2.721269369125366, -0.4559718072414398, -0.0009765625, -0.1298828125, -0.73046875, 0, 
226, 307759516, 27.47672462463379, -88.86185455322266, 70.29899597167969, 9.828516960144043, 0.3465125560760498, 0.062210723757743835, -3.216264486312866, -2.483799457550049, -0.3555895984172821, -0.0009765625, -0.13037109375, -0.73095703125, 0, 
227, 307767849, 27.37069320678711, -88.86219787597656, 70.40470123291016, 9.408967971801758, 0.16953417658805847, 0.09963388741016388, -3.1751019954681396, -2.7024424076080322, -0.16005054116249084, -0.001953125, -0.12939453125, -0.7314453125, 0, 
228, 307776182, 27.40502166748047, -88.86323547363281, 70.370849609375, 9.540175437927246, -0.027321945875883102, 0.21579870581626892, -3.1782782077789307, -2.9942145347595215, -0.3802817463874817, -0.00048828125, -0.1279296875, -0.73095703125, 0, 
229, 307784515, 27.49236297607422, -88.8639144897461, 70.28372955322266, 9.9627046585083, -0.08973372727632523, 0.19162358343601227, -3.203687906265259, -2.9772322177886963, -0.5363749265670776, -0.0029296875, -0.1279296875, -0.7294921875, 0, 
230, 307792848, 27.510974884033203, -88.86288452148438, 70.2646255493164, 10.240997314453125, 0.09585264325141907, 0.12933523952960968, -3.156506299972534, -2.7252392768859863, -0.4771292209625244, -0.00390625, -0.13134765625, -0.73046875, 0, 
231, 307801181, 27.47562026977539, -88.86151123046875, 70.30001068115234, 9.941713333129883, 0.25005990266799927, 0.09979169815778732, -3.2088100910186768, -2.622321128845215, -0.39331936836242676, -0.00341796875, -0.12841796875, -0.72998046875, 0, 
232, 307809514, 27.399158477783203, -88.86082458496094, 70.37744140625, 9.40178394317627, 0.2541026175022125, 0.10004714131355286, -3.143289089202881, -2.6806960105895996, -0.2431943565607071, -0.00146484375, -0.12841796875, -0.7294921875, 0, 
233, 307817847, 27.439163208007812, -88.8630599975586, 70.3370132446289, 9.452588081359863, 0.003025997430086136, 0.16458290815353394, -3.2692601680755615, -3.0828399658203125, -0.35807424783706665, -0.0068359375, -0.13037109375, -0.73193359375, 0, 
234, 307826180, 27.51313018798828, -88.86443328857422, 70.26156616210938, 9.823335647583008, -0.1851789951324463, 0.20908299088478088, -3.3255090713500977, -3.0277178287506104, -0.4721856713294983, -0.0009765625, -0.13037109375, -0.72900390625, 0, 
235, 307834513, 27.57969093322754, -88.86426544189453, 70.19544982910156, 10.210489273071289, 0.0615619458258152, 0.15220282971858978, -3.115036964416504, -2.858125925064087, -0.5400633811950684, -0.0048828125, -0.12939453125, -0.72998046875, 0, 
236, 307842846, 27.56887435913086, -88.86323547363281, 70.20697021484375, 10.093355178833008, 0.17500638961791992, 0.09922142326831818, -3.1042275428771973, -2.6533913612365723, -0.43632566928863525, -0.0009765625, -0.126953125, -0.7314453125, 0, 
237, 307851179, 27.471620559692383, -88.86116790771484, 70.30474853515625, 9.570891380310059, 0.29617318511009216, 0.1116630956530571, -3.127126693725586, -2.48697566986084, -0.2941410541534424, -0.0029296875, -0.1298828125, -0.73095703125, 0, 
238, 307859512, 27.434478759765625, -88.86151123046875, 70.34088134765625, 9.358823776245117, 0.09348821640014648, 0.1347101330757141, -3.291929006576538, -2.836225748062134, -0.2728044390678406, -0.00390625, -0.1298828125, -0.7314453125, 0, 
239, 307867845, 27.488157272338867, -88.86254119873047, 70.28678894042969, 9.692887306213379, -0.0861327275633812, 0.18360361456871033, -3.289085626602173, -3.002667188644409, -0.43466073274612427, -0.00146484375, -0.12939453125, -0.732421875, 0, 
240, 307876178, 27.538623809814453, -88.86357879638672, 70.23587036132812, 10.095636367797852, -0.024355612695217133, 0.10519486665725708, -3.2077860832214355, -2.9397075176239014, -0.45284682512283325, -0.00341796875, -0.12939453125, -0.7314453125, 0, 
241, 307884511, 27.537738800048828, -88.86219787597656, 70.23694610595703, 10.129040718078613, 0.0946776494383812, 0.12447703629732132, -3.1474645137786865, -2.6674535274505615, -0.45901986956596375, -0.00146484375, -0.1298828125, -0.7314453125, 0, 
242, 307892844, 27.448833465576172, -88.86048126220703, 70.32647705078125, 9.755350112915039, 0.3229433596134186, 0.07947900891304016, -3.2037899494171143, -2.5914816856384277, -0.25999727845191956, -0.0029296875, -0.12841796875, -0.73095703125, 0, 
243, 307901177, 27.380977630615234, -88.86116790771484, 70.39301300048828, 9.409830093383789, 0.1578410267829895, 0.17078815400600433, -3.3252017498016357, -2.7860476970672607, -0.22303594648838043, -0.00146484375, -0.12841796875, -0.7294921875, 0, 
244, 307909510, 27.424455642700195, -88.86271667480469, 70.34915924072266, 9.617352485656738, -0.019659467041492462, 0.2058005928993225, -3.223308563232422, -2.9953160285949707, -0.4058191776275635, -0.001953125, -0.1279296875, -0.7314453125, 0, 
245, 307917843, 27.469085693359375, -88.86357879638672, 70.3039321899414, 9.967249870300293, -0.11386732757091522, 0.1546160876750946, -3.270259380340576, -2.98161244392395, -0.42177683115005493, -0.00244140625, -0.12890625, -0.72998046875, 0, 
246, 307926176, 27.46605110168457, -88.86219787597656, 70.306640625, 10.149827003479004, 0.046819884330034256, 0.11862335354089737, -3.170696258544922, -2.647064685821533, -0.4601469039916992, -0.00341796875, -0.12841796875, -0.73046875, 0, 
247, 307934509, 27.383962631225586, -88.86031341552734, 70.39085388183594, 9.887166976928711, 0.16976968944072723, 0.08763056993484497, -2.992037296295166, -2.5366158485412598, -0.3054625391960144, -0.0029296875, -0.12939453125, -0.7294921875, 0, 
248, 307942842, 27.314512252807617, -88.8591079711914, 70.45975494384766, 9.520533561706543, 0.29616308212280273, 0.14361059665679932, -3.264726400375366, -2.6046218872070312, -0.30687129497528076, -0.0029296875, -0.13037109375, -0.72998046875, 0, 
249, 307951175, 27.298662185668945, -88.86168670654297, 70.47465515136719, 9.523868560791016, 0.14314231276512146, 0.15720057487487793, -3.2430312633514404, -3.0467495918273926, -0.2263658046722412, -0.00244140625, -0.13134765625, -0.73046875, 0, 
250, 307959508, 27.310577392578125, -88.86323547363281, 70.46292114257812, 9.82620620727539, -0.15507104992866516, 0.18480032682418823, -3.1904454231262207, -2.9835078716278076, -0.32605642080307007, -0.00244140625, -0.12890625, -0.73046875, 0, 
251, 307967841, 27.362062454223633, -88.86357879638672, 70.41236877441406, 10.114657402038574, -0.014287789352238178, 0.13621363043785095, -3.0245163440704346, -2.884150266647339, -0.4847366213798523, -0.00146484375, -0.12939453125, -0.72900390625, 0, 
252, 307976174, 27.333757400512695, -88.86168670654297, 70.44219970703125, 10.033028602600098, 0.15520496666431427, 0.09520652890205383, -3.1021785736083984, -2.5941200256347656, -0.41621848940849304, -0.0009765625, -0.12939453125, -0.73095703125, 0, 
253, 307984507, 27.252599716186523, -88.86064910888672, 70.52268981933594, 9.640754699707031, 0.29705145955085754, 0.08260010182857513, -3.2485642433166504, -2.634385824203491, -0.26301977038383484, -0.00146484375, -0.12939453125, -0.72998046875, 0, 
254, 307992840, 27.203479766845703, -88.86185455322266, 70.57137298583984, 9.418741226196289, 0.07310837507247925, 0.0761435404419899, -3.2481794357299805, -2.8909380435943604, -0.21220114827156067, -0.00341796875, -0.1298828125, -0.73046875, 0, 
255, 308001173, 27.26137924194336, -88.8630599975586, 70.51272583007812, 9.640088081359863, -0.0910574272274971, 0.19455792009830475, -3.281580686569214, -2.9760541915893555, -0.4596346616744995, 0, -0.1298828125, -0.73095703125, 0, 
256, 308009506, 27.305208206176758, -88.86323547363281, 70.46880340576172, 10.029277801513672, -0.059156384319067, 0.16251562535762787, -3.2034828662872314, -2.903770685195923, -0.45456308126449585, -0.001953125, -0.12890625, -0.732421875, 0, 
257, 308017839, 27.301652908325195, -88.86116790771484, 70.4727554321289, 10.219014167785645, 0.08845589309930801, 0.18471476435661316, -3.1650867462158203, -2.5819785594940186, -0.49713388085365295, -0.001953125, -0.1279296875, -0.7294921875, 0, 
258, 308026172, 27.20555305480957, -88.8587646484375, 70.56954193115234, 9.864893913269043, 0.34933680295944214, 0.11520954221487045, -3.1642673015594482, -2.513512134552002, -0.27767109870910645, -0.00146484375, -0.1279296875, -0.73046875, 0, 
259, 308034505, 27.132415771484375, -88.8587646484375, 70.64110565185547, 9.393954277038574, 0.23617741465568542, 0.119340680539608, -3.367619037628174, -2.731642961502075, -0.2375592440366745, -0.00634765625, -0.1298828125, -0.72998046875, 0, 
260, 308042838, 27.13265609741211, -88.86134338378906, 70.63935089111328, 9.502192497253418, -0.00661337049677968, 0.19447143375873566, -3.318157911300659, -3.04142165184021, -0.268449991941452, 0, -0.12744140625, -0.72802734375, 0, 
261, 308051171, 27.175758361816406, -88.8630599975586, 70.59553527832031, 9.886009216308594, -0.1732611060142517, 0.1480562537908554, -3.2346556186676025, -3.0173184871673584, -0.3999022841453552, -0.00146484375, -0.12890625, -0.728515625, 0, 
262, 308059504, 27.250423431396484, -88.86237335205078, 70.52117156982422, 10.199978828430176, 0.06118578836321831, 0.17240414023399353, -3.1607069969177246, -2.8391973972320557, -0.5680597424507141, -0.00244140625, -0.12841796875, -0.7294921875, 0, 
263, 308067837, 27.208383560180664, -88.86116790771484, 70.56280517578125, 10.001524925231934, 0.2456614226102829, 0.16818542778491974, -3.2550442218780518, -2.6481149196624756, -0.3610198497772217, -0.001953125, -0.1279296875, -0.72998046875, 0, 
264, 308076170, 27.138656616210938, -88.86064910888672, 70.63136291503906, 9.51048755645752, 0.29208260774612427, 0.12374860793352127, -3.2661099433898926, -2.643376350402832, -0.28637993335723877, -0.00244140625, -0.13037109375, -0.73095703125, 0, 
265, 308084503, 27.102767944335938, -88.86151123046875, 70.66757202148438, 9.42468547821045, 0.05146908760070801, 0.14429305493831635, -3.1547389030456543, -2.873136281967163, -0.25884467363357544, -0.00244140625, -0.12841796875, -0.7314453125, 0, 
266, 308092836, 27.16836166381836, -88.86254119873047, 70.60177612304688, 9.762733459472656, -0.08997587859630585, 0.23120556771755219, -3.205942153930664, -2.9676780700683594, -0.4789990484714508, -0.0009765625, -0.12841796875, -0.7314453125, 0, 
267, 308101169, 27.20079231262207, -88.86288452148438, 70.56916046142578, 10.160576820373535, 0.05896507948637009, 0.15184660255908966, -3.182863473892212, -2.8637099266052246, -0.4469812512397766, -0.00146484375, -0.12939453125, -0.7294921875, 0, 
268, 308109502, 27.1265811920166, -88.86116790771484, 70.64456176757812, 10.118083953857422, 0.10322229564189911, 0.12405026704072952, -3.0303046703338623, -2.575549602508545, -0.30279865860939026, -0.0048828125, -0.12890625, -0.72998046875, 0, 
269, 308117835, 27.029329299926758, -88.85979461669922, 70.74253845214844, 9.640069007873535, 0.3037134110927582, 0.11965648084878922, -3.14070200920105, -2.5622811317443848, -0.2540803849697113, -0.00439453125, -0.12890625, -0.72900390625, 0, 
270, 308126168, 26.980213165283203, -88.86048126220703, 70.7913818359375, 9.381077766418457, 0.13620012998580933, 0.1352662593126297, -3.2678003311157227, -2.8819727897644043, -0.2176825851202011, -0.00244140625, -0.12841796875, -0.73193359375, 0, 
271, 308134501, 27.02596664428711, -88.86288452148438, 70.74494171142578, 9.669534683227539, -0.08081811666488647, 0.2227928787469864, -3.287932872772217, -3.1283819675445557, -0.350466787815094, -0.001953125, -0.1298828125, -0.72998046875, 0, 
272, 308142834, 27.091764450073242, -88.86529541015625, 70.67878723144531, 10.072721481323242, -0.08635105192661285, 0.16593767702579498, -3.1791749000549316, -3.1116557121276855, -0.40494826436042786, 0, -0.12939453125, -0.73193359375, 0, 
273, 308151167, 27.07486343383789, -88.86478424072266, 70.6966552734375, 10.141047477722168, 0.09708217531442642, 0.1382872313261032, -3.055509090423584, -2.720808267593384, -0.3868902325630188, -0.001953125, -0.12939453125, -0.7294921875, 0, 
274, 308159500, 26.985315322875977, -88.86202239990234, 70.78722381591797, 9.803977966308594, 0.25558730959892273, 0.09619377553462982, -3.1425979137420654, -2.480930805206299, -0.3114563226699829, -0.00244140625, -0.12890625, -0.73095703125, 0, 
275, 308167833, 26.94570541381836, -88.86151123046875, 70.8271484375, 9.40610408782959, 0.20265983045101166, 0.10441941767930984, -3.176460027694702, -2.7226011753082275, -0.3273371458053589, -0.001953125, -0.12744140625, -0.728515625, 0, 
276, 308176166, 26.905519485473633, -88.86254119873047, 70.86675262451172, 9.580209732055664, 0.05437243729829788, 0.18974196910858154, -3.1829400062561035, -2.8259289264678955, -0.2681170105934143, -0.001953125, -0.12890625, -0.7314453125, 0, 
277, 308184499, 26.92861557006836, -88.86288452148438, 70.8437728881836, 9.916345596313477, -0.11542724817991257, 0.177239328622818, -3.177663564682007, -2.903181552886963, -0.4055117666721344, -0.0029296875, -0.12939453125, -0.73046875, 0, 
278, 308192832, 26.98230743408203, -88.86288452148438, 70.79022979736328, 10.18702220916748, 0.04372894763946533, 0.12543219327926636, -3.1777915954589844, -2.8602521419525146, -0.5001052021980286, -0.0009765625, -0.12890625, -0.7314453125, 0, 
279, 308201165, 26.95069694519043, -88.86219787597656, 70.82266235351562, 10.011796951293945, 0.1669122874736786, 0.11812351644039154, -3.0863230228424072, -2.689251184463501, -0.3621980845928192, -0.00146484375, -0.12841796875, -0.728515625, 0, 
280, 308209498, 26.874797821044922, -88.86048126220703, 70.89876556396484, 9.52259635925293, 0.3136160671710968, 0.11698807775974274, -3.204712152481079, -2.598269462585449, -0.29068318009376526, -0.00048828125, -0.12744140625, -0.7314453125, 0, 
281, 308217831, 26.837039947509766, -88.86168670654297, 70.93509674072266, 9.424113273620605, 0.06025440990924835, 0.1556776612997055, -3.397024154663086, -2.8947031497955322, -0.24944424629211426, -0.0029296875, -0.12841796875, -0.73095703125, 0, 
282, 308226164, 26.89198112487793, -88.8630599975586, 70.8787841796875, 9.69334602355957, -0.17287613451480865, 0.178944930434227, -3.320514440536499, -3.02956223487854, -0.4208291172981262, -0.00146484375, -0.12890625, -0.7294921875, 0, 
283, 308234497, 27.03225326538086, -88.8639144897461, 70.73886108398438, 10.11382007598877, -0.028839856386184692, 0.14901871979236603, -3.128048896789551, -3.031893014907837, -0.6499740481376648, -0.00244140625, -0.12841796875, -0.7314453125, 0, 
284, 308242830, 27.06715965270996, -88.86202239990234, 70.70462036132812, 10.138010025024414, 0.12230204790830612, 0.12963193655014038, -3.060939311981201, -2.5898168087005615, -0.5893963575363159, -0.0009765625, -0.1279296875, -0.728515625, 0, 
285, 308251163, 27.020597457885742, -88.86048126220703, 70.75137329101562, 9.735666275024414, 0.38686519861221313, 0.14497491717338562, -3.1664185523986816, -2.606363296508789, -0.36701351404190063, -0.001953125, -0.12939453125, -0.73095703125, 0, 
286, 308259496, 26.962932586669922, -88.86134338378906, 70.8089599609375, 9.42689037322998, 0.18568538129329681, 0.09472176432609558, -3.1844003200531006, -2.834817409515381, -0.2199622541666031, -0.0048828125, -0.12841796875, -0.7314453125, 0, 
287, 308267829, 27.007658004760742, -88.86288452148438, 70.76351165771484, 9.576078414916992, -0.0636620968580246, 0.20825335383415222, -3.3004071712493896, -3.042266845703125, -0.3937804400920868, -0.001953125, -0.13037109375, -0.7294921875, 0, 
288, 308276162, 27.056882858276367, -88.8639144897461, 70.71431732177734, 9.973645210266113, -0.13106688857078552, 0.1600169837474823, -3.157146453857422, -2.9532830715179443, -0.44021910429000854, -0.00341796875, -0.12939453125, -0.73193359375, 0, 
289, 308284495, 27.08974266052246, -88.86219787597656, 70.68209838867188, 10.16479778289795, 0.06571821868419647, 0.15819135308265686, -3.1525869369506836, -2.690967321395874, -0.5370664000511169, -0.001953125, -0.12890625, -0.72998046875, 0, 
290, 308292828, 27.003620147705078, -88.86048126220703, 70.76854705810547, 9.885395050048828, 0.27832797169685364, 0.10241156071424484, -3.165829658508301, -2.536052703857422, -0.291835755109787, -0.00390625, -0.12744140625, -0.7314453125, 0, 
291, 308301161, 26.89560890197754, -88.85979461669922, 70.87627410888672, 9.424205780029297, 0.24268491566181183, 0.08133763074874878, -3.241058588027954, -2.644272565841675, -0.18545986711978912, -0.0029296875, -0.12841796875, -0.72998046875, 0, 
292, 308309494, 26.90560531616211, -88.86099243164062, 70.86542510986328, 9.458565711975098, 0.03298347443342209, 0.17464196681976318, -3.239189386367798, -2.938631534576416, -0.3474443256855011, -0.00146484375, -0.12841796875, -0.73046875, 0, 
293, 308317827, 26.989795684814453, -88.86116790771484, 70.78154754638672, 9.865445137023926, -0.1318485140800476, 0.20226804912090302, -3.156865119934082, -2.9123003482818604, -0.5630393624305725, -0.0009765625, -0.12939453125, -0.7314453125, 0, 
294, 308326160, 27.04970932006836, -88.86082458496094, 70.72233581542969, 10.232306480407715, 0.1148146539926529, 0.16107508540153503, -3.0764873027801514, -2.833869457244873, -0.5302018523216248, -0.001953125, -0.1298828125, -0.73046875, 0, 
295, 308334493, 26.971294403076172, -88.8584213256836, 70.80157470703125, 10.027109146118164, 0.220892071723938, 0.08821339905261993, -3.075667381286621, -2.4507827758789062, -0.3597390949726105, -0.0048828125, -0.1298828125, -0.7333984375, 0, 
296, 308342826, 26.932205200195312, -88.85602569580078, 70.84120178222656, 9.501686096191406, 0.3121320605278015, 0.07538376748561859, -3.1996147632598877, -2.5774450302124023, -0.3965211510658264, 0, -0.12939453125, -0.72998046875, 0, 
297, 308351159, 26.888158798217773, -88.85807800292969, 70.8846664428711, 9.392190933227539, 0.07863068580627441, 0.11614324897527695, -3.2876768112182617, -2.9789485931396484, -0.18768832087516785, -0.00244140625, -0.12939453125, -0.732421875, 0, 
298, 308359492, 26.973461151123047, -88.85945129394531, 70.7996597290039, 9.772934913635254, -0.12842179834842682, 0.22907349467277527, -3.189446210861206, -3.067753314971924, -0.48214957118034363, 0, -0.12939453125, -0.7294921875, 0, 
299, 308367825, 26.963489532470703, -88.85979461669922, 70.8093490600586, 10.163369178771973, 0.010736046358942986, 0.12137595564126968, -3.244260787963867, -2.8542840480804443, -0.34055405855178833, -0.00439453125, -0.12890625, -0.7314453125, 0, 
300, 308376158, 26.94470977783203, -88.8575668334961, 70.82974243164062, 10.134551048278809, 0.10296240448951721, 0.14036032557487488, -3.0839154720306396, -2.569683790206909, -0.45171985030174255, -0.0029296875, -0.12744140625, -0.73046875, 0, 
301, 308384491, 26.941598892211914, -88.8570556640625, 70.83219146728516, 9.702635765075684, 0.29476630687713623, 0.10656481981277466, -3.216008186340332, -2.751033067703247, -0.4117104709148407, -0.00048828125, -0.12890625, -0.728515625, 0, 
302, 308392824, 26.929887771606445, -88.85791015625, 70.84329986572266, 9.395607948303223, 0.13361406326293945, 0.07999321073293686, -3.2276628017425537, -2.8989040851593018, -0.30812644958496094, -0.00146484375, -0.13037109375, -0.73095703125, 0, 
303, 308401157, 26.95948028564453, -88.85945129394531, 70.81259155273438, 9.629921913146973, -0.009723645634949207, 0.17272144556045532, -3.328582763671875, -2.996366024017334, -0.37682387232780457, -0.00390625, -0.12939453125, -0.7314453125, 0, 
304, 308409490, 27.019216537475586, -88.86151123046875, 70.75293731689453, 10.0113525390625, -0.07072959840297699, 0.1576720029115677, -3.110989809036255, -3.027000665664673, -0.43312394618988037, -0.00146484375, -0.12890625, -0.7294921875, 0, 
305, 308417823, 27.078035354614258, -88.86168670654297, 70.69442749023438, 10.185070991516113, 0.08034280687570572, 0.16663812100887299, -3.1125266551971436, -2.890810012817383, -0.5045620203018188, -0.0029296875, -0.1279296875, -0.73046875, 0, 
306, 308426156, 26.993377685546875, -88.86013793945312, 70.78125, 9.908806800842285, 0.2595275640487671, 0.10774293541908264, -3.1224138736724854, -2.654543876647949, -0.23364022374153137, -0.00146484375, -0.1279296875, -0.73046875, 0, 
307, 308434489, 26.957401275634766, -88.8591079711914, 70.8177261352539, 9.468162536621094, 0.27671918272972107, 0.14711451530456543, -3.178252935409546, -2.718733549118042, -0.33819758892059326, -0.00244140625, -0.12890625, -0.72998046875, 0, 
308, 308442822, 26.95835304260254, -88.8630599975586, 70.8150863647461, 9.537511825561523, 0.04740705341100693, 0.189557746052742, -3.243466854095459, -3.106891632080078, -0.2382764369249344, -0.00146484375, -0.12890625, -0.7314453125, 0, 
309, 308451155, 27.00684928894043, -88.86426544189453, 70.76603698730469, 9.845358848571777, -0.14525088667869568, 0.20760314166545868, -3.2403416633605957, -3.0020523071289062, -0.42113640904426575, -0.00146484375, -0.12939453125, -0.73095703125, 0, 
310, 308459488, 27.058212280273438, -88.86460876464844, 70.71438598632812, 10.120054244995117, 0.019098127260804176, 0.10558412969112396, -3.19728422164917, -2.894805669784546, -0.47787201404571533, -0.001953125, -0.12744140625, -0.73046875, 0, 
311, 308467821, 27.06502342224121, -88.8639144897461, 70.70906829833984, 10.011859893798828, 0.13425487279891968, 0.11083123832941055, -2.985095262527466, -2.717170476913452, -0.4499523639678955, -0.001953125, -0.12890625, -0.72998046875, 0, 
312, 308476154, 27.034547805786133, -88.86237335205078, 70.7402114868164, 9.643741607666016, 0.3423352539539337, 0.1187615916132927, -3.1424436569213867, -2.6383299827575684, -0.3883245885372162, -0.00390625, -0.126953125, -0.73291015625, 0, 
313, 308484487, 26.96793556213379, -88.86271667480469, 70.8050765991211, 9.455718040466309, 0.14674074947834015, 0.1407928764820099, -3.3325533866882324, -2.766324758529663, -0.23632974922657013, -0.001953125, -0.1259765625, -0.73291015625, 0, 
314, 308492820, 26.991743087768555, -88.86357879638672, 70.78089904785156, 9.694022178649902, -0.10152721405029297, 0.20071257650852203, -3.274613380432129, -2.977283477783203, -0.364067941904068, -0.00341796875, -0.130859375, -0.73193359375, 0, 
315, 308501153, 27.055456161499023, -88.86426544189453, 70.71732330322266, 10.043946266174316, -0.08350785821676254, 0.11440136283636093, -3.223001003265381, -2.9691126346588135, -0.47884535789489746, -0.00244140625, -0.12841796875, -0.73046875, 0, 
316, 308509486, 27.0506649017334, -88.8637466430664, 70.72315979003906, 10.11032772064209, 0.09276389330625534, 0.1480875313282013, -3.0035126209259033, -2.7029035091400146, -0.42259642481803894, -0.00048828125, -0.12841796875, -0.72998046875, 0, 
317, 308517819, 26.968990325927734, -88.86271667480469, 70.80580139160156, 9.774508476257324, 0.3448910713195801, 0.10029537975788116, -3.0707755088806152, -2.5947346687316895, -0.2769795060157776, -0.00341796875, -0.1279296875, -0.7314453125, 0, 
318, 308526152, 26.893890380859375, -88.86288452148438, 70.88011169433594, 9.430580139160156, 0.16952328383922577, 0.08541553467512131, -3.2848851680755615, -2.772369861602783, -0.20372283458709717, -0.00146484375, -0.12939453125, -0.728515625, 0, 
319, 308534485, 26.974573135375977, -88.8639144897461, 70.7994155883789, 9.540764808654785, -0.040174901485443115, 0.19828484952449799, -3.2205679416656494, -3.0095577239990234, -0.5041009783744812, -0.0009765625, -0.1279296875, -0.73095703125, 0, 
320, 308542818, 27.013071060180664, -88.86460876464844, 70.76118469238281, 9.928762435913086, -0.13327480852603912, 0.16834929585456848, -3.1082234382629395, -2.9105584621429443, -0.4352242946624756, 0.00048828125, -0.1298828125, -0.73046875, 0, 
321, 308551151, 27.097984313964844, -88.8637466430664, 70.67693328857422, 10.212783813476562, 0.07467778027057648, 0.1861017644405365, -3.12907338142395, -2.822573661804199, -0.6079155206680298, -0.00439453125, -0.12744140625, -0.73095703125, 0, 
322, 308559484, 26.977428436279297, -88.86254119873047, 70.79814910888672, 9.98695182800293, 0.25455182790756226, 0.10028137266635895, -3.1258459091186523, -2.5214011669158936, -0.20654037594795227, -0.001953125, -0.12939453125, -0.72998046875, 0, 
323, 308567817, 26.886245727539062, -88.86082458496094, 70.88786315917969, 9.456501007080078, 0.2769491970539093, 0.11010541021823883, -3.3974339962005615, -2.549858808517456, -0.2827683687210083, -0.001953125, -0.1279296875, -0.7314453125, 0, 
324, 308576150, 26.866775512695312, -88.86185455322266, 70.90674591064453, 9.404590606689453, 0.03980783745646477, 0.14286646246910095, -3.2640602588653564, -2.896470785140991, -0.2906319499015808, -0.00341796875, -0.12890625, -0.732421875, 0, 
325, 308584483, 26.896194458007812, -88.86288452148438, 70.8766860961914, 9.778833389282227, -0.15769974887371063, 0.17928212881088257, -3.1927506923675537, -2.9298717975616455, -0.40758654475212097, -0.00146484375, -0.12744140625, -0.7314453125, 0, 
326, 308592816, 26.992639541625977, -88.86099243164062, 70.7821044921875, 10.191193580627441, 0.07330487668514252, 0.20257334411144257, -3.0799200534820557, -2.7999563217163086, -0.6425458788871765, -0.00146484375, -0.12939453125, -0.73291015625, 0, 
327, 308601149, 26.943376541137695, -88.859619140625, 70.83100128173828, 10.129135131835938, 0.19806908071041107, 0.14828918874263763, -3.2481791973114014, -2.611050605773926, -0.3592011630535126, -0.00244140625, -0.1298828125, -0.728515625, 0, 
328, 308609482, 26.852031707763672, -88.85894012451172, 70.92110443115234, 9.634801864624023, 0.3386208713054657, 0.11084212362766266, -3.2735376358032227, -2.604109764099121, -0.24749755859375, -0.00048828125, -0.12890625, -0.7314453125, 0, 
329, 308617815, 26.839771270751953, -88.85945129394531, 70.93338775634766, 9.392128944396973, 0.09311500191688538, 0.0988723561167717, -3.2468478679656982, -2.9095849990844727, -0.3057699501514435, -0.00341796875, -0.13134765625, -0.732421875, 0, 
330, 308626148, 26.87732696533203, -88.86082458496094, 70.89568328857422, 9.680497169494629, -0.0640399232506752, 0.23372423648834229, -3.1737959384918213, -2.9812278747558594, -0.3988264501094818, -0.0009765625, -0.1298828125, -0.73095703125, 0, 
331, 308634481, 26.897096633911133, -88.86151123046875, 70.876220703125, 10.0914888381958, -0.015416420996189117, 0.14572735130786896, -3.127997875213623, -2.9047696590423584, -0.39293521642684937, -0.0009765625, -0.13134765625, -0.7314453125, 0, 
332, 308642814, 26.87519645690918, -88.8599624633789, 70.89822387695312, 10.164311408996582, 0.06211226060986519, 0.16228008270263672, -3.179328680038452, -2.6042375564575195, -0.42825719714164734, -0.00390625, -0.1298828125, -0.7294921875, 0, 
333, 308651147, 26.79429817199707, -88.8587646484375, 70.98009490966797, 9.778510093688965, 0.28287720680236816, 0.06866757571697235, -3.1174185276031494, -2.605287790298462, -0.2745974063873291, -0.00244140625, -0.12939453125, -0.73193359375, 0, 
334, 308659480, 26.768110275268555, -88.8587646484375, 71.00637817382812, 9.38963508605957, 0.20003370940685272, 0.12188586592674255, -3.196439027786255, -2.799213171005249, -0.31903815269470215, -0.001953125, -0.12841796875, -0.7294921875, 0, 
335, 308667813, 26.814632415771484, -88.86013793945312, 70.95912170410156, 9.607635498046875, 0.009241355583071709, 0.23828962445259094, -3.280991554260254, -3.0071499347686768, -0.4175248444080353, -0.00341796875, -0.12939453125, -0.73046875, 0, 
336, 308676146, 26.929182052612305, -88.86185455322266, 70.8447265625, 9.977757453918457, -0.09842125326395035, 0.17660808563232422, -3.1965925693511963, -3.1385252475738525, -0.5220053195953369, -0.001953125, -0.13037109375, -0.7333984375, 0, 
337, 308684479, 26.952558517456055, -88.86082458496094, 70.82152557373047, 10.166194915771484, 0.08063996583223343, 0.1369008719921112, -3.192315101623535, -2.7457308769226074, -0.484454870223999, -0.00244140625, -0.1279296875, -0.73095703125, 0, 
338, 308692812, 26.885854721069336, -88.8591079711914, 70.88855743408203, 9.911856651306152, 0.18352191150188446, 0.08800677210092545, -3.137730360031128, -2.527061700820923, -0.34695759415626526, -0.0009765625, -0.1318359375, -0.7314453125, 0, 
339, 308701145, 26.83418083190918, -88.8591079711914, 70.94086456298828, 9.465840339660645, 0.2928868234157562, 0.12236601114273071, -3.133735179901123, -2.774162769317627, -0.2670668363571167, -0.00341796875, -0.12939453125, -0.73046875, 0, 
340, 308709478, 26.819194793701172, -88.86116790771484, 70.95564270019531, 9.469942092895508, 0.0870816558599472, 0.15134896337985992, -3.209630250930786, -3.00105357170105, -0.24724143743515015, -0.0029296875, -0.12841796875, -0.72900390625, 0, 
341, 308717811, 26.88138198852539, -88.86323547363281, 70.89340209960938, 9.814193725585938, -0.1473955363035202, 0.2032029628753662, -3.2063775062561035, -3.128612518310547, -0.39508679509162903, -0.001953125, -0.1279296875, -0.73095703125, 0, 
342, 308726144, 26.96112632751465, -88.86426544189453, 70.81451416015625, 10.115422248840332, -0.011645898222923279, 0.1843157708644867, -3.090242385864258, -3.0007717609405518, -0.49869638681411743, -0.0009765625, -0.126953125, -0.7314453125, 0, 
343, 308734477, 26.9381046295166, -88.86185455322266, 70.83841705322266, 10.06738567352295, 0.110197514295578, 0.141622394323349, -3.118443012237549, -2.572680950164795, -0.4469555914402008, -0.00244140625, -0.1298828125, -0.72998046875, 0, 
344, 308742810, 26.8817081451416, -88.86048126220703, 70.89325714111328, 9.687909126281738, 0.3430492877960205, 0.08895725756883621, -3.2189533710479736, -2.4810073375701904, -0.3995436131954193, -0.00048828125, -0.12939453125, -0.73095703125, 0, 
345, 308751143, 26.858280181884766, -88.86134338378906, 70.91598510742188, 9.420951843261719, 0.1233091875910759, 0.12256734818220139, -3.262805461883545, -2.882664680480957, -0.2921944260597229, -0.00048828125, -0.12890625, -0.73193359375, 0, 
346, 308759476, 26.855327606201172, -88.86219787597656, 70.91797637939453, 9.600301742553711, -0.08314133435487747, 0.1944579780101776, -3.331246852874756, -2.92047119140625, -0.3232388496398926, -0.00341796875, -0.12841796875, -0.7314453125, 0, 
347, 308767809, 26.89289665222168, -88.8637466430664, 70.88065338134766, 10.006082534790039, -0.06266765296459198, 0.1303386688232422, -3.1318657398223877, -3.016627073287964, -0.3824077248573303, -0.0029296875, -0.130859375, -0.7314453125, 0, 
348, 308776142, 26.910446166992188, -88.86185455322266, 70.86507415771484, 10.169479370117188, 0.09742007404565811, 0.17740100622177124, -2.9667305946350098, -2.6330790519714355, -0.5169593095779419, -0.00439453125, -0.1298828125, -0.7314453125, 0, 
349, 308784475, 26.855117797851562, -88.86082458496094, 70.92066955566406, 9.876289367675781, 0.3611527383327484, 0.12454119324684143, -3.1448006629943848, -2.636690855026245, -0.3281055688858032, 0, -0.12841796875, -0.732421875, 0, 
350, 308792808, 26.846553802490234, -88.86151123046875, 70.9290542602539, 9.462043762207031, 0.24323788285255432, 0.16965386271476746, -3.265059471130371, -2.8830490112304688, -0.3268248736858368, -0.0029296875, -0.12939453125, -0.72998046875, 0, 
351, 308801141, 26.848678588867188, -88.86323547363281, 70.92587280273438, 9.532978057861328, -0.008672384545207024, 0.170673668384552, -3.3136496543884277, -3.008558511734009, -0.2952424883842468, -0.00146484375, -0.126953125, -0.72900390625, 0, 
352, 308809474, 26.89919090270996, -88.86443328857422, 70.8750991821289, 9.87024974822998, -0.18575814366340637, 0.1581411510705948, -3.2346553802490234, -2.9817917346954346, -0.4345327317714691, -0.0009765625, -0.126953125, -0.7314453125, 0, 
353, 308817807, 26.968809127807617, -88.8637466430664, 70.80682373046875, 10.157210350036621, 0.032609980553388596, 0.16095198690891266, -3.073439359664917, -2.835944175720215, -0.559299647808075, -0.001953125, -0.12939453125, -0.73095703125, 0, 
354, 308826140, 26.947887420654297, -88.86185455322266, 70.82862854003906, 10.03052806854248, 0.2100319266319275, 0.12404149770736694, -3.0172669887542725, -2.596348285675049, -0.4322017729282379, -0.0009765625, -0.126953125, -0.7314453125, 0, 
355, 308834473, 26.866737365722656, -88.86168670654297, 70.90911865234375, 9.497405052185059, 0.2986483573913574, 0.15429840981960297, -3.2862424850463867, -2.6882524490356445, -0.23607361316680908, -0.001953125, -0.12841796875, -0.7294921875, 0, 
356, 308842806, 26.87677001953125, -88.86357879638672, 70.8985595703125, 9.420754432678223, 0.06215590238571167, 0.16950573027133942, -3.215162992477417, -3.0150904655456543, -0.30781909823417664, -0.00244140625, -0.12939453125, -0.73095703125, 0, 
357, 308851139, 26.984386444091797, -88.86357879638672, 70.79100036621094, 9.778773307800293, -0.09446685016155243, 0.20869849622249603, -3.2103729248046875, -2.9737486839294434, -0.5924701690673828, 0, -0.1279296875, -0.728515625, 0, 
358, 308859472, 27.05010986328125, -88.86443328857422, 70.72561645507812, 10.21205997467041, 0.08196229487657547, 0.1358005553483963, -3.0893969535827637, -2.9263110160827637, -0.499285489320755, -0.00390625, -0.130859375, -0.73291015625, 0, 
359, 308867805, 27.02012825012207, -88.86254119873047, 70.75724029541016, 10.09652328491211, 0.16907380521297455, 0.08881886303424835, -3.0516159534454346, -2.61456036567688, -0.4060240387916565, -0.00048828125, -0.12841796875, -0.73046875, 0, 
360, 308876138, 26.9636173248291, -88.86219787597656, 70.81238555908203, 9.575152397155762, 0.33401572704315186, 0.07017804682254791, -3.291698694229126, -2.666429042816162, -0.30876684188842773, -0.00390625, -0.12890625, -0.73291015625, 0, 
361, 308884471, 26.90498161315918, -88.86288452148438, 70.87075805664062, 9.340354919433594, 0.055062562227249146, 0.11837022006511688, -3.229891061782837, -2.846240997314453, -0.21448078751564026, -0.0009765625, -0.126953125, -0.72900390625, 0, 
362, 308892804, 27.016130447387695, -88.86426544189453, 70.7593994140625, 9.707700729370117, -0.11371957510709763, 0.20383571088314056, -3.2217202186584473, -3.0654735565185547, -0.5508981943130493, -0.00439453125, -0.12890625, -0.73095703125, 0, 
363, 308901137, 27.094318389892578, -88.86529541015625, 70.682373046875, 10.103409767150879, -0.043037302792072296, 0.16239526867866516, -3.079766035079956, -3.0071752071380615, -0.49475181102752686, -0.00341796875, -0.126953125, -0.72998046875, 0, 
364, 308909470, 27.081567764282227, -88.86460876464844, 70.69551086425781, 10.186812400817871, 0.11584396660327911, 0.14393584430217743, -3.120722770690918, -2.7324624061584473, -0.38722318410873413, -0.001953125, -0.12939453125, -0.73046875, 0, 
365, 308917803, 26.978729248046875, -88.8637466430664, 70.79888916015625, 9.79214096069336, 0.2847667634487152, 0.0916757807135582, -3.105123996734619, -2.5811848640441895, -0.23061776161193848, -0.00439453125, -0.12890625, -0.73291015625, 0, 
366, 308926136, 26.939861297607422, -88.8630599975586, 70.838623046875, 9.360124588012695, 0.1907585710287094, 0.17390507459640503, -3.244235038757324, -2.7901203632354736, -0.2891206443309784, -0.00146484375, -0.12939453125, -0.732421875, 0, 
367, 308934469, 26.98345375061035, -88.86426544189453, 70.79463958740234, 9.57868480682373, 0.04432247579097748, 0.17913931608200073, -3.2295327186584473, -2.980433940887451, -0.4219305217266083, -0.00146484375, -0.12939453125, -0.7314453125, 0, 
368, 308942802, 27.049785614013672, -88.86581420898438, 70.72869873046875, 9.98117446899414, -0.10656019300222397, 0.15294384956359863, -3.0756936073303223, -3.0089941024780273, -0.4558694064617157, -0.001953125, -0.12841796875, -0.73095703125, 0, 
369, 308951135, 27.087310791015625, -88.86426544189453, 70.69068145751953, 10.193717956542969, 0.06677810847759247, 0.0964064970612526, -3.230736494064331, -2.720808506011963, -0.5362981557846069, -0.00341796875, -0.12890625, -0.7275390625, 0, 
370, 308959468, 27.012109756469727, -88.86357879638672, 70.76644134521484, 9.932157516479492, 0.26183733344078064, 0.09687633812427521, -3.1164965629577637, -2.623371124267578, -0.2755450904369354, -0.00244140625, -0.1279296875, -0.73095703125, 0, 
371, 308967801, 26.95578956604004, -88.86219787597656, 70.82242584228516, 9.49169635772705, 0.2815341353416443, 0.12512530386447906, -3.2505104541778564, -2.6277003288269043, -0.33212700486183167, -0.0009765625, -0.12939453125, -0.7314453125, 0, 
372, 308976134, 26.92993927001953, -88.8639144897461, 70.84700775146484, 9.514381408691406, 0.038899172097444534, 0.18702924251556396, -3.236192226409912, -2.9315366744995117, -0.2547207772731781, -0.00341796875, -0.13037109375, -0.732421875, 0, 
373, 308984467, 26.99348258972168, -88.8659896850586, 70.78300476074219, 9.820231437683105, -0.15234938263893127, 0.15157604217529297, -3.219748020172119, -3.1065075397491455, -0.4077146053314209, -0.00146484375, -0.12744140625, -0.7314453125, 0, 
374, 308992800, 27.036319732666016, -88.86616516113281, 70.741455078125, 10.127016067504883, 0.011466966941952705, 0.10071603208780289, -3.120159864425659, -2.8770806789398193, -0.46291324496269226, -0.0029296875, -0.1279296875, -0.73095703125, 0, 
375, 309001133, 27.043895721435547, -88.86495208740234, 70.7347183227539, 10.041467666625977, 0.09137989580631256, 0.12099488079547882, -3.093264579772949, -2.7107160091400146, -0.4577391743659973, -0.001953125, -0.1298828125, -0.7294921875, 0, 
376, 309009466, 26.98003387451172, -88.86409759521484, 70.79865264892578, 9.643895149230957, 0.35502833127975464, 0.1270509511232376, -3.163447618484497, -2.6630477905273438, -0.2865336239337921, -0.0009765625, -0.12939453125, -0.728515625, 0, 
377, 309017799, 26.892763137817383, -88.86460876464844, 70.88463592529297, 9.4559326171875, 0.17361176013946533, 0.14080187678337097, -3.281939744949341, -2.7635586261749268, -0.18236057460308075, -0.00341796875, -0.12939453125, -0.73095703125, 0, 
378, 309026132, 26.92184829711914, -88.86616516113281, 70.85501098632812, 9.697673797607422, -0.0641600489616394, 0.19322310388088226, -3.281529426574707, -3.0046396255493164, -0.36299213767051697, -0.00341796875, -0.12841796875, -0.73046875, 0, 
379, 309034465, 26.986980438232422, -88.8663330078125, 70.79022979736328, 10.033302307128906, -0.06291539967060089, 0.14834293723106384, -3.1858091354370117, -2.9295642375946045, -0.5005661845207214, -0.00341796875, -0.12890625, -0.73193359375, 0, 
380, 309042798, 26.944963455200195, -88.86478424072266, 70.83251953125, 10.121105194091797, 0.08198016881942749, 0.1447824090719223, -3.169825792312622, -2.5843610763549805, -0.387325644493103, -0.00048828125, -0.12939453125, -0.7333984375, 0, 
381, 309051131, 26.870210647583008, -88.86254119873047, 70.90766143798828, 9.793063163757324, 0.31953033804893494, 0.09932084381580353, -3.2033028602600098, -2.5315182209014893, -0.3304363787174225, -0.00244140625, -0.12890625, -0.73046875, 0, 
382, 309059464, 26.815670013427734, -88.86254119873047, 70.9604721069336, 9.413501739501953, 0.15178075432777405, 0.10854528099298477, -3.3016879558563232, -2.7263152599334717, -0.2849455773830414, -0.00439453125, -0.12890625, -0.7275390625, 0, 
383, 309067797, 26.83781623840332, -88.8639144897461, 70.93827056884766, 9.539639472961426, -0.01170259341597557, 0.18851338326931, -3.1777660846710205, -2.973057270050049, -0.3649388253688812, -0.00048828125, -0.1298828125, -0.728515625, 0, 
384, 309076130, 26.913515090942383, -88.86495208740234, 70.86241912841797, 9.917037010192871, -0.13240309059619904, 0.16763456165790558, -3.225254774093628, -2.98793888092041, -0.4966984689235687, -0.001953125, -0.12890625, -0.73291015625, 0, 
385, 309084463, 26.96334457397461, -88.8630599975586, 70.81307983398438, 10.219779014587402, 0.08309099823236465, 0.15416748821735382, -3.1486170291900635, -2.6916332244873047, -0.5808667540550232, -0.0009765625, -0.12939453125, -0.72998046875, 0, 
386, 309092796, 26.886207580566406, -88.86254119873047, 70.8904800415039, 9.993552207946777, 0.2573087215423584, 0.10325987637042999, -3.086118459701538, -2.608976364135742, -0.28010445833206177, -0.00048828125, -0.1298828125, -0.73193359375, 0, 
387, 309101129, 26.840587615966797, -88.86134338378906, 70.93692016601562, 9.477673530578613, 0.27213266491889954, 0.14163775742053986, -3.119544744491577, -2.6581554412841797, -0.3418347239494324, -0.00244140625, -0.12841796875, -0.73046875, 0, 
388, 309109462, 26.838781356811523, -88.86323547363281, 70.93830871582031, 9.406630516052246, 0.0630926862359047, 0.10731712728738785, -3.2439534664154053, -2.9947011470794678, -0.2876094579696655, -0.0009765625, -0.1298828125, -0.73095703125, 0, 
389, 309117795, 26.870698928833008, -88.86460876464844, 70.9061508178711, 9.76030158996582, -0.1876545548439026, 0.18620434403419495, -3.2490763664245605, -2.9985690116882324, -0.38005125522613525, -0.00439453125, -0.12939453125, -0.72998046875, 0, 
390, 309126128, 26.956356048583984, -88.86495208740234, 70.82056427001953, 10.175232887268066, 0.019383328035473824, 0.18748892843723297, -3.1595802307128906, -2.9410393238067627, -0.5445458889007568, -0.00146484375, -0.12744140625, -0.7314453125, 0, 
391, 309134461, 26.969234466552734, -88.86357879638672, 70.80789184570312, 10.12960147857666, 0.13975492119789124, 0.115022674202919, -3.140906810760498, -2.670808792114258, -0.4949054419994354, -0.00341796875, -0.13037109375, -0.73046875, 0, 
392, 309142794, 26.848289489746094, -88.86082458496094, 70.92959594726562, 9.647387504577637, 0.35591256618499756, 0.09977775067090988, -3.1921610832214355, -2.4688920974731445, -0.2325131893157959, -0.0029296875, -0.12939453125, -0.7314453125, 0, 
393, 309151127, 26.831830978393555, -88.86168670654297, 70.9457778930664, 9.36670207977295, 0.1394737809896469, 0.11016323417425156, -3.2637786865234375, -2.8987247943878174, -0.30146676301956177, 0, -0.13037109375, -0.73046875, 0, 
394, 309159460, 26.853870391845703, -88.86323547363281, 70.92191314697266, 9.662663459777832, -0.05245242640376091, 0.2086012214422226, -3.3221278190612793, -2.9489541053771973, -0.37659332156181335, -0.0029296875, -0.12890625, -0.72998046875, 0, 
395, 309167793, 26.895536422729492, -88.8637466430664, 70.88026428222656, 10.069567680358887, -0.051724061369895935, 0.15289796888828278, -3.188575267791748, -2.9283857345581055, -0.4400653541088104, -0.00390625, -0.12744140625, -0.73046875, 0, 
396, 309176126, 26.882993698120117, -88.86219787597656, 70.89295196533203, 10.172059059143066, 0.09828385710716248, 0.13418330252170563, -3.142059326171875, -2.5921218395233154, -0.4603005349636078, -0.00341796875, -0.12939453125, -0.728515625, 0, 
397, 309184459, 26.821578979492188, -88.86151123046875, 70.95388793945312, 9.794722557067871, 0.2814148962497711, 0.09596268087625504, -3.2446706295013428, -2.6903529167175293, -0.28763502836227417, -0.0009765625, -0.12841796875, -0.72802734375, 0, 
398, 309192792, 26.782894134521484, -88.86099243164062, 70.99222564697266, 9.389620780944824, 0.18969641625881195, 0.12469477206468582, -3.2807610034942627, -2.749316692352295, -0.31201982498168945, -0.0029296875, -0.12841796875, -0.73095703125, 0, 
399, 309201125, 26.83775520324707, -88.86185455322266, 70.93663787841797, 9.586467742919922, 0.014868066646158695, 0.20599301159381866, -3.327173948287964, -2.9778213500976562, -0.4536409378051758, -0.0009765625, -0.12939453125, -0.73193359375, 0, 
400, 309209458, 26.892948150634766, -88.86323547363281, 70.88098907470703, 9.935993194580078, -0.1300303190946579, 0.1693614274263382, -3.221848249435425, -3.0020265579223633, -0.43591582775115967, -0.00244140625, -0.1298828125, -0.73193359375, 0, 
401, 309217791, 26.95025634765625, -88.86151123046875, 70.82386779785156, 10.151834487915039, 0.07778533548116684, 0.15026120841503143, -3.186270236968994, -2.718144416809082, -0.5883461833000183, -0.00390625, -0.1298828125, -0.73046875, 0, 
402, 309226124, 26.913454055786133, -88.86082458496094, 70.86019897460938, 9.942371368408203, 0.1854880452156067, 0.0825614482164383, -3.148822069168091, -2.616788625717163, -0.3840726613998413, -0.0029296875, -0.12890625, -0.7314453125, 0, 
403, 309234457, 26.85804557800293, -88.8591079711914, 70.91522979736328, 9.499086380004883, 0.2914244830608368, 0.13339626789093018, -3.2377545833587646, -2.580800771713257, -0.3582278788089752, -0.00390625, -0.12890625, -0.73095703125, 0, 
404, 309242790, 26.84967803955078, -88.86082458496094, 70.92265319824219, 9.504963874816895, 0.10824611783027649, 0.134955495595932, -3.3146488666534424, -2.9942145347595215, -0.27098581194877625, -0.001953125, -0.12841796875, -0.73095703125, 0, 
405, 309251123, 26.8845272064209, -88.86219787597656, 70.88700866699219, 9.776050567626953, -0.11224304884672165, 0.19162628054618835, -3.2620880603790283, -2.993779182434082, -0.3904505968093872, -0.0009765625, -0.12890625, -0.73291015625, 0, 
406, 309259456, 26.92537498474121, -88.86288452148438, 70.84699249267578, 10.131366729736328, -0.01574370265007019, 0.10954345762729645, -3.0735933780670166, -2.910071849822998, -0.4389127492904663, -0.00244140625, -0.12939453125, -0.72998046875, 0, 
407, 309267789, 26.92713737487793, -88.86151123046875, 70.8459701538086, 10.086137771606445, 0.11643318831920624, 0.16328229010105133, -3.0877318382263184, -2.660640001296997, -0.46685779094696045, -0.0029296875, -0.12890625, -0.72900390625, 0, 
408, 309276122, 26.86500358581543, -88.86064910888672, 70.9080581665039, 9.661499977111816, 0.3376801908016205, 0.13342532515525818, -3.194978713989258, -2.656311511993408, -0.29777824878692627, -0.00390625, -0.1279296875, -0.72998046875, 0, 
409, 309284455, 26.76372528076172, -88.86237335205078, 71.00849151611328, 9.397323608398438, 0.09031656384468079, 0.10307712107896805, -3.317901611328125, -2.887813091278076, -0.08031343668699265, -0.00244140625, -0.13037109375, -0.7294921875, 0, 
410, 309292788, 26.827802658081055, -88.86460876464844, 70.94363403320312, 9.601508140563965, -0.12494132667779922, 0.17408297955989838, -3.237114191055298, -3.105482816696167, -0.40620335936546326, -0.00390625, -0.1298828125, -0.73095703125, 0, 
411, 309301121, 26.8945369720459, -88.86495208740234, 70.87793731689453, 10.017861366271973, -0.08015049248933792, 0.18579994142055511, -3.036221981048584, -2.8989551067352295, -0.5202891230583191, -0.00244140625, -0.12890625, -0.7294921875, 0, 
412, 309309454, 26.92459487915039, -88.86219787597656, 70.84949493408203, 10.195435523986816, 0.13564041256904602, 0.1469816118478775, -3.1407275199890137, -2.659794569015503, -0.5382702946662903, -0.00341796875, -0.12841796875, -0.73095703125, 0, 
413, 309317787, 26.88603401184082, -88.86064910888672, 70.88821411132812, 9.870013236999512, 0.35903725028038025, 0.11634871363639832, -3.163447380065918, -2.592531681060791, -0.39695653319358826, -0.00439453125, -0.12939453125, -0.73095703125, 0, 
414, 309326120, 26.838945388793945, -88.86185455322266, 70.93517303466797, 9.419137001037598, 0.22727911174297333, 0.13614174723625183, -3.24169921875, -2.890451192855835, -0.21863031387329102, 0, -0.1298828125, -0.73095703125, 0, 
415, 309334453, 26.839950561523438, -88.86288452148438, 70.93315887451172, 9.519201278686523, 0.021222146227955818, 0.179831862449646, -3.280761241912842, -2.924774646759033, -0.3352007269859314, -0.00341796875, -0.1298828125, -0.732421875, 0, 
416, 309342786, 26.928524017333984, -88.86564636230469, 70.84349060058594, 9.904315948486328, -0.1678132563829422, 0.16475684940814972, -3.310678482055664, -3.15883731842041, -0.4462384283542633, -0.001953125, -0.12939453125, -0.73095703125, 0, 
417, 309351119, 26.979829788208008, -88.86512756347656, 70.79303741455078, 10.180858612060547, 0.04956218600273132, 0.13437144458293915, -3.1385507583618164, -2.85461688041687, -0.5010784864425659, -0.00341796875, -0.1298828125, -0.7314453125, 0, 
418, 309359452, 26.943283081054688, -88.86426544189453, 70.83057403564453, 9.970815658569336, 0.21614469587802887, 0.1152888834476471, -3.0546891689300537, -2.6723456382751465, -0.35553833842277527, -0.00341796875, -0.12939453125, -0.728515625, 0, 
419, 309367785, 26.866870880126953, -88.86443328857422, 70.90689086914062, 9.479193687438965, 0.27329394221305847, 0.11074008047580719, -3.1935958862304688, -2.7421963214874268, -0.2197829633951187, -0.0009765625, -0.12841796875, -0.73193359375, 0, 
420, 309376118, 26.836742401123047, -88.86581420898438, 70.9371109008789, 9.450331687927246, 0.03229919448494911, 0.16764475405216217, -3.2932608127593994, -2.9484164714813232, -0.23489536345005035, -0.00341796875, -0.12890625, -0.732421875, 0, 
421, 309384451, 26.944293975830078, -88.86719512939453, 70.82963562011719, 9.802539825439453, -0.14700235426425934, 0.21963819861412048, -3.1709017753601074, -3.1006674766540527, -0.5274355411529541, -0.00244140625, -0.1279296875, -0.7275390625, 0, 
422, 309392784, 27.035919189453125, -88.86719512939453, 70.73778533935547, 10.197383880615234, 0.07537113130092621, 0.15237610042095184, -3.163191795349121, -2.8628904819488525, -0.6003592610359192, -0.001953125, -0.12939453125, -0.72998046875, 0, 
423, 309401117, 27.001558303833008, -88.8659896850586, 70.7723617553711, 10.099194526672363, 0.18372030556201935, 0.11280510574579239, -3.202944755554199, -2.6553890705108643, -0.3779764473438263, -0.00341796875, -0.130859375, -0.73095703125, 0, 
424, 309409450, 26.890811920166016, -88.8639144897461, 70.8821029663086, 9.53841781616211, 0.3167286515235901, 0.04785040020942688, -3.2251267433166504, -2.4550859928131104, -0.2697562873363495, -0.0009765625, -0.1279296875, -0.73095703125, 0, 
425, 309417783, 26.880308151245117, -88.865478515625, 70.89118194580078, 9.344919204711914, 0.06297869235277176, 0.12983167171478271, -3.386291265487671, -2.9725704193115234, -0.2827427387237549, -0.00244140625, -0.1298828125, -0.73291015625, 0, 
426, 309426116, 26.961549758911133, -88.86702728271484, 70.810302734375, 9.715333938598633, -0.10732735693454742, 0.19887810945510864, -3.151050329208374, -3.0697507858276367, -0.46532106399536133, -0.0009765625, -0.12939453125, -0.73291015625, 0, 
427, 309434449, 27.027210235595703, -88.868408203125, 70.74468231201172, 10.151851654052734, -0.016595464199781418, 0.1416323482990265, -3.138678789138794, -3.0128872394561768, -0.45991644263267517, -0.00244140625, -0.12939453125, -0.73291015625, 0, 
428, 309442782, 27.019630432128906, -88.8659896850586, 70.7529296875, 10.170270919799805, 0.14243105053901672, 0.13644176721572876, -3.1627049446105957, -2.591738224029541, -0.47484949231147766, -0.00439453125, -0.13037109375, -0.73291015625, 0, 
429, 309451115, 26.981271743774414, -88.86495208740234, 70.79191589355469, 9.733779907226562, 0.31514808535575867, 0.14177514612674713, -3.189779043197632, -2.6628174781799316, -0.3603026270866394, -0.0029296875, -0.13037109375, -0.7314453125, 0, 
430, 309459448, 26.938819885253906, -88.86460876464844, 70.83367919921875, 9.348767280578613, 0.1470291018486023, 0.10784986615180969, -3.2256646156311035, -2.6983699798583984, -0.32941189408302307, -0.0029296875, -0.1298828125, -0.7294921875, 0, 
431, 309467781, 26.951475143432617, -88.8663330078125, 70.8201904296875, 9.605914115905762, 0.002361023100093007, 0.18679122626781464, -3.268338203430176, -3.0060484409332275, -0.32595396041870117, -0.00244140625, -0.12841796875, -0.7333984375, 0, 
432, 309476114, 27.016807556152344, -88.86737060546875, 70.75472259521484, 9.995832443237305, -0.12273450195789337, 0.14849887788295746, -3.234245538711548, -3.0126054286956787, -0.4549728333950043, -0.0029296875, -0.13037109375, -0.72900390625, 0, 
433, 309484447, 27.057697296142578, -88.8663330078125, 70.71380615234375, 10.202523231506348, 0.08790019899606705, 0.1395312398672104, -3.2499215602874756, -2.7708840370178223, -0.5183680653572083, -0.00146484375, -0.126953125, -0.72998046875, 0, 
434, 309492780, 26.92569351196289, -88.86564636230469, 70.84559631347656, 9.895462036132812, 0.27446845173835754, 0.07462409883737564, -3.121900796890259, -2.540893316268921, -0.16699199378490448, -0.00439453125, -0.12841796875, -0.73291015625, 0, 
435, 309501113, 26.86785888671875, -88.86564636230469, 70.90245819091797, 9.450862884521484, 0.27113232016563416, 0.12416395545005798, -3.3009450435638428, -2.728543519973755, -0.27726131677627563, -0.00390625, -0.12841796875, -0.73046875, 0, 
436, 309509446, 26.89853858947754, -88.86702728271484, 70.87185668945312, 9.517261505126953, 0.04066954925656319, 0.2064196765422821, -3.1867055892944336, -3.0351972579956055, -0.35323309898376465, -0.0009765625, -0.12890625, -0.72900390625, 0, 
437, 309517779, 26.96929359436035, -88.86944580078125, 70.8022232055664, 9.870370864868164, -0.1388682872056961, 0.18726971745491028, -3.102332353591919, -3.127101182937622, -0.41237637400627136, -0.00048828125, -0.12841796875, -0.73291015625, 0, 
438, 309526112, 27.004796981811523, -88.86823272705078, 70.76702117919922, 10.149133682250977, 0.032025083899497986, 0.08221627026796341, -3.183759927749634, -2.77764630317688, -0.4958019554615021, -0.00146484375, -0.12890625, -0.73095703125, 0, 
439, 309534445, 26.98255729675293, -88.86737060546875, 70.78980255126953, 10.000530242919922, 0.11864100396633148, 0.11224798858165741, -3.11124587059021, -2.689789295196533, -0.38837581872940063, -0.00244140625, -0.13037109375, -0.72998046875, 0, 
440, 309542778, 26.936498641967773, -88.86702728271484, 70.83597564697266, 9.57798957824707, 0.3542492091655731, 0.1399911344051361, -3.1676993370056152, -2.6822586059570312, -0.3274395763874054, -0.00146484375, -0.12744140625, -0.72900390625, 0, 
441, 309551111, 26.89324951171875, -88.8680648803711, 70.8783950805664, 9.448990821838379, 0.1490297019481659, 0.12388184666633606, -3.305248260498047, -2.9117624759674072, -0.22403493523597717, -0.00244140625, -0.12890625, -0.73046875, 0, 
442, 309559444, 26.972820281982422, -88.86944580078125, 70.7974853515625, 9.733728408813477, -0.11516602337360382, 0.1996234655380249, -3.291954517364502, -3.0150387287139893, -0.49546897411346436, -0.001953125, -0.12841796875, -0.73046875, 0, 
443, 309567777, 27.036375045776367, -88.86944580078125, 70.7345199584961, 10.100327491760254, -0.041582997888326645, 0.12657275795936584, -3.1529974937438965, -2.8890938758850098, -0.515781044960022, -0.001953125, -0.12890625, -0.7333984375, 0, 
444, 309576110, 27.041839599609375, -88.868408203125, 70.72869110107422, 10.100485801696777, 0.11749494075775146, 0.13237105309963226, -3.2360129356384277, -2.7280313968658447, -0.44219139218330383, -0.00390625, -0.12890625, -0.728515625, 0, 
445, 309584443, 27.00545883178711, -88.86719512939453, 70.76475524902344, 9.769079208374023, 0.362880676984787, 0.1159348338842392, -3.234757900238037, -2.6415836811065674, -0.3778740167617798, -0.00244140625, -0.1318359375, -0.72802734375, 0, 
446, 309592776, 26.96974754333496, -88.86823272705078, 70.79894256591797, 9.397096633911133, 0.13198524713516235, 0.08746931701898575, -3.283501386642456, -2.8346376419067383, -0.2784651517868042, -0.0009765625, -0.1298828125, -0.7314453125, 0, 
447, 309601109, 26.99077606201172, -88.86944580078125, 70.77757263183594, 9.578447341918945, -0.03572923690080643, 0.16516472399234772, -3.242826461791992, -2.973569631576538, -0.36306899785995483, -0.00244140625, -0.12890625, -0.73095703125, 0, 
448, 309609442, 27.00023078918457, -88.8701400756836, 70.76871490478516, 9.998200416564941, -0.1161789745092392, 0.16486874222755432, -3.1264355182647705, -2.9056406021118164, -0.3579973876476288, -0.00146484375, -0.1298828125, -0.73095703125, 0, 
449, 309617775, 27.041597366333008, -88.86892700195312, 70.72834777832031, 10.208453178405762, 0.09344102442264557, 0.1312582641839981, -3.061630964279175, -2.707463026046753, -0.5489514470100403, -0.0048828125, -0.12890625, -0.72998046875, 0, 
450, 309626108, 26.947465896606445, -88.86823272705078, 70.82296752929688, 9.920364379882812, 0.2928423583507538, 0.10376238077878952, -3.1157538890838623, -2.6308510303497314, -0.22575104236602783, -0.00341796875, -0.12890625, -0.7314453125, 0, 
451, 309634441, 26.87584686279297, -88.86771392822266, 70.89364624023438, 9.42302131652832, 0.24145393073558807, 0.11228694766759872, -3.2823750972747803, -2.6611783504486084, -0.27610868215560913, -0.00341796875, -0.12890625, -0.72900390625, 0, 
452, 309642774, 26.867849349975586, -88.8687515258789, 70.90040588378906, 9.439464569091797, 0.012766437605023384, 0.14965243637561798, -3.3616762161254883, -2.936274766921997, -0.3023376166820526, -0.001953125, -0.1279296875, -0.73046875, 0, 
453, 309651107, 26.948610305786133, -88.86996459960938, 70.81948852539062, 9.82862663269043, -0.20737439393997192, 0.19172081351280212, -3.2513303756713867, -3.0634500980377197, -0.47661688923835754, -0.001953125, -0.12890625, -0.7333984375, 0, 
454, 309659440, 27.02350425720215, -88.86978912353516, 70.74398040771484, 10.228485107421875, 0.04582693800330162, 0.1496841460466385, -3.2274067401885986, -2.853285074234009, -0.5610926747322083, -0.00390625, -0.1298828125, -0.73046875, 0, 
455, 309667773, 26.987653732299805, -88.8680648803711, 70.78038024902344, 10.08879566192627, 0.20380795001983643, 0.12150981277227402, -3.147285223007202, -2.5976290702819824, -0.3998510241508484, -0.0029296875, -0.12890625, -0.72998046875, 0, 
456, 309676106, 26.907161712646484, -88.86685180664062, 70.85924530029297, 9.552501678466797, 0.3422376811504364, 0.11541260778903961, -3.3365230560302734, -2.5718867778778076, -0.29539617896080017, -0.00341796875, -0.12939453125, -0.73046875, 0, 
457, 309684439, 26.838926315307617, -88.86719512939453, 70.92747497558594, 9.403860092163086, 0.09514561295509338, 0.1389872282743454, -3.19492769241333, -2.781334638595581, -0.22354824841022491, -0.00244140625, -0.12744140625, -0.73046875, 0, 
458, 309692772, 26.933643341064453, -88.86788940429688, 70.83235931396484, 9.73891544342041, -0.11155331879854202, 0.237985298037529, -3.267390251159668, -3.0034613609313965, -0.5395767092704773, -0.00146484375, -0.12939453125, -0.73095703125, 0, 
459, 309701105, 26.985782623291016, -88.868408203125, 70.7803955078125, 10.153898239135742, 0.01347388792783022, 0.11739865690469742, -3.1751792430877686, -2.912044048309326, -0.47556671500205994, -0.0009765625, -0.12939453125, -0.72998046875, 0, 
460, 309709438, 26.984960556030273, -88.86685180664062, 70.78246307373047, 10.099787712097168, 0.0808165967464447, 0.13474330306053162, -3.125563859939575, -2.702288866043091, -0.4352242350578308, -0.001953125, -0.12841796875, -0.73095703125, 0, 
461, 309717771, 26.89967918395996, -88.86564636230469, 70.86756896972656, 9.649489402770996, 0.2974536418914795, 0.09108296036720276, -3.1921098232269287, -2.578930377960205, -0.279284805059433, -0.00244140625, -0.12939453125, -0.73095703125, 0, 
462, 309726104, 26.84503173828125, -88.8663330078125, 70.92118072509766, 9.365690231323242, 0.12186533957719803, 0.0880817249417305, -3.2704641819000244, -2.8033370971679688, -0.24388593435287476, -0.00244140625, -0.12939453125, -0.7294921875, 0, 
463, 309734437, 26.885652542114258, -88.8680648803711, 70.8802719116211, 9.653898239135742, -0.05511074513196945, 0.24649764597415924, -3.2756128311157227, -3.0468006134033203, -0.37866806983947754, 0.00048828125, -0.12939453125, -0.73193359375, 0, 
464, 309742770, 26.96076774597168, -88.86944580078125, 70.80559539794922, 10.050172805786133, -0.033567581325769424, 0.17172743380069733, -3.094545841217041, -3.0256946086883545, -0.4715196490287781, -0.0009765625, -0.1298828125, -0.73291015625, 0, 
465, 309751103, 26.94562530517578, -88.8680648803711, 70.82090759277344, 10.156904220581055, 0.14846661686897278, 0.11127953231334686, -3.143852710723877, -2.6356406211853027, -0.4377088248729706, -0.00341796875, -0.12890625, -0.73193359375, 0, 
466, 309759436, 26.849077224731445, -88.8663330078125, 70.91791534423828, 9.807272911071777, 0.25864699482917786, 0.07323582470417023, -3.1716694831848145, -2.558797597885132, -0.2528252899646759, -0.00341796875, -0.13037109375, -0.7294921875, 0, 
467, 309767769, 26.797080993652344, -88.86529541015625, 70.96923828125, 9.408568382263184, 0.23733104765415192, 0.13570259511470795, -3.2570676803588867, -2.6542625427246094, -0.3326649069786072, -0.00146484375, -0.13037109375, -0.7314453125, 0, 
468, 309776102, 26.779964447021484, -88.86685180664062, 70.98590087890625, 9.55408763885498, 0.05503000691533089, 0.18685437738895416, -3.2886247634887695, -2.9660391807556152, -0.262763649225235, -0.00341796875, -0.12939453125, -0.72900390625, 0, 
469, 309784435, 26.802488327026367, -88.8687515258789, 70.96267700195312, 9.914292335510254, -0.1619066447019577, 0.18953748047351837, -3.2669291496276855, -3.0266168117523193, -0.34145060181617737, -0.00390625, -0.12841796875, -0.72900390625, 0, 
470, 309792768, 26.801197052001953, -88.86823272705078, 70.96492767333984, 10.155404090881348, 0.03666462004184723, 0.14236849546432495, -3.1199803352355957, -2.774111747741699, -0.39570152759552, -0.00341796875, -0.13037109375, -0.73193359375, 0, 
471, 309801101, 26.7930850982666, -88.8663330078125, 70.97427368164062, 9.985852241516113, 0.16906513273715973, 0.11792902648448944, -3.108043909072876, -2.6074137687683105, -0.4658588767051697, 0, -0.12841796875, -0.73046875, 0, 
472, 309809434, 26.736698150634766, -88.86460876464844, 71.02999114990234, 9.566851615905762, 0.3096294105052948, 0.1320057213306427, -3.2285330295562744, -2.559438467025757, -0.3634275496006012, 0.00048828125, -0.12890625, -0.73193359375, 0, 
473, 309817767, 26.676790237426758, -88.86564636230469, 71.08977508544922, 9.476356506347656, 0.10012979060411453, 0.14616082608699799, -3.2445170879364014, -2.9003896713256836, -0.18579287827014923, -0.00341796875, -0.12890625, -0.72900390625, 0, 
474, 309826100, 26.752531051635742, -88.8659896850586, 71.01351928710938, 9.695326805114746, -0.11297372728586197, 0.20039832592010498, -3.203021764755249, -2.913811683654785, -0.5323534607887268, -0.001953125, -0.12890625, -0.7314453125, 0, 
475, 309834433, 26.793636322021484, -88.86564636230469, 70.97267150878906, 10.106690406799316, 0.0012146261287853122, 0.11733148992061615, -3.14469838142395, -2.801774740219116, -0.5016932487487793, -0.0029296875, -0.13134765625, -0.7314453125, 0, 
476, 309842766, 26.780611038208008, -88.86495208740234, 70.98590850830078, 10.141134262084961, 0.12436012178659439, 0.14711596071720123, -3.048798084259033, -2.6723716259002686, -0.41788342595100403, -0.00146484375, -0.12841796875, -0.73291015625, 0, 
477, 309851099, 26.693347930908203, -88.8634033203125, 71.07431030273438, 9.767657279968262, 0.42179226875305176, 0.14396990835666656, -3.0931620597839355, -2.5554165840148926, -0.2823328673839569, -0.00244140625, -0.1298828125, -0.72998046875, 0, 
478, 309859432, 26.578598022460938, -88.86323547363281, 71.18843841552734, 9.430486679077148, 0.19086997210979462, 0.12053409963846207, -3.274331569671631, -2.699984073638916, -0.13684406876564026, -0.0029296875, -0.1318359375, -0.7294921875, 0, 
479, 309867765, 26.591028213500977, -88.86495208740234, 71.17589569091797, 9.600482940673828, -0.09459557384252548, 0.2186087667942047, -3.2487945556640625, -3.0031027793884277, -0.3271065652370453, -0.001953125, -0.12841796875, -0.7294921875, 0, 
480, 309876098, 26.684139251708984, -88.86616516113281, 71.08382415771484, 9.961013793945312, -0.12421151995658875, 0.12799511849880219, -3.125974178314209, -3.062835216522217, -0.5016932487487793, -0.00537109375, -0.1298828125, -0.73046875, 0, 
481, 309884431, 26.731298446655273, -88.86529541015625, 71.0374755859375, 10.161336898803711, 0.06150128319859505, 0.12666387856006622, -3.0941357612609863, -2.756437301635742, -0.5406268239021301, -0.001953125, -0.12939453125, -0.7314453125, 0, 
482, 309892764, 26.67600440979004, -88.86426544189453, 71.09358215332031, 9.881498336791992, 0.25907737016677856, 0.11326716840267181, -3.0911386013031006, -2.6535961627960205, -0.31347984075546265, -0.00146484375, -0.13037109375, -0.73095703125, 0, 
483, 309901097, 26.595233917236328, -88.8634033203125, 71.17301940917969, 9.434932708740234, 0.23479539155960083, 0.08488667011260986, -3.3576037883758545, -2.642019033432007, -0.2619696259498596, -0.0029296875, -0.12890625, -0.73193359375, 0, 
484, 309909430, 26.579381942749023, -88.86426544189453, 71.18856811523438, 9.47330379486084, 0.03621162846684456, 0.1503961980342865, -3.2683634757995605, -2.8862762451171875, -0.3060261011123657, 0, -0.1298828125, -0.73291015625, 0, 
485, 309917763, 26.692686080932617, -88.86495208740234, 71.0759506225586, 9.890578269958496, -0.12693488597869873, 0.19221028685569763, -3.1217479705810547, -3.0430610179901123, -0.571543276309967, -0.0029296875, -0.130859375, -0.73095703125, 0, 
486, 309926096, 26.7468204498291, -88.86426544189453, 71.02172088623047, 10.209702491760254, 0.10875415056943893, 0.13008002936840057, -3.201946258544922, -2.7605104446411133, -0.552281379699707, -0.00390625, -0.13037109375, -0.73193359375, 0, 
