DeviceID;Timestamp;Temperature;GyroX;GyroY;GyroZ;AccelX;AccelY;AccelZ;Dist1;Dist2;Dist3;Err1;Err2;Err3
3.0;1753873516.454437;15.882812;0.77;-1.33;-0.28;0.87962;-0.487634;-0.016104;90.0;0.0;0.0;5.0;0.0;0.0
3.0;1753873516.460221;15.882812;0.77;-1.26;-0.21;0.87962;-0.487634;-0.016104;90.0;0.0;0.0;5.0;0.0;0.0
3.0;1753873516.467217;15.882812;0.7;-1.4;-0.14;0.880474;-0.488244;-0.016592;90.0;0.0;0.0;5.0;0.0;0.0
3.0;1753873516.468165;15.890625;0.63;-1.33;-0.21;0.87962;-0.488732;-0.016104;90.0;0.0;0.0;5.0;0.0;0.0
3.0;1753873516.472899;15.890625;0.63;-1.33;-0.14;0.87962;-0.487024;-0.017202;90.0;0.0;0.0;5.0;0.0;0.0
3.0;1753873516.481291;15.890625;0.77;-1.4;-0.21;0.88023;-0.487756;-0.015738;95.0;0.0;0.0;6.0;0.0;0.0
3.0;1753873516.482211;15.890625;0.77;-1.33;-0.21;0.878888;-0.489342;-0.01708;95.0;0.0;0.0;6.0;0.0;0.0
3.0;1753873516.486939;15.851562;0.77;-1.33;-0.14;0.880962;-0.48556;-0.017324;95.0;0.0;0.0;6.0;0.0;0.0
3.0;1753873516.49199;15.851562;0.77;-1.33;-0.21;0.878034;-0.490318;-0.016348;95.0;0.0;0.0;6.0;0.0;0.0
3.0;1753873516.500572;15.851562;0.7;-1.4;-0.21;0.879864;-0.488854;-0.017202;95.0;0.0;0.0;6.0;0.0;0.0
3.0;1753873516.500922;15.851562;0.77;-1.33;-0.14;0.880718;-0.488244;-0.017446;95.0;0.0;0.0;6.0;0.0;0.0
3.0;1753873516.506351;15.90625;0.77;-1.33;-0.21;0.880718;-0.488122;-0.017812;95.0;0.0;0.0;6.0;0.0;0.0
3.0;1753873516.511074;15.910241;0.82;-1.3;-0.25;0.884552;-0.484386;-0.015309;94.8;0.0;-0.0;6.0;0.0;-0.0
3.0;1753873516.517327;15.90625;0.84;-1.26;-0.21;0.882426;-0.48556;-0.017202;95.0;0.0;0.0;6.0;0.0;0.0
3.0;1753873516.519675;15.90625;0.84;-1.33;-0.21;0.877302;-0.490074;-0.01769;95.0;0.0;0.0;6.0;0.0;0.0
3.0;1753873516.524379;15.945312;0.77;-1.33;-0.21;0.88023;-0.487634;-0.016348;95.0;0.0;0.0;6.0;0.0;0.0
3.0;1753873516.530548;15.945312;0.84;-1.33;-0.14;0.88023;-0.487634;-0.016348;89.0;0.0;0.0;5.0;0.0;0.0
3.0;1753873516.534648;15.945312;0.84;-1.26;-0.21;0.88084;-0.487024;-0.016104;89.0;0.0;0.0;5.0;0.0;0.0
3.0;1753873516.538655;15.945312;0.7;-1.33;-0.21;0.878888;-0.489586;-0.01708;89.0;0.0;0.0;5.0;0.0;0.0
3.0;1753873516.543096;15.9375;0.77;-1.33;-0.14;0.881206;-0.485316;-0.01586;89.0;0.0;0.0;5.0;0.0;0.0
3.0;1753873516.548817;15.9375;0.7;-1.33;-0.14;0.881084;-0.488488;-0.016836;89.0;0.0;0.0;5.0;0.0;0.0
3.0;1753873516.552799;15.9375;0.77;-1.4;0.0;0.877546;-0.489952;-0.017202;89.0;0.0;0.0;5.0;0.0;0.0
3.0;1753873516.557121;15.9375;0.7;-1.4;-0.14;0.881816;-0.483242;-0.01647;89.0;0.0;0.0;5.0;0.0;0.0
3.0;1753873516.564318;15.929688;0.7;-1.33;-0.21;0.876692;-0.492636;-0.017202;89.0;0.0;0.0;5.0;0.0;0.0
3.0;1753873516.566628;15.929688;0.63;-1.4;-0.14;0.876692;-0.492636;-0.017202;89.0;0.0;0.0;5.0;0.0;0.0
3.0;1753873516.571164;15.929688;0.63;-1.4;-0.14;0.878522;-0.488976;-0.01769;89.0;0.0;0.0;5.0;0.0;0.0
3.0;1753873516.579776;15.929688;0.77;-1.26;-0.14;0.881084;-0.487024;-0.01586;91.0;0.0;0.0;6.0;0.0;0.0
3.0;1753873516.580469;15.960938;0.77;-1.33;-0.14;0.880596;-0.487878;-0.017324;91.0;0.0;0.0;6.0;0.0;0.0
3.0;1753873516.585224;15.960938;0.63;-1.26;-0.28;0.878888;-0.489464;-0.015738;91.0;0.0;0.0;6.0;0.0;0.0
3.0;1753873516.590001;15.960938;0.7;-1.26;-0.07;0.881816;-0.482876;-0.016348;91.0;0.0;0.0;6.0;0.0;0.0
3.0;1753873516.598316;15.960938;0.77;-1.33;-0.21;0.87901;-0.489952;-0.016592;91.0;0.0;0.0;6.0;0.0;0.0
3.0;1753873516.599185;15.929688;0.77;-1.33;-0.21;0.878766;-0.489342;-0.016226;91.0;0.0;0.0;6.0;0.0;0.0
3.0;1753873516.603927;15.929688;0.7;-1.26;-0.14;0.881816;-0.484462;-0.017812;91.0;0.0;0.0;6.0;0.0;0.0
3.0;1753873516.612575;15.929688;0.7;-1.33;-0.14;0.878522;-0.490562;-0.016836;91.0;0.0;0.0;6.0;0.0;0.0
3.0;1753873516.613226;15.929688;0.7;-1.33;-0.21;0.880596;-0.489098;-0.017446;91.0;0.0;0.0;6.0;0.0;0.0
3.0;1753873516.61807;15.921875;0.77;-1.33;-0.14;0.88084;-0.487268;-0.01708;91.0;0.0;0.0;6.0;0.0;0.0
3.0;1753873516.622638;15.921875;0.77;-1.33;-0.21;0.881572;-0.488854;-0.01708;91.0;0.0;0.0;6.0;0.0;0.0
3.0;1753873516.628729;15.921875;0.77;-1.33;-0.14;0.87901;-0.48922;-0.017324;95.0;0.0;0.0;5.0;0.0;0.0
3.0;1753873516.632844;15.921875;0.7;-1.26;-0.14;0.880596;-0.485926;-0.015128;95.0;0.0;0.0;5.0;0.0;0.0
3.0;1753873516.637309;15.894531;0.77;-1.26;-0.21;0.881206;-0.487024;-0.017812;95.0;0.0;0.0;5.0;0.0;0.0
3.0;1753873516.641705;15.894531;0.77;-1.33;-0.21;0.877668;-0.491538;-0.016226;95.0;0.0;0.0;5.0;0.0;0.0
3.0;1753873516.647275;15.894531;0.7;-1.26;-0.14;0.881694;-0.483486;-0.018056;95.0;0.0;0.0;5.0;0.0;0.0
3.0;1753873516.650694;15.894531;0.77;-1.26;-0.14;0.878156;-0.489464;-0.016592;95.0;0.0;0.0;5.0;0.0;0.0
3.0;1753873516.65594;15.894531;0.77;-1.33;-0.21;0.878522;-0.489342;-0.016958;95.0;0.0;0.0;5.0;0.0;0.0
3.0;1753873516.662414;15.894531;0.7;-1.33;-0.21;0.87962;-0.48617;-0.017324;95.0;0.0;0.0;5.0;0.0;0.0
3.0;1753873516.664736;15.894531;0.7;-1.33;-0.21;0.879864;-0.488976;-0.01708;95.0;0.0;0.0;5.0;0.0;0.0
3.0;1753873516.669434;15.894531;0.77;-1.33;-0.14;0.878522;-0.48983;-0.016104;95.0;0.0;0.0;5.0;0.0;0.0
3.0;1753873516.677826;15.953125;0.77;-1.26;-0.21;0.881572;-0.486292;-0.016836;94.0;0.0;0.0;6.0;0.0;0.0
3.0;1753873516.678737;15.953125;0.84;-1.33;-0.07;0.879132;-0.488854;-0.01525;94.0;0.0;0.0;6.0;0.0;0.0
3.0;1753873516.683545;15.953125;0.77;-1.4;-0.21;0.880352;-0.486902;-0.017324;94.0;0.0;0.0;6.0;0.0;0.0
3.0;1753873516.689263;15.953125;0.77;-1.33;-0.14;0.87901;-0.487268;-0.017324;94.0;0.0;0.0;6.0;0.0;0.0
3.0;1753873516.696152;15.890625;0.84;-1.33;-0.21;0.880108;-0.489586;-0.015616;94.0;0.0;0.0;6.0;0.0;0.0
3.0;1753873516.697453;15.890625;0.77;-1.26;-0.21;0.881572;-0.487268;-0.016592;94.0;0.0;0.0;6.0;0.0;0.0
3.0;1753873516.702952;15.890625;0.77;-1.33;-0.21;0.879132;-0.49105;-0.015982;94.0;0.0;0.0;6.0;0.0;0.0
3.0;1753873516.707675;15.910881;0.67;-1.31;-0.23;0.881798;-0.490191;-0.015215;94.0;0.0;0.0;5.4;0.0;0.0
3.0;1753873516.711941;15.933594;0.7;-1.26;-0.21;0.87901;-0.489952;-0.01769;94.0;0.0;0.0;6.0;0.0;0.0
3.0;1753873516.716698;15.933594;0.84;-1.4;-0.14;0.880596;-0.488122;-0.015616;94.0;0.0;0.0;6.0;0.0;0.0
3.0;1753873516.721301;15.933594;0.77;-1.33;-0.21;0.88145;-0.48739;-0.016836;94.0;0.0;0.0;6.0;0.0;0.0
3.0;1753873516.729308;15.933594;0.77;-1.4;-0.14;0.879742;-0.489098;-0.017324;92.0;0.0;0.0;5.0;0.0;0.0
3.0;1753873516.730208;15.929688;0.77;-1.33;-0.14;0.880474;-0.488488;-0.017324;92.0;0.0;0.0;5.0;0.0;0.0
3.0;1753873516.734963;15.929688;0.77;-1.33;-0.14;0.880108;-0.487512;-0.017446;92.0;0.0;0.0;5.0;0.0;0.0
3.0;1753873516.739612;15.929688;0.7;-1.4;-0.14;0.879864;-0.487634;-0.01708;92.0;0.0;0.0;5.0;0.0;0.0
3.0;1753873516.746151;15.929688;0.77;-1.33;-0.07;0.879986;-0.48739;-0.018422;92.0;0.0;0.0;5.0;0.0;0.0
3.0;1753873516.748925;15.890625;0.77;-1.33;-0.07;0.879254;-0.489708;-0.016104;92.0;0.0;0.0;5.0;0.0;0.0
3.0;1753873516.753648;15.862511;0.78;-1.37;-0.02;0.87947;-0.48915;-0.016536;92.1;0.0;0.0;5.1;0.0;0.0
3.0;1753873516.760702;15.890625;0.77;-1.33;-0.14;0.87962;-0.487634;-0.016226;92.0;0.0;0.0;5.0;0.0;0.0
3.0;1753873516.763217;15.890625;0.63;-1.4;-0.07;0.87962;-0.48678;-0.017446;92.0;0.0;0.0;5.0;0.0;0.0
3.0;1753873516.767696;15.878906;0.7;-1.33;-0.14;0.880718;-0.487024;-0.017812;92.0;0.0;0.0;5.0;0.0;0.0
3.0;1753873516.772419;15.855567;0.77;-1.29;-0.21;0.880206;-0.486168;-0.017026;89.9;0.0;0.0;4.5;0.0;0.0
3.0;1753873516.777027;15.878906;0.77;-1.33;-0.14;0.880108;-0.487512;-0.01586;91.0;0.0;0.0;5.0;0.0;0.0
3.0;1753873516.781733;15.878906;0.7;-1.33;-0.21;0.88145;-0.48739;-0.017812;91.0;0.0;0.0;5.0;0.0;0.0
3.0;1753873516.786397;15.890625;0.63;-1.4;-0.14;0.879498;-0.48922;-0.016836;91.0;0.0;0.0;5.0;0.0;0.0
3.0;1753873516.793679;15.890625;0.63;-1.33;-0.14;0.881816;-0.486048;-0.017812;91.0;0.0;0.0;5.0;0.0;0.0
3.0;1753873516.79602;15.890625;0.7;-1.33;-0.07;0.87962;-0.488732;-0.016226;91.0;0.0;0.0;5.0;0.0;0.0
3.0;1753873516.800454;15.890625;0.63;-1.26;-0.21;0.881328;-0.488488;-0.017202;91.0;0.0;0.0;5.0;0.0;0.0
3.0;1753873516.808238;15.910156;0.63;-1.19;-0.21;0.878766;-0.487512;-0.01586;91.0;0.0;0.0;5.0;0.0;0.0
3.0;1753873516.809753;15.910156;0.7;-1.26;-0.14;0.880596;-0.48739;-0.017446;91.0;0.0;0.0;5.0;0.0;0.0
3.0;1753873516.814486;15.910156;0.63;-1.26;-0.21;0.88023;-0.487756;-0.016226;91.0;0.0;0.0;5.0;0.0;0.0
3.0;1753873516.819209;15.93509;0.68;-1.3;-0.15;0.880713;-0.486844;-0.017487;91.1;0.0;0.0;4.9;0.0;0.0
3.0;1753873516.826659;15.902344;0.7;-1.33;-0.21;0.87901;-0.488488;-0.017934;93.0;0.0;0.0;5.0;0.0;0.0
3.0;1753873516.828933;15.902344;0.63;-1.4;-0.14;0.880596;-0.48678;-0.01647;93.0;0.0;0.0;5.0;0.0;0.0
3.0;1753873516.83315;15.902344;0.7;-1.33;-0.21;0.879864;-0.488244;-0.017202;93.0;0.0;0.0;5.0;0.0;0.0
3.0;1753873516.837873;15.933035;0.72;-1.36;-0.24;0.880765;-0.488627;-0.017034;92.2;0.0;0.0;5.0;0.0;0.0
3.0;1753873516.84261;15.953125;0.7;-1.26;-0.21;0.879864;-0.487878;-0.015982;93.0;0.0;0.0;5.0;0.0;0.0
3.0;1753873516.847241;15.953125;0.7;-1.33;-0.21;0.879986;-0.488122;-0.016348;93.0;0.0;0.0;5.0;0.0;0.0
3.0;1753873516.851964;15.901072;0.69;-1.29;-0.35;0.880765;-0.487441;-0.018375;92.8;0.0;0.0;5.0;0.0;0.0
3.0;1753873516.857008;15.953125;0.7;-1.26;-0.21;0.881084;-0.486292;-0.017934;93.0;0.0;0.0;5.0;0.0;0.0
3.0;1753873516.861277;15.882812;0.7;-1.33;-0.14;0.878766;-0.489708;-0.017568;93.0;0.0;0.0;5.0;0.0;0.0
3.0;1753873516.865956;15.882812;0.77;-1.4;-0.14;0.880474;-0.487878;-0.016348;93.0;0.0;0.0;5.0;0.0;0.0
3.0;1753873516.87486;15.882812;0.77;-1.33;-0.14;0.880108;-0.48678;-0.017812;91.0;0.0;0.0;5.0;0.0;0.0
3.0;1753873516.875262;15.882812;0.7;-1.19;-0.35;0.878888;-0.489586;-0.016592;91.0;0.0;0.0;5.0;0.0;0.0
3.0;1753873516.879943;15.90625;0.77;-1.4;-0.14;0.878888;-0.489586;-0.016592;91.0;0.0;0.0;5.0;0.0;0.0
3.0;1753873516.884676;15.90625;0.7;-1.33;-0.21;0.880596;-0.487756;-0.016836;91.0;0.0;0.0;5.0;0.0;0.0
3.0;1753873516.891866;15.90625;0.84;-1.33;-0.21;0.879254;-0.491416;-0.016958;91.0;0.0;0.0;5.0;0.0;0.0
3.0;1753873516.894184;15.90625;0.7;-1.33;-0.14;0.880718;-0.48495;-0.017568;91.0;0.0;0.0;5.0;0.0;0.0
3.0;1753873516.89871;15.902344;0.7;-1.4;-0.14;0.87962;-0.490074;-0.016226;91.0;0.0;0.0;5.0;0.0;0.0
3.0;1753873516.906822;15.902344;0.7;-1.33;-0.21;0.880108;-0.488;-0.016714;91.0;0.0;0.0;5.0;0.0;0.0
3.0;1753873516.908033;15.902344;0.77;-1.4;-0.21;0.880108;-0.48678;-0.018056;91.0;0.0;0.0;5.0;0.0;0.0
3.0;1753873516.91275;15.902344;0.77;-1.4;-0.21;0.882182;-0.488;-0.01769;91.0;0.0;0.0;5.0;0.0;0.0
3.0;1753873516.917715;15.882812;0.77;-1.33;-0.07;0.879986;-0.490806;-0.016104;91.0;0.0;0.0;5.0;0.0;0.0
3.0;1753873516.925808;15.882812;0.63;-1.26;-0.21;0.879864;-0.486536;-0.016226;84.0;0.0;0.0;5.0;0.0;0.0
3.0;1753873516.927305;15.882812;0.77;-1.33;-0.14;0.879986;-0.48861;-0.01586;84.0;0.0;0.0;5.0;0.0;0.0
3.0;1753873516.931466;15.882812;0.63;-1.33;-0.14;0.878156;-0.488488;-0.017446;84.0;0.0;0.0;5.0;0.0;0.0
3.0;1753873516.939612;15.925781;0.7;-1.47;-0.14;0.879864;-0.488366;-0.016958;84.0;0.0;0.0;5.0;0.0;0.0
3.0;1753873516.940774;15.925781;0.84;-1.4;-0.14;0.87901;-0.48861;-0.016958;84.0;0.0;0.0;5.0;0.0;0.0
3.0;1753873516.94545;15.925781;0.84;-1.33;-0.28;0.88023;-0.486902;-0.018056;84.0;0.0;0.0;5.0;0.0;0.0
3.0;1753873516.953768;15.925781;0.84;-1.4;-0.14;0.879742;-0.488976;-0.017934;84.0;0.0;0.0;5.0;0.0;0.0
3.0;1753873516.954811;15.882812;0.84;-1.33;-0.14;0.87962;-0.487634;-0.01464;84.0;0.0;0.0;5.0;0.0;0.0
3.0;1753873516.959537;15.882812;0.77;-1.26;-0.21;0.881572;-0.485194;-0.01647;84.0;0.0;0.0;5.0;0.0;0.0
3.0;1753873516.964172;15.882812;0.7;-1.33;-0.14;0.876936;-0.493002;-0.015372;84.0;0.0;0.0;5.0;0.0;0.0
3.0;1753873516.968895;15.88205;0.63;-1.26;-0.14;0.880001;-0.492701;-0.015874;86.1;0.0;0.0;5.5;0.0;0.0
3.0;1753873516.975181;15.898438;0.77;-1.33;-0.07;0.878766;-0.489952;-0.016226;89.0;0.0;0.0;6.0;0.0;0.0
3.0;1753873516.978245;15.898438;0.7;-1.26;-0.21;0.881328;-0.488122;-0.017812;89.0;0.0;0.0;6.0;0.0;0.0
3.0;1753873516.982933;15.898438;0.77;-1.26;-0.14;0.879254;-0.487512;-0.016958;89.0;0.0;0.0;6.0;0.0;0.0
3.0;1753873516.990044;15.898438;0.77;-1.33;-0.14;0.879132;-0.486292;-0.01586;89.0;0.0;0.0;6.0;0.0;0.0
3.0;1753873516.992653;15.902344;0.77;-1.4;-0.28;0.87962;-0.48922;-0.017324;89.0;0.0;0.0;6.0;0.0;0.0
3.0;1753873516.997327;15.902344;0.7;-1.26;-0.21;0.87901;-0.488;-0.016592;89.0;0.0;0.0;6.0;0.0;0.0
3.0;1753873517.00205;15.910204;0.73;-1.35;-0.25;0.878283;-0.487319;-0.015812;92.9;0.0;0.0;5.7;0.0;0.0
3.0;1753873517.006773;15.878831;0.73;-1.18;-0.33;0.879559;-0.491277;-0.017772;91.7;0.0;0.0;4.8;0.0;0.0
3.0;1753873517.011496;15.904745;0.57;-1.27;-0.28;0.87945;-0.489358;-0.016251;88.6;0.0;0.0;5.3;0.0;0.0
3.0;1753873517.01622;15.90879;0.68;-1.29;-0.15;0.880639;-0.488266;-0.015433;89.9;0.0;0.0;6.3;0.0;0.0
3.0;1753873517.020942;15.892941;0.68;-1.29;-0.07;0.880902;-0.485567;-0.015646;85.5;0.0;0.0;6.0;0.0;0.0
3.0;1753873517.025666;15.919137;0.63;-1.16;-0.16;0.878925;-0.48583;-0.016758;94.8;0.0;0.0;6.0;0.0;0.0
3.0;1753873517.030388;15.901502;0.69;-1.31;-0.17;0.880378;-0.486411;-0.016277;88.5;0.0;0.0;6.6;0.0;0.0
3.0;1753873517.035112;15.899884;0.69;-1.36;-0.37;0.878726;-0.491697;-0.017584;92.8;0.0;0.0;6.3;0.0;0.0
3.0;1753873517.039835;15.922624;0.67;-1.2;-0.13;0.87752;-0.489754;-0.01674;87.6;0.0;0.0;5.7;0.0;0.0
3.0;1753873517.044558;15.89324;0.76;-1.21;-0.12;0.878452;-0.486338;-0.017191;83.0;0.0;0.0;5.3;0.0;0.0
3.0;1753873517.049281;15.887414;0.65;-1.26;-0.3;0.879545;-0.488547;-0.017135;92.4;0.0;0.0;5.6;0.0;0.0
3.0;1753873517.054004;15.935625;0.72;-1.46;-0.11;0.879606;-0.484908;-0.016062;85.6;0.0;0.0;6.3;0.0;0.0
3.0;1753873517.058727;15.922531;0.61;-1.35;-0.17;0.877554;-0.487221;-0.01888;90.4;0.0;0.0;5.3;0.0;0.0
3.0;1753873517.06345;15.888207;0.67;-1.27;-0.24;0.880683;-0.488796;-0.017032;87.4;0.0;0.0;6.2;0.0;0.0
3.0;1753873517.068173;15.886474;0.7;-1.27;-0.23;0.877294;-0.488928;-0.015785;86.4;0.0;0.0;6.9;0.0;0.0
3.0;1753873517.072896;15.887165;0.72;-1.17;-0.25;0.879175;-0.487318;-0.017956;87.4;0.0;0.0;5.7;0.0;0.0
3.0;1753873517.077619;15.906261;0.71;-1.4;-0.09;0.878988;-0.487115;-0.016882;91.6;0.0;0.0;5.7;0.0;0.0
3.0;1753873517.082342;15.891928;0.73;-1.24;-0.16;0.879212;-0.485008;-0.0179;85.0;0.0;0.0;5.5;0.0;0.0
3.0;1753873517.087066;15.870958;0.7;-1.26;-0.27;0.882231;-0.48663;-0.01654;89.2;0.0;0.0;6.6;0.0;0.0
3.0;1753873517.091788;15.887808;0.76;-1.36;-0.3;0.881899;-0.487055;-0.016548;91.2;0.0;0.0;6.4;0.0;0.0
3.0;1753873517.096512;15.884946;0.71;-1.34;-0.3;0.879188;-0.490051;-0.015977;85.8;0.0;0.0;5.8;0.0;0.0
3.0;1753873517.101235;15.913354;0.77;-1.3;-0.29;0.879004;-0.484511;-0.017636;86.4;0.0;0.0;6.2;0.0;0.0
3.0;1753873517.105958;15.889649;0.68;-1.26;-0.2;0.880464;-0.487079;-0.016963;89.0;0.0;0.0;5.9;0.0;0.0
3.0;1753873517.110681;15.888255;0.76;-1.32;-0.24;0.878137;-0.488717;-0.018067;89.9;0.0;0.0;6.5;0.0;0.0
3.0;1753873517.115404;15.903222;0.72;-1.23;-0.29;0.877167;-0.486629;-0.017724;90.0;0.0;0.0;6.0;0.0;0.0
3.0;1753873517.120127;15.925059;0.66;-1.36;-0.22;0.879511;-0.488065;-0.016468;90.6;0.0;0.0;5.3;0.0;0.0
3.0;1753873517.12485;15.935037;0.69;-1.31;-0.32;0.879195;-0.491652;-0.016603;91.1;0.0;0.0;6.4;0.0;0.0
3.0;1753873517.129573;15.89475;0.76;-1.37;-0.18;0.880784;-0.487258;-0.01608;88.1;0.0;0.0;5.8;0.0;0.0
3.0;1753873517.134296;15.906016;0.71;-1.29;-0.21;0.880747;-0.485061;-0.014944;88.0;0.0;0.0;7.1;0.0;0.0
3.0;1753873517.139019;15.874748;0.75;-1.21;-0.23;0.880833;-0.48798;-0.017078;89.2;0.0;0.0;6.2;0.0;0.0
3.0;1753873517.143742;15.878643;0.58;-1.36;-0.15;0.879408;-0.488507;-0.017273;96.7;0.0;0.0;6.3;0.0;0.0
3.0;1753873517.148466;15.89148;0.63;-1.21;-0.06;0.878979;-0.48812;-0.016373;89.9;0.0;0.0;5.8;0.0;0.0
3.0;1753873517.153188;15.915227;0.81;-1.21;-0.12;0.881379;-0.487512;-0.017667;92.2;0.0;0.0;5.9;0.0;0.0
3.0;1753873517.157912;15.914583;0.77;-1.32;-0.28;0.878762;-0.487838;-0.016309;87.5;0.0;0.0;5.7;0.0;0.0
3.0;1753873517.162634;15.891207;0.69;-1.27;-0.24;0.877803;-0.489182;-0.016898;85.5;0.0;0.0;5.3;0.0;0.0
3.0;1753873517.167358;15.904268;0.69;-1.28;-0.23;0.878434;-0.48531;-0.016348;93.3;0.0;0.0;6.3;0.0;0.0
3.0;1753873517.172081;15.910542;0.71;-1.17;-0.2;0.879006;-0.487701;-0.013444;90.2;0.0;0.0;6.4;0.0;0.0
3.0;1753873517.176804;15.929196;0.77;-1.4;-0.18;0.8803;-0.489607;-0.015982;90.3;0.0;0.0;6.9;0.0;0.0
3.0;1753873517.181527;15.880067;0.75;-1.38;-0.3;0.879343;-0.488546;-0.018538;93.3;0.0;0.0;6.7;0.0;0.0
3.0;1753873517.18625;15.90955;0.79;-1.27;-0.24;0.880709;-0.483687;-0.01526;89.4;0.0;0.0;6.1;0.0;0.0
3.0;1753873517.190973;15.891605;0.75;-1.27;-0.22;0.879923;-0.489697;-0.015579;89.7;0.0;0.0;6.5;0.0;0.0
3.0;1753873517.195696;15.892027;0.72;-1.36;-0.23;0.878294;-0.487651;-0.015945;86.9;0.0;0.0;6.4;0.0;0.0
3.0;1753873517.200419;15.872111;0.71;-1.37;-0.32;0.879582;-0.486728;-0.017213;88.6;0.0;0.0;7.2;0.0;0.0
3.0;1753873517.205142;15.878227;0.68;-1.22;-0.26;0.879644;-0.487857;-0.015386;90.4;0.0;0.0;5.8;0.0;0.0
3.0;1753873517.209865;15.902979;0.67;-1.29;-0.17;0.88003;-0.485118;-0.015276;89.6;0.0;0.0;5.9;0.0;0.0
3.0;1753873517.214588;15.867687;0.76;-1.34;-0.25;0.878593;-0.485869;-0.017207;88.2;0.0;0.0;7.2;0.0;0.0
3.0;1753873517.219312;15.911001;0.6;-1.32;-0.27;0.879079;-0.488322;-0.014633;86.9;0.0;0.0;6.4;0.0;0.0
3.0;1753873517.224034;15.92092;0.71;-1.25;-0.27;0.878659;-0.486015;-0.016991;84.8;0.0;0.0;5.3;0.0;0.0
3.0;1753873517.228758;15.893009;0.82;-1.25;-0.21;0.880368;-0.485499;-0.017703;86.2;0.0;0.0;5.3;0.0;0.0
3.0;1753873517.233481;15.885404;0.76;-1.29;-0.27;0.879807;-0.487225;-0.015452;91.1;0.0;0.0;6.1;0.0;0.0
3.0;1753873517.238204;15.913142;0.77;-1.28;-0.12;0.879594;-0.486678;-0.017645;91.0;0.0;0.0;5.2;0.0;0.0
3.0;1753873517.242927;15.888053;0.75;-1.44;-0.25;0.879936;-0.487651;-0.01708;90.3;0.0;0.0;5.5;0.0;0.0
3.0;1753873517.24765;15.92427;0.72;-1.3;-0.16;0.878044;-0.487636;-0.016509;89.5;0.0;0.0;6.1;0.0;0.0
3.0;1753873517.252373;15.908973;0.76;-1.21;-0.13;0.879267;-0.487755;-0.014617;84.6;0.0;0.0;6.5;0.0;0.0
3.0;1753873517.257096;15.908571;0.71;-1.22;-0.12;0.878545;-0.485116;-0.016016;90.0;0.0;0.0;5.6;0.0;0.0
3.0;1753873517.261819;15.904024;0.76;-1.36;-0.23;0.87862;-0.485649;-0.017232;89.7;0.0;0.0;5.0;0.0;0.0
3.0;1753873517.266542;15.909006;0.71;-1.25;-0.32;0.880207;-0.488495;-0.016612;88.3;0.0;0.0;6.6;0.0;0.0
3.0;1753873517.271265;15.91754;0.73;-1.24;-0.2;0.881157;-0.486882;-0.017147;88.5;0.0;0.0;5.6;0.0;0.0
3.0;1753873517.275988;15.911277;0.65;-1.19;-0.25;0.87981;-0.483589;-0.01653;91.2;0.0;0.0;5.9;0.0;0.0
3.0;1753873517.280712;15.910269;0.76;-1.31;-0.27;0.878819;-0.487849;-0.017946;92.2;0.0;0.0;6.1;0.0;0.0
3.0;1753873517.285434;15.893046;0.68;-1.28;-0.39;0.880223;-0.485914;-0.015738;85.2;0.0;0.0;7.1;0.0;0.0
3.0;1753873517.290158;15.917484;0.73;-1.29;-0.28;0.878363;-0.490218;-0.016457;88.5;0.0;0.0;6.3;0.0;0.0
3.0;1753873517.294881;15.894704;0.72;-1.24;-0.25;0.879043;-0.485744;-0.017346;89.1;0.0;0.0;6.7;0.0;0.0
3.0;1753873517.299604;15.910379;0.71;-1.39;-0.3;0.878813;-0.485524;-0.018504;89.6;0.0;0.0;6.8;0.0;0.0
3.0;1753873517.304327;15.888481;0.74;-1.27;-0.19;0.879535;-0.486524;-0.016158;90.6;0.0;0.0;6.1;0.0;0.0
3.0;1753873517.30905;15.898867;0.77;-1.24;-0.27;0.87783;-0.485333;-0.017533;95.5;0.0;0.0;5.7;0.0;0.0
3.0;1753873517.313773;15.907008;0.75;-1.34;-0.21;0.881485;-0.484369;-0.016506;88.8;0.0;0.0;5.8;0.0;0.0
3.0;1753873517.318496;15.920181;0.94;-1.27;-0.24;0.879675;-0.488619;-0.017693;92.0;0.0;0.0;6.3;0.0;0.0
3.0;1753873517.323219;15.902649;0.76;-1.3;-0.33;0.881259;-0.487647;-0.017227;85.9;0.0;0.0;6.5;0.0;0.0
3.0;1753873517.327942;15.927445;0.8;-1.3;-0.26;0.880227;-0.486544;-0.016485;87.7;0.0;0.0;5.9;0.0;0.0
3.0;1753873517.332665;15.91789;0.75;-1.25;-0.25;0.881664;-0.484708;-0.019246;93.7;0.0;0.0;5.6;0.0;0.0
3.0;1753873517.337388;15.934786;0.7;-1.3;-0.18;0.879826;-0.486593;-0.015351;90.0;0.0;0.0;5.9;0.0;0.0
3.0;1753873517.342111;15.880692;0.74;-1.28;-0.09;0.880808;-0.489033;-0.017395;89.5;0.0;0.0;6.7;0.0;0.0
3.0;1753873517.346834;15.904261;0.7;-1.21;-0.26;0.879444;-0.488767;-0.016504;89.6;0.0;0.0;5.5;0.0;0.0
3.0;1753873517.351558;15.905876;0.84;-1.44;-0.27;0.880992;-0.487727;-0.017157;89.1;0.0;0.0;5.6;0.0;0.0
3.0;1753873517.35628;15.88405;0.75;-1.34;-0.22;0.879992;-0.487331;-0.016875;87.6;0.0;0.0;6.8;0.0;0.0
3.0;1753873517.361004;15.918229;0.72;-1.21;-0.21;0.88011;-0.487532;-0.016882;88.4;0.0;0.0;5.4;0.0;0.0
3.0;1753873517.365727;15.901671;0.82;-1.26;-0.24;0.879371;-0.48844;-0.017304;90.3;0.0;0.0;6.2;0.0;0.0
3.0;1753873517.37045;15.876614;0.69;-1.31;-0.23;0.881493;-0.487876;-0.015586;91.8;0.0;0.0;5.5;0.0;0.0
3.0;1753873517.375173;15.895969;0.69;-1.29;-0.27;0.880497;-0.487994;-0.01792;89.8;0.0;0.0;6.3;0.0;0.0
3.0;1753873517.379896;15.879456;0.7;-1.33;-0.26;0.881466;-0.488246;-0.016978;88.8;0.0;0.0;5.3;0.0;0.0
3.0;1753873517.384619;15.897527;0.74;-1.26;-0.22;0.881049;-0.489334;-0.016959;91.1;0.0;0.0;5.8;0.0;0.0
3.0;1753873517.389342;15.876185;0.76;-1.32;-0.27;0.880767;-0.487022;-0.016821;89.1;0.0;0.0;6.0;0.0;0.0
3.0;1753873517.394065;15.905552;0.75;-1.26;-0.27;0.880831;-0.485155;-0.0154;91.7;0.0;0.0;5.8;0.0;0.0
3.0;1753873517.398788;15.883855;0.83;-1.3;-0.34;0.880845;-0.48627;-0.016004;91.5;0.0;0.0;5.7;0.0;0.0
3.0;1753873517.403511;15.917589;0.81;-1.39;-0.2;0.880342;-0.485207;-0.01921;89.4;0.0;0.0;6.1;0.0;0.0
3.0;1753873517.408234;15.898144;0.85;-1.35;-0.42;0.880043;-0.48639;-0.016587;83.5;0.0;0.0;6.1;0.0;0.0
3.0;1753873517.412958;15.903506;0.84;-1.31;-0.25;0.878424;-0.485345;-0.016626;86.1;0.0;0.0;6.3;0.0;0.0
3.0;1753873517.41768;15.903347;0.85;-1.26;-0.2;0.8792;-0.487738;-0.017072;86.1;0.0;0.0;5.3;0.0;0.0
3.0;1753873517.422404;15.911898;0.78;-1.34;-0.23;0.880631;-0.486246;-0.017778;93.9;0.0;0.0;5.7;0.0;0.0
3.0;1753873517.427127;15.892198;0.77;-1.39;-0.29;0.880021;-0.48586;-0.01662;92.6;0.0;0.0;6.6;0.0;0.0
3.0;1753873517.43185;15.888603;0.8;-1.29;-0.29;0.880215;-0.487476;-0.014875;86.0;0.0;0.0;5.5;0.0;0.0
3.0;1753873517.436573;15.9419;0.75;-1.31;-0.24;0.879421;-0.484434;-0.016166;93.9;0.0;0.0;5.6;0.0;0.0
3.0;1753873517.441296;15.909549;0.74;-1.31;-0.24;0.879292;-0.485924;-0.01579;87.0;0.0;0.0;6.9;0.0;0.0
3.0;1753873517.446019;15.894323;0.79;-1.38;-0.32;0.881074;-0.489005;-0.018196;89.7;0.0;0.0;6.3;0.0;0.0
3.0;1753873517.450742;15.908725;0.8;-1.29;-0.25;0.879243;-0.485708;-0.017618;81.8;0.0;0.0;6.6;0.0;0.0
3.0;1753873517.455465;15.891583;0.9;-1.29;-0.26;0.879587;-0.484417;-0.017127;89.0;0.0;0.0;5.1;0.0;0.0
3.0;1753873517.460188;15.902623;0.71;-1.31;-0.29;0.882536;-0.486087;-0.016456;84.7;0.0;0.0;5.9;0.0;0.0
3.0;1753873517.464911;15.894978;0.79;-1.38;-0.29;0.879024;-0.486389;-0.01762;88.3;0.0;0.0;5.4;0.0;0.0
3.0;1753873517.469634;15.882418;0.74;-1.21;-0.33;0.879001;-0.487037;-0.016919;86.0;0.0;0.0;6.2;0.0;0.0
3.0;1753873517.474357;15.905739;0.8;-1.35;-0.22;0.882007;-0.48641;-0.016166;87.4;0.0;0.0;6.0;0.0;0.0
3.0;1753873517.47908;15.905294;0.79;-1.31;-0.36;0.880143;-0.487623;-0.015105;93.1;0.0;0.0;6.1;0.0;0.0
3.0;1753873517.483804;15.906781;0.74;-1.47;-0.4;0.881154;-0.486264;-0.018979;87.9;0.0;0.0;6.8;0.0;0.0
3.0;1753873517.488526;15.907266;0.71;-1.34;-0.22;0.882012;-0.486247;-0.018201;86.0;0.0;0.0;4.9;0.0;0.0
3.0;1753873517.49325;15.897678;0.83;-1.29;-0.33;0.882214;-0.486732;-0.017507;88.2;0.0;0.0;5.6;0.0;0.0
3.0;1753873517.497973;15.880738;0.89;-1.31;-0.23;0.881072;-0.485912;-0.017432;88.3;0.0;0.0;6.4;0.0;0.0
3.0;1753873517.502696;15.888758;0.66;-1.11;-0.32;0.879667;-0.482521;-0.017138;91.2;0.0;0.0;6.9;0.0;0.0
3.0;1753873517.507419;15.907527;0.73;-1.3;-0.2;0.879492;-0.486369;-0.016646;85.9;0.0;0.0;5.1;0.0;0.0
3.0;1753873517.512142;15.846588;0.73;-1.27;-0.21;0.882208;-0.485991;-0.016828;90.6;0.0;0.0;6.3;0.0;0.0
3.0;1753873517.516865;15.901543;0.78;-1.34;-0.23;0.880817;-0.484841;-0.015583;87.2;0.0;0.0;6.6;0.0;0.0
3.0;1753873517.5235;15.902344;0.77;-1.33;-0.28;0.880474;-0.48556;-0.01708;89.0;0.0;0.0;6.0;0.0;0.0
3.0;1753873517.528223;15.901996;0.79;-1.27;-0.16;0.880287;-0.483299;-0.017813;90.0;0.0;0.0;6.0;0.0;0.0
3.0;1753873517.532946;15.914613;0.84;-1.29;-0.25;0.877363;-0.484954;-0.016031;87.7;0.0;0.0;5.4;0.0;0.0
3.0;1753873517.537669;15.924291;0.69;-1.34;-0.31;0.880086;-0.488289;-0.018093;92.2;0.0;0.0;5.5;0.0;0.0
3.0;1753873517.542392;15.899453;0.76;-1.13;-0.21;0.881344;-0.485041;-0.016662;91.2;0.0;0.0;5.5;0.0;0.0
3.0;1753873517.547115;15.893747;0.71;-1.32;-0.12;0.88023;-0.485202;-0.01659;87.0;0.0;0.0;5.5;0.0;0.0
3.0;1753873517.551838;15.908936;0.76;-1.34;-0.25;0.879663;-0.488757;-0.017986;88.9;0.0;0.0;5.7;0.0;0.0
3.0;1753873517.556562;15.901615;0.78;-1.32;-0.19;0.879189;-0.490112;-0.016603;90.4;0.0;0.0;5.9;0.0;0.0
3.0;1753873517.561284;15.885879;0.57;-1.28;-0.12;0.878963;-0.486821;-0.015568;89.2;0.0;0.0;5.6;0.0;0.0
3.0;1753873517.566008;15.911762;0.82;-1.28;-0.17;0.880025;-0.488107;-0.01678;87.2;0.0;0.0;7.1;0.0;0.0
3.0;1753873517.570731;15.884092;0.72;-1.38;-0.07;0.878026;-0.486818;-0.015191;90.1;0.0;0.0;5.8;0.0;0.0
3.0;1753873517.575454;15.903184;0.81;-1.2;-0.21;0.880394;-0.4846;-0.015021;84.0;0.0;0.0;5.3;0.0;0.0
3.0;1753873517.580177;15.903754;0.81;-1.27;-0.09;0.879865;-0.485769;-0.017001;86.8;0.0;0.0;6.3;0.0;0.0
3.0;1753873517.5849;15.883286;0.81;-1.35;-0.11;0.880588;-0.488506;-0.012948;89.0;0.0;0.0;6.3;0.0;0.0
3.0;1753873517.589623;15.926225;0.81;-1.32;-0.07;0.87797;-0.489329;-0.01462;92.5;0.0;0.0;6.4;0.0;0.0
3.0;1753873517.594346;15.887753;0.83;-1.27;-0.16;0.876;-0.487378;-0.015906;86.3;0.0;0.0;6.6;0.0;0.0
3.0;1753873517.599069;15.905482;0.83;-1.3;-0.07;0.881435;-0.488554;-0.016477;87.8;0.0;0.0;6.9;0.0;0.0
3.0;1753873517.603792;15.919317;0.8;-1.28;-0.11;0.879623;-0.489928;-0.015034;87.3;0.0;0.0;6.3;0.0;0.0
3.0;1753873517.608515;15.911001;0.65;-1.27;-0.06;0.881152;-0.490113;-0.015906;87.6;0.0;0.0;5.9;0.0;0.0
3.0;1753873517.613238;15.915108;0.76;-1.11;-0.18;0.879367;-0.485527;-0.014446;91.2;0.0;0.0;5.5;0.0;0.0
3.0;1753873517.617962;15.891815;0.97;-1.3;0.01;0.879438;-0.491954;-0.014787;92.0;0.0;0.0;5.9;0.0;0.0
3.0;1753873517.622684;15.908573;0.81;-1.21;-0.22;0.879005;-0.48807;-0.016576;89.2;0.0;0.0;5.9;0.0;0.0
3.0;1753873517.6281;15.902344;0.77;-1.26;-0.07;0.878766;-0.489708;-0.014884;89.0;0.0;0.0;6.0;0.0;0.0
3.0;1753873517.632823;15.910589;0.79;-1.29;-0.09;0.881038;-0.489751;-0.01477;90.9;0.0;0.0;6.3;0.0;0.0
3.0;1753873517.637546;15.883537;0.72;-1.25;-0.02;0.878611;-0.489797;-0.01283;90.1;0.0;0.0;5.7;0.0;0.0
3.0;1753873517.642269;15.930298;0.77;-1.32;-0.03;0.879091;-0.487852;-0.01476;89.0;0.0;0.0;5.7;0.0;0.0
3.0;1753873517.646992;15.862081;0.82;-1.25;-0.23;0.87941;-0.488399;-0.014419;91.9;0.0;0.0;5.5;0.0;0.0
3.0;1753873517.651715;15.937478;0.67;-1.33;-0.21;0.878361;-0.488805;-0.015428;91.2;0.0;0.0;6.4;0.0;0.0
3.0;1753873517.656438;15.893071;0.72;-1.26;-0.1;0.878623;-0.488349;-0.015281;91.8;0.0;0.0;6.7;0.0;0.0
3.0;1753873517.661162;15.893482;0.74;-1.32;-0.18;0.880028;-0.491125;-0.017318;92.3;0.0;0.0;6.0;0.0;0.0
3.0;1753873517.665884;15.86766;0.64;-1.17;-0.06;0.877723;-0.490217;-0.015079;91.3;0.0;0.0;7.1;0.0;0.0
3.0;1753873517.670608;15.930685;0.68;-1.26;-0.1;0.878779;-0.489366;-0.01606;92.2;0.0;0.0;5.8;0.0;0.0
3.0;1753873517.675331;15.894936;0.74;-1.29;-0.07;0.879561;-0.489094;-0.014424;90.3;0.0;0.0;6.5;0.0;0.0
3.0;1753873517.680054;15.882845;0.72;-1.3;-0.22;0.880106;-0.489679;-0.016737;96.6;0.0;0.0;5.9;0.0;0.0
3.0;1753873517.684777;15.93274;0.69;-1.32;-0.12;0.878243;-0.489342;-0.015644;93.0;0.0;0.0;5.6;0.0;0.0
3.0;1753873517.6895;15.934989;0.69;-1.24;-0.19;0.879256;-0.487718;-0.014457;95.0;0.0;0.0;5.6;0.0;0.0
3.0;1753873517.694223;15.924183;0.7;-1.27;-0.24;0.881202;-0.489748;-0.016033;95.8;0.0;0.0;5.9;0.0;0.0
3.0;1753873517.698946;15.890378;0.63;-1.29;-0.27;0.879324;-0.489003;-0.014905;93.3;0.0;0.0;6.7;0.0;0.0
3.0;1753873517.703669;15.891647;0.68;-1.28;-0.07;0.880301;-0.486431;-0.016151;95.8;0.0;0.0;5.8;0.0;0.0
3.0;1753873517.71087;15.90625;0.63;-1.33;-0.21;0.881084;-0.487512;-0.015494;96.0;0.0;0.0;6.0;0.0;0.0
3.0;1753873517.71785;15.90625;0.7;-1.33;-0.14;0.88145;-0.486292;-0.017812;96.0;0.0;0.0;6.0;0.0;0.0
3.0;1753873517.722573;15.920123;0.68;-1.25;-0.16;0.880219;-0.489055;-0.018109;92.7;0.0;0.0;6.4;0.0;0.0
3.0;1753873517.727296;15.872393;0.75;-1.31;-0.12;0.879249;-0.488048;-0.017232;93.8;0.0;0.0;6.2;0.0;0.0
3.0;1753873517.732019;15.88852;0.67;-1.33;-0.12;0.880216;-0.489022;-0.016762;93.0;0.0;0.0;6.0;0.0;0.0
3.0;1753873517.736742;15.906258;0.81;-1.3;-0.19;0.879577;-0.487457;-0.017684;94.1;0.0;0.0;5.4;0.0;0.0
3.0;1753873517.741465;15.902187;0.75;-1.39;-0.29;0.879555;-0.490326;-0.017441;94.8;0.0;0.0;5.5;0.0;0.0
3.0;1753873517.746188;15.915398;0.85;-1.46;-0.16;0.88091;-0.488542;-0.018598;97.1;0.0;0.0;6.0;0.0;0.0
3.0;1753873517.750912;15.874682;0.75;-1.33;-0.24;0.882477;-0.48601;-0.017155;96.8;0.0;0.0;4.9;0.0;0.0
3.0;1753873517.755634;15.938572;0.82;-1.5;-0.22;0.879395;-0.485814;-0.01913;96.2;0.0;0.0;5.8;0.0;0.0
3.0;1753873517.760358;15.895163;0.8;-1.5;-0.15;0.878445;-0.488399;-0.016583;95.4;0.0;0.0;6.2;0.0;0.0
3.0;1753873517.76511;15.90625;0.77;-1.47;-0.21;0.879742;-0.488976;-0.017324;96.0;0.0;0.0;6.0;0.0;0.0
3.0;1753873517.769833;15.879025;0.74;-1.44;-0.28;0.878628;-0.489717;-0.015908;96.8;0.0;0.0;5.4;0.0;0.0
3.0;1753873517.774556;15.904037;0.79;-1.48;-0.13;0.879516;-0.490197;-0.018492;97.5;0.0;0.0;6.2;0.0;0.0
3.0;1753873517.779279;15.904728;0.76;-1.47;-0.23;0.878141;-0.48861;-0.017964;94.2;0.0;0.0;5.2;0.0;0.0
3.0;1753873517.784002;15.922317;0.75;-1.39;-0.22;0.879802;-0.488398;-0.016946;94.7;0.0;0.0;6.8;0.0;0.0
3.0;1753873517.788726;15.89562;0.77;-1.46;-0.19;0.880488;-0.488998;-0.018324;95.5;0.0;0.0;5.4;0.0;0.0
3.0;1753873517.793448;15.904717;0.82;-1.53;-0.17;0.880824;-0.490074;-0.017377;100.0;0.0;0.0;5.5;0.0;0.0
3.0;1753873517.798172;15.879145;0.77;-1.43;-0.21;0.879681;-0.488886;-0.017926;99.1;0.0;0.0;5.6;0.0;0.0
3.0;1753873517.802894;15.913613;0.73;-1.41;-0.22;0.878922;-0.486157;-0.016986;96.3;0.0;0.0;6.2;0.0;0.0
3.0;1753873517.807618;15.911245;0.76;-1.44;-0.1;0.880292;-0.491729;-0.01607;92.7;0.0;0.0;6.0;0.0;0.0
3.0;1753873517.812341;15.887828;0.69;-1.31;-0.24;0.879346;-0.486001;-0.018703;94.5;0.0;0.0;5.7;0.0;0.0
3.0;1753873517.817064;15.919291;0.74;-1.44;-0.19;0.8812;-0.488405;-0.016437;93.1;0.0;0.0;5.6;0.0;0.0
3.0;1753873517.821787;15.857698;0.64;-1.39;-0.2;0.880148;-0.490505;-0.015803;97.8;0.0;0.0;6.7;0.0;0.0
3.0;1753873517.82651;15.895684;0.77;-1.43;-0.25;0.881852;-0.486584;-0.018718;101.1;0.0;0.0;5.7;0.0;0.0
3.0;1753873517.831233;15.890976;0.76;-1.39;-0.12;0.882239;-0.486971;-0.017062;96.9;0.0;0.0;6.8;0.0;0.0
3.0;1753873517.835956;15.870382;0.69;-1.38;-0.3;0.881306;-0.487939;-0.018187;97.3;0.0;0.0;6.1;0.0;0.0
3.0;1753873517.840679;15.846086;0.77;-1.22;-0.24;0.880567;-0.487458;-0.016116;97.5;0.0;0.0;5.8;0.0;0.0
3.0;1753873517.845402;15.88749;0.73;-1.33;-0.07;0.87981;-0.486821;-0.01752;95.2;0.0;0.0;6.5;0.0;0.0
3.0;1753873517.850125;15.896732;0.81;-1.36;-0.12;0.880729;-0.486661;-0.016503;97.3;0.0;0.0;5.1;0.0;0.0
3.0;1753873517.854848;15.835751;0.72;-1.32;-0.14;0.881838;-0.48542;-0.017712;95.3;0.0;0.0;6.0;0.0;0.0
3.0;1753873517.859572;15.91784;0.67;-1.34;-0.18;0.879618;-0.488468;-0.016636;95.9;0.0;0.0;5.8;0.0;0.0
3.0;1753873517.864294;15.873272;0.64;-1.38;-0.23;0.883216;-0.486714;-0.017249;99.8;0.0;0.0;5.8;0.0;0.0
3.0;1753873517.869018;15.839667;0.72;-1.3;-0.17;0.879939;-0.48842;-0.017986;97.9;0.0;0.0;6.2;0.0;0.0
3.0;1753873517.87555;15.859375;0.7;-1.33;-0.14;0.880474;-0.487268;-0.01708;96.0;0.0;0.0;6.0;0.0;0.0
3.0;1753873517.880273;15.842974;0.64;-1.35;-0.11;0.879624;-0.48785;-0.017784;97.4;0.0;0.0;6.4;0.0;0.0
3.0;1753873517.884996;15.856756;0.76;-1.32;-0.19;0.880953;-0.487474;-0.017331;92.9;0.0;0.0;5.9;0.0;0.0
3.0;1753873517.889719;15.898247;0.67;-1.35;-0.14;0.881014;-0.488619;-0.019145;93.2;0.0;0.0;5.8;0.0;0.0
3.0;1753873517.894442;15.89334;0.74;-1.4;-0.05;0.88044;-0.487276;-0.017519;90.8;0.0;0.0;6.1;0.0;0.0
3.0;1753873517.899166;15.867207;0.72;-1.4;-0.13;0.879414;-0.486863;-0.017834;94.5;0.0;0.0;5.0;0.0;0.0
3.0;1753873517.90542;15.859375;0.77;-1.33;-0.14;0.880474;-0.488976;-0.018666;96.0;0.0;0.0;6.0;0.0;0.0
3.0;1753873517.910143;15.857739;0.78;-1.26;-0.07;0.879273;-0.490425;-0.018171;94.6;0.0;0.0;6.4;0.0;0.0
3.0;1753873517.914866;15.866865;0.76;-1.34;-0.13;0.879738;-0.487726;-0.017324;100.8;0.0;0.0;6.1;0.0;0.0
3.0;1753873517.919589;15.836438;0.73;-1.25;-0.13;0.877972;-0.487195;-0.018202;94.5;0.0;0.0;6.1;0.0;0.0
3.0;1753873517.924312;15.869452;0.73;-1.25;-0.1;0.880189;-0.489141;-0.018068;94.2;0.0;0.0;6.6;0.0;0.0
3.0;1753873517.929036;15.860976;0.75;-1.26;-0.06;0.880428;-0.488381;-0.016787;92.8;0.0;0.0;4.8;0.0;0.0
3.0;1753873517.933758;15.857694;0.72;-1.23;-0.07;0.879243;-0.487721;-0.017236;95.2;0.0;0.0;5.9;0.0;0.0
3.0;1753873517.938482;15.829581;0.7;-1.27;-0.03;0.880149;-0.489645;-0.017;94.2;0.0;0.0;6.9;0.0;0.0
3.0;1753873517.943205;15.867327;0.6;-1.23;-0.2;0.87767;-0.488116;-0.016126;96.4;0.0;0.0;5.4;0.0;0.0
3.0;1753873517.947928;15.875475;0.7;-1.32;-0.13;0.879895;-0.482741;-0.017369;96.9;0.0;0.0;6.6;0.0;0.0
3.0;1753873517.95233;15.859375;0.7;-1.26;-0.07;0.879376;-0.486902;-0.016104;96.0;0.0;0.0;6.0;0.0;0.0
3.0;1753873517.958344;15.824219;0.63;-1.33;-0.21;0.879132;-0.488;-0.016348;105.0;0.0;0.0;6.0;0.0;0.0
3.0;1753873517.960841;15.824219;0.7;-1.33;-0.28;0.880352;-0.488366;-0.01586;105.0;0.0;0.0;6.0;0.0;0.0
3.0;1753873517.969071;15.878906;0.77;-1.26;-0.21;0.881572;-0.488488;-0.017324;105.0;0.0;0.0;6.0;0.0;0.0
3.0;1753873517.970203;15.878906;0.84;-1.33;-0.21;0.879376;-0.488488;-0.017446;105.0;0.0;0.0;6.0;0.0;0.0
3.0;1753873517.974926;15.894023;0.76;-1.3;-0.27;0.878529;-0.487572;-0.017453;101.7;0.0;0.0;6.1;0.0;0.0
3.0;1753873517.97949;15.878906;0.7;-1.33;-0.21;0.880352;-0.486414;-0.016592;105.0;0.0;0.0;6.0;0.0;0.0
3.0;1753873517.98467;15.847656;0.7;-1.33;-0.21;0.88145;-0.485682;-0.017202;105.0;0.0;0.0;6.0;0.0;0.0
3.0;1753873517.988965;15.847656;0.7;-1.33;-0.07;0.881206;-0.48739;-0.016348;105.0;0.0;0.0;6.0;0.0;0.0
3.0;1753873517.99365;15.847656;0.77;-1.26;-0.21;0.879498;-0.49044;-0.016226;105.0;0.0;0.0;6.0;0.0;0.0
3.0;1753873517.998329;15.847656;0.77;-1.26;-0.21;0.881328;-0.48617;-0.017568;105.0;0.0;0.0;6.0;0.0;0.0
3.0;1753873518.003052;15.863578;0.69;-1.31;-0.1;0.8804;-0.485923;-0.018742;109.2;0.0;0.0;5.9;0.0;0.0
3.0;1753873518.007775;15.854237;0.71;-1.25;-0.17;0.88098;-0.486234;-0.017689;106.7;0.0;0.0;5.2;0.0;0.0
3.0;1753873518.012498;15.885861;0.81;-1.24;-0.18;0.8804;-0.483939;-0.017236;111.4;0.0;0.0;5.2;0.0;0.0
3.0;1753873518.017221;15.823037;0.69;-1.23;-0.18;0.880319;-0.488589;-0.017837;111.9;0.0;0.0;5.2;0.0;0.0
3.0;1753873518.021944;15.841852;0.78;-1.24;-0.19;0.881645;-0.485934;-0.017054;99.5;0.0;0.0;5.9;0.0;0.0
3.0;1753873518.026667;15.826465;0.72;-1.27;-0.24;0.882213;-0.485883;-0.01719;103.8;0.0;0.0;6.1;0.0;0.0
3.0;1753873518.03139;15.874025;0.72;-1.28;-0.22;0.879516;-0.48573;-0.017335;106.3;0.0;0.0;5.5;0.0;0.0
3.0;1753873518.036114;15.842647;0.79;-1.27;-0.21;0.881117;-0.486204;-0.017952;98.6;0.0;0.0;6.7;0.0;0.0
3.0;1753873518.040836;15.872223;0.84;-1.25;-0.19;0.880612;-0.487697;-0.01655;108.0;0.0;0.0;4.9;0.0;0.0
3.0;1753873518.04556;15.878693;0.76;-1.26;-0.24;0.880523;-0.485881;-0.01761;102.1;0.0;0.0;5.9;0.0;0.0
3.0;1753873518.050283;15.844254;0.79;-1.29;-0.09;0.879011;-0.486037;-0.018208;95.9;0.0;0.0;6.1;0.0;0.0
3.0;1753873518.055006;15.856553;0.73;-1.26;-0.18;0.882734;-0.488473;-0.018992;108.1;0.0;0.0;6.3;0.0;0.0
3.0;1753873518.059729;15.864394;0.81;-1.28;-0.14;0.883345;-0.48672;-0.017128;101.8;0.0;0.0;5.7;0.0;0.0
3.0;1753873518.064452;15.851203;0.76;-1.26;-0.14;0.880324;-0.484499;-0.017328;104.8;0.0;0.0;6.1;0.0;0.0
3.0;1753873518.069175;15.829756;0.71;-1.29;-0.22;0.88116;-0.489655;-0.017612;101.8;0.0;0.0;6.1;0.0;0.0
3.0;1753873518.073898;15.855147;0.77;-1.26;-0.23;0.880082;-0.486337;-0.01727;103.5;0.0;0.0;6.5;0.0;0.0
3.0;1753873518.078621;15.882307;0.71;-1.27;-0.2;0.881157;-0.482613;-0.018423;99.4;0.0;0.0;5.6;0.0;0.0
3.0;1753873518.083344;15.836684;0.79;-1.31;-0.25;0.882601;-0.484347;-0.016492;98.6;0.0;0.0;6.7;0.0;0.0
3.0;1753873518.088067;15.860662;0.78;-1.24;-0.21;0.882002;-0.485259;-0.017017;102.3;0.0;0.0;6.2;0.0;0.0
3.0;1753873518.09279;15.861959;0.87;-1.23;-0.19;0.881075;-0.487204;-0.017598;102.6;0.0;0.0;5.6;0.0;0.0
3.0;1753873518.097514;15.85956;0.77;-1.27;-0.09;0.879849;-0.486951;-0.017357;92.4;0.0;0.0;5.7;0.0;0.0
3.0;1753873518.102236;15.845205;0.85;-1.3;-0.24;0.880966;-0.485738;-0.016492;108.6;0.0;0.0;5.5;0.0;0.0
3.0;1753873518.10696;15.86846;0.78;-1.25;-0.17;0.879732;-0.488523;-0.017492;100.0;0.0;0.0;5.7;0.0;0.0
3.0;1753873518.111683;15.867528;0.78;-1.19;-0.1;0.8816;-0.488897;-0.01672;105.3;0.0;0.0;5.5;0.0;0.0
3.0;1753873518.116406;15.842281;0.73;-1.24;-0.2;0.884154;-0.487712;-0.018136;106.6;0.0;0.0;5.2;0.0;0.0
3.0;1753873518.121129;15.838677;0.77;-1.35;-0.23;0.879207;-0.487386;-0.017229;105.3;0.0;0.0;5.3;0.0;0.0
3.0;1753873518.125852;15.878302;0.76;-1.31;-0.28;0.881613;-0.486545;-0.017482;105.2;0.0;0.0;5.4;0.0;0.0
3.0;1753873518.130575;15.854256;0.82;-1.22;-0.26;0.880966;-0.484867;-0.01786;101.9;0.0;0.0;5.6;0.0;0.0
3.0;1753873518.135298;15.828055;0.8;-1.26;-0.23;0.880834;-0.485811;-0.017083;102.9;0.0;0.0;4.5;0.0;0.0
3.0;1753873518.140021;15.861481;0.76;-1.31;-0.23;0.880883;-0.488236;-0.017972;104.2;0.0;0.0;5.9;0.0;0.0
3.0;1753873518.144744;15.855384;0.73;-1.25;-0.19;0.881636;-0.486305;-0.017389;111.0;0.0;0.0;5.2;0.0;0.0
3.0;1753873518.149467;15.842494;0.74;-1.3;-0.23;0.880714;-0.484329;-0.017632;106.8;0.0;0.0;5.3;0.0;0.0
3.0;1753873518.15419;15.813656;0.84;-1.29;-0.17;0.881662;-0.484048;-0.016788;109.9;0.0;0.0;5.6;0.0;0.0
3.0;1753873518.158913;15.838494;0.75;-1.3;-0.18;0.88231;-0.486757;-0.016437;104.8;0.0;0.0;5.8;0.0;0.0
3.0;1753873518.163636;15.843426;0.79;-1.29;-0.22;0.882442;-0.487358;-0.018458;90.8;0.0;0.0;5.1;0.0;0.0
3.0;1753873518.16836;15.86762;0.8;-1.27;-0.16;0.88217;-0.487236;-0.018366;99.8;0.0;0.0;5.3;0.0;0.0
3.0;1753873518.173082;15.835603;0.75;-1.28;-0.27;0.880038;-0.487468;-0.016642;106.4;0.0;0.0;5.4;0.0;0.0
3.0;1753873518.177806;15.829368;0.8;-1.28;-0.22;0.880636;-0.487381;-0.017999;109.5;0.0;0.0;5.6;0.0;0.0
3.0;1753873518.182529;15.84874;0.82;-1.35;-0.22;0.882441;-0.486444;-0.017676;91.1;0.0;0.0;5.4;0.0;0.0
3.0;1753873518.187252;15.847231;0.78;-1.31;-0.17;0.880361;-0.484488;-0.016494;93.5;0.0;0.0;6.1;0.0;0.0
3.0;1753873518.191975;15.883672;0.81;-1.28;-0.22;0.882804;-0.486679;-0.016763;98.8;0.0;0.0;6.2;0.0;0.0
3.0;1753873518.196698;15.864263;0.76;-1.31;-0.17;0.881284;-0.486829;-0.015822;96.4;0.0;0.0;5.6;0.0;0.0
3.0;1753873518.201421;15.886396;0.73;-1.24;-0.23;0.88149;-0.488772;-0.01566;101.0;0.0;0.0;5.3;0.0;0.0
3.0;1753873518.206144;15.855669;0.75;-1.24;-0.23;0.881238;-0.489238;-0.016481;95.3;0.0;0.0;5.6;0.0;0.0
3.0;1753873518.210867;15.851067;0.68;-1.28;-0.24;0.881598;-0.483842;-0.015945;98.8;0.0;0.0;5.6;0.0;0.0
3.0;1753873518.21559;15.848795;0.76;-1.22;-0.19;0.882491;-0.488809;-0.017436;104.3;0.0;0.0;5.6;0.0;0.0
3.0;1753873518.220313;15.850305;0.67;-1.26;-0.27;0.883072;-0.487203;-0.01599;101.1;0.0;0.0;6.0;0.0;0.0
3.0;1753873518.225036;15.87552;0.78;-1.24;-0.17;0.881373;-0.487945;-0.016091;97.0;0.0;0.0;5.6;0.0;0.0
3.0;1753873518.22976;15.879966;0.76;-1.23;-0.18;0.881538;-0.488412;-0.017373;99.0;0.0;0.0;5.5;0.0;0.0
3.0;1753873518.234482;15.852559;0.79;-1.29;-0.16;0.882344;-0.485619;-0.017179;100.0;0.0;0.0;5.6;0.0;0.0
3.0;1753873518.239206;15.880884;0.72;-1.2;-0.24;0.880363;-0.48765;-0.017003;97.6;0.0;0.0;5.3;0.0;0.0
3.0;1753873518.243929;15.832253;0.8;-1.26;-0.12;0.880827;-0.486241;-0.017334;95.5;0.0;0.0;4.5;0.0;0.0
3.0;1753873518.248652;15.819397;0.73;-1.21;-0.14;0.8817;-0.484744;-0.018157;100.8;0.0;0.0;6.0;0.0;0.0
3.0;1753873518.253375;15.826115;0.74;-1.28;-0.16;0.881367;-0.486415;-0.018025;90.7;0.0;0.0;6.0;0.0;0.0
3.0;1753873518.258098;15.865665;0.79;-1.33;-0.23;0.8804;-0.487547;-0.016624;101.3;0.0;0.0;5.3;0.0;0.0
3.0;1753873518.262821;15.880372;0.8;-1.2;-0.23;0.88166;-0.485883;-0.016898;93.6;0.0;0.0;5.1;0.0;0.0
3.0;1753873518.267544;15.893192;0.68;-1.26;-0.24;0.881967;-0.486434;-0.016398;103.1;0.0;0.0;6.6;0.0;0.0
3.0;1753873518.272267;15.86326;0.84;-1.21;-0.22;0.880624;-0.485782;-0.01772;109.1;0.0;0.0;6.3;0.0;0.0
3.0;1753873518.27699;15.892363;0.63;-1.26;-0.21;0.883094;-0.485814;-0.016411;102.2;0.0;0.0;6.0;0.0;0.0
3.0;1753873518.281713;15.839019;0.8;-1.25;-0.21;0.882827;-0.485469;-0.016746;95.9;0.0;0.0;5.5;0.0;0.0
3.0;1753873518.286436;15.899635;0.84;-1.24;-0.25;0.880776;-0.484901;-0.016152;98.2;0.0;0.0;5.4;0.0;0.0
3.0;1753873518.29116;15.808468;0.84;-1.28;-0.13;0.881153;-0.484336;-0.016886;107.0;0.0;0.0;5.5;0.0;0.0
3.0;1753873518.295882;15.885231;0.83;-1.24;-0.27;0.881434;-0.484515;-0.018293;97.0;0.0;0.0;5.1;0.0;0.0
3.0;1753873518.300606;15.881784;0.79;-1.26;-0.23;0.880443;-0.484318;-0.017102;95.4;0.0;0.0;5.2;0.0;0.0
3.0;1753873518.305328;15.863162;0.72;-1.35;-0.2;0.881569;-0.484962;-0.016;103.0;0.0;0.0;5.3;0.0;0.0
3.0;1753873518.310052;15.840802;0.83;-1.27;-0.1;0.881415;-0.487597;-0.016459;108.3;0.0;0.0;5.3;0.0;0.0
3.0;1753873518.314775;15.886764;0.76;-1.28;-0.26;0.879978;-0.487324;-0.017141;89.3;0.0;0.0;5.3;0.0;0.0
3.0;1753873518.319498;15.857986;0.86;-1.28;-0.24;0.880284;-0.484486;-0.017598;97.9;0.0;0.0;5.8;0.0;0.0
3.0;1753873518.324221;15.845285;0.83;-1.21;-0.12;0.881504;-0.486366;-0.01634;101.9;0.0;0.0;5.1;0.0;0.0
3.0;1753873518.328944;15.825597;0.81;-1.29;-0.21;0.881602;-0.484589;-0.016734;94.7;0.0;0.0;4.8;0.0;0.0
3.0;1753873518.333667;15.837608;0.76;-1.25;-0.17;0.881022;-0.486594;-0.017375;99.6;0.0;0.0;4.7;0.0;0.0
3.0;1753873518.33839;15.855638;0.73;-1.32;-0.22;0.882466;-0.487551;-0.017327;100.6;0.0;0.0;5.1;0.0;0.0
3.0;1753873518.343113;15.873533;0.78;-1.22;-0.22;0.881049;-0.48815;-0.017786;104.8;0.0;0.0;6.1;0.0;0.0
3.0;1753873518.347836;15.854413;0.89;-1.29;-0.23;0.879981;-0.486666;-0.016056;100.7;0.0;0.0;6.1;0.0;0.0
3.0;1753873518.352559;15.876841;0.8;-1.26;-0.22;0.881108;-0.486183;-0.016206;107.1;0.0;0.0;5.5;0.0;0.0
3.0;1753873518.357282;15.843507;0.79;-1.25;-0.16;0.882297;-0.486142;-0.015154;96.0;0.0;0.0;5.1;0.0;0.0
3.0;1753873518.362006;15.924057;0.73;-1.26;-0.15;0.88147;-0.484687;-0.016937;97.0;0.0;0.0;5.5;0.0;0.0
3.0;1753873518.366728;15.862661;0.87;-1.29;-0.2;0.88196;-0.485553;-0.017269;102.6;0.0;0.0;6.1;0.0;0.0
3.0;1753873518.371452;15.846802;0.76;-1.3;-0.23;0.879004;-0.48562;-0.01806;101.2;0.0;0.0;5.1;0.0;0.0
3.0;1753873518.376175;15.839745;0.72;-1.28;-0.18;0.880881;-0.488325;-0.017059;99.0;0.0;0.0;6.0;0.0;0.0
3.0;1753873518.380898;15.87086;0.73;-1.25;-0.26;0.880478;-0.485035;-0.017785;93.6;0.0;0.0;5.6;0.0;0.0
3.0;1753873518.385621;15.86838;0.69;-1.24;-0.17;0.879935;-0.488097;-0.017793;92.1;0.0;0.0;6.3;0.0;0.0
3.0;1753873518.390344;15.843319;0.82;-1.19;-0.2;0.8818;-0.48813;-0.01664;98.1;0.0;0.0;5.5;0.0;0.0
3.0;1753873518.395067;15.887899;0.75;-1.22;-0.28;0.881633;-0.487241;-0.016979;94.0;0.0;0.0;5.3;0.0;0.0
3.0;1753873518.39979;15.834825;0.76;-1.25;-0.32;0.880634;-0.486567;-0.015889;90.5;0.0;0.0;5.5;0.0;0.0
3.0;1753873518.404513;15.859799;0.78;-1.31;-0.2;0.880652;-0.485153;-0.016905;92.7;0.0;0.0;5.0;0.0;0.0
3.0;1753873518.409236;15.843433;0.72;-1.3;-0.22;0.880966;-0.485064;-0.016925;93.7;0.0;0.0;5.0;0.0;0.0
3.0;1753873518.413959;15.882397;0.77;-1.23;-0.22;0.879777;-0.486879;-0.016854;93.0;0.0;0.0;5.3;0.0;0.0
3.0;1753873518.418682;15.874479;0.88;-1.23;-0.24;0.881333;-0.486325;-0.017549;101.4;0.0;0.0;5.0;0.0;0.0
3.0;1753873518.423406;15.816091;0.74;-1.24;-0.18;0.881854;-0.485942;-0.016728;91.0;0.0;0.0;5.5;0.0;0.0
3.0;1753873518.428128;15.897921;0.79;-1.29;-0.22;0.880821;-0.485184;-0.016431;103.1;0.0;0.0;5.7;0.0;0.0
3.0;1753873518.432852;15.861173;0.77;-1.23;-0.2;0.879946;-0.487535;-0.016663;99.2;0.0;0.0;5.1;0.0;0.0
3.0;1753873518.437575;15.841552;0.74;-1.22;-0.24;0.882004;-0.487935;-0.017021;97.1;0.0;0.0;5.1;0.0;0.0
3.0;1753873518.442298;15.874925;0.74;-1.19;-0.21;0.880511;-0.486133;-0.016654;100.4;0.0;0.0;5.6;0.0;0.0
3.0;1753873518.447021;15.861375;0.69;-1.26;-0.24;0.879873;-0.486339;-0.01601;95.1;0.0;0.0;5.4;0.0;0.0
3.0;1753873518.451744;15.838038;0.71;-1.23;-0.22;0.880263;-0.487076;-0.016578;103.2;0.0;0.0;4.3;0.0;0.0
3.0;1753873518.456467;15.861289;0.83;-1.33;-0.15;0.880138;-0.486211;-0.015439;101.3;0.0;0.0;5.1;0.0;0.0
3.0;1753873518.46119;15.867288;0.79;-1.3;-0.24;0.879984;-0.486149;-0.01635;96.4;0.0;0.0;5.4;0.0;0.0
3.0;1753873518.465913;15.882492;0.76;-1.24;-0.31;0.881237;-0.4872;-0.015555;87.3;0.0;0.0;5.2;0.0;0.0
3.0;1753873518.470636;15.874131;0.77;-1.3;-0.24;0.880153;-0.488761;-0.016405;99.1;0.0;0.0;4.9;0.0;0.0
3.0;1753873518.475359;15.843425;0.76;-1.25;-0.2;0.882601;-0.486157;-0.015924;84.2;0.0;0.0;4.6;0.0;0.0
3.0;1753873518.480082;15.873612;0.78;-1.25;-0.23;0.87991;-0.483896;-0.01597;96.2;0.0;0.0;5.8;0.0;0.0
3.0;1753873518.484805;15.851918;0.68;-1.25;-0.2;0.882612;-0.485175;-0.016782;98.7;0.0;0.0;5.1;0.0;0.0
3.0;1753873518.489528;15.889592;0.84;-1.21;-0.23;0.881067;-0.487072;-0.016177;94.9;0.0;0.0;4.5;0.0;0.0
3.0;1753873518.494252;15.877161;0.77;-1.24;-0.21;0.880374;-0.487355;-0.015456;95.7;0.0;0.0;5.5;0.0;0.0
3.0;1753873518.498974;15.884913;0.78;-1.25;-0.12;0.880165;-0.487572;-0.016799;85.6;0.0;0.0;5.5;0.0;0.0
3.0;1753873518.503698;15.87225;0.86;-1.3;-0.18;0.881927;-0.487946;-0.018008;94.2;0.0;0.0;4.9;0.0;0.0
3.0;1753873518.508421;15.892903;0.73;-1.28;-0.2;0.880247;-0.489484;-0.017138;100.2;0.0;0.0;5.5;0.0;0.0
3.0;1753873518.513144;15.893726;0.71;-1.29;-0.2;0.88133;-0.486389;-0.016362;102.2;0.0;0.0;5.2;0.0;0.0
3.0;1753873518.517867;15.882058;0.81;-1.28;-0.23;0.880963;-0.485137;-0.016327;95.4;0.0;0.0;5.4;0.0;0.0
3.0;1753873518.52259;15.8475;0.83;-1.29;-0.25;0.880041;-0.486296;-0.016574;93.2;0.0;0.0;5.6;0.0;0.0
3.0;1753873518.527313;15.872001;0.72;-1.25;-0.14;0.882864;-0.485714;-0.016387;93.9;0.0;0.0;4.5;0.0;0.0
3.0;1753873518.532036;15.900769;0.79;-1.28;-0.27;0.879782;-0.4845;-0.017086;99.1;0.0;0.0;4.0;0.0;0.0
3.0;1753873518.536759;15.833265;0.64;-1.22;-0.26;0.879523;-0.48665;-0.015909;92.1;0.0;0.0;5.1;0.0;0.0
3.0;1753873518.541482;15.91133;0.68;-1.23;-0.25;0.879309;-0.486898;-0.017089;95.6;0.0;0.0;5.3;0.0;0.0
3.0;1753873518.546205;15.841061;0.71;-1.29;-0.23;0.882081;-0.4866;-0.016095;97.8;0.0;0.0;4.8;0.0;0.0
3.0;1753873518.550928;15.87328;0.68;-1.26;-0.21;0.881521;-0.48717;-0.016019;105.0;0.0;0.0;5.5;0.0;0.0
3.0;1753873518.555652;15.900853;0.75;-1.26;-0.22;0.879934;-0.487149;-0.017325;95.7;0.0;0.0;5.4;0.0;0.0
3.0;1753873518.560374;15.880524;0.85;-1.28;-0.29;0.882355;-0.485992;-0.016501;91.7;0.0;0.0;5.3;0.0;0.0
3.0;1753873518.565098;15.87465;0.78;-1.24;-0.25;0.880344;-0.486948;-0.016187;89.2;0.0;0.0;5.7;0.0;0.0
3.0;1753873518.569821;15.878883;0.73;-1.2;-0.18;0.881336;-0.489196;-0.016612;94.2;0.0;0.0;5.4;0.0;0.0
3.0;1753873518.574544;15.878916;0.7;-1.27;-0.31;0.879101;-0.488229;-0.016543;90.4;0.0;0.0;5.4;0.0;0.0
3.0;1753873518.579267;15.908173;0.74;-1.3;-0.29;0.882127;-0.48486;-0.015548;83.8;0.0;0.0;5.0;0.0;0.0
3.0;1753873518.58399;15.883725;0.79;-1.29;-0.27;0.881296;-0.484082;-0.016929;100.6;0.0;0.0;6.2;0.0;0.0
3.0;1753873518.588713;15.904269;0.82;-1.3;-0.25;0.879401;-0.485058;-0.015943;86.5;0.0;0.0;4.8;0.0;0.0
3.0;1753873518.593436;15.857314;0.78;-1.26;-0.24;0.88163;-0.487182;-0.01659;88.3;0.0;0.0;4.3;0.0;0.0
3.0;1753873518.598159;15.832968;0.77;-1.24;-0.23;0.882778;-0.48944;-0.017497;90.0;0.0;0.0;4.9;0.0;0.0
3.0;1753873518.602882;15.873054;0.79;-1.26;-0.2;0.880234;-0.487673;-0.015543;91.1;0.0;0.0;5.1;0.0;0.0
3.0;1753873518.607605;15.878972;0.76;-1.22;-0.17;0.881863;-0.485594;-0.01522;91.0;0.0;0.0;5.0;0.0;0.0
3.0;1753873518.612328;15.880896;0.77;-1.2;-0.27;0.880441;-0.487583;-0.015198;96.1;0.0;0.0;4.5;0.0;0.0
3.0;1753873518.617051;15.888733;0.83;-1.26;-0.19;0.882229;-0.486384;-0.01626;86.3;0.0;0.0;4.9;0.0;0.0
3.0;1753873518.621774;15.862729;0.77;-1.24;-0.19;0.881013;-0.486702;-0.017008;84.0;0.0;0.0;5.1;0.0;0.0
3.0;1753873518.626498;15.877095;0.84;-1.28;-0.18;0.881244;-0.486948;-0.017207;92.1;0.0;0.0;4.4;0.0;0.0
3.0;1753873518.63122;15.850371;0.88;-1.23;-0.23;0.882187;-0.484981;-0.016258;90.5;0.0;0.0;5.3;0.0;0.0
3.0;1753873518.635944;15.894499;0.78;-1.2;-0.25;0.881617;-0.489338;-0.016392;98.2;0.0;0.0;5.3;0.0;0.0
3.0;1753873518.640667;15.839051;0.76;-1.26;-0.26;0.879955;-0.486416;-0.016713;93.1;0.0;0.0;5.3;0.0;0.0
3.0;1753873518.64539;15.882128;0.79;-1.21;-0.23;0.882301;-0.486903;-0.016788;85.8;0.0;0.0;5.5;0.0;0.0
3.0;1753873518.650113;15.904866;0.74;-1.25;-0.32;0.879801;-0.487418;-0.016371;88.0;0.0;0.0;4.5;0.0;0.0
3.0;1753873518.654836;15.910891;0.7;-1.27;-0.21;0.880917;-0.489598;-0.01594;94.9;0.0;0.0;5.3;0.0;0.0
3.0;1753873518.6597;15.871094;0.77;-1.26;-0.21;0.880718;-0.487268;-0.016348;91.0;0.0;0.0;5.0;0.0;0.0
3.0;1753873518.664423;15.886694;0.71;-1.23;-0.05;0.880204;-0.487281;-0.017679;87.6;0.0;0.0;4.7;0.0;0.0
3.0;1753873518.669146;15.858664;0.74;-1.33;-0.15;0.87857;-0.488251;-0.015937;100.9;0.0;0.0;5.3;0.0;0.0
3.0;1753873518.673869;15.844146;0.86;-1.33;-0.24;0.880505;-0.489273;-0.016767;82.7;0.0;0.0;5.2;0.0;0.0
3.0;1753873518.678592;15.843378;0.72;-1.27;-0.12;0.880082;-0.486134;-0.015821;94.8;0.0;0.0;5.1;0.0;0.0
3.0;1753873518.683315;15.87128;0.75;-1.27;-0.18;0.881323;-0.487014;-0.016225;93.4;0.0;0.0;4.4;0.0;0.0
3.0;1753873518.688038;15.876544;0.87;-1.35;-0.15;0.880332;-0.489746;-0.016505;81.6;0.0;0.0;5.3;0.0;0.0
3.0;1753873518.692762;15.834482;0.78;-1.27;-0.14;0.879999;-0.487321;-0.016898;93.6;0.0;0.0;4.7;0.0;0.0
3.0;1753873518.697484;15.831688;0.73;-1.32;-0.2;0.879247;-0.489267;-0.017819;84.6;0.0;0.0;4.7;0.0;0.0
3.0;1753873518.702208;15.8474;0.84;-1.27;-0.14;0.879817;-0.486578;-0.017386;92.0;0.0;0.0;4.2;0.0;0.0
3.0;1753873518.706931;15.863582;0.8;-1.34;-0.17;0.878711;-0.488634;-0.015033;91.8;0.0;0.0;6.0;0.0;0.0
3.0;1753873518.711654;15.848966;0.81;-1.37;-0.16;0.880412;-0.488752;-0.017402;90.4;0.0;0.0;5.4;0.0;0.0
3.0;1753873518.716377;15.899341;0.79;-1.29;-0.23;0.880265;-0.490212;-0.017317;95.5;0.0;0.0;4.4;0.0;0.0
3.0;1753873518.7211;15.886886;0.73;-1.37;-0.15;0.880532;-0.489831;-0.016928;94.8;0.0;0.0;5.0;0.0;0.0
3.0;1753873518.725823;15.903804;0.8;-1.35;-0.17;0.879274;-0.486486;-0.015774;93.4;0.0;0.0;4.9;0.0;0.0
3.0;1753873518.730546;15.845961;0.86;-1.39;-0.12;0.879162;-0.488493;-0.017452;86.1;0.0;0.0;4.7;0.0;0.0
3.0;1753873518.735269;15.870064;0.79;-1.41;-0.22;0.879428;-0.489979;-0.015772;91.3;0.0;0.0;4.9;0.0;0.0
3.0;1753873518.739992;15.871634;0.86;-1.33;-0.18;0.880753;-0.490651;-0.016313;95.2;0.0;0.0;4.1;0.0;0.0
3.0;1753873518.744715;15.878023;0.82;-1.44;-0.19;0.879663;-0.486735;-0.016113;85.9;0.0;0.0;4.7;0.0;0.0
3.0;1753873518.749438;15.889278;0.75;-1.43;-0.12;0.881041;-0.488671;-0.015231;93.8;0.0;0.0;3.9;0.0;0.0
3.0;1753873518.754161;15.887744;0.9;-1.37;-0.22;0.879806;-0.489332;-0.017127;92.1;0.0;0.0;5.9;0.0;0.0
3.0;1753873518.758884;15.892543;0.8;-1.34;-0.12;0.878242;-0.491039;-0.016036;88.0;0.0;0.0;4.9;0.0;0.0
3.0;1753873518.7635;15.871094;0.84;-1.4;-0.14;0.87962;-0.49044;-0.016714;91.0;0.0;0.0;5.0;0.0;0.0
3.0;1753873518.768223;15.878007;0.76;-1.33;-0.23;0.878977;-0.493195;-0.01673;83.4;0.0;0.0;4.5;0.0;0.0
3.0;1753873518.772946;15.858976;0.95;-1.3;-0.21;0.879299;-0.490698;-0.016624;97.9;0.0;0.0;5.6;0.0;0.0
3.0;1753873518.777669;15.890545;0.99;-1.32;-0.07;0.879345;-0.489827;-0.016806;90.9;0.0;0.0;4.3;0.0;0.0
3.0;1753873518.7862;15.886719;0.84;-1.26;-0.14;0.879498;-0.488732;-0.016714;91.0;0.0;0.0;5.0;0.0;0.0
3.0;1753873518.790923;15.844326;0.84;-1.22;-0.14;0.880075;-0.491079;-0.017312;87.6;0.0;0.0;5.3;0.0;0.0
3.0;1753873518.795646;15.887221;0.72;-1.24;-0.2;0.880015;-0.489695;-0.015967;87.0;0.0;0.0;5.6;0.0;0.0
3.0;1753873518.800369;15.886761;0.89;-1.27;-0.06;0.879067;-0.489164;-0.017028;88.0;0.0;0.0;5.6;0.0;0.0
3.0;1753873518.805092;15.857733;0.76;-1.2;-0.17;0.88022;-0.489454;-0.017441;89.6;0.0;0.0;5.5;0.0;0.0
3.0;1753873518.809816;15.869356;0.99;-1.21;-0.1;0.879446;-0.489893;-0.017479;83.8;0.0;0.0;4.8;0.0;0.0
3.0;1753873518.814538;15.880186;0.64;-1.25;-0.24;0.880131;-0.487556;-0.016929;82.4;0.0;0.0;5.0;0.0;0.0
3.0;1753873518.819262;15.890552;0.76;-1.35;-0.14;0.879917;-0.488225;-0.019185;93.1;0.0;0.0;4.5;0.0;0.0
3.0;1753873518.823984;15.898129;0.86;-1.24;-0.28;0.87945;-0.488929;-0.016845;98.2;0.0;0.0;5.1;0.0;0.0
3.0;1753873518.828708;15.851324;0.87;-1.24;-0.24;0.880243;-0.489784;-0.017973;101.8;0.0;0.0;5.1;0.0;0.0
3.0;1753873518.83515;15.886719;0.77;-1.26;-0.21;0.880108;-0.489342;-0.017812;91.0;0.0;0.0;5.0;0.0;0.0
3.0;1753873518.839873;15.8923;0.71;-1.27;-0.2;0.880605;-0.489875;-0.017793;92.0;0.0;0.0;4.7;0.0;0.0
3.0;1753873518.844596;15.909203;0.86;-1.29;-0.19;0.879329;-0.488654;-0.016744;88.9;0.0;0.0;5.8;0.0;0.0
3.0;1753873518.849319;15.873716;0.56;-1.33;-0.11;0.881188;-0.488624;-0.016343;90.8;0.0;0.0;5.3;0.0;0.0
3.0;1753873518.854042;15.896746;0.87;-1.31;-0.17;0.880773;-0.487256;-0.01644;97.6;0.0;0.0;4.8;0.0;0.0
3.0;1753873518.858765;15.895576;0.74;-1.36;-0.11;0.881048;-0.488922;-0.016207;94.7;0.0;0.0;5.1;0.0;0.0
3.0;1753873518.863488;15.888242;0.77;-1.27;-0.07;0.881656;-0.485403;-0.016746;104.6;0.0;0.0;5.2;0.0;0.0
3.0;1753873518.868212;15.902919;0.88;-1.32;-0.16;0.879418;-0.487923;-0.017059;84.2;0.0;0.0;5.0;0.0;0.0
3.0;1753873518.87578;15.886719;0.84;-1.33;-0.14;0.881328;-0.486414;-0.01647;91.0;0.0;0.0;5.0;0.0;0.0
3.0;1753873518.880503;15.871928;0.84;-1.27;-0.12;0.881772;-0.486135;-0.016352;92.0;0.0;0.0;5.0;0.0;0.0
3.0;1753873518.885226;15.889926;0.8;-1.31;-0.06;0.881801;-0.48966;-0.016321;93.9;0.0;0.0;4.9;0.0;0.0
3.0;1753873518.889949;15.898657;0.85;-1.31;-0.11;0.880451;-0.486936;-0.017567;85.9;0.0;0.0;5.2;0.0;0.0
3.0;1753873518.894672;15.868758;0.78;-1.27;-0.2;0.880638;-0.487534;-0.016215;92.4;0.0;0.0;4.5;0.0;0.0
3.0;1753873518.899396;15.929009;0.83;-1.29;-0.07;0.877375;-0.488402;-0.016914;91.0;0.0;0.0;5.2;0.0;0.0
3.0;1753873518.904118;15.896093;0.77;-1.38;-0.15;0.879575;-0.488277;-0.016961;92.0;0.0;0.0;5.2;0.0;0.0
3.0;1753873518.908842;15.89256;0.74;-1.29;-0.1;0.877552;-0.486454;-0.016075;85.7;0.0;0.0;4.6;0.0;0.0
3.0;1753873518.913565;15.898125;0.68;-1.34;-0.08;0.880445;-0.491461;-0.016243;92.7;0.0;0.0;4.9;0.0;0.0
3.0;1753873518.91902;15.886719;0.7;-1.26;-0.14;0.878644;-0.489098;-0.015982;91.0;0.0;0.0;5.0;0.0;0.0
3.0;1753873518.923743;15.880203;0.7;-1.29;-0.08;0.879259;-0.490207;-0.016551;88.3;0.0;0.0;5.2;0.0;0.0
3.0;1753873518.928466;15.888712;0.76;-1.18;-0.25;0.879805;-0.486876;-0.01679;99.1;0.0;0.0;4.7;0.0;0.0
3.0;1753873518.933189;15.902813;0.69;-1.3;-0.29;0.879519;-0.491537;-0.015205;89.4;0.0;0.0;5.1;0.0;0.0
3.0;1753873518.937912;15.922251;0.66;-1.23;-0.17;0.880513;-0.487799;-0.016547;89.5;0.0;0.0;4.9;0.0;0.0
3.0;1753873518.942635;15.905609;0.71;-1.38;-0.19;0.880862;-0.488869;-0.017531;91.3;0.0;0.0;5.2;0.0;0.0
3.0;1753873518.947358;15.882155;0.82;-1.26;-0.13;0.880699;-0.489153;-0.016877;89.7;0.0;0.0;5.1;0.0;0.0
3.0;1753873518.952082;15.90139;0.72;-1.36;-0.12;0.879358;-0.490347;-0.016581;91.3;0.0;0.0;5.1;0.0;0.0
3.0;1753873518.956804;15.866595;0.64;-1.42;-0.16;0.881525;-0.487476;-0.017093;93.2;0.0;0.0;5.0;0.0;0.0
3.0;1753873518.961528;15.866611;0.79;-1.23;-0.24;0.882481;-0.488252;-0.01756;95.1;0.0;0.0;5.2;0.0;0.0
3.0;1753873518.96593;15.886719;0.77;-1.33;-0.21;0.88206;-0.488;-0.017934;91.0;0.0;0.0;5.0;0.0;0.0
3.0;1753873518.966917;15.800781;0.77;-1.26;-0.14;0.878644;-0.489098;-0.016592;98.0;0.0;0.0;5.0;0.0;0.0
3.0;1753873518.972875;15.800781;0.77;-1.26;-0.14;0.880718;-0.486048;-0.01769;98.0;0.0;0.0;5.0;0.0;0.0
3.0;1753873518.976236;15.824219;0.7;-1.26;-0.07;0.878278;-0.488488;-0.016226;98.0;0.0;0.0;5.0;0.0;0.0
3.0;1753873518.980963;15.824219;0.7;-1.33;-0.14;0.879254;-0.488366;-0.017446;98.0;0.0;0.0;5.0;0.0;0.0
3.0;1753873518.985686;15.822806;0.77;-1.33;-0.21;0.878515;-0.489716;-0.016967;94.3;0.0;0.0;4.9;0.0;0.0
3.0;1753873518.990409;15.820529;0.75;-1.33;-0.11;0.879927;-0.48784;-0.015431;98.2;0.0;0.0;4.6;0.0;0.0
3.0;1753873518.995242;15.816406;0.77;-1.4;-0.21;0.878522;-0.488854;-0.014396;96.0;0.0;0.0;4.0;0.0;0.0
3.0;1753873518.999965;15.811798;0.76;-1.35;-0.11;0.879098;-0.489593;-0.012638;96.9;0.0;0.0;3.9;0.0;0.0
3.0;1753873519.004688;15.844023;0.79;-1.43;-0.15;0.878652;-0.489289;-0.014455;96.3;0.0;0.0;4.1;0.0;0.0
3.0;1753873519.009411;15.837847;0.75;-1.36;-0.2;0.879021;-0.490385;-0.013863;95.9;0.0;0.0;4.1;0.0;0.0
3.0;1753873519.014134;15.776198;0.84;-1.41;-0.14;0.877717;-0.490436;-0.014486;96.6;0.0;0.0;4.0;0.0;0.0
3.0;1753873519.018858;15.802496;0.78;-1.41;-0.18;0.878442;-0.486828;-0.014587;96.1;0.0;0.0;4.2;0.0;0.0
3.0;1753873519.02358;15.819309;0.72;-1.41;-0.23;0.880103;-0.487604;-0.016503;95.9;0.0;0.0;3.8;0.0;0.0
3.0;1753873519.028304;15.844025;0.81;-1.4;-0.22;0.878065;-0.488861;-0.014343;96.7;0.0;0.0;4.2;0.0;0.0
3.0;1753873519.033027;15.794771;0.83;-1.45;-0.2;0.879478;-0.487945;-0.014511;95.3;0.0;0.0;3.7;0.0;0.0
3.0;1753873519.03775;15.834302;0.75;-1.33;-0.25;0.877746;-0.490587;-0.015522;95.2;0.0;0.0;4.4;0.0;0.0
3.0;1753873519.042473;15.79693;0.74;-1.42;-0.15;0.878184;-0.487611;-0.015664;96.2;0.0;0.0;4.1;0.0;0.0
3.0;1753873519.047196;15.825777;0.79;-1.38;-0.16;0.878258;-0.490138;-0.014187;97.3;0.0;0.0;4.0;0.0;0.0
3.0;1753873519.051919;15.807282;0.85;-1.39;-0.27;0.879315;-0.48864;-0.014271;95.1;0.0;0.0;3.8;0.0;0.0
3.0;1753873519.056642;15.843273;0.85;-1.35;-0.16;0.878808;-0.488083;-0.016496;96.0;0.0;0.0;3.4;0.0;0.0
3.0;1753873519.061365;15.811298;0.72;-1.43;-0.18;0.87853;-0.489844;-0.014803;95.7;0.0;0.0;4.1;0.0;0.0
3.0;1753873519.066088;15.790869;0.7;-1.38;-0.26;0.878649;-0.489479;-0.014771;95.7;0.0;0.0;3.9;0.0;0.0
3.0;1753873519.070811;15.812758;0.83;-1.46;-0.19;0.878722;-0.489133;-0.015466;96.2;0.0;0.0;4.2;0.0;0.0
3.0;1753873519.075534;15.80753;0.75;-1.41;-0.17;0.879276;-0.487802;-0.014624;96.2;0.0;0.0;4.2;0.0;0.0
3.0;1753873519.080258;15.808057;0.84;-1.35;-0.16;0.87827;-0.488191;-0.015586;97.1;0.0;0.0;4.3;0.0;0.0
3.0;1753873519.08498;15.802618;0.8;-1.42;-0.16;0.87854;-0.489123;-0.014703;95.4;0.0;0.0;4.0;0.0;0.0
3.0;1753873519.089704;15.825668;0.78;-1.38;-0.24;0.877306;-0.487763;-0.018105;96.8;0.0;0.0;3.7;0.0;0.0
3.0;1753873519.094427;15.832807;0.73;-1.4;-0.18;0.878275;-0.487644;-0.014414;96.8;0.0;0.0;4.3;0.0;0.0
3.0;1753873519.09915;15.862273;0.82;-1.41;-0.14;0.879553;-0.488849;-0.014896;96.4;0.0;0.0;3.9;0.0;0.0
3.0;1753873519.103873;15.807491;0.85;-1.42;-0.21;0.877795;-0.486934;-0.015886;96.4;0.0;0.0;4.3;0.0;0.0
3.0;1753873519.108596;15.774288;0.84;-1.44;-0.12;0.87884;-0.487369;-0.016364;95.2;0.0;0.0;3.8;0.0;0.0
3.0;1753873519.113319;15.845452;0.75;-1.31;-0.15;0.879822;-0.488743;-0.016144;97.1;0.0;0.0;4.4;0.0;0.0
3.0;1753873519.118042;15.820048;0.83;-1.41;-0.18;0.879301;-0.487757;-0.016277;95.3;0.0;0.0;3.7;0.0;0.0
3.0;1753873519.122765;15.832344;0.72;-1.37;-0.22;0.878521;-0.488769;-0.016085;95.9;0.0;0.0;3.8;0.0;0.0
3.0;1753873519.127488;15.806886;0.78;-1.43;-0.15;0.880097;-0.489545;-0.015426;94.8;0.0;0.0;4.2;0.0;0.0
3.0;1753873519.132211;15.815914;0.69;-1.41;-0.17;0.880483;-0.486736;-0.014412;95.6;0.0;0.0;4.1;0.0;0.0
3.0;1753873519.136934;15.822398;0.8;-1.27;-0.12;0.87763;-0.488298;-0.015225;94.6;0.0;0.0;3.8;0.0;0.0
3.0;1753873519.141657;15.844087;0.83;-1.4;-0.17;0.879613;-0.489755;-0.014815;95.9;0.0;0.0;4.6;0.0;0.0
3.0;1753873519.14638;15.818488;0.74;-1.41;-0.13;0.879373;-0.490466;-0.015174;96.3;0.0;0.0;4.2;0.0;0.0
3.0;1753873519.151104;15.853387;0.72;-1.45;-0.19;0.878535;-0.486841;-0.015977;96.4;0.0;0.0;4.1;0.0;0.0
3.0;1753873519.155826;15.820787;0.8;-1.31;-0.24;0.878753;-0.488538;-0.017155;95.9;0.0;0.0;4.2;0.0;0.0
3.0;1753873519.16055;15.778009;0.76;-1.4;-0.13;0.877697;-0.489481;-0.01636;96.9;0.0;0.0;3.8;0.0;0.0
3.0;1753873519.165273;15.856223;0.84;-1.39;-0.26;0.880082;-0.48744;-0.016766;96.3;0.0;0.0;3.8;0.0;0.0
3.0;1753873519.169996;15.785525;0.78;-1.4;-0.2;0.8807;-0.490273;-0.016516;95.5;0.0;0.0;3.9;0.0;0.0
3.0;1753873519.174719;15.829342;0.8;-1.39;-0.27;0.87884;-0.488852;-0.016785;95.6;0.0;0.0;4.0;0.0;0.0
3.0;1753873519.179442;15.813576;0.76;-1.33;-0.26;0.878452;-0.486633;-0.017254;96.4;0.0;0.0;3.8;0.0;0.0
3.0;1753873519.184165;15.770047;0.82;-1.37;-0.22;0.879035;-0.4888;-0.018643;96.4;0.0;0.0;4.0;0.0;0.0
3.0;1753873519.188888;15.819746;0.75;-1.32;-0.21;0.877967;-0.48706;-0.016443;96.0;0.0;0.0;3.6;0.0;0.0
3.0;1753873519.193611;15.800456;0.75;-1.39;-0.21;0.878328;-0.487166;-0.016756;96.6;0.0;0.0;3.9;0.0;0.0
3.0;1753873519.198334;15.822161;0.81;-1.4;-0.16;0.878424;-0.486764;-0.0159;95.9;0.0;0.0;4.5;0.0;0.0
3.0;1753873519.203057;15.827056;0.81;-1.4;-0.2;0.878068;-0.486587;-0.015509;96.1;0.0;0.0;3.6;0.0;0.0
3.0;1753873519.20778;15.824355;0.82;-1.26;-0.22;0.879364;-0.487937;-0.016652;94.9;0.0;0.0;3.8;0.0;0.0
3.0;1753873519.212504;15.771454;0.83;-1.4;-0.26;0.879363;-0.48868;-0.017238;96.7;0.0;0.0;3.9;0.0;0.0
3.0;1753873519.217226;15.831853;0.79;-1.3;-0.25;0.879067;-0.487694;-0.016507;96.2;0.0;0.0;3.7;0.0;0.0
3.0;1753873519.22195;15.822374;0.89;-1.36;-0.2;0.880229;-0.488681;-0.017589;96.2;0.0;0.0;4.0;0.0;0.0
3.0;1753873519.226673;15.801653;0.8;-1.39;-0.16;0.879486;-0.487255;-0.015523;96.5;0.0;0.0;4.5;0.0;0.0
3.0;1753873519.231396;15.804503;0.76;-1.35;-0.23;0.880578;-0.48795;-0.016128;95.9;0.0;0.0;4.0;0.0;0.0
3.0;1753873519.236119;15.79364;0.83;-1.37;-0.16;0.879215;-0.485879;-0.016611;95.8;0.0;0.0;3.8;0.0;0.0
3.0;1753873519.240842;15.781292;0.84;-1.35;-0.13;0.879411;-0.488203;-0.018344;95.0;0.0;0.0;4.1;0.0;0.0
3.0;1753873519.245565;15.839137;0.86;-1.26;-0.25;0.879084;-0.487887;-0.019446;95.6;0.0;0.0;3.8;0.0;0.0
3.0;1753873519.250288;15.820534;0.84;-1.33;-0.22;0.879299;-0.486763;-0.018198;95.7;0.0;0.0;4.8;0.0;0.0
3.0;1753873519.255011;15.773149;0.89;-1.32;-0.13;0.878462;-0.487283;-0.017369;95.3;0.0;0.0;4.2;0.0;0.0
3.0;1753873519.259734;15.821634;0.81;-1.36;-0.12;0.878702;-0.48763;-0.018757;95.4;0.0;0.0;4.1;0.0;0.0
3.0;1753873519.264457;15.80917;0.84;-1.29;-0.13;0.879967;-0.48733;-0.018043;95.8;0.0;0.0;4.0;0.0;0.0
3.0;1753873519.26918;15.815881;0.78;-1.35;-0.18;0.878494;-0.48788;-0.016172;96.0;0.0;0.0;4.0;0.0;0.0
3.0;1753873519.273903;15.820842;0.83;-1.39;-0.17;0.879786;-0.486658;-0.01783;96.0;0.0;0.0;4.4;0.0;0.0
3.0;1753873519.278626;15.839797;0.83;-1.41;-0.15;0.87924;-0.489712;-0.01734;96.9;0.0;0.0;3.9;0.0;0.0
3.0;1753873519.28335;15.795602;0.87;-1.37;-0.05;0.879912;-0.486861;-0.017282;95.4;0.0;0.0;4.1;0.0;0.0
3.0;1753873519.288072;15.833439;0.84;-1.3;-0.06;0.879001;-0.486653;-0.017061;96.1;0.0;0.0;4.1;0.0;0.0
3.0;1753873519.292796;15.822063;0.87;-1.28;-0.13;0.87953;-0.487576;-0.019272;96.3;0.0;0.0;4.1;0.0;0.0
3.0;1753873519.297519;15.82272;0.76;-1.42;-0.13;0.879327;-0.48722;-0.016079;95.6;0.0;0.0;4.6;0.0;0.0
3.0;1753873519.302242;15.823425;0.77;-1.45;-0.1;0.878964;-0.488734;-0.017147;96.3;0.0;0.0;3.7;0.0;0.0
3.0;1753873519.306965;15.797314;0.76;-1.32;-0.12;0.880014;-0.48647;-0.019731;96.3;0.0;0.0;4.1;0.0;0.0
3.0;1753873519.311688;15.834517;0.83;-1.38;-0.29;0.879807;-0.487547;-0.019553;96.1;0.0;0.0;4.5;0.0;0.0
3.0;1753873519.316411;15.824601;0.84;-1.28;-0.05;0.879426;-0.48804;-0.016993;96.1;0.0;0.0;4.2;0.0;0.0
3.0;1753873519.321134;15.801848;0.83;-1.41;-0.12;0.879592;-0.486767;-0.018344;97.3;0.0;0.0;4.0;0.0;0.0
3.0;1753873519.325857;15.816683;0.81;-1.4;-0.1;0.878819;-0.488323;-0.017663;95.7;0.0;0.0;3.9;0.0;0.0
3.0;1753873519.33058;15.785632;0.86;-1.33;-0.11;0.878453;-0.487065;-0.018998;96.4;0.0;0.0;4.1;0.0;0.0
3.0;1753873519.335303;15.79418;0.77;-1.41;-0.06;0.88058;-0.486702;-0.018776;96.2;0.0;0.0;4.0;0.0;0.0
3.0;1753873519.340026;15.849212;0.86;-1.31;-0.2;0.879368;-0.489659;-0.015404;96.4;0.0;0.0;3.9;0.0;0.0
3.0;1753873519.34475;15.8197;0.85;-1.37;-0.13;0.879066;-0.487414;-0.018145;95.1;0.0;0.0;4.0;0.0;0.0
3.0;1753873519.349472;15.810254;0.82;-1.34;-0.18;0.880545;-0.487691;-0.019444;96.1;0.0;0.0;4.2;0.0;0.0
3.0;1753873519.354196;15.831207;0.83;-1.33;-0.13;0.880866;-0.488745;-0.018977;96.2;0.0;0.0;4.2;0.0;0.0
3.0;1753873519.358919;15.831309;0.83;-1.42;-0.17;0.880438;-0.486852;-0.019722;96.6;0.0;0.0;4.0;0.0;0.0
3.0;1753873519.363642;15.765072;0.86;-1.29;-0.09;0.879758;-0.490059;-0.017056;95.6;0.0;0.0;4.0;0.0;0.0
3.0;1753873519.368365;15.857539;0.74;-1.31;-0.15;0.880142;-0.48806;-0.016769;96.2;0.0;0.0;3.9;0.0;0.0
3.0;1753873519.373088;15.832642;0.76;-1.4;-0.22;0.880466;-0.489265;-0.020055;95.3;0.0;0.0;3.7;0.0;0.0
3.0;1753873519.3807;15.816406;0.84;-1.33;-0.14;0.879864;-0.487146;-0.018544;96.0;0.0;0.0;4.0;0.0;0.0
3.0;1753873519.385423;15.820415;0.84;-1.38;-0.06;0.880494;-0.487829;-0.018407;96.6;0.0;0.0;4.3;0.0;0.0
3.0;1753873519.390146;15.788844;0.85;-1.37;-0.18;0.880664;-0.486614;-0.019073;96.9;0.0;0.0;4.1;0.0;0.0
3.0;1753873519.394869;15.836357;0.8;-1.31;-0.06;0.878724;-0.48972;-0.019386;96.5;0.0;0.0;3.5;0.0;0.0
3.0;1753873519.399592;15.810161;0.77;-1.27;-0.08;0.877559;-0.48804;-0.017544;96.6;0.0;0.0;4.1;0.0;0.0
3.0;1753873519.404316;15.819316;0.79;-1.38;-0.04;0.87999;-0.488649;-0.019206;96.2;0.0;0.0;4.0;0.0;0.0
3.0;1753873519.409038;15.831388;0.91;-1.26;-0.1;0.879861;-0.488619;-0.019123;95.8;0.0;0.0;4.2;0.0;0.0
3.0;1753873519.413762;15.806201;0.76;-1.31;-0.08;0.878998;-0.488754;-0.016301;95.9;0.0;0.0;3.9;0.0;0.0
3.0;1753873519.418485;15.801289;0.81;-1.32;0.0;0.879776;-0.48902;-0.016252;96.4;0.0;0.0;4.3;0.0;0.0
3.0;1753873519.423208;15.82695;0.72;-1.24;-0.01;0.878709;-0.488849;-0.01403;97.1;0.0;0.0;3.9;0.0;0.0
3.0;1753873519.4309;15.816406;0.77;-1.26;-0.07;0.878644;-0.488976;-0.016104;96.0;0.0;0.0;4.0;0.0;0.0
3.0;1753873519.435623;15.815231;0.79;-1.24;-0.01;0.879197;-0.490689;-0.016384;95.7;0.0;0.0;3.8;0.0;0.0
3.0;1753873519.440346;15.823954;0.7;-1.22;-0.12;0.877614;-0.488375;-0.015905;95.0;0.0;0.0;3.3;0.0;0.0
3.0;1753873519.445069;15.79048;0.73;-1.2;-0.05;0.878923;-0.489121;-0.015989;96.4;0.0;0.0;4.0;0.0;0.0
3.0;1753873519.449792;15.814716;0.72;-1.23;-0.2;0.878513;-0.487336;-0.016651;95.1;0.0;0.0;3.7;0.0;0.0
3.0;1753873519.454516;15.831547;0.73;-1.27;-0.08;0.879956;-0.487932;-0.016063;96.2;0.0;0.0;4.3;0.0;0.0
3.0;1753873519.459238;15.827426;0.78;-1.2;-0.14;0.877345;-0.489113;-0.017077;95.5;0.0;0.0;4.2;0.0;0.0
3.0;1753873519.463962;15.805519;0.74;-1.2;-0.16;0.878819;-0.48915;-0.015698;96.2;0.0;0.0;3.7;0.0;0.0
3.0;1753873519.468685;15.833268;0.75;-1.23;-0.05;0.879188;-0.486677;-0.014839;95.6;0.0;0.0;4.2;0.0;0.0
3.0;1753873519.473408;15.800678;0.75;-1.16;-0.05;0.880114;-0.485665;-0.015206;95.6;0.0;0.0;4.2;0.0;0.0
3.0;1753873519.478131;15.831872;0.67;-1.27;-0.09;0.878926;-0.487763;-0.015539;94.9;0.0;0.0;4.3;0.0;0.0
3.0;1753873519.482854;15.828335;0.71;-1.34;-0.03;0.877484;-0.488636;-0.014074;96.7;0.0;0.0;3.8;0.0;0.0
3.0;1753873519.487577;15.826832;0.85;-1.28;-0.11;0.878821;-0.488286;-0.016699;97.6;0.0;0.0;3.9;0.0;0.0
3.0;1753873519.4923;15.825745;0.77;-1.12;-0.18;0.878806;-0.48898;-0.015567;95.3;0.0;0.0;3.8;0.0;0.0
3.0;1753873519.497023;15.825203;0.75;-1.15;-0.1;0.878352;-0.4896;-0.016914;95.3;0.0;0.0;4.2;0.0;0.0
3.0;1753873519.501746;15.799488;0.74;-1.27;-0.06;0.878061;-0.4878;-0.018201;94.8;0.0;0.0;3.9;0.0;0.0
3.0;1753873519.506469;15.808575;0.8;-1.21;0.04;0.878333;-0.489783;-0.017913;96.0;0.0;0.0;4.1;0.0;0.0
3.0;1753873519.511192;15.843983;0.73;-1.23;-0.21;0.879625;-0.487157;-0.014969;95.9;0.0;0.0;4.5;0.0;0.0
3.0;1753873519.515916;15.798789;0.69;-1.22;-0.04;0.879049;-0.488316;-0.017489;96.6;0.0;0.0;3.8;0.0;0.0
3.0;1753873519.520638;15.844379;0.72;-1.3;-0.06;0.878349;-0.484628;-0.016145;96.1;0.0;0.0;3.8;0.0;0.0
3.0;1753873519.525362;15.811505;0.75;-1.25;-0.17;0.878333;-0.487799;-0.017333;96.3;0.0;0.0;3.6;0.0;0.0
3.0;1753873519.530084;15.837484;0.83;-1.27;-0.08;0.879632;-0.485632;-0.015731;95.8;0.0;0.0;4.1;0.0;0.0
3.0;1753873519.534808;15.847984;0.76;-1.33;-0.17;0.878005;-0.487912;-0.015631;95.2;0.0;0.0;3.1;0.0;0.0
3.0;1753873519.539531;15.832707;0.79;-1.24;-0.17;0.880804;-0.488702;-0.019203;95.4;0.0;0.0;4.2;0.0;0.0
3.0;1753873519.544254;15.798276;0.69;-1.3;-0.08;0.878759;-0.487729;-0.015244;96.5;0.0;0.0;3.7;0.0;0.0
3.0;1753873519.548977;15.813486;0.79;-1.18;-0.09;0.87894;-0.488102;-0.016502;96.1;0.0;0.0;4.8;0.0;0.0
3.0;1753873519.5537;15.819604;0.77;-1.26;-0.12;0.878194;-0.48826;-0.01583;97.0;0.0;0.0;4.1;0.0;0.0
3.0;1753873519.558423;15.808687;0.82;-1.29;-0.16;0.879905;-0.48789;-0.017507;95.0;0.0;0.0;4.0;0.0;0.0
3.0;1753873519.563146;15.81105;0.82;-1.3;-0.09;0.878884;-0.486747;-0.016394;96.5;0.0;0.0;3.8;0.0;0.0
3.0;1753873519.567869;15.783202;0.8;-1.31;-0.17;0.878855;-0.485123;-0.01595;95.3;0.0;0.0;4.1;0.0;0.0
3.0;1753873519.572592;15.809073;0.63;-1.3;0.02;0.880077;-0.491123;-0.017668;96.2;0.0;0.0;4.1;0.0;0.0
3.0;1753873519.577315;15.805097;0.75;-1.24;-0.15;0.877974;-0.487128;-0.017543;96.6;0.0;0.0;4.0;0.0;0.0
3.0;1753873519.582038;15.833922;0.75;-1.27;-0.05;0.87784;-0.487177;-0.016948;95.3;0.0;0.0;4.0;0.0;0.0
3.0;1753873519.586762;15.804562;0.76;-1.26;-0.12;0.879268;-0.48876;-0.016898;96.1;0.0;0.0;4.0;0.0;0.0
3.0;1753873519.591484;15.797835;0.79;-1.23;-0.16;0.878264;-0.486906;-0.016006;95.0;0.0;0.0;3.9;0.0;0.0
3.0;1753873519.596208;15.789256;0.79;-1.24;-0.01;0.878243;-0.488893;-0.015524;96.0;0.0;0.0;3.6;0.0;0.0
3.0;1753873519.600931;15.824361;0.68;-1.17;-0.12;0.878578;-0.487046;-0.016528;95.9;0.0;0.0;3.7;0.0;0.0
3.0;1753873519.605654;15.829296;0.78;-1.22;-0.09;0.878768;-0.485776;-0.014531;94.7;0.0;0.0;4.4;0.0;0.0
3.0;1753873519.610377;15.803332;0.75;-1.24;-0.16;0.878476;-0.486824;-0.017296;96.2;0.0;0.0;4.2;0.0;0.0
3.0;1753873519.6151;15.786462;0.71;-1.22;-0.06;0.879176;-0.487656;-0.017903;95.2;0.0;0.0;4.2;0.0;0.0
3.0;1753873519.619823;15.810937;0.81;-1.3;-0.01;0.878941;-0.486629;-0.015587;96.4;0.0;0.0;3.2;0.0;0.0
3.0;1753873519.624546;15.830318;0.8;-1.29;-0.1;0.878339;-0.489848;-0.017219;95.8;0.0;0.0;3.3;0.0;0.0
3.0;1753873519.629269;15.82901;0.79;-1.33;-0.22;0.879413;-0.484421;-0.016836;95.6;0.0;0.0;4.6;0.0;0.0
3.0;1753873519.633992;15.80714;0.77;-1.23;-0.14;0.879362;-0.486022;-0.017951;94.7;0.0;0.0;4.6;0.0;0.0
3.0;1753873519.638715;15.841188;0.74;-1.37;-0.12;0.877626;-0.487553;-0.017989;96.2;0.0;0.0;3.7;0.0;0.0
3.0;1753873519.643438;15.819875;0.76;-1.28;-0.14;0.87819;-0.488305;-0.013609;97.0;0.0;0.0;4.1;0.0;0.0
3.0;1753873519.648162;15.786999;0.73;-1.27;-0.13;0.880836;-0.486768;-0.016734;95.5;0.0;0.0;4.0;0.0;0.0
3.0;1753873519.652884;15.807617;0.67;-1.21;-0.12;0.878668;-0.487299;-0.015755;95.0;0.0;0.0;4.4;0.0;0.0
3.0;1753873519.657608;15.819755;0.75;-1.23;-0.1;0.879981;-0.487497;-0.017201;97.8;0.0;0.0;3.2;0.0;0.0
3.0;1753873519.662331;15.773163;0.78;-1.28;-0.13;0.879793;-0.487484;-0.013407;95.2;0.0;0.0;4.1;0.0;0.0
3.0;1753873519.667054;15.819377;0.68;-1.33;-0.12;0.879045;-0.48489;-0.016547;93.9;0.0;0.0;4.5;0.0;0.0
3.0;1753873519.671777;15.825771;0.78;-1.24;-0.21;0.880275;-0.48591;-0.016537;94.7;0.0;0.0;4.2;0.0;0.0
3.0;1753873519.6765;15.838177;0.74;-1.27;-0.16;0.879489;-0.486279;-0.015429;96.0;0.0;0.0;4.5;0.0;0.0
3.0;1753873519.681223;15.830597;0.73;-1.25;-0.08;0.877173;-0.48806;-0.017216;97.6;0.0;0.0;4.4;0.0;0.0
3.0;1753873519.685946;15.828699;0.78;-1.23;-0.14;0.879347;-0.484385;-0.01665;96.1;0.0;0.0;3.6;0.0;0.0
3.0;1753873519.690669;15.868235;0.73;-1.27;-0.09;0.879879;-0.488537;-0.016638;93.7;0.0;0.0;3.9;0.0;0.0
3.0;1753873519.695392;15.842679;0.72;-1.22;-0.18;0.877991;-0.4859;-0.016142;97.8;0.0;0.0;3.6;0.0;0.0
3.0;1753873519.700115;15.808861;0.78;-1.22;-0.19;0.877969;-0.487475;-0.017421;95.1;0.0;0.0;4.2;0.0;0.0
3.0;1753873519.704838;15.855713;0.75;-1.25;-0.14;0.87814;-0.487359;-0.015405;94.2;0.0;0.0;4.1;0.0;0.0
3.0;1753873519.709561;15.801594;0.67;-1.22;-0.14;0.879225;-0.487094;-0.017213;95.9;0.0;0.0;3.6;0.0;0.0
3.0;1753873519.714284;15.801893;0.72;-1.3;-0.16;0.878671;-0.485767;-0.017148;94.3;0.0;0.0;3.6;0.0;0.0
3.0;1753873519.719008;15.792586;0.76;-1.27;-0.22;0.879965;-0.487837;-0.017619;95.4;0.0;0.0;4.4;0.0;0.0
3.0;1753873519.72373;15.823674;0.75;-1.2;-0.11;0.87881;-0.488981;-0.016639;96.5;0.0;0.0;3.9;0.0;0.0
3.0;1753873519.728454;15.814838;0.74;-1.23;-0.19;0.879353;-0.488106;-0.016936;95.0;0.0;0.0;4.7;0.0;0.0
3.0;1753873519.733177;15.824165;0.66;-1.26;-0.16;0.878918;-0.486351;-0.016836;95.1;0.0;0.0;4.7;0.0;0.0
3.0;1753873519.7379;15.811061;0.73;-1.24;-0.21;0.879505;-0.486427;-0.01666;96.3;0.0;0.0;3.7;0.0;0.0
3.0;1753873519.742623;15.812079;0.83;-1.2;-0.14;0.878872;-0.487872;-0.014948;96.0;0.0;0.0;3.8;0.0;0.0
3.0;1753873519.747346;15.817517;0.79;-1.27;-0.19;0.878885;-0.487268;-0.017074;95.3;0.0;0.0;3.9;0.0;0.0
3.0;1753873519.752069;15.819839;0.74;-1.24;-0.23;0.877442;-0.4853;-0.01766;95.2;0.0;0.0;3.9;0.0;0.0
3.0;1753873519.756792;15.800109;0.75;-1.2;-0.13;0.88006;-0.487544;-0.018079;95.6;0.0;0.0;4.5;0.0;0.0
3.0;1753873519.761515;15.835512;0.67;-1.24;-0.28;0.87767;-0.486341;-0.01535;96.8;0.0;0.0;4.0;0.0;0.0
3.0;1753873519.766238;15.805656;0.62;-1.25;-0.27;0.879601;-0.487033;-0.017664;95.7;0.0;0.0;4.8;0.0;0.0
3.0;1753873519.770961;15.831985;0.68;-1.22;-0.15;0.879771;-0.484384;-0.015632;95.0;0.0;0.0;3.9;0.0;0.0
3.0;1753873519.775684;15.840657;0.73;-1.3;-0.09;0.878301;-0.485438;-0.015245;96.7;0.0;0.0;3.9;0.0;0.0
3.0;1753873519.780408;15.784036;0.7;-1.35;-0.18;0.879183;-0.486807;-0.01739;96.2;0.0;0.0;3.4;0.0;0.0
3.0;1753873519.78513;15.834254;0.68;-1.28;-0.09;0.880969;-0.484161;-0.01762;95.7;0.0;0.0;4.2;0.0;0.0
3.0;1753873519.789854;15.804033;0.79;-1.32;-0.12;0.879394;-0.486724;-0.017885;95.9;0.0;0.0;3.3;0.0;0.0
3.0;1753873519.794577;15.826133;0.7;-1.33;-0.25;0.879773;-0.485987;-0.014366;96.4;0.0;0.0;3.6;0.0;0.0
3.0;1753873519.7993;15.812918;0.68;-1.16;-0.12;0.87943;-0.485245;-0.015849;96.1;0.0;0.0;4.1;0.0;0.0
3.0;1753873519.804023;15.816805;0.81;-1.26;-0.18;0.87807;-0.485343;-0.015532;96.8;0.0;0.0;3.8;0.0;0.0
3.0;1753873519.808746;15.79542;0.67;-1.25;-0.13;0.88011;-0.484093;-0.017004;95.8;0.0;0.0;4.4;0.0;0.0
3.0;1753873519.813469;15.793319;0.74;-1.26;-0.21;0.879038;-0.485332;-0.017377;96.6;0.0;0.0;3.6;0.0;0.0
3.0;1753873519.818192;15.821821;0.77;-1.23;-0.14;0.880392;-0.48593;-0.017972;96.7;0.0;0.0;4.1;0.0;0.0
3.0;1753873519.822915;15.802373;0.65;-1.32;-0.16;0.879294;-0.48529;-0.015428;96.5;0.0;0.0;4.0;0.0;0.0
3.0;1753873519.827638;15.813381;0.74;-1.22;-0.16;0.878533;-0.485594;-0.01638;96.2;0.0;0.0;4.1;0.0;0.0
3.0;1753873519.832361;15.853597;0.73;-1.27;-0.17;0.880532;-0.482765;-0.017976;94.8;0.0;0.0;3.5;0.0;0.0
3.0;1753873519.837084;15.77798;0.71;-1.31;-0.15;0.879671;-0.485959;-0.017258;95.9;0.0;0.0;4.6;0.0;0.0
3.0;1753873519.841807;15.821075;0.71;-1.31;-0.18;0.878699;-0.483509;-0.018129;96.7;0.0;0.0;3.8;0.0;0.0
3.0;1753873519.84653;15.833028;0.7;-1.25;-0.11;0.879359;-0.486852;-0.018607;97.6;0.0;0.0;4.0;0.0;0.0
3.0;1753873519.851254;15.812733;0.76;-1.31;-0.14;0.879892;-0.483223;-0.017596;95.5;0.0;0.0;3.5;0.0;0.0
3.0;1753873519.855976;15.811845;0.67;-1.22;-0.3;0.879742;-0.485077;-0.018429;95.6;0.0;0.0;3.9;0.0;0.0
3.0;1753873519.8607;15.82638;0.7;-1.33;-0.11;0.879594;-0.485858;-0.019025;94.9;0.0;0.0;3.6;0.0;0.0
3.0;1753873519.865423;15.814017;0.68;-1.26;-0.12;0.879507;-0.484631;-0.015776;95.5;0.0;0.0;4.1;0.0;0.0
3.0;1753873519.870146;15.835683;0.62;-1.25;-0.2;0.878468;-0.484602;-0.018693;97.3;0.0;0.0;4.0;0.0;0.0
3.0;1753873519.874869;15.817076;0.65;-1.28;-0.19;0.878623;-0.484965;-0.017199;96.5;0.0;0.0;4.3;0.0;0.0
3.0;1753873519.879592;15.806239;0.69;-1.3;-0.26;0.881366;-0.487038;-0.017164;96.0;0.0;0.0;4.1;0.0;0.0
3.0;1753873519.884315;15.803011;0.75;-1.24;-0.13;0.879899;-0.485329;-0.016702;96.2;0.0;0.0;4.7;0.0;0.0
3.0;1753873519.889038;15.842089;0.62;-1.17;-0.21;0.879247;-0.484076;-0.016558;94.6;0.0;0.0;3.6;0.0;0.0
3.0;1753873519.893761;15.810607;0.78;-1.28;-0.26;0.880306;-0.485351;-0.017218;95.6;0.0;0.0;4.5;0.0;0.0
3.0;1753873519.898484;15.804766;0.66;-1.28;-0.12;0.879302;-0.485603;-0.0162;96.1;0.0;0.0;4.0;0.0;0.0
3.0;1753873519.903207;15.805353;0.62;-1.22;-0.23;0.879477;-0.485454;-0.017816;95.4;0.0;0.0;4.1;0.0;0.0
3.0;1753873519.90793;15.816679;0.67;-1.26;-0.22;0.879562;-0.483331;-0.016227;95.4;0.0;0.0;4.7;0.0;0.0
3.0;1753873519.912654;15.821401;0.68;-1.28;-0.17;0.878039;-0.484846;-0.017854;95.9;0.0;0.0;3.7;0.0;0.0
3.0;1753873519.917376;15.804336;0.69;-1.23;-0.25;0.879218;-0.485566;-0.017038;95.1;0.0;0.0;5.3;0.0;0.0
3.0;1753873519.9249;15.816406;0.7;-1.26;-0.21;0.879498;-0.485072;-0.017324;96.0;0.0;0.0;4.0;0.0;0.0
3.0;1753873519.929623;15.811335;0.71;-1.19;-0.16;0.881249;-0.485445;-0.017646;92.3;0.0;0.0;3.1;0.0;0.0
3.0;1753873519.934346;15.868248;0.8;-1.29;-0.2;0.878931;-0.48751;-0.016359;92.1;0.0;0.0;3.8;0.0;0.0
3.0;1753873519.939069;15.766951;0.69;-1.35;-0.17;0.878262;-0.488621;-0.01697;82.5;0.0;0.0;3.6;0.0;0.0
3.0;1753873519.94774;15.792969;0.7;-1.4;0.0;0.878034;-0.489586;-0.016348;90.0;0.0;0.0;4.0;0.0;0.0
3.0;1753873519.949458;15.792969;0.7;-1.26;-0.21;0.880718;-0.486902;-0.017446;89.0;0.0;0.0;6.0;0.0;0.0
3.0;1753873519.954189;15.792969;0.7;-1.33;-0.21;0.878522;-0.490928;-0.01586;89.0;0.0;0.0;6.0;0.0;0.0
3.0;1753873519.958868;15.792969;0.84;-1.4;-0.28;0.88206;-0.484096;-0.018056;89.0;0.0;0.0;6.0;0.0;0.0
3.0;1753873519.963604;15.792969;0.77;-1.33;-0.21;0.878644;-0.490074;-0.017324;89.0;0.0;0.0;6.0;0.0;0.0
3.0;1753873519.971673;15.792969;0.77;-1.33;-0.14;0.879254;-0.488;-0.016714;89.0;0.0;0.0;6.0;0.0;0.0
3.0;1753873519.976396;15.786273;0.77;-1.25;-0.19;0.880177;-0.490994;-0.016732;92.3;0.0;0.0;4.3;0.0;0.0
3.0;1753873519.982299;15.792969;0.77;-1.26;-0.21;0.879864;-0.489342;-0.016714;96.0;0.0;0.0;4.0;0.0;0.0
3.0;1753873519.987007;15.816406;0.77;-1.33;-0.21;0.881328;-0.485438;-0.01708;96.0;0.0;0.0;4.0;0.0;0.0
3.0;1753873519.991651;15.816406;0.77;-1.26;-0.21;0.879132;-0.488488;-0.017568;96.0;0.0;0.0;4.0;0.0;0.0
3.0;1753873519.99636;15.816406;0.7;-1.33;-0.14;0.878766;-0.489464;-0.017812;96.0;0.0;0.0;4.0;0.0;0.0
3.0;1753873520.001083;15.814493;0.68;-1.45;-0.2;0.87888;-0.49129;-0.017804;93.0;0.0;0.0;3.1;0.0;0.0
3.0;1753873520.005806;15.810887;0.72;-1.29;-0.19;0.879985;-0.489309;-0.017036;97.7;0.0;0.0;4.5;0.0;0.0
3.0;1753873520.010529;15.815032;0.73;-1.31;-0.21;0.879786;-0.488628;-0.018994;93.7;0.0;0.0;5.7;0.0;0.0
3.0;1753873520.015252;15.81139;0.71;-1.29;-0.19;0.880438;-0.489548;-0.017796;97.0;0.0;0.0;3.1;0.0;0.0
3.0;1753873520.019976;15.807471;0.7;-1.37;-0.15;0.878883;-0.48721;-0.017489;97.7;0.0;0.0;4.2;0.0;0.0
3.0;1753873520.024698;15.813744;0.66;-1.35;-0.25;0.878683;-0.488578;-0.017582;100.8;0.0;0.0;2.4;0.0;0.0
3.0;1753873520.029422;15.805484;0.68;-1.35;-0.18;0.877747;-0.489633;-0.017683;91.2;0.0;0.0;3.5;0.0;0.0
3.0;1753873520.034145;15.803545;0.72;-1.32;-0.14;0.878209;-0.489408;-0.017839;99.9;0.0;0.0;3.7;0.0;0.0
3.0;1753873520.038868;15.819082;0.73;-1.31;-0.16;0.87848;-0.488273;-0.017993;88.5;0.0;0.0;7.8;0.0;0.0
3.0;1753873520.043591;15.822621;0.72;-1.2;-0.27;0.878333;-0.489029;-0.017716;94.4;0.0;0.0;2.6;0.0;0.0
3.0;1753873520.048314;15.816244;0.72;-1.32;-0.15;0.87969;-0.485963;-0.017575;100.4;0.0;0.0;3.7;0.0;0.0
3.0;1753873520.053037;15.798861;0.72;-1.37;-0.09;0.879934;-0.489335;-0.016616;98.6;0.0;0.0;1.5;0.0;0.0
3.0;1753873520.05776;15.822075;0.69;-1.26;-0.18;0.879123;-0.487885;-0.01706;93.8;0.0;0.0;5.1;0.0;0.0
3.0;1753873520.062483;15.828168;0.63;-1.31;-0.12;0.879415;-0.485312;-0.017041;98.0;0.0;0.0;6.3;0.0;0.0
3.0;1753873520.067206;15.812849;0.82;-1.31;-0.18;0.879974;-0.486837;-0.017467;94.3;0.0;0.0;3.4;0.0;0.0
3.0;1753873520.071929;15.817773;0.73;-1.18;-0.09;0.880196;-0.486776;-0.017336;92.8;0.0;0.0;2.5;0.0;0.0
3.0;1753873520.076652;15.809753;0.69;-1.27;-0.29;0.87978;-0.487646;-0.017641;90.0;0.0;0.0;5.3;0.0;0.0
3.0;1753873520.081375;15.826988;0.76;-1.31;-0.17;0.881469;-0.488133;-0.018365;92.4;0.0;0.0;3.0;0.0;0.0
3.0;1753873520.086098;15.817274;0.75;-1.26;-0.22;0.881601;-0.485777;-0.017837;97.0;0.0;0.0;4.4;0.0;0.0
3.0;1753873520.090822;15.818064;0.64;-1.3;-0.16;0.880815;-0.484381;-0.017821;89.9;0.0;0.0;2.4;0.0;0.0
3.0;1753873520.095544;15.816558;0.66;-1.17;-0.14;0.880374;-0.487331;-0.016841;94.1;0.0;0.0;3.1;0.0;0.0
3.0;1753873520.1041;15.816406;0.7;-1.26;-0.21;0.881084;-0.485926;-0.017324;96.0;0.0;0.0;4.0;0.0;0.0
3.0;1753873520.108823;15.807871;0.77;-1.3;-0.15;0.87832;-0.483761;-0.017989;99.3;0.0;0.0;4.1;0.0;0.0
3.0;1753873520.113546;15.822553;0.63;-1.2;-0.2;0.882182;-0.490185;-0.01722;99.0;0.0;0.0;2.6;0.0;0.0
3.0;1753873520.118269;15.806227;0.73;-1.25;-0.25;0.880163;-0.484883;-0.016827;96.0;0.0;0.0;3.5;0.0;0.0
3.0;1753873520.122992;15.818448;0.71;-1.29;-0.17;0.881887;-0.486218;-0.016656;88.7;0.0;0.0;3.3;0.0;0.0
3.0;1753873520.127715;15.817663;0.7;-1.25;-0.15;0.882366;-0.48624;-0.017631;91.9;0.0;0.0;3.4;0.0;0.0
3.0;1753873520.132438;15.814376;0.66;-1.36;-0.18;0.879136;-0.487389;-0.016263;95.0;0.0;0.0;4.6;0.0;0.0
3.0;1753873520.137162;15.822438;0.69;-1.34;-0.21;0.879582;-0.487619;-0.017371;101.4;0.0;0.0;4.0;0.0;0.0
3.0;1753873520.141884;15.820135;0.66;-1.26;-0.23;0.882622;-0.488234;-0.017432;93.4;0.0;0.0;3.2;0.0;0.0
3.0;1753873520.146608;15.825619;0.65;-1.31;-0.19;0.88005;-0.485784;-0.016878;97.4;0.0;0.0;6.0;0.0;0.0
3.0;1753873520.151331;15.807135;0.73;-1.36;-0.24;0.881464;-0.487817;-0.017131;96.2;0.0;0.0;1.7;0.0;0.0
3.0;1753873520.156054;15.803003;0.76;-1.32;-0.2;0.881509;-0.487391;-0.018027;93.3;0.0;0.0;4.6;0.0;0.0
3.0;1753873520.160777;15.814899;0.74;-1.34;-0.15;0.881834;-0.482712;-0.016211;93.8;0.0;0.0;3.7;0.0;0.0
3.0;1753873520.1655;15.820776;0.74;-1.33;-0.21;0.881698;-0.486818;-0.017717;95.1;0.0;0.0;2.8;0.0;0.0
3.0;1753873520.170223;15.815783;0.65;-1.3;-0.14;0.879587;-0.488322;-0.017844;97.6;0.0;0.0;7.9;0.0;0.0
3.0;1753873520.174946;15.83238;0.66;-1.22;-0.27;0.880385;-0.483211;-0.017203;94.4;0.0;0.0;2.0;0.0;0.0
3.0;1753873520.179669;15.810292;0.67;-1.29;-0.16;0.882923;-0.482158;-0.017903;92.4;0.0;0.0;7.2;0.0;0.0
3.0;1753873520.184392;15.810315;0.77;-1.27;-0.25;0.881099;-0.485437;-0.017785;89.0;0.0;0.0;4.9;0.0;0.0
3.0;1753873520.189115;15.804763;0.69;-1.3;-0.28;0.882217;-0.488682;-0.018134;99.9;0.0;0.0;1.6;0.0;0.0
3.0;1753873520.193838;15.812108;0.75;-1.36;-0.25;0.880289;-0.486393;-0.016368;97.9;0.0;0.0;5.1;0.0;0.0
3.0;1753873520.198562;15.80928;0.66;-1.19;-0.26;0.880368;-0.486808;-0.01813;93.9;0.0;0.0;5.8;0.0;0.0
3.0;1753873520.203284;15.831255;0.69;-1.37;-0.25;0.880858;-0.488129;-0.016939;97.6;0.0;0.0;4.9;0.0;0.0
3.0;1753873520.208008;15.821475;0.6;-1.31;-0.2;0.880351;-0.487975;-0.016906;95.9;0.0;0.0;5.1;0.0;0.0
3.0;1753873520.212731;15.818203;0.77;-1.33;-0.16;0.881398;-0.485857;-0.016527;96.2;0.0;0.0;4.0;0.0;0.0
3.0;1753873520.217454;15.828524;0.7;-1.3;-0.22;0.881461;-0.486395;-0.01762;95.6;0.0;0.0;3.9;0.0;0.0
3.0;1753873520.222177;15.814275;0.74;-1.28;-0.27;0.882252;-0.486001;-0.017475;92.7;0.0;0.0;0.8;0.0;0.0
3.0;1753873520.2269;15.805325;0.77;-1.19;-0.3;0.882598;-0.488533;-0.01665;96.0;0.0;0.0;5.7;0.0;0.0
3.0;1753873520.231623;15.808196;0.76;-1.31;-0.25;0.880578;-0.486376;-0.016965;93.5;0.0;0.0;1.6;0.0;0.0
3.0;1753873520.236346;15.803001;0.68;-1.27;-0.21;0.881146;-0.487377;-0.017711;98.4;0.0;0.0;3.1;0.0;0.0
3.0;1753873520.241069;15.820986;0.71;-1.24;-0.22;0.881703;-0.485591;-0.01811;93.5;0.0;0.0;4.8;0.0;0.0
3.0;1753873520.245792;15.808835;0.83;-1.25;-0.22;0.880273;-0.487645;-0.018264;99.5;0.0;0.0;5.8;0.0;0.0
3.0;1753873520.250515;15.829659;0.75;-1.36;-0.21;0.879962;-0.484464;-0.017304;95.7;0.0;0.0;4.8;0.0;0.0
3.0;1753873520.255238;15.81665;0.7;-1.32;-0.24;0.881723;-0.485175;-0.018729;100.7;0.0;0.0;5.7;0.0;0.0
3.0;1753873520.259961;15.806628;0.73;-1.29;-0.19;0.882471;-0.489479;-0.017429;96.5;0.0;0.0;6.7;0.0;0.0
3.0;1753873520.264684;15.810395;0.7;-1.25;-0.15;0.882132;-0.486233;-0.018102;99.1;0.0;0.0;-0.2;0.0;0.0
3.0;1753873520.269408;15.807983;0.7;-1.2;-0.13;0.880969;-0.48379;-0.017506;104.5;0.0;0.0;3.0;0.0;0.0
3.0;1753873520.27413;15.821936;0.76;-1.33;-0.2;0.881071;-0.487599;-0.017507;93.9;0.0;0.0;4.3;0.0;0.0
3.0;1753873520.278854;15.803421;0.75;-1.23;-0.26;0.881261;-0.488145;-0.016208;93.8;0.0;0.0;2.1;0.0;0.0
3.0;1753873520.283577;15.806101;0.72;-1.26;-0.28;0.881785;-0.483739;-0.017124;94.5;0.0;0.0;3.8;0.0;0.0
3.0;1753873520.2883;15.825878;0.75;-1.3;-0.23;0.88228;-0.488657;-0.016557;93.7;0.0;0.0;-0.5;0.0;0.0
3.0;1753873520.293023;15.807008;0.72;-1.35;-0.23;0.882161;-0.487511;-0.016948;95.4;0.0;0.0;5.8;0.0;0.0
3.0;1753873520.297746;15.804237;0.68;-1.29;-0.2;0.881199;-0.484497;-0.017094;93.8;0.0;0.0;2.2;0.0;0.0
3.0;1753873520.302469;15.822744;0.69;-1.3;-0.19;0.881244;-0.485533;-0.017644;91.1;0.0;0.0;2.6;0.0;0.0
3.0;1753873520.307192;15.804587;0.71;-1.34;-0.19;0.880919;-0.483054;-0.018075;99.4;0.0;0.0;3.2;0.0;0.0
3.0;1753873520.311915;15.795889;0.78;-1.24;-0.22;0.880967;-0.487916;-0.016975;99.0;0.0;0.0;4.3;0.0;0.0
3.0;1753873520.316638;15.79897;0.73;-1.33;-0.23;0.880559;-0.487869;-0.017843;93.8;0.0;0.0;3.0;0.0;0.0
3.0;1753873520.321361;15.812453;0.76;-1.37;-0.2;0.87993;-0.486753;-0.017741;94.9;0.0;0.0;4.2;0.0;0.0
3.0;1753873520.326084;15.809111;0.81;-1.3;-0.12;0.881683;-0.485041;-0.018234;94.2;0.0;0.0;3.0;0.0;0.0
3.0;1753873520.330808;15.802776;0.73;-1.3;-0.2;0.882464;-0.486804;-0.016631;88.8;0.0;0.0;3.1;0.0;0.0
3.0;1753873520.33553;15.797131;0.76;-1.35;-0.19;0.882954;-0.48687;-0.017545;96.4;0.0;0.0;3.3;0.0;0.0
3.0;1753873520.340254;15.804863;0.86;-1.32;-0.2;0.881454;-0.487894;-0.017252;95.9;0.0;0.0;4.5;0.0;0.0
3.0;1753873520.344977;15.81101;0.75;-1.37;-0.19;0.880813;-0.485264;-0.017299;98.1;0.0;0.0;4.1;0.0;0.0
3.0;1753873520.3497;15.808513;0.73;-1.15;-0.17;0.8806;-0.485435;-0.017819;95.7;0.0;0.0;2.7;0.0;0.0
3.0;1753873520.354423;15.794112;0.67;-1.33;-0.21;0.880059;-0.48612;-0.016801;95.9;0.0;0.0;2.2;0.0;0.0
3.0;1753873520.359146;15.818761;0.76;-1.31;-0.26;0.880005;-0.483896;-0.017028;97.4;0.0;0.0;3.1;0.0;0.0
3.0;1753873520.363869;15.7989;0.69;-1.35;-0.26;0.881746;-0.483333;-0.017313;97.1;0.0;0.0;2.7;0.0;0.0
3.0;1753873520.368592;15.807127;0.68;-1.31;-0.19;0.881102;-0.484298;-0.018397;97.3;0.0;0.0;6.6;0.0;0.0
3.0;1753873520.373315;15.792394;0.8;-1.38;-0.17;0.881563;-0.487743;-0.016189;100.8;0.0;0.0;3.0;0.0;0.0
3.0;1753873520.378038;15.802149;0.78;-1.53;-0.2;0.879719;-0.487708;-0.017164;99.2;0.0;0.0;5.2;0.0;0.0
3.0;1753873520.382761;15.812965;0.76;-1.33;-0.12;0.880795;-0.48532;-0.016544;91.6;0.0;0.0;4.3;0.0;0.0
3.0;1753873520.387484;15.81591;0.74;-1.33;-0.22;0.880543;-0.488918;-0.017252;89.3;0.0;0.0;2.7;0.0;0.0
3.0;1753873520.392208;15.79216;0.74;-1.22;-0.26;0.879419;-0.486771;-0.017455;94.1;0.0;0.0;3.8;0.0;0.0
3.0;1753873520.39693;15.7972;0.76;-1.38;-0.2;0.881314;-0.484876;-0.017018;97.9;0.0;0.0;3.6;0.0;0.0
3.0;1753873520.401654;15.81146;0.74;-1.36;-0.22;0.88109;-0.485911;-0.017383;99.0;0.0;0.0;7.0;0.0;0.0
3.0;1753873520.406376;15.796472;0.83;-1.33;-0.24;0.882392;-0.485476;-0.01743;97.9;0.0;0.0;3.1;0.0;0.0
3.0;1753873520.4111;15.809551;0.74;-1.45;-0.21;0.880338;-0.487217;-0.016364;99.0;0.0;0.0;4.9;0.0;0.0
3.0;1753873520.415823;15.790113;0.78;-1.36;-0.22;0.88198;-0.489585;-0.017517;95.6;0.0;0.0;3.2;0.0;0.0
3.0;1753873520.420546;15.790183;0.77;-1.38;-0.23;0.881846;-0.488416;-0.01686;93.0;0.0;0.0;3.1;0.0;0.0
3.0;1753873520.425269;15.801278;0.72;-1.37;-0.21;0.880021;-0.487772;-0.01762;96.1;0.0;0.0;4.6;0.0;0.0
3.0;1753873520.429992;15.810157;0.79;-1.3;-0.22;0.88135;-0.484235;-0.01729;95.4;0.0;0.0;7.5;0.0;0.0
3.0;1753873520.434715;15.818922;0.82;-1.41;-0.16;0.881041;-0.488267;-0.017729;96.0;0.0;0.0;3.4;0.0;0.0
3.0;1753873520.439438;15.833932;0.73;-1.36;-0.24;0.881885;-0.487408;-0.016739;95.6;0.0;0.0;4.0;0.0;0.0
3.0;1753873520.444161;15.79488;0.64;-1.39;-0.27;0.880682;-0.48439;-0.017703;99.1;0.0;0.0;2.3;0.0;0.0
3.0;1753873520.448884;15.805035;0.83;-1.38;-0.31;0.87989;-0.486226;-0.01636;96.8;0.0;0.0;3.1;0.0;0.0
3.0;1753873520.453607;15.807956;0.8;-1.43;-0.2;0.882437;-0.487901;-0.017242;94.2;0.0;0.0;2.2;0.0;0.0
3.0;1753873520.45833;15.823919;0.69;-1.41;-0.25;0.881941;-0.484857;-0.01631;93.3;0.0;0.0;4.0;0.0;0.0
3.0;1753873520.463054;15.80884;0.74;-1.4;-0.22;0.88113;-0.486579;-0.017163;98.6;0.0;0.0;4.9;0.0;0.0
3.0;1753873520.467776;15.810828;0.71;-1.38;-0.19;0.8801;-0.48193;-0.018406;95.1;0.0;0.0;2.6;0.0;0.0
3.0;1753873520.4725;15.788333;0.75;-1.38;-0.28;0.881025;-0.487236;-0.017467;91.1;0.0;0.0;4.3;0.0;0.0
3.0;1753873520.477223;15.796424;0.82;-1.46;-0.13;0.879857;-0.484944;-0.016474;93.9;0.0;0.0;1.5;0.0;0.0
3.0;1753873520.481946;15.798545;0.74;-1.4;-0.22;0.881651;-0.485236;-0.018343;95.0;0.0;0.0;4.3;0.0;0.0
3.0;1753873520.486669;15.803463;0.84;-1.32;-0.22;0.88096;-0.487595;-0.017711;96.2;0.0;0.0;1.4;0.0;0.0
3.0;1753873520.491392;15.813128;0.73;-1.46;-0.25;0.881703;-0.485145;-0.017148;97.3;0.0;0.0;3.2;0.0;0.0
3.0;1753873520.496115;15.794014;0.67;-1.34;-0.3;0.880375;-0.489682;-0.017667;100.0;0.0;0.0;2.1;0.0;0.0
3.0;1753873520.500838;15.815035;0.85;-1.33;-0.18;0.881832;-0.482907;-0.018267;90.0;0.0;0.0;1.2;0.0;0.0
3.0;1753873520.505561;15.795517;0.71;-1.25;-0.3;0.881173;-0.484216;-0.017283;96.5;0.0;0.0;7.7;0.0;0.0
3.0;1753873520.510284;15.813432;0.74;-1.38;-0.23;0.880476;-0.48715;-0.017687;88.1;0.0;0.0;4.2;0.0;0.0
3.0;1753873520.515007;15.792363;0.83;-1.44;-0.25;0.881794;-0.486469;-0.01631;100.1;0.0;0.0;5.9;0.0;0.0
3.0;1753873520.51973;15.806726;0.8;-1.54;-0.19;0.879656;-0.485986;-0.017429;88.3;0.0;0.0;2.2;0.0;0.0
3.0;1753873520.524454;15.804762;0.82;-1.36;-0.12;0.881574;-0.486704;-0.017926;100.0;0.0;0.0;4.1;0.0;0.0
3.0;1753873520.529176;15.806191;0.8;-1.34;-0.17;0.879725;-0.485306;-0.018268;97.1;0.0;0.0;1.1;0.0;0.0
3.0;1753873520.5339;15.809167;0.73;-1.35;-0.26;0.880755;-0.488192;-0.016831;99.8;0.0;0.0;3.0;0.0;0.0
3.0;1753873520.538622;15.815943;0.8;-1.54;-0.25;0.879135;-0.483539;-0.017532;93.0;0.0;0.0;5.8;0.0;0.0
3.0;1753873520.543346;15.814613;0.87;-1.4;-0.27;0.881022;-0.486764;-0.016423;98.6;0.0;0.0;5.6;0.0;0.0
3.0;1753873520.548069;15.799491;0.75;-1.37;-0.22;0.880791;-0.485652;-0.018702;95.6;0.0;0.0;6.8;0.0;0.0
3.0;1753873520.552792;15.790939;0.76;-1.4;-0.26;0.881203;-0.484008;-0.017008;99.2;0.0;0.0;3.1;0.0;0.0
3.0;1753873520.5612;15.800781;0.77;-1.4;-0.21;0.881084;-0.485926;-0.017324;96.0;0.0;0.0;4.0;0.0;0.0
3.0;1753873520.565923;15.801381;0.67;-1.38;-0.23;0.879069;-0.4858;-0.01722;94.4;0.0;0.0;3.5;0.0;0.0
3.0;1753873520.57097;15.800781;0.7;-1.33;-0.14;0.879254;-0.488366;-0.017446;93.0;0.0;0.0;6.0;0.0;0.0
3.0;1753873520.575693;15.795049;0.61;-1.23;-0.18;0.87993;-0.488139;-0.017763;92.7;0.0;0.0;6.1;0.0;0.0
3.0;1753873520.580416;15.795005;0.77;-1.28;-0.11;0.879782;-0.489339;-0.016804;90.8;0.0;0.0;8.5;0.0;0.0
3.0;1753873520.585139;15.814461;0.74;-1.33;-0.24;0.882185;-0.486884;-0.018217;97.3;0.0;0.0;5.5;0.0;0.0
3.0;1753873520.589862;15.807594;0.7;-1.29;-0.21;0.880675;-0.490758;-0.017746;90.5;0.0;0.0;6.5;0.0;0.0
3.0;1753873520.594586;15.809894;0.76;-1.31;-0.17;0.879008;-0.490589;-0.017977;88.5;0.0;0.0;7.8;0.0;0.0
3.0;1753873520.599308;15.812497;0.75;-1.3;-0.17;0.88017;-0.487963;-0.017711;93.2;0.0;0.0;5.3;0.0;0.0
3.0;1753873520.604032;15.818883;0.78;-1.27;-0.23;0.880769;-0.489418;-0.01759;94.9;0.0;0.0;6.3;0.0;0.0
3.0;1753873520.608755;15.794577;0.73;-1.33;-0.19;0.879909;-0.48513;-0.016691;94.2;0.0;0.0;7.1;0.0;0.0
3.0;1753873520.61765;15.808594;0.77;-1.33;-0.21;0.880474;-0.487146;-0.01708;93.0;0.0;0.0;6.0;0.0;0.0
3.0;1753873520.622373;15.798927;0.73;-1.32;-0.21;0.880165;-0.485456;-0.017208;93.4;0.0;0.0;4.3;0.0;0.0
3.0;1753873520.627096;15.804303;0.73;-1.38;-0.2;0.880156;-0.488606;-0.018976;91.9;0.0;0.0;8.7;0.0;0.0
3.0;1753873520.631819;15.819806;0.79;-1.34;-0.25;0.881525;-0.4885;-0.018141;95.9;0.0;0.0;4.8;0.0;0.0
3.0;1753873520.636542;15.794438;0.71;-1.37;-0.21;0.881456;-0.487425;-0.018163;89.0;0.0;0.0;8.3;0.0;0.0
3.0;1753873520.641266;15.81342;0.64;-1.34;-0.18;0.879608;-0.487639;-0.018649;89.2;0.0;0.0;7.3;0.0;0.0
3.0;1753873520.645988;15.800637;0.8;-1.3;-0.2;0.881181;-0.488297;-0.017287;90.9;0.0;0.0;6.1;0.0;0.0
3.0;1753873520.650712;15.807593;0.8;-1.31;-0.2;0.880692;-0.486473;-0.01803;95.2;0.0;0.0;5.2;0.0;0.0
3.0;1753873520.655434;15.812868;0.78;-1.33;-0.17;0.880016;-0.489456;-0.017669;89.2;0.0;0.0;5.9;0.0;0.0
3.0;1753873520.660158;15.822251;0.8;-1.34;-0.13;0.878012;-0.487847;-0.017529;90.1;0.0;0.0;5.4;0.0;0.0
3.0;1753873520.664881;15.816657;0.75;-1.27;-0.17;0.879253;-0.48714;-0.018908;91.4;0.0;0.0;7.1;0.0;0.0
3.0;1753873520.669604;15.810653;0.82;-1.34;-0.23;0.879263;-0.489904;-0.018522;90.8;0.0;0.0;6.2;0.0;0.0
3.0;1753873520.674327;15.816722;0.75;-1.41;-0.18;0.878835;-0.493209;-0.019402;95.0;0.0;0.0;6.3;0.0;0.0
3.0;1753873520.67905;15.793402;0.77;-1.39;-0.18;0.880983;-0.489694;-0.018517;94.4;0.0;0.0;5.1;0.0;0.0
3.0;1753873520.683773;15.821277;0.8;-1.26;-0.1;0.879668;-0.486875;-0.018061;94.3;0.0;0.0;5.4;0.0;0.0
3.0;1753873520.68966;15.808594;0.77;-1.26;-0.14;0.879376;-0.488244;-0.019032;93.0;0.0;0.0;6.0;0.0;0.0
3.0;1753873520.694383;15.810272;0.76;-1.25;-0.12;0.879996;-0.488454;-0.01791;91.4;0.0;0.0;5.9;0.0;0.0
3.0;1753873520.699106;15.809452;0.67;-1.23;-0.2;0.8789;-0.486365;-0.019789;91.6;0.0;0.0;6.8;0.0;0.0
3.0;1753873520.703829;15.808784;0.78;-1.26;-0.18;0.879542;-0.487591;-0.018644;90.5;0.0;0.0;6.5;0.0;0.0
3.0;1753873520.708552;15.794198;0.78;-1.33;-0.11;0.880797;-0.488514;-0.018131;93.3;0.0;0.0;4.7;0.0;0.0
3.0;1753873520.713276;15.829522;0.71;-1.27;-0.12;0.881437;-0.485765;-0.019397;92.6;0.0;0.0;5.6;0.0;0.0
3.0;1753873520.717998;15.809537;0.71;-1.32;-0.18;0.880917;-0.487251;-0.019204;93.4;0.0;0.0;6.3;0.0;0.0
3.0;1753873520.722722;15.813848;0.7;-1.35;-0.22;0.880535;-0.485751;-0.018028;92.6;0.0;0.0;4.3;0.0;0.0
3.0;1753873520.727445;15.799327;0.57;-1.29;-0.21;0.881448;-0.48754;-0.018339;91.3;0.0;0.0;6.2;0.0;0.0
3.0;1753873520.73364;15.808594;0.7;-1.33;-0.21;0.880596;-0.487146;-0.017812;91.0;0.0;0.0;5.0;0.0;0.0
3.0;1753873520.738363;15.795936;0.71;-1.26;-0.28;0.880696;-0.487009;-0.017675;87.7;0.0;0.0;4.3;0.0;0.0
3.0;1753873520.743086;15.816522;0.74;-1.36;-0.27;0.88176;-0.486558;-0.017999;90.6;0.0;0.0;4.9;0.0;0.0
3.0;1753873520.747809;15.803655;0.63;-1.44;-0.24;0.881645;-0.486981;-0.016208;95.5;0.0;0.0;3.7;0.0;0.0
3.0;1753873520.752532;15.8119;0.64;-1.3;-0.28;0.880656;-0.487208;-0.016835;92.4;0.0;0.0;5.4;0.0;0.0
3.0;1753873520.757255;15.807023;0.69;-1.36;-0.3;0.882;-0.485804;-0.017748;92.0;0.0;0.0;4.3;0.0;0.0
3.0;1753873520.761978;15.808746;0.71;-1.38;-0.17;0.881399;-0.486916;-0.017946;92.1;0.0;0.0;3.2;0.0;0.0
3.0;1753873520.766702;15.809709;0.69;-1.21;-0.26;0.879539;-0.489456;-0.01838;90.1;0.0;0.0;5.9;0.0;0.0
3.0;1753873520.771424;15.808087;0.79;-1.32;-0.26;0.880173;-0.487225;-0.018456;89.8;0.0;0.0;4.5;0.0;0.0
3.0;1753873520.776148;15.807428;0.7;-1.25;-0.27;0.880468;-0.487585;-0.019651;92.4;0.0;0.0;3.5;0.0;0.0
3.0;1753873520.780871;15.817682;0.69;-1.29;-0.23;0.879945;-0.487705;-0.018247;89.1;0.0;0.0;4.6;0.0;0.0
3.0;1753873520.785594;15.799803;0.71;-1.25;-0.26;0.880235;-0.485972;-0.017648;92.2;0.0;0.0;6.4;0.0;0.0
3.0;1753873520.790317;15.802928;0.7;-1.3;-0.24;0.880774;-0.489015;-0.016376;91.4;0.0;0.0;5.9;0.0;0.0
3.0;1753873520.79584;15.808594;0.7;-1.33;-0.28;0.880352;-0.488244;-0.017568;91.0;0.0;0.0;5.0;0.0;0.0
3.0;1753873520.800563;15.792418;0.61;-1.44;-0.28;0.881415;-0.485269;-0.017391;90.8;0.0;0.0;4.9;0.0;0.0
3.0;1753873520.80527;15.792969;0.7;-1.4;-0.21;0.880352;-0.488366;-0.01708;91.0;0.0;0.0;5.0;0.0;0.0
3.0;1753873520.809993;15.800524;0.65;-1.42;-0.29;0.879543;-0.486514;-0.016985;94.3;0.0;0.0;3.1;0.0;0.0
3.0;1753873520.814716;15.791758;0.6;-1.41;-0.15;0.88003;-0.489483;-0.01676;89.9;0.0;0.0;5.1;0.0;0.0
3.0;1753873520.819439;15.801984;0.59;-1.41;-0.18;0.878686;-0.491632;-0.016403;92.4;0.0;0.0;4.5;0.0;0.0
3.0;1753873520.824162;15.784877;0.78;-1.39;-0.28;0.880174;-0.488307;-0.016409;89.1;0.0;0.0;4.7;0.0;0.0
3.0;1753873520.828885;15.780278;0.72;-1.4;-0.14;0.880214;-0.486489;-0.016645;92.1;0.0;0.0;5.0;0.0;0.0
3.0;1753873520.833608;15.813083;0.76;-1.41;-0.24;0.879421;-0.489648;-0.017012;92.4;0.0;0.0;5.3;0.0;0.0
3.0;1753873520.838332;15.784886;0.7;-1.4;-0.18;0.879171;-0.486445;-0.01698;91.4;0.0;0.0;5.3;0.0;0.0
3.0;1753873520.843054;15.796647;0.68;-1.28;-0.21;0.88032;-0.487233;-0.015717;89.5;0.0;0.0;4.3;0.0;0.0
3.0;1753873520.847778;15.793509;0.72;-1.29;-0.17;0.879659;-0.490394;-0.016782;84.4;0.0;0.0;4.8;0.0;0.0
3.0;1753873520.85259;15.792969;0.7;-1.4;-0.21;0.879742;-0.489708;-0.016592;91.0;0.0;0.0;5.0;0.0;0.0
3.0;1753873520.857313;15.792456;0.77;-1.32;-0.16;0.880091;-0.489623;-0.015961;94.0;0.0;0.0;5.4;0.0;0.0
3.0;1753873520.862036;15.787245;0.78;-1.35;-0.17;0.881093;-0.488956;-0.018308;96.8;0.0;0.0;5.7;0.0;0.0
3.0;1753873520.866759;15.796932;0.66;-1.29;-0.13;0.878828;-0.490607;-0.017062;93.3;0.0;0.0;5.4;0.0;0.0
3.0;1753873520.871482;15.792221;0.62;-1.43;-0.22;0.879366;-0.488829;-0.018901;93.8;0.0;0.0;5.5;0.0;0.0
3.0;1753873520.876206;15.79889;0.69;-1.4;-0.32;0.879707;-0.48793;-0.016174;88.6;0.0;0.0;3.9;0.0;0.0
3.0;1753873520.880928;15.798863;0.73;-1.32;-0.24;0.880076;-0.486981;-0.016788;87.9;0.0;0.0;5.3;0.0;0.0
3.0;1753873520.885652;15.791134;0.75;-1.31;-0.19;0.879131;-0.487398;-0.017694;91.3;0.0;0.0;4.9;0.0;0.0
3.0;1753873520.890375;15.805815;0.78;-1.42;-0.2;0.880022;-0.488136;-0.017331;94.2;0.0;0.0;4.6;0.0;0.0
3.0;1753873520.895098;15.794555;0.71;-1.29;-0.18;0.878634;-0.485537;-0.016456;91.1;0.0;0.0;5.4;0.0;0.0
3.0;1753873520.89941;15.792969;0.77;-1.33;-0.21;0.87962;-0.48739;-0.017934;91.0;0.0;0.0;5.0;0.0;0.0
3.0;1753873520.904133;15.797514;0.78;-1.36;-0.18;0.87996;-0.488248;-0.018026;90.1;0.0;0.0;3.6;0.0;0.0
3.0;1753873520.908856;15.803685;0.87;-1.35;-0.14;0.880113;-0.487358;-0.018853;91.6;0.0;0.0;3.7;0.0;0.0
3.0;1753873520.913579;15.797339;0.7;-1.42;-0.23;0.880115;-0.486211;-0.019774;93.5;0.0;0.0;6.3;0.0;0.0
3.0;1753873520.918302;15.791451;0.8;-1.3;-0.21;0.880621;-0.486723;-0.017463;90.1;0.0;0.0;5.9;0.0;0.0
3.0;1753873520.923025;15.790427;0.75;-1.46;-0.25;0.880159;-0.486911;-0.01658;93.5;0.0;0.0;5.2;0.0;0.0
3.0;1753873520.927748;15.804815;0.74;-1.36;-0.22;0.879383;-0.486607;-0.017262;93.5;0.0;0.0;4.9;0.0;0.0
3.0;1753873520.932472;15.801445;0.75;-1.28;-0.14;0.87954;-0.488231;-0.016398;96.5;0.0;0.0;4.4;0.0;0.0
3.0;1753873520.937194;15.791196;0.63;-1.37;-0.19;0.880335;-0.487229;-0.016867;89.1;0.0;0.0;3.9;0.0;0.0
3.0;1753873520.941918;15.799377;0.71;-1.35;-0.25;0.880625;-0.486638;-0.017812;91.7;0.0;0.0;4.7;0.0;0.0
3.0;1753873520.94618;15.792969;0.7;-1.33;-0.28;0.880474;-0.488244;-0.017568;91.0;0.0;0.0;5.0;0.0;0.0
3.0;1753873520.950903;15.789654;0.64;-1.3;-0.25;0.880601;-0.489414;-0.017686;92.4;0.0;0.0;4.7;0.0;0.0
3.0;1753873520.955626;15.798459;0.7;-1.29;-0.37;0.881296;-0.487467;-0.016694;93.9;0.0;0.0;5.6;0.0;0.0
3.0;1753873520.960349;15.798789;0.73;-1.22;-0.25;0.880575;-0.487763;-0.017769;92.3;0.0;0.0;4.6;0.0;0.0
3.0;1753873520.965072;15.797553;0.69;-1.28;-0.08;0.879532;-0.48671;-0.0179;89.4;0.0;0.0;4.0;0.0;0.0
3.0;1753873520.969796;15.802967;0.79;-1.35;-0.25;0.879318;-0.487162;-0.018192;91.4;0.0;0.0;6.6;0.0;0.0
3.0;1753873520.974518;15.798063;0.63;-1.22;-0.05;0.880451;-0.486497;-0.018007;91.8;0.0;0.0;4.9;0.0;0.0
3.0;1753873520.979242;15.804713;0.76;-1.41;-0.08;0.879396;-0.488811;-0.018679;92.7;0.0;0.0;5.0;0.0;0.0
3.0;1753873520.983965;15.80433;0.71;-1.33;-0.21;0.881372;-0.486859;-0.017186;91.6;0.0;0.0;5.5;0.0;0.0
3.0;1753873520.988688;15.802765;0.68;-1.38;0.04;0.880275;-0.488141;-0.019346;89.6;0.0;0.0;5.1;0.0;0.0
3.0;1753873520.99302;15.800781;0.77;-1.33;-0.07;0.879498;-0.486902;-0.018788;91.0;0.0;0.0;5.0;0.0;0.0
3.0;1753873520.999693;15.800781;0.77;-1.26;-0.14;0.878888;-0.488244;-0.017202;87.0;0.0;0.0;5.0;0.0;0.0
3.0;1753873521.004416;15.79573;0.78;-1.37;-0.1;0.881195;-0.486885;-0.017741;97.1;0.0;0.0;5.0;0.0;0.0
3.0;1753873521.009139;15.798691;0.85;-1.3;-0.12;0.878899;-0.488757;-0.016956;92.0;0.0;0.0;5.0;0.0;0.0
3.0;1753873521.013862;15.810825;0.75;-1.3;-0.24;0.877555;-0.489582;-0.016943;85.0;0.0;0.0;5.0;0.0;0.0
3.0;1753873521.018585;15.813089;0.75;-1.28;-0.16;0.880176;-0.487027;-0.017239;84.8;0.0;0.0;5.0;0.0;0.0
3.0;1753873521.023308;15.794697;0.86;-1.3;-0.1;0.877975;-0.48747;-0.018001;94.1;0.0;0.0;5.0;0.0;0.0
3.0;1753873521.028031;15.823822;0.79;-1.23;-0.08;0.879509;-0.488426;-0.016888;80.7;0.0;0.0;5.0;0.0;0.0
3.0;1753873521.032754;15.808222;0.83;-1.34;-0.18;0.878682;-0.488043;-0.017114;91.1;0.0;0.0;5.0;0.0;0.0
3.0;1753873521.037478;15.796937;0.73;-1.15;-0.11;0.878991;-0.488009;-0.017156;88.5;0.0;0.0;5.0;0.0;0.0
3.0;1753873521.0422;15.835677;0.73;-1.28;-0.17;0.878311;-0.488697;-0.016912;87.3;0.0;0.0;5.0;0.0;0.0
3.0;1753873521.046924;15.811865;0.72;-1.23;-0.06;0.879446;-0.489535;-0.016822;95.5;0.0;0.0;5.0;0.0;0.0
3.0;1753873521.051647;15.808347;0.75;-1.27;-0.1;0.878496;-0.487619;-0.016852;78.9;0.0;0.0;5.0;0.0;0.0
3.0;1753873521.05637;15.775809;0.72;-1.23;-0.19;0.879459;-0.487735;-0.016462;85.1;0.0;0.0;5.0;0.0;0.0
3.0;1753873521.061093;15.8015;0.73;-1.17;-0.19;0.880184;-0.48949;-0.016471;101.7;0.0;0.0;5.0;0.0;0.0
3.0;1753873521.065816;15.80965;0.76;-1.32;-0.11;0.879468;-0.488431;-0.015781;82.7;0.0;0.0;5.0;0.0;0.0
3.0;1753873521.070539;15.815434;0.86;-1.23;-0.14;0.878515;-0.489426;-0.016949;94.8;0.0;0.0;5.0;0.0;0.0
3.0;1753873521.075262;15.804353;0.73;-1.2;-0.18;0.8795;-0.487715;-0.01766;88.3;0.0;0.0;5.0;0.0;0.0
3.0;1753873521.079985;15.790799;0.79;-1.18;-0.11;0.878848;-0.486999;-0.016585;79.4;0.0;0.0;5.0;0.0;0.0
3.0;1753873521.084708;15.810909;0.72;-1.22;-0.15;0.878326;-0.489096;-0.016672;87.8;0.0;0.0;5.0;0.0;0.0
3.0;1753873521.089431;15.809279;0.77;-1.16;-0.05;0.87882;-0.487565;-0.017783;89.3;0.0;0.0;5.0;0.0;0.0
3.0;1753873521.094154;15.7803;0.77;-1.31;-0.23;0.877106;-0.489818;-0.018297;98.1;0.0;0.0;5.0;0.0;0.0
3.0;1753873521.098878;15.776768;0.72;-1.23;-0.18;0.878396;-0.488687;-0.016832;95.4;0.0;0.0;5.0;0.0;0.0
3.0;1753873521.1036;15.802772;0.71;-1.26;-0.15;0.880333;-0.489045;-0.017241;71.9;0.0;0.0;5.0;0.0;0.0
3.0;1753873521.108324;15.821643;0.76;-1.22;-0.15;0.879017;-0.487296;-0.01633;77.9;0.0;0.0;5.0;0.0;0.0
3.0;1753873521.113047;15.796568;0.69;-1.24;-0.14;0.879524;-0.487832;-0.016326;82.2;0.0;0.0;5.0;0.0;0.0
3.0;1753873521.11777;15.796749;0.75;-1.24;-0.15;0.879268;-0.486853;-0.015606;85.1;0.0;0.0;5.0;0.0;0.0
3.0;1753873521.122493;15.813827;0.78;-1.19;-0.2;0.879526;-0.488019;-0.017173;88.0;0.0;0.0;5.0;0.0;0.0
3.0;1753873521.127216;15.816706;0.68;-1.33;-0.14;0.88022;-0.487868;-0.01604;95.6;0.0;0.0;5.0;0.0;0.0
3.0;1753873521.131939;15.809055;0.79;-1.23;-0.07;0.879777;-0.487926;-0.017554;84.6;0.0;0.0;5.0;0.0;0.0
3.0;1753873521.136662;15.793528;0.84;-1.24;-0.17;0.881432;-0.487576;-0.016562;80.8;0.0;0.0;5.0;0.0;0.0
3.0;1753873521.141385;15.782307;0.73;-1.33;-0.22;0.878781;-0.487537;-0.01592;82.3;0.0;0.0;5.0;0.0;0.0
3.0;1753873521.146108;15.796068;0.69;-1.2;-0.21;0.878283;-0.488084;-0.017956;93.5;0.0;0.0;5.0;0.0;0.0
3.0;1753873521.150831;15.785971;0.78;-1.34;-0.2;0.879931;-0.488831;-0.01639;85.3;0.0;0.0;5.0;0.0;0.0
3.0;1753873521.155554;15.803079;0.73;-1.2;-0.12;0.879056;-0.486939;-0.016713;85.1;0.0;0.0;5.0;0.0;0.0
3.0;1753873521.160277;15.794639;0.79;-1.25;-0.11;0.879481;-0.488221;-0.017382;88.2;0.0;0.0;5.0;0.0;0.0
3.0;1753873521.165;15.797699;0.78;-1.29;-0.09;0.879112;-0.486974;-0.01711;96.0;0.0;0.0;5.0;0.0;0.0
3.0;1753873521.169724;15.799779;0.77;-1.23;-0.21;0.881331;-0.487634;-0.017735;83.4;0.0;0.0;5.0;0.0;0.0
3.0;1753873521.174446;15.797109;0.74;-1.28;-0.29;0.878428;-0.489025;-0.018089;81.9;0.0;0.0;5.0;0.0;0.0
3.0;1753873521.17917;15.809401;0.67;-1.25;-0.22;0.878853;-0.487723;-0.016515;85.7;0.0;0.0;5.0;0.0;0.0
3.0;1753873521.183893;15.80864;0.73;-1.22;-0.1;0.879252;-0.488547;-0.01733;88.4;0.0;0.0;5.0;0.0;0.0
3.0;1753873521.188616;15.79749;0.69;-1.28;-0.27;0.878437;-0.48966;-0.016402;88.5;0.0;0.0;5.0;0.0;0.0
3.0;1753873521.193339;15.787908;0.72;-1.35;-0.15;0.878376;-0.488604;-0.016629;94.3;0.0;0.0;5.0;0.0;0.0
3.0;1753873521.198062;15.807501;0.7;-1.25;-0.23;0.87823;-0.491004;-0.017211;89.7;0.0;0.0;5.0;0.0;0.0
3.0;1753873521.202785;15.797145;0.71;-1.23;-0.14;0.881513;-0.488039;-0.016185;80.1;0.0;0.0;5.0;0.0;0.0
3.0;1753873521.207508;15.813952;0.74;-1.33;-0.22;0.880584;-0.48948;-0.016984;93.6;0.0;0.0;5.0;0.0;0.0
3.0;1753873521.212231;15.828753;0.67;-1.38;-0.15;0.879932;-0.488421;-0.017218;95.1;0.0;0.0;5.0;0.0;0.0
3.0;1753873521.216954;15.819277;0.67;-1.23;-0.19;0.88145;-0.487046;-0.016566;97.3;0.0;0.0;5.0;0.0;0.0
3.0;1753873521.221677;15.800817;0.7;-1.26;-0.17;0.879835;-0.485125;-0.016421;72.6;0.0;0.0;5.0;0.0;0.0
3.0;1753873521.2264;15.788332;0.68;-1.26;-0.16;0.87896;-0.488334;-0.016581;92.0;0.0;0.0;5.0;0.0;0.0
3.0;1753873521.231124;15.81915;0.85;-1.21;-0.08;0.878011;-0.488155;-0.01704;78.1;0.0;0.0;5.0;0.0;0.0
3.0;1753873521.235846;15.777552;0.76;-1.22;-0.22;0.880437;-0.489356;-0.01625;81.2;0.0;0.0;5.0;0.0;0.0
3.0;1753873521.24057;15.818561;0.78;-1.17;-0.16;0.881112;-0.489598;-0.016999;90.3;0.0;0.0;5.0;0.0;0.0
3.0;1753873521.245293;15.8202;0.72;-1.32;-0.26;0.880142;-0.489418;-0.017405;74.1;0.0;0.0;5.0;0.0;0.0
3.0;1753873521.250016;15.810782;0.81;-1.24;-0.1;0.877998;-0.489333;-0.016246;86.0;0.0;0.0;5.0;0.0;0.0
3.0;1753873521.254739;15.791925;0.7;-1.2;-0.25;0.87891;-0.488615;-0.017287;87.4;0.0;0.0;5.0;0.0;0.0
3.0;1753873521.259462;15.801264;0.65;-1.26;-0.21;0.881823;-0.486917;-0.018138;89.6;0.0;0.0;5.0;0.0;0.0
3.0;1753873521.264185;15.78768;0.77;-1.28;-0.19;0.880423;-0.486923;-0.016626;86.6;0.0;0.0;5.0;0.0;0.0
3.0;1753873521.268908;15.793864;0.64;-1.35;-0.15;0.882755;-0.488807;-0.017411;90.4;0.0;0.0;5.0;0.0;0.0
3.0;1753873521.273631;15.803795;0.72;-1.37;-0.18;0.879605;-0.48815;-0.017679;83.9;0.0;0.0;5.0;0.0;0.0
3.0;1753873521.278354;15.800204;0.8;-1.26;-0.26;0.880604;-0.489771;-0.016383;87.9;0.0;0.0;5.0;0.0;0.0
3.0;1753873521.283077;15.843898;0.64;-1.24;-0.17;0.880308;-0.486517;-0.017692;77.7;0.0;0.0;5.0;0.0;0.0
3.0;1753873521.2878;15.806971;0.79;-1.21;-0.18;0.880112;-0.488413;-0.017128;88.0;0.0;0.0;5.0;0.0;0.0
3.0;1753873521.292524;15.813993;0.82;-1.29;-0.23;0.881915;-0.487198;-0.01657;86.1;0.0;0.0;5.0;0.0;0.0
3.0;1753873521.297246;15.8135;0.68;-1.26;-0.17;0.881157;-0.487548;-0.016396;88.1;0.0;0.0;5.0;0.0;0.0
3.0;1753873521.30197;15.779904;0.76;-1.19;-0.18;0.878654;-0.488232;-0.015952;85.2;0.0;0.0;5.0;0.0;0.0
3.0;1753873521.306692;15.804002;0.73;-1.29;-0.23;0.880825;-0.486904;-0.016784;80.0;0.0;0.0;5.0;0.0;0.0
3.0;1753873521.311416;15.808248;0.65;-1.21;-0.18;0.878987;-0.488122;-0.01602;86.5;0.0;0.0;5.0;0.0;0.0
3.0;1753873521.316139;15.809044;0.67;-1.27;-0.24;0.878891;-0.487564;-0.016616;89.0;0.0;0.0;5.0;0.0;0.0
3.0;1753873521.320862;15.789176;0.68;-1.32;-0.18;0.879326;-0.486065;-0.018051;89.3;0.0;0.0;5.0;0.0;0.0
3.0;1753873521.325585;15.80644;0.73;-1.3;-0.23;0.880269;-0.488724;-0.015795;76.5;0.0;0.0;5.0;0.0;0.0
3.0;1753873521.330308;15.790778;0.64;-1.21;-0.19;0.881105;-0.486957;-0.016965;82.7;0.0;0.0;5.0;0.0;0.0
3.0;1753873521.335031;15.796163;0.69;-1.29;-0.26;0.881669;-0.489472;-0.016812;83.3;0.0;0.0;5.0;0.0;0.0
3.0;1753873521.339754;15.795898;0.7;-1.34;-0.14;0.880418;-0.487281;-0.017927;85.5;0.0;0.0;5.0;0.0;0.0
3.0;1753873521.344477;15.802655;0.66;-1.26;-0.2;0.877761;-0.487941;-0.017054;84.4;0.0;0.0;5.0;0.0;0.0
3.0;1753873521.3492;15.78809;0.74;-1.38;-0.23;0.879777;-0.489103;-0.016249;87.8;0.0;0.0;5.0;0.0;0.0
3.0;1753873521.353923;15.800994;0.68;-1.22;-0.22;0.879668;-0.487799;-0.01646;99.6;0.0;0.0;5.0;0.0;0.0
3.0;1753873521.358646;15.783407;0.64;-1.29;-0.22;0.881253;-0.489006;-0.016779;82.5;0.0;0.0;5.0;0.0;0.0
3.0;1753873521.36337;15.79605;0.65;-1.26;-0.32;0.880618;-0.487891;-0.016256;78.2;0.0;0.0;5.0;0.0;0.0
3.0;1753873521.368092;15.799237;0.72;-1.23;-0.18;0.879934;-0.48865;-0.01674;85.6;0.0;0.0;5.0;0.0;0.0
3.0;1753873521.372816;15.807653;0.69;-1.3;-0.17;0.882183;-0.489001;-0.016797;89.2;0.0;0.0;5.0;0.0;0.0
3.0;1753873521.377539;15.79189;0.71;-1.31;-0.2;0.881498;-0.486561;-0.017989;80.0;0.0;0.0;5.0;0.0;0.0
3.0;1753873521.382262;15.781761;0.68;-1.25;-0.25;0.879662;-0.487384;-0.016689;73.9;0.0;0.0;5.0;0.0;0.0
3.0;1753873521.386985;15.800096;0.62;-1.31;-0.18;0.878939;-0.488681;-0.016568;85.5;0.0;0.0;5.0;0.0;0.0
3.0;1753873521.391708;15.798997;0.7;-1.28;-0.22;0.881564;-0.489626;-0.016221;97.0;0.0;0.0;5.0;0.0;0.0
3.0;1753873521.396431;15.816407;0.79;-1.38;-0.25;0.881265;-0.484847;-0.015507;97.9;0.0;0.0;5.0;0.0;0.0
3.0;1753873521.401154;15.772002;0.61;-1.28;-0.21;0.882298;-0.487645;-0.01718;82.8;0.0;0.0;5.0;0.0;0.0
3.0;1753873521.405877;15.799218;0.69;-1.24;-0.17;0.881288;-0.490043;-0.015941;87.8;0.0;0.0;5.0;0.0;0.0
3.0;1753873521.4106;15.8022;0.71;-1.26;-0.29;0.879184;-0.486685;-0.01754;77.7;0.0;0.0;5.0;0.0;0.0
3.0;1753873521.415323;15.8015;0.66;-1.14;-0.29;0.880186;-0.487566;-0.016518;87.1;0.0;0.0;5.0;0.0;0.0
3.0;1753873521.420046;15.81731;0.67;-1.23;-0.3;0.881603;-0.488338;-0.016561;89.0;0.0;0.0;5.0;0.0;0.0
3.0;1753873521.42477;15.7959;0.72;-1.27;-0.35;0.880048;-0.487373;-0.016599;94.5;0.0;0.0;5.0;0.0;0.0
3.0;1753873521.429492;15.80115;0.7;-1.38;-0.38;0.883092;-0.489164;-0.016015;93.4;0.0;0.0;5.0;0.0;0.0
3.0;1753873521.434216;15.812197;0.63;-1.22;-0.23;0.881998;-0.4876;-0.016824;83.0;0.0;0.0;5.0;0.0;0.0
3.0;1753873521.438938;15.782244;0.64;-1.21;-0.13;0.883095;-0.490403;-0.016471;81.5;0.0;0.0;5.0;0.0;0.0
3.0;1753873521.443662;15.814017;0.7;-1.13;-0.27;0.88203;-0.487246;-0.017086;87.9;0.0;0.0;5.0;0.0;0.0
3.0;1753873521.448385;15.778629;0.56;-1.3;-0.3;0.880496;-0.487216;-0.015869;99.3;0.0;0.0;5.0;0.0;0.0
3.0;1753873521.453108;15.787559;0.83;-1.31;-0.41;0.881558;-0.487843;-0.016055;91.0;0.0;0.0;5.0;0.0;0.0
3.0;1753873521.457831;15.784536;0.65;-1.27;-0.27;0.881787;-0.488516;-0.016939;86.6;0.0;0.0;5.0;0.0;0.0
3.0;1753873521.462554;15.794348;0.73;-1.24;-0.25;0.880792;-0.487513;-0.016536;88.3;0.0;0.0;5.0;0.0;0.0
3.0;1753873521.467277;15.793362;0.67;-1.25;-0.37;0.881904;-0.48629;-0.016435;92.1;0.0;0.0;5.0;0.0;0.0
3.0;1753873521.472;15.792938;0.58;-1.32;-0.25;0.883259;-0.487748;-0.015995;93.3;0.0;0.0;5.0;0.0;0.0
3.0;1753873521.476723;15.788062;0.69;-1.28;-0.21;0.880022;-0.486856;-0.016641;99.0;0.0;0.0;5.0;0.0;0.0
3.0;1753873521.481446;15.809396;0.71;-1.32;-0.23;0.881578;-0.488615;-0.016452;84.6;0.0;0.0;5.0;0.0;0.0
3.0;1753873521.486169;15.802768;0.66;-1.29;-0.23;0.878694;-0.486931;-0.016421;81.0;0.0;0.0;5.0;0.0;0.0
3.0;1753873521.490892;15.803899;0.67;-1.37;-0.21;0.881662;-0.487303;-0.017281;73.5;0.0;0.0;5.0;0.0;0.0
3.0;1753873521.495616;15.808137;0.66;-1.28;-0.25;0.878685;-0.487496;-0.01655;91.7;0.0;0.0;5.0;0.0;0.0
3.0;1753873521.500338;15.81267;0.61;-1.19;-0.16;0.880216;-0.487188;-0.0161;73.3;0.0;0.0;5.0;0.0;0.0
3.0;1753873521.505062;15.806271;0.78;-1.25;-0.19;0.881695;-0.486526;-0.016112;90.5;0.0;0.0;5.0;0.0;0.0
3.0;1753873521.509785;15.8017;0.59;-1.33;-0.26;0.881688;-0.487273;-0.016352;79.3;0.0;0.0;5.0;0.0;0.0
3.0;1753873521.514508;15.79603;0.71;-1.29;-0.33;0.880853;-0.48605;-0.015568;89.5;0.0;0.0;5.0;0.0;0.0
3.0;1753873521.519231;15.800655;0.66;-1.17;-0.28;0.880866;-0.491031;-0.016499;89.7;0.0;0.0;5.0;0.0;0.0
3.0;1753873521.523954;15.798394;0.66;-1.26;-0.26;0.879799;-0.486024;-0.015324;81.8;0.0;0.0;5.0;0.0;0.0
3.0;1753873521.528677;15.794586;0.67;-1.25;-0.24;0.88139;-0.486847;-0.015569;94.0;0.0;0.0;5.0;0.0;0.0
3.0;1753873521.5334;15.801849;0.7;-1.3;-0.33;0.881387;-0.488757;-0.016224;84.2;0.0;0.0;5.0;0.0;0.0
3.0;1753873521.538123;15.79667;0.66;-1.26;-0.26;0.88241;-0.488569;-0.015792;87.1;0.0;0.0;5.0;0.0;0.0
3.0;1753873521.542846;15.810048;0.71;-1.27;-0.19;0.880363;-0.488867;-0.014835;91.9;0.0;0.0;5.0;0.0;0.0
3.0;1753873521.547569;15.787103;0.66;-1.26;-0.22;0.881956;-0.486714;-0.018046;92.0;0.0;0.0;5.0;0.0;0.0
3.0;1753873521.552292;15.802637;0.57;-1.25;-0.26;0.880852;-0.48682;-0.016344;85.3;0.0;0.0;5.0;0.0;0.0
3.0;1753873521.557016;15.819249;0.7;-1.29;-0.19;0.881431;-0.486284;-0.016578;76.9;0.0;0.0;5.0;0.0;0.0
3.0;1753873521.561738;15.827665;0.73;-1.28;-0.22;0.880812;-0.487901;-0.016276;87.1;0.0;0.0;5.0;0.0;0.0
3.0;1753873521.566462;15.778686;0.77;-1.24;-0.24;0.881716;-0.489686;-0.016195;75.8;0.0;0.0;5.0;0.0;0.0
3.0;1753873521.571185;15.798779;0.65;-1.23;-0.37;0.881671;-0.489668;-0.017077;83.0;0.0;0.0;5.0;0.0;0.0
3.0;1753873521.575908;15.800236;0.7;-1.34;-0.25;0.879375;-0.485384;-0.015135;92.9;0.0;0.0;5.0;0.0;0.0
3.0;1753873521.580631;15.81343;0.58;-1.27;-0.25;0.880552;-0.488347;-0.016621;90.8;0.0;0.0;5.0;0.0;0.0
3.0;1753873521.585354;15.815141;0.65;-1.3;-0.29;0.881029;-0.488729;-0.016447;98.4;0.0;0.0;5.0;0.0;0.0
3.0;1753873521.590077;15.81081;0.66;-1.41;-0.37;0.883877;-0.487296;-0.016047;89.7;0.0;0.0;5.0;0.0;0.0
3.0;1753873521.5948;15.794634;0.6;-1.41;-0.26;0.880261;-0.485411;-0.016096;79.2;0.0;0.0;5.0;0.0;0.0
3.0;1753873521.599523;15.805008;0.63;-1.37;-0.27;0.884179;-0.488079;-0.015648;81.2;0.0;0.0;5.0;0.0;0.0
3.0;1753873521.604246;15.804669;0.63;-1.28;-0.34;0.880994;-0.48845;-0.016195;86.6;0.0;0.0;5.0;0.0;0.0
3.0;1753873521.608969;15.827302;0.62;-1.16;-0.34;0.881228;-0.487427;-0.015821;89.7;0.0;0.0;5.0;0.0;0.0
3.0;1753873521.613692;15.790366;0.58;-1.21;-0.26;0.880732;-0.488236;-0.015171;90.6;0.0;0.0;5.0;0.0;0.0
3.0;1753873521.6182;15.800781;0.63;-1.26;-0.28;0.88145;-0.487756;-0.016104;87.0;0.0;0.0;5.0;0.0;0.0
3.0;1753873521.62232;15.800781;0.84;-1.4;-0.14;0.878644;-0.488122;-0.017812;86.0;0.0;0.0;4.0;0.0;0.0
3.0;1753873521.627043;15.778962;0.96;-1.25;-0.15;0.88029;-0.485741;-0.016952;75.0;0.0;0.0;3.9;0.0;0.0
3.0;1753873521.63164;15.800781;0.84;-1.33;-0.07;0.88084;-0.485926;-0.016226;86.0;0.0;0.0;4.0;0.0;0.0
3.0;1753873521.636363;15.800851;0.71;-1.33;-0.04;0.877821;-0.487439;-0.015002;91.3;0.0;0.0;3.5;0.0;0.0
3.0;1753873521.641086;15.801248;0.67;-1.45;-0.14;0.880762;-0.486739;-0.016922;81.9;0.0;0.0;4.2;0.0;0.0
3.0;1753873521.645809;15.790071;0.83;-1.29;-0.06;0.88034;-0.488937;-0.017864;81.5;0.0;0.0;4.0;0.0;0.0
3.0;1753873521.650532;15.792806;0.84;-1.26;-0.05;0.879304;-0.486369;-0.016493;87.0;0.0;0.0;4.2;0.0;0.0
3.0;1753873521.655255;15.76224;0.7;-1.31;-0.08;0.880795;-0.486642;-0.01631;81.4;0.0;0.0;4.2;0.0;0.0
3.0;1753873521.659978;15.805667;0.72;-1.27;-0.09;0.878206;-0.488338;-0.015446;84.6;0.0;0.0;4.3;0.0;0.0
3.0;1753873521.664702;15.802669;0.77;-1.37;-0.14;0.87988;-0.488902;-0.01618;80.9;0.0;0.0;4.0;0.0;0.0
3.0;1753873521.669424;15.806537;0.82;-1.25;-0.12;0.878435;-0.486085;-0.015995;75.8;0.0;0.0;4.4;0.0;0.0
3.0;1753873521.674148;15.788007;0.81;-1.34;-0.13;0.879436;-0.48641;-0.016769;77.2;0.0;0.0;3.1;0.0;0.0
3.0;1753873521.67846;15.800781;0.7;-1.26;-0.14;0.879254;-0.488122;-0.016592;86.0;0.0;0.0;4.0;0.0;0.0
3.0;1753873521.683183;15.802916;0.66;-1.29;-0.11;0.878904;-0.489312;-0.016437;81.6;0.0;0.0;4.5;0.0;0.0
3.0;1753873521.687906;15.788404;0.74;-1.32;-0.15;0.879588;-0.488109;-0.016891;96.6;0.0;0.0;4.1;0.0;0.0
3.0;1753873521.692629;15.790781;0.74;-1.4;-0.23;0.881161;-0.488774;-0.016139;79.4;0.0;0.0;4.2;0.0;0.0
3.0;1753873521.697352;15.800404;0.67;-1.33;-0.16;0.87996;-0.486799;-0.017094;82.6;0.0;0.0;3.7;0.0;0.0
3.0;1753873521.702075;15.812605;0.75;-1.36;-0.11;0.879521;-0.486807;-0.017154;92.6;0.0;0.0;4.1;0.0;0.0
3.0;1753873521.706798;15.73833;0.72;-1.37;-0.14;0.879645;-0.488837;-0.016932;81.2;0.0;0.0;3.5;0.0;0.0
3.0;1753873521.711522;15.767666;0.77;-1.34;-0.14;0.880115;-0.486849;-0.017473;85.7;0.0;0.0;4.7;0.0;0.0
3.0;1753873521.716244;15.785968;0.7;-1.35;-0.22;0.875861;-0.48568;-0.016614;85.0;0.0;0.0;3.8;0.0;0.0
3.0;1753873521.720968;15.777711;0.69;-1.28;-0.15;0.879213;-0.488563;-0.01619;91.2;0.0;0.0;4.4;0.0;0.0
3.0;1753873521.72569;15.785653;0.73;-1.35;-0.1;0.878155;-0.486254;-0.017646;87.5;0.0;0.0;4.1;0.0;0.0
3.0;1753873521.730414;15.75882;0.65;-1.4;-0.22;0.879781;-0.487961;-0.016548;79.4;0.0;0.0;4.1;0.0;0.0
3.0;1753873521.735137;15.768266;0.69;-1.43;-0.06;0.87974;-0.486959;-0.017686;93.6;0.0;0.0;3.8;0.0;0.0
3.0;1753873521.74163;15.761719;0.7;-1.4;-0.14;0.87962;-0.487268;-0.017202;86.0;0.0;0.0;4.0;0.0;0.0
3.0;1753873521.746353;15.781561;0.76;-1.35;-0.09;0.88178;-0.488458;-0.017321;86.2;0.0;0.0;4.7;0.0;0.0
3.0;1753873521.751076;15.760896;0.73;-1.41;-0.13;0.880953;-0.485828;-0.017114;85.1;0.0;0.0;4.4;0.0;0.0
3.0;1753873521.755799;15.739106;0.69;-1.31;-0.11;0.881635;-0.486931;-0.016463;84.9;0.0;0.0;4.4;0.0;0.0
3.0;1753873521.760522;15.778326;0.64;-1.28;-0.15;0.880868;-0.48773;-0.01747;90.1;0.0;0.0;4.2;0.0;0.0
3.0;1753873521.765246;15.78099;0.69;-1.31;-0.3;0.87994;-0.486461;-0.016436;84.4;0.0;0.0;4.3;0.0;0.0
3.0;1753873521.77252;15.761719;0.7;-1.26;-0.21;0.881694;-0.487146;-0.016714;86.0;0.0;0.0;4.0;0.0;0.0
3.0;1753873521.777243;15.78062;0.64;-1.21;-0.2;0.881745;-0.487317;-0.01666;90.8;0.0;0.0;3.8;0.0;0.0
3.0;1753873521.781966;15.78186;0.58;-1.23;-0.32;0.880507;-0.487411;-0.016456;81.1;0.0;0.0;3.8;0.0;0.0
3.0;1753873521.786689;15.788062;0.59;-1.26;-0.27;0.881573;-0.486933;-0.017218;88.5;0.0;0.0;3.4;0.0;0.0
3.0;1753873521.791412;15.76389;0.56;-1.31;-0.31;0.878621;-0.487325;-0.016071;95.1;0.0;0.0;3.7;0.0;0.0
3.0;1753873521.796136;15.782858;0.66;-1.31;-0.19;0.882047;-0.486009;-0.016675;80.3;0.0;0.0;4.5;0.0;0.0
3.0;1753873521.800858;15.749857;0.64;-1.17;-0.24;0.87846;-0.486228;-0.017655;82.5;0.0;0.0;4.1;0.0;0.0
3.0;1753873521.805582;15.737713;0.62;-1.32;-0.33;0.879309;-0.48626;-0.017212;91.1;0.0;0.0;4.0;0.0;0.0
3.0;1753873521.810305;15.744065;0.68;-1.26;-0.23;0.880052;-0.487775;-0.017508;93.5;0.0;0.0;4.5;0.0;0.0
3.0;1753873521.815028;15.779806;0.73;-1.23;-0.27;0.881031;-0.488;-0.016395;82.9;0.0;0.0;3.8;0.0;0.0
3.0;1753873521.819751;15.73415;0.7;-1.28;-0.29;0.879612;-0.490052;-0.016889;80.1;0.0;0.0;4.2;0.0;0.0
3.0;1753873521.82826;15.761719;0.63;-1.26;-0.28;0.87901;-0.488366;-0.016836;86.0;0.0;0.0;4.0;0.0;0.0
3.0;1753873521.832983;15.786389;0.57;-1.19;-0.33;0.878227;-0.488073;-0.016424;85.3;0.0;0.0;4.6;0.0;0.0
3.0;1753873521.837706;15.741661;0.7;-1.19;-0.23;0.879326;-0.488201;-0.017086;87.3;0.0;0.0;3.1;0.0;0.0
3.0;1753873521.842429;15.767071;0.7;-1.28;-0.24;0.879797;-0.488181;-0.016643;90.3;0.0;0.0;3.6;0.0;0.0
3.0;1753873521.847152;15.753416;0.63;-1.24;-0.23;0.880364;-0.487239;-0.017736;97.7;0.0;0.0;3.9;0.0;0.0
3.0;1753873521.851875;15.76695;0.71;-1.41;-0.07;0.878602;-0.487584;-0.017463;84.4;0.0;0.0;3.7;0.0;0.0
3.0;1753873521.856598;15.785247;0.78;-1.29;-0.31;0.879272;-0.487854;-0.018114;84.2;0.0;0.0;3.4;0.0;0.0
3.0;1753873521.861322;15.769373;0.66;-1.28;-0.2;0.880288;-0.485648;-0.018679;92.8;0.0;0.0;4.2;0.0;0.0
3.0;1753873521.866044;15.744676;0.67;-1.21;-0.18;0.881232;-0.485642;-0.0173;83.2;0.0;0.0;3.5;0.0;0.0
3.0;1753873521.87358;15.761719;0.7;-1.26;-0.21;0.88084;-0.486048;-0.018056;86.0;0.0;0.0;4.0;0.0;0.0
3.0;1753873521.878303;15.815554;0.72;-1.37;-0.28;0.881315;-0.485952;-0.017395;86.2;0.0;0.0;4.0;0.0;0.0
3.0;1753873521.883026;15.781167;0.79;-1.25;-0.27;0.880786;-0.486811;-0.018629;86.0;0.0;0.0;5.3;0.0;0.0
3.0;1753873521.887749;15.789252;0.71;-1.28;-0.28;0.879177;-0.486866;-0.01872;86.8;0.0;0.0;4.1;0.0;0.0
3.0;1753873521.892472;15.771103;0.58;-1.4;-0.23;0.879816;-0.48824;-0.017663;85.7;0.0;0.0;3.9;0.0;0.0
3.0;1753873521.897195;15.799022;0.68;-1.25;-0.22;0.878335;-0.487744;-0.017663;90.9;0.0;0.0;3.4;0.0;0.0
3.0;1753873521.901918;15.77244;0.75;-1.33;-0.24;0.87886;-0.486679;-0.016655;83.3;0.0;0.0;4.2;0.0;0.0
3.0;1753873521.906642;15.790145;0.7;-1.32;-0.2;0.878287;-0.487402;-0.016839;86.4;0.0;0.0;3.6;0.0;0.0
3.0;1753873521.9124;15.804688;0.77;-1.33;-0.21;0.878766;-0.488366;-0.017446;86.0;0.0;0.0;4.0;0.0;0.0
3.0;1753873521.917123;15.822625;0.77;-1.3;-0.26;0.879393;-0.489362;-0.017119;83.6;0.0;0.0;4.8;0.0;0.0
3.0;1753873521.921846;15.784358;0.83;-1.43;-0.19;0.878709;-0.488188;-0.017906;85.0;0.0;0.0;3.9;0.0;0.0
3.0;1753873521.926569;15.783878;0.78;-1.41;-0.27;0.880167;-0.48879;-0.017117;88.7;0.0;0.0;3.6;0.0;0.0
3.0;1753873521.931292;15.781321;0.75;-1.3;-0.09;0.880421;-0.489445;-0.016643;91.4;0.0;0.0;4.3;0.0;0.0
3.0;1753873521.936015;15.822135;0.72;-1.38;-0.12;0.87675;-0.491626;-0.01812;82.0;0.0;0.0;3.9;0.0;0.0
3.0;1753873521.940738;15.825889;0.7;-1.38;-0.37;0.880608;-0.48995;-0.016714;84.5;0.0;0.0;4.6;0.0;0.0
3.0;1753873521.945462;15.833522;0.68;-1.24;-0.12;0.879098;-0.487287;-0.015563;80.1;0.0;0.0;3.5;0.0;0.0
3.0;1753873521.950184;15.780574;0.75;-1.26;-0.18;0.879543;-0.490364;-0.018167;92.3;0.0;0.0;4.3;0.0;0.0
3.0;1753873521.954908;15.80555;0.73;-1.28;-0.21;0.879438;-0.490026;-0.017063;84.3;0.0;0.0;3.9;0.0;0.0
3.0;1753873521.959631;15.799357;0.7;-1.36;-0.27;0.878121;-0.488767;-0.017239;86.7;0.0;0.0;3.4;0.0;0.0
3.0;1753873521.964354;15.796894;0.65;-1.29;-0.21;0.877118;-0.489596;-0.017375;89.5;0.0;0.0;3.6;0.0;0.0
3.0;1753873521.969077;15.758175;0.7;-1.37;-0.29;0.877719;-0.488901;-0.0181;85.0;0.0;0.0;4.4;0.0;0.0
3.0;1753873521.97787;15.804688;0.7;-1.33;-0.28;0.878888;-0.489708;-0.017324;86.0;0.0;0.0;4.0;0.0;0.0
3.0;1753873521.984783;15.839844;0.7;-1.33;-0.21;0.880718;-0.489952;-0.018544;92.0;0.0;0.0;5.0;0.0;0.0
3.0;1753873521.984988;15.839844;0.7;-1.33;-0.14;0.880474;-0.485072;-0.017202;92.0;0.0;0.0;5.0;0.0;0.0
3.0;1753873521.993036;15.832031;0.7;-1.33;-0.21;0.880352;-0.489098;-0.01647;96.0;0.0;0.0;6.0;0.0;0.0
3.0;1753873521.994346;15.832031;0.77;-1.33;-0.14;0.879376;-0.488366;-0.017202;96.0;0.0;0.0;6.0;0.0;0.0
3.0;1753873521.999065;15.832031;0.77;-1.33;-0.21;0.881206;-0.487756;-0.017568;96.0;0.0;0.0;6.0;0.0;0.0
3.0;1753873522.003788;15.817783;0.74;-1.31;-0.26;0.881055;-0.489948;-0.017182;99.1;0.0;0.0;7.1;0.0;0.0
3.0;1753873522.008511;15.842386;0.79;-1.34;-0.22;0.879959;-0.487277;-0.017245;94.8;0.0;0.0;5.8;0.0;0.0
3.0;1753873522.013234;15.850039;0.74;-1.31;-0.23;0.881965;-0.486979;-0.01664;93.2;0.0;0.0;5.9;0.0;0.0
3.0;1753873522.017957;15.836892;0.76;-1.32;-0.18;0.881512;-0.488674;-0.018484;94.2;0.0;0.0;6.0;0.0;0.0
3.0;1753873522.02268;15.839697;0.77;-1.32;-0.18;0.881071;-0.48898;-0.016569;96.8;0.0;0.0;6.4;0.0;0.0
3.0;1753873522.027403;15.849881;0.75;-1.34;-0.19;0.88106;-0.48963;-0.017551;97.1;0.0;0.0;6.2;0.0;0.0
3.0;1753873522.032126;15.825466;0.79;-1.3;-0.16;0.881445;-0.490042;-0.017891;100.6;0.0;0.0;5.9;0.0;0.0
3.0;1753873522.03685;15.831739;0.78;-1.28;-0.17;0.881306;-0.488504;-0.017941;92.2;0.0;0.0;5.2;0.0;0.0
3.0;1753873522.041572;15.822948;0.76;-1.28;-0.26;0.880729;-0.488478;-0.016689;100.9;0.0;0.0;6.5;0.0;0.0
3.0;1753873522.046296;15.839689;0.77;-1.32;-0.18;0.880577;-0.488211;-0.017955;90.6;0.0;0.0;5.3;0.0;0.0
