DeviceID;Timestamp;Temperature;GyroX;GyroY;GyroZ;AccelX;AccelY;AccelZ;Dist1;Dist2;Dist3;Err1;Err2;Err3
2.0;1753873516.455113;13.769531;1.05;-1.68;-0.35;0.929396;0.339892;0.048556;137.0;0.0;0.0;15.0;0.0;0.0
2.0;1753873516.459426;13.769531;0.91;-1.68;-0.35;0.929396;0.339892;0.048556;137.0;0.0;0.0;15.0;0.0;0.0
2.0;1753873516.464242;13.769531;0.77;-1.61;-0.28;0.928664;0.340136;0.049166;137.0;0.0;0.0;15.0;0.0;0.0
2.0;1753873516.471618;13.753906;0.84;-1.68;-0.35;0.930006;0.340136;0.048922;141.0;0.0;0.0;19.0;0.0;0.0
2.0;1753873516.47319;13.753906;0.84;-1.75;-0.28;0.927078;0.346114;0.048678;141.0;0.0;0.0;19.0;0.0;0.0
2.0;1753873516.478041;13.753906;0.91;-1.68;-0.28;0.931226;0.335378;0.051118;141.0;0.0;0.0;19.0;0.0;0.0
2.0;1753873516.482392;13.753906;0.91;-1.75;-0.28;0.925858;0.346236;0.048556;141.0;0.0;0.0;19.0;0.0;0.0
2.0;1753873516.489169;13.828125;0.98;-1.54;-0.35;0.932446;0.335012;0.050264;141.0;0.0;0.0;19.0;0.0;0.0
2.0;1753873516.49153;13.828125;0.91;-1.68;-0.28;0.927078;0.34526;0.049288;141.0;0.0;0.0;19.0;0.0;0.0
2.0;1753873516.496113;13.828125;0.98;-1.61;-0.28;0.930738;0.33672;0.050264;141.0;0.0;0.0;19.0;0.0;0.0
2.0;1753873516.500678;13.828125;0.98;-1.75;-0.28;0.928542;0.341722;0.049044;141.0;0.0;0.0;19.0;0.0;0.0
2.0;1753873516.505275;13.824219;0.84;-1.68;-0.28;0.930982;0.340502;0.050386;141.0;0.0;0.0;19.0;0.0;0.0
2.0;1753873516.509832;13.824219;0.91;-1.68;-0.35;0.928298;0.338916;0.05002;141.0;0.0;0.0;19.0;0.0;0.0
2.0;1753873516.514404;13.824219;0.77;-1.54;-0.42;0.931104;0.340502;0.048922;141.0;0.0;0.0;19.0;0.0;0.0
2.0;1753873516.521381;13.824219;0.84;-1.68;-0.35;0.927932;0.343186;0.05002;123.0;0.0;0.0;17.0;0.0;0.0
2.0;1753873516.52368;13.796875;0.91;-1.68;-0.21;0.928298;0.338794;0.049654;123.0;0.0;0.0;17.0;0.0;0.0
2.0;1753873516.529751;13.796875;0.98;-1.61;-0.42;0.927688;0.340014;0.050752;123.0;0.0;0.0;17.0;0.0;0.0
2.0;1753873516.53436;13.798739;0.87;-1.54;-0.94;0.934312;0.339567;0.05382;123.0;0.0;-0.1;17.1;0.0;-0.0
2.0;1753873516.539079;13.796875;1.05;-1.68;-0.21;0.928908;0.33916;0.049532;123.0;0.0;0.0;17.0;0.0;0.0
2.0;1753873516.541819;13.746094;0.98;-1.54;-0.42;0.930372;0.337452;0.049288;123.0;0.0;0.0;17.0;0.0;0.0
2.0;1753873516.546705;13.746094;0.98;-1.68;-0.35;0.925492;0.346358;0.048556;123.0;0.0;0.0;17.0;0.0;0.0
2.0;1753873516.550894;13.746094;0.98;-1.68;-0.28;0.925492;0.346358;0.048556;123.0;0.0;0.0;17.0;0.0;0.0
2.0;1753873516.555462;13.746094;0.91;-1.68;-0.35;0.932568;0.335134;0.049898;123.0;0.0;0.0;17.0;0.0;0.0
2.0;1753873516.560587;13.785156;0.91;-1.61;-0.28;0.928664;0.339038;0.048068;123.0;0.0;0.0;17.0;0.0;0.0
2.0;1753873516.565196;13.736302;0.92;-1.79;-0.17;0.928261;0.342093;0.048894;137.1;0.0;0.0;16.6;0.0;0.0
2.0;1753873516.569584;13.785156;0.91;-1.75;-0.28;0.93025;0.341112;0.047824;139.0;0.0;0.0;18.0;0.0;0.0
2.0;1753873516.57483;13.785156;0.91;-1.68;-0.35;0.928786;0.341722;0.051118;139.0;0.0;0.0;18.0;0.0;0.0
2.0;1753873516.578421;13.785156;0.91;-1.68;-0.28;0.92964;0.337452;0.049044;139.0;0.0;0.0;18.0;0.0;0.0
2.0;1753873516.586213;13.785156;0.91;-1.68;-0.28;0.926346;0.343308;0.049898;139.0;0.0;0.0;18.0;0.0;0.0
2.0;1753873516.587535;13.785156;0.84;-1.75;-0.35;0.933056;0.338428;0.051728;139.0;0.0;0.0;18.0;0.0;0.0
2.0;1753873516.59253;13.785156;1.05;-1.68;-0.28;0.927444;0.343674;0.048068;139.0;0.0;0.0;18.0;0.0;0.0
2.0;1753873516.596776;13.769531;1.05;-1.68;-0.28;0.930738;0.340014;0.050142;139.0;0.0;0.0;18.0;0.0;0.0
2.0;1753873516.601318;13.769531;0.91;-1.75;-0.35;0.93025;0.340136;0.0488;139.0;0.0;0.0;18.0;0.0;0.0
2.0;1753873516.605863;13.769531;0.91;-1.68;-0.35;0.929396;0.340746;0.048434;139.0;0.0;0.0;18.0;0.0;0.0
2.0;1753873516.610545;13.769531;0.91;-1.61;-0.28;0.929884;0.341356;0.050874;139.0;0.0;0.0;18.0;0.0;0.0
2.0;1753873516.618859;13.746094;0.91;-1.61;-0.28;0.930006;0.339648;0.048678;143.0;0.0;0.0;18.0;0.0;0.0
2.0;1753873516.61954;13.746094;0.84;-1.61;-0.35;0.927932;0.343674;0.048068;143.0;0.0;0.0;18.0;0.0;0.0
2.0;1753873516.624149;13.746094;0.91;-1.68;-0.35;0.931104;0.338184;0.050264;143.0;0.0;0.0;18.0;0.0;0.0
2.0;1753873516.628743;13.746094;0.84;-1.68;-0.28;0.925858;0.342454;0.049044;143.0;0.0;0.0;18.0;0.0;0.0
2.0;1753873516.637118;13.800781;0.84;-1.75;-0.35;0.93086;0.340746;0.05124;143.0;0.0;0.0;18.0;0.0;0.0
2.0;1753873516.637838;13.800781;0.91;-1.68;-0.28;0.92842;0.34221;0.048312;143.0;0.0;0.0;18.0;0.0;0.0
2.0;1753873516.642792;13.800781;0.91;-1.68;-0.28;0.92964;0.338794;0.049898;143.0;0.0;0.0;18.0;0.0;0.0
2.0;1753873516.647032;13.800781;0.91;-1.68;-0.28;0.929152;0.343308;0.049166;143.0;0.0;0.0;18.0;0.0;0.0
2.0;1753873516.65161;13.746094;0.91;-1.54;-0.28;0.93086;0.338062;0.049898;143.0;0.0;0.0;18.0;0.0;0.0
2.0;1753873516.656558;13.746094;0.91;-1.61;-0.28;0.928298;0.343308;0.049532;143.0;0.0;0.0;18.0;0.0;0.0
2.0;1753873516.661376;13.746094;0.98;-1.61;-0.28;0.92842;0.33916;0.049898;143.0;0.0;0.0;18.0;0.0;0.0
2.0;1753873516.668266;13.746094;0.91;-1.61;-0.28;0.928786;0.343552;0.049288;137.0;0.0;0.0;20.0;0.0;0.0
2.0;1753873516.669851;13.753906;1.05;-1.68;-0.21;0.928786;0.338184;0.050142;137.0;0.0;0.0;20.0;0.0;0.0
2.0;1753873516.675432;13.753906;0.91;-1.61;-0.35;0.929152;0.343796;0.048434;137.0;0.0;0.0;20.0;0.0;0.0
2.0;1753873516.679048;13.753906;0.98;-1.75;-0.28;0.928664;0.339648;0.049898;137.0;0.0;0.0;20.0;0.0;0.0
2.0;1753873516.683596;13.753906;0.91;-1.75;-0.28;0.928298;0.338672;0.04758;137.0;0.0;0.0;20.0;0.0;0.0
2.0;1753873516.688199;13.769531;0.91;-1.68;-0.35;0.929152;0.342332;0.051972;137.0;0.0;0.0;20.0;0.0;0.0
2.0;1753873516.693323;13.769531;0.91;-1.61;-0.21;0.92781;0.340624;0.050386;137.0;0.0;0.0;20.0;0.0;0.0
2.0;1753873516.69736;13.769531;0.98;-1.61;-0.35;0.930372;0.33855;0.049166;137.0;0.0;0.0;20.0;0.0;0.0
2.0;1753873516.703017;13.769531;0.91;-1.68;-0.28;0.928786;0.342088;0.051118;137.0;0.0;0.0;20.0;0.0;0.0
2.0;1753873516.706453;13.753906;0.91;-1.68;-0.21;0.928054;0.34282;0.047092;137.0;0.0;0.0;20.0;0.0;0.0
2.0;1753873516.711045;13.753906;0.84;-1.68;-0.28;0.928054;0.34282;0.047092;137.0;0.0;0.0;20.0;0.0;0.0
2.0;1753873516.715654;13.744373;0.82;-1.66;-0.27;0.929676;0.340636;0.048271;146.7;0.0;0.0;18.6;0.0;0.0
2.0;1753873516.720263;13.753906;0.84;-1.68;-0.28;0.929518;0.342332;0.051118;150.0;0.0;0.0;17.0;0.0;0.0
2.0;1753873516.724769;13.777344;0.91;-1.61;-0.21;0.928298;0.33855;0.049898;150.0;0.0;0.0;17.0;0.0;0.0
2.0;1753873516.729378;13.769453;0.89;-1.71;-0.26;0.92959;0.341833;0.049073;157.9;0.0;0.0;16.8;0.0;0.0
2.0;1753873516.733941;13.777344;0.98;-1.68;-0.28;0.930006;0.342088;0.05063;150.0;0.0;0.0;17.0;0.0;0.0
2.0;1753873516.738484;13.777344;0.98;-1.61;-0.28;0.927322;0.340868;0.0488;150.0;0.0;0.0;17.0;0.0;0.0
2.0;1753873516.743064;13.730469;0.91;-1.68;-0.35;0.931958;0.335988;0.052216;150.0;0.0;0.0;17.0;0.0;0.0
2.0;1753873516.747652;13.730469;0.91;-1.68;-0.21;0.92659;0.344772;0.046848;150.0;0.0;0.0;17.0;0.0;0.0
2.0;1753873516.752226;13.730469;0.98;-1.68;-0.21;0.931714;0.337208;0.049532;150.0;0.0;0.0;17.0;0.0;0.0
2.0;1753873516.756796;13.730469;0.98;-1.75;-0.35;0.93025;0.340258;0.051606;150.0;0.0;0.0;17.0;0.0;0.0
2.0;1753873516.765428;13.785156;0.84;-1.68;-0.28;0.927932;0.343918;0.048068;132.0;0.0;0.0;19.0;0.0;0.0
2.0;1753873516.765894;13.785156;0.91;-1.61;-0.28;0.930494;0.339648;0.05002;132.0;0.0;0.0;19.0;0.0;0.0
2.0;1753873516.77052;13.785156;0.98;-1.54;-0.35;0.927688;0.341722;0.048922;132.0;0.0;0.0;19.0;0.0;0.0
2.0;1753873516.775757;13.785156;0.84;-1.61;-0.28;0.93086;0.339404;0.0488;132.0;0.0;0.0;19.0;0.0;0.0
2.0;1753873516.780366;13.799066;0.86;-1.73;-0.31;0.931853;0.342082;0.049685;135.8;0.0;0.0;16.6;0.0;0.0
2.0;1753873516.784539;13.8125;0.91;-1.68;-0.35;0.928176;0.336354;0.0488;132.0;0.0;0.0;19.0;0.0;0.0
2.0;1753873516.789185;13.8125;0.91;-1.75;-0.42;0.929884;0.344284;0.049532;132.0;0.0;0.0;19.0;0.0;0.0
2.0;1753873516.793393;13.8125;1.05;-1.61;-0.28;0.928542;0.339282;0.048922;132.0;0.0;0.0;19.0;0.0;0.0
2.0;1753873516.797862;13.78125;0.91;-1.61;-0.35;0.928542;0.339282;0.048922;132.0;0.0;0.0;19.0;0.0;0.0
2.0;1753873516.802517;13.78125;0.98;-1.68;-0.35;0.926468;0.343064;0.049654;132.0;0.0;0.0;19.0;0.0;0.0
2.0;1753873516.807453;13.78125;0.98;-1.68;-0.35;0.932812;0.335622;0.048312;132.0;0.0;0.0;19.0;0.0;0.0
2.0;1753873516.815059;13.78125;0.91;-1.68;-0.28;0.926468;0.34465;0.050386;146.0;0.0;0.0;16.0;0.0;0.0
2.0;1753873516.816207;13.777344;0.98;-1.68;-0.28;0.93086;0.336964;0.049532;146.0;0.0;0.0;16.0;0.0;0.0
2.0;1753873516.820931;13.777344;0.91;-1.61;-0.28;0.9272;0.342576;0.050508;146.0;0.0;0.0;16.0;0.0;0.0
2.0;1753873516.825354;13.777344;0.91;-1.61;-0.42;0.931226;0.336232;0.0488;146.0;0.0;0.0;16.0;0.0;0.0
2.0;1753873516.833174;13.777344;0.91;-1.61;-0.35;0.927444;0.343552;0.050752;146.0;0.0;0.0;16.0;0.0;0.0
2.0;1753873516.834625;13.769531;0.98;-1.61;-0.28;0.927444;0.343552;0.050752;146.0;0.0;0.0;16.0;0.0;0.0
2.0;1753873516.84005;13.769531;0.98;-1.61;-0.35;0.92781;0.340014;0.050508;146.0;0.0;0.0;16.0;0.0;0.0
2.0;1753873516.843867;13.769531;0.98;-1.68;-0.28;0.929396;0.33977;0.049654;146.0;0.0;0.0;16.0;0.0;0.0
2.0;1753873516.848361;13.769531;0.91;-1.68;-0.28;0.927078;0.3416;0.0488;146.0;0.0;0.0;16.0;0.0;0.0
2.0;1753873516.852746;13.785156;0.91;-1.61;-0.35;0.927078;0.3416;0.0488;146.0;0.0;0.0;16.0;0.0;0.0
2.0;1753873516.85737;13.785156;0.91;-1.75;-0.28;0.927932;0.341356;0.048434;146.0;0.0;0.0;16.0;0.0;0.0
2.0;1753873516.864605;13.785156;0.98;-1.68;-0.28;0.929274;0.339282;0.049532;141.0;0.0;0.0;16.0;0.0;0.0
2.0;1753873516.866516;13.785156;0.91;-1.61;-0.35;0.929152;0.339526;0.051728;141.0;0.0;0.0;16.0;0.0;0.0
2.0;1753873516.871368;13.777344;0.91;-1.68;-0.28;0.928054;0.341966;0.04819;141.0;0.0;0.0;16.0;0.0;0.0
2.0;1753873516.875977;13.781896;0.89;-1.65;-0.35;0.929451;0.342252;0.048477;138.5;0.0;0.0;15.3;0.0;0.0
2.0;1753873516.881548;13.777344;0.91;-1.61;-0.35;0.929274;0.339526;0.049654;141.0;0.0;0.0;16.0;0.0;0.0
2.0;1753873516.884848;13.777344;0.84;-1.68;-0.35;0.929152;0.341356;0.048922;141.0;0.0;0.0;16.0;0.0;0.0
2.0;1753873516.889332;13.753906;0.98;-1.61;-0.35;0.929152;0.341356;0.048922;141.0;0.0;0.0;16.0;0.0;0.0
2.0;1753873516.893995;13.753906;0.98;-1.61;-0.42;0.930128;0.338428;0.049532;141.0;0.0;0.0;16.0;0.0;0.0
2.0;1753873516.898585;13.753906;0.91;-1.61;-0.35;0.928298;0.342454;0.049776;141.0;0.0;0.0;16.0;0.0;0.0
2.0;1753873516.903105;13.753906;0.91;-1.68;-0.35;0.92903;0.340136;0.048678;141.0;0.0;0.0;16.0;0.0;0.0
2.0;1753873516.907714;13.78892;0.99;-1.71;-0.41;0.928542;0.343374;0.04779;139.7;0.0;0.0;16.4;0.0;0.0
2.0;1753873516.912524;13.800781;0.84;-1.75;-0.35;0.928054;0.34404;0.047824;148.0;0.0;0.0;17.0;0.0;0.0
2.0;1753873516.916873;13.800781;0.98;-1.68;-0.35;0.931714;0.336476;0.049532;148.0;0.0;0.0;17.0;0.0;0.0
2.0;1753873516.921442;13.800781;0.91;-1.68;-0.35;0.926468;0.34343;0.049898;148.0;0.0;0.0;17.0;0.0;0.0
2.0;1753873516.926051;13.770113;0.93;-1.61;-0.26;0.930121;0.338816;0.050565;154.7;0.0;0.0;17.0;0.0;0.0
2.0;1753873516.930838;13.761719;1.05;-1.54;-0.28;0.929396;0.342088;0.049898;148.0;0.0;0.0;17.0;0.0;0.0
2.0;1753873516.935167;13.761719;0.98;-1.61;-0.28;0.93025;0.339038;0.049654;148.0;0.0;0.0;17.0;0.0;0.0
2.0;1753873516.939961;13.761719;0.84;-1.68;-0.35;0.928054;0.3416;0.049166;148.0;0.0;0.0;17.0;0.0;0.0
2.0;1753873516.944324;13.800781;0.84;-1.61;-0.28;0.928664;0.33977;0.050264;148.0;0.0;0.0;17.0;0.0;0.0
2.0;1753873516.949864;13.800781;0.98;-1.68;-0.35;0.929762;0.337574;0.05063;148.0;0.0;0.0;17.0;0.0;0.0
2.0;1753873516.953458;13.800781;0.91;-1.61;-0.28;0.928786;0.342088;0.049776;148.0;0.0;0.0;17.0;0.0;0.0
2.0;1753873516.958067;13.822;1.0;-1.62;-0.32;0.928438;0.340518;0.05188;147.0;0.0;0.0;17.9;0.0;0.0
2.0;1753873516.962276;13.800781;1.05;-1.68;-0.35;0.93025;0.338916;0.051118;137.0;0.0;0.0;17.0;0.0;0.0
2.0;1753873516.962555;13.71875;0.91;-1.61;-0.35;0.93025;0.339526;0.05124;137.0;0.0;0.0;17.0;0.0;0.0
2.0;1753873516.967169;13.71875;0.98;-1.61;-0.21;0.92781;0.34404;0.048434;137.0;0.0;0.0;17.0;0.0;0.0
2.0;1753873516.972114;13.71875;0.98;-1.61;-0.28;0.930372;0.336232;0.051362;137.0;0.0;0.0;17.0;0.0;0.0
2.0;1753873516.979147;13.71875;0.91;-1.75;-0.28;0.927444;0.342942;0.049288;137.0;0.0;0.0;17.0;0.0;0.0
2.0;1753873516.980852;13.777344;0.84;-1.61;-0.35;0.930616;0.341112;0.04941;137.0;0.0;0.0;17.0;0.0;0.0
2.0;1753873516.985451;13.777344;1.05;-1.61;-0.21;0.929152;0.340624;0.050142;137.0;0.0;0.0;17.0;0.0;0.0
2.0;1753873516.991057;13.777344;1.05;-1.68;-0.28;0.927688;0.339892;0.047824;137.0;0.0;0.0;17.0;0.0;0.0
2.0;1753873516.994521;13.777344;0.91;-1.61;-0.35;0.927688;0.339892;0.047824;137.0;0.0;0.0;17.0;0.0;0.0
2.0;1753873516.999197;13.804688;0.98;-1.68;-0.35;0.926712;0.344406;0.046604;137.0;0.0;0.0;17.0;0.0;0.0
2.0;1753873517.003806;13.787372;0.99;-1.78;-0.42;0.923445;0.347541;0.04925;135.4;0.0;0.0;17.0;0.0;0.0
2.0;1753873517.008415;13.772704;1.01;-1.69;-0.37;0.924549;0.348503;0.047281;143.8;0.0;0.0;17.0;0.0;0.0
2.0;1753873517.013024;13.785631;0.98;-1.6;-0.32;0.927074;0.347121;0.047042;133.2;0.0;0.0;17.0;0.0;0.0
2.0;1753873517.017632;13.789345;0.92;-1.7;-0.39;0.927429;0.344262;0.046879;140.7;0.0;0.0;17.0;0.0;0.0
2.0;1753873517.022241;13.795618;0.97;-1.66;-0.31;0.926667;0.343785;0.044512;144.7;0.0;0.0;17.0;0.0;0.0
2.0;1753873517.02685;13.789062;0.93;-1.8;-0.39;0.926526;0.342922;0.04775;150.1;0.0;0.0;17.0;0.0;0.0
2.0;1753873517.031459;13.807782;0.99;-1.6;-0.34;0.929039;0.34514;0.045688;122.4;0.0;0.0;17.0;0.0;0.0
2.0;1753873517.036068;13.767746;0.96;-1.69;-0.34;0.929556;0.341075;0.048473;136.9;0.0;0.0;17.0;0.0;0.0
2.0;1753873517.040677;13.784456;1.15;-1.63;-0.43;0.929226;0.344852;0.047415;139.1;0.0;0.0;17.0;0.0;0.0
2.0;1753873517.045286;13.822795;0.98;-1.48;-0.33;0.927932;0.339192;0.04759;134.8;0.0;0.0;17.0;0.0;0.0
2.0;1753873517.049894;13.77446;1.11;-1.65;-0.37;0.927674;0.344192;0.046756;144.6;0.0;0.0;17.0;0.0;0.0
2.0;1753873517.054504;13.858759;1.0;-1.75;-0.27;0.925532;0.344149;0.047214;142.8;0.0;0.0;17.0;0.0;0.0
2.0;1753873517.059112;13.811307;0.9;-1.61;-0.38;0.926925;0.34734;0.047376;128.5;0.0;0.0;17.0;0.0;0.0
2.0;1753873517.063721;13.797559;0.98;-1.76;-0.28;0.928225;0.349873;0.046728;144.4;0.0;0.0;17.0;0.0;0.0
2.0;1753873517.06833;13.782722;0.98;-1.71;-0.36;0.928414;0.342369;0.044885;128.7;0.0;0.0;17.0;0.0;0.0
2.0;1753873517.072939;13.767919;0.89;-1.71;-0.33;0.927949;0.343664;0.045392;142.8;0.0;0.0;17.0;0.0;0.0
2.0;1753873517.077548;13.816241;1.04;-1.62;-0.37;0.927893;0.343962;0.047072;139.6;0.0;0.0;17.0;0.0;0.0
2.0;1753873517.082157;13.792196;1.04;-1.8;-0.34;0.928605;0.343674;0.045262;138.0;0.0;0.0;17.0;0.0;0.0
2.0;1753873517.086766;13.790745;0.89;-1.68;-0.38;0.927775;0.342065;0.04692;142.0;0.0;0.0;17.0;0.0;0.0
2.0;1753873517.091374;13.737428;0.94;-1.79;-0.45;0.928315;0.343086;0.046662;137.2;0.0;0.0;17.0;0.0;0.0
2.0;1753873517.095983;13.829203;0.89;-1.74;-0.37;0.927022;0.345969;0.046543;133.4;0.0;0.0;17.0;0.0;0.0
2.0;1753873517.100592;13.822702;1.05;-1.71;-0.35;0.925637;0.342775;0.048808;133.1;0.0;0.0;17.0;0.0;0.0
2.0;1753873517.105201;13.779169;1.08;-1.76;-0.37;0.929644;0.346574;0.046631;129.4;0.0;0.0;17.0;0.0;0.0
2.0;1753873517.10981;13.822211;0.99;-1.76;-0.31;0.92544;0.341715;0.045919;138.7;0.0;0.0;17.0;0.0;0.0
2.0;1753873517.114419;13.80898;0.94;-1.61;-0.34;0.92699;0.343418;0.046271;134.2;0.0;0.0;17.0;0.0;0.0
2.0;1753873517.119028;13.828648;0.92;-1.74;-0.38;0.928274;0.340236;0.04836;138.8;0.0;0.0;17.0;0.0;0.0
2.0;1753873517.123636;13.87115;0.93;-1.7;-0.36;0.926342;0.338719;0.045832;132.2;0.0;0.0;17.0;0.0;0.0
2.0;1753873517.128245;13.793063;1.09;-1.63;-0.34;0.927557;0.341888;0.048423;136.4;0.0;0.0;17.0;0.0;0.0
2.0;1753873517.132854;13.845849;0.8;-1.79;-0.39;0.92739;0.33986;0.049473;142.0;0.0;0.0;17.0;0.0;0.0
2.0;1753873517.137463;13.853921;0.97;-1.75;-0.37;0.927071;0.343394;0.048477;140.6;0.0;0.0;17.0;0.0;0.0
2.0;1753873517.142072;13.805178;1.0;-1.71;-0.31;0.929753;0.334887;0.047217;136.1;0.0;0.0;17.0;0.0;0.0
2.0;1753873517.146681;13.837591;1.03;-1.67;-0.38;0.928027;0.337897;0.05039;129.3;0.0;0.0;17.0;0.0;0.0
2.0;1753873517.15129;13.778971;0.83;-1.7;-0.29;0.927524;0.340239;0.046579;136.3;0.0;0.0;17.0;0.0;0.0
2.0;1753873517.155898;13.847396;1.08;-1.68;-0.37;0.926911;0.341372;0.049118;139.1;0.0;0.0;17.0;0.0;0.0
2.0;1753873517.160508;13.808063;0.93;-1.64;-0.33;0.929585;0.339718;0.04964;137.5;0.0;0.0;17.0;0.0;0.0
2.0;1753873517.165116;13.788044;1.03;-1.68;-0.34;0.927291;0.341921;0.049365;134.5;0.0;0.0;17.0;0.0;0.0
2.0;1753873517.169725;13.802481;1.04;-1.74;-0.29;0.926164;0.339792;0.047374;143.2;0.0;0.0;17.0;0.0;0.0
2.0;1753873517.174334;13.819009;1.06;-1.78;-0.32;0.928151;0.34149;0.047227;134.4;0.0;0.0;17.0;0.0;0.0
2.0;1753873517.178943;13.765002;0.99;-1.72;-0.23;0.92723;0.339198;0.046988;122.6;0.0;0.0;17.0;0.0;0.0
2.0;1753873517.183552;13.804089;0.9;-1.66;-0.35;0.930481;0.340022;0.048413;131.9;0.0;0.0;17.0;0.0;0.0
2.0;1753873517.188161;13.78446;0.94;-1.75;-0.28;0.929338;0.343523;0.050943;127.0;0.0;0.0;17.0;0.0;0.0
2.0;1753873517.19277;13.843184;1.05;-1.67;-0.33;0.928233;0.344359;0.047847;134.3;0.0;0.0;17.0;0.0;0.0
2.0;1753873517.197378;13.847296;0.95;-1.72;-0.31;0.930465;0.342684;0.049685;142.4;0.0;0.0;17.0;0.0;0.0
2.0;1753873517.201987;13.799627;0.98;-1.72;-0.33;0.930199;0.338672;0.048812;125.9;0.0;0.0;17.0;0.0;0.0
2.0;1753873517.206596;13.806847;1.0;-1.65;-0.37;0.929652;0.33964;0.050774;130.1;0.0;0.0;17.0;0.0;0.0
2.0;1753873517.211205;13.791536;0.94;-1.75;-0.29;0.929633;0.34175;0.049643;137.9;0.0;0.0;17.0;0.0;0.0
2.0;1753873517.215814;13.780117;1.0;-1.73;-0.33;0.93005;0.337485;0.048288;143.8;0.0;0.0;17.0;0.0;0.0
2.0;1753873517.220423;13.825598;0.94;-1.8;-0.28;0.928785;0.33977;0.050118;133.5;0.0;0.0;17.0;0.0;0.0
2.0;1753873517.225032;13.828015;0.9;-1.78;-0.32;0.927885;0.342562;0.050617;139.1;0.0;0.0;17.0;0.0;0.0
2.0;1753873517.22964;13.823369;0.92;-1.71;-0.4;0.930521;0.335684;0.049008;146.9;0.0;0.0;17.0;0.0;0.0
2.0;1753873517.234249;13.840856;1.12;-1.74;-0.25;0.928492;0.340344;0.045881;148.0;0.0;0.0;17.0;0.0;0.0
2.0;1753873517.238858;13.819216;0.88;-1.72;-0.33;0.929628;0.34178;0.049114;140.1;0.0;0.0;17.0;0.0;0.0
2.0;1753873517.243467;13.77687;0.86;-1.67;-0.32;0.931867;0.337765;0.048672;135.2;0.0;0.0;17.0;0.0;0.0
2.0;1753873517.248076;13.795408;0.98;-1.73;-0.32;0.928976;0.340981;0.048571;132.6;0.0;0.0;17.0;0.0;0.0
2.0;1753873517.252685;13.827381;1.0;-1.63;-0.32;0.930539;0.33603;0.051078;133.2;0.0;0.0;17.0;0.0;0.0
2.0;1753873517.257294;13.832013;0.89;-1.68;-0.3;0.931215;0.338505;0.051855;139.9;0.0;0.0;17.0;0.0;0.0
2.0;1753873517.261902;13.826344;0.94;-1.77;-0.31;0.929253;0.344693;0.049763;137.6;0.0;0.0;17.0;0.0;0.0
2.0;1753873517.266512;13.798998;0.91;-1.61;-0.32;0.9311;0.336471;0.051006;135.7;0.0;0.0;17.0;0.0;0.0
2.0;1753873517.27112;13.797542;0.95;-1.79;-0.29;0.927752;0.340061;0.046336;132.6;0.0;0.0;17.0;0.0;0.0
2.0;1753873517.275729;13.798975;1.0;-1.71;-0.27;0.930178;0.340464;0.049449;136.8;0.0;0.0;17.0;0.0;0.0
2.0;1753873517.280338;13.832421;0.89;-1.8;-0.3;0.930668;0.338094;0.050168;138.3;0.0;0.0;17.0;0.0;0.0
2.0;1753873517.284947;13.815414;1.0;-1.81;-0.27;0.932164;0.34021;0.049126;139.8;0.0;0.0;17.0;0.0;0.0
2.0;1753873517.289556;13.757903;0.86;-1.71;-0.26;0.932194;0.337228;0.050769;139.0;0.0;0.0;17.0;0.0;0.0
2.0;1753873517.294165;13.819433;0.89;-1.76;-0.24;0.930723;0.337745;0.050769;134.8;0.0;0.0;17.0;0.0;0.0
2.0;1753873517.298774;13.907862;1.0;-1.67;-0.27;0.930216;0.334345;0.048645;129.7;0.0;0.0;17.0;0.0;0.0
2.0;1753873517.303382;13.790272;0.91;-1.68;-0.32;0.931343;0.339936;0.047689;137.4;0.0;0.0;17.0;0.0;0.0
2.0;1753873517.307991;13.72416;0.97;-1.72;-0.32;0.930893;0.334787;0.051271;132.8;0.0;0.0;17.0;0.0;0.0
2.0;1753873517.3126;13.8005;0.87;-1.73;-0.32;0.929989;0.334945;0.050164;144.1;0.0;0.0;17.0;0.0;0.0
2.0;1753873517.317209;13.740124;1.0;-1.75;-0.17;0.928733;0.338874;0.050437;137.3;0.0;0.0;17.0;0.0;0.0
2.0;1753873517.321818;13.812362;1.07;-1.8;-0.34;0.929827;0.339851;0.050064;132.4;0.0;0.0;17.0;0.0;0.0
2.0;1753873517.326427;13.813027;0.89;-1.72;-0.3;0.930648;0.338742;0.051768;128.2;0.0;0.0;17.0;0.0;0.0
2.0;1753873517.331036;13.758438;1.0;-1.7;-0.35;0.932678;0.339203;0.048265;128.5;0.0;0.0;17.0;0.0;0.0
2.0;1753873517.335644;13.77081;0.83;-1.71;-0.29;0.929755;0.342336;0.047863;142.0;0.0;0.0;17.0;0.0;0.0
2.0;1753873517.340253;13.802388;0.94;-1.7;-0.29;0.929648;0.340529;0.049625;139.8;0.0;0.0;17.0;0.0;0.0
2.0;1753873517.344862;13.807039;0.87;-1.84;-0.27;0.932647;0.337362;0.049541;136.5;0.0;0.0;17.0;0.0;0.0
2.0;1753873517.349471;13.814577;0.88;-1.77;-0.21;0.930516;0.337159;0.050852;145.1;0.0;0.0;17.0;0.0;0.0
2.0;1753873517.35408;13.814033;0.9;-1.82;-0.33;0.932803;0.336359;0.047618;137.7;0.0;0.0;17.0;0.0;0.0
2.0;1753873517.358689;13.767542;0.99;-1.69;-0.29;0.93241;0.338202;0.053411;131.9;0.0;0.0;17.0;0.0;0.0
2.0;1753873517.363298;13.829619;0.82;-1.74;-0.24;0.931218;0.336972;0.051228;138.4;0.0;0.0;17.0;0.0;0.0
2.0;1753873517.367906;13.831813;0.94;-1.73;-0.27;0.931038;0.341959;0.050872;147.2;0.0;0.0;17.0;0.0;0.0
2.0;1753873517.372516;13.826529;0.78;-1.67;-0.3;0.93148;0.335549;0.051142;138.9;0.0;0.0;17.0;0.0;0.0
2.0;1753873517.3775;13.804688;0.91;-1.75;-0.28;0.930982;0.336598;0.050996;137.0;0.0;0.0;17.0;0.0;0.0
2.0;1753873517.382109;13.786161;0.9;-1.71;-0.39;0.930591;0.335836;0.051063;137.2;0.0;0.0;16.7;0.0;0.0
2.0;1753873517.386718;13.815066;0.87;-1.74;-0.32;0.929168;0.33669;0.050926;142.2;0.0;0.0;16.9;0.0;0.0
2.0;1753873517.391327;13.767825;0.93;-1.79;-0.32;0.929663;0.333888;0.05144;135.8;0.0;0.0;16.5;0.0;0.0
2.0;1753873517.395936;13.788221;0.74;-1.74;-0.25;0.930711;0.340205;0.050989;134.1;0.0;0.0;16.2;0.0;0.0
2.0;1753873517.400544;13.756751;0.73;-1.74;-0.28;0.928783;0.34297;0.050864;128.0;0.0;0.0;15.6;0.0;0.0
2.0;1753873517.405153;13.746195;0.91;-1.75;-0.18;0.930347;0.338015;0.049289;136.6;0.0;0.0;16.2;0.0;0.0
2.0;1753873517.40952;13.753906;0.84;-1.75;-0.28;0.929396;0.340624;0.050142;134.0;0.0;0.0;16.0;0.0;0.0
2.0;1753873517.414129;13.761442;0.84;-1.66;-0.31;0.929566;0.341568;0.05217;135.4;0.0;0.0;16.3;0.0;0.0
2.0;1753873517.418738;13.738019;0.89;-1.78;-0.19;0.92969;0.341106;0.04885;133.2;0.0;0.0;16.2;0.0;0.0
2.0;1753873517.423346;13.754062;0.81;-1.68;-0.29;0.929774;0.33956;0.049403;133.8;0.0;0.0;16.2;0.0;0.0
2.0;1753873517.427956;13.736288;0.8;-1.78;-0.35;0.930021;0.341322;0.051198;135.3;0.0;0.0;15.3;0.0;0.0
2.0;1753873517.432564;13.736868;0.89;-1.73;-0.21;0.927949;0.34294;0.051108;130.7;0.0;0.0;16.0;0.0;0.0
2.0;1753873517.437173;13.727497;0.83;-1.75;-0.22;0.927873;0.340394;0.050991;128.0;0.0;0.0;15.7;0.0;0.0
2.0;1753873517.441782;13.700322;0.77;-1.73;-0.16;0.930692;0.342391;0.052436;132.2;0.0;0.0;15.9;0.0;0.0
2.0;1753873517.4491;13.753906;0.84;-1.68;-0.21;0.92903;0.342088;0.049288;134.0;0.0;0.0;16.0;0.0;0.0
2.0;1753873517.453709;13.812886;0.82;-1.72;-0.28;0.930596;0.341905;0.052933;134.2;0.0;0.0;16.6;0.0;0.0
2.0;1753873517.458318;13.769111;0.89;-1.73;-0.25;0.927928;0.343203;0.049844;131.1;0.0;0.0;16.4;0.0;0.0
2.0;1753873517.462927;13.736162;0.95;-1.68;-0.23;0.930304;0.340311;0.051637;133.2;0.0;0.0;15.6;0.0;0.0
2.0;1753873517.467536;13.743441;1.01;-1.65;-0.22;0.927539;0.339772;0.047746;129.6;0.0;0.0;17.1;0.0;0.0
2.0;1753873517.472144;13.766454;0.93;-1.63;-0.35;0.929732;0.341606;0.049453;131.5;0.0;0.0;15.6;0.0;0.0
2.0;1753873517.476753;13.705519;0.98;-1.72;-0.25;0.928943;0.339868;0.05008;135.8;0.0;0.0;15.8;0.0;0.0
2.0;1753873517.481362;13.747386;0.79;-1.73;-0.34;0.928802;0.338849;0.052228;133.6;0.0;0.0;15.6;0.0;0.0
2.0;1753873517.485971;13.716378;0.91;-1.73;-0.32;0.927216;0.345055;0.050575;133.7;0.0;0.0;16.6;0.0;0.0
2.0;1753873517.49058;13.743631;0.95;-1.71;-0.28;0.929324;0.337303;0.052164;134.1;0.0;0.0;16.9;0.0;0.0
2.0;1753873517.4956;13.753906;0.91;-1.68;-0.35;0.928908;0.339892;0.051362;134.0;0.0;0.0;16.0;0.0;0.0
2.0;1753873517.500209;13.784522;0.91;-1.72;-0.37;0.928328;0.340043;0.049437;133.7;0.0;0.0;15.5;0.0;0.0
2.0;1753873517.504818;13.779024;0.92;-1.74;-0.38;0.929951;0.339036;0.054745;135.5;0.0;0.0;15.5;0.0;0.0
2.0;1753873517.509426;13.756342;0.97;-1.69;-0.36;0.930237;0.33851;0.050004;135.0;0.0;0.0;14.9;0.0;0.0
2.0;1753873517.514036;13.726747;0.89;-1.67;-0.3;0.929375;0.339241;0.051576;133.8;0.0;0.0;16.1;0.0;0.0
2.0;1753873517.518644;13.820575;0.9;-1.7;-0.52;0.929455;0.342339;0.051655;134.3;0.0;0.0;16.4;0.0;0.0
2.0;1753873517.523253;13.747462;0.94;-1.71;-0.37;0.928695;0.340216;0.049386;133.4;0.0;0.0;16.0;0.0;0.0
2.0;1753873517.527862;13.785375;0.97;-1.7;-0.35;0.928797;0.339767;0.050441;135.0;0.0;0.0;16.4;0.0;0.0
2.0;1753873517.532471;13.759429;0.93;-1.7;-0.46;0.928416;0.340474;0.050266;136.4;0.0;0.0;15.0;0.0;0.0
2.0;1753873517.53708;13.780311;0.92;-1.7;-0.43;0.92806;0.342612;0.050978;138.7;0.0;0.0;15.8;0.0;0.0
2.0;1753873517.54566;13.777344;0.98;-1.68;-0.42;0.928908;0.339892;0.051362;134.0;0.0;0.0;16.0;0.0;0.0
2.0;1753873517.550269;13.743381;1.05;-1.73;-0.45;0.929111;0.337681;0.050988;134.7;0.0;0.0;15.6;0.0;0.0
2.0;1753873517.554878;13.798987;0.9;-1.61;-0.37;0.926607;0.337997;0.050354;135.4;0.0;0.0;19.6;0.0;0.0
2.0;1753873517.559487;13.769379;0.88;-1.68;-0.35;0.930002;0.337727;0.051001;138.7;0.0;0.0;16.2;0.0;0.0
2.0;1753873517.564096;13.80771;1.02;-1.62;-0.51;0.929979;0.338864;0.049909;136.4;0.0;0.0;18.9;0.0;0.0
2.0;1753873517.568704;13.764216;0.95;-1.65;-0.4;0.92882;0.337915;0.051385;134.3;0.0;0.0;17.3;0.0;0.0
2.0;1753873517.573313;13.78378;0.87;-1.74;-0.45;0.930342;0.339761;0.052152;141.1;0.0;0.0;20.0;0.0;0.0
2.0;1753873517.577922;13.797423;0.77;-1.76;-0.47;0.930754;0.338058;0.049551;133.8;0.0;0.0;16.8;0.0;0.0
2.0;1753873517.582531;13.796821;0.85;-1.73;-0.39;0.927841;0.339956;0.049366;134.1;0.0;0.0;17.7;0.0;0.0
2.0;1753873517.58714;13.780806;0.84;-1.64;-0.43;0.929623;0.339345;0.049812;140.3;0.0;0.0;18.8;0.0;0.0
2.0;1753873517.591749;13.782966;1.03;-1.67;-0.37;0.929347;0.341901;0.052811;138.5;0.0;0.0;18.7;0.0;0.0
2.0;1753873517.596358;13.779745;1.02;-1.67;-0.4;0.928132;0.337793;0.049593;140.9;0.0;0.0;21.1;0.0;0.0
2.0;1753873517.600966;13.788891;0.96;-1.62;-0.38;0.929458;0.339119;0.050177;143.0;0.0;0.0;19.0;0.0;0.0
2.0;1753873517.605575;13.772292;0.92;-1.65;-0.43;0.927568;0.336537;0.051256;141.6;0.0;0.0;20.0;0.0;0.0
2.0;1753873517.610184;13.768006;1.01;-1.66;-0.38;0.929734;0.342276;0.050951;139.1;0.0;0.0;21.5;0.0;0.0
2.0;1753873517.61578;13.777344;0.91;-1.68;-0.35;0.928908;0.341234;0.050508;142.0;0.0;0.0;22.0;0.0;0.0
2.0;1753873517.620389;13.77852;0.93;-1.67;-0.38;0.929089;0.337839;0.051005;140.7;0.0;0.0;22.4;0.0;0.0
2.0;1753873517.624998;13.758437;0.9;-1.61;-0.22;0.931771;0.338752;0.05155;141.4;0.0;0.0;24.4;0.0;0.0
2.0;1753873517.63205;13.777344;0.98;-1.61;-0.35;0.930982;0.338184;0.050386;142.0;0.0;0.0;22.0;0.0;0.0
2.0;1753873517.636659;13.756867;1.07;-1.58;-0.41;0.929578;0.336742;0.049952;144.0;0.0;0.0;25.1;0.0;0.0
2.0;1753873517.641268;13.796374;0.89;-1.65;-0.32;0.930033;0.337701;0.051081;144.1;0.0;0.0;21.0;0.0;0.0
2.0;1753873517.645877;13.782396;1.07;-1.64;-0.46;0.929424;0.340227;0.049967;139.6;0.0;0.0;22.4;0.0;0.0
2.0;1753873517.650486;13.722177;0.92;-1.64;-0.48;0.930025;0.340987;0.049866;137.8;0.0;0.0;21.7;0.0;0.0
2.0;1753873517.655094;13.803855;0.86;-1.68;-0.33;0.929848;0.337541;0.049793;142.6;0.0;0.0;20.8;0.0;0.0
2.0;1753873517.659703;13.79419;0.96;-1.67;-0.47;0.927773;0.342527;0.051367;137.0;0.0;0.0;22.8;0.0;0.0
2.0;1753873517.664312;13.753375;0.9;-1.72;-0.52;0.927267;0.342678;0.050579;141.8;0.0;0.0;20.9;0.0;0.0
2.0;1753873517.668921;13.790572;0.87;-1.68;-0.36;0.926979;0.337142;0.051092;142.7;0.0;0.0;22.2;0.0;0.0
2.0;1753873517.67353;13.796682;0.84;-1.71;-0.42;0.927993;0.341928;0.050631;144.3;0.0;0.0;22.6;0.0;0.0
2.0;1753873517.6778;13.777344;0.91;-1.68;-0.42;0.927688;0.341844;0.049044;142.0;0.0;0.0;22.0;0.0;0.0
2.0;1753873517.682409;13.787473;0.83;-1.7;-0.36;0.927404;0.341055;0.050917;141.1;0.0;0.0;26.9;0.0;0.0
2.0;1753873517.687018;13.782313;1.01;-1.67;-0.53;0.926569;0.340158;0.048327;140.3;0.0;0.0;19.4;0.0;0.0
2.0;1753873517.691626;13.781778;1.03;-1.6;-0.37;0.929487;0.341246;0.047072;146.8;0.0;0.0;19.7;0.0;0.0
2.0;1753873517.696236;13.81664;0.88;-1.7;-0.28;0.93018;0.338122;0.046769;141.0;0.0;0.0;23.0;0.0;0.0
2.0;1753873517.700844;13.777152;1.04;-1.68;-0.29;0.930473;0.340714;0.048766;144.2;0.0;0.0;20.1;0.0;0.0
2.0;1753873517.705453;13.778791;0.84;-1.6;-0.34;0.928247;0.339418;0.052907;135.4;0.0;0.0;21.7;0.0;0.0
2.0;1753873517.710062;13.768502;0.99;-1.58;-0.36;0.92855;0.339603;0.048007;146.1;0.0;0.0;23.4;0.0;0.0
2.0;1753873517.714671;13.801363;1.04;-1.64;-0.32;0.928557;0.340506;0.050056;144.3;0.0;0.0;21.9;0.0;0.0
2.0;1753873517.71928;13.78091;0.88;-1.58;-0.39;0.929707;0.338649;0.049673;136.6;0.0;0.0;25.8;0.0;0.0
2.0;1753873517.72385;13.785156;0.91;-1.61;-0.35;0.929518;0.339038;0.049532;142.0;0.0;0.0;22.0;0.0;0.0
2.0;1753873517.728459;13.836265;0.91;-1.59;-0.39;0.929812;0.339818;0.051466;140.5;0.0;0.0;28.8;0.0;0.0
2.0;1753873517.733068;13.804938;0.9;-1.67;-0.24;0.928632;0.340865;0.050608;144.2;0.0;0.0;19.7;0.0;0.0
2.0;1753873517.737676;13.802943;0.84;-1.66;-0.33;0.928812;0.340171;0.048185;143.5;0.0;0.0;20.7;0.0;0.0
2.0;1753873517.742286;13.77929;0.89;-1.65;-0.38;0.926325;0.337683;0.050031;137.5;0.0;0.0;25.4;0.0;0.0
2.0;1753873517.746894;13.795476;0.91;-1.62;-0.3;0.929663;0.339407;0.048146;137.4;0.0;0.0;20.6;0.0;0.0
2.0;1753873517.751503;13.792232;0.97;-1.61;-0.41;0.928085;0.346755;0.049314;140.8;0.0;0.0;20.7;0.0;0.0
2.0;1753873517.756112;13.795513;0.94;-1.59;-0.38;0.928967;0.343515;0.048724;145.3;0.0;0.0;22.1;0.0;0.0
2.0;1753873517.760721;13.80356;1.0;-1.69;-0.5;0.92923;0.344015;0.047866;145.1;0.0;0.0;20.0;0.0;0.0
2.0;1753873517.76533;13.737082;0.95;-1.64;-0.31;0.928192;0.340575;0.048868;143.4;0.0;0.0;23.0;0.0;0.0
2.0;1753873517.77294;13.785156;0.91;-1.68;-0.35;0.927566;0.343308;0.049288;142.0;0.0;0.0;22.0;0.0;0.0
2.0;1753873517.777549;13.801388;0.95;-1.65;-0.17;0.930012;0.343229;0.047852;142.2;0.0;0.0;19.3;0.0;0.0
2.0;1753873517.782158;13.764614;0.94;-1.6;-0.35;0.928447;0.34279;0.048674;136.8;0.0;0.0;20.8;0.0;0.0
2.0;1753873517.786766;13.74786;0.98;-1.68;-0.3;0.929437;0.343391;0.048604;141.2;0.0;0.0;21.4;0.0;0.0
2.0;1753873517.791376;13.801075;0.87;-1.58;-0.32;0.92873;0.341232;0.050467;140.9;0.0;0.0;20.9;0.0;0.0
2.0;1753873517.795984;13.788334;1.05;-1.53;-0.28;0.928545;0.339894;0.05049;147.5;0.0;0.0;23.3;0.0;0.0
2.0;1753873517.800593;13.80217;0.91;-1.58;-0.31;0.926224;0.34202;0.048998;143.4;0.0;0.0;21.4;0.0;0.0
2.0;1753873517.805202;13.791544;0.95;-1.55;-0.3;0.926443;0.340724;0.049831;145.0;0.0;0.0;21.8;0.0;0.0
2.0;1753873517.809811;13.793728;1.09;-1.54;-0.31;0.928157;0.34297;0.050552;148.5;0.0;0.0;20.9;0.0;0.0
2.0;1753873517.81442;13.763685;1.01;-1.47;-0.34;0.92817;0.34026;0.051466;141.8;0.0;0.0;22.0;0.0;0.0
2.0;1753873517.8199;13.785156;0.98;-1.54;-0.28;0.927932;0.340746;0.05063;142.0;0.0;0.0;22.0;0.0;0.0
2.0;1753873517.824509;13.752489;0.98;-1.53;-0.23;0.929255;0.338282;0.048864;143.6;0.0;0.0;21.0;0.0;0.0
2.0;1753873517.829118;13.804619;0.94;-1.61;-0.41;0.927259;0.340706;0.051424;144.6;0.0;0.0;24.6;0.0;0.0
2.0;1753873517.833727;13.795596;0.87;-1.71;-0.34;0.928657;0.340869;0.048724;145.2;0.0;0.0;20.5;0.0;0.0
2.0;1753873517.838336;13.773613;0.99;-1.59;-0.25;0.927051;0.34228;0.049175;139.5;0.0;0.0;18.0;0.0;0.0
2.0;1753873517.842944;13.806753;0.93;-1.64;-0.26;0.929569;0.339798;0.052664;141.4;0.0;0.0;22.2;0.0;0.0
2.0;1753873517.847553;13.757793;0.95;-1.64;-0.41;0.929255;0.339731;0.052971;134.4;0.0;0.0;23.6;0.0;0.0
2.0;1753873517.852162;13.783136;1.0;-1.67;-0.3;0.929805;0.341503;0.049955;150.4;0.0;0.0;21.8;0.0;0.0
2.0;1753873517.856771;13.775576;0.9;-1.75;-0.33;0.929003;0.338857;0.048867;139.5;0.0;0.0;21.4;0.0;0.0
2.0;1753873517.86128;13.785156;0.91;-1.68;-0.35;0.930372;0.339648;0.05002;142.0;0.0;0.0;22.0;0.0;0.0
2.0;1753873517.865889;13.742562;0.87;-1.63;-0.41;0.929327;0.339045;0.049186;143.7;0.0;0.0;20.5;0.0;0.0
2.0;1753873517.870498;13.795695;0.84;-1.6;-0.4;0.929476;0.338281;0.050555;137.7;0.0;0.0;25.3;0.0;0.0
2.0;1753873517.875106;13.788957;0.85;-1.68;-0.34;0.927202;0.339452;0.052186;136.0;0.0;0.0;18.7;0.0;0.0
2.0;1753873517.879716;13.780743;0.92;-1.63;-0.3;0.927164;0.343713;0.049268;137.1;0.0;0.0;28.2;0.0;0.0
2.0;1753873517.884324;13.723037;0.9;-1.64;-0.42;0.927749;0.3375;0.05131;138.5;0.0;0.0;17.5;0.0;0.0
2.0;1753873517.888933;13.805217;0.94;-1.68;-0.28;0.928835;0.341423;0.050091;147.4;0.0;0.0;24.9;0.0;0.0
2.0;1753873517.893542;13.751838;0.99;-1.68;-0.32;0.929863;0.343177;0.051777;150.9;0.0;0.0;19.7;0.0;0.0
2.0;1753873517.898151;13.713339;0.92;-1.62;-0.34;0.927873;0.345757;0.050587;147.4;0.0;0.0;24.4;0.0;0.0
2.0;1753873517.90276;13.745956;0.93;-1.69;-0.27;0.924249;0.34075;0.048498;142.8;0.0;0.0;26.2;0.0;0.0
2.0;1753873517.9107;13.746094;0.91;-1.61;-0.28;0.926956;0.341844;0.05124;142.0;0.0;0.0;22.0;0.0;0.0
2.0;1753873517.915309;13.756334;0.88;-1.65;-0.3;0.927631;0.34163;0.051259;146.5;0.0;0.0;19.0;0.0;0.0
2.0;1753873517.919918;13.764194;1.01;-1.64;-0.38;0.927576;0.33921;0.052026;144.7;0.0;0.0;20.7;0.0;0.0
2.0;1753873517.924527;13.745766;0.88;-1.58;-0.3;0.928707;0.342408;0.051016;144.0;0.0;0.0;22.6;0.0;0.0
2.0;1753873517.929136;13.807012;0.91;-1.61;-0.26;0.929802;0.340471;0.051447;138.0;0.0;0.0;20.6;0.0;0.0
2.0;1753873517.933744;13.795849;0.84;-1.49;-0.16;0.929419;0.341561;0.049059;131.3;0.0;0.0;21.5;0.0;0.0
2.0;1753873517.938353;13.754582;0.91;-1.6;-0.17;0.928791;0.339178;0.050549;142.0;0.0;0.0;24.0;0.0;0.0
2.0;1753873517.942962;13.750609;0.88;-1.52;-0.23;0.928583;0.339936;0.050253;139.1;0.0;0.0;23.4;0.0;0.0
2.0;1753873517.947571;13.741922;0.92;-1.52;-0.36;0.92816;0.338156;0.050463;145.3;0.0;0.0;18.4;0.0;0.0
2.0;1753873517.95389;13.746094;0.91;-1.54;-0.21;0.929762;0.339892;0.049532;142.0;0.0;0.0;22.0;0.0;0.0
2.0;1753873517.958499;13.749091;0.91;-1.55;-0.14;0.927845;0.340803;0.04838;143.3;0.0;0.0;21.9;0.0;0.0
2.0;1753873517.963108;13.694041;0.94;-1.63;-0.16;0.928163;0.34031;0.048633;147.2;0.0;0.0;25.8;0.0;0.0
2.0;1753873517.967717;13.735979;0.9;-1.55;-0.35;0.928487;0.341211;0.048057;136.7;0.0;0.0;23.7;0.0;0.0
2.0;1753873517.972326;13.711093;1.03;-1.69;-0.22;0.930124;0.340939;0.050893;142.8;0.0;0.0;22.5;0.0;0.0
2.0;1753873517.976934;13.761442;1.02;-1.57;-0.17;0.928745;0.341116;0.049655;131.5;0.0;0.0;21.3;0.0;0.0
2.0;1753873517.981543;13.777915;1.0;-1.56;-0.24;0.927855;0.342528;0.050155;142.8;0.0;0.0;21.4;0.0;0.0
2.0;1753873517.986152;13.748569;0.88;-1.65;-0.32;0.927416;0.340837;0.048961;142.6;0.0;0.0;22.3;0.0;0.0
2.0;1753873517.990761;13.769506;0.98;-1.7;-0.21;0.928244;0.34595;0.048554;146.0;0.0;0.0;24.4;0.0;0.0
2.0;1753873517.99762;13.746094;0.91;-1.68;-0.28;0.928176;0.343064;0.049044;142.0;0.0;0.0;22.0;0.0;0.0
2.0;1753873518.002229;13.742691;0.94;-1.62;-0.21;0.92778;0.345125;0.048632;147.9;0.0;0.0;18.4;0.0;0.0
2.0;1753873518.006838;13.731894;0.86;-1.66;-0.3;0.928596;0.341338;0.048089;139.2;0.0;0.0;24.2;0.0;0.0
2.0;1753873518.011447;13.73187;0.86;-1.72;-0.28;0.92854;0.344305;0.048102;143.6;0.0;0.0;21.4;0.0;0.0
2.0;1753873518.016056;13.735869;0.89;-1.67;-0.3;0.92907;0.345483;0.047003;143.0;0.0;0.0;23.8;0.0;0.0
2.0;1753873518.020664;13.76061;0.9;-1.69;-0.22;0.930605;0.341037;0.049531;143.6;0.0;0.0;22.8;0.0;0.0
2.0;1753873518.025273;13.717132;0.91;-1.63;-0.3;0.930011;0.341644;0.048915;140.3;0.0;0.0;21.8;0.0;0.0
2.0;1753873518.029882;13.771724;0.92;-1.68;-0.26;0.925706;0.34399;0.047966;144.2;0.0;0.0;21.6;0.0;0.0
2.0;1753873518.034491;13.760832;0.99;-1.63;-0.27;0.925651;0.342545;0.049595;146.6;0.0;0.0;26.6;0.0;0.0
2.0;1753873518.0391;13.770767;0.92;-1.61;-0.3;0.928338;0.344009;0.048754;142.5;0.0;0.0;22.7;0.0;0.0
2.0;1753873518.043709;13.782061;0.93;-1.66;-0.31;0.930373;0.343808;0.049323;140.2;0.0;0.0;20.6;0.0;0.0
2.0;1753873518.048318;13.748969;0.88;-1.71;-0.24;0.926763;0.343134;0.049028;140.9;0.0;0.0;20.6;0.0;0.0
2.0;1753873518.052926;13.732354;0.98;-1.72;-0.29;0.928202;0.344416;0.0488;136.2;0.0;0.0;19.3;0.0;0.0
2.0;1753873518.057536;13.758888;0.96;-1.74;-0.24;0.930581;0.343405;0.04814;136.2;0.0;0.0;24.0;0.0;0.0
2.0;1753873518.062144;13.716001;1.0;-1.78;-0.3;0.928496;0.347513;0.047843;139.8;0.0;0.0;21.2;0.0;0.0
2.0;1753873518.066753;13.719961;0.81;-1.67;-0.29;0.928447;0.345086;0.049209;140.9;0.0;0.0;24.0;0.0;0.0
2.0;1753873518.071362;13.763285;0.97;-1.7;-0.2;0.929336;0.343646;0.049729;141.7;0.0;0.0;23.2;0.0;0.0
2.0;1753873518.075971;13.743795;0.89;-1.61;-0.22;0.927505;0.342556;0.049327;139.1;0.0;0.0;23.8;0.0;0.0
2.0;1753873518.08058;13.748146;0.85;-1.65;-0.22;0.928946;0.344663;0.049652;138.9;0.0;0.0;20.8;0.0;0.0
2.0;1753873518.085189;13.758734;0.86;-1.61;-0.21;0.927874;0.342905;0.049795;141.7;0.0;0.0;22.9;0.0;0.0
2.0;1753873518.089798;13.774944;0.95;-1.65;-0.25;0.930202;0.340436;0.048435;144.0;0.0;0.0;22.1;0.0;0.0
2.0;1753873518.094406;13.747687;0.96;-1.65;-0.34;0.928249;0.34155;0.047054;145.5;0.0;0.0;19.6;0.0;0.0
2.0;1753873518.099015;13.728813;0.93;-1.65;-0.25;0.928672;0.341653;0.050413;144.9;0.0;0.0;18.9;0.0;0.0
2.0;1753873518.103624;13.777206;0.89;-1.7;-0.36;0.92849;0.345358;0.048714;145.9;0.0;0.0;20.4;0.0;0.0
2.0;1753873518.108233;13.763045;0.9;-1.61;-0.24;0.927726;0.346198;0.048976;142.1;0.0;0.0;21.0;0.0;0.0
2.0;1753873518.112842;13.774359;0.9;-1.68;-0.37;0.927843;0.338876;0.049103;143.3;0.0;0.0;22.8;0.0;0.0
2.0;1753873518.117451;13.785325;0.85;-1.63;-0.25;0.928443;0.34562;0.049194;140.4;0.0;0.0;25.4;0.0;0.0
2.0;1753873518.12206;13.754512;0.92;-1.7;-0.28;0.929463;0.349054;0.050751;153.1;0.0;0.0;19.5;0.0;0.0
2.0;1753873518.126668;13.744552;0.91;-1.79;-0.28;0.928139;0.343486;0.048356;140.3;0.0;0.0;24.0;0.0;0.0
2.0;1753873518.131277;13.779408;0.89;-1.7;-0.3;0.926604;0.34395;0.048504;138.1;0.0;0.0;22.9;0.0;0.0
2.0;1753873518.135886;13.744406;0.84;-1.76;-0.38;0.927831;0.341778;0.048704;139.9;0.0;0.0;18.2;0.0;0.0
2.0;1753873518.140495;13.73868;0.92;-1.8;-0.39;0.92894;0.344659;0.047313;140.4;0.0;0.0;23.8;0.0;0.0
2.0;1753873518.145104;13.750895;0.91;-1.69;-0.27;0.92654;0.344757;0.049191;138.9;0.0;0.0;23.4;0.0;0.0
2.0;1753873518.149713;13.69471;0.92;-1.68;-0.35;0.927878;0.343469;0.051054;143.6;0.0;0.0;22.3;0.0;0.0
2.0;1753873518.154322;13.728856;0.86;-1.75;-0.27;0.929557;0.343504;0.04959;140.3;0.0;0.0;20.5;0.0;0.0
2.0;1753873518.15893;13.732661;0.85;-1.7;-0.34;0.927128;0.347579;0.049035;144.6;0.0;0.0;23.6;0.0;0.0
2.0;1753873518.16354;13.718125;0.92;-1.63;-0.22;0.928009;0.343834;0.048595;141.5;0.0;0.0;20.0;0.0;0.0
2.0;1753873518.168148;13.714665;0.85;-1.79;-0.3;0.926855;0.34035;0.048634;150.6;0.0;0.0;25.5;0.0;0.0
2.0;1753873518.172757;13.716368;0.94;-1.68;-0.33;0.928605;0.343821;0.049581;140.2;0.0;0.0;24.0;0.0;0.0
2.0;1753873518.177366;13.717227;0.84;-1.63;-0.27;0.926277;0.342049;0.049113;136.1;0.0;0.0;20.0;0.0;0.0
2.0;1753873518.181975;13.673832;0.96;-1.69;-0.23;0.929415;0.341249;0.048502;139.5;0.0;0.0;26.1;0.0;0.0
2.0;1753873518.186584;13.734549;0.85;-1.75;-0.2;0.928422;0.340924;0.050359;140.2;0.0;0.0;22.9;0.0;0.0
2.0;1753873518.191193;13.747424;0.92;-1.69;-0.37;0.930028;0.345538;0.049796;143.4;0.0;0.0;22.4;0.0;0.0
2.0;1753873518.195802;13.685031;0.96;-1.69;-0.32;0.928635;0.341467;0.048598;142.9;0.0;0.0;21.5;0.0;0.0
2.0;1753873518.20041;13.65518;0.93;-1.7;-0.36;0.927274;0.340361;0.047989;141.8;0.0;0.0;19.4;0.0;0.0
2.0;1753873518.205019;13.761508;0.85;-1.74;-0.37;0.927264;0.342934;0.047786;142.6;0.0;0.0;25.6;0.0;0.0
2.0;1753873518.209628;13.716895;0.99;-1.73;-0.27;0.928994;0.342881;0.04922;138.3;0.0;0.0;24.8;0.0;0.0
2.0;1753873518.214237;13.796695;0.91;-1.65;-0.35;0.928795;0.338699;0.050057;143.5;0.0;0.0;20.6;0.0;0.0
2.0;1753873518.218846;13.696978;0.95;-1.68;-0.31;0.92991;0.339425;0.04859;141.1;0.0;0.0;20.1;0.0;0.0
2.0;1753873518.223455;13.719815;0.93;-1.69;-0.36;0.92839;0.342277;0.047762;135.6;0.0;0.0;19.6;0.0;0.0
2.0;1753873518.228064;13.751641;0.8;-1.76;-0.25;0.929003;0.342747;0.04843;143.0;0.0;0.0;23.4;0.0;0.0
2.0;1753873518.232672;13.77881;0.94;-1.68;-0.3;0.926459;0.342581;0.049522;146.5;0.0;0.0;17.5;0.0;0.0
2.0;1753873518.237281;13.758501;0.91;-1.71;-0.31;0.928795;0.348665;0.048435;143.2;0.0;0.0;22.3;0.0;0.0
2.0;1753873518.24189;13.774026;0.84;-1.7;-0.31;0.926829;0.3428;0.049034;142.8;0.0;0.0;23.0;0.0;0.0
2.0;1753873518.246499;13.772561;0.87;-1.71;-0.32;0.926691;0.340052;0.048735;141.7;0.0;0.0;21.3;0.0;0.0
2.0;1753873518.251108;13.706886;0.86;-1.67;-0.29;0.928636;0.346201;0.049778;141.3;0.0;0.0;22.9;0.0;0.0
2.0;1753873518.255717;13.750666;0.92;-1.67;-0.37;0.926905;0.340655;0.048829;139.7;0.0;0.0;24.1;0.0;0.0
2.0;1753873518.260326;13.725801;0.94;-1.68;-0.25;0.928566;0.342135;0.050377;138.7;0.0;0.0;23.3;0.0;0.0
2.0;1753873518.264934;13.723299;1.01;-1.7;-0.27;0.927316;0.345166;0.050652;145.8;0.0;0.0;19.3;0.0;0.0
2.0;1753873518.269544;13.727453;0.94;-1.7;-0.32;0.927576;0.341681;0.047939;142.4;0.0;0.0;21.9;0.0;0.0
2.0;1753873518.274152;13.701931;0.95;-1.61;-0.3;0.928506;0.347445;0.04877;139.6;0.0;0.0;23.6;0.0;0.0
2.0;1753873518.278761;13.727626;1.01;-1.69;-0.41;0.92734;0.337929;0.049257;142.6;0.0;0.0;21.5;0.0;0.0
2.0;1753873518.28337;13.716957;0.87;-1.71;-0.32;0.928245;0.343111;0.047852;140.0;0.0;0.0;22.2;0.0;0.0
2.0;1753873518.287979;13.74118;0.85;-1.72;-0.25;0.927911;0.342908;0.048806;142.7;0.0;0.0;16.5;0.0;0.0
2.0;1753873518.292588;13.716936;0.89;-1.71;-0.24;0.930586;0.342888;0.050404;143.1;0.0;0.0;20.5;0.0;0.0
2.0;1753873518.297197;13.70139;0.88;-1.71;-0.3;0.928133;0.343562;0.048098;139.9;0.0;0.0;24.3;0.0;0.0
2.0;1753873518.301806;13.709812;0.95;-1.72;-0.27;0.927007;0.343054;0.0483;139.2;0.0;0.0;22.8;0.0;0.0
2.0;1753873518.306414;13.732472;0.97;-1.71;-0.3;0.929484;0.342328;0.048532;136.9;0.0;0.0;21.3;0.0;0.0
2.0;1753873518.311023;13.687209;0.98;-1.73;-0.23;0.928283;0.341533;0.049992;142.3;0.0;0.0;21.6;0.0;0.0
2.0;1753873518.315632;13.749075;0.85;-1.73;-0.35;0.927473;0.340614;0.04806;140.5;0.0;0.0;21.6;0.0;0.0
2.0;1753873518.320241;13.783537;0.85;-1.7;-0.36;0.928923;0.341922;0.048357;143.1;0.0;0.0;23.0;0.0;0.0
2.0;1753873518.32485;13.679614;0.89;-1.72;-0.27;0.93004;0.339035;0.049039;139.1;0.0;0.0;24.0;0.0;0.0
2.0;1753873518.329459;13.720663;0.93;-1.73;-0.25;0.92776;0.342425;0.049661;138.8;0.0;0.0;22.7;0.0;0.0
2.0;1753873518.334068;13.756176;0.85;-1.66;-0.29;0.927562;0.339734;0.050212;144.5;0.0;0.0;22.6;0.0;0.0
2.0;1753873518.338676;13.708192;0.86;-1.65;-0.3;0.927651;0.343932;0.050594;140.8;0.0;0.0;24.6;0.0;0.0
2.0;1753873518.343285;13.702169;0.93;-1.7;-0.4;0.929744;0.345189;0.04928;141.4;0.0;0.0;22.6;0.0;0.0
2.0;1753873518.347894;13.717363;0.87;-1.71;-0.39;0.927963;0.340636;0.050367;143.0;0.0;0.0;19.7;0.0;0.0
2.0;1753873518.352503;13.690258;1.01;-1.65;-0.24;0.928076;0.34186;0.048849;139.2;0.0;0.0;19.3;0.0;0.0
2.0;1753873518.357112;13.761866;0.93;-1.74;-0.26;0.928749;0.343058;0.050283;141.0;0.0;0.0;17.5;0.0;0.0
2.0;1753873518.361721;13.661535;0.9;-1.72;-0.35;0.929119;0.337193;0.050518;141.6;0.0;0.0;22.2;0.0;0.0
2.0;1753873518.36633;13.729275;0.89;-1.67;-0.32;0.927965;0.341737;0.04755;138.2;0.0;0.0;17.5;0.0;0.0
2.0;1753873518.370938;13.726709;0.89;-1.77;-0.39;0.927313;0.346461;0.050476;143.7;0.0;0.0;23.5;0.0;0.0
2.0;1753873518.375548;13.724216;0.77;-1.74;-0.24;0.927579;0.342879;0.050545;140.6;0.0;0.0;24.1;0.0;0.0
2.0;1753873518.380156;13.74332;0.9;-1.69;-0.2;0.927005;0.345343;0.048713;140.3;0.0;0.0;19.8;0.0;0.0
2.0;1753873518.384765;13.731353;0.84;-1.74;-0.23;0.927888;0.343902;0.048628;140.6;0.0;0.0;21.2;0.0;0.0
2.0;1753873518.389374;13.73254;0.89;-1.68;-0.33;0.927646;0.343465;0.05015;142.1;0.0;0.0;20.2;0.0;0.0
2.0;1753873518.393983;13.736459;0.94;-1.67;-0.26;0.92949;0.342255;0.049261;142.2;0.0;0.0;24.0;0.0;0.0
2.0;1753873518.398592;13.715017;0.85;-1.75;-0.38;0.928412;0.341307;0.049656;140.9;0.0;0.0;20.2;0.0;0.0
2.0;1753873518.403201;13.665431;0.94;-1.78;-0.28;0.928009;0.342284;0.049831;141.3;0.0;0.0;18.3;0.0;0.0
2.0;1753873518.40781;13.709127;0.87;-1.64;-0.29;0.930579;0.341068;0.049619;142.5;0.0;0.0;19.2;0.0;0.0
2.0;1753873518.412418;13.688186;0.92;-1.73;-0.3;0.929843;0.341599;0.050393;144.4;0.0;0.0;20.5;0.0;0.0
2.0;1753873518.417027;13.743244;0.89;-1.7;-0.32;0.927452;0.343527;0.051389;141.3;0.0;0.0;20.8;0.0;0.0
2.0;1753873518.421636;13.694988;0.95;-1.75;-0.4;0.928326;0.343839;0.049134;143.8;0.0;0.0;23.2;0.0;0.0
2.0;1753873518.426245;13.665409;0.89;-1.68;-0.29;0.929048;0.344504;0.050087;140.4;0.0;0.0;27.2;0.0;0.0
2.0;1753873518.430854;13.682228;0.95;-1.61;-0.26;0.927934;0.341218;0.050128;140.4;0.0;0.0;21.8;0.0;0.0
2.0;1753873518.435463;13.702195;0.89;-1.67;-0.33;0.928741;0.345283;0.049779;144.4;0.0;0.0;17.0;0.0;0.0
2.0;1753873518.440072;13.711941;1.01;-1.75;-0.28;0.930546;0.338666;0.049011;142.8;0.0;0.0;19.1;0.0;0.0
2.0;1753873518.44468;13.756557;1.0;-1.72;-0.37;0.929406;0.3433;0.04913;139.6;0.0;0.0;18.3;0.0;0.0
2.0;1753873518.449289;13.712625;0.86;-1.67;-0.27;0.928194;0.337866;0.05041;141.0;0.0;0.0;24.8;0.0;0.0
2.0;1753873518.453898;13.73179;0.92;-1.73;-0.37;0.929185;0.342648;0.049094;141.9;0.0;0.0;23.1;0.0;0.0
2.0;1753873518.458507;13.703719;0.95;-1.76;-0.42;0.929242;0.345026;0.049651;146.0;0.0;0.0;21.4;0.0;0.0
2.0;1753873518.463116;13.720853;0.98;-1.65;-0.26;0.927761;0.339181;0.047958;137.8;0.0;0.0;22.9;0.0;0.0
2.0;1753873518.467725;13.744816;0.87;-1.72;-0.32;0.927702;0.345504;0.049657;145.3;0.0;0.0;21.7;0.0;0.0
2.0;1753873518.472334;13.727355;0.94;-1.7;-0.29;0.928946;0.344317;0.04864;141.5;0.0;0.0;25.2;0.0;0.0
2.0;1753873518.476942;13.714277;0.88;-1.68;-0.29;0.928077;0.340169;0.049423;142.0;0.0;0.0;20.1;0.0;0.0
2.0;1753873518.481552;13.683342;0.88;-1.76;-0.35;0.928918;0.339695;0.049833;139.7;0.0;0.0;22.0;0.0;0.0
2.0;1753873518.48616;13.683209;0.91;-1.73;-0.33;0.928236;0.34372;0.049418;138.1;0.0;0.0;23.5;0.0;0.0
2.0;1753873518.490769;13.712983;0.82;-1.76;-0.42;0.927069;0.344045;0.051433;140.5;0.0;0.0;19.7;0.0;0.0
2.0;1753873518.495378;13.717791;0.97;-1.73;-0.38;0.928348;0.34348;0.050074;141.8;0.0;0.0;22.2;0.0;0.0
2.0;1753873518.499987;13.70014;0.87;-1.68;-0.27;0.929196;0.349344;0.048681;145.8;0.0;0.0;22.8;0.0;0.0
2.0;1753873518.504596;13.718336;0.86;-1.73;-0.33;0.930852;0.33839;0.048414;139.8;0.0;0.0;21.6;0.0;0.0
2.0;1753873518.509205;13.680743;0.91;-1.75;-0.33;0.929103;0.342265;0.050008;145.3;0.0;0.0;17.7;0.0;0.0
2.0;1753873518.513814;13.701041;0.86;-1.72;-0.39;0.929043;0.345369;0.048346;138.6;0.0;0.0;24.8;0.0;0.0
2.0;1753873518.518422;13.744804;0.94;-1.7;-0.32;0.927479;0.343036;0.048462;140.6;0.0;0.0;22.3;0.0;0.0
2.0;1753873518.523031;13.673543;0.85;-1.72;-0.31;0.929141;0.342144;0.049576;143.5;0.0;0.0;21.5;0.0;0.0
2.0;1753873518.52764;13.729284;0.86;-1.69;-0.27;0.926841;0.340947;0.050603;136.3;0.0;0.0;22.4;0.0;0.0
2.0;1753873518.532249;13.695906;1.04;-1.72;-0.32;0.927773;0.342794;0.049538;142.6;0.0;0.0;19.5;0.0;0.0
2.0;1753873518.536858;13.720672;0.98;-1.78;-0.38;0.926516;0.340499;0.049447;140.7;0.0;0.0;22.5;0.0;0.0
2.0;1753873518.541467;13.684671;0.94;-1.72;-0.3;0.927779;0.338667;0.049503;136.0;0.0;0.0;24.3;0.0;0.0
2.0;1753873518.546076;13.692793;0.87;-1.73;-0.35;0.929023;0.338655;0.048166;144.2;0.0;0.0;19.9;0.0;0.0
2.0;1753873518.550684;13.75791;0.9;-1.75;-0.3;0.930418;0.343452;0.049626;137.2;0.0;0.0;21.9;0.0;0.0
2.0;1753873518.555293;13.741644;1.01;-1.72;-0.35;0.928932;0.343695;0.048098;139.7;0.0;0.0;19.9;0.0;0.0
2.0;1753873518.559902;13.749847;0.88;-1.72;-0.37;0.928732;0.341229;0.049926;140.0;0.0;0.0;17.8;0.0;0.0
2.0;1753873518.564511;13.666814;0.86;-1.78;-0.33;0.929938;0.339775;0.04786;141.2;0.0;0.0;21.9;0.0;0.0
2.0;1753873518.56912;13.690651;1.0;-1.71;-0.45;0.928638;0.349537;0.050176;144.1;0.0;0.0;19.4;0.0;0.0
2.0;1753873518.573729;13.697852;0.96;-1.69;-0.37;0.930098;0.34303;0.050173;140.2;0.0;0.0;19.5;0.0;0.0
2.0;1753873518.578338;13.655251;0.94;-1.78;-0.36;0.927806;0.344623;0.049178;142.4;0.0;0.0;24.2;0.0;0.0
2.0;1753873518.582946;13.722872;0.91;-1.72;-0.34;0.929765;0.341857;0.047771;138.4;0.0;0.0;18.2;0.0;0.0
2.0;1753873518.587556;13.738514;0.94;-1.83;-0.35;0.929347;0.342706;0.049229;138.2;0.0;0.0;18.7;0.0;0.0
2.0;1753873518.592164;13.678847;0.94;-1.66;-0.29;0.927889;0.340401;0.049995;139.7;0.0;0.0;21.4;0.0;0.0
2.0;1753873518.596773;13.682539;0.96;-1.79;-0.33;0.926996;0.347524;0.049974;140.4;0.0;0.0;20.3;0.0;0.0
2.0;1753873518.601382;13.675491;0.98;-1.7;-0.3;0.928655;0.342421;0.051132;136.8;0.0;0.0;20.3;0.0;0.0
2.0;1753873518.605991;13.70892;0.88;-1.66;-0.33;0.928531;0.343263;0.048369;139.6;0.0;0.0;18.5;0.0;0.0
2.0;1753873518.6106;13.685559;0.91;-1.75;-0.35;0.927833;0.347065;0.047264;141.8;0.0;0.0;21.7;0.0;0.0
2.0;1753873518.615209;13.694673;0.99;-1.72;-0.34;0.92898;0.342466;0.048489;136.1;0.0;0.0;25.2;0.0;0.0
2.0;1753873518.619818;13.676782;0.94;-1.64;-0.34;0.927857;0.342373;0.048925;143.9;0.0;0.0;23.2;0.0;0.0
2.0;1753873518.624426;13.676265;0.97;-1.72;-0.32;0.929457;0.343864;0.048751;145.6;0.0;0.0;19.4;0.0;0.0
2.0;1753873518.629035;13.69812;0.91;-1.74;-0.28;0.927915;0.340986;0.048677;140.1;0.0;0.0;21.2;0.0;0.0
2.0;1753873518.633644;13.664519;0.95;-1.71;-0.26;0.930818;0.344644;0.050445;137.8;0.0;0.0;20.3;0.0;0.0
2.0;1753873518.638253;13.678181;0.92;-1.67;-0.29;0.929885;0.344716;0.048738;139.9;0.0;0.0;20.2;0.0;0.0
2.0;1753873518.642862;13.759566;0.89;-1.7;-0.39;0.926696;0.341479;0.049441;143.3;0.0;0.0;19.9;0.0;0.0
2.0;1753873518.647471;13.717248;0.93;-1.79;-0.22;0.92898;0.347064;0.049946;141.3;0.0;0.0;25.6;0.0;0.0
2.0;1753873518.65208;13.715522;0.98;-1.66;-0.34;0.929424;0.34323;0.050742;140.6;0.0;0.0;22.0;0.0;0.0
2.0;1753873518.656688;13.70855;0.91;-1.76;-0.41;0.928769;0.342678;0.048428;139.7;0.0;0.0;25.0;0.0;0.0
2.0;1753873518.661297;13.725702;0.91;-1.79;-0.37;0.928643;0.339534;0.047958;144.2;0.0;0.0;23.8;0.0;0.0
2.0;1753873518.665906;13.729144;0.96;-1.72;-0.31;0.927006;0.346619;0.0489;141.0;0.0;0.0;20.8;0.0;0.0
2.0;1753873518.670515;13.676146;0.96;-1.66;-0.2;0.926742;0.343673;0.049028;140.9;0.0;0.0;20.1;0.0;0.0
2.0;1753873518.675124;13.708241;0.96;-1.77;-0.4;0.928681;0.346369;0.050041;136.2;0.0;0.0;23.6;0.0;0.0
2.0;1753873518.679733;13.693047;0.9;-1.76;-0.31;0.92773;0.338338;0.049429;139.0;0.0;0.0;19.4;0.0;0.0
2.0;1753873518.684342;13.701168;0.84;-1.74;-0.36;0.929656;0.340035;0.048368;143.3;0.0;0.0;20.4;0.0;0.0
2.0;1753873518.68895;13.696788;0.86;-1.83;-0.37;0.927393;0.343936;0.049506;140.5;0.0;0.0;19.5;0.0;0.0
2.0;1753873518.69356;13.708514;0.96;-1.71;-0.32;0.929454;0.343027;0.051312;141.0;0.0;0.0;18.6;0.0;0.0
2.0;1753873518.698168;13.710831;0.93;-1.74;-0.29;0.927633;0.342327;0.049565;138.5;0.0;0.0;22.4;0.0;0.0
2.0;1753873518.702777;13.735524;0.93;-1.64;-0.3;0.929744;0.340474;0.050266;138.5;0.0;0.0;26.1;0.0;0.0
2.0;1753873518.707386;13.701769;0.88;-1.77;-0.31;0.928661;0.346165;0.049756;143.3;0.0;0.0;22.7;0.0;0.0
2.0;1753873518.711995;13.712377;0.91;-1.76;-0.31;0.928543;0.342265;0.050959;140.4;0.0;0.0;21.5;0.0;0.0
2.0;1753873518.716604;13.66975;0.91;-1.8;-0.36;0.930111;0.340659;0.048703;142.4;0.0;0.0;16.9;0.0;0.0
2.0;1753873518.721213;13.647221;0.89;-1.75;-0.3;0.928993;0.34106;0.049577;139.2;0.0;0.0;16.6;0.0;0.0
2.0;1753873518.725822;13.699057;0.89;-1.82;-0.35;0.929695;0.346032;0.049024;138.4;0.0;0.0;19.8;0.0;0.0
2.0;1753873518.73043;13.696554;0.91;-1.7;-0.35;0.92687;0.33804;0.048905;140.0;0.0;0.0;21.4;0.0;0.0
2.0;1753873518.735039;13.704566;0.84;-1.74;-0.44;0.928026;0.345428;0.048459;139.5;0.0;0.0;18.4;0.0;0.0
2.0;1753873518.739648;13.673859;0.9;-1.77;-0.39;0.928902;0.337924;0.050642;137.5;0.0;0.0;22.3;0.0;0.0
2.0;1753873518.744257;13.672984;0.94;-1.77;-0.36;0.927851;0.344655;0.050151;140.0;0.0;0.0;25.0;0.0;0.0
2.0;1753873518.748866;13.673207;0.94;-1.74;-0.38;0.928187;0.338801;0.04945;136.8;0.0;0.0;24.2;0.0;0.0
2.0;1753873518.753475;13.635434;0.84;-1.73;-0.29;0.929427;0.341767;0.049141;138.7;0.0;0.0;20.2;0.0;0.0
2.0;1753873518.758084;13.6856;0.89;-1.73;-0.32;0.929574;0.347654;0.049541;141.8;0.0;0.0;20.9;0.0;0.0
2.0;1753873518.762692;13.694775;0.96;-1.7;-0.35;0.928608;0.346115;0.049409;139.8;0.0;0.0;21.8;0.0;0.0
2.0;1753873518.767301;13.739575;0.93;-1.85;-0.36;0.928793;0.344087;0.047116;141.8;0.0;0.0;23.1;0.0;0.0
2.0;1753873518.77191;13.666132;0.91;-1.77;-0.31;0.927887;0.344553;0.04918;141.1;0.0;0.0;15.3;0.0;0.0
2.0;1753873518.776519;13.709351;0.87;-1.78;-0.33;0.929829;0.342341;0.049387;147.7;0.0;0.0;22.5;0.0;0.0
2.0;1753873518.781128;13.68416;0.97;-1.68;-0.36;0.930857;0.34078;0.051878;136.8;0.0;0.0;21.3;0.0;0.0
2.0;1753873518.785737;13.715431;0.88;-1.69;-0.31;0.929169;0.347456;0.050837;135.5;0.0;0.0;19.1;0.0;0.0
2.0;1753873518.794;13.6875;0.91;-1.75;-0.35;0.928664;0.342332;0.049532;140.0;0.0;0.0;21.0;0.0;0.0
2.0;1753873518.798609;13.71815;0.93;-1.69;-0.42;0.929619;0.342216;0.047601;141.6;0.0;0.0;17.5;0.0;0.0
2.0;1753873518.803218;13.74295;0.9;-1.71;-0.29;0.929408;0.339521;0.050413;140.9;0.0;0.0;17.4;0.0;0.0
2.0;1753873518.807826;13.760278;0.92;-1.79;-0.38;0.931361;0.339169;0.049909;127.9;0.0;0.0;14.2;0.0;0.0
2.0;1753873518.812436;13.678496;0.92;-1.68;-0.31;0.930968;0.343848;0.048913;139.6;0.0;0.0;17.5;0.0;0.0
2.0;1753873518.817044;13.725016;0.97;-1.65;-0.35;0.931478;0.338786;0.049409;137.6;0.0;0.0;14.0;0.0;0.0
2.0;1753873518.821653;13.712753;0.98;-1.66;-0.39;0.932419;0.339467;0.049207;134.1;0.0;0.0;14.3;0.0;0.0
2.0;1753873518.826262;13.688856;0.94;-1.64;-0.36;0.930858;0.339876;0.047311;132.3;0.0;0.0;15.0;0.0;0.0
2.0;1753873518.83119;13.730469;0.98;-1.61;-0.28;0.930982;0.340014;0.048434;133.0;0.0;0.0;15.0;0.0;0.0
2.0;1753873518.835799;13.716975;1.02;-1.58;-0.31;0.931301;0.341745;0.048933;132.8;0.0;0.0;21.9;0.0;0.0
2.0;1753873518.840408;13.706663;1.05;-1.55;-0.33;0.930955;0.341996;0.049314;134.9;0.0;0.0;15.2;0.0;0.0
2.0;1753873518.845017;13.733926;1.03;-1.61;-0.27;0.929219;0.342616;0.050043;129.5;0.0;0.0;19.3;0.0;0.0
2.0;1753873518.849626;13.742505;1.02;-1.58;-0.34;0.930399;0.344865;0.05038;127.5;0.0;0.0;16.2;0.0;0.0
2.0;1753873518.854234;13.748247;0.95;-1.61;-0.32;0.930506;0.339193;0.050193;134.1;0.0;0.0;19.4;0.0;0.0
2.0;1753873518.858843;13.762643;1.08;-1.6;-0.31;0.927612;0.33737;0.048635;124.9;0.0;0.0;13.0;0.0;0.0
2.0;1753873518.863452;13.733436;0.96;-1.61;-0.26;0.926799;0.342787;0.047611;133.6;0.0;0.0;17.4;0.0;0.0
2.0;1753873518.868061;13.728636;0.92;-1.6;-0.32;0.928132;0.341869;0.050816;132.3;0.0;0.0;20.2;0.0;0.0
2.0;1753873518.87267;13.728165;0.98;-1.63;-0.28;0.930009;0.340934;0.049441;124.7;0.0;0.0;16.9;0.0;0.0
2.0;1753873518.877279;13.700309;1.02;-1.57;-0.27;0.932099;0.339818;0.048936;131.8;0.0;0.0;25.8;0.0;0.0
2.0;1753873518.881888;13.73946;1.03;-1.6;-0.25;0.927388;0.336227;0.049546;134.1;0.0;0.0;14.4;0.0;0.0
2.0;1753873518.886496;13.779416;1.11;-1.55;-0.32;0.927337;0.339064;0.05024;129.1;0.0;0.0;19.1;0.0;0.0
2.0;1753873518.891106;13.714479;1.03;-1.62;-0.29;0.929111;0.338993;0.049053;133.6;0.0;0.0;17.9;0.0;0.0
2.0;1753873518.895714;13.697636;0.93;-1.6;-0.33;0.929583;0.340273;0.049436;128.6;0.0;0.0;20.4;0.0;0.0
2.0;1753873518.900323;13.715578;1.05;-1.63;-0.31;0.926772;0.342767;0.050462;131.3;0.0;0.0;24.2;0.0;0.0
2.0;1753873518.904932;13.722166;1.0;-1.69;-0.27;0.928812;0.336845;0.050953;136.8;0.0;0.0;21.5;0.0;0.0
2.0;1753873518.909541;13.727223;1.04;-1.55;-0.25;0.928343;0.342343;0.049006;138.1;0.0;0.0;18.4;0.0;0.0
2.0;1753873518.91736;13.730469;1.05;-1.61;-0.28;0.928054;0.340136;0.051362;131.0;0.0;0.0;23.0;0.0;0.0
2.0;1753873518.92203;13.730469;0.91;-1.61;-0.42;0.931104;0.339526;0.049044;131.0;0.0;0.0;23.0;0.0;0.0
2.0;1753873518.926639;13.726009;0.91;-1.67;-0.32;0.930694;0.339953;0.047431;128.9;0.0;0.0;27.0;0.0;0.0
2.0;1753873518.931248;13.753656;1.02;-1.64;-0.32;0.929815;0.340523;0.048563;128.6;0.0;0.0;23.3;0.0;0.0
2.0;1753873518.935856;13.694631;0.91;-1.61;-0.45;0.930667;0.343031;0.04864;123.3;0.0;0.0;19.9;0.0;0.0
2.0;1753873518.940466;13.718317;1.1;-1.62;-0.46;0.929609;0.339441;0.050611;133.8;0.0;0.0;26.3;0.0;0.0
2.0;1753873518.945074;13.74684;0.95;-1.53;-0.33;0.928095;0.337602;0.049892;136.0;0.0;0.0;20.8;0.0;0.0
2.0;1753873518.949683;13.730056;1.0;-1.65;-0.33;0.928373;0.342436;0.050247;142.5;0.0;0.0;24.2;0.0;0.0
2.0;1753873518.954292;13.70708;0.99;-1.63;-0.33;0.928294;0.339254;0.051227;125.5;0.0;0.0;19.4;0.0;0.0
2.0;1753873518.958901;13.750992;1.01;-1.61;-0.34;0.925787;0.345023;0.050106;133.5;0.0;0.0;24.1;0.0;0.0
2.0;1753873518.96351;13.696012;1.05;-1.63;-0.29;0.928906;0.34494;0.049811;131.8;0.0;0.0;18.8;0.0;0.0
2.0;1753873518.968119;13.703617;1.03;-1.61;-0.35;0.925521;0.342848;0.048962;133.3;0.0;0.0;18.3;0.0;0.0
2.0;1753873518.972728;13.738518;1.0;-1.54;-0.29;0.926379;0.344945;0.050641;132.7;0.0;0.0;26.0;0.0;0.0
2.0;1753873518.97837;13.71875;1.12;-1.61;-0.28;0.925492;0.34465;0.050508;131.0;0.0;0.0;23.0;0.0;0.0
2.0;1753873518.979503;13.691406;0.91;-1.68;-0.35;0.930128;0.338428;0.0488;144.0;0.0;0.0;18.0;0.0;0.0
2.0;1753873518.984967;13.691406;0.77;-1.75;-0.35;0.927932;0.342942;0.049166;144.0;0.0;0.0;18.0;0.0;0.0
2.0;1753873518.989777;13.691406;0.91;-1.68;-0.28;0.928908;0.338916;0.049044;144.0;0.0;0.0;18.0;0.0;0.0
2.0;1753873518.99792;13.675781;0.91;-1.68;-0.42;0.93086;0.340014;0.049288;144.0;0.0;0.0;18.0;0.0;0.0
2.0;1753873519.002529;13.708396;0.91;-1.6;-0.41;0.932144;0.343129;0.050869;149.3;0.0;0.0;16.1;0.0;0.0
2.0;1753873519.007138;13.676935;0.92;-1.68;-0.41;0.929822;0.338513;0.049676;141.8;0.0;0.0;16.0;0.0;0.0
2.0;1753873519.011747;13.69233;0.89;-1.73;-0.36;0.931625;0.343917;0.048642;150.7;0.0;0.0;16.9;0.0;0.0
2.0;1753873519.016356;13.650941;0.97;-1.66;-0.35;0.929629;0.342587;0.049666;142.8;0.0;0.0;18.0;0.0;0.0
2.0;1753873519.020964;13.673912;0.94;-1.61;-0.46;0.930529;0.339457;0.050258;142.4;0.0;0.0;18.3;0.0;0.0
2.0;1753873519.025573;13.697232;0.85;-1.75;-0.52;0.931124;0.342239;0.04909;147.9;0.0;0.0;15.7;0.0;0.0
2.0;1753873519.030182;13.694231;0.97;-1.77;-0.39;0.928945;0.340972;0.050209;141.5;0.0;0.0;15.4;0.0;0.0
2.0;1753873519.034791;13.653422;0.95;-1.82;-0.43;0.929953;0.336807;0.048563;140.3;0.0;0.0;19.1;0.0;0.0
2.0;1753873519.0394;13.681172;0.85;-1.81;-0.31;0.930404;0.342301;0.049215;144.0;0.0;0.0;20.8;0.0;0.0
2.0;1753873519.044009;13.682456;0.95;-1.72;-0.45;0.929411;0.339173;0.050279;150.0;0.0;0.0;14.9;0.0;0.0
2.0;1753873519.048618;13.674811;0.89;-1.69;-0.5;0.929458;0.339119;0.05091;144.1;0.0;0.0;19.2;0.0;0.0
2.0;1753873519.053226;13.658655;0.93;-1.8;-0.49;0.932488;0.3408;0.049445;147.9;0.0;0.0;20.2;0.0;0.0
2.0;1753873519.057835;13.669353;0.9;-1.79;-0.4;0.929918;0.340189;0.049404;140.1;0.0;0.0;18.2;0.0;0.0
2.0;1753873519.062444;13.67108;0.95;-1.56;-0.45;0.928319;0.343826;0.050146;146.4;0.0;0.0;16.2;0.0;0.0
2.0;1753873519.067053;13.688921;0.96;-1.7;-0.43;0.932569;0.341458;0.048703;144.7;0.0;0.0;19.6;0.0;0.0
2.0;1753873519.071662;13.657627;0.95;-1.67;-0.54;0.930261;0.341977;0.050538;145.6;0.0;0.0;15.7;0.0;0.0
2.0;1753873519.076271;13.66693;0.91;-1.62;-0.49;0.933202;0.336615;0.050657;145.7;0.0;0.0;19.6;0.0;0.0
2.0;1753873519.08088;13.678718;0.89;-1.68;-0.37;0.926435;0.341302;0.04953;143.6;0.0;0.0;19.9;0.0;0.0
2.0;1753873519.085488;13.66649;0.93;-1.6;-0.52;0.929343;0.3396;0.049955;144.4;0.0;0.0;17.4;0.0;0.0
2.0;1753873519.090098;13.681749;0.9;-1.73;-0.38;0.92806;0.338452;0.04952;147.1;0.0;0.0;16.7;0.0;0.0
2.0;1753873519.094706;13.666659;0.88;-1.58;-0.43;0.930882;0.341751;0.048671;148.3;0.0;0.0;19.6;0.0;0.0
2.0;1753873519.099315;13.675923;0.84;-1.62;-0.31;0.929331;0.338816;0.049716;144.0;0.0;0.0;19.6;0.0;0.0
2.0;1753873519.103924;13.662927;0.94;-1.75;-0.38;0.929833;0.340298;0.050182;143.1;0.0;0.0;16.1;0.0;0.0
2.0;1753873519.108533;13.681526;0.95;-1.71;-0.4;0.930384;0.341113;0.050519;147.6;0.0;0.0;14.7;0.0;0.0
2.0;1753873519.113142;13.678915;0.92;-1.81;-0.47;0.93024;0.342641;0.050047;136.0;0.0;0.0;14.3;0.0;0.0
2.0;1753873519.117751;13.678871;0.92;-1.76;-0.39;0.928834;0.340033;0.049885;145.5;0.0;0.0;17.6;0.0;0.0
2.0;1753873519.12236;13.676864;0.92;-1.66;-0.39;0.929208;0.340691;0.049266;139.5;0.0;0.0;18.3;0.0;0.0
2.0;1753873519.126968;13.663808;0.92;-1.7;-0.46;0.928793;0.337775;0.048664;144.6;0.0;0.0;17.7;0.0;0.0
2.0;1753873519.131577;13.678743;0.98;-1.66;-0.39;0.92914;0.341101;0.04921;139.1;0.0;0.0;22.0;0.0;0.0
2.0;1753873519.136186;13.660542;0.99;-1.72;-0.48;0.929306;0.341112;0.04977;140.0;0.0;0.0;18.8;0.0;0.0
2.0;1753873519.140795;13.69017;0.87;-1.7;-0.47;0.929886;0.34015;0.05001;143.1;0.0;0.0;18.4;0.0;0.0
2.0;1753873519.145404;13.664206;0.86;-1.78;-0.35;0.928265;0.343888;0.048617;145.4;0.0;0.0;16.5;0.0;0.0
2.0;1753873519.150013;13.67579;0.88;-1.67;-0.42;0.928878;0.338556;0.04939;145.9;0.0;0.0;20.3;0.0;0.0
2.0;1753873519.154622;13.674943;0.83;-1.76;-0.42;0.930295;0.344312;0.050575;144.6;0.0;0.0;16.4;0.0;0.0
2.0;1753873519.15923;13.708023;0.92;-1.82;-0.5;0.929636;0.341016;0.050658;141.9;0.0;0.0;17.7;0.0;0.0
2.0;1753873519.163839;13.672768;0.92;-1.79;-0.35;0.927164;0.339776;0.049502;144.2;0.0;0.0;20.3;0.0;0.0
2.0;1753873519.168448;13.656869;0.95;-1.7;-0.36;0.929083;0.340811;0.049655;150.2;0.0;0.0;17.8;0.0;0.0
2.0;1753873519.173057;13.672647;0.94;-1.75;-0.33;0.928943;0.34091;0.049723;142.4;0.0;0.0;18.5;0.0;0.0
2.0;1753873519.177666;13.671652;0.95;-1.68;-0.35;0.926022;0.342078;0.049209;143.8;0.0;0.0;17.8;0.0;0.0
2.0;1753873519.182275;13.711354;0.91;-1.81;-0.47;0.927659;0.343734;0.048926;148.4;0.0;0.0;20.9;0.0;0.0
2.0;1753873519.186884;13.681933;0.87;-1.83;-0.43;0.925765;0.33972;0.050356;147.2;0.0;0.0;17.5;0.0;0.0
2.0;1753873519.191492;13.679615;0.89;-1.58;-0.36;0.928629;0.33952;0.050705;147.1;0.0;0.0;16.3;0.0;0.0
2.0;1753873519.196102;13.662136;0.86;-1.81;-0.47;0.928363;0.339762;0.049301;150.1;0.0;0.0;17.1;0.0;0.0
2.0;1753873519.20071;13.700629;0.9;-1.7;-0.35;0.926981;0.341577;0.049681;144.8;0.0;0.0;17.0;0.0;0.0
2.0;1753873519.205319;13.652204;0.92;-1.62;-0.32;0.928566;0.342096;0.049584;141.2;0.0;0.0;19.1;0.0;0.0
2.0;1753873519.209928;13.661395;1.02;-1.74;-0.41;0.932288;0.343189;0.049864;140.0;0.0;0.0;19.1;0.0;0.0
2.0;1753873519.214537;13.688194;0.89;-1.73;-0.36;0.926507;0.343191;0.049417;139.0;0.0;0.0;18.4;0.0;0.0
2.0;1753873519.219146;13.691824;0.97;-1.61;-0.49;0.927297;0.343108;0.049296;144.3;0.0;0.0;18.8;0.0;0.0
2.0;1753873519.223755;13.639207;0.9;-1.8;-0.44;0.928565;0.342908;0.050474;139.3;0.0;0.0;19.9;0.0;0.0
2.0;1753873519.228364;13.698002;0.83;-1.85;-0.49;0.927079;0.347367;0.049545;142.5;0.0;0.0;18.5;0.0;0.0
2.0;1753873519.2348;13.675781;0.91;-1.75;-0.42;0.927566;0.341966;0.049654;144.0;0.0;0.0;18.0;0.0;0.0
2.0;1753873519.239409;13.659599;0.97;-1.76;-0.43;0.929221;0.338991;0.050738;142.9;0.0;0.0;19.5;0.0;0.0
2.0;1753873519.244018;13.689501;0.92;-1.79;-0.45;0.925523;0.341875;0.050372;143.2;0.0;0.0;17.5;0.0;0.0
2.0;1753873519.248627;13.675533;0.94;-1.81;-0.43;0.927809;0.346016;0.049488;147.3;0.0;0.0;19.8;0.0;0.0
2.0;1753873519.253236;13.678147;0.96;-1.67;-0.52;0.928487;0.342433;0.049889;147.2;0.0;0.0;18.8;0.0;0.0
2.0;1753873519.257844;13.658953;0.91;-1.71;-0.39;0.929169;0.338438;0.048845;143.8;0.0;0.0;19.6;0.0;0.0
2.0;1753873519.262453;13.684395;0.94;-1.68;-0.39;0.928561;0.346374;0.050986;149.8;0.0;0.0;15.1;0.0;0.0
2.0;1753873519.267062;13.693911;0.84;-1.67;-0.42;0.927273;0.34699;0.049369;144.3;0.0;0.0;20.5;0.0;0.0
2.0;1753873519.271671;13.649238;0.92;-1.74;-0.42;0.929561;0.338507;0.049695;144.8;0.0;0.0;18.6;0.0;0.0
2.0;1753873519.27628;13.689627;0.88;-1.87;-0.46;0.927777;0.345831;0.049392;144.7;0.0;0.0;16.7;0.0;0.0
2.0;1753873519.280889;13.691829;0.93;-1.8;-0.43;0.929349;0.343522;0.050848;143.3;0.0;0.0;19.8;0.0;0.0
2.0;1753873519.285498;13.671842;0.9;-1.64;-0.37;0.925644;0.344882;0.049618;147.0;0.0;0.0;21.2;0.0;0.0
2.0;1753873519.290106;13.672431;0.89;-1.83;-0.52;0.928427;0.341503;0.050773;141.5;0.0;0.0;16.2;0.0;0.0
2.0;1753873519.294716;13.641738;1.01;-1.78;-0.37;0.926148;0.342161;0.048966;142.4;0.0;0.0;19.3;0.0;0.0
2.0;1753873519.299324;13.70067;0.93;-1.74;-0.42;0.927467;0.341582;0.051389;144.5;0.0;0.0;15.4;0.0;0.0
2.0;1753873519.303933;13.669605;0.99;-1.78;-0.41;0.929363;0.343206;0.049034;141.3;0.0;0.0;17.6;0.0;0.0
2.0;1753873519.308542;13.660758;0.93;-1.81;-0.45;0.929278;0.340815;0.050869;141.6;0.0;0.0;19.3;0.0;0.0
2.0;1753873519.313151;13.683518;0.94;-1.75;-0.41;0.92723;0.340269;0.050206;144.7;0.0;0.0;21.0;0.0;0.0
2.0;1753873519.31776;13.643052;0.97;-1.68;-0.47;0.92707;0.34052;0.04977;148.3;0.0;0.0;15.8;0.0;0.0
2.0;1753873519.322368;13.685271;0.84;-1.69;-0.45;0.927298;0.340854;0.049291;139.5;0.0;0.0;18.8;0.0;0.0
2.0;1753873519.326978;13.682624;0.83;-1.73;-0.36;0.930172;0.340379;0.051922;150.0;0.0;0.0;19.3;0.0;0.0
2.0;1753873519.331586;13.686633;0.94;-1.77;-0.4;0.927124;0.341708;0.049383;140.0;0.0;0.0;19.2;0.0;0.0
2.0;1753873519.336195;13.681155;0.97;-1.81;-0.43;0.927747;0.339202;0.04911;143.9;0.0;0.0;17.3;0.0;0.0
2.0;1753873519.340804;13.662976;0.95;-1.75;-0.36;0.926425;0.34308;0.050528;141.2;0.0;0.0;22.0;0.0;0.0
2.0;1753873519.345413;13.646871;0.89;-1.72;-0.34;0.930951;0.340505;0.049538;147.0;0.0;0.0;20.8;0.0;0.0
2.0;1753873519.350022;13.671076;0.98;-1.75;-0.48;0.928194;0.343475;0.050431;140.3;0.0;0.0;17.4;0.0;0.0
2.0;1753873519.354631;13.689967;0.9;-1.84;-0.5;0.925744;0.340317;0.049127;144.9;0.0;0.0;21.0;0.0;0.0
2.0;1753873519.35924;13.676698;0.93;-1.71;-0.44;0.926995;0.33953;0.050005;153.7;0.0;0.0;19.6;0.0;0.0
2.0;1753873519.363848;13.686326;0.9;-1.77;-0.32;0.927976;0.341554;0.050311;141.7;0.0;0.0;17.1;0.0;0.0
2.0;1753873519.368457;13.672153;0.97;-1.68;-0.33;0.931036;0.341359;0.049781;144.7;0.0;0.0;19.3;0.0;0.0
2.0;1753873519.373066;13.674712;0.91;-1.76;-0.44;0.932185;0.341594;0.049329;144.2;0.0;0.0;14.2;0.0;0.0
2.0;1753873519.377675;13.653616;0.98;-1.69;-0.45;0.92924;0.343344;0.051198;140.3;0.0;0.0;13.9;0.0;0.0
2.0;1753873519.382284;13.666138;0.88;-1.85;-0.43;0.929436;0.341514;0.050564;141.4;0.0;0.0;17.0;0.0;0.0
2.0;1753873519.386893;13.659883;0.94;-1.71;-0.38;0.929563;0.342675;0.048953;141.8;0.0;0.0;17.2;0.0;0.0
2.0;1753873519.391502;13.664803;0.84;-1.88;-0.34;0.928867;0.341393;0.050765;147.5;0.0;0.0;18.8;0.0;0.0
2.0;1753873519.39611;13.672295;0.93;-1.66;-0.38;0.927424;0.339639;0.048967;147.8;0.0;0.0;20.4;0.0;0.0
2.0;1753873519.40072;13.653856;0.94;-1.71;-0.43;0.92935;0.338453;0.052027;146.6;0.0;0.0;18.1;0.0;0.0
2.0;1753873519.405328;13.689425;0.97;-1.76;-0.44;0.929958;0.343783;0.050609;150.5;0.0;0.0;16.5;0.0;0.0
2.0;1753873519.409937;13.686213;0.93;-1.56;-0.36;0.929167;0.343472;0.048922;144.2;0.0;0.0;17.6;0.0;0.0
2.0;1753873519.414546;13.686746;0.98;-1.67;-0.47;0.928739;0.340439;0.049104;142.8;0.0;0.0;22.3;0.0;0.0
2.0;1753873519.419155;13.721583;0.89;-1.71;-0.36;0.927763;0.34136;0.050167;141.7;0.0;0.0;15.0;0.0;0.0
2.0;1753873519.423764;13.688975;0.98;-1.77;-0.46;0.92783;0.343381;0.049541;146.8;0.0;0.0;16.8;0.0;0.0
2.0;1753873519.428372;13.670948;0.98;-1.72;-0.39;0.929532;0.341975;0.050755;141.1;0.0;0.0;19.3;0.0;0.0
2.0;1753873519.432982;13.660216;1.0;-1.7;-0.29;0.930677;0.340409;0.048806;142.6;0.0;0.0;20.5;0.0;0.0
2.0;1753873519.43759;13.686169;0.94;-1.69;-0.42;0.930956;0.341458;0.050243;146.6;0.0;0.0;18.3;0.0;0.0
2.0;1753873519.442199;13.675527;0.92;-1.86;-0.39;0.928312;0.340025;0.049664;143.2;0.0;0.0;15.3;0.0;0.0
2.0;1753873519.446808;13.661979;0.96;-1.68;-0.32;0.927363;0.341465;0.049225;141.4;0.0;0.0;19.5;0.0;0.0
2.0;1753873519.451417;13.680884;0.8;-1.75;-0.48;0.927942;0.338613;0.049858;144.3;0.0;0.0;14.8;0.0;0.0
2.0;1753873519.456026;13.692615;0.94;-1.82;-0.46;0.927331;0.341846;0.049375;146.3;0.0;0.0;16.7;0.0;0.0
2.0;1753873519.460635;13.693632;0.97;-1.69;-0.34;0.929141;0.34426;0.048852;139.0;0.0;0.0;18.8;0.0;0.0
2.0;1753873519.465244;13.674639;0.97;-1.67;-0.42;0.932079;0.341686;0.050921;146.1;0.0;0.0;17.5;0.0;0.0
2.0;1753873519.469852;13.676409;0.95;-1.72;-0.36;0.929211;0.340879;0.048389;143.3;0.0;0.0;16.9;0.0;0.0
2.0;1753873519.474461;13.679601;0.95;-1.79;-0.41;0.930571;0.342386;0.049453;140.7;0.0;0.0;20.4;0.0;0.0
2.0;1753873519.47907;13.683348;0.99;-1.78;-0.41;0.928154;0.33793;0.050875;142.7;0.0;0.0;20.3;0.0;0.0
2.0;1753873519.483679;13.675617;0.91;-1.76;-0.35;0.930105;0.340335;0.048592;144.5;0.0;0.0;20.2;0.0;0.0
2.0;1753873519.488288;13.681793;1.0;-1.75;-0.38;0.925246;0.336283;0.049898;149.3;0.0;0.0;17.7;0.0;0.0
2.0;1753873519.492897;13.669327;0.94;-1.7;-0.38;0.930514;0.341411;0.049246;142.0;0.0;0.0;17.0;0.0;0.0
2.0;1753873519.497506;13.667342;1.02;-1.72;-0.51;0.928517;0.339899;0.049827;141.5;0.0;0.0;17.2;0.0;0.0
2.0;1753873519.502114;13.664958;0.93;-1.59;-0.39;0.927747;0.337473;0.051086;144.0;0.0;0.0;17.9;0.0;0.0
2.0;1753873519.506724;13.666334;1.06;-1.72;-0.36;0.927491;0.340161;0.049647;142.4;0.0;0.0;18.1;0.0;0.0
2.0;1753873519.511332;13.696751;0.83;-1.75;-0.37;0.931263;0.338641;0.050378;146.6;0.0;0.0;19.4;0.0;0.0
2.0;1753873519.515941;13.687794;0.87;-1.7;-0.4;0.931175;0.339684;0.050013;139.2;0.0;0.0;19.9;0.0;0.0
2.0;1753873519.52055;13.692738;1.0;-1.79;-0.28;0.929578;0.338477;0.050082;149.8;0.0;0.0;18.4;0.0;0.0
2.0;1753873519.525159;13.685423;1.01;-1.67;-0.35;0.929509;0.342985;0.049898;144.7;0.0;0.0;15.6;0.0;0.0
2.0;1753873519.529768;13.681658;0.99;-1.7;-0.38;0.931857;0.340155;0.049912;145.7;0.0;0.0;17.4;0.0;0.0
2.0;1753873519.534376;13.684327;0.99;-1.66;-0.4;0.929269;0.341341;0.050531;143.3;0.0;0.0;18.4;0.0;0.0
2.0;1753873519.538986;13.641929;0.99;-1.64;-0.45;0.928519;0.336264;0.049646;142.3;0.0;0.0;17.5;0.0;0.0
2.0;1753873519.543594;13.642177;0.92;-1.68;-0.41;0.928963;0.340681;0.050312;143.7;0.0;0.0;16.1;0.0;0.0
2.0;1753873519.548203;13.677412;1.05;-1.77;-0.44;0.929744;0.338884;0.050445;141.7;0.0;0.0;15.6;0.0;0.0
2.0;1753873519.552812;13.680928;0.97;-1.8;-0.43;0.928169;0.339997;0.049829;147.4;0.0;0.0;19.5;0.0;0.0
2.0;1753873519.557421;13.697268;1.0;-1.69;-0.43;0.93041;0.338799;0.049889;142.2;0.0;0.0;18.7;0.0;0.0
2.0;1753873519.56203;13.674694;1.07;-1.73;-0.42;0.929452;0.338156;0.049049;143.7;0.0;0.0;17.8;0.0;0.0
2.0;1753873519.566639;13.682375;0.92;-1.71;-0.39;0.928935;0.342888;0.048848;147.7;0.0;0.0;19.7;0.0;0.0
2.0;1753873519.571248;13.681649;0.93;-1.83;-0.35;0.92955;0.340089;0.050334;142.2;0.0;0.0;19.3;0.0;0.0
2.0;1753873519.575856;13.669042;0.92;-1.67;-0.45;0.928612;0.336078;0.050187;143.4;0.0;0.0;19.7;0.0;0.0
2.0;1753873519.580465;13.697755;0.99;-1.6;-0.42;0.93014;0.339717;0.050117;144.3;0.0;0.0;20.8;0.0;0.0
2.0;1753873519.585074;13.691182;1.0;-1.72;-0.39;0.931392;0.339252;0.049001;149.1;0.0;0.0;18.6;0.0;0.0
2.0;1753873519.589683;13.658769;1.03;-1.73;-0.4;0.929101;0.342558;0.049896;139.2;0.0;0.0;18.7;0.0;0.0
2.0;1753873519.594292;13.672977;1.0;-1.68;-0.43;0.929929;0.338814;0.050103;140.9;0.0;0.0;16.7;0.0;0.0
2.0;1753873519.598901;13.672689;0.99;-1.71;-0.34;0.929826;0.338666;0.050702;141.4;0.0;0.0;19.0;0.0;0.0
2.0;1753873519.60351;13.66464;0.89;-1.69;-0.33;0.929299;0.341488;0.049138;137.8;0.0;0.0;16.0;0.0;0.0
2.0;1753873519.608118;13.669984;0.99;-1.83;-0.39;0.930906;0.339449;0.050479;143.3;0.0;0.0;16.8;0.0;0.0
2.0;1753873519.612728;13.670883;0.96;-1.63;-0.31;0.931536;0.340237;0.049547;144.2;0.0;0.0;19.2;0.0;0.0
2.0;1753873519.617336;13.673532;0.86;-1.64;-0.41;0.928498;0.342326;0.049744;147.5;0.0;0.0;16.4;0.0;0.0
2.0;1753873519.621945;13.671724;0.93;-1.71;-0.25;0.931402;0.340679;0.04973;140.8;0.0;0.0;20.9;0.0;0.0
2.0;1753873519.626554;13.68244;0.98;-1.73;-0.3;0.930531;0.338221;0.050299;148.5;0.0;0.0;17.4;0.0;0.0
2.0;1753873519.631163;13.690464;1.09;-1.64;-0.37;0.932061;0.340586;0.049859;141.5;0.0;0.0;20.6;0.0;0.0
2.0;1753873519.635772;13.667399;0.91;-1.63;-0.36;0.931459;0.333664;0.05002;144.5;0.0;0.0;17.8;0.0;0.0
2.0;1753873519.64038;13.677764;0.95;-1.74;-0.33;0.930003;0.335809;0.049774;141.7;0.0;0.0;16.9;0.0;0.0
2.0;1753873519.64499;13.697596;0.93;-1.71;-0.31;0.928835;0.339864;0.050799;139.9;0.0;0.0;16.4;0.0;0.0
2.0;1753873519.649598;13.656778;0.88;-1.74;-0.41;0.930646;0.341953;0.051092;144.1;0.0;0.0;16.3;0.0;0.0
2.0;1753873519.654207;13.689506;1.02;-1.72;-0.43;0.932521;0.340199;0.051527;139.8;0.0;0.0;18.2;0.0;0.0
2.0;1753873519.658816;13.657915;1.04;-1.71;-0.36;0.929707;0.333991;0.049699;142.1;0.0;0.0;16.8;0.0;0.0
2.0;1753873519.663425;13.669874;1.03;-1.57;-0.34;0.931564;0.34141;0.050127;146.8;0.0;0.0;15.6;0.0;0.0
2.0;1753873519.668034;13.668972;1.03;-1.57;-0.31;0.931749;0.339911;0.047557;143.1;0.0;0.0;18.9;0.0;0.0
2.0;1753873519.672643;13.677142;0.94;-1.6;-0.28;0.931966;0.341574;0.049687;144.0;0.0;0.0;18.4;0.0;0.0
2.0;1753873519.677252;13.674977;1.04;-1.74;-0.39;0.928598;0.338534;0.049242;140.8;0.0;0.0;15.9;0.0;0.0
2.0;1753873519.68186;13.677891;0.99;-1.75;-0.38;0.928761;0.343541;0.04855;144.7;0.0;0.0;15.2;0.0;0.0
2.0;1753873519.686469;13.648484;1.05;-1.67;-0.38;0.931837;0.343749;0.051072;142.0;0.0;0.0;19.3;0.0;0.0
2.0;1753873519.691078;13.689001;0.97;-1.69;-0.34;0.931176;0.336769;0.050864;141.5;0.0;0.0;18.3;0.0;0.0
2.0;1753873519.695687;13.683966;0.87;-1.73;-0.48;0.929006;0.338227;0.050257;145.2;0.0;0.0;19.4;0.0;0.0
2.0;1753873519.700296;13.657361;0.99;-1.62;-0.41;0.931438;0.338492;0.049769;142.9;0.0;0.0;15.2;0.0;0.0
2.0;1753873519.704905;13.648592;0.95;-1.65;-0.41;0.931286;0.34049;0.050523;145.3;0.0;0.0;16.3;0.0;0.0
2.0;1753873519.709514;13.656316;1.03;-1.6;-0.31;0.930995;0.33656;0.048628;143.8;0.0;0.0;17.6;0.0;0.0
2.0;1753873519.714122;13.709355;0.92;-1.65;-0.27;0.930256;0.338369;0.049804;148.7;0.0;0.0;16.8;0.0;0.0
2.0;1753873519.718732;13.671004;0.96;-1.75;-0.31;0.930953;0.341599;0.051056;141.9;0.0;0.0;19.8;0.0;0.0
2.0;1753873519.72334;13.665457;0.96;-1.73;-0.3;0.931089;0.335063;0.049068;141.8;0.0;0.0;20.8;0.0;0.0
2.0;1753873519.727949;13.690366;1.03;-1.61;-0.41;0.931252;0.338197;0.049726;140.7;0.0;0.0;14.8;0.0;0.0
2.0;1753873519.732558;13.681991;1.04;-1.61;-0.4;0.927897;0.341703;0.051002;147.0;0.0;0.0;15.8;0.0;0.0
2.0;1753873519.737167;13.677785;0.98;-1.69;-0.47;0.930279;0.339009;0.049128;147.9;0.0;0.0;19.1;0.0;0.0
2.0;1753873519.741776;13.671593;0.92;-1.75;-0.34;0.933072;0.340784;0.049434;142.1;0.0;0.0;17.5;0.0;0.0
2.0;1753873519.746384;13.67697;1.02;-1.59;-0.39;0.930639;0.340924;0.048777;146.5;0.0;0.0;18.7;0.0;0.0
2.0;1753873519.750994;13.645739;1.01;-1.66;-0.33;0.92865;0.332083;0.050605;147.0;0.0;0.0;15.6;0.0;0.0
2.0;1753873519.7592;13.675781;0.98;-1.68;-0.35;0.930982;0.338794;0.050142;144.0;0.0;0.0;18.0;0.0;0.0
2.0;1753873519.763809;13.66776;1.07;-1.67;-0.45;0.928355;0.336999;0.049885;141.1;0.0;0.0;20.5;0.0;0.0
2.0;1753873519.768418;13.682962;0.94;-1.68;-0.4;0.929117;0.34227;0.04891;154.2;0.0;0.0;19.5;0.0;0.0
2.0;1753873519.773027;13.686999;1.05;-1.63;-0.28;0.930431;0.340244;0.050574;137.3;0.0;0.0;18.1;0.0;0.0
2.0;1753873519.777636;13.678609;0.9;-1.63;-0.33;0.931603;0.336937;0.050087;136.8;0.0;0.0;17.8;0.0;0.0
2.0;1753873519.782244;13.673333;1.03;-1.67;-0.28;0.927127;0.340513;0.047988;125.3;0.0;0.0;16.7;0.0;0.0
2.0;1753873519.786853;13.684049;0.81;-1.62;-0.36;0.929767;0.335775;0.048123;142.7;0.0;0.0;17.7;0.0;0.0
2.0;1753873519.791462;13.676385;0.81;-1.69;-0.33;0.926635;0.338931;0.049421;138.0;0.0;0.0;16.0;0.0;0.0
2.0;1753873519.796071;13.69396;0.82;-1.66;-0.33;0.925897;0.340416;0.049413;132.3;0.0;0.0;15.7;0.0;0.0
2.0;1753873519.80292;13.6875;0.84;-1.68;-0.35;0.927688;0.341356;0.048678;130.0;0.0;0.0;17.0;0.0;0.0
2.0;1753873519.807529;13.686789;0.9;-1.67;-0.35;0.928116;0.341917;0.048283;130.8;0.0;0.0;19.4;0.0;0.0
2.0;1753873519.812138;13.688371;0.82;-1.71;-0.34;0.928727;0.342999;0.048991;135.7;0.0;0.0;16.4;0.0;0.0
2.0;1753873519.816747;13.687672;0.87;-1.72;-0.36;0.926505;0.336539;0.049022;130.3;0.0;0.0;16.1;0.0;0.0
2.0;1753873519.821356;13.683385;0.83;-1.64;-0.2;0.927389;0.340625;0.047741;130.7;0.0;0.0;17.3;0.0;0.0
2.0;1753873519.825964;13.676718;0.95;-1.65;-0.33;0.927875;0.339505;0.048951;129.7;0.0;0.0;18.6;0.0;0.0
2.0;1753873519.830573;13.6855;0.91;-1.62;-0.35;0.926417;0.342681;0.048684;134.7;0.0;0.0;14.8;0.0;0.0
2.0;1753873519.835182;13.686557;0.93;-1.67;-0.24;0.927056;0.340004;0.048115;133.7;0.0;0.0;18.2;0.0;0.0
2.0;1753873519.839791;13.704674;0.91;-1.62;-0.32;0.928615;0.343605;0.049437;131.4;0.0;0.0;16.0;0.0;0.0
2.0;1753873519.84595;13.6875;0.98;-1.61;-0.28;0.927688;0.341356;0.048678;130.0;0.0;0.0;17.0;0.0;0.0
2.0;1753873519.850559;13.696824;0.99;-1.6;-0.35;0.927354;0.34162;0.049584;125.4;0.0;0.0;17.7;0.0;0.0
2.0;1753873519.855168;13.690858;0.88;-1.63;-0.25;0.927487;0.339591;0.049009;129.7;0.0;0.0;18.6;0.0;0.0
2.0;1753873519.859776;13.689798;1.01;-1.73;-0.34;0.927487;0.339033;0.048794;135.9;0.0;0.0;15.8;0.0;0.0
2.0;1753873519.864385;13.689404;0.93;-1.63;-0.31;0.928202;0.343262;0.04863;112.4;0.0;0.0;17.4;0.0;0.0
2.0;1753873519.868994;13.692631;1.05;-1.73;-0.2;0.928604;0.339455;0.047964;126.2;0.0;0.0;20.4;0.0;0.0
2.0;1753873519.873603;13.677056;0.93;-1.63;-0.3;0.927664;0.344431;0.04925;133.5;0.0;0.0;16.2;0.0;0.0
2.0;1753873519.878212;13.69168;1.0;-1.68;-0.27;0.928778;0.343456;0.048594;128.2;0.0;0.0;17.0;0.0;0.0
2.0;1753873519.882821;13.683454;0.99;-1.57;-0.21;0.928296;0.342461;0.049306;127.1;0.0;0.0;17.9;0.0;0.0
2.0;1753873519.88743;13.688266;1.07;-1.69;-0.33;0.929826;0.34102;0.049075;136.3;0.0;0.0;16.0;0.0;0.0
2.0;1753873519.892038;13.685639;0.96;-1.58;-0.27;0.924227;0.34265;0.049533;134.0;0.0;0.0;18.5;0.0;0.0
2.0;1753873519.896648;13.687252;1.0;-1.71;-0.29;0.927549;0.344578;0.048386;140.6;0.0;0.0;16.4;0.0;0.0
2.0;1753873519.901256;13.693728;1.0;-1.68;-0.22;0.926934;0.339059;0.046522;128.1;0.0;0.0;15.7;0.0;0.0
2.0;1753873519.905865;13.667303;1.02;-1.62;-0.28;0.928823;0.339749;0.049321;125.2;0.0;0.0;16.5;0.0;0.0
2.0;1753873519.910474;13.682177;1.02;-1.78;-0.27;0.927601;0.341877;0.047743;116.5;0.0;0.0;15.5;0.0;0.0
2.0;1753873519.915083;13.682507;1.0;-1.74;-0.22;0.930973;0.341749;0.049678;122.7;0.0;0.0;16.9;0.0;0.0
2.0;1753873519.919692;13.688725;1.07;-1.75;-0.29;0.930988;0.339323;0.048509;130.6;0.0;0.0;20.4;0.0;0.0
2.0;1753873519.924301;13.693239;1.08;-1.72;-0.29;0.929265;0.343201;0.04852;131.7;0.0;0.0;16.1;0.0;0.0
2.0;1753873519.92891;13.699066;1.03;-1.8;-0.39;0.931661;0.339003;0.04922;128.6;0.0;0.0;17.5;0.0;0.0
2.0;1753873519.933518;13.707305;1.02;-1.82;-0.37;0.928311;0.339129;0.049026;134.4;0.0;0.0;17.2;0.0;0.0
2.0;1753873519.94164;13.6875;1.05;-1.75;-0.35;0.930494;0.34099;0.0488;130.0;0.0;0.0;17.0;0.0;0.0
2.0;1753873519.945797;13.691406;0.84;-1.75;-0.28;0.928664;0.341112;0.049654;143.0;0.0;0.0;18.0;0.0;0.0
2.0;1753873519.954329;13.691406;0.98;-1.68;-0.28;0.930128;0.337086;0.050752;148.0;0.0;0.0;19.0;0.0;0.0
2.0;1753873519.95822;13.691406;0.98;-1.68;-0.21;0.926468;0.344406;0.04758;148.0;0.0;0.0;19.0;0.0;0.0
2.0;1753873519.962998;13.667969;0.98;-1.68;-0.35;0.930372;0.337086;0.050264;148.0;0.0;0.0;19.0;0.0;0.0
2.0;1753873519.967389;13.667969;0.91;-1.61;-0.35;0.928054;0.342454;0.049654;148.0;0.0;0.0;19.0;0.0;0.0
2.0;1753873519.971954;13.667969;1.05;-1.68;-0.35;0.930128;0.33855;0.049532;148.0;0.0;0.0;19.0;0.0;0.0
2.0;1753873519.979806;13.667969;0.98;-1.68;-0.28;0.927322;0.344284;0.047946;148.0;0.0;0.0;19.0;0.0;0.0
2.0;1753873519.981061;13.714844;0.91;-1.61;-0.35;0.931714;0.335256;0.05002;148.0;0.0;0.0;19.0;0.0;0.0
2.0;1753873519.985638;13.714844;0.98;-1.61;-0.28;0.925614;0.345382;0.047946;148.0;0.0;0.0;19.0;0.0;0.0
2.0;1753873519.991192;13.714844;0.98;-1.61;-0.28;0.925614;0.345382;0.047946;148.0;0.0;0.0;19.0;0.0;0.0
2.0;1753873519.994783;13.714844;1.05;-1.61;-0.35;0.929274;0.341356;0.048068;148.0;0.0;0.0;19.0;0.0;0.0
2.0;1753873519.999392;13.713641;1.21;-1.6;-0.38;0.928723;0.339934;0.045547;147.8;0.0;0.0;18.7;0.0;0.0
2.0;1753873520.004001;13.711359;1.07;-1.59;-0.36;0.928976;0.343782;0.049227;147.8;0.0;0.0;18.9;0.0;0.0
2.0;1753873520.00861;13.735542;0.99;-1.61;-0.38;0.929487;0.336842;0.048555;146.6;0.0;0.0;19.1;0.0;0.0
2.0;1753873520.013218;13.720506;1.12;-1.66;-0.35;0.928523;0.336794;0.047167;148.5;0.0;0.0;18.5;0.0;0.0
2.0;1753873520.017827;13.719907;1.11;-1.61;-0.38;0.927954;0.33639;0.047402;147.3;0.0;0.0;19.2;0.0;0.0
2.0;1753873520.022436;13.722951;1.01;-1.6;-0.4;0.927216;0.340087;0.050097;151.1;0.0;0.0;19.1;0.0;0.0
2.0;1753873520.027045;13.702132;1.05;-1.57;-0.34;0.927436;0.341475;0.048685;150.1;0.0;0.0;18.7;0.0;0.0
2.0;1753873520.031654;13.705728;1.02;-1.59;-0.22;0.928871;0.337944;0.050524;144.7;0.0;0.0;19.3;0.0;0.0
2.0;1753873520.036263;13.73905;0.96;-1.66;-0.36;0.92648;0.339849;0.048429;146.0;0.0;0.0;18.7;0.0;0.0
2.0;1753873520.040872;13.688288;1.13;-1.58;-0.39;0.928996;0.342102;0.047572;146.4;0.0;0.0;19.8;0.0;0.0
2.0;1753873520.04548;13.711957;1.01;-1.59;-0.35;0.928142;0.337749;0.048115;143.6;0.0;0.0;19.8;0.0;0.0
2.0;1753873520.050089;13.723682;1.01;-1.62;-0.43;0.934635;0.336793;0.046733;148.7;0.0;0.0;17.9;0.0;0.0
2.0;1753873520.054698;13.674514;1.09;-1.57;-0.23;0.930417;0.345296;0.047355;144.1;0.0;0.0;19.0;0.0;0.0
2.0;1753873520.059307;13.661307;1.05;-1.62;-0.36;0.929408;0.342404;0.047855;149.5;0.0;0.0;18.7;0.0;0.0
2.0;1753873520.063916;13.727765;1.1;-1.58;-0.33;0.930684;0.337808;0.048397;142.0;0.0;0.0;19.0;0.0;0.0
2.0;1753873520.068525;13.713182;1.07;-1.63;-0.36;0.928089;0.344689;0.048895;146.7;0.0;0.0;18.1;0.0;0.0
2.0;1753873520.073134;13.722184;1.11;-1.62;-0.45;0.930172;0.339215;0.049624;142.7;0.0;0.0;19.9;0.0;0.0
2.0;1753873520.077742;13.71211;0.96;-1.59;-0.39;0.928379;0.344594;0.049456;144.3;0.0;0.0;19.3;0.0;0.0
2.0;1753873520.082352;13.693468;1.14;-1.64;-0.34;0.930471;0.342696;0.048305;144.3;0.0;0.0;19.1;0.0;0.0
2.0;1753873520.08696;13.687568;1.05;-1.58;-0.39;0.928117;0.341198;0.048061;142.7;0.0;0.0;19.0;0.0;0.0
2.0;1753873520.091569;13.710025;1.06;-1.6;-0.42;0.928336;0.339349;0.04758;143.8;0.0;0.0;19.8;0.0;0.0
2.0;1753873520.096178;13.661131;0.99;-1.64;-0.29;0.930507;0.338194;0.049765;142.0;0.0;0.0;19.1;0.0;0.0
2.0;1753873520.100787;13.705028;0.92;-1.66;-0.28;0.927468;0.339913;0.048108;151.3;0.0;0.0;18.9;0.0;0.0
2.0;1753873520.105396;13.70742;1.07;-1.57;-0.31;0.930158;0.338165;0.049536;148.5;0.0;0.0;20.8;0.0;0.0
2.0;1753873520.110005;13.724548;1.05;-1.64;-0.31;0.9274;0.340354;0.04868;139.8;0.0;0.0;18.9;0.0;0.0
2.0;1753873520.114614;13.69587;1.04;-1.57;-0.31;0.927397;0.338292;0.047266;143.7;0.0;0.0;18.8;0.0;0.0
2.0;1753873520.119222;13.675974;1.05;-1.6;-0.26;0.93102;0.3378;0.047818;146.2;0.0;0.0;19.1;0.0;0.0
2.0;1753873520.123831;13.696181;1.01;-1.62;-0.37;0.930385;0.339767;0.047971;143.1;0.0;0.0;19.2;0.0;0.0
2.0;1753873520.12844;13.697048;1.04;-1.58;-0.31;0.930011;0.342974;0.047731;143.6;0.0;0.0;18.6;0.0;0.0
2.0;1753873520.133049;13.676858;0.99;-1.56;-0.22;0.930096;0.340372;0.048113;149.8;0.0;0.0;20.3;0.0;0.0
2.0;1753873520.137658;13.65832;1.05;-1.63;-0.22;0.927744;0.341237;0.049333;144.6;0.0;0.0;18.2;0.0;0.0
2.0;1753873520.142267;13.680782;0.9;-1.54;-0.35;0.928148;0.34196;0.048681;148.7;0.0;0.0;20.0;0.0;0.0
2.0;1753873520.146876;13.679788;1.07;-1.46;-0.29;0.928755;0.341361;0.050506;146.1;0.0;0.0;18.9;0.0;0.0
2.0;1753873520.151484;13.691738;0.96;-1.59;-0.3;0.928194;0.345272;0.048039;144.4;0.0;0.0;20.4;0.0;0.0
2.0;1753873520.156093;13.717286;1.14;-1.65;-0.29;0.929536;0.339217;0.050578;142.5;0.0;0.0;20.2;0.0;0.0
2.0;1753873520.160702;13.658931;1.04;-1.6;-0.26;0.929584;0.338989;0.04972;147.0;0.0;0.0;18.8;0.0;0.0
2.0;1753873520.165311;13.661205;1.04;-1.54;-0.29;0.928453;0.342921;0.048178;139.5;0.0;0.0;18.8;0.0;0.0
2.0;1753873520.16992;13.671915;0.91;-1.43;-0.32;0.931421;0.341714;0.048316;145.5;0.0;0.0;19.0;0.0;0.0
2.0;1753873520.174529;13.693369;1.0;-1.57;-0.33;0.929625;0.345863;0.049566;139.1;0.0;0.0;19.7;0.0;0.0
2.0;1753873520.179138;13.643234;0.91;-1.65;-0.4;0.927729;0.337568;0.048608;143.3;0.0;0.0;20.0;0.0;0.0
2.0;1753873520.183746;13.704873;0.91;-1.71;-0.3;0.928799;0.337754;0.048274;144.2;0.0;0.0;18.7;0.0;0.0
2.0;1753873520.188356;13.660526;0.96;-1.55;-0.35;0.925549;0.339629;0.048738;141.4;0.0;0.0;19.9;0.0;0.0
2.0;1753873520.192964;13.683172;0.88;-1.62;-0.33;0.926865;0.338454;0.050476;149.0;0.0;0.0;20.0;0.0;0.0
2.0;1753873520.197573;13.656116;1.07;-1.54;-0.27;0.92789;0.34067;0.049193;136.6;0.0;0.0;20.2;0.0;0.0
2.0;1753873520.202182;13.671296;1.01;-1.58;-0.36;0.931565;0.339513;0.047842;138.3;0.0;0.0;19.7;0.0;0.0
2.0;1753873520.206791;13.664277;0.93;-1.57;-0.33;0.929978;0.338116;0.048205;142.2;0.0;0.0;20.3;0.0;0.0
2.0;1753873520.2114;13.652408;0.95;-1.6;-0.38;0.928911;0.339494;0.051589;142.7;0.0;0.0;20.1;0.0;0.0
2.0;1753873520.216009;13.698323;0.96;-1.54;-0.28;0.92748;0.346409;0.049628;141.6;0.0;0.0;20.2;0.0;0.0
2.0;1753873520.220618;13.681994;1.06;-1.56;-0.26;0.931219;0.341854;0.049772;137.7;0.0;0.0;19.9;0.0;0.0
2.0;1753873520.225226;13.671821;0.95;-1.53;-0.3;0.928996;0.339282;0.047802;144.9;0.0;0.0;19.9;0.0;0.0
2.0;1753873520.229835;13.640718;0.91;-1.46;-0.39;0.928076;0.33845;0.049531;142.0;0.0;0.0;19.2;0.0;0.0
2.0;1753873520.234444;13.642518;1.05;-1.57;-0.23;0.927396;0.339082;0.048771;149.4;0.0;0.0;20.7;0.0;0.0
2.0;1753873520.239053;13.66735;1.01;-1.52;-0.34;0.930102;0.347182;0.049146;145.6;0.0;0.0;20.1;0.0;0.0
2.0;1753873520.243662;13.615552;1.12;-1.53;-0.29;0.928533;0.33704;0.049887;142.2;0.0;0.0;19.3;0.0;0.0
2.0;1753873520.248271;13.634991;0.91;-1.52;-0.29;0.928695;0.335897;0.050083;140.6;0.0;0.0;19.8;0.0;0.0
2.0;1753873520.25288;13.676378;0.98;-1.61;-0.17;0.927098;0.336235;0.048694;140.9;0.0;0.0;20.1;0.0;0.0
2.0;1753873520.257488;13.663742;0.95;-1.56;-0.32;0.925695;0.34081;0.048141;143.6;0.0;0.0;20.1;0.0;0.0
2.0;1753873520.262097;13.677009;1.02;-1.59;-0.22;0.929642;0.335726;0.049792;146.4;0.0;0.0;20.4;0.0;0.0
2.0;1753873520.266706;13.652349;0.92;-1.57;-0.35;0.926702;0.34526;0.048587;144.8;0.0;0.0;20.6;0.0;0.0
2.0;1753873520.271315;13.658291;1.0;-1.48;-0.33;0.928474;0.343896;0.049458;136.8;0.0;0.0;19.6;0.0;0.0
2.0;1753873520.275924;13.683572;0.91;-1.57;-0.21;0.927012;0.343971;0.050561;141.7;0.0;0.0;21.2;0.0;0.0
2.0;1753873520.280533;13.642345;1.04;-1.54;-0.33;0.929671;0.341016;0.050156;140.9;0.0;0.0;20.6;0.0;0.0
2.0;1753873520.285142;13.627319;0.95;-1.6;-0.16;0.927859;0.341378;0.05008;138.8;0.0;0.0;19.1;0.0;0.0
2.0;1753873520.28975;13.616218;1.03;-1.56;-0.13;0.928733;0.340403;0.050328;138.5;0.0;0.0;19.2;0.0;0.0
2.0;1753873520.29436;13.613386;1.04;-1.48;-0.39;0.928009;0.338418;0.048758;141.9;0.0;0.0;20.3;0.0;0.0
2.0;1753873520.298968;13.657364;0.97;-1.57;-0.33;0.924584;0.334878;0.047899;143.5;0.0;0.0;19.5;0.0;0.0
2.0;1753873520.3036;13.652344;0.98;-1.54;-0.28;0.928298;0.339526;0.049654;140.0;0.0;0.0;20.0;0.0;0.0
2.0;1753873520.308209;13.688217;0.93;-1.52;-0.33;0.928387;0.341205;0.04966;145.7;0.0;0.0;19.8;0.0;0.0
2.0;1753873520.312818;13.637187;0.98;-1.57;-0.39;0.92761;0.340018;0.049164;141.9;0.0;0.0;19.4;0.0;0.0
2.0;1753873520.317427;13.647003;1.08;-1.54;-0.33;0.926461;0.339449;0.049686;143.2;0.0;0.0;19.6;0.0;0.0
2.0;1753873520.322036;13.676893;0.91;-1.49;-0.34;0.929392;0.340641;0.049227;144.1;0.0;0.0;21.0;0.0;0.0
2.0;1753873520.326644;13.64256;1.11;-1.61;-0.26;0.926734;0.342148;0.049461;139.2;0.0;0.0;19.7;0.0;0.0
2.0;1753873520.331253;13.67019;0.9;-1.56;-0.31;0.928793;0.337676;0.048551;142.1;0.0;0.0;20.9;0.0;0.0
2.0;1753873520.335862;13.671405;1.0;-1.63;-0.26;0.927909;0.336525;0.048151;140.6;0.0;0.0;20.1;0.0;0.0
2.0;1753873520.340471;13.639205;0.98;-1.56;-0.34;0.927731;0.340064;0.049125;139.7;0.0;0.0;20.5;0.0;0.0
2.0;1753873520.34508;13.631997;0.92;-1.6;-0.29;0.925359;0.339868;0.047641;138.5;0.0;0.0;19.8;0.0;0.0
2.0;1753873520.349689;13.638837;1.01;-1.61;-0.29;0.926664;0.336818;0.050132;140.5;0.0;0.0;20.1;0.0;0.0
2.0;1753873520.354298;13.66928;1.02;-1.51;-0.39;0.929019;0.338529;0.048706;141.5;0.0;0.0;19.5;0.0;0.0
2.0;1753873520.358906;13.663591;0.92;-1.62;-0.43;0.929268;0.336324;0.050156;140.6;0.0;0.0;21.0;0.0;0.0
2.0;1753873520.363516;13.663518;0.92;-1.54;-0.41;0.929537;0.344516;0.050015;135.4;0.0;0.0;19.7;0.0;0.0
2.0;1753873520.368124;13.629987;1.01;-1.68;-0.34;0.923676;0.341237;0.049113;141.5;0.0;0.0;21.2;0.0;0.0
2.0;1753873520.372733;13.699533;0.99;-1.59;-0.27;0.928156;0.339252;0.048905;145.6;0.0;0.0;20.9;0.0;0.0
2.0;1753873520.377342;13.662045;0.92;-1.62;-0.28;0.927643;0.339917;0.046419;140.2;0.0;0.0;19.6;0.0;0.0
2.0;1753873520.381951;13.671637;0.97;-1.67;-0.37;0.926401;0.342641;0.048642;139.3;0.0;0.0;19.5;0.0;0.0
2.0;1753873520.38656;13.649731;0.89;-1.67;-0.33;0.927333;0.341747;0.047514;135.9;0.0;0.0;21.0;0.0;0.0
2.0;1753873520.393;13.652344;0.98;-1.61;-0.35;0.927688;0.340136;0.048678;140.0;0.0;0.0;20.0;0.0;0.0
2.0;1753873520.397609;13.655888;1.0;-1.67;-0.43;0.92875;0.339173;0.048521;141.1;0.0;0.0;19.7;0.0;0.0
2.0;1753873520.402218;13.643257;1.02;-1.59;-0.39;0.930551;0.338228;0.048083;134.9;0.0;0.0;20.0;0.0;0.0
2.0;1753873520.406826;13.674783;1.01;-1.58;-0.41;0.92702;0.33191;0.048263;141.1;0.0;0.0;20.6;0.0;0.0
2.0;1753873520.411435;13.650401;0.99;-1.7;-0.34;0.926998;0.337516;0.049099;139.3;0.0;0.0;18.7;0.0;0.0
2.0;1753873520.416044;13.64336;0.87;-1.61;-0.33;0.927909;0.335994;0.048871;145.7;0.0;0.0;20.8;0.0;0.0
2.0;1753873520.420653;13.632339;1.07;-1.76;-0.41;0.924789;0.347089;0.05118;141.1;0.0;0.0;20.2;0.0;0.0
2.0;1753873520.425262;13.68193;0.92;-1.61;-0.24;0.927512;0.336907;0.048964;136.4;0.0;0.0;20.0;0.0;0.0
2.0;1753873520.429871;13.678354;0.98;-1.61;-0.32;0.927116;0.340606;0.047337;139.3;0.0;0.0;20.8;0.0;0.0
2.0;1753873520.43448;13.627009;0.95;-1.64;-0.29;0.928721;0.341397;0.050421;148.7;0.0;0.0;19.7;0.0;0.0
2.0;1753873520.439088;13.633363;1.01;-1.6;-0.28;0.926565;0.342405;0.049699;137.1;0.0;0.0;19.7;0.0;0.0
2.0;1753873520.443698;13.638655;0.97;-1.55;-0.31;0.929259;0.336609;0.047641;137.3;0.0;0.0;21.8;0.0;0.0
2.0;1753873520.448306;13.660825;0.95;-1.56;-0.26;0.928332;0.339214;0.047369;143.1;0.0;0.0;20.4;0.0;0.0
2.0;1753873520.452915;13.649957;1.0;-1.57;-0.37;0.929239;0.342496;0.049709;142.1;0.0;0.0;20.0;0.0;0.0
2.0;1753873520.457524;13.639402;0.96;-1.57;-0.3;0.928548;0.347263;0.047895;141.0;0.0;0.0;19.3;0.0;0.0
2.0;1753873520.462133;13.63909;0.96;-1.69;-0.37;0.928908;0.344904;0.049623;139.3;0.0;0.0;20.9;0.0;0.0
2.0;1753873520.466742;13.62042;1.05;-1.65;-0.41;0.927136;0.340021;0.048299;140.9;0.0;0.0;19.2;0.0;0.0
2.0;1753873520.471351;13.661423;0.92;-1.58;-0.34;0.929525;0.345792;0.047597;141.2;0.0;0.0;20.1;0.0;0.0
2.0;1753873520.47596;13.683183;0.93;-1.62;-0.31;0.929397;0.337265;0.047301;136.6;0.0;0.0;19.8;0.0;0.0
2.0;1753873520.480568;13.687052;0.89;-1.56;-0.34;0.926984;0.338483;0.050578;141.5;0.0;0.0;21.2;0.0;0.0
2.0;1753873520.485177;13.630494;0.91;-1.52;-0.4;0.925936;0.344031;0.047792;144.5;0.0;0.0;20.6;0.0;0.0
2.0;1753873520.489786;13.671225;0.96;-1.58;-0.42;0.930133;0.344654;0.049671;136.8;0.0;0.0;20.7;0.0;0.0
2.0;1753873520.494395;13.644521;0.9;-1.6;-0.39;0.927133;0.338429;0.047713;142.3;0.0;0.0;19.5;0.0;0.0
2.0;1753873520.499004;13.630242;0.98;-1.71;-0.41;0.931797;0.33566;0.047802;138.5;0.0;0.0;20.7;0.0;0.0
2.0;1753873520.503613;13.693046;0.99;-1.62;-0.4;0.928491;0.338174;0.048578;141.1;0.0;0.0;20.7;0.0;0.0
2.0;1753873520.508222;13.636138;1.05;-1.66;-0.42;0.92539;0.340499;0.046308;139.1;0.0;0.0;20.4;0.0;0.0
2.0;1753873520.51283;13.68203;0.98;-1.61;-0.34;0.926187;0.342638;0.04898;139.6;0.0;0.0;19.9;0.0;0.0
2.0;1753873520.517439;13.687451;0.95;-1.61;-0.39;0.92825;0.339564;0.050174;146.4;0.0;0.0;19.5;0.0;0.0
2.0;1753873520.522048;13.653226;1.01;-1.61;-0.41;0.930958;0.342609;0.049236;135.7;0.0;0.0;20.3;0.0;0.0
2.0;1753873520.526657;13.625039;1.04;-1.62;-0.29;0.92842;0.33805;0.047236;138.9;0.0;0.0;20.2;0.0;0.0
2.0;1753873520.531266;13.636718;0.96;-1.6;-0.37;0.926197;0.343158;0.050263;137.6;0.0;0.0;20.2;0.0;0.0
2.0;1753873520.535875;13.64977;0.97;-1.59;-0.31;0.929366;0.339957;0.049697;140.2;0.0;0.0;18.3;0.0;0.0
2.0;1753873520.540484;13.646514;0.99;-1.63;-0.43;0.928948;0.341304;0.050084;137.8;0.0;0.0;19.4;0.0;0.0
2.0;1753873520.545092;13.636312;1.0;-1.56;-0.35;0.929927;0.340077;0.045787;142.6;0.0;0.0;20.0;0.0;0.0
2.0;1753873520.549702;13.658844;0.94;-1.69;-0.37;0.929047;0.334988;0.049031;139.1;0.0;0.0;19.5;0.0;0.0
2.0;1753873520.55431;13.702349;1.08;-1.6;-0.27;0.929126;0.341013;0.047538;136.8;0.0;0.0;20.3;0.0;0.0
2.0;1753873520.558919;13.611948;1.03;-1.63;-0.37;0.929964;0.344042;0.048449;138.5;0.0;0.0;20.8;0.0;0.0
2.0;1753873520.563528;13.644569;1.02;-1.65;-0.34;0.928929;0.33779;0.047407;137.6;0.0;0.0;19.1;0.0;0.0
2.0;1753873520.568137;13.62974;0.93;-1.63;-0.44;0.930268;0.334563;0.048653;140.4;0.0;0.0;20.8;0.0;0.0
2.0;1753873520.572746;13.678768;1.04;-1.59;-0.46;0.928544;0.343907;0.048277;133.7;0.0;0.0;20.6;0.0;0.0
2.0;1753873520.577355;13.60607;1.01;-1.56;-0.37;0.931818;0.340246;0.048698;145.2;0.0;0.0;20.0;0.0;0.0
2.0;1753873520.581964;13.618921;0.92;-1.61;-0.27;0.927276;0.342193;0.049092;136.0;0.0;0.0;20.0;0.0;0.0
2.0;1753873520.586572;13.639052;1.02;-1.55;-0.3;0.927291;0.343842;0.048058;148.0;0.0;0.0;19.8;0.0;0.0
2.0;1753873520.591181;13.645939;0.94;-1.62;-0.33;0.927661;0.345703;0.049123;136.6;0.0;0.0;19.0;0.0;0.0
2.0;1753873520.59579;13.665022;1.02;-1.59;-0.53;0.928394;0.335834;0.047171;133.3;0.0;0.0;20.2;0.0;0.0
2.0;1753873520.600399;13.66894;1.01;-1.63;-0.3;0.928522;0.344358;0.047394;139.4;0.0;0.0;19.9;0.0;0.0
2.0;1753873520.605008;13.645078;0.96;-1.71;-0.35;0.930297;0.337626;0.047818;136.0;0.0;0.0;20.2;0.0;0.0
2.0;1753873520.609617;13.654853;0.97;-1.59;-0.34;0.932254;0.345366;0.048329;137.7;0.0;0.0;20.7;0.0;0.0
2.0;1753873520.614226;13.627195;0.96;-1.64;-0.26;0.92847;0.336801;0.048463;140.7;0.0;0.0;20.4;0.0;0.0
2.0;1753873520.618834;13.670452;0.96;-1.65;-0.3;0.927233;0.339691;0.047179;140.2;0.0;0.0;20.6;0.0;0.0
2.0;1753873520.623443;13.641832;1.0;-1.54;-0.29;0.928646;0.343532;0.047234;138.1;0.0;0.0;20.4;0.0;0.0
2.0;1753873520.628052;13.669604;0.99;-1.61;-0.38;0.929448;0.342016;0.046706;139.9;0.0;0.0;19.6;0.0;0.0
2.0;1753873520.632661;13.64765;0.96;-1.63;-0.29;0.926758;0.341115;0.047548;141.0;0.0;0.0;19.3;0.0;0.0
2.0;1753873520.63727;13.658537;1.02;-1.62;-0.34;0.929423;0.336132;0.048204;130.3;0.0;0.0;19.0;0.0;0.0
2.0;1753873520.641879;13.608888;0.96;-1.58;-0.47;0.931258;0.33807;0.049353;136.3;0.0;0.0;20.2;0.0;0.0
2.0;1753873520.646488;13.649335;0.97;-1.61;-0.4;0.928252;0.342846;0.048499;139.7;0.0;0.0;19.5;0.0;0.0
2.0;1753873520.651096;13.649202;0.97;-1.65;-0.42;0.932928;0.338767;0.049319;139.6;0.0;0.0;20.1;0.0;0.0
2.0;1753873520.655706;13.630702;0.93;-1.73;-0.45;0.92852;0.340474;0.048064;137.4;0.0;0.0;19.3;0.0;0.0
2.0;1753873520.660314;13.630627;1.0;-1.65;-0.4;0.928304;0.344578;0.048601;144.8;0.0;0.0;19.2;0.0;0.0
2.0;1753873520.664923;13.659774;0.97;-1.56;-0.27;0.928183;0.34232;0.047581;139.9;0.0;0.0;20.8;0.0;0.0
2.0;1753873520.669532;13.658514;1.07;-1.71;-0.32;0.928399;0.339326;0.048352;139.9;0.0;0.0;20.2;0.0;0.0
2.0;1753873520.674141;13.639219;1.0;-1.6;-0.4;0.927685;0.340669;0.048862;138.6;0.0;0.0;21.0;0.0;0.0
2.0;1753873520.67875;13.626102;1.05;-1.59;-0.3;0.930425;0.336507;0.048911;135.0;0.0;0.0;20.1;0.0;0.0
2.0;1753873520.683359;13.664037;0.93;-1.53;-0.3;0.931085;0.344603;0.047963;140.3;0.0;0.0;20.1;0.0;0.0
2.0;1753873520.687968;13.65556;1.0;-1.63;-0.39;0.929041;0.342342;0.049611;139.3;0.0;0.0;20.4;0.0;0.0
2.0;1753873520.692576;13.643318;0.95;-1.55;-0.39;0.930243;0.34053;0.049258;132.9;0.0;0.0;20.2;0.0;0.0
2.0;1753873520.697185;13.621376;0.9;-1.68;-0.41;0.926818;0.3405;0.049134;140.5;0.0;0.0;19.9;0.0;0.0
2.0;1753873520.701794;13.652496;0.87;-1.63;-0.35;0.930755;0.34173;0.050018;138.7;0.0;0.0;20.6;0.0;0.0
2.0;1753873520.706403;13.674188;0.99;-1.65;-0.37;0.930033;0.343932;0.046518;138.4;0.0;0.0;20.1;0.0;0.0
2.0;1753873520.711012;13.637791;0.96;-1.55;-0.28;0.932418;0.339936;0.047124;138.8;0.0;0.0;19.6;0.0;0.0
2.0;1753873520.715621;13.626793;1.03;-1.59;-0.42;0.929043;0.342954;0.050252;142.3;0.0;0.0;19.5;0.0;0.0
2.0;1753873520.72023;13.634438;0.96;-1.63;-0.42;0.930701;0.33825;0.048059;136.3;0.0;0.0;19.3;0.0;0.0
2.0;1753873520.724838;13.65114;0.89;-1.6;-0.39;0.92804;0.344157;0.046846;143.2;0.0;0.0;20.0;0.0;0.0
2.0;1753873520.729447;13.646272;0.98;-1.47;-0.31;0.93115;0.341878;0.048511;138.6;0.0;0.0;20.8;0.0;0.0
2.0;1753873520.734056;13.657934;0.89;-1.62;-0.37;0.931731;0.344355;0.046123;141.4;0.0;0.0;21.7;0.0;0.0
2.0;1753873520.738665;13.681896;1.01;-1.6;-0.36;0.929454;0.340228;0.048148;139.4;0.0;0.0;20.4;0.0;0.0
2.0;1753873520.743274;13.645978;1.01;-1.59;-0.48;0.929142;0.342582;0.048117;134.6;0.0;0.0;19.7;0.0;0.0
2.0;1753873520.747883;13.636292;1.07;-1.58;-0.43;0.929782;0.337186;0.049369;136.4;0.0;0.0;20.4;0.0;0.0
2.0;1753873520.752492;13.669591;1.0;-1.71;-0.43;0.932828;0.341069;0.046718;142.2;0.0;0.0;20.5;0.0;0.0
2.0;1753873520.7571;13.662447;0.87;-1.61;-0.29;0.930944;0.340727;0.048581;141.0;0.0;0.0;19.8;0.0;0.0
2.0;1753873520.76171;13.672318;0.89;-1.53;-0.36;0.929312;0.343225;0.048967;140.5;0.0;0.0;19.3;0.0;0.0
2.0;1753873520.766318;13.655481;0.92;-1.55;-0.34;0.933503;0.342138;0.047434;141.3;0.0;0.0;20.1;0.0;0.0
2.0;1753873520.770927;13.627442;0.96;-1.57;-0.32;0.927883;0.341904;0.047828;144.3;0.0;0.0;20.2;0.0;0.0
2.0;1753873520.775536;13.624008;0.97;-1.64;-0.27;0.928374;0.340021;0.047472;142.9;0.0;0.0;20.7;0.0;0.0
2.0;1753873520.780145;13.661506;0.97;-1.63;-0.39;0.931637;0.338946;0.049878;140.2;0.0;0.0;20.3;0.0;0.0
2.0;1753873520.784754;13.627992;0.94;-1.55;-0.44;0.931066;0.344421;0.049084;134.0;0.0;0.0;19.9;0.0;0.0
2.0;1753873520.789363;13.685415;0.97;-1.56;-0.35;0.93132;0.340341;0.045833;137.6;0.0;0.0;19.7;0.0;0.0
2.0;1753873520.793972;13.652921;0.9;-1.65;-0.28;0.92887;0.339505;0.048267;135.0;0.0;0.0;20.2;0.0;0.0
2.0;1753873520.79858;13.643094;1.05;-1.63;-0.39;0.927073;0.337736;0.048417;140.7;0.0;0.0;20.4;0.0;0.0
2.0;1753873520.803189;13.657059;1.03;-1.64;-0.33;0.928871;0.342678;0.047872;141.2;0.0;0.0;19.7;0.0;0.0
2.0;1753873520.807798;13.625304;1.04;-1.54;-0.44;0.92752;0.336223;0.048756;135.1;0.0;0.0;19.8;0.0;0.0
2.0;1753873520.812407;13.671788;1.12;-1.63;-0.33;0.927061;0.345307;0.047721;144.6;0.0;0.0;19.8;0.0;0.0
2.0;1753873520.817016;13.651636;0.99;-1.66;-0.3;0.928503;0.344779;0.046006;141.9;0.0;0.0;20.4;0.0;0.0
2.0;1753873520.821625;13.650528;0.97;-1.49;-0.29;0.929964;0.339685;0.049452;144.4;0.0;0.0;20.1;0.0;0.0
2.0;1753873520.826234;13.621957;1.06;-1.63;-0.37;0.932219;0.341835;0.04931;140.1;0.0;0.0;20.6;0.0;0.0
2.0;1753873520.830842;13.66529;0.94;-1.55;-0.39;0.928083;0.342722;0.047364;142.6;0.0;0.0;20.4;0.0;0.0
2.0;1753873520.835451;13.635404;0.92;-1.65;-0.38;0.931224;0.342207;0.047178;139.2;0.0;0.0;21.0;0.0;0.0
2.0;1753873520.84006;13.621592;0.98;-1.53;-0.42;0.929306;0.341474;0.047563;135.3;0.0;0.0;19.6;0.0;0.0
2.0;1753873520.844669;13.650751;1.03;-1.67;-0.31;0.927677;0.341936;0.048176;142.1;0.0;0.0;18.4;0.0;0.0
2.0;1753873520.849278;13.662104;0.87;-1.52;-0.36;0.929243;0.336265;0.049106;135.8;0.0;0.0;19.9;0.0;0.0
2.0;1753873520.8559;13.652344;0.98;-1.61;-0.35;0.929884;0.34038;0.04819;140.0;0.0;0.0;20.0;0.0;0.0
2.0;1753873520.860509;13.668124;1.01;-1.63;-0.28;0.929623;0.341671;0.050828;130.1;0.0;0.0;18.6;0.0;0.0
2.0;1753873520.8651;13.675781;0.91;-1.68;-0.28;0.929396;0.33977;0.05002;128.0;0.0;0.0;18.0;0.0;0.0
2.0;1753873520.869709;13.688985;0.91;-1.67;-0.26;0.9289;0.339517;0.051099;130.0;0.0;0.0;18.7;0.0;0.0
2.0;1753873520.874318;13.681251;0.88;-1.79;-0.23;0.929606;0.33779;0.051457;126.9;0.0;0.0;17.1;0.0;0.0
2.0;1753873520.878926;13.68693;0.95;-1.6;-0.24;0.926013;0.340211;0.05021;137.8;0.0;0.0;16.6;0.0;0.0
2.0;1753873520.883536;13.686824;0.92;-1.63;-0.27;0.931369;0.341591;0.048052;132.9;0.0;0.0;18.6;0.0;0.0
2.0;1753873520.888144;13.675374;0.9;-1.67;-0.21;0.929844;0.338858;0.052068;129.1;0.0;0.0;17.9;0.0;0.0
2.0;1753873520.892753;13.691419;0.86;-1.69;-0.28;0.931557;0.340039;0.049146;132.9;0.0;0.0;14.9;0.0;0.0
2.0;1753873520.897362;13.696137;0.91;-1.67;-0.27;0.929199;0.336322;0.050206;127.5;0.0;0.0;15.6;0.0;0.0
2.0;1753873520.901971;13.686502;0.87;-1.69;-0.33;0.929765;0.336838;0.050319;132.2;0.0;0.0;19.8;0.0;0.0
2.0;1753873520.90876;13.683594;0.91;-1.68;-0.28;0.929762;0.337574;0.05063;128.0;0.0;0.0;18.0;0.0;0.0
2.0;1753873520.913369;13.694897;0.91;-1.67;-0.35;0.928492;0.33506;0.051627;129.6;0.0;0.0;17.2;0.0;0.0
2.0;1753873520.917978;13.674082;0.92;-1.68;-0.29;0.927513;0.338644;0.052683;124.9;0.0;0.0;16.8;0.0;0.0
2.0;1753873520.922587;13.675575;0.9;-1.65;-0.22;0.928245;0.339757;0.049662;133.7;0.0;0.0;18.0;0.0;0.0
2.0;1753873520.927196;13.682158;0.9;-1.61;-0.28;0.931225;0.33743;0.05022;129.5;0.0;0.0;16.7;0.0;0.0
2.0;1753873520.931804;13.691568;0.88;-1.7;-0.32;0.928408;0.342329;0.048335;128.1;0.0;0.0;18.4;0.0;0.0
2.0;1753873520.936413;13.678868;0.83;-1.71;-0.33;0.926797;0.34224;0.047517;121.2;0.0;0.0;17.3;0.0;0.0
2.0;1753873520.941022;13.677011;0.89;-1.68;-0.24;0.927422;0.342144;0.047766;129.4;0.0;0.0;19.5;0.0;0.0
2.0;1753873520.945631;13.69922;0.88;-1.7;-0.34;0.927764;0.339768;0.049915;125.0;0.0;0.0;17.0;0.0;0.0
2.0;1753873520.95403;13.683594;0.84;-1.68;-0.35;0.927322;0.342576;0.047092;128.0;0.0;0.0;18.0;0.0;0.0
2.0;1753873520.955452;13.660156;0.84;-1.61;-0.35;0.928542;0.340258;0.048434;134.0;0.0;0.0;17.0;0.0;0.0
2.0;1753873520.960061;13.648364;0.78;-1.64;-0.3;0.927283;0.341731;0.047202;138.5;0.0;0.0;12.0;0.0;0.0
2.0;1753873520.966273;13.660156;0.98;-1.61;-0.35;0.930372;0.339038;0.048922;134.0;0.0;0.0;17.0;0.0;0.0
2.0;1753873520.970249;13.675781;0.98;-1.61;-0.35;0.927932;0.341966;0.048434;134.0;0.0;0.0;17.0;0.0;0.0
2.0;1753873520.974788;13.675781;0.91;-1.68;-0.28;0.92781;0.338672;0.049166;134.0;0.0;0.0;17.0;0.0;0.0
2.0;1753873520.978238;13.675781;0.91;-1.68;-0.35;0.928054;0.341844;0.049166;134.0;0.0;0.0;17.0;0.0;0.0
2.0;1753873520.985728;13.675781;0.91;-1.68;-0.35;0.926834;0.339038;0.049776;143.0;0.0;0.0;17.0;0.0;0.0
2.0;1753873520.987225;13.703125;0.91;-1.61;-0.35;0.928542;0.340014;0.048678;143.0;0.0;0.0;17.0;0.0;0.0
2.0;1753873520.99265;13.703125;0.91;-1.61;-0.28;0.92781;0.341112;0.049166;143.0;0.0;0.0;17.0;0.0;0.0
2.0;1753873520.996411;13.703125;0.98;-1.68;-0.28;0.929152;0.338184;0.047824;143.0;0.0;0.0;17.0;0.0;0.0
2.0;1753873521.00102;13.678572;1.06;-1.71;-0.29;0.931193;0.338947;0.047364;140.4;0.0;0.0;16.9;0.0;0.0
2.0;1753873521.005629;13.689042;0.96;-1.78;-0.29;0.92743;0.336633;0.047508;139.3;0.0;0.0;16.9;0.0;0.0
2.0;1753873521.010238;13.684377;0.94;-1.7;-0.26;0.930197;0.341031;0.047901;138.9;0.0;0.0;16.9;0.0;0.0
2.0;1753873521.014846;13.706;0.98;-1.74;-0.26;0.928967;0.337535;0.04812;138.0;0.0;0.0;16.8;0.0;0.0
2.0;1753873521.019456;13.703559;0.92;-1.72;-0.24;0.931842;0.335119;0.047235;143.3;0.0;0.0;16.5;0.0;0.0
2.0;1753873521.024064;13.685216;1.03;-1.74;-0.23;0.929493;0.336278;0.048567;144.6;0.0;0.0;17.9;0.0;0.0
2.0;1753873521.028673;13.699476;0.93;-1.64;-0.26;0.927368;0.33352;0.047509;142.5;0.0;0.0;16.9;0.0;0.0
2.0;1753873521.033282;13.69268;1.03;-1.69;-0.23;0.928296;0.337795;0.048262;146.1;0.0;0.0;17.1;0.0;0.0
2.0;1753873521.037891;13.701046;0.99;-1.6;-0.29;0.931436;0.340192;0.049174;151.7;0.0;0.0;17.2;0.0;0.0
2.0;1753873521.0425;13.705632;0.97;-1.67;-0.31;0.929278;0.336232;0.047714;138.6;0.0;0.0;16.7;0.0;0.0
2.0;1753873521.047109;13.686359;0.93;-1.67;-0.29;0.929873;0.337916;0.048445;149.9;0.0;0.0;16.6;0.0;0.0
2.0;1753873521.051718;13.688799;0.98;-1.67;-0.32;0.930152;0.339109;0.048748;152.4;0.0;0.0;16.2;0.0;0.0
2.0;1753873521.056326;13.691351;1.0;-1.61;-0.29;0.926854;0.342905;0.047936;142.3;0.0;0.0;16.8;0.0;0.0
2.0;1753873521.060935;13.707426;1.03;-1.69;-0.26;0.928695;0.334937;0.046945;140.7;0.0;0.0;16.5;0.0;0.0
2.0;1753873521.065544;13.697201;0.9;-1.63;-0.3;0.929193;0.335648;0.048796;139.6;0.0;0.0;16.3;0.0;0.0
2.0;1753873521.070153;13.700619;0.84;-1.65;-0.26;0.927264;0.340122;0.047829;143.2;0.0;0.0;17.9;0.0;0.0
2.0;1753873521.074762;13.694242;0.99;-1.65;-0.29;0.92906;0.341336;0.047875;150.5;0.0;0.0;18.0;0.0;0.0
2.0;1753873521.079371;13.682527;1.03;-1.64;-0.21;0.929014;0.336719;0.046835;147.0;0.0;0.0;17.0;0.0;0.0
2.0;1753873521.08398;13.694625;0.95;-1.68;-0.32;0.9276;0.341262;0.047377;141.0;0.0;0.0;16.5;0.0;0.0
2.0;1753873521.088588;13.697476;1.02;-1.59;-0.26;0.928207;0.335488;0.04943;146.9;0.0;0.0;16.8;0.0;0.0
2.0;1753873521.093197;13.697782;0.92;-1.66;-0.21;0.930432;0.336779;0.048494;142.4;0.0;0.0;17.3;0.0;0.0
2.0;1753873521.097806;13.696479;1.06;-1.72;-0.26;0.932796;0.335884;0.048328;146.7;0.0;0.0;17.1;0.0;0.0
2.0;1753873521.102415;13.716964;1.06;-1.62;-0.26;0.927018;0.333103;0.047771;139.3;0.0;0.0;17.4;0.0;0.0
2.0;1753873521.107024;13.735298;1.02;-1.74;-0.28;0.93129;0.338092;0.047753;144.9;0.0;0.0;16.8;0.0;0.0
2.0;1753873521.111633;13.695267;1.04;-1.69;-0.29;0.93155;0.339571;0.047787;142.1;0.0;0.0;17.1;0.0;0.0
2.0;1753873521.116242;13.69865;1.01;-1.68;-0.34;0.925981;0.338969;0.047106;135.4;0.0;0.0;17.1;0.0;0.0
2.0;1753873521.12085;13.702169;0.86;-1.68;-0.21;0.930603;0.337748;0.04863;136.5;0.0;0.0;16.4;0.0;0.0
2.0;1753873521.12546;13.693767;0.96;-1.61;-0.26;0.927654;0.334762;0.047909;140.6;0.0;0.0;17.2;0.0;0.0
2.0;1753873521.130068;13.669485;0.98;-1.6;-0.31;0.927689;0.33845;0.0479;142.0;0.0;0.0;16.9;0.0;0.0
2.0;1753873521.134677;13.683825;0.96;-1.66;-0.25;0.927407;0.340691;0.047503;145.3;0.0;0.0;16.3;0.0;0.0
2.0;1753873521.139286;13.69914;0.95;-1.62;-0.26;0.929981;0.340694;0.04767;138.9;0.0;0.0;16.7;0.0;0.0
2.0;1753873521.143895;13.702075;1.01;-1.69;-0.29;0.930825;0.337706;0.047481;146.8;0.0;0.0;17.9;0.0;0.0
2.0;1753873521.148504;13.71099;1.0;-1.67;-0.27;0.928631;0.335288;0.047629;140.6;0.0;0.0;17.6;0.0;0.0
2.0;1753873521.153113;13.701849;0.84;-1.6;-0.33;0.926124;0.336242;0.048562;149.6;0.0;0.0;17.2;0.0;0.0
2.0;1753873521.157722;13.669509;0.95;-1.64;-0.33;0.927569;0.340072;0.047644;143.6;0.0;0.0;17.2;0.0;0.0
2.0;1753873521.16233;13.692973;0.94;-1.69;-0.26;0.927826;0.341466;0.047342;145.3;0.0;0.0;16.8;0.0;0.0
2.0;1753873521.166939;13.716902;0.87;-1.69;-0.26;0.930939;0.334136;0.047296;150.5;0.0;0.0;17.0;0.0;0.0
2.0;1753873521.171548;13.704263;0.99;-1.63;-0.35;0.927443;0.33591;0.047313;140.0;0.0;0.0;17.0;0.0;0.0
2.0;1753873521.176157;13.69577;0.91;-1.69;-0.29;0.92627;0.338063;0.047442;144.5;0.0;0.0;17.3;0.0;0.0
2.0;1753873521.180766;13.695439;1.11;-1.6;-0.24;0.929052;0.338811;0.047394;144.2;0.0;0.0;17.9;0.0;0.0
2.0;1753873521.185375;13.694387;1.0;-1.68;-0.33;0.926675;0.339057;0.048149;146.8;0.0;0.0;16.6;0.0;0.0
2.0;1753873521.189984;13.702397;1.01;-1.68;-0.29;0.929922;0.335797;0.047909;135.8;0.0;0.0;17.3;0.0;0.0
2.0;1753873521.194592;13.685987;1.04;-1.7;-0.24;0.92756;0.340607;0.047055;137.5;0.0;0.0;17.1;0.0;0.0
2.0;1753873521.199201;13.700125;0.98;-1.59;-0.29;0.928769;0.3384;0.047918;140.5;0.0;0.0;17.3;0.0;0.0
2.0;1753873521.20381;13.670328;1.0;-1.61;-0.32;0.927578;0.340423;0.047052;141.3;0.0;0.0;17.4;0.0;0.0
2.0;1753873521.208419;13.682452;0.94;-1.68;-0.28;0.928604;0.335334;0.048891;136.5;0.0;0.0;16.9;0.0;0.0
2.0;1753873521.213028;13.715949;0.96;-1.59;-0.3;0.92918;0.341355;0.047803;148.3;0.0;0.0;17.4;0.0;0.0
2.0;1753873521.217637;13.718709;0.93;-1.67;-0.33;0.927569;0.337019;0.048322;140.9;0.0;0.0;16.4;0.0;0.0
2.0;1753873521.222246;13.682619;0.98;-1.72;-0.28;0.931579;0.340108;0.048268;143.6;0.0;0.0;16.9;0.0;0.0
2.0;1753873521.226854;13.712699;0.91;-1.71;-0.24;0.929792;0.34207;0.048168;138.6;0.0;0.0;17.2;0.0;0.0
2.0;1753873521.231464;13.667299;1.0;-1.62;-0.29;0.926243;0.336555;0.04865;145.9;0.0;0.0;16.6;0.0;0.0
2.0;1753873521.236072;13.690928;0.86;-1.66;-0.22;0.928141;0.337018;0.047134;149.7;0.0;0.0;17.3;0.0;0.0
2.0;1753873521.240681;13.706627;1.03;-1.67;-0.3;0.928503;0.337588;0.047525;145.2;0.0;0.0;17.3;0.0;0.0
2.0;1753873521.24529;13.700863;0.87;-1.6;-0.28;0.926855;0.335056;0.047851;145.4;0.0;0.0;16.9;0.0;0.0
2.0;1753873521.249899;13.694465;0.93;-1.7;-0.22;0.929557;0.340115;0.046855;139.4;0.0;0.0;17.0;0.0;0.0
2.0;1753873521.254508;13.69394;0.91;-1.64;-0.32;0.930422;0.337966;0.047531;139.8;0.0;0.0;16.8;0.0;0.0
2.0;1753873521.259117;13.713039;1.03;-1.66;-0.32;0.926769;0.339349;0.048022;145.7;0.0;0.0;16.7;0.0;0.0
2.0;1753873521.263726;13.709102;0.92;-1.66;-0.27;0.929444;0.340556;0.048325;143.2;0.0;0.0;17.0;0.0;0.0
2.0;1753873521.268334;13.703439;0.99;-1.63;-0.3;0.929863;0.337597;0.048273;146.4;0.0;0.0;17.2;0.0;0.0
2.0;1753873521.272943;13.734472;0.93;-1.72;-0.2;0.928106;0.338227;0.046137;142.8;0.0;0.0;17.8;0.0;0.0
2.0;1753873521.277552;13.681709;0.88;-1.71;-0.25;0.927848;0.341141;0.047312;143.5;0.0;0.0;16.7;0.0;0.0
2.0;1753873521.282161;13.677465;0.96;-1.71;-0.21;0.928468;0.339064;0.047571;136.8;0.0;0.0;16.9;0.0;0.0
2.0;1753873521.28677;13.706396;0.95;-1.71;-0.25;0.928084;0.336585;0.048108;145.3;0.0;0.0;17.0;0.0;0.0
2.0;1753873521.291379;13.714147;0.84;-1.58;-0.27;0.929019;0.337537;0.047537;149.0;0.0;0.0;16.7;0.0;0.0
2.0;1753873521.295988;13.666901;0.92;-1.72;-0.26;0.926866;0.343424;0.048658;148.2;0.0;0.0;16.7;0.0;0.0
2.0;1753873521.300596;13.687541;0.85;-1.63;-0.28;0.930942;0.340081;0.04751;143.8;0.0;0.0;17.8;0.0;0.0
2.0;1753873521.305205;13.698541;0.83;-1.67;-0.31;0.931125;0.334038;0.047584;139.8;0.0;0.0;16.7;0.0;0.0
2.0;1753873521.309814;13.65116;0.88;-1.66;-0.26;0.92784;0.336831;0.047837;141.3;0.0;0.0;17.1;0.0;0.0
2.0;1753873521.314423;13.684969;1.0;-1.59;-0.28;0.926455;0.34191;0.048736;144.7;0.0;0.0;16.5;0.0;0.0
2.0;1753873521.319032;13.67955;1.06;-1.65;-0.3;0.928922;0.337722;0.047807;140.9;0.0;0.0;16.8;0.0;0.0
2.0;1753873521.323641;13.705668;0.88;-1.59;-0.23;0.9306;0.338302;0.046701;137.5;0.0;0.0;17.2;0.0;0.0
2.0;1753873521.32825;13.692285;0.88;-1.64;-0.29;0.929946;0.338763;0.048207;139.2;0.0;0.0;17.3;0.0;0.0
2.0;1753873521.332858;13.704963;0.81;-1.59;-0.24;0.929757;0.337098;0.04819;141.9;0.0;0.0;17.5;0.0;0.0
2.0;1753873521.337468;13.697851;0.97;-1.54;-0.26;0.926218;0.339743;0.048427;147.2;0.0;0.0;16.3;0.0;0.0
2.0;1753873521.342076;13.668046;0.96;-1.68;-0.28;0.928281;0.338512;0.047344;146.1;0.0;0.0;16.9;0.0;0.0
2.0;1753873521.346685;13.696156;0.99;-1.67;-0.27;0.929608;0.340191;0.047409;147.8;0.0;0.0;17.9;0.0;0.0
2.0;1753873521.351294;13.692268;1.01;-1.63;-0.32;0.929883;0.342069;0.047611;145.8;0.0;0.0;16.9;0.0;0.0
2.0;1753873521.355903;13.679128;0.91;-1.51;-0.21;0.9312;0.33849;0.048729;138.1;0.0;0.0;16.9;0.0;0.0
2.0;1753873521.360512;13.687621;0.98;-1.65;-0.17;0.927501;0.340073;0.047473;139.0;0.0;0.0;16.5;0.0;0.0
2.0;1753873521.365121;13.705802;0.91;-1.67;-0.32;0.927045;0.337609;0.048315;146.4;0.0;0.0;16.6;0.0;0.0
2.0;1753873521.36973;13.726179;0.87;-1.65;-0.26;0.925502;0.343259;0.046929;143.4;0.0;0.0;17.4;0.0;0.0
2.0;1753873521.374338;13.706762;0.91;-1.58;-0.34;0.927407;0.338527;0.04704;149.7;0.0;0.0;17.5;0.0;0.0
2.0;1753873521.378947;13.673583;0.89;-1.61;-0.29;0.927515;0.339016;0.046666;141.3;0.0;0.0;17.3;0.0;0.0
2.0;1753873521.383556;13.687492;0.83;-1.67;-0.27;0.927923;0.342223;0.048444;139.6;0.0;0.0;16.4;0.0;0.0
2.0;1753873521.388165;13.698052;0.93;-1.65;-0.32;0.930306;0.339412;0.046861;136.7;0.0;0.0;17.0;0.0;0.0
2.0;1753873521.392774;13.678521;0.9;-1.66;-0.29;0.92709;0.342725;0.047878;140.9;0.0;0.0;16.5;0.0;0.0
2.0;1753873521.397383;13.684232;1.02;-1.67;-0.28;0.930963;0.339782;0.047844;142.2;0.0;0.0;16.9;0.0;0.0
2.0;1753873521.401992;13.694214;0.97;-1.64;-0.29;0.929232;0.335683;0.047138;138.4;0.0;0.0;17.0;0.0;0.0
2.0;1753873521.4066;13.652169;0.97;-1.57;-0.25;0.926749;0.339652;0.047911;146.0;0.0;0.0;16.5;0.0;0.0
2.0;1753873521.411209;13.678478;0.89;-1.63;-0.25;0.927009;0.342108;0.048144;148.9;0.0;0.0;16.6;0.0;0.0
2.0;1753873521.415818;13.700658;0.86;-1.65;-0.34;0.92899;0.33958;0.047532;136.1;0.0;0.0;17.2;0.0;0.0
2.0;1753873521.420427;13.686149;0.88;-1.52;-0.28;0.927992;0.336755;0.047031;143.9;0.0;0.0;16.9;0.0;0.0
2.0;1753873521.425036;13.68037;0.88;-1.64;-0.21;0.927188;0.334852;0.048292;141.5;0.0;0.0;17.2;0.0;0.0
2.0;1753873521.429645;13.687851;0.92;-1.59;-0.32;0.926187;0.338007;0.048244;146.8;0.0;0.0;16.8;0.0;0.0
2.0;1753873521.434254;13.681912;0.9;-1.65;-0.32;0.929327;0.339735;0.047972;143.3;0.0;0.0;16.6;0.0;0.0
2.0;1753873521.438862;13.665492;0.99;-1.66;-0.27;0.929484;0.341716;0.046963;138.9;0.0;0.0;17.8;0.0;0.0
2.0;1753873521.443472;13.718819;0.9;-1.64;-0.26;0.928292;0.339112;0.047351;140.3;0.0;0.0;17.6;0.0;0.0
2.0;1753873521.44808;13.677749;0.82;-1.7;-0.27;0.928215;0.337473;0.04738;141.2;0.0;0.0;17.1;0.0;0.0
2.0;1753873521.452689;13.699685;0.82;-1.6;-0.27;0.926817;0.345259;0.047792;141.7;0.0;0.0;16.6;0.0;0.0
2.0;1753873521.457298;13.708811;0.96;-1.59;-0.23;0.929385;0.340107;0.048133;140.6;0.0;0.0;16.4;0.0;0.0
2.0;1753873521.461907;13.669103;0.89;-1.6;-0.3;0.926361;0.339429;0.047679;134.1;0.0;0.0;16.8;0.0;0.0
2.0;1753873521.466516;13.68519;0.93;-1.69;-0.32;0.928235;0.338493;0.047335;139.4;0.0;0.0;16.6;0.0;0.0
2.0;1753873521.471125;13.669457;0.93;-1.62;-0.3;0.923731;0.340018;0.047824;147.0;0.0;0.0;17.3;0.0;0.0
2.0;1753873521.475734;13.686432;0.83;-1.66;-0.24;0.92916;0.336357;0.048435;144.4;0.0;0.0;17.4;0.0;0.0
2.0;1753873521.480342;13.688796;0.93;-1.61;-0.26;0.92734;0.339873;0.04766;142.9;0.0;0.0;17.5;0.0;0.0
2.0;1753873521.484951;13.668054;0.79;-1.5;-0.24;0.93171;0.340058;0.047659;143.8;0.0;0.0;17.9;0.0;0.0
2.0;1753873521.48956;13.671714;0.93;-1.56;-0.24;0.926885;0.339762;0.048509;148.2;0.0;0.0;17.3;0.0;0.0
2.0;1753873521.494169;13.672095;0.92;-1.56;-0.33;0.929479;0.343542;0.048236;140.7;0.0;0.0;17.1;0.0;0.0
2.0;1753873521.498778;13.675424;0.79;-1.57;-0.3;0.925371;0.343714;0.047462;146.7;0.0;0.0;17.2;0.0;0.0
2.0;1753873521.503387;13.698448;0.95;-1.55;-0.29;0.927034;0.340498;0.047215;151.3;0.0;0.0;18.0;0.0;0.0
2.0;1753873521.507996;13.691433;0.91;-1.55;-0.27;0.929087;0.340785;0.048627;142.7;0.0;0.0;17.5;0.0;0.0
2.0;1753873521.512604;13.700278;0.94;-1.7;-0.26;0.927468;0.336695;0.047772;139.5;0.0;0.0;17.2;0.0;0.0
2.0;1753873521.517213;13.666455;0.89;-1.65;-0.24;0.928837;0.337159;0.047878;147.5;0.0;0.0;17.0;0.0;0.0
2.0;1753873521.521822;13.675711;0.92;-1.64;-0.34;0.926332;0.339841;0.048119;142.4;0.0;0.0;17.3;0.0;0.0
2.0;1753873521.526431;13.682192;0.91;-1.47;-0.26;0.92923;0.337932;0.04818;143.9;0.0;0.0;16.8;0.0;0.0
2.0;1753873521.53104;13.68279;0.98;-1.6;-0.28;0.928803;0.33659;0.046721;141.8;0.0;0.0;17.0;0.0;0.0
2.0;1753873521.535649;13.676953;1.01;-1.71;-0.33;0.925604;0.337628;0.047233;140.4;0.0;0.0;17.3;0.0;0.0
2.0;1753873521.540258;13.679137;0.92;-1.6;-0.29;0.925825;0.337628;0.047161;145.3;0.0;0.0;17.3;0.0;0.0
2.0;1753873521.544866;13.665447;0.91;-1.62;-0.33;0.925608;0.338157;0.048036;149.2;0.0;0.0;17.2;0.0;0.0
2.0;1753873521.549476;13.682937;0.81;-1.55;-0.26;0.924635;0.337666;0.047858;140.3;0.0;0.0;16.5;0.0;0.0
2.0;1753873521.5574;13.6875;0.91;-1.61;-0.28;0.927688;0.339648;0.047824;143.0;0.0;0.0;17.0;0.0;0.0
2.0;1753873521.55883;13.703125;0.98;-1.68;-0.28;0.9272;0.340746;0.049288;136.0;0.0;0.0;14.0;0.0;0.0
2.0;1753873521.563439;13.712957;1.01;-1.76;-0.31;0.926861;0.341656;0.048509;142.6;0.0;0.0;12.0;0.0;0.0
2.0;1753873521.568048;13.689652;1.06;-1.65;-0.27;0.925883;0.342868;0.049475;131.0;0.0;0.0;13.3;0.0;0.0
2.0;1753873521.572657;13.695931;0.91;-1.64;-0.25;0.925303;0.342996;0.050303;136.9;0.0;0.0;11.6;0.0;0.0
2.0;1753873521.577266;13.706975;0.99;-1.65;-0.24;0.928227;0.33797;0.049783;137.0;0.0;0.0;15.8;0.0;0.0
2.0;1753873521.581874;13.685658;0.99;-1.66;-0.29;0.925506;0.344646;0.049704;131.8;0.0;0.0;14.1;0.0;0.0
2.0;1753873521.586483;13.70307;0.97;-1.63;-0.31;0.924864;0.345584;0.048334;137.3;0.0;0.0;12.6;0.0;0.0
2.0;1753873521.591092;13.711866;0.99;-1.68;-0.27;0.926297;0.343771;0.048436;141.0;0.0;0.0;14.3;0.0;0.0
2.0;1753873521.595701;13.700654;0.97;-1.61;-0.32;0.92605;0.338555;0.048713;136.2;0.0;0.0;13.9;0.0;0.0
2.0;1753873521.60031;13.721969;0.92;-1.68;-0.27;0.927513;0.341323;0.04957;129.4;0.0;0.0;15.1;0.0;0.0
2.0;1753873521.604919;13.689118;0.97;-1.68;-0.33;0.924649;0.340807;0.048391;131.4;0.0;0.0;14.2;0.0;0.0
2.0;1753873521.609528;13.683498;0.95;-1.62;-0.3;0.926292;0.341938;0.048819;130.4;0.0;0.0;13.6;0.0;0.0
2.0;1753873521.614136;13.678755;0.94;-1.71;-0.26;0.923731;0.34113;0.050859;137.8;0.0;0.0;12.8;0.0;0.0
2.0;1753873521.618745;13.660256;0.91;-1.67;-0.23;0.927717;0.342754;0.048583;136.0;0.0;0.0;13.5;0.0;0.0
2.0;1753873521.623354;13.709312;0.97;-1.7;-0.27;0.926961;0.34472;0.048203;136.0;0.0;0.0;15.0;0.0;0.0
2.0;1753873521.627963;13.686167;1.01;-1.67;-0.37;0.926394;0.344749;0.049295;135.5;0.0;0.0;17.2;0.0;0.0
2.0;1753873521.632572;13.681036;1.03;-1.69;-0.31;0.926483;0.34168;0.049538;138.1;0.0;0.0;11.9;0.0;0.0
2.0;1753873521.637181;13.688449;0.92;-1.68;-0.28;0.928052;0.340819;0.048382;136.2;0.0;0.0;14.1;0.0;0.0
2.0;1753873521.64179;13.672055;0.99;-1.72;-0.31;0.92595;0.341453;0.048203;135.5;0.0;0.0;15.7;0.0;0.0
2.0;1753873521.646398;13.659992;0.99;-1.73;-0.34;0.929141;0.342158;0.048573;138.2;0.0;0.0;13.8;0.0;0.0
2.0;1753873521.65226;13.667969;0.98;-1.68;-0.28;0.926712;0.342454;0.048312;136.0;0.0;0.0;14.0;0.0;0.0
2.0;1753873521.656869;13.643907;0.94;-1.71;-0.28;0.926181;0.341835;0.049853;134.9;0.0;0.0;12.5;0.0;0.0
2.0;1753873521.661478;13.676085;1.03;-1.63;-0.32;0.925794;0.342289;0.049495;138.0;0.0;0.0;14.4;0.0;0.0
2.0;1753873521.666087;13.676997;0.99;-1.71;-0.23;0.926625;0.340173;0.04789;140.7;0.0;0.0;14.7;0.0;0.0
2.0;1753873521.670696;13.644061;1.04;-1.65;-0.26;0.927838;0.338274;0.047511;133.4;0.0;0.0;11.9;0.0;0.0
2.0;1753873521.675304;13.666244;1.04;-1.7;-0.27;0.926254;0.341774;0.048932;140.5;0.0;0.0;14.4;0.0;0.0
2.0;1753873521.679913;13.689091;1.02;-1.72;-0.35;0.92891;0.339351;0.050238;140.8;0.0;0.0;16.9;0.0;0.0
2.0;1753873521.684522;13.654699;0.99;-1.6;-0.28;0.928766;0.340186;0.04992;137.4;0.0;0.0;14.7;0.0;0.0
2.0;1753873521.689131;13.652545;0.94;-1.69;-0.3;0.927928;0.341276;0.049095;133.1;0.0;0.0;14.8;0.0;0.0
2.0;1753873521.69374;13.671745;1.04;-1.58;-0.26;0.926986;0.339032;0.049212;128.7;0.0;0.0;15.1;0.0;0.0
2.0;1753873521.698349;13.6529;0.98;-1.56;-0.29;0.928539;0.33423;0.049224;133.8;0.0;0.0;11.4;0.0;0.0
2.0;1753873521.70409;13.667969;1.05;-1.61;-0.28;0.929762;0.337086;0.049898;136.0;0.0;0.0;14.0;0.0;0.0
2.0;1753873521.708699;13.663298;0.94;-1.66;-0.24;0.930812;0.337882;0.050116;132.6;0.0;0.0;13.0;0.0;0.0
2.0;1753873521.713308;13.679798;1.01;-1.58;-0.36;0.927324;0.336869;0.049063;139.4;0.0;0.0;15.2;0.0;0.0
2.0;1753873521.717917;13.66455;1.05;-1.6;-0.28;0.92949;0.341209;0.050179;134.9;0.0;0.0;17.2;0.0;0.0
2.0;1753873521.722526;13.661211;0.99;-1.66;-0.3;0.930366;0.336712;0.048379;136.1;0.0;0.0;14.3;0.0;0.0
2.0;1753873521.727134;13.669241;1.0;-1.63;-0.35;0.929804;0.337959;0.05063;133.4;0.0;0.0;14.2;0.0;0.0
2.0;1753873521.731743;13.668628;0.94;-1.56;-0.29;0.930753;0.340329;0.049939;133.2;0.0;0.0;12.8;0.0;0.0
2.0;1753873521.736352;13.640965;1.01;-1.58;-0.4;0.928918;0.336506;0.049534;135.9;0.0;0.0;13.2;0.0;0.0
2.0;1753873521.74167;13.667969;0.91;-1.61;-0.35;0.929274;0.340136;0.0488;136.0;0.0;0.0;14.0;0.0;0.0
2.0;1753873521.746279;13.666543;0.87;-1.62;-0.36;0.930983;0.339067;0.048174;131.5;0.0;0.0;12.7;0.0;0.0
2.0;1753873521.750888;13.640305;0.96;-1.58;-0.33;0.929124;0.341297;0.048975;138.5;0.0;0.0;9.9;0.0;0.0
2.0;1753873521.755496;13.666017;0.94;-1.62;-0.37;0.929286;0.342075;0.049053;137.3;0.0;0.0;13.6;0.0;0.0
2.0;1753873521.760105;13.707118;0.96;-1.57;-0.22;0.927154;0.341395;0.048351;139.9;0.0;0.0;15.2;0.0;0.0
2.0;1753873521.764714;13.645071;1.01;-1.64;-0.2;0.927785;0.340903;0.047481;140.4;0.0;0.0;12.9;0.0;0.0
2.0;1753873521.769323;13.702355;0.97;-1.65;-0.43;0.929647;0.343037;0.050779;136.1;0.0;0.0;18.2;0.0;0.0
2.0;1753873521.773932;13.696997;0.93;-1.71;-0.35;0.929381;0.340379;0.049763;138.6;0.0;0.0;13.0;0.0;0.0
2.0;1753873521.778541;13.654793;0.93;-1.61;-0.31;0.929697;0.341678;0.048429;139.2;0.0;0.0;15.6;0.0;0.0
2.0;1753873521.78315;13.647883;0.9;-1.66;-0.24;0.927718;0.33911;0.048092;148.1;0.0;0.0;12.7;0.0;0.0
2.0;1753873521.787758;13.678498;0.96;-1.63;-0.25;0.929725;0.341554;0.048745;145.8;0.0;0.0;12.8;0.0;0.0
2.0;1753873521.792368;13.647344;0.94;-1.67;-0.26;0.928235;0.34186;0.047838;142.6;0.0;0.0;12.6;0.0;0.0
2.0;1753873521.796976;13.667324;0.89;-1.6;-0.25;0.930999;0.34088;0.049647;145.9;0.0;0.0;12.8;0.0;0.0
2.0;1753873521.801585;13.679585;0.96;-1.61;-0.23;0.930008;0.342171;0.047104;141.4;0.0;0.0;15.6;0.0;0.0
2.0;1753873521.806194;13.679987;0.88;-1.69;-0.23;0.929043;0.337874;0.047492;149.6;0.0;0.0;14.5;0.0;0.0
2.0;1753873521.810803;13.671516;1.02;-1.64;-0.22;0.93013;0.338473;0.04661;139.7;0.0;0.0;12.2;0.0;0.0
2.0;1753873521.815412;13.699977;0.98;-1.57;-0.18;0.930421;0.337867;0.047163;141.8;0.0;0.0;12.0;0.0;0.0
2.0;1753873521.820021;13.672376;0.91;-1.68;-0.22;0.929954;0.33778;0.04622;147.0;0.0;0.0;16.0;0.0;0.0
2.0;1753873521.82476;13.671875;0.98;-1.61;-0.21;0.929518;0.339892;0.04758;149.0;0.0;0.0;14.0;0.0;0.0
2.0;1753873521.8328;13.671875;0.98;-1.61;-0.28;0.930006;0.341112;0.049288;149.0;0.0;0.0;14.0;0.0;0.0
2.0;1753873521.837409;13.667053;0.96;-1.67;-0.28;0.92859;0.340645;0.049672;149.0;0.0;0.0;12.2;0.0;0.0
2.0;1753873521.842018;13.698671;1.06;-1.61;-0.3;0.930143;0.338868;0.05024;142.5;0.0;0.0;12.9;0.0;0.0
2.0;1753873521.846626;13.692173;0.96;-1.54;-0.28;0.932621;0.339169;0.047872;145.7;0.0;0.0;14.4;0.0;0.0
2.0;1753873521.851236;13.665794;1.01;-1.54;-0.25;0.931043;0.340151;0.049886;148.3;0.0;0.0;12.5;0.0;0.0
2.0;1753873521.855844;13.650521;0.91;-1.57;-0.26;0.930458;0.343298;0.047806;153.9;0.0;0.0;12.6;0.0;0.0
2.0;1753873521.860453;13.657128;0.94;-1.62;-0.28;0.929922;0.337392;0.048503;156.4;0.0;0.0;13.8;0.0;0.0
2.0;1753873521.865062;13.6704;0.89;-1.57;-0.29;0.928975;0.343259;0.048737;147.5;0.0;0.0;15.2;0.0;0.0
2.0;1753873521.869671;13.703351;0.93;-1.51;-0.25;0.929695;0.339898;0.04801;151.6;0.0;0.0;13.1;0.0;0.0
2.0;1753873521.87428;13.650303;0.84;-1.6;-0.31;0.929863;0.339743;0.04822;151.7;0.0;0.0;15.5;0.0;0.0
2.0;1753873521.88053;13.671875;0.91;-1.54;-0.28;0.930006;0.338184;0.047946;149.0;0.0;0.0;14.0;0.0;0.0
2.0;1753873521.885139;13.683832;0.86;-1.51;-0.31;0.931891;0.33521;0.047944;151.3;0.0;0.0;12.9;0.0;0.0
2.0;1753873521.889748;13.660076;0.91;-1.57;-0.19;0.933569;0.340346;0.04649;147.1;0.0;0.0;15.8;0.0;0.0
2.0;1753873521.894357;13.670366;0.9;-1.55;-0.34;0.929121;0.336646;0.046631;152.9;0.0;0.0;14.5;0.0;0.0
2.0;1753873521.898966;13.691546;0.98;-1.57;-0.33;0.931059;0.342116;0.048414;148.9;0.0;0.0;15.2;0.0;0.0
2.0;1753873521.903574;13.684365;0.94;-1.56;-0.25;0.930585;0.33846;0.048818;151.1;0.0;0.0;13.4;0.0;0.0
2.0;1753873521.908183;13.660477;0.87;-1.71;-0.37;0.931777;0.346493;0.047835;145.3;0.0;0.0;11.4;0.0;0.0
