sep=,
PacketCounter,SampleTimeFine,Euler_X,Euler_Y,Euler_Z,Acc_X,Acc_Y,Acc_Z,Gyr_X,Gyr_Y,Gyr_Z,
0, 2778675155, -83.6594009399414, 6.6041951179504395, -136.02557373046875, 0, 0, 0, 0, 0, 0, 
1, 2778683488, -83.65560913085938, 6.607605457305908, -136.03025817871094, -0.6853812336921692, -9.522771835327148, 0.33865028619766235, 0.5132068395614624, 0.37604257464408875, 1.8875385522842407, 
2, 2778691821, -83.65872955322266, 6.6075568199157715, -136.02789306640625, -1.6501630544662476, -10.571941375732422, 1.7458144426345825, -0.4225708246231079, -0.6966175436973572, 1.5969963073730469, 
3, 2778700154, -83.65635681152344, 6.605844974517822, -136.03111267089844, -1.0799362659454346, -9.11631965637207, 0.7396897673606873, 0.3230211138725281, 0.132681742310524, 1.2965925931930542, 
4, 2778708487, -83.65901947021484, 6.601917266845703, -136.0220184326172, -0.7676406502723694, -9.642976760864258, 1.1269789934158325, -0.42356979846954346, -1.2256282567977905, 1.1885004043579102, 
5, 2778716820, -83.65900421142578, 6.607909202575684, -136.03607177734375, -1.1125645637512207, -9.60096549987793, 0.900830864906311, 0.19115903973579407, 1.518463134765625, 2.072294235229492, 
6, 2778725153, -83.6507568359375, 6.607511520385742, -136.0251007080078, -1.1983784437179565, -10.347033500671387, 1.2887450456619263, 0.7918384671211243, -1.9805824756622314, 1.6984797716140747, 
7, 2778733486, -83.6592025756836, 6.606931686401367, -136.03927612304688, -1.5351814031600952, -9.229512214660645, 1.1513341665267944, -0.8243045210838318, 1.445257544517517, 1.2873201370239258, 
8, 2778741819, -83.65717315673828, 6.604955673217773, -136.03695678710938, -0.6169428825378418, -9.723224639892578, 0.6602057814598083, 0.14069899916648865, -1.1943533420562744, 1.420616865158081, 
9, 2778750152, -83.65338134765625, 6.611878871917725, -136.04554748535156, -1.4240257740020752, -9.921138763427734, 0.7468813061714172, 0.5666125416755676, 0.8833838105201721, 2.2551796436309814, 
10, 2778758485, -83.6520767211914, 6.608278751373291, -136.03598022460938, -1.114559292793274, -9.638015747070312, 1.1706784963607788, 0.0317104198038578, -1.4319254159927368, 1.2510504722595215, 
11, 2778766818, -83.66024017333984, 6.606086254119873, -136.0401153564453, -1.2772903442382812, -9.594523429870605, 1.3349064588546753, -0.9293996691703796, 0.23383232951164246, 1.2267168760299683, 
12, 2778775151, -83.65723419189453, 6.605920314788818, -136.03512573242188, -0.6695348620414734, -9.661947250366211, 0.7874777317047119, 0.35629400610923767, -0.32654306292533875, 1.5430527925491333, 
13, 2778783484, -83.6530532836914, 6.610964298248291, -136.03701782226562, -1.2899912595748901, -10.233213424682617, 1.182464838027954, 0.5199945569038391, 0.06513699889183044, 2.119142532348633, 
14, 2778791817, -83.6542739868164, 6.608083248138428, -136.05810546875, -1.2596371173858643, -9.06521987915039, 1.3244705200195312, -0.11786389350891113, -0.06750631332397461, 1.1852730512619019, 
15, 2778800150, -83.6581039428711, 6.604973793029785, -136.0537109375, -0.8601222038269043, -9.792112350463867, 1.2178648710250854, -0.5270256996154785, -0.7891873717308044, 1.2300724983215332, 
16, 2778808483, -83.65850067138672, 6.608345985412598, -136.06939697265625, -1.1171882152557373, -9.636401176452637, 0.698142945766449, 0.09269791096448898, 0.9626854062080383, 1.8279085159301758, 
17, 2778816816, -83.65251922607422, 6.607623100280762, -136.05416870117188, -1.232797622680664, -10.509820938110352, 1.4539824724197388, 0.5010656714439392, -2.038957357406616, 1.6572154760360718, 
18, 2778825149, -83.65576171875, 6.607290744781494, -136.06723022460938, -1.1951093673706055, -8.942060470581055, 0.9490233063697815, -0.19793397188186646, 1.3435434103012085, 1.337754487991333, 
19, 2778833482, -83.65570831298828, 6.604787349700928, -136.05992126464844, -0.796864926815033, -9.813162803649902, 0.9498720169067383, -0.09993395209312439, -1.1252464056015015, 1.3404953479766846, 
20, 2778841815, -83.65300750732422, 6.611026287078857, -136.09466552734375, -1.2134820222854614, -9.752179145812988, 0.9649227261543274, 0.49914461374282837, 1.3209774494171143, 2.132718324661255, 
21, 2778850148, -83.64778137207031, 6.6090593338012695, -136.08421325683594, -1.332955241203308, -9.921868324279785, 0.8889834880828857, 0.47839707136154175, -1.491324782371521, 1.4446940422058105, 
22, 2778858481, -83.65751647949219, 6.6060471534729, -136.09384155273438, -1.3980588912963867, -9.589752197265625, 1.54756760597229, -1.0678189992904663, 0.5598759651184082, 1.101258397102356, 
23, 2778866814, -83.65557098388672, 6.60577392578125, -136.09002685546875, -0.6967255473136902, -9.533300399780273, 0.5357775688171387, 0.17594416439533234, -0.6840921640396118, 1.5599069595336914, 
24, 2778875147, -83.6517105102539, 6.61056661605835, -136.1157989501953, -1.279921531677246, -10.107500076293945, 1.1069765090942383, 0.48090723156929016, -0.059924498200416565, 2.1103310585021973, 
25, 2778883480, -83.65386962890625, 6.606881618499756, -136.1149139404297, -1.0974606275558472, -9.201738357543945, 1.4469274282455444, -0.2777222990989685, -0.38002556562423706, 1.1155511140823364, 
26, 2778891813, -83.65835571289062, 6.6048736572265625, -136.1140899658203, -0.9994810223579407, -9.969803810119629, 1.3806703090667725, -0.5695452690124512, -0.5726702213287354, 1.3485894203186035, 
27, 2778900146, -83.65607452392578, 6.608669281005859, -136.12176513671875, -0.9964527487754822, -9.543468475341797, 0.6948634386062622, 0.3734555244445801, 0.7341039180755615, 1.8943006992340088, 
28, 2778908479, -83.65181732177734, 6.608641624450684, -136.10003662109375, -1.30648672580719, -10.207257270812988, 1.3497167825698853, 0.3731737732887268, -1.4775699377059937, 1.6887720823287964, 
29, 2778916812, -83.65389251708984, 6.60676908493042, -136.10946655273438, -1.1395050287246704, -8.88242244720459, 0.7906177639961243, -0.12480535358190536, 0.867733359336853, 1.1942893266677856, 
30, 2778925145, -83.6576919555664, 6.603332996368408, -136.10601806640625, -0.8919132947921753, -9.993639945983887, 1.0515156984329224, -0.549258828163147, -1.1325204372406006, 1.238192081451416, 
31, 2778933478, -83.65486145019531, 6.609690189361572, -136.11631774902344, -1.1404372453689575, -9.970193862915039, 0.9589548110961914, 0.4768858551979065, 1.0763359069824219, 2.1660425662994385, 
32, 2778941811, -83.64604949951172, 6.608260154724121, -136.10728454589844, -1.259771704673767, -9.85241413116455, 0.9575303196907043, 0.9033371210098267, -1.6230331659317017, 1.5339595079421997, 
33, 2778950144, -83.655029296875, 6.606566905975342, -136.11618041992188, -1.3064873218536377, -9.226338386535645, 1.38705575466156, -0.9602136015892029, 0.8036722540855408, 1.2231820821762085, 
34, 2778958477, -83.65599060058594, 6.606135368347168, -136.11013793945312, -0.945992112159729, -9.565475463867188, 0.6677107214927673, -0.12928785383701324, -0.38568633794784546, 1.5165163278579712, 
35, 2778966810, -83.65156555175781, 6.609045505523682, -136.1074676513672, -1.168384313583374, -10.250554084777832, 0.943457305431366, 0.49053820967674255, -0.507405161857605, 1.924960970878601, 
36, 2778975143, -83.65167236328125, 6.606078147888184, -136.09976196289062, -1.0538283586502075, -9.366161346435547, 1.0391149520874023, -0.02964847721159458, -0.4714427590370178, 1.2209793329238892, 
37, 2778983476, -83.65550231933594, 6.604211807250977, -136.09727478027344, -0.9233390092849731, -9.828263282775879, 1.3864712715148926, -0.49984899163246155, -0.5458777546882629, 1.3529949188232422, 
38, 2778991809, -83.65304565429688, 6.608481407165527, -136.1053924560547, -1.071478009223938, -9.515373229980469, 0.985220730304718, 0.4429725706577301, 1.047980785369873, 1.928572416305542, 
39, 2779000142, -83.64852142333984, 6.608821868896484, -136.09596252441406, -1.328495740890503, -10.127179145812988, 1.2066667079925537, 0.4088800251483917, -1.343095064163208, 1.7070094347000122, 
40, 2779008475, -83.6533203125, 6.606864929199219, -136.09323120117188, -1.2486002445220947, -9.121376991271973, 0.9450908303260803, -0.4538457989692688, 0.7378436923027039, 1.2090431451797485, 
41, 2779016808, -83.65367889404297, 6.6038031578063965, -136.08596801757812, -0.9467781186103821, -9.978067398071289, 0.9960117936134338, -0.14773008227348328, -1.1265779733657837, 1.2730785608291626, 
42, 2779025141, -83.65029907226562, 6.608748912811279, -136.1028289794922, -1.1385782957077026, -10.043436050415039, 0.8892538547515869, 0.49642953276634216, 0.5631545186042786, 2.061638593673706, 
43, 2779033474, -83.64651489257812, 6.607094764709473, -136.09469604492188, -1.1646751165390015, -9.55754566192627, 1.0338964462280273, 0.33408644795417786, -1.2134358882904053, 1.4529417753219604, 
44, 2779041807, -83.6563949584961, 6.604954719543457, -136.10714721679688, -1.1912745237350464, -9.379366874694824, 1.6162444353103638, -1.0757850408554077, 0.6494489312171936, 1.19674813747406, 
45, 2779050140, -83.65152740478516, 6.606395244598389, -136.1048583984375, -0.82164466381073, -9.796976089477539, 0.6070705652236938, 0.5465822219848633, -0.47820496559143066, 1.7440733909606934, 
46, 2779058473, -83.64954376220703, 6.610386371612549, -136.11227416992188, -1.3969453573226929, -10.202864646911621, 0.9966033697128296, 0.2833702862262726, 0.1547612100839615, 1.9906102418899536, 
47, 2779066806, -83.65116119384766, 6.606330871582031, -136.10997009277344, -1.2600090503692627, -9.299067497253418, 1.231590747833252, -0.23046405613422394, -0.5539718866348267, 1.0891684293746948, 
48, 2779075139, -83.65306091308594, 6.60338830947876, -136.11203002929688, -0.8379555344581604, -9.59589672088623, 1.2463756799697876, -0.30218395590782166, -0.9403369426727295, 1.2760498523712158, 
49, 2779083472, -83.65162658691406, 6.606892108917236, -136.1199951171875, -0.9952930808067322, -9.662270545959473, 0.7705305814743042, 0.2765825092792511, 0.7648153901100159, 1.855571985244751, 
50, 2779091805, -83.64979553222656, 6.606135368347168, -136.10133361816406, -1.167687177658081, -10.20263385772705, 1.690395474433899, 0.09828181564807892, -1.3588734865188599, 1.584701418876648, 
51, 2779100138, -83.6519546508789, 6.6052398681640625, -136.11105346679688, -1.2797867059707642, -9.268775939941406, 0.8807438611984253, -0.1317467987537384, 0.9129680395126343, 1.3086055517196655, 
52, 2779108471, -83.6510009765625, 6.604305744171143, -136.1174774169922, -0.7890730500221252, -9.830710411071777, 0.6552075743675232, 0.06429173797369003, -0.7382663488388062, 1.496101975440979, 
53, 2779116804, -83.64905548095703, 6.608600616455078, -136.1252899169922, -1.4104596376419067, -9.899548530578613, 0.9678981304168701, 0.33398401737213135, 0.7581300735473633, 1.9510619640350342, 
54, 2779125137, -83.64613342285156, 6.605911731719971, -136.130126953125, -1.0983165502548218, -9.593589782714844, 1.005571722984314, 0.20545177161693573, -1.550749659538269, 1.3744341135025024, 
55, 2779133470, -83.65462493896484, 6.6041741371154785, -136.1359100341797, -1.236769437789917, -9.524603843688965, 1.3439977169036865, -0.9443840384483337, 0.437439888715744, 1.2595800161361694, 
56, 2779141803, -83.65129852294922, 6.605303764343262, -136.132080078125, -0.8100233674049377, -9.805992126464844, 0.6425986886024475, 0.37132957577705383, -0.5147308707237244, 1.7193042039871216, 
57, 2779150136, -83.64734649658203, 6.610218048095703, -136.13253784179688, -1.3077661991119385, -10.110757827758789, 1.290076732635498, 0.4742475748062134, -0.10515924543142319, 2.1227030754089355, 
58, 2779158469, -83.64781188964844, 6.607686519622803, -136.13284301757812, -1.1118592023849487, -9.188676834106445, 1.2171351909637451, -0.05626166984438896, -0.32626134157180786, 1.2577359676361084, 
59, 2779166802, -83.6511459350586, 6.605216026306152, -136.13063049316406, -0.8970524072647095, -9.60443115234375, 1.0791133642196655, -0.4355573058128357, -0.5210831761360168, 1.2771000862121582, 
60, 2779175135, -83.65264892578125, 6.607945442199707, -136.14614868164062, -1.207099199295044, -9.855570793151855, 0.7502431273460388, -0.045017022639513016, 0.9147100448608398, 1.7547032833099365, 
61, 2779183468, -83.64813995361328, 6.606678485870361, -136.13467407226562, -1.146547555923462, -10.279356956481934, 1.4856606721878052, 0.37581202387809753, -1.6041297912597656, 1.5429502725601196, 
62, 2779191801, -83.64933776855469, 6.606363773345947, -136.15660095214844, -1.2193810939788818, -9.075535774230957, 0.7980072498321533, -0.040829092264175415, 0.6019473671913147, 1.4227298498153687, 
63, 2779200134, -83.65125274658203, 6.606939315795898, -136.15415954589844, -0.7732452154159546, -9.676721572875977, 0.9506807327270508, -0.2678864896297455, -0.5102483034133911, 1.6438959836959839, 
64, 2779208467, -83.64728546142578, 6.611630439758301, -136.16090393066406, -1.3301810026168823, -10.006562232971191, 0.9705875515937805, 0.5789842009544373, 0.6788284778594971, 2.018862724304199, 
65, 2779216800, -83.64290618896484, 6.610014915466309, -136.1541290283203, -1.125949501991272, -9.650031089782715, 0.829534649848938, 0.4281163215637207, -1.0517845153808594, 1.438777208328247, 
66, 2779225133, -83.65311431884766, 6.606692790985107, -136.12452697753906, -1.3979229927062988, -9.659664154052734, 1.6414916515350342, -1.1563161611557007, 0.24615278840065002, 1.0979541540145874, 
67, 2779233466, -83.64995574951172, 6.607448101043701, -136.1228485107422, -0.6722353100776672, -9.67458438873291, 0.6055408120155334, 0.3506845235824585, -0.41621851921081543, 1.6544747352600098, 
68, 2779241799, -83.64463806152344, 6.611473560333252, -136.12107849121094, -1.2603931427001953, -9.996867179870605, 1.0221445560455322, 0.6277792453765869, -0.32331568002700806, 2.050060749053955, 
69, 2779250132, -83.6475830078125, 6.609126091003418, -136.12249755859375, -1.1655269861221313, -9.205643653869629, 1.4925552606582642, -0.3380182385444641, -0.0912507027387619, 1.24308443069458, 
70, 2779258465, -83.6488265991211, 6.606410026550293, -136.14598083496094, -0.9227381944656372, -9.981005668640137, 1.2784132957458496, -0.22178085148334503, -0.8893902897834778, 1.2978732585906982, 
71, 2779266798, -83.64996337890625, 6.610729694366455, -136.1562957763672, -1.188812494277954, -9.639827728271484, 0.7465208172798157, -0.0004738633579108864, 1.0532573461532593, 1.9220150709152222, 
72, 2779275131, -83.64483642578125, 6.609188556671143, -136.13534545898438, -1.1481775045394897, -10.093351364135742, 1.2830264568328857, 0.44417649507522583, -1.7579947710037231, 1.5372639894485474, 
73, 2779283464, -83.64973449707031, 6.6088786125183105, -136.14556884765625, -1.252426266670227, -9.009390830993652, 0.8391098976135254, -0.4514124393463135, 0.9806665182113647, 1.3711299896240234, 
74, 2779291797, -83.65340423583984, 6.605463027954102, -136.14849853515625, -0.8045068979263306, -9.968554496765137, 0.9469830989837646, -0.5246050953865051, -1.0313314199447632, 1.2300084829330444, 
75, 2779300130, -83.64985656738281, 6.612137794494629, -136.15618896484375, -1.26070237159729, -10.047492980957031, 1.0484145879745483, 0.5273202657699585, 0.7731913328170776, 2.2369937896728516, 
76, 2779308463, -83.64277648925781, 6.611573219299316, -136.13409423828125, -1.185302495956421, -9.699994087219238, 0.9939277172088623, 0.7399184107780457, -1.2262686491012573, 1.5955618619918823, 
77, 2779316796, -83.65155792236328, 6.609581470489502, -136.1396942138672, -1.2979334592819214, -9.343615531921387, 1.5239489078521729, -0.9812430143356323, 0.4103657007217407, 1.2308920621871948, 
78, 2779325129, -83.6505126953125, 6.6082329750061035, -136.149169921875, -0.7969698905944824, -9.520027160644531, 0.5812755823135376, 0.11487983167171478, -0.3682430386543274, 1.4051456451416016, 
79, 2779333462, -83.64669036865234, 6.612196922302246, -136.14895629882812, -1.287440299987793, -10.279250144958496, 0.9389967322349548, 0.4512203335762024, -0.1989329606294632, 2.0174028873443604, 
80, 2779341795, -83.65003204345703, 6.610230922698975, -136.13121032714844, -1.244608998298645, -9.356526374816895, 1.2279142141342163, -0.39741769433021545, -0.28906944394111633, 1.3219761848449707, 
81, 2779350128, -83.65251922607422, 6.608088493347168, -136.12437438964844, -0.8617089986801147, -9.959365844726562, 1.5345011949539185, -0.39851903915405273, -1.0661027431488037, 1.3772517442703247, 
82, 2779358461, -83.6487045288086, 6.6131815910339355, -136.1362762451172, -0.9650394320487976, -9.389192581176758, 0.7436341047286987, 0.6268572211265564, 1.229073405265808, 2.0057485103607178, 
83, 2779366794, -83.64775848388672, 6.6127238273620605, -136.1262664794922, -1.3783596754074097, -10.26413631439209, 1.6172897815704346, -0.02923864871263504, -1.4196304082870483, 1.6194343566894531, 
84, 2779375127, -83.65035247802734, 6.612112522125244, -136.14247131347656, -1.11728835105896, -9.101663589477539, 0.8219618201255798, -0.18115666508674622, 0.8289278149604797, 1.3613709211349487, 
85, 2779383460, -83.65217590332031, 6.607793807983398, -136.133544921875, -1.0274609327316284, -9.966365814208984, 0.9880775213241577, -0.3496214747428894, -1.342096209526062, 1.1460832357406616, 
86, 2779391793, -83.65067291259766, 6.6137824058532715, -136.14527893066406, -1.0628126859664917, -9.927764892578125, 0.8170881271362305, 0.3415914475917816, 1.1677273511886597, 2.118527889251709, 
87, 2779400126, -83.6429672241211, 6.613813877105713, -136.1339111328125, -1.2674790620803833, -9.666452407836914, 1.1273469924926758, 0.7609861493110657, -1.5729700326919556, 1.6967252492904663, 
88, 2779408459, -83.6518783569336, 6.613853454589844, -136.14352416992188, -1.2135841846466064, -9.278943061828613, 1.258208990097046, -0.9263259768486023, 0.9417329430580139, 1.426354169845581, 
89, 2779416792, -83.6522445678711, 6.612577438354492, -136.13787841796875, -0.7464467883110046, -9.659819602966309, 1.031028151512146, -0.1277766078710556, -0.9129297137260437, 1.4647244215011597, 
90, 2779425125, -83.64722442626953, 6.61937141418457, -136.14163208007812, -1.4299131631851196, -10.34196949005127, 0.5457717180252075, 0.6639722585678101, 0.3197169005870819, 2.311889410018921, 
91, 2779433458, -83.64714050292969, 6.616157531738281, -136.1375732421875, -1.147580623626709, -9.324116706848145, 1.1915563344955444, -0.05390515550971031, -0.7502280473709106, 1.2137304544448853, 
92, 2779441791, -83.6546859741211, 6.612461090087891, -136.13734436035156, -1.2216914892196655, -9.608799934387207, 1.587280511856079, -0.9250453114509583, -0.4827898442745209, 1.1350691318511963, 
93, 2779450124, -83.65091705322266, 6.615577220916748, -136.1414031982422, -0.4591626524925232, -9.49445915222168, 0.624836802482605, 0.5034734010696411, 0.2941795289516449, 1.8604387044906616, 
94, 2779458457, -83.65540313720703, 6.616990566253662, -136.1390380859375, -1.4964522123336792, -10.35929012298584, 1.7789912223815918, -0.5894731283187866, -0.7111151814460754, 1.7778840065002441, 
95, 2779466790, -83.65411376953125, 6.616509437561035, -136.14364624023438, -1.1321806907653809, -9.25221061706543, 0.8840844035148621, 0.21165041625499725, 0.31187888979911804, 1.4241256713867188, 
96, 2779475123, -83.65513610839844, 6.612975597381592, -136.13507080078125, -0.8297294974327087, -9.817858695983887, 1.1794416904449463, -0.22762088477611542, -1.2530099153518677, 1.238934874534607, 
97, 2779483456, -83.65437316894531, 6.6187520027160645, -136.1506805419922, -1.1363279819488525, -9.517327308654785, 0.6372926235198975, 0.29891812801361084, 1.698556900024414, 2.026214361190796, 
98, 2779491789, -83.64694213867188, 6.618348598480225, -136.1382598876953, -1.2556376457214355, -10.165986061096191, 1.2140262126922607, 0.7002164125442505, -1.9505881071090698, 1.6970456838607788, 
99, 2779500122, -83.65253448486328, 6.617392063140869, -136.15000915527344, -1.3554848432540894, -9.097702026367188, 0.8592826128005981, -0.5158067345619202, 1.153229832649231, 1.273591160774231, 
100, 2779508455, -83.65229034423828, 6.614100933074951, -136.1381072998047, -0.7891127467155457, -10.00399398803711, 1.0784236192703247, -0.09089210629463196, -1.34944748878479, 1.2801482677459717, 
101, 2779516788, -83.6476821899414, 6.621413707733154, -136.14743041992188, -1.1663081645965576, -9.989839553833008, 0.8711977601051331, 0.6774196624755859, 0.9754669070243835, 2.291654109954834, 
102, 2779525121, -83.6444320678711, 6.620785713195801, -136.14520263671875, -1.285740852355957, -9.565766334533691, 0.9590089917182922, 0.3031701147556305, -1.043408751487732, 1.567360758781433, 
103, 2779533454, -83.65330505371094, 6.618876934051514, -136.150390625, -1.2922683954238892, -9.395373344421387, 1.3138055801391602, -0.9990958571434021, 0.3608020842075348, 1.2465934753417969, 
104, 2779541787, -83.65238952636719, 6.617845058441162, -136.15260314941406, -0.7284814119338989, -9.634666442871094, 0.7601609826087952, 0.0830925703048706, -0.5365540981292725, 1.461471438407898, 
105, 2779550120, -83.6470718383789, 6.622994899749756, -136.1522674560547, -1.2329816818237305, -10.440494537353516, 0.7801973819732666, 0.6267932057380676, -0.19938120245933533, 2.1624691486358643, 
106, 2779558453, -83.64966583251953, 6.619161605834961, -136.1547393798828, -1.2262691259384155, -9.18282699584961, 1.496031403541565, -0.28289639949798584, -0.09916550666093826, 1.075439214706421, 
107, 2779566786, -83.65227508544922, 6.6173176765441895, -136.1473846435547, -0.9472014904022217, -9.784733772277832, 1.5412906408309937, -0.4200350344181061, -1.12117338180542, 1.4195921421051025, 
108, 2779575119, -83.64827728271484, 6.622045993804932, -136.1378631591797, -0.773370623588562, -9.302244186401367, 0.5406395196914673, 0.629725992679596, 1.062709093093872, 1.981696605682373, 
109, 2779583452, -83.65080261230469, 6.620527267456055, -136.12667846679688, -1.544968605041504, -10.525473594665527, 1.8698601722717285, -0.4606592357158661, -1.5704728364944458, 1.5076026916503906, 
110, 2779591785, -83.64997100830078, 6.619833469390869, -136.1432342529297, -1.0759949684143066, -9.116484642028809, 0.6347504258155823, 0.24482084810733795, 0.9710357189178467, 1.3386000394821167, 
111, 2779600118, -83.65080261230469, 6.615837574005127, -136.13412475585938, -0.9353795051574707, -9.883328437805176, 0.8776644468307495, -0.2307458370923996, -1.3598982095718384, 1.1864001750946045, 
112, 2779608451, -83.65116882324219, 6.6218743324279785, -136.18626403808594, -1.0896071195602417, -9.763254165649414, 1.0825740098953247, 0.15873143076896667, 1.5554499626159668, 2.081566572189331, 
113, 2779616784, -83.64302062988281, 6.620595932006836, -136.17263793945312, -1.3119311332702637, -9.922207832336426, 1.0300841331481934, 0.7818489074707031, -1.8580695390701294, 1.5706392526626587, 
114, 2779625117, -83.6527099609375, 6.619689464569092, -136.18443298339844, -1.339967131614685, -9.325113296508789, 1.1409406661987305, -0.9966626167297363, 1.1140910387039185, 1.2917002439498901, 
115, 2779633450, -83.65202331542969, 6.617865562438965, -136.17861938476562, -0.6836215257644653, -9.695021629333496, 1.004457950592041, -0.0054430244490504265, -0.9396197199821472, 1.4025843143463135, 
116, 2779641783, -83.64593505859375, 6.6226067543029785, -136.19107055664062, -1.4220409393310547, -10.178553581237793, 0.5925287008285522, 0.7953988313674927, 0.3393886685371399, 2.062509536743164, 
117, 2779650116, -83.64738464355469, 6.618683815002441, -136.18569946289062, -1.0207892656326294, -9.262903213500977, 1.3522088527679443, -0.25331196188926697, -0.9158753156661987, 1.1447769403457642, 
118, 2779658449, -83.65493774414062, 6.615415573120117, -136.1897430419922, -1.1485177278518677, -9.692595481872559, 1.4400246143341064, -0.9086521863937378, -0.343576580286026, 1.1714414358139038, 
119, 2779666782, -83.6496353149414, 6.619240760803223, -136.19276428222656, -0.6031697392463684, -9.606391906738281, 0.5653395056724548, 0.671195387840271, 0.18086211383342743, 1.9592071771621704, 
120, 2779675115, -83.65021514892578, 6.621004581451416, -136.18862915039062, -1.6631754636764526, -10.445120811462402, 1.5929182767868042, -0.1074645146727562, -0.6065834760665894, 1.807237982749939, 
121, 2779683448, -83.64913940429688, 6.619171619415283, -136.190673828125, -1.0849720239639282, -9.134045600891113, 0.9913339614868164, 0.15155941247940063, -0.008388661779463291, 1.2986416816711426, 
122, 2779691781, -83.65188598632812, 6.616608619689941, -136.184326171875, -0.8508511185646057, -9.613966941833496, 1.0556541681289673, -0.4099173843860626, -0.9947159886360168, 1.3270221948623657, 
123, 2779700114, -83.65043640136719, 6.621071815490723, -136.1954345703125, -1.0832933187484741, -9.718096733093262, 0.7377881407737732, 0.32309794425964355, 1.1471846103668213, 1.9290332794189453, 
124, 2779708447, -83.6436767578125, 6.619349002838135, -136.18203735351562, -1.2007615566253662, -10.101579666137695, 1.3086678981781006, 0.6476302146911621, -1.7064841985702515, 1.5098568201065063, 
125, 2779716780, -83.65351867675781, 6.618430137634277, -136.1955108642578, -1.4023293256759644, -9.398037910461426, 1.2517714500427246, -0.9999925494194031, 1.3571702241897583, 1.2541754245758057, 
126, 2779725113, -83.65042114257812, 6.6173930168151855, -136.1912841796875, -0.6570881605148315, -9.754290580749512, 0.8291230201721191, 0.2795281410217285, -1.0834949016571045, 1.5227406024932861, 
127, 2779733446, -83.64556884765625, 6.623854160308838, -136.1968536376953, -1.4433239698410034, -9.92055892944336, 0.8449252247810364, 0.652164101600647, 0.5175612568855286, 2.2412712574005127, 
128, 2779741779, -83.64437103271484, 6.6201863288879395, -136.1876678466797, -1.0912306308746338, -9.456708908081055, 1.0507022142410278, 0.07289810478687286, -0.9530671834945679, 1.1891664266586304, 
129, 2779750112, -83.65311431884766, 6.615736484527588, -136.1879119873047, -1.3350995779037476, -9.733381271362305, 1.4636147022247314, -1.051169753074646, -0.2558734118938446, 1.0094313621520996, 
130, 2779758445, -83.6478500366211, 6.618648529052734, -136.18402099609375, -0.5748240947723389, -9.681497573852539, 0.30493783950805664, 0.6634086966514587, 0.038088370114564896, 1.874808430671692, 
131, 2779766778, -83.6471939086914, 6.621572017669678, -136.18060302734375, -1.489499807357788, -10.192793846130371, 1.5549200773239136, 0.02499949373304844, -0.5920090079307556, 1.936922550201416, 
132, 2779775111, -83.64704895019531, 6.619314193725586, -136.19573974609375, -0.9751184582710266, -9.150202751159668, 1.2489292621612549, 0.04628492519259453, -0.06871019303798676, 1.261603593826294, 
133, 2779783444, -83.65006256103516, 6.617764949798584, -136.19264221191406, -0.9763630628585815, -9.728681564331055, 1.1257930994033813, -0.4109675884246826, -0.6126284599304199, 1.3995361328125, 
134, 2779791777, -83.65162658691406, 6.622804641723633, -136.2107696533203, -1.116178274154663, -9.961749076843262, 0.8405550718307495, -0.04453035444021225, 1.0017215013504028, 2.024728536605835, 
135, 2779800110, -83.64411926269531, 6.6213154792785645, -136.1971893310547, -1.3258010149002075, -10.069464683532715, 1.1733647584915161, 0.7075420618057251, -1.8565326929092407, 1.544589638710022, 
136, 2779808443, -83.65061950683594, 6.619531154632568, -136.21803283691406, -1.2349669933319092, -9.106191635131836, 1.0128353834152222, -0.6394978165626526, 0.9065902233123779, 1.2116044759750366, 
137, 2779816776, -83.65350341796875, 6.618338584899902, -136.2140655517578, -0.7006567120552063, -9.65831184387207, 0.8195512890815735, -0.4054092764854431, -0.7115761637687683, 1.4521989822387695, 
138, 2779825109, -83.65029907226562, 6.623809337615967, -136.2337646484375, -1.3401635885238647, -10.152469635009766, 1.0521328449249268, 0.46133798360824585, 0.4465073347091675, 2.1380202770233154, 
139, 2779833442, -83.64637756347656, 6.622910022735596, -136.22891235351562, -1.0781583786010742, -9.589157104492188, 0.9600216746330261, 0.3959704637527466, -0.8108314275741577, 1.4993804693222046, 
140, 2779841775, -83.65463256835938, 6.619624137878418, -136.23605346679688, -1.3496989011764526, -9.73315143585205, 1.6279228925704956, -0.9784509539604187, -0.23007985949516296, 1.1545360088348389, 
141, 2779850108, -83.65308380126953, 6.621143817901611, -136.23898315429688, -0.6384102702140808, -9.517862319946289, 0.5648704171180725, 0.2197445183992386, 0.14128811657428741, 1.6847505569458008, 
142, 2779858441, -83.65090942382812, 6.622402667999268, -136.2338104248047, -1.4514902830123901, -10.111684799194336, 1.2262030839920044, 0.1992531418800354, -0.7950019240379333, 1.7690472602844238, 
143, 2779866774, -83.65066528320312, 6.619308948516846, -136.23707580566406, -1.0625905990600586, -9.206695556640625, 0.9815345406532288, 0.06828754395246506, 0.11864513903856277, 1.1310220956802368, 
144, 2779875107, -83.65560150146484, 6.616311073303223, -136.2272186279297, -0.9903324842453003, -10.012249946594238, 1.365019679069519, -0.6226180195808411, -0.5951594710350037, 1.2318397760391235, 
145, 2779883440, -83.65328979492188, 6.621539115905762, -136.2355499267578, -1.079950213432312, -9.833736419677734, 0.8920881152153015, 0.38787639141082764, 0.8303622603416443, 2.056413412094116, 
146, 2779891773, -83.6472396850586, 6.621857166290283, -136.22731018066406, -1.191404938697815, -9.869916915893555, 1.2388548851013184, 0.5918169021606445, -1.4290310144424438, 1.7244526147842407, 
147, 2779900106, -83.65511322021484, 6.620616436004639, -136.23670959472656, -1.3303321599960327, -9.042996406555176, 1.0425885915756226, -0.8195658922195435, 0.8688604235649109, 1.2711831331253052, 
148, 2779908439, -83.65612030029297, 6.617761611938477, -136.23736572265625, -0.639658510684967, -9.82585620880127, 0.89255291223526, -0.2227029800415039, -1.1757575273513794, 1.3143945932388306, 
149, 2779916772, -83.65283966064453, 6.622288227081299, -136.24349975585938, -1.346252679824829, -10.156128883361816, 0.8544220924377441, 0.4736071825027466, 0.5609004497528076, 2.0020341873168945, 
150, 2779925105, -83.64837646484375, 6.621028900146484, -136.24356079101562, -1.0865576267242432, -9.681504249572754, 1.0836941003799438, 0.44473996758461, -1.0736846923828125, 1.4957433938980103, 
151, 2779933438, -83.65608978271484, 6.618754863739014, -136.24679565429688, -1.2952868938446045, -9.342836380004883, 1.5918008089065552, -0.8871617913246155, 0.12530483305454254, 1.228663444519043, 
152, 2779941771, -83.65432739257812, 6.620739936828613, -136.2421417236328, -0.6888445019721985, -9.663503646850586, 0.6523056626319885, 0.22671158611774445, -0.13366788625717163, 1.7816237211227417, 
153, 2779950104, -83.6523208618164, 6.623053550720215, -136.23915100097656, -1.4915012121200562, -10.215224266052246, 1.1902796030044556, 0.19515486061573029, -0.5512823462486267, 1.8585175275802612, 
154, 2779958437, -83.65338134765625, 6.621698379516602, -136.24659729003906, -1.1470798254013062, -9.396345138549805, 0.8843559622764587, -0.07357688993215561, 0.17023220658302307, 1.345310926437378, 
155, 2779966770, -83.6552505493164, 6.6189656257629395, -136.2391357421875, -0.78533935546875, -9.751002311706543, 1.3232632875442505, -0.3339200019836426, -1.1481709480285645, 1.3151373863220215, 
156, 2779975103, -83.65310668945312, 6.6243977546691895, -136.2421112060547, -1.088577389717102, -9.603950500488281, 0.7671787738800049, 0.43991169333457947, 1.3293660879135132, 2.035217523574829, 
157, 2779983436, -83.64979553222656, 6.623624801635742, -136.23081970214844, -1.2557373046875, -10.182262420654297, 1.4830431938171387, 0.23533080518245697, -1.5760438442230225, 1.5995193719863892, 
158, 2779991769, -83.65501403808594, 6.623435020446777, -136.23695373535156, -1.3670456409454346, -9.173913955688477, 1.0359516143798828, -0.4878614842891693, 0.9299503564834595, 1.401995062828064, 
159, 2780000102, -83.65569305419922, 6.621486186981201, -136.2299041748047, -0.7219316363334656, -9.87097454071045, 1.005214810371399, -0.18335950374603271, -1.0884127616882324, 1.4032758474349976, 
160, 2780008435, -83.65106964111328, 6.627057075500488, -136.2384796142578, -1.3169450759887695, -10.032332420349121, 0.643748939037323, 0.6707344055175781, 0.7831808924674988, 2.1134562492370605, 
161, 2780016768, -83.64972686767578, 6.623749732971191, -136.2301483154297, -1.1636080741882324, -9.410263061523438, 1.0854591131210327, 0.038984861224889755, -1.2567496299743652, 1.2582223415374756, 
162, 2780025101, -83.65960693359375, 6.620976448059082, -136.22601318359375, -1.2293448448181152, -9.50806713104248, 1.4181727170944214, -1.0945602655410767, 0.45926326513290405, 1.1411141157150269, 
163, 2780033434, -83.65603637695312, 6.62131929397583, -136.22178649902344, -0.7002405524253845, -9.783743858337402, 0.7303904294967651, 0.3652077615261078, -0.7228466272354126, 1.639413595199585, 
164, 2780041767, -83.65325164794922, 6.62644624710083, -136.22564697265625, -1.3641211986541748, -10.303791999816895, 1.056234359741211, 0.3974561095237732, 0.32647904753685, 2.1094858646392822, 
165, 2780050100, -83.65457916259766, 6.624139785766602, -136.22621154785156, -1.3512436151504517, -9.190308570861816, 1.3344486951828003, -0.15690000355243683, -0.19083885848522186, 1.2600667476654053, 
166, 2780058433, -83.65847778320312, 6.621041297912598, -136.24563598632812, -0.8568748235702515, -9.68170166015625, 1.2451168298721313, -0.5340695977210999, -0.8452569842338562, 1.2479512691497803, 
167, 2780066766, -83.65567016601562, 6.624889373779297, -136.2537841796875, -0.9272316098213196, -9.453417778015137, 0.42310479283332825, 0.44322869181632996, 0.7881243824958801, 1.8944799900054932, 
168, 2780075099, -83.6558837890625, 6.624151706695557, -136.23825073242188, -1.3568204641342163, -10.41311264038086, 1.7904329299926758, -0.15113678574562073, -1.368760585784912, 1.591770887374878, 
169, 2780083432, -83.65481567382812, 6.6248931884765625, -136.2459716796875, -1.1079416275024414, -9.165375709533691, 0.8827599287033081, 0.23150144517421722, 0.6978341937065125, 1.5285550355911255, 
170, 2780091765, -83.6540298461914, 6.623298168182373, -136.2351531982422, -0.8122093677520752, -9.82315444946289, 0.8289847373962402, 0.009861480444669724, -1.0244284868240356, 1.448433756828308, 
171, 2780100098, -83.65328216552734, 6.629706859588623, -136.24827575683594, -1.2440301179885864, -9.791851997375488, 1.0854170322418213, 0.2648511826992035, 1.413265347480774, 2.134101152420044, 
172, 2780108431, -83.64643859863281, 6.627842903137207, -136.2356719970703, -1.3561506271362305, -9.84786605834961, 0.9572769403457642, 0.6574406027793884, -1.6993638277053833, 1.491593837738037, 
173, 2780116764, -83.65577697753906, 6.624741554260254, -136.24478149414062, -1.3282686471939087, -9.436488151550293, 1.213629961013794, -0.9981997013092041, 0.8124324083328247, 1.0527962446212769, 
174, 2780125097, -83.65555572509766, 6.623132705688477, -136.2421112060547, -0.5812065601348877, -9.700757026672363, 0.9076548218727112, -0.07298776507377625, -1.143227219581604, 1.4619836807250977, 
175, 2780133430, -83.64910125732422, 6.628888130187988, -136.2455596923828, -1.2785471677780151, -10.161026954650879, 0.9627588987350464, 0.8172222375869751, 0.25865256786346436, 2.182614803314209, 
176, 2780141763, -83.65071105957031, 6.627069473266602, -136.24192810058594, -1.1363294124603271, -9.203642845153809, 1.2960162162780762, -0.2200646996498108, -0.5347868204116821, 1.368107557296753, 
177, 2780150096, -83.65885162353516, 6.623570919036865, -136.24192810058594, -1.2278140783309937, -9.680428504943848, 1.5724238157272339, -0.9837273955345154, -0.27444368600845337, 1.1268980503082275, 
178, 2780158429, -83.65495300292969, 6.627140045166016, -136.24978637695312, -0.6820058822631836, -9.490534782409668, 0.4113936722278595, 0.5464540719985962, 0.4382595419883728, 1.9091826677322388, 
179, 2780166762, -83.65515899658203, 6.627713680267334, -136.24232482910156, -1.5428544282913208, -10.559124946594238, 1.60175621509552, -0.13528157770633698, -1.1053439378738403, 1.7102880477905273, 
180, 2780175095, -83.65414428710938, 6.6263747215271, -136.25257873535156, -1.102081537246704, -9.063790321350098, 0.760383129119873, 0.21185530722141266, 0.4726594388484955, 1.3125500679016113, 
181, 2780183428, -83.6568832397461, 6.622949123382568, -136.244140625, -0.7233811616897583, -9.748580932617188, 1.2186510562896729, -0.45066964626312256, -1.27181077003479, 1.2450567483901978, 
182, 2780191761, -83.6549301147461, 6.62982702255249, -136.26405334472656, -0.994607150554657, -9.466072082519531, 0.7059577703475952, 0.4596218466758728, 1.730036735534668, 2.1683731079101562, 
183, 2780200094, -83.64846801757812, 6.629634380340576, -136.25001525878906, -1.3173593282699585, -10.402833938598633, 1.3969299793243408, 0.5756286978721619, -1.8929049968719482, 1.7051140069961548, 
184, 2780208427, -83.654052734375, 6.6297736167907715, -136.26011657714844, -1.587349772453308, -9.23003101348877, 1.0418319702148438, -0.50538170337677, 1.1379891633987427, 1.4171074628829956, 
185, 2780216760, -83.65292358398438, 6.626354217529297, -136.2511749267578, -0.5079192519187927, -9.67961311340332, 0.7560024261474609, 0.005993731785565615, -1.3328238725662231, 1.2538425922393799, 
186, 2780225093, -83.64973449707031, 6.633950710296631, -136.2554168701172, -1.2623672485351562, -9.854928016662598, 0.7138019800186157, 0.5377196073532104, 1.1397053003311157, 2.318523645401001, 
187, 2780233426, -83.64950561523438, 6.6297197341918945, -136.2451629638672, -1.2800490856170654, -9.771954536437988, 1.2203447818756104, -0.12032286822795868, -1.4997261762619019, 1.1738489866256714, 
188, 2780241759, -83.65666961669922, 6.628116607666016, -136.24559020996094, -1.2984699010849, -9.679134368896484, 1.3849835395812988, -0.7896996140480042, 0.26938489079475403, 1.303687572479248, 
189, 2780250092, -83.65442657470703, 6.6285247802734375, -136.24301147460938, -0.6071200370788574, -9.606491088867188, 0.8762878775596619, 0.22622491419315338, -0.5268207788467407, 1.6262476444244385, 
190, 2780258425, -83.65066528320312, 6.633427619934082, -136.24050903320312, -1.3452357053756714, -10.20650577545166, 1.0038244724273682, 0.4763222932815552, -0.022271575406193733, 2.122241735458374, 
191, 2780266758, -83.65312957763672, 6.6303391456604, -136.2400360107422, -1.3313086032867432, -9.014663696289062, 1.2670044898986816, -0.3083057701587677, -0.3258002996444702, 1.1804064512252808, 
192, 2780275091, -83.66078186035156, 6.625858306884766, -136.23080444335938, -1.0380042791366577, -9.820650100708008, 1.3320932388305664, -0.9790912866592407, -0.8873667120933533, 1.085684895515442, 
193, 2780283424, -83.65792083740234, 6.6292290687561035, -136.2391357421875, -0.7213196754455566, -9.512320518493652, 0.4325789213180542, 0.4517838954925537, 0.8044662475585938, 1.8355159759521484, 
194, 2780291757, -83.6579360961914, 6.628572940826416, -136.22247314453125, -1.492095708847046, -10.603683471679688, 1.9206349849700928, -0.14340130984783173, -1.5123285055160522, 1.6167194843292236, 
195, 2780300090, -83.655029296875, 6.629386901855469, -136.22801208496094, -1.0228325128555298, -9.002456665039062, 0.7160594463348389, 0.4186646640300751, 0.4406672716140747, 1.5661054849624634, 
196, 2780308423, -83.65572357177734, 6.625176429748535, -136.224365234375, -0.8502227067947388, -9.70404052734375, 1.0362681150436401, -0.17774997651576996, -1.1510140895843506, 1.1480811834335327, 
197, 2780316756, -83.65729522705078, 6.632259368896484, -136.24044799804688, -1.1226519346237183, -9.601934432983398, 0.9331489205360413, 0.027048632502555847, 1.774605393409729, 2.177363634109497, 
198, 2780325089, -83.64615631103516, 6.631059169769287, -136.2180633544922, -1.2437081336975098, -10.168671607971191, 0.9346463084220886, 1.1118882894515991, -2.2322933673858643, 1.6300132274627686, 
199, 2780333422, -83.6565933227539, 6.62925910949707, -136.2302703857422, -1.5674378871917725, -9.370786666870117, 1.0128998756408691, -1.0900777578353882, 1.1952369213104248, 1.1678298711776733, 
200, 2780341755, -83.65767669677734, 6.626582622528076, -136.2234344482422, -0.5105198621749878, -9.644728660583496, 0.8739414811134338, -0.2057463377714157, -0.9804487824440002, 1.3136259317398071, 
201, 2780350088, -83.65033721923828, 6.634705543518066, -136.22854614257812, -1.271071195602417, -9.959800720214844, 0.8423044085502625, 0.9467533230781555, 0.4870290458202362, 2.4447760581970215, 
202, 2780358421, -83.65010833740234, 6.632195949554443, -136.22459411621094, -1.1762564182281494, -9.514418601989746, 1.1141124963760376, -0.006108994595706463, -0.6006921529769897, 1.2927759885787964, 
203, 2780366754, -83.66162109375, 6.628769397735596, -136.22576904296875, -1.4972326755523682, -9.775050163269043, 1.6739410161972046, -1.3714247941970825, -0.1305941790342331, 1.118138313293457, 
204, 2780375087, -83.65632629394531, 6.6295881271362305, -136.2145233154297, -0.5804356932640076, -9.67347240447998, 0.4941768944263458, 0.6382299065589905, -0.2805655300617218, 1.658470630645752, 
205, 2780383420, -83.65477752685547, 6.632561683654785, -136.21302795410156, -1.3131457567214966, -10.173340797424316, 1.2433795928955078, 0.15765562653541565, -0.36414480209350586, 1.9173280000686646, 
206, 2780391753, -83.65777587890625, 6.628899574279785, -136.21148681640625, -1.1880443096160889, -9.072615623474121, 1.422314167022705, -0.3246988356113434, -0.04268611967563629, 1.0896294116973877, 
207, 2780400086, -83.65921783447266, 6.626103401184082, -136.20358276367188, -0.7362855672836304, -9.800154685974121, 1.229793667793274, -0.2884290814399719, -1.199706792831421, 1.3144457340240479, 
208, 2780408419, -83.66104888916016, 6.63148307800293, -136.25279235839844, -1.0808278322219849, -9.685515403747559, 0.7805960774421692, -0.0275224968791008, 1.4786072969436646, 2.0133044719696045, 
209, 2780416752, -83.6550521850586, 6.630865097045898, -136.2394561767578, -1.341539978981018, -10.53699779510498, 1.5603373050689697, 0.5310087203979492, -1.813628911972046, 1.6453304290771484, 
210, 2780425085, -83.65727233886719, 6.63045072555542, -136.2490997314453, -1.2904183864593506, -8.874876976013184, 0.7138141393661499, -0.10792557150125504, 1.0654239654541016, 1.3601925373077393, 
211, 2780433418, -83.65850067138672, 6.6277899742126465, -136.24356079101562, -0.7641382217407227, -9.599079132080078, 0.6191214919090271, -0.23171913623809814, -0.9184623956680298, 1.297489047050476, 
212, 2780441751, -83.65888977050781, 6.633362293243408, -136.2567901611328, -1.243686556816101, -9.960160255432129, 1.2077500820159912, 0.09415792673826218, 0.9792578816413879, 2.0923757553100586, 
213, 2780450084, -83.65129852294922, 6.6322832107543945, -136.24734497070312, -1.2143833637237549, -9.859236717224121, 0.6210840940475464, 0.774010956287384, -1.360999584197998, 1.538621425628662, 
214, 2780458417, -83.66429901123047, 6.629994869232178, -136.2556915283203, -1.400276780128479, -9.654109001159668, 1.7036769390106201, -1.4601777791976929, 0.5454807877540588, 1.1913180351257324, 
215, 2780466750, -83.66270446777344, 6.63047981262207, -136.2544403076172, -0.8055031299591064, -9.586068153381348, 0.856502890586853, 0.17053957283496857, -0.3704714775085449, 1.6172058582305908, 
216, 2780475083, -83.65750122070312, 6.635889053344727, -136.26544189453125, -1.2491751909255981, -9.958585739135742, 0.8547170162200928, 0.615279495716095, -0.2771075665950775, 2.212557554244995, 
217, 2780483416, -83.65995788574219, 6.631564617156982, -136.26622009277344, -1.168438196182251, -9.155144691467285, 1.2517833709716797, -0.29022207856178284, -0.19319535791873932, 1.016961932182312, 
218, 2780491749, -83.66582489013672, 6.628345012664795, -136.26109313964844, -0.8699029088020325, -10.022534370422363, 1.3206647634506226, -0.7701047658920288, -0.9101121425628662, 1.2404717206954956, 
219, 2780500082, -83.66244506835938, 6.633240699768066, -136.2712860107422, -0.97502601146698, -9.618639945983887, 0.44342389702796936, 0.5399481058120728, 1.045112133026123, 1.9924033880233765, 
220, 2780508415, -83.66055297851562, 6.634192943572998, -136.26736450195312, -1.3469290733337402, -10.27698802947998, 1.642674446105957, 0.11340702325105667, -1.2441858053207397, 1.7822768688201904, 
221, 2780516748, -83.65694427490234, 6.634361267089844, -136.27438354492188, -1.127180814743042, -8.816631317138672, 0.8534346222877502, 0.5271665453910828, 0.6068012714385986, 1.4705901145935059, 
222, 2780525081, -83.66185760498047, 6.63129997253418, -136.2715606689453, -0.9544212818145752, -9.922890663146973, 1.072738766670227, -0.65973299741745, -0.9112133979797363, 1.2580686807632446, 
223, 2780533414, -83.6613998413086, 6.63629150390625, -136.2809295654297, -1.207044005393982, -10.073022842407227, 0.8504632115364075, 0.17953015863895416, 0.9482901096343994, 2.014866828918457, 
224, 2780541747, -83.65371704101562, 6.634002685546875, -136.26779174804688, -1.2265141010284424, -9.834820747375488, 0.8934720158576965, 0.7518290877342224, -1.7699822187423706, 1.4505341053009033, 
225, 2780550080, -83.66175842285156, 6.633255481719971, -136.2773895263672, -1.2183011770248413, -9.229898452758789, 1.2923576831817627, -0.8369066715240479, 0.8992133140563965, 1.3268429040908813, 
226, 2780558413, -83.66218566894531, 6.632108211517334, -136.27175903320312, -0.8638914227485657, -9.674134254455566, 0.9763598442077637, -0.11248493194580078, -0.8275063633918762, 1.4812970161437988, 
227, 2780566746, -83.65560913085938, 6.637826442718506, -136.2740020751953, -1.1861017942428589, -10.204263687133789, 0.7795763611793518, 0.8154547214508057, 0.1141626387834549, 2.195344924926758, 
228, 2780575079, -83.65902709960938, 6.634512901306152, -136.27932739257812, -1.1897324323654175, -9.402327537536621, 1.2788708209991455, -0.4027710258960724, -0.26827067136764526, 1.1583524942398071, 
229, 2780583412, -83.66118621826172, 6.631618976593018, -136.2758331298828, -1.0178567171096802, -9.885143280029297, 1.2592222690582275, -0.31358227133750916, -0.6771250367164612, 1.2437759637832642, 
230, 2780591745, -83.65996551513672, 6.635429382324219, -136.27880859375, -0.9593223333358765, -9.419449806213379, 0.590120792388916, 0.2838825285434723, 0.936430811882019, 1.884106159210205, 
231, 2780600078, -83.65792083740234, 6.6352128982543945, -136.27015686035156, -1.3601758480072021, -10.244751930236816, 1.4448578357696533, 0.12015638500452042, -1.2553664445877075, 1.6302692890167236, 
232, 2780608411, -83.65906524658203, 6.633486747741699, -136.2756805419922, -1.0831694602966309, -9.058475494384766, 1.0197166204452515, -0.05928414314985275, 0.35229820013046265, 1.2808654308319092, 
233, 2780616744, -83.66059112548828, 6.6316728591918945, -136.27073669433594, -0.8906934857368469, -10.090658187866211, 1.171785831451416, -0.2555147707462311, -0.8374956846237183, 1.3926970958709717, 
234, 2780625077, -83.65834045410156, 6.6368088722229, -136.27740478515625, -1.1468600034713745, -10.00280475616455, 1.124101996421814, 0.3772720396518707, 0.7024704217910767, 2.070603609085083, 
235, 2780633410, -83.65081024169922, 6.636711597442627, -136.26747131347656, -1.2453523874282837, -9.577798843383789, 0.8376280069351196, 0.7588217854499817, -1.405901551246643, 1.6624664068222046, 
236, 2780641743, -83.66230010986328, 6.63440465927124, -136.2804718017578, -1.2625120878219604, -9.135952949523926, 1.3684250116348267, -1.2411761283874512, 0.8453209400177002, 1.1557399034500122, 
237, 2780650076, -83.66175079345703, 6.63291597366333, -136.2754669189453, -0.8750860691070557, -9.892004013061523, 0.833584725856781, -0.010540257208049297, -0.8397754430770874, 1.432015061378479, 
238, 2780658409, -83.6568374633789, 6.638548851013184, -136.28176879882812, -1.2608921527862549, -10.280622482299805, 0.8460672497749329, 0.6214269399642944, 0.06964510679244995, 2.199289321899414, 
239, 2780666742, -83.65852355957031, 6.635537147521973, -136.28103637695312, -1.175426721572876, -9.305583953857422, 1.3782813549041748, -0.2144295573234558, -0.35489803552627563, 1.1931878328323364, 
240, 2780675075, -83.66221618652344, 6.634584426879883, -136.27444458007812, -0.8988214731216431, -9.594244956970215, 1.4852144718170166, -0.49165239930152893, -0.6989228129386902, 1.4917473793029785, 
241, 2780683408, -83.65927124023438, 6.6382246017456055, -136.28306579589844, -0.9041338562965393, -9.495136260986328, 0.515247106552124, 0.46728044748306274, 0.8431693315505981, 1.8628720045089722, 
242, 2780691741, -83.6590347290039, 6.637607574462891, -136.27928161621094, -1.4731922149658203, -10.352584838867188, 1.6549317836761475, -0.07831552624702454, -1.2183794975280762, 1.589030385017395, 
243, 2780700074, -83.65967559814453, 6.636536121368408, -136.28683471679688, -1.1131540536880493, -9.221001625061035, 0.7509340643882751, 0.0208243727684021, 0.6546742916107178, 1.315111756324768, 
244, 2780708407, -83.66108703613281, 6.634368419647217, -136.2818603515625, -0.8301938772201538, -9.909341812133789, 0.8201010823249817, -0.25259479880332947, -1.0289109945297241, 1.3801206350326538, 
245, 2780716740, -83.65814208984375, 6.640194416046143, -136.29270935058594, -1.2595192193984985, -9.814776420593262, 1.0535809993743896, 0.4972747564315796, 1.1332505941390991, 2.0955004692077637, 
246, 2780725073, -83.65331268310547, 6.638084888458252, -136.27760314941406, -1.3155157566070557, -9.74680233001709, 1.0725655555725098, 0.44699400663375854, -1.468502402305603, 1.4372403621673584, 
247, 2780733406, -83.66162872314453, 6.635465621948242, -136.28536987304688, -1.221662998199463, -9.35840892791748, 1.255481481552124, -0.8948460817337036, 0.6589261889457703, 1.127487301826477, 
248, 2780741739, -83.65967559814453, 6.635324001312256, -136.2828369140625, -0.778668224811554, -9.836515426635742, 0.7073339223861694, 0.1740487515926361, -0.7842439413070679, 1.6005057096481323, 
249, 2780750072, -83.65422058105469, 6.638579845428467, -136.2853240966797, -1.3764528036117554, -10.127898216247559, 0.9478864073753357, 0.6824145317077637, 0.11283071339130402, 1.8981943130493164, 
250, 2780758405, -83.65709686279297, 6.63527774810791, -136.2970428466797, -1.1422518491744995, -9.214542388916016, 1.401671051979065, -0.36726969480514526, -0.5076100826263428, 1.1854523420333862, 
251, 2780766738, -83.65946197509766, 6.633639335632324, -136.29403686523438, -0.8521539568901062, -9.607062339782715, 1.2236297130584717, -0.33074378967285156, -0.6045855283737183, 1.3870875835418701, 
252, 2780775071, -83.65898132324219, 6.6367645263671875, -136.31077575683594, -1.079032063484192, -9.768542289733887, 0.7894604802131653, 0.16948938369750977, 0.7085665464401245, 1.827114462852478, 
253, 2780783404, -83.65546417236328, 6.636905670166016, -136.3016815185547, -1.3897550106048584, -10.390050888061523, 1.567725658416748, 0.29005560278892517, -1.3007034063339233, 1.6793203353881836, 
254, 2780791737, -83.65589904785156, 6.6350417137146, -136.2972869873047, -1.14863920211792, -9.044469833374023, 0.8614166975021362, 0.05279093608260155, 0.574501633644104, 1.2394471168518066, 
255, 2780800070, -83.65701293945312, 6.632935047149658, -136.29095458984375, -0.6827846169471741, -9.624740600585938, 0.7947107553482056, -0.22511067986488342, -1.0053458213806152, 1.3740500211715698, 
256, 2780808403, -83.65628814697266, 6.636995315551758, -136.28443908691406, -1.2405037879943848, -9.935159683227539, 1.1484087705612183, 0.2190273404121399, 0.8801563382148743, 1.921708106994629, 
257, 2780816736, -83.64871215820312, 6.636561870574951, -136.2746124267578, -1.2117780447006226, -9.9185209274292, 0.9174970984458923, 0.7679659724235535, -1.3961167335510254, 1.6204845905303955, 
258, 2780825069, -83.65969848632812, 6.633572578430176, -136.2895965576172, -1.3564642667770386, -9.576727867126465, 1.669479250907898, -1.2091326713562012, 0.6367185711860657, 1.0964173078536987, 
259, 2780833402, -83.65859985351562, 6.634548664093018, -136.2886199951172, -0.8068196177482605, -9.63077449798584, 0.675706684589386, 0.11459808796644211, -0.32843852043151855, 1.6716104745864868, 
260, 2780841735, -83.65460205078125, 6.637687683105469, -136.28590393066406, -1.3157187700271606, -10.077372550964355, 1.0684616565704346, 0.4683050513267517, -0.3408358097076416, 1.9462976455688477, 
261, 2780850068, -83.6546401977539, 6.634853363037109, -136.28619384765625, -1.1000213623046875, -9.16152572631836, 0.9736521244049072, -0.007184792775660753, -0.22785143554210663, 1.201102614402771, 
262, 2780858401, -83.66297912597656, 6.629852771759033, -136.28001403808594, -1.0083365440368652, -9.897509574890137, 1.4342526197433472, -1.0182043313980103, -0.5090444684028625, 0.9805896878242493, 
263, 2780866734, -83.65949249267578, 6.633424282073975, -136.2854766845703, -0.9193326234817505, -9.724162101745605, 0.6487071514129639, 0.48948803544044495, 0.4661789834499359, 1.8970669507980347, 
264, 2780875067, -83.6551513671875, 6.634276866912842, -136.27334594726562, -1.2407071590423584, -10.152666091918945, 1.4284125566482544, 0.4011061191558838, -1.2795591354370117, 1.7737987041473389, 
265, 2780883400, -83.6574935913086, 6.634286403656006, -136.28179931640625, -1.1542185544967651, -8.96367073059082, 0.9272730946540833, -0.1692204624414444, 0.7759320735931396, 1.4331165552139282, 
266, 2780891733, -83.66238403320312, 6.6311116218566895, -136.27362060546875, -0.8906076550483704, -9.815045356750488, 1.0827616453170776, -0.651638925075531, -0.8924895524978638, 1.2448774576187134, 
267, 2780900066, -83.65906524658203, 6.637144565582275, -136.2817840576172, -1.2443817853927612, -10.087775230407715, 0.6731117963790894, 0.5067520141601562, 0.8189895749092102, 2.154925584793091, 
268, 2780908399, -83.6542739868164, 6.634284496307373, -136.293701171875, -1.243783950805664, -9.752902030944824, 1.0470942258834839, 0.42803946137428284, -1.5380194187164307, 1.3544038534164429, 
269, 2780916732, -83.66268157958984, 6.631961345672607, -136.3018798828125, -1.1948466300964355, -9.380453109741211, 1.4057697057724, -0.901582658290863, 0.7121270298957825, 1.1586599349975586, 
270, 2780925065, -83.66162109375, 6.632049560546875, -136.3050537109375, -0.737022876739502, -9.59190845489502, 0.7840402126312256, 0.09029017388820648, -0.5935714840888977, 1.606166124343872, 
271, 2780933398, -83.65646362304688, 6.637955665588379, -136.30661010742188, -1.270845890045166, -10.20011043548584, 0.8626942038536072, 0.6335681080818176, 0.035373255610466, 2.2269527912139893, 
272, 2780941731, -83.65855407714844, 6.635595798492432, -136.3147735595703, -1.344956398010254, -9.31489086151123, 1.2747437953948975, -0.24857337772846222, -0.26722049713134766, 1.2735909223556519, 
273, 2780950064, -83.66212463378906, 6.632384300231934, -136.3101348876953, -0.9522436857223511, -9.903569221496582, 1.2996000051498413, -0.49964407086372375, -0.8155444860458374, 1.2216711044311523, 
274, 2780958397, -83.66092681884766, 6.635697364807129, -136.3184814453125, -0.9533389806747437, -9.430234909057617, 0.5887952446937561, 0.2744821310043335, 0.8604846000671387, 1.8331081867218018, 
275, 2780966730, -83.65865325927734, 6.635198593139648, -136.3069610595703, -1.2903741598129272, -10.27528190612793, 1.5074883699417114, 0.10847628116607666, -1.600005865097046, 1.6348029375076294, 
276, 2780975063, -83.66073608398438, 6.6344451904296875, -136.34564208984375, -1.0913093090057373, -9.082615852355957, 0.9332457184791565, -0.14114724099636078, 0.6931724548339844, 1.3623442649841309, 
277, 2780983396, -83.66283416748047, 6.6331000328063965, -136.3401336669922, -0.9648265242576599, -10.080577850341797, 1.1116514205932617, -0.3329978585243225, -0.8983296751976013, 1.4535821676254272, 
278, 2780991729, -83.65990447998047, 6.638999938964844, -136.35484313964844, -1.1427265405654907, -9.927999496459961, 0.9773631691932678, 0.49934953451156616, 1.0455987453460693, 2.1244957447052, 
279, 2781000062, -83.6540298461914, 6.637485027313232, -136.3441619873047, -1.3082659244537354, -9.633072853088379, 0.9945807456970215, 0.5492716431617737, -1.5109195709228516, 1.5041446685791016, 
280, 2781008395, -83.6642837524414, 6.634437084197998, -136.35821533203125, -1.2754426002502441, -9.285136222839355, 1.2081581354141235, -1.1027312278747559, 0.7830528616905212, 1.0734413862228394, 
281, 2781016728, -83.66426086425781, 6.632068634033203, -136.3516387939453, -0.7627630829811096, -9.704164505004883, 0.8671174645423889, -0.09207036346197128, -1.0366209745407104, 1.3459510803222656, 
282, 2781025061, -83.65975952148438, 6.637153148651123, -136.3561248779297, -1.264040470123291, -10.429941177368164, 0.9373857378959656, 0.5872319340705872, 0.20178891718387604, 2.122164726257324, 
283, 2781033394, -83.65830993652344, 6.6350417137146, -136.35374450683594, -1.160140872001648, -9.270655632019043, 1.1650052070617676, 0.13567860424518585, -0.5347099304199219, 1.3227959871292114, 
284, 2781041727, -83.66578674316406, 6.633292198181152, -136.35169982910156, -1.1477972269058228, -9.667171478271484, 1.689357876777649, -0.9180780649185181, -0.507456362247467, 1.373409628868103, 
285, 2781050060, -83.66040802001953, 6.636805534362793, -136.3575439453125, -0.6957018375396729, -9.418225288391113, 0.5241448879241943, 0.719375729560852, 0.5111064314842224, 1.8859246969223022, 
286, 2781058393, -83.66194152832031, 6.635415077209473, -136.35028076171875, -1.5467127561569214, -10.40001392364502, 1.6042611598968506, -0.2968945801258087, -1.2780734300613403, 1.5030560493469238, 
287, 2781066726, -83.66407012939453, 6.632831573486328, -136.35890197753906, -1.0338146686553955, -9.228633880615234, 0.7031816840171814, -0.14091672003269196, 0.7602816820144653, 1.1214679479599, 
288, 2781075059, -83.66373443603516, 6.6302337646484375, -136.3494873046875, -0.8671296834945679, -9.865193367004395, 0.935958981513977, -0.08850999176502228, -1.4225506782531738, 1.3734097480773926, 
289, 2781083392, -83.66223907470703, 6.636099815368652, -136.36228942871094, -1.114805817604065, -9.747815132141113, 0.884006679058075, 0.3507869839668274, 1.3683125972747803, 2.07493257522583, 
290, 2781091725, -83.65589904785156, 6.634120464324951, -136.35232543945312, -1.2716144323349, -9.917683601379395, 1.2190892696380615, 0.6081587672233582, -1.6361221075057983, 1.4706157445907593, 
291, 2781100058, -83.66531372070312, 6.631983757019043, -136.36209106445312, -1.3774560689926147, -9.260680198669434, 1.1104176044464111, -1.0018110275268555, 0.9030809998512268, 1.1594538688659668, 
292, 2781108391, -83.66572570800781, 6.628286361694336, -136.35150146484375, -0.6729752421379089, -9.784932136535645, 0.8821668028831482, -0.13779176771640778, -1.0822911262512207, 1.2018710374832153, 
293, 2781116724, -83.6594009399414, 6.633814811706543, -136.35707092285156, -1.3813509941101074, -10.125808715820312, 0.6993738412857056, 0.830669641494751, 0.5055737495422363, 2.1293113231658936, 
294, 2781125057, -83.65865325927734, 6.630300521850586, -136.35183715820312, -1.0269551277160645, -9.356998443603516, 1.245381474494934, 0.01278150174766779, -1.0113908052444458, 1.218084692955017, 
295, 2781133390, -83.66637420654297, 6.627912998199463, -136.3535614013672, -1.184632420539856, -9.517643928527832, 1.5669375658035278, -0.9083703756332397, -0.053879547864198685, 1.2357075214385986, 
296, 2781141723, -83.66157531738281, 6.6308770179748535, -136.36463928222656, -0.725785493850708, -9.675851821899414, 0.6802675724029541, 0.597093403339386, -0.036128874868154526, 1.8913294076919556, 
297, 2781150056, -83.66079711914062, 6.633045196533203, -136.3607177734375, -1.5114034414291382, -10.49580192565918, 1.3866862058639526, 0.03365710377693176, -0.6617821455001831, 1.8536251783370972, 
298, 2781158389, -83.66130065917969, 6.630414962768555, -136.36488342285156, -1.1256285905838013, -9.091556549072266, 0.8898065090179443, 0.0062242597341537476, 0.22589196264743805, 1.1856573820114136, 
299, 2781166722, -83.6627197265625, 6.627669334411621, -136.3559112548828, -0.6992657780647278, -9.625141143798828, 1.0492918491363525, -0.3023120164871216, -1.327368140220642, 1.333272099494934, 
300, 2781175055, -83.6617431640625, 6.633025646209717, -136.37571716308594, -1.1648259162902832, -9.5452880859375, 0.7086795568466187, 0.31340301036834717, 1.4692198038101196, 2.012753963470459, 
301, 2781183388, -83.65644073486328, 6.632198333740234, -136.36148071289062, -1.215649962425232, -10.353897094726562, 1.5047200918197632, 0.43372586369514465, -1.9244359731674194, 1.631908655166626, 
302, 2781191721, -83.66280364990234, 6.630883693695068, -136.37632751464844, -1.3903958797454834, -9.230633735656738, 1.1928136348724365, -0.5982844233512878, 1.1180611848831177, 1.2465934753417969, 
303, 2781200054, -83.66045379638672, 6.630019187927246, -136.37017822265625, -0.6070195436477661, -9.769254684448242, 0.7728884816169739, 0.1940022110939026, -0.9670781493186951, 1.5198205709457397, 
304, 2781208387, -83.6573257446289, 6.636368751525879, -136.37689208984375, -1.4774452447891235, -9.950075149536133, 0.8801037669181824, 0.4843139350414276, 0.7417113780975342, 2.2138383388519287, 
305, 2781216720, -83.65499114990234, 6.633663654327393, -136.36761474609375, -1.1388511657714844, -9.569352149963379, 1.0151749849319458, 0.14715377986431122, -1.3618704080581665, 1.342826247215271, 
306, 2781225053, -83.66452026367188, 6.630764007568359, -136.3732452392578, -1.29689621925354, -9.551734924316406, 1.443071722984314, -1.068946123123169, 0.29799604415893555, 1.144572138786316, 
307, 2781233386, -83.66129302978516, 6.6313605308532715, -136.3702392578125, -0.6288277506828308, -9.825316429138184, 0.7072863578796387, 0.34120720624923706, -0.5766404271125793, 1.6543465852737427, 
308, 2781241719, -83.65737915039062, 6.636107921600342, -136.37330627441406, -1.3536087274551392, -10.113638877868652, 1.2615816593170166, 0.46400192379951477, -0.2490600198507309, 2.1299774646759033, 
309, 2781250052, -83.65983581542969, 6.633669853210449, -136.37445068359375, -1.145663857460022, -9.136920928955078, 1.3760066032409668, -0.28061676025390625, -0.12485657632350922, 1.2373980283737183, 
310, 2781258385, -83.66133880615234, 6.6320061683654785, -136.36244201660156, -0.851058304309845, -9.666906356811523, 1.0680224895477295, -0.2501358091831207, -0.8995847105979919, 1.4276862144470215, 
311, 2781266718, -83.66165161132812, 6.636233806610107, -136.3728485107422, -1.18672776222229, -9.783466339111328, 0.5663238763809204, 0.10068956017494202, 1.0616587400436401, 1.9096436500549316, 
312, 2781275051, -83.65625, 6.6348700523376465, -136.35794067382812, -1.2590101957321167, -10.336834907531738, 1.5513824224472046, 0.4663327634334564, -1.8400883674621582, 1.5705369710922241, 
313, 2781283384, -83.65774536132812, 6.6348395347595215, -136.3677520751953, -1.1582202911376953, -8.98264217376709, 0.8159192204475403, -0.04514508694410324, 0.9361490607261658, 1.4097050428390503, 
314, 2781291717, -83.6601791381836, 6.6334452629089355, -136.36666870117188, -0.7761693596839905, -9.690021514892578, 0.7938222289085388, -0.32854095101356506, -0.6107074618339539, 1.4275070428848267, 
315, 2781300050, -83.65679168701172, 6.638598442077637, -136.3740692138672, -1.3778812885284424, -10.06878662109375, 1.1056894063949585, 0.5021927356719971, 0.7202723622322083, 2.0604348182678223, 
316, 2781308383, -83.65050506591797, 6.637615203857422, -136.3629150390625, -1.1791812181472778, -9.765059471130371, 0.8036328554153442, 0.6304430961608887, -1.3894569873809814, 1.564363718032837, 
317, 2781316716, -83.66087341308594, 6.634972095489502, -136.3671417236328, -1.3765459060668945, -9.574886322021484, 1.6651747226715088, -1.1924834251403809, 0.23951870203018188, 1.1715950965881348, 
318, 2781325049, -83.65990447998047, 6.634576320648193, -136.3659210205078, -0.6461161971092224, -9.636116027832031, 0.6882396936416626, 0.08485995978116989, -0.5458264946937561, 1.541259765625, 
319, 2781333382, -83.65428161621094, 6.638164043426514, -136.3652801513672, -1.316650390625, -9.963521003723145, 0.92276531457901, 0.6609496474266052, -0.25559163093566895, 1.978545904159546, 
320, 2781341715, -83.65693664550781, 6.634265899658203, -136.3789825439453, -1.1248559951782227, -9.250005722045898, 1.3925726413726807, -0.2855603098869324, -0.03723029047250748, 1.0640922784805298, 
321, 2781350048, -83.65950012207031, 6.631937503814697, -136.37442016601562, -0.9169443845748901, -10.04188346862793, 1.3576668500900269, -0.3757736086845398, -0.7968204021453857, 1.3239742517471313, 
322, 2781358381, -83.65872955322266, 6.635563850402832, -136.38653564453125, -1.1752655506134033, -9.70208740234375, 0.7844464778900146, 0.2374439537525177, 1.0090982913970947, 1.8541374206542969, 
323, 2781366714, -83.65229797363281, 6.635092735290527, -136.37403869628906, -1.215155839920044, -10.125835418701172, 1.4085822105407715, 0.5952748656272888, -1.712862491607666, 1.6522462368011475, 
324, 2781375047, -83.65525817871094, 6.632993698120117, -136.36798095703125, -1.1993601322174072, -8.838238716125488, 0.8524686694145203, -0.2255205512046814, 0.7943742871284485, 1.1877833604812622, 
325, 2781383380, -83.65868377685547, 6.6310553550720215, -136.36251831054688, -0.7481966614723206, -9.866458892822266, 0.8168922066688538, -0.49242085218429565, -0.9008654356002808, 1.3837320804595947, 
326, 2781391713, -83.65685272216797, 6.635969161987305, -136.36734008789062, -1.3480584621429443, -10.216689109802246, 1.1289613246917725, 0.32927098870277405, 0.7031620144844055, 2.044861316680908, 
327, 2781400046, -83.64704132080078, 6.635672569274902, -136.35821533203125, -1.0939970016479492, -9.77001953125, 0.7416298985481262, 1.0448558330535889, -1.3101553916931152, 1.6274516582489014, 
328, 2781408379, -83.658935546875, 6.632449626922607, -136.36769104003906, -1.32618248462677, -9.27303409576416, 1.7135263681411743, -1.3097965717315674, 0.672911524772644, 1.0648092031478882, 
329, 2781416712, -83.65913391113281, 6.632366180419922, -136.36679077148438, -0.8000526428222656, -9.565739631652832, 0.7494248151779175, -0.041456643491983414, -0.3343554139137268, 1.544717788696289, 
330, 2781425045, -83.65522766113281, 6.635136604309082, -136.35418701171875, -1.3634012937545776, -10.23221206665039, 0.975050151348114, 0.4322145879268646, -0.5827622413635254, 1.9279321432113647, 
331, 2781433378, -83.65637969970703, 6.632238388061523, -136.3552703857422, -1.0855584144592285, -9.36593246459961, 0.9703189134597778, -0.12864749133586884, -0.13587069511413574, 1.1838387250900269, 
332, 2781441711, -83.65962982177734, 6.6299519538879395, -136.35443115234375, -0.8139160871505737, -9.836235046386719, 1.5876942873001099, -0.45645850896835327, -0.8934373259544373, 1.351073980331421, 
333, 2781450044, -83.65477752685547, 6.635563850402832, -136.36416625976562, -1.1863157749176025, -9.496938705444336, 0.670996367931366, 0.7098729610443115, 1.002669334411621, 2.08420467376709, 
334, 2781458377, -83.65111541748047, 6.633279323577881, -136.3506622314453, -1.325296401977539, -10.147254943847656, 1.4044784307479858, 0.28091129660606384, -1.6770790815353394, 1.4400579929351807, 
335, 2781466710, -83.65721130371094, 6.630753040313721, -136.35716247558594, -1.323132872581482, -9.125089645385742, 1.2580991983413696, -0.6479761004447937, 0.5109272003173828, 1.1568925380706787, 
336, 2781475043, -83.65814208984375, 6.626491069793701, -136.34129333496094, -1.0000582933425903, -9.980506896972656, 0.8836870193481445, -0.3045147955417633, -2.0007662773132324, 1.2366552352905273, 
337, 2781483376, -83.65535736083984, 6.629116058349609, -136.34503173828125, -1.3572324514389038, -10.04248046875, 0.6726564168930054, 0.3801664710044861, 0.2496619075536728, 1.8068537712097168, 
338, 2781491709, -83.65241241455078, 6.624505996704102, -136.32598876953125, -1.1861939430236816, -9.481501579284668, 1.226701021194458, 0.10709311068058014, -2.4770116806030273, 1.2458508014678955, 
339, 2781500042, -83.66210174560547, 6.619616985321045, -136.32167053222656, -1.1166146993637085, -9.361799240112305, 1.3351796865463257, -1.2303670644760132, -0.8011235594749451, 1.0170899629592896, 
340, 2781508375, -83.65990447998047, 6.618165016174316, -136.3072052001953, -1.0480570793151855, -9.749174118041992, 0.8635332584381104, 0.07715007662773132, -1.9056096076965332, 1.5651577711105347, 
341, 2781516708, -83.65713500976562, 6.618749618530273, -136.29319763183594, -1.4311102628707886, -10.306941032409668, 1.0016584396362305, 0.13375753164291382, -1.878227949142456, 1.7958394289016724, 
342, 2781525041, -83.66182708740234, 6.612152099609375, -136.2717742919922, -1.1954632997512817, -9.50182819366455, 1.2892462015151978, -0.7301977872848511, -1.7928555011749268, 0.9316921234130859, 
343, 2781533374, -83.66387176513672, 6.607091426849365, -136.25497436523438, -0.7725301384925842, -9.428272247314453, 0.9914450645446777, -0.4817909896373749, -2.282087564468384, 1.1597100496292114, 
344, 2781541707, -83.66447448730469, 6.607466220855713, -136.2512969970703, -1.075171947479248, -9.524741172790527, 0.8320896625518799, -0.11832495778799057, -0.6830676198005676, 1.6504530906677246, 
345, 2781550040, -83.6611557006836, 6.601889133453369, -136.2250213623047, -1.1597578525543213, -10.223860740661621, 1.5638130903244019, 0.029891816899180412, -3.4142115116119385, 1.2231565713882446, 
346, 2781558373, -83.66604614257812, 6.597994804382324, -136.22251892089844, -1.2464687824249268, -9.460844993591309, 1.224158763885498, -0.6268956065177917, -0.647822380065918, 1.1295876502990723, 
347, 2781566706, -83.66642761230469, 6.594820976257324, -136.20562744140625, -0.7773706316947937, -9.78415584564209, 0.9144471287727356, -0.2838185429573059, -2.270509958267212, 1.3863192796707153, 
348, 2781575039, -83.66413116455078, 6.596978187561035, -136.19781494140625, -1.3648324012756348, -9.701523780822754, 0.8746255040168762, 0.19115902483463287, -0.9973030686378479, 1.9009603261947632, 
349, 2781583372, -83.66409301757812, 6.590218544006348, -136.17532348632812, -1.2845261096954346, -9.772318840026855, 1.043304204940796, -0.3136335015296936, -2.980203628540039, 1.0322024822235107, 
350, 2781591705, -83.67166137695312, 6.582369327545166, -136.163818359375, -1.2935632467269897, -9.545880317687988, 1.2792574167251587, -1.0349047183990479, -1.484818696975708, 0.7455791234970093, 
351, 2781600038, -83.66956329345703, 6.578876972198486, -136.14743041992188, -0.7632980346679688, -9.650087356567383, 0.7479524612426758, 0.020747531205415726, -2.214235305786133, 1.3421858549118042, 
352, 2781608371, -83.66658782958984, 6.578312873840332, -136.1311798095703, -1.1866120100021362, -10.158308029174805, 1.1791125535964966, 0.12866030633449554, -2.2750179767608643, 1.71310555934906, 
353, 2781616704, -83.66956329345703, 6.572396755218506, -136.11582946777344, -1.2334401607513428, -9.410508155822754, 1.3184621334075928, -0.5749755501747131, -2.1239707469940186, 1.0394256114959717, 
354, 2781625037, -83.67486572265625, 6.565866947174072, -136.09786987304688, -1.0394800901412964, -9.562277793884277, 1.213433861732483, -0.8702309131622314, -2.3719420433044434, 1.0029253959655762, 
355, 2781633370, -83.6753158569336, 6.564242362976074, -136.08775329589844, -1.2353448867797852, -9.703482627868652, 0.7994163036346436, -0.19965015351772308, -1.448216199874878, 1.4832180738449097, 
356, 2781641703, -83.67157745361328, 6.556851863861084, -136.0615234375, -1.1178761720657349, -10.290202140808105, 1.1874704360961914, 0.018800849094986916, -4.085073947906494, 1.0895015001296997, 
357, 2781650036, -83.67822265625, 6.549429893493652, -136.0517578125, -1.1717026233673096, -9.294577598571777, 1.1370810270309448, -0.9340359568595886, -1.4821805953979492, 0.785870373249054, 
358, 2781658369, -83.67938232421875, 6.542666912078857, -136.0481414794922, -0.9087647199630737, -9.583590507507324, 0.9487249851226807, -0.45620232820510864, -3.0692384243011475, 1.051028847694397, 
359, 2781666702, -83.67608642578125, 6.543110370635986, -136.03416442871094, -1.228010654449463, -9.873054504394531, 0.8818838000297546, 0.19915065169334412, -1.8774081468582153, 1.779369592666626, 
360, 2781675035, -83.67549896240234, 6.536678791046143, -135.99624633789062, -1.160420536994934, -9.83620548248291, 1.1014606952667236, -0.2859188914299011, -3.4340617656707764, 1.132533311843872, 
361, 2781683368, -83.68296813964844, 6.52960205078125, -135.98081970214844, -1.1789305210113525, -9.563769340515137, 1.419606328010559, -1.1114529371261597, -2.149137020111084, 0.9010704755783081, 
362, 2781691701, -83.68431091308594, 6.524159908294678, -135.96878051757812, -0.9699032306671143, -9.373283386230469, 0.6787480711936951, -0.40379562973976135, -2.439051628112793, 1.1414984464645386, 
363, 2781700034, -83.68265533447266, 6.519985198974609, -135.94070434570312, -1.2869131565093994, -10.184186935424805, 1.2143471240997314, -0.18707352876663208, -3.608443260192871, 1.4131883382797241, 
364, 2781708367, -83.68191528320312, 6.510849952697754, -135.93246459960938, -1.1356143951416016, -9.436943054199219, 1.1109559535980225, -0.18510127067565918, -2.74788236618042, 0.7298008799552917, 
365, 2781716700, -83.69224548339844, 6.501194000244141, -135.9071807861328, -0.9429680109024048, -9.78830623626709, 1.4629403352737427, -1.589043140411377, -3.3500730991363525, 0.7230642437934875, 
366, 2781725033, -83.69172668457031, 6.499329566955566, -135.88905334472656, -1.109571099281311, -9.590826988220215, 0.8509553074836731, -0.15387751162052155, -2.1592416763305664, 1.5430526733398438, 
367, 2781733366, -83.68592071533203, 6.492652893066406, -135.84947204589844, -1.1389933824539185, -10.218070030212402, 0.956186830997467, 0.15537595748901367, -5.004650592803955, 1.2653433084487915, 
368, 2781741699, -83.69766998291016, 6.483219146728516, -135.83013916015625, -1.3581808805465698, -9.305316925048828, 1.372567057609558, -1.549904465675354, -1.6202154159545898, 0.568072497844696, 
369, 2781750032, -83.70603942871094, 6.451600551605225, -135.8040313720703, -1.5203901529312134, -10.55679702758789, 1.143782138824463, -1.3629463911056519, -3.7379746437072754, -1.887320876121521, 
370, 2781758365, -83.70423126220703, 6.441469192504883, -135.78001403808594, -2.054262399673462, -8.26375675201416, 0.8404517769813538, -0.02052980847656727, -2.514126777648926, 0.5826982259750366, 
371, 2781766698, -83.70757293701172, 6.413414001464844, -135.73904418945312, -0.18053454160690308, -13.240335464477539, 1.142611026763916, -0.959317147731781, -5.452746391296387, -1.2689419984817505, 
372, 2781775031, -83.71808624267578, 6.344979763031006, -135.7371826171875, -3.2138047218322754, -7.702195167541504, 1.4937621355056763, -1.364150047302246, -2.089750051498413, -6.503005504608154, 
373, 2781783364, -83.72087097167969, 6.336555004119873, -135.70787048339844, -0.9290353059768677, -8.668255805969238, 0.8691134452819824, -0.7284559607505798, -3.8120768070220947, 0.9202426075935364, 
374, 2781791697, -83.72972106933594, 6.280447006225586, -135.6794891357422, 0.5935510993003845, -11.94422435760498, 1.0170331001281738, -1.4129964113235474, -4.181459903717041, -4.788363456726074, 
375, 2781800030, -83.72364044189453, 6.249259948730469, -135.65367126464844, -1.8662643432617188, -6.951390266418457, 0.6164809465408325, 0.3866468667984009, -3.6946611404418945, -1.841650366783142, 
376, 2781808363, -83.74791717529297, 6.231950283050537, -135.63279724121094, -0.24577130377292633, -12.954741477966309, 1.788824200630188, -3.2003579139709473, -3.1368861198425293, -0.21755452454090118, 
377, 2781816696, -83.74879455566406, 6.170863628387451, -135.61578369140625, -2.595846176147461, -8.121965408325195, 0.7730733752250671, -0.3338943421840668, -3.0409860610961914, -5.524003982543945, 
378, 2781825029, -83.74549865722656, 6.157613277435303, -135.5717010498047, -2.0116302967071533, -8.80788516998291, 1.4867175817489624, -0.18830305337905884, -5.8238701820373535, 0.5648451447486877, 
379, 2781833362, -83.7530746459961, 6.091139316558838, -135.54217529296875, -0.0010145194828510284, -12.637939453125, 1.1975162029266357, -1.2925199270248413, -4.599241256713867, -6.0023884773254395, 
380, 2781841695, -83.76005554199219, 6.033061981201172, -135.5095672607422, -2.075772285461426, -6.611794948577881, 0.6265804767608643, -1.2403820753097534, -4.810929775238037, -4.958672523498535, 
381, 2781850028, -83.76596069335938, 6.015622138977051, -135.48480224609375, 0.07587087154388428, -11.177059173583984, 0.6217641830444336, -1.0253249406814575, -3.3918752670288086, -0.215659037232399, 
382, 2781858361, -83.76516723632812, 5.948030471801758, -135.44357299804688, -0.94212806224823, -10.027276992797852, 1.2633979320526123, -0.41322165727615356, -5.992206573486328, -5.979092597961426, 
383, 2781866694, -83.77515411376953, 5.912862300872803, -135.41494750976562, -2.401223659515381, -8.139193534851074, 1.470101237297058, -1.5574352741241455, -4.078951835632324, -2.28198504447937, 
384, 2781875027, -83.78739166259766, 5.844170093536377, -135.38052368164062, -0.9814282655715942, -12.032358169555664, 1.2437231540679932, -1.8870903253555298, -5.204159259796143, -6.200424671173096, 
385, 2781883360, -83.78694152832031, 5.773159980773926, -135.34852600097656, -2.90730619430542, -8.232882499694824, 0.8341984152793884, -0.3425007164478302, -4.946608066558838, -6.5151472091674805, 
386, 2781891693, -83.7914810180664, 5.711852073669434, -135.296142578125, -0.3894977867603302, -11.800253868103027, 1.174411416053772, -1.1667925119400024, -7.238058090209961, -5.089510917663574, 
387, 2781900026, -83.80342102050781, 5.604071617126465, -135.2625732421875, -1.4085171222686768, -9.755563735961914, 1.2253507375717163, -1.8328394889831543, -5.610965251922607, -10.882221221923828, 
388, 2781908359, -83.81220245361328, 5.534965515136719, -135.22897338867188, -1.6919398307800293, -7.600475311279297, 0.8759918212890625, -1.4401988983154297, -5.109976291656494, -6.2643842697143555, 
389, 2781916692, -83.81761932373047, 5.453835964202881, -135.18711853027344, -0.04707824066281319, -11.774867057800293, 0.9714076519012451, -1.1366444826126099, -6.245813846588135, -7.597399711608887, 
390, 2781925025, -83.82289123535156, 5.3539886474609375, -135.1511688232422, -1.8417178392410278, -8.60390853881836, 1.1972389221191406, -1.0340081453323364, -5.7826313972473145, -9.90255355834961, 
391, 2781933358, -83.83985900878906, 5.264961242675781, -135.10577392578125, -1.4914941787719727, -10.797679901123047, 1.4351509809494019, -2.543301582336426, -6.769266605377197, -8.496485710144043, 
392, 2781941691, -83.84525299072266, 5.1529154777526855, -135.0795440673828, -1.8230688571929932, -10.009984970092773, 0.7102595567703247, -0.9276580810546875, -4.784957408905029, -11.485668182373047, 
393, 2781950024, -83.84781646728516, 5.050281524658203, -135.0218048095703, -1.7900923490524292, -9.592360496520996, 1.3516241312026978, -0.9290412664413452, -8.407527923583984, -9.963669776916504, 
394, 2781958357, -83.859375, 4.925451755523682, -134.9817352294922, -0.8241337537765503, -10.805826187133789, 1.158754825592041, -1.8016668558120728, -6.595678806304932, -12.836639404296875, 
395, 2781966690, -83.87040710449219, 4.789795398712158, -134.9330596923828, -1.6410282850265503, -8.539904594421387, 1.1094039678573608, -1.8217743635177612, -7.751547813415527, -14.021811485290527, 
396, 2781975023, -83.87947845458984, 4.678368091583252, -134.8984375, -0.6730460524559021, -9.927620887756348, 0.3815594017505646, -1.4266490936279297, -5.772207260131836, -11.309416770935059, 
397, 2781983356, -83.88386535644531, 4.545860290527344, -134.84829711914062, -0.6913737058639526, -10.46817398071289, 1.2639516592025757, -1.0148489475250244, -7.882845878601074, -13.62876033782959, 
398, 2781991689, -83.89874267578125, 4.415198802947998, -134.80381774902344, -1.8282036781311035, -9.237014770507812, 1.6572648286819458, -2.198803186416626, -7.1897382736206055, -13.48123550415039, 
399, 2782000022, -83.91049194335938, 4.274791717529297, -134.75746154785156, -1.3212631940841675, -10.42147159576416, 0.8497809767723083, -1.838692545890808, -7.531253337860107, -14.622041702270508, 
400, 2782008355, -83.91958618164062, 4.127567291259766, -134.71273803710938, -1.884730339050293, -9.659143447875977, 0.9426578879356384, -1.4758799076080322, -7.422379493713379, -15.458412170410156, 
401, 2782016688, -83.9283218383789, 3.969083547592163, -134.66175842285156, -1.0130317211151123, -10.497647285461426, 1.264023780822754, -1.4833592176437378, -8.307249069213867, -16.72286033630371, 
402, 2782025021, -83.94500732421875, 3.7923038005828857, -134.60748291015625, -1.4383070468902588, -9.768101692199707, 1.5224506855010986, -2.4413833618164062, -8.92839527130127, -18.868593215942383, 
403, 2782033354, -83.9544906616211, 3.626047134399414, -134.56190490722656, -0.9063981771469116, -9.029151916503906, 0.5931970477104187, -1.495705246925354, -7.757516384124756, -17.721405029296875, 
404, 2782041687, -83.96466064453125, 3.4649336338043213, -134.51016235351562, -0.24930554628372192, -10.409100532531738, 1.010729432106018, -1.6011078357696533, -8.421847343444824, -17.035480499267578, 
405, 2782050020, -83.9770278930664, 3.2879703044891357, -134.4652557373047, -1.0712025165557861, -9.880277633666992, 1.2609224319458008, -1.8072514533996582, -7.810078144073486, -19.010700225830078, 
406, 2782058353, -83.99279022216797, 3.102416753768921, -134.4033966064453, -1.8203635215759277, -9.992012977600098, 1.6925480365753174, -2.3036043643951416, -9.928555488586426, -19.828359603881836, 
407, 2782066686, -84.00591278076172, 2.9117467403411865, -134.3583221435547, -1.7197602987289429, -9.843469619750977, 0.6280263662338257, -1.863013744354248, -7.991759300231934, -20.647937774658203, 
408, 2782075019, -84.01510620117188, 2.7071897983551025, -134.2930145263672, -0.9276089668273926, -10.441906929016113, 1.0951406955718994, -1.4797478914260864, -10.575213432312012, -22.059720993041992, 
409, 2782083352, -84.03175354003906, 2.489962339401245, -134.2496337890625, -0.7493296265602112, -9.982852935791016, 1.2049616575241089, -2.239697217941284, -8.111738204956055, -23.843036651611328, 
410, 2782091685, -84.04934692382812, 2.2676703929901123, -134.1864471435547, -0.8974777460098267, -9.4346923828125, 1.3648041486740112, -2.421635389328003, -10.53336238861084, -24.209121704101562, 
411, 2782100018, -84.05754089355469, 2.0599660873413086, -134.13778686523438, -0.48005449771881104, -9.578227043151855, 0.32929089665412903, -1.2103885412216187, -8.612035751342773, -22.64313507080078, 
412, 2782108351, -84.06962585449219, 1.840406894683838, -134.0742645263672, -0.4516311585903168, -10.625279426574707, 1.4679436683654785, -1.7028224468231201, -10.528929710388184, -23.884273529052734, 
413, 2782116684, -84.08847045898438, 1.6019221544265747, -134.02212524414062, -1.8058196306228638, -10.090242385864258, 1.3150748014450073, -2.453012704849243, -9.399725914001465, -26.277904510498047, 
414, 2782125017, -84.10600280761719, 1.3526993989944458, -133.95680236816406, -1.6588810682296753, -9.78614330291748, 1.341361403465271, -2.305065393447876, -11.094314575195312, -27.411006927490234, 
415, 2782133350, -84.11614990234375, 1.1003719568252563, -133.8995819091797, -0.6713619828224182, -10.1255464553833, 0.46827229857444763, -1.3697094917297363, -10.16321086883545, -27.87247085571289, 
416, 2782141683, -84.13397979736328, 0.8341936469078064, -133.8415985107422, -0.07016313076019287, -10.416667938232422, 1.2498830556869507, -2.253093957901001, -10.415562629699707, -29.530071258544922, 
417, 2782150016, -84.14939880371094, 0.5634194016456604, -133.7793426513672, -0.695690929889679, -9.772712707519531, 1.1380223035812378, -1.9483611583709717, -10.975004196166992, -30.01825523376465, 
418, 2782158349, -84.16500091552734, 0.2988392114639282, -133.72039794921875, -0.5475777983665466, -9.267671585083008, 0.9712980389595032, -1.9202622175216675, -10.495504379272461, -29.335174560546875, 
419, 2782166682, -84.18111419677734, 0.03046606294810772, -133.6586456298828, -0.4813365638256073, -10.548125267028809, 0.8000836968421936, -1.9609636068344116, -10.866758346557617, -29.743852615356445, 
420, 2782175015, -84.20024108886719, -0.2601388990879059, -133.6005859375, -1.0459119081497192, -10.33314323425293, 1.379205346107483, -2.2789134979248047, -10.687999725341797, -32.460174560546875, 
421, 2782183348, -84.21833801269531, -0.5661020874977112, -133.52801513671875, -1.4061696529388428, -10.395965576171875, 1.2159335613250732, -2.1142139434814453, -12.59469985961914, -34.10640335083008, 
422, 2782191681, -84.23451232910156, -0.8734340071678162, -133.47056579589844, -0.5172756314277649, -9.662836074829102, 0.7153570055961609, -1.847748875617981, -10.79534912109375, -34.473148345947266, 
423, 2782200014, -84.25179290771484, -1.1817713975906372, -133.4017791748047, 0.3785865306854248, -10.303438186645508, 1.0079232454299927, -1.933479905128479, -12.150369644165039, -34.44272232055664, 
424, 2782208347, -84.27011108398438, -1.499927282333374, -133.341064453125, -0.1426367610692978, -9.9600830078125, 1.1435844898223877, -2.0249743461608887, -11.292702674865723, -35.733707427978516, 
425, 2782216680, -84.28870391845703, -1.8256871700286865, -133.26368713378906, -0.6847048997879028, -9.818790435791016, 1.160305142402649, -1.968469262123108, -13.357034683227539, -36.4290885925293, 
426, 2782225013, -84.30614471435547, -2.149336338043213, -133.2040557861328, -0.49524062871932983, -9.77120304107666, 0.36697283387184143, -1.8420627117156982, -11.200876235961914, -36.41038513183594, 
427, 2782233346, -84.32713317871094, -2.490347146987915, -133.13839721679688, -0.2744520306587219, -10.89963436126709, 1.3333944082260132, -2.2060420513153076, -12.112668991088867, -38.39888000488281, 
428, 2782241679, -84.34756469726562, -2.8455026149749756, -133.07003784179688, -0.6173029541969299, -10.076909065246582, 1.2681214809417725, -2.063575506210327, -12.586252212524414, -40.07960891723633, 
429, 2782250012, -84.36915588378906, -3.2054831981658936, -132.99217224121094, -0.15269003808498383, -9.812814712524414, 1.1581765413284302, -2.1024324893951416, -13.759745597839355, -40.52958297729492, 
430, 2782258345, -84.38542938232422, -3.5581395626068115, -132.92550659179688, 0.49534866213798523, -9.800653457641602, 0.5176771879196167, -1.4799031019210815, -12.316688537597656, -39.812740325927734, 
431, 2782266678, -84.40473175048828, -3.9232845306396484, -132.84825134277344, 0.41696280241012573, -10.489629745483398, 1.116712212562561, -1.716937780380249, -13.712615966796875, -41.16141128540039, 
432, 2782275011, -84.42769622802734, -4.302093505859375, -132.7780303955078, -0.621448814868927, -10.214365005493164, 1.1581134796142578, -2.1457979679107666, -13.018393516540527, -42.902828216552734, 
433, 2782283344, -84.45035552978516, -4.6882805824279785, -132.6976318359375, -0.37888503074645996, -9.615181922912598, 1.1948729753494263, -1.9683550596237183, -14.28874683380127, -43.65121841430664, 
434, 2782291677, -84.46585845947266, -5.071059703826904, -132.62985229492188, 0.5154911279678345, -10.104775428771973, 0.44142019748687744, -1.1659237146377563, -12.72951602935791, -43.417884826660156, 
435, 2782300010, -84.4892578125, -5.4716105461120605, -132.55331420898438, 0.6683521270751953, -10.423888206481934, 1.3061437606811523, -1.9715443849563599, -13.955110549926758, -45.42138671875, 
436, 2782308343, -84.51001739501953, -5.877352237701416, -132.47218322753906, 0.17475593090057373, -9.894185066223145, 1.154675841331482, -1.5263680219650269, -14.53632640838623, -46.0189208984375, 
437, 2782316676, -84.5286865234375, -6.282617568969727, -132.39459228515625, 0.38064417243003845, -9.486412048339844, 0.732528030872345, -1.2619006633758545, -14.085975646972656, -45.98298645019531, 
438, 2782325009, -84.55174255371094, -6.688997745513916, -132.3209686279297, 0.620289146900177, -10.303292274475098, 0.8028761744499207, -1.76322340965271, -13.607345581054688, -46.19263458251953, 
439, 2782333342, -84.57404327392578, -7.116126537322998, -132.242431640625, 0.4755736291408539, -10.395610809326172, 1.1449509859085083, -1.5505483150482178, -14.39695930480957, -48.59688186645508, 
440, 2782341675, -84.59735870361328, -7.5557732582092285, -132.15716552734375, -0.09116248041391373, -10.031780242919922, 1.212588906288147, -1.4884083271026611, -15.30972957611084, -50.050296783447266, 
441, 2782350008, -84.61711120605469, -7.993935585021973, -132.0811004638672, 0.7392085194587708, -9.685481071472168, 0.5777603983879089, -1.1398488283157349, -14.171913146972656, -49.954750061035156, 
442, 2782358341, -84.64085388183594, -8.434821128845215, -131.99917602539062, 1.578034520149231, -9.982658386230469, 0.9502544403076172, -1.4391264915466309, -14.868701934814453, -50.25160598754883, 
443, 2782366674, -84.66390228271484, -8.885445594787598, -131.92428588867188, 1.144654393196106, -9.848503112792969, 0.94182288646698, -1.419019341468811, -14.110007286071777, -51.46913146972656, 
444, 2782375007, -84.68850708007812, -9.342950820922852, -131.83290100097656, 0.52937251329422, -9.804494857788086, 1.1357343196868896, -1.2107752561569214, -16.102596282958984, -52.14934539794922, 
445, 2782383340, -84.71046447753906, -9.795820236206055, -131.75938415527344, 0.817006528377533, -9.584287643432617, 0.5906758904457092, -1.1777710914611816, -13.906131744384766, -51.76644515991211, 
446, 2782391673, -84.73616027832031, -10.25998592376709, -131.67514038085938, 1.3119592666625977, -10.583864212036133, 0.9061830043792725, -1.3202252388000488, -15.26296329498291, -53.03809356689453, 
447, 2782400006, -84.76103973388672, -10.74344253540039, -131.5998077392578, 0.9960437417030334, -10.361659049987793, 1.0372109413146973, -1.3444055318832397, -14.387341499328613, -55.41649627685547, 
448, 2782408339, -84.78711700439453, -11.233405113220215, -131.51321411132812, 0.8095473647117615, -9.656020164489746, 1.176609754562378, -1.144665002822876, -15.738492965698242, -56.111995697021484, 
449, 2782416672, -84.80577087402344, -11.715209007263184, -131.4354705810547, 1.7446585893630981, -9.351945877075195, 0.5408181548118591, -0.3907334506511688, -14.575063705444336, -55.20778274536133, 
450, 2782425005, -84.83206939697266, -12.198450088500977, -131.3594207763672, 2.2831177711486816, -10.11137866973877, 0.7501342296600342, -1.261773705482483, -14.35606575012207, -55.438194274902344, 
451, 2782433338, -84.85787200927734, -12.695404052734375, -131.2806854248047, 1.456999659538269, -10.127653121948242, 0.860876739025116, -1.067258596420288, -14.771042823791504, -57.023250579833984, 
452, 2782441671, -84.88409423828125, -13.19825553894043, -131.19863891601562, 0.9274207949638367, -9.615898132324219, 0.9164739847183228, -0.9379835724830627, -15.180387496948242, -57.736629486083984, 
453, 2782450004, -84.90437316894531, -13.697288513183594, -131.12313842773438, 1.606892704963684, -9.706483840942383, 0.46047982573509216, -0.3328964412212372, -14.331220626831055, -57.32164764404297, 
454, 2782458337, -84.93251037597656, -14.211360931396484, -131.05087280273438, 2.2482495307922363, -10.393059730529785, 0.9622724652290344, -1.2834439277648926, -14.074671745300293, -59.19447708129883, 
455, 2782466670, -84.95838165283203, -14.736143112182617, -130.97698974609375, 1.523960828781128, -9.735719680786133, 1.161953091621399, -0.8974616527557373, -14.322797775268555, -60.431419372558594, 
456, 2782475003, -84.98272705078125, -15.25554370880127, -130.89723205566406, 2.0239806175231934, -9.460994720458984, 0.5415804386138916, -0.4403485357761383, -14.901963233947754, -59.77351379394531, 
457, 2782483336, -85.00135803222656, -15.766864776611328, -130.832275390625, 2.711261510848999, -9.340535163879395, 0.17294685542583466, -0.1575152426958084, -13.064774513244629, -58.928897857666016, 
458, 2782491669, -85.02591705322266, -16.2917537689209, -130.76246643066406, 2.4357354640960693, -9.979514122009277, 0.8358175158500671, -0.6329426169395447, -13.719452857971191, -60.54337692260742, 
459, 2782500002, -85.05455017089844, -16.831573486328125, -130.69801330566406, 1.3845186233520508, -9.991813659667969, 0.9333069920539856, -1.2366725206375122, -13.21316146850586, -62.354042053222656, 
460, 2782508335, -85.07861328125, -17.377153396606445, -130.62625122070312, 1.6792900562286377, -9.46426010131836, 0.8057036995887756, -0.3545662760734558, -14.054157257080078, -63.01737594604492, 
461, 2782516668, -85.10000610351562, -17.919450759887695, -130.5696258544922, 2.9186689853668213, -9.797301292419434, 0.25267601013183594, -0.5126067399978638, -12.24873161315918, -62.74240493774414, 
462, 2782525001, -85.12680053710938, -18.47614288330078, -130.5107421875, 3.124850273132324, -10.033380508422852, 0.7031973600387573, -1.0052216053009033, -12.60523509979248, -64.48905944824219, 
463, 2782533334, -85.15262603759766, -19.038482666015625, -130.4542999267578, 2.430933952331543, -9.414104461669922, 0.8416708111763, -0.9268929958343506, -12.332468032836914, -65.15339660644531, 
464, 2782541667, -85.17448425292969, -19.594327926635742, -130.40054321289062, 2.7025370597839355, -8.859506607055664, 0.24320515990257263, -0.4879145622253418, -11.913673400878906, -64.45110321044922, 
465, 2782550000, -85.20146942138672, -20.151552200317383, -130.35557556152344, 3.1666977405548096, -9.780485153198242, 0.6174468994140625, -1.4074946641921997, -10.892480850219727, -64.66495513916016, 
466, 2782558333, -85.22711944580078, -20.72785758972168, -130.30844116210938, 2.7916100025177, -9.899579048156738, 0.6643813848495483, -1.1026843786239624, -11.274548530578613, -66.97421264648438, 
467, 2782566666, -85.25387573242188, -21.317333221435547, -130.26097106933594, 2.3349664211273193, -10.02744197845459, 0.7004567980766296, -1.170998215675354, -11.393887519836426, -68.51116180419922, 
468, 2782574999, -85.27594757080078, -21.90318489074707, -130.2255096435547, 2.981905937194824, -9.053412437438965, 0.4235650300979614, -1.0810405015945435, -9.967604637145996, -68.2391586303711, 
469, 2782583332, -85.30113220214844, -22.48853874206543, -130.19271850585938, 3.9225871562957764, -9.388254165649414, 0.5796225666999817, -1.5438916683197021, -9.624296188354492, -68.16374969482422, 
470, 2782591665, -85.32721710205078, -23.08511734008789, -130.16140747070312, 3.6256444454193115, -9.32149887084961, 0.6202711462974548, -1.670580267906189, -9.52529525756836, -69.57283020019531, 
471, 2782599998, -85.35287475585938, -23.683570861816406, -130.1288604736328, 3.030747652053833, -9.098958015441895, 0.5537542104721069, -1.5324935913085938, -9.631417274475098, -69.74549865722656, 
472, 2782608331, -85.3786392211914, -24.27691650390625, -130.10272216796875, 3.457253932952881, -8.882946968078613, 0.6736342310905457, -1.8157882690429688, -8.832916259765625, -69.24207305908203, 
473, 2782616664, -85.39983367919922, -24.87523078918457, -130.08380126953125, 4.0284905433654785, -9.714690208435059, 0.16135495901107788, -1.6032146215438843, -8.056057929992676, -69.8593978881836, 
474, 2782624997, -85.427734375, -25.48947525024414, -130.0640106201172, 3.6016180515289307, -9.595013618469238, 0.8884732723236084, -2.3321995735168457, -8.259411811828613, -71.80728149414062, 
475, 2782633330, -85.45214080810547, -26.10896110534668, -130.0498046875, 3.3788344860076904, -9.038363456726074, 0.5783911347389221, -2.1922686100006104, -7.664723873138428, -72.44081115722656, 
476, 2782641663, -85.47624969482422, -26.71795082092285, -130.0362091064453, 4.046411991119385, -8.647323608398438, 0.557790994644165, -2.168728828430176, -7.456120491027832, -71.24044036865234, 
477, 2782649996, -85.50179290771484, -27.337635040283203, -130.03140258789062, 4.4895524978637695, -9.295848846435547, 0.4169089198112488, -2.808140277862549, -6.5862321853637695, -72.54904174804688, 
478, 2782658329, -85.53244018554688, -27.971113204956055, -130.02392578125, 3.7739450931549072, -9.040451049804688, 0.7815836668014526, -3.2550857067108154, -6.956103801727295, -74.23260498046875, 
479, 2782666662, -85.5589599609375, -28.606773376464844, -130.0178680419922, 3.7154815196990967, -9.038434982299805, 0.542702317237854, -2.844538927078247, -6.789227485656738, -74.45913696289062, 
480, 2782674995, -85.58206176757812, -29.23512840270996, -130.01715087890625, 4.58381986618042, -8.504313468933105, 0.381508469581604, -2.727480411529541, -6.118488788604736, -73.68050384521484, 
481, 2782683328, -85.60688781738281, -29.869503021240234, -130.02247619628906, 5.068758487701416, -8.799784660339355, 0.4538065493106842, -3.301677942276001, -5.517627716064453, -74.40174102783203, 
482, 2782691661, -85.63627624511719, -30.511035919189453, -130.02716064453125, 4.4908976554870605, -8.412672996520996, 0.7756432294845581, -3.8076908588409424, -5.612683296203613, -75.3057632446289, 
483, 2782699994, -85.66315460205078, -31.146780014038086, -130.0301055908203, 4.345733165740967, -8.34189224243164, 0.6884363889694214, -3.4124345779418945, -5.710452556610107, -74.55119323730469, 
484, 2782708327, -85.68734741210938, -31.773141860961914, -130.03375244140625, 4.947640895843506, -8.29235553741455, 0.4584610164165497, -3.131624221801758, -5.51450252532959, -73.48855590820312, 
485, 2782716660, -85.7157974243164, -32.41561508178711, -130.03724670410156, 4.791195392608643, -9.226381301879883, 0.7164391279220581, -3.6412224769592285, -5.649670600891113, -75.3647232055664, 
486, 2782724993, -85.74498748779297, -33.07244873046875, -130.04037475585938, 4.388840675354004, -8.709711074829102, 0.5015693306922913, -3.7060790061950684, -5.77182674407959, -77.13702392578125, 
487, 2782733326, -85.77484893798828, -33.72840118408203, -130.0464630126953, 4.532762050628662, -8.222768783569336, 0.9136452078819275, -3.9933953285217285, -5.436226844787598, -77.00279998779297, 
488, 2782741659, -85.79462432861328, -34.37551498413086, -130.06231689453125, 5.960216522216797, -7.977823734283447, 0.07157841324806213, -3.437870502471924, -4.354762077331543, -76.07255554199219, 
489, 2782749992, -85.82586669921875, -35.03092575073242, -130.0767822265625, 5.773867607116699, -7.931774139404297, 0.6772445440292358, -4.742666721343994, -4.546716690063477, -77.00248718261719, 
490, 2782758325, -85.8539810180664, -35.6868896484375, -130.0950927734375, 5.199077129364014, -8.237408638000488, 0.6070074439048767, -4.644564628601074, -4.144136428833008, -77.15074920654297, 
491, 2782766658, -85.88449096679688, -36.34126281738281, -130.1060791015625, 5.004167556762695, -8.379446983337402, 0.7522567510604858, -4.443696022033691, -4.817383766174316, -76.85749053955078, 
492, 2782774991, -85.90713500976562, -36.996238708496094, -130.1256866455078, 5.630154609680176, -8.681958198547363, 0.38614892959594727, -4.116702556610107, -3.961454153060913, -77.0456314086914, 
493, 2782783324, -85.9405517578125, -37.672672271728516, -130.13351440429688, 5.337721347808838, -8.445696830749512, 0.8177720904350281, -4.588700771331787, -5.2490386962890625, -79.4791030883789, 
494, 2782791657, -85.96794128417969, -38.35325622558594, -130.1520233154297, 5.2992048263549805, -8.216864585876465, 0.6303970813751221, -4.652865886688232, -4.234608173370361, -80.10474395751953, 
495, 2782799990, -85.9959487915039, -39.02128601074219, -130.159423828125, 6.081835746765137, -7.184300899505615, 0.4135529696941376, -3.9239816665649414, -5.1493988037109375, -78.47321319580078, 
496, 2782808323, -86.02070617675781, -39.68489074707031, -130.179931640625, 6.770384788513184, -7.100881576538086, 0.44599485397338867, -4.529965400695801, -3.863351345062256, -78.0896987915039, 
497, 2782816656, -86.0553970336914, -40.35580825805664, -130.19232177734375, 5.93619441986084, -7.584766387939453, 0.5548242926597595, -5.127549648284912, -4.651993274688721, -78.8541488647461, 
498, 2782824989, -86.08419799804688, -41.02481460571289, -130.2096710205078, 5.519430637359619, -8.030136108398438, 0.6418917179107666, -4.8157453536987305, -4.143239974975586, -78.71444702148438, 
499, 2782833322, -86.11519622802734, -41.68693923950195, -130.21592712402344, 5.990340709686279, -7.5461039543151855, 0.4839748442173004, -4.221978664398193, -5.067688465118408, -77.76783752441406, 
500, 2782841655, -86.13864135742188, -42.36069869995117, -130.2382049560547, 6.53243350982666, -7.732016563415527, 0.4214183986186981, -4.603249549865723, -3.6987032890319824, -79.3182373046875, 
501, 2782849988, -86.17626190185547, -43.04192352294922, -130.2451934814453, 6.17399263381958, -7.4252166748046875, 0.530859112739563, -5.089256286621094, -5.08733606338501, -80.06236267089844, 
502, 2782858321, -86.20359802246094, -43.71332550048828, -130.25843811035156, 6.505120754241943, -7.203335285186768, 0.5870247483253479, -4.371542453765869, -4.418186187744141, -78.985595703125, 
503, 2782866654, -86.23194885253906, -44.3792839050293, -130.2678985595703, 6.967374324798584, -6.802656650543213, 0.36309999227523804, -4.19692850112915, -4.681142330169678, -78.25350189208984, 
504, 2782874987, -86.2625961303711, -45.049659729003906, -130.2832489013672, 6.6337199211120605, -7.019259452819824, 0.4028639793395996, -4.977372646331787, -4.176283359527588, -78.87406158447266, 
505, 2782883320, -86.29739379882812, -45.72489929199219, -130.29159545898438, 6.284384250640869, -7.284863471984863, 0.44379404187202454, -4.891360759735107, -4.78070592880249, -79.36369323730469, 
506, 2782891653, -86.32894134521484, -46.396568298339844, -130.30026245117188, 6.653960704803467, -6.755045413970947, 0.6877660155296326, -4.537805080413818, -4.679349899291992, -78.99784851074219, 
507, 2782899986, -86.35839080810547, -47.060977935791016, -130.3085174560547, 7.449559211730957, -6.733914852142334, 0.17885388433933258, -4.265420913696289, -4.629683017730713, -78.06725311279297, 
508, 2782908319, -86.3915786743164, -47.737342834472656, -130.31759643554688, 6.998666763305664, -6.737620830535889, 0.6243946552276611, -4.782293796539307, -4.612572193145752, -79.56558227539062, 
509, 2782916652, -86.42747497558594, -48.41162872314453, -130.3224334716797, 6.6439900398254395, -6.632204532623291, 0.5638995170593262, -4.751351356506348, -4.902425289154053, -79.23564910888672, 
510, 2782924985, -86.45885467529297, -49.07464599609375, -130.3262939453125, 7.274982452392578, -6.346728801727295, 0.335718035697937, -4.116882801055908, -4.84912109375, -77.94789123535156, 
511, 2782933318, -86.49142456054688, -49.74012756347656, -130.33322143554688, 7.7029500007629395, -6.29003381729126, 0.1654072403907776, -4.5433878898620605, -4.594565391540527, -78.1986083984375, 
512, 2782941651, -86.5272445678711, -50.41013717651367, -130.3343505859375, 7.270359039306641, -6.506482124328613, 0.4942338466644287, -4.408784866333008, -5.022966384887695, -78.77469635009766, 
513, 2782949984, -86.55902099609375, -51.07927322387695, -130.3367919921875, 7.356850624084473, -6.309869289398193, 0.43729737401008606, -4.051540851593018, -4.878731727600098, -78.6181411743164, 
514, 2782958317, -86.58831024169922, -51.73467254638672, -130.3412322998047, 7.686243057250977, -5.804930686950684, 0.43631941080093384, -3.93350887298584, -4.583550453186035, -77.04644775390625, 
515, 2782966650, -86.62286376953125, -52.393733978271484, -130.34214782714844, 7.776312828063965, -5.971866607666016, 0.31037837266921997, -4.2453131675720215, -4.838951587677002, -77.40889739990234, 
516, 2782974983, -86.65744018554688, -53.05685043334961, -130.3385467529297, 7.511284828186035, -5.8496294021606445, 0.16259868443012238, -3.80989408493042, -5.13981819152832, -77.93780517578125, 
517, 2782983316, -86.69197082519531, -53.71328353881836, -130.34083557128906, 7.646176338195801, -5.577019691467285, 0.5667852163314819, -4.370106220245361, -4.629836082458496, -77.10818481445312, 
518, 2782991649, -86.72399139404297, -54.35791778564453, -130.3406524658203, 8.289782524108887, -5.671056270599365, -0.025704555213451385, -3.8342270851135254, -4.670510768890381, -75.74302673339844, 
519, 2782999982, -86.7596664428711, -55.01301574707031, -130.33726501464844, 7.870952606201172, -5.516232967376709, 0.5293604731559753, -3.957458257675171, -4.923632621765137, -76.92711639404297, 
520, 2783008315, -86.79544830322266, -55.66046142578125, -130.33328247070312, 7.981910228729248, -5.35783052444458, 0.27782973647117615, -3.9084067344665527, -4.854498863220215, -76.07473754882812, 
521, 2783016648, -86.8304214477539, -56.29506301879883, -130.32957458496094, 8.231061935424805, -4.97421932220459, 0.2708551585674286, -3.835327625274658, -4.706344127655029, -74.47730255126953, 
522, 2783024981, -86.85942077636719, -56.924808502197266, -130.33563232421875, 8.527965545654297, -5.029221057891846, -0.024041112512350082, -4.093725204467773, -3.9716475009918213, -73.99298858642578, 
523, 2783033314, -86.90074157714844, -57.56084442138672, -130.3241424560547, 8.06266975402832, -5.363994598388672, 0.39886853098869324, -3.809739589691162, -5.12122106552124, -74.62803649902344, 
524, 2783041647, -86.93207550048828, -58.1956901550293, -130.3233642578125, 8.062450408935547, -5.193602085113525, 0.13904014229774475, -3.6835367679595947, -4.363956451416016, -74.5831298828125, 
525, 2783049980, -86.97215270996094, -58.81700134277344, -130.3148956298828, 8.354714393615723, -4.863556385040283, 0.38639360666275024, -3.9532811641693115, -4.717715740203857, -72.88055419921875, 
526, 2783058313, -87.00230407714844, -59.44087600708008, -130.3162841796875, 8.638774871826172, -4.556179523468018, 0.11169306188821793, -3.775261640548706, -4.060067653656006, -73.27986907958984, 
527, 2783066646, -87.04790496826172, -60.05908203125, -130.3019561767578, 8.479500770568848, -4.31104850769043, 0.1843664050102234, -4.0011796951293945, -4.938255310058594, -72.49360656738281, 
528, 2783074979, -87.08241271972656, -60.66455841064453, -130.29649353027344, 8.707066535949707, -4.079561233520508, 0.21223184466362, -3.5722928047180176, -4.260319709777832, -71.06334686279297, 
529, 2783083312, -87.11553955078125, -61.258846282958984, -130.29342651367188, 9.00732421875, -4.122849941253662, -0.20403434336185455, -3.6654000282287598, -4.008017539978027, -69.66998291015625, 
530, 2783091645, -87.15784454345703, -61.85321044921875, -130.28347778320312, 8.508866310119629, -4.570318222045898, 0.36907944083213806, -4.03542423248291, -4.344692230224609, -69.71910858154297, 
531, 2783099978, -87.19606018066406, -62.452171325683594, -130.27655029296875, 8.574065208435059, -4.625929832458496, 0.27620676159858704, -3.8632967472076416, -4.149306774139404, -70.22356414794922, 
532, 2783108311, -87.2344741821289, -63.03646469116211, -130.26783752441406, 8.724519729614258, -3.8606560230255127, 0.19871686398983002, -3.692652940750122, -4.095617771148682, -68.51962280273438, 
533, 2783116644, -87.26353454589844, -63.608707427978516, -130.26852416992188, 9.399880409240723, -3.4868645668029785, -0.12349448353052139, -3.5688583850860596, -3.4836649894714355, -67.04785919189453, 
534, 2783124977, -87.30912780761719, -64.17952728271484, -130.25592041015625, 8.94038200378418, -3.372580051422119, 0.3569302260875702, -4.1238694190979, -4.119898796081543, -66.89827728271484, 
535, 2783133310, -87.34508514404297, -64.73999786376953, -130.2512664794922, 9.024478912353516, -3.5780627727508545, 0.07979642599821091, -3.8277926445007324, -3.5991079807281494, -65.6259765625, 
536, 2783141643, -87.38760375976562, -65.28567504882812, -130.2415008544922, 9.092765808105469, -3.7325448989868164, -0.03730155900120735, -4.049022674560547, -3.7151918411254883, -63.897457122802734, 
537, 2783149976, -87.41583251953125, -65.83576965332031, -130.2462921142578, 9.111818313598633, -4.176334381103516, 0.08176289498806, -3.929635524749756, -2.977294683456421, -64.40609741210938, 
538, 2783158309, -87.46797180175781, -66.38533782958984, -130.22311401367188, 8.964973449707031, -3.7456421852111816, 0.24105066061019897, -3.7151150703430176, -4.281396389007568, -64.34241485595703, 
539, 2783166642, -87.50144958496094, -66.92742156982422, -130.22164916992188, 9.228641510009766, -3.1939244270324707, 0.25216156244277954, -3.8803787231445312, -3.1452219486236572, -63.432823181152344, 
540, 2783174975, -87.53367614746094, -67.45068359375, -130.21670532226562, 9.590338706970215, -2.4037046432495117, -0.1271732598543167, -3.3329222202301025, -3.1608197689056396, -61.22761154174805, 
541, 2783183308, -87.57250213623047, -67.97014617919922, -130.212646484375, 9.294465065002441, -2.7396066188812256, 0.17028562724590302, -4.224684715270996, -3.066610097885132, -60.72344207763672, 
542, 2783191641, -87.62226104736328, -68.48593139648438, -130.19638061523438, 9.168632507324219, -3.421529769897461, 0.20046573877334595, -4.168947219848633, -3.5292043685913086, -60.30999755859375, 
543, 2783199974, -87.65808868408203, -68.988525390625, -130.1921844482422, 9.175432205200195, -3.2655797004699707, 0.04399685934185982, -3.8441576957702637, -2.888333797454834, -58.70648193359375, 
544, 2783208307, -87.69451141357422, -69.48776245117188, -130.186279296875, 9.53576946258545, -3.2710254192352295, -0.10822784900665283, -3.7240514755249023, -2.890305757522583, -58.349308013916016, 
545, 2783216640, -87.73670959472656, -69.99049377441406, -130.17494201660156, 9.110563278198242, -2.6725704669952393, 0.16538839042186737, -3.8016116619110107, -3.0972440242767334, -58.714847564697266, 
546, 2783224973, -87.78227996826172, -70.48018646240234, -130.15512084960938, 9.498822212219238, -2.449700355529785, 0.06025275960564613, -3.249213457107544, -3.3122503757476807, -57.18439483642578, 
547, 2783233306, -87.8126449584961, -70.952880859375, -130.15414428710938, 9.687664031982422, -1.9359873533248901, -0.032083336263895035, -3.5556366443634033, -2.4405949115753174, -55.128963470458984, 
548, 2783241639, -87.86253356933594, -71.4157943725586, -130.13278198242188, 9.5758695602417, -2.3567593097686768, -0.00882856734097004, -3.5769731998443604, -3.1306443214416504, -53.97288513183594, 
549, 2783249972, -87.90538787841797, -71.8837890625, -130.11972045898438, 9.226699829101562, -3.083876132965088, 0.14167048037052155, -3.6816844940185547, -2.7884883880615234, -54.550052642822266, 
550, 2783258305, -87.95703125, -72.34124755859375, -130.0945281982422, 9.326305389404297, -2.7203145027160645, 0.06181971728801727, -3.3309473991394043, -3.119654893875122, -53.32465744018555, 
551, 2783266638, -87.98868560791016, -72.7878646850586, -130.08834838867188, 9.799267768859863, -2.3444278240203857, -0.24381303787231445, -3.109229803085327, -2.339904546737671, -52.00225830078125, 
552, 2783274971, -88.04216003417969, -73.23684692382812, -130.06016540527344, 9.569091796875, -2.025616407394409, 0.04391307756304741, -3.2091002464294434, -3.06217622756958, -52.298824310302734, 
553, 2783283304, -88.08975982666016, -73.67733764648438, -130.03839111328125, 9.436949729919434, -2.14530086517334, 0.14579278230667114, -3.2280542850494385, -2.748913288116455, -51.255958557128906, 
554, 2783291637, -88.14016723632812, -74.10205841064453, -130.00961303710938, 9.55732536315918, -1.8188180923461914, -0.06658463180065155, -2.7478883266448975, -2.8440701961517334, -49.39922332763672, 
555, 2783299970, -88.18060302734375, -74.5166244506836, -129.9959716796875, 9.820585250854492, -1.8050904273986816, -0.08563236147165298, -3.3000550270080566, -2.261165142059326, -48.15428161621094, 
556, 2783308303, -88.24234008789062, -74.92921447753906, -129.95648193359375, 9.63334846496582, -2.0325517654418945, 0.03342694044113159, -2.863741159439087, -3.000598192214966, -47.93476486206055, 
557, 2783316636, -88.29588317871094, -75.33541107177734, -129.92514038085938, 9.696897506713867, -1.8441503047943115, 0.13995015621185303, -2.8101303577423096, -2.659006118774414, -47.14266586303711, 
558, 2783324969, -88.33854675292969, -75.71725463867188, -129.905029296875, 9.845758438110352, -1.3321170806884766, -0.1939387172460556, -2.799448251724243, -2.1582205295562744, -44.26921844482422, 
559, 2783333302, -88.39620971679688, -76.09721374511719, -129.8699951171875, 9.804831504821777, -1.6396602392196655, 0.05129338428378105, -2.878929853439331, -2.5424091815948486, -43.990055084228516, 
560, 2783341635, -88.45111846923828, -76.47872924804688, -129.83680725097656, 9.517589569091797, -1.9443213939666748, 0.11621503531932831, -2.7407917976379395, -2.4111616611480713, -44.22536849975586, 
561, 2783349968, -88.5147933959961, -76.848388671875, -129.79432678222656, 9.667945861816406, -1.9208403825759888, 0.0642952099442482, -2.712308406829834, -2.570892095565796, -42.75644302368164, 
562, 2783358301, -88.54515838623047, -77.20470428466797, -129.7840118408203, 10.046210289001465, -1.3356378078460693, -0.23247210681438446, -2.453911542892456, -1.5846397876739502, -41.21873474121094, 
563, 2783366634, -88.62293243408203, -77.55844116210938, -129.72581481933594, 9.822776794433594, -0.9995614290237427, 0.28234443068504333, -2.5476338863372803, -2.7955031394958496, -40.84429931640625, 
564, 2783374967, -88.67414855957031, -77.89950561523438, -129.69557189941406, 9.746058464050293, -1.1017115116119385, 0.08715324848890305, -2.6307260990142822, -1.9438027143478394, -39.36996078491211, 
565, 2783383300, -88.74127197265625, -78.22404479980469, -129.64610290527344, 9.74640941619873, -0.9654812812805176, -0.11709341406822205, -2.298611640930176, -2.3270177841186523, -37.34205627441406, 
566, 2783391633, -88.78560638427734, -78.53968048095703, -129.6210479736328, 9.948777198791504, -1.4835798740386963, -0.04573993384838104, -2.3860325813293457, -1.6323330402374268, -36.33876037597656, 
567, 2783399966, -88.86580657958984, -78.8636245727539, -129.560546875, 9.70625114440918, -1.8844404220581055, 0.025992969051003456, -2.5400514602661133, -2.440258502960205, -37.27970886230469, 
568, 2783408299, -88.9398193359375, -79.18065643310547, -129.5001220703125, 9.658753395080566, -1.6902092695236206, 0.22687432169914246, -1.791013479232788, -2.317284345626831, -36.48003005981445, 
569, 2783416632, -88.9766845703125, -79.47864532470703, -129.47561645507812, 10.013816833496094, -0.3827291429042816, -0.18811562657356262, -1.5548752546310425, -1.41732656955719, -34.19333267211914, 
570, 2783424965, -89.04717254638672, -79.76620483398438, -129.42062377929688, 10.047311782836914, -0.14462855458259583, -0.045861709862947464, -2.018493413925171, -1.9907275438308716, -32.94043731689453, 
571, 2783433298, -89.11955261230469, -80.04513549804688, -129.3644256591797, 9.821479797363281, -0.5683100819587708, 0.21638090908527374, -2.0849876403808594, -1.937295913696289, -31.886049270629883, 
572, 2783441631, -89.21862030029297, -80.30825805664062, -129.28016662597656, 9.688238143920898, -0.8667848706245422, 0.17239879071712494, -1.952971339225769, -2.393383026123047, -30.01740837097168, 
573, 2783449964, -89.26034545898438, -80.55805969238281, -129.2501678466797, 10.063523292541504, -1.3301260471343994, -0.6819314360618591, -1.4919917583465576, -1.217688798904419, -28.406938552856445, 
574, 2783458297, -89.3395004272461, -80.81930541992188, -129.1823272705078, 9.705312728881836, -1.523586630821228, 0.10073884576559067, -1.4983954429626465, -1.9084283113479614, -29.795461654663086, 
575, 2783466630, -89.43514251708984, -81.07949829101562, -129.10116577148438, 9.682415008544922, -1.327432632446289, 0.3978630304336548, -1.912705898284912, -2.0857558250427246, -29.63754653930664, 
576, 2783474963, -89.50569915771484, -81.31621551513672, -129.03741455078125, 10.1979398727417, -0.04264559596776962, -0.4684423804283142, -0.9333449602127075, -1.6432183980941772, -26.8587589263916, 
577, 2783483296, -89.55216979980469, -81.53378295898438, -129.00091552734375, 10.132743835449219, 0.6556599736213684, -0.13656625151634216, -1.2813657522201538, -1.0903600454330444, -24.542665481567383, 
578, 2783491629, -89.64714813232422, -81.7437973022461, -128.9193878173828, 9.798562049865723, -0.06559696793556213, 0.10926894098520279, -1.751771092414856, -1.8070467710494995, -23.6505184173584, 
579, 2783499962, -89.74574279785156, -81.95030975341797, -128.8350067138672, 9.548068046569824, -1.3938941955566406, 0.21623258292675018, -1.8597865104675293, -1.7887067794799805, -23.206262588500977, 
580, 2783508295, -89.83021545410156, -82.14544677734375, -128.76007080078125, 10.091195106506348, -1.487926959991455, -0.4916079342365265, -1.255162239074707, -1.5418367385864258, -21.878677368164062, 
581, 2783516628, -89.91608428955078, -82.340087890625, -128.679931640625, 10.10069465637207, -0.9002199769020081, -0.1306784301996231, -0.827327311038971, -1.5709600448608398, -21.784032821655273, 
582, 2783524961, -89.98040771484375, -82.5357894897461, -128.62742614746094, 9.923277854919434, -0.2460588961839676, 0.10606399923563004, -1.5169651508331299, -1.0584444999694824, -21.933568954467773, 
583, 2783533294, -90.10076904296875, -82.70735931396484, -128.5146942138672, 9.952030181884766, 0.5220861434936523, 0.043582115322351456, -1.0661031007766724, -1.9468746185302734, -19.0310115814209, 
584, 2783541627, -90.1276626586914, -82.85501861572266, -128.49691772460938, 10.282154083251953, 0.44911736249923706, -0.4986349046230316, -1.1348515748977661, -0.44249874353408813, -16.178630828857422, 
585, 2783549960, -90.25186157226562, -82.99999237060547, -128.38009643554688, 10.041696548461914, -0.38372012972831726, 0.006517249625176191, -1.0486085414886475, -1.8908815383911133, -15.83281421661377, 
586, 2783558293, -90.31404876708984, -83.14602661132812, -128.33273315429688, 9.770818710327148, -1.6451352834701538, 0.30624115467071533, -1.8415485620498657, -0.8088080883026123, -15.988574981689453, 
587, 2783566626, -90.41458892822266, -83.28548431396484, -128.2391357421875, 10.112195014953613, -1.1381309032440186, -0.29871800541877747, -0.9667710065841675, -1.4432215690612793, -15.1729154586792, 
588, 2783574959, -90.45409393310547, -83.40715789794922, -128.20338439941406, 10.027229309082031, 0.2732671797275543, -0.27944549918174744, -0.5159603953361511, -0.5967221260070801, -13.054000854492188, 
589, 2783583292, -90.52172088623047, -83.5220718383789, -128.13970947265625, 10.162089347839355, 0.7721521854400635, -0.1584647297859192, -0.5508981943130493, -0.9749162197113037, -12.24251651763916, 
590, 2783591625, -90.5807876586914, -83.6224365234375, -128.08924865722656, 9.985342979431152, 0.38784870505332947, 0.19920334219932556, -1.1006309986114502, -0.7714111804962158, -10.49936580657959, 
591, 2783599958, -90.61820220947266, -83.69622039794922, -128.05978393554688, 10.152008056640625, -0.2776658535003662, -0.5054019689559937, -1.0034760236740112, -0.5214417576789856, -7.303860187530518, 
592, 2783608291, -90.68494415283203, -83.77263641357422, -127.99581909179688, 9.730995178222656, -0.9090942144393921, -0.1369757205247879, -0.4274888336658478, -0.943026602268219, -7.614101886749268, 
593, 2783616624, -90.72958374023438, -83.85844421386719, -127.9584732055664, 9.873128890991211, -1.205567479133606, 0.1706327348947525, -0.9203579425811768, -0.5826086401939392, -8.754292488098145, 
594, 2783624957, -90.79497528076172, -83.93214416503906, -127.89411926269531, 10.106698989868164, -0.512808084487915, -0.15743893384933472, -0.20011121034622192, -0.9120076298713684, -7.297098636627197, 
595, 2783633290, -90.778564453125, -83.9876480102539, -127.90922546386719, 10.314836502075195, 0.8947108387947083, -0.46931883692741394, 0.1444130539894104, 0.057401496917009354, -5.104314804077148, 
596, 2783641623, -90.8093032836914, -84.0249252319336, -127.8783950805664, 10.076207160949707, 1.4824867248535156, -0.057573605328798294, -0.027676183730363846, -0.5345563292503357, -2.9299230575561523, 
597, 2783649956, -90.80027770996094, -84.03888702392578, -127.89107513427734, 9.728517532348633, 0.7228448390960693, 0.20289039611816406, -0.40587037801742554, -0.04609282314777374, -0.14455394446849823, 
598, 2783658289, -90.8367691040039, -84.04530334472656, -127.86104583740234, 9.943109512329102, -0.5855388641357422, -0.29592740535736084, -0.8059647083282471, -0.5729519724845886, 0.7733193635940552, 
599, 2783666622, -90.8023910522461, -84.04635620117188, -127.8992691040039, 9.93641471862793, -1.396420955657959, -0.3518697917461395, -0.42810356616973877, 0.25099390745162964, 1.421513319015503, 
600, 2783674955, -90.81051635742188, -84.05986785888672, -127.89070129394531, 9.79149055480957, -1.7300366163253784, 0.351791113615036, 0.0038421351928263903, -0.292885959148407, -0.0579778216779232, 
601, 2783683288, -90.82206726074219, -84.0808334350586, -127.87293243408203, 10.332468032836914, -0.07727216184139252, -0.20247553288936615, 0.7275723218917847, -0.40804755687713623, -0.9694859385490417, 
