Timestamp;PosX;PosY;PosZ;Roll;Pitch;Yaw;Q1;Q2;Q3;Q4;M1;M2;M3;M4;AccelX;AccelY;AccelZ;GyroX;GyroY;GyroZ
1753876672.94034;0.0;0.0;0.0;-2.01;0.91;-0.02;0.0;0.0;0.0;0.0;-24.5;-20.4;-12.5;20.1;0.13;0.44;-10.6;0.53;0.39;0.98
1753876672.94534;0.0;0.0;0.0;-2.02;0.9;-0.02;0.0;0.0;0.0;0.0;-10.7;-24.5;-16.4;-1.4;0.11;0.44;-10.62;0.68;0.38;0.99
1753876672.95034;0.0;0.0;0.0;-2.02;0.9;-0.02;0.0;0.0;0.0;0.0;-9.9;-6.7;-17.5;13.9;0.13;0.44;-10.61;0.67;0.45;0.97
1753876672.95534;0.0;0.0;0.0;-2.02;0.9;-0.02;0.0;0.0;0.0;0.0;-9.0;9.9;-13.2;10.9;0.13;0.45;-10.61;0.58;0.39;0.95
1753876672.96034;0.0;0.0;0.0;-2.0;0.9;-0.02;0.0;0.0;0.0;0.0;3.3;-1.3;-16.9;5.7;0.13;0.45;-10.59;0.71;0.36;1.07
1753876672.96534;0.0;0.0;0.0;-2.0;0.9;-0.02;0.0;0.0;0.0;0.0;5.4;11.5;-5.9;3.0;0.13;0.45;-10.6;0.7;0.42;1.09
1753876672.97034;0.0;0.0;0.0;-2.01;0.92;-0.02;0.0;0.0;0.0;0.0;7.3;11.9;1.3;7.3;0.12;0.44;-10.6;0.71;0.28;1.07
1753876672.97534;0.0;0.0;0.0;-2.0;0.9;-0.02;0.0;0.0;0.0;0.0;-5.5;-19.5;-12.6;-1.2;0.13;0.44;-10.63;0.68;0.34;0.98
1753876672.980341;0.0;0.0;0.0;-2.03;0.9;-0.02;0.0;0.0;0.0;0.0;-9.8;-6.8;-8.7;-4.3;0.12;0.44;-10.59;0.97;0.41;0.97
1753876672.985341;0.0;0.0;0.0;-2.02;0.9;-0.02;0.0;0.0;0.0;0.0;-17.7;-9.1;-6.2;9.3;0.12;0.45;-10.61;0.67;0.25;0.97
1753876672.990341;0.0;0.0;0.0;-2.03;0.9;-0.02;0.0;0.0;0.0;0.0;-8.9;-10.3;-4.6;14.4;0.14;0.43;-10.63;0.57;0.49;0.88
1753876672.995341;0.0;0.0;0.0;-2.02;0.9;-0.02;0.0;0.0;0.0;0.0;-10.1;11.3;-2.7;10.6;0.12;0.45;-10.61;0.69;0.42;1.02
1753876673.000341;0.0;0.0;0.0;-2.02;0.89;-0.02;0.0;0.0;0.0;0.0;-11.8;-3.4;-9.7;4.0;0.13;0.44;-10.61;0.63;0.4;1.02
1753876673.005341;0.0;0.0;0.0;-2.01;0.9;-0.02;0.0;0.0;0.0;0.0;-11.7;3.7;3.8;-4.4;0.13;0.44;-10.62;0.65;0.51;0.92
1753876673.010342;0.0;0.0;0.0;-2.02;0.88;-0.02;0.0;0.0;0.0;0.0;-8.4;-7.3;-1.8;-7.6;0.13;0.44;-10.6;0.61;0.45;0.98
1753876673.015342;0.0;0.0;0.0;-2.01;0.89;-0.02;0.0;0.0;0.0;0.0;8.4;-4.0;-5.0;-26.1;0.12;0.44;-10.62;0.63;0.41;0.9
1753876673.020342;0.0;0.0;0.0;-2.03;0.89;-0.02;0.0;0.0;0.0;0.0;-22.3;-8.4;-1.6;-15.4;0.13;0.44;-10.63;0.81;0.42;0.93
1753876673.025342;0.0;0.0;0.0;-2.02;0.89;-0.02;0.0;0.0;0.0;0.0;-10.4;-8.1;5.2;-6.3;0.12;0.44;-10.62;0.78;0.45;0.96
1753876673.030342;0.0;0.0;0.0;-2.01;0.9;-0.02;0.0;0.0;0.0;0.0;4.5;3.5;-2.9;3.0;0.13;0.45;-10.64;0.74;0.26;0.92
1753876673.035342;0.0;0.0;0.0;-2.02;0.88;-0.02;0.0;0.0;0.0;0.0;-5.2;-9.7;2.0;-10.2;0.14;0.44;-10.62;0.71;0.36;0.94
1753876673.040342;0.0;0.0;0.0;-2.03;0.89;-0.02;0.0;0.0;0.0;0.0;0.0;7.9;0.7;-9.6;0.12;0.44;-10.63;0.75;0.45;1.03
1753876673.045342;0.0;0.0;0.0;-2.02;0.9;-0.02;0.0;0.0;0.0;0.0;-12.1;-2.8;4.9;-8.7;0.13;0.44;-10.63;0.63;0.34;0.87
1753876673.050342;0.0;0.0;0.0;-2.02;0.9;-0.02;0.0;0.0;0.0;0.0;-5.2;-7.3;-2.7;-29.4;0.13;0.44;-10.61;0.93;0.4;0.95
1753876673.055342;0.0;0.0;0.0;-2.03;0.89;-0.02;0.0;0.0;0.0;0.0;17.9;-22.6;9.0;-14.3;0.11;0.44;-10.63;0.69;0.26;0.91
1753876673.060339;0.0;0.0;0.0;-2.02;0.89;-0.02;0.0;0.0;0.0;0.0;-9.0;6.0;6.0;-15.0;0.13;0.44;-10.62;0.77;0.37;0.92
1753876673.065339;0.0;0.0;0.0;-2.02;0.89;-0.02;0.0;0.0;0.0;0.0;-9.0;6.0;6.0;-15.0;0.14;0.44;-10.62;0.71;0.3;0.95
1753876673.070339;0.0;0.0;0.0;-2.02;0.89;-0.02;0.0;0.0;0.0;0.0;-9.0;6.0;6.0;-15.0;0.14;0.44;-10.63;0.74;0.32;0.94
1753876673.075339;0.0;0.0;0.0;-2.02;0.89;-0.02;0.0;0.0;0.0;0.0;-9.0;6.0;6.0;-15.0;0.14;0.44;-10.62;0.65;0.26;1.01
1753876673.080339;0.0;0.0;0.0;-2.02;0.89;-0.02;0.0;0.0;0.0;0.0;-9.0;6.0;6.0;-15.0;0.14;0.44;-10.62;0.85;0.25;0.96
1753876673.085339;0.0;0.0;0.0;-2.02;0.89;-0.02;0.0;0.0;0.0;0.0;-9.0;6.0;6.0;-15.0;0.13;0.43;-10.62;0.77;0.25;0.83
1753876673.090339;0.0;0.0;0.0;-2.02;0.89;-0.02;0.0;0.0;0.0;0.0;-9.0;6.0;6.0;-15.0;0.14;0.43;-10.62;0.76;0.37;0.92
1753876673.095339;0.0;0.0;0.0;-2.02;0.89;-0.02;0.0;0.0;0.0;0.0;-9.0;6.0;6.0;-15.0;0.14;0.43;-10.63;0.79;0.41;0.99
1753876673.100339;0.0;0.0;0.0;-2.02;0.89;-0.02;0.0;0.0;0.0;0.0;-9.0;6.0;6.0;-15.0;0.14;0.43;-10.63;0.73;0.36;1.01
1753876673.105339;0.0;0.0;0.0;-2.02;0.89;-0.02;0.0;0.0;0.0;0.0;-9.0;6.0;6.0;-15.0;0.14;0.43;-10.62;0.8;0.3;1.01
1753876673.110339;0.0;0.0;0.0;-2.02;0.89;-0.02;0.0;0.0;0.0;0.0;-9.0;6.0;6.0;-15.0;0.13;0.43;-10.62;0.64;0.42;1.06
1753876673.115339;0.0;0.0;0.0;-2.02;0.89;-0.02;0.0;0.0;0.0;0.0;-9.0;6.0;6.0;-15.0;0.13;0.43;-10.62;0.85;0.28;0.97
1753876673.120339;0.0;0.0;0.0;-2.02;0.89;-0.02;0.0;0.0;0.0;0.0;-9.0;6.0;6.0;-15.0;0.13;0.44;-10.62;0.61;0.25;0.91
1753876673.125339;0.0;0.0;0.0;-2.02;0.89;-0.02;0.0;0.0;0.0;0.0;-9.0;6.0;6.0;-15.0;0.13;0.44;-10.62;0.66;0.27;0.91
1753876673.130339;0.0;0.0;0.0;-2.02;0.89;-0.02;0.0;0.0;0.0;0.0;-9.0;6.0;6.0;-15.0;0.13;0.43;-10.62;0.68;0.39;1.05
1753876673.135339;0.0;0.0;0.0;-2.02;0.89;-0.02;0.0;0.0;0.0;0.0;-9.0;6.0;6.0;-15.0;0.12;0.44;-10.62;0.64;0.23;1.05
1753876673.140339;0.0;0.0;0.0;-2.02;0.89;-0.02;0.0;0.0;0.0;0.0;-9.0;6.0;6.0;-15.0;0.12;0.44;-10.62;0.85;0.26;0.96
1753876673.145339;0.0;0.0;0.0;-2.02;0.89;-0.02;0.0;0.0;0.0;0.0;-9.0;6.0;6.0;-15.0;0.12;0.44;-10.62;0.81;0.19;0.99
1753876673.150339;0.0;0.0;0.0;-2.02;0.89;-0.02;0.0;0.0;0.0;0.0;-9.0;6.0;6.0;-15.0;0.12;0.44;-10.61;0.81;0.32;0.81
1753876673.155339;0.0;0.0;0.0;-2.02;0.89;-0.02;0.0;0.0;0.0;0.0;-9.0;6.0;6.0;-15.0;0.12;0.44;-10.62;0.73;0.31;0.9
1753876673.160339;0.0;0.0;0.0;-2.02;0.89;-0.02;0.0;0.0;0.0;0.0;-9.0;6.0;6.0;-15.0;0.12;0.44;-10.61;0.79;0.37;0.92
1753876673.165339;0.0;0.0;0.0;-2.02;0.89;-0.02;0.0;0.0;0.0;0.0;-9.0;6.0;6.0;-15.0;0.12;0.44;-10.61;0.77;0.17;0.93
1753876673.170339;0.0;0.0;0.0;-2.02;0.89;-0.02;0.0;0.0;0.0;0.0;-9.0;6.0;6.0;-15.0;0.12;0.44;-10.6;0.69;0.29;0.92
1753876673.175339;0.0;0.0;0.0;-2.02;0.89;-0.02;0.0;0.0;0.0;0.0;-9.0;6.0;6.0;-15.0;0.12;0.43;-10.61;0.67;0.25;0.86
1753876673.180339;0.0;0.0;0.0;-2.02;0.89;-0.02;0.0;0.0;0.0;0.0;-9.0;6.0;6.0;-15.0;0.12;0.43;-10.61;0.75;0.28;0.93
1753876673.185339;0.0;0.0;0.0;-2.02;0.89;-0.02;0.0;0.0;0.0;0.0;-9.0;6.0;6.0;-15.0;0.13;0.43;-10.61;0.66;0.32;1.03
1753876673.190339;0.0;0.0;0.0;-2.02;0.89;-0.02;0.0;0.0;0.0;0.0;-9.0;6.0;6.0;-15.0;0.13;0.43;-10.6;0.79;0.35;1.06
1753876673.195339;0.0;0.0;0.0;-2.02;0.89;-0.02;0.0;0.0;0.0;0.0;-9.0;6.0;6.0;-15.0;0.14;0.42;-10.61;0.76;0.19;0.93
1753876673.200339;0.0;0.0;0.0;-2.02;0.89;-0.02;0.0;0.0;0.0;0.0;-9.0;6.0;6.0;-15.0;0.14;0.43;-10.61;0.9;0.3;1.17
1753876673.205339;0.0;0.0;0.0;-2.02;0.89;-0.02;0.0;0.0;0.0;0.0;-9.0;6.0;6.0;-15.0;0.14;0.42;-10.61;0.74;0.3;1.12
1753876673.210339;0.0;0.0;0.0;-2.02;0.89;-0.02;0.0;0.0;0.0;0.0;-9.0;6.0;6.0;-15.0;0.14;0.42;-10.61;0.79;0.35;0.89
1753876673.215339;0.0;0.0;0.0;-2.02;0.89;-0.02;0.0;0.0;0.0;0.0;-9.0;6.0;6.0;-15.0;0.14;0.42;-10.62;0.68;0.28;0.98
1753876673.220339;0.0;0.0;0.0;-2.02;0.89;-0.02;0.0;0.0;0.0;0.0;-9.0;6.0;6.0;-15.0;0.14;0.42;-10.62;0.7;0.11;0.95
1753876673.225339;0.0;0.0;0.0;-2.02;0.89;-0.02;0.0;0.0;0.0;0.0;-9.0;6.0;6.0;-15.0;0.14;0.42;-10.62;0.82;0.3;0.84
1753876673.230339;0.0;0.0;0.0;-2.02;0.89;-0.02;0.0;0.0;0.0;0.0;-9.0;6.0;6.0;-15.0;0.14;0.43;-10.61;0.63;0.3;0.83
1753876673.235339;0.0;0.0;0.0;-2.02;0.89;-0.02;0.0;0.0;0.0;0.0;-9.0;6.0;6.0;-15.0;0.14;0.43;-10.61;0.81;0.31;0.93
1753876673.240339;0.0;0.0;0.0;-2.02;0.89;-0.02;0.0;0.0;0.0;0.0;-9.0;6.0;6.0;-15.0;0.14;0.44;-10.62;0.8;0.44;1.0
1753876673.245339;0.0;0.0;0.0;-2.02;0.89;-0.02;0.0;0.0;0.0;0.0;-9.0;6.0;6.0;-15.0;0.14;0.43;-10.62;0.67;0.25;0.85
1753876673.250339;0.0;0.0;0.0;-2.02;0.89;-0.02;0.0;0.0;0.0;0.0;-9.0;6.0;6.0;-15.0;0.14;0.43;-10.61;0.67;0.23;1.05
1753876673.255339;0.0;0.0;0.0;-2.02;0.89;-0.02;0.0;0.0;0.0;0.0;-9.0;6.0;6.0;-15.0;0.14;0.44;-10.61;0.72;0.23;1.06
1753876673.260339;0.0;0.0;0.0;-2.02;0.89;-0.02;0.0;0.0;0.0;0.0;-9.0;6.0;6.0;-15.0;0.14;0.44;-10.62;0.87;0.19;0.83
1753876673.265339;0.0;0.0;0.0;-2.02;0.89;-0.02;0.0;0.0;0.0;0.0;-9.0;6.0;6.0;-15.0;0.14;0.44;-10.62;0.83;0.19;1.02
1753876673.270339;0.0;0.0;0.0;-2.02;0.89;-0.02;0.0;0.0;0.0;0.0;-9.0;6.0;6.0;-15.0;0.14;0.44;-10.61;0.73;0.45;0.92
1753876673.275339;0.0;0.0;0.0;-2.02;0.89;-0.02;0.0;0.0;0.0;0.0;-9.0;6.0;6.0;-15.0;0.14;0.44;-10.61;0.79;0.31;0.95
1753876673.280339;0.0;0.0;0.0;-2.02;0.89;-0.02;0.0;0.0;0.0;0.0;-9.0;6.0;6.0;-15.0;0.14;0.45;-10.61;0.9;0.31;0.95
1753876673.285339;0.0;0.0;0.0;-2.02;0.89;-0.02;0.0;0.0;0.0;0.0;-9.0;6.0;6.0;-15.0;0.14;0.44;-10.61;0.9;0.09;0.99
1753876673.290339;0.0;0.0;0.0;-2.02;0.89;-0.02;0.0;0.0;0.0;0.0;-9.0;6.0;6.0;-15.0;0.14;0.44;-10.61;0.83;0.36;0.9
1753876673.295339;0.0;0.0;0.0;-2.02;0.89;-0.02;0.0;0.0;0.0;0.0;-9.0;6.0;6.0;-15.0;0.14;0.44;-10.61;0.86;0.37;0.87
1753876673.300339;0.0;0.0;0.0;-2.02;0.89;-0.02;0.0;0.0;0.0;0.0;-9.0;6.0;6.0;-15.0;0.14;0.44;-10.61;0.68;0.19;0.98
1753876673.305339;0.0;0.0;0.0;-2.02;0.89;-0.02;0.0;0.0;0.0;0.0;-9.0;6.0;6.0;-15.0;0.13;0.44;-10.62;0.81;0.28;0.99
1753876673.310339;0.0;0.0;0.0;-2.02;0.89;-0.02;0.0;0.0;0.0;0.0;-9.0;6.0;6.0;-15.0;0.14;0.43;-10.62;0.74;0.37;0.84
1753876673.315339;0.0;0.0;0.0;-2.02;0.89;-0.02;0.0;0.0;0.0;0.0;-9.0;6.0;6.0;-15.0;0.14;0.43;-10.62;0.8;0.26;0.93
1753876673.320339;0.0;0.0;0.0;-2.02;0.89;-0.02;0.0;0.0;0.0;0.0;-9.0;6.0;6.0;-15.0;0.13;0.43;-10.61;0.8;0.22;0.84
1753876673.325339;0.0;0.0;0.0;-2.02;0.89;-0.02;0.0;0.0;0.0;0.0;-9.0;6.0;6.0;-15.0;0.13;0.43;-10.61;0.89;0.34;0.99
1753876673.330339;0.0;0.0;0.0;-2.02;0.89;-0.02;0.0;0.0;0.0;0.0;-9.0;6.0;6.0;-15.0;0.13;0.43;-10.62;0.74;0.29;1.02
1753876673.335339;0.0;0.0;0.0;-2.02;0.89;-0.02;0.0;0.0;0.0;0.0;-9.0;6.0;6.0;-15.0;0.13;0.43;-10.61;0.86;0.16;0.99
1753876673.340339;0.0;0.0;0.0;-2.02;0.89;-0.02;0.0;0.0;0.0;0.0;-9.0;6.0;6.0;-15.0;0.13;0.43;-10.62;0.64;0.35;0.86
1753876673.345339;0.0;0.0;0.0;-2.02;0.89;-0.02;0.0;0.0;0.0;0.0;-9.0;6.0;6.0;-15.0;0.12;0.44;-10.62;0.64;0.32;0.87
1753876673.350339;0.0;0.0;0.0;-2.02;0.89;-0.02;0.0;0.0;0.0;0.0;-9.0;6.0;6.0;-15.0;0.12;0.44;-10.62;0.79;0.19;0.96
1753876673.355339;0.0;0.0;0.0;-2.02;0.89;-0.02;0.0;0.0;0.0;0.0;-9.0;6.0;6.0;-15.0;0.12;0.44;-10.62;0.88;0.28;0.96
1753876673.360339;0.0;0.0;0.0;-2.02;0.89;-0.02;0.0;0.0;0.0;0.0;-9.0;6.0;6.0;-15.0;0.12;0.45;-10.61;0.79;0.24;1.0
1753876673.365339;0.0;0.0;0.0;-2.02;0.89;-0.02;0.0;0.0;0.0;0.0;-9.0;6.0;6.0;-15.0;0.12;0.45;-10.61;0.78;0.36;0.83
1753876673.370339;0.0;0.0;0.0;-2.02;0.89;-0.02;0.0;0.0;0.0;0.0;-9.0;6.0;6.0;-15.0;0.12;0.45;-10.61;0.73;0.46;0.94
1753876673.375339;0.0;0.0;0.0;-2.02;0.89;-0.02;0.0;0.0;0.0;0.0;-8.7;5.4;6.6;-15.3;0.13;0.45;-10.61;0.75;0.42;1.01
1753876673.38034;0.0;0.0;0.0;-2.02;0.89;-0.02;0.0;0.0;0.0;0.0;-8.7;3.8;7.1;-12.0;0.12;0.44;-10.61;0.66;0.37;0.93
1753876673.38534;0.0;0.0;0.0;-2.02;0.89;-0.02;0.0;0.0;0.0;0.0;-11.3;2.6;6.1;-14.3;0.12;0.46;-10.61;0.71;0.45;0.94
1753876673.39034;0.0;0.0;0.0;-2.02;0.89;-0.02;0.0;0.0;0.0;0.0;-6.5;3.8;6.5;-13.8;0.13;0.45;-10.61;0.85;0.21;0.92
1753876673.39534;0.0;0.0;0.0;-2.02;0.89;-0.02;0.0;0.0;0.0;0.0;-4.5;3.9;6.8;-12.9;0.13;0.45;-10.61;0.81;0.44;0.99
1753876673.40034;0.0;0.0;0.0;-2.01;0.89;-0.02;0.0;0.0;0.0;0.0;-6.2;2.5;8.0;-12.4;0.11;0.44;-10.62;0.79;0.37;0.85
1753876673.40534;0.0;0.0;0.0;-2.01;0.89;-0.02;0.0;0.0;0.0;0.0;-5.8;1.0;7.7;-13.4;0.13;0.45;-10.61;0.72;0.43;0.87
1753876673.41034;0.0;0.0;0.0;-2.01;0.89;-0.02;0.0;0.0;0.0;0.0;-0.9;1.3;7.3;-12.2;0.14;0.46;-10.61;0.83;0.31;0.9
1753876673.41534;0.0;0.0;0.0;-2.01;0.89;-0.02;0.0;0.0;0.0;0.0;-1.3;1.4;7.9;-12.3;0.14;0.47;-10.61;0.83;0.34;1.01
1753876673.42034;0.0;0.0;0.0;-2.01;0.89;-0.02;0.0;0.0;0.0;0.0;0.8;-1.5;8.2;-12.4;0.14;0.46;-10.61;0.81;0.36;0.9
1753876673.425339;0.0;0.0;0.0;-2.01;0.89;-0.02;0.0;0.0;0.0;0.0;1.0;0.0;8.0;-11.0;0.14;0.45;-10.61;0.83;0.31;0.89
1753876673.430339;0.0;0.0;0.0;-2.01;0.89;-0.02;0.0;0.0;0.0;0.0;1.0;0.0;8.0;-11.0;0.14;0.45;-10.62;0.8;0.22;0.92
1753876673.435339;0.0;0.0;0.0;-2.01;0.89;-0.02;0.0;0.0;0.0;0.0;1.0;0.0;8.0;-11.0;0.14;0.45;-10.62;0.77;0.31;1.13
1753876673.440339;0.0;0.0;0.0;-2.01;0.89;-0.02;0.0;0.0;0.0;0.0;1.0;0.0;8.0;-11.0;0.14;0.45;-10.63;0.76;0.22;1.0
1753876673.445339;0.0;0.0;0.0;-2.01;0.89;-0.02;0.0;0.0;0.0;0.0;1.0;0.0;8.0;-11.0;0.14;0.45;-10.64;0.66;0.26;1.06
1753876673.450339;0.0;0.0;0.0;-2.01;0.89;-0.02;0.0;0.0;0.0;0.0;1.0;0.0;8.0;-11.0;0.14;0.44;-10.64;0.8;0.19;0.78
1753876673.455339;0.0;0.0;0.0;-2.01;0.89;-0.02;0.0;0.0;0.0;0.0;1.0;0.0;8.0;-11.0;0.14;0.44;-10.64;0.76;0.34;0.77
1753876673.460339;0.0;0.0;0.0;-2.01;0.89;-0.02;0.0;0.0;0.0;0.0;3.7;-3.8;8.4;-8.6;0.15;0.43;-10.64;0.77;0.17;0.86
1753876673.465339;0.0;0.0;0.0;-2.01;0.89;-0.02;0.0;0.0;0.0;0.0;1.0;0.0;8.0;-11.0;0.14;0.44;-10.64;0.72;0.28;0.83
1753876673.470339;0.0;0.0;0.0;-2.01;0.89;-0.02;0.0;0.0;0.0;0.0;1.0;0.0;8.0;-11.0;0.14;0.45;-10.64;0.71;0.25;1.09
1753876673.475339;0.0;0.0;0.0;-2.01;0.89;-0.02;0.0;0.0;0.0;0.0;1.0;0.0;8.0;-11.0;0.13;0.44;-10.63;0.71;0.2;1.02
1753876673.480339;0.0;0.0;0.0;-2.01;0.89;-0.02;0.0;0.0;0.0;0.0;1.0;0.0;8.0;-11.0;0.13;0.44;-10.63;0.72;0.43;1.03
1753876673.485339;0.0;0.0;0.0;-2.01;0.89;-0.02;0.0;0.0;0.0;0.0;1.0;0.0;8.0;-11.0;0.13;0.45;-10.62;0.86;0.42;1.06
1753876673.490339;0.0;0.0;0.0;-2.01;0.89;-0.02;0.0;0.0;0.0;0.0;1.0;0.0;8.0;-11.0;0.13;0.44;-10.63;0.7;0.32;1.07
1753876673.495339;0.0;0.0;0.0;-2.01;0.89;-0.02;0.0;0.0;0.0;0.0;1.0;0.0;8.0;-11.0;0.14;0.44;-10.61;0.67;0.22;0.86
1753876673.500339;0.0;0.0;0.0;-2.01;0.89;-0.02;0.0;0.0;0.0;0.0;1.0;0.0;8.0;-11.0;0.14;0.44;-10.61;0.7;0.38;0.91
1753876673.505339;0.0;0.0;0.0;-2.01;0.89;-0.02;0.0;0.0;0.0;0.0;1.0;0.0;8.0;-11.0;0.14;0.44;-10.62;0.79;0.28;0.98
1753876673.510339;0.0;0.0;0.0;-2.01;0.89;-0.02;0.0;0.0;0.0;0.0;1.0;0.0;8.0;-11.0;0.14;0.44;-10.62;0.79;0.28;0.91
1753876673.515339;0.0;0.0;0.0;-2.01;0.89;-0.02;0.0;0.0;0.0;0.0;1.0;0.0;8.0;-11.0;0.14;0.44;-10.62;0.64;0.3;0.99
1753876673.520339;0.0;0.0;0.0;-2.01;0.89;-0.02;0.0;0.0;0.0;0.0;1.0;0.0;8.0;-11.0;0.15;0.45;-10.62;0.83;0.26;0.86
1753876673.525339;0.0;0.0;0.0;-2.01;0.89;-0.02;0.0;0.0;0.0;0.0;1.0;0.0;8.0;-11.0;0.14;0.44;-10.63;0.76;0.22;0.92
1753876673.530339;0.0;0.0;0.0;-2.01;0.89;-0.02;0.0;0.0;0.0;0.0;1.0;0.0;8.0;-11.0;0.14;0.44;-10.63;0.74;0.31;0.92
1753876673.535339;0.0;0.0;0.0;-2.01;0.89;-0.02;0.0;0.0;0.0;0.0;1.0;0.0;8.0;-11.0;0.14;0.44;-10.63;0.8;0.25;1.03
1753876673.540339;0.0;0.0;0.0;-2.01;0.89;-0.02;0.0;0.0;0.0;0.0;1.0;0.0;8.0;-11.0;0.14;0.44;-10.64;0.76;0.32;0.88
1753876673.545339;0.0;0.0;0.0;-2.01;0.89;-0.02;0.0;0.0;0.0;0.0;1.0;0.0;8.0;-11.0;0.14;0.44;-10.63;0.77;0.35;0.97
1753876673.550339;0.0;0.0;0.0;-2.01;0.89;-0.02;0.0;0.0;0.0;0.0;1.0;0.0;8.0;-11.0;0.14;0.43;-10.63;0.84;0.32;0.99
1753876673.555339;0.0;0.0;0.0;-2.01;0.89;-0.02;0.0;0.0;0.0;0.0;1.0;0.0;8.0;-11.0;0.13;0.43;-10.63;0.82;0.3;1.03
1753876673.560339;0.0;0.0;0.0;-2.01;0.89;-0.02;0.0;0.0;0.0;0.0;1.0;0.0;8.0;-11.0;0.13;0.44;-10.63;0.84;0.28;0.93
1753876673.565339;0.0;0.0;0.0;-2.01;0.89;-0.02;0.0;0.0;0.0;0.0;1.0;0.0;8.0;-11.0;0.13;0.45;-10.63;0.75;0.26;1.02
1753876673.570339;0.0;0.0;0.0;-2.01;0.89;-0.02;0.0;0.0;0.0;0.0;1.0;0.0;8.0;-11.0;0.13;0.45;-10.62;0.78;0.25;0.82
1753876673.575339;0.0;0.0;0.0;-2.01;0.89;-0.02;0.0;0.0;0.0;0.0;1.0;0.0;8.0;-11.0;0.13;0.44;-10.62;0.77;0.2;1.03
1753876673.580339;0.0;0.0;0.0;-2.01;0.89;-0.02;0.0;0.0;0.0;0.0;1.0;0.0;8.0;-11.0;0.13;0.44;-10.62;0.78;0.2;1.13
1753876673.585339;0.0;0.0;0.0;-2.01;0.89;-0.02;0.0;0.0;0.0;0.0;1.0;0.0;8.0;-11.0;0.13;0.43;-10.62;0.75;0.29;1.1
1753876673.59034;0.0;0.0;0.0;-2.01;0.89;-0.02;0.0;0.0;0.0;0.0;1.0;0.0;8.0;-11.0;0.13;0.44;-10.63;0.75;0.25;0.88
1753876673.59534;0.0;0.0;0.0;-2.01;0.89;-0.02;0.0;0.0;0.0;0.0;1.0;0.0;8.0;-11.0;0.13;0.44;-10.63;0.79;0.18;1.08
1753876673.60034;0.0;0.0;0.0;-2.01;0.89;-0.02;0.0;0.0;0.0;0.0;1.0;0.0;8.0;-11.0;0.14;0.44;-10.62;0.78;0.15;1.04
1753876673.60534;0.0;0.0;0.0;-2.01;0.89;-0.02;0.0;0.0;0.0;0.0;1.0;0.0;8.0;-11.0;0.12;0.44;-10.62;0.71;0.24;0.85
1753876673.61034;0.0;0.0;0.0;-2.01;0.89;-0.02;0.0;0.0;0.0;0.0;1.0;0.0;8.0;-11.0;0.12;0.45;-10.6;0.8;0.34;1.06
1753876673.615339;0.0;0.0;0.0;-2.01;0.89;-0.02;0.0;0.0;0.0;0.0;1.0;0.0;8.0;-11.0;0.13;0.45;-10.61;0.84;0.24;1.09
1753876673.620339;0.0;0.0;0.0;-2.01;0.89;-0.02;0.0;0.0;0.0;0.0;1.0;0.0;8.0;-11.0;0.13;0.44;-10.62;0.72;0.32;0.99
1753876673.625339;0.0;0.0;0.0;-2.01;0.89;-0.02;0.0;0.0;0.0;0.0;1.0;0.0;8.0;-11.0;0.13;0.44;-10.62;0.69;0.35;0.99
1753876673.630339;0.0;0.0;0.0;-2.01;0.89;-0.02;0.0;0.0;0.0;0.0;1.0;0.0;8.0;-11.0;0.14;0.45;-10.61;0.8;0.35;0.84
1753876673.635339;0.0;0.0;0.0;-2.01;0.89;-0.02;0.0;0.0;0.0;0.0;1.0;0.0;8.0;-11.0;0.14;0.44;-10.61;0.83;0.34;0.96
1753876673.640339;0.0;0.0;0.0;-2.01;0.88;-0.02;0.0;0.0;0.0;0.0;2.9;-0.2;8.7;-11.8;0.14;0.44;-10.61;0.85;0.21;1.03
1753876673.645339;0.0;0.0;0.0;-2.01;0.89;-0.02;0.0;0.0;0.0;0.0;2.2;-0.2;8.9;-9.7;0.15;0.44;-10.59;0.85;0.35;0.83
1753876673.650339;0.0;0.0;0.0;-2.01;0.9;-0.02;0.0;0.0;0.0;0.0;0.4;0.1;7.9;-13.1;0.15;0.44;-10.61;0.85;0.37;1.0
1753876673.65534;0.0;0.0;0.0;-2.01;0.89;-0.02;0.0;0.0;0.0;0.0;3.4;0.1;7.9;-10.8;0.15;0.44;-10.62;0.79;0.31;1.08
1753876673.66034;0.0;0.0;0.0;-2.01;0.89;-0.02;0.0;0.0;0.0;0.0;1.5;0.5;7.6;-10.5;0.14;0.45;-10.62;0.85;0.36;1.03
1753876673.66534;0.0;0.0;0.0;-2.01;0.9;-0.02;0.0;0.0;0.0;0.0;3.8;0.0;8.8;-12.1;0.14;0.45;-10.61;0.76;0.3;1.05
1753876673.67034;0.0;0.0;0.0;-2.01;0.89;-0.02;0.0;0.0;0.0;0.0;6.0;0.5;7.2;-11.7;0.14;0.44;-10.62;0.81;0.29;1.1
1753876673.67534;0.0;0.0;0.0;-2.01;0.89;-0.02;0.0;0.0;0.0;0.0;2.7;0.6;9.0;-11.8;0.15;0.44;-10.62;0.76;0.39;0.97
1753876673.68034;0.0;0.0;0.0;-2.01;0.9;-0.02;0.0;0.0;0.0;0.0;6.6;-0.0;8.8;-12.2;0.13;0.45;-10.61;0.79;0.29;0.91
1753876673.68534;0.0;0.0;0.0;-2.01;0.89;-0.02;0.0;0.0;0.0;0.0;4.8;0.5;9.1;-13.9;0.13;0.44;-10.62;0.82;0.43;0.92
1753876673.69034;0.0;0.0;0.0;-2.01;0.89;-0.02;0.0;0.0;0.0;0.0;6.6;0.0;8.7;-12.5;0.14;0.43;-10.61;0.83;0.36;1.0
1753876673.69534;0.0;0.0;0.0;-2.01;0.89;-0.02;0.0;0.0;0.0;0.0;3.3;0.4;9.2;-11.2;0.13;0.45;-10.61;0.78;0.26;0.93
1753876673.70034;0.0;0.0;0.0;-2.01;0.9;-0.02;0.0;0.0;0.0;0.0;3.0;0.7;8.8;-11.8;0.14;0.45;-10.61;0.84;0.39;0.92
1753876673.70534;0.0;0.0;0.0;-2.02;0.9;-0.02;0.0;0.0;0.0;0.0;4.7;0.5;9.1;-13.2;0.14;0.45;-10.62;0.86;0.38;1.07
1753876673.710341;0.0;0.0;0.0;-2.02;0.9;-0.02;0.0;0.0;0.0;0.0;6.4;0.3;8.6;-12.2;0.14;0.43;-10.61;0.77;0.24;0.99
1753876673.715341;0.0;0.0;0.0;-2.01;0.9;-0.02;0.0;0.0;0.0;0.0;3.9;0.5;9.3;-13.0;0.14;0.44;-10.62;0.81;0.41;0.96
1753876673.720341;0.0;0.0;0.0;-2.01;0.9;-0.02;0.0;0.0;0.0;0.0;7.2;0.4;8.6;-12.5;0.14;0.43;-10.62;0.76;0.28;1.01
1753876673.725341;0.0;0.0;0.0;-2.01;0.9;-0.02;0.0;0.0;0.0;0.0;5.0;0.7;8.7;-13.0;0.14;0.44;-10.61;0.78;0.32;1.03
1753876673.730341;0.0;0.0;0.0;-2.02;0.9;-0.02;0.0;0.0;0.0;0.0;4.6;0.6;8.3;-12.5;0.13;0.44;-10.59;0.78;0.3;1.1
1753876673.735341;0.0;0.0;0.0;-2.01;0.89;-0.02;0.0;0.0;0.0;0.0;9.7;0.7;8.9;-12.9;0.14;0.44;-10.61;0.83;0.36;1.04
1753876673.740342;0.0;0.0;0.0;-2.01;0.91;-0.02;0.0;0.0;0.0;0.0;3.8;0.2;9.3;-14.9;0.14;0.45;-10.61;0.74;0.28;0.91
1753876673.745342;0.0;0.0;0.0;-2.02;0.9;-0.02;0.0;0.0;0.0;0.0;10.7;0.5;8.6;-12.4;0.13;0.44;-10.63;0.76;0.26;1.01
1753876673.750342;0.0;0.0;0.0;-2.02;0.9;-0.02;0.0;0.0;0.0;0.0;3.1;0.6;9.1;-14.8;0.13;0.45;-10.61;0.76;0.34;1.07
1753876673.755342;0.0;0.0;0.0;-2.02;0.91;-0.02;0.0;0.0;0.0;0.0;12.7;0.5;9.0;-11.8;0.14;0.44;-10.6;0.82;0.33;1.03
1753876673.760342;0.0;0.0;0.0;-2.02;0.9;-0.02;0.0;0.0;0.0;0.0;9.8;0.9;9.2;-12.6;0.13;0.45;-10.6;0.74;0.37;1.04
1753876673.765342;0.0;0.0;0.0;-2.02;0.9;-0.02;0.0;0.0;0.0;0.0;10.4;0.6;9.6;-13.4;0.13;0.44;-10.62;0.68;0.29;0.95
1753876673.770342;0.0;0.0;0.0;-2.02;0.91;-0.02;0.0;0.0;0.0;0.0;9.9;0.8;9.4;-13.3;0.13;0.44;-10.63;0.78;0.33;1.05
1753876673.775342;0.0;0.0;0.0;-2.02;0.9;-0.02;0.0;0.0;0.0;0.0;7.9;1.2;9.5;-13.4;0.15;0.44;-10.6;0.87;0.41;1.02
1753876673.780342;0.0;0.0;0.0;-2.02;0.9;-0.02;0.0;0.0;0.0;0.0;4.7;0.7;10.1;-14.8;0.15;0.45;-10.62;0.76;0.34;1.05
1753876673.785342;0.0;0.0;0.0;-2.02;0.91;-0.02;0.0;0.0;0.0;0.0;9.7;1.0;10.7;-14.0;0.14;0.45;-10.61;0.67;0.46;1.08
1753876673.790342;0.0;0.0;0.0;-2.02;0.9;-0.02;0.0;0.0;0.0;0.0;13.3;1.2;9.7;-13.2;0.14;0.45;-10.61;0.72;0.32;0.99
1753876673.795343;0.0;0.0;0.0;-2.01;0.91;-0.02;0.0;0.0;0.0;0.0;7.3;0.8;9.9;-15.0;0.14;0.44;-10.62;0.71;0.34;1.06
1753876673.800343;0.0;0.0;0.0;-2.02;0.9;-0.02;0.0;0.0;0.0;0.0;12.7;0.9;10.0;-16.4;0.15;0.45;-10.62;0.75;0.31;1.06
1753876673.805343;0.0;0.0;0.0;-2.02;0.91;-0.02;0.0;0.0;0.0;0.0;14.8;1.1;10.3;-14.4;0.14;0.46;-10.6;0.7;0.36;0.89
1753876673.810343;0.0;0.0;0.0;-2.02;0.91;-0.02;0.0;0.0;0.0;0.0;11.1;1.1;9.9;-13.7;0.15;0.45;-10.62;0.73;0.36;1.01
1753876673.815339;0.0;0.0;0.0;-2.02;0.91;-0.02;0.0;0.0;0.0;0.0;11.0;1.0;10.0;-15.0;0.14;0.45;-10.61;0.73;0.32;1.02
1753876673.820339;0.0;0.0;0.0;-2.02;0.91;-0.02;0.0;0.0;0.0;0.0;11.0;1.0;10.0;-15.0;0.14;0.45;-10.61;0.82;0.24;1.01
1753876673.825339;0.0;0.0;0.0;-2.02;0.91;-0.02;0.0;0.0;0.0;0.0;12.9;1.1;9.9;-15.3;0.14;0.46;-10.6;0.79;0.24;0.95
1753876673.830339;0.0;0.0;0.0;-2.02;0.91;-0.02;0.0;0.0;0.0;0.0;11.0;1.0;10.0;-15.0;0.13;0.46;-10.61;0.7;0.26;0.97
1753876673.835339;0.0;0.0;0.0;-2.02;0.91;-0.02;0.0;0.0;0.0;0.0;11.3;1.2;10.2;-13.9;0.12;0.45;-10.6;0.75;0.34;0.97
1753876673.840339;0.0;0.0;0.0;-2.02;0.91;-0.02;0.0;0.0;0.0;0.0;11.0;1.0;10.0;-15.0;0.13;0.45;-10.61;0.72;0.32;0.93
1753876673.845339;0.0;0.0;0.0;-2.02;0.91;-0.02;0.0;0.0;0.0;0.0;11.0;1.0;10.0;-15.0;0.13;0.46;-10.61;0.75;0.31;1.14
1753876673.850339;0.0;0.0;0.0;-2.02;0.91;-0.02;0.0;0.0;0.0;0.0;11.0;1.0;10.0;-15.0;0.13;0.46;-10.61;0.8;0.36;0.97
1753876673.855339;0.0;0.0;0.0;-2.02;0.91;-0.02;0.0;0.0;0.0;0.0;11.0;1.0;10.0;-15.0;0.13;0.46;-10.61;0.7;0.18;1.02
1753876673.860339;0.0;0.0;0.0;-2.02;0.91;-0.02;0.0;0.0;0.0;0.0;11.0;1.0;10.0;-15.0;0.13;0.46;-10.61;0.77;0.14;0.99
1753876673.865339;0.0;0.0;0.0;-2.02;0.91;-0.02;0.0;0.0;0.0;0.0;11.0;1.0;10.0;-15.0;0.13;0.46;-10.62;0.75;0.28;1.01
1753876673.870339;0.0;0.0;0.0;-2.02;0.91;-0.02;0.0;0.0;0.0;0.0;11.0;1.0;10.0;-15.0;0.13;0.45;-10.62;0.77;0.25;0.89
1753876673.875339;0.0;0.0;0.0;-2.02;0.91;-0.02;0.0;0.0;0.0;0.0;11.0;1.0;10.0;-15.0;0.13;0.45;-10.61;0.96;0.34;0.98
1753876673.880339;0.0;0.0;0.0;-2.02;0.91;-0.02;0.0;0.0;0.0;0.0;11.0;1.0;10.0;-15.0;0.13;0.45;-10.61;0.73;0.29;0.93
1753876673.885339;0.0;0.0;0.0;-2.02;0.9;-0.02;0.0;0.0;0.0;0.0;2.2;1.1;10.5;-15.5;0.13;0.44;-10.61;0.77;0.3;0.89
1753876673.890339;0.0;0.0;0.0;-2.02;0.91;-0.02;0.0;0.0;0.0;0.0;11.0;1.0;10.0;-15.0;0.13;0.44;-10.6;0.79;0.32;0.86
1753876673.895339;0.0;0.0;0.0;-2.02;0.91;-0.02;0.0;0.0;0.0;0.0;11.0;1.0;10.0;-15.0;0.13;0.44;-10.61;0.77;0.03;1.04
1753876673.900339;0.0;0.0;0.0;-2.02;0.91;-0.02;0.0;0.0;0.0;0.0;11.0;1.0;10.0;-15.0;0.13;0.43;-10.62;0.73;0.29;0.99
1753876673.905339;0.0;0.0;0.0;-2.02;0.91;-0.02;0.0;0.0;0.0;0.0;11.0;1.0;10.0;-15.0;0.13;0.44;-10.62;0.75;0.14;1.06
1753876673.910339;0.0;0.0;0.0;-2.02;0.91;-0.02;0.0;0.0;0.0;0.0;11.0;1.0;10.0;-15.0;0.13;0.44;-10.62;0.73;0.2;1.01
1753876673.915339;0.0;0.0;0.0;-2.02;0.91;-0.02;0.0;0.0;0.0;0.0;10.4;1.3;11.4;-16.3;0.13;0.43;-10.62;0.74;0.23;1.09
1753876673.920339;0.0;0.0;0.0;-2.02;0.93;-0.02;0.0;0.0;0.0;0.0;9.5;0.5;9.3;-13.7;0.13;0.43;-10.62;0.69;0.32;0.94
1753876673.92534;0.0;0.0;0.0;-2.02;0.91;-0.02;0.0;0.0;0.0;0.0;14.3;0.5;9.6;-15.4;0.13;0.43;-10.62;0.67;0.22;1.03
1753876673.93034;0.0;0.0;0.0;-2.02;0.89;-0.02;0.0;0.0;0.0;0.0;14.6;1.0;9.1;-15.6;0.13;0.45;-10.61;0.64;0.17;1.1
1753876673.93534;0.0;0.0;0.0;-2.02;0.92;-0.02;0.0;0.0;0.0;0.0;11.0;0.8;9.0;-15.8;0.14;0.44;-10.61;0.75;0.18;0.9
1753876673.94034;0.0;0.0;0.0;-2.02;0.91;-0.02;0.0;0.0;0.0;0.0;11.8;1.2;10.5;-14.0;0.14;0.44;-10.61;0.72;0.35;0.96
1753876673.94534;0.0;0.0;0.0;-2.01;0.92;-0.02;0.0;0.0;0.0;0.0;11.2;1.1;10.5;-13.7;0.13;0.45;-10.61;0.78;0.25;0.87
1753876673.95034;0.0;0.0;0.0;-2.02;0.91;-0.02;0.0;0.0;0.0;0.0;10.8;1.3;8.8;-15.8;0.14;0.44;-10.61;0.82;0.03;0.94
1753876673.95534;0.0;0.0;0.0;-2.02;0.91;-0.02;0.0;0.0;0.0;0.0;12.0;1.4;10.1;-12.4;0.14;0.45;-10.61;0.8;0.22;0.97
1753876673.96034;0.0;0.0;0.0;-2.02;0.9;-0.02;0.0;0.0;0.0;0.0;9.5;1.0;9.7;-14.8;0.14;0.44;-10.6;0.9;0.26;0.9
1753876673.96534;0.0;0.0;0.0;-2.02;0.91;-0.02;0.0;0.0;0.0;0.0;17.8;0.9;9.8;-15.4;0.14;0.42;-10.61;0.8;0.23;0.87
1753876673.97034;0.0;0.0;0.0;-2.01;0.91;-0.02;0.0;0.0;0.0;0.0;7.8;1.2;9.9;-13.0;0.13;0.43;-10.61;0.68;0.14;0.91
1753876673.97534;0.0;0.0;0.0;-2.02;0.91;-0.02;0.0;0.0;0.0;0.0;13.7;1.0;11.1;-15.8;0.14;0.43;-10.61;0.86;0.29;0.92
1753876673.980341;0.0;0.0;0.0;-2.02;0.91;-0.02;0.0;0.0;0.0;0.0;9.0;1.0;10.9;-17.5;0.14;0.45;-10.61;0.81;0.38;0.93
1753876673.985341;0.0;0.0;0.0;-2.02;0.91;-0.02;0.0;0.0;0.0;0.0;14.0;1.1;9.2;-13.6;0.14;0.45;-10.6;0.89;0.24;0.95
1753876673.990341;0.0;0.0;0.0;-2.02;0.92;-0.02;0.0;0.0;0.0;0.0;13.4;1.2;9.1;-14.2;0.14;0.44;-10.6;0.82;0.28;0.81
1753876673.995341;0.0;0.0;0.0;-2.02;0.9;-0.02;0.0;0.0;0.0;0.0;12.8;0.7;10.4;-14.5;0.13;0.43;-10.6;0.73;0.29;0.89
1753876674.000341;0.0;0.0;0.0;-2.02;0.91;-0.02;0.0;0.0;0.0;0.0;17.1;0.6;10.0;-13.7;0.14;0.44;-10.59;0.76;0.33;0.98
1753876674.005339;0.0;0.0;0.0;-2.02;0.91;-0.02;0.0;0.0;0.0;0.0;11.0;1.0;10.0;-15.0;0.14;0.44;-10.6;0.83;0.26;0.85
1753876674.010339;0.0;0.0;0.0;-2.02;0.91;-0.02;0.0;0.0;0.0;0.0;11.0;1.0;10.0;-15.0;0.14;0.44;-10.6;0.69;0.2;0.97
1753876674.015339;0.0;0.0;0.0;-2.02;0.91;-0.02;0.0;0.0;0.0;0.0;11.0;1.0;10.0;-15.0;0.14;0.44;-10.6;0.57;0.25;1.06
1753876674.020339;0.0;0.0;0.0;-2.02;0.91;-0.02;0.0;0.0;0.0;0.0;11.0;1.0;10.0;-15.0;0.14;0.44;-10.61;0.77;0.25;0.93
1753876674.025339;0.0;0.0;0.0;-2.02;0.91;-0.02;0.0;0.0;0.0;0.0;11.0;1.0;10.0;-15.0;0.14;0.44;-10.61;0.74;0.2;1.11
1753876674.030339;0.0;0.0;0.0;-2.02;0.91;-0.02;0.0;0.0;0.0;0.0;11.0;1.0;10.0;-15.0;0.14;0.44;-10.61;0.89;0.44;1.06
1753876674.035339;0.0;0.0;0.0;-2.02;0.91;-0.02;0.0;0.0;0.0;0.0;11.0;1.0;10.0;-15.0;0.14;0.45;-10.61;0.82;0.34;0.96
1753876674.040339;0.0;0.0;0.0;-2.02;0.91;-0.02;0.0;0.0;0.0;0.0;11.0;1.0;10.0;-15.0;0.14;0.44;-10.62;0.89;0.25;0.9
1753876674.045339;0.0;0.0;0.0;-2.02;0.91;-0.02;0.0;0.0;0.0;0.0;11.0;1.0;10.0;-15.0;0.14;0.44;-10.62;0.71;0.33;0.83
1753876674.050339;0.0;0.0;0.0;-2.02;0.91;-0.02;0.0;0.0;0.0;0.0;11.0;1.0;10.0;-15.0;0.14;0.45;-10.61;0.77;0.26;0.97
1753876674.055339;0.0;0.0;0.0;-2.02;0.91;-0.02;0.0;0.0;0.0;0.0;11.0;1.0;10.0;-15.0;0.14;0.45;-10.61;0.77;0.16;0.93
1753876674.060339;0.0;0.0;0.0;-2.02;0.91;-0.02;0.0;0.0;0.0;0.0;11.0;1.0;10.0;-15.0;0.14;0.45;-10.62;0.73;0.21;0.97
1753876674.065339;0.0;0.0;0.0;-2.02;0.91;-0.02;0.0;0.0;0.0;0.0;11.0;1.0;10.0;-15.0;0.13;0.45;-10.62;0.78;0.3;0.99
1753876674.070339;0.0;0.0;0.0;-2.02;0.91;-0.02;0.0;0.0;0.0;0.0;11.0;1.0;10.0;-15.0;0.13;0.45;-10.62;0.74;0.36;0.95
1753876674.075339;0.0;0.0;0.0;-2.02;0.91;-0.02;0.0;0.0;0.0;0.0;13.2;1.2;10.3;-15.3;0.13;0.45;-10.62;0.75;0.41;0.85
1753876674.08034;0.0;0.0;0.0;-2.02;0.91;-0.02;0.0;0.0;0.0;0.0;11.2;1.7;9.8;-14.2;0.13;0.45;-10.62;0.74;0.43;0.99
1753876674.08534;0.0;0.0;0.0;-2.02;0.91;-0.02;0.0;0.0;0.0;0.0;11.4;0.7;8.5;-12.9;0.12;0.45;-10.62;0.77;0.35;0.93
1753876674.09034;0.0;0.0;0.0;-2.02;0.91;-0.02;0.0;0.0;0.0;0.0;7.0;1.1;10.0;-14.0;0.14;0.45;-10.64;0.79;0.35;1.08
1753876674.09534;0.0;0.0;0.0;-2.02;0.91;-0.02;0.0;0.0;0.0;0.0;10.6;1.3;10.3;-12.7;0.13;0.44;-10.62;0.79;0.36;0.88
1753876674.10034;0.0;0.0;0.0;-2.02;0.91;-0.02;0.0;0.0;0.0;0.0;8.8;1.9;8.6;-11.7;0.13;0.45;-10.63;0.65;0.39;0.84
1753876674.10534;0.0;0.0;0.0;-2.02;0.91;-0.02;0.0;0.0;0.0;0.0;6.8;2.2;10.5;-16.3;0.14;0.45;-10.61;0.75;0.33;1.0
1753876674.11034;0.0;0.0;0.0;-2.02;0.91;-0.02;0.0;0.0;0.0;0.0;6.7;2.4;9.5;-13.5;0.13;0.46;-10.64;0.75;0.31;0.98
1753876674.11534;0.0;0.0;0.0;-2.02;0.91;-0.02;0.0;0.0;0.0;0.0;5.9;3.8;8.1;-12.8;0.12;0.45;-10.62;0.74;0.31;0.79
1753876674.12034;0.0;0.0;0.0;-2.02;0.91;-0.02;0.0;0.0;0.0;0.0;7.2;1.0;9.0;-12.3;0.13;0.44;-10.63;0.69;0.37;0.92
1753876674.12534;0.0;0.0;0.0;-2.02;0.91;-0.02;0.0;0.0;0.0;0.0;6.4;2.4;9.8;-14.2;0.13;0.45;-10.62;0.76;0.34;0.98
1753876674.13034;0.0;0.0;0.0;-2.02;0.91;-0.02;0.0;0.0;0.0;0.0;0.8;3.2;7.5;-12.4;0.14;0.45;-10.62;0.76;0.33;1.02
1753876674.135341;0.0;0.0;0.0;-2.03;0.91;-0.02;0.0;0.0;0.0;0.0;11.3;1.3;7.9;-10.9;0.12;0.45;-10.62;0.83;0.36;0.94
1753876674.140341;0.0;0.0;0.0;-2.03;0.91;-0.02;0.0;0.0;0.0;0.0;6.2;2.3;7.8;-10.0;0.14;0.43;-10.62;0.84;0.36;0.94
1753876674.145341;0.0;0.0;0.0;-2.02;0.91;-0.02;0.0;0.0;0.0;0.0;2.6;1.6;7.3;-10.5;0.14;0.44;-10.64;0.79;0.06;0.85
1753876674.150341;0.0;0.0;0.0;-2.03;0.91;-0.02;0.0;0.0;0.0;0.0;6.8;3.1;8.8;-12.2;0.14;0.43;-10.62;0.83;0.33;0.98
1753876674.155341;0.0;0.0;0.0;-2.03;0.91;-0.02;0.0;0.0;0.0;0.0;5.3;2.6;8.5;-12.3;0.14;0.42;-10.64;0.83;0.33;0.9
1753876674.160341;0.0;0.0;0.0;-2.02;0.91;-0.02;0.0;0.0;0.0;0.0;7.4;3.0;8.8;-10.6;0.14;0.42;-10.64;0.81;0.26;0.97
1753876674.165342;0.0;0.0;0.0;-2.02;0.91;-0.02;0.0;0.0;0.0;0.0;4.2;3.3;6.0;-10.7;0.14;0.44;-10.62;0.73;0.21;0.94
1753876674.170342;0.0;0.0;0.0;-2.03;0.91;-0.02;0.0;0.0;0.0;0.0;0.6;3.8;8.2;-10.3;0.13;0.43;-10.62;0.94;0.19;0.82
1753876674.175342;0.0;0.0;0.0;-2.03;0.91;-0.02;0.0;0.0;0.0;0.0;4.9;3.1;7.8;-11.8;0.14;0.43;-10.63;0.74;0.01;0.94
1753876674.180342;0.0;0.0;0.0;-2.03;0.91;-0.02;0.0;0.0;0.0;0.0;3.7;3.7;7.8;-10.9;0.13;0.43;-10.63;0.76;0.19;0.94
1753876674.185342;0.0;0.0;0.0;-2.03;0.91;-0.02;0.0;0.0;0.0;0.0;4.5;4.1;8.4;-10.5;0.14;0.44;-10.62;0.8;0.29;0.77
1753876674.190342;0.0;0.0;0.0;-2.03;0.91;-0.02;0.0;0.0;0.0;0.0;0.0;3.6;7.0;-11.6;0.14;0.43;-10.62;0.86;0.28;0.94
1753876674.195339;0.0;0.0;0.0;-2.03;0.91;-0.02;0.0;0.0;0.0;0.0;1.0;4.0;7.0;-10.0;0.14;0.43;-10.63;0.83;0.26;0.89
1753876674.200339;0.0;0.0;0.0;-2.03;0.91;-0.02;0.0;0.0;0.0;0.0;1.0;4.0;7.0;-10.0;0.14;0.43;-10.63;0.8;0.38;0.88
1753876674.205339;0.0;0.0;0.0;-2.03;0.91;-0.02;0.0;0.0;0.0;0.0;1.0;4.0;7.0;-10.0;0.14;0.43;-10.64;0.73;0.33;0.78
1753876674.210339;0.0;0.0;0.0;-2.03;0.91;-0.02;0.0;0.0;0.0;0.0;-1.2;6.9;11.0;-2.4;0.13;0.44;-10.64;0.78;0.35;0.82
1753876674.21534;0.0;0.0;0.0;-2.03;0.91;-0.02;0.0;0.0;0.0;0.0;-1.7;4.0;7.2;-15.2;0.14;0.42;-10.65;0.78;0.42;0.8
1753876674.22034;0.0;0.0;0.0;-2.03;0.91;-0.02;0.0;0.0;0.0;0.0;10.6;3.0;7.3;-2.3;0.13;0.44;-10.65;0.77;0.36;0.68
1753876674.22534;0.0;0.0;0.0;-2.03;0.91;-0.02;0.0;0.0;0.0;0.0;-6.0;5.2;6.4;-1.5;0.14;0.43;-10.64;0.61;0.37;0.78
1753876674.23034;0.0;0.0;0.0;-2.03;0.91;-0.02;0.0;0.0;0.0;0.0;2.8;5.6;6.3;-2.1;0.13;0.43;-10.64;0.77;0.37;0.65
1753876674.23534;0.0;0.0;0.0;-2.03;0.91;-0.02;0.0;0.0;0.0;0.0;1.9;3.8;5.0;-18.2;0.14;0.44;-10.63;0.76;0.27;0.88
1753876674.24034;0.0;0.0;0.0;-2.02;0.91;-0.02;0.0;0.0;0.0;0.0;1.5;4.1;5.4;-6.0;0.14;0.44;-10.64;0.8;0.37;0.94
1753876674.24534;0.0;0.0;0.0;-2.03;0.91;-0.02;0.0;0.0;0.0;0.0;1.7;3.3;5.2;-12.9;0.13;0.44;-10.64;0.72;0.44;0.75
1753876674.25034;0.0;0.0;0.0;-2.03;0.91;-0.02;0.0;0.0;0.0;0.0;-2.2;4.1;7.2;-2.6;0.14;0.44;-10.63;0.66;0.34;0.77
1753876674.25534;0.0;0.0;0.0;-2.03;0.91;-0.02;0.0;0.0;0.0;0.0;-2.2;3.2;4.9;1.3;0.14;0.45;-10.62;0.87;0.41;0.81
1753876674.26034;0.0;0.0;0.0;-2.03;0.91;-0.02;0.0;0.0;0.0;0.0;-2.2;2.7;8.7;-7.4;0.14;0.44;-10.63;0.79;0.27;0.65
1753876674.26534;0.0;0.0;0.0;-2.03;0.91;-0.02;0.0;0.0;0.0;0.0;-4.7;3.4;5.8;5.0;0.14;0.43;-10.64;0.75;0.27;0.8
1753876674.270341;0.0;0.0;0.0;-2.03;0.91;-0.02;0.0;0.0;0.0;0.0;-1.2;1.0;10.9;-2.8;0.14;0.43;-10.65;0.78;0.4;0.74
1753876674.275341;0.0;0.0;0.0;-2.03;0.91;-0.02;0.0;0.0;0.0;0.0;2.6;3.1;4.7;-2.6;0.13;0.43;-10.63;0.91;0.48;0.78
1753876674.280341;0.0;0.0;0.0;-2.03;0.91;-0.02;0.0;0.0;0.0;0.0;-5.1;2.8;8.2;-3.4;0.14;0.44;-10.64;0.63;0.35;0.77
1753876674.285341;0.0;0.0;0.0;-2.03;0.91;-0.02;0.0;0.0;0.0;0.0;-5.6;2.9;7.2;-7.1;0.14;0.45;-10.64;0.81;0.39;0.75
1753876674.290341;0.0;0.0;0.0;-2.03;0.91;-0.02;0.0;0.0;0.0;0.0;2.2;2.7;5.2;-3.8;0.14;0.43;-10.63;0.83;0.34;0.88
1753876674.295341;0.0;0.0;0.0;-2.03;0.91;-0.02;0.0;0.0;0.0;0.0;5.0;2.3;6.0;6.0;0.14;0.45;-10.62;0.69;0.44;0.89
1753876674.300341;0.0;0.0;0.0;-2.03;0.91;-0.02;0.0;0.0;0.0;0.0;4.0;3.9;8.3;-9.4;0.14;0.43;-10.64;0.84;0.5;0.73
1753876674.305342;0.0;0.0;0.0;-2.04;0.91;-0.02;0.0;0.0;0.0;0.0;0.3;0.9;3.4;4.2;0.13;0.44;-10.63;0.77;0.26;0.82
1753876674.310342;0.0;0.0;0.0;-2.03;0.91;-0.02;0.0;0.0;0.0;0.0;-0.4;2.6;6.0;11.3;0.14;0.45;-10.61;0.83;0.46;0.81
1753876674.315342;0.0;0.0;0.0;-2.04;0.91;-0.02;0.0;0.0;0.0;0.0;-0.4;3.2;4.2;20.9;0.13;0.44;-10.63;0.74;0.25;0.97
1753876674.320342;0.0;0.0;0.0;-2.03;0.91;-0.02;0.0;0.0;0.0;0.0;-1.0;2.8;4.1;7.7;0.14;0.43;-10.65;0.85;0.44;0.9
1753876674.325342;0.0;0.0;0.0;-2.03;0.91;-0.02;0.0;0.0;0.0;0.0;4.6;0.4;4.2;1.3;0.14;0.44;-10.63;0.76;0.29;0.93
1753876674.330342;0.0;0.0;0.0;-2.03;0.91;-0.02;0.0;0.0;0.0;0.0;0.9;0.0;6.4;-5.6;0.14;0.43;-10.63;0.79;0.4;0.96
1753876674.335342;0.0;0.0;0.0;-2.03;0.91;-0.02;0.0;0.0;0.0;0.0;3.4;1.3;4.9;-7.4;0.13;0.44;-10.63;0.71;0.43;0.88
1753876674.340342;0.0;0.0;0.0;-2.03;0.91;-0.02;0.0;0.0;0.0;0.0;-1.8;1.9;4.9;3.1;0.14;0.45;-10.62;0.75;0.36;0.72
1753876674.345342;0.0;0.0;0.0;-2.03;0.91;-0.02;0.0;0.0;0.0;0.0;1.8;1.9;8.3;12.6;0.14;0.44;-10.63;0.99;0.49;0.7
1753876674.350342;0.0;0.0;0.0;-2.03;0.91;-0.02;0.0;0.0;0.0;0.0;-2.6;1.4;6.6;18.4;0.13;0.45;-10.63;0.82;0.39;1.04
1753876674.355343;0.0;0.0;0.0;-2.03;0.91;-0.02;0.0;0.0;0.0;0.0;3.4;0.8;3.9;2.0;0.14;0.45;-10.63;0.73;0.4;1.02
1753876674.360343;0.0;0.0;0.0;-2.03;0.91;-0.02;0.0;0.0;0.0;0.0;2.8;3.2;6.1;2.5;0.13;0.45;-10.62;0.77;0.46;0.72
1753876674.365343;0.0;0.0;0.0;-2.03;0.91;-0.02;0.0;0.0;0.0;0.0;2.3;-0.5;4.1;8.3;0.13;0.43;-10.63;0.8;0.41;0.79
1753876674.370343;0.0;0.0;0.0;-2.02;0.91;-0.02;0.0;0.0;0.0;0.0;1.6;-0.1;4.3;2.1;0.13;0.44;-10.61;0.83;0.34;0.91
1753876674.375343;0.0;0.0;0.0;-2.03;0.91;-0.02;0.0;0.0;0.0;0.0;-5.8;-0.7;3.4;5.5;0.13;0.45;-10.63;0.72;0.57;0.75
1753876674.380343;0.0;0.0;0.0;-2.03;0.91;-0.02;0.0;0.0;0.0;0.0;-3.6;-0.3;3.7;11.5;0.14;0.45;-10.62;0.91;0.46;0.86
1753876674.385343;0.0;0.0;0.0;-2.03;0.91;-0.02;0.0;0.0;0.0;0.0;8.9;-0.1;3.8;4.2;0.13;0.46;-10.63;0.88;0.4;0.92
1753876674.390344;0.0;0.0;0.0;-2.03;0.91;-0.02;0.0;0.0;0.0;0.0;-2.9;1.0;4.6;11.7;0.13;0.46;-10.62;0.84;0.27;0.87
1753876674.395344;0.0;0.0;0.0;-2.03;0.91;-0.02;0.0;0.0;0.0;0.0;7.6;0.7;4.2;19.6;0.13;0.44;-10.62;0.67;0.39;1.0
1753876674.400344;0.0;0.0;0.0;-2.02;0.91;-0.02;0.0;0.0;0.0;0.0;-2.2;-1.8;3.2;9.4;0.13;0.45;-10.61;0.64;0.32;0.68
1753876674.405344;0.0;0.0;0.0;-2.03;0.91;-0.02;0.0;0.0;0.0;0.0;9.0;0.7;6.9;13.0;0.12;0.45;-10.61;0.81;0.42;0.9
1753876674.410344;0.0;0.0;0.0;-2.03;0.91;-0.02;0.0;0.0;0.0;0.0;2.1;0.7;5.6;17.4;0.14;0.45;-10.63;0.79;0.28;0.86
1753876674.415344;0.0;0.0;0.0;-2.03;0.91;-0.02;0.0;0.0;0.0;0.0;-2.0;0.2;3.7;18.9;0.12;0.45;-10.62;0.75;0.48;0.9
1753876674.420339;0.0;0.0;0.0;-2.03;0.91;-0.02;0.0;0.0;0.0;0.0;1.0;0.0;5.0;14.0;0.13;0.45;-10.62;0.75;0.41;0.9
1753876674.425339;0.0;0.0;0.0;-2.03;0.91;-0.02;0.0;0.0;0.0;0.0;1.0;0.0;5.0;14.0;0.13;0.45;-10.62;0.84;0.25;0.97
1753876674.430339;0.0;0.0;0.0;-2.03;0.91;-0.02;0.0;0.0;0.0;0.0;1.0;0.0;5.0;14.0;0.13;0.45;-10.63;0.76;0.25;0.92
1753876674.435339;0.0;0.0;0.0;-2.04;0.91;-0.02;0.0;0.0;0.0;0.0;-6.5;-1.2;6.0;17.7;0.13;0.45;-10.63;0.86;0.27;0.89
1753876674.440339;0.0;0.0;0.0;-2.03;0.91;-0.02;0.0;0.0;0.0;0.0;1.0;0.0;5.0;14.0;0.13;0.44;-10.63;0.83;0.31;0.94
1753876674.445339;0.0;0.0;0.0;-2.03;0.91;-0.02;0.0;0.0;0.0;0.0;1.0;0.0;5.0;14.0;0.13;0.45;-10.63;0.86;0.3;0.88
1753876674.450339;0.0;0.0;0.0;-2.03;0.91;-0.02;0.0;0.0;0.0;0.0;1.0;0.0;5.0;14.0;0.14;0.44;-10.63;0.72;0.22;1.06
1753876674.455339;0.0;0.0;0.0;-2.03;0.91;-0.02;0.0;0.0;0.0;0.0;1.0;0.0;5.0;14.0;0.14;0.44;-10.63;0.77;0.26;0.75
1753876674.460339;0.0;0.0;0.0;-2.03;0.91;-0.02;0.0;0.0;0.0;0.0;1.0;0.0;5.0;14.0;0.14;0.45;-10.62;0.78;0.35;0.86
1753876674.465339;0.0;0.0;0.0;-2.03;0.91;-0.02;0.0;0.0;0.0;0.0;1.0;0.0;5.0;14.0;0.14;0.44;-10.63;0.96;0.36;0.98
1753876674.470339;0.0;0.0;0.0;-2.03;0.91;-0.02;0.0;0.0;0.0;0.0;1.0;0.0;5.0;14.0;0.13;0.44;-10.63;0.98;0.25;0.89
1753876674.475339;0.0;0.0;0.0;-2.03;0.91;-0.02;0.0;0.0;0.0;0.0;1.0;0.0;5.0;14.0;0.14;0.44;-10.61;0.83;0.32;0.94
1753876674.480339;0.0;0.0;0.0;-2.03;0.91;-0.02;0.0;0.0;0.0;0.0;1.0;0.0;5.0;14.0;0.13;0.44;-10.61;0.76;0.08;0.8
1753876674.485339;0.0;0.0;0.0;-2.03;0.91;-0.02;0.0;0.0;0.0;0.0;1.0;0.0;5.0;14.0;0.14;0.44;-10.61;0.84;0.31;0.86
1753876674.490339;0.0;0.0;0.0;-2.03;0.91;-0.02;0.0;0.0;0.0;0.0;1.0;0.0;5.0;14.0;0.14;0.45;-10.61;0.76;0.31;1.02
1753876674.495339;0.0;0.0;0.0;-2.03;0.91;-0.02;0.0;0.0;0.0;0.0;1.0;0.0;5.0;14.0;0.14;0.45;-10.61;0.84;0.37;0.96
1753876674.500339;0.0;0.0;0.0;-2.03;0.91;-0.02;0.0;0.0;0.0;0.0;1.0;0.0;5.0;14.0;0.13;0.45;-10.6;0.86;0.22;0.84
1753876674.505339;0.0;0.0;0.0;-2.03;0.91;-0.02;0.0;0.0;0.0;0.0;1.0;0.0;5.0;14.0;0.13;0.45;-10.59;0.7;0.25;0.96
1753876674.510339;0.0;0.0;0.0;-2.03;0.91;-0.02;0.0;0.0;0.0;0.0;1.0;0.0;5.0;14.0;0.13;0.45;-10.59;0.77;0.44;0.86
1753876674.515339;0.0;0.0;0.0;-2.03;0.91;-0.02;0.0;0.0;0.0;0.0;1.0;0.0;5.0;14.0;0.13;0.45;-10.6;0.75;0.33;1.02
1753876674.520339;0.0;0.0;0.0;-2.03;0.91;-0.02;0.0;0.0;0.0;0.0;1.0;0.0;5.0;14.0;0.13;0.45;-10.6;0.74;0.32;0.82
1753876674.525339;0.0;0.0;0.0;-2.03;0.91;-0.02;0.0;0.0;0.0;0.0;1.0;0.0;5.0;14.0;0.13;0.45;-10.6;0.77;0.28;0.78
1753876674.530339;0.0;0.0;0.0;-2.03;0.91;-0.02;0.0;0.0;0.0;0.0;1.0;0.0;5.0;14.0;0.13;0.45;-10.6;0.66;0.3;0.93
1753876674.535339;0.0;0.0;0.0;-2.03;0.91;-0.02;0.0;0.0;0.0;0.0;1.0;0.0;5.0;14.0;0.12;0.46;-10.6;0.75;0.28;0.87
1753876674.540339;0.0;0.0;0.0;-2.03;0.91;-0.02;0.0;0.0;0.0;0.0;1.0;0.0;5.0;14.0;0.12;0.46;-10.6;0.65;0.28;0.99
1753876674.545339;0.0;0.0;0.0;-2.03;0.91;-0.02;0.0;0.0;0.0;0.0;1.0;0.0;5.0;14.0;0.12;0.45;-10.61;0.77;0.25;0.86
1753876674.550339;0.0;0.0;0.0;-2.03;0.91;-0.02;0.0;0.0;0.0;0.0;1.0;0.0;5.0;14.0;0.12;0.45;-10.61;0.68;0.35;0.88
1753876674.555339;0.0;0.0;0.0;-2.03;0.91;-0.02;0.0;0.0;0.0;0.0;1.0;0.0;5.0;14.0;0.12;0.45;-10.61;0.86;0.28;0.9
1753876674.560339;0.0;0.0;0.0;-2.03;0.91;-0.02;0.0;0.0;0.0;0.0;1.0;0.0;5.0;14.0;0.12;0.45;-10.62;0.79;0.32;0.92
1753876674.565339;0.0;0.0;0.0;-2.03;0.91;-0.02;0.0;0.0;0.0;0.0;1.0;0.0;5.0;14.0;0.12;0.44;-10.61;0.81;0.19;0.97
1753876674.570339;0.0;0.0;0.0;-2.03;0.91;-0.02;0.0;0.0;0.0;0.0;1.0;0.0;5.0;14.0;0.11;0.45;-10.61;0.86;0.32;1.06
1753876674.575339;0.0;0.0;0.0;-2.03;0.91;-0.02;0.0;0.0;0.0;0.0;1.0;0.0;5.0;14.0;0.12;0.45;-10.61;0.78;0.41;1.06
1753876674.580339;0.0;0.0;0.0;-2.03;0.91;-0.02;0.0;0.0;0.0;0.0;1.0;0.0;5.0;14.0;0.12;0.45;-10.61;0.72;0.39;0.9
1753876674.585339;0.0;0.0;0.0;-2.03;0.91;-0.02;0.0;0.0;0.0;0.0;1.0;0.0;5.0;14.0;0.12;0.44;-10.62;0.73;0.48;1.08
1753876674.590339;0.0;0.0;0.0;-2.03;0.91;-0.02;0.0;0.0;0.0;0.0;1.0;0.0;5.0;14.0;0.12;0.44;-10.61;0.64;0.27;0.99
1753876674.595339;0.0;0.0;0.0;-2.03;0.91;-0.02;0.0;0.0;0.0;0.0;1.0;0.0;5.0;14.0;0.12;0.44;-10.61;0.64;0.36;0.89
1753876674.600339;0.0;0.0;0.0;-2.03;0.91;-0.02;0.0;0.0;0.0;0.0;1.0;0.0;5.0;14.0;0.12;0.45;-10.62;0.71;0.29;0.98
1753876674.605339;0.0;0.0;0.0;-2.03;0.91;-0.02;0.0;0.0;0.0;0.0;1.0;0.0;5.0;14.0;0.12;0.44;-10.62;0.91;0.42;0.89
1753876674.610339;0.0;0.0;0.0;-2.03;0.91;-0.02;0.0;0.0;0.0;0.0;1.0;0.0;5.0;14.0;0.13;0.44;-10.61;0.77;0.38;0.9
1753876674.615339;0.0;0.0;0.0;-2.03;0.91;-0.02;0.0;0.0;0.0;0.0;1.0;0.0;5.0;14.0;0.14;0.44;-10.6;0.79;0.24;1.01
1753876674.620339;0.0;0.0;0.0;-2.03;0.91;-0.02;0.0;0.0;0.0;0.0;1.0;0.0;5.0;14.0;0.13;0.45;-10.6;0.67;0.24;1.0
1753876674.625339;0.0;0.0;0.0;-2.03;0.91;-0.02;0.0;0.0;0.0;0.0;1.0;0.0;5.0;14.0;0.14;0.44;-10.61;0.73;0.28;0.89
1753876674.630339;0.0;0.0;0.0;-2.03;0.91;-0.02;0.0;0.0;0.0;0.0;1.0;0.0;5.0;14.0;0.14;0.44;-10.61;0.64;0.3;0.99
1753876674.635339;0.0;0.0;0.0;-2.03;0.91;-0.02;0.0;0.0;0.0;0.0;1.0;0.0;5.0;14.0;0.15;0.45;-10.6;0.61;0.34;0.99
1753876674.640339;0.0;0.0;0.0;-2.03;0.91;-0.02;0.0;0.0;0.0;0.0;1.0;0.0;5.0;14.0;0.13;0.45;-10.61;0.64;0.32;0.99
1753876674.64534;0.0;0.0;0.0;-2.03;0.91;-0.02;0.0;0.0;0.0;0.0;1.0;0.0;5.0;14.0;0.13;0.43;-10.61;0.6;0.3;0.92
1753876674.65034;0.0;0.0;0.0;-2.03;0.91;-0.02;0.0;0.0;0.0;0.0;1.0;0.0;5.0;14.0;0.14;0.45;-10.61;0.82;0.25;1.01
1753876674.65534;0.0;0.0;0.0;-2.03;0.91;-0.02;0.0;0.0;0.0;0.0;1.0;0.0;5.0;14.0;0.14;0.44;-10.63;0.72;0.37;0.93
1753876674.66034;0.0;0.0;0.0;-2.03;0.91;-0.02;0.0;0.0;0.0;0.0;1.0;0.0;5.0;14.0;0.15;0.44;-10.62;0.61;0.3;0.91
1753876674.66534;0.0;0.0;0.0;-2.03;0.91;-0.02;0.0;0.0;0.0;0.0;1.0;0.0;5.0;14.0;0.14;0.44;-10.6;0.56;0.3;1.0
1753876674.67034;0.0;0.0;0.0;-2.03;0.91;-0.02;0.0;0.0;0.0;0.0;1.0;0.0;5.0;14.0;0.14;0.45;-10.61;0.67;0.35;1.04
1753876674.67534;0.0;0.0;0.0;-2.03;0.91;-0.02;0.0;0.0;0.0;0.0;1.0;0.0;5.0;14.0;0.14;0.45;-10.62;0.71;0.3;0.95
1753876674.68034;0.0;0.0;0.0;-2.03;0.91;-0.02;0.0;0.0;0.0;0.0;1.0;0.0;5.0;14.0;0.16;0.43;-10.61;0.8;0.19;0.98
1753876674.68534;0.0;0.0;0.0;-2.03;0.91;-0.02;0.0;0.0;0.0;0.0;1.0;0.0;5.0;14.0;0.15;0.44;-10.62;0.77;0.31;1.04
1753876674.69034;0.0;0.0;0.0;-2.03;0.91;-0.02;0.0;0.0;0.0;0.0;1.0;0.0;5.0;14.0;0.14;0.43;-10.62;0.68;0.38;0.96
1753876674.695341;0.0;0.0;0.0;-2.03;0.91;-0.02;0.0;0.0;0.0;0.0;1.0;0.0;5.0;14.0;0.14;0.43;-10.63;0.8;0.31;0.85
1753876674.700341;0.0;0.0;0.0;-2.03;0.91;-0.02;0.0;0.0;0.0;0.0;1.0;0.0;5.0;14.0;0.15;0.44;-10.62;0.86;0.37;0.92
1753876674.705341;0.0;0.0;0.0;-2.03;0.91;-0.02;0.0;0.0;0.0;0.0;1.0;0.0;5.0;14.0;0.15;0.45;-10.62;0.63;0.37;0.96
1753876674.710341;0.0;0.0;0.0;-2.03;0.91;-0.02;0.0;0.0;0.0;0.0;1.0;0.0;5.0;14.0;0.16;0.43;-10.62;0.9;0.21;0.96
1753876674.715341;0.0;0.0;0.0;-2.03;0.91;-0.02;0.0;0.0;0.0;0.0;1.0;0.0;5.0;14.0;0.15;0.43;-10.62;0.74;0.26;0.95
1753876674.720341;0.0;0.0;0.0;-2.03;0.91;-0.02;0.0;0.0;0.0;0.0;1.0;0.0;5.0;14.0;0.15;0.45;-10.63;0.85;0.37;1.1
1753876674.725341;0.0;0.0;0.0;-2.03;0.91;-0.02;0.0;0.0;0.0;0.0;1.0;0.0;5.0;14.0;0.14;0.45;-10.64;0.83;0.29;0.98
1753876674.730342;0.0;0.0;0.0;-2.03;0.91;-0.02;0.0;0.0;0.0;0.0;1.0;0.0;5.0;14.0;0.16;0.44;-10.63;0.62;0.4;0.94
1753876674.735342;0.0;0.0;0.0;-2.03;0.91;-0.02;0.0;0.0;0.0;0.0;1.0;0.0;5.0;14.0;0.16;0.44;-10.64;0.67;0.37;1.03
1753876674.740339;0.0;0.0;0.0;-2.03;0.91;-0.02;0.0;0.0;0.0;0.0;1.0;0.0;5.0;14.0;0.15;0.44;-10.63;0.8;0.34;1.0
1753876674.745339;0.0;0.0;0.0;-2.03;0.91;-0.02;0.0;0.0;0.0;0.0;1.0;0.0;5.0;14.0;0.14;0.45;-10.63;0.81;0.26;1.07
1753876674.750339;0.0;0.0;0.0;-2.03;0.91;-0.02;0.0;0.0;0.0;0.0;1.0;-0.0;5.0;10.7;0.14;0.44;-10.62;0.7;0.28;1.09
1753876674.75534;0.0;0.0;0.0;-2.03;0.91;-0.02;0.0;0.0;0.0;0.0;1.0;-0.1;5.0;11.5;0.15;0.45;-10.64;0.74;0.25;1.1
1753876674.76034;0.0;0.0;0.0;-2.03;0.91;-0.02;0.0;0.0;0.0;0.0;1.0;-0.2;5.0;15.7;0.14;0.45;-10.62;0.79;0.37;1.08
1753876674.76534;0.0;0.0;0.0;-2.03;0.91;-0.02;0.0;0.0;0.0;0.0;1.0;0.2;5.0;-4.1;0.12;0.46;-10.63;0.89;0.35;1.2
1753876674.77034;0.0;0.0;0.0;-2.03;0.91;-0.02;0.0;0.0;0.0;0.0;1.0;-0.1;5.0;11.3;0.14;0.46;-10.63;0.8;0.22;1.01
1753876674.77534;0.0;0.0;0.0;-2.03;0.91;-0.02;0.0;0.0;0.0;0.0;1.0;-0.3;5.0;6.1;0.13;0.45;-10.63;0.82;0.24;0.8
1753876674.78034;0.0;0.0;0.0;-2.03;0.91;-0.02;0.0;0.0;0.0;0.0;1.0;-0.4;5.0;6.2;0.14;0.45;-10.63;0.73;0.24;1.07
1753876674.78534;0.0;0.0;0.0;-2.03;0.91;-0.02;0.0;0.0;0.0;0.0;1.0;-0.2;5.0;7.0;0.14;0.45;-10.65;0.7;0.23;1.07
1753876674.79034;0.0;0.0;0.0;-2.03;0.91;-0.02;0.0;0.0;0.0;0.0;1.0;-0.3;5.0;7.7;0.15;0.45;-10.64;0.64;0.4;0.97
1753876674.79534;0.0;0.0;0.0;-2.03;0.91;-0.02;0.0;0.0;0.0;0.0;1.0;-0.1;5.0;7.7;0.12;0.45;-10.62;0.73;0.39;1.04
1753876674.80034;0.0;0.0;0.0;-2.03;0.91;-0.02;0.0;0.0;0.0;0.0;1.0;-0.5;5.0;17.1;0.14;0.44;-10.63;0.77;0.24;0.94
1753876674.80534;0.0;0.0;0.0;-2.03;0.91;-0.02;0.0;0.0;0.0;0.0;1.0;-0.8;5.0;7.5;0.13;0.45;-10.63;0.76;0.26;1.1
1753876674.810341;0.0;0.0;0.0;-2.03;0.91;-0.02;0.0;0.0;0.0;0.0;1.0;-0.4;5.0;-4.8;0.13;0.45;-10.62;0.75;0.08;0.93
1753876674.815341;0.0;0.0;0.0;-2.03;0.91;-0.02;0.0;0.0;0.0;0.0;1.0;-0.8;5.0;0.4;0.14;0.45;-10.64;0.81;0.39;1.04
1753876674.820341;0.0;0.0;0.0;-2.03;0.91;-0.02;0.0;0.0;0.0;0.0;1.0;-0.7;5.0;3.0;0.14;0.44;-10.65;0.78;0.36;1.0
1753876674.825341;0.0;0.0;0.0;-2.03;0.91;-0.02;0.0;0.0;0.0;0.0;1.0;-0.7;5.0;2.9;0.15;0.45;-10.64;0.74;0.23;1.05
1753876674.830341;0.0;0.0;0.0;-2.03;0.91;-0.02;0.0;0.0;0.0;0.0;1.0;0.1;5.0;2.3;0.15;0.45;-10.64;0.71;0.33;0.99
1753876674.835341;0.0;0.0;0.0;-2.03;0.91;-0.02;0.0;0.0;0.0;0.0;1.0;-1.1;5.0;4.2;0.15;0.44;-10.64;0.69;0.36;0.98
1753876674.840341;0.0;0.0;0.0;-2.03;0.91;-0.02;0.0;0.0;0.0;0.0;1.0;-0.8;5.0;-6.6;0.14;0.44;-10.63;0.8;0.36;1.07
1753876674.845342;0.0;0.0;0.0;-2.03;0.91;-0.02;0.0;0.0;0.0;0.0;1.0;-0.3;5.0;1.7;0.13;0.44;-10.62;0.69;0.31;1.02
1753876674.850342;0.0;0.0;0.0;-2.03;0.91;-0.02;0.0;0.0;0.0;0.0;1.0;-0.2;5.0;6.5;0.12;0.45;-10.62;0.64;0.33;0.96
1753876674.855342;0.0;0.0;0.0;-2.03;0.91;-0.02;0.0;0.0;0.0;0.0;1.0;-0.4;5.0;5.0;0.13;0.45;-10.65;0.79;0.22;1.03
1753876674.860342;0.0;0.0;0.0;-2.03;0.91;-0.02;0.0;0.0;0.0;0.0;1.0;-0.9;5.0;1.3;0.14;0.44;-10.64;0.78;0.18;0.96
1753876674.865342;0.0;0.0;0.0;-2.03;0.91;-0.02;0.0;0.0;0.0;0.0;1.0;-0.6;5.0;-5.5;0.13;0.44;-10.64;0.61;0.33;0.7
1753876674.870342;0.0;0.0;0.0;-2.03;0.91;-0.02;0.0;0.0;0.0;0.0;1.0;-0.7;5.0;-14.3;0.15;0.44;-10.63;0.86;0.45;0.83
1753876674.875342;0.0;0.0;0.0;-2.03;0.91;-0.02;0.0;0.0;0.0;0.0;1.0;-0.5;5.0;6.0;0.14;0.44;-10.65;0.8;0.42;0.92
1753876674.880342;0.0;0.0;0.0;-2.03;0.91;-0.02;0.0;0.0;0.0;0.0;1.0;-0.7;5.0;-18.0;0.13;0.45;-10.63;0.77;0.39;0.89
1753876674.885342;0.0;0.0;0.0;-2.03;0.91;-0.02;0.0;0.0;0.0;0.0;1.0;-0.5;5.0;4.0;0.14;0.44;-10.63;0.85;0.42;0.91
1753876674.890342;0.0;0.0;0.0;-2.03;0.91;-0.02;0.0;0.0;0.0;0.0;1.0;-0.6;5.0;-8.9;0.14;0.44;-10.64;0.61;0.33;0.91
1753876674.895342;0.0;0.0;0.0;-2.03;0.91;-0.02;0.0;0.0;0.0;0.0;1.0;-0.8;5.0;-10.9;0.16;0.44;-10.65;0.76;0.44;1.01
1753876674.900343;0.0;0.0;0.0;-2.03;0.91;-0.02;0.0;0.0;0.0;0.0;1.0;-1.3;5.0;-11.7;0.14;0.44;-10.63;0.82;0.37;0.98
1753876674.905343;0.0;0.0;0.0;-2.03;0.91;-0.02;0.0;0.0;0.0;0.0;1.0;-0.7;5.0;-18.0;0.14;0.44;-10.63;0.76;0.37;0.82
1753876674.910343;0.0;0.0;0.0;-2.03;0.91;-0.02;0.0;0.0;0.0;0.0;1.0;-1.2;5.0;-12.7;0.13;0.44;-10.65;0.62;0.34;0.82
1753876674.915343;0.0;0.0;0.0;-2.03;0.91;-0.02;0.0;0.0;0.0;0.0;1.0;-0.9;5.0;-16.7;0.13;0.44;-10.63;0.62;0.38;0.83
1753876674.920343;0.0;0.0;0.0;-2.03;0.91;-0.02;0.0;0.0;0.0;0.0;1.0;-1.0;5.0;-6.3;0.14;0.44;-10.62;0.81;0.27;0.87
1753876674.925339;0.0;0.0;0.0;-2.03;0.91;-0.02;0.0;0.0;0.0;0.0;1.0;-1.0;5.0;-13.0;0.14;0.44;-10.64;0.72;0.4;0.9
1753876674.930339;0.0;0.0;0.0;-2.03;0.91;-0.02;0.0;0.0;0.0;0.0;1.0;-1.0;5.0;-13.0;0.14;0.45;-10.64;0.75;0.32;0.97
1753876674.935339;0.0;0.0;0.0;-2.03;0.91;-0.02;0.0;0.0;0.0;0.0;1.0;-1.0;5.0;-13.0;0.13;0.44;-10.64;0.82;0.25;0.75
1753876674.940339;0.0;0.0;0.0;-2.03;0.91;-0.02;0.0;0.0;0.0;0.0;1.0;-1.0;5.0;-13.0;0.14;0.45;-10.63;0.89;0.34;0.83
1753876674.945339;0.0;0.0;0.0;-2.03;0.91;-0.02;0.0;0.0;0.0;0.0;1.0;-1.0;5.0;-13.0;0.14;0.45;-10.63;0.69;0.25;1.02
1753876674.950339;0.0;0.0;0.0;-2.03;0.91;-0.02;0.0;0.0;0.0;0.0;1.0;-1.0;5.0;-13.0;0.14;0.45;-10.63;0.72;0.27;0.89
1753876674.955339;0.0;0.0;0.0;-2.03;0.91;-0.02;0.0;0.0;0.0;0.0;1.0;-1.0;5.0;-13.0;0.14;0.45;-10.63;0.74;0.24;0.92
1753876674.960339;0.0;0.0;0.0;-2.03;0.91;-0.02;0.0;0.0;0.0;0.0;1.0;-1.0;5.0;-13.0;0.14;0.45;-10.63;0.77;0.41;0.99
1753876674.965339;0.0;0.0;0.0;-2.03;0.91;-0.02;0.0;0.0;0.0;0.0;1.0;-1.0;5.0;-13.0;0.14;0.45;-10.63;0.74;0.29;1.02
1753876674.970339;0.0;0.0;0.0;-2.03;0.91;-0.02;0.0;0.0;0.0;0.0;1.0;-0.9;5.0;-6.5;0.14;0.45;-10.63;0.75;0.3;1.0
1753876674.975339;0.0;0.0;0.0;-2.03;0.91;-0.02;0.0;0.0;0.0;0.0;1.0;-1.0;5.0;-13.0;0.13;0.45;-10.63;0.76;0.26;0.98
1753876674.980339;0.0;0.0;0.0;-2.03;0.91;-0.02;0.0;0.0;0.0;0.0;1.0;-1.0;5.0;-13.0;0.14;0.45;-10.64;0.84;0.35;0.9
1753876674.985339;0.0;0.0;0.0;-2.03;0.91;-0.02;0.0;0.0;0.0;0.0;1.0;-1.0;5.0;-13.0;0.14;0.45;-10.64;0.86;0.41;0.87
1753876674.990339;0.0;0.0;0.0;-2.03;0.91;-0.02;0.0;0.0;0.0;0.0;1.0;-1.0;5.0;-13.0;0.14;0.45;-10.63;0.79;0.19;1.02
1753876674.995339;0.0;0.0;0.0;-2.03;0.91;-0.02;0.0;0.0;0.0;0.0;1.0;-1.0;5.0;-13.0;0.14;0.45;-10.63;0.74;0.22;0.88
1753876675.000339;0.0;0.0;0.0;-2.03;0.91;-0.02;0.0;0.0;0.0;0.0;1.0;-1.0;5.0;-13.0;0.13;0.45;-10.63;0.73;0.38;1.11
1753876675.005339;0.0;0.0;0.0;-2.03;0.91;-0.02;0.0;0.0;0.0;0.0;1.0;-1.0;5.0;-13.0;0.14;0.45;-10.63;0.74;0.33;1.04
1753876675.010339;0.0;0.0;0.0;-2.03;0.91;-0.02;0.0;0.0;0.0;0.0;1.0;-1.0;5.0;-13.0;0.13;0.45;-10.63;0.71;0.43;0.9
1753876675.015339;0.0;0.0;0.0;-2.03;0.91;-0.02;0.0;0.0;0.0;0.0;1.0;-1.0;5.0;-13.0;0.13;0.44;-10.63;0.76;0.32;1.03
1753876675.020339;0.0;0.0;0.0;-2.03;0.91;-0.02;0.0;0.0;0.0;0.0;1.0;-1.0;5.0;-1.9;0.14;0.44;-10.64;0.7;0.52;1.06
1753876675.025339;0.0;0.0;0.0;-2.03;0.91;-0.02;0.0;0.0;0.0;0.0;1.0;-0.7;5.0;-11.0;0.13;0.45;-10.63;0.68;0.33;1.1
1753876675.03034;0.0;0.0;0.0;-2.03;0.91;-0.02;0.0;0.0;0.0;0.0;1.0;-1.2;5.0;-10.7;0.13;0.44;-10.63;0.78;0.26;0.98
1753876675.03534;0.0;0.0;0.0;-2.03;0.91;-0.02;0.0;0.0;0.0;0.0;1.0;-1.1;5.0;1.4;0.13;0.44;-10.62;0.8;0.28;1.03
1753876675.04034;0.0;0.0;0.0;-2.03;0.91;-0.02;0.0;0.0;0.0;0.0;1.0;-1.2;5.0;-5.2;0.14;0.44;-10.63;0.78;0.33;1.03
1753876675.04534;0.0;0.0;0.0;-2.03;0.91;-0.02;0.0;0.0;0.0;0.0;1.0;-0.8;5.0;-11.3;0.14;0.44;-10.63;0.82;0.28;0.98
1753876675.05034;0.0;0.0;0.0;-2.03;0.91;-0.02;0.0;0.0;0.0;0.0;1.0;-1.1;5.0;-9.0;0.14;0.44;-10.62;0.9;0.39;0.92
1753876675.05534;0.0;0.0;0.0;-2.03;0.91;-0.02;0.0;0.0;0.0;0.0;1.0;-0.9;5.0;-15.6;0.15;0.44;-10.63;0.83;0.3;1.08
1753876675.06034;0.0;0.0;0.0;-2.03;0.91;-0.02;0.0;0.0;0.0;0.0;1.0;-1.0;5.0;-11.8;0.14;0.44;-10.63;0.82;0.22;0.81
1753876675.06534;0.0;0.0;0.0;-2.03;0.91;-0.02;0.0;0.0;0.0;0.0;1.0;-1.1;5.0;-22.2;0.14;0.43;-10.63;0.88;0.28;0.88
1753876675.07034;0.0;0.0;0.0;-2.03;0.91;-0.02;0.0;0.0;0.0;0.0;1.0;-1.1;5.0;-10.5;0.14;0.44;-10.63;0.79;0.41;0.92
1753876675.07534;0.0;0.0;0.0;-2.03;0.91;-0.02;0.0;0.0;0.0;0.0;1.0;-0.7;5.0;-5.5;0.14;0.44;-10.63;0.82;0.4;0.94
1753876675.08034;0.0;0.0;0.0;-2.03;0.91;-0.02;0.0;0.0;0.0;0.0;1.0;-0.7;5.0;-15.3;0.14;0.45;-10.63;0.85;0.33;0.94
1753876675.085341;0.0;0.0;0.0;-2.03;0.91;-0.02;0.0;0.0;0.0;0.0;1.0;-1.2;5.0;-5.9;0.14;0.44;-10.63;0.88;0.26;0.91
1753876675.090341;0.0;0.0;0.0;-2.03;0.91;-0.02;0.0;0.0;0.0;0.0;1.0;-1.2;5.0;-17.6;0.15;0.44;-10.62;0.77;0.26;0.67
1753876675.095341;0.0;0.0;0.0;-2.03;0.91;-0.02;0.0;0.0;0.0;0.0;1.0;-1.0;5.0;0.4;0.15;0.44;-10.63;0.91;0.4;0.82
1753876675.100341;0.0;0.0;0.0;-2.03;0.91;-0.02;0.0;0.0;0.0;0.0;1.0;-0.9;5.0;-21.4;0.14;0.44;-10.63;0.89;0.3;0.9
1753876675.105341;0.0;0.0;0.0;-2.03;0.91;-0.02;0.0;0.0;0.0;0.0;1.0;-1.1;5.0;-9.0;0.15;0.44;-10.63;0.95;0.31;0.81
1753876675.110341;0.0;0.0;0.0;-2.03;0.91;-0.02;0.0;0.0;0.0;0.0;1.0;-1.1;5.0;-4.9;0.14;0.44;-10.62;0.92;0.43;0.91
1753876675.115339;0.0;0.0;0.0;-2.03;0.91;-0.02;0.0;0.0;0.0;0.0;1.0;-1.0;5.0;-13.0;0.15;0.44;-10.63;0.9;0.32;0.85
1753876675.120339;0.0;0.0;0.0;-2.03;0.91;-0.02;0.0;0.0;0.0;0.0;1.0;-1.0;5.0;-13.0;0.15;0.44;-10.62;0.78;0.3;0.9
1753876675.125339;0.0;0.0;0.0;-2.03;0.91;-0.02;0.0;0.0;0.0;0.0;1.0;-1.0;5.0;-13.0;0.14;0.44;-10.62;0.86;0.29;0.93
1753876675.130339;0.0;0.0;0.0;-2.03;0.91;-0.02;0.0;0.0;0.0;0.0;1.0;-1.0;5.0;-13.0;0.15;0.43;-10.62;0.85;0.28;1.08
1753876675.135339;0.0;0.0;0.0;-2.03;0.91;-0.02;0.0;0.0;0.0;0.0;1.0;-1.0;5.0;-13.0;0.15;0.44;-10.62;0.88;0.21;0.93
1753876675.140339;0.0;0.0;0.0;-2.03;0.91;-0.02;0.0;0.0;0.0;0.0;1.0;-1.0;5.0;-13.0;0.15;0.44;-10.62;0.75;0.23;1.1
1753876675.145339;0.0;0.0;0.0;-2.03;0.91;-0.02;0.0;0.0;0.0;0.0;1.0;-1.0;5.0;-13.0;0.15;0.44;-10.62;0.82;0.34;0.86
1753876675.150339;0.0;0.0;0.0;-2.03;0.91;-0.02;0.0;0.0;0.0;0.0;1.0;-1.0;5.0;-13.0;0.15;0.45;-10.62;0.84;0.38;0.93
1753876675.155339;0.0;0.0;0.0;-2.03;0.91;-0.02;0.0;0.0;0.0;0.0;1.0;-1.0;5.0;-13.0;0.15;0.45;-10.62;0.88;0.25;1.02
1753876675.160339;0.0;0.0;0.0;-2.03;0.91;-0.02;0.0;0.0;0.0;0.0;1.0;-1.0;5.0;-13.0;0.15;0.44;-10.61;0.87;0.16;0.93
1753876675.165339;0.0;0.0;0.0;-2.03;0.91;-0.02;0.0;0.0;0.0;0.0;1.0;-1.0;5.0;-13.0;0.15;0.44;-10.62;0.72;0.24;0.97
1753876675.170339;0.0;0.0;0.0;-2.03;0.91;-0.02;0.0;0.0;0.0;0.0;1.0;-1.0;5.0;-13.0;0.16;0.44;-10.62;0.83;0.16;1.01
1753876675.175339;0.0;0.0;0.0;-2.03;0.91;-0.02;0.0;0.0;0.0;0.0;1.0;-1.0;5.0;-13.0;0.16;0.44;-10.61;0.9;0.13;0.95
1753876675.180339;0.0;0.0;0.0;-2.03;0.91;-0.02;0.0;0.0;0.0;0.0;1.0;-1.0;5.0;-13.0;0.16;0.44;-10.6;0.77;0.25;0.96
1753876675.185339;0.0;0.0;0.0;-2.03;0.91;-0.02;0.0;0.0;0.0;0.0;1.0;-1.0;5.0;-13.0;0.16;0.44;-10.6;0.73;0.19;0.93
1753876675.190339;0.0;0.0;0.0;-2.03;0.91;-0.02;0.0;0.0;0.0;0.0;1.0;-1.0;5.0;-13.0;0.16;0.44;-10.6;0.8;0.25;0.81
1753876675.195339;0.0;0.0;0.0;-2.03;0.91;-0.02;0.0;0.0;0.0;0.0;1.0;-1.0;5.0;-13.0;0.16;0.44;-10.6;0.79;0.17;0.89
1753876675.200339;0.0;0.0;0.0;-2.03;0.91;-0.02;0.0;0.0;0.0;0.0;1.0;-1.0;5.0;-13.0;0.16;0.44;-10.61;0.74;0.32;0.87
1753876675.205339;0.0;0.0;0.0;-2.03;0.91;-0.02;0.0;0.0;0.0;0.0;1.0;-1.0;5.0;-13.0;0.16;0.44;-10.6;0.74;0.32;0.76
1753876675.210339;0.0;0.0;0.0;-2.03;0.91;-0.02;0.0;0.0;0.0;0.0;1.0;-1.0;5.0;-13.0;0.16;0.44;-10.61;0.66;0.33;0.95
1753876675.215339;0.0;0.0;0.0;-2.03;0.91;-0.02;0.0;0.0;0.0;0.0;1.0;-1.0;5.0;-13.0;0.14;0.44;-10.6;0.84;0.35;0.94
1753876675.220339;0.0;0.0;0.0;-2.03;0.91;-0.02;0.0;0.0;0.0;0.0;1.0;-1.0;5.0;-13.0;0.15;0.45;-10.61;0.88;0.29;1.02
1753876675.225339;0.0;0.0;0.0;-2.03;0.91;-0.02;0.0;0.0;0.0;0.0;1.0;-1.0;5.0;-13.0;0.15;0.45;-10.6;0.88;0.33;0.99
1753876675.230339;0.0;0.0;0.0;-2.03;0.91;-0.02;0.0;0.0;0.0;0.0;1.0;-1.0;5.0;-13.0;0.14;0.44;-10.61;0.86;0.31;0.97
1753876675.235339;0.0;0.0;0.0;-2.03;0.91;-0.02;0.0;0.0;0.0;0.0;1.0;-1.0;5.0;-13.0;0.14;0.45;-10.61;0.81;0.25;0.93
1753876675.240339;0.0;0.0;0.0;-2.03;0.91;-0.02;0.0;0.0;0.0;0.0;1.0;-1.0;5.0;-13.0;0.14;0.44;-10.62;0.74;0.19;0.9
1753876675.245339;0.0;0.0;0.0;-2.03;0.91;-0.02;0.0;0.0;0.0;0.0;1.0;-1.0;5.0;-13.0;0.14;0.44;-10.62;0.77;0.22;1.02
1753876675.250339;0.0;0.0;0.0;-2.03;0.91;-0.02;0.0;0.0;0.0;0.0;1.0;-1.0;5.0;-13.0;0.14;0.45;-10.63;0.72;0.26;0.93
1753876675.255339;0.0;0.0;0.0;-2.03;0.91;-0.02;0.0;0.0;0.0;0.0;1.0;-1.0;5.0;-13.0;0.14;0.45;-10.63;0.76;0.33;1.02
1753876675.260339;0.0;0.0;0.0;-2.03;0.91;-0.02;0.0;0.0;0.0;0.0;1.0;-1.0;5.0;-13.0;0.14;0.45;-10.63;0.74;0.29;0.89
1753876675.265339;0.0;0.0;0.0;-2.03;0.91;-0.02;0.0;0.0;0.0;0.0;1.0;-1.0;5.0;-13.0;0.15;0.45;-10.63;0.8;0.54;0.97
1753876675.270339;0.0;0.0;0.0;-2.03;0.91;-0.02;0.0;0.0;0.0;0.0;1.0;-1.0;5.0;-13.0;0.15;0.45;-10.63;0.83;0.41;1.01
1753876675.275339;0.0;0.0;0.0;-2.03;0.91;-0.02;0.0;0.0;0.0;0.0;1.0;-1.0;5.0;-13.0;0.15;0.45;-10.64;0.7;0.26;0.93
1753876675.280339;0.0;0.0;0.0;-2.03;0.91;-0.02;0.0;0.0;0.0;0.0;1.0;-1.0;5.0;-13.0;0.15;0.45;-10.65;0.77;0.21;1.08
1753876675.285339;0.0;0.0;0.0;-2.03;0.91;-0.02;0.0;0.0;0.0;0.0;1.0;-1.0;5.0;-13.0;0.15;0.45;-10.65;0.83;0.22;0.8
1753876675.290339;0.0;0.0;0.0;-2.03;0.91;-0.02;0.0;0.0;0.0;0.0;1.0;-1.0;5.0;-13.0;0.15;0.45;-10.65;0.74;0.3;0.86
1753876675.295339;0.0;0.0;0.0;-2.03;0.91;-0.02;0.0;0.0;0.0;0.0;1.0;-1.0;5.0;-13.0;0.15;0.45;-10.65;0.67;0.38;0.87
1753876675.300339;0.0;0.0;0.0;-2.03;0.91;-0.02;0.0;0.0;0.0;0.0;1.0;-1.0;5.0;-13.0;0.15;0.45;-10.65;0.83;0.19;0.94
1753876675.305339;0.0;0.0;0.0;-2.03;0.91;-0.02;0.0;0.0;0.0;0.0;1.0;-1.0;5.0;-13.0;0.15;0.45;-10.65;0.85;0.26;0.87
1753876675.310339;0.0;0.0;0.0;-2.03;0.91;-0.02;0.0;0.0;0.0;0.0;1.0;-1.0;5.0;-13.0;0.15;0.46;-10.64;0.72;0.3;0.92
1753876675.315339;0.0;0.0;0.0;-2.03;0.91;-0.02;0.0;0.0;0.0;0.0;1.0;-1.0;5.0;-13.0;0.15;0.45;-10.63;0.75;0.14;0.88
1753876675.320339;0.0;0.0;0.0;-2.03;0.91;-0.02;0.0;0.0;0.0;0.0;1.0;-1.0;5.0;-13.0;0.14;0.45;-10.63;0.86;0.37;0.85
1753876675.325339;0.0;0.0;0.0;-2.03;0.91;-0.02;0.0;0.0;0.0;0.0;1.0;-1.0;5.0;-13.0;0.14;0.46;-10.62;0.8;0.32;1.05
1753876675.330339;0.0;0.0;0.0;-2.03;0.91;-0.02;0.0;0.0;0.0;0.0;1.0;-1.0;5.0;-13.0;0.14;0.45;-10.62;0.7;0.3;0.99
1753876675.335339;0.0;0.0;0.0;-2.03;0.91;-0.02;0.0;0.0;0.0;0.0;0.8;-2.4;6.2;-13.0;0.13;0.46;-10.59;0.72;0.36;1.09
1753876675.34034;0.0;0.0;0.0;-2.03;0.91;-0.02;0.0;0.0;0.0;0.0;1.3;-2.1;4.8;-18.1;0.15;0.45;-10.63;0.67;0.15;1.09
1753876675.34534;0.0;0.0;0.0;-2.03;0.91;-0.02;0.0;0.0;0.0;0.0;0.9;0.2;6.5;-15.3;0.14;0.45;-10.61;0.67;0.23;1.0
1753876675.35034;0.0;0.0;0.0;-2.03;0.91;-0.02;0.0;0.0;0.0;0.0;1.1;0.5;5.7;-12.4;0.14;0.45;-10.65;0.82;0.38;0.91
1753876675.35534;0.0;0.0;0.0;-2.03;0.92;-0.02;0.0;0.0;0.0;0.0;1.0;2.8;6.3;-4.0;0.13;0.44;-10.64;0.78;0.22;1.01
1753876675.36034;0.0;0.0;0.0;-2.03;0.91;-0.02;0.0;0.0;0.0;0.0;0.4;0.5;5.5;-16.5;0.14;0.44;-10.6;0.75;0.32;1.0
1753876675.36534;0.0;0.0;0.0;-2.03;0.92;-0.02;0.0;0.0;0.0;0.0;0.6;1.7;6.7;1.7;0.14;0.45;-10.63;0.69;0.28;0.96
1753876675.37034;0.0;0.0;0.0;-2.03;0.93;-0.02;0.0;0.0;0.0;0.0;0.6;-2.9;6.1;-11.4;0.14;0.45;-10.63;0.73;0.36;0.99
1753876675.37534;0.0;0.0;0.0;-2.03;0.92;-0.02;0.0;0.0;0.0;0.0;0.4;1.1;5.4;0.2;0.13;0.45;-10.62;0.75;0.32;1.0
1753876675.38034;0.0;0.0;0.0;-2.03;0.91;-0.02;0.0;0.0;0.0;0.0;0.6;-2.1;5.4;-0.4;0.13;0.45;-10.62;0.68;0.38;0.93
1753876675.38534;0.0;0.0;0.0;-2.03;0.92;-0.02;0.0;0.0;0.0;0.0;1.1;5.6;6.3;2.1;0.14;0.45;-10.6;0.75;0.38;0.95
1753876675.39034;0.0;0.0;0.0;-2.03;0.92;-0.02;0.0;0.0;0.0;0.0;0.6;3.3;6.4;-1.5;0.14;0.44;-10.61;0.82;0.23;0.95
1753876675.395341;0.0;0.0;0.0;-2.03;0.92;-0.02;0.0;0.0;0.0;0.0;0.3;3.0;6.2;-5.9;0.13;0.45;-10.63;0.74;0.3;0.91
1753876675.400341;0.0;0.0;0.0;-2.03;0.92;-0.02;0.0;0.0;0.0;0.0;0.7;0.1;6.6;-6.0;0.13;0.44;-10.61;0.75;0.28;1.01
1753876675.405341;0.0;0.0;0.0;-2.03;0.93;-0.02;0.0;0.0;0.0;0.0;0.6;1.7;7.9;1.5;0.14;0.44;-10.6;0.88;0.2;0.98
1753876675.410341;0.0;0.0;0.0;-2.03;0.91;-0.02;0.0;0.0;0.0;0.0;0.4;6.4;7.8;-6.8;0.13;0.44;-10.61;0.82;0.46;0.95
1753876675.415341;0.0;0.0;0.0;-2.03;0.92;-0.02;0.0;0.0;0.0;0.0;0.7;4.5;7.4;8.3;0.13;0.44;-10.6;0.74;0.34;1.0
1753876675.420341;0.0;0.0;0.0;-2.03;0.92;-0.02;0.0;0.0;0.0;0.0;0.6;1.5;7.5;2.4;0.13;0.44;-10.61;0.78;0.39;0.93
1753876675.425341;0.0;0.0;0.0;-2.03;0.92;-0.02;0.0;0.0;0.0;0.0;0.6;4.8;6.9;-3.5;0.14;0.44;-10.62;0.8;0.27;0.99
1753876675.430342;0.0;0.0;0.0;-2.03;0.93;-0.02;0.0;0.0;0.0;0.0;0.8;2.3;7.5;0.2;0.13;0.44;-10.61;0.83;0.37;0.91
1753876675.435342;0.0;0.0;0.0;-2.03;0.92;-0.02;0.0;0.0;0.0;0.0;0.1;3.8;6.9;3.9;0.13;0.44;-10.62;0.83;0.29;0.98
1753876675.440342;0.0;0.0;0.0;-2.03;0.92;-0.02;0.0;0.0;0.0;0.0;0.5;4.2;7.5;11.5;0.13;0.43;-10.61;0.8;0.41;0.95
1753876675.445342;0.0;0.0;0.0;-2.03;0.92;-0.02;0.0;0.0;0.0;0.0;0.0;4.8;7.7;6.1;0.14;0.44;-10.6;0.87;0.36;1.11
1753876675.450342;0.0;0.0;0.0;-2.03;0.93;-0.02;0.0;0.0;0.0;0.0;-0.0;3.9;7.0;9.1;0.13;0.44;-10.61;0.65;0.4;0.92
1753876675.455342;0.0;0.0;0.0;-2.03;0.92;-0.02;0.0;0.0;0.0;0.0;0.5;4.4;7.7;5.4;0.13;0.43;-10.6;0.86;0.61;1.01
1753876675.460342;0.0;0.0;0.0;-2.03;0.92;-0.02;0.0;0.0;0.0;0.0;0.5;3.0;9.3;7.8;0.13;0.44;-10.61;0.73;0.33;0.9
1753876675.465342;0.0;0.0;0.0;-2.03;0.93;-0.02;0.0;0.0;0.0;0.0;0.6;1.2;8.3;10.7;0.14;0.44;-10.62;0.86;0.37;0.96
1753876675.470342;0.0;0.0;0.0;-2.03;0.93;-0.02;0.0;0.0;0.0;0.0;0.5;4.2;8.4;11.5;0.14;0.44;-10.6;0.86;0.35;0.95
1753876675.475342;0.0;0.0;0.0;-2.03;0.94;-0.02;0.0;0.0;0.0;0.0;0.4;3.2;8.8;14.7;0.11;0.42;-10.6;0.81;0.38;0.9
1753876675.480343;0.0;0.0;0.0;-2.03;0.93;-0.02;0.0;0.0;0.0;0.0;0.4;7.9;6.9;10.1;0.13;0.43;-10.6;0.73;0.28;0.92
1753876675.485343;0.0;0.0;0.0;-2.03;0.93;-0.02;0.0;0.0;0.0;0.0;0.1;4.2;8.1;27.7;0.14;0.42;-10.59;0.75;0.31;1.09
1753876675.490343;0.0;0.0;0.0;-2.03;0.92;-0.02;0.0;0.0;0.0;0.0;0.2;4.0;8.8;6.6;0.13;0.43;-10.58;0.82;0.37;0.95
1753876675.495343;0.0;0.0;0.0;-2.03;0.93;-0.02;0.0;0.0;0.0;0.0;0.2;7.2;8.8;1.8;0.12;0.42;-10.62;0.78;0.21;0.81
1753876675.500343;0.0;0.0;0.0;-2.03;0.92;-0.02;0.0;0.0;0.0;0.0;-0.1;10.4;9.3;9.3;0.13;0.43;-10.59;0.87;0.37;0.91
1753876675.505339;0.0;0.0;0.0;-2.03;0.93;-0.02;0.0;0.0;0.0;0.0;0.0;7.0;9.0;18.0;0.13;0.43;-10.6;0.83;0.37;0.96
1753876675.510339;0.0;0.0;0.0;-2.03;0.93;-0.02;0.0;0.0;0.0;0.0;0.0;7.0;9.0;18.0;0.13;0.43;-10.59;0.81;0.49;1.02
1753876675.515339;0.0;0.0;0.0;-2.03;0.93;-0.02;0.0;0.0;0.0;0.0;0.0;7.0;9.0;18.0;0.13;0.43;-10.58;0.96;0.31;1.0
1753876675.520339;0.0;0.0;0.0;-2.03;0.93;-0.02;0.0;0.0;0.0;0.0;0.0;7.0;9.0;18.0;0.12;0.44;-10.58;0.84;0.28;0.93
1753876675.525339;0.0;0.0;0.0;-2.03;0.93;-0.02;0.0;0.0;0.0;0.0;0.0;7.0;9.0;18.0;0.12;0.44;-10.58;0.79;0.27;0.91
1753876675.530339;0.0;0.0;0.0;-2.03;0.93;-0.02;0.0;0.0;0.0;0.0;0.0;7.0;9.0;18.0;0.12;0.44;-10.58;0.74;0.15;0.96
1753876675.535339;0.0;0.0;0.0;-2.03;0.93;-0.02;0.0;0.0;0.0;0.0;0.0;7.0;9.0;18.0;0.12;0.44;-10.58;0.81;0.33;1.02
1753876675.540339;0.0;0.0;0.0;-2.03;0.93;-0.02;0.0;0.0;0.0;0.0;0.0;7.0;9.0;18.0;0.13;0.45;-10.59;0.63;0.17;0.79
1753876675.545339;0.0;0.0;0.0;-2.03;0.93;-0.02;0.0;0.0;0.0;0.0;0.9;-6.7;11.4;19.3;0.16;0.44;-10.62;0.87;0.18;0.79
1753876675.550339;0.0;0.0;0.0;-2.03;0.93;-0.02;0.0;0.0;0.0;0.0;0.0;7.0;9.0;18.0;0.13;0.45;-10.6;0.73;0.35;0.9
1753876675.555339;0.0;0.0;0.0;-2.03;0.93;-0.02;0.0;0.0;0.0;0.0;0.0;7.0;9.0;18.0;0.13;0.45;-10.6;0.77;0.4;0.99
1753876675.560339;0.0;0.0;0.0;-2.03;0.93;-0.02;0.0;0.0;0.0;0.0;0.0;7.0;9.0;18.0;0.14;0.45;-10.6;0.77;0.16;0.87
1753876675.565339;0.0;0.0;0.0;-2.03;0.93;-0.02;0.0;0.0;0.0;0.0;0.0;7.0;9.0;18.0;0.13;0.45;-10.61;0.79;0.31;1.01
1753876675.570339;0.0;0.0;0.0;-2.03;0.93;-0.02;0.0;0.0;0.0;0.0;0.0;7.0;9.0;18.0;0.13;0.45;-10.62;0.71;0.42;0.78
1753876675.575339;0.0;0.0;0.0;-2.03;0.93;-0.02;0.0;0.0;0.0;0.0;0.0;7.0;9.0;18.0;0.14;0.44;-10.62;0.63;0.29;1.06
1753876675.580339;0.0;0.0;0.0;-2.03;0.93;-0.02;0.0;0.0;0.0;0.0;0.0;7.0;9.0;18.0;0.14;0.44;-10.63;0.75;0.21;0.97
1753876675.585339;0.0;0.0;0.0;-2.03;0.93;-0.02;0.0;0.0;0.0;0.0;0.0;7.0;9.0;18.0;0.14;0.44;-10.63;0.78;0.28;1.02
1753876675.590339;0.0;0.0;0.0;-2.03;0.93;-0.02;0.0;0.0;0.0;0.0;-0.1;7.6;10.8;-9.8;0.14;0.43;-10.63;0.79;0.18;1.16
1753876675.595339;0.0;0.0;0.0;-2.03;0.93;-0.02;0.0;0.0;0.0;0.0;0.0;7.0;9.0;18.0;0.14;0.44;-10.63;0.69;0.4;0.88
1753876675.600339;0.0;0.0;0.0;-2.03;0.93;-0.02;0.0;0.0;0.0;0.0;-1.0;10.2;9.5;32.9;0.14;0.45;-10.64;0.83;0.42;0.85
1753876675.605339;0.0;0.0;0.0;-2.03;0.94;-0.02;0.0;0.0;0.0;0.0;1.7;4.7;2.5;9.2;0.13;0.44;-10.61;0.75;0.39;0.86
1753876675.61034;0.0;0.0;0.0;-2.03;0.92;-0.02;0.0;0.0;0.0;0.0;3.0;5.6;2.9;25.9;0.15;0.44;-10.59;0.62;0.29;0.84
1753876675.61534;0.0;0.0;0.0;-2.03;0.92;-0.02;0.0;0.0;0.0;0.0;-2.9;7.8;6.0;21.7;0.14;0.43;-10.6;0.63;0.32;0.87
1753876675.62034;0.0;0.0;0.0;-2.03;0.92;-0.02;0.0;0.0;0.0;0.0;-2.9;9.4;-1.0;14.0;0.15;0.45;-10.64;0.59;0.38;0.9
1753876675.62534;0.0;0.0;0.0;-2.03;0.92;-0.02;0.0;0.0;0.0;0.0;-5.4;8.5;-0.0;19.9;0.15;0.44;-10.66;0.71;0.39;0.81
1753876675.63034;0.0;0.0;0.0;-2.03;0.94;-0.02;0.0;0.0;0.0;0.0;-4.0;6.2;-3.1;10.8;0.15;0.45;-10.61;0.79;0.14;0.95
1753876675.63534;0.0;0.0;0.0;-2.03;0.93;-0.02;0.0;0.0;0.0;0.0;-0.5;-0.8;1.8;21.3;0.13;0.46;-10.65;0.74;0.05;0.9
1753876675.64034;0.0;0.0;0.0;-2.03;0.92;-0.02;0.0;0.0;0.0;0.0;-3.8;6.8;-7.2;10.4;0.14;0.45;-10.59;0.81;0.42;0.82
1753876675.64534;0.0;0.0;0.0;-2.03;0.92;-0.02;0.0;0.0;0.0;0.0;-3.7;6.5;-9.5;3.9;0.15;0.45;-10.6;0.77;0.22;0.99
1753876675.65034;0.0;0.0;0.0;-2.03;0.92;-0.02;0.0;0.0;0.0;0.0;-6.7;2.4;-13.1;-6.1;0.13;0.45;-10.66;0.67;0.3;0.92
1753876675.65534;0.0;0.0;0.0;-2.03;0.93;-0.02;0.0;0.0;0.0;0.0;-7.2;5.1;-14.3;-8.9;0.14;0.44;-10.63;0.72;0.32;0.98
1753876675.66034;0.0;0.0;0.0;-2.03;0.92;-0.02;0.0;0.0;0.0;0.0;-5.6;1.9;-9.3;6.7;0.14;0.44;-10.63;0.85;0.14;0.91
1753876675.665341;0.0;0.0;0.0;-2.03;0.92;-0.02;0.0;0.0;0.0;0.0;-4.7;5.5;-17.5;-15.0;0.14;0.45;-10.62;0.74;0.29;0.76
1753876675.670341;0.0;0.0;0.0;-2.03;0.93;-0.02;0.0;0.0;0.0;0.0;-9.7;4.2;-22.8;-8.5;0.14;0.45;-10.59;0.75;0.25;1.0
1753876675.675341;0.0;0.0;0.0;-2.03;0.91;-0.02;0.0;0.0;0.0;0.0;-10.5;-1.8;-7.5;-5.0;0.15;0.44;-10.62;0.68;0.14;0.75
1753876675.680341;0.0;0.0;0.0;-2.03;0.92;-0.02;0.0;0.0;0.0;0.0;-10.8;4.4;-21.8;-3.6;0.14;0.44;-10.58;0.79;0.23;0.94
1753876675.685339;0.0;0.0;0.0;-2.03;0.92;-0.02;0.0;0.0;0.0;0.0;-9.0;1.0;-17.0;-11.0;0.15;0.45;-10.63;0.79;0.2;0.9
1753876675.690339;0.0;0.0;0.0;-2.03;0.92;-0.02;0.0;0.0;0.0;0.0;-9.0;1.0;-17.0;-11.0;0.15;0.46;-10.62;0.85;0.16;1.06
1753876675.695339;0.0;0.0;0.0;-2.03;0.92;-0.02;0.0;0.0;0.0;0.0;-9.0;1.0;-17.0;-11.0;0.14;0.45;-10.61;0.64;0.3;0.94
1753876675.700339;0.0;0.0;0.0;-2.03;0.92;-0.02;0.0;0.0;0.0;0.0;-9.0;1.0;-17.0;-11.0;0.15;0.45;-10.61;0.74;0.27;0.96
1753876675.705339;0.0;0.0;0.0;-2.03;0.92;-0.02;0.0;0.0;0.0;0.0;-9.0;1.0;-17.0;-11.0;0.14;0.45;-10.62;0.86;0.36;1.06
1753876675.710339;0.0;0.0;0.0;-2.03;0.92;-0.02;0.0;0.0;0.0;0.0;-9.0;1.0;-17.0;-11.0;0.14;0.45;-10.62;0.79;0.42;1.02
1753876675.715339;0.0;0.0;0.0;-2.03;0.92;-0.02;0.0;0.0;0.0;0.0;-9.0;1.0;-17.0;-11.0;0.14;0.45;-10.61;0.79;0.38;1.09
1753876675.720339;0.0;0.0;0.0;-2.03;0.92;-0.02;0.0;0.0;0.0;0.0;-9.0;1.0;-17.0;-11.0;0.15;0.44;-10.61;0.72;0.17;0.83
1753876675.725339;0.0;0.0;0.0;-2.03;0.92;-0.02;0.0;0.0;0.0;0.0;-9.0;1.0;-17.0;-11.0;0.14;0.44;-10.62;0.83;0.16;0.96
1753876675.730339;0.0;0.0;0.0;-2.03;0.92;-0.02;0.0;0.0;0.0;0.0;-9.0;1.0;-17.0;-11.0;0.14;0.44;-10.61;0.82;0.42;1.01
1753876675.735339;0.0;0.0;0.0;-2.03;0.92;-0.02;0.0;0.0;0.0;0.0;-9.0;1.0;-17.0;-11.0;0.14;0.44;-10.62;0.8;0.32;0.9
1753876675.740339;0.0;0.0;0.0;-2.03;0.92;-0.02;0.0;0.0;0.0;0.0;-9.0;1.0;-17.0;-11.0;0.14;0.45;-10.61;0.77;0.25;1.06
1753876675.745339;0.0;0.0;0.0;-2.03;0.92;-0.02;0.0;0.0;0.0;0.0;-9.0;1.0;-17.0;-11.0;0.13;0.44;-10.63;0.7;0.25;0.93
1753876675.750339;0.0;0.0;0.0;-2.03;0.92;-0.02;0.0;0.0;0.0;0.0;-9.0;1.0;-17.0;-11.0;0.13;0.44;-10.63;0.76;0.34;0.96
1753876675.755339;0.0;0.0;0.0;-2.03;0.92;-0.02;0.0;0.0;0.0;0.0;-9.0;1.0;-17.0;-11.0;0.13;0.44;-10.63;0.74;0.22;0.77
1753876675.760339;0.0;0.0;0.0;-2.03;0.92;-0.02;0.0;0.0;0.0;0.0;-9.0;1.0;-17.0;-11.0;0.13;0.44;-10.62;0.83;0.29;1.07
1753876675.765339;0.0;0.0;0.0;-2.03;0.92;-0.02;0.0;0.0;0.0;0.0;-9.0;1.0;-17.0;-11.0;0.13;0.45;-10.62;0.77;0.19;0.93
1753876675.770339;0.0;0.0;0.0;-2.03;0.92;-0.02;0.0;0.0;0.0;0.0;-9.0;1.0;-17.0;-11.0;0.13;0.44;-10.62;0.62;0.43;1.06
1753876675.775339;0.0;0.0;0.0;-2.03;0.92;-0.02;0.0;0.0;0.0;0.0;-9.0;1.0;-17.0;-11.0;0.13;0.45;-10.61;0.85;0.41;1.0
1753876675.780339;0.0;0.0;0.0;-2.03;0.92;-0.02;0.0;0.0;0.0;0.0;-9.0;1.0;-17.0;-11.0;0.13;0.45;-10.61;0.68;0.26;0.85
1753876675.785339;0.0;0.0;0.0;-2.03;0.92;-0.02;0.0;0.0;0.0;0.0;-9.0;1.0;-17.0;-11.0;0.13;0.45;-10.6;0.74;0.25;0.95
1753876675.790339;0.0;0.0;0.0;-2.03;0.92;-0.02;0.0;0.0;0.0;0.0;-9.0;1.0;-17.0;-11.0;0.13;0.45;-10.6;0.74;0.27;0.86
1753876675.795339;0.0;0.0;0.0;-2.03;0.92;-0.02;0.0;0.0;0.0;0.0;-9.0;1.0;-17.0;-11.0;0.13;0.45;-10.6;0.57;0.25;0.99
1753876675.800339;0.0;0.0;0.0;-2.03;0.92;-0.02;0.0;0.0;0.0;0.0;-9.0;1.0;-17.0;-11.0;0.13;0.45;-10.6;0.86;0.28;0.85
1753876675.805339;0.0;0.0;0.0;-2.03;0.92;-0.02;0.0;0.0;0.0;0.0;-9.0;1.0;-17.0;-11.0;0.14;0.45;-10.6;0.71;0.13;0.91
1753876675.810339;0.0;0.0;0.0;-2.03;0.92;-0.02;0.0;0.0;0.0;0.0;-9.0;1.0;-17.0;-11.0;0.14;0.46;-10.59;0.8;0.25;1.02
1753876675.815339;0.0;0.0;0.0;-2.03;0.92;-0.02;0.0;0.0;0.0;0.0;-9.0;1.0;-17.0;-11.0;0.15;0.46;-10.59;0.67;0.19;0.94
1753876675.820339;0.0;0.0;0.0;-2.03;0.92;-0.02;0.0;0.0;0.0;0.0;-9.0;1.0;-17.0;-11.0;0.14;0.46;-10.59;0.77;0.33;1.07
1753876675.825339;0.0;0.0;0.0;-2.03;0.92;-0.02;0.0;0.0;0.0;0.0;-9.0;1.0;-17.0;-11.0;0.14;0.46;-10.59;0.69;0.41;0.99
1753876675.830339;0.0;0.0;0.0;-2.03;0.92;-0.02;0.0;0.0;0.0;0.0;-9.0;1.0;-17.0;-11.0;0.14;0.46;-10.6;0.71;0.48;1.02
1753876675.835339;0.0;0.0;0.0;-2.03;0.92;-0.02;0.0;0.0;0.0;0.0;-9.0;1.0;-17.0;-11.0;0.14;0.46;-10.6;0.63;0.33;1.17
1753876675.840339;0.0;0.0;0.0;-2.03;0.92;-0.02;0.0;0.0;0.0;0.0;-9.0;1.0;-17.0;-11.0;0.14;0.45;-10.6;0.8;0.19;1.06
1753876675.845339;0.0;0.0;0.0;-2.03;0.92;-0.02;0.0;0.0;0.0;0.0;-9.0;1.0;-17.0;-11.0;0.14;0.45;-10.6;0.86;0.28;0.99
1753876675.850339;0.0;0.0;0.0;-2.03;0.92;-0.02;0.0;0.0;0.0;0.0;-9.0;1.0;-17.0;-11.0;0.14;0.46;-10.6;0.67;0.1;0.99
1753876675.855339;0.0;0.0;0.0;-2.03;0.92;-0.02;0.0;0.0;0.0;0.0;-9.0;1.0;-17.0;-11.0;0.14;0.45;-10.6;0.79;0.25;0.98
1753876675.860339;0.0;0.0;0.0;-2.03;0.92;-0.02;0.0;0.0;0.0;0.0;-9.0;1.0;-17.0;-11.0;0.14;0.45;-10.6;0.62;0.24;0.98
1753876675.865339;0.0;0.0;0.0;-2.03;0.92;-0.02;0.0;0.0;0.0;0.0;-9.0;1.0;-17.0;-11.0;0.13;0.45;-10.61;0.75;0.38;1.09
1753876675.870339;0.0;0.0;0.0;-2.03;0.92;-0.02;0.0;0.0;0.0;0.0;-9.0;1.0;-17.0;-11.0;0.13;0.44;-10.61;0.76;0.27;0.92
1753876675.875339;0.0;0.0;0.0;-2.03;0.92;-0.02;0.0;0.0;0.0;0.0;-9.0;1.0;-17.0;-11.0;0.13;0.44;-10.61;0.83;0.23;0.8
1753876675.880339;0.0;0.0;0.0;-2.03;0.92;-0.02;0.0;0.0;0.0;0.0;-9.0;1.0;-17.0;-11.0;0.13;0.44;-10.61;0.71;0.31;0.93
1753876675.885339;0.0;0.0;0.0;-2.03;0.92;-0.02;0.0;0.0;0.0;0.0;-9.0;1.0;-17.0;-11.0;0.13;0.44;-10.61;0.82;0.3;0.93
1753876675.890339;0.0;0.0;0.0;-2.03;0.92;-0.02;0.0;0.0;0.0;0.0;-9.0;1.0;-17.0;-11.0;0.13;0.44;-10.61;0.74;0.36;0.94
1753876675.895339;0.0;0.0;0.0;-2.03;0.92;-0.02;0.0;0.0;0.0;0.0;-9.0;1.0;-17.0;-11.0;0.13;0.44;-10.62;0.8;0.22;0.95
1753876675.900339;0.0;0.0;0.0;-2.03;0.92;-0.02;0.0;0.0;0.0;0.0;-9.0;1.0;-17.0;-11.0;0.14;0.44;-10.62;0.79;0.25;1.02
1753876675.905339;0.0;0.0;0.0;-2.03;0.92;-0.02;0.0;0.0;0.0;0.0;-9.0;1.0;-17.0;-11.0;0.13;0.43;-10.62;0.8;0.37;0.83
1753876675.910339;0.0;0.0;0.0;-2.03;0.92;-0.02;0.0;0.0;0.0;0.0;-9.0;1.0;-17.0;-11.0;0.13;0.44;-10.62;0.71;0.25;0.99
1753876675.915339;0.0;0.0;0.0;-2.03;0.92;-0.02;0.0;0.0;0.0;0.0;-9.3;-0.6;-10.1;-10.7;0.13;0.45;-10.61;0.68;0.32;0.86
1753876675.920339;0.0;0.0;0.0;-2.04;0.92;-0.02;0.0;0.0;0.0;0.0;-9.2;0.2;-17.9;-11.9;0.13;0.43;-10.62;0.83;0.3;1.17
1753876675.92534;0.0;0.0;0.0;-2.04;0.92;-0.02;0.0;0.0;0.0;0.0;-9.0;1.0;-17.4;-11.9;0.14;0.44;-10.63;0.77;0.3;1.1
1753876675.93034;0.0;0.0;0.0;-2.03;0.92;-0.02;0.0;0.0;0.0;0.0;-9.1;0.8;-18.2;-11.4;0.13;0.45;-10.61;0.72;0.28;0.99
1753876675.93534;0.0;0.0;0.0;-2.04;0.92;-0.02;0.0;0.0;0.0;0.0;-9.3;-0.1;-15.9;-10.9;0.13;0.44;-10.62;0.77;0.31;1.02
1753876675.94034;0.0;0.0;0.0;-2.03;0.92;-0.02;0.0;0.0;0.0;0.0;-9.6;0.1;-9.7;-11.7;0.13;0.44;-10.63;0.73;0.44;1.06
1753876675.94534;0.0;0.0;0.0;-2.04;0.92;-0.02;0.0;0.0;0.0;0.0;-9.4;1.5;-17.6;-11.9;0.12;0.44;-10.64;0.75;0.36;1.14
1753876675.95034;0.0;0.0;0.0;-2.04;0.92;-0.02;0.0;0.0;0.0;0.0;-9.1;-0.5;-11.8;-11.5;0.12;0.44;-10.62;0.73;0.21;1.14
1753876675.95534;0.0;0.0;0.0;-2.04;0.92;-0.02;0.0;0.0;0.0;0.0;-9.2;1.4;-15.8;-10.8;0.14;0.45;-10.61;0.65;0.31;1.02
1753876675.96034;0.0;0.0;0.0;-2.03;0.92;-0.02;0.0;0.0;0.0;0.0;-9.3;-2.4;-7.3;-11.9;0.12;0.44;-10.63;0.8;0.37;1.09
1753876675.96534;0.0;0.0;0.0;-2.04;0.92;-0.02;0.0;0.0;0.0;0.0;-9.1;-1.7;-13.1;-11.4;0.12;0.44;-10.61;0.62;0.27;0.98
1753876675.97034;0.0;0.0;0.0;-2.03;0.92;-0.02;0.0;0.0;0.0;0.0;-9.3;-0.4;-9.2;-13.3;0.12;0.45;-10.6;0.71;0.24;0.9
1753876675.97534;0.0;0.0;0.0;-2.04;0.92;-0.02;0.0;0.0;0.0;0.0;-9.6;-0.4;-11.7;-12.3;0.14;0.44;-10.62;0.76;0.31;0.94
1753876675.980341;0.0;0.0;0.0;-2.04;0.92;-0.02;0.0;0.0;0.0;0.0;-9.8;-2.1;-7.9;-12.0;0.13;0.45;-10.61;0.84;0.2;1.03
1753876675.985341;0.0;0.0;0.0;-2.04;0.92;-0.02;0.0;0.0;0.0;0.0;-9.1;-1.1;-2.7;-12.4;0.13;0.44;-10.6;0.78;0.24;1.02
1753876675.990341;0.0;0.0;0.0;-2.03;0.92;-0.02;0.0;0.0;0.0;0.0;-9.3;-1.1;-7.3;-11.5;0.13;0.45;-10.61;0.67;0.39;0.97
1753876675.995341;0.0;0.0;0.0;-2.05;0.92;-0.02;0.0;0.0;0.0;0.0;-9.9;-1.3;-3.7;-12.6;0.12;0.45;-10.6;0.67;0.25;1.03
1753876676.000341;0.0;0.0;0.0;-2.03;0.92;-0.02;0.0;0.0;0.0;0.0;-9.9;-1.5;1.7;-12.7;0.12;0.44;-10.62;0.76;0.26;1.04
1753876676.005341;0.0;0.0;0.0;-2.04;0.92;-0.02;0.0;0.0;0.0;0.0;-9.8;-4.0;-5.8;-11.9;0.12;0.46;-10.61;0.73;0.32;0.91
1753876676.010342;0.0;0.0;0.0;-2.05;0.92;-0.02;0.0;0.0;0.0;0.0;-9.7;-2.9;-10.5;-13.3;0.13;0.46;-10.62;0.66;0.38;0.97
1753876676.015342;0.0;0.0;0.0;-2.04;0.92;-0.02;0.0;0.0;0.0;0.0;-9.8;-2.9;5.4;-12.9;0.12;0.45;-10.62;0.78;0.21;0.99
1753876676.020342;0.0;0.0;0.0;-2.04;0.92;-0.02;0.0;0.0;0.0;0.0;-10.2;-1.4;1.5;-13.4;0.13;0.45;-10.63;0.74;0.26;0.99
1753876676.025342;0.0;0.0;0.0;-2.05;0.92;-0.02;0.0;0.0;0.0;0.0;-9.9;-3.9;-3.5;-13.7;0.13;0.45;-10.63;0.82;0.37;1.01
1753876676.030342;0.0;0.0;0.0;-2.04;0.92;-0.02;0.0;0.0;0.0;0.0;-10.0;-2.9;-2.9;-13.0;0.12;0.45;-10.62;0.8;0.29;0.97
1753876676.035342;0.0;0.0;0.0;-2.05;0.92;-0.02;0.0;0.0;0.0;0.0;-10.1;-2.7;2.5;-14.4;0.11;0.46;-10.61;0.76;0.15;0.92
1753876676.040342;0.0;0.0;0.0;-2.05;0.92;-0.02;0.0;0.0;0.0;0.0;-10.0;-3.8;-2.9;-14.2;0.11;0.46;-10.6;0.77;0.17;0.95
1753876676.045342;0.0;0.0;0.0;-2.05;0.92;-0.02;0.0;0.0;0.0;0.0;-10.1;-1.8;-7.9;-13.0;0.12;0.45;-10.61;0.79;0.35;0.84
1753876676.050342;0.0;0.0;0.0;-2.04;0.92;-0.02;0.0;0.0;0.0;0.0;-9.8;-1.7;5.9;-14.6;0.11;0.44;-10.6;0.82;0.23;0.93
1753876676.055339;0.0;0.0;0.0;-2.05;0.92;-0.02;0.0;0.0;0.0;0.0;-10.0;-3.0;4.0;-14.0;0.12;0.45;-10.61;0.75;0.31;0.94
1753876676.060339;0.0;0.0;0.0;-2.05;0.92;-0.02;0.0;0.0;0.0;0.0;-10.0;-3.0;4.0;-14.0;0.12;0.45;-10.62;0.78;0.35;0.95
1753876676.065339;0.0;0.0;0.0;-2.05;0.92;-0.02;0.0;0.0;0.0;0.0;-10.0;-3.0;4.0;-14.0;0.12;0.45;-10.62;0.93;0.25;0.92
1753876676.070339;0.0;0.0;0.0;-2.06;0.92;-0.02;0.0;0.0;0.0;0.0;-10.8;-3.7;-5.0;-14.9;0.12;0.45;-10.6;0.81;0.32;1.16
1753876676.075339;0.0;0.0;0.0;-2.05;0.92;-0.02;0.0;0.0;0.0;0.0;-10.0;-3.0;4.0;-14.0;0.13;0.44;-10.61;0.78;0.39;0.97
1753876676.080339;0.0;0.0;0.0;-2.05;0.92;-0.02;0.0;0.0;0.0;0.0;-10.0;-3.0;4.0;-14.0;0.12;0.44;-10.61;0.77;0.25;0.91
1753876676.085339;0.0;0.0;0.0;-2.05;0.92;-0.02;0.0;0.0;0.0;0.0;-10.0;-3.0;4.0;-14.0;0.12;0.44;-10.6;0.7;0.21;0.82
1753876676.090339;0.0;0.0;0.0;-2.05;0.92;-0.02;0.0;0.0;0.0;0.0;-10.0;-3.0;4.0;-14.0;0.13;0.44;-10.61;0.7;0.22;0.93
1753876676.095339;0.0;0.0;0.0;-2.05;0.92;-0.02;0.0;0.0;0.0;0.0;-10.0;-3.0;4.0;-14.0;0.13;0.44;-10.6;0.7;0.37;0.94
1753876676.100339;0.0;0.0;0.0;-2.05;0.92;-0.02;0.0;0.0;0.0;0.0;-10.0;-3.0;4.0;-14.0;0.13;0.44;-10.6;0.74;0.34;0.88
1753876676.105339;0.0;0.0;0.0;-2.05;0.92;-0.02;0.0;0.0;0.0;0.0;-10.0;-3.0;4.0;-14.0;0.13;0.44;-10.59;0.86;0.35;0.93
1753876676.110339;0.0;0.0;0.0;-2.05;0.92;-0.02;0.0;0.0;0.0;0.0;-10.0;-3.0;4.0;-14.0;0.13;0.44;-10.59;0.8;0.18;0.89
1753876676.115339;0.0;0.0;0.0;-2.04;0.92;-0.02;0.0;0.0;0.0;0.0;-11.2;-6.6;27.4;-6.2;0.14;0.44;-10.59;0.83;0.18;0.95
1753876676.12034;0.0;0.0;0.0;-2.06;0.92;-0.02;0.0;0.0;0.0;0.0;-11.6;-3.6;3.0;-6.0;0.12;0.44;-10.6;0.83;0.07;0.91
1753876676.12534;0.0;0.0;0.0;-2.05;0.92;-0.02;0.0;0.0;0.0;0.0;-7.3;0.5;26.6;-7.5;0.14;0.44;-10.58;0.82;0.19;0.82
1753876676.13034;0.0;0.0;0.0;-2.04;0.92;-0.02;0.0;0.0;0.0;0.0;-11.4;-2.5;4.6;-7.6;0.13;0.44;-10.61;0.79;0.18;0.91
1753876676.13534;0.0;0.0;0.0;-2.06;0.92;-0.02;0.0;0.0;0.0;0.0;-7.2;-0.0;31.0;-0.7;0.14;0.43;-10.6;0.84;0.08;0.86
1753876676.14034;0.0;0.0;0.0;-2.05;0.92;-0.02;0.0;0.0;0.0;0.0;-5.1;-0.3;22.4;-3.4;0.13;0.43;-10.62;0.85;0.19;0.86
1753876676.14534;0.0;0.0;0.0;-2.06;0.91;-0.02;0.0;0.0;0.0;0.0;-5.6;-7.4;2.1;-4.6;0.13;0.45;-10.6;0.87;0.27;0.83
1753876676.15034;0.0;0.0;0.0;-2.04;0.92;-0.02;0.0;0.0;0.0;0.0;-6.9;0.5;20.5;-10.6;0.14;0.43;-10.61;0.66;0.16;0.92
1753876676.15534;0.0;0.0;0.0;-2.04;0.92;-0.02;0.0;0.0;0.0;0.0;-4.4;1.8;29.0;0.4;0.13;0.44;-10.62;0.7;0.13;1.06
1753876676.16034;0.0;0.0;0.0;-2.05;0.92;-0.02;0.0;0.0;0.0;0.0;-6.1;-2.8;-11.4;2.5;0.14;0.44;-10.61;0.76;0.23;1.04
1753876676.16534;0.0;0.0;0.0;-2.06;0.92;-0.02;0.0;0.0;0.0;0.0;-4.8;-2.1;-8.2;-1.4;0.13;0.43;-10.61;0.73;0.23;1.02
1753876676.17034;0.0;0.0;0.0;-2.05;0.91;-0.02;0.0;0.0;0.0;0.0;-3.5;0.1;-4.8;20.0;0.13;0.44;-10.6;0.72;0.21;1.05
1753876676.175341;0.0;0.0;0.0;-2.04;0.92;-0.02;0.0;0.0;0.0;0.0;-4.6;2.4;13.0;6.8;0.15;0.44;-10.6;0.75;0.18;0.93
1753876676.180341;0.0;0.0;0.0;-2.04;0.91;-0.02;0.0;0.0;0.0;0.0;-3.4;0.3;7.4;2.4;0.12;0.43;-10.62;0.68;0.17;1.0
1753876676.185341;0.0;0.0;0.0;-2.06;0.91;-0.02;0.0;0.0;0.0;0.0;2.0;-1.4;9.2;4.0;0.13;0.44;-10.61;0.78;0.22;0.97
1753876676.190341;0.0;0.0;0.0;-2.05;0.91;-0.02;0.0;0.0;0.0;0.0;-5.8;0.1;9.4;11.9;0.14;0.44;-10.63;0.62;0.25;1.13
1753876676.195341;0.0;0.0;0.0;-2.03;0.91;-0.02;0.0;0.0;0.0;0.0;0.9;-0.2;-2.3;2.8;0.13;0.43;-10.62;0.71;0.27;1.03
1753876676.200341;0.0;0.0;0.0;-2.04;0.91;-0.02;0.0;0.0;0.0;0.0;-3.5;1.2;8.2;7.6;0.13;0.44;-10.63;0.72;0.24;0.93
1753876676.205341;0.0;0.0;0.0;-2.04;0.91;-0.02;0.0;0.0;0.0;0.0;1.5;5.2;17.5;13.9;0.14;0.43;-10.61;0.75;0.23;0.97
1753876676.210342;0.0;0.0;0.0;-2.06;0.91;-0.02;0.0;0.0;0.0;0.0;3.0;-1.9;5.5;13.9;0.14;0.44;-10.62;0.86;0.21;1.02
1753876676.215342;0.0;0.0;0.0;-2.06;0.91;-0.02;0.0;0.0;0.0;0.0;-8.0;-0.3;25.3;6.3;0.14;0.43;-10.61;0.7;0.3;1.1
1753876676.220342;0.0;0.0;0.0;-2.05;0.91;-0.02;0.0;0.0;0.0;0.0;-1.8;1.1;-0.7;13.7;0.14;0.42;-10.63;0.6;0.22;1.05
1753876676.225342;0.0;0.0;0.0;-2.05;0.91;-0.02;0.0;0.0;0.0;0.0;5.6;-0.8;-11.7;3.2;0.15;0.44;-10.61;0.79;0.39;1.13
1753876676.230342;0.0;0.0;0.0;-2.02;0.91;-0.02;0.0;0.0;0.0;0.0;1.0;4.7;3.1;19.3;0.14;0.43;-10.62;0.58;0.14;1.14
1753876676.235339;0.0;0.0;0.0;-2.04;0.91;-0.02;0.0;0.0;0.0;0.0;2.0;3.0;10.0;15.0;0.14;0.43;-10.63;0.69;0.24;1.06
1753876676.240339;0.0;0.0;0.0;-2.04;0.91;-0.02;0.0;0.0;0.0;0.0;2.0;3.0;10.0;15.0;0.14;0.43;-10.63;0.84;0.2;0.9
1753876676.245339;0.0;0.0;0.0;-2.04;0.91;-0.02;0.0;0.0;0.0;0.0;2.0;3.0;10.0;15.0;0.14;0.43;-10.62;0.74;0.26;0.96
1753876676.250339;0.0;0.0;0.0;-2.04;0.91;-0.02;0.0;0.0;0.0;0.0;2.0;3.0;10.0;15.0;0.14;0.43;-10.62;0.7;0.33;0.79
1753876676.255339;0.0;0.0;0.0;-2.04;0.91;-0.02;0.0;0.0;0.0;0.0;2.0;3.0;10.0;15.0;0.14;0.43;-10.62;0.75;0.29;0.88
1753876676.260339;0.0;0.0;0.0;-2.04;0.91;-0.02;0.0;0.0;0.0;0.0;2.4;5.5;0.5;23.1;0.14;0.44;-10.63;0.75;0.33;0.93
1753876676.265339;0.0;0.0;0.0;-2.04;0.91;-0.02;0.0;0.0;0.0;0.0;2.0;3.0;10.0;15.0;0.14;0.44;-10.62;0.69;0.25;0.97
1753876676.270339;0.0;0.0;0.0;-2.04;0.91;-0.02;0.0;0.0;0.0;0.0;2.0;3.0;10.0;15.0;0.13;0.44;-10.61;0.86;0.37;0.9
1753876676.275339;0.0;0.0;0.0;-2.04;0.91;-0.02;0.0;0.0;0.0;0.0;2.0;3.0;10.0;15.0;0.14;0.44;-10.62;0.86;0.22;0.99
1753876676.280339;0.0;0.0;0.0;-2.04;0.91;-0.02;0.0;0.0;0.0;0.0;2.0;3.0;10.0;15.0;0.13;0.44;-10.62;0.74;0.35;1.02
1753876676.285339;0.0;0.0;0.0;-2.04;0.91;-0.02;0.0;0.0;0.0;0.0;2.0;3.0;10.0;15.0;0.13;0.44;-10.61;0.78;0.32;0.9
1753876676.290339;0.0;0.0;0.0;-2.04;0.91;-0.02;0.0;0.0;0.0;0.0;2.0;3.0;10.0;15.0;0.13;0.44;-10.62;0.73;0.27;0.85
1753876676.295339;0.0;0.0;0.0;-2.04;0.91;-0.02;0.0;0.0;0.0;0.0;2.0;3.0;10.0;15.0;0.13;0.45;-10.62;0.83;0.19;0.84
1753876676.300339;0.0;0.0;0.0;-2.04;0.91;-0.02;0.0;0.0;0.0;0.0;2.0;3.0;10.0;15.0;0.13;0.45;-10.62;0.73;0.26;1.12
1753876676.305339;0.0;0.0;0.0;-2.04;0.91;-0.02;0.0;0.0;0.0;0.0;2.0;3.0;10.0;15.0;0.13;0.45;-10.62;0.83;0.33;0.86
1753876676.310339;0.0;0.0;0.0;-2.04;0.91;-0.02;0.0;0.0;0.0;0.0;2.0;3.0;10.0;15.0;0.14;0.45;-10.61;0.82;0.16;0.97
1753876676.315339;0.0;0.0;0.0;-2.04;0.91;-0.02;0.0;0.0;0.0;0.0;2.0;3.0;10.0;15.0;0.14;0.45;-10.61;0.8;0.35;1.02
1753876676.320339;0.0;0.0;0.0;-2.04;0.92;-0.02;0.0;0.0;0.0;0.0;3.6;0.8;8.8;3.8;0.14;0.44;-10.61;0.79;0.36;0.95
1753876676.325339;0.0;0.0;0.0;-2.04;0.91;-0.02;0.0;0.0;0.0;0.0;2.0;3.0;10.0;15.0;0.14;0.45;-10.61;0.85;0.22;0.87
1753876676.330339;0.0;0.0;0.0;-2.04;0.91;-0.02;0.0;0.0;0.0;0.0;2.0;3.0;10.0;15.0;0.14;0.45;-10.61;0.82;0.28;0.94
1753876676.335339;0.0;0.0;0.0;-2.04;0.91;-0.02;0.0;0.0;0.0;0.0;2.0;3.0;10.0;15.0;0.14;0.45;-10.61;0.75;0.46;0.88
1753876676.340339;0.0;0.0;0.0;-2.04;0.91;-0.02;0.0;0.0;0.0;0.0;2.0;3.0;10.0;15.0;0.14;0.45;-10.62;0.83;0.25;0.9
1753876676.345339;0.0;0.0;0.0;-2.04;0.91;-0.02;0.0;0.0;0.0;0.0;2.0;3.0;10.0;15.0;0.14;0.45;-10.61;0.78;0.39;0.91
1753876676.350339;0.0;0.0;0.0;-2.04;0.91;-0.02;0.0;0.0;0.0;0.0;2.0;3.0;10.0;15.0;0.14;0.46;-10.62;0.77;0.26;0.96
1753876676.355339;0.0;0.0;0.0;-2.04;0.91;-0.02;0.0;0.0;0.0;0.0;2.0;3.0;10.0;15.0;0.14;0.45;-10.61;0.86;0.3;0.92
1753876676.360339;0.0;0.0;0.0;-2.04;0.91;-0.02;0.0;0.0;0.0;0.0;2.0;3.0;10.0;15.0;0.14;0.45;-10.61;0.79;0.45;0.86
1753876676.365339;0.0;0.0;0.0;-2.04;0.91;-0.02;0.0;0.0;0.0;0.0;2.0;3.0;10.0;15.0;0.14;0.45;-10.62;0.85;0.36;1.03
1753876676.370339;0.0;0.0;0.0;-2.04;0.91;-0.02;0.0;0.0;0.0;0.0;2.0;3.0;10.0;15.0;0.14;0.45;-10.63;0.83;0.24;1.01
1753876676.375339;0.0;0.0;0.0;-2.04;0.91;-0.02;0.0;0.0;0.0;0.0;2.0;3.0;10.0;15.0;0.13;0.45;-10.62;0.8;0.19;0.93
1753876676.380339;0.0;0.0;0.0;-2.04;0.91;-0.02;0.0;0.0;0.0;0.0;2.0;3.0;10.0;15.0;0.13;0.45;-10.62;0.7;0.24;0.94
1753876676.385339;0.0;0.0;0.0;-2.04;0.91;-0.02;0.0;0.0;0.0;0.0;2.0;3.0;10.0;15.0;0.14;0.45;-10.63;0.76;0.19;0.91
1753876676.390339;0.0;0.0;0.0;-2.04;0.91;-0.02;0.0;0.0;0.0;0.0;2.0;3.0;10.0;15.0;0.14;0.45;-10.62;0.74;0.33;0.92
1753876676.395339;0.0;0.0;0.0;-2.04;0.91;-0.02;0.0;0.0;0.0;0.0;2.0;3.0;10.0;15.0;0.13;0.45;-10.62;0.68;0.18;1.09
1753876676.400339;0.0;0.0;0.0;-2.04;0.91;-0.02;0.0;0.0;0.0;0.0;2.0;3.0;10.0;15.0;0.14;0.45;-10.62;0.67;0.32;0.91
1753876676.405339;0.0;0.0;0.0;-2.04;0.91;-0.02;0.0;0.0;0.0;0.0;2.0;3.0;10.0;15.0;0.14;0.45;-10.62;0.82;0.33;0.97
1753876676.410339;0.0;0.0;0.0;-2.04;0.91;-0.02;0.0;0.0;0.0;0.0;2.0;3.0;10.0;15.0;0.13;0.45;-10.62;0.86;0.23;0.8
1753876676.415339;0.0;0.0;0.0;-2.04;0.91;-0.02;0.0;0.0;0.0;0.0;2.0;3.0;10.0;15.0;0.13;0.45;-10.63;0.82;0.27;0.74
1753876676.420339;0.0;0.0;0.0;-2.04;0.91;-0.02;0.0;0.0;0.0;0.0;2.0;3.0;10.0;15.0;0.14;0.45;-10.62;0.7;0.38;0.91
1753876676.425339;0.0;0.0;0.0;-2.04;0.91;-0.02;0.0;0.0;0.0;0.0;2.0;3.0;10.0;15.0;0.14;0.45;-10.62;0.72;0.39;1.03
1753876676.430339;0.0;0.0;0.0;-2.04;0.91;-0.02;0.0;0.0;0.0;0.0;2.0;3.0;10.0;15.0;0.14;0.45;-10.62;0.77;0.33;0.98
1753876676.435339;0.0;0.0;0.0;-2.04;0.91;-0.02;0.0;0.0;0.0;0.0;2.0;3.0;10.0;15.0;0.14;0.45;-10.62;0.65;0.28;0.93
1753876676.440339;0.0;0.0;0.0;-2.04;0.91;-0.02;0.0;0.0;0.0;0.0;2.0;3.0;10.0;15.0;0.14;0.45;-10.62;0.98;0.14;0.95
1753876676.445339;0.0;0.0;0.0;-2.04;0.91;-0.02;0.0;0.0;0.0;0.0;2.0;3.0;10.0;15.0;0.14;0.45;-10.62;0.78;0.42;0.79
1753876676.450339;0.0;0.0;0.0;-2.04;0.91;-0.02;0.0;0.0;0.0;0.0;2.0;3.0;10.0;15.0;0.14;0.45;-10.61;0.87;0.41;0.8
1753876676.455339;0.0;0.0;0.0;-2.04;0.91;-0.02;0.0;0.0;0.0;0.0;2.0;3.0;10.0;15.0;0.13;0.45;-10.62;0.91;0.38;0.9
1753876676.460339;0.0;0.0;0.0;-2.04;0.91;-0.02;0.0;0.0;0.0;0.0;1.9;3.3;10.2;14.3;0.13;0.45;-10.63;0.81;0.35;0.91
1753876676.46534;0.0;0.0;0.0;-2.04;0.91;-0.02;0.0;0.0;0.0;0.0;1.9;2.9;9.8;15.5;0.13;0.45;-10.62;0.68;0.41;0.83
1753876676.47034;0.0;0.0;0.0;-2.04;0.91;-0.02;0.0;0.0;0.0;0.0;2.0;3.3;9.5;15.1;0.12;0.45;-10.62;0.92;0.37;0.81
1753876676.47534;0.0;0.0;0.0;-2.04;0.91;-0.02;0.0;0.0;0.0;0.0;2.2;3.7;10.7;14.7;0.13;0.45;-10.62;1.0;0.33;0.79
1753876676.48034;0.0;0.0;0.0;-2.04;0.91;-0.02;0.0;0.0;0.0;0.0;2.4;3.3;11.5;14.6;0.14;0.45;-10.63;0.98;0.39;0.95
1753876676.48534;0.0;0.0;0.0;-2.04;0.91;-0.02;0.0;0.0;0.0;0.0;2.2;2.9;8.2;15.4;0.13;0.45;-10.62;0.92;0.38;0.8
1753876676.49034;0.0;0.0;0.0;-2.04;0.91;-0.02;0.0;0.0;0.0;0.0;2.2;3.0;7.2;16.1;0.14;0.45;-10.62;0.72;0.34;0.85
1753876676.49534;0.0;0.0;0.0;-2.04;0.91;-0.02;0.0;0.0;0.0;0.0;2.3;2.3;10.5;14.8;0.14;0.45;-10.62;0.83;0.39;0.84
1753876676.50034;0.0;0.0;0.0;-2.04;0.91;-0.02;0.0;0.0;0.0;0.0;2.0;2.8;8.9;15.3;0.14;0.45;-10.63;0.81;0.46;0.83
1753876676.50534;0.0;0.0;0.0;-2.04;0.91;-0.02;0.0;0.0;0.0;0.0;2.3;3.4;9.8;15.6;0.13;0.45;-10.62;0.81;0.43;0.83
1753876676.51034;0.0;0.0;0.0;-2.04;0.91;-0.02;0.0;0.0;0.0;0.0;2.0;5.2;5.9;16.5;0.13;0.44;-10.62;0.74;0.47;0.84
1753876676.51534;0.0;0.0;0.0;-2.04;0.91;-0.02;0.0;0.0;0.0;0.0;2.4;3.6;5.7;15.6;0.14;0.45;-10.62;0.82;0.38;0.84
1753876676.520341;0.0;0.0;0.0;-2.04;0.91;-0.02;0.0;0.0;0.0;0.0;2.5;4.9;5.2;16.0;0.13;0.45;-10.63;0.79;0.3;0.84
1753876676.525341;0.0;0.0;0.0;-2.04;0.91;-0.02;0.0;0.0;0.0;0.0;2.5;3.6;5.7;16.4;0.13;0.44;-10.63;0.84;0.23;1.05
1753876676.530341;0.0;0.0;0.0;-2.04;0.91;-0.02;0.0;0.0;0.0;0.0;2.3;4.5;6.0;16.2;0.13;0.45;-10.63;0.75;0.36;0.88
1753876676.535341;0.0;0.0;0.0;-2.04;0.92;-0.02;0.0;0.0;0.0;0.0;2.4;4.7;5.0;16.6;0.14;0.45;-10.62;0.98;0.46;0.96
1753876676.540341;0.0;0.0;0.0;-2.04;0.91;-0.02;0.0;0.0;0.0;0.0;2.4;5.7;4.6;15.9;0.14;0.44;-10.63;0.77;0.38;0.95
1753876676.545341;0.0;0.0;0.0;-2.04;0.91;-0.02;0.0;0.0;0.0;0.0;2.6;5.8;3.7;16.2;0.14;0.44;-10.63;0.81;0.22;0.76
1753876676.550341;0.0;0.0;0.0;-2.04;0.92;-0.02;0.0;0.0;0.0;0.0;2.7;4.8;5.7;16.9;0.14;0.45;-10.62;0.76;0.36;0.77
1753876676.555342;0.0;0.0;0.0;-2.04;0.91;-0.02;0.0;0.0;0.0;0.0;2.8;4.5;3.5;16.2;0.14;0.44;-10.62;0.67;0.42;0.87
1753876676.560342;0.0;0.0;0.0;-2.04;0.92;-0.02;0.0;0.0;0.0;0.0;2.6;5.4;4.1;15.5;0.12;0.45;-10.63;0.85;0.4;0.87
1753876676.565342;0.0;0.0;0.0;-2.04;0.92;-0.02;0.0;0.0;0.0;0.0;2.7;3.8;5.9;16.4;0.14;0.44;-10.63;0.94;0.26;1.01
1753876676.570342;0.0;0.0;0.0;-2.04;0.92;-0.02;0.0;0.0;0.0;0.0;2.8;5.7;2.7;15.3;0.13;0.44;-10.62;0.67;0.4;1.04
1753876676.575342;0.0;0.0;0.0;-2.04;0.91;-0.02;0.0;0.0;0.0;0.0;2.6;6.5;2.0;16.4;0.13;0.44;-10.63;0.64;0.36;1.03
1753876676.580342;0.0;0.0;0.0;-2.04;0.92;-0.02;0.0;0.0;0.0;0.0;3.0;5.7;5.3;16.4;0.14;0.44;-10.63;0.59;0.3;0.94
1753876676.585342;0.0;0.0;0.0;-2.04;0.92;-0.02;0.0;0.0;0.0;0.0;2.8;4.9;2.5;16.5;0.14;0.44;-10.63;0.74;0.38;0.85
1753876676.590342;0.0;0.0;0.0;-2.04;0.92;-0.02;0.0;0.0;0.0;0.0;2.2;6.4;1.0;17.0;0.13;0.44;-10.63;0.73;0.42;0.82
1753876676.595342;0.0;0.0;0.0;-2.04;0.92;-0.02;0.0;0.0;0.0;0.0;2.6;5.3;1.8;16.4;0.13;0.45;-10.63;0.61;0.21;0.84
1753876676.600342;0.0;0.0;0.0;-2.04;0.92;-0.02;0.0;0.0;0.0;0.0;2.7;5.1;4.2;17.4;0.14;0.44;-10.63;0.64;0.39;0.82
1753876676.605343;0.0;0.0;0.0;-2.04;0.92;-0.02;0.0;0.0;0.0;0.0;2.5;4.4;1.3;16.4;0.14;0.44;-10.63;0.75;0.21;0.94
1753876676.610343;0.0;0.0;0.0;-2.04;0.91;-0.02;0.0;0.0;0.0;0.0;3.1;5.5;0.7;16.7;0.13;0.44;-10.62;0.7;0.39;0.9
1753876676.615339;0.0;0.0;0.0;-2.04;0.92;-0.02;0.0;0.0;0.0;0.0;3.0;6.0;2.0;17.0;0.14;0.44;-10.63;0.66;0.3;0.93
1753876676.620339;0.0;0.0;0.0;-2.04;0.92;-0.02;0.0;0.0;0.0;0.0;3.0;6.0;2.0;17.0;0.14;0.44;-10.63;0.76;0.27;0.82
1753876676.625339;0.0;0.0;0.0;-2.04;0.92;-0.02;0.0;0.0;0.0;0.0;3.0;6.0;2.0;17.0;0.15;0.44;-10.62;0.8;0.3;0.92
1753876676.630339;0.0;0.0;0.0;-2.04;0.92;-0.02;0.0;0.0;0.0;0.0;2.2;8.3;2.9;8.5;0.15;0.45;-10.62;0.71;0.34;0.91
1753876676.635339;0.0;0.0;0.0;-2.04;0.92;-0.02;0.0;0.0;0.0;0.0;2.3;5.5;0.9;18.0;0.15;0.44;-10.63;0.85;0.23;0.89
1753876676.640339;0.0;0.0;0.0;-2.04;0.92;-0.02;0.0;0.0;0.0;0.0;3.4;5.6;4.0;22.4;0.15;0.44;-10.62;0.88;0.27;0.95
1753876676.64534;0.0;0.0;0.0;-2.04;0.92;-0.02;0.0;0.0;0.0;0.0;3.9;1.6;0.8;8.5;0.14;0.45;-10.61;0.84;0.24;0.94
1753876676.65034;0.0;0.0;0.0;-2.04;0.92;-0.02;0.0;0.0;0.0;0.0;4.6;7.1;-2.4;8.3;0.15;0.44;-10.62;0.88;0.02;0.89
1753876676.65534;0.0;0.0;0.0;-2.04;0.92;-0.02;0.0;0.0;0.0;0.0;3.4;2.9;-0.1;10.1;0.14;0.44;-10.62;0.87;0.27;0.94
1753876676.66034;0.0;0.0;0.0;-2.04;0.92;-0.02;0.0;0.0;0.0;0.0;4.9;4.4;1.4;20.9;0.15;0.44;-10.63;0.72;0.36;0.96
1753876676.66534;0.0;0.0;0.0;-2.04;0.92;-0.02;0.0;0.0;0.0;0.0;1.6;6.9;2.2;12.2;0.15;0.44;-10.62;0.68;0.27;0.8
1753876676.67034;0.0;0.0;0.0;-2.04;0.92;-0.02;0.0;0.0;0.0;0.0;1.3;4.4;1.5;16.8;0.15;0.44;-10.62;0.89;0.36;0.91
1753876676.67534;0.0;0.0;0.0;-2.04;0.92;-0.02;0.0;0.0;0.0;0.0;3.4;6.7;12.9;14.9;0.15;0.44;-10.62;0.81;0.39;0.84
1753876676.68034;0.0;0.0;0.0;-2.04;0.92;-0.02;0.0;0.0;0.0;0.0;0.4;5.2;0.0;12.8;0.14;0.44;-10.62;0.75;0.31;0.94
1753876676.68534;0.0;0.0;0.0;-2.04;0.92;-0.02;0.0;0.0;0.0;0.0;9.0;5.5;0.2;11.7;0.15;0.44;-10.63;0.95;0.31;1.05
1753876676.69034;0.0;0.0;0.0;-2.04;0.92;-0.02;0.0;0.0;0.0;0.0;0.7;6.1;2.9;11.9;0.15;0.44;-10.62;0.63;0.3;0.9
1753876676.695341;0.0;0.0;0.0;-2.04;0.91;-0.02;0.0;0.0;0.0;0.0;1.9;3.8;2.6;15.2;0.14;0.45;-10.62;0.76;0.36;0.9
1753876676.700341;0.0;0.0;0.0;-2.04;0.92;-0.02;0.0;0.0;0.0;0.0;2.1;4.2;1.4;8.6;0.14;0.44;-10.63;0.71;0.38;0.76
1753876676.705341;0.0;0.0;0.0;-2.04;0.92;-0.02;0.0;0.0;0.0;0.0;-2.9;5.1;5.3;7.0;0.15;0.44;-10.62;0.76;0.32;0.78
1753876676.710341;0.0;0.0;0.0;-2.04;0.91;-0.02;0.0;0.0;0.0;0.0;0.0;3.6;4.3;7.1;0.14;0.44;-10.63;0.78;0.21;0.84
1753876676.715341;0.0;0.0;0.0;-2.04;0.92;-0.02;0.0;0.0;0.0;0.0;4.3;2.1;2.9;8.1;0.15;0.44;-10.62;0.78;0.2;0.94
1753876676.720341;0.0;0.0;0.0;-2.04;0.92;-0.02;0.0;0.0;0.0;0.0;-2.9;2.8;1.3;-0.2;0.15;0.44;-10.63;0.88;0.23;0.84
1753876676.725341;0.0;0.0;0.0;-2.04;0.91;-0.02;0.0;0.0;0.0;0.0;-1.3;4.7;2.9;0.5;0.14;0.44;-10.62;0.88;0.32;0.8
1753876676.730342;0.0;0.0;0.0;-2.04;0.92;-0.02;0.0;0.0;0.0;0.0;-0.4;5.1;5.6;16.3;0.15;0.43;-10.63;0.83;0.22;0.85
1753876676.735342;0.0;0.0;0.0;-2.04;0.91;-0.02;0.0;0.0;0.0;0.0;0.0;3.5;5.0;11.8;0.14;0.44;-10.63;0.69;0.42;0.78
1753876676.740342;0.0;0.0;0.0;-2.04;0.92;-0.02;0.0;0.0;0.0;0.0;-3.0;4.7;6.9;10.8;0.15;0.45;-10.62;0.89;0.34;0.96
1753876676.745342;0.0;0.0;0.0;-2.04;0.92;-0.02;0.0;0.0;0.0;0.0;-1.0;2.4;10.1;2.8;0.15;0.44;-10.63;0.74;0.35;0.92
1753876676.750342;0.0;0.0;0.0;-2.04;0.92;-0.02;0.0;0.0;0.0;0.0;2.8;4.6;3.0;1.8;0.14;0.44;-10.61;0.72;0.44;0.88
1753876676.755342;0.0;0.0;0.0;-2.04;0.91;-0.02;0.0;0.0;0.0;0.0;2.1;2.5;4.4;2.7;0.14;0.44;-10.62;0.72;0.5;0.91
1753876676.760342;0.0;0.0;0.0;-2.04;0.92;-0.02;0.0;0.0;0.0;0.0;-3.3;4.0;9.0;13.4;0.15;0.43;-10.62;0.7;0.2;1.05
1753876676.765342;0.0;0.0;0.0;-2.04;0.92;-0.02;0.0;0.0;0.0;0.0;-2.0;5.5;-1.4;14.4;0.14;0.44;-10.62;0.79;0.28;1.01
1753876676.770342;0.0;0.0;0.0;-2.04;0.91;-0.02;0.0;0.0;0.0;0.0;-2.5;1.9;12.6;6.7;0.14;0.44;-10.62;0.81;0.42;0.96
1753876676.775342;0.0;0.0;0.0;-2.04;0.92;-0.02;0.0;0.0;0.0;0.0;2.5;1.8;0.2;12.1;0.15;0.44;-10.63;0.71;0.27;0.93
1753876676.780342;0.0;0.0;0.0;-2.04;0.91;-0.02;0.0;0.0;0.0;0.0;0.8;1.5;2.3;5.7;0.14;0.44;-10.63;0.85;0.3;0.91
1753876676.785343;0.0;0.0;0.0;-2.04;0.91;-0.02;0.0;0.0;0.0;0.0;1.5;2.5;5.4;9.6;0.15;0.44;-10.62;0.75;0.2;0.93
1753876676.790343;0.0;0.0;0.0;-2.04;0.91;-0.02;0.0;0.0;0.0;0.0;1.6;3.2;9.2;-0.8;0.14;0.44;-10.63;0.8;0.23;0.96
1753876676.795343;0.0;0.0;0.0;-2.04;0.91;-0.02;0.0;0.0;0.0;0.0;-5.0;2.3;3.3;-4.2;0.14;0.44;-10.62;0.69;0.28;0.92
1753876676.800343;0.0;0.0;0.0;-2.04;0.92;-0.02;0.0;0.0;0.0;0.0;-2.5;2.9;4.8;0.2;0.13;0.45;-10.62;1.07;0.36;0.99
1753876676.805343;0.0;0.0;0.0;-2.04;0.91;-0.02;0.0;0.0;0.0;0.0;-1.4;1.8;8.6;11.2;0.14;0.44;-10.61;0.7;0.33;1.02
1753876676.810343;0.0;0.0;0.0;-2.04;0.91;-0.02;0.0;0.0;0.0;0.0;-0.8;0.6;2.8;-0.0;0.14;0.44;-10.62;0.82;0.22;0.76
1753876676.815344;0.0;0.0;0.0;-2.04;0.92;-0.02;0.0;0.0;0.0;0.0;-2.3;0.6;10.2;-13.3;0.14;0.44;-10.62;0.74;0.36;0.88
1753876676.820344;0.0;0.0;0.0;-2.04;0.92;-0.02;0.0;0.0;0.0;0.0;-1.4;4.6;3.1;-5.1;0.15;0.45;-10.62;0.85;0.32;0.94
1753876676.825344;0.0;0.0;0.0;-2.04;0.91;-0.02;0.0;0.0;0.0;0.0;-7.3;1.4;7.5;2.2;0.14;0.44;-10.62;0.85;0.31;1.02
1753876676.830344;0.0;0.0;0.0;-2.04;0.91;-0.02;0.0;0.0;0.0;0.0;0.4;1.4;10.0;-8.6;0.14;0.43;-10.62;0.92;0.22;0.95
1753876676.835344;0.0;0.0;0.0;-2.04;0.92;-0.02;0.0;0.0;0.0;0.0;1.3;2.6;8.5;3.5;0.14;0.44;-10.62;0.79;0.42;0.89
1753876676.840344;0.0;0.0;0.0;-2.04;0.91;-0.02;0.0;0.0;0.0;0.0;-5.7;2.3;10.2;-1.7;0.14;0.44;-10.62;0.86;0.26;0.75
1753876676.845344;0.0;0.0;0.0;-2.04;0.92;-0.02;0.0;0.0;0.0;0.0;-3.3;0.4;8.2;0.2;0.13;0.43;-10.62;0.72;0.37;0.95
1753876676.850344;0.0;0.0;0.0;-2.04;0.91;-0.02;0.0;0.0;0.0;0.0;-7.4;0.3;8.9;5.6;0.14;0.44;-10.62;0.87;0.52;0.89
1753876676.855344;0.0;0.0;0.0;-2.04;0.91;-0.02;0.0;0.0;0.0;0.0;-8.6;-0.2;5.8;-6.8;0.14;0.44;-10.62;0.79;0.29;0.97
1753876676.860344;0.0;0.0;0.0;-2.04;0.91;-0.02;0.0;0.0;0.0;0.0;-0.3;1.2;12.8;3.0;0.14;0.44;-10.62;0.76;0.19;0.85
1753876676.865344;0.0;0.0;0.0;-2.04;0.91;-0.02;0.0;0.0;0.0;0.0;-4.9;0.6;7.0;5.3;0.13;0.44;-10.62;0.9;0.43;0.99
1753876676.870345;0.0;0.0;0.0;-2.04;0.91;-0.02;0.0;0.0;0.0;0.0;-5.1;1.0;8.7;-5.4;0.14;0.43;-10.62;0.84;0.54;0.94
1753876676.875345;0.0;0.0;0.0;-2.04;0.91;-0.02;0.0;0.0;0.0;0.0;-4.2;2.7;7.9;2.4;0.13;0.43;-10.62;0.82;0.29;1.0
1753876676.880345;0.0;0.0;0.0;-2.04;0.91;-0.02;0.0;0.0;0.0;0.0;-5.3;2.8;9.1;-4.0;0.13;0.44;-10.62;0.84;0.41;1.03
1753876676.885345;0.0;0.0;0.0;-2.04;0.91;-0.02;0.0;0.0;0.0;0.0;-5.8;-1.4;9.1;-4.5;0.14;0.44;-10.62;0.71;0.39;0.98
1753876676.890345;0.0;0.0;0.0;-2.04;0.91;-0.02;0.0;0.0;0.0;0.0;-11.8;0.4;11.6;5.7;0.13;0.44;-10.62;0.71;0.34;0.81
1753876676.895345;0.0;0.0;0.0;-2.04;0.91;-0.02;0.0;0.0;0.0;0.0;-8.3;0.3;7.1;6.6;0.13;0.44;-10.62;0.91;0.24;0.88
1753876676.900345;0.0;0.0;0.0;-2.04;0.91;-0.02;0.0;0.0;0.0;0.0;-6.3;1.1;11.7;-11.2;0.13;0.44;-10.62;0.83;0.3;0.83
1753876676.905346;0.0;0.0;0.0;-2.04;0.91;-0.02;0.0;0.0;0.0;0.0;-6.9;1.1;7.3;-5.4;0.14;0.44;-10.62;0.98;0.34;0.93
1753876676.910346;0.0;0.0;0.0;-2.04;0.91;-0.02;0.0;0.0;0.0;0.0;-7.4;2.7;19.2;5.8;0.13;0.44;-10.63;0.8;0.4;1.07
1753876676.915346;0.0;0.0;0.0;-2.04;0.91;-0.02;0.0;0.0;0.0;0.0;-7.8;-0.3;9.9;9.9;0.14;0.45;-10.62;0.91;0.28;0.98
1753876676.920346;0.0;0.0;0.0;-2.04;0.91;-0.02;0.0;0.0;0.0;0.0;-3.9;2.6;12.6;-7.3;0.12;0.44;-10.62;0.72;0.46;0.97
1753876676.925346;0.0;0.0;0.0;-2.04;0.91;-0.02;0.0;0.0;0.0;0.0;-3.1;1.9;10.0;-7.2;0.13;0.44;-10.61;0.8;0.42;0.96
1753876676.930346;0.0;0.0;0.0;-2.04;0.91;-0.02;0.0;0.0;0.0;0.0;-2.6;-0.2;10.6;-2.6;0.14;0.44;-10.61;0.85;0.43;0.84
1753876676.935346;0.0;0.0;0.0;-2.04;0.91;-0.02;0.0;0.0;0.0;0.0;-7.5;0.5;10.6;-9.5;0.14;0.44;-10.61;0.91;0.53;0.89
1753876676.940346;0.0;0.0;0.0;-2.04;0.91;-0.02;0.0;0.0;0.0;0.0;-9.4;-1.2;14.3;-1.2;0.13;0.45;-10.62;0.8;0.4;0.73
1753876676.945346;0.0;0.0;0.0;-2.04;0.91;-0.02;0.0;0.0;0.0;0.0;-5.2;1.8;10.9;-3.5;0.13;0.45;-10.63;0.83;0.37;0.97
1753876676.950346;0.0;0.0;0.0;-2.04;0.92;-0.02;0.0;0.0;0.0;0.0;-5.1;-1.6;13.9;-8.4;0.14;0.44;-10.62;0.77;0.38;0.96
1753876676.955346;0.0;0.0;0.0;-2.04;0.91;-0.02;0.0;0.0;0.0;0.0;-5.5;-2.9;10.8;-11.2;0.13;0.44;-10.62;0.84;0.31;0.9
1753876676.960347;0.0;0.0;0.0;-2.04;0.91;-0.02;0.0;0.0;0.0;0.0;-6.4;2.4;14.1;-10.1;0.13;0.44;-10.62;0.78;0.42;0.97
1753876676.965347;0.0;0.0;0.0;-2.04;0.91;-0.02;0.0;0.0;0.0;0.0;-7.1;-2.0;12.3;-7.7;0.13;0.44;-10.61;0.91;0.28;1.03
1753876676.970347;0.0;0.0;0.0;-2.04;0.91;-0.02;0.0;0.0;0.0;0.0;-8.3;1.1;6.3;-5.9;0.13;0.44;-10.62;0.9;0.38;1.0
1753876676.975347;0.0;0.0;0.0;-2.04;0.91;-0.02;0.0;0.0;0.0;0.0;-7.8;0.7;6.3;-11.2;0.13;0.44;-10.62;0.67;0.31;0.89
1753876676.980347;0.0;0.0;0.0;-2.04;0.91;-0.02;0.0;0.0;0.0;0.0;-7.2;-3.4;4.9;-5.9;0.13;0.44;-10.62;0.81;0.24;1.03
1753876676.985347;0.0;0.0;0.0;-2.04;0.91;-0.02;0.0;0.0;0.0;0.0;-9.3;1.3;13.5;-2.2;0.13;0.44;-10.63;0.75;0.27;0.89
1753876676.990348;0.0;0.0;0.0;-2.04;0.91;-0.02;0.0;0.0;0.0;0.0;-7.1;1.6;14.3;-8.8;0.13;0.44;-10.62;0.92;0.4;0.94
1753876676.995339;0.0;0.0;0.0;-2.04;0.91;-0.02;0.0;0.0;0.0;0.0;-9.0;-1.0;12.0;-10.0;0.13;0.44;-10.62;0.83;0.39;0.94
1753876677.000339;0.0;0.0;0.0;-2.04;0.91;-0.02;0.0;0.0;0.0;0.0;-9.0;-1.0;12.0;-10.0;0.13;0.45;-10.62;0.8;0.32;0.86
1753876677.005339;0.0;0.0;0.0;-2.04;0.91;-0.02;0.0;0.0;0.0;0.0;-9.0;-1.0;12.0;-10.0;0.12;0.44;-10.62;0.71;0.34;0.9
1753876677.010339;0.0;0.0;0.0;-2.04;0.91;-0.02;0.0;0.0;0.0;0.0;-9.0;-1.0;12.0;-10.0;0.12;0.44;-10.62;0.75;0.32;1.01
1753876677.015339;0.0;0.0;0.0;-2.04;0.91;-0.02;0.0;0.0;0.0;0.0;-9.0;-1.0;12.0;-10.0;0.12;0.45;-10.62;0.88;0.29;1.06
1753876677.020339;0.0;0.0;0.0;-2.04;0.91;-0.02;0.0;0.0;0.0;0.0;-9.0;-1.0;12.0;-10.0;0.13;0.45;-10.62;0.77;0.34;0.86
1753876677.025339;0.0;0.0;0.0;-2.04;0.91;-0.02;0.0;0.0;0.0;0.0;-9.0;-1.0;12.0;-10.0;0.13;0.45;-10.62;0.71;0.36;0.99
1753876677.030339;0.0;0.0;0.0;-2.04;0.91;-0.02;0.0;0.0;0.0;0.0;-9.0;-1.0;12.0;-10.0;0.13;0.45;-10.63;0.79;0.24;0.8
1753876677.035339;0.0;0.0;0.0;-2.04;0.91;-0.02;0.0;0.0;0.0;0.0;-9.0;-1.0;12.0;-10.0;0.13;0.45;-10.63;0.77;0.18;0.78
1753876677.040339;0.0;0.0;0.0;-2.04;0.91;-0.02;0.0;0.0;0.0;0.0;-9.0;-1.0;12.0;-10.0;0.13;0.46;-10.63;0.83;0.3;0.94
1753876677.045339;0.0;0.0;0.0;-2.04;0.91;-0.02;0.0;0.0;0.0;0.0;-9.0;-1.0;12.0;-10.0;0.13;0.46;-10.63;0.75;0.35;0.93
1753876677.050339;0.0;0.0;0.0;-2.04;0.91;-0.02;0.0;0.0;0.0;0.0;-9.0;-1.0;12.0;-10.0;0.13;0.46;-10.63;0.82;0.16;0.84
1753876677.055339;0.0;0.0;0.0;-2.04;0.91;-0.02;0.0;0.0;0.0;0.0;-9.0;-1.0;12.0;-10.0;0.13;0.46;-10.63;0.83;0.32;0.9
1753876677.060339;0.0;0.0;0.0;-2.04;0.91;-0.02;0.0;0.0;0.0;0.0;-9.0;-1.0;12.0;-10.0;0.13;0.46;-10.63;0.93;0.32;0.77
1753876677.065339;0.0;0.0;0.0;-2.04;0.91;-0.02;0.0;0.0;0.0;0.0;-9.0;-1.0;12.0;-10.0;0.13;0.45;-10.64;0.83;0.23;0.89
1753876677.070339;0.0;0.0;0.0;-2.04;0.91;-0.02;0.0;0.0;0.0;0.0;-9.0;-1.0;12.0;-10.0;0.13;0.45;-10.64;0.83;0.2;0.88
1753876677.075339;0.0;0.0;0.0;-2.04;0.91;-0.02;0.0;0.0;0.0;0.0;-9.0;-1.0;12.0;-10.0;0.13;0.45;-10.64;0.82;0.27;0.92
1753876677.080339;0.0;0.0;0.0;-2.04;0.91;-0.02;0.0;0.0;0.0;0.0;-9.0;-1.0;12.0;-10.0;0.12;0.45;-10.64;0.79;0.29;1.01
1753876677.085339;0.0;0.0;0.0;-2.04;0.91;-0.02;0.0;0.0;0.0;0.0;-9.0;-1.0;12.0;-10.0;0.13;0.45;-10.64;0.74;0.3;0.88
1753876677.090339;0.0;0.0;0.0;-2.04;0.91;-0.02;0.0;0.0;0.0;0.0;-9.0;-1.0;12.0;-10.0;0.13;0.44;-10.63;0.74;0.31;0.9
1753876677.095339;0.0;0.0;0.0;-2.04;0.91;-0.02;0.0;0.0;0.0;0.0;-9.0;-1.0;12.0;-10.0;0.13;0.44;-10.63;0.75;0.05;1.03
1753876677.100339;0.0;0.0;0.0;-2.04;0.91;-0.02;0.0;0.0;0.0;0.0;-9.0;-1.0;12.0;-10.0;0.13;0.44;-10.63;0.81;0.21;0.92
1753876677.105339;0.0;0.0;0.0;-2.04;0.91;-0.02;0.0;0.0;0.0;0.0;-9.0;-1.0;12.0;-10.0;0.13;0.45;-10.63;0.7;0.26;0.89
1753876677.110339;0.0;0.0;0.0;-2.04;0.91;-0.02;0.0;0.0;0.0;0.0;-9.0;-1.0;12.0;-10.0;0.13;0.44;-10.63;0.9;0.18;0.85
1753876677.115339;0.0;0.0;0.0;-2.04;0.91;-0.02;0.0;0.0;0.0;0.0;-9.0;-1.0;12.0;-10.0;0.13;0.45;-10.63;0.71;0.29;0.78
1753876677.120339;0.0;0.0;0.0;-2.04;0.91;-0.02;0.0;0.0;0.0;0.0;-9.0;-1.0;12.0;-10.0;0.13;0.45;-10.62;0.87;0.24;1.03
1753876677.125339;0.0;0.0;0.0;-2.04;0.91;-0.02;0.0;0.0;0.0;0.0;-9.0;-1.0;12.0;-10.0;0.13;0.45;-10.62;0.83;0.37;0.69
1753876677.130339;0.0;0.0;0.0;-2.04;0.91;-0.02;0.0;0.0;0.0;0.0;-9.0;-1.0;12.0;-10.0;0.13;0.45;-10.63;0.84;0.29;0.87
1753876677.135339;0.0;0.0;0.0;-2.04;0.91;-0.02;0.0;0.0;0.0;0.0;-9.0;-1.0;12.0;-10.0;0.14;0.45;-10.63;0.79;0.31;1.02
1753876677.140339;0.0;0.0;0.0;-2.04;0.91;-0.02;0.0;0.0;0.0;0.0;-9.0;-1.0;12.0;-10.0;0.14;0.45;-10.63;0.77;0.26;0.94
1753876677.145339;0.0;0.0;0.0;-2.04;0.91;-0.02;0.0;0.0;0.0;0.0;-9.0;-1.0;12.0;-10.0;0.13;0.44;-10.63;0.8;0.27;0.9
1753876677.150339;0.0;0.0;0.0;-2.04;0.91;-0.02;0.0;0.0;0.0;0.0;-9.0;-1.0;12.0;-10.0;0.14;0.45;-10.64;0.71;0.16;0.8
1753876677.155339;0.0;0.0;0.0;-2.04;0.91;-0.02;0.0;0.0;0.0;0.0;-9.0;-1.0;12.0;-10.0;0.14;0.44;-10.63;0.78;0.12;0.86
1753876677.160339;0.0;0.0;0.0;-2.04;0.91;-0.02;0.0;0.0;0.0;0.0;-9.0;-1.0;12.0;-10.0;0.14;0.44;-10.63;0.85;0.23;0.85
1753876677.165339;0.0;0.0;0.0;-2.04;0.91;-0.02;0.0;0.0;0.0;0.0;-9.0;-1.0;12.0;-10.0;0.14;0.44;-10.63;0.82;0.29;0.99
1753876677.170339;0.0;0.0;0.0;-2.04;0.91;-0.02;0.0;0.0;0.0;0.0;-9.0;-1.0;12.0;-10.0;0.14;0.44;-10.63;0.82;0.29;0.94
1753876677.175339;0.0;0.0;0.0;-2.04;0.91;-0.02;0.0;0.0;0.0;0.0;-9.0;-1.0;12.0;-10.0;0.14;0.44;-10.63;0.81;0.2;0.83
1753876677.180339;0.0;0.0;0.0;-2.04;0.91;-0.02;0.0;0.0;0.0;0.0;-9.0;-1.0;12.0;-10.0;0.14;0.44;-10.62;0.77;0.33;0.88
1753876677.185339;0.0;0.0;0.0;-2.04;0.91;-0.02;0.0;0.0;0.0;0.0;-9.0;-1.0;12.0;-10.0;0.13;0.44;-10.62;0.79;0.38;0.96
1753876677.190339;0.0;0.0;0.0;-2.04;0.91;-0.02;0.0;0.0;0.0;0.0;-9.0;-1.0;12.0;-10.0;0.14;0.44;-10.63;0.77;0.26;0.89
1753876677.195339;0.0;0.0;0.0;-2.04;0.91;-0.02;0.0;0.0;0.0;0.0;-9.0;-1.0;12.0;-10.0;0.14;0.44;-10.63;0.81;0.21;0.86
1753876677.200339;0.0;0.0;0.0;-2.04;0.91;-0.02;0.0;0.0;0.0;0.0;-9.0;-1.0;12.0;-10.0;0.14;0.45;-10.63;0.9;0.28;0.96
1753876677.205339;0.0;0.0;0.0;-2.04;0.91;-0.02;0.0;0.0;0.0;0.0;-9.0;-1.0;12.0;-10.0;0.14;0.45;-10.62;0.73;0.2;1.01
1753876677.210339;0.0;0.0;0.0;-2.04;0.91;-0.02;0.0;0.0;0.0;0.0;-9.0;-1.0;12.0;-10.0;0.13;0.44;-10.62;0.72;0.27;0.87
1753876677.215339;0.0;0.0;0.0;-2.05;0.91;-0.02;0.0;0.0;0.0;0.0;-8.8;-1.0;11.1;-1.4;0.13;0.44;-10.62;0.64;0.26;1.05
1753876677.220339;0.0;0.0;0.0;-2.05;0.91;-0.02;0.0;0.0;0.0;0.0;-8.8;-1.0;11.5;-3.0;0.14;0.44;-10.61;0.74;0.22;0.78
1753876677.22534;0.0;0.0;0.0;-2.04;0.91;-0.02;0.0;0.0;0.0;0.0;-8.7;-1.0;11.1;-6.1;0.13;0.44;-10.62;0.81;0.24;0.88
1753876677.23034;0.0;0.0;0.0;-2.04;0.91;-0.02;0.0;0.0;0.0;0.0;-8.9;-1.0;11.9;-14.1;0.13;0.44;-10.62;0.7;0.23;0.87
1753876677.23534;0.0;0.0;0.0;-2.04;0.91;-0.02;0.0;0.0;0.0;0.0;-8.8;-1.0;10.6;-12.3;0.13;0.44;-10.61;0.75;0.28;0.83
1753876677.24034;0.0;0.0;0.0;-2.04;0.91;-0.02;0.0;0.0;0.0;0.0;-8.3;-1.0;8.4;-12.8;0.14;0.44;-10.62;0.72;0.31;0.91
1753876677.24534;0.0;0.0;0.0;-2.04;0.91;-0.02;0.0;0.0;0.0;0.0;-8.9;-1.0;12.7;1.0;0.13;0.44;-10.63;0.72;0.32;0.91
1753876677.25034;0.0;0.0;0.0;-2.04;0.91;-0.02;0.0;0.0;0.0;0.0;-8.8;-1.0;10.2;1.7;0.13;0.44;-10.62;0.8;0.28;0.74
1753876677.25534;0.0;0.0;0.0;-2.04;0.91;-0.02;0.0;0.0;0.0;0.0;-8.7;-1.0;9.6;-5.9;0.13;0.43;-10.61;0.79;0.33;0.75
1753876677.26034;0.0;0.0;0.0;-2.04;0.91;-0.02;0.0;0.0;0.0;0.0;-8.5;-1.0;9.9;-10.3;0.13;0.44;-10.62;0.76;0.25;0.75
1753876677.26534;0.0;0.0;0.0;-2.04;0.91;-0.02;0.0;0.0;0.0;0.0;-8.4;-1.0;10.2;1.0;0.14;0.43;-10.62;0.71;0.22;0.85
1753876677.27034;0.0;0.0;0.0;-2.03;0.91;-0.02;0.0;0.0;0.0;0.0;-9.0;-1.0;10.7;2.3;0.13;0.44;-10.62;0.79;0.25;0.82
1753876677.27534;0.0;0.0;0.0;-2.03;0.91;-0.02;0.0;0.0;0.0;0.0;-8.5;-1.0;10.0;12.2;0.14;0.44;-10.62;0.77;0.27;1.03
1753876677.280341;0.0;0.0;0.0;-2.03;0.91;-0.02;0.0;0.0;0.0;0.0;-8.3;-1.0;8.6;8.2;0.14;0.43;-10.62;0.83;0.3;0.97
1753876677.285341;0.0;0.0;0.0;-2.04;0.91;-0.02;0.0;0.0;0.0;0.0;-8.3;-1.0;8.8;-1.4;0.13;0.44;-10.62;0.69;0.29;1.01
1753876677.290341;0.0;0.0;0.0;-2.04;0.91;-0.02;0.0;0.0;0.0;0.0;-8.6;-1.0;7.7;-5.4;0.14;0.44;-10.62;0.85;0.17;0.81
1753876677.295341;0.0;0.0;0.0;-2.04;0.91;-0.02;0.0;0.0;0.0;0.0;-8.5;-1.0;9.9;4.5;0.14;0.42;-10.62;0.82;0.25;1.0
1753876677.300341;0.0;0.0;0.0;-2.03;0.91;-0.02;0.0;0.0;0.0;0.0;-8.5;-1.0;9.3;13.4;0.13;0.43;-10.62;0.79;0.24;0.9
1753876677.305341;0.0;0.0;0.0;-2.03;0.91;-0.02;0.0;0.0;0.0;0.0;-8.5;-1.0;6.2;5.2;0.14;0.43;-10.62;0.82;0.18;0.79
1753876677.310341;0.0;0.0;0.0;-2.03;0.91;-0.02;0.0;0.0;0.0;0.0;-8.3;-1.0;8.4;14.1;0.13;0.43;-10.63;0.72;0.2;0.88
1753876677.315342;0.0;0.0;0.0;-2.04;0.91;-0.02;0.0;0.0;0.0;0.0;-8.1;-1.0;9.0;2.8;0.13;0.43;-10.61;0.77;0.16;0.81
1753876677.320342;0.0;0.0;0.0;-2.03;0.91;-0.02;0.0;0.0;0.0;0.0;-8.1;-1.0;7.1;12.3;0.14;0.42;-10.62;0.86;0.28;1.01
1753876677.325342;0.0;0.0;0.0;-2.03;0.91;-0.02;0.0;0.0;0.0;0.0;-8.1;-1.0;9.9;13.8;0.13;0.42;-10.63;0.8;0.23;0.73
1753876677.330342;0.0;0.0;0.0;-2.03;0.91;-0.02;0.0;0.0;0.0;0.0;-8.4;-1.0;7.4;9.9;0.13;0.44;-10.62;0.78;0.15;0.84
1753876677.335342;0.0;0.0;0.0;-2.03;0.91;-0.02;0.0;0.0;0.0;0.0;-8.0;-1.0;9.3;16.5;0.15;0.43;-10.63;0.78;0.25;0.82
1753876677.340342;0.0;0.0;0.0;-2.03;0.91;-0.02;0.0;0.0;0.0;0.0;-8.1;-1.0;7.3;20.3;0.14;0.43;-10.62;0.83;0.23;0.84
1753876677.345342;0.0;0.0;0.0;-2.03;0.91;-0.02;0.0;0.0;0.0;0.0;-8.1;-1.0;7.9;20.5;0.14;0.43;-10.62;0.86;0.24;0.9
1753876677.350342;0.0;0.0;0.0;-2.03;0.91;-0.02;0.0;0.0;0.0;0.0;-8.0;-1.0;5.8;10.5;0.14;0.43;-10.62;0.83;0.22;0.86
1753876677.355342;0.0;0.0;0.0;-2.03;0.91;-0.02;0.0;0.0;0.0;0.0;-8.1;-1.0;7.9;18.6;0.14;0.43;-10.63;0.82;0.28;0.96
1753876677.360339;0.0;0.0;0.0;-2.03;0.91;-0.02;0.0;0.0;0.0;0.0;-8.0;-1.0;6.0;20.0;0.14;0.43;-10.62;0.84;0.19;0.92
1753876677.365339;0.0;0.0;0.0;-2.03;0.91;-0.02;0.0;0.0;0.0;0.0;-8.0;-1.0;6.0;20.0;0.14;0.44;-10.62;0.87;0.31;0.99
1753876677.370339;0.0;0.0;0.0;-2.03;0.91;-0.02;0.0;0.0;0.0;0.0;-8.0;-1.0;6.0;20.0;0.14;0.43;-10.62;0.8;0.3;0.9
1753876677.375339;0.0;0.0;0.0;-2.03;0.91;-0.02;0.0;0.0;0.0;0.0;-8.0;-1.0;7.6;16.2;0.15;0.43;-10.62;0.75;0.22;0.93
1753876677.38034;0.0;0.0;0.0;-2.03;0.91;-0.02;0.0;0.0;0.0;0.0;-7.9;-1.0;2.6;20.1;0.14;0.44;-10.62;0.79;0.27;0.9
1753876677.385339;0.0;0.0;0.0;-2.03;0.91;-0.02;0.0;0.0;0.0;0.0;-8.0;-1.0;6.0;20.0;0.14;0.44;-10.63;0.78;0.32;0.87
1753876677.390339;0.0;0.0;0.0;-2.03;0.91;-0.02;0.0;0.0;0.0;0.0;-8.0;-1.0;6.0;20.0;0.14;0.43;-10.63;0.67;0.33;0.95
1753876677.395339;0.0;0.0;0.0;-2.03;0.91;-0.02;0.0;0.0;0.0;0.0;-8.0;-1.0;6.0;20.0;0.13;0.43;-10.63;0.79;0.28;0.88
1753876677.400339;0.0;0.0;0.0;-2.04;0.91;-0.02;0.0;0.0;0.0;0.0;-6.7;1.8;5.0;15.9;0.13;0.44;-10.62;0.77;0.23;0.77
1753876677.405339;0.0;0.0;0.0;-2.03;0.91;-0.02;0.0;0.0;0.0;0.0;-7.8;-2.7;6.4;13.8;0.13;0.43;-10.62;0.79;0.23;0.82
1753876677.410339;0.0;0.0;0.0;-2.03;0.91;-0.02;0.0;0.0;0.0;0.0;-10.1;-0.0;9.6;28.6;0.12;0.43;-10.64;0.8;0.2;0.77
1753876677.41534;0.0;0.0;0.0;-2.03;0.91;-0.02;0.0;0.0;0.0;0.0;-4.5;-0.2;9.0;3.3;0.13;0.43;-10.62;0.9;0.25;0.85
1753876677.42034;0.0;0.0;0.0;-2.04;0.91;-0.02;0.0;0.0;0.0;0.0;-3.3;1.0;6.5;1.2;0.12;0.43;-10.63;0.78;0.33;0.87
1753876677.42534;0.0;0.0;0.0;-2.03;0.91;-0.02;0.0;0.0;0.0;0.0;-2.4;0.9;2.3;2.5;0.13;0.44;-10.64;0.74;0.37;0.91
1753876677.43034;0.0;0.0;0.0;-2.02;0.91;-0.02;0.0;0.0;0.0;0.0;-4.3;0.7;9.6;49.1;0.13;0.44;-10.64;0.72;0.38;0.86
1753876677.43534;0.0;0.0;0.0;-2.03;0.91;-0.02;0.0;0.0;0.0;0.0;-0.5;1.7;2.7;-1.6;0.14;0.43;-10.63;0.81;0.26;0.87
1753876677.44034;0.0;0.0;0.0;-2.02;0.91;-0.02;0.0;0.0;0.0;0.0;-6.1;2.0;8.7;16.9;0.12;0.43;-10.63;0.75;0.28;0.82
1753876677.44534;0.0;0.0;0.0;-2.02;0.91;-0.02;0.0;0.0;0.0;0.0;3.6;3.9;5.7;17.2;0.12;0.44;-10.63;0.81;0.2;0.91
1753876677.45034;0.0;0.0;0.0;-2.03;0.91;-0.02;0.0;0.0;0.0;0.0;-6.5;1.0;6.2;29.3;0.12;0.44;-10.64;0.8;0.34;0.96
1753876677.45534;0.0;0.0;0.0;-2.04;0.91;-0.02;0.0;0.0;0.0;0.0;-4.8;-0.1;11.3;43.1;0.13;0.43;-10.63;0.76;0.42;0.86
1753876677.46034;0.0;0.0;0.0;-2.03;0.91;-0.02;0.0;0.0;0.0;0.0;-3.5;-1.7;9.0;2.4;0.11;0.43;-10.63;0.87;0.37;0.86
1753876677.46534;0.0;0.0;0.0;-2.03;0.91;-0.02;0.0;0.0;0.0;0.0;4.7;2.1;5.8;12.4;0.13;0.43;-10.64;0.82;0.32;0.89
1753876677.470341;0.0;0.0;0.0;-2.03;0.91;-0.02;0.0;0.0;0.0;0.0;8.0;1.4;12.5;21.1;0.14;0.43;-10.62;0.82;0.26;0.82
1753876677.475341;0.0;0.0;0.0;-2.03;0.91;-0.02;0.0;0.0;0.0;0.0;9.5;4.5;3.0;20.5;0.11;0.44;-10.63;0.79;0.33;0.93
1753876677.480341;0.0;0.0;0.0;-2.03;0.91;-0.02;0.0;0.0;0.0;0.0;13.9;1.5;14.3;11.7;0.12;0.43;-10.63;0.75;0.29;0.89
1753876677.485341;0.0;0.0;0.0;-2.02;0.91;-0.02;0.0;0.0;0.0;0.0;9.4;3.7;8.2;22.3;0.12;0.43;-10.63;0.79;0.38;0.95
1753876677.490341;0.0;0.0;0.0;-2.02;0.91;-0.02;0.0;0.0;0.0;0.0;3.5;2.3;12.4;20.0;0.13;0.45;-10.63;0.79;0.33;0.89
1753876677.495341;0.0;0.0;0.0;-2.02;0.91;-0.02;0.0;0.0;0.0;0.0;8.2;1.5;6.3;7.6;0.13;0.45;-10.62;0.77;0.34;0.83
1753876677.500342;0.0;0.0;0.0;-2.03;0.91;-0.02;0.0;0.0;0.0;0.0;13.1;1.3;9.6;-2.2;0.11;0.44;-10.64;0.85;0.26;0.91
1753876677.505342;0.0;0.0;0.0;-2.02;0.91;-0.02;0.0;0.0;0.0;0.0;1.8;2.6;11.8;10.9;0.12;0.45;-10.64;0.81;0.24;0.95
1753876677.510342;0.0;0.0;0.0;-2.03;0.91;-0.02;0.0;0.0;0.0;0.0;10.3;5.2;12.3;13.6;0.13;0.45;-10.63;0.79;0.29;0.91
1753876677.515342;0.0;0.0;0.0;-2.02;0.91;-0.02;0.0;0.0;0.0;0.0;0.8;2.7;9.7;10.1;0.12;0.44;-10.64;0.77;0.4;0.98
1753876677.520342;0.0;0.0;0.0;-2.03;0.91;-0.02;0.0;0.0;0.0;0.0;10.5;6.2;11.5;9.0;0.12;0.44;-10.62;0.9;0.25;0.96
1753876677.525342;0.0;0.0;0.0;-2.02;0.91;-0.02;0.0;0.0;0.0;0.0;17.8;4.3;10.8;16.6;0.13;0.45;-10.62;0.78;0.37;0.95
1753876677.530342;0.0;0.0;0.0;-2.03;0.91;-0.02;0.0;0.0;0.0;0.0;19.1;3.3;6.0;23.4;0.13;0.45;-10.62;0.79;0.28;0.92
1753876677.535342;0.0;0.0;0.0;-2.03;0.91;-0.02;0.0;0.0;0.0;0.0;12.6;9.3;8.1;6.2;0.12;0.45;-10.63;0.86;0.42;1.05
1753876677.540342;0.0;0.0;0.0;-2.02;0.91;-0.02;0.0;0.0;0.0;0.0;8.2;6.6;6.7;37.9;0.12;0.46;-10.63;0.8;0.32;0.94
1753876677.545339;0.0;0.0;0.0;-2.02;0.91;-0.02;0.0;0.0;0.0;0.0;14.0;6.0;10.0;17.0;0.12;0.45;-10.63;0.82;0.34;0.93
1753876677.550339;0.0;0.0;0.0;-2.02;0.91;-0.02;0.0;0.0;0.0;0.0;14.0;6.0;10.0;17.0;0.13;0.45;-10.63;0.78;0.25;0.91
1753876677.555339;0.0;0.0;0.0;-2.02;0.91;-0.02;0.0;0.0;0.0;0.0;14.0;6.0;10.0;17.0;0.14;0.45;-10.63;0.83;0.26;0.9
1753876677.560339;0.0;0.0;0.0;-2.02;0.91;-0.02;0.0;0.0;0.0;0.0;14.0;6.0;10.0;17.0;0.13;0.45;-10.62;0.75;0.35;0.96
1753876677.565339;0.0;0.0;0.0;-2.02;0.91;-0.02;0.0;0.0;0.0;0.0;14.0;6.0;10.0;17.0;0.13;0.45;-10.63;0.74;0.19;0.96
1753876677.570339;0.0;0.0;0.0;-2.02;0.91;-0.02;0.0;0.0;0.0;0.0;14.0;6.0;10.0;17.0;0.13;0.45;-10.62;0.8;0.26;0.82
1753876677.575339;0.0;0.0;0.0;-2.02;0.91;-0.02;0.0;0.0;0.0;0.0;14.0;6.0;10.0;17.0;0.13;0.45;-10.62;0.66;0.25;0.9
1753876677.580339;0.0;0.0;0.0;-2.02;0.91;-0.02;0.0;0.0;0.0;0.0;14.0;6.0;10.0;17.0;0.13;0.45;-10.62;0.74;0.25;1.06
1753876677.585339;0.0;0.0;0.0;-2.02;0.91;-0.02;0.0;0.0;0.0;0.0;14.0;6.0;10.0;17.0;0.12;0.45;-10.63;0.65;0.35;0.82
1753876677.590339;0.0;0.0;0.0;-2.02;0.91;-0.02;0.0;0.0;0.0;0.0;14.0;6.0;10.0;17.0;0.12;0.45;-10.63;0.74;0.25;0.84
1753876677.595339;0.0;0.0;0.0;-2.02;0.91;-0.02;0.0;0.0;0.0;0.0;14.0;6.0;10.0;17.0;0.13;0.44;-10.63;0.82;0.32;0.84
1753876677.600339;0.0;0.0;0.0;-2.02;0.91;-0.02;0.0;0.0;0.0;0.0;14.0;6.0;10.0;17.0;0.13;0.44;-10.62;0.75;0.19;0.93
1753876677.605339;0.0;0.0;0.0;-2.02;0.91;-0.02;0.0;0.0;0.0;0.0;14.0;6.0;10.0;17.0;0.12;0.44;-10.63;0.85;0.1;0.93
1753876677.610339;0.0;0.0;0.0;-2.02;0.91;-0.02;0.0;0.0;0.0;0.0;14.0;6.0;10.0;17.0;0.12;0.44;-10.63;0.8;0.22;1.03
1753876677.615339;0.0;0.0;0.0;-2.02;0.91;-0.02;0.0;0.0;0.0;0.0;-1.8;3.7;6.0;17.0;0.11;0.43;-10.63;0.87;0.17;1.06
1753876677.62034;0.0;0.0;0.0;-2.02;0.91;-0.02;0.0;0.0;0.0;0.0;10.4;6.5;8.5;17.0;0.13;0.46;-10.63;0.9;0.21;0.93
1753876677.62534;0.0;0.0;0.0;-2.02;0.91;-0.02;0.0;0.0;0.0;0.0;1.9;1.9;10.2;17.2;0.12;0.45;-10.63;0.84;0.25;1.09
1753876677.63034;0.0;0.0;0.0;-2.02;0.91;-0.02;0.0;0.0;0.0;0.0;14.2;5.8;5.4;15.3;0.12;0.44;-10.63;0.85;0.26;1.03
1753876677.63534;0.0;0.0;0.0;-2.02;0.9;-0.02;0.0;0.0;0.0;0.0;2.6;5.2;5.5;16.9;0.13;0.42;-10.63;0.84;0.3;0.91
1753876677.64034;0.0;0.0;0.0;-2.01;0.91;-0.02;0.0;0.0;0.0;0.0;5.0;8.2;7.1;17.1;0.13;0.44;-10.62;0.92;0.31;0.9
1753876677.64534;0.0;0.0;0.0;-2.02;0.91;-0.02;0.0;0.0;0.0;0.0;9.0;2.8;9.1;15.7;0.13;0.46;-10.62;0.77;0.24;0.88
1753876677.65034;0.0;0.0;0.0;-2.02;0.9;-0.02;0.0;0.0;0.0;0.0;24.6;5.4;7.0;15.4;0.12;0.44;-10.62;0.88;0.23;0.93
1753876677.65534;0.0;0.0;0.0;-2.02;0.91;-0.02;0.0;0.0;0.0;0.0;3.5;6.7;8.2;15.6;0.13;0.44;-10.63;0.8;0.28;0.91
1753876677.66034;0.0;0.0;0.0;-2.02;0.91;-0.02;0.0;0.0;0.0;0.0;19.5;-1.4;8.0;14.6;0.12;0.44;-10.62;0.71;0.26;0.95
1753876677.66534;0.0;0.0;0.0;-2.02;0.9;-0.02;0.0;0.0;0.0;0.0;-15.9;5.6;6.6;15.2;0.13;0.44;-10.61;0.88;0.18;0.83
1753876677.67034;0.0;0.0;0.0;-2.02;0.9;-0.02;0.0;0.0;0.0;0.0;13.5;0.2;6.6;17.1;0.14;0.45;-10.62;0.83;0.12;1.08
1753876677.675341;0.0;0.0;0.0;-2.02;0.91;-0.02;0.0;0.0;0.0;0.0;-26.3;5.9;8.7;19.2;0.14;0.45;-10.63;0.85;0.31;0.99
1753876677.680341;0.0;0.0;0.0;-2.02;0.9;-0.02;0.0;0.0;0.0;0.0;5.2;-0.7;5.0;16.6;0.13;0.44;-10.63;0.82;0.26;1.06
1753876677.685341;0.0;0.0;0.0;-2.01;0.9;-0.02;0.0;0.0;0.0;0.0;-10.5;5.0;5.8;17.4;0.14;0.45;-10.62;0.78;0.26;0.93
1753876677.690341;0.0;0.0;0.0;-2.02;0.9;-0.02;0.0;0.0;0.0;0.0;-17.7;2.4;7.2;18.1;0.12;0.45;-10.62;0.84;0.22;0.93
1753876677.695341;0.0;0.0;0.0;-2.02;0.9;-0.02;0.0;0.0;0.0;0.0;9.2;-4.5;5.2;15.7;0.13;0.45;-10.62;0.9;0.27;0.94
1753876677.700341;0.0;0.0;0.0;-2.03;0.9;-0.02;0.0;0.0;0.0;0.0;-6.1;2.3;2.3;17.7;0.12;0.45;-10.63;0.8;0.3;0.93
1753876677.705341;0.0;0.0;0.0;-2.01;0.9;-0.02;0.0;0.0;0.0;0.0;6.9;2.6;6.8;16.7;0.14;0.45;-10.62;0.87;0.23;0.95
1753876677.710342;0.0;0.0;0.0;-2.01;0.9;-0.02;0.0;0.0;0.0;0.0;-6.5;6.7;7.9;17.7;0.14;0.45;-10.62;1.01;0.34;0.97
1753876677.715342;0.0;0.0;0.0;-2.03;0.9;-0.02;0.0;0.0;0.0;0.0;-10.0;1.6;5.8;17.3;0.14;0.47;-10.63;0.82;0.2;0.91
1753876677.720342;0.0;0.0;0.0;-2.02;0.9;-0.02;0.0;0.0;0.0;0.0;7.3;-3.0;1.9;16.1;0.13;0.43;-10.62;0.92;0.17;1.0
1753876677.725339;0.0;0.0;0.0;-2.02;0.9;-0.02;0.0;0.0;0.0;0.0;-8.0;-1.0;3.0;17.0;0.14;0.45;-10.62;0.89;0.25;0.93
1753876677.730339;0.0;0.0;0.0;-2.02;0.9;-0.02;0.0;0.0;0.0;0.0;-8.0;-1.0;3.0;17.0;0.14;0.45;-10.62;0.79;0.17;0.91
1753876677.735339;0.0;0.0;0.0;-2.02;0.9;-0.02;0.0;0.0;0.0;0.0;-8.0;-1.0;3.0;17.0;0.14;0.45;-10.63;0.78;0.35;0.93
1753876677.740339;0.0;0.0;0.0;-2.02;0.9;-0.02;0.0;0.0;0.0;0.0;-8.0;-1.0;3.0;17.0;0.14;0.45;-10.63;0.9;0.25;0.91
1753876677.745339;0.0;0.0;0.0;-2.02;0.9;-0.02;0.0;0.0;0.0;0.0;-8.0;-1.0;3.0;17.0;0.14;0.45;-10.63;0.89;0.29;0.97
1753876677.750339;0.0;0.0;0.0;-2.02;0.9;-0.02;0.0;0.0;0.0;0.0;-8.0;-1.0;3.0;17.0;0.15;0.45;-10.63;0.86;0.29;0.8
1753876677.755339;0.0;0.0;0.0;-2.02;0.9;-0.02;0.0;0.0;0.0;0.0;-8.0;-1.0;3.0;17.0;0.15;0.45;-10.64;0.76;0.36;0.97
1753876677.760339;0.0;0.0;0.0;-2.02;0.9;-0.02;0.0;0.0;0.0;0.0;-8.0;-1.0;3.0;17.0;0.14;0.44;-10.64;0.72;0.29;0.86
1753876677.765339;0.0;0.0;0.0;-2.02;0.9;-0.02;0.0;0.0;0.0;0.0;-8.0;-1.0;3.0;17.0;0.13;0.44;-10.64;0.81;0.35;0.97
1753876677.770339;0.0;0.0;0.0;-2.02;0.9;-0.02;0.0;0.0;0.0;0.0;-8.0;-1.0;3.0;17.0;0.14;0.44;-10.64;0.72;0.14;0.89
1753876677.775339;0.0;0.0;0.0;-2.02;0.9;-0.02;0.0;0.0;0.0;0.0;-2.0;4.4;2.4;16.9;0.15;0.43;-10.64;0.61;0.06;0.94
1753876677.780339;0.0;0.0;0.0;-2.02;0.9;-0.02;0.0;0.0;0.0;0.0;-18.4;-4.0;0.6;15.9;0.16;0.44;-10.66;0.75;0.23;0.81
1753876677.785339;0.0;0.0;0.0;-2.02;0.9;-0.02;0.0;0.0;0.0;0.0;5.3;-8.2;3.2;10.9;0.14;0.44;-10.63;0.69;0.02;0.94
1753876677.79034;0.0;0.0;0.0;-2.02;0.91;-0.02;0.0;0.0;0.0;0.0;-22.6;-2.7;0.4;9.0;0.15;0.44;-10.64;0.58;0.24;0.86
1753876677.79534;0.0;0.0;0.0;-2.02;0.9;-0.02;0.0;0.0;0.0;0.0;-15.3;1.6;-2.1;17.4;0.14;0.45;-10.63;0.71;0.19;0.92
1753876677.80034;0.0;0.0;0.0;-2.02;0.89;-0.02;0.0;0.0;0.0;0.0;-3.9;-1.0;3.1;11.1;0.13;0.44;-10.63;0.55;0.15;0.88
1753876677.80534;0.0;0.0;0.0;-2.02;0.9;-0.02;0.0;0.0;0.0;0.0;-17.9;-4.8;5.7;7.4;0.14;0.44;-10.63;0.75;0.18;0.93
1753876677.81034;0.0;0.0;0.0;-2.02;0.9;-0.02;0.0;0.0;0.0;0.0;-12.7;-0.7;7.3;7.5;0.15;0.44;-10.63;0.72;0.11;0.89
1753876677.81534;0.0;0.0;0.0;-2.02;0.9;-0.02;0.0;0.0;0.0;0.0;5.3;-1.9;2.9;14.3;0.15;0.43;-10.64;0.7;0.16;0.93
1753876677.82034;0.0;0.0;0.0;-2.02;0.91;-0.02;0.0;0.0;0.0;0.0;-10.6;-8.4;8.7;5.6;0.13;0.44;-10.64;0.64;0.11;0.93
1753876677.82534;0.0;0.0;0.0;-2.02;0.9;-0.02;0.0;0.0;0.0;0.0;-29.0;-2.6;6.7;7.0;0.14;0.45;-10.62;0.81;0.18;0.92
1753876677.83034;0.0;0.0;0.0;-2.02;0.9;-0.02;0.0;0.0;0.0;0.0;-21.1;-1.4;0.8;8.8;0.14;0.44;-10.61;0.71;0.26;0.86
1753876677.83534;0.0;0.0;0.0;-2.02;0.9;-0.02;0.0;0.0;0.0;0.0;-12.9;-10.4;1.0;1.0;0.14;0.44;-10.61;0.69;0.17;0.91
1753876677.84034;0.0;0.0;0.0;-2.02;0.9;-0.02;0.0;0.0;0.0;0.0;-21.0;-5.7;0.1;-10.6;0.13;0.43;-10.62;0.66;0.11;0.94
1753876677.845341;0.0;0.0;0.0;-2.02;0.9;-0.02;0.0;0.0;0.0;0.0;-7.5;-8.9;7.3;-13.1;0.14;0.44;-10.62;0.63;0.15;0.83
1753876677.850341;0.0;0.0;0.0;-2.02;0.9;-0.02;0.0;0.0;0.0;0.0;-7.3;-11.4;3.1;8.4;0.16;0.44;-10.63;0.83;0.22;0.87
1753876677.855341;0.0;0.0;0.0;-2.02;0.91;-0.02;0.0;0.0;0.0;0.0;-12.0;-12.2;3.9;-1.8;0.13;0.44;-10.61;0.74;0.13;0.96
1753876677.860341;0.0;0.0;0.0;-2.02;0.89;-0.02;0.0;0.0;0.0;0.0;-1.3;-19.0;8.1;3.6;0.14;0.45;-10.62;0.78;0.27;0.94
1753876677.865341;0.0;0.0;0.0;-2.02;0.9;-0.02;0.0;0.0;0.0;0.0;-19.0;-23.6;7.7;4.4;0.15;0.44;-10.62;0.74;0.37;0.87
1753876677.870341;0.0;0.0;0.0;-2.02;0.9;-0.02;0.0;0.0;0.0;0.0;-3.5;-6.8;4.1;-13.4;0.14;0.44;-10.6;0.55;0.14;0.81
1753876677.875342;0.0;0.0;0.0;-2.02;0.89;-0.02;0.0;0.0;0.0;0.0;-6.1;-17.6;8.4;9.2;0.13;0.44;-10.61;0.89;0.2;0.84
1753876677.880342;0.0;0.0;0.0;-2.02;0.91;-0.02;0.0;0.0;0.0;0.0;-7.5;-14.4;-0.6;1.3;0.14;0.43;-10.61;0.68;0.23;1.02
1753876677.885342;0.0;0.0;0.0;-2.02;0.9;-0.02;0.0;0.0;0.0;0.0;-25.7;-17.7;5.9;-0.4;0.14;0.44;-10.63;0.7;0.21;0.88
1753876677.890342;0.0;0.0;0.0;-2.02;0.89;-0.02;0.0;0.0;0.0;0.0;-32.8;-13.9;12.0;-7.0;0.15;0.44;-10.6;0.79;0.22;0.77
1753876677.895342;0.0;0.0;0.0;-2.02;0.9;-0.02;0.0;0.0;0.0;0.0;-19.1;-12.4;1.5;-2.0;0.16;0.44;-10.61;0.67;0.16;0.96
1753876677.900342;0.0;0.0;0.0;-2.02;0.9;-0.02;0.0;0.0;0.0;0.0;-1.0;-12.5;4.2;-3.5;0.15;0.44;-10.59;0.8;0.29;0.94
1753876677.905342;0.0;0.0;0.0;-2.02;0.9;-0.02;0.0;0.0;0.0;0.0;-20.8;-11.5;3.6;-14.4;0.12;0.45;-10.59;0.62;0.36;0.99
1753876677.910342;0.0;0.0;0.0;-2.02;0.9;-0.02;0.0;0.0;0.0;0.0;-8.9;-12.8;6.8;1.1;0.14;0.45;-10.6;0.77;0.29;1.03
1753876677.915339;0.0;0.0;0.0;-2.02;0.9;-0.02;0.0;0.0;0.0;0.0;-8.0;-17.0;6.0;-9.0;0.14;0.44;-10.6;0.72;0.26;0.94
1753876677.920339;0.0;0.0;0.0;-2.02;0.9;-0.02;0.0;0.0;0.0;0.0;-8.0;-17.0;6.0;-9.0;0.14;0.44;-10.6;0.65;0.35;0.99
1753876677.925339;0.0;0.0;0.0;-2.02;0.9;-0.02;0.0;0.0;0.0;0.0;-8.0;-17.0;6.0;-9.0;0.14;0.44;-10.6;0.68;0.39;0.97
1753876677.930339;0.0;0.0;0.0;-2.02;0.89;-0.02;0.0;0.0;0.0;0.0;-4.1;-12.9;-3.2;-7.0;0.14;0.45;-10.58;0.7;0.34;0.99
1753876677.935339;0.0;0.0;0.0;-2.02;0.9;-0.02;0.0;0.0;0.0;0.0;-8.0;-17.0;6.0;-9.0;0.15;0.44;-10.6;0.69;0.38;0.92
1753876677.940339;0.0;0.0;0.0;-2.02;0.9;-0.02;0.0;0.0;0.0;0.0;-8.0;-17.0;6.0;-9.0;0.14;0.44;-10.6;0.69;0.22;0.93
1753876677.945339;0.0;0.0;0.0;-2.02;0.9;-0.02;0.0;0.0;0.0;0.0;-8.0;-17.0;6.0;-9.0;0.14;0.44;-10.6;0.74;0.25;0.96
1753876677.950339;0.0;0.0;0.0;-2.02;0.9;-0.02;0.0;0.0;0.0;0.0;-8.0;-17.0;6.0;-9.0;0.14;0.44;-10.6;0.77;0.41;0.93
1753876677.955339;0.0;0.0;0.0;-2.02;0.9;-0.02;0.0;0.0;0.0;0.0;-8.0;-17.0;6.0;-9.0;0.14;0.45;-10.61;0.8;0.37;0.89
1753876677.960339;0.0;0.0;0.0;-2.02;0.9;-0.02;0.0;0.0;0.0;0.0;-8.0;-17.0;6.0;-9.0;0.13;0.45;-10.61;0.71;0.19;1.0
1753876677.965339;0.0;0.0;0.0;-2.02;0.9;-0.02;0.0;0.0;0.0;0.0;-8.0;-17.0;6.0;-9.0;0.14;0.44;-10.61;0.79;0.42;1.06
1753876677.970339;0.0;0.0;0.0;-2.02;0.9;-0.02;0.0;0.0;0.0;0.0;-8.0;-17.0;6.0;-9.0;0.14;0.44;-10.62;0.74;0.23;1.04
1753876677.975339;0.0;0.0;0.0;-2.02;0.9;-0.02;0.0;0.0;0.0;0.0;-8.0;-17.0;6.0;-9.0;0.14;0.44;-10.63;0.73;0.29;1.02
1753876677.980339;0.0;0.0;0.0;-2.02;0.9;-0.02;0.0;0.0;0.0;0.0;-8.0;-17.0;6.0;-9.0;0.14;0.44;-10.63;0.86;0.37;0.92
1753876677.985339;0.0;0.0;0.0;-2.02;0.9;-0.02;0.0;0.0;0.0;0.0;-9.9;-12.2;2.4;-7.6;0.15;0.44;-10.65;0.88;0.41;0.91
1753876677.990339;0.0;0.0;0.0;-2.02;0.9;-0.02;0.0;0.0;0.0;0.0;-7.2;9.3;4.6;12.2;0.14;0.45;-10.64;0.86;0.38;1.05
1753876677.99534;0.0;0.0;0.0;-2.02;0.9;-0.02;0.0;0.0;0.0;0.0;-8.6;-6.7;6.7;-22.7;0.13;0.44;-10.61;0.86;0.34;0.85
1753876678.00034;0.0;0.0;0.0;-2.02;0.9;-0.02;0.0;0.0;0.0;0.0;-7.1;-22.7;7.1;1.0;0.14;0.45;-10.63;0.91;0.37;0.99
1753876678.00534;0.0;0.0;0.0;-2.02;0.9;-0.02;0.0;0.0;0.0;0.0;-6.4;-11.5;4.1;-8.5;0.15;0.44;-10.63;0.8;0.35;0.93
1753876678.01034;0.0;0.0;0.0;-2.02;0.9;-0.02;0.0;0.0;0.0;0.0;-3.9;-19.2;7.4;-7.7;0.14;0.43;-10.67;0.84;0.26;0.93
1753876678.01534;0.0;0.0;0.0;-2.02;0.92;-0.02;0.0;0.0;0.0;0.0;-9.4;-0.4;5.1;4.1;0.14;0.44;-10.63;0.78;0.37;0.9
1753876678.02034;0.0;0.0;0.0;-2.02;0.91;-0.02;0.0;0.0;0.0;0.0;-3.8;-13.8;6.2;-3.4;0.14;0.44;-10.64;0.82;0.35;0.87
1753876678.02534;0.0;0.0;0.0;-2.02;0.9;-0.02;0.0;0.0;0.0;0.0;-8.3;4.7;5.8;12.1;0.13;0.44;-10.63;0.73;0.41;1.04
1753876678.03034;0.0;0.0;0.0;-2.02;0.91;-0.02;0.0;0.0;0.0;0.0;-3.9;-12.1;5.3;-12.2;0.14;0.44;-10.62;0.76;0.23;0.9
1753876678.03534;0.0;0.0;0.0;-2.02;0.9;-0.02;0.0;0.0;0.0;0.0;-6.0;-17.7;5.3;0.2;0.13;0.44;-10.62;0.74;0.32;0.96
1753876678.04034;0.0;0.0;0.0;-2.02;0.9;-0.02;0.0;0.0;0.0;0.0;-4.6;-1.2;6.4;-0.8;0.14;0.44;-10.64;0.78;0.32;1.04
1753876678.04534;0.0;0.0;0.0;-2.02;0.91;-0.02;0.0;0.0;0.0;0.0;-4.5;-2.5;6.8;7.5;0.13;0.44;-10.63;0.89;0.4;0.86
1753876678.050341;0.0;0.0;0.0;-2.02;0.91;-0.02;0.0;0.0;0.0;0.0;-1.4;0.9;5.5;5.0;0.14;0.46;-10.65;0.68;0.29;0.95
1753876678.055341;0.0;0.0;0.0;-2.02;0.92;-0.02;0.0;0.0;0.0;0.0;-2.0;14.6;8.3;17.2;0.14;0.44;-10.65;0.77;0.47;0.95
1753876678.060341;0.0;0.0;0.0;-2.02;0.91;-0.02;0.0;0.0;0.0;0.0;-6.3;1.7;7.5;-11.1;0.15;0.44;-10.63;0.7;0.2;0.94
1753876678.065341;0.0;0.0;0.0;-2.02;0.9;-0.02;0.0;0.0;0.0;0.0;-1.1;-8.7;8.5;11.0;0.13;0.45;-10.63;0.77;0.19;1.0
1753876678.070341;0.0;0.0;0.0;-2.02;0.91;-0.02;0.0;0.0;0.0;0.0;-1.6;-13.5;5.4;4.4;0.14;0.45;-10.66;0.64;0.28;0.97
1753876678.075341;0.0;0.0;0.0;-2.02;0.92;-0.02;0.0;0.0;0.0;0.0;-1.3;-5.2;4.5;40.7;0.14;0.44;-10.63;0.77;0.34;0.99
1753876678.080341;0.0;0.0;0.0;-2.02;0.92;-0.02;0.0;0.0;0.0;0.0;-3.9;-4.7;7.5;2.6;0.12;0.44;-10.63;0.72;0.32;0.98
1753876678.085342;0.0;0.0;0.0;-2.02;0.92;-0.02;0.0;0.0;0.0;0.0;-4.9;-14.7;8.3;17.9;0.13;0.45;-10.64;0.72;0.2;1.08
1753876678.090342;0.0;0.0;0.0;-2.02;0.92;-0.02;0.0;0.0;0.0;0.0;-1.0;-19.1;6.5;2.0;0.13;0.45;-10.65;0.71;0.44;1.09
1753876678.095342;0.0;0.0;0.0;-2.02;0.92;-0.02;0.0;0.0;0.0;0.0;-2.3;6.5;5.7;1.3;0.14;0.44;-10.63;0.78;0.31;0.9
1753876678.100342;0.0;0.0;0.0;-2.02;0.92;-0.02;0.0;0.0;0.0;0.0;1.3;-6.1;6.2;22.9;0.13;0.45;-10.62;0.66;0.29;1.08
1753876678.105342;0.0;0.0;0.0;-2.02;0.91;-0.02;0.0;0.0;0.0;0.0;2.5;-6.7;6.4;19.0;0.13;0.45;-10.64;0.78;0.31;0.92
1753876678.110342;0.0;0.0;0.0;-2.02;0.92;-0.02;0.0;0.0;0.0;0.0;0.4;2.8;7.9;35.2;0.13;0.45;-10.63;0.68;0.27;0.94
1753876678.115339;0.0;0.0;0.0;-2.02;0.92;-0.02;0.0;0.0;0.0;0.0;1.0;1.0;6.0;12.0;0.13;0.45;-10.63;0.7;0.3;1.02
1753876678.120339;0.0;0.0;0.0;-2.02;0.92;-0.02;0.0;0.0;0.0;0.0;1.0;1.0;6.0;12.0;0.13;0.46;-10.63;0.77;0.25;0.91
1753876678.125339;0.0;0.0;0.0;-2.02;0.92;-0.02;0.0;0.0;0.0;0.0;4.0;10.2;6.6;30.2;0.13;0.45;-10.65;0.76;0.22;0.87
1753876678.130339;0.0;0.0;0.0;-2.02;0.92;-0.02;0.0;0.0;0.0;0.0;1.0;1.0;6.0;12.0;0.14;0.45;-10.63;0.82;0.38;0.88
1753876678.135339;0.0;0.0;0.0;-2.02;0.92;-0.02;0.0;0.0;0.0;0.0;1.0;1.0;6.0;12.0;0.14;0.45;-10.63;0.79;0.29;0.86
1753876678.140339;0.0;0.0;0.0;-2.02;0.92;-0.02;0.0;0.0;0.0;0.0;1.0;1.0;6.0;12.0;0.14;0.44;-10.64;0.82;0.19;0.87
1753876678.145339;0.0;0.0;0.0;-2.02;0.92;-0.02;0.0;0.0;0.0;0.0;1.0;1.0;6.0;12.0;0.14;0.44;-10.64;0.92;0.42;0.93
1753876678.150339;0.0;0.0;0.0;-2.02;0.92;-0.02;0.0;0.0;0.0;0.0;1.0;1.0;6.0;12.0;0.14;0.44;-10.63;0.86;0.36;1.01
1753876678.155339;0.0;0.0;0.0;-2.02;0.92;-0.02;0.0;0.0;0.0;0.0;1.0;1.0;6.0;12.0;0.14;0.44;-10.62;0.81;0.07;0.84
1753876678.160339;0.0;0.0;0.0;-2.02;0.92;-0.02;0.0;0.0;0.0;0.0;1.0;1.0;6.0;12.0;0.14;0.44;-10.62;0.9;0.27;1.1
1753876678.165339;0.0;0.0;0.0;-2.02;0.92;-0.02;0.0;0.0;0.0;0.0;1.0;1.0;6.0;12.0;0.14;0.45;-10.62;0.83;0.32;0.93
1753876678.170339;0.0;0.0;0.0;-2.02;0.92;-0.02;0.0;0.0;0.0;0.0;1.0;1.0;6.0;12.0;0.14;0.44;-10.61;0.99;0.19;0.98
1753876678.175339;0.0;0.0;0.0;-2.02;0.92;-0.02;0.0;0.0;0.0;0.0;1.0;1.0;6.0;12.0;0.14;0.44;-10.62;0.8;0.38;0.9
1753876678.180339;0.0;0.0;0.0;-2.02;0.92;-0.02;0.0;0.0;0.0;0.0;1.0;1.0;6.0;12.0;0.13;0.43;-10.62;0.89;0.39;0.95
1753876678.185339;0.0;0.0;0.0;-2.02;0.92;-0.02;0.0;0.0;0.0;0.0;1.0;1.0;6.0;12.0;0.13;0.43;-10.61;0.74;0.38;0.89
1753876678.190339;0.0;0.0;0.0;-2.02;0.92;-0.02;0.0;0.0;0.0;0.0;1.0;1.0;6.0;12.0;0.13;0.44;-10.61;0.79;0.32;0.9
1753876678.195339;0.0;0.0;0.0;-2.02;0.92;-0.02;0.0;0.0;0.0;0.0;1.0;1.0;6.0;12.0;0.13;0.44;-10.61;0.74;0.32;1.01
1753876678.200339;0.0;0.0;0.0;-2.02;0.92;-0.02;0.0;0.0;0.0;0.0;1.0;1.0;6.0;12.0;0.13;0.44;-10.61;0.72;0.16;0.96
1753876678.205339;0.0;0.0;0.0;-2.02;0.92;-0.02;0.0;0.0;0.0;0.0;1.0;1.0;6.0;12.0;0.13;0.44;-10.61;0.73;0.28;0.95
1753876678.210339;0.0;0.0;0.0;-2.02;0.92;-0.02;0.0;0.0;0.0;0.0;1.0;1.0;6.0;12.0;0.13;0.44;-10.61;0.7;0.39;0.92
1753876678.215339;0.0;0.0;0.0;-2.02;0.92;-0.02;0.0;0.0;0.0;0.0;1.0;1.0;6.0;12.0;0.14;0.44;-10.61;0.66;0.51;0.91
1753876678.220339;0.0;0.0;0.0;-2.02;0.92;-0.02;0.0;0.0;0.0;0.0;1.0;1.0;6.0;12.0;0.13;0.44;-10.61;0.81;0.35;0.96
1753876678.22534;0.0;0.0;0.0;-2.02;0.92;-0.02;0.0;0.0;0.0;0.0;1.0;1.0;6.0;12.0;0.12;0.45;-10.61;0.62;0.3;0.9
1753876678.23034;0.0;0.0;0.0;-2.02;0.92;-0.02;0.0;0.0;0.0;0.0;1.0;1.0;6.0;12.0;0.14;0.45;-10.62;0.76;0.53;0.84
1753876678.23534;0.0;0.0;0.0;-2.02;0.92;-0.02;0.0;0.0;0.0;0.0;1.0;1.0;6.0;12.0;0.15;0.43;-10.61;0.84;0.24;0.89
1753876678.24034;0.0;0.0;0.0;-2.02;0.92;-0.02;0.0;0.0;0.0;0.0;1.0;1.0;6.0;12.0;0.13;0.44;-10.61;0.94;0.42;0.9
