DeviceID;Timestamp;Temperature;GyroX;GyroY;GyroZ;AccelX;AccelY;AccelZ;Dist1;Dist2;Dist3;Err1;Err2;Err3
4.0;1753876242.761135;18.378906;0.63;-1.19;0.07;0.886086;-0.460062;0.031476;91.0;0.0;0.0;4.0;0.0;0.0
4.0;1753876242.765737;18.381005;0.3;-1.42;-1.36;0.897926;-0.45493;0.017188;90.1;-0.0;0.0;3.9;-0.0;-0.0
4.0;1753876242.771241;18.378906;0.63;-1.12;0.07;0.884744;-0.461526;0.031354;90.0;0.0;0.0;3.0;0.0;0.0
4.0;1753876242.774608;18.34375;0.56;-1.19;0.0;0.885232;-0.460184;0.032086;90.0;0.0;0.0;3.0;0.0;0.0
4.0;1753876242.782745;18.34375;0.63;-1.19;0.07;0.8845;-0.46116;0.03111;90.0;0.0;0.0;3.0;0.0;0.0
4.0;1753876242.784536;18.34375;0.63;-1.12;0.14;0.885598;-0.46055;0.031354;90.0;0.0;0.0;3.0;0.0;0.0
4.0;1753876242.788304;18.34375;0.56;-1.05;0.14;0.886452;-0.462746;0.031476;90.0;0.0;0.0;3.0;0.0;0.0
4.0;1753876242.796095;18.351562;0.56;-1.12;0.07;0.887062;-0.459208;0.031842;90.0;0.0;0.0;3.0;0.0;0.0
4.0;1753876242.797346;18.351562;0.63;-1.12;0.07;0.884744;-0.461404;0.031964;90.0;0.0;0.0;3.0;0.0;0.0
4.0;1753876242.801945;18.351562;0.63;-1.05;0.07;0.886086;-0.459086;0.032574;90.0;0.0;0.0;3.0;0.0;0.0
4.0;1753876242.806493;18.351562;0.63;-1.12;0.07;0.88572;-0.460062;0.031964;90.0;0.0;0.0;3.0;0.0;0.0
4.0;1753876242.811045;18.3125;0.56;-1.12;0.14;0.886086;-0.461038;0.029768;90.0;0.0;0.0;3.0;0.0;0.0
4.0;1753876242.81938;18.3125;0.63;-1.12;0.0;0.886208;-0.460062;0.031964;94.0;0.0;0.0;4.0;0.0;0.0
4.0;1753876242.820094;18.3125;0.7;-1.12;0.07;0.885598;-0.460916;0.031842;94.0;0.0;0.0;4.0;0.0;0.0
4.0;1753876242.824701;18.3125;0.63;-1.19;0.07;0.886696;-0.460306;0.0305;94.0;0.0;0.0;4.0;0.0;0.0
4.0;1753876242.83102;18.335938;0.56;-1.26;0.21;0.885232;-0.461404;0.030988;94.0;0.0;0.0;4.0;0.0;0.0
4.0;1753876242.833787;18.335938;0.63;-1.19;0.14;0.886086;-0.460306;0.032452;94.0;0.0;0.0;4.0;0.0;0.0
4.0;1753876242.838396;18.335938;0.63;-1.19;0.07;0.88572;-0.461404;0.032086;94.0;0.0;0.0;4.0;0.0;0.0
4.0;1753876242.845126;18.335938;0.63;-1.12;0.0;0.885476;-0.460428;0.031842;94.0;0.0;0.0;4.0;0.0;0.0
4.0;1753876242.847454;18.34375;0.56;-1.12;0.14;0.885476;-0.460428;0.031842;94.0;0.0;0.0;4.0;0.0;0.0
4.0;1753876242.852012;18.34375;0.63;-1.19;0.07;0.885598;-0.460916;0.030744;94.0;0.0;0.0;4.0;0.0;0.0
4.0;1753876242.856618;18.34375;0.63;-1.12;0.14;0.886208;-0.461404;0.030866;94.0;0.0;0.0;4.0;0.0;0.0
4.0;1753876242.861062;18.34375;0.63;-1.12;0.14;0.885964;-0.462502;0.030622;94.0;0.0;0.0;4.0;0.0;0.0
4.0;1753876242.86902;18.304688;0.56;-1.19;0.07;0.88511;-0.46055;0.03172;90.0;0.0;0.0;4.0;0.0;0.0
4.0;1753876242.870168;18.304688;0.49;-1.05;0.07;0.88694;-0.46116;0.03233;90.0;0.0;0.0;4.0;0.0;0.0
4.0;1753876242.874751;18.304688;0.49;-1.12;0.14;0.88572;-0.459818;0.029524;90.0;0.0;0.0;4.0;0.0;0.0
4.0;1753876242.881576;18.304688;0.63;-1.12;0.14;0.88572;-0.461404;0.030256;90.0;0.0;0.0;4.0;0.0;0.0
4.0;1753876242.883857;18.34375;0.63;-1.12;0.14;0.884378;-0.460916;0.030012;90.0;0.0;0.0;4.0;0.0;0.0
4.0;1753876242.88843;18.34375;0.63;-1.12;0.14;0.887062;-0.460184;0.031232;90.0;0.0;0.0;4.0;0.0;0.0
4.0;1753876242.894055;18.34375;0.63;-1.19;0.14;0.88633;-0.460184;0.030622;90.0;0.0;0.0;4.0;0.0;0.0
4.0;1753876242.898136;18.34375;0.63;-1.05;0.14;0.886208;-0.460672;0.031232;90.0;0.0;0.0;4.0;0.0;0.0
4.0;1753876242.902197;18.320312;0.63;-1.12;0.14;0.884744;-0.461526;0.030866;90.0;0.0;0.0;4.0;0.0;0.0
4.0;1753876242.906797;18.320312;0.63;-1.12;0.07;0.886818;-0.460672;0.032818;90.0;0.0;0.0;4.0;0.0;0.0
4.0;1753876242.911178;18.320312;0.63;-1.12;0.07;0.886208;-0.461282;0.03172;90.0;0.0;0.0;4.0;0.0;0.0
4.0;1753876242.918703;18.320312;0.63;-1.12;0.14;0.88633;-0.460916;0.032574;89.0;0.0;0.0;4.0;0.0;0.0
4.0;1753876242.920231;18.359375;0.63;-1.12;0.07;0.88572;-0.460672;0.030744;89.0;0.0;0.0;4.0;0.0;0.0
4.0;1753876242.924833;18.340631;0.59;-1.19;0.11;0.886544;-0.461111;0.029823;90.6;0.0;0.0;4.0;0.0;0.0
4.0;1753876242.929458;18.359375;0.56;-1.12;0.07;0.886452;-0.461282;0.0305;89.0;0.0;0.0;4.0;0.0;0.0
4.0;1753876242.933933;18.359375;0.56;-1.12;0.0;0.884988;-0.460672;0.030988;89.0;0.0;0.0;4.0;0.0;0.0
4.0;1753876242.942516;18.359375;0.63;-1.12;0.0;0.885964;-0.460428;0.031964;89.0;0.0;0.0;4.0;0.0;0.0
4.0;1753876242.942982;18.359375;0.56;-1.19;0.07;0.885232;-0.460794;0.029524;89.0;0.0;0.0;4.0;0.0;0.0
4.0;1753876242.947645;18.359375;0.63;-1.12;0.14;0.885842;-0.458842;0.031964;89.0;0.0;0.0;4.0;0.0;0.0
4.0;1753876242.952139;18.359375;0.7;-1.19;0.07;0.88633;-0.462014;0.030744;89.0;0.0;0.0;4.0;0.0;0.0
4.0;1753876242.956824;18.351562;0.63;-1.12;0.07;0.88755;-0.459452;0.030988;89.0;0.0;0.0;4.0;0.0;0.0
4.0;1753876242.961203;18.351562;0.56;-1.05;0.07;0.885598;-0.461526;0.030866;89.0;0.0;0.0;4.0;0.0;0.0
4.0;1753876242.967441;18.351562;0.63;-1.19;0.07;0.88633;-0.461648;0.030988;90.0;0.0;0.0;4.0;0.0;0.0
4.0;1753876242.970711;18.351562;0.63;-1.19;0.14;0.887184;-0.460428;0.03172;90.0;0.0;0.0;4.0;0.0;0.0
4.0;1753876242.979271;18.351562;0.63;-1.12;0.0;0.885232;-0.461892;0.03111;90.0;0.0;0.0;4.0;0.0;0.0
4.0;1753876242.983993;18.351562;0.7;-1.12;0.0;0.884866;-0.461404;0.030988;90.0;0.0;0.0;4.0;0.0;0.0
4.0;1753876242.992036;18.351562;0.56;-1.19;0.14;0.88633;-0.461648;0.032208;90.0;0.0;0.0;4.0;0.0;0.0
4.0;1753876242.993431;18.402344;0.63;-1.12;0.07;0.884988;-0.461038;0.031354;90.0;0.0;0.0;4.0;0.0;0.0
4.0;1753876242.997655;18.402344;0.56;-1.26;0.14;0.885842;-0.460672;0.03172;90.0;0.0;0.0;4.0;0.0;0.0
4.0;1753876243.002257;18.413775;0.57;-1.27;0.04;0.885626;-0.46152;0.030123;89.5;0.0;0.0;4.0;0.0;0.0
4.0;1753876243.006859;18.404195;0.59;-1.25;0.08;0.885639;-0.461464;0.031223;90.0;0.0;0.0;4.0;0.0;0.0
4.0;1753876243.011461;18.39847;0.62;-1.31;0.16;0.886076;-0.459888;0.030212;90.1;0.0;0.0;4.0;0.0;0.0
4.0;1753876243.016063;18.422139;0.62;-1.37;0.13;0.886901;-0.460454;0.031896;90.2;0.0;0.0;4.0;0.0;0.0
4.0;1753876243.020665;18.391848;0.48;-1.26;0.09;0.886177;-0.461012;0.031508;89.6;0.0;0.0;4.0;0.0;0.0
4.0;1753876243.025267;18.42107;0.63;-1.31;0.12;0.884771;-0.461042;0.031609;90.5;0.0;0.0;4.0;0.0;0.0
4.0;1753876243.029868;18.401845;0.62;-1.28;0.12;0.885235;-0.460908;0.032357;90.1;0.0;0.0;4.0;0.0;0.0
4.0;1753876243.03447;18.41597;0.64;-1.2;0.12;0.88602;-0.459856;0.031965;90.0;0.0;0.0;4.0;0.0;0.0
4.0;1753876243.039072;18.411698;0.55;-1.27;0.08;0.886142;-0.462372;0.032786;90.9;0.0;0.0;4.0;0.0;0.0
4.0;1753876243.043674;18.379922;0.68;-1.28;0.16;0.88565;-0.460688;0.03253;91.4;0.0;0.0;4.0;0.0;0.0
4.0;1753876243.048276;18.404502;0.62;-1.19;0.17;0.886068;-0.459906;0.032478;89.3;0.0;0.0;4.0;0.0;0.0
4.0;1753876243.052878;18.417241;0.66;-1.29;0.14;0.88635;-0.462049;0.032157;89.7;0.0;0.0;4.0;0.0;0.0
4.0;1753876243.05748;18.457734;0.6;-1.18;0.13;0.885664;-0.460847;0.030824;89.7;0.0;0.0;4.0;0.0;0.0
4.0;1753876243.062082;18.427676;0.52;-1.19;0.18;0.883985;-0.46077;0.032167;90.7;0.0;0.0;4.0;0.0;0.0
4.0;1753876243.066684;18.436439;0.52;-1.2;0.15;0.885792;-0.460688;0.031436;89.3;0.0;0.0;4.0;0.0;0.0
4.0;1753876243.071286;18.353306;0.55;-1.22;0.12;0.885332;-0.459886;0.033102;89.8;0.0;0.0;4.0;0.0;0.0
4.0;1753876243.075888;18.387628;0.6;-1.2;0.23;0.887067;-0.460645;0.031988;90.0;0.0;0.0;4.0;0.0;0.0
4.0;1753876243.08049;18.425766;0.7;-1.24;0.08;0.885301;-0.460832;0.031088;89.2;0.0;0.0;4.0;0.0;0.0
4.0;1753876243.085092;18.398718;0.56;-1.24;0.05;0.884718;-0.460265;0.031921;90.7;0.0;0.0;4.0;0.0;0.0
4.0;1753876243.089694;18.396602;0.59;-1.27;0.18;0.886177;-0.459649;0.032095;91.0;0.0;0.0;4.0;0.0;0.0
4.0;1753876243.094296;18.386795;0.56;-1.18;0.16;0.88676;-0.461163;0.030918;89.7;0.0;0.0;4.0;0.0;0.0
4.0;1753876243.098898;18.393228;0.6;-1.16;0.18;0.885964;-0.461107;0.031461;90.1;0.0;0.0;4.0;0.0;0.0
4.0;1753876243.1035;18.361879;0.59;-1.21;0.1;0.885006;-0.46001;0.032537;89.4;0.0;0.0;4.0;0.0;0.0
4.0;1753876243.108102;18.389852;0.56;-1.16;0.02;0.884341;-0.460188;0.031602;90.4;0.0;0.0;4.0;0.0;0.0
4.0;1753876243.112704;18.363636;0.67;-1.25;0.14;0.886079;-0.459422;0.031986;89.9;0.0;0.0;4.0;0.0;0.0
4.0;1753876243.117306;18.410098;0.66;-1.17;0.1;0.885645;-0.46157;0.031905;89.8;0.0;0.0;4.0;0.0;0.0
4.0;1753876243.121908;18.371366;0.64;-1.25;0.03;0.884893;-0.461919;0.032233;90.3;0.0;0.0;4.0;0.0;0.0
4.0;1753876243.12651;18.425774;0.59;-1.21;0.09;0.884473;-0.460779;0.030866;90.1;0.0;0.0;4.0;0.0;0.0
4.0;1753876243.131112;18.373732;0.68;-1.17;0.08;0.885026;-0.461229;0.031308;90.6;0.0;0.0;4.0;0.0;0.0
4.0;1753876243.135714;18.389673;0.66;-1.17;0.12;0.88558;-0.459842;0.030895;90.0;0.0;0.0;4.0;0.0;0.0
4.0;1753876243.140316;18.408987;0.69;-1.12;0.11;0.886287;-0.461992;0.031186;90.6;0.0;0.0;4.0;0.0;0.0
4.0;1753876243.144918;18.405014;0.59;-1.13;0.07;0.88493;-0.460699;0.032781;90.1;0.0;0.0;4.0;0.0;0.0
4.0;1753876243.14952;18.406354;0.61;-1.25;0.07;0.88669;-0.459927;0.032407;91.0;0.0;0.0;4.0;0.0;0.0
4.0;1753876243.154122;18.401499;0.57;-1.13;0.19;0.886783;-0.459744;0.032223;89.6;0.0;0.0;4.0;0.0;0.0
4.0;1753876243.158723;18.415293;0.66;-1.19;-0.02;0.885901;-0.461239;0.033139;90.2;0.0;0.0;4.0;0.0;0.0
4.0;1753876243.163325;18.405788;0.64;-1.12;0.11;0.88706;-0.459433;0.030471;90.6;0.0;0.0;4.0;0.0;0.0
4.0;1753876243.167927;18.382879;0.67;-1.1;0.13;0.886135;-0.460126;0.032105;89.5;0.0;0.0;4.0;0.0;0.0
4.0;1753876243.172529;18.384644;0.65;-1.14;0.11;0.884604;-0.459764;0.032564;89.7;0.0;0.0;4.0;0.0;0.0
4.0;1753876243.177131;18.404289;0.65;-1.19;0.14;0.885723;-0.461084;0.030783;90.4;0.0;0.0;4.0;0.0;0.0
4.0;1753876243.181733;18.417329;0.62;-1.22;0.06;0.884337;-0.459643;0.031342;90.4;0.0;0.0;4.0;0.0;0.0
4.0;1753876243.186335;18.435172;0.61;-1.12;0.14;0.885935;-0.460003;0.03153;90.0;0.0;0.0;4.0;0.0;0.0
4.0;1753876243.190937;18.393064;0.58;-1.13;0.11;0.884039;-0.459648;0.033144;90.4;0.0;0.0;4.0;0.0;0.0
4.0;1753876243.195539;18.390298;0.58;-1.11;0.09;0.886485;-0.461602;0.030777;90.0;0.0;0.0;4.0;0.0;0.0
4.0;1753876243.200141;18.408521;0.61;-1.17;0.07;0.884937;-0.462357;0.032051;90.0;0.0;0.0;4.0;0.0;0.0
4.0;1753876243.204743;18.413344;0.73;-1.05;0.11;0.884926;-0.460816;0.031824;90.1;0.0;0.0;4.0;0.0;0.0
4.0;1753876243.209345;18.403316;0.64;-1.05;0.09;0.883734;-0.4601;0.032627;89.3;0.0;0.0;4.0;0.0;0.0
4.0;1753876243.213947;18.401638;0.64;-1.09;0.1;0.885818;-0.460865;0.03152;89.8;0.0;0.0;4.0;0.0;0.0
4.0;1753876243.218549;18.39805;0.61;-1.16;0.22;0.886213;-0.460424;0.032297;90.3;0.0;0.0;4.0;0.0;0.0
4.0;1753876243.223151;18.400605;0.68;-1.01;0.07;0.884518;-0.458472;0.033389;89.5;0.0;0.0;4.0;0.0;0.0
4.0;1753876243.227753;18.421277;0.7;-1.11;0.1;0.886017;-0.459404;0.031485;90.1;0.0;0.0;4.0;0.0;0.0
4.0;1753876243.232355;18.400582;0.68;-1.04;0.13;0.88612;-0.460226;0.031059;89.9;0.0;0.0;4.0;0.0;0.0
4.0;1753876243.236956;18.366459;0.65;-1.07;0.09;0.886112;-0.461386;0.031674;90.8;0.0;0.0;4.0;0.0;0.0
4.0;1753876243.241558;18.409403;0.64;-1.13;0.07;0.885118;-0.461078;0.03143;91.8;0.0;0.0;4.0;0.0;0.0
4.0;1753876243.24616;18.421044;0.67;-1.2;0.03;0.885849;-0.460754;0.031352;90.1;0.0;0.0;4.0;0.0;0.0
4.0;1753876243.250762;18.398014;0.61;-1.05;0.03;0.884949;-0.460233;0.031852;90.2;0.0;0.0;4.0;0.0;0.0
4.0;1753876243.255364;18.426908;0.64;-1.07;0.04;0.8851;-0.460928;0.032573;90.6;0.0;0.0;4.0;0.0;0.0
4.0;1753876243.259966;18.399508;0.65;-1.05;0.06;0.885898;-0.460685;0.032261;89.5;0.0;0.0;4.0;0.0;0.0
4.0;1753876243.264568;18.378042;0.69;-1.11;0.01;0.885919;-0.459631;0.032576;90.2;0.0;0.0;4.0;0.0;0.0
4.0;1753876243.26917;18.431194;0.71;-1.09;0.08;0.885487;-0.459327;0.031951;88.6;0.0;0.0;4.0;0.0;0.0
4.0;1753876243.273772;18.405213;0.75;-1.06;0.03;0.884637;-0.461825;0.032716;90.5;0.0;0.0;4.0;0.0;0.0
4.0;1753876243.278374;18.417073;0.74;-1.07;0.1;0.886426;-0.460353;0.032225;90.7;0.0;0.0;4.0;0.0;0.0
4.0;1753876243.282976;18.386325;0.66;-1.08;0.08;0.885215;-0.461504;0.032835;90.6;0.0;0.0;4.0;0.0;0.0
4.0;1753876243.287578;18.392846;0.76;-1.09;0.1;0.884738;-0.461484;0.034155;89.3;0.0;0.0;4.0;0.0;0.0
4.0;1753876243.29218;18.373566;0.7;-1.12;-0.03;0.88538;-0.458688;0.032203;89.6;0.0;0.0;4.0;0.0;0.0
4.0;1753876243.2998;18.402344;0.7;-1.05;0.07;0.884988;-0.46055;0.03233;90.0;0.0;0.0;4.0;0.0;0.0
4.0;1753876243.304402;18.396996;0.72;-1.03;0.03;0.887227;-0.460406;0.032635;89.7;0.0;0.0;4.0;0.0;0.0
4.0;1753876243.309004;18.382799;0.74;-1.09;0.1;0.885339;-0.46097;0.03207;91.3;0.0;0.0;4.0;0.0;0.0
4.0;1753876243.313606;18.392666;0.64;-1.07;0.15;0.883674;-0.460462;0.032568;89.6;0.0;0.0;4.0;0.0;0.0
4.0;1753876243.318208;18.42654;0.75;-1.08;0.08;0.88547;-0.461575;0.031175;89.4;0.0;0.0;4.0;0.0;0.0
4.0;1753876243.32281;18.420192;0.68;-1.08;0.01;0.886241;-0.458809;0.033057;89.9;0.0;0.0;4.0;0.0;0.0
4.0;1753876243.327412;18.402161;0.68;-0.96;0.05;0.885401;-0.460575;0.033189;89.5;0.0;0.0;4.0;0.0;0.0
4.0;1753876243.332014;18.40941;0.61;-1.01;0.07;0.883236;-0.460976;0.032075;90.4;0.0;0.0;4.0;0.0;0.0
4.0;1753876243.336616;18.431581;0.72;-1.13;0.02;0.884133;-0.460881;0.032739;89.3;0.0;0.0;4.0;0.0;0.0
4.0;1753876243.341218;18.397087;0.74;-1.05;0.05;0.884635;-0.460744;0.032855;89.3;0.0;0.0;4.0;0.0;0.0
4.0;1753876243.34582;18.385576;0.68;-1.12;0.16;0.885426;-0.461166;0.032721;89.1;0.0;0.0;4.0;0.0;0.0
4.0;1753876243.350422;18.419408;0.65;-1.06;0.13;0.885019;-0.459631;0.032664;90.1;0.0;0.0;4.0;0.0;0.0
4.0;1753876243.355024;18.41928;0.62;-1.06;0.02;0.883913;-0.461229;0.033398;90.3;0.0;0.0;4.0;0.0;0.0
4.0;1753876243.359625;18.38563;0.69;-1.01;0.14;0.884796;-0.460526;0.031833;90.6;0.0;0.0;4.0;0.0;0.0
4.0;1753876243.364227;18.402618;0.66;-1.05;0.09;0.883743;-0.461663;0.032835;90.2;0.0;0.0;4.0;0.0;0.0
4.0;1753876243.368829;18.436276;0.66;-1.06;0.09;0.88442;-0.460423;0.032674;90.5;0.0;0.0;4.0;0.0;0.0
4.0;1753876243.373431;18.393873;0.68;-1.06;0.13;0.885438;-0.460235;0.032087;89.7;0.0;0.0;4.0;0.0;0.0
4.0;1753876243.378033;18.410958;0.63;-1.02;0.06;0.885207;-0.460741;0.031485;90.1;0.0;0.0;4.0;0.0;0.0
4.0;1753876243.382635;18.378857;0.62;-1.08;0.09;0.884351;-0.460408;0.031329;90.1;0.0;0.0;4.0;0.0;0.0
4.0;1753876243.387237;18.398759;0.66;-1.12;0.12;0.884142;-0.460972;0.032467;89.5;0.0;0.0;4.0;0.0;0.0
4.0;1753876243.391839;18.401324;0.76;-1.1;0.07;0.885542;-0.461203;0.032244;90.2;0.0;0.0;4.0;0.0;0.0
4.0;1753876243.396441;18.391364;0.69;-1.06;0.08;0.886423;-0.461398;0.030794;89.0;0.0;0.0;4.0;0.0;0.0
4.0;1753876243.401043;18.447572;0.57;-1.05;0.07;0.885163;-0.460279;0.031429;90.3;0.0;0.0;4.0;0.0;0.0
4.0;1753876243.405645;18.3912;0.8;-1.0;-0.04;0.885106;-0.460463;0.033136;90.5;0.0;0.0;4.0;0.0;0.0
4.0;1753876243.410247;18.415825;0.62;-1.12;0.08;0.884572;-0.461445;0.032487;89.6;0.0;0.0;4.0;0.0;0.0
4.0;1753876243.414849;18.374948;0.62;-1.09;0.11;0.885249;-0.459795;0.031967;90.0;0.0;0.0;4.0;0.0;0.0
4.0;1753876243.419451;18.398066;0.61;-1.1;0.04;0.885736;-0.462002;0.032907;89.2;0.0;0.0;4.0;0.0;0.0
4.0;1753876243.424053;18.409347;0.7;-1.07;0.1;0.884124;-0.460362;0.030769;89.8;0.0;0.0;4.0;0.0;0.0
4.0;1753876243.428655;18.385553;0.66;-1.01;0.13;0.883784;-0.461269;0.032411;89.5;0.0;0.0;4.0;0.0;0.0
4.0;1753876243.433257;18.424384;0.7;-1.1;0.05;0.884881;-0.461596;0.030737;90.8;0.0;0.0;4.0;0.0;0.0
4.0;1753876243.437858;18.412149;0.7;-1.11;0.11;0.884591;-0.461263;0.03108;89.1;0.0;0.0;4.0;0.0;0.0
4.0;1753876243.44246;18.392078;0.71;-1.08;-0.04;0.885173;-0.461595;0.031824;89.2;0.0;0.0;4.0;0.0;0.0
4.0;1753876243.447062;18.365198;0.71;-1.07;0.04;0.88512;-0.46121;0.030959;90.5;0.0;0.0;4.0;0.0;0.0
4.0;1753876243.451664;18.428074;0.64;-1.07;0.13;0.885867;-0.461861;0.032489;90.2;0.0;0.0;4.0;0.0;0.0
4.0;1753876243.456266;18.395292;0.69;-1.12;0.14;0.885385;-0.462451;0.032835;90.2;0.0;0.0;4.0;0.0;0.0
4.0;1753876243.460868;18.425876;0.63;-1.06;0.09;0.884549;-0.461875;0.032002;89.3;0.0;0.0;4.0;0.0;0.0
4.0;1753876243.46547;18.368318;0.64;-1.06;0.14;0.885342;-0.460463;0.032885;90.9;0.0;0.0;4.0;0.0;0.0
4.0;1753876243.470072;18.40592;0.69;-1.09;0.13;0.885384;-0.462035;0.032488;88.8;0.0;0.0;4.0;0.0;0.0
4.0;1753876243.474674;18.416333;0.7;-1.09;0.13;0.884245;-0.461479;0.032637;90.0;0.0;0.0;4.0;0.0;0.0
4.0;1753876243.479276;18.362181;0.58;-0.98;0.16;0.884629;-0.461247;0.031553;89.6;0.0;0.0;4.0;0.0;0.0
4.0;1753876243.483878;18.357878;0.7;-0.97;0.11;0.884513;-0.461022;0.03149;89.7;0.0;0.0;4.0;0.0;0.0
4.0;1753876243.48848;18.381831;0.61;-1.03;0.14;0.885952;-0.460981;0.031794;90.3;0.0;0.0;4.0;0.0;0.0
4.0;1753876243.493082;18.43054;0.67;-1.11;0.16;0.883854;-0.460162;0.032097;89.1;0.0;0.0;4.0;0.0;0.0
4.0;1753876243.497684;18.382494;0.71;-1.01;0.12;0.88425;-0.461801;0.031203;90.1;0.0;0.0;4.0;0.0;0.0
4.0;1753876243.502286;18.392823;0.64;-1.13;0.11;0.885553;-0.459882;0.03386;90.0;0.0;0.0;4.0;0.0;0.0
4.0;1753876243.506888;18.422524;0.64;-0.99;0.11;0.885698;-0.461032;0.031131;89.9;0.0;0.0;4.0;0.0;0.0
4.0;1753876243.51149;18.397603;0.73;-1.06;0.08;0.885516;-0.461295;0.030087;90.2;0.0;0.0;4.0;0.0;0.0
4.0;1753876243.516092;18.414776;0.68;-1.07;0.12;0.884577;-0.459833;0.033099;89.7;0.0;0.0;4.0;0.0;0.0
4.0;1753876243.520694;18.386729;0.64;-1.02;0.05;0.88478;-0.461565;0.032318;89.8;0.0;0.0;4.0;0.0;0.0
4.0;1753876243.525296;18.399737;0.7;-1.04;0.14;0.88436;-0.461016;0.032666;89.9;0.0;0.0;4.0;0.0;0.0
4.0;1753876243.529898;18.352892;0.72;-1.1;0.06;0.885496;-0.462155;0.032384;89.8;0.0;0.0;4.0;0.0;0.0
4.0;1753876243.5345;18.422326;0.64;-1.14;0.03;0.884339;-0.460551;0.032838;91.0;0.0;0.0;4.0;0.0;0.0
4.0;1753876243.539102;18.408959;0.63;-1.05;0.06;0.885126;-0.461481;0.033753;91.3;0.0;0.0;4.0;0.0;0.0
4.0;1753876243.543704;18.379993;0.73;-1.04;0.13;0.885798;-0.461127;0.032876;88.8;0.0;0.0;4.0;0.0;0.0
4.0;1753876243.548306;18.392256;0.7;-0.92;0.17;0.884081;-0.462324;0.031249;90.9;0.0;0.0;4.0;0.0;0.0
4.0;1753876243.552908;18.384528;0.67;-1.11;0.08;0.886474;-0.46139;0.032741;90.2;0.0;0.0;4.0;0.0;0.0
4.0;1753876243.55751;18.392468;0.65;-1.0;0.13;0.885145;-0.460145;0.032658;90.7;0.0;0.0;4.0;0.0;0.0
4.0;1753876243.562112;18.428786;0.64;-1.0;0.09;0.885648;-0.462178;0.033248;90.3;0.0;0.0;4.0;0.0;0.0
4.0;1753876243.566713;18.389111;0.58;-1.1;0.11;0.884167;-0.460037;0.031437;90.2;0.0;0.0;4.0;0.0;0.0
4.0;1753876243.571315;18.387498;0.7;-1.07;0.1;0.885166;-0.461451;0.033063;90.1;0.0;0.0;4.0;0.0;0.0
4.0;1753876243.575917;18.379707;0.63;-1.05;0.05;0.885424;-0.460622;0.033789;90.1;0.0;0.0;4.0;0.0;0.0
4.0;1753876243.580519;18.408875;0.62;-1.11;0.06;0.884554;-0.461817;0.0325;90.0;0.0;0.0;4.0;0.0;0.0
4.0;1753876243.585121;18.38494;0.62;-1.06;0.14;0.885151;-0.461503;0.0309;90.3;0.0;0.0;4.0;0.0;0.0
4.0;1753876243.589723;18.425726;0.66;-1.01;0.21;0.883834;-0.461483;0.030778;89.8;0.0;0.0;4.0;0.0;0.0
4.0;1753876243.594325;18.412059;0.58;-1.11;0.15;0.884169;-0.459922;0.03268;89.0;0.0;0.0;4.0;0.0;0.0
4.0;1753876243.598927;18.404218;0.63;-0.95;0.12;0.886085;-0.461162;0.032445;89.8;0.0;0.0;4.0;0.0;0.0
4.0;1753876243.603529;18.425169;0.62;-1.11;0.18;0.884076;-0.460807;0.032195;89.3;0.0;0.0;4.0;0.0;0.0
4.0;1753876243.608131;18.38998;0.64;-0.98;0.11;0.884915;-0.461852;0.031345;89.3;0.0;0.0;4.0;0.0;0.0
4.0;1753876243.612733;18.368883;0.58;-1.07;0.2;0.884839;-0.462231;0.032248;88.6;0.0;0.0;4.0;0.0;0.0
4.0;1753876243.617335;18.374336;0.65;-1.09;0.14;0.884869;-0.463121;0.03144;89.8;0.0;0.0;4.0;0.0;0.0
4.0;1753876243.621937;18.407028;0.63;-1.04;0.16;0.884255;-0.459427;0.032379;90.7;0.0;0.0;4.0;0.0;0.0
4.0;1753876243.626539;18.38511;0.57;-1.09;0.14;0.883735;-0.460473;0.033745;89.8;0.0;0.0;4.0;0.0;0.0
4.0;1753876243.631141;18.401811;0.68;-1.0;0.1;0.884801;-0.461908;0.032312;89.6;0.0;0.0;4.0;0.0;0.0
4.0;1753876243.635743;18.376646;0.63;-0.99;0.23;0.88427;-0.46088;0.03253;89.8;0.0;0.0;4.0;0.0;0.0
4.0;1753876243.640344;18.384381;0.6;-1.13;0.11;0.885086;-0.460607;0.032687;89.8;0.0;0.0;4.0;0.0;0.0
4.0;1753876243.644946;18.3804;0.65;-1.04;0.06;0.884262;-0.460286;0.030953;89.9;0.0;0.0;4.0;0.0;0.0
4.0;1753876243.649548;18.399317;0.65;-1.12;0.15;0.884793;-0.461625;0.032115;90.8;0.0;0.0;4.0;0.0;0.0
4.0;1753876243.65415;18.416111;0.59;-1.03;0.09;0.884605;-0.460893;0.031556;90.6;0.0;0.0;4.0;0.0;0.0
4.0;1753876243.658752;18.412284;0.7;-1.13;0.08;0.885184;-0.461179;0.032615;90.1;0.0;0.0;4.0;0.0;0.0
4.0;1753876243.663354;18.371523;0.68;-1.15;0.1;0.884596;-0.460596;0.031447;90.3;0.0;0.0;4.0;0.0;0.0
4.0;1753876243.667956;18.41827;0.66;-1.06;0.12;0.885008;-0.46096;0.031745;89.3;0.0;0.0;4.0;0.0;0.0
4.0;1753876243.6744;18.402344;0.63;-1.05;0.14;0.884866;-0.461404;0.03233;90.0;0.0;0.0;4.0;0.0;0.0
4.0;1753876243.679002;18.45389;0.65;-1.07;0.22;0.884838;-0.462278;0.032329;89.2;0.0;0.0;4.0;0.0;0.0
4.0;1753876243.683604;18.393919;0.54;-0.96;0.14;0.884978;-0.460114;0.031644;89.2;0.0;0.0;4.0;0.0;0.0
4.0;1753876243.688206;18.404923;0.59;-1.05;0.14;0.884331;-0.460822;0.031717;89.6;0.0;0.0;4.0;0.0;0.0
4.0;1753876243.692808;18.374014;0.59;-1.12;0.13;0.885139;-0.460961;0.031247;88.8;0.0;0.0;4.0;0.0;0.0
4.0;1753876243.69741;18.406348;0.58;-1.14;0.08;0.885302;-0.460988;0.032674;90.4;0.0;0.0;4.0;0.0;0.0
4.0;1753876243.702012;18.408632;0.63;-1.08;0.07;0.886426;-0.460769;0.031752;90.3;0.0;0.0;4.0;0.0;0.0
4.0;1753876243.706614;18.36654;0.59;-1.04;0.13;0.886204;-0.46079;0.031524;90.6;0.0;0.0;4.0;0.0;0.0
4.0;1753876243.711216;18.365794;0.59;-1.13;0.25;0.885386;-0.460442;0.033107;91.1;0.0;0.0;4.0;0.0;0.0
4.0;1753876243.715818;18.29137;0.57;-1.08;0.1;0.887073;-0.460721;0.032366;90.7;0.0;0.0;4.0;0.0;0.0
4.0;1753876243.72276;18.335938;0.63;-1.12;0.14;0.886452;-0.460184;0.031964;90.0;0.0;0.0;4.0;0.0;0.0
4.0;1753876243.727362;18.28835;0.56;-1.04;0.15;0.886461;-0.460746;0.032461;89.8;0.0;0.0;4.0;0.0;0.0
4.0;1753876243.731964;18.394086;0.62;-1.03;0.05;0.886509;-0.461444;0.030944;90.4;0.0;0.0;4.0;0.0;0.0
4.0;1753876243.736566;18.394675;0.66;-1.11;0.17;0.885686;-0.460032;0.032024;90.3;0.0;0.0;4.0;0.0;0.0
4.0;1753876243.741168;18.300967;0.62;-1.12;0.13;0.885166;-0.459871;0.032263;90.2;0.0;0.0;4.0;0.0;0.0
4.0;1753876243.74577;18.328268;0.62;-1.12;0.18;0.885138;-0.460121;0.031585;90.0;0.0;0.0;4.0;0.0;0.0
4.0;1753876243.750372;18.333097;0.75;-1.11;0.06;0.885422;-0.461703;0.0313;89.9;0.0;0.0;4.0;0.0;0.0
4.0;1753876243.754974;18.30566;0.61;-1.06;0.14;0.885677;-0.461334;0.031811;90.7;0.0;0.0;4.0;0.0;0.0
4.0;1753876243.759576;18.303601;0.58;-1.12;0.15;0.885329;-0.460608;0.031992;89.9;0.0;0.0;4.0;0.0;0.0
4.0;1753876243.764178;18.374681;0.64;-1.19;0.18;0.883445;-0.46087;0.030336;90.7;0.0;0.0;4.0;0.0;0.0
4.0;1753876243.76878;18.387448;0.63;-1.19;0.18;0.885674;-0.460082;0.030788;90.2;0.0;0.0;4.0;0.0;0.0
4.0;1753876243.773382;18.372486;0.57;-1.23;0.05;0.88567;-0.45947;0.030849;91.2;0.0;0.0;4.0;0.0;0.0
4.0;1753876243.78141;18.335938;0.63;-1.19;0.14;0.8845;-0.460916;0.031476;90.0;0.0;0.0;4.0;0.0;0.0
4.0;1753876243.786012;18.308722;0.61;-1.12;0.13;0.885919;-0.45971;0.032401;90.0;0.0;0.0;4.0;0.0;0.0
4.0;1753876243.790614;18.378895;0.69;-1.11;0.06;0.88533;-0.459644;0.03072;90.6;0.0;0.0;4.0;0.0;0.0
4.0;1753876243.79524;18.335938;0.7;-1.19;0.07;0.88633;-0.460062;0.031598;90.0;0.0;0.0;4.0;0.0;0.0
4.0;1753876243.799842;18.323858;0.68;-1.26;0.05;0.887037;-0.459617;0.031829;89.5;0.0;0.0;4.0;0.0;0.0
4.0;1753876243.804444;18.324298;0.68;-1.19;0.03;0.887629;-0.45934;0.032591;90.0;0.0;0.0;4.0;0.0;0.0
4.0;1753876243.809046;18.333628;0.69;-1.12;0.11;0.886377;-0.460811;0.031407;90.2;0.0;0.0;4.0;0.0;0.0
4.0;1753876243.813648;18.313782;0.63;-1.16;0.04;0.886114;-0.459895;0.032403;90.0;0.0;0.0;4.0;0.0;0.0
4.0;1753876243.81825;18.366395;0.73;-1.14;0.01;0.886632;-0.460681;0.031903;90.5;0.0;0.0;4.0;0.0;0.0
4.0;1753876243.822852;18.346837;0.76;-1.25;0.05;0.886961;-0.459503;0.031847;90.3;0.0;0.0;4.0;0.0;0.0
4.0;1753876243.827454;18.363683;0.68;-1.24;0.02;0.886664;-0.461188;0.032357;89.1;0.0;0.0;4.0;0.0;0.0
4.0;1753876243.832056;18.305074;0.71;-1.21;0.05;0.886431;-0.459386;0.03319;89.8;0.0;0.0;4.0;0.0;0.0
4.0;1753876243.836658;18.362915;0.73;-1.24;0.09;0.886025;-0.460343;0.031883;90.7;0.0;0.0;4.0;0.0;0.0
4.0;1753876243.84126;18.27662;0.73;-1.23;0.07;0.886303;-0.460491;0.032389;90.6;0.0;0.0;4.0;0.0;0.0
4.0;1753876243.845862;18.369116;0.59;-1.21;-0.02;0.885547;-0.459059;0.031347;90.5;0.0;0.0;4.0;0.0;0.0
4.0;1753876243.850464;18.350246;0.74;-1.28;0.13;0.88581;-0.459956;0.030257;89.8;0.0;0.0;4.0;0.0;0.0
4.0;1753876243.855065;18.319374;0.82;-1.25;0.03;0.887085;-0.459733;0.032193;89.8;0.0;0.0;4.0;0.0;0.0
4.0;1753876243.859667;18.294406;0.69;-1.16;0.01;0.885771;-0.460579;0.032306;90.2;0.0;0.0;4.0;0.0;0.0
4.0;1753876243.864269;18.361382;0.71;-1.18;0.04;0.886599;-0.459672;0.031867;89.3;0.0;0.0;4.0;0.0;0.0
4.0;1753876243.868871;18.303074;0.82;-1.29;0.06;0.885045;-0.46032;0.030869;89.5;0.0;0.0;4.0;0.0;0.0
4.0;1753876243.873473;18.358976;0.81;-1.21;0.05;0.886393;-0.459178;0.030838;89.7;0.0;0.0;4.0;0.0;0.0
4.0;1753876243.878075;18.370636;0.71;-1.2;0.04;0.886468;-0.458789;0.032545;89.6;0.0;0.0;4.0;0.0;0.0
4.0;1753876243.882677;18.354432;0.87;-1.19;0.04;0.885377;-0.459136;0.031954;90.1;0.0;0.0;4.0;0.0;0.0
4.0;1753876243.887279;18.40012;0.84;-1.06;0.02;0.886744;-0.459815;0.032014;89.8;0.0;0.0;4.0;0.0;0.0
4.0;1753876243.89325;18.359375;0.77;-1.19;0.0;0.885842;-0.459696;0.031964;90.0;0.0;0.0;4.0;0.0;0.0
4.0;1753876243.897852;18.336736;0.79;-1.12;-0.02;0.885146;-0.460063;0.030957;90.6;0.0;0.0;4.0;0.0;0.0
4.0;1753876243.902454;18.360861;0.82;-1.11;0.12;0.885779;-0.459502;0.030131;89.4;0.0;0.0;4.0;0.0;0.0
4.0;1753876243.907056;18.383945;0.65;-1.2;0.09;0.88558;-0.460438;0.030752;89.5;0.0;0.0;4.0;0.0;0.0
4.0;1753876243.911658;18.322788;0.7;-1.1;0.03;0.885451;-0.460632;0.032159;89.9;0.0;0.0;4.0;0.0;0.0
4.0;1753876243.91626;18.326414;0.8;-1.18;0.04;0.885769;-0.461205;0.031306;89.9;0.0;0.0;4.0;0.0;0.0
4.0;1753876243.920862;18.330428;0.65;-1.14;0.07;0.886429;-0.461302;0.030318;90.9;0.0;0.0;4.0;0.0;0.0
4.0;1753876243.925464;18.318297;0.62;-1.13;-0.02;0.885088;-0.461387;0.029588;90.6;0.0;0.0;4.0;0.0;0.0
4.0;1753876243.930066;18.320201;0.72;-1.16;0.05;0.884836;-0.46188;0.031646;89.1;0.0;0.0;4.0;0.0;0.0
4.0;1753876243.93523;18.359375;0.7;-1.12;0.07;0.885354;-0.461648;0.030134;90.0;0.0;0.0;4.0;0.0;0.0
4.0;1753876243.939832;18.337524;0.66;-1.14;0.09;0.885652;-0.462533;0.029339;89.9;0.0;0.0;4.0;0.0;0.0
4.0;1753876243.944434;18.350939;0.73;-1.12;0.07;0.885725;-0.461714;0.029924;89.7;0.0;0.0;4.0;0.0;0.0
4.0;1753876243.949036;18.332767;0.66;-1.18;0.06;0.887068;-0.461393;0.031692;90.1;0.0;0.0;4.0;0.0;0.0
4.0;1753876243.953638;18.374049;0.6;-1.09;0.02;0.884945;-0.460639;0.029657;89.9;0.0;0.0;4.0;0.0;0.0
4.0;1753876243.95824;18.362832;0.72;-1.23;0.12;0.885685;-0.461396;0.031518;89.8;0.0;0.0;4.0;0.0;0.0
4.0;1753876243.962842;18.367517;0.65;-1.1;0.12;0.886365;-0.461481;0.031023;90.2;0.0;0.0;4.0;0.0;0.0
4.0;1753876243.967444;18.37482;0.62;-1.26;0.03;0.88646;-0.460835;0.031088;90.2;0.0;0.0;4.0;0.0;0.0
4.0;1753876243.972046;18.348524;0.69;-1.22;0.06;0.886817;-0.461151;0.031265;90.0;0.0;0.0;4.0;0.0;0.0
4.0;1753876243.97971;18.359375;0.63;-1.19;0.07;0.886208;-0.460794;0.03111;90.0;0.0;0.0;4.0;0.0;0.0
4.0;1753876243.980744;18.296875;0.49;-1.12;0.91;0.878522;-0.4758;0.030378;88.0;0.0;0.0;4.0;0.0;0.0
4.0;1753876243.985294;18.296875;0.63;-1.19;0.91;0.872788;-0.482266;0.02867;88.0;0.0;0.0;4.0;0.0;0.0
4.0;1753876243.989822;18.296875;0.63;-1.19;0.91;0.87779;-0.476044;0.027694;88.0;0.0;0.0;4.0;0.0;0.0
4.0;1753876243.995119;18.296875;0.7;-1.19;0.84;0.872422;-0.48495;0.026474;88.0;0.0;0.0;4.0;0.0;0.0
4.0;1753876243.999721;18.283736;0.72;-1.25;3.27;0.87491;-0.484196;0.017589;87.9;0.0;0.0;4.0;0.0;0.0
4.0;1753876244.004323;18.277623;0.62;-1.19;0.61;0.875838;-0.484547;0.017404;87.9;0.0;0.0;4.0;0.0;0.0
4.0;1753876244.008925;18.311373;0.56;-1.28;1.35;0.87156;-0.485904;0.028216;86.1;0.0;0.0;4.0;0.0;0.0
4.0;1753876244.013527;18.292001;0.74;-1.19;0.94;0.877191;-0.485747;0.02225;86.6;0.0;0.0;4.0;0.0;0.0
4.0;1753876244.018129;18.285124;0.69;-1.16;1.28;0.876083;-0.485722;0.029351;90.0;0.0;0.0;4.0;0.0;0.0
4.0;1753876244.022731;18.294408;0.64;-1.09;-2.62;0.870967;-0.479463;0.025537;86.8;0.0;0.0;4.0;0.0;0.0
4.0;1753876244.027333;18.312548;0.82;-1.27;4.69;0.876121;-0.488083;0.027138;90.0;0.0;0.0;4.0;0.0;0.0
4.0;1753876244.031935;18.289929;0.57;-1.03;-0.11;0.876454;-0.484634;0.030267;86.7;0.0;0.0;4.0;0.0;0.0
4.0;1753876244.036537;18.306125;0.63;-1.35;-0.33;0.874702;-0.486785;0.021378;89.0;0.0;0.0;4.0;0.0;0.0
4.0;1753876244.041139;18.298559;0.48;-1.2;3.04;0.877419;-0.487948;0.020552;90.0;0.0;0.0;4.0;0.0;0.0
4.0;1753876244.04574;18.292852;0.38;-1.28;-2.24;0.869777;-0.485323;0.02497;85.9;0.0;0.0;4.0;0.0;0.0
4.0;1753876244.050342;18.292483;0.69;-1.36;0.51;0.877739;-0.481417;0.030746;90.2;0.0;0.0;4.0;0.0;0.0
4.0;1753876244.054944;18.293082;0.69;-1.26;0.22;0.869359;-0.484983;0.024497;90.3;0.0;0.0;4.0;0.0;0.0
4.0;1753876244.059546;18.289386;0.49;-1.16;0.05;0.873608;-0.483019;0.023822;89.6;0.0;0.0;4.0;0.0;0.0
4.0;1753876244.064148;18.295152;0.6;-1.16;1.89;0.873137;-0.490346;0.022719;89.9;0.0;0.0;4.0;0.0;0.0
4.0;1753876244.06875;18.316517;0.57;-1.16;0.66;0.879741;-0.478875;0.025916;87.6;0.0;0.0;4.0;0.0;0.0
4.0;1753876244.073352;18.282797;0.63;-1.16;-0.54;0.871912;-0.483411;0.024189;88.6;0.0;0.0;4.0;0.0;0.0
4.0;1753876244.077954;18.299369;0.69;-1.22;1.34;0.868642;-0.48267;0.02002;88.6;0.0;0.0;4.0;0.0;0.0
4.0;1753876244.082556;18.311504;0.68;-1.19;0.97;0.873583;-0.478947;0.02611;92.2;0.0;0.0;4.0;0.0;0.0
4.0;1753876244.087158;18.296262;0.74;-1.16;0.43;0.873335;-0.482852;0.022848;87.5;0.0;0.0;4.0;0.0;0.0
4.0;1753876244.09176;18.28022;0.62;-1.28;-2.28;0.872155;-0.487377;0.027122;90.4;0.0;0.0;4.0;0.0;0.0
4.0;1753876244.096362;18.282858;0.69;-1.13;-1.38;0.870784;-0.480841;0.018611;89.7;0.0;0.0;4.0;0.0;0.0
4.0;1753876244.100964;18.29608;0.66;-1.08;2.12;0.874362;-0.481003;0.017553;88.4;0.0;0.0;4.0;0.0;0.0
4.0;1753876244.105566;18.280943;0.67;-1.17;3.32;0.873277;-0.488161;0.027824;88.3;0.0;0.0;4.0;0.0;0.0
4.0;1753876244.110168;18.303418;0.74;-1.23;2.01;0.874509;-0.478251;0.019041;90.9;0.0;0.0;4.0;0.0;0.0
4.0;1753876244.11477;18.283411;0.52;-1.25;0.2;0.873794;-0.475315;0.022825;87.8;0.0;0.0;4.0;0.0;0.0
4.0;1753876244.119372;18.31209;0.71;-1.25;3.32;0.875397;-0.478515;0.027665;90.7;0.0;0.0;4.0;0.0;0.0
4.0;1753876244.123974;18.30876;0.67;-1.19;2.22;0.873023;-0.482068;0.030008;90.6;0.0;0.0;4.0;0.0;0.0
4.0;1753876244.128576;18.305877;0.74;-1.17;2.39;0.871137;-0.475702;0.032414;86.9;0.0;0.0;4.0;0.0;0.0
4.0;1753876244.133178;18.278236;0.74;-1.17;0.42;0.875892;-0.480364;0.020396;89.1;0.0;0.0;4.0;0.0;0.0
4.0;1753876244.13778;18.288694;0.65;-1.23;-0.28;0.871931;-0.483734;0.023754;90.7;0.0;0.0;4.0;0.0;0.0
4.0;1753876244.142382;18.308081;0.75;-1.1;-2.68;0.869645;-0.482561;0.021971;89.5;0.0;0.0;4.0;0.0;0.0
4.0;1753876244.146984;18.29706;0.49;-1.22;1.16;0.872885;-0.48559;0.021497;89.6;0.0;0.0;4.0;0.0;0.0
4.0;1753876244.151586;18.293677;0.63;-1.23;0.11;0.879038;-0.478519;0.031628;90.3;0.0;0.0;4.0;0.0;0.0
4.0;1753876244.156188;18.282759;0.73;-1.19;-0.31;0.872539;-0.479918;0.021731;90.8;0.0;0.0;4.0;0.0;0.0
4.0;1753876244.16079;18.309282;0.65;-1.27;1.11;0.87247;-0.474145;0.025091;90.3;0.0;0.0;4.0;0.0;0.0
4.0;1753876244.165392;18.298164;0.77;-1.26;0.01;0.875172;-0.484577;0.018711;92.6;0.0;0.0;4.0;0.0;0.0
4.0;1753876244.169994;18.29566;0.63;-1.1;1.66;0.875694;-0.480634;0.03307;86.4;0.0;0.0;4.0;0.0;0.0
4.0;1753876244.174595;18.317271;0.79;-1.21;-0.02;0.879;-0.485212;0.014827;89.4;0.0;0.0;4.0;0.0;0.0
4.0;1753876244.179197;18.29451;0.63;-1.14;-0.6;0.873177;-0.487043;0.026398;89.9;0.0;0.0;4.0;0.0;0.0
4.0;1753876244.183799;18.288156;0.46;-1.21;3.12;0.87734;-0.48109;0.024117;88.6;0.0;0.0;4.0;0.0;0.0
4.0;1753876244.188401;18.289546;0.7;-1.2;3.58;0.872778;-0.481126;0.031087;89.7;0.0;0.0;4.0;0.0;0.0
4.0;1753876244.193003;18.304555;0.6;-1.15;1.25;0.874725;-0.478484;0.019571;87.9;0.0;0.0;4.0;0.0;0.0
4.0;1753876244.197605;18.300605;0.55;-1.08;1.51;0.87636;-0.482786;0.025576;90.1;0.0;0.0;4.0;0.0;0.0
4.0;1753876244.202207;18.305806;0.69;-1.13;1.66;0.875816;-0.481696;0.027129;92.2;0.0;0.0;4.0;0.0;0.0
4.0;1753876244.206809;18.284826;0.68;-1.18;-0.51;0.871896;-0.478271;0.024641;90.5;0.0;0.0;4.0;0.0;0.0
4.0;1753876244.211411;18.303023;0.56;-1.23;0.08;0.877171;-0.475129;0.020127;89.6;0.0;0.0;4.0;0.0;0.0
4.0;1753876244.216013;18.294966;0.59;-1.26;2.23;0.875528;-0.477587;0.023416;91.3;0.0;0.0;4.0;0.0;0.0
4.0;1753876244.220615;18.289902;0.7;-1.09;2.34;0.878666;-0.471799;0.034603;92.5;0.0;0.0;4.0;0.0;0.0
4.0;1753876244.225217;18.29967;0.65;-1.32;0.12;0.880254;-0.479612;0.023254;88.9;0.0;0.0;4.0;0.0;0.0
4.0;1753876244.229819;18.294985;0.74;-1.2;0.37;0.8761;-0.475647;0.015352;92.6;0.0;0.0;4.0;0.0;0.0
4.0;1753876244.234421;18.304459;0.74;-1.15;0.29;0.876131;-0.474241;0.027857;91.1;0.0;0.0;4.0;0.0;0.0
4.0;1753876244.2413;18.296875;0.63;-1.19;0.77;0.875472;-0.479826;0.02562;91.0;0.0;0.0;4.0;0.0;0.0
4.0;1753876244.245902;18.286688;0.73;-1.21;0.4;0.874175;-0.484054;0.020816;94.4;0.0;0.0;4.0;0.0;0.0
4.0;1753876244.250504;18.304641;0.48;-1.22;-2.84;0.873791;-0.479921;0.024266;89.5;0.0;0.0;4.0;0.0;0.0
4.0;1753876244.255106;18.298599;0.67;-1.26;0.4;0.872432;-0.475089;0.018992;89.4;0.0;0.0;4.0;0.0;0.0
4.0;1753876244.259708;18.276353;0.6;-1.35;-1.58;0.872484;-0.486314;0.02571;91.9;0.0;0.0;4.0;0.0;0.0
4.0;1753876244.26431;18.31137;0.76;-1.12;0.05;0.877409;-0.477513;0.028512;90.4;0.0;0.0;4.0;0.0;0.0
4.0;1753876244.268912;18.292489;0.66;-1.22;1.99;0.870738;-0.475382;0.02476;91.1;0.0;0.0;4.0;0.0;0.0
4.0;1753876244.273514;18.315769;0.65;-1.1;1.43;0.875169;-0.47712;0.022857;91.4;0.0;0.0;4.0;0.0;0.0
4.0;1753876244.278116;18.289494;0.62;-1.29;2.36;0.87696;-0.476804;0.022611;89.4;0.0;0.0;4.0;0.0;0.0
4.0;1753876244.282718;18.28538;0.7;-1.12;2.21;0.875285;-0.486852;0.026557;90.2;0.0;0.0;4.0;0.0;0.0
4.0;1753876244.28732;18.306073;0.73;-1.21;0.83;0.874042;-0.488005;0.025829;92.7;0.0;0.0;4.0;0.0;0.0
4.0;1753876244.291922;18.278054;0.62;-1.09;1.43;0.877851;-0.481963;0.024053;90.0;0.0;0.0;4.0;0.0;0.0
4.0;1753876244.296524;18.295738;0.7;-1.13;1.74;0.87078;-0.483999;0.025379;89.4;0.0;0.0;4.0;0.0;0.0
4.0;1753876244.301126;18.306751;0.58;-1.13;2.88;0.868844;-0.485621;0.021095;90.0;0.0;0.0;4.0;0.0;0.0
4.0;1753876244.305728;18.287205;0.47;-1.21;0.41;0.873756;-0.486007;0.024724;91.9;0.0;0.0;4.0;0.0;0.0
4.0;1753876244.31033;18.302876;0.65;-1.07;-1.07;0.874219;-0.481938;0.029048;88.5;0.0;0.0;4.0;0.0;0.0
4.0;1753876244.314932;18.301206;0.66;-1.08;3.0;0.871851;-0.486584;0.018538;89.2;0.0;0.0;4.0;0.0;0.0
4.0;1753876244.319533;18.29663;0.59;-1.08;-1.4;0.871677;-0.484062;0.022489;92.6;0.0;0.0;4.0;0.0;0.0
4.0;1753876244.324135;18.283845;0.66;-1.04;3.33;0.872481;-0.491782;0.029183;89.9;0.0;0.0;4.0;0.0;0.0
4.0;1753876244.328737;18.287879;0.78;-1.16;1.25;0.868498;-0.484397;0.024381;91.4;0.0;0.0;4.0;0.0;0.0
4.0;1753876244.333339;18.309087;0.77;-1.11;1.38;0.873133;-0.4856;0.031261;92.0;0.0;0.0;4.0;0.0;0.0
4.0;1753876244.337941;18.287915;0.54;-1.2;2.03;0.872767;-0.485318;0.028307;86.9;0.0;0.0;4.0;0.0;0.0
4.0;1753876244.3457;18.296875;0.63;-1.12;0.63;0.870836;-0.48739;0.025742;91.0;0.0;0.0;4.0;0.0;0.0
4.0;1753876244.350302;18.293728;0.7;-1.12;0.02;0.870003;-0.485801;0.03451;88.4;0.0;0.0;4.0;0.0;0.0
4.0;1753876244.354904;18.330316;0.53;-1.11;-0.15;0.878681;-0.473811;0.02687;91.3;0.0;0.0;4.0;0.0;0.0
4.0;1753876244.35926;18.3125;0.63;-1.12;-0.28;0.877058;-0.478728;0.033672;91.0;0.0;0.0;4.0;0.0;0.0
4.0;1753876244.363862;18.321257;0.64;-1.13;-0.68;0.877083;-0.471077;0.031334;89.3;0.0;0.0;4.0;0.0;0.0
4.0;1753876244.368464;18.327218;0.65;-1.16;-0.85;0.876543;-0.47023;0.035694;89.8;0.0;0.0;4.0;0.0;0.0
4.0;1753876244.373066;18.30155;0.61;-1.12;-0.85;0.876373;-0.477351;0.036391;93.6;0.0;0.0;4.0;0.0;0.0
4.0;1753876244.377668;18.316756;0.65;-1.1;-0.08;0.879014;-0.474699;0.035701;92.8;0.0;0.0;4.0;0.0;0.0
4.0;1753876244.38227;18.310936;0.6;-1.07;-0.46;0.880187;-0.485046;0.032707;89.8;0.0;0.0;4.0;0.0;0.0
4.0;1753876244.386872;18.311298;0.59;-1.11;-0.98;0.88232;-0.475437;0.035984;91.9;0.0;0.0;4.0;0.0;0.0
4.0;1753876244.391474;18.312451;0.45;-1.14;0.17;0.876868;-0.48194;0.033511;88.4;0.0;0.0;4.0;0.0;0.0
4.0;1753876244.39905;18.3125;0.56;-1.12;-0.28;0.877424;-0.479094;0.03538;91.0;0.0;0.0;4.0;0.0;0.0
4.0;1753876244.403652;18.297567;0.56;-1.17;-0.51;0.872568;-0.48037;0.034227;90.3;0.0;0.0;4.0;0.0;0.0
4.0;1753876244.408254;18.316628;0.68;-1.15;-0.98;0.874776;-0.483159;0.031878;92.2;0.0;0.0;4.0;0.0;0.0
4.0;1753876244.412856;18.30138;0.64;-1.1;0.21;0.879278;-0.473763;0.039046;90.4;0.0;0.0;4.0;0.0;0.0
4.0;1753876244.417458;18.316271;0.48;-1.19;-0.36;0.877012;-0.487893;0.031107;89.8;0.0;0.0;4.0;0.0;0.0
4.0;1753876244.42206;18.300847;0.55;-1.13;-0.61;0.869506;-0.47694;0.033612;92.2;0.0;0.0;4.0;0.0;0.0
4.0;1753876244.426662;18.304407;0.64;-1.1;-0.77;0.877142;-0.481917;0.032975;91.6;0.0;0.0;4.0;0.0;0.0
4.0;1753876244.431264;18.321161;0.58;-1.06;0.18;0.874793;-0.484741;0.03214;89.4;0.0;0.0;4.0;0.0;0.0
4.0;1753876244.435866;18.320674;0.64;-1.15;0.02;0.87741;-0.487526;0.035082;90.3;0.0;0.0;4.0;0.0;0.0
4.0;1753876244.440468;18.316617;0.65;-1.07;-0.23;0.869824;-0.495842;0.035625;93.5;0.0;0.0;4.0;0.0;0.0
4.0;1753876244.44465;18.3125;0.63;-1.12;-0.28;0.874008;-0.482632;0.035868;91.0;0.0;0.0;4.0;0.0;0.0
4.0;1753876244.449252;18.288991;0.68;-1.11;-0.22;0.871358;-0.479966;0.0427;91.6;0.0;0.0;4.0;0.0;0.0
4.0;1753876244.453854;18.30587;0.56;-1.16;0.09;0.87369;-0.480268;0.039299;87.5;0.0;0.0;4.0;0.0;0.0
4.0;1753876244.458456;18.315171;0.65;-1.14;-0.25;0.873458;-0.489704;0.035715;94.0;0.0;0.0;4.0;0.0;0.0
4.0;1753876244.463058;18.312931;0.7;-1.09;-0.35;0.872035;-0.486004;0.036676;92.9;0.0;0.0;4.0;0.0;0.0
4.0;1753876244.46766;18.296876;0.6;-1.11;-0.83;0.871921;-0.485501;0.032574;91.0;0.0;0.0;4.0;0.0;0.0
4.0;1753876244.472262;18.319695;0.62;-1.1;-0.02;0.877576;-0.483896;0.032478;90.0;0.0;0.0;4.0;0.0;0.0
4.0;1753876244.476864;18.318725;0.76;-1.13;-0.64;0.872918;-0.484728;0.041027;88.5;0.0;0.0;4.0;0.0;0.0
4.0;1753876244.481466;18.321675;0.6;-1.12;-0.21;0.872507;-0.478205;0.038672;89.3;0.0;0.0;4.0;0.0;0.0
4.0;1753876244.486068;18.309135;0.73;-1.12;0.0;0.873745;-0.478661;0.031889;89.7;0.0;0.0;4.0;0.0;0.0
4.0;1753876244.49067;18.316995;0.78;-1.1;-0.23;0.874277;-0.478588;0.027258;86.8;0.0;0.0;4.0;0.0;0.0
4.0;1753876244.495272;18.311052;0.66;-1.07;-0.36;0.869774;-0.47888;0.033142;90.3;0.0;0.0;4.0;0.0;0.0
4.0;1753876244.499874;18.316463;0.64;-1.13;0.21;0.87545;-0.484951;0.031406;87.3;0.0;0.0;4.0;0.0;0.0
4.0;1753876244.50796;18.320312;0.7;-1.12;-0.21;0.874008;-0.482022;0.035136;87.0;0.0;0.0;4.0;0.0;0.0
4.0;1753876244.512562;18.309248;0.8;-1.16;-0.47;0.875594;-0.495203;0.037415;86.8;0.0;0.0;4.0;0.0;0.0
4.0;1753876244.517164;18.302558;0.72;-1.11;0.65;0.874257;-0.489813;0.034053;84.8;0.0;0.0;4.0;0.0;0.0
4.0;1753876244.521766;18.321828;0.66;-1.16;-0.06;0.875351;-0.47851;0.034691;86.5;0.0;0.0;4.0;0.0;0.0
4.0;1753876244.526368;18.304247;0.62;-1.17;-0.37;0.875861;-0.486286;0.032646;89.6;0.0;0.0;4.0;0.0;0.0
4.0;1753876244.53097;18.318078;0.78;-1.06;-0.18;0.878802;-0.485606;0.035203;85.6;0.0;0.0;4.0;0.0;0.0
4.0;1753876244.535572;18.317659;0.87;-1.11;0.3;0.87324;-0.484854;0.045031;88.4;0.0;0.0;4.0;0.0;0.0
4.0;1753876244.540174;18.332851;0.71;-1.15;-0.7;0.873644;-0.476831;0.034528;86.1;0.0;0.0;4.0;0.0;0.0
4.0;1753876244.544776;18.333195;0.68;-1.18;-0.01;0.873436;-0.474155;0.03382;85.7;0.0;0.0;4.0;0.0;0.0
4.0;1753876244.549378;18.314188;0.84;-1.12;1.1;0.876505;-0.479162;0.031614;87.6;0.0;0.0;4.0;0.0;0.0
4.0;1753876244.55398;18.329428;0.84;-1.08;-0.09;0.87173;-0.471482;0.031242;88.5;0.0;0.0;4.0;0.0;0.0
4.0;1753876244.558582;18.33618;0.67;-1.16;0.89;0.871078;-0.480199;0.039272;88.6;0.0;0.0;4.0;0.0;0.0
4.0;1753876244.563184;18.300309;0.73;-1.14;-0.28;0.875028;-0.477041;0.034686;84.1;0.0;0.0;4.0;0.0;0.0
4.0;1753876244.57117;18.320312;0.77;-1.12;-0.07;0.875472;-0.480802;0.034648;87.0;0.0;0.0;4.0;0.0;0.0
4.0;1753876244.575772;18.324401;0.76;-1.14;-0.79;0.877586;-0.48262;0.035869;86.4;0.0;0.0;4.0;0.0;0.0
4.0;1753876244.58068;18.320312;0.7;-1.19;-0.21;0.873642;-0.483852;0.03233;87.0;0.0;0.0;4.0;0.0;0.0
4.0;1753876244.585282;18.313773;0.7;-1.27;0.73;0.873339;-0.480026;0.034376;88.2;0.0;0.0;4.0;0.0;0.0
4.0;1753876244.589884;18.333241;0.75;-1.22;-0.53;0.874792;-0.480939;0.036028;84.2;0.0;0.0;4.0;0.0;0.0
4.0;1753876244.594486;18.313601;0.63;-1.23;-1.35;0.877764;-0.485845;0.026617;86.6;0.0;0.0;4.0;0.0;0.0
4.0;1753876244.599088;18.328349;0.56;-1.22;-0.59;0.873635;-0.47989;0.030749;86.0;0.0;0.0;4.0;0.0;0.0
4.0;1753876244.60369;18.325019;0.62;-1.1;-1.0;0.875591;-0.48385;0.035421;86.1;0.0;0.0;4.0;0.0;0.0
4.0;1753876244.608292;18.316253;0.62;-1.21;-0.11;0.876622;-0.484335;0.034063;89.3;0.0;0.0;4.0;0.0;0.0
4.0;1753876244.612894;18.310745;0.57;-1.12;-0.21;0.876095;-0.486262;0.02979;88.5;0.0;0.0;4.0;0.0;0.0
4.0;1753876244.617496;18.317759;0.74;-1.16;0.33;0.876975;-0.47935;0.032853;88.4;0.0;0.0;4.0;0.0;0.0
4.0;1753876244.622098;18.317853;0.68;-1.11;0.18;0.877323;-0.478036;0.037635;85.7;0.0;0.0;4.0;0.0;0.0
4.0;1753876244.6267;18.322802;0.48;-1.15;0.2;0.872264;-0.476911;0.031081;86.3;0.0;0.0;4.0;0.0;0.0
4.0;1753876244.631302;18.331244;0.66;-1.18;-0.25;0.875954;-0.479669;0.028915;86.8;0.0;0.0;4.0;0.0;0.0
4.0;1753876244.635903;18.295156;0.52;-1.19;-0.13;0.878535;-0.479425;0.041494;87.3;0.0;0.0;4.0;0.0;0.0
4.0;1753876244.640505;18.322078;0.55;-1.07;-0.43;0.872586;-0.488826;0.030846;86.6;0.0;0.0;4.0;0.0;0.0
4.0;1753876244.645107;18.315035;0.54;-1.17;0.13;0.873704;-0.485489;0.032245;86.4;0.0;0.0;4.0;0.0;0.0
4.0;1753876244.649709;18.335118;0.71;-1.19;-0.49;0.876268;-0.481294;0.030099;84.5;0.0;0.0;4.0;0.0;0.0
4.0;1753876244.654311;18.304686;0.69;-1.1;0.28;0.874151;-0.489875;0.029839;88.2;0.0;0.0;4.0;0.0;0.0
4.0;1753876244.658913;18.314062;0.56;-1.11;0.95;0.876814;-0.472565;0.03291;85.4;0.0;0.0;4.0;0.0;0.0
4.0;1753876244.663515;18.319906;0.68;-1.13;-0.23;0.878953;-0.477971;0.027609;86.3;0.0;0.0;4.0;0.0;0.0
4.0;1753876244.67048;18.320312;0.63;-1.12;-0.21;0.876692;-0.480314;0.031232;87.0;0.0;0.0;4.0;0.0;0.0
4.0;1753876244.675082;18.32485;0.68;-1.13;0.32;0.877821;-0.486164;0.030806;88.3;0.0;0.0;4.0;0.0;0.0
4.0;1753876244.679684;18.325757;0.66;-1.14;-0.64;0.879373;-0.478721;0.031333;85.9;0.0;0.0;4.0;0.0;0.0
4.0;1753876244.684286;18.338781;0.63;-1.13;-0.97;0.876755;-0.475996;0.027527;87.4;0.0;0.0;4.0;0.0;0.0
4.0;1753876244.688888;18.325607;0.6;-1.13;0.63;0.876802;-0.487606;0.034579;86.1;0.0;0.0;4.0;0.0;0.0
4.0;1753876244.69349;18.334803;0.58;-1.13;-0.3;0.877537;-0.484003;0.034788;87.4;0.0;0.0;4.0;0.0;0.0
4.0;1753876244.698092;18.33739;0.61;-1.08;0.15;0.879755;-0.475735;0.029836;89.2;0.0;0.0;4.0;0.0;0.0
4.0;1753876244.702694;18.316002;0.67;-1.12;0.02;0.881349;-0.476941;0.027308;86.2;0.0;0.0;4.0;0.0;0.0
4.0;1753876244.707296;18.325049;0.7;-1.15;0.02;0.878439;-0.478848;0.028519;87.4;0.0;0.0;4.0;0.0;0.0
4.0;1753876244.711898;18.332951;0.68;-1.11;-0.86;0.877201;-0.475602;0.030789;86.3;0.0;0.0;4.0;0.0;0.0
4.0;1753876244.71773;18.320312;0.63;-1.12;-0.14;0.877058;-0.47824;0.0305;87.0;0.0;0.0;4.0;0.0;0.0
4.0;1753876244.722332;18.326679;0.76;-1.15;0.35;0.876644;-0.480404;0.032795;84.2;0.0;0.0;4.0;0.0;0.0
4.0;1753876244.726934;18.313913;0.62;-1.19;-0.34;0.877108;-0.480933;0.034182;89.8;0.0;0.0;4.0;0.0;0.0
4.0;1753876244.731536;18.329262;0.64;-1.14;-0.3;0.876924;-0.479138;0.029585;86.1;0.0;0.0;4.0;0.0;0.0
4.0;1753876244.736138;18.308549;0.65;-1.14;0.08;0.877555;-0.481971;0.028253;89.2;0.0;0.0;4.0;0.0;0.0
4.0;1753876244.74074;18.325975;0.61;-1.17;0.03;0.877831;-0.477011;0.030534;83.5;0.0;0.0;4.0;0.0;0.0
4.0;1753876244.745342;18.298384;0.61;-1.12;-0.47;0.876187;-0.487331;0.024342;88.5;0.0;0.0;4.0;0.0;0.0
4.0;1753876244.749944;18.329597;0.77;-1.19;-0.48;0.878162;-0.480775;0.035841;85.8;0.0;0.0;4.0;0.0;0.0
4.0;1753876244.754546;18.331454;0.71;-1.19;-0.99;0.873193;-0.482784;0.024497;88.1;0.0;0.0;4.0;0.0;0.0
4.0;1753876244.759148;18.320522;0.65;-1.2;-0.05;0.871689;-0.479538;0.024316;86.1;0.0;0.0;4.0;0.0;0.0
4.0;1753876244.76344;18.320312;0.7;-1.19;-0.21;0.87413;-0.481534;0.030378;87.0;0.0;0.0;4.0;0.0;0.0
4.0;1753876244.768042;18.326888;0.63;-1.15;-0.71;0.875296;-0.482617;0.036449;85.5;0.0;0.0;4.0;0.0;0.0
4.0;1753876244.772644;18.311977;0.71;-1.2;-0.39;0.871762;-0.481377;0.025922;83.7;0.0;0.0;4.0;0.0;0.0
4.0;1753876244.777246;18.317899;0.78;-1.21;-0.89;0.873241;-0.480832;0.024134;87.6;0.0;0.0;4.0;0.0;0.0
4.0;1753876244.781848;18.304798;0.65;-1.19;0.05;0.874121;-0.477731;0.032831;86.0;0.0;0.0;4.0;0.0;0.0
4.0;1753876244.78645;18.318931;0.52;-1.14;-0.18;0.874697;-0.485502;0.028098;89.5;0.0;0.0;4.0;0.0;0.0
4.0;1753876244.791052;18.314004;0.77;-1.18;-0.76;0.874304;-0.487829;0.03127;85.2;0.0;0.0;4.0;0.0;0.0
4.0;1753876244.795654;18.310831;0.49;-1.14;-0.13;0.877139;-0.48668;0.036673;85.0;0.0;0.0;4.0;0.0;0.0
4.0;1753876244.800256;18.308605;0.58;-1.11;0.22;0.875649;-0.481013;0.028357;88.2;0.0;0.0;4.0;0.0;0.0
4.0;1753876244.804858;18.31958;0.74;-1.12;-0.44;0.87544;-0.4782;0.032987;82.3;0.0;0.0;4.0;0.0;0.0
4.0;1753876244.80968;18.320312;0.63;-1.12;-0.28;0.87779;-0.479704;0.030012;87.0;0.0;0.0;4.0;0.0;0.0
4.0;1753876244.814282;18.318712;0.6;-1.08;-0.65;0.876019;-0.479724;0.037189;90.3;0.0;0.0;4.0;0.0;0.0
4.0;1753876244.818884;18.305825;0.65;-1.11;0.13;0.880059;-0.48297;0.020685;82.8;0.0;0.0;4.0;0.0;0.0
4.0;1753876244.823486;18.300902;0.6;-1.17;-0.91;0.879797;-0.477262;0.031329;89.9;0.0;0.0;4.0;0.0;0.0
4.0;1753876244.828088;18.31453;0.64;-1.08;-0.37;0.876856;-0.483779;0.035845;89.4;0.0;0.0;4.0;0.0;0.0
4.0;1753876244.83269;18.311491;0.56;-1.15;-0.1;0.876707;-0.474719;0.031571;88.0;0.0;0.0;4.0;0.0;0.0
4.0;1753876244.837292;18.299441;0.56;-1.14;-0.67;0.878653;-0.48461;0.032565;89.1;0.0;0.0;4.0;0.0;0.0
4.0;1753876244.841894;18.312854;0.78;-1.17;-0.55;0.87543;-0.477925;0.02622;87.8;0.0;0.0;4.0;0.0;0.0
4.0;1753876244.846496;18.309206;0.64;-1.19;-0.48;0.875754;-0.473356;0.031269;89.6;0.0;0.0;4.0;0.0;0.0
4.0;1753876244.85406;18.296875;0.7;-1.12;-0.35;0.87657;-0.477752;0.029646;87.0;0.0;0.0;4.0;0.0;0.0
4.0;1753876244.858662;18.308532;0.75;-1.11;0.1;0.874242;-0.47675;0.030467;90.6;0.0;0.0;4.0;0.0;0.0
4.0;1753876244.863264;18.29512;0.63;-1.15;-0.23;0.877153;-0.470932;0.028961;89.0;0.0;0.0;4.0;0.0;0.0
4.0;1753876244.867866;18.306542;0.65;-1.12;-0.27;0.876706;-0.482978;0.03284;85.0;0.0;0.0;4.0;0.0;0.0
4.0;1753876244.872468;18.296611;0.63;-1.14;-0.43;0.879673;-0.479602;0.026169;85.9;0.0;0.0;4.0;0.0;0.0
4.0;1753876244.87707;18.30893;0.66;-1.13;-0.05;0.875137;-0.476816;0.032272;88.7;0.0;0.0;4.0;0.0;0.0
4.0;1753876244.881672;18.303674;0.71;-1.17;-0.6;0.87657;-0.481536;0.029939;85.1;0.0;0.0;4.0;0.0;0.0
4.0;1753876244.886274;18.279142;0.66;-1.12;-0.59;0.874753;-0.47401;0.036291;83.7;0.0;0.0;4.0;0.0;0.0
4.0;1753876244.890876;18.275113;0.7;-1.13;-0.61;0.880289;-0.482607;0.02952;86.7;0.0;0.0;4.0;0.0;0.0
4.0;1753876244.89933;18.296875;0.7;-1.12;-0.14;0.87718;-0.47946;0.030622;87.0;0.0;0.0;4.0;0.0;0.0
4.0;1753876244.903932;18.300446;0.8;-1.08;-0.26;0.874857;-0.479321;0.023902;87.7;0.0;0.0;4.0;0.0;0.0
4.0;1753876244.908534;18.3071;0.73;-1.05;-0.37;0.877906;-0.487374;0.032522;86.4;0.0;0.0;4.0;0.0;0.0
4.0;1753876244.913136;18.290114;0.63;-1.1;-0.16;0.876369;-0.475192;0.029148;88.0;0.0;0.0;4.0;0.0;0.0
4.0;1753876244.917738;18.304444;0.66;-1.11;-0.33;0.87289;-0.482747;0.024917;87.9;0.0;0.0;4.0;0.0;0.0
4.0;1753876244.92234;18.282023;0.75;-1.1;0.34;0.876503;-0.474605;0.033438;85.9;0.0;0.0;4.0;0.0;0.0
4.0;1753876244.926942;18.300404;0.79;-1.12;-0.26;0.880512;-0.477325;0.031832;89.0;0.0;0.0;4.0;0.0;0.0
4.0;1753876244.931544;18.282165;0.68;-1.03;-0.35;0.874025;-0.478483;0.030891;83.8;0.0;0.0;4.0;0.0;0.0
4.0;1753876244.936146;18.296843;0.71;-1.02;-0.47;0.875336;-0.475471;0.03078;87.8;0.0;0.0;4.0;0.0;0.0
4.0;1753876244.940748;18.302344;0.75;-1.05;-0.12;0.879827;-0.482001;0.029507;89.0;0.0;0.0;4.0;0.0;0.0
4.0;1753876244.94862;18.296875;0.7;-1.05;-0.14;0.876936;-0.475556;0.030134;87.0;0.0;0.0;4.0;0.0;0.0
4.0;1753876244.953222;18.300093;0.59;-1.12;-0.04;0.877028;-0.479208;0.035208;88.6;0.0;0.0;4.0;0.0;0.0
4.0;1753876244.957824;18.304059;0.71;-1.06;-0.29;0.879754;-0.479209;0.027024;88.1;0.0;0.0;4.0;0.0;0.0
4.0;1753876244.962426;18.304913;0.75;-1.12;-0.37;0.875684;-0.471955;0.029389;89.4;0.0;0.0;4.0;0.0;0.0
4.0;1753876244.967028;18.29876;0.79;-1.11;0.33;0.878709;-0.480183;0.034044;91.5;0.0;0.0;4.0;0.0;0.0
4.0;1753876244.97163;18.309061;0.66;-1.13;-0.03;0.872822;-0.472654;0.027817;91.4;0.0;0.0;4.0;0.0;0.0
4.0;1753876244.976232;18.281752;0.74;-1.05;-0.18;0.874202;-0.48021;0.030107;85.1;0.0;0.0;4.0;0.0;0.0
4.0;1753876244.980834;18.296129;0.73;-1.14;0.04;0.872936;-0.477426;0.029835;86.8;0.0;0.0;4.0;0.0;0.0
4.0;1753876244.985436;18.310319;0.63;-1.12;-0.09;0.880663;-0.467122;0.030118;91.3;0.0;0.0;4.0;0.0;0.0
4.0;1753876244.990038;18.292258;0.72;-1.09;0.04;0.876497;-0.475874;0.031031;93.4;0.0;0.0;4.0;0.0;0.0
4.0;1753876244.99665;18.296875;0.7;-1.12;0.0;0.875472;-0.477142;0.027328;90.0;0.0;0.0;4.0;0.0;0.0
4.0;1753876245.001252;18.2524;0.74;-1.17;-0.06;0.874909;-0.477209;0.026708;90.1;0.0;0.0;4.0;0.0;0.0
4.0;1753876245.005854;18.273382;0.76;-1.04;-0.04;0.876628;-0.477045;0.028474;90.5;0.0;0.0;4.0;0.0;0.0
4.0;1753876245.010456;18.313108;0.64;-1.18;0.11;0.87686;-0.476914;0.027435;88.5;0.0;0.0;4.0;0.0;0.0
4.0;1753876245.015058;18.314286;0.52;-1.17;-0.01;0.875737;-0.478053;0.029738;90.6;0.0;0.0;4.0;0.0;0.0
4.0;1753876245.01966;18.271246;0.72;-1.12;0.04;0.875952;-0.477764;0.026888;88.7;0.0;0.0;4.0;0.0;0.0
4.0;1753876245.024262;18.311671;0.71;-1.15;-0.01;0.875222;-0.475241;0.027964;87.5;0.0;0.0;4.0;0.0;0.0
4.0;1753876245.028864;18.287637;0.74;-1.14;0.03;0.875131;-0.47865;0.030371;89.5;0.0;0.0;4.0;0.0;0.0
4.0;1753876245.033466;18.271944;0.75;-1.2;0.01;0.875961;-0.47803;0.029643;89.3;0.0;0.0;4.0;0.0;0.0
4.0;1753876245.038068;18.298427;0.69;-1.14;-0.02;0.874798;-0.478104;0.027786;87.3;0.0;0.0;4.0;0.0;0.0
4.0;1753876245.04267;18.303242;0.72;-1.16;0.13;0.875617;-0.478075;0.02852;91.0;0.0;0.0;4.0;0.0;0.0
4.0;1753876245.047272;18.265624;0.72;-1.2;0.09;0.874229;-0.480206;0.027588;88.5;0.0;0.0;4.0;0.0;0.0
4.0;1753876245.051874;18.257031;0.67;-1.14;0.08;0.876074;-0.476121;0.028975;86.0;0.0;0.0;4.0;0.0;0.0
4.0;1753876245.056476;18.277323;0.7;-1.13;0.05;0.876726;-0.476507;0.027162;87.4;0.0;0.0;4.0;0.0;0.0
4.0;1753876245.061077;18.301028;0.63;-1.12;0.11;0.875796;-0.47993;0.028311;84.3;0.0;0.0;4.0;0.0;0.0
4.0;1753876245.065679;18.265859;0.6;-1.17;-0.02;0.87491;-0.478823;0.028952;87.6;0.0;0.0;4.0;0.0;0.0
4.0;1753876245.070281;18.285471;0.68;-1.13;0.06;0.876235;-0.4796;0.028752;87.0;0.0;0.0;4.0;0.0;0.0
4.0;1753876245.074883;18.267352;0.71;-1.14;0.09;0.875755;-0.477702;0.029247;83.3;0.0;0.0;4.0;0.0;0.0
4.0;1753876245.079485;18.266241;0.59;-1.11;0.05;0.874319;-0.479278;0.028791;87.3;0.0;0.0;4.0;0.0;0.0
4.0;1753876245.084087;18.269109;0.61;-1.1;0.15;0.874943;-0.477769;0.030225;87.8;0.0;0.0;4.0;0.0;0.0
4.0;1753876245.088689;18.246196;0.64;-1.13;0.03;0.875926;-0.479883;0.028769;87.9;0.0;0.0;4.0;0.0;0.0
4.0;1753876245.093291;18.261434;0.67;-1.19;0.02;0.873362;-0.478732;0.02974;90.0;0.0;0.0;4.0;0.0;0.0
4.0;1753876245.097893;18.267255;0.58;-1.14;0.08;0.877993;-0.478718;0.029304;86.9;0.0;0.0;4.0;0.0;0.0
4.0;1753876245.102495;18.263155;0.62;-1.1;0.1;0.874386;-0.480065;0.029225;87.6;0.0;0.0;4.0;0.0;0.0
4.0;1753876245.107097;18.282717;0.68;-1.06;0.11;0.875892;-0.479877;0.029304;87.6;0.0;0.0;4.0;0.0;0.0
4.0;1753876245.111699;18.248161;0.69;-1.18;0.13;0.876154;-0.478676;0.028951;87.2;0.0;0.0;4.0;0.0;0.0
4.0;1753876245.116301;18.286543;0.62;-1.14;0.2;0.875198;-0.481769;0.030226;85.0;0.0;0.0;4.0;0.0;0.0
4.0;1753876245.120903;18.27049;0.63;-1.15;0.17;0.875107;-0.479968;0.029309;85.4;0.0;0.0;4.0;0.0;0.0
4.0;1753876245.125505;18.258152;0.68;-1.09;0.1;0.876074;-0.480038;0.031181;86.1;0.0;0.0;4.0;0.0;0.0
4.0;1753876245.1323;18.261719;0.63;-1.12;0.14;0.876204;-0.479704;0.030134;85.0;0.0;0.0;4.0;0.0;0.0
4.0;1753876245.136902;18.258387;0.72;-1.14;0.2;0.876938;-0.477412;0.031493;84.7;0.0;0.0;4.0;0.0;0.0
4.0;1753876245.141504;18.261101;0.61;-1.13;0.2;0.875196;-0.480059;0.029939;85.6;0.0;0.0;4.0;0.0;0.0
4.0;1753876245.146106;18.258242;0.54;-1.06;0.18;0.873515;-0.477647;0.029629;85.3;0.0;0.0;4.0;0.0;0.0
4.0;1753876245.150708;18.239809;0.65;-1.12;0.17;0.87593;-0.477334;0.030338;86.7;0.0;0.0;4.0;0.0;0.0
4.0;1753876245.15531;18.266409;0.7;-1.09;0.22;0.876622;-0.478498;0.030939;86.5;0.0;0.0;4.0;0.0;0.0
4.0;1753876245.159912;18.256425;0.69;-1.05;0.21;0.875507;-0.478162;0.029553;82.4;0.0;0.0;4.0;0.0;0.0
4.0;1753876245.164514;18.254406;0.63;-1.08;0.18;0.877847;-0.482008;0.031194;87.6;0.0;0.0;4.0;0.0;0.0
4.0;1753876245.169116;18.265091;0.58;-1.07;0.14;0.875274;-0.480875;0.031061;87.3;0.0;0.0;4.0;0.0;0.0
4.0;1753876245.173718;18.256273;0.58;-1.13;0.14;0.875908;-0.479377;0.029493;84.1;0.0;0.0;4.0;0.0;0.0
4.0;1753876245.17832;18.29648;0.62;-1.12;0.06;0.876565;-0.479899;0.029878;82.9;0.0;0.0;4.0;0.0;0.0
4.0;1753876245.182922;18.301744;0.61;-1.2;0.08;0.878933;-0.481551;0.030228;85.5;0.0;0.0;4.0;0.0;0.0
4.0;1753876245.187523;18.286447;0.59;-1.13;0.07;0.875595;-0.481384;0.029414;84.4;0.0;0.0;4.0;0.0;0.0
4.0;1753876245.192125;18.235489;0.68;-1.16;0.09;0.876023;-0.479418;0.030155;82.7;0.0;0.0;4.0;0.0;0.0
4.0;1753876245.196727;18.290266;0.57;-1.11;0.09;0.877429;-0.481853;0.031546;87.2;0.0;0.0;4.0;0.0;0.0
4.0;1753876245.201329;18.265687;0.64;-1.04;0.21;0.876376;-0.477162;0.030493;83.8;0.0;0.0;4.0;0.0;0.0
4.0;1753876245.205931;18.273686;0.68;-1.14;0.12;0.878274;-0.480532;0.029726;82.4;0.0;0.0;4.0;0.0;0.0
4.0;1753876245.210533;18.274833;0.68;-1.14;0.04;0.875451;-0.480808;0.029591;89.2;0.0;0.0;4.0;0.0;0.0
4.0;1753876245.215135;18.261609;0.58;-1.06;0.22;0.877494;-0.480427;0.031584;84.8;0.0;0.0;4.0;0.0;0.0
4.0;1753876245.219737;18.268095;0.62;-1.18;0.13;0.875431;-0.479398;0.029323;88.1;0.0;0.0;4.0;0.0;0.0
4.0;1753876245.224339;18.252655;0.61;-1.08;0.09;0.875598;-0.478995;0.031019;83.9;0.0;0.0;4.0;0.0;0.0
4.0;1753876245.228941;18.258845;0.68;-1.08;0.13;0.876314;-0.480328;0.03122;85.5;0.0;0.0;4.0;0.0;0.0
4.0;1753876245.233543;18.259391;0.64;-1.09;-0.02;0.876093;-0.480712;0.031932;83.1;0.0;0.0;4.0;0.0;0.0
4.0;1753876245.238145;18.250434;0.57;-1.17;0.09;0.875527;-0.4789;0.030643;84.1;0.0;0.0;4.0;0.0;0.0
4.0;1753876245.242747;18.236361;0.58;-1.18;0.18;0.876723;-0.480508;0.030404;83.3;0.0;0.0;4.0;0.0;0.0
4.0;1753876245.247349;18.257763;0.66;-1.13;0.07;0.876319;-0.47839;0.03085;83.4;0.0;0.0;4.0;0.0;0.0
4.0;1753876245.251951;18.270862;0.68;-1.2;0.1;0.877213;-0.479579;0.031443;83.8;0.0;0.0;4.0;0.0;0.0
4.0;1753876245.256553;18.226341;0.57;-1.09;0.15;0.876041;-0.48117;0.029975;85.0;0.0;0.0;4.0;0.0;0.0
4.0;1753876245.261155;18.259222;0.68;-1.08;0.16;0.876092;-0.479006;0.030575;84.7;0.0;0.0;4.0;0.0;0.0
4.0;1753876245.265756;18.274295;0.64;-1.09;0.12;0.875186;-0.481357;0.030773;85.0;0.0;0.0;4.0;0.0;0.0
4.0;1753876245.270358;18.310458;0.55;-1.2;0.17;0.876437;-0.480977;0.031639;84.8;0.0;0.0;4.0;0.0;0.0
4.0;1753876245.27496;18.236446;0.66;-1.11;0.16;0.876032;-0.481061;0.031383;84.3;0.0;0.0;4.0;0.0;0.0
4.0;1753876245.279562;18.233083;0.59;-1.11;0.04;0.8756;-0.481051;0.030557;86.2;0.0;0.0;4.0;0.0;0.0
4.0;1753876245.284164;18.267911;0.57;-1.15;0.07;0.877537;-0.478001;0.032216;83.7;0.0;0.0;4.0;0.0;0.0
4.0;1753876245.288766;18.25015;0.53;-1.06;0.19;0.876368;-0.480332;0.029097;84.1;0.0;0.0;4.0;0.0;0.0
4.0;1753876245.293368;18.263781;0.54;-1.15;0.15;0.877566;-0.481343;0.030943;85.0;0.0;0.0;4.0;0.0;0.0
4.0;1753876245.29797;18.257214;0.61;-1.16;0.14;0.877646;-0.4808;0.030921;83.7;0.0;0.0;4.0;0.0;0.0
4.0;1753876245.302572;18.252343;0.58;-1.15;0.14;0.876803;-0.481122;0.030352;87.4;0.0;0.0;4.0;0.0;0.0
4.0;1753876245.307174;18.257427;0.6;-1.12;0.13;0.875222;-0.481486;0.029562;83.3;0.0;0.0;4.0;0.0;0.0
4.0;1753876245.311776;18.270104;0.48;-1.06;0.21;0.874826;-0.479945;0.030162;82.6;0.0;0.0;4.0;0.0;0.0
4.0;1753876245.316378;18.265238;0.57;-1.14;0.2;0.875751;-0.48098;0.031914;84.4;0.0;0.0;4.0;0.0;0.0
4.0;1753876245.32098;18.276565;0.57;-1.17;0.07;0.874981;-0.47997;0.030903;88.8;0.0;0.0;4.0;0.0;0.0
4.0;1753876245.325582;18.271459;0.67;-1.18;0.07;0.877401;-0.480328;0.031429;83.8;0.0;0.0;4.0;0.0;0.0
4.0;1753876245.330184;18.266499;0.71;-1.14;0.09;0.875852;-0.480779;0.031861;84.7;0.0;0.0;4.0;0.0;0.0
4.0;1753876245.334786;18.262106;0.53;-1.1;0.12;0.873897;-0.480683;0.031109;84.2;0.0;0.0;4.0;0.0;0.0
4.0;1753876245.339388;18.286481;0.64;-1.16;0.11;0.874706;-0.479913;0.031427;86.2;0.0;0.0;4.0;0.0;0.0
4.0;1753876245.34399;18.272964;0.53;-1.1;0.09;0.875321;-0.478478;0.030489;87.5;0.0;0.0;4.0;0.0;0.0
4.0;1753876245.348592;18.238457;0.53;-1.07;0.06;0.873732;-0.481868;0.031857;82.6;0.0;0.0;4.0;0.0;0.0
4.0;1753876245.353194;18.280826;0.64;-1.01;0.05;0.878126;-0.479822;0.030807;83.6;0.0;0.0;4.0;0.0;0.0
4.0;1753876245.357796;18.281393;0.58;-1.12;0.11;0.874856;-0.480711;0.030418;84.2;0.0;0.0;4.0;0.0;0.0
4.0;1753876245.362398;18.282414;0.56;-1.13;0.02;0.877123;-0.479397;0.031702;83.6;0.0;0.0;4.0;0.0;0.0
4.0;1753876245.367;18.23473;0.62;-1.12;0.03;0.875637;-0.479472;0.031329;87.1;0.0;0.0;4.0;0.0;0.0
4.0;1753876245.371602;18.264745;0.65;-1.12;0.15;0.87869;-0.481862;0.031403;87.4;0.0;0.0;4.0;0.0;0.0
4.0;1753876245.376204;18.265865;0.6;-1.08;0.02;0.876636;-0.481894;0.031427;87.1;0.0;0.0;4.0;0.0;0.0
4.0;1753876245.380806;18.229249;0.53;-1.1;0.06;0.87612;-0.479026;0.031988;81.8;0.0;0.0;4.0;0.0;0.0
4.0;1753876245.385408;18.260664;0.59;-1.07;0.07;0.875171;-0.484026;0.03155;86.6;0.0;0.0;4.0;0.0;0.0
4.0;1753876245.39001;18.268154;0.56;-1.17;0.06;0.877795;-0.480259;0.03081;82.2;0.0;0.0;4.0;0.0;0.0
4.0;1753876245.394611;18.270693;0.54;-1.14;0.12;0.87577;-0.479316;0.030645;86.4;0.0;0.0;4.0;0.0;0.0
4.0;1753876245.399213;18.270387;0.56;-1.08;0.08;0.876127;-0.480476;0.032253;85.6;0.0;0.0;4.0;0.0;0.0
4.0;1753876245.403815;18.258322;0.59;-1.14;0.09;0.875193;-0.480923;0.031981;87.8;0.0;0.0;4.0;0.0;0.0
4.0;1753876245.408417;18.258307;0.65;-1.08;0.06;0.87481;-0.481252;0.031306;86.3;0.0;0.0;4.0;0.0;0.0
4.0;1753876245.413019;18.252975;0.63;-1.16;0.1;0.87607;-0.479272;0.030358;83.3;0.0;0.0;4.0;0.0;0.0
4.0;1753876245.417621;18.248313;0.55;-1.04;0.07;0.874562;-0.48163;0.032529;88.9;0.0;0.0;4.0;0.0;0.0
4.0;1753876245.422223;18.249847;0.49;-1.05;0.11;0.875712;-0.479104;0.030656;80.5;0.0;0.0;4.0;0.0;0.0
4.0;1753876245.426825;18.286735;0.61;-1.15;0.01;0.876037;-0.482016;0.030906;82.2;0.0;0.0;4.0;0.0;0.0
4.0;1753876245.431427;18.225514;0.65;-1.13;0.07;0.875091;-0.483154;0.031188;84.4;0.0;0.0;4.0;0.0;0.0
4.0;1753876245.436029;18.286435;0.54;-1.13;0.03;0.876301;-0.479447;0.031548;84.0;0.0;0.0;4.0;0.0;0.0
4.0;1753876245.440631;18.262257;0.62;-1.08;0.13;0.875809;-0.481582;0.031941;86.2;0.0;0.0;4.0;0.0;0.0
4.0;1753876245.445233;18.249384;0.6;-1.09;0.07;0.876788;-0.481389;0.031164;84.5;0.0;0.0;4.0;0.0;0.0
4.0;1753876245.449835;18.265415;0.62;-1.17;0.13;0.876642;-0.481208;0.030594;84.1;0.0;0.0;4.0;0.0;0.0
4.0;1753876245.454437;18.276132;0.57;-1.07;0.03;0.877267;-0.477595;0.032908;85.3;0.0;0.0;4.0;0.0;0.0
4.0;1753876245.459039;18.280774;0.62;-1.19;0.08;0.874958;-0.479977;0.031647;85.5;0.0;0.0;4.0;0.0;0.0
4.0;1753876245.463641;18.258851;0.52;-1.12;0.04;0.873802;-0.481594;0.031752;84.7;0.0;0.0;4.0;0.0;0.0
4.0;1753876245.468243;18.280757;0.62;-1.14;0.1;0.875836;-0.481508;0.031602;83.2;0.0;0.0;4.0;0.0;0.0
4.0;1753876245.472844;18.262941;0.51;-1.13;0.09;0.876328;-0.481015;0.032938;85.8;0.0;0.0;4.0;0.0;0.0
4.0;1753876245.4806;18.261719;0.56;-1.12;0.07;0.875716;-0.481168;0.031842;85.0;0.0;0.0;4.0;0.0;0.0
4.0;1753876245.485202;18.268881;0.48;-1.12;0.11;0.875661;-0.48144;0.032447;82.4;0.0;0.0;4.0;0.0;0.0
4.0;1753876245.489804;18.28743;0.54;-1.18;0.1;0.874892;-0.480926;0.031361;83.3;0.0;0.0;4.0;0.0;0.0
4.0;1753876245.494406;18.246127;0.56;-1.11;0.01;0.876095;-0.481866;0.032689;80.5;0.0;0.0;4.0;0.0;0.0
4.0;1753876245.499008;18.299111;0.67;-1.09;0.17;0.877063;-0.481364;0.031909;82.7;0.0;0.0;4.0;0.0;0.0
4.0;1753876245.50361;18.269956;0.66;-1.14;-0.02;0.874178;-0.479725;0.031609;84.4;0.0;0.0;4.0;0.0;0.0
4.0;1753876245.508212;18.249043;0.57;-1.16;0.05;0.876115;-0.481507;0.031581;86.0;0.0;0.0;4.0;0.0;0.0
4.0;1753876245.512814;18.262629;0.48;-1.1;0.06;0.874058;-0.480834;0.030982;84.6;0.0;0.0;4.0;0.0;0.0
4.0;1753876245.517416;18.286692;0.55;-1.08;0.07;0.875532;-0.480568;0.031348;85.1;0.0;0.0;4.0;0.0;0.0
4.0;1753876245.522018;18.283184;0.51;-1.09;0.03;0.876338;-0.481603;0.031675;83.3;0.0;0.0;4.0;0.0;0.0
4.0;1753876245.52662;18.317134;0.55;-1.21;0.15;0.874719;-0.480305;0.031295;84.3;0.0;0.0;4.0;0.0;0.0
4.0;1753876245.531222;18.270982;0.6;-1.19;0.05;0.875054;-0.480932;0.031444;84.5;0.0;0.0;4.0;0.0;0.0
4.0;1753876245.535824;18.251856;0.58;-1.08;0.11;0.875236;-0.48124;0.030429;83.4;0.0;0.0;4.0;0.0;0.0
4.0;1753876245.540426;18.251698;0.61;-1.15;0.15;0.873903;-0.479335;0.031378;86.9;0.0;0.0;4.0;0.0;0.0
4.0;1753876245.545028;18.283846;0.46;-1.1;0.05;0.876833;-0.48161;0.032077;85.1;0.0;0.0;4.0;0.0;0.0
4.0;1753876245.54963;18.249969;0.68;-1.12;0.06;0.876223;-0.479242;0.032072;87.6;0.0;0.0;4.0;0.0;0.0
4.0;1753876245.554232;18.247913;0.39;-1.09;-0.01;0.876972;-0.482796;0.032027;88.8;0.0;0.0;4.0;0.0;0.0
4.0;1753876245.558833;18.262348;0.54;-1.18;0.18;0.875327;-0.480042;0.031651;81.9;0.0;0.0;4.0;0.0;0.0
4.0;1753876245.563435;18.262407;0.61;-1.07;0.08;0.874416;-0.482922;0.030331;83.3;0.0;0.0;4.0;0.0;0.0
4.0;1753876245.568037;18.271553;0.52;-1.07;0.08;0.876229;-0.480949;0.032053;86.0;0.0;0.0;4.0;0.0;0.0
4.0;1753876245.572639;18.287663;0.48;-1.13;0.06;0.876377;-0.480759;0.031667;83.4;0.0;0.0;4.0;0.0;0.0
4.0;1753876245.577241;18.249291;0.65;-1.14;0.04;0.873297;-0.480376;0.030929;86.4;0.0;0.0;4.0;0.0;0.0
4.0;1753876245.581843;18.246848;0.65;-1.17;0.06;0.875457;-0.481636;0.031313;85.2;0.0;0.0;4.0;0.0;0.0
4.0;1753876245.586445;18.279009;0.68;-1.15;0.09;0.877158;-0.480866;0.031212;84.6;0.0;0.0;4.0;0.0;0.0
4.0;1753876245.591047;18.254592;0.54;-1.2;0.02;0.876202;-0.479391;0.030017;86.5;0.0;0.0;4.0;0.0;0.0
4.0;1753876245.595649;18.279764;0.58;-1.19;0.02;0.877009;-0.480569;0.031266;85.2;0.0;0.0;4.0;0.0;0.0
4.0;1753876245.600251;18.240164;0.58;-1.17;0.11;0.877548;-0.481461;0.031335;84.6;0.0;0.0;4.0;0.0;0.0
4.0;1753876245.604853;18.244499;0.51;-1.15;0.05;0.876508;-0.482171;0.031065;87.2;0.0;0.0;4.0;0.0;0.0
4.0;1753876245.609455;18.276714;0.64;-1.18;0.1;0.876314;-0.481677;0.030555;85.6;0.0;0.0;4.0;0.0;0.0
4.0;1753876245.614057;18.253461;0.66;-1.13;0.06;0.875296;-0.479873;0.031997;84.6;0.0;0.0;4.0;0.0;0.0
4.0;1753876245.618659;18.244526;0.56;-1.07;0.04;0.876322;-0.4811;0.032028;84.1;0.0;0.0;4.0;0.0;0.0
4.0;1753876245.623261;18.225219;0.46;-1.12;-0.02;0.873499;-0.480608;0.03343;88.5;0.0;0.0;4.0;0.0;0.0
4.0;1753876245.627863;18.283835;0.52;-1.15;0.05;0.875633;-0.481957;0.031299;83.7;0.0;0.0;4.0;0.0;0.0
4.0;1753876245.632465;18.258518;0.64;-1.19;0.07;0.875438;-0.480281;0.031647;86.5;0.0;0.0;4.0;0.0;0.0
4.0;1753876245.637066;18.26073;0.52;-1.09;0.11;0.874357;-0.481007;0.032411;86.2;0.0;0.0;4.0;0.0;0.0
4.0;1753876245.641668;18.220098;0.58;-1.11;0.1;0.876138;-0.480903;0.030672;83.4;0.0;0.0;4.0;0.0;0.0
4.0;1753876245.64627;18.250036;0.61;-1.12;0.13;0.876049;-0.483228;0.03059;86.0;0.0;0.0;4.0;0.0;0.0
4.0;1753876245.650872;18.277934;0.58;-1.13;0.12;0.875659;-0.479236;0.030643;83.7;0.0;0.0;4.0;0.0;0.0
4.0;1753876245.655474;18.26734;0.7;-1.15;0.08;0.877017;-0.480451;0.031399;84.2;0.0;0.0;4.0;0.0;0.0
4.0;1753876245.660076;18.269477;0.53;-1.18;-0.03;0.87527;-0.481352;0.032215;83.2;0.0;0.0;4.0;0.0;0.0
4.0;1753876245.664678;18.276311;0.57;-1.08;0.13;0.877778;-0.482592;0.031267;82.9;0.0;0.0;4.0;0.0;0.0
4.0;1753876245.66928;18.268571;0.61;-1.15;0.13;0.876344;-0.480693;0.03149;85.6;0.0;0.0;4.0;0.0;0.0
4.0;1753876245.673882;18.256491;0.48;-1.15;0.09;0.875437;-0.483651;0.031443;83.0;0.0;0.0;4.0;0.0;0.0
4.0;1753876245.678484;18.25481;0.57;-1.15;-0.01;0.876591;-0.480454;0.03088;86.5;0.0;0.0;4.0;0.0;0.0
4.0;1753876245.683086;18.261265;0.57;-1.09;0.09;0.877063;-0.48109;0.032255;86.8;0.0;0.0;4.0;0.0;0.0
4.0;1753876245.687688;18.276355;0.69;-1.14;0.07;0.875566;-0.481769;0.031197;85.0;0.0;0.0;4.0;0.0;0.0
4.0;1753876245.69229;18.259667;0.58;-1.17;0.13;0.875971;-0.481885;0.031757;84.3;0.0;0.0;4.0;0.0;0.0
4.0;1753876245.696892;18.275336;0.58;-1.14;0.08;0.876505;-0.481069;0.030481;83.8;0.0;0.0;4.0;0.0;0.0
4.0;1753876245.701494;18.28532;0.55;-1.08;0.03;0.874578;-0.481412;0.032008;84.6;0.0;0.0;4.0;0.0;0.0
4.0;1753876245.706096;18.253395;0.5;-1.26;0.05;0.874569;-0.480558;0.030894;86.7;0.0;0.0;4.0;0.0;0.0
4.0;1753876245.710698;18.276767;0.58;-1.17;0.03;0.875496;-0.480909;0.030388;80.0;0.0;0.0;4.0;0.0;0.0
4.0;1753876245.7153;18.253913;0.59;-1.19;-0.01;0.875455;-0.481057;0.030605;86.3;0.0;0.0;4.0;0.0;0.0
4.0;1753876245.719902;18.283349;0.6;-1.15;0.04;0.876519;-0.480449;0.030394;85.9;0.0;0.0;4.0;0.0;0.0
4.0;1753876245.724504;18.257059;0.52;-1.17;-0.0;0.876095;-0.482353;0.030929;84.4;0.0;0.0;4.0;0.0;0.0
4.0;1753876245.729106;18.261458;0.63;-1.18;0.09;0.875425;-0.480333;0.033172;83.3;0.0;0.0;4.0;0.0;0.0
4.0;1753876245.733708;18.298346;0.58;-1.16;0.08;0.875515;-0.478959;0.031449;86.8;0.0;0.0;4.0;0.0;0.0
4.0;1753876245.73831;18.298016;0.68;-1.26;0.06;0.875725;-0.478468;0.030998;84.7;0.0;0.0;4.0;0.0;0.0
4.0;1753876245.742912;18.278043;0.74;-1.11;0.07;0.874579;-0.481724;0.031692;87.7;0.0;0.0;4.0;0.0;0.0
4.0;1753876245.747514;18.25222;0.56;-1.2;0.05;0.876144;-0.480196;0.030678;86.4;0.0;0.0;4.0;0.0;0.0
4.0;1753876245.752116;18.260952;0.64;-1.13;0.06;0.875718;-0.4827;0.031109;85.5;0.0;0.0;4.0;0.0;0.0
4.0;1753876245.756718;18.265914;0.62;-1.09;0.05;0.876998;-0.482145;0.031688;84.1;0.0;0.0;4.0;0.0;0.0
4.0;1753876245.76132;18.2394;0.53;-1.18;0.03;0.875546;-0.480396;0.030676;87.3;0.0;0.0;4.0;0.0;0.0
4.0;1753876245.765921;18.235049;0.64;-1.13;0.09;0.876322;-0.482942;0.031894;83.0;0.0;0.0;4.0;0.0;0.0
4.0;1753876245.770523;18.279605;0.57;-1.19;0.06;0.873632;-0.481804;0.031707;85.5;0.0;0.0;4.0;0.0;0.0
4.0;1753876245.775125;18.283878;0.64;-1.12;0.09;0.875999;-0.478701;0.031104;86.1;0.0;0.0;4.0;0.0;0.0
4.0;1753876245.779727;18.2485;0.64;-1.2;0.09;0.876186;-0.481192;0.031894;85.7;0.0;0.0;4.0;0.0;0.0
4.0;1753876245.784329;18.276819;0.65;-1.15;0.1;0.878662;-0.479278;0.031387;81.7;0.0;0.0;4.0;0.0;0.0
4.0;1753876245.788931;18.255628;0.6;-1.12;0.06;0.875445;-0.481531;0.031767;86.3;0.0;0.0;4.0;0.0;0.0
4.0;1753876245.793533;18.29309;0.61;-1.19;-0.04;0.876797;-0.481668;0.029529;83.2;0.0;0.0;4.0;0.0;0.0
4.0;1753876245.798135;18.24003;0.56;-1.1;0.01;0.876281;-0.479404;0.032588;84.9;0.0;0.0;4.0;0.0;0.0
4.0;1753876245.802737;18.25771;0.59;-1.19;0.06;0.875737;-0.48254;0.030175;85.6;0.0;0.0;4.0;0.0;0.0
4.0;1753876245.807339;18.267717;0.75;-1.23;-0.01;0.875401;-0.480481;0.03055;82.3;0.0;0.0;4.0;0.0;0.0
4.0;1753876245.811941;18.299481;0.67;-1.23;0.1;0.875907;-0.48056;0.031622;81.1;0.0;0.0;4.0;0.0;0.0
4.0;1753876245.816543;18.311846;0.68;-1.13;0.04;0.875832;-0.481859;0.031709;87.2;0.0;0.0;4.0;0.0;0.0
4.0;1753876245.821145;18.260355;0.67;-1.19;0.15;0.877465;-0.480514;0.031155;86.4;0.0;0.0;4.0;0.0;0.0
4.0;1753876245.825747;18.269459;0.66;-1.16;0.13;0.874804;-0.482939;0.03149;83.2;0.0;0.0;4.0;0.0;0.0
4.0;1753876245.830349;18.278881;0.61;-1.22;0.1;0.874557;-0.47981;0.030205;84.5;0.0;0.0;4.0;0.0;0.0
4.0;1753876245.834951;18.2636;0.55;-1.19;0.07;0.874336;-0.478672;0.031914;84.7;0.0;0.0;4.0;0.0;0.0
4.0;1753876245.839553;18.267885;0.57;-1.12;0.06;0.875723;-0.48005;0.031528;87.3;0.0;0.0;4.0;0.0;0.0
4.0;1753876245.844154;18.232137;0.61;-1.17;0.06;0.875467;-0.479679;0.0317;81.0;0.0;0.0;4.0;0.0;0.0
4.0;1753876245.848756;18.273606;0.71;-1.18;0.11;0.877069;-0.48039;0.031988;84.9;0.0;0.0;4.0;0.0;0.0
4.0;1753876245.853358;18.244833;0.62;-1.18;-0.01;0.873682;-0.483063;0.031582;88.2;0.0;0.0;4.0;0.0;0.0
4.0;1753876245.85796;18.265035;0.66;-1.14;0.12;0.875601;-0.48199;0.031193;85.3;0.0;0.0;4.0;0.0;0.0
4.0;1753876245.862562;18.251819;0.61;-1.18;0.05;0.873841;-0.479327;0.031484;84.1;0.0;0.0;4.0;0.0;0.0
4.0;1753876245.867164;18.254725;0.61;-1.17;0.12;0.876002;-0.480521;0.030136;85.9;0.0;0.0;4.0;0.0;0.0
4.0;1753876245.871766;18.236142;0.74;-1.14;0.03;0.875894;-0.480441;0.030905;85.5;0.0;0.0;4.0;0.0;0.0
4.0;1753876245.876368;18.277074;0.68;-1.19;0.11;0.87425;-0.483452;0.031158;88.9;0.0;0.0;4.0;0.0;0.0
4.0;1753876245.88097;18.252802;0.72;-1.17;0.12;0.874369;-0.482679;0.031404;83.3;0.0;0.0;4.0;0.0;0.0
4.0;1753876245.885572;18.246343;0.6;-1.21;0.1;0.874975;-0.481048;0.032213;84.5;0.0;0.0;4.0;0.0;0.0
4.0;1753876245.890174;18.251591;0.67;-1.14;0.07;0.876962;-0.48177;0.030668;86.3;0.0;0.0;4.0;0.0;0.0
4.0;1753876245.894776;18.249593;0.67;-1.2;0.05;0.875679;-0.480248;0.031381;86.5;0.0;0.0;4.0;0.0;0.0
4.0;1753876245.899378;18.238224;0.61;-1.15;0.18;0.876464;-0.480777;0.030928;85.3;0.0;0.0;4.0;0.0;0.0
4.0;1753876245.90398;18.246317;0.65;-1.2;0.09;0.875253;-0.479236;0.030731;84.4;0.0;0.0;4.0;0.0;0.0
4.0;1753876245.908582;18.259341;0.64;-1.05;0.04;0.876055;-0.481182;0.029875;84.7;0.0;0.0;4.0;0.0;0.0
4.0;1753876245.913184;18.236524;0.67;-1.23;0.07;0.877937;-0.481504;0.030856;86.1;0.0;0.0;4.0;0.0;0.0
4.0;1753876245.917786;18.256882;0.68;-1.28;0.08;0.876948;-0.481031;0.030594;85.4;0.0;0.0;4.0;0.0;0.0
4.0;1753876245.922388;18.239528;0.61;-1.17;0.08;0.874063;-0.481899;0.031146;86.7;0.0;0.0;4.0;0.0;0.0
4.0;1753876245.92699;18.255031;0.62;-1.27;0.06;0.876753;-0.479423;0.030849;85.3;0.0;0.0;4.0;0.0;0.0
4.0;1753876245.9346;18.261719;0.63;-1.19;0.07;0.875594;-0.480802;0.030988;85.0;0.0;0.0;4.0;0.0;0.0
4.0;1753876245.93778;18.28125;0.7;-1.19;0.07;0.874496;-0.480192;0.0305;92.0;0.0;0.0;4.0;0.0;0.0
4.0;1753876245.942382;18.274381;0.62;-1.17;0.04;0.875181;-0.481304;0.030226;82.7;0.0;0.0;4.0;0.0;0.0
4.0;1753876245.946984;18.254638;0.66;-1.15;0.07;0.876095;-0.479277;0.030269;89.9;0.0;0.0;4.0;0.0;0.0
4.0;1753876245.951586;18.312818;0.64;-1.04;0.09;0.876607;-0.479947;0.030949;92.7;0.0;0.0;4.0;0.0;0.0
4.0;1753876245.956188;18.27659;0.56;-1.16;0.08;0.87638;-0.478176;0.031347;93.3;0.0;0.0;4.0;0.0;0.0
4.0;1753876245.96117;18.28125;0.63;-1.05;0.07;0.876082;-0.479094;0.030866;92.0;0.0;0.0;4.0;0.0;0.0
4.0;1753876245.965122;18.292969;0.7;-1.12;0.14;0.875838;-0.48068;0.03111;87.0;0.0;0.0;3.0;0.0;0.0
4.0;1753876245.969724;18.283643;0.66;-1.05;0.05;0.876406;-0.478034;0.030182;82.7;0.0;0.0;2.6;0.0;0.0
4.0;1753876245.977545;18.292969;0.56;-1.05;0.0;0.876326;-0.47885;0.030134;87.0;0.0;0.0;3.0;0.0;0.0
4.0;1753876245.983169;18.289062;0.56;-1.19;0.07;0.873398;-0.4819;0.032208;92.0;0.0;0.0;4.0;0.0;0.0
4.0;1753876245.987894;18.289062;0.63;-1.12;0.14;0.87413;-0.482144;0.030134;92.0;0.0;0.0;4.0;0.0;0.0
4.0;1753876245.992986;18.289062;0.63;-1.12;0.14;0.87413;-0.482144;0.030134;92.0;0.0;0.0;4.0;0.0;0.0
4.0;1753876245.997759;18.296875;0.7;-1.12;0.14;0.87413;-0.48251;0.029524;92.0;0.0;0.0;4.0;0.0;0.0
4.0;1753876246.002361;18.299483;0.6;-1.11;0.2;0.874539;-0.482164;0.029529;91.1;0.0;0.0;4.2;0.0;0.0
4.0;1753876246.006963;18.299726;0.59;-1.13;0.08;0.875299;-0.483097;0.029142;93.2;0.0;0.0;4.5;0.0;0.0
4.0;1753876246.011565;18.304033;0.68;-1.13;0.17;0.87334;-0.48096;0.029554;89.3;0.0;0.0;3.7;0.0;0.0
4.0;1753876246.016167;18.296979;0.73;-1.13;0.19;0.87499;-0.482614;0.029807;92.3;0.0;0.0;3.4;0.0;0.0
4.0;1753876246.020769;18.299;0.69;-1.14;0.13;0.874082;-0.483881;0.030441;91.6;0.0;0.0;3.7;0.0;0.0
4.0;1753876246.025371;18.300005;0.71;-1.15;0.12;0.874919;-0.483163;0.030314;89.2;0.0;0.0;4.2;0.0;0.0
4.0;1753876246.029973;18.293593;0.68;-1.21;0.06;0.874163;-0.484178;0.028993;86.7;0.0;0.0;4.6;0.0;0.0
4.0;1753876246.034575;18.299984;0.64;-1.12;0.15;0.874703;-0.482174;0.030799;92.7;0.0;0.0;4.0;0.0;0.0
4.0;1753876246.039177;18.302442;0.71;-1.13;0.2;0.877001;-0.48217;0.029502;95.8;0.0;0.0;3.9;0.0;0.0
4.0;1753876246.043779;18.300067;0.68;-1.18;0.1;0.875032;-0.484334;0.030307;91.6;0.0;0.0;2.3;0.0;0.0
4.0;1753876246.04838;18.296879;0.59;-1.15;0.09;0.873835;-0.480419;0.028826;93.0;0.0;0.0;3.8;0.0;0.0
4.0;1753876246.052982;18.299085;0.66;-1.18;0.07;0.874948;-0.480718;0.029113;90.6;0.0;0.0;4.4;0.0;0.0
4.0;1753876246.057584;18.296169;0.61;-1.16;0.08;0.874603;-0.483268;0.030417;90.5;0.0;0.0;4.2;0.0;0.0
4.0;1753876246.062186;18.299701;0.69;-1.21;0.07;0.873322;-0.482802;0.029982;98.8;0.0;0.0;3.8;0.0;0.0
4.0;1753876246.066788;18.294708;0.68;-1.21;0.13;0.873711;-0.481121;0.028754;92.6;0.0;0.0;3.7;0.0;0.0
4.0;1753876246.07139;18.294795;0.58;-1.17;0.21;0.874443;-0.483793;0.028784;91.5;0.0;0.0;3.8;0.0;0.0
4.0;1753876246.075992;18.296798;0.64;-1.18;0.07;0.874898;-0.480986;0.029483;91.7;0.0;0.0;4.3;0.0;0.0
4.0;1753876246.080594;18.290659;0.65;-1.28;0.01;0.874153;-0.481747;0.030318;93.1;0.0;0.0;4.1;0.0;0.0
4.0;1753876246.085196;18.290862;0.57;-1.19;0.15;0.875156;-0.480521;0.02961;89.9;0.0;0.0;3.7;0.0;0.0
4.0;1753876246.089798;18.29626;0.61;-1.22;0.08;0.874954;-0.481556;0.030824;92.6;0.0;0.0;4.1;0.0;0.0
4.0;1753876246.0944;18.301746;0.58;-1.23;0.06;0.875839;-0.480227;0.029415;95.2;0.0;0.0;4.2;0.0;0.0
4.0;1753876246.099002;18.301971;0.64;-1.13;0.08;0.875273;-0.479588;0.029433;91.1;0.0;0.0;3.5;0.0;0.0
4.0;1753876246.103604;18.302689;0.71;-1.31;0.02;0.872422;-0.482486;0.030541;92.1;0.0;0.0;3.9;0.0;0.0
4.0;1753876246.108206;18.296267;0.64;-1.18;0.08;0.874423;-0.483643;0.029257;91.4;0.0;0.0;3.4;0.0;0.0
4.0;1753876246.112808;18.299526;0.62;-1.18;0.05;0.874462;-0.483265;0.029642;91.9;0.0;0.0;4.3;0.0;0.0
4.0;1753876246.11741;18.294028;0.61;-1.21;0.07;0.874835;-0.482635;0.03033;92.9;0.0;0.0;4.2;0.0;0.0
4.0;1753876246.122012;18.29751;0.5;-1.23;0.02;0.875489;-0.482274;0.029465;90.5;0.0;0.0;4.0;0.0;0.0
4.0;1753876246.126614;18.29507;0.62;-1.2;0.07;0.874402;-0.479325;0.029154;94.9;0.0;0.0;4.6;0.0;0.0
4.0;1753876246.131216;18.297445;0.59;-1.25;0.06;0.876545;-0.482606;0.02929;94.2;0.0;0.0;4.5;0.0;0.0
4.0;1753876246.135818;18.298965;0.62;-1.2;-0.05;0.875497;-0.481106;0.03076;92.3;0.0;0.0;3.4;0.0;0.0
4.0;1753876246.14042;18.298131;0.61;-1.31;0.07;0.877995;-0.484875;0.031203;89.7;0.0;0.0;4.2;0.0;0.0
4.0;1753876246.145022;18.2948;0.61;-1.15;0.07;0.876023;-0.478612;0.029235;88.0;0.0;0.0;3.8;0.0;0.0
4.0;1753876246.149624;18.296816;0.52;-1.25;0.1;0.87442;-0.480101;0.029827;86.8;0.0;0.0;4.4;0.0;0.0
4.0;1753876246.154226;18.296049;0.57;-1.25;0.13;0.875907;-0.481657;0.030316;96.2;0.0;0.0;4.3;0.0;0.0
4.0;1753876246.158828;18.293022;0.57;-1.27;0.06;0.874592;-0.482359;0.030126;90.7;0.0;0.0;4.6;0.0;0.0
4.0;1753876246.16343;18.297699;0.46;-1.24;0.06;0.875004;-0.481502;0.029133;96.1;0.0;0.0;3.4;0.0;0.0
4.0;1753876246.1716;18.296875;0.56;-1.26;0.07;0.875716;-0.48129;0.030256;92.0;0.0;0.0;4.0;0.0;0.0
4.0;1753876246.176202;18.299317;0.57;-1.32;0.1;0.873342;-0.481252;0.029328;89.6;0.0;0.0;3.9;0.0;0.0
4.0;1753876246.180804;18.299073;0.58;-1.3;0.17;0.875246;-0.479844;0.029337;96.0;0.0;0.0;4.7;0.0;0.0
4.0;1753876246.185406;18.292982;0.44;-1.23;0.02;0.875322;-0.484342;0.031951;90.8;0.0;0.0;3.3;0.0;0.0
4.0;1753876246.190008;18.300469;0.61;-1.3;0.02;0.87499;-0.48179;0.031325;100.1;0.0;0.0;4.4;0.0;0.0
4.0;1753876246.19461;18.293356;0.55;-1.24;0.04;0.876165;-0.480682;0.030172;92.5;0.0;0.0;3.9;0.0;0.0
4.0;1753876246.199212;18.301216;0.5;-1.18;0.16;0.876756;-0.480486;0.030479;91.4;0.0;0.0;4.2;0.0;0.0
4.0;1753876246.203814;18.299275;0.64;-1.29;0.12;0.874607;-0.481283;0.030177;88.6;0.0;0.0;4.7;0.0;0.0
4.0;1753876246.208416;18.296433;0.62;-1.23;0.06;0.876564;-0.480999;0.029126;92.0;0.0;0.0;4.1;0.0;0.0
4.0;1753876246.213018;18.293734;0.57;-1.28;0.09;0.877152;-0.477889;0.029212;92.8;0.0;0.0;4.1;0.0;0.0
4.0;1753876246.21762;18.298956;0.53;-1.29;0.13;0.875549;-0.48144;0.030473;90.2;0.0;0.0;4.2;0.0;0.0
4.0;1753876246.222222;18.293851;0.7;-1.24;0.04;0.875792;-0.482329;0.03047;91.8;0.0;0.0;4.4;0.0;0.0
4.0;1753876246.226824;18.294576;0.53;-1.21;0.13;0.874726;-0.478559;0.029385;91.6;0.0;0.0;3.8;0.0;0.0
4.0;1753876246.231426;18.298199;0.53;-1.32;0.05;0.87658;-0.480811;0.029868;93.4;0.0;0.0;2.8;0.0;0.0
4.0;1753876246.236028;18.29323;0.59;-1.3;0.13;0.876557;-0.480645;0.029577;97.6;0.0;0.0;4.0;0.0;0.0
4.0;1753876246.24063;18.294399;0.5;-1.23;0.21;0.876621;-0.482083;0.029793;91.7;0.0;0.0;4.0;0.0;0.0
4.0;1753876246.245232;18.298157;0.55;-1.3;0.11;0.874355;-0.482875;0.031006;91.5;0.0;0.0;4.1;0.0;0.0
4.0;1753876246.249833;18.298379;0.58;-1.17;0.08;0.873839;-0.481999;0.031573;90.9;0.0;0.0;3.5;0.0;0.0
4.0;1753876246.254435;18.293238;0.52;-1.2;0.07;0.873828;-0.483494;0.029852;94.9;0.0;0.0;4.4;0.0;0.0
4.0;1753876246.259037;18.303205;0.59;-1.29;0.04;0.875285;-0.482281;0.030522;91.9;0.0;0.0;4.3;0.0;0.0
4.0;1753876246.263639;18.293755;0.62;-1.27;0.04;0.874977;-0.477371;0.030125;94.9;0.0;0.0;4.4;0.0;0.0
4.0;1753876246.268241;18.299335;0.54;-1.21;0.15;0.875745;-0.480356;0.030491;90.8;0.0;0.0;4.5;0.0;0.0
4.0;1753876246.272843;18.300318;0.49;-1.16;0.09;0.874321;-0.482162;0.030977;94.7;0.0;0.0;3.8;0.0;0.0
4.0;1753876246.277445;18.295618;0.5;-1.22;0.12;0.875432;-0.481243;0.030782;98.6;0.0;0.0;2.9;0.0;0.0
4.0;1753876246.282047;18.295616;0.5;-1.23;0.2;0.875518;-0.479788;0.030489;98.6;0.0;0.0;3.6;0.0;0.0
4.0;1753876246.286649;18.295901;0.5;-1.19;0.08;0.87498;-0.482222;0.031364;92.1;0.0;0.0;4.4;0.0;0.0
4.0;1753876246.291251;18.29745;0.6;-1.29;0.16;0.875281;-0.480998;0.030177;89.1;0.0;0.0;3.3;0.0;0.0
4.0;1753876246.295853;18.298143;0.52;-1.17;0.08;0.875576;-0.479742;0.030319;90.2;0.0;0.0;3.3;0.0;0.0
4.0;1753876246.300455;18.294747;0.57;-1.3;0.1;0.875572;-0.483808;0.028926;94.1;0.0;0.0;3.7;0.0;0.0
4.0;1753876246.305057;18.293631;0.55;-1.27;0.13;0.874455;-0.483058;0.030922;89.2;0.0;0.0;4.1;0.0;0.0
4.0;1753876246.309659;18.294285;0.47;-1.22;0.01;0.876282;-0.481782;0.031398;95.8;0.0;0.0;4.3;0.0;0.0
4.0;1753876246.314261;18.296705;0.58;-1.19;0.12;0.876015;-0.477183;0.030451;87.9;0.0;0.0;3.3;0.0;0.0
4.0;1753876246.318863;18.300091;0.59;-1.26;0.06;0.875605;-0.479917;0.029574;94.1;0.0;0.0;3.6;0.0;0.0
4.0;1753876246.323465;18.297326;0.56;-1.14;0.12;0.874812;-0.47832;0.030628;92.9;0.0;0.0;5.0;0.0;0.0
4.0;1753876246.328066;18.297454;0.47;-1.22;0.09;0.874467;-0.480745;0.03091;88.8;0.0;0.0;3.9;0.0;0.0
4.0;1753876246.332668;18.294383;0.5;-1.18;0.09;0.876786;-0.480072;0.030977;86.4;0.0;0.0;4.1;0.0;0.0
4.0;1753876246.33727;18.299179;0.48;-1.23;0.04;0.875874;-0.479097;0.030792;91.5;0.0;0.0;3.7;0.0;0.0
4.0;1753876246.341872;18.303474;0.49;-1.18;0.02;0.876826;-0.4793;0.031045;87.2;0.0;0.0;4.1;0.0;0.0
4.0;1753876246.346474;18.298432;0.44;-1.19;-0.05;0.875539;-0.482088;0.030157;96.3;0.0;0.0;5.0;0.0;0.0
4.0;1753876246.351076;18.295191;0.54;-1.19;0.05;0.876601;-0.479797;0.03066;96.6;0.0;0.0;3.9;0.0;0.0
4.0;1753876246.355678;18.296927;0.5;-1.27;0.07;0.876889;-0.4805;0.030946;91.1;0.0;0.0;3.7;0.0;0.0
4.0;1753876246.36028;18.292469;0.56;-1.18;0.11;0.874257;-0.482318;0.030957;85.6;0.0;0.0;4.7;0.0;0.0
4.0;1753876246.364882;18.299705;0.49;-1.2;0.11;0.876775;-0.48003;0.02911;90.7;0.0;0.0;3.1;0.0;0.0
4.0;1753876246.369484;18.294597;0.49;-1.19;0.17;0.875631;-0.483831;0.030898;91.4;0.0;0.0;3.9;0.0;0.0
4.0;1753876246.374086;18.295087;0.47;-1.2;0.08;0.876349;-0.477854;0.029888;91.5;0.0;0.0;3.9;0.0;0.0
4.0;1753876246.378688;18.300728;0.53;-1.07;0.16;0.876974;-0.477083;0.031103;91.5;0.0;0.0;4.4;0.0;0.0
4.0;1753876246.38329;18.29737;0.44;-1.28;0.06;0.873912;-0.484315;0.031203;94.8;0.0;0.0;4.0;0.0;0.0
4.0;1753876246.387892;18.296776;0.5;-1.25;0.1;0.87602;-0.480574;0.02982;89.4;0.0;0.0;3.4;0.0;0.0
4.0;1753876246.392494;18.294326;0.56;-1.18;0.09;0.874585;-0.478508;0.030553;91.6;0.0;0.0;4.4;0.0;0.0
4.0;1753876246.397096;18.296878;0.57;-1.23;0.15;0.875573;-0.47795;0.030603;93.0;0.0;0.0;3.7;0.0;0.0
4.0;1753876246.401698;18.290714;0.55;-1.18;0.15;0.87569;-0.481495;0.031059;93.7;0.0;0.0;4.0;0.0;0.0
4.0;1753876246.4063;18.295902;0.54;-1.18;0.13;0.875523;-0.48277;0.030322;95.3;0.0;0.0;3.2;0.0;0.0
4.0;1753876246.410902;18.301269;0.48;-1.18;0.15;0.876686;-0.480817;0.031619;93.3;0.0;0.0;3.6;0.0;0.0
4.0;1753876246.415504;18.294455;0.44;-1.15;0.04;0.874239;-0.48181;0.030487;92.1;0.0;0.0;3.4;0.0;0.0
4.0;1753876246.420106;18.303376;0.43;-1.25;0.07;0.876889;-0.479261;0.029789;93.6;0.0;0.0;4.3;0.0;0.0
4.0;1753876246.424708;18.286719;0.42;-1.26;0.1;0.875844;-0.479229;0.030985;88.3;0.0;0.0;3.5;0.0;0.0
4.0;1753876246.42931;18.291683;0.56;-1.05;0.06;0.87514;-0.483127;0.030858;94.8;0.0;0.0;4.7;0.0;0.0
4.0;1753876246.433912;18.300261;0.57;-1.18;0.12;0.876128;-0.479971;0.030205;91.5;0.0;0.0;4.4;0.0;0.0
4.0;1753876246.438514;18.295537;0.55;-1.19;0.12;0.874865;-0.480456;0.029002;92.9;0.0;0.0;4.3;0.0;0.0
4.0;1753876246.443116;18.29522;0.6;-1.12;0.02;0.874203;-0.478127;0.030141;94.5;0.0;0.0;4.1;0.0;0.0
4.0;1753876246.447718;18.294082;0.47;-1.16;0.1;0.876197;-0.478345;0.030274;89.1;0.0;0.0;3.8;0.0;0.0
4.0;1753876246.45232;18.295224;0.54;-1.13;0.21;0.873413;-0.482076;0.032417;91.5;0.0;0.0;4.2;0.0;0.0
4.0;1753876246.456921;18.294059;0.6;-1.19;0.11;0.874688;-0.479351;0.029969;93.3;0.0;0.0;4.5;0.0;0.0
4.0;1753876246.461523;18.299426;0.57;-1.19;0.08;0.87605;-0.481815;0.03051;89.2;0.0;0.0;3.0;0.0;0.0
4.0;1753876246.466125;18.302691;0.46;-1.21;0.0;0.876245;-0.481538;0.030832;95.0;0.0;0.0;3.7;0.0;0.0
4.0;1753876246.470727;18.301627;0.64;-1.17;0.18;0.874724;-0.480001;0.02978;91.2;0.0;0.0;3.7;0.0;0.0
4.0;1753876246.475329;18.294771;0.5;-1.23;0.09;0.877131;-0.479484;0.029437;87.6;0.0;0.0;4.0;0.0;0.0
4.0;1753876246.479931;18.299042;0.37;-1.11;0.17;0.875708;-0.480672;0.030436;91.3;0.0;0.0;3.9;0.0;0.0
4.0;1753876246.484533;18.293501;0.5;-1.11;0.08;0.875504;-0.478295;0.031266;90.3;0.0;0.0;3.3;0.0;0.0
4.0;1753876246.489135;18.294902;0.55;-1.11;0.11;0.876326;-0.479453;0.031272;97.7;0.0;0.0;4.5;0.0;0.0
4.0;1753876246.493737;18.298266;0.47;-1.27;0.05;0.876673;-0.483299;0.030374;89.9;0.0;0.0;4.0;0.0;0.0
4.0;1753876246.498339;18.295908;0.41;-1.23;0.12;0.876461;-0.478813;0.03;88.8;0.0;0.0;3.9;0.0;0.0
4.0;1753876246.502941;18.293598;0.37;-1.13;0.11;0.875016;-0.478491;0.029471;97.7;0.0;0.0;3.1;0.0;0.0
4.0;1753876246.507543;18.297209;0.53;-1.12;0.15;0.874102;-0.480169;0.032198;92.9;0.0;0.0;4.0;0.0;0.0
4.0;1753876246.512145;18.294705;0.6;-1.17;0.17;0.875025;-0.48286;0.031464;94.0;0.0;0.0;3.3;0.0;0.0
4.0;1753876246.516747;18.297798;0.51;-1.17;0.14;0.87566;-0.480669;0.031325;92.6;0.0;0.0;3.6;0.0;0.0
4.0;1753876246.521349;18.294459;0.48;-1.07;0.12;0.874383;-0.480528;0.029487;96.4;0.0;0.0;3.9;0.0;0.0
4.0;1753876246.525951;18.298344;0.5;-1.13;0.15;0.873783;-0.479918;0.030766;95.1;0.0;0.0;3.8;0.0;0.0
4.0;1753876246.530553;18.300516;0.4;-1.16;0.06;0.87634;-0.4814;0.030366;88.3;0.0;0.0;4.0;0.0;0.0
4.0;1753876246.535154;18.293525;0.44;-1.15;0.1;0.874674;-0.480596;0.029778;93.9;0.0;0.0;3.6;0.0;0.0
4.0;1753876246.539756;18.297016;0.49;-1.15;0.11;0.873591;-0.482252;0.031428;91.3;0.0;0.0;3.9;0.0;0.0
4.0;1753876246.544358;18.294507;0.44;-1.04;0.15;0.875794;-0.480085;0.02986;95.8;0.0;0.0;4.0;0.0;0.0
4.0;1753876246.54896;18.29877;0.55;-1.14;0.13;0.875809;-0.480297;0.030252;95.0;0.0;0.0;4.6;0.0;0.0
4.0;1753876246.553562;18.295799;0.53;-1.15;0.12;0.873986;-0.483004;0.030616;90.5;0.0;0.0;3.8;0.0;0.0
4.0;1753876246.558164;18.297425;0.48;-1.12;0.08;0.87627;-0.479777;0.030774;89.8;0.0;0.0;5.0;0.0;0.0
4.0;1753876246.562766;18.295936;0.46;-1.13;0.12;0.875872;-0.48096;0.031795;93.4;0.0;0.0;4.9;0.0;0.0
4.0;1753876246.567368;18.295247;0.39;-1.11;0.14;0.874878;-0.479884;0.030688;91.4;0.0;0.0;3.8;0.0;0.0
4.0;1753876246.57197;18.292543;0.44;-1.2;0.13;0.876504;-0.480538;0.031492;97.4;0.0;0.0;3.3;0.0;0.0
4.0;1753876246.576572;18.295911;0.49;-1.08;0.16;0.876253;-0.479007;0.029814;93.7;0.0;0.0;4.2;0.0;0.0
4.0;1753876246.581174;18.300578;0.41;-1.14;0.15;0.874049;-0.478676;0.030295;91.5;0.0;0.0;3.5;0.0;0.0
4.0;1753876246.585776;18.297179;0.48;-1.09;0.1;0.875595;-0.480783;0.031185;94.5;0.0;0.0;4.0;0.0;0.0
4.0;1753876246.590378;18.300557;0.48;-1.2;0.07;0.877015;-0.480501;0.031235;93.1;0.0;0.0;4.0;0.0;0.0
4.0;1753876246.59498;18.295495;0.42;-1.18;0.15;0.875553;-0.480558;0.029421;90.5;0.0;0.0;4.3;0.0;0.0
4.0;1753876246.599582;18.299532;0.54;-1.06;0.12;0.875658;-0.479497;0.030267;89.2;0.0;0.0;4.6;0.0;0.0
4.0;1753876246.604184;18.298331;0.54;-1.06;0.27;0.874778;-0.481333;0.03052;89.8;0.0;0.0;4.0;0.0;0.0
4.0;1753876246.6101;18.296875;0.49;-1.12;0.14;0.875228;-0.480314;0.030744;92.0;0.0;0.0;4.0;0.0;0.0
4.0;1753876246.614702;18.293084;0.52;-1.17;0.14;0.875342;-0.479937;0.03071;92.7;0.0;0.0;3.4;0.0;0.0
4.0;1753876246.619304;18.307856;0.44;-1.15;0.15;0.87378;-0.479773;0.031344;92.4;0.0;0.0;3.6;0.0;0.0
4.0;1753876246.623906;18.29923;0.47;-1.14;0.14;0.875621;-0.480949;0.03016;90.1;0.0;0.0;3.8;0.0;0.0
4.0;1753876246.628508;18.277772;0.58;-1.11;0.1;0.875634;-0.480036;0.03172;94.8;0.0;0.0;4.4;0.0;0.0
4.0;1753876246.63311;18.308176;0.43;-1.05;0.1;0.875993;-0.481426;0.030914;92.9;0.0;0.0;4.3;0.0;0.0
4.0;1753876246.637712;18.285579;0.45;-1.19;0.17;0.872991;-0.482;0.029655;92.5;0.0;0.0;4.0;0.0;0.0
4.0;1753876246.642314;18.28877;0.6;-1.08;0.12;0.874913;-0.481309;0.031663;91.9;0.0;0.0;3.3;0.0;0.0
4.0;1753876246.646916;18.29963;0.63;-1.1;0.1;0.872982;-0.47824;0.030426;92.8;0.0;0.0;3.9;0.0;0.0
4.0;1753876246.651518;18.28548;0.51;-1.17;0.13;0.872226;-0.481678;0.030423;88.7;0.0;0.0;3.2;0.0;0.0
4.0;1753876246.65612;18.286741;0.47;-1.11;0.12;0.875895;-0.482478;0.029955;89.3;0.0;0.0;3.8;0.0;0.0
4.0;1753876246.660722;18.305696;0.43;-1.21;0.18;0.87434;-0.479948;0.031074;86.2;0.0;0.0;3.5;0.0;0.0
4.0;1753876246.665324;18.284295;0.53;-1.17;0.16;0.874567;-0.481834;0.030692;89.7;0.0;0.0;4.0;0.0;0.0
4.0;1753876246.669926;18.279746;0.57;-1.02;0.15;0.874119;-0.481308;0.029838;93.6;0.0;0.0;3.4;0.0;0.0
4.0;1753876246.674528;18.289182;0.5;-1.13;0.13;0.875204;-0.479493;0.030163;89.4;0.0;0.0;3.7;0.0;0.0
4.0;1753876246.679129;18.276166;0.57;-1.24;0.16;0.875818;-0.480622;0.029859;88.8;0.0;0.0;3.4;0.0;0.0
4.0;1753876246.683731;18.274643;0.6;-1.19;0.18;0.873593;-0.48192;0.030954;91.8;0.0;0.0;3.5;0.0;0.0
4.0;1753876246.688333;18.28424;0.53;-1.17;0.19;0.873224;-0.478802;0.030331;94.1;0.0;0.0;2.7;0.0;0.0
4.0;1753876246.692935;18.278325;0.58;-1.2;0.13;0.875805;-0.479944;0.029817;89.1;0.0;0.0;2.9;0.0;0.0
4.0;1753876246.697537;18.273144;0.64;-1.18;0.13;0.873201;-0.481156;0.030766;89.2;0.0;0.0;3.5;0.0;0.0
4.0;1753876246.702139;18.277457;0.63;-1.22;0.12;0.871939;-0.48091;0.03145;89.1;0.0;0.0;3.9;0.0;0.0
4.0;1753876246.706741;18.268506;0.63;-1.22;0.21;0.871557;-0.482951;0.030986;90.4;0.0;0.0;3.2;0.0;0.0
4.0;1753876246.711343;18.283845;0.5;-1.19;0.17;0.872577;-0.481095;0.030535;86.7;0.0;0.0;3.3;0.0;0.0
4.0;1753876246.715945;18.290229;0.69;-1.18;0.16;0.873963;-0.480723;0.031518;89.8;0.0;0.0;2.7;0.0;0.0
4.0;1753876246.720547;18.268034;0.6;-1.3;0.2;0.873058;-0.481925;0.030325;88.6;0.0;0.0;3.0;0.0;0.0
4.0;1753876246.725149;18.285424;0.49;-1.24;0.13;0.875203;-0.480101;0.032157;91.3;0.0;0.0;3.5;0.0;0.0
4.0;1753876246.729751;18.271062;0.67;-1.25;0.18;0.874349;-0.481862;0.030996;88.2;0.0;0.0;3.8;0.0;0.0
4.0;1753876246.73834;18.273438;0.63;-1.19;0.14;0.87352;-0.481656;0.030866;89.0;0.0;0.0;3.0;0.0;0.0
4.0;1753876246.742942;18.277087;0.62;-1.14;0.14;0.873283;-0.481171;0.03016;88.6;0.0;0.0;3.8;0.0;0.0
4.0;1753876246.747544;18.283038;0.65;-1.13;0.22;0.873886;-0.483445;0.030874;89.0;0.0;0.0;3.8;0.0;0.0
4.0;1753876246.752146;18.26702;0.65;-1.11;0.09;0.873693;-0.482066;0.031137;89.2;0.0;0.0;3.5;0.0;0.0
4.0;1753876246.756748;18.285136;0.68;-1.12;0.12;0.876249;-0.481698;0.03022;85.1;0.0;0.0;2.9;0.0;0.0
4.0;1753876246.76135;18.268484;0.61;-1.1;0.18;0.874366;-0.480514;0.0325;90.1;0.0;0.0;3.0;0.0;0.0
4.0;1753876246.765952;18.275357;0.61;-1.21;0.14;0.873758;-0.480851;0.029856;88.7;0.0;0.0;3.9;0.0;0.0
4.0;1753876246.770554;18.262516;0.67;-1.18;0.07;0.8742;-0.482555;0.029876;86.0;0.0;0.0;3.7;0.0;0.0
4.0;1753876246.775156;18.274988;0.64;-1.08;0.06;0.875588;-0.481366;0.030809;87.8;0.0;0.0;3.6;0.0;0.0
4.0;1753876246.779758;18.276199;0.62;-1.12;0.1;0.875943;-0.483636;0.030194;88.7;0.0;0.0;2.9;0.0;0.0
4.0;1753876246.78436;18.270829;0.65;-1.02;0.18;0.875606;-0.484339;0.03002;88.1;0.0;0.0;3.1;0.0;0.0
4.0;1753876246.788962;18.270225;0.76;-1.04;0.09;0.875309;-0.481262;0.031851;89.4;0.0;0.0;4.0;0.0;0.0
4.0;1753876246.793563;18.282113;0.69;-1.03;0.07;0.874012;-0.483499;0.029047;85.7;0.0;0.0;3.8;0.0;0.0
4.0;1753876246.79782;18.273438;0.63;-1.05;0.07;0.87535;-0.482388;0.030134;88.0;0.0;0.0;4.0;0.0;0.0
4.0;1753876246.802422;18.274333;0.55;-1.0;0.09;0.87726;-0.481413;0.030092;90.5;0.0;0.0;3.3;0.0;0.0
4.0;1753876246.807024;18.274773;0.72;-1.07;0.1;0.876411;-0.48047;0.030463;82.9;0.0;0.0;4.3;0.0;0.0
4.0;1753876246.811626;18.288212;0.59;-1.09;0.06;0.876257;-0.481844;0.030815;89.7;0.0;0.0;3.9;0.0;0.0
4.0;1753876246.816228;18.266942;0.6;-1.02;0.13;0.875752;-0.479879;0.030676;86.8;0.0;0.0;3.2;0.0;0.0
4.0;1753876246.82083;18.261561;0.7;-1.11;0.06;0.874386;-0.482022;0.030775;88.7;0.0;0.0;3.7;0.0;0.0
4.0;1753876246.825432;18.271582;0.63;-1.1;0.12;0.874155;-0.48254;0.03051;88.6;0.0;0.0;4.6;0.0;0.0
4.0;1753876246.830034;18.276263;0.56;-1.14;0.11;0.875185;-0.48125;0.030506;88.3;0.0;0.0;4.4;0.0;0.0
4.0;1753876246.834636;18.28318;0.63;-1.12;0.18;0.875429;-0.482178;0.031257;85.7;0.0;0.0;3.9;0.0;0.0
4.0;1753876246.83929;18.273438;0.56;-1.12;0.14;0.875594;-0.481534;0.030988;88.0;0.0;0.0;4.0;0.0;0.0
4.0;1753876246.843892;18.28345;0.5;-1.19;0.15;0.874957;-0.482048;0.031473;89.4;0.0;0.0;3.9;0.0;0.0
4.0;1753876246.848494;18.262133;0.51;-1.03;0.16;0.877448;-0.481633;0.031162;90.1;0.0;0.0;3.3;0.0;0.0
4.0;1753876246.853096;18.256211;0.52;-1.14;0.13;0.87379;-0.480513;0.031261;88.8;0.0;0.0;4.2;0.0;0.0
4.0;1753876246.857698;18.278668;0.53;-1.09;0.16;0.874009;-0.481653;0.032056;89.1;0.0;0.0;4.4;0.0;0.0
4.0;1753876246.8623;18.275129;0.56;-1.16;0.13;0.874408;-0.48141;0.03065;88.1;0.0;0.0;4.5;0.0;0.0
4.0;1753876246.866902;18.283504;0.6;-1.08;0.13;0.874889;-0.481988;0.030719;88.6;0.0;0.0;4.3;0.0;0.0
4.0;1753876246.871504;18.284321;0.62;-1.06;0.15;0.874055;-0.481701;0.032363;88.0;0.0;0.0;3.5;0.0;0.0
4.0;1753876246.876106;18.279628;0.63;-1.02;0.19;0.875374;-0.481322;0.031771;87.6;0.0;0.0;3.6;0.0;0.0
4.0;1753876246.88241;18.28125;0.63;-1.12;0.14;0.874252;-0.481656;0.03111;88.0;0.0;0.0;4.0;0.0;0.0
4.0;1753876246.887012;18.280916;0.58;-1.07;0.13;0.874347;-0.482616;0.030922;87.4;0.0;0.0;4.1;0.0;0.0
4.0;1753876246.891614;18.287152;0.72;-1.11;0.13;0.874926;-0.481988;0.031646;86.9;0.0;0.0;3.8;0.0;0.0
4.0;1753876246.896216;18.279286;0.5;-1.21;0.09;0.875236;-0.481394;0.030685;88.4;0.0;0.0;3.8;0.0;0.0
4.0;1753876246.900818;18.290037;0.66;-1.14;0.05;0.873431;-0.481895;0.030223;85.3;0.0;0.0;4.2;0.0;0.0
4.0;1753876246.90542;18.283812;0.51;-1.01;0.08;0.874218;-0.480882;0.029713;89.8;0.0;0.0;4.2;0.0;0.0
4.0;1753876246.910022;18.296827;0.66;-1.13;0.1;0.875353;-0.483082;0.029338;87.7;0.0;0.0;4.5;0.0;0.0
4.0;1753876246.914624;18.280498;0.62;-1.2;0.02;0.874151;-0.483375;0.031309;86.3;0.0;0.0;4.0;0.0;0.0
4.0;1753876246.919226;18.289226;0.6;-0.99;0.02;0.874635;-0.481294;0.029253;89.1;0.0;0.0;3.2;0.0;0.0
4.0;1753876246.92778;18.28125;0.63;-1.05;0.0;0.874374;-0.481778;0.029524;88.0;0.0;0.0;4.0;0.0;0.0
4.0;1753876246.932382;18.289298;0.68;-1.11;0.05;0.873089;-0.481058;0.029679;88.8;0.0;0.0;4.0;0.0;0.0
4.0;1753876246.936984;18.279948;0.59;-1.05;0.05;0.874989;-0.480138;0.029167;89.5;0.0;0.0;4.6;0.0;0.0
4.0;1753876246.941586;18.274861;0.59;-1.08;0.03;0.874877;-0.481729;0.031467;90.6;0.0;0.0;3.6;0.0;0.0
4.0;1753876246.946188;18.280031;0.64;-1.08;0.0;0.873909;-0.482215;0.029758;86.5;0.0;0.0;4.6;0.0;0.0
4.0;1753876246.95079;18.289661;0.75;-1.09;-0.01;0.876849;-0.47997;0.030903;90.0;0.0;0.0;4.4;0.0;0.0
4.0;1753876246.955392;18.28453;0.53;-1.09;0.04;0.876368;-0.480416;0.031173;86.3;0.0;0.0;3.6;0.0;0.0
4.0;1753876246.959994;18.261666;0.55;-1.17;0.02;0.876853;-0.479342;0.030503;87.1;0.0;0.0;3.8;0.0;0.0
4.0;1753876246.964596;18.284066;0.54;-1.11;-0.02;0.876496;-0.479398;0.031051;88.8;0.0;0.0;4.6;0.0;0.0
4.0;1753876246.97106;18.28125;0.56;-1.12;0.07;0.875716;-0.479948;0.031476;88.0;0.0;0.0;4.0;0.0;0.0
4.0;1753876246.971949;18.304688;0.56;-1.19;0.07;0.873764;-0.482632;0.030378;91.0;0.0;0.0;4.0;0.0;0.0
4.0;1753876246.975526;18.304688;0.63;-1.12;0.07;0.874618;-0.480436;0.030988;91.0;0.0;0.0;4.0;0.0;0.0
4.0;1753876246.980918;18.277344;0.63;-1.12;0.07;0.873642;-0.482632;0.03111;91.0;0.0;0.0;4.0;0.0;0.0
4.0;1753876246.984637;18.277344;0.63;-1.12;0.07;0.874862;-0.47946;0.030134;91.0;0.0;0.0;4.0;0.0;0.0
4.0;1753876246.989137;18.277344;0.56;-1.19;0.14;0.874984;-0.483242;0.030622;91.0;0.0;0.0;4.0;0.0;0.0
4.0;1753876246.993715;18.277344;0.63;-1.26;0.07;0.873764;-0.480924;0.030988;91.0;0.0;0.0;4.0;0.0;0.0
4.0;1753876246.998292;18.28125;0.63;-1.12;0.07;0.876082;-0.480558;0.029524;91.0;0.0;0.0;4.0;0.0;0.0
4.0;1753876247.002894;18.282949;0.55;-1.26;0.11;0.876262;-0.481067;0.029242;94.9;0.0;0.0;4.0;0.0;0.0
4.0;1753876247.007496;18.316796;0.67;-1.15;0.06;0.877767;-0.480446;0.029399;89.0;0.0;0.0;4.0;0.0;0.0
4.0;1753876247.012098;18.271851;0.62;-1.14;0.06;0.876568;-0.480242;0.029026;91.9;0.0;0.0;4.0;0.0;0.0
4.0;1753876247.0167;18.285553;0.63;-1.07;0.13;0.877043;-0.480083;0.030832;95.8;0.0;0.0;4.0;0.0;0.0
4.0;1753876247.021302;18.29434;0.65;-1.13;0.04;0.877732;-0.480857;0.030148;91.2;0.0;0.0;4.0;0.0;0.0
4.0;1753876247.025904;18.295567;0.65;-1.11;0.12;0.875899;-0.479256;0.029398;89.5;0.0;0.0;4.0;0.0;0.0
4.0;1753876247.030506;18.293528;0.63;-1.03;0.06;0.876287;-0.480295;0.029247;86.3;0.0;0.0;4.0;0.0;0.0
4.0;1753876247.035108;18.291968;0.57;-1.16;-0.03;0.876136;-0.479725;0.029223;91.4;0.0;0.0;4.0;0.0;0.0
4.0;1753876247.03971;18.271991;0.58;-1.16;0.08;0.874128;-0.480282;0.029751;95.7;0.0;0.0;4.0;0.0;0.0
4.0;1753876247.044312;18.263043;0.7;-1.11;0.07;0.875335;-0.480775;0.029254;93.4;0.0;0.0;4.0;0.0;0.0
4.0;1753876247.048914;18.308944;0.57;-1.09;0.07;0.874678;-0.479854;0.03035;89.0;0.0;0.0;4.0;0.0;0.0
4.0;1753876247.053516;18.288862;0.59;-1.11;0.14;0.876498;-0.480579;0.030817;97.6;0.0;0.0;4.0;0.0;0.0
4.0;1753876247.058118;18.291932;0.63;-1.19;0.13;0.877628;-0.483833;0.029568;92.2;0.0;0.0;4.0;0.0;0.0
4.0;1753876247.062719;18.285866;0.61;-1.17;0.06;0.876271;-0.481073;0.029104;90.4;0.0;0.0;4.0;0.0;0.0
4.0;1753876247.067321;18.284364;0.63;-1.16;0.1;0.875939;-0.480476;0.029175;89.9;0.0;0.0;4.0;0.0;0.0
4.0;1753876247.071923;18.300774;0.57;-1.07;0.16;0.876577;-0.480062;0.029137;88.6;0.0;0.0;4.0;0.0;0.0
4.0;1753876247.076525;18.291873;0.63;-1.09;0.07;0.874023;-0.48012;0.030678;92.9;0.0;0.0;4.0;0.0;0.0
4.0;1753876247.081127;18.284868;0.6;-1.09;-0.03;0.874837;-0.480352;0.029629;90.1;0.0;0.0;4.0;0.0;0.0
4.0;1753876247.085729;18.290904;0.58;-1.13;0.07;0.874463;-0.479573;0.029399;89.8;0.0;0.0;4.0;0.0;0.0
4.0;1753876247.090331;18.276273;0.64;-1.05;-0.02;0.875133;-0.482734;0.029953;94.4;0.0;0.0;4.0;0.0;0.0
4.0;1753876247.094933;18.280722;0.59;-1.13;0.09;0.876488;-0.480637;0.029939;89.1;0.0;0.0;4.0;0.0;0.0
4.0;1753876247.099535;18.293967;0.66;-1.17;0.13;0.877971;-0.479636;0.029892;93.6;0.0;0.0;4.0;0.0;0.0
4.0;1753876247.104137;18.255086;0.73;-1.11;0.09;0.875897;-0.480096;0.029015;87.1;0.0;0.0;4.0;0.0;0.0
4.0;1753876247.108739;18.270164;0.72;-1.16;0.11;0.876346;-0.481732;0.029337;94.2;0.0;0.0;4.0;0.0;0.0
4.0;1753876247.113341;18.283095;0.6;-1.12;0.03;0.874639;-0.482838;0.02956;90.6;0.0;0.0;4.0;0.0;0.0
4.0;1753876247.117943;18.310185;0.55;-1.15;0.04;0.875963;-0.480136;0.029236;93.4;0.0;0.0;4.0;0.0;0.0
4.0;1753876247.122545;18.272938;0.61;-1.06;0.11;0.876284;-0.482343;0.030233;92.7;0.0;0.0;4.0;0.0;0.0
4.0;1753876247.127147;18.282106;0.65;-1.11;0.03;0.875462;-0.481657;0.029757;89.4;0.0;0.0;4.0;0.0;0.0
4.0;1753876247.131749;18.272021;0.62;-1.13;0.07;0.874602;-0.481419;0.029822;90.9;0.0;0.0;4.0;0.0;0.0
4.0;1753876247.136351;18.294307;0.54;-1.08;0.11;0.875974;-0.482134;0.029791;86.4;0.0;0.0;4.0;0.0;0.0
4.0;1753876247.140952;18.290424;0.67;-1.11;0.03;0.875714;-0.480308;0.029407;91.5;0.0;0.0;4.0;0.0;0.0
4.0;1753876247.145554;18.272214;0.61;-1.12;0.16;0.874462;-0.480036;0.029008;94.3;0.0;0.0;4.0;0.0;0.0
4.0;1753876247.150156;18.272843;0.71;-1.18;0.06;0.874407;-0.481317;0.029607;92.4;0.0;0.0;4.0;0.0;0.0
4.0;1753876247.154758;18.298337;0.68;-1.08;0.07;0.874917;-0.480459;0.030604;90.6;0.0;0.0;4.0;0.0;0.0
4.0;1753876247.15936;18.28502;0.63;-1.1;0.12;0.874761;-0.480541;0.029656;97.1;0.0;0.0;4.0;0.0;0.0
4.0;1753876247.163962;18.284213;0.57;-1.15;0.03;0.876136;-0.481031;0.029109;93.1;0.0;0.0;4.0;0.0;0.0
4.0;1753876247.168564;18.261019;0.68;-1.1;0.09;0.873807;-0.480433;0.031103;92.0;0.0;0.0;4.0;0.0;0.0
4.0;1753876247.173166;18.311721;0.65;-1.16;0.05;0.873905;-0.479626;0.028922;91.1;0.0;0.0;4.0;0.0;0.0
4.0;1753876247.177768;18.286457;0.64;-1.1;-0.04;0.876428;-0.481012;0.02924;90.1;0.0;0.0;4.0;0.0;0.0
4.0;1753876247.18237;18.31536;0.57;-1.08;0.03;0.87613;-0.482239;0.030106;91.6;0.0;0.0;4.0;0.0;0.0
4.0;1753876247.186972;18.301061;0.64;-1.08;0.02;0.876925;-0.481477;0.030323;94.0;0.0;0.0;4.0;0.0;0.0
4.0;1753876247.191574;18.284103;0.63;-1.19;0.06;0.874594;-0.480907;0.02951;88.6;0.0;0.0;4.0;0.0;0.0
4.0;1753876247.196176;18.291811;0.55;-1.06;0.07;0.875281;-0.481427;0.029448;88.0;0.0;0.0;4.0;0.0;0.0
4.0;1753876247.200778;18.2829;0.67;-1.15;0.08;0.874211;-0.480251;0.028606;88.8;0.0;0.0;4.0;0.0;0.0
4.0;1753876247.20538;18.278126;0.61;-1.12;0.13;0.875566;-0.481395;0.03022;89.7;0.0;0.0;4.0;0.0;0.0
4.0;1753876247.209982;18.272736;0.63;-1.03;0.04;0.874935;-0.481502;0.029841;88.9;0.0;0.0;4.0;0.0;0.0
4.0;1753876247.214584;18.297364;0.62;-1.05;0.08;0.874449;-0.482236;0.028663;96.0;0.0;0.0;4.0;0.0;0.0
4.0;1753876247.219186;18.291754;0.55;-1.11;0.05;0.875524;-0.482029;0.0304;92.6;0.0;0.0;4.0;0.0;0.0
4.0;1753876247.223788;18.274079;0.6;-1.05;0.11;0.874959;-0.480219;0.029287;91.1;0.0;0.0;4.0;0.0;0.0
4.0;1753876247.22839;18.28322;0.61;-1.12;0.05;0.872722;-0.481139;0.029695;93.8;0.0;0.0;4.0;0.0;0.0
4.0;1753876247.232992;18.290864;0.58;-1.09;0.16;0.874472;-0.480687;0.030163;92.9;0.0;0.0;4.0;0.0;0.0
4.0;1753876247.237594;18.299708;0.64;-1.13;0.1;0.875396;-0.48207;0.029383;87.7;0.0;0.0;4.0;0.0;0.0
4.0;1753876247.242196;18.285649;0.61;-1.13;0.14;0.875721;-0.479385;0.029149;89.3;0.0;0.0;4.0;0.0;0.0
4.0;1753876247.246798;18.300855;0.56;-1.1;0.1;0.876585;-0.480821;0.029546;90.0;0.0;0.0;4.0;0.0;0.0
4.0;1753876247.2514;18.291894;0.64;-1.21;0.06;0.874145;-0.480673;0.030402;85.9;0.0;0.0;4.0;0.0;0.0
4.0;1753876247.256002;18.289237;0.56;-1.17;0.05;0.874515;-0.483514;0.030175;90.3;0.0;0.0;4.0;0.0;0.0
4.0;1753876247.260604;18.284201;0.62;-1.14;-0.0;0.874821;-0.479333;0.030293;92.4;0.0;0.0;4.0;0.0;0.0
4.0;1753876247.265206;18.265427;0.66;-1.1;0.08;0.875054;-0.482236;0.029709;84.8;0.0;0.0;4.0;0.0;0.0
4.0;1753876247.269807;18.256736;0.59;-1.14;0.06;0.875122;-0.480428;0.029999;87.4;0.0;0.0;4.0;0.0;0.0
4.0;1753876247.274409;18.294223;0.62;-1.08;0.03;0.875733;-0.481371;0.03017;87.9;0.0;0.0;4.0;0.0;0.0
4.0;1753876247.279011;18.27593;0.65;-1.12;0.18;0.875311;-0.480497;0.029993;91.9;0.0;0.0;4.0;0.0;0.0
4.0;1753876247.283613;18.273922;0.64;-1.11;0.12;0.876056;-0.482049;0.029676;91.7;0.0;0.0;4.0;0.0;0.0
4.0;1753876247.288215;18.286732;0.53;-1.15;0.13;0.874205;-0.480509;0.030503;88.1;0.0;0.0;4.0;0.0;0.0
4.0;1753876247.292817;18.282326;0.7;-1.13;0.12;0.873113;-0.481576;0.030128;84.0;0.0;0.0;4.0;0.0;0.0
4.0;1753876247.297419;18.296104;0.58;-1.12;0.07;0.873326;-0.480577;0.029975;93.0;0.0;0.0;4.0;0.0;0.0
4.0;1753876247.302021;18.291202;0.63;-1.09;0.12;0.874605;-0.481244;0.031051;87.7;0.0;0.0;4.0;0.0;0.0
4.0;1753876247.306623;18.283514;0.61;-1.09;0.08;0.87374;-0.479362;0.028777;88.9;0.0;0.0;4.0;0.0;0.0
4.0;1753876247.311225;18.295343;0.56;-1.17;0.09;0.874311;-0.482042;0.030518;87.4;0.0;0.0;4.0;0.0;0.0
4.0;1753876247.315827;18.286884;0.61;-1.07;0.06;0.874213;-0.481402;0.029609;93.3;0.0;0.0;4.0;0.0;0.0
4.0;1753876247.320429;18.296762;0.59;-1.06;0.12;0.872113;-0.481555;0.030421;89.6;0.0;0.0;4.0;0.0;0.0
4.0;1753876247.325031;18.276946;0.57;-1.14;0.1;0.873727;-0.483539;0.030764;87.8;0.0;0.0;4.0;0.0;0.0
4.0;1753876247.329633;18.284228;0.63;-1.06;0.09;0.872967;-0.482331;0.029707;89.0;0.0;0.0;4.0;0.0;0.0
4.0;1753876247.334235;18.298041;0.7;-1.2;0.07;0.875511;-0.4806;0.0308;93.0;0.0;0.0;4.0;0.0;0.0
4.0;1753876247.338837;18.283355;0.63;-1.09;0.12;0.874614;-0.482141;0.029932;93.4;0.0;0.0;4.0;0.0;0.0
4.0;1753876247.343439;18.264833;0.48;-1.11;0.06;0.874492;-0.482344;0.029452;94.1;0.0;0.0;4.0;0.0;0.0
4.0;1753876247.34804;18.302145;0.54;-1.01;0.02;0.874385;-0.482645;0.030162;85.2;0.0;0.0;4.0;0.0;0.0
4.0;1753876247.352642;18.28616;0.64;-1.1;0.1;0.87414;-0.481398;0.029328;93.4;0.0;0.0;4.0;0.0;0.0
4.0;1753876247.357244;18.283752;0.57;-1.05;0.01;0.874753;-0.48377;0.030601;90.7;0.0;0.0;4.0;0.0;0.0
4.0;1753876247.361846;18.276518;0.58;-1.1;0.14;0.873545;-0.48327;0.030199;90.4;0.0;0.0;4.0;0.0;0.0
4.0;1753876247.366448;18.282003;0.67;-1.17;0.13;0.873575;-0.479637;0.030073;88.6;0.0;0.0;4.0;0.0;0.0
4.0;1753876247.37105;18.276111;0.59;-1.14;0.09;0.874683;-0.482027;0.02967;93.2;0.0;0.0;4.0;0.0;0.0
4.0;1753876247.375652;18.307655;0.57;-1.14;0.07;0.875432;-0.482044;0.030734;86.4;0.0;0.0;4.0;0.0;0.0
4.0;1753876247.380254;18.28226;0.66;-1.13;0.16;0.873087;-0.482667;0.029863;93.2;0.0;0.0;4.0;0.0;0.0
4.0;1753876247.384856;18.262359;0.58;-1.1;0.07;0.875041;-0.481699;0.02987;87.2;0.0;0.0;4.0;0.0;0.0
4.0;1753876247.389458;18.289631;0.52;-1.16;0.04;0.874308;-0.479972;0.030697;89.3;0.0;0.0;4.0;0.0;0.0
4.0;1753876247.39406;18.292597;0.63;-1.09;0.05;0.874903;-0.48094;0.029471;84.2;0.0;0.0;4.0;0.0;0.0
4.0;1753876247.398662;18.280948;0.62;-1.12;0.07;0.873315;-0.48077;0.030482;94.0;0.0;0.0;4.0;0.0;0.0
4.0;1753876247.403264;18.315404;0.55;-1.18;0.02;0.873091;-0.480483;0.030197;93.4;0.0;0.0;4.0;0.0;0.0
4.0;1753876247.407866;18.281495;0.52;-1.1;0.05;0.875221;-0.482487;0.030243;93.3;0.0;0.0;4.0;0.0;0.0
4.0;1753876247.412468;18.28786;0.63;-1.02;0.06;0.875074;-0.481569;0.030515;94.6;0.0;0.0;4.0;0.0;0.0
4.0;1753876247.41707;18.300717;0.53;-1.13;0.07;0.872381;-0.479706;0.030317;91.6;0.0;0.0;4.0;0.0;0.0
4.0;1753876247.421672;18.31457;0.6;-1.13;0.02;0.872463;-0.48047;0.030093;92.2;0.0;0.0;4.0;0.0;0.0
4.0;1753876247.426274;18.245277;0.61;-1.1;0.02;0.873796;-0.481835;0.03051;88.8;0.0;0.0;4.0;0.0;0.0
4.0;1753876247.430876;18.273102;0.61;-1.17;0.03;0.874038;-0.47958;0.030653;96.1;0.0;0.0;4.0;0.0;0.0
4.0;1753876247.435478;18.268453;0.63;-1.18;0.0;0.875782;-0.482157;0.029229;89.7;0.0;0.0;4.0;0.0;0.0
4.0;1753876247.44008;18.265668;0.55;-1.17;0.07;0.874738;-0.47984;0.030475;96.1;0.0;0.0;4.0;0.0;0.0
4.0;1753876247.444682;18.280422;0.6;-1.11;0.07;0.872767;-0.481494;0.029502;88.7;0.0;0.0;4.0;0.0;0.0
4.0;1753876247.449284;18.274901;0.57;-1.1;0.05;0.873197;-0.482396;0.030056;85.8;0.0;0.0;4.0;0.0;0.0
4.0;1753876247.453886;18.264726;0.62;-1.22;0.04;0.872316;-0.482195;0.030349;91.5;0.0;0.0;4.0;0.0;0.0
4.0;1753876247.458488;18.288246;0.58;-1.09;0.09;0.873607;-0.482048;0.03059;89.2;0.0;0.0;4.0;0.0;0.0
4.0;1753876247.46309;18.267834;0.49;-1.15;0.03;0.873471;-0.481428;0.02896;93.0;0.0;0.0;4.0;0.0;0.0
4.0;1753876247.467692;18.28191;0.6;-1.18;0.01;0.872734;-0.480662;0.030696;87.5;0.0;0.0;4.0;0.0;0.0
4.0;1753876247.472294;18.282115;0.52;-1.14;0.01;0.871354;-0.481645;0.030665;88.2;0.0;0.0;4.0;0.0;0.0
4.0;1753876247.476895;18.2751;0.53;-1.24;0.07;0.872269;-0.481528;0.029469;90.5;0.0;0.0;4.0;0.0;0.0
4.0;1753876247.481497;18.275508;0.6;-1.12;0.11;0.873631;-0.480617;0.029899;94.6;0.0;0.0;4.0;0.0;0.0
4.0;1753876247.486099;18.278133;0.56;-1.07;-0.01;0.873705;-0.481442;0.030353;94.4;0.0;0.0;4.0;0.0;0.0
4.0;1753876247.490701;18.269705;0.56;-1.06;-0.0;0.874123;-0.482335;0.030458;95.6;0.0;0.0;4.0;0.0;0.0
4.0;1753876247.495303;18.288181;0.62;-1.15;0.15;0.87358;-0.481139;0.029334;92.0;0.0;0.0;4.0;0.0;0.0
4.0;1753876247.499905;18.264818;0.57;-1.1;0.02;0.875484;-0.483243;0.029584;96.3;0.0;0.0;4.0;0.0;0.0
4.0;1753876247.504507;18.26496;0.52;-1.22;0.1;0.873602;-0.480347;0.030743;93.6;0.0;0.0;4.0;0.0;0.0
4.0;1753876247.509109;18.276124;0.42;-1.19;0.06;0.873775;-0.480109;0.029829;86.3;0.0;0.0;4.0;0.0;0.0
4.0;1753876247.513711;18.291732;0.59;-1.17;0.1;0.87267;-0.481377;0.030234;91.6;0.0;0.0;4.0;0.0;0.0
4.0;1753876247.518313;18.281429;0.67;-1.09;0.16;0.872018;-0.481814;0.030225;90.5;0.0;0.0;4.0;0.0;0.0
4.0;1753876247.522915;18.277665;0.6;-1.14;0.11;0.872313;-0.48196;0.030352;90.9;0.0;0.0;4.0;0.0;0.0
4.0;1753876247.527517;18.276753;0.59;-1.18;-0.03;0.873916;-0.483064;0.029812;89.0;0.0;0.0;4.0;0.0;0.0
4.0;1753876247.532119;18.28398;0.62;-1.1;0.09;0.872672;-0.482259;0.031002;89.3;0.0;0.0;4.0;0.0;0.0
4.0;1753876247.536721;18.304649;0.58;-1.14;0.04;0.873347;-0.481856;0.029856;92.0;0.0;0.0;4.0;0.0;0.0
4.0;1753876247.541323;18.283349;0.47;-1.16;0.06;0.874761;-0.480214;0.029962;86.0;0.0;0.0;4.0;0.0;0.0
4.0;1753876247.545925;18.276927;0.58;-1.04;0.03;0.872501;-0.480259;0.029747;90.1;0.0;0.0;4.0;0.0;0.0
4.0;1753876247.550526;18.298469;0.54;-1.14;0.06;0.872256;-0.481524;0.030154;92.0;0.0;0.0;4.0;0.0;0.0
4.0;1753876247.555128;18.282715;0.54;-1.1;0.1;0.873156;-0.482672;0.029836;88.1;0.0;0.0;4.0;0.0;0.0
4.0;1753876247.55973;18.274569;0.56;-1.14;0.07;0.873715;-0.480413;0.029151;97.4;0.0;0.0;4.0;0.0;0.0
4.0;1753876247.564332;18.286443;0.52;-1.03;0.08;0.873336;-0.48211;0.029994;88.6;0.0;0.0;4.0;0.0;0.0
4.0;1753876247.568934;18.263644;0.52;-1.15;0.06;0.872949;-0.483531;0.030558;93.1;0.0;0.0;4.0;0.0;0.0
4.0;1753876247.573536;18.256324;0.57;-1.19;0.07;0.872557;-0.48078;0.030807;94.8;0.0;0.0;4.0;0.0;0.0
4.0;1753876247.578138;18.281729;0.6;-1.13;0.02;0.872539;-0.48133;0.029533;91.9;0.0;0.0;4.0;0.0;0.0
4.0;1753876247.5848;18.28125;0.56;-1.12;0.07;0.87291;-0.481656;0.030134;91.0;0.0;0.0;4.0;0.0;0.0
4.0;1753876247.589402;18.294138;0.52;-1.11;0.05;0.873267;-0.482501;0.03059;90.6;0.0;0.0;3.7;0.0;0.0
4.0;1753876247.594004;18.273148;0.63;-1.19;0.05;0.871977;-0.480482;0.030902;89.9;0.0;0.0;4.2;0.0;0.0
4.0;1753876247.598606;18.293854;0.43;-1.08;0.07;0.874449;-0.48217;0.029912;88.6;0.0;0.0;4.4;0.0;0.0
4.0;1753876247.603208;18.264215;0.56;-1.22;0.07;0.872609;-0.482184;0.029925;89.2;0.0;0.0;5.0;0.0;0.0
4.0;1753876247.60781;18.281789;0.44;-1.18;0.03;0.874335;-0.481285;0.030932;88.0;0.0;0.0;4.0;0.0;0.0
4.0;1753876247.612412;18.292636;0.65;-1.22;0.06;0.873142;-0.480955;0.030213;87.0;0.0;0.0;4.2;0.0;0.0
4.0;1753876247.617014;18.240142;0.58;-1.12;0.03;0.874108;-0.482767;0.030956;87.9;0.0;0.0;3.4;0.0;0.0
4.0;1753876247.621616;18.28501;0.58;-1.09;0.08;0.874906;-0.481195;0.030927;90.2;0.0;0.0;4.0;0.0;0.0
4.0;1753876247.626218;18.303366;0.61;-1.13;0.13;0.876025;-0.480365;0.029814;87.6;0.0;0.0;4.1;0.0;0.0
4.0;1753876247.63419;18.269531;0.63;-1.19;0.07;0.874984;-0.481656;0.031232;87.0;0.0;0.0;4.0;0.0;0.0
4.0;1753876247.638792;18.292118;0.71;-1.18;0.09;0.874834;-0.481909;0.031532;86.9;0.0;0.0;4.0;0.0;0.0
4.0;1753876247.643394;18.273772;0.66;-1.12;0.02;0.875472;-0.480673;0.031898;88.2;0.0;0.0;3.8;0.0;0.0
4.0;1753876247.647996;18.28079;0.61;-1.13;0.1;0.877201;-0.48033;0.030854;85.8;0.0;0.0;3.0;0.0;0.0
4.0;1753876247.652598;18.301928;0.57;-1.19;0.09;0.874279;-0.48289;0.031153;85.8;0.0;0.0;4.2;0.0;0.0
4.0;1753876247.6572;18.274371;0.58;-1.16;0.02;0.87626;-0.481124;0.031507;87.8;0.0;0.0;4.7;0.0;0.0
4.0;1753876247.66563;18.269531;0.63;-1.19;0.07;0.876204;-0.482388;0.03111;87.0;0.0;0.0;4.0;0.0;0.0
4.0;1753876247.670232;18.273991;0.61;-1.11;0.06;0.876654;-0.483381;0.031101;86.3;0.0;0.0;3.9;0.0;0.0
4.0;1753876247.674834;18.279373;0.66;-1.26;0.11;0.876693;-0.483019;0.031952;84.3;0.0;0.0;3.7;0.0;0.0
4.0;1753876247.679436;18.295381;0.61;-1.13;0.03;0.876775;-0.482373;0.032292;87.2;0.0;0.0;4.8;0.0;0.0
4.0;1753876247.684038;18.280458;0.7;-1.25;0.05;0.876767;-0.480786;0.031128;85.1;0.0;0.0;4.9;0.0;0.0
4.0;1753876247.68864;18.286675;0.73;-1.14;0.08;0.874688;-0.481662;0.031119;87.4;0.0;0.0;4.1;0.0;0.0
4.0;1753876247.693242;18.28344;0.63;-1.18;0.05;0.876297;-0.482505;0.031139;86.0;0.0;0.0;4.8;0.0;0.0
4.0;1753876247.697844;18.275057;0.67;-1.21;0.06;0.876302;-0.482429;0.031139;87.8;0.0;0.0;4.1;0.0;0.0
4.0;1753876247.702446;18.302003;0.67;-1.1;0.11;0.875827;-0.482487;0.031796;86.0;0.0;0.0;3.9;0.0;0.0
4.0;1753876247.71016;18.296875;0.7;-1.12;0.07;0.876204;-0.482388;0.03111;87.0;0.0;0.0;4.0;0.0;0.0
4.0;1753876247.714762;18.302858;0.71;-1.15;0.06;0.877069;-0.483442;0.030689;88.3;0.0;0.0;3.5;0.0;0.0
4.0;1753876247.719364;18.284462;0.75;-1.12;0.09;0.876809;-0.483976;0.031962;86.3;0.0;0.0;4.0;0.0;0.0
4.0;1753876247.723966;18.289585;0.72;-1.03;0.11;0.875874;-0.47932;0.030883;84.9;0.0;0.0;3.5;0.0;0.0
4.0;1753876247.728568;18.31613;0.63;-1.16;0.04;0.876542;-0.482691;0.031779;90.1;0.0;0.0;3.7;0.0;0.0
4.0;1753876247.73317;18.320822;0.6;-1.09;0.12;0.877278;-0.482759;0.03059;87.1;0.0;0.0;3.2;0.0;0.0
4.0;1753876247.737772;18.278845;0.52;-1.23;0.1;0.877528;-0.480417;0.031381;87.8;0.0;0.0;4.4;0.0;0.0
4.0;1753876247.742374;18.288733;0.58;-1.1;0.05;0.876254;-0.483371;0.030915;87.5;0.0;0.0;3.5;0.0;0.0
4.0;1753876247.746976;18.28807;0.51;-1.25;0.09;0.877635;-0.484824;0.030919;85.0;0.0;0.0;3.0;0.0;0.0
4.0;1753876247.75563;18.296875;0.63;-1.19;0.07;0.876448;-0.482022;0.030622;87.0;0.0;0.0;4.0;0.0;0.0
4.0;1753876247.760232;18.290372;0.69;-1.22;0.05;0.879306;-0.483403;0.030059;88.6;0.0;0.0;3.3;0.0;0.0
4.0;1753876247.764834;18.300515;0.54;-1.13;0.02;0.876837;-0.4818;0.030427;90.8;0.0;0.0;4.9;0.0;0.0
4.0;1753876247.769436;18.289214;0.45;-1.21;0.02;0.876509;-0.482005;0.029994;87.6;0.0;0.0;3.7;0.0;0.0
4.0;1753876247.774038;18.301202;0.63;-1.21;0.07;0.876023;-0.482162;0.030281;86.5;0.0;0.0;4.5;0.0;0.0
4.0;1753876247.77864;18.276637;0.65;-1.25;0.08;0.876961;-0.482645;0.030434;87.3;0.0;0.0;4.6;0.0;0.0
4.0;1753876247.783242;18.308847;0.5;-1.2;-0.02;0.874979;-0.479935;0.030674;87.6;0.0;0.0;4.0;0.0;0.0
4.0;1753876247.787844;18.293366;0.61;-1.11;0.07;0.875952;-0.48124;0.03029;89.7;0.0;0.0;4.9;0.0;0.0
4.0;1753876247.792446;18.310574;0.59;-1.11;-0.02;0.874586;-0.479967;0.029547;86.5;0.0;0.0;3.8;0.0;0.0
4.0;1753876247.797048;18.270357;0.58;-1.18;0.03;0.874492;-0.479661;0.03023;84.9;0.0;0.0;5.0;0.0;0.0
4.0;1753876247.80214;18.296875;0.56;-1.19;0.0;0.875472;-0.48068;0.029402;87.0;0.0;0.0;4.0;0.0;0.0
4.0;1753876247.806742;18.298912;0.57;-1.24;0.01;0.87566;-0.48089;0.029722;86.1;0.0;0.0;4.3;0.0;0.0
4.0;1753876247.811344;18.293394;0.58;-1.24;-0.02;0.874957;-0.479848;0.030315;85.6;0.0;0.0;3.7;0.0;0.0
4.0;1753876247.815946;18.279618;0.57;-1.25;0.05;0.876165;-0.481037;0.029339;88.6;0.0;0.0;4.3;0.0;0.0
4.0;1753876247.820548;18.283556;0.59;-1.27;0.03;0.873779;-0.47869;0.029906;85.6;0.0;0.0;4.7;0.0;0.0
4.0;1753876247.82515;18.298249;0.58;-1.11;0.01;0.873209;-0.482067;0.030302;84.6;0.0;0.0;3.9;0.0;0.0
4.0;1753876247.829752;18.276074;0.62;-1.18;0.05;0.875959;-0.479126;0.029841;85.5;0.0;0.0;3.5;0.0;0.0
4.0;1753876247.834354;18.2997;0.66;-1.11;0.01;0.874815;-0.479102;0.02987;87.3;0.0;0.0;4.3;0.0;0.0
4.0;1753876247.838956;18.303595;0.5;-1.1;0.05;0.876535;-0.479513;0.030336;87.3;0.0;0.0;3.5;0.0;0.0
4.0;1753876247.843558;18.298825;0.53;-1.16;0.04;0.874502;-0.481032;0.03023;83.9;0.0;0.0;3.3;0.0;0.0
4.0;1753876247.84773;18.296875;0.56;-1.19;0.07;0.874862;-0.480558;0.030744;87.0;0.0;0.0;4.0;0.0;0.0
4.0;1753876247.852332;18.292979;0.62;-1.13;0.03;0.87524;-0.48114;0.031572;84.6;0.0;0.0;3.8;0.0;0.0
4.0;1753876247.856934;18.265897;0.57;-1.17;0.06;0.874193;-0.481278;0.030901;86.7;0.0;0.0;3.0;0.0;0.0
4.0;1753876247.861536;18.267405;0.55;-1.15;0.02;0.87521;-0.481087;0.029831;86.8;0.0;0.0;4.3;0.0;0.0
4.0;1753876247.866138;18.288862;0.62;-1.14;0.04;0.87558;-0.479145;0.030941;87.9;0.0;0.0;3.9;0.0;0.0
4.0;1753876247.87074;18.277372;0.58;-1.22;0.08;0.87584;-0.480091;0.030598;84.0;0.0;0.0;4.7;0.0;0.0
4.0;1753876247.875342;18.263053;0.53;-1.2;0.08;0.875223;-0.480083;0.030476;87.5;0.0;0.0;3.9;0.0;0.0
4.0;1753876247.879944;18.301354;0.6;-1.1;0.05;0.875549;-0.48283;0.030354;86.3;0.0;0.0;3.6;0.0;0.0
4.0;1753876247.884546;18.28119;0.64;-1.04;-0.01;0.874231;-0.48116;0.030575;86.5;0.0;0.0;4.3;0.0;0.0
4.0;1753876247.889148;18.295203;0.61;-1.1;-0.0;0.876269;-0.480066;0.03089;85.9;0.0;0.0;3.7;0.0;0.0
4.0;1753876247.89331;18.28125;0.63;-1.12;0.0;0.875228;-0.480314;0.030866;87.0;0.0;0.0;4.0;0.0;0.0
4.0;1753876247.897912;18.296318;0.68;-1.02;-0.04;0.875595;-0.479508;0.031621;87.3;0.0;0.0;3.5;0.0;0.0
4.0;1753876247.902514;18.270394;0.55;-1.19;0.0;0.875196;-0.479242;0.031457;89.5;0.0;0.0;4.7;0.0;0.0
4.0;1753876247.907116;18.300278;0.64;-1.15;-0.09;0.875143;-0.481606;0.030701;86.2;0.0;0.0;4.3;0.0;0.0
4.0;1753876247.911718;18.293097;0.67;-1.18;0.0;0.87756;-0.479142;0.030843;87.2;0.0;0.0;4.9;0.0;0.0
4.0;1753876247.91632;18.278061;0.71;-1.18;0.04;0.874547;-0.480928;0.029639;85.8;0.0;0.0;4.2;0.0;0.0
4.0;1753876247.920922;18.29682;0.68;-1.18;-0.03;0.873724;-0.480707;0.031249;85.0;0.0;0.0;4.1;0.0;0.0
4.0;1753876247.925524;18.291395;0.65;-1.16;0.01;0.876521;-0.481169;0.031321;89.5;0.0;0.0;4.2;0.0;0.0
4.0;1753876247.930126;18.258992;0.61;-1.21;-0.01;0.874933;-0.480572;0.030467;87.5;0.0;0.0;3.0;0.0;0.0
4.0;1753876247.934728;18.266778;0.64;-1.19;0.02;0.875195;-0.481092;0.032097;88.7;0.0;0.0;4.1;0.0;0.0
4.0;1753876247.93933;18.296121;0.64;-1.22;-0.01;0.877117;-0.480439;0.031196;87.9;0.0;0.0;4.1;0.0;0.0
4.0;1753876247.943932;18.275283;0.61;-1.14;-0.04;0.875055;-0.483307;0.030261;84.4;0.0;0.0;5.1;0.0;0.0
4.0;1753876247.948534;18.309418;0.65;-1.14;0.01;0.877528;-0.480823;0.031994;91.6;0.0;0.0;4.0;0.0;0.0
4.0;1753876247.953136;18.271277;0.71;-1.19;0.02;0.874321;-0.478823;0.031966;82.7;0.0;0.0;3.9;0.0;0.0
4.0;1753876247.9595;18.28125;0.7;-1.19;0.0;0.875594;-0.481656;0.030988;87.0;0.0;0.0;4.0;0.0;0.0
4.0;1753876247.964226;18.289062;0.63;-1.26;0.07;0.876082;-0.481412;0.030866;90.0;0.0;0.0;4.0;0.0;0.0
4.0;1753876247.967733;18.289062;0.63;-1.19;0.07;0.876326;-0.479338;0.030378;90.0;0.0;0.0;4.0;0.0;0.0
4.0;1753876247.975663;18.289062;0.56;-1.19;0.07;0.875106;-0.480192;0.029524;90.0;0.0;0.0;4.0;0.0;0.0
4.0;1753876247.976783;18.289062;0.56;-1.19;0.07;0.875106;-0.480802;0.030378;90.0;0.0;0.0;4.0;0.0;0.0
4.0;1753876247.984318;18.296875;0.63;-1.12;0.14;0.875838;-0.481046;0.031232;90.0;0.0;0.0;4.0;0.0;0.0
4.0;1753876247.985889;18.296875;0.7;-1.12;0.07;0.873886;-0.482388;0.031598;90.0;0.0;0.0;4.0;0.0;0.0
4.0;1753876247.993694;18.296875;0.56;-1.12;0.0;0.876204;-0.479704;0.032208;89.0;0.0;0.0;4.0;0.0;0.0
4.0;1753876247.994993;18.296875;0.7;-1.19;0.0;0.87413;-0.482144;0.0305;89.0;0.0;0.0;4.0;0.0;0.0
4.0;1753876247.999595;18.296875;0.56;-1.12;0.07;0.876082;-0.478972;0.0305;89.0;0.0;0.0;4.0;0.0;0.0
4.0;1753876248.004197;18.29254;0.56;-1.11;-0.0;0.874741;-0.482574;0.03105;88.9;0.0;0.0;4.0;0.0;0.0
4.0;1753876248.008799;18.306027;0.53;-1.03;0.04;0.876113;-0.479268;0.030848;89.4;0.0;0.0;4.0;0.0;0.0
4.0;1753876248.013401;18.314364;0.64;-1.05;0.07;0.876789;-0.481746;0.030826;89.1;0.0;0.0;4.0;0.0;0.0
4.0;1753876248.018003;18.297575;0.5;-1.14;0.14;0.876935;-0.47646;0.030259;88.6;0.0;0.0;4.0;0.0;0.0
4.0;1753876248.022605;18.297977;0.56;-1.09;0.08;0.875577;-0.478215;0.03077;89.3;0.0;0.0;4.0;0.0;0.0
4.0;1753876248.027207;18.29594;0.55;-1.16;0.12;0.874945;-0.480879;0.030052;88.8;0.0;0.0;4.0;0.0;0.0
4.0;1753876248.031808;18.297951;0.59;-1.1;0.13;0.875536;-0.477786;0.030879;88.5;0.0;0.0;4.0;0.0;0.0
4.0;1753876248.03641;18.298832;0.59;-1.12;0.04;0.875833;-0.480014;0.031163;89.7;0.0;0.0;4.0;0.0;0.0
4.0;1753876248.041012;18.283935;0.59;-1.14;0.11;0.875976;-0.476788;0.030334;88.6;0.0;0.0;4.0;0.0;0.0
4.0;1753876248.045614;18.292584;0.54;-1.1;0.08;0.876408;-0.478456;0.031452;88.5;0.0;0.0;4.0;0.0;0.0
4.0;1753876248.050216;18.290138;0.6;-1.17;0.07;0.87557;-0.478378;0.031417;89.6;0.0;0.0;4.0;0.0;0.0
4.0;1753876248.054818;18.286352;0.49;-1.1;0.17;0.875607;-0.478876;0.028665;88.9;0.0;0.0;4.0;0.0;0.0
4.0;1753876248.05942;18.306407;0.54;-1.19;0.16;0.873225;-0.480133;0.030551;89.2;0.0;0.0;4.0;0.0;0.0
4.0;1753876248.064022;18.300226;0.62;-1.12;0.04;0.876363;-0.479424;0.030952;89.3;0.0;0.0;4.0;0.0;0.0
4.0;1753876248.068624;18.304006;0.6;-1.1;0.0;0.875973;-0.478247;0.031009;88.8;0.0;0.0;4.0;0.0;0.0
4.0;1753876248.073226;18.291173;0.61;-1.19;-0.01;0.875749;-0.478166;0.030476;89.1;0.0;0.0;4.0;0.0;0.0
4.0;1753876248.077828;18.30372;0.52;-1.04;0.1;0.877036;-0.478685;0.03148;88.3;0.0;0.0;4.0;0.0;0.0
4.0;1753876248.08243;18.292192;0.6;-1.03;0.15;0.877632;-0.480431;0.031416;89.3;0.0;0.0;4.0;0.0;0.0
4.0;1753876248.087032;18.305575;0.54;-1.12;0.11;0.874752;-0.479475;0.029879;89.3;0.0;0.0;4.0;0.0;0.0
4.0;1753876248.091634;18.302677;0.61;-1.02;0.11;0.875012;-0.480709;0.030396;88.7;0.0;0.0;4.0;0.0;0.0
4.0;1753876248.096236;18.304454;0.6;-1.08;0.02;0.874964;-0.479774;0.03066;89.5;0.0;0.0;4.0;0.0;0.0
4.0;1753876248.100838;18.29599;0.57;-1.13;0.04;0.874958;-0.478688;0.030198;88.4;0.0;0.0;4.0;0.0;0.0
4.0;1753876248.10544;18.311191;0.55;-1.08;0.06;0.877193;-0.480019;0.031039;89.0;0.0;0.0;4.0;0.0;0.0
4.0;1753876248.110042;18.27781;0.56;-1.02;0.05;0.87576;-0.4798;0.028933;88.8;0.0;0.0;4.0;0.0;0.0
4.0;1753876248.114644;18.295092;0.54;-1.1;0.06;0.875516;-0.479647;0.030461;89.7;0.0;0.0;4.0;0.0;0.0
4.0;1753876248.119246;18.301839;0.6;-1.12;0.06;0.875661;-0.480629;0.030107;88.4;0.0;0.0;4.0;0.0;0.0
4.0;1753876248.123848;18.310755;0.57;-1.12;0.03;0.876924;-0.476028;0.030135;88.6;0.0;0.0;4.0;0.0;0.0
4.0;1753876248.12845;18.315963;0.5;-1.11;0.06;0.875162;-0.479532;0.029571;89.0;0.0;0.0;4.0;0.0;0.0
4.0;1753876248.133052;18.300172;0.65;-1.09;0.1;0.876398;-0.480531;0.029872;88.8;0.0;0.0;4.0;0.0;0.0
4.0;1753876248.137654;18.299512;0.66;-1.01;0.05;0.874576;-0.480254;0.031557;89.0;0.0;0.0;4.0;0.0;0.0
4.0;1753876248.142256;18.293832;0.61;-1.17;0.06;0.874803;-0.481621;0.030881;89.1;0.0;0.0;4.0;0.0;0.0
4.0;1753876248.146858;18.300807;0.6;-1.13;0.06;0.876504;-0.479103;0.030562;88.9;0.0;0.0;4.0;0.0;0.0
4.0;1753876248.15146;18.294743;0.61;-1.12;0.12;0.876536;-0.480171;0.030068;89.2;0.0;0.0;4.0;0.0;0.0
4.0;1753876248.156062;18.30797;0.58;-1.07;0.03;0.875388;-0.479553;0.029358;89.6;0.0;0.0;4.0;0.0;0.0
4.0;1753876248.160663;18.300734;0.58;-1.09;0.08;0.876597;-0.479396;0.030263;89.1;0.0;0.0;4.0;0.0;0.0
4.0;1753876248.165265;18.282197;0.52;-1.04;0.12;0.877351;-0.478607;0.030236;88.8;0.0;0.0;4.0;0.0;0.0
4.0;1753876248.169867;18.29041;0.58;-1.09;0.08;0.875498;-0.481041;0.030928;89.3;0.0;0.0;4.0;0.0;0.0
4.0;1753876248.174469;18.297285;0.56;-1.03;0.1;0.875647;-0.479976;0.029325;88.5;0.0;0.0;4.0;0.0;0.0
4.0;1753876248.179071;18.301599;0.57;-1.03;-0.03;0.875816;-0.479762;0.030947;88.8;0.0;0.0;4.0;0.0;0.0
4.0;1753876248.183673;18.311443;0.62;-1.09;0.08;0.876507;-0.479406;0.031419;89.4;0.0;0.0;4.0;0.0;0.0
4.0;1753876248.188275;18.293043;0.59;-1.1;-0.0;0.876137;-0.482285;0.029348;88.3;0.0;0.0;4.0;0.0;0.0
4.0;1753876248.192877;18.297614;0.5;-1.19;0.1;0.875036;-0.482998;0.029876;89.6;0.0;0.0;4.0;0.0;0.0
4.0;1753876248.197479;18.296349;0.62;-1.0;0.09;0.874336;-0.478942;0.029316;88.5;0.0;0.0;4.0;0.0;0.0
4.0;1753876248.202081;18.299466;0.54;-1.14;-0.03;0.875147;-0.480198;0.030329;89.5;0.0;0.0;4.0;0.0;0.0
4.0;1753876248.206683;18.283363;0.55;-1.09;0.09;0.875914;-0.482212;0.030309;89.1;0.0;0.0;4.0;0.0;0.0
4.0;1753876248.211285;18.281332;0.52;-0.99;0.03;0.875767;-0.480516;0.030098;89.5;0.0;0.0;4.0;0.0;0.0
4.0;1753876248.215887;18.299765;0.62;-1.1;0.08;0.875026;-0.482107;0.031466;89.8;0.0;0.0;4.0;0.0;0.0
4.0;1753876248.220489;18.299008;0.64;-1.03;0.06;0.875791;-0.478501;0.030561;88.9;0.0;0.0;4.0;0.0;0.0
4.0;1753876248.225091;18.304231;0.63;-1.03;0.05;0.876271;-0.481745;0.030279;89.1;0.0;0.0;4.0;0.0;0.0
4.0;1753876248.229693;18.301521;0.63;-1.06;0.14;0.874558;-0.480701;0.030517;89.6;0.0;0.0;4.0;0.0;0.0
4.0;1753876248.234295;18.299156;0.63;-1.11;0.1;0.875739;-0.481269;0.030385;88.6;0.0;0.0;4.0;0.0;0.0
4.0;1753876248.238896;18.3058;0.65;-1.18;0.13;0.875254;-0.480968;0.029621;89.5;0.0;0.0;4.0;0.0;0.0
4.0;1753876248.243498;18.306565;0.64;-1.06;0.16;0.874319;-0.480607;0.028933;89.1;0.0;0.0;4.0;0.0;0.0
4.0;1753876248.2481;18.302472;0.59;-1.11;0.15;0.876047;-0.479046;0.02915;89.0;0.0;0.0;4.0;0.0;0.0
4.0;1753876248.252702;18.289822;0.54;-1.11;0.03;0.876466;-0.47992;0.029729;88.9;0.0;0.0;4.0;0.0;0.0
4.0;1753876248.257304;18.305113;0.65;-1.15;-0.01;0.876538;-0.479749;0.031323;89.8;0.0;0.0;4.0;0.0;0.0
4.0;1753876248.261906;18.297712;0.57;-1.09;0.08;0.873782;-0.481047;0.031209;89.1;0.0;0.0;4.0;0.0;0.0
4.0;1753876248.266508;18.290088;0.63;-1.04;0.03;0.876857;-0.480118;0.031598;89.1;0.0;0.0;4.0;0.0;0.0
4.0;1753876248.27111;18.292781;0.62;-1.05;0.12;0.873739;-0.481048;0.030485;88.5;0.0;0.0;4.0;0.0;0.0
4.0;1753876248.275712;18.298864;0.56;-1.04;0.07;0.874901;-0.480782;0.030451;89.1;0.0;0.0;4.0;0.0;0.0
4.0;1753876248.280314;18.303219;0.62;-1.12;0.05;0.875694;-0.480388;0.028983;88.6;0.0;0.0;4.0;0.0;0.0
4.0;1753876248.284916;18.281652;0.65;-0.99;0.06;0.875932;-0.479943;0.030708;88.7;0.0;0.0;4.0;0.0;0.0
4.0;1753876248.289518;18.306317;0.57;-1.1;-0.02;0.876702;-0.479438;0.03058;88.7;0.0;0.0;4.0;0.0;0.0
4.0;1753876248.29412;18.296876;0.69;-1.06;0.03;0.876554;-0.480839;0.029945;89.9;0.0;0.0;4.0;0.0;0.0
4.0;1753876248.298722;18.285998;0.65;-1.12;0.05;0.874473;-0.479752;0.03016;89.0;0.0;0.0;4.0;0.0;0.0
4.0;1753876248.303324;18.284497;0.52;-1.11;0.08;0.876506;-0.482344;0.031102;89.1;0.0;0.0;4.0;0.0;0.0
4.0;1753876248.307926;18.285055;0.68;-1.04;0.01;0.875367;-0.481104;0.03074;88.8;0.0;0.0;4.0;0.0;0.0
4.0;1753876248.312528;18.279888;0.6;-1.14;0.09;0.874837;-0.480611;0.030779;89.3;0.0;0.0;4.0;0.0;0.0
4.0;1753876248.31713;18.273661;0.59;-1.07;-0.01;0.875714;-0.479903;0.030292;88.8;0.0;0.0;4.0;0.0;0.0
4.0;1753876248.321732;18.300926;0.64;-1.04;-0.01;0.875939;-0.480796;0.030191;88.4;0.0;0.0;4.0;0.0;0.0
4.0;1753876248.326334;18.302511;0.64;-1.1;-0.03;0.875906;-0.479815;0.030763;89.9;0.0;0.0;4.0;0.0;0.0
4.0;1753876248.330936;18.297639;0.61;-1.07;0.13;0.876693;-0.482194;0.030364;89.3;0.0;0.0;4.0;0.0;0.0
4.0;1753876248.335538;18.283542;0.6;-1.02;0.12;0.873962;-0.482033;0.031957;88.5;0.0;0.0;4.0;0.0;0.0
4.0;1753876248.34014;18.288028;0.54;-1.01;0.12;0.873469;-0.481604;0.030664;89.1;0.0;0.0;4.0;0.0;0.0
4.0;1753876248.344742;18.304362;0.69;-1.12;0.03;0.875396;-0.481856;0.031294;89.4;0.0;0.0;4.0;0.0;0.0
