DeviceID;Timestamp;Temperature;GyroX;GyroY;GyroZ;AccelX;AccelY;AccelZ;Dist1;Dist2;Dist3;Err1;Err2;Err3
2.0;1753876242.758442;15.695312;1.05;-1.75;-0.35;-0.09638;-1.016626;-0.025254;0.0;0.0;161.0;0.0;0.0;21.0
2.0;1753876242.763038;15.698867;0.75;-1.37;-0.85;-0.108005;-1.030164;-0.033762;-1.3;0.0;160.8;-0.1;0.0;20.7
2.0;1753876242.767634;15.700891;0.6;-1.18;-1.58;-0.113295;-1.046967;-0.027518;0.4;0.0;161.3;0.1;0.0;20.1
2.0;1753876242.772304;15.703125;0.98;-1.61;-0.35;-0.094672;-1.016626;-0.025742;0.0;0.0;160.0;0.0;0.0;20.0
2.0;1753876242.77697;15.703125;0.91;-1.61;-0.35;-0.096136;-1.016992;-0.025132;0.0;0.0;160.0;0.0;0.0;20.0
2.0;1753876242.781342;15.703125;0.84;-1.68;-0.35;-0.094672;-1.017114;-0.024644;0.0;0.0;160.0;0.0;0.0;20.0
2.0;1753876242.786094;15.734375;0.84;-1.68;-0.42;-0.09577;-1.01748;-0.025986;0.0;0.0;160.0;0.0;0.0;20.0
2.0;1753876242.790503;15.734375;0.77;-1.61;-0.28;-0.094916;-1.016626;-0.024278;0.0;0.0;160.0;0.0;0.0;20.0
2.0;1753876242.795053;15.734375;0.84;-1.68;-0.35;-0.097356;-1.017358;-0.025498;0.0;0.0;160.0;0.0;0.0;20.0
2.0;1753876242.799599;15.734375;0.98;-1.75;-0.35;-0.093208;-1.016138;-0.025376;0.0;0.0;160.0;0.0;0.0;20.0
2.0;1753876242.804237;15.734375;0.91;-1.68;-0.28;-0.097966;-1.016016;-0.025864;0.0;0.0;160.0;0.0;0.0;20.0
2.0;1753876242.809016;15.734375;0.77;-1.68;-0.42;-0.092842;-1.016748;-0.024888;0.0;0.0;160.0;0.0;0.0;20.0
2.0;1753876242.813612;15.734367;1.28;-2.47;1.57;-0.121108;-0.978987;-0.02873;0.9;0.0;162.8;0.1;0.0;19.7
2.0;1753876242.820268;15.734375;0.91;-1.68;-0.28;-0.094916;-1.01687;-0.026718;0.0;0.0;168.0;0.0;0.0;19.0
2.0;1753876242.822734;15.726562;0.98;-1.61;-0.28;-0.095648;-1.017236;-0.025986;0.0;0.0;168.0;0.0;0.0;19.0
2.0;1753876242.82725;15.726562;0.91;-1.61;-0.28;-0.09516;-1.016382;-0.026474;0.0;0.0;168.0;0.0;0.0;19.0
2.0;1753876242.832555;15.726562;0.91;-1.61;-0.35;-0.09638;-1.016992;-0.025498;0.0;0.0;168.0;0.0;0.0;19.0
2.0;1753876242.836225;15.726562;0.98;-1.68;-0.28;-0.096746;-1.01687;-0.026352;0.0;0.0;168.0;0.0;0.0;19.0
2.0;1753876242.840825;15.726562;0.98;-1.68;-0.35;-0.093818;-1.016748;-0.02623;0.0;0.0;168.0;0.0;0.0;19.0
2.0;1753876242.845389;15.726562;0.98;-1.68;-0.35;-0.09699;-1.01748;-0.027206;0.0;0.0;168.0;0.0;0.0;19.0
2.0;1753876242.849963;15.726562;0.91;-1.68;-0.35;-0.094794;-1.018212;-0.025376;0.0;0.0;168.0;0.0;0.0;19.0
2.0;1753876242.854865;15.726562;0.91;-1.68;-0.28;-0.096258;-1.01687;-0.025498;0.0;0.0;168.0;0.0;0.0;19.0
2.0;1753876242.859461;15.714356;1.01;-1.64;-0.35;-0.096399;-1.016617;-0.025044;0.0;0.0;166.5;0.0;0.0;17.9
2.0;1753876242.867835;15.726562;0.91;-1.68;-0.35;-0.096258;-1.016138;-0.026596;0.0;0.0;151.0;0.0;0.0;18.0
2.0;1753876242.869932;15.726562;0.91;-1.61;-0.35;-0.092232;-1.017358;-0.02562;0.0;0.0;151.0;0.0;0.0;18.0
2.0;1753876242.872827;15.726562;0.98;-1.68;-0.35;-0.09638;-1.016748;-0.0244;0.0;0.0;151.0;0.0;0.0;18.0
2.0;1753876242.878979;15.734375;1.05;-1.68;-0.35;-0.093452;-1.016016;-0.025864;0.0;0.0;151.0;0.0;0.0;18.0
2.0;1753876242.881985;15.734375;0.91;-1.61;-0.35;-0.095282;-1.016016;-0.025498;0.0;0.0;151.0;0.0;0.0;18.0
2.0;1753876242.886564;15.734375;0.84;-1.68;-0.28;-0.09394;-1.017114;-0.026596;0.0;0.0;151.0;0.0;0.0;18.0
2.0;1753876242.891129;15.734375;0.91;-1.54;-0.35;-0.095038;-1.017724;-0.025498;0.0;0.0;151.0;0.0;0.0;18.0
2.0;1753876242.895685;15.726562;0.98;-1.54;-0.28;-0.09272;-1.016016;-0.02562;0.0;0.0;151.0;0.0;0.0;18.0
2.0;1753876242.900886;15.726562;1.05;-1.68;-0.35;-0.09699;-1.016504;-0.025864;0.0;0.0;151.0;0.0;0.0;18.0
2.0;1753876242.90483;15.726562;0.91;-1.61;-0.35;-0.091012;-1.01809;-0.02623;0.0;0.0;151.0;0.0;0.0;18.0
2.0;1753876242.909426;15.724237;0.88;-1.64;-0.36;-0.090257;-1.018017;-0.02511;0.0;0.0;141.0;0.0;0.0;19.2
2.0;1753876242.916824;15.71875;0.98;-1.68;-0.35;-0.093696;-1.01687;-0.0244;0.0;0.0;142.0;0.0;0.0;29.0
2.0;1753876242.918521;15.71875;0.91;-1.61;-0.42;-0.095892;-1.016748;-0.024766;0.0;0.0;142.0;0.0;0.0;29.0
2.0;1753876242.923316;15.71875;0.91;-1.68;-0.35;-0.095526;-1.016626;-0.02623;0.0;0.0;142.0;0.0;0.0;29.0
2.0;1753876242.928307;15.71875;0.84;-1.68;-0.35;-0.096258;-1.016992;-0.025742;0.0;0.0;142.0;0.0;0.0;29.0
2.0;1753876242.932295;15.703125;0.91;-1.75;-0.35;-0.096014;-1.01626;-0.02501;0.0;0.0;142.0;0.0;0.0;29.0
2.0;1753876242.937719;15.703125;0.84;-1.68;-0.35;-0.09577;-1.016748;-0.024644;0.0;0.0;142.0;0.0;0.0;29.0
2.0;1753876242.941437;15.703125;0.91;-1.61;-0.28;-0.094794;-1.01687;-0.025742;0.0;0.0;142.0;0.0;0.0;29.0
2.0;1753876242.946104;15.703125;0.77;-1.68;-0.28;-0.093452;-1.016138;-0.025132;0.0;0.0;142.0;0.0;0.0;29.0
2.0;1753876242.950583;15.710938;0.84;-1.68;-0.28;-0.096136;-1.01687;-0.02562;0.0;0.0;142.0;0.0;0.0;29.0
2.0;1753876242.955208;15.710938;0.84;-1.61;-0.28;-0.093818;-1.015894;-0.025986;0.0;0.0;142.0;0.0;0.0;29.0
2.0;1753876242.959804;15.706983;0.9;-1.65;-0.24;-0.094393;-1.017064;-0.025723;0.0;0.0;142.2;0.0;0.0;25.0
2.0;1753876242.965748;15.710938;0.84;-1.61;-0.28;-0.094672;-1.01626;-0.025376;0.0;0.0;146.0;0.0;0.0;25.0
2.0;1753876242.969684;15.734375;0.91;-1.61;-0.28;-0.095648;-1.017358;-0.027572;0.0;0.0;146.0;0.0;0.0;25.0
2.0;1753876242.974572;15.734375;0.84;-1.68;-0.28;-0.096014;-1.016504;-0.025376;0.0;0.0;146.0;0.0;0.0;25.0
2.0;1753876242.978024;15.734375;0.84;-1.61;-0.35;-0.095892;-1.017236;-0.026108;0.0;0.0;146.0;0.0;0.0;25.0
2.0;1753876242.982607;15.734375;0.84;-1.61;-0.35;-0.095404;-1.01626;-0.025986;0.0;0.0;146.0;0.0;0.0;25.0
2.0;1753876242.987185;15.742188;0.98;-1.68;-0.28;-0.095526;-1.018944;-0.023912;0.0;0.0;146.0;0.0;0.0;25.0
2.0;1753876242.991753;15.742188;0.91;-1.82;-0.28;-0.095038;-1.01626;-0.026718;0.0;0.0;146.0;0.0;0.0;25.0
2.0;1753876242.996301;15.742188;0.91;-1.68;-0.28;-0.094306;-1.016138;-0.024888;0.0;0.0;146.0;0.0;0.0;25.0
2.0;1753876243.000897;15.736373;0.97;-1.72;-0.25;-0.094403;-1.01617;-0.025341;0.0;0.0;149.8;0.0;0.0;24.8
2.0;1753876243.005493;15.753813;0.94;-1.64;-0.32;-0.093575;-1.015196;-0.0257;0.0;0.0;148.4;0.0;0.0;24.2
2.0;1753876243.010089;15.740103;0.97;-1.73;-0.32;-0.094257;-1.015945;-0.023961;0.0;0.0;150.6;0.0;0.0;25.9
2.0;1753876243.014685;15.753242;0.94;-1.57;-0.27;-0.093271;-1.017425;-0.02366;0.0;0.0;142.0;0.0;0.0;22.2
2.0;1753876243.019281;15.75638;0.92;-1.62;-0.29;-0.095241;-1.017483;-0.026326;0.0;0.0;146.0;0.0;0.0;24.6
2.0;1753876243.023877;15.72041;0.86;-1.67;-0.16;-0.09489;-1.014863;-0.025592;0.0;0.0;146.4;0.0;0.0;26.9
2.0;1753876243.028473;15.716011;0.95;-1.68;-0.21;-0.094393;-1.016433;-0.026594;0.0;0.0;147.9;0.0;0.0;25.3
2.0;1753876243.033069;15.730496;0.94;-1.71;-0.25;-0.09508;-1.016527;-0.025064;0.0;0.0;143.9;0.0;0.0;23.9
2.0;1753876243.037665;15.744782;0.88;-1.75;-0.29;-0.093285;-1.016113;-0.025579;0.0;0.0;150.3;0.0;0.0;24.6
2.0;1753876243.042261;15.719797;0.9;-1.63;-0.25;-0.094042;-1.016667;-0.024691;0.0;0.0;144.5;0.0;0.0;26.2
2.0;1753876243.046857;15.720575;0.89;-1.68;-0.32;-0.094151;-1.016671;-0.025449;0.0;0.0;148.3;0.0;0.0;20.8
2.0;1753876243.051453;15.718224;0.91;-1.75;-0.29;-0.093731;-1.016145;-0.025183;0.0;0.0;143.8;0.0;0.0;25.9
2.0;1753876243.056049;15.733212;0.86;-1.63;-0.28;-0.097249;-1.017811;-0.026382;0.0;0.0;146.0;0.0;0.0;18.5
2.0;1753876243.060645;15.744184;0.93;-1.61;-0.32;-0.093694;-1.017246;-0.025494;0.0;0.0;144.2;0.0;0.0;25.5
2.0;1753876243.065241;15.72819;0.97;-1.65;-0.33;-0.091049;-1.015716;-0.025787;0.0;0.0;146.8;0.0;0.0;24.3
2.0;1753876243.069837;15.756738;0.84;-1.66;-0.26;-0.094847;-1.014885;-0.026225;0.0;0.0;143.4;0.0;0.0;24.8
2.0;1753876243.074433;15.716251;0.83;-1.68;-0.31;-0.094899;-1.016484;-0.024714;0.0;0.0;143.9;0.0;0.0;22.3
2.0;1753876243.079029;15.746379;0.86;-1.65;-0.31;-0.095249;-1.014501;-0.02489;0.0;0.0;144.3;0.0;0.0;22.6
2.0;1753876243.083625;15.727791;0.88;-1.65;-0.2;-0.094547;-1.016203;-0.026164;0.0;0.0;147.4;0.0;0.0;26.1
2.0;1753876243.088221;15.761025;0.96;-1.68;-0.31;-0.093967;-1.016722;-0.024666;0.0;0.0;145.4;0.0;0.0;24.1
2.0;1753876243.092817;15.721876;0.92;-1.61;-0.24;-0.094426;-1.016845;-0.025726;0.0;0.0;143.2;0.0;0.0;24.7
2.0;1753876243.097413;15.726105;0.89;-1.69;-0.32;-0.093787;-1.01726;-0.026283;0.0;0.0;143.4;0.0;0.0;20.8
2.0;1753876243.102009;15.755381;1.0;-1.71;-0.3;-0.094299;-1.016157;-0.022564;0.0;0.0;148.6;0.0;0.0;18.5
2.0;1753876243.106605;15.768996;0.84;-1.57;-0.28;-0.09336;-1.015752;-0.025148;0.0;0.0;141.4;0.0;0.0;25.4
2.0;1753876243.111201;15.754178;0.82;-1.65;-0.27;-0.094461;-1.016404;-0.025657;0.0;0.0;141.9;0.0;0.0;26.4
2.0;1753876243.115797;15.739143;0.9;-1.7;-0.29;-0.094842;-1.016801;-0.025833;0.0;0.0;146.6;0.0;0.0;25.5
2.0;1753876243.120393;15.739545;0.92;-1.49;-0.29;-0.094117;-1.015358;-0.026995;0.0;0.0;146.5;0.0;0.0;23.6
2.0;1753876243.124989;15.75307;0.87;-1.68;-0.31;-0.095134;-1.016392;-0.025758;0.0;0.0;145.4;0.0;0.0;26.3
2.0;1753876243.129585;15.763526;0.77;-1.82;-0.32;-0.093599;-1.016728;-0.025836;0.0;0.0;145.8;0.0;0.0;17.4
2.0;1753876243.134181;15.732553;0.85;-1.67;-0.28;-0.095111;-1.016019;-0.023253;0.0;0.0;145.1;0.0;0.0;25.7
2.0;1753876243.138777;15.778352;0.94;-1.71;-0.29;-0.093981;-1.014591;-0.025734;0.0;0.0;144.7;0.0;0.0;27.0
2.0;1753876243.143373;15.723318;0.9;-1.75;-0.29;-0.092644;-1.015488;-0.026234;0.0;0.0;142.6;0.0;0.0;22.0
2.0;1753876243.147969;15.754364;0.78;-1.7;-0.22;-0.094169;-1.017715;-0.025298;0.0;0.0;148.3;0.0;0.0;27.1
2.0;1753876243.152565;15.740399;0.97;-1.67;-0.32;-0.09466;-1.016571;-0.024896;0.0;0.0;144.4;0.0;0.0;26.2
2.0;1753876243.157161;15.753851;0.87;-1.61;-0.19;-0.093075;-1.01605;-0.026262;0.0;0.0;141.2;0.0;0.0;24.8
2.0;1753876243.161757;15.732646;0.9;-1.7;-0.29;-0.093994;-1.015844;-0.026096;0.0;0.0;148.4;0.0;0.0;24.7
2.0;1753876243.166353;15.738796;0.84;-1.68;-0.3;-0.095352;-1.015315;-0.026538;0.0;0.0;148.8;0.0;0.0;28.4
2.0;1753876243.170949;15.742747;0.9;-1.73;-0.24;-0.095557;-1.015932;-0.025467;0.0;0.0;147.5;0.0;0.0;21.1
2.0;1753876243.175545;15.715582;0.9;-1.72;-0.34;-0.094296;-1.015006;-0.025076;0.0;0.0;148.8;0.0;0.0;28.8
2.0;1753876243.180141;15.731743;0.88;-1.67;-0.29;-0.09419;-1.017601;-0.025818;0.0;0.0;147.2;0.0;0.0;26.8
2.0;1753876243.184737;15.765412;0.88;-1.75;-0.18;-0.093124;-1.016559;-0.024996;0.0;0.0;142.6;0.0;0.0;23.1
2.0;1753876243.189333;15.73208;1.0;-1.73;-0.24;-0.094772;-1.016116;-0.023548;0.0;0.0;142.7;0.0;0.0;23.0
2.0;1753876243.193929;15.760196;0.97;-1.72;-0.21;-0.092156;-1.01664;-0.02624;0.0;0.0;144.4;0.0;0.0;24.2
2.0;1753876243.198525;15.731684;0.86;-1.62;-0.21;-0.095651;-1.014894;-0.025679;0.0;0.0;146.2;0.0;0.0;23.9
2.0;1753876243.203121;15.732925;0.77;-1.71;-0.32;-0.094179;-1.015761;-0.025466;0.0;0.0;144.6;0.0;0.0;27.6
2.0;1753876243.207717;15.729555;0.83;-1.68;-0.27;-0.092527;-1.015946;-0.025867;0.0;0.0;149.6;0.0;0.0;29.6
2.0;1753876243.212313;15.724083;0.89;-1.68;-0.32;-0.095164;-1.015493;-0.024662;0.0;0.0;145.6;0.0;0.0;27.3
2.0;1753876243.216909;15.732056;0.92;-1.72;-0.31;-0.094993;-1.014703;-0.024797;0.0;0.0;145.8;0.0;0.0;26.7
2.0;1753876243.221505;15.736531;0.89;-1.63;-0.27;-0.093584;-1.017316;-0.02546;0.0;0.0;142.8;0.0;0.0;31.3
2.0;1753876243.226101;15.74884;0.9;-1.68;-0.28;-0.096053;-1.016025;-0.025789;0.0;0.0;143.5;0.0;0.0;28.4
2.0;1753876243.230697;15.745686;0.86;-1.68;-0.3;-0.094219;-1.016384;-0.023415;0.0;0.0;142.4;0.0;0.0;22.8
2.0;1753876243.235293;15.747144;0.9;-1.71;-0.27;-0.094738;-1.015492;-0.026691;0.0;0.0;146.8;0.0;0.0;28.1
2.0;1753876243.239889;15.732171;0.91;-1.59;-0.27;-0.097135;-1.016788;-0.024845;0.0;0.0;144.4;0.0;0.0;28.2
2.0;1753876243.244485;15.765382;0.89;-1.62;-0.3;-0.094448;-1.016931;-0.024676;0.0;0.0;145.1;0.0;0.0;23.4
2.0;1753876243.249081;15.739819;0.78;-1.62;-0.29;-0.094977;-1.016673;-0.024527;0.0;0.0;143.8;0.0;0.0;29.4
2.0;1753876243.253677;15.75608;0.86;-1.71;-0.23;-0.094743;-1.016454;-0.025207;0.0;0.0;140.1;0.0;0.0;28.1
2.0;1753876243.258273;15.741151;0.97;-1.56;-0.34;-0.093576;-1.016224;-0.02507;0.0;0.0;139.8;0.0;0.0;26.5
2.0;1753876243.262869;15.739249;0.87;-1.72;-0.37;-0.094017;-1.017676;-0.025733;0.0;0.0;144.1;0.0;0.0;29.6
2.0;1753876243.267465;15.753151;0.95;-1.71;-0.32;-0.093314;-1.016477;-0.02555;0.0;0.0;149.8;0.0;0.0;20.8
2.0;1753876243.272061;15.718368;0.83;-1.7;-0.29;-0.095893;-1.016487;-0.023518;0.0;0.0;145.1;0.0;0.0;17.4
2.0;1753876243.276657;15.766157;0.89;-1.68;-0.27;-0.095594;-1.01578;-0.025768;0.0;0.0;144.3;0.0;0.0;26.1
2.0;1753876243.281252;15.731486;0.83;-1.68;-0.22;-0.094443;-1.016006;-0.025229;0.0;0.0;147.5;0.0;0.0;27.1
2.0;1753876243.285848;15.725357;0.79;-1.67;-0.3;-0.092767;-1.015232;-0.026506;0.0;0.0;147.5;0.0;0.0;25.6
2.0;1753876243.290444;15.747599;0.83;-1.68;-0.3;-0.091848;-1.015296;-0.025112;0.0;0.0;154.8;0.0;0.0;25.4
2.0;1753876243.29504;15.765857;0.89;-1.77;-0.28;-0.093781;-1.017294;-0.02501;0.0;0.0;148.5;0.0;0.0;24.8
2.0;1753876243.299636;15.740357;0.82;-1.74;-0.22;-0.094842;-1.016548;-0.02453;0.0;0.0;143.0;0.0;0.0;22.1
2.0;1753876243.304232;15.759778;0.94;-1.71;-0.28;-0.096061;-1.017185;-0.025313;0.0;0.0;145.1;0.0;0.0;23.2
2.0;1753876243.308828;15.76815;0.88;-1.59;-0.29;-0.092798;-1.01654;-0.024859;0.0;0.0;145.1;0.0;0.0;26.3
2.0;1753876243.313424;15.736643;0.93;-1.7;-0.25;-0.09421;-1.016609;-0.02524;0.0;0.0;150.0;0.0;0.0;29.2
2.0;1753876243.31802;15.72535;0.96;-1.72;-0.3;-0.093623;-1.016664;-0.025485;0.0;0.0;147.3;0.0;0.0;22.3
2.0;1753876243.322616;15.746394;0.97;-1.64;-0.4;-0.093014;-1.016609;-0.024334;0.0;0.0;145.5;0.0;0.0;21.1
2.0;1753876243.327212;15.736844;0.87;-1.68;-0.31;-0.093731;-1.017655;-0.025152;0.0;0.0;147.6;0.0;0.0;23.1
2.0;1753876243.331808;15.729965;0.8;-1.76;-0.3;-0.096675;-1.016337;-0.026368;0.0;0.0;145.7;0.0;0.0;22.4
2.0;1753876243.336404;15.753768;0.86;-1.63;-0.32;-0.093754;-1.016837;-0.027519;0.0;0.0;143.0;0.0;0.0;27.0
2.0;1753876243.341;15.727382;0.86;-1.73;-0.31;-0.094322;-1.01731;-0.025757;0.0;0.0;143.0;0.0;0.0;24.1
2.0;1753876243.345596;15.742792;0.86;-1.66;-0.3;-0.094341;-1.016615;-0.027443;0.0;0.0;146.3;0.0;0.0;21.8
2.0;1753876243.350192;15.743311;0.94;-1.73;-0.3;-0.093929;-1.017626;-0.023907;0.0;0.0;147.1;0.0;0.0;28.3
2.0;1753876243.354788;15.750229;0.87;-1.62;-0.32;-0.09643;-1.017682;-0.025474;0.0;0.0;148.7;0.0;0.0;20.7
2.0;1753876243.359384;15.716878;1.01;-1.53;-0.32;-0.09481;-1.015867;-0.025499;0.0;0.0;142.5;0.0;0.0;29.7
2.0;1753876243.36398;15.735163;0.86;-1.7;-0.31;-0.094047;-1.016674;-0.027135;0.0;0.0;149.0;0.0;0.0;25.5
2.0;1753876243.368576;15.752939;0.82;-1.77;-0.26;-0.094096;-1.015492;-0.024545;0.0;0.0;149.2;0.0;0.0;22.8
2.0;1753876243.373172;15.741307;0.87;-1.73;-0.23;-0.091992;-1.016576;-0.025221;0.0;0.0;146.8;0.0;0.0;24.4
2.0;1753876243.377768;15.750769;0.78;-1.72;-0.3;-0.094642;-1.016285;-0.027645;0.0;0.0;145.9;0.0;0.0;27.6
2.0;1753876243.382364;15.755327;0.93;-1.66;-0.39;-0.093731;-1.01725;-0.025693;0.0;0.0;146.5;0.0;0.0;25.3
2.0;1753876243.38696;15.770793;1.0;-1.67;-0.24;-0.094763;-1.016525;-0.025594;0.0;0.0;143.1;0.0;0.0;22.9
2.0;1753876243.391556;15.734964;0.86;-1.78;-0.29;-0.093189;-1.01667;-0.025237;0.0;0.0;141.4;0.0;0.0;28.6
2.0;1753876243.396152;15.726452;0.89;-1.69;-0.31;-0.092535;-1.017424;-0.025528;0.0;0.0;144.2;0.0;0.0;25.7
2.0;1753876243.400748;15.748905;0.93;-1.66;-0.31;-0.095827;-1.016799;-0.026378;0.0;0.0;147.7;0.0;0.0;25.8
2.0;1753876243.405344;15.748789;0.81;-1.71;-0.36;-0.094016;-1.017066;-0.024151;0.0;0.0;146.0;0.0;0.0;24.1
2.0;1753876243.40994;15.722882;0.85;-1.68;-0.36;-0.093901;-1.016772;-0.025731;0.0;0.0;144.4;0.0;0.0;21.4
2.0;1753876243.414536;15.744174;0.87;-1.7;-0.26;-0.095138;-1.016469;-0.026025;0.0;0.0;145.3;0.0;0.0;26.0
2.0;1753876243.419132;15.746046;0.84;-1.64;-0.35;-0.09329;-1.01663;-0.02589;0.0;0.0;144.8;0.0;0.0;26.4
2.0;1753876243.423728;15.745289;0.91;-1.65;-0.33;-0.095971;-1.015957;-0.025955;0.0;0.0;143.9;0.0;0.0;27.0
2.0;1753876243.428324;15.753075;0.81;-1.59;-0.36;-0.094121;-1.016787;-0.0249;0.0;0.0;148.3;0.0;0.0;23.4
2.0;1753876243.43292;15.732088;0.89;-1.65;-0.25;-0.09457;-1.016688;-0.025927;0.0;0.0;146.0;0.0;0.0;23.7
2.0;1753876243.437516;15.748954;0.89;-1.64;-0.34;-0.094105;-1.016094;-0.026076;0.0;0.0;146.6;0.0;0.0;26.4
2.0;1753876243.442112;15.725425;0.97;-1.77;-0.29;-0.093646;-1.016422;-0.02542;0.0;0.0;142.6;0.0;0.0;28.1
2.0;1753876243.446708;15.736336;0.76;-1.63;-0.34;-0.095152;-1.017835;-0.02507;0.0;0.0;144.3;0.0;0.0;25.4
2.0;1753876243.451304;15.708579;0.89;-1.68;-0.35;-0.094842;-1.016847;-0.025833;0.0;0.0;147.8;0.0;0.0;28.0
2.0;1753876243.4559;15.738199;0.87;-1.64;-0.32;-0.094753;-1.01634;-0.027767;0.0;0.0;146.2;0.0;0.0;25.9
2.0;1753876243.460496;15.740124;0.88;-1.64;-0.34;-0.093584;-1.018327;-0.025752;0.0;0.0;144.9;0.0;0.0;24.2
2.0;1753876243.465092;15.767535;0.91;-1.71;-0.35;-0.093639;-1.015953;-0.02601;0.0;0.0;142.8;0.0;0.0;25.7
2.0;1753876243.469688;15.753135;0.85;-1.73;-0.38;-0.093598;-1.017526;-0.026239;0.0;0.0;148.1;0.0;0.0;17.5
2.0;1753876243.474284;15.722793;0.87;-1.64;-0.33;-0.094181;-1.017701;-0.02433;0.0;0.0;148.0;0.0;0.0;24.8
2.0;1753876243.47888;15.728651;0.92;-1.58;-0.29;-0.093285;-1.016368;-0.026318;0.0;0.0;146.3;0.0;0.0;21.3
2.0;1753876243.483476;15.76541;0.85;-1.72;-0.34;-0.094858;-1.017308;-0.027301;0.0;0.0;145.5;0.0;0.0;22.2
2.0;1753876243.488072;15.758238;0.86;-1.65;-0.21;-0.097067;-1.018234;-0.026743;0.0;0.0;146.9;0.0;0.0;25.7
2.0;1753876243.492668;15.743002;0.94;-1.66;-0.38;-0.094106;-1.015557;-0.027616;0.0;0.0;144.7;0.0;0.0;25.9
2.0;1753876243.497264;15.761608;0.86;-1.74;-0.32;-0.094106;-1.01678;-0.027085;0.0;0.0;145.1;0.0;0.0;27.0
2.0;1753876243.50186;15.734086;0.88;-1.65;-0.34;-0.091425;-1.0169;-0.024278;0.0;0.0;147.4;0.0;0.0;24.4
2.0;1753876243.506456;15.736052;0.84;-1.73;-0.35;-0.094886;-1.016596;-0.026147;0.0;0.0;145.9;0.0;0.0;26.5
2.0;1753876243.511052;15.748781;0.92;-1.69;-0.3;-0.09455;-1.016676;-0.026668;0.0;0.0;146.5;0.0;0.0;29.3
2.0;1753876243.515648;15.741491;0.95;-1.7;-0.26;-0.093433;-1.015548;-0.025451;0.0;0.0;145.9;0.0;0.0;19.6
2.0;1753876243.520244;15.731136;0.78;-1.72;-0.35;-0.094084;-1.01698;-0.025675;0.0;0.0;148.3;0.0;0.0;20.3
2.0;1753876243.52484;15.746069;0.9;-1.77;-0.38;-0.092202;-1.017037;-0.026586;0.0;0.0;149.2;0.0;0.0;23.0
2.0;1753876243.529436;15.720054;0.93;-1.65;-0.31;-0.093898;-1.016458;-0.02539;0.0;0.0;145.6;0.0;0.0;21.8
2.0;1753876243.534032;15.750989;0.94;-1.66;-0.29;-0.093313;-1.016252;-0.02475;0.0;0.0;144.1;0.0;0.0;28.3
2.0;1753876243.538628;15.758068;0.96;-1.64;-0.3;-0.094237;-1.016914;-0.02587;0.0;0.0;147.9;0.0;0.0;25.7
2.0;1753876243.543224;15.764662;0.84;-1.75;-0.37;-0.095597;-1.016427;-0.025799;0.0;0.0;149.8;0.0;0.0;28.1
2.0;1753876243.54782;15.720582;0.87;-1.69;-0.27;-0.094165;-1.018106;-0.026084;0.0;0.0;147.7;0.0;0.0;26.6
2.0;1753876243.552416;15.743362;0.86;-1.69;-0.3;-0.095648;-1.017277;-0.026381;0.0;0.0;149.0;0.0;0.0;20.0
2.0;1753876243.557012;15.731303;0.78;-1.76;-0.25;-0.093571;-1.017495;-0.024845;0.0;0.0;143.6;0.0;0.0;24.2
2.0;1753876243.561608;15.758344;0.92;-1.63;-0.35;-0.092918;-1.017579;-0.026843;0.0;0.0;148.5;0.0;0.0;21.6
2.0;1753876243.566204;15.738132;0.82;-1.73;-0.3;-0.094802;-1.017287;-0.026483;0.0;0.0;146.3;0.0;0.0;28.0
2.0;1753876243.5708;15.749535;0.93;-1.72;-0.39;-0.094057;-1.016651;-0.027009;0.0;0.0;150.2;0.0;0.0;25.9
2.0;1753876243.575396;15.724937;0.84;-1.69;-0.31;-0.095591;-1.015993;-0.026434;0.0;0.0;144.5;0.0;0.0;25.9
2.0;1753876243.579992;15.750437;0.89;-1.79;-0.42;-0.094229;-1.017157;-0.0252;0.0;0.0;148.8;0.0;0.0;28.4
2.0;1753876243.584588;15.75713;0.87;-1.67;-0.31;-0.092664;-1.018487;-0.025301;0.0;0.0;145.2;0.0;0.0;28.1
2.0;1753876243.589184;15.751303;0.97;-1.68;-0.24;-0.09354;-1.01828;-0.027382;0.0;0.0;150.6;0.0;0.0;25.3
2.0;1753876243.59378;15.718715;0.91;-1.78;-0.35;-0.095598;-1.016497;-0.026857;0.0;0.0;148.6;0.0;0.0;20.8
2.0;1753876243.598376;15.73945;0.9;-1.69;-0.33;-0.094363;-1.0163;-0.025893;0.0;0.0;147.3;0.0;0.0;21.8
2.0;1753876243.602972;15.727945;0.85;-1.67;-0.32;-0.092446;-1.015962;-0.026243;0.0;0.0;145.9;0.0;0.0;25.4
2.0;1753876243.607568;15.743775;0.88;-1.69;-0.38;-0.095293;-1.016267;-0.025671;0.0;0.0;145.4;0.0;0.0;27.1
2.0;1753876243.612164;15.753058;0.96;-1.73;-0.36;-0.097607;-1.017278;-0.02586;0.0;0.0;145.2;0.0;0.0;28.7
2.0;1753876243.61676;15.738933;0.85;-1.66;-0.36;-0.093742;-1.016016;-0.028484;0.0;0.0;145.0;0.0;0.0;23.5
2.0;1753876243.621356;15.716452;0.76;-1.65;-0.31;-0.094992;-1.017463;-0.026926;0.0;0.0;143.5;0.0;0.0;30.0
2.0;1753876243.625952;15.73131;0.85;-1.67;-0.36;-0.092196;-1.016879;-0.027009;0.0;0.0;144.1;0.0;0.0;26.1
2.0;1753876243.630548;15.730293;0.87;-1.62;-0.34;-0.095301;-1.017669;-0.026054;0.0;0.0;139.2;0.0;0.0;27.2
2.0;1753876243.635144;15.735374;0.89;-1.62;-0.34;-0.094712;-1.018707;-0.026845;0.0;0.0;149.2;0.0;0.0;23.8
2.0;1753876243.63974;15.749511;0.8;-1.69;-0.32;-0.095573;-1.017367;-0.027427;0.0;0.0;147.2;0.0;0.0;25.2
2.0;1753876243.644336;15.756268;0.8;-1.68;-0.32;-0.09536;-1.016416;-0.02816;0.0;0.0;145.4;0.0;0.0;28.9
2.0;1753876243.648932;15.741578;0.85;-1.71;-0.24;-0.095905;-1.016342;-0.025928;0.0;0.0;147.3;0.0;0.0;24.7
2.0;1753876243.653528;15.746501;0.95;-1.67;-0.38;-0.093922;-1.018902;-0.026292;0.0;0.0;141.7;0.0;0.0;24.4
2.0;1753876243.658124;15.735571;0.79;-1.66;-0.33;-0.096861;-1.016152;-0.025381;0.0;0.0;140.5;0.0;0.0;25.4
2.0;1753876243.66272;15.755724;0.82;-1.77;-0.33;-0.096067;-1.016804;-0.026831;0.0;0.0;149.7;0.0;0.0;23.3
2.0;1753876243.667316;15.762828;0.84;-1.71;-0.36;-0.096325;-1.017762;-0.024908;0.0;0.0;149.1;0.0;0.0;23.8
2.0;1753876243.671912;15.760724;0.91;-1.68;-0.32;-0.096728;-1.016793;-0.027248;0.0;0.0;145.8;0.0;0.0;22.2
2.0;1753876243.676508;15.728556;0.83;-1.68;-0.42;-0.094144;-1.016871;-0.026138;0.0;0.0;145.3;0.0;0.0;24.4
2.0;1753876243.681104;15.743222;0.79;-1.78;-0.36;-0.09637;-1.018323;-0.025348;0.0;0.0;146.8;0.0;0.0;27.0
2.0;1753876243.6857;15.752194;0.83;-1.72;-0.44;-0.093179;-1.017689;-0.026907;0.0;0.0;143.7;0.0;0.0;31.1
2.0;1753876243.690296;15.735891;0.81;-1.61;-0.29;-0.096574;-1.017376;-0.02683;0.0;0.0;140.8;0.0;0.0;28.2
2.0;1753876243.694892;15.714333;0.94;-1.61;-0.4;-0.097236;-1.016757;-0.024726;0.0;0.0;144.8;0.0;0.0;27.1
2.0;1753876243.699488;15.75597;0.85;-1.61;-0.22;-0.094725;-1.017128;-0.025405;0.0;0.0;151.0;0.0;0.0;22.2
2.0;1753876243.704084;15.759606;0.89;-1.76;-0.29;-0.096411;-1.017229;-0.026024;0.0;0.0;142.7;0.0;0.0;28.3
2.0;1753876243.70868;15.730079;0.77;-1.81;-0.37;-0.094551;-1.017599;-0.025934;0.0;0.0;143.2;0.0;0.0;25.1
2.0;1753876243.713276;15.719149;0.87;-1.69;-0.36;-0.096432;-1.017668;-0.027824;0.0;0.0;145.6;0.0;0.0;26.0
2.0;1753876243.717872;15.746029;0.81;-1.7;-0.23;-0.096306;-1.017279;-0.027324;0.0;0.0;145.8;0.0;0.0;23.5
2.0;1753876243.722468;15.724759;0.84;-1.57;-0.39;-0.09484;-1.01752;-0.026794;0.0;0.0;150.4;0.0;0.0;31.4
2.0;1753876243.727064;15.751039;0.92;-1.85;-0.38;-0.097401;-1.01856;-0.026765;0.0;0.0;147.7;0.0;0.0;26.7
2.0;1753876243.73166;15.718494;0.9;-1.69;-0.35;-0.096052;-1.017897;-0.025896;0.0;0.0;144.2;0.0;0.0;24.8
2.0;1753876243.736256;15.732013;0.86;-1.56;-0.3;-0.092032;-1.018185;-0.029073;0.0;0.0;148.7;0.0;0.0;22.6
2.0;1753876243.740852;15.738192;0.85;-1.8;-0.37;-0.09461;-1.016385;-0.02513;0.0;0.0;148.6;0.0;0.0;24.2
2.0;1753876243.745448;15.73149;0.93;-1.7;-0.32;-0.095977;-1.016146;-0.024802;0.0;0.0;145.6;0.0;0.0;26.5
2.0;1753876243.750044;15.722003;0.94;-1.73;-0.33;-0.095938;-1.019023;-0.027371;0.0;0.0;147.5;0.0;0.0;24.3
2.0;1753876243.75464;15.737216;0.81;-1.62;-0.37;-0.095866;-1.017801;-0.026216;0.0;0.0;142.1;0.0;0.0;21.9
2.0;1753876243.759236;15.742446;0.82;-1.61;-0.35;-0.09367;-1.017116;-0.026824;0.0;0.0;143.8;0.0;0.0;23.5
2.0;1753876243.763832;15.720768;0.86;-1.78;-0.28;-0.095484;-1.016986;-0.027198;0.0;0.0;146.2;0.0;0.0;23.5
2.0;1753876243.768428;15.741671;0.82;-1.69;-0.3;-0.096872;-1.017373;-0.027527;0.0;0.0;148.0;0.0;0.0;21.6
2.0;1753876243.773024;15.751617;0.85;-1.62;-0.33;-0.09328;-1.017088;-0.028734;0.0;0.0;143.1;0.0;0.0;24.1
2.0;1753876243.77762;15.735927;0.82;-1.66;-0.34;-0.096462;-1.017892;-0.027064;0.0;0.0;144.8;0.0;0.0;27.9
2.0;1753876243.782216;15.717455;0.88;-1.64;-0.33;-0.094052;-1.016986;-0.027672;0.0;0.0;149.1;0.0;0.0;27.3
2.0;1753876243.786812;15.761142;0.78;-1.66;-0.37;-0.094716;-1.018664;-0.026372;0.0;0.0;142.9;0.0;0.0;22.0
2.0;1753876243.791408;15.734163;0.87;-1.69;-0.34;-0.096118;-1.016413;-0.027278;0.0;0.0;144.9;0.0;0.0;22.1
2.0;1753876243.796004;15.722084;0.89;-1.58;-0.33;-0.09555;-1.018243;-0.025827;0.0;0.0;147.7;0.0;0.0;23.9
2.0;1753876243.8006;15.72016;0.88;-1.64;-0.37;-0.095132;-1.017106;-0.026368;0.0;0.0;141.9;0.0;0.0;24.0
2.0;1753876243.805196;15.7619;0.85;-1.67;-0.35;-0.093273;-1.016465;-0.026018;0.0;0.0;147.7;0.0;0.0;27.3
2.0;1753876243.809792;15.761417;0.82;-1.64;-0.29;-0.094118;-1.016599;-0.026845;0.0;0.0;143.0;0.0;0.0;22.5
2.0;1753876243.814388;15.768819;0.92;-1.67;-0.36;-0.094856;-1.018489;-0.025194;0.0;0.0;148.5;0.0;0.0;22.2
2.0;1753876243.818984;15.741283;0.87;-1.6;-0.31;-0.094126;-1.017653;-0.026927;0.0;0.0;151.1;0.0;0.0;22.8
2.0;1753876243.82358;15.760079;0.82;-1.63;-0.32;-0.094703;-1.018106;-0.027567;0.0;0.0;145.4;0.0;0.0;27.0
2.0;1753876243.828176;15.742303;0.83;-1.72;-0.36;-0.094383;-1.016104;-0.027139;0.0;0.0;142.1;0.0;0.0;29.1
2.0;1753876243.832772;15.725211;0.87;-1.67;-0.39;-0.09435;-1.018389;-0.026739;0.0;0.0;142.7;0.0;0.0;22.5
2.0;1753876243.837368;15.732139;0.9;-1.7;-0.38;-0.09678;-1.01736;-0.027111;0.0;0.0;148.2;0.0;0.0;24.1
2.0;1753876243.841964;15.745907;0.78;-1.69;-0.31;-0.093996;-1.018512;-0.02844;0.0;0.0;147.9;0.0;0.0;23.7
2.0;1753876243.84656;15.723469;0.81;-1.61;-0.31;-0.091996;-1.018598;-0.027553;0.0;0.0;144.4;0.0;0.0;21.2
2.0;1753876243.851156;15.75658;0.88;-1.74;-0.31;-0.096481;-1.017251;-0.027004;0.0;0.0;152.6;0.0;0.0;21.2
2.0;1753876243.855752;15.745186;0.87;-1.64;-0.26;-0.094702;-1.017447;-0.026583;0.0;0.0;148.9;0.0;0.0;28.2
2.0;1753876243.860348;15.748365;0.87;-1.65;-0.35;-0.092707;-1.018155;-0.027419;0.0;0.0;148.2;0.0;0.0;24.6
2.0;1753876243.864944;15.755993;0.79;-1.77;-0.39;-0.095004;-1.017773;-0.027243;0.0;0.0;151.7;0.0;0.0;20.0
2.0;1753876243.86954;15.74555;0.9;-1.74;-0.35;-0.093999;-1.018383;-0.02637;0.0;0.0;141.7;0.0;0.0;26.7
2.0;1753876243.874136;15.764503;0.86;-1.66;-0.32;-0.094246;-1.018246;-0.025775;0.0;0.0;142.7;0.0;0.0;21.0
2.0;1753876243.878732;15.732474;0.87;-1.66;-0.39;-0.094273;-1.017836;-0.027832;0.0;0.0;148.5;0.0;0.0;20.7
2.0;1753876243.883328;15.738436;0.84;-1.73;-0.37;-0.093916;-1.01742;-0.027127;0.0;0.0;146.0;0.0;0.0;24.0
2.0;1753876243.887924;15.734108;0.77;-1.76;-0.43;-0.094338;-1.017978;-0.026072;0.0;0.0;146.2;0.0;0.0;30.3
2.0;1753876243.89252;15.731498;0.77;-1.69;-0.39;-0.094142;-1.01755;-0.027792;0.0;0.0;146.1;0.0;0.0;25.8
2.0;1753876243.897116;15.756211;0.8;-1.68;-0.39;-0.093816;-1.017882;-0.02733;0.0;0.0;146.3;0.0;0.0;26.6
2.0;1753876243.903;15.742188;0.84;-1.68;-0.35;-0.094794;-1.017602;-0.027084;0.0;0.0;146.0;0.0;0.0;25.0
2.0;1753876243.907596;15.748008;0.85;-1.67;-0.36;-0.09358;-1.016871;-0.025875;0.0;0.0;149.0;0.0;0.0;24.9
2.0;1753876243.912192;15.733067;0.86;-1.85;-0.36;-0.092882;-1.017576;-0.026437;0.0;0.0;152.7;0.0;0.0;22.5
2.0;1753876243.916788;15.730693;0.9;-1.66;-0.3;-0.096979;-1.016419;-0.025718;0.0;0.0;154.6;0.0;0.0;24.1
2.0;1753876243.92381;15.71875;0.98;-1.68;-0.28;-0.09516;-1.016748;-0.025742;0.0;0.0;162.0;0.0;0.0;21.0
2.0;1753876243.928406;15.731667;0.95;-1.72;-0.3;-0.096766;-1.017377;-0.025378;0.0;0.0;159.2;0.0;0.0;20.4
2.0;1753876243.933002;15.737139;1.02;-1.61;-0.31;-0.094735;-1.017158;-0.026438;0.0;0.0;159.8;0.0;0.0;21.3
2.0;1753876243.937598;15.717542;1.07;-1.7;-0.29;-0.097201;-1.017095;-0.02484;0.0;0.0;179.0;0.0;0.0;21.5
2.0;1753876243.942194;15.708799;0.9;-1.8;-0.25;-0.09511;-1.017339;-0.025716;0.0;0.0;161.5;0.0;0.0;18.4
2.0;1753876243.94679;15.719281;1.01;-1.74;-0.29;-0.098394;-1.016603;-0.026729;0.0;0.0;169.4;0.0;0.0;18.7
2.0;1753876243.951386;15.744098;0.92;-1.65;-0.34;-0.095745;-1.015985;-0.025965;0.0;0.0;164.7;0.0;0.0;23.2
2.0;1753876243.955982;15.741801;0.97;-1.71;-0.28;-0.097833;-1.015666;-0.025739;0.0;0.0;159.0;0.0;0.0;19.7
2.0;1753876243.960578;15.734165;0.97;-1.63;-0.29;-0.097075;-1.015442;-0.026375;0.0;0.0;158.1;0.0;0.0;19.9
2.0;1753876243.965174;15.724636;1.0;-1.75;-0.27;-0.097037;-1.015846;-0.02526;0.0;0.0;163.5;0.0;0.0;21.2
2.0;1753876243.96948;15.734375;0.98;-1.75;-0.28;-0.096502;-1.016382;-0.025742;0.0;0.0;162.0;0.0;0.0;21.0
2.0;1753876243.970535;15.734375;1.05;-1.61;-0.49;-0.084058;-1.018578;-0.026962;0.0;0.0;159.0;0.0;0.0;21.0
2.0;1753876243.975125;15.742188;0.91;-1.61;-0.35;-0.082838;-1.016748;-0.026108;0.0;0.0;159.0;0.0;0.0;21.0
2.0;1753876243.979681;15.742188;0.84;-1.61;-0.35;-0.082228;-1.01687;-0.0244;0.0;0.0;159.0;0.0;0.0;21.0
2.0;1753876243.984152;15.742188;0.84;-1.68;-0.42;-0.082228;-1.01687;-0.0244;0.0;0.0;159.0;0.0;0.0;21.0
2.0;1753876243.988961;15.742188;0.98;-1.68;-0.35;-0.082472;-1.018334;-0.02257;0.0;0.0;159.0;0.0;0.0;21.0
2.0;1753876243.993557;15.726852;1.06;-1.76;-0.49;-0.074656;-1.01847;-0.027595;0.0;0.0;164.7;0.0;0.0;31.5
2.0;1753876243.998153;15.751447;0.89;-1.71;-0.65;-0.084861;-1.0183;-0.012942;0.0;0.0;161.0;0.0;0.0;34.2
2.0;1753876244.002749;15.742299;0.98;-1.68;-0.55;-0.079722;-1.017287;-0.022442;0.0;0.0;157.7;0.0;0.0;17.8
2.0;1753876244.007345;15.690095;0.88;-1.66;-0.12;-0.083297;-1.017934;-0.021117;0.0;0.0;156.8;0.0;0.0;22.7
2.0;1753876244.011941;15.72097;0.96;-1.78;-0.38;-0.082554;-1.02025;-0.018983;0.0;0.0;160.4;0.0;0.0;7.1
2.0;1753876244.016537;15.744785;1.01;-1.73;-0.45;-0.080092;-1.018764;-0.022522;0.0;0.0;158.2;0.0;0.0;20.6
2.0;1753876244.021133;15.72944;1.14;-1.72;-0.22;-0.081245;-1.018939;-0.021585;0.0;0.0;152.2;0.0;0.0;17.2
2.0;1753876244.025729;15.756656;0.93;-1.69;-0.28;-0.08498;-1.017929;-0.031509;0.0;0.0;161.4;0.0;0.0;20.6
2.0;1753876244.030325;15.713906;0.88;-1.72;-0.23;-0.08332;-1.018969;-0.016363;0.0;0.0;155.7;0.0;0.0;21.0
2.0;1753876244.034921;15.698235;1.0;-1.87;-0.35;-0.082533;-1.01798;-0.015091;0.0;0.0;157.1;0.0;0.0;25.5
2.0;1753876244.039517;15.718806;0.89;-1.62;-0.52;-0.080226;-1.015939;-0.019568;0.0;0.0;158.2;0.0;0.0;22.8
2.0;1753876244.044113;15.709616;0.9;-1.76;-0.37;-0.077972;-1.017231;-0.029181;0.0;0.0;158.1;0.0;0.0;32.3
2.0;1753876244.048709;15.710732;1.06;-1.64;-0.38;-0.081679;-1.017967;-0.023311;0.0;0.0;156.9;0.0;0.0;17.0
2.0;1753876244.053305;15.737011;0.96;-1.65;-0.55;-0.084835;-1.016317;-0.015659;0.0;0.0;152.7;0.0;0.0;16.4
2.0;1753876244.057901;15.735625;0.92;-1.72;-0.57;-0.085426;-1.01713;-0.015962;0.0;0.0;157.8;0.0;0.0;30.3
2.0;1753876244.062497;15.7142;0.89;-1.77;-0.28;-0.07902;-1.015602;-0.014775;0.0;0.0;154.4;0.0;0.0;5.7
2.0;1753876244.067093;15.704594;1.02;-1.63;-0.13;-0.083244;-1.017847;-0.025192;0.0;0.0;154.5;0.0;0.0;31.5
2.0;1753876244.071689;15.729719;0.91;-1.67;-0.54;-0.083404;-1.016708;-0.021926;0.0;0.0;159.3;0.0;0.0;23.4
2.0;1753876244.076285;15.72117;1.04;-1.84;-0.48;-0.084306;-1.018098;-0.012106;0.0;0.0;157.0;0.0;0.0;25.9
2.0;1753876244.080881;15.743724;0.97;-1.64;-0.35;-0.084545;-1.019496;-0.018336;0.0;0.0;153.8;0.0;0.0;42.6
2.0;1753876244.085477;15.74135;0.95;-1.57;-0.43;-0.081731;-1.018432;-0.021051;0.0;0.0;157.3;0.0;0.0;21.1
2.0;1753876244.090073;15.722919;1.07;-1.62;-0.16;-0.083848;-1.017934;-0.024561;0.0;0.0;156.2;0.0;0.0;30.1
2.0;1753876244.094669;15.752626;1.0;-1.77;-0.45;-0.082022;-1.018765;-0.017316;0.0;0.0;152.9;0.0;0.0;25.7
2.0;1753876244.099265;15.745151;0.98;-1.61;-0.36;-0.084643;-1.018362;-0.027638;0.0;0.0;149.6;0.0;0.0;20.0
2.0;1753876244.103861;15.741532;0.83;-1.67;-0.03;-0.075331;-1.017127;-0.022942;0.0;0.0;153.8;0.0;0.0;21.6
2.0;1753876244.108457;15.759807;0.93;-1.6;-0.41;-0.081596;-1.017055;-0.024806;0.0;0.0;150.7;0.0;0.0;36.8
2.0;1753876244.113053;15.701276;0.99;-1.64;-0.47;-0.08816;-1.018334;-0.019378;0.0;0.0;152.4;0.0;0.0;29.3
2.0;1753876244.117649;15.694656;0.94;-1.67;-0.14;-0.084989;-1.017223;-0.020812;0.0;0.0;149.8;0.0;0.0;27.4
2.0;1753876244.122245;15.725823;0.91;-1.67;-0.7;-0.080148;-1.019663;-0.018815;0.0;0.0;158.6;0.0;0.0;32.1
2.0;1753876244.126841;15.727232;0.91;-1.73;-0.33;-0.08129;-1.018537;-0.019047;0.0;0.0;152.9;0.0;0.0;31.1
2.0;1753876244.131437;15.759633;0.95;-1.82;-0.44;-0.079307;-1.017656;-0.027698;0.0;0.0;151.4;0.0;0.0;27.5
2.0;1753876244.136033;15.730944;0.87;-1.72;-0.7;-0.083862;-1.019427;-0.022798;0.0;0.0;158.7;0.0;0.0;20.0
2.0;1753876244.140629;15.744864;0.9;-1.69;-0.24;-0.082843;-1.018912;-0.018591;0.0;0.0;150.1;0.0;0.0;16.2
2.0;1753876244.145225;15.729762;0.84;-1.75;-0.66;-0.083462;-1.017096;-0.024597;0.0;0.0;149.5;0.0;0.0;36.9
2.0;1753876244.149821;15.729918;0.96;-1.65;-0.45;-0.081801;-1.017345;-0.014424;0.0;0.0;153.6;0.0;0.0;23.8
2.0;1753876244.154417;15.722741;1.1;-1.75;-0.47;-0.081335;-1.018149;-0.019557;0.0;0.0;150.4;0.0;0.0;25.6
2.0;1753876244.159013;15.710102;0.93;-1.78;-0.32;-0.081481;-1.016448;-0.018348;0.0;0.0;155.3;0.0;0.0;33.8
2.0;1753876244.163609;15.70292;0.88;-1.87;-0.35;-0.082483;-1.01894;-0.023801;0.0;0.0;146.7;0.0;0.0;38.8
2.0;1753876244.168205;15.744497;0.85;-1.79;-0.51;-0.079518;-1.016974;-0.017899;0.0;0.0;155.1;0.0;0.0;31.1
2.0;1753876244.172801;15.720353;1.05;-1.65;-0.65;-0.084272;-1.018534;-0.014009;0.0;0.0;153.8;0.0;0.0;34.2
2.0;1753876244.177397;15.71969;0.91;-1.83;-0.33;-0.081564;-1.017298;-0.019614;0.0;0.0;149.7;0.0;0.0;36.6
2.0;1753876244.181993;15.727215;0.9;-1.68;-0.49;-0.082352;-1.017184;-0.013499;0.0;0.0;146.2;0.0;0.0;24.5
2.0;1753876244.186589;15.720375;0.75;-1.78;-0.41;-0.076813;-1.017445;-0.023596;0.0;0.0;147.8;0.0;0.0;23.9
2.0;1753876244.191185;15.717381;0.9;-1.64;-0.5;-0.082493;-1.018037;-0.022256;0.0;0.0;149.4;0.0;0.0;29.2
2.0;1753876244.195781;15.715645;0.9;-1.68;-0.5;-0.083879;-1.018614;-0.021318;0.0;0.0;150.6;0.0;0.0;8.3
2.0;1753876244.200377;15.732805;0.89;-1.62;-0.38;-0.083378;-1.018561;-0.018008;0.0;0.0;148.9;0.0;0.0;24.1
2.0;1753876244.204973;15.68829;1.01;-1.74;-0.61;-0.080848;-1.017953;-0.017455;0.0;0.0;152.1;0.0;0.0;29.3
2.0;1753876244.209569;15.704155;0.87;-1.74;-0.63;-0.083115;-1.017582;-0.015201;0.0;0.0;152.3;0.0;0.0;21.3
2.0;1753876244.214165;15.701376;0.94;-1.82;-0.32;-0.085559;-1.018641;-0.019468;0.0;0.0;152.8;0.0;0.0;24.5
2.0;1753876244.218761;15.66695;0.96;-1.73;-0.17;-0.080539;-1.018116;-0.024897;0.0;0.0;149.2;0.0;0.0;23.4
2.0;1753876244.223357;15.69881;1.05;-1.76;-0.64;-0.083209;-1.018643;-0.016786;0.0;0.0;149.7;0.0;0.0;27.0
2.0;1753876244.227953;15.688853;0.85;-1.69;-0.52;-0.08199;-1.018255;-0.024666;0.0;0.0;150.9;0.0;0.0;24.7
2.0;1753876244.232549;15.683185;0.83;-1.61;-0.51;-0.082423;-1.018801;-0.01826;0.0;0.0;145.7;0.0;0.0;32.9
2.0;1753876244.237145;15.728307;0.82;-1.81;-0.63;-0.083396;-1.017368;-0.016578;0.0;0.0;148.5;0.0;0.0;19.1
2.0;1753876244.241741;15.737209;0.99;-1.74;-0.61;-0.081129;-1.017503;-0.017532;0.0;0.0;145.5;0.0;0.0;35.1
2.0;1753876244.246337;15.725136;0.85;-1.76;-0.61;-0.081836;-1.017603;-0.023002;0.0;0.0;147.1;0.0;0.0;19.5
2.0;1753876244.250933;15.713138;0.93;-1.74;-0.47;-0.07886;-1.018315;-0.019968;0.0;0.0;153.4;0.0;0.0;23.3
2.0;1753876244.255529;15.728256;0.94;-1.75;-0.47;-0.087588;-1.018546;-0.022295;0.0;0.0;148.2;0.0;0.0;35.7
2.0;1753876244.260125;15.730974;0.94;-1.71;-0.19;-0.079713;-1.017542;-0.013561;0.0;0.0;151.2;0.0;0.0;40.4
2.0;1753876244.264721;15.67523;1.0;-1.65;-0.24;-0.080229;-1.017991;-0.016706;0.0;0.0;147.9;0.0;0.0;29.8
2.0;1753876244.27;15.710938;0.91;-1.75;-0.56;-0.081984;-1.017724;-0.020252;0.0;0.0;147.0;0.0;0.0;28.0
2.0;1753876244.274596;15.730429;0.91;-1.7;-0.56;-0.080617;-1.017792;-0.01958;0.0;0.0;148.3;0.0;0.0;25.8
2.0;1753876244.279192;15.681627;0.93;-1.8;-0.94;-0.082771;-1.018552;-0.026292;0.0;0.0;148.5;0.0;0.0;17.9
2.0;1753876244.283788;15.718189;0.77;-1.77;-0.19;-0.082128;-1.018017;-0.020967;0.0;0.0;144.5;0.0;0.0;39.3
2.0;1753876244.288384;15.730313;0.79;-1.64;-0.68;-0.080915;-1.017054;-0.02442;0.0;0.0;141.3;0.0;0.0;36.4
2.0;1753876244.29298;15.682038;0.95;-1.78;-0.65;-0.081096;-1.018284;-0.015816;0.0;0.0;151.8;0.0;0.0;26.5
2.0;1753876244.297576;15.708033;0.81;-1.71;-0.33;-0.08048;-1.018506;-0.01967;0.0;0.0;143.6;0.0;0.0;17.2
2.0;1753876244.302172;15.673246;0.94;-1.78;-0.4;-0.07863;-1.017409;-0.02423;0.0;0.0;153.3;0.0;0.0;35.8
2.0;1753876244.306768;15.721134;0.86;-1.78;-0.47;-0.082086;-1.018128;-0.032238;0.0;0.0;146.5;0.0;0.0;35.1
2.0;1753876244.311364;15.732645;0.83;-1.82;-0.54;-0.085195;-1.018057;-0.020897;0.0;0.0;147.4;0.0;0.0;23.1
2.0;1753876244.31596;15.729657;0.94;-1.75;-0.39;-0.08803;-1.017878;-0.019173;0.0;0.0;141.9;0.0;0.0;32.6
2.0;1753876244.320556;15.70836;0.96;-1.79;-0.59;-0.080156;-1.017926;-0.013846;0.0;0.0;153.7;0.0;0.0;29.4
2.0;1753876244.325152;15.708315;0.89;-1.78;-0.41;-0.082185;-1.017439;-0.01999;0.0;0.0;144.4;0.0;0.0;10.6
2.0;1753876244.329748;15.692045;0.96;-1.79;-0.45;-0.083322;-1.019682;-0.013248;0.0;0.0;143.1;0.0;0.0;19.9
2.0;1753876244.334344;15.714154;0.98;-1.76;-0.67;-0.081513;-1.016921;-0.015203;0.0;0.0;148.4;0.0;0.0;17.1
2.0;1753876244.33894;15.735935;0.95;-1.75;-0.84;-0.083266;-1.017174;-0.021867;0.0;0.0;156.7;0.0;0.0;42.0
2.0;1753876244.343536;15.708061;0.96;-1.74;-0.74;-0.083101;-1.018408;-0.019647;0.0;0.0;153.3;0.0;0.0;12.9
2.0;1753876244.348132;15.705996;0.94;-1.72;-0.61;-0.078816;-1.019339;-0.01831;0.0;0.0;143.2;0.0;0.0;20.3
2.0;1753876244.352728;15.747231;1.02;-1.78;-0.75;-0.085851;-1.0175;-0.020698;0.0;0.0;143.4;0.0;0.0;33.4
2.0;1753876244.357324;15.702478;0.91;-1.68;-0.57;-0.081818;-1.01767;-0.019772;0.0;0.0;142.7;0.0;0.0;23.7
2.0;1753876244.36192;15.738876;1.06;-1.82;-0.52;-0.082623;-1.017358;-0.016756;0.0;0.0;150.4;0.0;0.0;31.1
2.0;1753876244.366516;15.697355;0.96;-1.63;-0.34;-0.076803;-1.019051;-0.018205;0.0;0.0;148.9;0.0;0.0;24.8
2.0;1753876244.371112;15.700479;0.98;-1.74;-0.57;-0.080489;-1.018123;-0.018865;0.0;0.0;149.1;0.0;0.0;29.9
2.0;1753876244.375708;15.721936;0.81;-1.76;-0.65;-0.083523;-1.017424;-0.023104;0.0;0.0;142.4;0.0;0.0;16.6
2.0;1753876244.380304;15.716146;0.92;-1.77;-0.49;-0.083161;-1.018889;-0.018041;0.0;0.0;143.6;0.0;0.0;28.0
2.0;1753876244.3849;15.680779;0.83;-1.63;-0.47;-0.080669;-1.018633;-0.022344;0.0;0.0;154.8;0.0;0.0;28.4
2.0;1753876244.389496;15.682157;0.95;-1.87;-0.6;-0.078247;-1.017352;-0.020831;0.0;0.0;150.3;0.0;0.0;28.4
2.0;1753876244.394092;15.721125;1.02;-1.77;-0.71;-0.081519;-1.018016;-0.019212;0.0;0.0;139.2;0.0;0.0;30.6
2.0;1753876244.398688;15.73743;0.92;-1.77;-0.61;-0.079974;-1.01759;-0.015679;0.0;0.0;154.9;0.0;0.0;24.4
2.0;1753876244.403284;15.710589;0.88;-1.76;-1.2;-0.084633;-1.019218;-0.020178;0.0;0.0;139.0;0.0;0.0;32.2
2.0;1753876244.40788;15.694116;0.86;-1.83;-0.37;-0.083369;-1.017036;-0.020086;0.0;0.0;148.4;0.0;0.0;22.7
2.0;1753876244.412476;15.714303;0.97;-1.79;-0.38;-0.080406;-1.016474;-0.018363;0.0;0.0;154.6;0.0;0.0;31.4
2.0;1753876244.417072;15.708921;0.87;-1.67;-0.4;-0.081702;-1.018103;-0.016499;0.0;0.0;136.8;0.0;0.0;16.1
2.0;1753876244.421668;15.678664;0.85;-1.72;-0.41;-0.078778;-1.0175;-0.021544;0.0;0.0;145.8;0.0;0.0;29.9
2.0;1753876244.426264;15.718822;1.02;-1.79;-0.5;-0.080924;-1.019988;-0.018938;0.0;0.0;151.3;0.0;0.0;19.6
2.0;1753876244.43086;15.712458;0.97;-1.72;-0.45;-0.082571;-1.01711;-0.01416;0.0;0.0;146.3;0.0;0.0;33.2
2.0;1753876244.435456;15.690551;0.84;-1.71;-0.47;-0.087331;-1.01792;-0.024498;0.0;0.0;151.0;0.0;0.0;36.0
2.0;1753876244.440052;15.736438;0.97;-1.68;-0.37;-0.082688;-1.016673;-0.026163;0.0;0.0;143.9;0.0;0.0;27.5
2.0;1753876244.444648;15.678421;0.86;-1.83;-0.74;-0.083263;-1.017142;-0.014642;0.0;0.0;149.7;0.0;0.0;27.8
2.0;1753876244.449244;15.698724;0.95;-1.78;-0.4;-0.082632;-1.018039;-0.017175;0.0;0.0;144.8;0.0;0.0;17.5
2.0;1753876244.45384;15.718131;0.88;-1.64;-0.38;-0.084573;-1.017396;-0.013871;0.0;0.0;131.8;0.0;0.0;42.9
2.0;1753876244.458436;15.732995;0.89;-1.75;-0.38;-0.083878;-1.019693;-0.022036;0.0;0.0;145.2;0.0;0.0;29.6
2.0;1753876244.463032;15.738268;0.9;-1.75;-0.74;-0.084212;-1.016925;-0.019884;0.0;0.0;157.1;0.0;0.0;35.2
2.0;1753876244.467628;15.704716;0.99;-1.64;-0.64;-0.081688;-1.01646;-0.019766;0.0;0.0;146.1;0.0;0.0;35.2
2.0;1753876244.472224;15.74198;0.91;-1.7;-0.48;-0.080288;-1.016561;-0.016215;0.0;0.0;144.3;0.0;0.0;36.1
2.0;1753876244.47682;15.709989;0.93;-1.71;-0.62;-0.082004;-1.01786;-0.019232;0.0;0.0;144.4;0.0;0.0;33.2
2.0;1753876244.481416;15.695578;0.89;-1.53;-0.53;-0.084893;-1.017223;-0.020857;0.0;0.0;149.8;0.0;0.0;36.1
2.0;1753876244.486012;15.700863;0.93;-1.73;-0.55;-0.081317;-1.018719;-0.014454;0.0;0.0;148.5;0.0;0.0;26.4
2.0;1753876244.490608;15.677894;0.85;-1.73;-0.57;-0.078321;-1.017431;-0.019453;0.0;0.0;146.7;0.0;0.0;35.4
2.0;1753876244.495204;15.716162;0.83;-1.7;-0.52;-0.084365;-1.019884;-0.026914;0.0;0.0;146.8;0.0;0.0;28.2
2.0;1753876244.4998;15.691756;0.81;-1.68;-0.44;-0.087965;-1.018242;-0.022432;0.0;0.0;139.2;0.0;0.0;17.3
2.0;1753876244.504396;15.698523;0.94;-1.79;-0.38;-0.083145;-1.017073;-0.011038;0.0;0.0;152.3;0.0;0.0;27.9
2.0;1753876244.508992;15.673235;0.88;-1.74;-0.38;-0.085612;-1.01657;-0.023621;0.0;0.0;150.6;0.0;0.0;33.4
2.0;1753876244.513588;15.703975;0.92;-1.65;-0.6;-0.082807;-1.016734;-0.023093;0.0;0.0;149.0;0.0;0.0;47.0
2.0;1753876244.518184;15.704252;0.92;-1.61;-0.63;-0.082611;-1.017888;-0.025286;0.0;0.0;146.1;0.0;0.0;34.9
2.0;1753876244.52278;15.738428;0.94;-1.72;-0.6;-0.082999;-1.01885;-0.02059;0.0;0.0;151.0;0.0;0.0;24.0
2.0;1753876244.527376;15.743266;0.91;-1.74;-0.63;-0.080395;-1.015554;-0.015024;0.0;0.0;149.4;0.0;0.0;27.5
2.0;1753876244.531972;15.70006;0.93;-1.82;-0.37;-0.084149;-1.018352;-0.026188;0.0;0.0;144.9;0.0;0.0;18.7
2.0;1753876244.536568;15.701212;0.95;-1.77;-0.4;-0.087758;-1.016898;-0.01742;0.0;0.0;153.5;0.0;0.0;28.5
2.0;1753876244.541164;15.68686;0.97;-1.56;-0.62;-0.084484;-1.019837;-0.019426;0.0;0.0;139.8;0.0;0.0;34.8
2.0;1753876244.54576;15.686948;1.08;-1.7;-0.67;-0.086263;-1.017181;-0.017749;0.0;0.0;143.9;0.0;0.0;25.9
2.0;1753876244.550356;15.728556;0.85;-1.72;-0.57;-0.079779;-1.01748;-0.014683;0.0;0.0;151.9;0.0;0.0;33.8
2.0;1753876244.554952;15.706686;0.93;-1.74;-0.54;-0.085071;-1.017579;-0.026688;0.0;0.0;141.6;0.0;0.0;34.8
2.0;1753876244.559548;15.710348;0.8;-1.56;-0.62;-0.084171;-1.017002;-0.017431;0.0;0.0;144.7;0.0;0.0;22.7
2.0;1753876244.564144;15.700272;0.87;-1.61;-0.63;-0.084845;-1.019315;-0.024912;0.0;0.0;142.5;0.0;0.0;30.1
2.0;1753876244.56874;15.700928;1.0;-1.73;-0.35;-0.085308;-1.01846;-0.020535;0.0;0.0;149.0;0.0;0.0;33.9
2.0;1753876244.573336;15.700696;0.93;-1.63;-0.85;-0.082705;-1.016077;-0.015523;0.0;0.0;141.9;0.0;0.0;38.8
2.0;1753876244.577932;15.710765;0.86;-1.68;-0.53;-0.085737;-1.016529;-0.019663;0.0;0.0;137.5;0.0;0.0;36.4
2.0;1753876244.582528;15.697369;0.88;-1.6;-0.81;-0.086034;-1.017654;-0.018487;0.0;0.0;147.1;0.0;0.0;16.5
2.0;1753876244.587124;15.742281;0.9;-1.72;-0.67;-0.082889;-1.015689;-0.024153;0.0;0.0;144.5;0.0;0.0;26.5
2.0;1753876244.59172;15.722274;0.91;-1.71;-0.81;-0.080847;-1.016802;-0.011777;0.0;0.0;144.5;0.0;0.0;31.4
2.0;1753876244.596316;15.731591;0.83;-1.59;-0.66;-0.081719;-1.017146;-0.024529;0.0;0.0;143.0;0.0;0.0;29.2
2.0;1753876244.600912;15.706011;0.79;-1.77;-0.39;-0.084058;-1.016579;-0.013258;0.0;0.0;142.7;0.0;0.0;31.7
2.0;1753876244.605508;15.725546;0.9;-1.62;-0.98;-0.083887;-1.018529;-0.014637;0.0;0.0;144.9;0.0;0.0;19.2
2.0;1753876244.610104;15.708713;0.9;-1.65;-0.39;-0.080831;-1.016098;-0.028778;0.0;0.0;149.8;0.0;0.0;29.7
2.0;1753876244.6147;15.727848;0.87;-1.79;-0.51;-0.085916;-1.018079;-0.002792;0.0;0.0;155.1;0.0;0.0;32.9
2.0;1753876244.619296;15.707051;0.88;-1.65;-1.01;-0.082223;-1.01604;-0.015023;0.0;0.0;144.3;0.0;0.0;29.6
2.0;1753876244.623892;15.726243;1.05;-1.65;-0.94;-0.081889;-1.017973;-0.025477;0.0;0.0;151.3;0.0;0.0;41.7
2.0;1753876244.628488;15.707877;0.95;-1.71;-0.62;-0.08347;-1.016756;-0.011619;0.0;0.0;152.6;0.0;0.0;6.8
2.0;1753876244.633084;15.737369;0.84;-1.74;-0.41;-0.081262;-1.017798;-0.017876;0.0;0.0;143.7;0.0;0.0;9.3
2.0;1753876244.63768;15.688096;0.9;-1.65;-0.73;-0.083059;-1.018104;-0.020032;0.0;0.0;154.1;0.0;0.0;15.3
2.0;1753876244.642276;15.733637;0.85;-1.64;-0.49;-0.081122;-1.018128;-0.01834;0.0;0.0;146.8;0.0;0.0;26.6
2.0;1753876244.646872;15.731497;0.83;-1.77;-0.81;-0.083537;-1.016899;-0.018628;0.0;0.0;143.5;0.0;0.0;16.4
2.0;1753876244.651468;15.732389;0.97;-1.78;-0.63;-0.08401;-1.017614;-0.015403;0.0;0.0;152.9;0.0;0.0;27.0
2.0;1753876244.656064;15.690094;0.97;-1.57;-0.22;-0.086314;-1.017552;-0.020843;0.0;0.0;143.2;0.0;0.0;41.9
2.0;1753876244.66066;15.709503;0.93;-1.69;-0.95;-0.084025;-1.017189;-0.016982;0.0;0.0;149.4;0.0;0.0;31.8
2.0;1753876244.665256;15.704056;0.92;-1.79;-0.47;-0.086116;-1.016562;-0.017673;0.0;0.0;141.7;0.0;0.0;34.0
2.0;1753876244.669852;15.706129;0.82;-1.88;-0.95;-0.082578;-1.018432;-0.027355;0.0;0.0;141.4;0.0;0.0;20.4
2.0;1753876244.674448;15.727179;0.79;-1.67;-0.33;-0.078354;-1.018296;-0.009903;0.0;0.0;147.0;0.0;0.0;21.6
2.0;1753876244.679044;15.683505;0.87;-1.74;-0.58;-0.081206;-1.01751;-0.021361;0.0;0.0;150.8;0.0;0.0;28.1
2.0;1753876244.68364;15.712412;0.85;-1.61;-0.81;-0.081508;-1.017096;-0.014475;0.0;0.0;138.9;0.0;0.0;25.1
2.0;1753876244.688236;15.69839;0.92;-1.73;-0.84;-0.083146;-1.017356;-0.017489;0.0;0.0;143.7;0.0;0.0;27.0
2.0;1753876244.692832;15.696562;0.91;-1.72;-0.73;-0.083444;-1.015991;-0.021885;0.0;0.0;147.0;0.0;0.0;42.3
2.0;1753876244.697428;15.733109;0.83;-1.73;-0.67;-0.083539;-1.017933;-0.021112;0.0;0.0;141.4;0.0;0.0;22.0
2.0;1753876244.7028;15.710938;0.91;-1.68;-0.63;-0.083326;-1.01748;-0.019642;0.0;0.0;147.0;0.0;0.0;28.0
2.0;1753876244.71149;15.71875;0.98;-1.61;0.14;-0.08418;-1.01809;-0.023668;0.0;0.0;146.0;0.0;0.0;29.0
2.0;1753876244.716086;15.710711;1.0;-1.61;0.97;-0.086339;-1.018336;-0.023165;0.0;0.0;146.3;0.0;0.0;30.6
2.0;1753876244.720682;15.723683;0.99;-1.67;-0.33;-0.084622;-1.017464;-0.027113;0.0;0.0;146.2;0.0;0.0;30.9
2.0;1753876244.725278;15.739728;1.01;-1.57;0.4;-0.084283;-1.017012;-0.020598;0.0;0.0;148.9;0.0;0.0;36.1
2.0;1753876244.729874;15.717651;1.06;-1.71;0.23;-0.08223;-1.018843;-0.026158;0.0;0.0;144.1;0.0;0.0;32.3
2.0;1753876244.73447;15.705409;0.87;-1.69;0.55;-0.085006;-1.017414;-0.026493;0.0;0.0;153.3;0.0;0.0;31.0
2.0;1753876244.739066;15.72431;1.01;-1.6;-0.3;-0.080348;-1.01868;-0.026013;0.0;0.0;143.4;0.0;0.0;30.3
2.0;1753876244.743662;15.719864;1.08;-1.71;1.24;-0.084407;-1.016987;-0.021428;0.0;0.0;142.1;0.0;0.0;28.6
2.0;1753876244.748258;15.727366;1.0;-1.72;0.33;-0.08803;-1.018205;-0.024698;0.0;0.0;145.4;0.0;0.0;30.9
2.0;1753876244.752854;15.72121;1.23;-1.72;-0.08;-0.085066;-1.018953;-0.024283;0.0;0.0;151.8;0.0;0.0;27.0
2.0;1753876244.7591;15.71875;1.05;-1.68;0.14;-0.084912;-1.017602;-0.024766;0.0;0.0;146.0;0.0;0.0;29.0
2.0;1753876244.763696;15.731507;0.92;-1.7;0.33;-0.082268;-1.015111;-0.022814;0.0;0.0;139.9;0.0;0.0;28.0
2.0;1753876244.768292;15.708502;1.01;-1.69;0.9;-0.083465;-1.017719;-0.029464;0.0;0.0;142.6;0.0;0.0;24.9
2.0;1753876244.772888;15.72821;0.99;-1.71;0.53;-0.084176;-1.01821;-0.024539;0.0;0.0;146.0;0.0;0.0;31.2
2.0;1753876244.777484;15.71636;0.99;-1.71;-0.12;-0.087142;-1.017112;-0.024066;0.0;0.0;143.3;0.0;0.0;25.1
2.0;1753876244.78208;15.71589;0.97;-1.69;-0.36;-0.086361;-1.017587;-0.022546;0.0;0.0;146.6;0.0;0.0;26.8
2.0;1753876244.786676;15.701563;1.0;-1.64;0.2;-0.078731;-1.017154;-0.024613;0.0;0.0;147.8;0.0;0.0;24.5
2.0;1753876244.791272;15.714479;0.98;-1.74;-0.05;-0.085474;-1.016774;-0.022531;0.0;0.0;138.0;0.0;0.0;22.3
2.0;1753876244.795868;15.704822;0.91;-1.7;-0.53;-0.079692;-1.016745;-0.024042;0.0;0.0;144.1;0.0;0.0;27.0
2.0;1753876244.80307;15.71875;0.98;-1.68;0.0;-0.0854;-1.01748;-0.023668;0.0;0.0;146.0;0.0;0.0;29.0
2.0;1753876244.807666;15.716762;1.11;-1.74;-0.07;-0.079324;-1.016822;-0.022607;0.0;0.0;142.1;0.0;0.0;28.4
2.0;1753876244.812262;15.713455;0.88;-1.53;-0.12;-0.085115;-1.017463;-0.023445;0.0;0.0;147.2;0.0;0.0;26.8
2.0;1753876244.816858;15.739714;0.89;-1.72;0.06;-0.083981;-1.017512;-0.02343;0.0;0.0;142.9;0.0;0.0;33.3
2.0;1753876244.821454;15.721628;0.97;-1.71;0.13;-0.082863;-1.018151;-0.023618;0.0;0.0;143.0;0.0;0.0;31.0
2.0;1753876244.82605;15.719069;0.91;-1.7;0.07;-0.086622;-1.017658;-0.024808;0.0;0.0;137.4;0.0;0.0;34.6
2.0;1753876244.830646;15.738671;0.83;-1.65;-0.29;-0.082988;-1.017887;-0.024223;0.0;0.0;149.8;0.0;0.0;27.4
2.0;1753876244.835242;15.731481;0.9;-1.6;-0.8;-0.08912;-1.01785;-0.021209;0.0;0.0;139.2;0.0;0.0;28.1
2.0;1753876244.839838;15.72629;0.86;-1.69;-0.2;-0.084574;-1.019169;-0.024025;0.0;0.0;148.5;0.0;0.0;28.1
2.0;1753876244.844434;15.722761;0.88;-1.67;-0.26;-0.086672;-1.019353;-0.021035;0.0;0.0;140.1;0.0;0.0;28.9
2.0;1753876244.84863;15.726562;0.84;-1.68;-0.14;-0.086376;-1.019066;-0.023302;0.0;0.0;146.0;0.0;0.0;29.0
2.0;1753876244.853226;15.732952;0.8;-1.62;-0.85;-0.0806;-1.020455;-0.023718;0.0;0.0;141.3;0.0;0.0;30.4
2.0;1753876244.857822;15.734906;0.87;-1.65;0.19;-0.08542;-1.020497;-0.023154;0.0;0.0;142.9;0.0;0.0;29.1
2.0;1753876244.862418;15.739179;0.91;-1.72;-0.62;-0.090319;-1.01808;-0.023993;0.0;0.0;148.0;0.0;0.0;28.0
2.0;1753876244.867014;15.726272;0.86;-1.73;-0.35;-0.08803;-1.019815;-0.024348;0.0;0.0;130.7;0.0;0.0;27.9
2.0;1753876244.87161;15.726989;0.76;-1.62;-0.14;-0.088094;-1.01826;-0.022555;0.0;0.0;142.6;0.0;0.0;28.1
2.0;1753876244.876206;15.74182;0.84;-1.68;-0.02;-0.086755;-1.019155;-0.026892;0.0;0.0;149.4;0.0;0.0;29.4
2.0;1753876244.880802;15.719667;0.78;-1.59;-0.19;-0.084792;-1.019765;-0.019541;0.0;0.0;150.5;0.0;0.0;30.0
2.0;1753876244.885398;15.713979;0.91;-1.58;-0.14;-0.082745;-1.018357;-0.025153;0.0;0.0;162.5;0.0;0.0;27.5
2.0;1753876244.889994;15.72038;0.83;-1.68;-0.2;-0.080946;-1.019012;-0.025745;0.0;0.0;162.8;0.0;0.0;26.4
2.0;1753876244.89459;15.717932;0.86;-1.7;0.08;-0.085913;-1.018149;-0.025514;0.0;0.0;147.9;0.0;0.0;28.9
2.0;1753876244.899186;15.729405;0.83;-1.74;-0.17;-0.079379;-1.020085;-0.027719;0.0;0.0;162.2;0.0;0.0;26.8
2.0;1753876244.903782;15.717476;0.89;-1.66;0.16;-0.083935;-1.018175;-0.021119;0.0;0.0;162.4;0.0;0.0;25.9
2.0;1753876244.908378;15.730759;0.8;-1.64;-0.78;-0.088161;-1.019561;-0.020993;0.0;0.0;180.9;0.0;0.0;27.0
2.0;1753876244.912974;15.705715;0.81;-1.64;-0.42;-0.088101;-1.01947;-0.025039;0.0;0.0;146.4;0.0;0.0;26.4
2.0;1753876244.91757;15.715886;0.89;-1.8;-0.46;-0.095942;-1.020494;-0.021239;0.0;0.0;157.9;0.0;0.0;24.1
2.0;1753876244.922166;15.73403;0.88;-1.67;-0.68;-0.084646;-1.018768;-0.018092;0.0;0.0;172.3;0.0;0.0;27.2
2.0;1753876244.926762;15.727393;0.91;-1.68;-0.3;-0.082564;-1.018245;-0.027033;0.0;0.0;167.5;0.0;0.0;25.4
2.0;1753876244.931358;15.725378;0.86;-1.71;-0.75;-0.081711;-1.017607;-0.024689;0.0;0.0;169.3;0.0;0.0;26.2
2.0;1753876244.935954;15.727632;0.86;-1.7;-0.07;-0.082308;-1.02029;-0.023783;0.0;0.0;178.0;0.0;0.0;27.5
2.0;1753876244.94055;15.720814;0.94;-1.59;-0.59;-0.084326;-1.019501;-0.023257;0.0;0.0;166.4;0.0;0.0;22.2
2.0;1753876244.945146;15.726125;0.9;-1.64;0.01;-0.084238;-1.018153;-0.022423;0.0;0.0;164.0;0.0;0.0;25.5
2.0;1753876244.949742;15.719204;0.86;-1.67;-0.39;-0.082587;-1.01997;-0.02285;0.0;0.0;173.5;0.0;0.0;26.4
2.0;1753876244.954338;15.73437;0.88;-1.61;-0.27;-0.084549;-1.018711;-0.020692;0.0;0.0;173.2;0.0;0.0;23.4
2.0;1753876244.958934;15.724757;0.94;-1.7;-0.35;-0.083852;-1.019847;-0.021542;0.0;0.0;172.5;0.0;0.0;25.6
2.0;1753876244.96353;15.714596;0.85;-1.59;-0.14;-0.081397;-1.017309;-0.028014;0.0;0.0;181.8;0.0;0.0;26.2
2.0;1753876244.968126;15.728643;0.82;-1.75;-1.19;-0.092742;-1.020312;-0.023231;0.0;0.0;171.0;0.0;0.0;27.8
2.0;1753876244.972722;15.721991;0.9;-1.63;-0.16;-0.082724;-1.018993;-0.027379;0.0;0.0;189.6;0.0;0.0;22.3
2.0;1753876244.977318;15.739698;0.94;-1.58;-0.64;-0.084461;-1.019406;-0.023212;0.0;0.0;159.6;0.0;0.0;24.7
2.0;1753876244.981914;15.734397;0.9;-1.69;-0.08;-0.082862;-1.019911;-0.024947;0.0;0.0;177.0;0.0;0.0;23.0
2.0;1753876244.98651;15.72561;0.91;-1.64;0.27;-0.085855;-1.018314;-0.029118;0.0;0.0;181.2;0.0;0.0;24.3
2.0;1753876244.99292;15.726562;0.91;-1.68;-0.35;-0.08418;-1.018822;-0.023546;0.0;0.0;185.0;0.0;0.0;24.0
2.0;1753876244.995013;15.75;0.91;-1.61;-0.35;-0.081496;-1.018334;-0.02745;0.0;0.0;171.0;0.0;0.0;28.0
2.0;1753876244.999609;15.735708;0.94;-1.63;-0.39;-0.082609;-1.01863;-0.026821;74.9;0.0;170.7;22.4;0.0;26.7
2.0;1753876245.004205;15.72841;0.98;-1.64;-0.36;-0.080449;-1.018332;-0.026151;-177.3;0.0;165.8;-22.1;0.0;33.8
2.0;1753876245.008801;15.747148;0.92;-1.59;-0.29;-0.083294;-1.020016;-0.026907;49.5;0.0;175.4;19.0;0.0;30.5
2.0;1753876245.013397;15.739437;0.84;-1.64;-0.45;-0.080653;-1.018342;-0.027531;172.1;0.0;170.6;23.3;0.0;31.8
2.0;1753876245.017993;15.742371;0.83;-1.51;-0.3;-0.080147;-1.01842;-0.027413;-56.2;0.0;175.5;-9.5;0.0;29.5
2.0;1753876245.022589;15.783678;0.95;-1.61;-0.33;-0.080871;-1.019552;-0.026332;78.6;0.0;169.1;32.5;0.0;24.7
2.0;1753876245.027185;15.764558;0.88;-1.61;-0.37;-0.081306;-1.017928;-0.028269;-22.1;0.0;164.5;22.4;0.0;31.5
2.0;1753876245.031781;15.762395;0.79;-1.61;-0.38;-0.082211;-1.017264;-0.027604;175.6;0.0;168.1;17.7;0.0;31.4
2.0;1753876245.036377;15.738675;0.95;-1.8;-0.35;-0.081384;-1.019341;-0.028271;145.4;0.0;171.2;-17.9;0.0;29.1
2.0;1753876245.040973;15.74464;0.88;-1.63;-0.36;-0.081694;-1.017767;-0.027245;75.3;0.0;166.4;-1.3;0.0;28.9
2.0;1753876245.045569;15.71735;0.98;-1.68;-0.37;-0.08088;-1.018196;-0.028132;-66.9;0.0;171.5;11.3;0.0;27.0
2.0;1753876245.050165;15.7466;0.85;-1.7;-0.34;-0.08162;-1.017915;-0.026121;78.6;0.0;175.5;7.3;0.0;24.4
2.0;1753876245.054761;15.713869;0.95;-1.66;-0.44;-0.083293;-1.018852;-0.029;-51.1;0.0;170.1;8.3;0.0;28.0
2.0;1753876245.059357;15.740272;0.95;-1.49;-0.28;-0.081505;-1.01791;-0.027096;11.8;0.0;171.3;-24.5;0.0;29.0
2.0;1753876245.063953;15.744658;0.93;-1.63;-0.27;-0.081045;-1.01826;-0.026619;208.2;0.0;169.0;-25.2;0.0;26.3
2.0;1753876245.068549;15.770298;0.9;-1.67;-0.36;-0.082033;-1.017953;-0.02744;129.8;0.0;166.9;-3.5;0.0;24.5
2.0;1753876245.073145;15.734251;0.92;-1.73;-0.35;-0.081329;-1.016351;-0.027171;140.2;0.0;170.2;1.5;0.0;26.1
2.0;1753876245.077741;15.752363;0.83;-1.65;-0.38;-0.082442;-1.018743;-0.026893;148.0;0.0;170.6;-14.0;0.0;26.8
2.0;1753876245.082337;15.784918;0.9;-1.51;-0.35;-0.080893;-1.017417;-0.026073;-78.9;0.0;171.1;22.2;0.0;29.6
2.0;1753876245.086933;15.739155;0.94;-1.57;-0.45;-0.082323;-1.018976;-0.026458;-90.2;0.0;172.8;-11.0;0.0;28.5
2.0;1753876245.091529;15.744545;0.92;-1.53;-0.34;-0.080667;-1.017582;-0.027318;-43.0;0.0;173.3;-8.8;0.0;30.7
2.0;1753876245.096125;15.767225;0.87;-1.61;-0.3;-0.08244;-1.018706;-0.028504;143.7;0.0;170.9;29.9;0.0;27.2
2.0;1753876245.100721;15.751313;0.92;-1.61;-0.32;-0.081617;-1.017819;-0.027194;-259.6;0.0;169.5;-26.3;0.0;34.4
2.0;1753876245.105317;15.751678;0.92;-1.57;-0.28;-0.081913;-1.018337;-0.028079;119.1;0.0;167.4;-13.9;0.0;29.4
2.0;1753876245.109913;15.749208;0.92;-1.53;-0.25;-0.080716;-1.019003;-0.028409;-32.2;0.0;168.2;8.1;0.0;29.5
2.0;1753876245.114509;15.753126;0.9;-1.58;-0.31;-0.080766;-1.016338;-0.027659;-29.1;0.0;171.4;-24.2;0.0;25.9
2.0;1753876245.119105;15.739693;0.93;-1.65;-0.33;-0.082141;-1.018708;-0.026905;-87.9;0.0;172.0;4.5;0.0;26.1
2.0;1753876245.123701;15.76151;0.9;-1.62;-0.36;-0.081895;-1.01781;-0.025891;19.5;0.0;171.3;7.7;0.0;24.5
2.0;1753876245.128297;15.75521;0.92;-1.66;-0.26;-0.081037;-1.018976;-0.02482;-33.3;0.0;171.6;5.9;0.0;26.3
2.0;1753876245.132893;15.736187;0.99;-1.57;-0.28;-0.082507;-1.018961;-0.02661;98.9;0.0;168.8;-67.1;0.0;27.3
2.0;1753876245.137489;15.752915;0.89;-1.66;-0.3;-0.080778;-1.017679;-0.027022;10.9;0.0;170.4;-18.0;0.0;34.8
2.0;1753876245.142085;15.764387;0.9;-1.72;-0.38;-0.082523;-1.01876;-0.024601;6.3;0.0;171.8;-12.5;0.0;29.7
2.0;1753876245.146681;15.744081;0.86;-1.59;-0.39;-0.08215;-1.019178;-0.028801;-148.2;0.0;174.3;-9.6;0.0;32.7
2.0;1753876245.151277;15.793764;0.9;-1.7;-0.44;-0.081657;-1.018738;-0.02631;124.9;0.0;172.6;1.5;0.0;26.6
2.0;1753876245.155873;15.784618;1.0;-1.58;-0.36;-0.083078;-1.017507;-0.026757;85.6;0.0;172.7;-8.8;0.0;26.4
2.0;1753876245.160469;15.740746;0.88;-1.66;-0.37;-0.083309;-1.017264;-0.026256;128.1;0.0;173.2;-4.9;0.0;25.5
2.0;1753876245.165065;15.716266;0.94;-1.67;-0.34;-0.083315;-1.018992;-0.02612;137.7;0.0;172.6;-19.1;0.0;30.9
2.0;1753876245.169661;15.762822;0.99;-1.53;-0.38;-0.082333;-1.017954;-0.026595;-54.8;0.0;170.5;9.1;0.0;31.2
2.0;1753876245.174257;15.764548;0.81;-1.8;-0.39;-0.082376;-1.018351;-0.026466;34.0;0.0;168.8;-16.0;0.0;29.2
2.0;1753876245.178853;15.736352;0.9;-1.58;-0.3;-0.081852;-1.01891;-0.026983;33.4;0.0;171.7;-25.0;0.0;28.7
2.0;1753876245.183449;15.776788;0.82;-1.68;-0.47;-0.082487;-1.018257;-0.026534;-60.5;0.0;171.2;28.1;0.0;31.3
2.0;1753876245.188045;15.76488;0.87;-1.71;-0.28;-0.081354;-1.018524;-0.026536;40.4;0.0;167.7;1.6;0.0;21.6
2.0;1753876245.192641;15.735123;0.9;-1.7;-0.29;-0.082737;-1.018097;-0.027016;-88.2;0.0;172.3;-28.8;0.0;31.0
2.0;1753876245.197237;15.769803;0.84;-1.62;-0.37;-0.081948;-1.018804;-0.027186;32.8;0.0;173.3;-30.2;0.0;26.8
2.0;1753876245.201833;15.731594;0.91;-1.58;-0.41;-0.080971;-1.018746;-0.026398;-137.6;0.0;171.6;-7.6;0.0;29.9
2.0;1753876245.206429;15.744772;0.89;-1.6;-0.36;-0.081295;-1.018031;-0.027134;84.9;0.0;177.5;-42.2;0.0;30.4
2.0;1753876245.211025;15.73203;0.86;-1.57;-0.32;-0.081398;-1.019056;-0.026395;-6.7;0.0;170.4;24.1;0.0;24.2
2.0;1753876245.215621;15.733121;0.95;-1.7;-0.23;-0.08097;-1.01872;-0.026828;243.2;0.0;169.8;-16.2;0.0;33.4
2.0;1753876245.220217;15.744358;0.9;-1.61;-0.33;-0.080825;-1.019415;-0.026337;-20.0;0.0;168.0;21.0;0.0;22.6
2.0;1753876245.224813;15.760377;0.86;-1.68;-0.34;-0.082798;-1.020226;-0.026388;-159.7;0.0;174.3;8.1;0.0;29.2
2.0;1753876245.229409;15.74723;0.91;-1.64;-0.38;-0.083043;-1.018455;-0.026871;-148.4;0.0;172.2;-43.3;0.0;26.3
2.0;1753876245.234005;15.727511;0.87;-1.6;-0.4;-0.080802;-1.018677;-0.026374;-200.7;0.0;168.0;-7.0;0.0;24.6
2.0;1753876245.238601;15.735998;0.87;-1.58;-0.37;-0.080395;-1.01868;-0.027731;87.6;0.0;167.7;36.1;0.0;29.9
2.0;1753876245.243197;15.753186;0.96;-1.64;-0.37;-0.081465;-1.018749;-0.026646;45.2;0.0;170.3;1.7;0.0;22.6
2.0;1753876245.247793;15.723619;1.02;-1.61;-0.36;-0.079081;-1.018968;-0.026368;-74.0;0.0;171.5;39.2;0.0;30.3
2.0;1753876245.252389;15.765238;0.89;-1.68;-0.39;-0.081355;-1.018574;-0.026083;43.1;0.0;167.1;6.3;0.0;22.7
2.0;1753876245.256985;15.77122;0.88;-1.71;-0.37;-0.081914;-1.018405;-0.024183;-22.5;0.0;172.4;1.7;0.0;28.3
2.0;1753876245.261581;15.744161;0.85;-1.61;-0.32;-0.081766;-1.019079;-0.026091;-218.8;0.0;168.2;23.5;0.0;25.0
2.0;1753876245.266177;15.726756;1.01;-1.66;-0.32;-0.082399;-1.018792;-0.025912;-5.7;0.0;170.8;-26.1;0.0;29.6
2.0;1753876245.270773;15.742825;0.94;-1.7;-0.37;-0.080238;-1.018079;-0.025292;-137.7;0.0;169.6;-9.0;0.0;22.8
2.0;1753876245.275369;15.755388;0.87;-1.71;-0.35;-0.080075;-1.018379;-0.026411;103.7;0.0;170.1;38.1;0.0;32.8
2.0;1753876245.279965;15.722919;0.92;-1.69;-0.39;-0.081506;-1.017601;-0.025921;-25.4;0.0;170.1;-28.8;0.0;32.6
2.0;1753876245.284561;15.751851;0.95;-1.57;-0.28;-0.082101;-1.016895;-0.026707;-158.7;0.0;170.1;-1.7;0.0;27.1
2.0;1753876245.289157;15.726161;0.95;-1.66;-0.33;-0.080227;-1.018164;-0.025279;-150.1;0.0;171.3;4.9;0.0;27.0
2.0;1753876245.293753;15.763741;0.9;-1.78;-0.35;-0.080558;-1.017629;-0.025849;74.5;0.0;170.1;12.2;0.0;31.5
2.0;1753876245.298349;15.750253;0.91;-1.66;-0.33;-0.081397;-1.018057;-0.026938;-105.9;0.0;174.6;-16.7;0.0;31.2
2.0;1753876245.302945;15.756517;0.92;-1.76;-0.38;-0.081367;-1.018311;-0.026145;113.7;0.0;167.8;3.0;0.0;31.6
2.0;1753876245.307541;15.728311;0.89;-1.69;-0.37;-0.082078;-1.017851;-0.02588;4.7;0.0;166.5;19.4;0.0;20.1
2.0;1753876245.312137;15.75183;0.92;-1.74;-0.32;-0.083656;-1.017566;-0.027261;-31.3;0.0;173.5;-9.5;0.0;25.6
2.0;1753876245.316733;15.718716;1.03;-1.52;-0.39;-0.08306;-1.017268;-0.026814;-72.9;0.0;171.8;52.5;0.0;25.3
2.0;1753876245.321329;15.732863;0.87;-1.59;-0.31;-0.081971;-1.017724;-0.025501;-91.7;0.0;169.1;-27.3;0.0;30.7
2.0;1753876245.325925;15.735274;0.87;-1.69;-0.31;-0.080204;-1.018338;-0.026067;-121.7;0.0;172.3;-17.7;0.0;27.6
2.0;1753876245.330521;15.767107;0.93;-1.67;-0.42;-0.079887;-1.017847;-0.025902;156.0;0.0;171.1;-6.8;0.0;31.4
2.0;1753876245.335116;15.735008;0.93;-1.62;-0.33;-0.082129;-1.017893;-0.025847;-183.3;0.0;165.9;-27.7;0.0;26.2
2.0;1753876245.339712;15.751566;0.94;-1.69;-0.3;-0.081068;-1.018581;-0.025693;123.3;0.0;172.1;-0.1;0.0;29.2
2.0;1753876245.344308;15.719285;0.9;-1.61;-0.24;-0.080124;-1.017677;-0.0254;-59.9;0.0;170.0;0.9;0.0;26.8
2.0;1753876245.348904;15.76062;0.89;-1.66;-0.33;-0.080955;-1.01817;-0.026953;130.2;0.0;169.1;-5.4;0.0;26.9
2.0;1753876245.3535;15.749058;0.92;-1.69;-0.31;-0.081077;-1.018979;-0.024803;39.0;0.0;168.8;27.5;0.0;30.0
2.0;1753876245.358096;15.746838;0.92;-1.7;-0.33;-0.081792;-1.017682;-0.025912;19.9;0.0;169.8;27.7;0.0;25.5
2.0;1753876245.362692;15.739375;0.87;-1.49;-0.38;-0.079301;-1.018088;-0.025652;-144.6;0.0;168.2;-10.6;0.0;29.5
2.0;1753876245.367288;15.741811;0.88;-1.59;-0.4;-0.080358;-1.018604;-0.024541;90.3;0.0;168.4;4.1;0.0;27.2
2.0;1753876245.371884;15.745755;0.91;-1.7;-0.31;-0.081745;-1.018849;-0.025745;-142.6;0.0;171.2;-20.7;0.0;28.0
2.0;1753876245.37648;15.732381;0.89;-1.72;-0.41;-0.079687;-1.017665;-0.025885;111.8;0.0;168.0;18.4;0.0;29.6
2.0;1753876245.381076;15.740846;0.88;-1.7;-0.29;-0.081187;-1.018109;-0.026896;123.9;0.0;170.3;-0.3;0.0;31.3
2.0;1753876245.385672;15.715219;0.95;-1.65;-0.36;-0.079306;-1.017904;-0.024793;56.5;0.0;172.2;-3.7;0.0;30.1
2.0;1753876245.390268;15.761054;0.83;-1.68;-0.39;-0.079934;-1.018545;-0.025332;43.8;0.0;172.4;1.0;0.0;30.3
2.0;1753876245.394864;15.734255;0.88;-1.66;-0.31;-0.08224;-1.018788;-0.026641;135.1;0.0;167.8;18.1;0.0;28.5
2.0;1753876245.39946;15.764596;0.89;-1.73;-0.32;-0.082217;-1.019695;-0.024729;81.4;0.0;165.9;-13.6;0.0;28.3
2.0;1753876245.404056;15.756718;0.95;-1.54;-0.36;-0.079247;-1.018731;-0.025505;-144.2;0.0;171.6;27.0;0.0;31.9
2.0;1753876245.408652;15.752947;0.88;-1.69;-0.39;-0.080645;-1.018153;-0.025652;79.6;0.0;169.7;-28.0;0.0;23.2
2.0;1753876245.413248;15.754152;0.85;-1.69;-0.35;-0.081561;-1.017391;-0.024839;22.8;0.0;176.4;-37.6;0.0;29.7
2.0;1753876245.417844;15.757395;0.94;-1.78;-0.3;-0.08025;-1.017476;-0.024998;-25.6;0.0;173.2;-31.2;0.0;26.5
2.0;1753876245.42244;15.757961;0.96;-1.57;-0.41;-0.081273;-1.017736;-0.026234;35.0;0.0;169.6;34.3;0.0;32.2
2.0;1753876245.427036;15.7596;0.97;-1.65;-0.28;-0.079595;-1.018658;-0.025606;-164.3;0.0;169.7;-2.6;0.0;27.0
2.0;1753876245.431632;15.760903;0.93;-1.63;-0.34;-0.082616;-1.018566;-0.024712;-162.1;0.0;168.7;-7.4;0.0;25.2
2.0;1753876245.436228;15.736676;0.93;-1.65;-0.44;-0.081259;-1.017697;-0.025018;36.1;0.0;172.3;27.1;0.0;30.9
2.0;1753876245.440824;15.782264;0.89;-1.69;-0.39;-0.081044;-1.017338;-0.026387;85.8;0.0;171.4;8.1;0.0;27.1
2.0;1753876245.44542;15.737999;0.93;-1.75;-0.36;-0.080473;-1.01877;-0.025196;-55.6;0.0;170.1;-3.1;0.0;32.8
2.0;1753876245.450016;15.740991;0.99;-1.8;-0.36;-0.08148;-1.018611;-0.025894;114.2;0.0;170.1;19.3;0.0;19.1
2.0;1753876245.454612;15.704932;0.99;-1.5;-0.32;-0.080042;-1.017892;-0.025429;-56.7;0.0;169.1;-3.9;0.0;27.6
2.0;1753876245.459208;15.747945;0.95;-1.62;-0.32;-0.080979;-1.018727;-0.026133;14.4;0.0;170.9;-7.5;0.0;28.6
2.0;1753876245.463804;15.727193;0.96;-1.64;-0.37;-0.082501;-1.017345;-0.023899;108.0;0.0;174.3;-22.7;0.0;23.6
2.0;1753876245.4684;15.73435;0.83;-1.61;-0.35;-0.081203;-1.01787;-0.026458;67.1;0.0;173.2;-21.1;0.0;30.5
2.0;1753876245.472996;15.744086;0.89;-1.65;-0.33;-0.082048;-1.019471;-0.024877;149.8;0.0;172.4;9.9;0.0;24.2
2.0;1753876245.477592;15.730093;0.95;-1.74;-0.34;-0.081551;-1.017838;-0.025895;74.1;0.0;170.7;25.2;0.0;26.9
2.0;1753876245.482188;15.713416;0.84;-1.63;-0.38;-0.082318;-1.017117;-0.024885;-114.5;0.0;169.5;11.9;0.0;27.7
2.0;1753876245.487;15.742188;0.91;-1.68;-0.35;-0.081252;-1.01809;-0.02501;0.0;0.0;171.0;0.0;0.0;28.0
2.0;1753876245.491596;15.743472;0.92;-1.74;-0.25;-0.081346;-1.017102;-0.025621;-127.4;0.0;169.7;37.6;0.0;25.1
2.0;1753876245.496192;15.751441;0.9;-1.74;-0.38;-0.081784;-1.018755;-0.023999;31.7;0.0;171.8;15.8;0.0;33.9
2.0;1753876245.500788;15.758271;0.83;-1.7;-0.32;-0.081003;-1.018025;-0.02408;-55.9;0.0;176.2;2.3;0.0;29.6
2.0;1753876245.505384;15.750989;0.85;-1.72;-0.41;-0.079942;-1.018877;-0.025476;323.3;0.0;169.5;-4.0;0.0;25.3
2.0;1753876245.50998;15.741713;0.91;-1.65;-0.38;-0.083289;-1.017877;-0.02549;-50.3;0.0;163.3;-6.4;0.0;24.4
2.0;1753876245.514576;15.760487;0.86;-1.71;-0.3;-0.081143;-1.01859;-0.024259;-4.0;0.0;166.0;1.1;0.0;30.0
2.0;1753876245.519172;15.774993;0.91;-1.63;-0.37;-0.082423;-1.017584;-0.024102;63.8;0.0;178.6;13.6;0.0;26.0
2.0;1753876245.523768;15.732507;0.86;-1.7;-0.36;-0.080957;-1.019078;-0.02499;30.5;0.0;172.9;-18.0;0.0;25.0
2.0;1753876245.528364;15.758077;0.85;-1.67;-0.29;-0.081985;-1.018937;-0.025423;-118.6;0.0;170.4;-28.3;0.0;27.1
2.0;1753876245.53296;15.709587;0.88;-1.7;-0.38;-0.081349;-1.018943;-0.025723;76.5;0.0;172.1;7.5;0.0;30.8
2.0;1753876245.537556;15.741618;0.88;-1.7;-0.4;-0.08223;-1.01733;-0.025525;-61.9;0.0;169.7;26.0;0.0;32.9
2.0;1753876245.542152;15.76559;0.91;-1.77;-0.3;-0.081284;-1.017797;-0.025901;49.9;0.0;168.2;0.8;0.0;23.6
2.0;1753876245.546748;15.730022;0.86;-1.75;-0.41;-0.082778;-1.01773;-0.025446;-105.2;0.0;173.4;8.3;0.0;28.9
2.0;1753876245.551344;15.739031;0.97;-1.67;-0.27;-0.08299;-1.018779;-0.02483;52.6;0.0;173.8;14.0;0.0;26.1
2.0;1753876245.55594;15.758981;0.9;-1.6;-0.38;-0.081047;-1.017791;-0.024665;140.4;0.0;171.0;-5.4;0.0;28.9
2.0;1753876245.560536;15.745998;0.92;-1.69;-0.31;-0.081111;-1.017029;-0.024954;-117.8;0.0;169.6;-5.2;0.0;29.0
2.0;1753876245.565132;15.753695;0.9;-1.67;-0.38;-0.080048;-1.017832;-0.02343;141.7;0.0;168.4;21.1;0.0;23.0
2.0;1753876245.569728;15.740463;0.9;-1.69;-0.28;-0.080679;-1.018213;-0.025539;103.1;0.0;176.7;-15.7;0.0;29.6
2.0;1753876245.574324;15.73477;0.92;-1.69;-0.32;-0.082073;-1.017901;-0.024097;77.0;0.0;172.1;3.9;0.0;29.2
2.0;1753876245.57892;15.739511;0.93;-1.63;-0.33;-0.08104;-1.017761;-0.024857;-110.6;0.0;172.9;23.6;0.0;28.0
2.0;1753876245.583516;15.73509;0.9;-1.66;-0.32;-0.080582;-1.01765;-0.026178;-0.1;0.0;167.0;-24.1;0.0;28.3
2.0;1753876245.588112;15.733453;0.93;-1.67;-0.36;-0.079058;-1.017786;-0.023477;-19.9;0.0;170.1;22.0;0.0;26.2
2.0;1753876245.592708;15.765425;0.93;-1.73;-0.4;-0.081917;-1.017253;-0.024885;-57.6;0.0;171.8;11.6;0.0;30.3
2.0;1753876245.597304;15.77286;0.86;-1.68;-0.33;-0.080456;-1.017184;-0.025131;-98.2;0.0;168.8;20.1;0.0;35.9
2.0;1753876245.6019;15.738432;0.94;-1.47;-0.37;-0.081769;-1.01828;-0.025907;-0.1;0.0;173.7;18.5;0.0;24.8
2.0;1753876245.606496;15.756968;0.92;-1.75;-0.34;-0.082169;-1.019082;-0.025186;48.7;0.0;169.7;33.7;0.0;29.9
2.0;1753876245.611092;15.730202;0.82;-1.82;-0.38;-0.082818;-1.017995;-0.024346;-60.8;0.0;168.0;6.8;0.0;26.1
2.0;1753876245.615688;15.754001;0.9;-1.79;-0.32;-0.082212;-1.018048;-0.02496;-101.0;0.0;173.0;12.1;0.0;26.7
2.0;1753876245.620284;15.742737;0.83;-1.62;-0.24;-0.080147;-1.017642;-0.02581;164.0;0.0;173.0;23.8;0.0;28.6
2.0;1753876245.62488;15.730194;0.87;-1.62;-0.29;-0.080577;-1.018663;-0.025576;160.6;0.0;171.5;6.6;0.0;28.3
2.0;1753876245.629476;15.763021;0.97;-1.64;-0.35;-0.079623;-1.018135;-0.025572;149.8;0.0;176.7;-9.3;0.0;34.7
2.0;1753876245.634072;15.746756;0.88;-1.68;-0.33;-0.079664;-1.019279;-0.024765;-141.4;0.0;166.0;5.9;0.0;30.7
2.0;1753876245.638668;15.727438;0.93;-1.67;-0.32;-0.08095;-1.017066;-0.026701;-100.0;0.0;168.7;-2.0;0.0;29.4
2.0;1753876245.643264;15.765015;0.85;-1.54;-0.29;-0.080478;-1.019067;-0.0265;20.0;0.0;169.7;3.1;0.0;24.4
2.0;1753876245.64786;15.731564;0.9;-1.63;-0.33;-0.080858;-1.01898;-0.024656;-46.2;0.0;171.4;-41.8;0.0;26.5
2.0;1753876245.652456;15.753211;0.91;-1.81;-0.34;-0.081509;-1.018386;-0.024763;-69.9;0.0;173.7;-5.0;0.0;26.8
2.0;1753876245.657052;15.721248;0.88;-1.71;-0.36;-0.082655;-1.017139;-0.024082;-63.9;0.0;167.1;24.3;0.0;29.1
2.0;1753876245.661648;15.739169;0.89;-1.57;-0.25;-0.080701;-1.017529;-0.024682;131.7;0.0;164.3;35.2;0.0;25.6
2.0;1753876245.666244;15.75032;0.92;-1.76;-0.29;-0.081653;-1.016841;-0.026134;-125.0;0.0;171.3;20.9;0.0;29.1
2.0;1753876245.67084;15.758671;0.94;-1.64;-0.31;-0.081763;-1.018937;-0.024621;52.9;0.0;174.4;-6.1;0.0;30.0
2.0;1753876245.675436;15.730983;0.93;-1.71;-0.23;-0.083459;-1.018026;-0.024995;-108.8;0.0;167.7;1.4;0.0;24.9
2.0;1753876245.680032;15.758466;0.87;-1.7;-0.3;-0.081442;-1.017502;-0.024663;249.4;0.0;167.5;-14.3;0.0;27.7
2.0;1753876245.684628;15.729651;0.87;-1.74;-0.34;-0.083138;-1.018106;-0.02477;-106.8;0.0;172.3;22.9;0.0;24.3
2.0;1753876245.689224;15.743555;0.79;-1.78;-0.38;-0.080252;-1.017284;-0.023946;-47.4;0.0;169.7;9.5;0.0;32.1
2.0;1753876245.69382;15.732364;0.88;-1.67;-0.28;-0.082247;-1.017272;-0.023913;-32.2;0.0;169.5;6.2;0.0;32.3
2.0;1753876245.698416;15.744836;0.81;-1.67;-0.23;-0.082432;-1.017768;-0.024601;-46.5;0.0;173.5;40.1;0.0;22.4
2.0;1753876245.703012;15.72281;0.83;-1.67;-0.29;-0.080529;-1.018534;-0.024963;-131.0;0.0;166.9;-13.1;0.0;28.3
2.0;1753876245.707608;15.741689;0.88;-1.71;-0.25;-0.081268;-1.018505;-0.026772;53.6;0.0;175.5;-29.7;0.0;29.0
2.0;1753876245.712204;15.771344;0.9;-1.79;-0.23;-0.080781;-1.0182;-0.024889;-10.5;0.0;168.4;14.2;0.0;30.1
2.0;1753876245.7168;15.743518;0.89;-1.65;-0.34;-0.082159;-1.018203;-0.026245;-21.2;0.0;167.8;12.3;0.0;25.0
2.0;1753876245.721396;15.750823;0.86;-1.67;-0.23;-0.083274;-1.017653;-0.024243;-101.9;0.0;168.4;-36.2;0.0;28.3
2.0;1753876245.725992;15.743241;0.88;-1.66;-0.28;-0.082159;-1.018183;-0.026289;-20.4;0.0;169.1;4.6;0.0;26.0
2.0;1753876245.730588;15.746858;0.87;-1.71;-0.33;-0.080494;-1.018291;-0.02585;-90.0;0.0;164.7;0.2;0.0;24.9
2.0;1753876245.735184;15.704725;0.87;-1.66;-0.26;-0.082028;-1.018075;-0.025184;-128.6;0.0;172.6;-14.6;0.0;24.0
2.0;1753876245.73978;15.738467;0.82;-1.75;-0.28;-0.082231;-1.017927;-0.026006;-55.4;0.0;174.1;-35.5;0.0;28.1
2.0;1753876245.744376;15.742336;0.93;-1.73;-0.31;-0.083521;-1.019094;-0.02554;-27.0;0.0;172.3;-0.7;0.0;28.1
2.0;1753876245.748972;15.739307;0.85;-1.7;-0.27;-0.083638;-1.017908;-0.025307;-50.1;0.0;169.4;22.0;0.0;30.9
2.0;1753876245.753568;15.732133;0.82;-1.68;-0.23;-0.07981;-1.017845;-0.025661;28.8;0.0;173.3;-7.2;0.0;26.6
2.0;1753876245.758164;15.74145;0.85;-1.81;-0.29;-0.0836;-1.017583;-0.024775;-119.2;0.0;170.4;-10.8;0.0;30.2
2.0;1753876245.76276;15.750963;0.77;-1.71;-0.34;-0.082169;-1.017186;-0.023979;58.5;0.0;169.7;2.5;0.0;27.1
2.0;1753876245.767356;15.744826;0.98;-1.61;-0.3;-0.084278;-1.017819;-0.025327;-46.6;0.0;170.3;3.2;0.0;28.7
2.0;1753876245.771952;15.720575;0.9;-1.67;-0.3;-0.081072;-1.018218;-0.027062;-2.9;0.0;169.9;-16.7;0.0;23.7
2.0;1753876245.776548;15.764713;0.8;-1.68;-0.25;-0.082808;-1.017847;-0.024208;-5.0;0.0;172.2;-15.6;0.0;26.2
2.0;1753876245.781144;15.746798;0.84;-1.71;-0.32;-0.082192;-1.018147;-0.026172;208.9;0.0;170.2;30.9;0.0;29.5
2.0;1753876245.78574;15.773219;0.85;-1.55;-0.29;-0.082104;-1.017013;-0.024236;-48.1;0.0;176.6;28.1;0.0;29.7
2.0;1753876245.790336;15.737884;0.88;-1.64;-0.26;-0.082006;-1.0173;-0.023406;-52.7;0.0;170.9;3.0;0.0;28.6
2.0;1753876245.794932;15.756202;0.95;-1.73;-0.28;-0.083148;-1.018733;-0.024076;24.7;0.0;168.3;-7.7;0.0;25.0
2.0;1753876245.799528;15.741533;0.88;-1.67;-0.33;-0.082293;-1.018875;-0.025154;-13.3;0.0;169.3;9.0;0.0;29.0
2.0;1753876245.804124;15.746313;0.9;-1.72;-0.21;-0.082381;-1.017285;-0.025377;-11.9;0.0;169.7;22.3;0.0;25.2
2.0;1753876245.80872;15.716526;0.89;-1.68;-0.31;-0.083045;-1.018006;-0.024322;35.7;0.0;173.6;-3.4;0.0;28.1
2.0;1753876245.813316;15.733211;0.78;-1.7;-0.28;-0.082126;-1.016677;-0.025905;39.7;0.0;170.1;10.4;0.0;32.9
2.0;1753876245.817912;15.733903;0.81;-1.72;-0.3;-0.080533;-1.018128;-0.025001;137.3;0.0;172.1;24.2;0.0;27.9
2.0;1753876245.822508;15.750854;0.79;-1.73;-0.33;-0.082685;-1.018675;-0.02475;126.4;0.0;173.5;-37.1;0.0;25.8
2.0;1753876245.827104;15.713868;0.88;-1.67;-0.21;-0.079561;-1.017883;-0.025513;-122.6;0.0;170.7;-29.0;0.0;28.0
2.0;1753876245.8317;15.747294;0.83;-1.66;-0.28;-0.08188;-1.018168;-0.025803;138.0;0.0;170.6;24.5;0.0;24.1
2.0;1753876245.836296;15.720155;0.82;-1.65;-0.35;-0.082135;-1.018495;-0.024902;-58.5;0.0;166.9;-4.7;0.0;25.4
2.0;1753876245.840892;15.735199;0.87;-1.72;-0.29;-0.083799;-1.017952;-0.024443;-99.9;0.0;171.7;1.2;0.0;27.2
2.0;1753876245.845488;15.737137;0.88;-1.66;-0.31;-0.08177;-1.018142;-0.024991;-31.1;0.0;173.2;6.2;0.0;28.6
2.0;1753876245.850084;15.74485;0.96;-1.66;-0.23;-0.083887;-1.016612;-0.02516;-93.0;0.0;174.6;21.4;0.0;29.3
2.0;1753876245.85468;15.737958;0.87;-1.67;-0.33;-0.082439;-1.018235;-0.024012;244.6;0.0;167.5;1.0;0.0;28.5
2.0;1753876245.859276;15.742978;0.94;-1.6;-0.31;-0.080637;-1.019122;-0.023979;-147.2;0.0;175.9;-12.3;0.0;24.0
2.0;1753876245.863872;15.758972;0.89;-1.69;-0.36;-0.080279;-1.0173;-0.026058;-72.5;0.0;173.3;-8.2;0.0;28.4
2.0;1753876245.868468;15.731241;0.85;-1.7;-0.33;-0.081688;-1.017169;-0.025636;144.9;0.0;177.4;2.0;0.0;27.7
2.0;1753876245.8766;15.742188;0.84;-1.68;-0.28;-0.081862;-1.017602;-0.025132;0.0;0.0;171.0;0.0;0.0;28.0
2.0;1753876245.881196;15.737662;0.81;-1.71;-0.26;-0.082814;-1.017278;-0.025163;0.0;0.0;189.3;0.0;0.0;27.1
2.0;1753876245.885792;15.740082;0.71;-1.64;-0.32;-0.083501;-1.017855;-0.025403;0.0;0.0;168.4;0.0;0.0;30.2
2.0;1753876245.890388;15.747935;0.84;-1.69;-0.27;-0.081447;-1.016696;-0.02344;0.0;0.0;159.5;0.0;0.0;27.0
2.0;1753876245.894984;15.730227;0.83;-1.65;-0.32;-0.083528;-1.018075;-0.025502;0.0;0.0;149.0;0.0;0.0;29.9
2.0;1753876245.89958;15.735076;0.94;-1.63;-0.36;-0.08134;-1.016149;-0.025287;0.0;0.0;137.8;0.0;0.0;32.6
2.0;1753876245.904176;15.737207;0.93;-1.63;-0.38;-0.082307;-1.017609;-0.026113;0.0;0.0;171.1;0.0;0.0;34.1
2.0;1753876245.91103;15.734375;0.91;-1.61;-0.35;-0.082716;-1.01748;-0.025254;0.0;0.0;159.0;0.0;0.0;30.0
2.0;1753876245.915626;15.73268;0.98;-1.63;-0.37;-0.083377;-1.017622;-0.02436;0.0;0.0;151.5;0.0;0.0;31.3
2.0;1753876245.920222;15.730995;0.92;-1.63;-0.38;-0.083003;-1.017976;-0.026064;0.0;0.0;157.1;0.0;0.0;27.6
2.0;1753876245.924818;15.735279;0.91;-1.58;-0.45;-0.082527;-1.017341;-0.025522;0.0;0.0;134.5;0.0;0.0;29.1
2.0;1753876245.929414;15.726243;0.87;-1.64;-0.39;-0.081275;-1.017906;-0.025252;0.0;0.0;162.6;0.0;0.0;30.8
2.0;1753876245.93401;15.730768;0.95;-1.58;-0.37;-0.081812;-1.017252;-0.025942;0.0;0.0;149.7;0.0;0.0;28.1
2.0;1753876245.938606;15.741597;0.88;-1.64;-0.36;-0.081859;-1.017602;-0.026647;0.0;0.0;161.5;0.0;0.0;31.3
2.0;1753876245.943202;15.732942;0.85;-1.62;-0.37;-0.081683;-1.018465;-0.028017;0.0;0.0;168.8;0.0;0.0;30.6
2.0;1753876245.947798;15.734667;0.82;-1.66;-0.48;-0.080999;-1.017657;-0.025705;0.0;0.0;119.8;0.0;0.0;33.8
2.0;1753876245.95644;15.734375;0.84;-1.68;-0.42;-0.081252;-1.018212;-0.02745;0.0;0.0;159.0;0.0;0.0;30.0
2.0;1753876245.961036;15.769441;0.91;-1.67;-0.41;-0.083057;-1.017438;-0.02589;0.0;0.0;153.9;0.0;0.0;29.9
2.0;1753876245.966638;15.78125;0.91;-1.61;-0.42;-0.082594;-1.017724;-0.02623;0.0;0.0;164.0;0.0;0.0;30.0
2.0;1753876245.969251;15.792969;0.91;-1.61;-0.28;-0.082594;-1.017724;-0.02623;0.0;0.0;164.0;0.0;0.0;30.0
2.0;1753876245.973844;15.792969;0.98;-1.68;-0.28;-0.08235;-1.017846;-0.026474;0.0;0.0;164.0;0.0;0.0;30.0
2.0;1753876245.978425;15.792969;0.91;-1.68;-0.35;-0.081618;-1.01748;-0.025254;0.0;0.0;164.0;0.0;0.0;30.0
2.0;1753876245.982992;15.792969;0.84;-1.68;-0.35;-0.08357;-1.01931;-0.025986;0.0;0.0;164.0;0.0;0.0;30.0
2.0;1753876245.98838;15.804688;0.84;-1.68;-0.35;-0.081984;-1.017114;-0.025986;0.0;0.0;164.0;0.0;0.0;30.0
2.0;1753876245.992447;15.804688;0.84;-1.61;-0.35;-0.082838;-1.017236;-0.025376;0.0;0.0;164.0;0.0;0.0;30.0
2.0;1753876245.997063;15.804688;0.98;-1.68;-0.35;-0.081496;-1.01687;-0.027328;0.0;0.0;164.0;0.0;0.0;30.0
2.0;1753876246.001659;15.810434;1.06;-1.78;-0.34;-0.080334;-1.017279;-0.027144;0.0;0.0;160.2;0.0;0.0;29.1
2.0;1753876246.006255;15.774573;0.88;-1.7;-0.31;-0.082508;-1.017688;-0.026605;0.0;0.0;165.3;0.0;0.0;30.8
2.0;1753876246.010851;15.783719;1.04;-1.68;-0.36;-0.079925;-1.016139;-0.026586;0.0;0.0;156.9;0.0;0.0;29.9
2.0;1753876246.015447;15.820906;1.03;-1.58;-0.28;-0.082169;-1.01726;-0.027109;0.0;0.0;162.9;0.0;0.0;29.7
2.0;1753876246.020043;15.802661;0.89;-1.67;-0.39;-0.079787;-1.01604;-0.027783;0.0;0.0;165.9;0.0;0.0;29.5
2.0;1753876246.024639;15.795208;0.93;-1.81;-0.32;-0.080891;-1.01607;-0.027626;0.0;0.0;164.5;0.0;0.0;29.7
2.0;1753876246.029235;15.821158;0.88;-1.84;-0.39;-0.081427;-1.016641;-0.027109;0.0;0.0;164.3;0.0;0.0;29.8
2.0;1753876246.033831;15.794869;0.91;-1.73;-0.31;-0.082075;-1.016109;-0.026623;0.0;0.0;162.8;0.0;0.0;29.8
2.0;1753876246.038427;15.801175;0.96;-1.69;-0.41;-0.079577;-1.016352;-0.026428;0.0;0.0;159.1;0.0;0.0;30.4
2.0;1753876246.043023;15.822295;0.93;-1.66;-0.28;-0.0811;-1.016498;-0.027954;0.0;0.0;166.8;0.0;0.0;30.8
2.0;1753876246.047619;15.85028;0.82;-1.7;-0.27;-0.080441;-1.017682;-0.027427;0.0;0.0;160.7;0.0;0.0;29.6
2.0;1753876246.052215;15.797058;0.96;-1.73;-0.45;-0.081799;-1.016224;-0.027104;0.0;0.0;166.1;0.0;0.0;30.7
2.0;1753876246.056811;15.804313;0.94;-1.66;-0.4;-0.081499;-1.0177;-0.026069;0.0;0.0;165.0;0.0;0.0;30.7
2.0;1753876246.061407;15.813808;0.88;-1.71;-0.37;-0.080999;-1.017775;-0.027011;0.0;0.0;165.0;0.0;0.0;29.4
2.0;1753876246.066003;15.791158;0.88;-1.71;-0.36;-0.082024;-1.018434;-0.026956;0.0;0.0;157.0;0.0;0.0;30.4
2.0;1753876246.070599;15.811895;0.99;-1.75;-0.39;-0.081096;-1.017675;-0.026927;0.0;0.0;161.7;0.0;0.0;29.7
2.0;1753876246.075195;15.779112;0.92;-1.83;-0.31;-0.081344;-1.01634;-0.027057;0.0;0.0;167.7;0.0;0.0;29.5
2.0;1753876246.079791;15.782412;1.02;-1.76;-0.31;-0.080899;-1.016523;-0.02738;0.0;0.0;170.9;0.0;0.0;30.5
2.0;1753876246.084387;15.827628;0.96;-1.63;-0.43;-0.081815;-1.017576;-0.026051;0.0;0.0;164.0;0.0;0.0;30.6
2.0;1753876246.088983;15.781796;0.88;-1.77;-0.37;-0.081342;-1.017852;-0.027488;0.0;0.0;162.3;0.0;0.0;29.4
2.0;1753876246.093579;15.818646;0.89;-1.65;-0.31;-0.080281;-1.017098;-0.025906;0.0;0.0;162.1;0.0;0.0;31.0
2.0;1753876246.098175;15.803879;0.91;-1.73;-0.29;-0.081326;-1.017404;-0.027125;0.0;0.0;163.6;0.0;0.0;29.5
2.0;1753876246.102771;15.730284;0.82;-1.77;-0.33;-0.08024;-1.017712;-0.027163;0.0;0.0;161.9;0.0;0.0;30.1
2.0;1753876246.107367;15.819216;0.93;-1.76;-0.33;-0.080015;-1.01696;-0.026905;0.0;0.0;164.3;0.0;0.0;31.0
2.0;1753876246.111963;15.789779;0.86;-1.65;-0.4;-0.080705;-1.018025;-0.027145;0.0;0.0;160.2;0.0;0.0;29.1
2.0;1753876246.116559;15.795903;0.82;-1.76;-0.35;-0.080019;-1.018122;-0.026422;0.0;0.0;161.7;0.0;0.0;30.0
2.0;1753876246.121155;15.824306;0.86;-1.77;-0.35;-0.08065;-1.016843;-0.026736;0.0;0.0;164.4;0.0;0.0;29.9
2.0;1753876246.1278;15.804688;0.84;-1.75;-0.35;-0.08113;-1.017602;-0.026474;0.0;0.0;164.0;0.0;0.0;30.0
2.0;1753876246.132396;15.804936;0.86;-1.76;-0.38;-0.080765;-1.018999;-0.026237;0.0;0.0;159.7;0.0;0.0;28.6
2.0;1753876246.136992;15.810844;0.79;-1.65;-0.28;-0.082741;-1.017928;-0.025962;0.0;0.0;167.1;0.0;0.0;28.3
2.0;1753876246.141588;15.816176;0.82;-1.8;-0.35;-0.080893;-1.018457;-0.025199;0.0;0.0;159.5;0.0;0.0;23.2
2.0;1753876246.146184;15.798708;0.82;-1.67;-0.38;-0.081638;-1.017951;-0.02696;0.0;0.0;161.4;0.0;0.0;22.4
2.0;1753876246.15078;15.791125;0.8;-1.64;-0.34;-0.081858;-1.018448;-0.026227;0.0;0.0;162.8;0.0;0.0;26.1
2.0;1753876246.155376;15.771135;0.86;-1.63;-0.35;-0.081585;-1.01839;-0.025884;0.0;0.0;164.8;0.0;0.0;23.2
2.0;1753876246.159972;15.797844;0.94;-1.65;-0.29;-0.081843;-1.01947;-0.026438;0.0;0.0;168.4;0.0;0.0;23.0
2.0;1753876246.16712;15.777344;0.91;-1.61;-0.35;-0.081862;-1.019188;-0.026108;0.0;0.0;164.0;0.0;0.0;21.0
2.0;1753876246.171716;15.790182;0.98;-1.61;-0.33;-0.081933;-1.019691;-0.024879;0.0;0.0;164.6;0.0;0.0;18.2
2.0;1753876246.176312;15.7826;0.89;-1.55;-0.33;-0.081133;-1.017966;-0.026174;0.0;0.0;164.1;0.0;0.0;19.4
2.0;1753876246.180908;15.781093;0.9;-1.69;-0.35;-0.081791;-1.018579;-0.025705;0.0;0.0;162.9;0.0;0.0;18.4
2.0;1753876246.185504;15.773779;0.88;-1.62;-0.33;-0.081442;-1.018115;-0.026792;0.0;0.0;162.5;0.0;0.0;22.4
2.0;1753876246.1901;15.787043;0.91;-1.62;-0.33;-0.082396;-1.01818;-0.026626;0.0;0.0;157.8;0.0;0.0;25.6
2.0;1753876246.19615;15.777344;0.91;-1.61;-0.35;-0.082106;-1.017236;-0.026352;0.0;0.0;164.0;0.0;0.0;21.0
2.0;1753876246.200746;15.763919;0.87;-1.54;-0.3;-0.081333;-1.016699;-0.026535;0.0;0.0;166.4;0.0;0.0;25.1
2.0;1753876246.205342;15.778174;0.98;-1.7;-0.29;-0.081633;-1.017376;-0.026912;0.0;0.0;160.6;0.0;0.0;22.4
2.0;1753876246.209938;15.790843;0.94;-1.63;-0.37;-0.081647;-1.017288;-0.026605;0.0;0.0;164.5;0.0;0.0;20.9
2.0;1753876246.214534;15.764768;0.85;-1.53;-0.33;-0.081176;-1.017626;-0.026363;0.0;0.0;166.6;0.0;0.0;29.0
2.0;1753876246.21913;15.789975;0.88;-1.8;-0.37;-0.082258;-1.017181;-0.026798;0.0;0.0;166.7;0.0;0.0;18.0
2.0;1753876246.223726;15.752861;0.85;-1.58;-0.37;-0.079959;-1.018768;-0.026201;0.0;0.0;160.3;0.0;0.0;22.8
2.0;1753876246.228322;15.778092;0.85;-1.59;-0.28;-0.079254;-1.017777;-0.026673;0.0;0.0;162.7;0.0;0.0;17.3
2.0;1753876246.232918;15.783948;0.87;-1.71;-0.26;-0.082638;-1.017991;-0.027565;0.0;0.0;161.7;0.0;0.0;19.8
2.0;1753876246.237514;15.76925;0.85;-1.68;-0.36;-0.080202;-1.017905;-0.027239;0.0;0.0;163.8;0.0;0.0;29.5
2.0;1753876246.24173;15.773438;0.84;-1.68;-0.35;-0.080032;-1.018334;-0.026962;0.0;0.0;164.0;0.0;0.0;21.0
2.0;1753876246.246326;15.780481;0.77;-1.67;-0.34;-0.080013;-1.017373;-0.027169;0.0;0.0;159.7;0.0;0.0;19.6
2.0;1753876246.250922;15.769913;0.88;-1.65;-0.34;-0.080524;-1.018569;-0.026805;0.0;0.0;161.2;0.0;0.0;32.4
2.0;1753876246.255518;15.792921;0.8;-1.56;-0.31;-0.081239;-1.018849;-0.02601;0.0;0.0;163.2;0.0;0.0;19.0
2.0;1753876246.260114;15.772579;0.77;-1.56;-0.42;-0.080285;-1.017222;-0.027185;0.0;0.0;158.6;0.0;0.0;25.9
2.0;1753876246.26471;15.771106;0.87;-1.77;-0.36;-0.081386;-1.017569;-0.025512;0.0;0.0;162.8;0.0;0.0;18.4
2.0;1753876246.269306;15.752654;0.95;-1.69;-0.38;-0.081902;-1.016664;-0.026569;0.0;0.0;163.9;0.0;0.0;19.3
2.0;1753876246.273902;15.777907;0.82;-1.64;-0.37;-0.082459;-1.017081;-0.025988;0.0;0.0;164.4;0.0;0.0;24.7
2.0;1753876246.278498;15.77085;0.81;-1.59;-0.36;-0.081389;-1.016493;-0.025423;0.0;0.0;164.5;0.0;0.0;18.5
2.0;1753876246.283094;15.775476;0.82;-1.69;-0.34;-0.084009;-1.015977;-0.025579;0.0;0.0;162.0;0.0;0.0;31.1
2.0;1753876246.28726;15.773438;0.84;-1.68;-0.35;-0.082838;-1.01687;-0.025986;0.0;0.0;164.0;0.0;0.0;21.0
2.0;1753876246.291856;15.759037;0.83;-1.63;-0.37;-0.081342;-1.0163;-0.025878;0.0;0.0;163.8;0.0;0.0;14.1
2.0;1753876246.296452;15.780636;0.83;-1.61;-0.34;-0.082194;-1.016792;-0.025066;0.0;0.0;165.2;0.0;0.0;18.2
2.0;1753876246.301048;15.77884;0.78;-1.71;-0.37;-0.082171;-1.017329;-0.02601;0.0;0.0;164.5;0.0;0.0;17.5
2.0;1753876246.305644;15.783811;0.92;-1.62;-0.35;-0.082144;-1.018599;-0.026335;0.0;0.0;165.4;0.0;0.0;23.4
2.0;1753876246.31024;15.781973;0.87;-1.6;-0.34;-0.083074;-1.01858;-0.025796;0.0;0.0;160.0;0.0;0.0;14.9
2.0;1753876246.314836;15.778642;0.96;-1.66;-0.38;-0.081999;-1.016029;-0.02587;0.0;0.0;159.8;0.0;0.0;23.8
2.0;1753876246.319432;15.786492;0.83;-1.68;-0.32;-0.081;-1.017101;-0.025543;0.0;0.0;164.7;0.0;0.0;22.8
2.0;1753876246.324028;15.798084;0.92;-1.65;-0.29;-0.082121;-1.017753;-0.025947;0.0;0.0;163.6;0.0;0.0;21.2
2.0;1753876246.328624;15.771419;0.83;-1.65;-0.32;-0.081888;-1.01717;-0.026097;0.0;0.0;163.7;0.0;0.0;27.8
2.0;1753876246.33284;15.773438;0.91;-1.61;-0.28;-0.081618;-1.017236;-0.025742;0.0;0.0;164.0;0.0;0.0;21.0
2.0;1753876246.337436;15.771322;0.96;-1.69;-0.28;-0.083798;-1.017881;-0.026402;0.0;0.0;160.5;0.0;0.0;17.4
2.0;1753876246.342032;15.762693;0.9;-1.63;-0.24;-0.081706;-1.016554;-0.025423;0.0;0.0;157.1;0.0;0.0;17.3
2.0;1753876246.346628;15.774079;0.91;-1.62;-0.24;-0.081712;-1.017971;-0.025486;0.0;0.0;160.1;0.0;0.0;23.5
2.0;1753876246.351224;15.755215;0.91;-1.65;-0.29;-0.082052;-1.018135;-0.026203;0.0;0.0;164.9;0.0;0.0;24.9
2.0;1753876246.35582;15.751951;1.0;-1.69;-0.31;-0.083607;-1.016192;-0.025921;0.0;0.0;164.5;0.0;0.0;20.9
2.0;1753876246.360416;15.76435;0.93;-1.56;-0.28;-0.083048;-1.017313;-0.026633;0.0;0.0;164.4;0.0;0.0;18.8
2.0;1753876246.365012;15.769644;1.06;-1.65;-0.29;-0.081935;-1.018277;-0.025661;0.0;0.0;163.8;0.0;0.0;26.3
2.0;1753876246.369608;15.756913;1.06;-1.68;-0.28;-0.084347;-1.01652;-0.025622;0.0;0.0;161.2;0.0;0.0;23.8
2.0;1753876246.374204;15.769837;0.93;-1.75;-0.23;-0.082563;-1.016805;-0.025059;0.0;0.0;166.3;0.0;0.0;18.2
2.0;1753876246.37856;15.773438;0.98;-1.68;-0.28;-0.08357;-1.017114;-0.025742;0.0;0.0;164.0;0.0;0.0;21.0
2.0;1753876246.383156;15.763497;0.92;-1.67;-0.31;-0.08326;-1.016266;-0.026513;0.0;0.0;163.7;0.0;0.0;15.3
2.0;1753876246.387752;15.794874;0.91;-1.68;-0.3;-0.084149;-1.017613;-0.025346;0.0;0.0;164.5;0.0;0.0;17.9
2.0;1753876246.392348;15.771405;0.92;-1.65;-0.28;-0.081526;-1.018002;-0.025507;0.0;0.0;164.1;0.0;0.0;25.7
2.0;1753876246.396944;15.754532;1.06;-1.67;-0.28;-0.080424;-1.018073;-0.027347;0.0;0.0;164.1;0.0;0.0;21.1
2.0;1753876246.40154;15.758869;0.98;-1.71;-0.24;-0.082261;-1.016781;-0.025785;0.0;0.0;162.9;0.0;0.0;33.8
2.0;1753876246.406136;15.763129;1.02;-1.7;-0.3;-0.081949;-1.016499;-0.02639;0.0;0.0;164.5;0.0;0.0;22.2
2.0;1753876246.410732;15.751425;1.01;-1.67;-0.39;-0.083727;-1.01826;-0.026645;0.0;0.0;163.5;0.0;0.0;22.7
2.0;1753876246.415328;15.760079;0.87;-1.68;-0.31;-0.082226;-1.017536;-0.026708;0.0;0.0;165.8;0.0;0.0;15.8
2.0;1753876246.419924;15.724563;1.02;-1.68;-0.36;-0.083418;-1.016973;-0.026287;0.0;0.0;166.1;0.0;0.0;20.7
2.0;1753876246.42452;15.760643;1.04;-1.71;-0.29;-0.082692;-1.019294;-0.026469;0.0;0.0;161.2;0.0;0.0;17.3
2.0;1753876246.43269;15.75;0.98;-1.68;-0.35;-0.081252;-1.018578;-0.02684;0.0;0.0;164.0;0.0;0.0;21.0
2.0;1753876246.437286;15.7968;0.91;-1.7;-0.37;-0.082194;-1.01773;-0.02698;0.0;0.0;164.8;0.0;0.0;18.0
2.0;1753876246.441882;15.721522;0.84;-1.64;-0.41;-0.082028;-1.0191;-0.026692;0.0;0.0;161.8;0.0;0.0;22.5
2.0;1753876246.446478;15.765912;0.86;-1.71;-0.35;-0.084968;-1.019138;-0.026844;0.0;0.0;163.3;0.0;0.0;25.5
2.0;1753876246.451074;15.781979;0.9;-1.71;-0.33;-0.080575;-1.018781;-0.026334;0.0;0.0;162.2;0.0;0.0;18.6
2.0;1753876246.45567;15.746245;0.88;-1.7;-0.39;-0.083883;-1.019054;-0.026822;0.0;0.0;164.8;0.0;0.0;25.2
2.0;1753876246.460266;15.759387;0.85;-1.74;-0.37;-0.082592;-1.019055;-0.026316;0.0;0.0;165.4;0.0;0.0;20.4
2.0;1753876246.464862;15.763681;0.8;-1.76;-0.37;-0.083276;-1.018287;-0.025693;0.0;0.0;163.1;0.0;0.0;21.8
2.0;1753876246.46981;15.75;0.84;-1.75;-0.35;-0.083448;-1.018456;-0.026474;0.0;0.0;164.0;0.0;0.0;21.0
2.0;1753876246.474406;15.753087;0.86;-1.79;-0.41;-0.082909;-1.018077;-0.02657;0.0;0.0;163.6;0.0;0.0;15.2
2.0;1753876246.479002;15.737534;0.76;-1.7;-0.4;-0.082561;-1.019044;-0.026448;0.0;0.0;164.3;0.0;0.0;20.4
2.0;1753876246.483598;15.750759;0.87;-1.73;-0.3;-0.080278;-1.018554;-0.026234;0.0;0.0;163.4;0.0;0.0;18.9
2.0;1753876246.488194;15.737335;0.86;-1.62;-0.35;-0.082275;-1.019183;-0.026452;0.0;0.0;164.4;0.0;0.0;26.2
2.0;1753876246.49279;15.727975;0.87;-1.78;-0.39;-0.083612;-1.018249;-0.0271;0.0;0.0;164.1;0.0;0.0;24.0
2.0;1753876246.497386;15.765985;0.92;-1.77;-0.31;-0.0838;-1.018033;-0.026205;0.0;0.0;164.7;0.0;0.0;18.4
2.0;1753876246.501982;15.737353;0.89;-1.71;-0.35;-0.0815;-1.018767;-0.027126;0.0;0.0;164.8;0.0;0.0;22.9
2.0;1753876246.506578;15.726966;0.97;-1.71;-0.36;-0.08186;-1.018905;-0.027141;0.0;0.0;162.6;0.0;0.0;27.4
2.0;1753876246.511174;15.748713;0.86;-1.68;-0.39;-0.081537;-1.019837;-0.026899;0.0;0.0;163.7;0.0;0.0;18.9
2.0;1753876246.51577;15.725644;0.91;-1.66;-0.36;-0.08121;-1.017832;-0.026383;0.0;0.0;162.3;0.0;0.0;22.5
2.0;1753876246.520366;15.752978;1.03;-1.71;-0.33;-0.08205;-1.018807;-0.027504;0.0;0.0;162.7;0.0;0.0;27.2
2.0;1753876246.524962;15.758953;0.97;-1.69;-0.39;-0.082102;-1.019564;-0.027363;0.0;0.0;165.2;0.0;0.0;18.7
2.0;1753876246.53195;15.75;0.98;-1.68;-0.35;-0.08174;-1.018578;-0.027328;0.0;0.0;164.0;0.0;0.0;21.0
2.0;1753876246.536546;15.755718;0.97;-1.65;-0.36;-0.083562;-1.018954;-0.027295;0.0;0.0;164.0;0.0;0.0;26.3
2.0;1753876246.541142;15.737532;0.95;-1.65;-0.35;-0.081288;-1.019663;-0.026844;0.0;0.0;163.6;0.0;0.0;15.2
2.0;1753876246.545738;15.762487;1.08;-1.65;-0.34;-0.08178;-1.017177;-0.026542;0.0;0.0;163.9;0.0;0.0;29.6
2.0;1753876246.550334;15.762874;0.95;-1.82;-0.31;-0.08284;-1.019328;-0.027781;0.0;0.0;163.7;0.0;0.0;11.7
2.0;1753876246.55493;15.754774;0.98;-1.69;-0.4;-0.081929;-1.018539;-0.026538;0.0;0.0;163.4;0.0;0.0;24.2
2.0;1753876246.559526;15.777938;0.97;-1.64;-0.31;-0.079967;-1.018923;-0.027493;0.0;0.0;163.7;0.0;0.0;12.9
2.0;1753876246.564122;15.711406;0.97;-1.69;-0.34;-0.080708;-1.018969;-0.027074;0.0;0.0;164.1;0.0;0.0;25.6
2.0;1753876246.568718;15.737685;1.0;-1.71;-0.27;-0.082475;-1.019186;-0.027356;0.0;0.0;163.6;0.0;0.0;39.2
2.0;1753876246.573314;15.738726;0.89;-1.68;-0.35;-0.081951;-1.018269;-0.027076;0.0;0.0;163.9;0.0;0.0;28.3
2.0;1753876246.57791;15.746064;1.02;-1.68;-0.42;-0.081187;-1.018134;-0.026296;0.0;0.0;163.6;0.0;0.0;36.3
2.0;1753876246.582506;15.751369;0.88;-1.74;-0.35;-0.080603;-1.017318;-0.026302;0.0;0.0;163.7;0.0;0.0;28.4
2.0;1753876246.587102;15.763147;0.88;-1.62;-0.37;-0.081183;-1.017426;-0.02574;0.0;0.0;163.6;0.0;0.0;28.0
2.0;1753876246.591698;15.709196;0.93;-1.68;-0.34;-0.08105;-1.018569;-0.026446;0.0;0.0;163.3;0.0;0.0;33.7
2.0;1753876246.596294;15.740295;0.91;-1.62;-0.36;-0.080326;-1.018756;-0.026678;0.0;0.0;163.4;0.0;0.0;22.5
2.0;1753876246.60089;15.722761;1.0;-1.73;-0.4;-0.081103;-1.018554;-0.025969;0.0;0.0;163.6;0.0;0.0;28.0
2.0;1753876246.605486;15.76537;0.97;-1.71;-0.35;-0.079133;-1.018042;-0.026701;0.0;0.0;163.5;0.0;0.0;36.9
2.0;1753876246.610082;15.777528;0.91;-1.75;-0.32;-0.081707;-1.019802;-0.026873;0.0;0.0;163.4;0.0;0.0;34.8
2.0;1753876246.614678;15.742596;0.94;-1.7;-0.36;-0.082283;-1.018759;-0.025941;0.0;0.0;163.3;0.0;0.0;32.8
2.0;1753876246.619274;15.724773;0.92;-1.66;-0.41;-0.084158;-1.017791;-0.026743;0.0;0.0;163.6;0.0;0.0;31.2
2.0;1753876246.62387;15.73137;0.95;-1.76;-0.4;-0.082151;-1.018593;-0.025234;0.0;0.0;162.7;0.0;0.0;30.7
2.0;1753876246.628466;15.745423;0.9;-1.72;-0.39;-0.079793;-1.018755;-0.02547;0.0;0.0;163.6;0.0;0.0;23.3
2.0;1753876246.633062;15.766294;0.96;-1.7;-0.4;-0.081122;-1.018827;-0.026335;0.0;0.0;163.0;0.0;0.0;29.5
2.0;1753876246.637658;15.749452;0.98;-1.73;-0.35;-0.080102;-1.017935;-0.02525;0.0;0.0;162.8;0.0;0.0;32.8
2.0;1753876246.642254;15.775669;0.91;-1.63;-0.38;-0.082524;-1.019421;-0.025482;0.0;0.0;163.2;0.0;0.0;24.7
2.0;1753876246.64685;15.761545;0.81;-1.62;-0.31;-0.080138;-1.017551;-0.025051;0.0;0.0;163.4;0.0;0.0;34.7
2.0;1753876246.651446;15.741943;0.98;-1.65;-0.36;-0.080979;-1.018462;-0.02599;0.0;0.0;163.2;0.0;0.0;40.4
2.0;1753876246.656042;15.791336;0.87;-1.7;-0.36;-0.081392;-1.017061;-0.025136;0.0;0.0;162.9;0.0;0.0;40.1
2.0;1753876246.6623;15.75;0.91;-1.68;-0.35;-0.081008;-1.018212;-0.02562;0.0;0.0;163.0;0.0;0.0;37.0
2.0;1753876246.666896;15.751472;0.97;-1.64;-0.32;-0.08155;-1.018365;-0.026079;0.0;0.0;162.8;0.0;0.0;43.4
2.0;1753876246.671492;15.744783;0.77;-1.67;-0.39;-0.082646;-1.017786;-0.025572;0.0;0.0;162.6;0.0;0.0;34.9
2.0;1753876246.676088;15.768831;0.86;-1.73;-0.34;-0.081221;-1.018692;-0.025644;0.0;0.0;163.0;0.0;0.0;36.0
2.0;1753876246.680684;15.767462;0.93;-1.74;-0.3;-0.081533;-1.019375;-0.025407;0.0;0.0;162.8;0.0;0.0;39.0
2.0;1753876246.68528;15.772991;0.74;-1.69;-0.35;-0.082155;-1.017528;-0.024927;0.0;0.0;163.0;0.0;0.0;29.8
2.0;1753876246.689876;15.721133;0.82;-1.74;-0.34;-0.081;-1.016742;-0.026745;0.0;0.0;162.4;0.0;0.0;31.7
2.0;1753876246.694472;15.746153;0.87;-1.67;-0.25;-0.082373;-1.017296;-0.027022;0.0;0.0;163.0;0.0;0.0;37.9
2.0;1753876246.7026;15.75;0.84;-1.68;-0.28;-0.082228;-1.017846;-0.026718;0.0;0.0;163.0;0.0;0.0;37.0
2.0;1753876246.707196;15.743122;0.84;-1.66;-0.29;-0.082322;-1.019854;-0.02606;0.0;0.0;163.0;0.0;0.0;40.8
2.0;1753876246.711792;15.736766;0.79;-1.69;-0.31;-0.083493;-1.017957;-0.026424;0.0;0.0;162.7;0.0;0.0;39.2
2.0;1753876246.716388;15.770667;0.81;-1.65;-0.29;-0.081916;-1.017971;-0.027636;0.0;0.0;163.6;0.0;0.0;32.4
2.0;1753876246.720984;15.740841;0.86;-1.68;-0.32;-0.08066;-1.017681;-0.027626;0.0;0.0;163.3;0.0;0.0;40.2
2.0;1753876246.72558;15.754468;0.79;-1.71;-0.34;-0.081272;-1.017628;-0.027381;0.0;0.0;163.0;0.0;0.0;35.6
2.0;1753876246.730176;15.733033;0.8;-1.76;-0.35;-0.083302;-1.018362;-0.027086;0.0;0.0;163.2;0.0;0.0;42.5
2.0;1753876246.734772;15.740156;0.89;-1.67;-0.34;-0.082078;-1.018491;-0.026776;0.0;0.0;163.0;0.0;0.0;31.3
2.0;1753876246.739368;15.737851;0.9;-1.68;-0.33;-0.081482;-1.017;-0.026763;0.0;0.0;162.4;0.0;0.0;26.5
2.0;1753876246.74473;15.75;0.91;-1.68;-0.35;-0.081252;-1.017846;-0.027084;0.0;0.0;163.0;0.0;0.0;37.0
2.0;1753876246.749326;15.740318;1.02;-1.71;-0.34;-0.080585;-1.01777;-0.026594;0.0;0.0;163.0;0.0;0.0;37.4
2.0;1753876246.753922;15.753647;0.8;-1.63;-0.33;-0.082702;-1.017516;-0.027216;0.0;0.0;163.0;0.0;0.0;37.2
2.0;1753876246.758518;15.732354;0.94;-1.61;-0.34;-0.08187;-1.017203;-0.027124;0.0;0.0;162.0;0.0;0.0;42.9
2.0;1753876246.763114;15.747905;0.95;-1.65;-0.42;-0.083112;-1.018904;-0.027171;0.0;0.0;162.3;0.0;0.0;26.9
2.0;1753876246.76771;15.726104;0.89;-1.67;-0.38;-0.082178;-1.017463;-0.028055;0.0;0.0;162.8;0.0;0.0;32.2
2.0;1753876246.772306;15.778682;1.12;-1.64;-0.33;-0.082821;-1.018275;-0.027563;0.0;0.0;162.9;0.0;0.0;39.2
2.0;1753876246.776902;15.736598;1.0;-1.66;-0.35;-0.085133;-1.019273;-0.027556;0.0;0.0;163.1;0.0;0.0;41.2
2.0;1753876246.781498;15.751344;0.94;-1.66;-0.35;-0.082866;-1.019471;-0.026981;0.0;0.0;163.2;0.0;0.0;40.2
2.0;1753876246.786094;15.772482;1.02;-1.62;-0.31;-0.082887;-1.017525;-0.026289;0.0;0.0;163.5;0.0;0.0;44.0
2.0;1753876246.7903;15.765625;1.05;-1.61;-0.35;-0.083692;-1.018212;-0.026596;0.0;0.0;163.0;0.0;0.0;37.0
2.0;1753876246.794896;15.746724;1.08;-1.69;-0.4;-0.084845;-1.016814;-0.025947;0.0;0.0;162.3;0.0;0.0;33.8
2.0;1753876246.799492;15.785174;1.07;-1.67;-0.34;-0.082921;-1.0186;-0.025613;0.0;0.0;163.0;0.0;0.0;47.3
2.0;1753876246.804088;15.774851;1.03;-1.68;-0.41;-0.082608;-1.018269;-0.025489;0.0;0.0;163.4;0.0;0.0;33.6
2.0;1753876246.808684;15.755648;0.98;-1.65;-0.37;-0.082762;-1.01754;-0.026317;0.0;0.0;162.3;0.0;0.0;33.3
2.0;1753876246.81328;15.73067;0.91;-1.67;-0.41;-0.082371;-1.016407;-0.026591;0.0;0.0;163.4;0.0;0.0;29.8
2.0;1753876246.817876;15.777423;0.97;-1.63;-0.41;-0.083451;-1.019207;-0.026485;0.0;0.0;163.9;0.0;0.0;22.2
2.0;1753876246.822472;15.781103;0.96;-1.75;-0.39;-0.07929;-1.018295;-0.026621;0.0;0.0;163.2;0.0;0.0;38.2
2.0;1753876246.827068;15.768846;0.97;-1.75;-0.45;-0.08186;-1.018907;-0.026131;0.0;0.0;163.0;0.0;0.0;33.3
2.0;1753876246.831664;15.743985;0.9;-1.83;-0.44;-0.082805;-1.018095;-0.025066;0.0;0.0;163.6;0.0;0.0;31.7
2.0;1753876246.83625;15.765625;0.91;-1.75;-0.42;-0.081496;-1.017236;-0.026108;0.0;0.0;163.0;0.0;0.0;37.0
2.0;1753876246.840846;15.818733;0.96;-1.71;-0.42;-0.081216;-1.017514;-0.026219;0.0;0.0;162.6;0.0;0.0;33.2
2.0;1753876246.845442;15.75778;0.89;-1.78;-0.41;-0.080924;-1.017403;-0.024791;0.0;0.0;163.2;0.0;0.0;34.7
2.0;1753876246.850038;15.7942;0.99;-1.74;-0.41;-0.083443;-1.017242;-0.025534;0.0;0.0;163.1;0.0;0.0;27.9
2.0;1753876246.854634;15.782145;0.84;-1.75;-0.4;-0.080099;-1.017823;-0.026234;0.0;0.0;163.5;0.0;0.0;35.0
2.0;1753876246.85923;15.789114;0.93;-1.75;-0.41;-0.080874;-1.018488;-0.02506;0.0;0.0;163.2;0.0;0.0;49.3
2.0;1753876246.863826;15.771095;1.0;-1.78;-0.37;-0.082141;-1.017997;-0.025994;0.0;0.0;162.9;0.0;0.0;44.7
2.0;1753876246.868422;15.787047;0.77;-1.76;-0.39;-0.081194;-1.018263;-0.027516;0.0;0.0;162.7;0.0;0.0;48.2
2.0;1753876246.873018;15.755565;1.0;-1.58;-0.41;-0.081199;-1.017469;-0.025903;0.0;0.0;162.1;0.0;0.0;30.4
2.0;1753876246.877614;15.77912;0.93;-1.71;-0.34;-0.079752;-1.018862;-0.025792;0.0;0.0;163.2;0.0;0.0;55.2
2.0;1753876246.882;15.765625;0.84;-1.68;-0.35;-0.081862;-1.017846;-0.026352;0.0;0.0;163.0;0.0;0.0;37.0
2.0;1753876246.886596;15.759047;0.75;-1.75;-0.33;-0.080945;-1.017541;-0.026752;0.0;0.0;162.5;0.0;0.0;44.5
2.0;1753876246.891192;15.772777;0.89;-1.59;-0.38;-0.082246;-1.016455;-0.027122;0.0;0.0;164.2;0.0;0.0;45.2
2.0;1753876246.895788;15.759717;0.8;-1.72;-0.42;-0.081578;-1.017075;-0.025596;0.0;0.0;163.2;0.0;0.0;38.9
2.0;1753876246.900384;15.743726;0.85;-1.7;-0.41;-0.082585;-1.019055;-0.02533;0.0;0.0;162.8;0.0;0.0;27.5
2.0;1753876246.90498;15.774514;0.93;-1.65;-0.32;-0.082253;-1.017549;-0.025909;0.0;0.0;162.9;0.0;0.0;45.2
2.0;1753876246.909576;15.747591;0.99;-1.68;-0.4;-0.08192;-1.018229;-0.025203;0.0;0.0;163.0;0.0;0.0;29.2
2.0;1753876246.914172;15.748575;0.86;-1.65;-0.32;-0.082214;-1.01808;-0.025912;0.0;0.0;163.7;0.0;0.0;41.2
2.0;1753876246.918768;15.772822;0.94;-1.59;-0.36;-0.08209;-1.017955;-0.026511;0.0;0.0;163.4;0.0;0.0;44.4
2.0;1753876246.923364;15.754023;0.88;-1.59;-0.36;-0.082441;-1.018257;-0.025297;0.0;0.0;163.2;0.0;0.0;41.1
2.0;1753876246.93037;15.765625;0.91;-1.61;-0.35;-0.081984;-1.017602;-0.025498;0.0;0.0;163.0;0.0;0.0;37.0
2.0;1753876246.934966;15.765727;0.83;-1.58;-0.3;-0.083123;-1.017201;-0.026531;0.0;0.0;163.4;0.0;0.0;41.3
2.0;1753876246.939562;15.75731;0.89;-1.66;-0.38;-0.082816;-1.018046;-0.026009;0.0;0.0;164.2;0.0;0.0;39.9
2.0;1753876246.944158;15.79306;0.84;-1.64;-0.33;-0.08206;-1.018618;-0.026838;0.0;0.0;162.6;0.0;0.0;38.3
2.0;1753876246.948754;15.783154;0.85;-1.59;-0.36;-0.083829;-1.018124;-0.025445;0.0;0.0;163.0;0.0;0.0;31.4
2.0;1753876246.95335;15.782083;0.91;-1.65;-0.24;-0.081951;-1.017588;-0.025885;0.0;0.0;163.7;0.0;0.0;30.3
2.0;1753876246.957946;15.79073;0.91;-1.63;-0.35;-0.081727;-1.018175;-0.025802;0.0;0.0;162.8;0.0;0.0;41.6
2.0;1753876246.962542;15.833257;0.77;-1.67;-0.27;-0.083133;-1.019081;-0.025747;0.0;0.0;163.3;0.0;0.0;30.0
2.0;1753876246.967138;15.799654;0.9;-1.65;-0.33;-0.083287;-1.017949;-0.024879;0.0;0.0;162.3;0.0;0.0;47.1
2.0;1753876246.97329;15.8125;0.84;-1.68;-0.28;-0.082594;-1.018578;-0.025986;0.0;0.0;163.0;0.0;0.0;37.0
2.0;1753876246.975456;15.828125;0.91;-1.75;-0.28;-0.081496;-1.018334;-0.025742;0.0;0.0;156.0;0.0;0.0;39.0
2.0;1753876246.980174;15.828125;0.84;-1.75;-0.35;-0.082594;-1.01748;-0.02684;0.0;0.0;156.0;0.0;0.0;39.0
2.0;1753876246.98465;15.828125;0.84;-1.68;-0.35;-0.080154;-1.018944;-0.027206;0.0;0.0;156.0;0.0;0.0;39.0
2.0;1753876246.989242;15.828125;0.91;-1.68;-0.28;-0.08174;-1.01626;-0.026474;0.0;0.0;156.0;0.0;0.0;39.0
2.0;1753876246.993838;15.825061;0.93;-1.62;-0.27;-0.081012;-1.017096;-0.025798;0.0;0.0;165.8;0.0;0.0;41.0
2.0;1753876246.998434;15.831203;0.95;-1.57;-0.26;-0.081269;-1.016606;-0.027594;0.0;0.0;149.1;0.0;0.0;38.7
2.0;1753876247.00303;15.826439;0.98;-1.7;-0.3;-0.080764;-1.016689;-0.026737;0.0;0.0;165.8;0.0;0.0;41.1
2.0;1753876247.007626;15.81993;0.87;-1.61;-0.33;-0.082159;-1.016139;-0.027456;0.0;0.0;149.6;0.0;0.0;38.2
2.0;1753876247.012222;15.815361;0.89;-1.74;-0.19;-0.0844;-1.016696;-0.026718;0.0;0.0;166.8;0.0;0.0;34.1
2.0;1753876247.016818;15.832908;0.86;-1.62;-0.27;-0.0808;-1.016692;-0.026317;0.0;0.0;161.3;0.0;0.0;27.2
2.0;1753876247.021414;15.832552;0.86;-1.65;-0.23;-0.082379;-1.015744;-0.025585;0.0;0.0;162.7;0.0;0.0;35.7
2.0;1753876247.02601;15.816222;0.88;-1.6;-0.29;-0.082649;-1.015661;-0.027222;0.0;0.0;148.1;0.0;0.0;24.5
2.0;1753876247.030606;15.822437;0.94;-1.67;-0.29;-0.082522;-1.016522;-0.026212;0.0;0.0;166.7;0.0;0.0;44.8
2.0;1753876247.035202;15.820767;0.92;-1.65;-0.35;-0.08315;-1.016067;-0.026975;0.0;0.0;170.4;0.0;0.0;28.6
2.0;1753876247.039798;15.829072;0.93;-1.69;-0.33;-0.08344;-1.016783;-0.026843;0.0;0.0;162.2;0.0;0.0;26.9
2.0;1753876247.044394;15.817087;0.9;-1.61;-0.33;-0.08184;-1.016017;-0.025617;0.0;0.0;171.4;0.0;0.0;35.6
2.0;1753876247.04899;15.830169;0.91;-1.73;-0.29;-0.080656;-1.016101;-0.026406;0.0;0.0;164.5;0.0;0.0;29.6
2.0;1753876247.053586;15.860219;0.93;-1.7;-0.33;-0.082182;-1.018687;-0.026026;0.0;0.0;170.2;0.0;0.0;34.8
2.0;1753876247.058182;15.813284;0.93;-1.68;-0.36;-0.082599;-1.015822;-0.027111;0.0;0.0;155.0;0.0;0.0;36.3
2.0;1753876247.062778;15.840934;0.93;-1.72;-0.31;-0.081883;-1.016809;-0.026683;0.0;0.0;163.7;0.0;0.0;34.4
2.0;1753876247.067374;15.827976;0.97;-1.68;-0.24;-0.082465;-1.017338;-0.026388;0.0;0.0;160.9;0.0;0.0;42.4
2.0;1753876247.07197;15.829595;0.98;-1.73;-0.27;-0.081912;-1.016643;-0.025616;0.0;0.0;154.8;0.0;0.0;36.0
2.0;1753876247.076566;15.826071;0.96;-1.66;-0.27;-0.082627;-1.016218;-0.026786;0.0;0.0;155.3;0.0;0.0;44.8
2.0;1753876247.081162;15.844237;0.93;-1.63;-0.28;-0.084243;-1.015502;-0.026635;0.0;0.0;155.7;0.0;0.0;47.1
2.0;1753876247.085758;15.837915;0.99;-1.7;-0.36;-0.081471;-1.016992;-0.026142;0.0;0.0;139.6;0.0;0.0;40.0
2.0;1753876247.090354;15.828984;0.85;-1.69;-0.29;-0.082163;-1.015727;-0.02706;0.0;0.0;174.2;0.0;0.0;33.8
2.0;1753876247.09495;15.812602;0.9;-1.71;-0.34;-0.081841;-1.016586;-0.026281;0.0;0.0;168.3;0.0;0.0;45.0
2.0;1753876247.099546;15.836081;0.97;-1.74;-0.37;-0.081472;-1.017003;-0.026483;0.0;0.0;165.5;0.0;0.0;37.7
2.0;1753876247.104142;15.84351;0.98;-1.6;-0.32;-0.080054;-1.016587;-0.027033;0.0;0.0;168.1;0.0;0.0;40.8
2.0;1753876247.108738;15.854335;0.96;-1.7;-0.32;-0.083295;-1.018174;-0.026211;0.0;0.0;153.7;0.0;0.0;10.6
2.0;1753876247.113334;15.835418;0.9;-1.67;-0.42;-0.082991;-1.016478;-0.026954;0.0;0.0;166.7;0.0;0.0;39.6
2.0;1753876247.11793;15.848605;0.9;-1.7;-0.27;-0.082297;-1.016908;-0.026018;0.0;0.0;159.0;0.0;0.0;59.2
2.0;1753876247.122526;15.841134;0.82;-1.67;-0.28;-0.080035;-1.018389;-0.026006;0.0;0.0;157.5;0.0;0.0;35.0
2.0;1753876247.127122;15.861195;0.87;-1.71;-0.22;-0.082652;-1.017011;-0.025314;0.0;0.0;170.1;0.0;0.0;41.0
2.0;1753876247.131718;15.811882;0.96;-1.7;-0.3;-0.080955;-1.016901;-0.02715;0.0;0.0;152.3;0.0;0.0;38.6
2.0;1753876247.136314;15.823911;0.98;-1.75;-0.31;-0.081471;-1.016596;-0.026876;0.0;0.0;169.3;0.0;0.0;20.6
2.0;1753876247.14091;15.829158;0.93;-1.69;-0.23;-0.081528;-1.017436;-0.026191;0.0;0.0;158.4;0.0;0.0;21.3
2.0;1753876247.145506;15.8258;0.98;-1.69;-0.23;-0.080742;-1.016772;-0.026059;0.0;0.0;163.5;0.0;0.0;28.8
2.0;1753876247.150102;15.817524;0.86;-1.69;-0.3;-0.081855;-1.016293;-0.026296;0.0;0.0;158.1;0.0;0.0;22.6
2.0;1753876247.154698;15.815143;0.92;-1.72;-0.3;-0.081226;-1.017135;-0.026412;0.0;0.0;165.3;0.0;0.0;24.2
2.0;1753876247.159294;15.842462;0.91;-1.65;-0.33;-0.082343;-1.016264;-0.025379;0.0;0.0;171.9;0.0;0.0;40.5
2.0;1753876247.16389;15.841188;0.95;-1.69;-0.31;-0.082836;-1.017321;-0.026547;0.0;0.0;168.7;0.0;0.0;29.1
2.0;1753876247.168486;15.834484;0.9;-1.69;-0.33;-0.080942;-1.015642;-0.026621;0.0;0.0;161.6;0.0;0.0;34.9
2.0;1753876247.173082;15.863116;0.99;-1.72;-0.32;-0.082231;-1.01644;-0.02722;0.0;0.0;164.1;0.0;0.0;20.0
2.0;1753876247.177678;15.837875;1.01;-1.71;-0.33;-0.08389;-1.016132;-0.025291;0.0;0.0;164.9;0.0;0.0;40.7
2.0;1753876247.182274;15.833841;0.96;-1.74;-0.36;-0.082549;-1.01704;-0.026368;0.0;0.0;167.7;0.0;0.0;29.1
2.0;1753876247.18687;15.838722;1.04;-1.66;-0.24;-0.081529;-1.016312;-0.026388;0.0;0.0;149.5;0.0;0.0;19.9
2.0;1753876247.191466;15.838507;0.97;-1.66;-0.32;-0.081835;-1.017153;-0.025704;0.0;0.0;165.5;0.0;0.0;28.8
2.0;1753876247.196062;15.827899;0.89;-1.71;-0.32;-0.082174;-1.016164;-0.025271;0.0;0.0;152.9;0.0;0.0;43.5
2.0;1753876247.200658;15.862931;0.97;-1.64;-0.28;-0.080591;-1.017475;-0.02627;0.0;0.0;178.4;0.0;0.0;17.5
2.0;1753876247.205254;15.847186;0.97;-1.71;-0.4;-0.082408;-1.016912;-0.025081;0.0;0.0;165.5;0.0;0.0;38.6
2.0;1753876247.20985;15.822115;0.96;-1.65;-0.29;-0.080557;-1.017301;-0.02694;0.0;0.0;158.2;0.0;0.0;28.3
2.0;1753876247.214446;15.850181;0.93;-1.64;-0.32;-0.081874;-1.018302;-0.026794;0.0;0.0;169.0;0.0;0.0;32.1
2.0;1753876247.219042;15.848943;1.04;-1.7;-0.4;-0.083874;-1.016014;-0.026561;0.0;0.0;171.3;0.0;0.0;44.7
2.0;1753876247.223638;15.816042;0.98;-1.71;-0.34;-0.083151;-1.016205;-0.026977;0.0;0.0;162.6;0.0;0.0;25.0
2.0;1753876247.228234;15.837033;0.92;-1.65;-0.32;-0.080606;-1.018739;-0.026535;0.0;0.0;160.5;0.0;0.0;32.4
2.0;1753876247.23283;15.844807;0.89;-1.7;-0.37;-0.082825;-1.016998;-0.026829;0.0;0.0;170.0;0.0;0.0;37.1
2.0;1753876247.237426;15.856225;0.94;-1.7;-0.34;-0.081349;-1.016804;-0.025641;0.0;0.0;158.8;0.0;0.0;28.3
2.0;1753876247.242022;15.822501;1.02;-1.67;-0.23;-0.083041;-1.017447;-0.025901;0.0;0.0;164.5;0.0;0.0;44.9
2.0;1753876247.246618;15.839489;0.98;-1.71;-0.27;-0.08219;-1.018313;-0.025898;0.0;0.0;160.9;0.0;0.0;28.2
2.0;1753876247.251214;15.853914;0.96;-1.77;-0.34;-0.081901;-1.017511;-0.026831;0.0;0.0;161.0;0.0;0.0;34.5
2.0;1753876247.25581;15.856319;0.97;-1.63;-0.31;-0.082786;-1.017522;-0.025254;0.0;0.0;163.4;0.0;0.0;19.1
2.0;1753876247.260406;15.83354;0.96;-1.62;-0.36;-0.081759;-1.017282;-0.026998;0.0;0.0;155.5;0.0;0.0;40.4
2.0;1753876247.265002;15.838103;0.98;-1.7;-0.31;-0.082646;-1.016245;-0.025736;0.0;0.0;169.2;0.0;0.0;13.4
2.0;1753876247.269598;15.84282;1.01;-1.66;-0.35;-0.082079;-1.017181;-0.02492;0.0;0.0;153.7;0.0;0.0;31.1
2.0;1753876247.274194;15.843328;0.96;-1.69;-0.36;-0.080743;-1.01759;-0.02568;0.0;0.0;169.3;0.0;0.0;28.9
2.0;1753876247.27879;15.831946;1.01;-1.67;-0.3;-0.079652;-1.017188;-0.026279;0.0;0.0;158.3;0.0;0.0;27.8
2.0;1753876247.283386;15.849892;0.96;-1.7;-0.35;-0.083404;-1.016832;-0.026963;0.0;0.0;158.1;0.0;0.0;23.0
2.0;1753876247.287982;15.832646;0.99;-1.74;-0.37;-0.083609;-1.017498;-0.025534;0.0;0.0;164.6;0.0;0.0;22.5
2.0;1753876247.292578;15.833978;1.02;-1.7;-0.34;-0.082892;-1.016391;-0.02695;0.0;0.0;163.9;0.0;0.0;36.7
2.0;1753876247.297174;15.842565;0.99;-1.65;-0.32;-0.082445;-1.017225;-0.025958;0.0;0.0;167.6;0.0;0.0;25.3
2.0;1753876247.30177;15.837283;1.01;-1.68;-0.3;-0.08443;-1.016486;-0.026753;0.0;0.0;169.4;0.0;0.0;35.6
2.0;1753876247.306366;15.83389;0.97;-1.67;-0.31;-0.083251;-1.017628;-0.027129;0.0;0.0;164.4;0.0;0.0;18.9
2.0;1753876247.310962;15.830227;1.03;-1.63;-0.28;-0.081309;-1.018379;-0.027287;0.0;0.0;164.7;0.0;0.0;16.4
2.0;1753876247.315558;15.844475;0.98;-1.66;-0.36;-0.082223;-1.017489;-0.026564;0.0;0.0;151.6;0.0;0.0;35.6
2.0;1753876247.320154;15.831905;0.92;-1.7;-0.28;-0.082809;-1.01773;-0.025879;0.0;0.0;174.4;0.0;0.0;34.4
2.0;1753876247.32475;15.830322;0.97;-1.63;-0.36;-0.082257;-1.018494;-0.026889;0.0;0.0;163.1;0.0;0.0;25.4
2.0;1753876247.329346;15.851824;0.94;-1.75;-0.35;-0.084456;-1.018387;-0.02524;0.0;0.0;163.0;0.0;0.0;35.1
2.0;1753876247.333942;15.817559;0.98;-1.69;-0.37;-0.083415;-1.017955;-0.025583;0.0;0.0;177.3;0.0;0.0;21.2
2.0;1753876247.338538;15.836855;0.98;-1.7;-0.34;-0.082595;-1.017565;-0.026178;0.0;0.0;167.6;0.0;0.0;23.4
2.0;1753876247.343134;15.823629;1.04;-1.68;-0.38;-0.083233;-1.016868;-0.026104;0.0;0.0;163.9;0.0;0.0;36.9
2.0;1753876247.34773;15.855691;0.92;-1.63;-0.33;-0.081353;-1.019149;-0.024358;0.0;0.0;164.9;0.0;0.0;21.6
2.0;1753876247.352326;15.850405;0.95;-1.71;-0.38;-0.084895;-1.0169;-0.026763;0.0;0.0;156.3;0.0;0.0;26.4
2.0;1753876247.356922;15.830355;0.97;-1.8;-0.31;-0.080107;-1.016961;-0.02702;0.0;0.0;173.2;0.0;0.0;21.1
2.0;1753876247.361518;15.857111;1.0;-1.67;-0.38;-0.082335;-1.017668;-0.026267;0.0;0.0;160.7;0.0;0.0;19.6
2.0;1753876247.366114;15.842352;1.0;-1.72;-0.37;-0.082885;-1.018342;-0.02536;0.0;0.0;155.8;0.0;0.0;33.7
2.0;1753876247.374;15.839844;0.98;-1.68;-0.35;-0.082716;-1.017846;-0.025986;0.0;0.0;169.0;0.0;0.0;26.0
2.0;1753876247.378596;15.838222;0.9;-1.68;-0.33;-0.080915;-1.016994;-0.027164;0.0;0.0;162.7;0.0;0.0;33.2
2.0;1753876247.383192;15.855551;0.96;-1.68;-0.37;-0.081731;-1.017516;-0.026952;0.0;0.0;170.5;0.0;0.0;15.3
2.0;1753876247.387788;15.857741;1.06;-1.66;-0.31;-0.08224;-1.018736;-0.02428;0.0;0.0;164.8;0.0;0.0;27.0
2.0;1753876247.392384;15.834906;1.05;-1.71;-0.38;-0.082079;-1.018085;-0.026204;0.0;0.0;172.8;0.0;0.0;39.4
2.0;1753876247.39698;15.859321;0.98;-1.68;-0.37;-0.082915;-1.01793;-0.02553;0.0;0.0;157.8;0.0;0.0;16.1
2.0;1753876247.401576;15.829578;0.92;-1.59;-0.35;-0.082931;-1.018031;-0.02629;0.0;0.0;175.2;0.0;0.0;21.2
2.0;1753876247.406172;15.836509;1.02;-1.71;-0.42;-0.082833;-1.017297;-0.025561;0.0;0.0;177.9;0.0;0.0;22.6
2.0;1753876247.410768;15.839867;0.95;-1.67;-0.33;-0.082831;-1.017156;-0.025087;0.0;0.0;164.0;0.0;0.0;25.4
2.0;1753876247.415364;15.851316;1.01;-1.69;-0.36;-0.083282;-1.018148;-0.026699;0.0;0.0;170.3;0.0;0.0;17.1
2.0;1753876247.41996;15.856679;1.02;-1.72;-0.32;-0.082058;-1.018143;-0.025849;0.0;0.0;160.2;0.0;0.0;31.3
2.0;1753876247.424556;15.846988;0.98;-1.61;-0.2;-0.083334;-1.01739;-0.026765;0.0;0.0;169.6;0.0;0.0;32.4
2.0;1753876247.429152;15.84952;0.93;-1.7;-0.27;-0.08448;-1.018389;-0.026704;0.0;0.0;173.2;0.0;0.0;17.6
2.0;1753876247.433748;15.82894;1.06;-1.65;-0.27;-0.081079;-1.018739;-0.025364;0.0;0.0;170.4;0.0;0.0;21.0
2.0;1753876247.438344;15.799254;0.98;-1.67;-0.51;-0.081125;-1.018471;-0.025065;0.0;0.0;173.3;0.0;0.0;24.4
2.0;1753876247.44294;15.821592;1.03;-1.73;-0.38;-0.082195;-1.017188;-0.026326;0.0;0.0;171.5;0.0;0.0;20.3
2.0;1753876247.447536;15.823474;1.06;-1.67;-0.38;-0.083717;-1.018397;-0.02542;0.0;0.0;168.3;0.0;0.0;36.4
2.0;1753876247.452132;15.832139;1.01;-1.73;-0.3;-0.084298;-1.017554;-0.027662;0.0;0.0;176.4;0.0;0.0;26.4
2.0;1753876247.456728;15.811454;0.99;-1.62;-0.33;-0.082281;-1.016489;-0.026811;0.0;0.0;163.0;0.0;0.0;37.5
2.0;1753876247.461324;15.82693;0.88;-1.55;-0.48;-0.08455;-1.017027;-0.027862;0.0;0.0;157.2;0.0;0.0;33.7
2.0;1753876247.46592;15.856838;0.94;-1.55;-0.38;-0.083163;-1.016844;-0.025662;0.0;0.0;172.8;0.0;0.0;23.9
2.0;1753876247.470516;15.83282;0.93;-1.7;-0.37;-0.082868;-1.018301;-0.025918;0.0;0.0;164.6;0.0;0.0;25.3
2.0;1753876247.475112;15.838582;1.04;-1.65;-0.36;-0.082893;-1.018035;-0.024718;0.0;0.0;159.9;0.0;0.0;21.3
2.0;1753876247.479708;15.844048;0.98;-1.59;-0.35;-0.083126;-1.018201;-0.026555;0.0;0.0;161.8;0.0;0.0;19.8
2.0;1753876247.484304;15.816158;0.99;-1.61;-0.32;-0.08277;-1.017208;-0.025772;0.0;0.0;169.4;0.0;0.0;27.1
2.0;1753876247.4889;15.841839;0.95;-1.65;-0.38;-0.082112;-1.017347;-0.025417;0.0;0.0;163.6;0.0;0.0;24.3
2.0;1753876247.493496;15.838051;0.92;-1.65;-0.36;-0.082282;-1.01812;-0.026737;0.0;0.0;166.2;0.0;0.0;27.8
2.0;1753876247.498092;15.834686;0.96;-1.54;-0.38;-0.081905;-1.017965;-0.024406;0.0;0.0;177.5;0.0;0.0;33.3
2.0;1753876247.502688;15.847309;0.91;-1.69;-0.41;-0.081517;-1.017427;-0.025073;0.0;0.0;169.1;0.0;0.0;36.8
2.0;1753876247.507284;15.861651;0.89;-1.54;-0.25;-0.082659;-1.018952;-0.025605;0.0;0.0;181.5;0.0;0.0;21.2
2.0;1753876247.51188;15.841374;1.1;-1.6;-0.36;-0.083242;-1.017138;-0.025385;0.0;0.0;173.1;0.0;0.0;27.3
2.0;1753876247.516476;15.836295;0.93;-1.6;-0.33;-0.083486;-1.017545;-0.025963;0.0;0.0;159.9;0.0;0.0;37.6
2.0;1753876247.521072;15.861911;1.0;-1.58;-0.4;-0.084607;-1.016733;-0.026891;0.0;0.0;175.4;0.0;0.0;28.4
2.0;1753876247.525668;15.847699;1.05;-1.61;-0.39;-0.084709;-1.018572;-0.026493;0.0;0.0;178.6;0.0;0.0;28.2
2.0;1753876247.530264;15.845744;0.93;-1.75;-0.35;-0.084215;-1.018303;-0.026532;0.0;0.0;174.9;0.0;0.0;26.6
2.0;1753876247.53486;15.825502;0.99;-1.62;-0.47;-0.083591;-1.017853;-0.02567;0.0;0.0;174.7;0.0;0.0;15.8
2.0;1753876247.539456;15.837551;0.95;-1.58;-0.37;-0.081906;-1.017352;-0.026842;0.0;0.0;173.3;0.0;0.0;21.4
2.0;1753876247.544052;15.839967;1.1;-1.65;-0.37;-0.081885;-1.018474;-0.026025;0.0;0.0;177.5;0.0;0.0;36.7
2.0;1753876247.548648;15.837246;1.02;-1.53;-0.39;-0.084815;-1.017788;-0.026543;0.0;0.0;156.4;0.0;0.0;20.2
2.0;1753876247.553244;15.823444;0.96;-1.71;-0.35;-0.083196;-1.01736;-0.025905;0.0;0.0;168.6;0.0;0.0;14.7
2.0;1753876247.55784;15.851851;1.03;-1.79;-0.36;-0.083476;-1.018142;-0.026254;0.0;0.0;155.1;0.0;0.0;40.8
2.0;1753876247.562436;15.864574;1.02;-1.51;-0.35;-0.083065;-1.017232;-0.026508;0.0;0.0;167.1;0.0;0.0;32.8
2.0;1753876247.567032;15.818454;0.96;-1.57;-0.42;-0.08164;-1.018488;-0.025818;0.0;0.0;165.7;0.0;0.0;32.6
2.0;1753876247.571628;15.845143;1.04;-1.62;-0.41;-0.082522;-1.016599;-0.026026;0.0;0.0;163.1;0.0;0.0;31.5
2.0;1753876247.576224;15.825616;0.99;-1.69;-0.3;-0.082006;-1.017132;-0.025735;0.0;0.0;176.4;0.0;0.0;22.2
2.0;1753876247.58082;15.823954;1.01;-1.54;-0.33;-0.083194;-1.018311;-0.026852;0.0;0.0;164.1;0.0;0.0;19.3
2.0;1753876247.585416;15.817461;0.91;-1.61;-0.35;-0.082761;-1.01747;-0.026277;0.0;0.0;176.4;0.0;0.0;31.6
2.0;1753876247.590012;15.843315;0.99;-1.61;-0.41;-0.081923;-1.017339;-0.026283;0.0;0.0;168.8;0.0;0.0;11.3
2.0;1753876247.594608;15.830101;0.97;-1.58;-0.38;-0.08128;-1.017221;-0.025691;0.0;0.0;165.5;0.0;0.0;34.3
2.0;1753876247.599204;15.849;1.05;-1.59;-0.41;-0.082165;-1.018421;-0.026286;0.0;0.0;169.4;0.0;0.0;30.4
2.0;1753876247.6038;15.844744;1.04;-1.6;-0.37;-0.083341;-1.017592;-0.024781;0.0;0.0;174.7;0.0;0.0;27.9
2.0;1753876247.608396;15.857904;0.96;-1.64;-0.3;-0.081589;-1.017355;-0.025561;0.0;0.0;173.0;0.0;0.0;23.4
2.0;1753876247.612992;15.821868;1.07;-1.62;-0.42;-0.082631;-1.018383;-0.026418;0.0;0.0;169.1;0.0;0.0;23.2
2.0;1753876247.617588;15.833515;0.94;-1.57;-0.35;-0.081333;-1.018236;-0.025952;0.0;0.0;166.0;0.0;0.0;17.2
2.0;1753876247.622184;15.819607;0.97;-1.66;-0.36;-0.082764;-1.016942;-0.025813;0.0;0.0;173.9;0.0;0.0;37.0
2.0;1753876247.62678;15.861166;0.96;-1.56;-0.3;-0.08179;-1.016869;-0.026936;0.0;0.0;176.3;0.0;0.0;13.1
2.0;1753876247.631376;15.855466;0.89;-1.6;-0.3;-0.083967;-1.017033;-0.025504;0.0;0.0;161.8;0.0;0.0;16.3
2.0;1753876247.635972;15.821801;0.97;-1.48;-0.29;-0.082905;-1.01883;-0.025676;0.0;0.0;158.4;0.0;0.0;26.1
2.0;1753876247.640568;15.846204;0.98;-1.6;-0.32;-0.082405;-1.0175;-0.026331;0.0;0.0;165.5;0.0;0.0;19.9
2.0;1753876247.645164;15.835823;0.96;-1.71;-0.18;-0.082771;-1.018051;-0.026189;0.0;0.0;168.8;0.0;0.0;36.5
2.0;1753876247.64976;15.825685;0.96;-1.6;-0.39;-0.080458;-1.018145;-0.026575;0.0;0.0;173.2;0.0;0.0;32.5
2.0;1753876247.654356;15.856123;1.07;-1.58;-0.37;-0.083448;-1.019159;-0.025761;0.0;0.0;171.1;0.0;0.0;33.9
2.0;1753876247.658952;15.853264;1.02;-1.6;-0.43;-0.081497;-1.019134;-0.026553;0.0;0.0;179.2;0.0;0.0;29.3
2.0;1753876247.663548;15.831621;0.95;-1.51;-0.36;-0.083115;-1.017414;-0.026584;0.0;0.0;169.7;0.0;0.0;35.5
2.0;1753876247.668144;15.837274;0.88;-1.56;-0.34;-0.082335;-1.018094;-0.026209;0.0;0.0;171.2;0.0;0.0;6.9
2.0;1753876247.67274;15.860667;0.99;-1.59;-0.38;-0.082712;-1.018221;-0.027005;0.0;0.0;160.7;0.0;0.0;25.1
2.0;1753876247.677336;15.831435;1.02;-1.59;-0.29;-0.081369;-1.018791;-0.026501;0.0;0.0;172.3;0.0;0.0;25.0
2.0;1753876247.681932;15.834477;0.91;-1.52;-0.31;-0.082115;-1.018013;-0.024816;0.0;0.0;171.3;0.0;0.0;23.4
2.0;1753876247.686528;15.829596;1.06;-1.58;-0.38;-0.08354;-1.018361;-0.026023;0.0;0.0;160.0;0.0;0.0;27.5
2.0;1753876247.691124;15.834601;1.0;-1.61;-0.38;-0.081259;-1.016766;-0.026254;0.0;0.0;160.2;0.0;0.0;13.4
2.0;1753876247.69572;15.821454;0.98;-1.55;-0.33;-0.082856;-1.016833;-0.024968;0.0;0.0;160.8;0.0;0.0;31.9
2.0;1753876247.700316;15.813122;0.97;-1.64;-0.36;-0.080499;-1.017754;-0.027565;0.0;0.0;162.9;0.0;0.0;22.1
2.0;1753876247.704912;15.845866;1.12;-1.55;-0.29;-0.080034;-1.017049;-0.026235;0.0;0.0;175.0;0.0;0.0;23.9
2.0;1753876247.709508;15.827225;0.97;-1.56;-0.34;-0.082221;-1.018117;-0.026314;0.0;0.0;165.6;0.0;0.0;29.8
2.0;1753876247.714104;15.834816;0.97;-1.55;-0.38;-0.081364;-1.017038;-0.025938;0.0;0.0;163.5;0.0;0.0;16.4
2.0;1753876247.7187;15.821453;0.97;-1.67;-0.37;-0.083692;-1.015962;-0.024891;0.0;0.0;172.0;0.0;0.0;36.1
2.0;1753876247.723296;15.851676;1.01;-1.58;-0.29;-0.081369;-1.017158;-0.02621;0.0;0.0;166.2;0.0;0.0;19.8
2.0;1753876247.727892;15.829012;1.02;-1.58;-0.27;-0.081987;-1.018186;-0.026659;0.0;0.0;164.1;0.0;0.0;26.1
2.0;1753876247.732488;15.830746;1.03;-1.65;-0.43;-0.082452;-1.018877;-0.026705;0.0;0.0;171.7;0.0;0.0;27.3
2.0;1753876247.737084;15.830307;0.99;-1.64;-0.35;-0.082454;-1.01749;-0.026553;0.0;0.0;171.7;0.0;0.0;11.4
2.0;1753876247.74168;15.834652;0.95;-1.54;-0.27;-0.082357;-1.018072;-0.02488;0.0;0.0;168.3;0.0;0.0;24.3
2.0;1753876247.746276;15.85543;0.93;-1.53;-0.37;-0.083378;-1.018044;-0.026113;0.0;0.0;184.3;0.0;0.0;26.9
2.0;1753876247.750872;15.860004;0.94;-1.49;-0.48;-0.080036;-1.017844;-0.025258;0.0;0.0;177.7;0.0;0.0;33.3
2.0;1753876247.755468;15.825781;1.05;-1.52;-0.33;-0.080504;-1.017436;-0.024422;0.0;0.0;174.8;0.0;0.0;24.3
2.0;1753876247.760064;15.841585;1.02;-1.52;-0.36;-0.080807;-1.018104;-0.026674;0.0;0.0;160.2;0.0;0.0;17.8
2.0;1753876247.76466;15.815077;1.01;-1.55;-0.35;-0.081819;-1.018979;-0.025884;0.0;0.0;161.8;0.0;0.0;29.5
2.0;1753876247.769256;15.834872;1.09;-1.5;-0.41;-0.081804;-1.016805;-0.026274;0.0;0.0;170.8;0.0;0.0;30.9
2.0;1753876247.773852;15.831542;1.04;-1.64;-0.31;-0.082625;-1.018331;-0.025802;0.0;0.0;153.9;0.0;0.0;28.1
2.0;1753876247.778448;15.848655;1.0;-1.47;-0.31;-0.080918;-1.018842;-0.026542;0.0;0.0;172.2;0.0;0.0;20.9
2.0;1753876247.783044;15.848962;0.94;-1.51;-0.35;-0.081892;-1.017676;-0.025513;0.0;0.0;172.2;0.0;0.0;39.9
2.0;1753876247.78764;15.835564;0.99;-1.53;-0.37;-0.082708;-1.018341;-0.026065;0.0;0.0;169.0;0.0;0.0;26.5
2.0;1753876247.792236;15.8418;0.94;-1.56;-0.35;-0.081784;-1.017662;-0.025853;0.0;0.0;175.5;0.0;0.0;32.1
2.0;1753876247.796832;15.833913;1.01;-1.55;-0.38;-0.081053;-1.018173;-0.027031;0.0;0.0;167.0;0.0;0.0;39.5
2.0;1753876247.801428;15.864665;0.99;-1.56;-0.36;-0.084349;-1.017786;-0.026028;0.0;0.0;158.5;0.0;0.0;27.7
2.0;1753876247.806024;15.843312;0.93;-1.54;-0.41;-0.083581;-1.018581;-0.025149;0.0;0.0;170.8;0.0;0.0;20.2
2.0;1753876247.81062;15.833985;0.95;-1.58;-0.36;-0.082053;-1.019359;-0.025862;0.0;0.0;171.2;0.0;0.0;26.1
2.0;1753876247.815216;15.855747;1.04;-1.64;-0.32;-0.083169;-1.018343;-0.025512;0.0;0.0;160.1;0.0;0.0;20.5
2.0;1753876247.819812;15.848701;0.99;-1.61;-0.33;-0.08268;-1.017555;-0.027053;0.0;0.0;157.2;0.0;0.0;22.6
2.0;1753876247.824408;15.829094;0.99;-1.56;-0.37;-0.082488;-1.017837;-0.026057;0.0;0.0;163.7;0.0;0.0;31.0
2.0;1753876247.829004;15.842319;1.03;-1.45;-0.32;-0.07973;-1.019369;-0.025157;0.0;0.0;180.9;0.0;0.0;24.6
2.0;1753876247.8336;15.8213;1.01;-1.44;-0.4;-0.081696;-1.018141;-0.02593;0.0;0.0;150.3;0.0;0.0;32.8
2.0;1753876247.8378;15.839844;0.98;-1.54;-0.35;-0.082106;-1.01809;-0.025986;0.0;0.0;169.0;0.0;0.0;26.0
2.0;1753876247.842396;15.809295;0.89;-1.6;-0.35;-0.083991;-1.017395;-0.026007;0.0;0.0;178.6;0.0;0.0;26.6
2.0;1753876247.846992;15.918221;0.87;-1.59;-0.27;-0.080995;-1.016935;-0.02591;0.0;0.0;166.1;0.0;0.0;35.9
2.0;1753876247.85277;15.871094;0.84;-1.68;-0.35;-0.081984;-1.01687;-0.026352;0.0;0.0;146.0;0.0;0.0;32.0
2.0;1753876247.857366;15.871991;0.96;-1.66;-0.31;-0.080825;-1.017666;-0.026722;0.0;0.0;129.7;0.0;0.0;28.4
2.0;1753876247.861962;15.827459;0.84;-1.73;-0.38;-0.079949;-1.017204;-0.024562;0.0;0.0;148.2;0.0;0.0;28.6
2.0;1753876247.866558;15.847011;0.86;-1.69;-0.31;-0.081708;-1.017346;-0.026071;0.0;0.0;150.2;0.0;0.0;29.5
2.0;1753876247.871154;15.830986;0.79;-1.69;-0.33;-0.082085;-1.016673;-0.026288;0.0;0.0;141.1;0.0;0.0;34.9
2.0;1753876247.87575;15.87874;0.85;-1.71;-0.38;-0.081766;-1.016847;-0.025873;0.0;0.0;136.7;0.0;0.0;27.9
2.0;1753876247.880346;15.863722;0.85;-1.77;-0.33;-0.081424;-1.018002;-0.025851;0.0;0.0;143.0;0.0;0.0;29.4
2.0;1753876247.884942;15.893415;0.97;-1.73;-0.35;-0.081707;-1.017327;-0.02693;0.0;0.0;146.5;0.0;0.0;34.7
2.0;1753876247.889538;15.856078;0.89;-1.61;-0.39;-0.082492;-1.016535;-0.026479;0.0;0.0;159.0;0.0;0.0;36.7
2.0;1753876247.894134;15.901958;0.92;-1.75;-0.27;-0.081554;-1.017304;-0.02653;0.0;0.0;142.3;0.0;0.0;35.8
2.0;1753876247.89873;15.863497;0.94;-1.6;-0.38;-0.080832;-1.017539;-0.02718;0.0;0.0;163.0;0.0;0.0;27.2
2.0;1753876247.903326;15.880446;0.9;-1.63;-0.35;-0.081644;-1.018782;-0.02667;0.0;0.0;154.6;0.0;0.0;28.5
2.0;1753876247.907922;15.89854;0.86;-1.62;-0.38;-0.081151;-1.017678;-0.026616;0.0;0.0;153.7;0.0;0.0;35.3
2.0;1753876247.912518;15.883654;0.92;-1.66;-0.34;-0.08004;-1.018499;-0.025844;0.0;0.0;144.0;0.0;0.0;32.2
2.0;1753876247.917114;15.853944;0.95;-1.71;-0.28;-0.080371;-1.018325;-0.025927;0.0;0.0;166.3;0.0;0.0;26.2
2.0;1753876247.92171;15.858126;0.92;-1.62;-0.34;-0.081827;-1.017703;-0.025313;0.0;0.0;144.8;0.0;0.0;32.4
2.0;1753876247.92832;15.871094;0.91;-1.68;-0.35;-0.081252;-1.018456;-0.025986;0.0;0.0;146.0;0.0;0.0;32.0
2.0;1753876247.932916;15.842395;0.92;-1.67;-0.34;-0.081011;-1.018078;-0.02597;0.0;0.0;150.1;0.0;0.0;36.6
2.0;1753876247.937512;15.911944;0.95;-1.6;-0.4;-0.080479;-1.018205;-0.025322;0.0;0.0;151.2;0.0;0.0;28.9
2.0;1753876247.942108;15.836457;0.84;-1.75;-0.37;-0.080833;-1.017675;-0.025718;0.0;0.0;157.0;0.0;0.0;36.2
2.0;1753876247.946704;15.839781;0.91;-1.79;-0.34;-0.082437;-1.017725;-0.026641;0.0;0.0;172.8;0.0;0.0;29.1
2.0;1753876247.9513;15.878214;0.83;-1.72;-0.34;-0.080019;-1.018683;-0.026735;0.0;0.0;164.2;0.0;0.0;26.4
2.0;1753876247.955896;15.834465;0.9;-1.79;-0.35;-0.08117;-1.018475;-0.02661;0.0;0.0;134.4;0.0;0.0;28.6
2.0;1753876247.960492;15.864178;0.91;-1.74;-0.29;-0.081907;-1.018199;-0.027157;0.0;0.0;163.2;0.0;0.0;28.7
2.0;1753876247.965088;15.970829;0.89;-1.75;-0.39;-0.081626;-1.018625;-0.025849;0.0;0.0;155.5;0.0;0.0;26.8
2.0;1753876247.969684;15.872169;0.87;-1.7;-0.37;-0.080478;-1.018518;-0.027338;0.0;0.0;174.5;0.0;0.0;27.8
2.0;1753876247.97428;15.901468;0.9;-1.69;-0.36;-0.080051;-1.017887;-0.025653;0.0;0.0;151.0;0.0;0.0;25.1
2.0;1753876247.978876;15.904879;0.92;-1.75;-0.3;-0.08081;-1.01782;-0.026101;0.0;0.0;167.2;0.0;0.0;23.4
2.0;1753876247.983472;15.847061;0.9;-1.74;-0.34;-0.077855;-1.018077;-0.026264;0.0;0.0;167.0;0.0;0.0;19.5
2.0;1753876247.988068;15.831101;0.87;-1.67;-0.46;-0.079697;-1.018547;-0.027028;0.0;0.0;168.3;0.0;0.0;23.5
2.0;1753876247.99357;15.871094;0.91;-1.75;-0.35;-0.079666;-1.01809;-0.026352;0.0;0.0;164.0;0.0;0.0;22.0
2.0;1753876247.99546;15.925781;0.84;-1.61;-0.35;-0.083204;-1.018212;-0.027694;0.0;0.0;173.0;0.0;0.0;29.0
2.0;1753876248.000056;15.916589;0.87;-1.69;-0.35;-0.083449;-1.018508;-0.027305;0.0;0.0;182.4;0.0;0.0;25.7
2.0;1753876248.004652;15.94311;0.89;-1.65;-0.31;-0.082819;-1.018735;-0.027799;0.0;0.0;168.2;0.0;0.0;30.8
2.0;1753876248.009248;15.9056;0.79;-1.69;-0.37;-0.081917;-1.018625;-0.027566;0.0;0.0;165.3;0.0;0.0;32.7
2.0;1753876248.013844;15.856208;0.82;-1.6;-0.3;-0.084601;-1.017205;-0.026837;0.0;0.0;162.1;0.0;0.0;35.2
