DeviceID;Timestamp;Temperature;GyroX;GyroY;GyroZ;AccelX;AccelY;AccelZ;Dist1;Dist2;Dist3;Err1;Err2;Err3
4.0;1753876672.936078;17.570312;0.63;-1.12;0.0;-0.763598;-0.643062;-0.009028;0.0;0.0;0.0;0.0;0.0;0.0
4.0;1753876672.936352;17.570312;0.63;-1.05;0.07;-0.76555;-0.63928;-0.006954;0.0;0.0;0.0;0.0;0.0;0.0
4.0;1753876672.941106;17.660156;0.63;-1.12;0.14;-0.7625;-0.64294;-0.009394;0.0;0.0;0.0;0.0;0.0;0.0
4.0;1753876672.945447;17.660156;0.56;-1.19;0.14;-0.767136;-0.639158;-0.007808;0.0;0.0;0.0;0.0;0.0;0.0
4.0;1753876672.950048;17.657005;0.44;-0.96;0.4;-0.79634;-0.636977;-0.006113;-0.4;0.0;0.0;-0.1;0.0;0.0
4.0;1753876672.955935;17.660156;0.56;-1.12;0.21;-0.76738;-0.63928;-0.008418;0.0;0.0;0.0;0.0;0.0;0.0
4.0;1753876672.95913;17.636719;0.56;-1.12;0.07;-0.76433;-0.641964;-0.00854;0.0;0.0;0.0;0.0;0.0;0.0
4.0;1753876672.964513;17.636719;0.63;-1.19;0.07;-0.76311;-0.642208;-0.008906;0.0;0.0;0.0;0.0;0.0;0.0
4.0;1753876672.968269;17.636719;0.7;-1.05;0.07;-0.76494;-0.639646;-0.00793;0.0;0.0;0.0;0.0;0.0;0.0
4.0;1753876672.97281;17.636719;0.63;-1.12;0.07;-0.76311;-0.643062;-0.007442;0.0;0.0;0.0;0.0;0.0;0.0
4.0;1753876672.977411;17.617453;0.96;-1.55;1.51;-0.79676;-0.674673;-0.001009;0.8;0.0;-0.0;-0.0;0.0;-0.0
4.0;1753876672.985531;17.578125;0.56;-1.26;0.0;-0.76433;-0.641354;-0.00793;0.0;0.0;0.0;0.0;0.0;0.0
4.0;1753876672.986409;17.578125;0.56;-1.26;0.07;-0.763232;-0.641964;-0.009272;0.0;0.0;0.0;0.0;0.0;0.0
4.0;1753876672.991999;17.578125;0.56;-1.12;0.14;-0.764818;-0.6405;-0.00793;0.0;0.0;0.0;0.0;0.0;0.0
4.0;1753876672.995553;17.605469;0.49;-1.12;0.07;-0.76494;-0.640744;-0.008662;0.0;0.0;0.0;0.0;0.0;0.0
4.0;1753876673.000154;17.604105;1.86;-1.32;-1.71;-0.773871;-0.654991;-0.01415;-1.3;0.0;0.0;0.1;0.0;0.0
4.0;1753876673.004755;17.60709;0.75;-1.08;-3.92;-0.762899;-0.640183;-0.013221;0.5;0.0;0.0;-0.2;0.0;-0.0
4.0;1753876673.009356;17.605137;0.33;-0.71;-0.85;-0.739104;-0.62638;-0.007183;0.4;0.0;0.1;0.0;0.0;0.0
4.0;1753876673.013957;17.607073;0.05;-1.11;1.01;-0.762878;-0.669152;-0.014361;-1.9;0.0;-0.0;0.0;0.0;0.0
4.0;1753876673.018558;17.606308;1.39;-0.89;-1.45;-0.726531;-0.66801;-0.010797;-1.9;0.0;0.0;-0.0;0.0;0.0
4.0;1753876673.023159;17.605414;0.28;-1.29;1.06;-0.794595;-0.641013;0.009339;-1.5;0.0;-0.2;-0.1;0.0;0.0
4.0;1753876673.02776;17.603729;1.2;-0.66;0.96;-0.800359;-0.63724;-0.005801;2.4;0.0;0.0;0.1;0.0;0.0
4.0;1753876673.032361;17.604078;1.3;-2.04;-1.08;-0.762861;-0.631976;-0.011828;2.6;0.0;0.1;0.0;0.0;0.0
4.0;1753876673.036962;17.604801;0.55;-1.52;0.62;-0.784991;-0.64107;0.004525;-0.3;0.0;-0.1;-0.0;0.0;0.0
4.0;1753876673.041563;17.602352;0.28;-0.67;0.01;-0.747961;-0.620911;-0.008561;0.5;0.0;-0.1;0.0;0.0;0.0
4.0;1753876673.046164;17.60914;0.76;-1.74;1.52;-0.778414;-0.64132;-0.002393;-0.3;0.0;-0.0;-0.0;0.0;0.0
4.0;1753876673.050765;17.606814;0.58;-1.26;1.18;-0.77815;-0.640613;-0.00778;-2.1;0.0;0.0;0.1;0.0;-0.0
4.0;1753876673.055366;17.604045;0.28;-1.69;-1.37;-0.717936;-0.629737;-0.009676;0.7;0.0;-0.2;0.2;0.0;-0.0
4.0;1753876673.059967;17.60402;0.77;-0.67;-1.27;-0.764714;-0.61372;-0.019245;0.3;0.0;0.1;0.2;0.0;-0.0
4.0;1753876673.064568;17.607776;0.79;-1.41;1.04;-0.738857;-0.635645;-0.017488;-0.5;0.0;0.1;-0.1;0.0;-0.0
4.0;1753876673.069169;17.60222;-0.15;-1.28;0.07;-0.76475;-0.625404;-0.007458;0.6;0.0;-0.0;-0.1;0.0;0.0
4.0;1753876673.07377;17.606747;0.25;-1.2;2.04;-0.710076;-0.659334;-0.004102;0.2;0.0;0.1;0.0;0.0;0.0
4.0;1753876673.078371;17.606385;0.63;-1.61;-0.7;-0.748056;-0.639844;-0.016016;-0.1;0.0;0.0;0.0;0.0;-0.0
4.0;1753876673.082972;17.605269;1.38;-2.5;-1.19;-0.80082;-0.645029;-0.007146;-0.8;0.0;-0.1;-0.1;0.0;0.0
4.0;1753876673.087573;17.603213;0.61;-0.62;-1.58;-0.783536;-0.607436;-0.010773;-0.6;0.0;-0.0;-0.2;0.0;-0.0
4.0;1753876673.092174;17.606041;0.49;-1.22;0.75;-0.761112;-0.6649;-0.006321;1.1;0.0;0.0;0.1;0.0;0.0
4.0;1753876673.096775;17.603172;0.37;-0.52;0.47;-0.723749;-0.65862;-0.005129;-1.1;0.0;0.0;0.2;0.0;-0.0
4.0;1753876673.101376;17.60613;-0.55;-0.9;1.53;-0.731921;-0.657799;-0.009797;-0.6;0.0;-0.0;0.0;0.0;0.0
4.0;1753876673.105977;17.604655;0.39;-0.91;-0.57;-0.707222;-0.67019;-0.016405;0.4;0.0;-0.0;-0.0;0.0;0.0
4.0;1753876673.110578;17.604838;0.22;-1.01;0.06;-0.763189;-0.616105;-0.00837;0.8;0.0;0.0;-0.2;0.0;-0.0
4.0;1753876673.115179;17.605911;-0.1;-1.15;-0.29;-0.779678;-0.624532;-0.012026;-1.9;0.0;-0.2;0.0;0.0;0.0
4.0;1753876673.11978;17.608191;-0.17;-1.29;-0.47;-0.808765;-0.663317;-0.002342;0.0;0.0;-0.0;0.3;0.0;-0.0
4.0;1753876673.124381;17.605666;1.08;-1.29;0.53;-0.761535;-0.652358;-0.009712;1.9;0.0;0.1;0.2;0.0;0.0
4.0;1753876673.128982;17.603626;0.5;-0.61;-0.85;-0.837036;-0.625949;-0.000106;-0.4;0.0;0.0;0.2;0.0;-0.0
4.0;1753876673.133583;17.604901;-0.01;-0.79;-0.27;-0.763293;-0.647423;-0.007797;-0.6;0.0;-0.0;0.2;0.0;-0.0
4.0;1753876673.138184;17.607393;0.5;-1.43;0.57;-0.776167;-0.643436;-0.001989;0.5;0.0;-0.1;-0.1;0.0;0.0
4.0;1753876673.142785;17.604757;0.62;-1.04;0.41;-0.741718;-0.617303;0.012239;-1.0;0.0;-0.1;-0.2;0.0;-0.0
4.0;1753876673.147386;17.601918;1.2;-1.29;1.75;-0.788678;-0.634761;-0.020876;-0.4;0.0;-0.1;0.1;0.0;-0.0
4.0;1753876673.151987;17.607497;0.63;-1.29;0.25;-0.767846;-0.620776;-0.006497;-0.4;0.0;-0.1;-0.0;0.0;-0.0
4.0;1753876673.156588;17.604832;0.6;-1.23;0.6;-0.768356;-0.646402;-0.009239;1.9;0.0;0.1;0.1;0.0;-0.0
4.0;1753876673.161189;17.603683;0.28;0.23;-0.36;-0.783393;-0.664269;-0.011522;-1.5;0.0;-0.1;-0.0;0.0;0.0
4.0;1753876673.16579;17.602816;0.23;-0.51;-0.72;-0.763812;-0.635989;-0.014514;-1.0;0.0;0.0;0.3;0.0;0.0
4.0;1753876673.170391;17.608825;-0.27;-1.31;-0.55;-0.78801;-0.630581;-0.016413;0.0;0.0;0.0;-0.0;0.0;0.0
4.0;1753876673.174992;17.608403;0.71;-0.72;1.9;-0.750027;-0.628324;-0.001713;-1.0;0.0;-0.0;0.1;0.0;-0.0
4.0;1753876673.179593;17.608182;0.08;-1.4;0.97;-0.789332;-0.65798;-0.012813;-0.4;0.0;0.0;0.1;0.0;-0.0
4.0;1753876673.184194;17.604806;0.81;-0.47;0.5;-0.788198;-0.610902;-0.027763;-0.9;0.0;-0.3;0.4;0.0;0.0
4.0;1753876673.188795;17.605887;1.02;-1.4;-0.09;-0.735122;-0.650528;-0.018399;0.2;0.0;-0.0;0.0;0.0;-0.0
4.0;1753876673.193396;17.603359;0.61;-0.67;-0.05;-0.730224;-0.681542;-0.011543;0.2;0.0;-0.1;0.0;0.0;0.0
4.0;1753876673.197997;17.606286;0.11;-0.24;-0.31;-0.740341;-0.672654;-0.010796;1.8;0.0;0.0;-0.3;0.0;0.0
4.0;1753876673.202598;17.605307;0.25;-0.78;-0.06;-0.732132;-0.644338;-0.008799;-0.4;0.0;-0.1;0.1;0.0;-0.0
4.0;1753876673.207199;17.60649;0.31;-1.25;0.62;-0.757275;-0.616029;0.002155;-0.6;0.0;0.0;-0.2;0.0;0.0
4.0;1753876673.2118;17.607498;-0.23;-1.47;-0.3;-0.724372;-0.641319;-0.013067;1.0;0.0;-0.1;0.1;0.0;0.0
4.0;1753876673.216401;17.610093;0.5;-0.24;1.92;-0.73877;-0.605901;0.001973;0.6;0.0;-0.1;0.0;0.0;0.0
4.0;1753876673.221002;17.608142;-0.29;-1.2;3.14;-0.815114;-0.643339;-0.018654;0.7;0.0;-0.1;-0.2;0.0;-0.0
4.0;1753876673.225603;17.605733;0.75;-1.21;0.67;-0.748944;-0.626702;-0.010403;-0.1;0.0;-0.0;-0.1;0.0;-0.0
4.0;1753876673.230204;17.607566;0.98;-1.09;0.11;-0.756593;-0.631603;-0.002534;-0.1;0.0;0.0;0.2;0.0;0.0
4.0;1753876673.234805;17.606345;0.54;-2.05;-0.98;-0.80368;-0.626837;-0.009056;-0.2;0.0;-0.1;0.2;0.0;0.0
4.0;1753876673.239406;17.60815;0.03;-0.78;0.51;-0.739772;-0.666616;-0.021226;0.3;0.0;0.0;-0.1;0.0;-0.0
4.0;1753876673.244007;17.604064;0.67;-2.23;0.23;-0.712552;-0.669018;-0.002993;0.0;0.0;-0.0;0.1;0.0;-0.0
4.0;1753876673.248608;17.605572;1.13;-0.84;1.04;-0.760176;-0.643881;-0.013998;1.1;0.0;-0.2;0.1;0.0;-0.0
4.0;1753876673.253209;17.605892;0.65;-0.75;0.32;-0.751316;-0.622266;-0.013006;-0.2;0.0;-0.1;-0.0;0.0;-0.0
4.0;1753876673.25781;17.604857;1.13;-1.01;-0.62;-0.775884;-0.621503;-0.017718;-0.2;0.0;-0.1;-0.1;0.0;0.0
4.0;1753876673.262411;17.605253;0.22;-1.81;0.07;-0.810085;-0.669827;-0.004115;1.4;0.0;0.0;0.0;0.0;-0.0
4.0;1753876673.267012;17.604979;0.8;-1.3;0.84;-0.76212;-0.643153;-0.006282;-0.6;0.0;0.2;0.2;0.0;0.0
4.0;1753876673.271613;17.607648;1.06;-1.23;1.43;-0.79952;-0.63564;-0.013876;0.0;0.0;0.0;-0.0;0.0;0.0
4.0;1753876673.276214;17.606282;0.4;-1.02;1.86;-0.775343;-0.659957;0.002641;-0.7;0.0;0.0;0.0;0.0;-0.0
4.0;1753876673.280815;17.605887;0.87;-1.41;-1.09;-0.755649;-0.660913;-0.013837;0.0;0.0;0.0;0.1;0.0;-0.0
4.0;1753876673.285416;17.607219;0.17;-0.65;0.54;-0.816606;-0.698352;-0.016019;-0.9;0.0;-0.0;-0.1;0.0;-0.0
4.0;1753876673.290017;17.601914;0.2;-1.81;-0.07;-0.769867;-0.647417;-0.008987;0.6;0.0;0.0;0.0;0.0;0.0
4.0;1753876673.294618;17.606967;-0.13;-1.37;-0.77;-0.789669;-0.647113;-0.007301;2.4;0.0;0.1;0.1;0.0;0.0
4.0;1753876673.299219;17.604982;0.68;-1.23;0.94;-0.784528;-0.641198;-0.008647;1.8;0.0;0.1;0.1;0.0;-0.0
4.0;1753876673.30382;17.602404;0.84;-0.85;0.28;-0.784755;-0.60728;-0.016731;-1.8;0.0;-0.1;0.0;0.0;-0.0
4.0;1753876673.308421;17.608667;0.51;-0.64;-0.14;-0.760993;-0.651398;-0.005096;-0.1;0.0;-0.1;-0.0;0.0;-0.0
4.0;1753876673.313022;17.604725;0.04;-1.41;0.89;-0.735555;-0.626765;0.003882;1.1;0.0;0.2;0.2;0.0;-0.0
4.0;1753876673.317623;17.603187;0.07;-1.33;2.29;-0.775994;-0.688709;-0.013703;-1.1;0.0;-0.0;0.1;0.0;0.0
4.0;1753876673.322224;17.604879;0.48;-1.49;-1.18;-0.768589;-0.652887;-0.008969;-1.3;0.0;-0.1;-0.2;0.0;0.0
4.0;1753876673.326825;17.603628;1.17;-1.19;0.82;-0.7454;-0.631437;-0.018673;0.4;0.0;0.0;0.0;0.0;-0.0
4.0;1753876673.331426;17.606542;0.11;-1.07;0.63;-0.782308;-0.659507;-0.020309;0.0;0.0;0.0;-0.1;0.0;-0.0
4.0;1753876673.336027;17.604327;1.16;-0.61;-1.77;-0.737891;-0.62239;-0.010211;0.2;0.0;0.1;0.2;0.0;-0.0
4.0;1753876673.340628;17.605858;0.91;-0.56;0.53;-0.788813;-0.588482;-0.018015;-0.1;0.0;-0.1;-0.1;0.0;-0.0
4.0;1753876673.345229;17.603293;0.39;-1.28;1.41;-0.783145;-0.646819;-0.013255;-1.5;0.0;0.0;-0.1;0.0;-0.0
4.0;1753876673.34983;17.605705;0.3;-1.19;0.81;-0.744122;-0.645345;-0.004628;0.3;0.0;0.2;0.1;0.0;0.0
4.0;1753876673.354431;17.603299;0.24;-0.69;-1.2;-0.732998;-0.640351;-0.009013;1.2;0.0;-0.1;0.0;0.0;-0.0
4.0;1753876673.359032;17.607513;-0.04;-0.06;1.5;-0.719792;-0.637866;-0.018163;1.2;0.0;-0.0;-0.1;0.0;-0.0
4.0;1753876673.363633;17.606057;0.42;-0.99;1.8;-0.722961;-0.666901;-0.018715;0.8;0.0;-0.1;0.1;0.0;-0.0
4.0;1753876673.368234;17.606631;0.31;-0.96;0.43;-0.774505;-0.604659;-0.01645;0.1;0.0;0.1;0.0;0.0;0.0
4.0;1753876673.372835;17.604927;0.54;-1.51;0.37;-0.78788;-0.636111;-0.008642;-0.8;0.0;-0.0;-0.0;0.0;0.0
4.0;1753876673.377436;17.606384;1.6;-0.68;0.23;-0.724812;-0.618347;-0.01064;1.8;0.0;0.1;0.1;0.0;0.0
4.0;1753876673.382037;17.603713;0.38;-1.0;-1.79;-0.796597;-0.621354;-0.00351;0.4;0.0;0.2;-0.0;0.0;0.0
4.0;1753876673.39;17.605469;0.56;-1.12;0.14;-0.76311;-0.644038;-0.010004;0.0;0.0;0.0;0.0;0.0;0.0
4.0;1753876673.394601;17.607666;-0.19;-1.53;-0.43;-0.771903;-0.616644;-0.008127;-0.2;0.0;-0.0;-0.1;0.0;-0.0
4.0;1753876673.399202;17.606427;1.11;-0.07;-1.09;-0.752849;-0.638848;-0.007991;1.6;0.0;-0.1;-0.2;0.0;-0.0
4.0;1753876673.403803;17.608149;1.63;-1.18;0.35;-0.758787;-0.618844;-0.023591;-0.6;0.0;-0.1;-0.1;0.0;0.0
4.0;1753876673.408404;17.605093;0.36;-0.59;2.47;-0.79319;-0.638708;-0.000901;-1.7;0.0;0.2;-0.0;0.0;-0.0
4.0;1753876673.413005;17.606223;0.82;-0.66;0.55;-0.757751;-0.648203;-0.013094;0.1;0.0;-0.1;-0.1;0.0;-0.0
4.0;1753876673.417606;17.606617;1.33;-1.57;1.07;-0.748712;-0.620441;-0.001529;0.2;0.0;0.1;0.0;0.0;-0.0
4.0;1753876673.422207;17.607095;0.72;-1.23;-0.18;-0.762169;-0.655678;-0.014136;1.9;0.0;0.1;0.3;0.0;0.0
4.0;1753876673.426808;17.608415;0.0;-1.38;-0.8;-0.776352;-0.677511;-0.003366;0.7;0.0;0.2;0.1;0.0;0.0
4.0;1753876673.431409;17.605826;0.78;-0.8;0.62;-0.768534;-0.665719;-0.009214;-0.1;0.0;0.0;0.0;0.0;-0.0
4.0;1753876673.43601;17.605946;0.94;-1.24;-0.99;-0.757232;-0.668333;-0.009374;-0.1;0.0;0.1;0.0;0.0;-0.0
4.0;1753876673.440611;17.605961;0.04;-0.86;0.01;-0.796911;-0.666042;-0.012407;-0.7;0.0;0.0;0.1;0.0;-0.0
4.0;1753876673.445212;17.607708;1.63;-0.53;0.53;-0.810565;-0.640574;-0.015621;-0.5;0.0;-0.1;0.1;0.0;0.0
4.0;1753876673.449813;17.605086;0.34;-1.02;0.4;-0.755672;-0.629213;-0.015177;-0.5;0.0;-0.0;0.2;0.0;0.0
4.0;1753876673.454414;17.60793;0.66;-1.01;-0.93;-0.789476;-0.662471;-0.013706;-0.4;0.0;0.1;0.0;0.0;0.0
4.0;1753876673.4613;17.605469;0.63;-1.19;0.07;-0.766648;-0.640256;-0.008052;0.0;0.0;0.0;0.0;0.0;0.0
4.0;1753876673.465901;17.606132;0.19;-1.04;-0.2;-0.735152;-0.629988;-0.010582;1.3;0.0;-0.0;0.1;0.0;0.0
4.0;1753876673.470502;17.603358;0.52;-1.61;-1.72;-0.804894;-0.630439;-0.014136;1.9;0.0;-0.2;-0.0;0.0;0.0
4.0;1753876673.475103;17.607367;1.54;-1.19;-0.68;-0.758525;-0.618548;-0.011674;0.1;0.0;-0.0;-0.1;0.0;0.0
4.0;1753876673.479704;17.605633;0.76;-0.62;-0.42;-0.787103;-0.62824;-0.000661;-0.3;0.0;-0.1;-0.1;0.0;0.0
4.0;1753876673.484305;17.605957;0.16;-1.57;0.96;-0.730023;-0.654516;-0.0146;-0.1;0.0;-0.1;0.0;0.0;0.0
4.0;1753876673.488906;17.604619;0.9;-1.49;0.46;-0.779549;-0.673385;0.000609;-0.9;0.0;0.0;-0.1;0.0;-0.0
4.0;1753876673.493507;17.605186;0.33;-2.14;-1.08;-0.760811;-0.637714;-0.010677;-0.6;0.0;0.0;0.3;0.0;-0.0
4.0;1753876673.498108;17.608206;0.75;-1.02;-0.07;-0.822854;-0.616102;-0.005177;0.9;0.0;0.1;0.1;0.0;0.0
4.0;1753876673.502709;17.605081;0.75;-1.21;0.97;-0.775395;-0.630708;-0.008095;0.1;0.0;-0.0;-0.1;0.0;-0.0
4.0;1753876673.50731;17.604774;0.56;-1.47;0.56;-0.781737;-0.648067;-0.007547;-0.8;0.0;-0.2;0.0;0.0;-0.0
4.0;1753876673.511911;17.607058;0.73;-1.84;-0.86;-0.77123;-0.680961;-0.007185;-0.3;0.0;0.0;-0.1;0.0;0.0
4.0;1753876673.516512;17.60831;0.36;-1.08;-1.89;-0.746172;-0.6626;-0.017479;-0.0;0.0;0.1;0.1;0.0;0.0
4.0;1753876673.521113;17.604638;1.1;-1.01;0.28;-0.805901;-0.621139;-0.015623;-1.7;0.0;0.1;0.0;0.0;0.0
4.0;1753876673.525714;17.607362;0.66;-1.16;-0.13;-0.739326;-0.639978;-0.021618;-0.3;0.0;-0.0;0.0;0.0;-0.0
4.0;1753876673.530315;17.606612;0.32;-1.88;1.01;-0.753993;-0.592952;-0.002957;0.4;0.0;-0.1;-0.0;0.0;-0.0
4.0;1753876673.534916;17.603957;0.27;-0.03;-1.68;-0.813784;-0.605781;-0.004567;0.7;0.0;-0.0;0.0;0.0;0.0
4.0;1753876673.539517;17.607279;1.09;-0.78;1.04;-0.802396;-0.611528;-0.001753;-0.1;0.0;0.0;0.2;0.0;0.0
4.0;1753876673.544118;17.606013;0.76;-1.44;0.46;-0.753476;-0.661125;-0.005651;0.0;0.0;-0.1;0.0;0.0;0.0
4.0;1753876673.548719;17.60468;0.6;-0.64;-1.63;-0.747731;-0.667539;-0.013531;0.1;0.0;-0.1;-0.0;0.0;0.0
4.0;1753876673.55332;17.605865;0.67;-0.18;1.15;-0.752333;-0.635238;-0.020717;-0.2;0.0;-0.0;0.1;0.0;-0.0
4.0;1753876673.557921;17.605081;0.57;-1.05;1.24;-0.773148;-0.668312;-0.007916;-0.6;0.0;-0.1;0.0;0.0;0.0
4.0;1753876673.562522;17.60842;-0.03;-2.1;1.17;-0.757478;-0.621308;-0.011357;0.7;0.0;-0.1;0.1;0.0;0.0
4.0;1753876673.567123;17.603097;0.48;-0.74;0.58;-0.780695;-0.606148;-0.008652;1.1;0.0;0.0;-0.1;0.0;-0.0
4.0;1753876673.571724;17.605456;0.39;-0.96;-0.54;-0.77519;-0.636287;-0.015147;1.1;0.0;-0.0;-0.1;0.0;-0.0
4.0;1753876673.576325;17.607415;0.38;-0.71;0.27;-0.75589;-0.669308;-0.018625;-1.0;0.0;0.0;0.1;0.0;0.0
4.0;1753876673.580926;17.606384;1.09;-1.26;-0.49;-0.763538;-0.678294;-0.000651;-0.9;0.0;0.1;0.1;0.0;-0.0
4.0;1753876673.585527;17.603644;1.14;-1.79;-0.54;-0.767973;-0.658536;-0.01185;0.3;0.0;-0.1;0.1;0.0;-0.0
4.0;1753876673.590128;17.603976;0.68;-0.73;1.42;-0.75232;-0.677807;-0.003052;-0.5;0.0;0.1;0.0;0.0;0.0
4.0;1753876673.594729;17.60463;0.32;-1.5;-0.76;-0.742373;-0.640946;-0.011901;-0.6;0.0;-0.1;0.2;0.0;0.0
4.0;1753876673.59933;17.604166;0.57;-1.81;-1.58;-0.732512;-0.625254;-0.02181;-1.6;0.0;0.0;-0.0;0.0;-0.0
4.0;1753876673.603931;17.606733;0.47;-1.39;0.65;-0.783727;-0.685631;-0.001975;0.8;0.0;-0.0;-0.2;0.0;-0.0
4.0;1753876673.608532;17.605207;0.27;-1.55;2.2;-0.738858;-0.638566;0.000985;-1.0;0.0;-0.1;0.0;0.0;0.0
4.0;1753876673.613133;17.59992;0.4;-1.24;-0.73;-0.777434;-0.638982;-0.006772;-0.4;0.0;0.0;-0.2;0.0;-0.0
4.0;1753876673.617734;17.605018;1.08;-1.81;0.58;-0.760823;-0.626179;-0.013262;0.3;0.0;-0.0;0.3;0.0;0.0
4.0;1753876673.622335;17.602177;1.06;-0.66;0.0;-0.818229;-0.641704;-0.000464;0.3;0.0;0.2;-0.1;0.0;0.0
4.0;1753876673.626936;17.607096;0.02;-1.36;-0.8;-0.748485;-0.630766;-0.018161;-0.4;0.0;-0.0;-0.1;0.0;-0.0
4.0;1753876673.631537;17.603545;0.8;-2.55;-1.0;-0.75177;-0.654736;-0.017077;-0.8;0.0;-0.1;0.1;0.0;-0.0
4.0;1753876673.636138;17.605106;0.06;-1.18;0.54;-0.788774;-0.6096;-0.012534;1.2;0.0;-0.0;0.0;0.0;-0.0
4.0;1753876673.640739;17.603744;0.4;-1.12;1.88;-0.75694;-0.606647;-0.019184;-0.4;0.0;0.0;-0.1;0.0;0.0
4.0;1753876673.64534;17.606756;0.64;-0.5;0.23;-0.791504;-0.641334;-0.006553;-0.8;0.0;-0.1;-0.2;0.0;-0.0
4.0;1753876673.649941;17.605174;0.72;-1.49;-0.41;-0.772291;-0.588003;-0.000998;-1.0;0.0;-0.2;0.1;0.0;0.0
4.0;1753876673.654542;17.605992;0.44;-1.33;-0.84;-0.71621;-0.617789;0.002109;1.0;0.0;-0.2;0.3;0.0;-0.0
4.0;1753876673.659143;17.606691;0.47;-1.53;-0.26;-0.789768;-0.621382;-0.005296;1.0;0.0;0.1;-0.1;0.0;-0.0
4.0;1753876673.663744;17.60578;0.91;-1.32;-1.44;-0.743039;-0.670475;0.002019;-0.3;0.0;-0.2;-0.0;0.0;-0.0
4.0;1753876673.668345;17.605285;0.57;-0.98;0.67;-0.786321;-0.658986;-0.000281;-0.5;0.0;0.0;0.0;0.0;0.0
4.0;1753876673.672946;17.605454;0.72;-0.78;-1.15;-0.738487;-0.669124;-0.002315;0.5;0.0;0.1;-0.1;0.0;-0.0
4.0;1753876673.677547;17.603464;-0.26;-0.91;-0.6;-0.775462;-0.639961;-0.021026;0.1;0.0;-0.0;0.0;0.0;0.0
4.0;1753876673.682148;17.606461;0.73;-0.83;0.38;-0.754709;-0.609804;-0.009727;-1.0;0.0;-0.1;-0.0;0.0;-0.0
4.0;1753876673.686749;17.605905;0.76;-1.29;-1.93;-0.725131;-0.6486;-0.019208;0.8;0.0;0.1;0.1;0.0;-0.0
4.0;1753876673.69135;17.604386;0.63;-1.12;-1.04;-0.744965;-0.607827;-0.017583;-1.3;0.0;-0.1;0.2;0.0;0.0
4.0;1753876673.695951;17.604509;1.14;-0.76;2.09;-0.775631;-0.688819;-0.017555;0.8;0.0;0.1;0.0;0.0;-0.0
4.0;1753876673.700552;17.605988;0.29;-1.58;0.04;-0.76034;-0.598062;-0.005472;0.3;0.0;-0.0;-0.1;0.0;-0.0
4.0;1753876673.705153;17.607178;0.54;-1.41;0.74;-0.773162;-0.594348;-0.02219;0.9;0.0;0.2;-0.2;0.0;-0.0
4.0;1753876673.709754;17.607421;0.43;-1.48;-0.94;-0.791361;-0.622261;-0.005144;1.2;0.0;-0.0;-0.0;0.0;-0.0
4.0;1753876673.714355;17.602436;0.75;-1.45;1.34;-0.75253;-0.663172;-0.002931;-1.1;0.0;-0.0;0.2;0.0;0.0
4.0;1753876673.718956;17.605887;-0.04;-0.99;-0.91;-0.73411;-0.62684;-0.014615;-0.1;0.0;0.1;0.0;0.0;-0.0
4.0;1753876673.723557;17.606119;0.12;-1.25;0.68;-0.745162;-0.655063;0.009018;-0.5;0.0;0.1;0.0;0.0;0.0
4.0;1753876673.728158;17.604513;1.24;-0.84;-0.25;-0.756452;-0.647901;-0.004187;0.7;0.0;-0.1;-0.2;0.0;-0.0
4.0;1753876673.732759;17.608307;0.82;-1.26;0.55;-0.769608;-0.658468;-0.013497;-0.5;0.0;-0.0;0.2;0.0;-0.0
4.0;1753876673.73736;17.607142;0.89;-1.23;0.38;-0.75497;-0.692037;-0.008475;0.6;0.0;-0.0;0.1;0.0;0.0
4.0;1753876673.741961;17.606077;0.26;-0.8;-2.84;-0.755396;-0.689953;-0.006232;-0.1;0.0;0.1;0.2;0.0;-0.0
4.0;1753876673.746562;17.604992;0.79;-1.63;-0.73;-0.750737;-0.673777;-0.00361;0.7;0.0;-0.2;-0.1;0.0;-0.0
4.0;1753876673.751163;17.606089;0.34;-1.77;0.01;-0.779465;-0.643957;-0.017468;-0.4;0.0;0.0;0.0;0.0;0.0
4.0;1753876673.755764;17.60633;0.49;-0.97;-0.14;-0.759814;-0.639205;-0.006383;0.0;0.0;0.1;-0.2;0.0;-0.0
4.0;1753876673.760365;17.603097;1.08;-0.89;0.3;-0.779664;-0.64796;-0.011071;-0.1;0.0;0.0;-0.0;0.0;-0.0
4.0;1753876673.764966;17.606253;0.73;-0.91;-1.21;-0.801299;-0.61088;-0.010353;-0.3;0.0;-0.1;-0.1;0.0;0.0
4.0;1753876673.769567;17.608231;0.93;-1.84;-1.9;-0.757983;-0.611905;-0.010205;0.1;0.0;-0.1;0.1;0.0;0.0
4.0;1753876673.774168;17.601098;0.62;-1.35;-0.38;-0.761176;-0.639496;-0.006762;0.2;0.0;0.1;0.0;0.0;-0.0
4.0;1753876673.778769;17.606419;0.39;-1.0;-2.7;-0.734962;-0.612176;-0.017521;1.2;0.0;0.0;0.1;0.0;0.0
4.0;1753876673.78337;17.605029;0.78;-0.84;-0.86;-0.763707;-0.655939;-0.005792;-1.3;0.0;0.1;0.1;0.0;-0.0
4.0;1753876673.787971;17.605835;0.9;-0.96;-0.94;-0.75124;-0.659421;-0.005076;-0.4;0.0;0.1;0.0;0.0;0.0
4.0;1753876673.792572;17.604205;0.45;-0.89;1.92;-0.740934;-0.639199;-0.014063;0.3;0.0;0.0;-0.1;0.0;0.0
4.0;1753876673.797173;17.602154;1.17;-1.18;0.41;-0.779505;-0.592043;-0.006626;0.5;0.0;0.1;-0.1;0.0;0.0
4.0;1753876673.801774;17.606555;0.41;-2.05;-1.03;-0.74743;-0.613285;-0.019742;-1.2;0.0;-0.1;-0.2;0.0;0.0
4.0;1753876673.806375;17.604384;1.74;-1.01;0.55;-0.742893;-0.629074;-0.01491;0.7;0.0;0.0;0.0;0.0;0.0
4.0;1753876673.810976;17.603094;1.04;-1.31;-1.27;-0.766901;-0.637761;-0.015896;0.1;0.0;0.1;0.2;0.0;-0.0
4.0;1753876673.815577;17.605105;-0.08;-1.83;0.11;-0.740818;-0.649965;-0.018533;-0.3;0.0;0.1;-0.0;0.0;-0.0
4.0;1753876673.820178;17.605059;0.64;-1.4;-0.33;-0.791271;-0.641045;-0.010642;-1.5;0.0;0.1;0.1;0.0;-0.0
4.0;1753876673.824779;17.607722;0.95;-0.58;0.04;-0.820587;-0.625413;-0.004778;-0.8;0.0;-0.1;0.0;0.0;-0.0
4.0;1753876673.82938;17.604152;0.24;-0.92;0.41;-0.766743;-0.637962;-0.012555;0.8;0.0;0.0;0.0;0.0;-0.0
4.0;1753876673.833981;17.606593;-0.03;-1.94;-0.82;-0.750791;-0.638577;-0.012675;0.0;0.0;-0.2;-0.1;0.0;-0.0
4.0;1753876673.838582;17.605174;0.31;-1.31;-1.03;-0.71029;-0.653568;-0.009428;0.3;0.0;0.1;-0.1;0.0;-0.0
4.0;1753876673.843183;17.602572;0.35;-0.65;1.17;-0.799613;-0.644712;-0.007199;-1.3;0.0;-0.0;-0.2;0.0;0.0
4.0;1753876673.847784;17.600578;0.68;-0.83;-0.31;-0.757992;-0.643063;-0.012098;1.5;0.0;0.1;0.3;0.0;0.0
4.0;1753876673.852385;17.607516;1.22;-1.03;-0.59;-0.75718;-0.62899;-0.018719;0.8;0.0;-0.1;-0.2;0.0;-0.0
4.0;1753876673.856986;17.605172;1.15;-1.41;-0.31;-0.796971;-0.668982;-0.007915;0.5;0.0;0.1;-0.2;0.0;-0.0
4.0;1753876673.861587;17.606851;0.58;-0.62;-0.44;-0.764138;-0.642771;-0.005837;-0.3;0.0;0.0;0.0;0.0;0.0
4.0;1753876673.866188;17.606008;1.12;-1.03;1.36;-0.77966;-0.620876;-0.019999;-0.6;0.0;-0.1;-0.1;0.0;0.0
4.0;1753876673.870789;17.604453;0.23;-1.35;-0.45;-0.755545;-0.613491;-0.017804;-0.2;0.0;-0.1;0.0;0.0;0.0
4.0;1753876673.87539;17.606269;1.43;-1.27;-0.24;-0.822887;-0.622342;-0.008464;0.7;0.0;0.0;0.1;0.0;0.0
4.0;1753876673.879991;17.606414;-0.02;-1.17;1.25;-0.758881;-0.610129;-0.00547;1.6;0.0;-0.1;-0.1;0.0;-0.0
4.0;1753876673.884592;17.604983;0.28;-1.31;-0.98;-0.761166;-0.646226;0.00328;1.2;0.0;-0.1;0.1;0.0;0.0
4.0;1753876673.889193;17.604845;0.91;-1.08;1.31;-0.722151;-0.628828;-0.006843;0.6;0.0;0.1;-0.0;0.0;0.0
4.0;1753876673.893794;17.604895;1.08;-1.86;-0.82;-0.769058;-0.688455;-0.011108;-0.1;0.0;0.0;0.1;0.0;-0.0
4.0;1753876673.898395;17.608469;0.72;-0.97;-3.11;-0.715679;-0.647734;-0.009539;0.2;0.0;0.2;-0.0;0.0;-0.0
4.0;1753876673.902996;17.601114;0.59;-0.6;0.36;-0.76241;-0.59799;-0.024055;0.1;0.0;0.0;-0.2;0.0;-0.0
4.0;1753876673.907597;17.603855;0.64;-0.72;-0.63;-0.74952;-0.648295;0.00032;0.4;0.0;-0.0;-0.1;0.0;0.0
4.0;1753876673.912198;17.605516;0.87;-1.34;-0.29;-0.802975;-0.636559;-0.005947;0.0;0.0;-0.1;-0.1;0.0;0.0
4.0;1753876673.9193;17.605469;0.63;-1.12;0.07;-0.763476;-0.641354;-0.01098;0.0;0.0;0.0;0.0;0.0;0.0
4.0;1753876673.923901;17.624294;0.73;-1.12;0.08;-0.763964;-0.641313;-0.011971;0.0;0.0;0.0;0.0;0.0;0.0
4.0;1753876673.928502;17.592706;0.68;-1.11;0.1;-0.76333;-0.642178;-0.009175;0.0;0.0;0.0;0.0;0.0;0.0
4.0;1753876673.933103;17.630211;0.53;-1.09;0.06;-0.764945;-0.639365;-0.010163;0.0;0.0;0.0;0.0;0.0;0.0
4.0;1753876673.937704;17.622835;0.53;-1.13;0.03;-0.762936;-0.640257;-0.009813;0.0;0.0;0.0;0.0;0.0;0.0
4.0;1753876673.942305;17.663735;0.63;-1.17;0.08;-0.766249;-0.641246;-0.010558;0.0;0.0;0.0;0.0;0.0;0.0
4.0;1753876673.946906;17.635044;0.61;-1.09;0.05;-0.764123;-0.642115;-0.008963;0.0;0.0;0.0;0.0;0.0;0.0
4.0;1753876673.951507;17.642014;0.63;-1.08;0.02;-0.766242;-0.642691;-0.007928;0.0;0.0;0.0;0.0;0.0;0.0
4.0;1753876673.95778;17.621094;0.63;-1.12;0.07;-0.765428;-0.640256;-0.008296;0.0;0.0;0.0;0.0;0.0;0.0
4.0;1753876673.961968;17.613281;0.63;-1.05;0.07;-0.764086;-0.640012;-0.00854;0.0;0.0;0.0;0.0;0.0;0.0
4.0;1753876673.966569;17.640714;0.53;-1.07;0.09;-0.763346;-0.642535;-0.009721;0.0;0.0;0.0;0.0;0.0;0.0
4.0;1753876673.97165;17.613281;0.49;-1.19;0.07;-0.763476;-0.640256;-0.00915;0.0;0.0;0.0;0.0;0.0;0.0
4.0;1753876673.974083;17.613281;0.63;-1.12;0.0;-0.762866;-0.641598;-0.008784;0.0;0.0;0.0;0.0;0.0;0.0
4.0;1753876673.979979;17.554688;0.56;-1.19;0.14;-0.76372;-0.6405;-0.008662;0.0;0.0;0.0;0.0;0.0;0.0
4.0;1753876673.986649;17.554688;0.63;-1.05;0.07;-0.763476;-0.640988;-0.009028;0.0;0.0;0.0;0.0;0.0;0.0
4.0;1753876673.987692;17.554688;0.56;-0.98;0.14;-0.76555;-0.639768;-0.008784;0.0;0.0;0.0;0.0;0.0;0.0
4.0;1753876673.993559;17.554688;0.56;-1.19;0.07;-0.763232;-0.64111;-0.009272;0.0;0.0;0.0;0.0;0.0;0.0
4.0;1753876673.997828;17.613281;0.56;-1.12;0.07;-0.765184;-0.640866;-0.008418;0.0;0.0;0.0;0.0;0.0;0.0
4.0;1753876674.002429;17.654435;0.63;-1.18;0.09;-0.763585;-0.640052;-0.008191;0.0;0.0;0.0;0.0;0.0;0.0
4.0;1753876674.00703;17.631689;0.52;-1.12;0.05;-0.767789;-0.640437;-0.008154;0.0;0.0;0.0;0.0;0.0;0.0
4.0;1753876674.011631;17.641322;0.6;-1.18;0.05;-0.765433;-0.641832;-0.007899;0.0;0.0;0.0;0.0;0.0;0.0
4.0;1753876674.016232;17.657631;0.65;-1.21;0.1;-0.763868;-0.640201;-0.00829;0.0;0.0;0.0;0.0;0.0;0.0
4.0;1753876674.020833;17.65647;0.61;-1.09;0.09;-0.7631;-0.642175;-0.009101;0.0;0.0;0.0;0.0;0.0;0.0
4.0;1753876674.025434;17.577578;0.53;-1.21;0.06;-0.76624;-0.642099;-0.007335;0.0;0.0;0.0;0.0;0.0;0.0
4.0;1753876674.030035;17.611624;0.53;-1.08;0.15;-0.763044;-0.641123;-0.008282;0.0;0.0;0.0;0.0;0.0;0.0
4.0;1753876674.034636;17.623002;0.52;-1.21;0.14;-0.764412;-0.639715;-0.008688;0.0;0.0;0.0;0.0;0.0;0.0
4.0;1753876674.039237;17.600543;0.59;-1.16;0.02;-0.764322;-0.639835;-0.007955;0.0;0.0;0.0;0.0;0.0;0.0
4.0;1753876674.043838;17.612864;0.64;-1.04;0.02;-0.766265;-0.641485;-0.007777;0.0;0.0;0.0;0.0;0.0;0.0
4.0;1753876674.048439;17.621831;0.62;-1.14;0.02;-0.764227;-0.642875;-0.008837;0.0;0.0;0.0;0.0;0.0;0.0
4.0;1753876674.05304;17.638173;0.52;-1.09;0.05;-0.762885;-0.640502;-0.007629;0.0;0.0;0.0;0.0;0.0;0.0
4.0;1753876674.057641;17.613903;0.54;-1.12;0.05;-0.765187;-0.639022;-0.008186;0.0;0.0;0.0;0.0;0.0;0.0
4.0;1753876674.062242;17.590518;0.6;-1.08;0.05;-0.765667;-0.639712;-0.008637;0.0;0.0;0.0;0.0;0.0;0.0
4.0;1753876674.066843;17.614081;0.52;-1.07;0.06;-0.763257;-0.640691;-0.008073;0.0;0.0;0.0;0.0;0.0;0.0
4.0;1753876674.071444;17.581096;0.52;-1.05;0.06;-0.764576;-0.637956;-0.008512;0.0;0.0;0.0;0.0;0.0;0.0
4.0;1753876674.076045;17.648856;0.5;-1.14;0.03;-0.765323;-0.639836;-0.008961;0.0;0.0;0.0;0.0;0.0;0.0
4.0;1753876674.080646;17.619651;0.59;-1.15;0.02;-0.764625;-0.641926;-0.008962;0.0;0.0;0.0;0.0;0.0;0.0
4.0;1753876674.085247;17.628576;0.52;-1.07;0.06;-0.764481;-0.641244;-0.008905;0.0;0.0;0.0;0.0;0.0;0.0
4.0;1753876674.089848;17.603459;0.56;-1.07;0.08;-0.76484;-0.63909;-0.00906;0.0;0.0;0.0;0.0;0.0;0.0
4.0;1753876674.094449;17.641664;0.55;-1.15;0.03;-0.766103;-0.64054;-0.008487;0.0;0.0;0.0;0.0;0.0;0.0
4.0;1753876674.09905;17.628976;0.54;-1.18;0.02;-0.764754;-0.641943;-0.007613;0.0;0.0;0.0;0.0;0.0;0.0
4.0;1753876674.103651;17.592325;0.55;-1.03;0.02;-0.765292;-0.640489;-0.00793;0.0;0.0;0.0;0.0;0.0;0.0
4.0;1753876674.108252;17.594695;0.57;-1.2;0.09;-0.764489;-0.640705;-0.008325;0.0;0.0;0.0;0.0;0.0;0.0
4.0;1753876674.112853;17.633324;0.52;-1.1;0.1;-0.765687;-0.640284;-0.008734;0.0;0.0;0.0;0.0;0.0;0.0
4.0;1753876674.117454;17.670098;0.51;-1.09;0.16;-0.766133;-0.641782;-0.007304;0.0;0.0;0.0;0.0;0.0;0.0
4.0;1753876674.122055;17.66675;0.41;-1.08;0.06;-0.763997;-0.640668;-0.009097;0.0;0.0;0.0;0.0;0.0;0.0
4.0;1753876674.126656;17.5735;0.48;-1.15;0.07;-0.764967;-0.641469;-0.008143;0.0;0.0;0.0;0.0;0.0;0.0
4.0;1753876674.131257;17.614441;0.51;-1.13;0.01;-0.764593;-0.641517;-0.009147;0.0;0.0;0.0;0.0;0.0;0.0
4.0;1753876674.135858;17.625248;0.54;-1.17;0.03;-0.763087;-0.639763;-0.007521;0.0;0.0;0.0;0.0;0.0;0.0
4.0;1753876674.140459;17.656288;0.57;-1.1;0.07;-0.763972;-0.640689;-0.009684;0.0;0.0;0.0;0.0;0.0;0.0
4.0;1753876674.14506;17.618486;0.51;-1.15;0.09;-0.762409;-0.639482;-0.008321;0.0;0.0;0.0;0.0;0.0;0.0
4.0;1753876674.149661;17.623125;0.46;-1.09;0.07;-0.7662;-0.636945;-0.00751;0.0;0.0;0.0;0.0;0.0;0.0
4.0;1753876674.154262;17.584514;0.43;-1.11;0.09;-0.763227;-0.641933;-0.008536;0.0;0.0;0.0;0.0;0.0;0.0
4.0;1753876674.158863;17.595219;0.55;-1.09;0.04;-0.761703;-0.637596;-0.008725;0.0;0.0;0.0;0.0;0.0;0.0
4.0;1753876674.163464;17.632487;0.46;-1.0;0.11;-0.762006;-0.640659;-0.00851;0.0;0.0;0.0;0.0;0.0;0.0
4.0;1753876674.168065;17.636039;0.47;-1.09;0.14;-0.762313;-0.642501;-0.009191;0.0;0.0;0.0;0.0;0.0;0.0
4.0;1753876674.172666;17.621177;0.48;-1.06;0.04;-0.763152;-0.64033;-0.009358;0.0;0.0;0.0;0.0;0.0;0.0
4.0;1753876674.177267;17.587026;0.6;-1.09;0.12;-0.76395;-0.640346;-0.009331;0.0;0.0;0.0;0.0;0.0;0.0
4.0;1753876674.181868;17.618201;0.48;-1.08;0.04;-0.763111;-0.638748;-0.008738;0.0;0.0;0.0;0.0;0.0;0.0
4.0;1753876674.186469;17.64728;0.4;-1.15;0.08;-0.763223;-0.64345;-0.008098;0.0;0.0;0.0;0.0;0.0;0.0
4.0;1753876674.1936;17.613281;0.49;-1.12;0.07;-0.763476;-0.6405;-0.008784;0.0;0.0;0.0;0.0;0.0;0.0
4.0;1753876674.198201;17.627096;0.57;-1.17;0.07;-0.76426;-0.63985;-0.00912;0.0;0.0;0.0;0.0;0.0;0.0
4.0;1753876674.202802;17.631612;0.51;-1.12;-0.02;-0.764528;-0.64112;-0.008532;0.0;0.0;0.0;0.0;0.0;0.0
4.0;1753876674.207403;17.592573;0.57;-1.23;0.09;-0.762338;-0.641072;-0.009704;0.0;0.0;0.0;0.0;0.0;0.0
4.0;1753876674.212004;17.573958;0.43;-1.1;0.09;-0.762254;-0.64182;-0.008893;0.0;0.0;0.0;0.0;0.0;0.0
4.0;1753876674.216605;17.591373;0.53;-1.17;0.12;-0.762936;-0.640188;-0.007565;0.0;0.0;0.0;0.0;0.0;0.0
4.0;1753876674.221206;17.591264;0.49;-1.14;0.02;-0.762906;-0.640456;-0.00801;0.0;0.0;0.0;0.0;0.0;0.0
4.0;1753876674.225807;17.596994;0.42;-1.13;-0.03;-0.764762;-0.640907;-0.009025;0.0;0.0;0.0;0.0;0.0;0.0
4.0;1753876674.230408;17.600428;0.51;-1.12;0.06;-0.762876;-0.641462;-0.007685;0.0;0.0;0.0;0.0;0.0;0.0
4.0;1753876674.235009;17.616585;0.44;-1.22;0.14;-0.763552;-0.640533;-0.009453;0.0;0.0;0.0;0.0;0.0;0.0
4.0;1753876674.23961;17.609725;0.46;-1.05;0.05;-0.763643;-0.642101;-0.008472;0.0;0.0;0.0;0.0;0.0;0.0
4.0;1753876674.244211;17.621442;0.5;-1.04;0.16;-0.764797;-0.640454;-0.008483;0.0;0.0;0.0;0.0;0.0;0.0
4.0;1753876674.248812;17.656682;0.55;-1.2;0.04;-0.762669;-0.638718;-0.009563;0.0;0.0;0.0;0.0;0.0;0.0
4.0;1753876674.253413;17.613229;0.44;-1.08;0.16;-0.7637;-0.639999;-0.008263;0.0;0.0;0.0;0.0;0.0;0.0
4.0;1753876674.258014;17.649968;0.66;-1.07;0.04;-0.762336;-0.640957;-0.009559;0.0;0.0;0.0;0.0;0.0;0.0
4.0;1753876674.262615;17.63877;0.51;-1.09;0.03;-0.764681;-0.64038;-0.008525;0.0;0.0;0.0;0.0;0.0;0.0
4.0;1753876674.267216;17.602372;0.56;-1.07;0.08;-0.764678;-0.641794;-0.008881;0.0;0.0;0.0;0.0;0.0;0.0
4.0;1753876674.271817;17.628288;0.46;-1.16;0.04;-0.762519;-0.641222;-0.009553;0.0;0.0;0.0;0.0;0.0;0.0
4.0;1753876674.276418;17.59677;0.57;-1.12;0.05;-0.762776;-0.639266;-0.008697;0.0;0.0;0.0;0.0;0.0;0.0
4.0;1753876674.281019;17.61673;0.59;-1.06;0.07;-0.761471;-0.638143;-0.008928;0.0;0.0;0.0;0.0;0.0;0.0
4.0;1753876674.28562;17.631602;0.57;-1.08;0.09;-0.765954;-0.63953;-0.008392;0.0;0.0;0.0;0.0;0.0;0.0
4.0;1753876674.290221;17.61964;0.44;-1.06;0.11;-0.765009;-0.64163;-0.008547;0.0;0.0;0.0;0.0;0.0;0.0
4.0;1753876674.294822;17.616051;0.51;-1.13;0.12;-0.763931;-0.639955;-0.008478;0.0;0.0;0.0;0.0;0.0;0.0
4.0;1753876674.299423;17.642975;0.51;-1.11;0.08;-0.763123;-0.641958;-0.010209;0.0;0.0;0.0;0.0;0.0;0.0
4.0;1753876674.304024;17.603811;0.47;-1.09;0.02;-0.763177;-0.641668;-0.009065;0.0;0.0;0.0;0.0;0.0;0.0
4.0;1753876674.308625;17.641041;0.51;-1.12;0.15;-0.763448;-0.640596;-0.00844;0.0;0.0;0.0;0.0;0.0;0.0
4.0;1753876674.313226;17.587438;0.49;-1.16;0.11;-0.761772;-0.640038;-0.008447;0.0;0.0;0.0;0.0;0.0;0.0
4.0;1753876674.317827;17.615398;0.54;-1.14;0.15;-0.761009;-0.642337;-0.009602;0.0;0.0;0.0;0.0;0.0;0.0
4.0;1753876674.322428;17.629061;0.5;-1.1;0.02;-0.765609;-0.641227;-0.008507;0.0;0.0;0.0;0.0;0.0;0.0
4.0;1753876674.327029;17.611031;0.48;-1.21;0.07;-0.761875;-0.639813;-0.008507;0.0;0.0;0.0;0.0;0.0;0.0
4.0;1753876674.33163;17.608874;0.56;-1.09;0.09;-0.762526;-0.639806;-0.008279;0.0;0.0;0.0;0.0;0.0;0.0
4.0;1753876674.336231;17.596357;0.55;-1.17;0.07;-0.765404;-0.638408;-0.008157;0.0;0.0;0.0;0.0;0.0;0.0
4.0;1753876674.340832;17.570259;0.5;-1.08;0.13;-0.763539;-0.640554;-0.009342;0.0;0.0;0.0;0.0;0.0;0.0
4.0;1753876674.345433;17.605814;0.51;-1.13;0.03;-0.763554;-0.641842;-0.008808;0.0;0.0;0.0;0.0;0.0;0.0
4.0;1753876674.350034;17.585187;0.45;-1.14;0.06;-0.76214;-0.640964;-0.008696;0.0;0.0;0.0;0.0;0.0;0.0
4.0;1753876674.354635;17.639145;0.59;-1.2;0.14;-0.763775;-0.640218;-0.00945;0.0;0.0;0.0;0.0;0.0;0.0
4.0;1753876674.359236;17.63369;0.59;-1.17;0.07;-0.764162;-0.640107;-0.008934;0.0;0.0;0.0;0.0;0.0;0.0
4.0;1753876674.363837;17.627258;0.54;-1.26;0.14;-0.764454;-0.641284;-0.008911;0.0;0.0;0.0;0.0;0.0;0.0
4.0;1753876674.368438;17.608412;0.53;-1.0;0.05;-0.763649;-0.641362;-0.007962;0.0;0.0;0.0;0.0;0.0;0.0
4.0;1753876674.373039;17.645796;0.47;-0.97;0.02;-0.762962;-0.637523;-0.008038;0.0;0.0;0.0;0.0;0.0;0.0
4.0;1753876674.37764;17.608041;0.59;-1.04;0.13;-0.762922;-0.640689;-0.008591;0.0;0.0;0.0;0.0;0.0;0.0
4.0;1753876674.382241;17.564056;0.58;-1.15;0.06;-0.763313;-0.64161;-0.009077;0.0;0.0;0.0;0.0;0.0;0.0
4.0;1753876674.386842;17.631188;0.57;-1.03;0.14;-0.762516;-0.642368;-0.009447;0.0;0.0;0.0;0.0;0.0;0.0
4.0;1753876674.391443;17.628598;0.53;-1.11;0.18;-0.763075;-0.640218;-0.009167;0.0;0.0;0.0;0.0;0.0;0.0
4.0;1753876674.396044;17.574946;0.46;-0.94;0.06;-0.765091;-0.640296;-0.009312;0.0;0.0;0.0;0.0;0.0;0.0
4.0;1753876674.400645;17.636706;0.58;-1.08;-0.0;-0.763159;-0.640596;-0.00874;0.0;0.0;0.0;0.0;0.0;0.0
4.0;1753876674.405246;17.609034;0.64;-1.13;0.08;-0.764357;-0.640062;-0.009787;0.0;0.0;0.0;0.0;0.0;0.0
4.0;1753876674.409847;17.616368;0.6;-1.07;0.09;-0.762624;-0.640629;-0.009092;0.0;0.0;0.0;0.0;0.0;0.0
4.0;1753876674.414448;17.606203;0.54;-1.04;0.13;-0.762619;-0.641317;-0.008992;0.0;0.0;0.0;0.0;0.0;0.0
4.0;1753876674.419049;17.566228;0.66;-1.06;0.08;-0.764016;-0.639054;-0.008355;0.0;0.0;0.0;0.0;0.0;0.0
4.0;1753876674.42365;17.598199;0.62;-1.13;0.07;-0.762304;-0.639031;-0.009679;0.0;0.0;0.0;0.0;0.0;0.0
4.0;1753876674.428251;17.640982;0.61;-1.07;0.17;-0.76207;-0.643168;-0.008083;0.0;0.0;0.0;0.0;0.0;0.0
4.0;1753876674.432852;17.588517;0.65;-1.23;0.15;-0.761567;-0.641319;-0.00981;0.0;0.0;0.0;0.0;0.0;0.0
4.0;1753876674.437453;17.605136;0.52;-1.05;0.08;-0.765438;-0.640805;-0.009333;0.0;0.0;0.0;0.0;0.0;0.0
4.0;1753876674.442054;17.681355;0.74;-0.97;0.04;-0.764229;-0.6393;-0.008877;0.0;0.0;0.0;0.0;0.0;0.0
4.0;1753876674.446655;17.580465;0.55;-1.17;0.15;-0.764839;-0.640069;-0.008986;0.0;0.0;0.0;0.0;0.0;0.0
4.0;1753876674.451256;17.590451;0.61;-1.04;0.09;-0.762432;-0.639658;-0.009396;0.0;0.0;0.0;0.0;0.0;0.0
4.0;1753876674.455857;17.584006;0.59;-1.09;0.16;-0.762979;-0.641344;-0.008352;0.0;0.0;0.0;0.0;0.0;0.0
4.0;1753876674.460458;17.599113;0.54;-1.14;0.18;-0.76377;-0.641472;-0.009741;0.0;0.0;0.0;0.0;0.0;0.0
4.0;1753876674.465059;17.639843;0.51;-1.0;0.17;-0.76218;-0.640293;-0.008779;0.0;0.0;0.0;0.0;0.0;0.0
4.0;1753876674.46966;17.67245;0.71;-0.99;0.16;-0.761743;-0.641608;-0.008473;0.0;0.0;0.0;0.0;0.0;0.0
4.0;1753876674.474261;17.612325;0.6;-1.06;0.09;-0.76403;-0.640387;-0.009054;0.0;0.0;0.0;0.0;0.0;0.0
4.0;1753876674.478862;17.600848;0.57;-1.08;0.11;-0.762516;-0.64229;-0.008816;0.0;0.0;0.0;0.0;0.0;0.0
4.0;1753876674.483463;17.632735;0.67;-1.11;0.08;-0.762461;-0.64223;-0.009705;0.0;0.0;0.0;0.0;0.0;0.0
4.0;1753876674.488064;17.626395;0.55;-1.1;0.09;-0.763944;-0.640927;-0.009011;0.0;0.0;0.0;0.0;0.0;0.0
4.0;1753876674.492665;17.605072;0.58;-1.06;0.08;-0.762563;-0.641858;-0.009264;0.0;0.0;0.0;0.0;0.0;0.0
4.0;1753876674.497266;17.614351;0.65;-1.12;0.21;-0.762262;-0.64003;-0.010427;0.0;0.0;0.0;0.0;0.0;0.0
4.0;1753876674.501867;17.601021;0.54;-0.96;0.14;-0.763741;-0.641407;-0.008256;0.0;0.0;0.0;0.0;0.0;0.0
4.0;1753876674.506468;17.5863;0.52;-1.07;0.17;-0.764406;-0.642657;-0.009707;0.0;0.0;0.0;0.0;0.0;0.0
4.0;1753876674.511069;17.550087;0.66;-1.11;0.08;-0.761777;-0.642071;-0.009858;0.0;0.0;0.0;0.0;0.0;0.0
4.0;1753876674.51567;17.657585;0.59;-1.14;0.09;-0.761563;-0.640927;-0.009052;0.0;0.0;0.0;0.0;0.0;0.0
4.0;1753876674.520271;17.579064;0.54;-1.05;0.15;-0.761676;-0.642028;-0.008515;0.0;0.0;0.0;0.0;0.0;0.0
4.0;1753876674.524872;17.576217;0.63;-1.01;0.17;-0.763696;-0.639942;-0.009787;0.0;0.0;0.0;0.0;0.0;0.0
4.0;1753876674.529473;17.591014;0.7;-0.91;0.04;-0.762691;-0.640333;-0.00853;0.0;0.0;0.0;0.0;0.0;0.0
4.0;1753876674.534074;17.65023;0.5;-1.16;0.08;-0.763153;-0.640869;-0.009313;0.0;0.0;0.0;0.0;0.0;0.0
4.0;1753876674.538675;17.609493;0.64;-1.08;0.17;-0.764099;-0.640824;-0.007874;0.0;0.0;0.0;0.0;0.0;0.0
4.0;1753876674.543276;17.619921;0.71;-1.06;0.16;-0.762249;-0.640821;-0.008824;0.0;0.0;0.0;0.0;0.0;0.0
4.0;1753876674.547877;17.610616;0.71;-1.07;0.12;-0.764498;-0.643073;-0.010179;0.0;0.0;0.0;0.0;0.0;0.0
4.0;1753876674.552478;17.558654;0.6;-1.12;0.21;-0.762856;-0.642107;-0.009405;0.0;0.0;0.0;0.0;0.0;0.0
4.0;1753876674.557079;17.616597;0.69;-1.09;0.21;-0.763731;-0.640477;-0.009162;0.0;0.0;0.0;0.0;0.0;0.0
4.0;1753876674.56168;17.632899;0.52;-1.13;0.15;-0.76259;-0.642474;-0.00945;0.0;0.0;0.0;0.0;0.0;0.0
4.0;1753876674.566281;17.628447;0.63;-1.16;0.14;-0.761294;-0.64107;-0.008972;0.0;0.0;0.0;0.0;0.0;0.0
4.0;1753876674.570882;17.59661;0.5;-1.01;0.06;-0.762408;-0.643135;-0.009174;0.0;0.0;0.0;0.0;0.0;0.0
4.0;1753876674.575483;17.670197;0.6;-1.05;0.06;-0.762962;-0.641025;-0.009695;0.0;0.0;0.0;0.0;0.0;0.0
4.0;1753876674.580084;17.564293;0.59;-1.03;0.12;-0.762863;-0.639393;-0.008891;0.0;0.0;0.0;0.0;0.0;0.0
4.0;1753876674.584685;17.593343;0.54;-0.95;0.24;-0.762874;-0.642769;-0.009428;0.0;0.0;0.0;0.0;0.0;0.0
4.0;1753876674.5895;17.613281;0.63;-1.05;0.14;-0.762988;-0.641598;-0.009272;0.0;0.0;0.0;0.0;0.0;0.0
4.0;1753876674.59771;17.605469;0.63;-1.12;0.0;-0.763842;-0.642086;-0.008052;0.0;0.0;0.0;0.0;0.0;0.0
4.0;1753876674.602311;17.599112;0.65;-1.09;0.05;-0.760606;-0.640752;-0.007575;0.0;0.0;0.0;0.0;0.0;0.0
4.0;1753876674.606912;17.601486;0.63;-1.16;0.01;-0.765531;-0.643801;-0.007804;0.0;0.0;0.0;0.0;0.0;0.0
4.0;1753876674.611513;17.599591;0.6;-1.24;0.05;-0.763534;-0.644483;-0.008274;0.0;0.0;0.0;0.0;0.0;0.0
4.0;1753876674.616114;17.616192;0.53;-1.19;0.02;-0.762946;-0.640588;-0.008872;0.0;0.0;0.0;0.0;0.0;0.0
4.0;1753876674.620715;17.578971;0.68;-1.0;0.03;-0.762667;-0.642702;-0.009225;0.0;0.0;0.0;0.0;0.0;0.0
4.0;1753876674.625316;17.616335;0.59;-1.13;0.04;-0.762792;-0.641181;-0.008898;0.0;0.0;0.0;0.0;0.0;0.0
4.0;1753876674.629917;17.603229;0.66;-1.08;0.04;-0.763878;-0.641654;-0.008775;0.0;0.0;0.0;0.0;0.0;0.0
4.0;1753876674.634518;17.599732;0.65;-1.11;0.1;-0.764461;-0.642755;-0.009319;0.0;0.0;0.0;0.0;0.0;0.0
4.0;1753876674.64131;17.605469;0.63;-1.12;0.07;-0.763964;-0.642452;-0.009272;0.0;0.0;0.0;0.0;0.0;0.0
4.0;1753876674.645911;17.624456;0.65;-1.09;0.09;-0.763684;-0.63969;-0.009927;0.0;0.0;0.0;0.0;0.0;0.0
4.0;1753876674.65061;17.605469;0.56;-1.19;0.07;-0.765428;-0.6405;-0.008784;0.0;0.0;0.0;0.0;0.0;0.0
4.0;1753876674.655211;17.608585;0.56;-1.24;0.07;-0.763519;-0.639574;-0.008726;0.0;0.0;0.0;0.0;0.0;0.0
4.0;1753876674.659812;17.614473;0.52;-1.23;0.09;-0.764135;-0.640074;-0.009127;0.0;0.0;0.0;0.0;0.0;0.0
4.0;1753876674.664413;17.60916;0.49;-1.13;0.04;-0.76523;-0.639697;-0.008521;0.0;0.0;0.0;0.0;0.0;0.0
4.0;1753876674.669014;17.619233;0.59;-1.04;0.07;-0.76329;-0.641586;-0.008428;0.0;0.0;0.0;0.0;0.0;0.0
4.0;1753876674.673615;17.598227;0.55;-1.24;0.08;-0.764751;-0.640374;-0.008216;0.0;0.0;0.0;0.0;0.0;0.0
4.0;1753876674.678216;17.553601;0.59;-1.14;0.13;-0.763217;-0.642123;-0.009367;0.0;0.0;0.0;0.0;0.0;0.0
4.0;1753876674.682817;17.594591;0.5;-1.25;0.11;-0.762042;-0.640728;-0.008504;0.0;0.0;0.0;0.0;0.0;0.0
4.0;1753876674.687418;17.641083;0.53;-1.28;0.04;-0.764385;-0.641027;-0.009872;0.0;0.0;0.0;0.0;0.0;0.0
4.0;1753876674.692019;17.649335;0.51;-1.13;0.06;-0.762956;-0.640324;-0.009289;0.0;0.0;0.0;0.0;0.0;0.0
4.0;1753876674.69662;17.614587;0.49;-1.22;0.1;-0.764338;-0.641816;-0.009567;0.0;0.0;0.0;0.0;0.0;0.0
4.0;1753876674.70104;17.613281;0.49;-1.19;0.07;-0.761768;-0.641598;-0.009516;0.0;0.0;0.0;0.0;0.0;0.0
4.0;1753876674.705641;17.62198;0.6;-1.19;0.11;-0.762253;-0.64267;-0.010386;0.0;0.0;0.0;0.0;0.0;0.0
4.0;1753876674.710242;17.61041;0.41;-1.16;0.16;-0.76066;-0.643306;-0.009214;0.0;0.0;0.0;0.0;0.0;0.0
4.0;1753876674.714843;17.622823;0.55;-1.16;0.04;-0.761338;-0.641822;-0.009649;0.0;0.0;0.0;0.0;0.0;0.0
4.0;1753876674.719444;17.5797;0.49;-1.19;0.14;-0.76362;-0.640638;-0.009075;0.0;0.0;0.0;0.0;0.0;0.0
4.0;1753876674.724045;17.603867;0.59;-1.25;0.16;-0.762608;-0.643779;-0.009553;0.0;0.0;0.0;0.0;0.0;0.0
4.0;1753876674.728646;17.619483;0.58;-1.24;0.08;-0.762109;-0.639832;-0.00785;0.0;0.0;0.0;0.0;0.0;0.0
4.0;1753876674.733247;17.625834;0.55;-1.1;0.13;-0.764615;-0.64237;-0.009705;0.0;0.0;0.0;0.0;0.0;0.0
4.0;1753876674.74192;17.613281;0.56;-1.19;0.14;-0.764086;-0.640744;-0.009028;0.0;0.0;0.0;0.0;0.0;0.0
4.0;1753876674.746521;17.633538;0.68;-1.2;0.16;-0.76255;-0.640187;-0.00857;0.0;0.0;0.0;0.0;0.0;0.0
4.0;1753876674.751122;17.612212;0.57;-1.17;0.16;-0.766005;-0.64095;-0.008486;0.0;0.0;0.0;0.0;0.0;0.0
4.0;1753876674.755723;17.616776;0.56;-1.24;0.15;-0.766764;-0.641545;-0.008132;0.0;0.0;0.0;0.0;0.0;0.0
4.0;1753876674.760324;17.612348;0.51;-1.23;0.07;-0.765313;-0.640903;-0.008877;0.0;0.0;0.0;0.0;0.0;0.0
4.0;1753876674.764925;17.572091;0.57;-1.23;0.09;-0.763876;-0.642551;-0.009635;0.0;0.0;0.0;0.0;0.0;0.0
4.0;1753876674.769526;17.625428;0.64;-1.23;0.14;-0.764399;-0.642194;-0.008049;0.0;0.0;0.0;0.0;0.0;0.0
4.0;1753876674.774127;17.601646;0.62;-1.23;0.11;-0.766365;-0.641268;-0.00964;0.0;0.0;0.0;0.0;0.0;0.0
4.0;1753876674.778728;17.624141;0.51;-1.17;0.07;-0.764254;-0.64151;-0.008623;0.0;0.0;0.0;0.0;0.0;0.0
4.0;1753876674.783329;17.622736;0.55;-1.2;0.04;-0.76418;-0.640842;-0.008516;0.0;0.0;0.0;0.0;0.0;0.0
4.0;1753876674.78793;17.605868;0.54;-1.21;0.1;-0.765537;-0.640728;-0.008549;0.0;0.0;0.0;0.0;0.0;0.0
4.0;1753876674.792531;17.599587;0.63;-1.16;0.15;-0.765565;-0.640382;-0.009493;0.0;0.0;0.0;0.0;0.0;0.0
4.0;1753876674.797132;17.556606;0.58;-1.13;0.12;-0.766564;-0.641763;-0.009438;0.0;0.0;0.0;0.0;0.0;0.0
4.0;1753876674.801733;17.589016;0.61;-1.19;0.1;-0.762314;-0.642362;-0.009547;0.0;0.0;0.0;0.0;0.0;0.0
4.0;1753876674.806334;17.627845;0.64;-1.19;0.1;-0.760838;-0.640233;-0.009189;0.0;0.0;0.0;0.0;0.0;0.0
4.0;1753876674.810935;17.59776;0.61;-1.14;0.16;-0.763663;-0.641554;-0.008583;0.0;0.0;0.0;0.0;0.0;0.0
4.0;1753876674.815536;17.650819;0.59;-1.18;0.06;-0.763273;-0.641281;-0.007847;0.0;0.0;0.0;0.0;0.0;0.0
4.0;1753876674.820137;17.61279;0.63;-1.2;0.04;-0.7633;-0.643554;-0.008867;0.0;0.0;0.0;0.0;0.0;0.0
4.0;1753876674.824738;17.58855;0.68;-1.28;0.09;-0.765955;-0.644231;-0.009087;0.0;0.0;0.0;0.0;0.0;0.0
4.0;1753876674.829339;17.655721;0.68;-1.18;0.15;-0.762327;-0.641199;-0.009175;0.0;0.0;0.0;0.0;0.0;0.0
4.0;1753876674.83433;17.613281;0.63;-1.19;0.07;-0.763598;-0.641354;-0.008052;0.0;0.0;0.0;0.0;0.0;0.0
4.0;1753876674.838931;17.611682;0.59;-1.27;0.01;-0.762434;-0.641435;-0.008211;0.0;0.0;0.0;0.0;0.0;0.0
4.0;1753876674.843532;17.591941;0.67;-1.13;0.15;-0.760224;-0.642642;-0.008611;0.0;0.0;0.0;0.0;0.0;0.0
4.0;1753876674.848133;17.628034;0.57;-1.29;0.04;-0.760568;-0.639106;-0.008016;0.0;0.0;0.0;0.0;0.0;0.0
4.0;1753876674.852734;17.642696;0.52;-1.3;0.19;-0.764012;-0.639679;-0.008023;0.0;0.0;0.0;0.0;0.0;0.0
4.0;1753876674.857335;17.62714;0.6;-1.14;0.1;-0.76275;-0.641306;-0.008555;0.0;0.0;0.0;0.0;0.0;0.0
4.0;1753876674.861936;17.606273;0.61;-1.21;0.08;-0.762555;-0.640551;-0.007225;0.0;0.0;0.0;0.0;0.0;0.0
4.0;1753876674.866537;17.648195;0.69;-1.17;0.08;-0.764512;-0.640566;-0.007363;0.0;0.0;0.0;0.0;0.0;0.0
4.0;1753876674.871138;17.624706;0.68;-1.19;0.11;-0.762907;-0.641591;-0.008034;0.0;0.0;0.0;0.0;0.0;0.0
4.0;1753876674.875739;17.621317;0.58;-1.25;0.14;-0.76295;-0.6421;-0.00787;0.0;0.0;0.0;0.0;0.0;0.0
4.0;1753876674.8815;17.628906;0.63;-1.19;0.14;-0.763598;-0.641354;-0.008052;0.0;0.0;0.0;0.0;0.0;0.0
4.0;1753876674.886101;17.612885;0.65;-1.21;0.15;-0.763518;-0.642008;-0.008336;0.0;0.0;0.0;0.0;0.0;0.0
4.0;1753876674.890702;17.601274;0.6;-1.16;0.18;-0.765044;-0.640031;-0.008753;0.0;0.0;0.0;0.0;0.0;0.0
4.0;1753876674.895303;17.64993;0.6;-1.21;0.1;-0.762403;-0.644465;-0.007747;0.0;0.0;0.0;0.0;0.0;0.0
4.0;1753876674.899904;17.633287;0.67;-1.21;0.1;-0.761569;-0.643789;-0.009619;0.0;0.0;0.0;0.0;0.0;0.0
4.0;1753876674.904505;17.630309;0.58;-1.17;0.09;-0.764025;-0.641431;-0.007832;0.0;0.0;0.0;0.0;0.0;0.0
4.0;1753876674.909106;17.594624;0.66;-1.15;0.11;-0.765908;-0.642864;-0.009224;0.0;0.0;0.0;0.0;0.0;0.0
4.0;1753876674.913707;17.6137;0.57;-1.15;0.09;-0.762953;-0.642905;-0.009193;0.0;0.0;0.0;0.0;0.0;0.0
4.0;1753876674.918308;17.626323;0.53;-1.12;0.16;-0.764415;-0.643765;-0.008399;0.0;0.0;0.0;0.0;0.0;0.0
4.0;1753876674.92412;17.628906;0.56;-1.12;0.07;-0.764452;-0.642208;-0.008906;0.0;0.0;0.0;0.0;0.0;0.0
4.0;1753876674.928721;17.627313;0.57;-1.15;0.21;-0.763728;-0.642118;-0.008768;0.0;0.0;0.0;0.0;0.0;0.0
4.0;1753876674.933322;17.618195;0.56;-1.09;0.1;-0.762615;-0.643313;-0.009137;0.0;0.0;0.0;0.0;0.0;0.0
4.0;1753876674.937923;17.630668;0.65;-1.2;0.13;-0.764282;-0.642931;-0.009392;0.0;0.0;0.0;0.0;0.0;0.0
4.0;1753876674.942524;17.626521;0.53;-1.2;0.02;-0.762203;-0.644291;-0.008965;0.0;0.0;0.0;0.0;0.0;0.0
4.0;1753876674.947125;17.644854;0.57;-1.17;0.13;-0.762596;-0.641694;-0.010573;0.0;0.0;0.0;0.0;0.0;0.0
4.0;1753876674.951726;17.671683;0.57;-1.21;0.11;-0.76305;-0.642823;-0.008238;0.0;0.0;0.0;0.0;0.0;0.0
4.0;1753876674.956327;17.61766;0.62;-1.25;0.07;-0.761943;-0.641252;-0.01006;0.0;0.0;0.0;0.0;0.0;0.0
4.0;1753876674.960928;17.626376;0.71;-1.08;0.11;-0.765353;-0.642726;-0.009029;0.0;0.0;0.0;0.0;0.0;0.0
4.0;1753876674.96966;17.628906;0.63;-1.19;0.14;-0.762134;-0.642208;-0.00915;0.0;0.0;0.0;0.0;0.0;0.0
4.0;1753876674.970815;17.570312;0.63;-1.19;0.14;-0.764208;-0.64172;-0.009882;0.0;0.0;0.0;0.0;0.0;0.0
4.0;1753876674.97559;17.570312;0.56;-1.12;-0.07;-0.76494;-0.640256;-0.009272;0.0;0.0;0.0;0.0;0.0;0.0
4.0;1753876674.98061;17.597656;0.56;-1.12;0.0;-0.76189;-0.644038;-0.010126;0.0;0.0;0.0;0.0;0.0;0.0
4.0;1753876674.984466;17.597656;0.56;-1.12;0.07;-0.767624;-0.638792;-0.010858;0.0;0.0;0.0;0.0;0.0;0.0
4.0;1753876674.990747;17.597656;0.56;-1.12;0.07;-0.76189;-0.64355;-0.008418;0.0;0.0;0.0;0.0;0.0;0.0
4.0;1753876674.993524;17.597656;0.63;-1.12;0.21;-0.76616;-0.640866;-0.010248;0.0;0.0;0.0;0.0;0.0;0.0
4.0;1753876674.999281;17.597656;0.77;-1.12;0.14;-0.763354;-0.64172;-0.008052;0.0;0.0;0.0;0.0;0.0;0.0
4.0;1753876675.003882;17.59346;0.71;-1.05;0.09;-0.763716;-0.641148;-0.008121;0.0;0.0;0.0;0.0;0.0;0.0
4.0;1753876675.008483;17.595357;0.87;-1.13;-0.01;-0.767385;-0.644199;-0.009293;0.0;0.0;0.0;0.0;0.0;0.0
4.0;1753876675.013084;17.596034;0.68;-1.11;0.1;-0.764625;-0.64063;-0.008284;0.0;0.0;0.0;0.0;0.0;0.0
4.0;1753876675.017685;17.587916;0.83;-1.18;0.13;-0.763688;-0.641544;-0.007082;0.0;0.0;0.0;0.0;0.0;0.0
4.0;1753876675.022286;17.623289;0.83;-1.08;0.09;-0.766174;-0.642734;-0.008546;0.0;0.0;0.0;0.0;0.0;0.0
4.0;1753876675.026887;17.584069;0.71;-1.11;0.2;-0.759458;-0.641533;-0.008289;0.0;0.0;0.0;0.0;0.0;0.0
4.0;1753876675.031488;17.605732;0.7;-1.18;0.21;-0.758619;-0.641118;-0.00811;0.0;0.0;0.0;0.0;0.0;0.0
4.0;1753876675.036089;17.597094;0.77;-1.14;0.03;-0.764643;-0.639896;-0.00655;0.0;0.0;0.0;0.0;0.0;0.0
4.0;1753876675.04069;17.585614;0.8;-1.19;0.19;-0.762457;-0.640531;-0.007445;0.0;0.0;0.0;0.0;0.0;0.0
4.0;1753876675.045291;17.604757;0.69;-1.08;0.05;-0.762388;-0.643084;-0.009219;0.0;0.0;0.0;0.0;0.0;0.0
4.0;1753876675.049892;17.60385;0.65;-1.13;0.1;-0.761321;-0.644747;-0.008954;0.0;0.0;0.0;0.0;0.0;0.0
4.0;1753876675.054493;17.609255;0.68;-1.17;0.12;-0.767039;-0.642218;-0.009873;0.0;0.0;0.0;0.0;0.0;0.0
4.0;1753876675.059094;17.598478;0.67;-1.19;0.21;-0.76296;-0.640027;-0.007734;0.0;0.0;0.0;0.0;0.0;0.0
4.0;1753876675.063695;17.593906;0.75;-1.18;0.11;-0.761036;-0.641537;-0.009509;0.0;0.0;0.0;0.0;0.0;0.0
4.0;1753876675.068296;17.59014;0.87;-1.17;0.13;-0.766488;-0.640223;-0.008618;0.0;0.0;0.0;0.0;0.0;0.0
4.0;1753876675.072897;17.606299;0.62;-1.12;0.22;-0.761983;-0.642161;-0.008974;0.0;0.0;0.0;0.0;0.0;0.0
4.0;1753876675.077498;17.576461;0.81;-1.17;-0.01;-0.762325;-0.644353;-0.007951;0.0;0.0;0.0;0.0;0.0;0.0
4.0;1753876675.082099;17.610033;0.62;-1.13;0.07;-0.766087;-0.642902;-0.008459;0.0;0.0;0.0;0.0;0.0;0.0
4.0;1753876675.0867;17.585624;0.84;-1.16;0.07;-0.765645;-0.643953;-0.008904;0.0;0.0;0.0;0.0;0.0;0.0
4.0;1753876675.091301;17.607084;0.76;-1.15;0.2;-0.765526;-0.638875;-0.007228;0.0;0.0;0.0;0.0;0.0;0.0
4.0;1753876675.095902;17.58989;0.71;-1.17;0.15;-0.762097;-0.642012;-0.00812;0.0;0.0;0.0;0.0;0.0;0.0
4.0;1753876675.100503;17.592119;0.7;-1.16;0.06;-0.764034;-0.640971;-0.008528;0.0;0.0;0.0;0.0;0.0;0.0
4.0;1753876675.105104;17.599449;0.58;-1.17;0.1;-0.763507;-0.639959;-0.008817;0.0;0.0;0.0;0.0;0.0;0.0
4.0;1753876675.109705;17.590546;0.62;-1.13;0.15;-0.766506;-0.640559;-0.010022;0.0;0.0;0.0;0.0;0.0;0.0
4.0;1753876675.114306;17.59114;0.71;-1.11;0.12;-0.76603;-0.640541;-0.008274;0.0;0.0;0.0;0.0;0.0;0.0
4.0;1753876675.118907;17.634177;0.68;-1.15;0.01;-0.76247;-0.644268;-0.00715;0.0;0.0;0.0;0.0;0.0;0.0
4.0;1753876675.123508;17.587836;0.74;-1.1;0.24;-0.764267;-0.641499;-0.007867;0.0;0.0;0.0;0.0;0.0;0.0
4.0;1753876675.128109;17.577361;0.73;-1.17;0.12;-0.761756;-0.641696;-0.00827;0.0;0.0;0.0;0.0;0.0;0.0
4.0;1753876675.13271;17.61713;0.67;-1.13;0.13;-0.764741;-0.640468;-0.008124;0.0;0.0;0.0;0.0;0.0;0.0
4.0;1753876675.137311;17.591472;0.68;-1.15;0.14;-0.762997;-0.640695;-0.008203;0.0;0.0;0.0;0.0;0.0;0.0
4.0;1753876675.141912;17.587328;0.59;-1.07;0.22;-0.763017;-0.639332;-0.008559;0.0;0.0;0.0;0.0;0.0;0.0
4.0;1753876675.146513;17.609384;0.68;-1.19;0.02;-0.764797;-0.641002;-0.008968;0.0;0.0;0.0;0.0;0.0;0.0
4.0;1753876675.151114;17.619363;0.72;-1.12;0.1;-0.762938;-0.640027;-0.009242;0.0;0.0;0.0;0.0;0.0;0.0
4.0;1753876675.155715;17.587923;0.66;-1.14;0.12;-0.768101;-0.643295;-0.008405;0.0;0.0;0.0;0.0;0.0;0.0
4.0;1753876675.160316;17.600396;0.61;-1.08;-0.09;-0.761072;-0.637091;-0.007211;0.0;0.0;0.0;0.0;0.0;0.0
4.0;1753876675.164917;17.61656;0.7;-1.18;0.04;-0.765574;-0.640262;-0.007179;0.0;0.0;0.0;0.0;0.0;0.0
4.0;1753876675.169518;17.616505;0.65;-1.11;0.02;-0.763402;-0.641618;-0.008817;0.0;0.0;0.0;0.0;0.0;0.0
4.0;1753876675.174119;17.568808;0.71;-1.15;0.13;-0.762085;-0.639278;-0.009003;0.0;0.0;0.0;0.0;0.0;0.0
4.0;1753876675.17872;17.598224;0.63;-1.16;0.07;-0.763761;-0.637556;-0.009292;0.0;0.0;0.0;0.0;0.0;0.0
4.0;1753876675.183321;17.583141;0.71;-1.2;0.08;-0.768014;-0.641827;-0.009288;0.0;0.0;0.0;0.0;0.0;0.0
4.0;1753876675.187922;17.580233;0.66;-1.17;0.11;-0.763196;-0.640267;-0.009326;0.0;0.0;0.0;0.0;0.0;0.0
4.0;1753876675.192523;17.577223;0.57;-1.19;0.07;-0.765723;-0.641735;-0.007864;0.0;0.0;0.0;0.0;0.0;0.0
4.0;1753876675.197124;17.571855;0.53;-1.13;0.12;-0.76698;-0.643393;-0.007704;0.0;0.0;0.0;0.0;0.0;0.0
4.0;1753876675.201725;17.616298;0.58;-1.17;0.09;-0.764556;-0.63896;-0.007639;0.0;0.0;0.0;0.0;0.0;0.0
4.0;1753876675.206326;17.614765;0.61;-1.2;0.13;-0.761878;-0.639252;-0.009542;0.0;0.0;0.0;0.0;0.0;0.0
4.0;1753876675.210927;17.607328;0.58;-1.25;0.12;-0.763242;-0.638868;-0.008756;0.0;0.0;0.0;0.0;0.0;0.0
4.0;1753876675.215528;17.582316;0.62;-1.15;0.18;-0.766222;-0.641547;-0.009938;0.0;0.0;0.0;0.0;0.0;0.0
4.0;1753876675.220129;17.603275;0.68;-1.2;-0.04;-0.764585;-0.640577;-0.007198;0.0;0.0;0.0;0.0;0.0;0.0
4.0;1753876675.22473;17.626456;0.58;-1.19;0.14;-0.764839;-0.640073;-0.008735;0.0;0.0;0.0;0.0;0.0;0.0
4.0;1753876675.229331;17.589312;0.52;-1.13;0.08;-0.762984;-0.637055;-0.009058;0.0;0.0;0.0;0.0;0.0;0.0
4.0;1753876675.233932;17.596114;0.55;-1.18;0.05;-0.765725;-0.642208;-0.008606;0.0;0.0;0.0;0.0;0.0;0.0
4.0;1753876675.238533;17.59326;0.39;-1.17;0.13;-0.761965;-0.641284;-0.00985;0.0;0.0;0.0;0.0;0.0;0.0
4.0;1753876675.243134;17.600108;0.65;-1.14;0.01;-0.761802;-0.638704;-0.009187;0.0;0.0;0.0;0.0;0.0;0.0
4.0;1753876675.247735;17.580237;0.59;-1.22;0.1;-0.76707;-0.638057;-0.008525;0.0;0.0;0.0;0.0;0.0;0.0
4.0;1753876675.252336;17.591194;0.54;-1.28;0.14;-0.762766;-0.639373;-0.008789;0.0;0.0;0.0;0.0;0.0;0.0
4.0;1753876675.256937;17.597718;0.67;-1.22;0.07;-0.765976;-0.636552;-0.008976;0.0;0.0;0.0;0.0;0.0;0.0
4.0;1753876675.261538;17.611366;0.61;-1.2;0.17;-0.763469;-0.640524;-0.007797;0.0;0.0;0.0;0.0;0.0;0.0
4.0;1753876675.2669;17.597656;0.56;-1.19;0.07;-0.764574;-0.640378;-0.008906;0.0;0.0;0.0;0.0;0.0;0.0
4.0;1753876675.271501;17.601971;0.51;-1.17;0.02;-0.768672;-0.640295;-0.009774;0.0;0.0;0.0;0.0;0.0;0.0
4.0;1753876675.276102;17.600723;0.57;-1.22;0.02;-0.76727;-0.643586;-0.009992;0.0;0.0;0.0;0.0;0.0;0.0
4.0;1753876675.280703;17.59106;0.71;-1.17;0.08;-0.767981;-0.637671;-0.00845;0.0;0.0;0.0;0.0;0.0;0.0
4.0;1753876675.285304;17.622526;0.67;-1.18;0.17;-0.76701;-0.641184;-0.010386;0.0;0.0;0.0;0.0;0.0;0.0
4.0;1753876675.289905;17.600129;0.53;-1.19;0.11;-0.769985;-0.638265;-0.008484;0.0;0.0;0.0;0.0;0.0;0.0
4.0;1753876675.294506;17.58175;0.51;-1.18;0.18;-0.760034;-0.642054;-0.009374;0.0;0.0;0.0;0.0;0.0;0.0
4.0;1753876675.299107;17.583949;0.52;-1.2;-0.0;-0.761811;-0.638043;-0.008489;0.0;0.0;0.0;0.0;0.0;0.0
4.0;1753876675.303708;17.590535;0.5;-1.2;0.12;-0.762402;-0.640252;-0.009068;0.0;0.0;0.0;0.0;0.0;0.0
4.0;1753876675.308309;17.594274;0.69;-1.17;0.11;-0.765152;-0.640597;-0.009222;0.0;0.0;0.0;0.0;0.0;0.0
4.0;1753876675.31291;17.575264;0.48;-1.23;0.16;-0.764085;-0.640458;-0.008692;0.0;0.0;0.0;0.0;0.0;0.0
4.0;1753876675.317511;17.635232;0.56;-1.24;0.17;-0.760477;-0.641369;-0.008059;0.0;0.0;0.0;0.0;0.0;0.0
4.0;1753876675.322112;17.624342;0.59;-1.18;0.04;-0.765187;-0.641807;-0.00947;0.0;0.0;0.0;0.0;0.0;0.0
4.0;1753876675.326713;17.587861;0.52;-1.23;0.08;-0.766245;-0.64191;-0.00831;0.0;0.0;0.0;0.0;0.0;0.0
4.0;1753876675.331314;17.610416;0.62;-1.15;0.11;-0.762533;-0.638585;-0.010939;0.0;0.0;0.0;0.0;0.0;0.0
4.0;1753876675.335915;17.598359;0.57;-1.18;0.13;-0.764078;-0.63866;-0.009729;0.0;0.0;0.0;0.0;0.0;0.0
4.0;1753876675.340516;17.599984;0.68;-1.2;-0.03;-0.764962;-0.641623;-0.007982;0.0;0.0;0.0;0.0;0.0;0.0
4.0;1753876675.345117;17.597152;0.52;-1.21;0.08;-0.76607;-0.642305;-0.008463;0.0;0.0;0.0;0.0;0.0;0.0
4.0;1753876675.349718;17.60783;0.52;-1.21;0.14;-0.763736;-0.643573;-0.010592;0.0;0.0;0.0;0.0;0.0;0.0
4.0;1753876675.354319;17.603975;0.57;-1.17;-0.01;-0.7624;-0.640371;-0.009335;0.0;0.0;0.0;0.0;0.0;0.0
4.0;1753876675.35892;17.582705;0.57;-1.13;0.07;-0.768176;-0.640072;-0.009644;0.0;0.0;0.0;0.0;0.0;0.0
4.0;1753876675.363521;17.612519;0.65;-1.19;0.1;-0.762344;-0.642187;-0.009687;0.0;0.0;0.0;0.0;0.0;0.0
4.0;1753876675.368122;17.608209;0.56;-1.19;0.01;-0.765377;-0.64134;-0.008559;0.0;0.0;0.0;0.0;0.0;0.0
4.0;1753876675.372723;17.58914;0.62;-1.14;0.09;-0.762382;-0.641667;-0.008655;0.0;0.0;0.0;0.0;0.0;0.0
4.0;1753876675.377324;17.597121;0.6;-1.15;0.03;-0.764183;-0.640792;-0.011246;0.0;0.0;0.0;0.0;0.0;0.0
4.0;1753876675.381925;17.579068;0.46;-1.2;0.09;-0.766491;-0.64082;-0.00983;0.0;0.0;0.0;0.0;0.0;0.0
4.0;1753876675.386526;17.597917;0.6;-1.15;0.05;-0.764824;-0.642913;-0.00831;0.0;0.0;0.0;0.0;0.0;0.0
4.0;1753876675.391127;17.602824;0.54;-1.17;0.05;-0.767578;-0.641222;-0.009455;0.0;0.0;0.0;0.0;0.0;0.0
4.0;1753876675.395728;17.599252;0.51;-1.2;-0.01;-0.765904;-0.639543;-0.009278;0.0;0.0;0.0;0.0;0.0;0.0
4.0;1753876675.400329;17.586315;0.44;-1.14;0.04;-0.765866;-0.6398;-0.008893;0.0;0.0;0.0;0.0;0.0;0.0
4.0;1753876675.40493;17.591871;0.47;-1.24;0.05;-0.764225;-0.641114;-0.010081;0.0;0.0;0.0;0.0;0.0;0.0
4.0;1753876675.409531;17.589614;0.45;-1.2;0.03;-0.763488;-0.640758;-0.010651;0.0;0.0;0.0;0.0;0.0;0.0
4.0;1753876675.414132;17.563658;0.55;-1.18;-0.03;-0.764257;-0.638826;-0.009156;0.0;0.0;0.0;0.0;0.0;0.0
4.0;1753876675.418733;17.581951;0.51;-1.17;0.04;-0.765325;-0.643586;-0.010241;0.0;0.0;0.0;0.0;0.0;0.0
4.0;1753876675.423334;17.593;0.53;-1.15;0.08;-0.764229;-0.643167;-0.009003;0.0;0.0;0.0;0.0;0.0;0.0
4.0;1753876675.427935;17.579401;0.45;-1.11;0.04;-0.761699;-0.642355;-0.008961;0.0;0.0;0.0;0.0;0.0;0.0
4.0;1753876675.432536;17.601554;0.57;-1.13;0.06;-0.762266;-0.645666;-0.010312;0.0;0.0;0.0;0.0;0.0;0.0
4.0;1753876675.437137;17.58839;0.42;-1.22;0.0;-0.764527;-0.644021;-0.010324;0.0;0.0;0.0;0.0;0.0;0.0
4.0;1753876675.441738;17.578952;0.49;-1.17;0.03;-0.762436;-0.638857;-0.010105;0.0;0.0;0.0;0.0;0.0;0.0
4.0;1753876675.446339;17.6122;0.45;-1.15;0.14;-0.763063;-0.641228;-0.009124;0.0;0.0;0.0;0.0;0.0;0.0
4.0;1753876675.45094;17.60359;0.45;-1.19;0.15;-0.764115;-0.640954;-0.008649;0.0;0.0;0.0;0.0;0.0;0.0
4.0;1753876675.455541;17.568146;0.65;-1.15;0.02;-0.762861;-0.641038;-0.008776;0.0;0.0;0.0;0.0;0.0;0.0
4.0;1753876675.460142;17.599306;0.53;-1.16;0.07;-0.762072;-0.638988;-0.009544;0.0;0.0;0.0;0.0;0.0;0.0
4.0;1753876675.464743;17.600311;0.38;-1.24;0.07;-0.762561;-0.640295;-0.009144;0.0;0.0;0.0;0.0;0.0;0.0
4.0;1753876675.469344;17.588323;0.57;-1.14;0.03;-0.767614;-0.637543;-0.009226;0.0;0.0;0.0;0.0;0.0;0.0
4.0;1753876675.473945;17.575753;0.55;-1.19;0.04;-0.764082;-0.640772;-0.008135;0.0;0.0;0.0;0.0;0.0;0.0
4.0;1753876675.478546;17.585573;0.55;-1.25;0.06;-0.764326;-0.640056;-0.008275;0.0;0.0;0.0;0.0;0.0;0.0
4.0;1753876675.483147;17.598673;0.6;-1.14;0.05;-0.764423;-0.638901;-0.011023;0.0;0.0;0.0;0.0;0.0;0.0
4.0;1753876675.487748;17.592509;0.6;-1.24;0.06;-0.76679;-0.640576;-0.011718;0.0;0.0;0.0;0.0;0.0;0.0
4.0;1753876675.492349;17.587742;0.58;-1.11;0.07;-0.763643;-0.637333;-0.008738;0.0;0.0;0.0;0.0;0.0;0.0
4.0;1753876675.49695;17.589848;0.59;-1.25;0.16;-0.769118;-0.643342;-0.007622;0.0;0.0;0.0;0.0;0.0;0.0
4.0;1753876675.501551;17.607567;0.37;-1.19;0.0;-0.76545;-0.644098;-0.009433;0.0;0.0;0.0;0.0;0.0;0.0
4.0;1753876675.506152;17.62039;0.53;-1.22;0.07;-0.761685;-0.643438;-0.010265;0.0;0.0;0.0;0.0;0.0;0.0
4.0;1753876675.510753;17.593196;0.58;-1.2;0.0;-0.762291;-0.640121;-0.009046;0.0;0.0;0.0;0.0;0.0;0.0
4.0;1753876675.515354;17.584161;0.48;-1.14;0.08;-0.76562;-0.642476;-0.008333;0.0;0.0;0.0;0.0;0.0;0.0
4.0;1753876675.519955;17.602331;0.69;-1.28;0.06;-0.766562;-0.643446;-0.007537;0.0;0.0;0.0;0.0;0.0;0.0
4.0;1753876675.524556;17.588585;0.61;-1.23;0.11;-0.76293;-0.642083;-0.009643;0.0;0.0;0.0;0.0;0.0;0.0
4.0;1753876675.529157;17.624711;0.5;-1.22;0.08;-0.760551;-0.642128;-0.009708;0.0;0.0;0.0;0.0;0.0;0.0
4.0;1753876675.533758;17.584318;0.44;-1.14;0.09;-0.761722;-0.641324;-0.009499;0.0;0.0;0.0;0.0;0.0;0.0
4.0;1753876675.538359;17.57889;0.59;-1.2;-0.01;-0.765727;-0.645826;-0.009494;0.0;0.0;0.0;0.0;0.0;0.0
4.0;1753876675.54296;17.601302;0.46;-1.18;-0.01;-0.76117;-0.641068;-0.009826;0.0;0.0;0.0;0.0;0.0;0.0
4.0;1753876675.547561;17.580543;0.48;-1.18;0.11;-0.766671;-0.641937;-0.009645;0.0;0.0;0.0;0.0;0.0;0.0
4.0;1753876675.552162;17.584101;0.5;-1.27;0.16;-0.765505;-0.640355;-0.010593;0.0;0.0;0.0;0.0;0.0;0.0
4.0;1753876675.556763;17.598252;0.51;-1.27;0.05;-0.76568;-0.641154;-0.009652;0.0;0.0;0.0;0.0;0.0;0.0
4.0;1753876675.561364;17.618094;0.56;-1.18;0.09;-0.764996;-0.642;-0.010302;0.0;0.0;0.0;0.0;0.0;0.0
4.0;1753876675.565965;17.576483;0.62;-1.21;0.04;-0.763257;-0.642582;-0.009822;0.0;0.0;0.0;0.0;0.0;0.0
4.0;1753876675.570566;17.589754;0.65;-1.19;0.07;-0.761006;-0.642032;-0.00858;0.0;0.0;0.0;0.0;0.0;0.0
4.0;1753876675.575167;17.622993;0.55;-1.18;0.09;-0.759141;-0.641451;-0.009873;0.0;0.0;0.0;0.0;0.0;0.0
4.0;1753876675.579768;17.576065;0.66;-1.23;0.07;-0.761324;-0.646645;-0.010017;0.0;0.0;0.0;0.0;0.0;0.0
4.0;1753876675.584369;17.607715;0.65;-1.17;0.17;-0.767506;-0.641297;-0.011087;0.0;0.0;0.0;0.0;0.0;0.0
4.0;1753876675.58897;17.584053;0.69;-1.14;0.12;-0.758456;-0.643645;-0.010209;0.0;0.0;0.0;0.0;0.0;0.0
4.0;1753876675.593571;17.608104;0.49;-1.13;-0.02;-0.761456;-0.63973;-0.009479;0.0;0.0;0.0;0.0;0.0;0.0
4.0;1753876675.598172;17.60595;0.47;-1.14;0.04;-0.761942;-0.637326;-0.009929;0.0;0.0;0.0;0.0;0.0;0.0
4.0;1753876675.602773;17.598949;0.48;-1.21;-0.01;-0.764497;-0.642179;-0.009389;0.0;0.0;0.0;0.0;0.0;0.0
4.0;1753876675.607374;17.611406;0.45;-1.19;0.12;-0.765195;-0.639226;-0.009091;0.0;0.0;0.0;0.0;0.0;0.0
4.0;1753876675.611975;17.580484;0.43;-1.19;0.13;-0.76393;-0.642587;-0.011803;0.0;0.0;0.0;0.0;0.0;0.0
4.0;1753876675.616576;17.607561;0.39;-1.2;0.11;-0.764385;-0.641953;-0.008011;0.0;0.0;0.0;0.0;0.0;0.0
4.0;1753876675.621177;17.593631;0.52;-1.16;0.07;-0.765818;-0.639519;-0.010096;0.0;0.0;0.0;0.0;0.0;0.0
4.0;1753876675.625778;17.574335;0.45;-1.17;0.15;-0.762875;-0.643475;-0.00722;0.0;0.0;0.0;0.0;0.0;0.0
4.0;1753876675.630379;17.602125;0.52;-1.22;-0.05;-0.762197;-0.643036;-0.011592;0.0;0.0;0.0;0.0;0.0;0.0
4.0;1753876675.63498;17.573817;0.52;-1.19;-0.12;-0.764166;-0.64048;-0.01048;0.0;0.0;0.0;0.0;0.0;0.0
4.0;1753876675.639581;17.606789;0.46;-1.17;0.09;-0.767082;-0.642319;-0.012001;0.0;0.0;0.0;0.0;0.0;0.0
4.0;1753876675.644182;17.59574;0.61;-1.21;0.12;-0.760164;-0.646025;-0.009432;0.0;0.0;0.0;0.0;0.0;0.0
4.0;1753876675.648783;17.595089;0.44;-1.16;0.16;-0.762502;-0.641167;-0.009727;0.0;0.0;0.0;0.0;0.0;0.0
4.0;1753876675.653384;17.596302;0.41;-1.15;0.09;-0.76253;-0.641951;-0.010988;0.0;0.0;0.0;0.0;0.0;0.0
4.0;1753876675.657985;17.595211;0.5;-1.15;0.09;-0.764292;-0.641181;-0.007755;0.0;0.0;0.0;0.0;0.0;0.0
4.0;1753876675.662586;17.58911;0.56;-1.18;0.11;-0.760344;-0.643397;-0.009437;0.0;0.0;0.0;0.0;0.0;0.0
4.0;1753876675.667187;17.571545;0.49;-1.17;0.06;-0.763428;-0.641586;-0.01269;0.0;0.0;0.0;0.0;0.0;0.0
4.0;1753876675.671788;17.595224;0.55;-1.17;0.08;-0.76347;-0.644861;-0.010372;0.0;0.0;0.0;0.0;0.0;0.0
4.0;1753876675.676389;17.581161;0.62;-1.26;0.12;-0.763045;-0.645243;-0.009478;0.0;0.0;0.0;0.0;0.0;0.0
4.0;1753876675.68099;17.596735;0.53;-1.18;0.14;-0.762409;-0.639381;-0.011466;0.0;0.0;0.0;0.0;0.0;0.0
4.0;1753876675.685591;17.618417;0.61;-1.26;0.04;-0.766029;-0.638733;-0.011094;0.0;0.0;0.0;0.0;0.0;0.0
4.0;1753876675.690192;17.591139;0.51;-1.23;0.04;-0.764641;-0.64131;-0.009863;0.0;0.0;0.0;0.0;0.0;0.0
4.0;1753876675.694793;17.621466;0.46;-1.18;0.16;-0.765348;-0.643927;-0.010917;0.0;0.0;0.0;0.0;0.0;0.0
4.0;1753876675.699394;17.645766;0.58;-1.18;0.02;-0.763483;-0.642654;-0.011197;0.0;0.0;0.0;0.0;0.0;0.0
4.0;1753876675.703995;17.596148;0.45;-1.19;0.08;-0.7643;-0.643894;-0.009773;0.0;0.0;0.0;0.0;0.0;0.0
4.0;1753876675.708596;17.615751;0.57;-1.23;0.04;-0.760898;-0.645346;-0.010131;0.0;0.0;0.0;0.0;0.0;0.0
4.0;1753876675.713197;17.606286;0.53;-1.19;0.08;-0.76236;-0.644335;-0.010091;0.0;0.0;0.0;0.0;0.0;0.0
4.0;1753876675.718;17.597656;0.49;-1.19;0.07;-0.76311;-0.642818;-0.01037;0.0;0.0;0.0;0.0;0.0;0.0
4.0;1753876675.722601;17.590236;0.42;-1.2;0.13;-0.761717;-0.641336;-0.010983;0.0;0.0;0.0;0.0;0.0;0.0
4.0;1753876675.727202;17.60441;0.57;-1.16;-0.02;-0.760025;-0.643675;-0.010359;0.0;0.0;0.0;0.0;0.0;0.0
4.0;1753876675.731803;17.603017;0.56;-1.24;-0.02;-0.761041;-0.642822;-0.008806;0.0;0.0;0.0;0.0;0.0;0.0
4.0;1753876675.736404;17.569529;0.5;-1.19;0.09;-0.760396;-0.641641;-0.008349;0.0;0.0;0.0;0.0;0.0;0.0
4.0;1753876675.741005;17.613183;0.56;-1.3;-0.02;-0.765561;-0.643131;-0.006699;0.0;0.0;0.0;0.0;0.0;0.0
4.0;1753876675.745606;17.608261;0.62;-1.18;0.08;-0.762248;-0.643302;-0.008116;0.0;0.0;0.0;0.0;0.0;0.0
4.0;1753876675.750207;17.602472;0.65;-1.18;0.01;-0.764064;-0.640094;-0.009335;0.0;0.0;0.0;0.0;0.0;0.0
4.0;1753876675.75883;17.605469;0.63;-1.19;0.0;-0.762744;-0.643916;-0.008052;0.0;0.0;0.0;0.0;0.0;0.0
4.0;1753876675.763431;17.590339;0.58;-1.1;0.01;-0.760899;-0.640619;-0.007494;0.0;0.0;0.0;0.0;0.0;0.0
4.0;1753876675.768032;17.594672;0.52;-1.23;-0.1;-0.758931;-0.645739;-0.008368;0.0;0.0;0.0;0.0;0.0;0.0
4.0;1753876675.772633;17.597272;0.63;-1.15;0.02;-0.761926;-0.644134;-0.008345;0.0;0.0;0.0;0.0;0.0;0.0
4.0;1753876675.777234;17.594814;0.62;-1.17;0.07;-0.765984;-0.640818;-0.008086;0.0;0.0;0.0;0.0;0.0;0.0
4.0;1753876675.781835;17.611007;0.51;-1.2;-0.05;-0.763615;-0.643712;-0.007686;0.0;0.0;0.0;0.0;0.0;0.0
4.0;1753876675.786436;17.595089;0.52;-1.13;0.09;-0.762929;-0.64198;-0.008492;0.0;0.0;0.0;0.0;0.0;0.0
4.0;1753876675.791037;17.597717;0.51;-1.2;0.01;-0.764111;-0.641506;-0.009008;0.0;0.0;0.0;0.0;0.0;0.0
4.0;1753876675.795638;17.605882;0.76;-1.14;0.09;-0.761904;-0.641764;-0.008941;0.0;0.0;0.0;0.0;0.0;0.0
4.0;1753876675.800239;17.592729;0.63;-1.18;0.1;-0.759946;-0.642324;-0.009285;0.0;0.0;0.0;0.0;0.0;0.0
4.0;1753876675.80581;17.605469;0.56;-1.12;0.14;-0.764818;-0.639524;-0.009638;0.0;0.0;0.0;0.0;0.0;0.0
4.0;1753876675.810411;17.62001;0.44;-1.09;0.26;-0.762541;-0.638745;-0.010796;0.0;0.0;0.0;0.0;0.0;0.0
4.0;1753876675.815012;17.602854;0.59;-1.13;0.23;-0.763451;-0.638718;-0.009331;0.0;0.0;0.0;0.0;0.0;0.0
4.0;1753876675.819613;17.595044;0.53;-1.13;0.06;-0.763508;-0.641594;-0.009543;0.0;0.0;0.0;0.0;0.0;0.0
4.0;1753876675.824214;17.620264;0.63;-1.07;0.09;-0.766239;-0.641412;-0.010558;0.0;0.0;0.0;0.0;0.0;0.0
4.0;1753876675.828815;17.590179;0.5;-1.17;0.13;-0.76335;-0.643305;-0.010816;0.0;0.0;0.0;0.0;0.0;0.0
4.0;1753876675.833416;17.622378;0.58;-1.11;0.01;-0.762276;-0.639159;-0.009684;0.0;0.0;0.0;0.0;0.0;0.0
4.0;1753876675.838017;17.602379;0.55;-1.02;0.15;-0.762155;-0.638637;-0.009525;0.0;0.0;0.0;0.0;0.0;0.0
4.0;1753876675.842618;17.60766;0.46;-1.12;0.03;-0.765145;-0.640092;-0.010173;0.0;0.0;0.0;0.0;0.0;0.0
4.0;1753876675.847219;17.598073;0.53;-1.01;0.11;-0.765353;-0.642618;-0.011082;0.0;0.0;0.0;0.0;0.0;0.0
4.0;1753876675.85182;17.597099;0.56;-1.06;-0.01;-0.766127;-0.641466;-0.00856;0.0;0.0;0.0;0.0;0.0;0.0
4.0;1753876675.856421;17.605214;0.58;-1.16;0.07;-0.765869;-0.640412;-0.009091;0.0;0.0;0.0;0.0;0.0;0.0
4.0;1753876675.861022;17.618666;0.48;-1.07;0.02;-0.762867;-0.640493;-0.009005;0.0;0.0;0.0;0.0;0.0;0.0
4.0;1753876675.865623;17.61571;0.62;-1.08;0.09;-0.763187;-0.641547;-0.010681;0.0;0.0;0.0;0.0;0.0;0.0
4.0;1753876675.87133;17.605469;0.56;-1.05;0.07;-0.763842;-0.641842;-0.009516;0.0;0.0;0.0;0.0;0.0;0.0
4.0;1753876675.875931;17.589123;0.59;-1.05;0.05;-0.763456;-0.641423;-0.009395;0.0;0.0;0.0;0.0;0.0;0.0
4.0;1753876675.880532;17.604307;0.43;-1.07;0.04;-0.763829;-0.640494;-0.00875;0.0;0.0;0.0;0.0;0.0;0.0
4.0;1753876675.885133;17.607487;0.6;-1.01;0.04;-0.764928;-0.643319;-0.008136;0.0;0.0;0.0;0.0;0.0;0.0
4.0;1753876675.889734;17.60682;0.57;-1.16;0.08;-0.764056;-0.640678;-0.008475;0.0;0.0;0.0;0.0;0.0;0.0
4.0;1753876675.894335;17.613972;0.56;-1.15;-0.03;-0.762577;-0.642305;-0.010026;0.0;0.0;0.0;0.0;0.0;0.0
4.0;1753876675.898936;17.617942;0.69;-1.08;0.09;-0.766012;-0.64285;-0.010966;0.0;0.0;0.0;0.0;0.0;0.0
4.0;1753876675.903537;17.610987;0.67;-1.06;0.06;-0.762469;-0.64222;-0.009467;0.0;0.0;0.0;0.0;0.0;0.0
4.0;1753876675.9105;17.621094;0.63;-1.12;0.07;-0.764208;-0.641598;-0.009394;0.0;0.0;0.0;0.0;0.0;0.0
4.0;1753876675.915101;17.589759;0.62;-1.12;0.11;-0.763683;-0.640568;-0.010681;0.0;0.0;0.0;0.0;0.0;0.0
4.0;1753876675.919702;17.60904;0.57;-1.16;0.1;-0.764003;-0.643145;-0.009794;0.0;0.0;0.0;0.0;0.0;0.0
4.0;1753876675.924303;17.611354;0.46;-1.2;0.19;-0.766063;-0.641456;-0.008705;0.0;0.0;0.0;0.0;0.0;0.0
4.0;1753876675.928904;17.618829;0.59;-1.2;0.06;-0.76337;-0.640099;-0.00896;0.0;0.0;0.0;0.0;0.0;0.0
4.0;1753876675.933505;17.615516;0.56;-1.18;0.25;-0.764452;-0.640559;-0.008516;0.0;0.0;0.0;0.0;0.0;0.0
4.0;1753876675.94171;17.621094;0.49;-1.19;0.14;-0.762622;-0.640744;-0.008418;0.0;0.0;0.0;0.0;0.0;0.0
4.0;1753876675.946311;17.631596;0.59;-1.22;0.18;-0.762763;-0.641536;-0.007399;0.0;0.0;0.0;0.0;0.0;0.0
4.0;1753876675.950912;17.600551;0.47;-1.24;0.2;-0.761319;-0.641419;-0.008297;0.0;0.0;0.0;0.0;0.0;0.0
4.0;1753876675.955513;17.65478;0.58;-1.13;0.12;-0.764315;-0.638168;-0.008268;0.0;0.0;0.0;0.0;0.0;0.0
4.0;1753876675.960114;17.626592;0.41;-1.21;0.08;-0.763909;-0.641432;-0.010093;0.0;0.0;0.0;0.0;0.0;0.0
4.0;1753876675.964715;17.637252;0.41;-1.23;0.04;-0.764672;-0.64293;-0.007954;0.0;0.0;0.0;0.0;0.0;0.0
4.0;1753876675.969316;17.633588;0.6;-1.14;0.13;-0.764339;-0.64035;-0.00835;0.0;0.0;0.0;0.0;0.0;0.0
4.0;1753876675.973917;17.609588;0.56;-1.14;0.12;-0.762849;-0.642766;-0.010102;0.0;0.0;0.0;0.0;0.0;0.0
4.0;1753876675.978518;17.62806;0.67;-1.15;0.16;-0.765604;-0.64095;-0.008912;0.0;0.0;0.0;0.0;0.0;0.0
4.0;1753876675.983119;17.606546;0.52;-1.21;0.08;-0.761317;-0.640427;-0.008605;0.0;0.0;0.0;0.0;0.0;0.0
4.0;1753876675.98772;17.618974;0.45;-1.19;-0.04;-0.764624;-0.639824;-0.007668;0.0;0.0;0.0;0.0;0.0;0.0
4.0;1753876675.99454;17.621094;0.56;-1.19;0.07;-0.765062;-0.641476;-0.009394;0.0;0.0;0.0;0.0;0.0;0.0
4.0;1753876675.997774;17.585938;0.56;-1.19;0.0;-0.762378;-0.640012;-0.009272;0.0;0.0;0.0;0.0;0.0;0.0
4.0;1753876675.999339;17.636719;0.56;-1.33;0.07;-0.763354;-0.642208;-0.009394;0.0;0.0;0.0;0.0;0.0;0.0
4.0;1753876676.00394;17.624681;0.56;-1.35;0.11;-0.763104;-0.641757;-0.008169;0.0;0.0;0.0;0.0;0.0;0.0
4.0;1753876676.008541;17.683366;0.52;-1.37;0.08;-0.762887;-0.641855;-0.009086;0.0;0.0;0.0;0.0;0.0;0.0
4.0;1753876676.013142;17.643844;0.6;-1.28;0.13;-0.765396;-0.642498;-0.008409;0.0;0.0;0.0;0.0;0.0;0.0
4.0;1753876676.017743;17.654689;0.54;-1.16;0.03;-0.764795;-0.641933;-0.009512;0.0;0.0;0.0;0.0;0.0;0.0
4.0;1753876676.022344;17.604571;0.55;-1.36;0.02;-0.763544;-0.642919;-0.009937;0.0;0.0;0.0;0.0;0.0;0.0
4.0;1753876676.026945;17.612212;0.57;-1.31;0.11;-0.764519;-0.642128;-0.010241;0.0;0.0;0.0;0.0;0.0;0.0
4.0;1753876676.031546;17.645974;0.61;-1.33;0.02;-0.764356;-0.641998;-0.008675;0.0;0.0;0.0;0.0;0.0;0.0
4.0;1753876676.036147;17.6471;0.61;-1.28;0.14;-0.766086;-0.641214;-0.009471;0.0;0.0;0.0;0.0;0.0;0.0
4.0;1753876676.040748;17.654045;0.55;-1.26;0.0;-0.76312;-0.641567;-0.008988;0.0;0.0;0.0;0.0;0.0;0.0
4.0;1753876676.045349;17.647238;0.57;-1.29;0.11;-0.761169;-0.641169;-0.010451;0.0;0.0;0.0;0.0;0.0;0.0
4.0;1753876676.04995;17.666401;0.6;-1.28;0.09;-0.763521;-0.642952;-0.010034;0.0;0.0;0.0;0.0;0.0;0.0
4.0;1753876676.054551;17.60413;0.59;-1.36;0.1;-0.762689;-0.643748;-0.008589;0.0;0.0;0.0;0.0;0.0;0.0
4.0;1753876676.059152;17.627075;0.48;-1.23;0.07;-0.764286;-0.642946;-0.008936;0.0;0.0;0.0;0.0;0.0;0.0
4.0;1753876676.063753;17.666457;0.54;-1.27;0.08;-0.76519;-0.641989;-0.008901;0.0;0.0;0.0;0.0;0.0;0.0
4.0;1753876676.068354;17.602394;0.53;-1.28;0.08;-0.76414;-0.641525;-0.009009;0.0;0.0;0.0;0.0;0.0;0.0
4.0;1753876676.072955;17.641312;0.59;-1.45;0.1;-0.764743;-0.642031;-0.008654;0.0;0.0;0.0;0.0;0.0;0.0
4.0;1753876676.077556;17.632695;0.51;-1.28;0.04;-0.763565;-0.641929;-0.009487;0.0;0.0;0.0;0.0;0.0;0.0
4.0;1753876676.082157;17.640135;0.57;-1.23;0.03;-0.763985;-0.641789;-0.010323;0.0;0.0;0.0;0.0;0.0;0.0
4.0;1753876676.086758;17.628555;0.59;-1.21;0.1;-0.764993;-0.64151;-0.010263;0.0;0.0;0.0;0.0;0.0;0.0
4.0;1753876676.091359;17.617047;0.61;-1.26;0.06;-0.765025;-0.641052;-0.009573;0.0;0.0;0.0;0.0;0.0;0.0
4.0;1753876676.09596;17.676723;0.68;-1.27;0.02;-0.766052;-0.641746;-0.010747;0.0;0.0;0.0;0.0;0.0;0.0
4.0;1753876676.100561;17.619017;0.57;-1.17;0.01;-0.762916;-0.642409;-0.009812;0.0;0.0;0.0;0.0;0.0;0.0
4.0;1753876676.105162;17.597434;0.52;-1.22;0.1;-0.76317;-0.641782;-0.008661;0.0;0.0;0.0;0.0;0.0;0.0
4.0;1753876676.109763;17.600243;0.6;-1.26;-0.01;-0.762444;-0.642567;-0.00881;0.0;0.0;0.0;0.0;0.0;0.0
4.0;1753876676.114364;17.623194;0.62;-1.3;0.09;-0.76351;-0.64097;-0.008772;0.0;0.0;0.0;0.0;0.0;0.0
4.0;1753876676.118965;17.64581;0.49;-1.29;0.05;-0.764526;-0.642233;-0.010411;0.0;0.0;0.0;0.0;0.0;0.0
4.0;1753876676.123566;17.620661;0.55;-1.24;-0.0;-0.764411;-0.642724;-0.008546;0.0;0.0;0.0;0.0;0.0;0.0
4.0;1753876676.128167;17.627441;0.63;-1.22;0.05;-0.763836;-0.642943;-0.00805;0.0;0.0;0.0;0.0;0.0;0.0
4.0;1753876676.132768;17.605267;0.58;-1.22;0.02;-0.763328;-0.641558;-0.008435;0.0;0.0;0.0;0.0;0.0;0.0
4.0;1753876676.137369;17.579023;0.52;-1.16;0.04;-0.764393;-0.642307;-0.009467;0.0;0.0;0.0;0.0;0.0;0.0
4.0;1753876676.14197;17.628981;0.63;-1.32;0.0;-0.763859;-0.642179;-0.009372;0.0;0.0;0.0;0.0;0.0;0.0
4.0;1753876676.146571;17.658468;0.65;-1.23;0.09;-0.763465;-0.642066;-0.009953;0.0;0.0;0.0;0.0;0.0;0.0
4.0;1753876676.151172;17.640237;0.57;-1.39;-0.0;-0.762595;-0.641516;-0.008955;0.0;0.0;0.0;0.0;0.0;0.0
4.0;1753876676.155773;17.62716;0.54;-1.25;0.05;-0.764099;-0.64169;-0.009712;0.0;0.0;0.0;0.0;0.0;0.0
4.0;1753876676.160374;17.640424;0.53;-1.24;0.06;-0.76178;-0.641929;-0.009392;0.0;0.0;0.0;0.0;0.0;0.0
4.0;1753876676.164975;17.641158;0.61;-1.25;0.04;-0.765543;-0.641953;-0.009152;0.0;0.0;0.0;0.0;0.0;0.0
4.0;1753876676.169576;17.626995;0.5;-1.32;0.01;-0.763735;-0.642508;-0.008237;0.0;0.0;0.0;0.0;0.0;0.0
4.0;1753876676.174177;17.600979;0.63;-1.26;-0.0;-0.763604;-0.641129;-0.008911;0.0;0.0;0.0;0.0;0.0;0.0
4.0;1753876676.178778;17.645753;0.56;-1.21;0.03;-0.763515;-0.643046;-0.00908;0.0;0.0;0.0;0.0;0.0;0.0
4.0;1753876676.183379;17.643091;0.63;-1.23;0.08;-0.763434;-0.640939;-0.00959;0.0;0.0;0.0;0.0;0.0;0.0
4.0;1753876676.18798;17.624034;0.65;-1.27;0.06;-0.763281;-0.642212;-0.008986;0.0;0.0;0.0;0.0;0.0;0.0
4.0;1753876676.192581;17.643145;0.61;-1.16;0.06;-0.765008;-0.641611;-0.010303;0.0;0.0;0.0;0.0;0.0;0.0
4.0;1753876676.197182;17.614636;0.61;-1.21;0.07;-0.765202;-0.641103;-0.007665;0.0;0.0;0.0;0.0;0.0;0.0
4.0;1753876676.201783;17.663344;0.53;-1.29;0.05;-0.764115;-0.642437;-0.009018;0.0;0.0;0.0;0.0;0.0;0.0
4.0;1753876676.206384;17.677236;0.6;-1.21;0.12;-0.765323;-0.642365;-0.008531;0.0;0.0;0.0;0.0;0.0;0.0
4.0;1753876676.210985;17.624563;0.69;-1.15;0.06;-0.764213;-0.642072;-0.007514;0.0;0.0;0.0;0.0;0.0;0.0
4.0;1753876676.215586;17.626363;0.64;-1.32;0.01;-0.762761;-0.64077;-0.009619;0.0;0.0;0.0;0.0;0.0;0.0
4.0;1753876676.220187;17.668194;0.47;-1.28;-0.03;-0.764458;-0.64343;-0.009128;0.0;0.0;0.0;0.0;0.0;0.0
4.0;1753876676.224788;17.621258;0.59;-1.18;0.06;-0.766406;-0.641207;-0.00947;0.0;0.0;0.0;0.0;0.0;0.0
4.0;1753876676.229389;17.664719;0.61;-1.18;0.07;-0.763243;-0.641993;-0.009217;0.0;0.0;0.0;0.0;0.0;0.0
4.0;1753876676.23399;17.630643;0.62;-1.13;0.09;-0.764653;-0.64284;-0.009005;0.0;0.0;0.0;0.0;0.0;0.0
4.0;1753876676.238591;17.628452;0.64;-1.23;0.05;-0.763658;-0.641243;-0.008134;0.0;0.0;0.0;0.0;0.0;0.0
4.0;1753876676.243192;17.58337;0.6;-1.17;0.02;-0.762384;-0.640732;-0.008583;0.0;0.0;0.0;0.0;0.0;0.0
4.0;1753876676.247793;17.671363;0.66;-1.2;0.07;-0.764994;-0.641378;-0.009515;0.0;0.0;0.0;0.0;0.0;0.0
4.0;1753876676.252394;17.637231;0.56;-1.14;0.01;-0.763833;-0.641953;-0.009642;0.0;0.0;0.0;0.0;0.0;0.0
4.0;1753876676.256995;17.614843;0.65;-1.16;0.02;-0.764196;-0.640456;-0.00828;0.0;0.0;0.0;0.0;0.0;0.0
4.0;1753876676.261596;17.65562;0.69;-1.17;0.11;-0.76278;-0.640058;-0.009469;0.0;0.0;0.0;0.0;0.0;0.0
4.0;1753876676.266197;17.651527;0.53;-1.27;0.09;-0.762394;-0.641465;-0.008506;0.0;0.0;0.0;0.0;0.0;0.0
4.0;1753876676.270798;17.599676;0.62;-1.19;0.01;-0.765196;-0.641241;-0.008619;0.0;0.0;0.0;0.0;0.0;0.0
4.0;1753876676.275399;17.644928;0.5;-1.2;0.04;-0.764492;-0.640976;-0.007423;0.0;0.0;0.0;0.0;0.0;0.0
4.0;1753876676.28;17.64637;0.65;-1.26;0.02;-0.762478;-0.641051;-0.0087;0.0;0.0;0.0;0.0;0.0;0.0
4.0;1753876676.284601;17.63172;0.61;-1.2;-0.02;-0.764565;-0.642737;-0.008602;0.0;0.0;0.0;0.0;0.0;0.0
4.0;1753876676.289202;17.615644;0.6;-1.09;0.01;-0.764121;-0.641148;-0.008485;0.0;0.0;0.0;0.0;0.0;0.0
4.0;1753876676.293803;17.689862;0.62;-1.29;-0.02;-0.763711;-0.640574;-0.009139;0.0;0.0;0.0;0.0;0.0;0.0
4.0;1753876676.298404;17.661767;0.7;-1.19;-0.01;-0.762173;-0.642;-0.009584;0.0;0.0;0.0;0.0;0.0;0.0
4.0;1753876676.303005;17.586932;0.62;-1.18;0.04;-0.763698;-0.641693;-0.009406;0.0;0.0;0.0;0.0;0.0;0.0
4.0;1753876676.307606;17.635799;0.5;-1.13;-0.03;-0.765978;-0.642326;-0.010564;0.0;0.0;0.0;0.0;0.0;0.0
4.0;1753876676.312207;17.60907;0.66;-1.31;0.01;-0.763354;-0.641901;-0.008179;0.0;0.0;0.0;0.0;0.0;0.0
4.0;1753876676.316808;17.611269;0.66;-1.15;-0.04;-0.766662;-0.641092;-0.008452;0.0;0.0;0.0;0.0;0.0;0.0
4.0;1753876676.321409;17.680249;0.65;-1.22;0.01;-0.764708;-0.640801;-0.008234;0.0;0.0;0.0;0.0;0.0;0.0
4.0;1753876676.32601;17.646376;0.65;-1.15;-0.06;-0.763371;-0.642339;-0.008556;0.0;0.0;0.0;0.0;0.0;0.0
4.0;1753876676.330611;17.605336;0.63;-1.23;0.05;-0.768168;-0.641461;-0.008469;0.0;0.0;0.0;0.0;0.0;0.0
4.0;1753876676.335212;17.617317;0.66;-1.1;0.05;-0.765538;-0.643203;-0.009451;0.0;0.0;0.0;0.0;0.0;0.0
4.0;1753876676.339813;17.638978;0.59;-1.06;-0.04;-0.763879;-0.641654;-0.008483;0.0;0.0;0.0;0.0;0.0;0.0
4.0;1753876676.344414;17.633466;0.58;-1.07;-0.01;-0.764276;-0.642133;-0.008389;0.0;0.0;0.0;0.0;0.0;0.0
4.0;1753876676.349015;17.66795;0.61;-1.07;0.05;-0.763195;-0.642002;-0.009449;0.0;0.0;0.0;0.0;0.0;0.0
4.0;1753876676.353616;17.620277;0.65;-1.07;0.02;-0.763466;-0.642096;-0.008125;0.0;0.0;0.0;0.0;0.0;0.0
4.0;1753876676.358217;17.630927;0.54;-1.16;0.05;-0.76315;-0.641871;-0.00867;0.0;0.0;0.0;0.0;0.0;0.0
4.0;1753876676.362818;17.656897;0.67;-1.14;-0.01;-0.763887;-0.641782;-0.009237;0.0;0.0;0.0;0.0;0.0;0.0
4.0;1753876676.367419;17.635546;0.6;-1.19;0.0;-0.767152;-0.642518;-0.008875;0.0;0.0;0.0;0.0;0.0;0.0
4.0;1753876676.37202;17.673726;0.63;-1.11;0.07;-0.763757;-0.642098;-0.008241;0.0;0.0;0.0;0.0;0.0;0.0
4.0;1753876676.376621;17.653128;0.74;-1.24;0.07;-0.766738;-0.639723;-0.007939;0.0;0.0;0.0;0.0;0.0;0.0
4.0;1753876676.381222;17.629168;0.63;-1.18;0.02;-0.765381;-0.641161;-0.009371;0.0;0.0;0.0;0.0;0.0;0.0
4.0;1753876676.385823;17.624265;0.65;-1.18;-0.01;-0.765311;-0.642027;-0.0074;0.0;0.0;0.0;0.0;0.0;0.0
4.0;1753876676.3942;17.636719;0.63;-1.12;0.0;-0.764574;-0.64172;-0.008418;0.0;0.0;0.0;0.0;0.0;0.0
4.0;1753876676.398801;17.646256;0.59;-1.13;-0.06;-0.762917;-0.641528;-0.008395;0.0;0.0;0.0;0.0;0.0;0.0
4.0;1753876676.403402;17.605851;0.63;-1.13;-0.05;-0.763285;-0.64223;-0.007524;0.0;0.0;0.0;0.0;0.0;0.0
4.0;1753876676.408003;17.634504;0.57;-1.02;-0.03;-0.765573;-0.641132;-0.008758;0.0;0.0;0.0;0.0;0.0;0.0
4.0;1753876676.412604;17.652254;0.6;-1.12;0.04;-0.764818;-0.641943;-0.00776;0.0;0.0;0.0;0.0;0.0;0.0
4.0;1753876676.417205;17.672051;0.66;-1.23;-0.0;-0.765595;-0.641796;-0.00731;0.0;0.0;0.0;0.0;0.0;0.0
4.0;1753876676.421806;17.618156;0.68;-1.19;-0.04;-0.763869;-0.642509;-0.008249;0.0;0.0;0.0;0.0;0.0;0.0
4.0;1753876676.426407;17.67805;0.54;-1.16;0.07;-0.763798;-0.64213;-0.007437;0.0;0.0;0.0;0.0;0.0;0.0
4.0;1753876676.431008;17.667229;0.66;-1.17;-0.05;-0.763089;-0.641241;-0.008891;0.0;0.0;0.0;0.0;0.0;0.0
4.0;1753876676.435609;17.639477;0.67;-1.22;0.06;-0.761688;-0.641423;-0.007858;0.0;0.0;0.0;0.0;0.0;0.0
4.0;1753876676.44021;17.598831;0.53;-1.13;0.11;-0.764622;-0.641589;-0.008568;0.0;0.0;0.0;0.0;0.0;0.0
4.0;1753876676.444811;17.663849;0.58;-1.1;-0.04;-0.764883;-0.641524;-0.008812;0.0;0.0;0.0;0.0;0.0;0.0
4.0;1753876676.449412;17.65712;0.61;-1.18;-0.02;-0.76494;-0.641735;-0.008431;0.0;0.0;0.0;0.0;0.0;0.0
4.0;1753876676.454013;17.645383;0.6;-1.02;0.03;-0.765838;-0.640504;-0.007168;0.0;0.0;0.0;0.0;0.0;0.0
4.0;1753876676.458614;17.570255;0.64;-1.17;0.07;-0.765172;-0.641915;-0.007406;0.0;0.0;0.0;0.0;0.0;0.0
4.0;1753876676.463215;17.631841;0.64;-1.12;0.05;-0.764119;-0.641531;-0.009237;0.0;0.0;0.0;0.0;0.0;0.0
4.0;1753876676.467816;17.660224;0.63;-1.16;-0.01;-0.763472;-0.641985;-0.008891;0.0;0.0;0.0;0.0;0.0;0.0
4.0;1753876676.472417;17.57421;0.65;-1.14;0.01;-0.764234;-0.640073;-0.009075;0.0;0.0;0.0;0.0;0.0;0.0
4.0;1753876676.477018;17.654208;0.64;-1.08;-0.08;-0.765422;-0.642204;-0.009223;0.0;0.0;0.0;0.0;0.0;0.0
4.0;1753876676.481619;17.620337;0.69;-1.1;0.04;-0.765795;-0.640174;-0.00806;0.0;0.0;0.0;0.0;0.0;0.0
4.0;1753876676.48622;17.63618;0.59;-1.04;0.01;-0.763818;-0.642636;-0.007966;0.0;0.0;0.0;0.0;0.0;0.0
4.0;1753876676.490821;17.652699;0.65;-1.12;-0.04;-0.764565;-0.641432;-0.008753;0.0;0.0;0.0;0.0;0.0;0.0
4.0;1753876676.495422;17.617776;0.6;-1.1;-0.03;-0.765203;-0.641075;-0.010204;0.0;0.0;0.0;0.0;0.0;0.0
4.0;1753876676.500023;17.606179;0.6;-1.21;0.08;-0.76347;-0.642606;-0.007865;0.0;0.0;0.0;0.0;0.0;0.0
4.0;1753876676.504624;17.609409;0.58;-1.06;-0.06;-0.764613;-0.639647;-0.008971;0.0;0.0;0.0;0.0;0.0;0.0
4.0;1753876676.509225;17.61002;0.65;-1.17;0.0;-0.764772;-0.642054;-0.009453;0.0;0.0;0.0;0.0;0.0;0.0
4.0;1753876676.513826;17.654776;0.65;-1.07;0.01;-0.765178;-0.641898;-0.009337;0.0;0.0;0.0;0.0;0.0;0.0
4.0;1753876676.518427;17.591823;0.61;-1.02;-0.01;-0.762932;-0.641504;-0.008716;0.0;0.0;0.0;0.0;0.0;0.0
4.0;1753876676.523028;17.636725;0.6;-1.14;0.01;-0.764767;-0.641191;-0.007353;0.0;0.0;0.0;0.0;0.0;0.0
4.0;1753876676.527629;17.664905;0.63;-1.17;0.02;-0.7654;-0.642489;-0.009749;0.0;0.0;0.0;0.0;0.0;0.0
4.0;1753876676.53223;17.65753;0.54;-1.14;-0.03;-0.767759;-0.641289;-0.008922;0.0;0.0;0.0;0.0;0.0;0.0
4.0;1753876676.536831;17.604549;0.62;-1.11;0.01;-0.763843;-0.640674;-0.009011;0.0;0.0;0.0;0.0;0.0;0.0
4.0;1753876676.541432;17.639438;0.59;-1.15;0.0;-0.765014;-0.641705;-0.009399;0.0;0.0;0.0;0.0;0.0;0.0
4.0;1753876676.546033;17.615602;0.67;-1.15;-0.02;-0.767497;-0.64203;-0.00937;0.0;0.0;0.0;0.0;0.0;0.0
4.0;1753876676.550634;17.587292;0.62;-1.17;-0.07;-0.766265;-0.642642;-0.009313;0.0;0.0;0.0;0.0;0.0;0.0
4.0;1753876676.555235;17.63946;0.56;-1.24;-0.01;-0.763637;-0.641932;-0.008816;0.0;0.0;0.0;0.0;0.0;0.0
4.0;1753876676.559836;17.666865;0.65;-1.2;-0.04;-0.763094;-0.64027;-0.008778;0.0;0.0;0.0;0.0;0.0;0.0
4.0;1753876676.564437;17.637693;0.59;-1.21;-0.02;-0.76331;-0.641806;-0.009462;0.0;0.0;0.0;0.0;0.0;0.0
4.0;1753876676.569038;17.666936;0.61;-1.08;0.03;-0.766194;-0.640733;-0.008958;0.0;0.0;0.0;0.0;0.0;0.0
4.0;1753876676.573639;17.640815;0.69;-1.09;-0.04;-0.764735;-0.642274;-0.00789;0.0;0.0;0.0;0.0;0.0;0.0
4.0;1753876676.57824;17.590156;0.51;-1.21;0.03;-0.765285;-0.642648;-0.00772;0.0;0.0;0.0;0.0;0.0;0.0
4.0;1753876676.582841;17.631553;0.61;-1.13;0.11;-0.765372;-0.64073;-0.008646;0.0;0.0;0.0;0.0;0.0;0.0
4.0;1753876676.587442;17.652217;0.66;-1.3;0.07;-0.767104;-0.642412;-0.009133;0.0;0.0;0.0;0.0;0.0;0.0
4.0;1753876676.592043;17.620162;0.64;-1.11;0.01;-0.765083;-0.641132;-0.008383;0.0;0.0;0.0;0.0;0.0;0.0
4.0;1753876676.596644;17.626064;0.65;-1.06;0.05;-0.765173;-0.640758;-0.009013;0.0;0.0;0.0;0.0;0.0;0.0
4.0;1753876676.601245;17.609987;0.65;-1.15;-0.03;-0.764586;-0.641107;-0.008806;0.0;0.0;0.0;0.0;0.0;0.0
4.0;1753876676.605846;17.67175;0.57;-1.1;0.08;-0.764345;-0.641295;-0.0086;0.0;0.0;0.0;0.0;0.0;0.0
4.0;1753876676.610447;17.641668;0.62;-1.26;0.07;-0.765929;-0.641309;-0.0095;0.0;0.0;0.0;0.0;0.0;0.0
4.0;1753876676.615048;17.628733;0.69;-1.21;-0.02;-0.763383;-0.641163;-0.009443;0.0;0.0;0.0;0.0;0.0;0.0
4.0;1753876676.619649;17.612551;0.6;-1.18;-0.04;-0.764861;-0.640799;-0.009942;0.0;0.0;0.0;0.0;0.0;0.0
4.0;1753876676.62425;17.666651;0.67;-1.12;0.03;-0.764307;-0.642637;-0.008636;0.0;0.0;0.0;0.0;0.0;0.0
4.0;1753876676.628851;17.630487;0.6;-1.14;0.04;-0.763067;-0.639995;-0.009414;0.0;0.0;0.0;0.0;0.0;0.0
4.0;1753876676.633452;17.629933;0.67;-1.11;-0.06;-0.764177;-0.640705;-0.010378;0.0;0.0;0.0;0.0;0.0;0.0
4.0;1753876676.638053;17.621454;0.61;-1.06;-0.05;-0.763648;-0.6415;-0.009481;0.0;0.0;0.0;0.0;0.0;0.0
4.0;1753876676.642654;17.63577;0.63;-1.16;0.03;-0.765078;-0.6416;-0.009546;0.0;0.0;0.0;0.0;0.0;0.0
4.0;1753876676.647255;17.626905;0.57;-1.16;-0.06;-0.764967;-0.641328;-0.008443;0.0;0.0;0.0;0.0;0.0;0.0
4.0;1753876676.651856;17.60944;0.67;-1.12;-0.09;-0.764405;-0.640871;-0.008468;0.0;0.0;0.0;0.0;0.0;0.0
4.0;1753876676.656457;17.684326;0.66;-1.12;0.1;-0.763499;-0.640695;-0.008308;0.0;0.0;0.0;0.0;0.0;0.0
4.0;1753876676.661058;17.634035;0.63;-1.06;0.0;-0.764147;-0.642172;-0.009438;0.0;0.0;0.0;0.0;0.0;0.0
4.0;1753876676.665659;17.632328;0.57;-1.13;-0.02;-0.766391;-0.641814;-0.008389;0.0;0.0;0.0;0.0;0.0;0.0
4.0;1753876676.67026;17.619454;0.57;-1.19;-0.03;-0.766027;-0.642063;-0.008627;0.0;0.0;0.0;0.0;0.0;0.0
4.0;1753876676.674861;17.646895;0.7;-1.18;-0.01;-0.763444;-0.641839;-0.009428;0.0;0.0;0.0;0.0;0.0;0.0
4.0;1753876676.679462;17.641834;0.7;-1.18;-0.05;-0.765222;-0.641247;-0.0088;0.0;0.0;0.0;0.0;0.0;0.0
4.0;1753876676.684063;17.638369;0.69;-1.13;-0.11;-0.765117;-0.641429;-0.009434;0.0;0.0;0.0;0.0;0.0;0.0
4.0;1753876676.688664;17.643494;0.68;-1.22;0.04;-0.766513;-0.640905;-0.008715;0.0;0.0;0.0;0.0;0.0;0.0
4.0;1753876676.693265;17.644085;0.6;-1.05;0.03;-0.765613;-0.641576;-0.009179;0.0;0.0;0.0;0.0;0.0;0.0
4.0;1753876676.697866;17.680425;0.69;-1.17;0.02;-0.760702;-0.641305;-0.009036;0.0;0.0;0.0;0.0;0.0;0.0
4.0;1753876676.702467;17.631549;0.68;-1.19;-0.0;-0.767356;-0.640244;-0.008729;0.0;0.0;0.0;0.0;0.0;0.0
4.0;1753876676.707068;17.588862;0.59;-1.17;0.05;-0.76294;-0.640286;-0.00974;0.0;0.0;0.0;0.0;0.0;0.0
4.0;1753876676.711669;17.626389;0.65;-1.18;-0.01;-0.766083;-0.641019;-0.00839;0.0;0.0;0.0;0.0;0.0;0.0
4.0;1753876676.71627;17.653466;0.6;-1.1;-0.05;-0.766399;-0.64081;-0.00886;0.0;0.0;0.0;0.0;0.0;0.0
4.0;1753876676.720871;17.63343;0.61;-1.27;0.02;-0.763716;-0.640748;-0.008305;0.0;0.0;0.0;0.0;0.0;0.0
4.0;1753876676.725472;17.634462;0.68;-1.1;0.05;-0.763095;-0.640416;-0.0092;0.0;0.0;0.0;0.0;0.0;0.0
4.0;1753876676.730073;17.688233;0.63;-1.23;0.13;-0.763912;-0.639923;-0.008513;0.0;0.0;0.0;0.0;0.0;0.0
4.0;1753876676.734674;17.632552;0.62;-1.13;-0.07;-0.766839;-0.64147;-0.009478;0.0;0.0;0.0;0.0;0.0;0.0
4.0;1753876676.739275;17.664418;0.53;-1.08;0.02;-0.764467;-0.641398;-0.009524;0.0;0.0;0.0;0.0;0.0;0.0
4.0;1753876676.743876;17.688392;0.62;-1.17;-0.03;-0.763865;-0.640665;-0.010471;0.0;0.0;0.0;0.0;0.0;0.0
4.0;1753876676.748477;17.623043;0.69;-1.19;0.03;-0.765919;-0.640377;-0.009542;0.0;0.0;0.0;0.0;0.0;0.0
4.0;1753876676.753078;17.623209;0.56;-1.17;-0.01;-0.764466;-0.640694;-0.010256;0.0;0.0;0.0;0.0;0.0;0.0
4.0;1753876676.757679;17.642055;0.66;-1.21;-0.01;-0.767119;-0.641797;-0.009537;0.0;0.0;0.0;0.0;0.0;0.0
4.0;1753876676.76228;17.639526;0.58;-1.17;0.03;-0.765116;-0.641648;-0.008971;0.0;0.0;0.0;0.0;0.0;0.0
4.0;1753876676.766881;17.661697;0.62;-1.14;0.08;-0.764696;-0.640944;-0.008199;0.0;0.0;0.0;0.0;0.0;0.0
4.0;1753876676.771482;17.615117;0.6;-1.2;-0.01;-0.765832;-0.641608;-0.008671;0.0;0.0;0.0;0.0;0.0;0.0
4.0;1753876676.776083;17.617776;0.54;-1.09;-0.01;-0.765084;-0.641364;-0.009178;0.0;0.0;0.0;0.0;0.0;0.0
4.0;1753876676.780684;17.66456;0.69;-1.2;0.03;-0.765147;-0.641222;-0.009404;0.0;0.0;0.0;0.0;0.0;0.0
4.0;1753876676.785285;17.660185;0.7;-1.05;0.0;-0.766564;-0.642688;-0.007906;0.0;0.0;0.0;0.0;0.0;0.0
4.0;1753876676.789886;17.646573;0.66;-1.21;-0.04;-0.764766;-0.642186;-0.010044;0.0;0.0;0.0;0.0;0.0;0.0
4.0;1753876676.794487;17.604563;0.54;-1.18;-0.06;-0.764568;-0.640641;-0.010048;0.0;0.0;0.0;0.0;0.0;0.0
4.0;1753876676.799088;17.632257;0.57;-1.18;-0.05;-0.764374;-0.64077;-0.008878;0.0;0.0;0.0;0.0;0.0;0.0
4.0;1753876676.803689;17.652571;0.6;-1.1;0.03;-0.762598;-0.64154;-0.009588;0.0;0.0;0.0;0.0;0.0;0.0
4.0;1753876676.80829;17.641969;0.6;-1.28;0.07;-0.764089;-0.64088;-0.009316;0.0;0.0;0.0;0.0;0.0;0.0
4.0;1753876676.812891;17.594001;0.6;-1.13;0.02;-0.76542;-0.642321;-0.010862;0.0;0.0;0.0;0.0;0.0;0.0
4.0;1753876676.817492;17.629496;0.6;-1.15;0.08;-0.764988;-0.642086;-0.009291;0.0;0.0;0.0;0.0;0.0;0.0
4.0;1753876676.822093;17.631522;0.61;-1.2;0.05;-0.766647;-0.640888;-0.009468;0.0;0.0;0.0;0.0;0.0;0.0
4.0;1753876676.826694;17.637953;0.59;-1.11;0.02;-0.765124;-0.641342;-0.009763;0.0;0.0;0.0;0.0;0.0;0.0
4.0;1753876676.831295;17.622313;0.72;-1.31;-0.01;-0.766433;-0.641729;-0.008954;0.0;0.0;0.0;0.0;0.0;0.0
4.0;1753876676.835896;17.643966;0.6;-1.14;0.02;-0.765635;-0.641224;-0.008283;0.0;0.0;0.0;0.0;0.0;0.0
4.0;1753876676.840497;17.587391;0.63;-1.22;0.12;-0.764951;-0.641253;-0.009613;0.0;0.0;0.0;0.0;0.0;0.0
4.0;1753876676.845098;17.615742;0.7;-1.27;-0.01;-0.763448;-0.642146;-0.010011;0.0;0.0;0.0;0.0;0.0;0.0
4.0;1753876676.8501;17.636719;0.63;-1.19;0.0;-0.765184;-0.641232;-0.009516;0.0;0.0;0.0;0.0;0.0;0.0
4.0;1753876676.85872;17.628906;0.56;-1.19;0.07;-0.764574;-0.641476;-0.009516;0.0;0.0;0.0;0.0;0.0;0.0
4.0;1753876676.863321;17.632841;0.58;-1.32;0.12;-0.765019;-0.640498;-0.00918;0.0;0.0;0.0;0.0;0.0;0.0
4.0;1753876676.867922;17.63867;0.58;-1.2;0.1;-0.764229;-0.641432;-0.008781;0.0;0.0;0.0;0.0;0.0;0.0
4.0;1753876676.872523;17.623645;0.71;-1.24;0.09;-0.765081;-0.639231;-0.009269;0.0;0.0;0.0;0.0;0.0;0.0
4.0;1753876676.877124;17.637298;0.52;-1.23;0.08;-0.764013;-0.642326;-0.010342;0.0;0.0;0.0;0.0;0.0;0.0
4.0;1753876676.881725;17.63342;0.5;-1.22;0.02;-0.763002;-0.64186;-0.009829;0.0;0.0;0.0;0.0;0.0;0.0
4.0;1753876676.886326;17.626156;0.57;-1.21;0.06;-0.764488;-0.642727;-0.009695;0.0;0.0;0.0;0.0;0.0;0.0
4.0;1753876676.890927;17.659164;0.62;-1.07;0.13;-0.762817;-0.643816;-0.010082;0.0;0.0;0.0;0.0;0.0;0.0
4.0;1753876676.895528;17.645183;0.58;-1.14;0.13;-0.765996;-0.642502;-0.010053;0.0;0.0;0.0;0.0;0.0;0.0
4.0;1753876676.90425;17.644531;0.56;-1.19;0.07;-0.763964;-0.64294;-0.00976;0.0;0.0;0.0;0.0;0.0;0.0
4.0;1753876676.908851;17.657191;0.58;-1.17;0.0;-0.764043;-0.641952;-0.009778;0.0;0.0;0.0;0.0;0.0;0.0
4.0;1753876676.913452;17.650076;0.58;-1.26;0.13;-0.763279;-0.644585;-0.009072;0.0;0.0;0.0;0.0;0.0;0.0
4.0;1753876676.918053;17.638088;0.59;-1.17;-0.03;-0.765038;-0.642099;-0.009389;0.0;0.0;0.0;0.0;0.0;0.0
4.0;1753876676.922654;17.638256;0.6;-1.13;0.03;-0.76302;-0.643774;-0.008769;0.0;0.0;0.0;0.0;0.0;0.0
4.0;1753876676.927255;17.641386;0.61;-1.26;0.04;-0.765035;-0.643021;-0.009816;0.0;0.0;0.0;0.0;0.0;0.0
4.0;1753876676.931856;17.659157;0.58;-1.14;0.06;-0.763338;-0.639684;-0.009484;0.0;0.0;0.0;0.0;0.0;0.0
4.0;1753876676.936457;17.648791;0.65;-1.16;0.12;-0.763161;-0.641596;-0.008248;0.0;0.0;0.0;0.0;0.0;0.0
4.0;1753876676.941058;17.65458;0.61;-1.1;0.07;-0.763235;-0.642059;-0.008256;0.0;0.0;0.0;0.0;0.0;0.0
4.0;1753876676.945659;17.639359;0.64;-1.07;0.11;-0.762584;-0.641654;-0.007843;0.0;0.0;0.0;0.0;0.0;0.0
4.0;1753876676.95026;17.642701;0.63;-1.14;0.03;-0.763729;-0.641849;-0.008352;0.0;0.0;0.0;0.0;0.0;0.0
4.0;1753876676.954861;17.660925;0.63;-1.12;0.06;-0.764703;-0.641517;-0.008819;0.0;0.0;0.0;0.0;0.0;0.0
4.0;1753876676.959462;17.651754;0.8;-1.1;0.03;-0.765045;-0.640973;-0.008762;0.0;0.0;0.0;0.0;0.0;0.0
4.0;1753876676.964063;17.631403;0.76;-1.11;0.05;-0.763026;-0.639572;-0.007327;0.0;0.0;0.0;0.0;0.0;0.0
4.0;1753876676.96992;17.644531;0.7;-1.12;0.07;-0.763964;-0.640866;-0.00793;0.0;0.0;0.0;0.0;0.0;0.0
4.0;1753876676.97338;17.664062;0.56;-1.19;0.07;-0.76555;-0.6405;-0.010126;0.0;0.0;0.0;0.0;0.0;0.0
4.0;1753876676.980291;17.664062;0.63;-1.19;0.21;-0.763354;-0.640866;-0.00915;0.0;0.0;0.0;0.0;0.0;0.0
4.0;1753876676.982664;17.628906;0.7;-1.12;0.07;-0.764452;-0.639158;-0.009516;0.0;0.0;0.0;0.0;0.0;0.0
4.0;1753876676.987023;17.628906;0.63;-1.05;0.07;-0.762256;-0.644038;-0.009882;0.0;0.0;0.0;0.0;0.0;0.0
4.0;1753876676.99554;17.628906;0.63;-1.12;0.14;-0.766526;-0.638304;-0.009516;0.0;0.0;0.0;0.0;0.0;0.0
4.0;1753876676.99607;17.628906;0.56;-1.19;0.07;-0.763598;-0.644282;-0.009516;0.0;0.0;0.0;0.0;0.0;0.0
4.0;1753876677.000671;17.613957;0.66;-1.15;0.09;-0.762221;-0.644865;-0.009715;0.0;0.0;0.0;0.0;0.0;0.0
4.0;1753876677.005272;17.655851;0.57;-1.26;0.02;-0.763356;-0.643049;-0.009817;0.0;0.0;0.0;0.0;0.0;0.0
4.0;1753876677.009873;17.626582;0.5;-1.27;0.12;-0.764246;-0.64203;-0.008263;0.0;0.0;0.0;0.0;0.0;0.0
4.0;1753876677.014474;17.637176;0.47;-1.29;0.08;-0.762404;-0.645358;-0.009644;0.0;0.0;0.0;0.0;0.0;0.0
4.0;1753876677.019075;17.641037;0.6;-1.16;0.08;-0.76273;-0.645058;-0.008718;0.0;0.0;0.0;0.0;0.0;0.0
4.0;1753876677.023676;17.623221;0.55;-1.2;0.01;-0.766118;-0.644702;-0.008348;0.0;0.0;0.0;0.0;0.0;0.0
4.0;1753876677.028277;17.620537;0.64;-1.27;0.05;-0.765018;-0.645535;-0.00916;0.0;0.0;0.0;0.0;0.0;0.0
4.0;1753876677.032878;17.612793;0.63;-1.24;-0.06;-0.765621;-0.642983;-0.008641;0.0;0.0;0.0;0.0;0.0;0.0
4.0;1753876677.037479;17.621846;0.61;-1.17;0.07;-0.763773;-0.644119;-0.008843;0.0;0.0;0.0;0.0;0.0;0.0
4.0;1753876677.04208;17.645167;0.63;-1.21;-0.0;-0.762978;-0.641558;-0.008916;0.0;0.0;0.0;0.0;0.0;0.0
4.0;1753876677.046681;17.666808;0.69;-1.2;-0.05;-0.764882;-0.643012;-0.008339;0.0;0.0;0.0;0.0;0.0;0.0
4.0;1753876677.051282;17.642616;0.59;-1.16;-0.04;-0.764736;-0.641165;-0.008648;0.0;0.0;0.0;0.0;0.0;0.0
4.0;1753876677.055883;17.598075;0.57;-1.11;0.07;-0.764427;-0.643494;-0.009811;0.0;0.0;0.0;0.0;0.0;0.0
4.0;1753876677.060484;17.638675;0.65;-1.21;-0.01;-0.766262;-0.642677;-0.00887;0.0;0.0;0.0;0.0;0.0;0.0
4.0;1753876677.065085;17.65318;0.69;-1.17;0.08;-0.765955;-0.639019;-0.009649;0.0;0.0;0.0;0.0;0.0;0.0
4.0;1753876677.069686;17.633882;0.59;-1.08;-0.01;-0.764826;-0.639821;-0.008365;0.0;0.0;0.0;0.0;0.0;0.0
4.0;1753876677.074287;17.671377;0.53;-1.17;-0.01;-0.763756;-0.642325;-0.01095;0.0;0.0;0.0;0.0;0.0;0.0
4.0;1753876677.078888;17.67122;0.53;-1.1;0.0;-0.762514;-0.642076;-0.00857;0.0;0.0;0.0;0.0;0.0;0.0
4.0;1753876677.083489;17.624562;0.53;-1.12;-0.01;-0.764968;-0.644691;-0.008826;0.0;0.0;0.0;0.0;0.0;0.0
4.0;1753876677.08809;17.643237;0.62;-1.11;0.02;-0.763229;-0.639694;-0.008764;0.0;0.0;0.0;0.0;0.0;0.0
4.0;1753876677.092691;17.666475;0.62;-1.11;-0.0;-0.765756;-0.642881;-0.009403;0.0;0.0;0.0;0.0;0.0;0.0
4.0;1753876677.097292;17.681429;0.53;-1.1;0.01;-0.765098;-0.641571;-0.008075;0.0;0.0;0.0;0.0;0.0;0.0
4.0;1753876677.101893;17.667502;0.78;-1.11;0.02;-0.764048;-0.64234;-0.00836;0.0;0.0;0.0;0.0;0.0;0.0
4.0;1753876677.106494;17.609249;0.54;-1.17;0.02;-0.764042;-0.641578;-0.010214;0.0;0.0;0.0;0.0;0.0;0.0
4.0;1753876677.111095;17.625318;0.61;-1.14;0.11;-0.764575;-0.642903;-0.009516;0.0;0.0;0.0;0.0;0.0;0.0
4.0;1753876677.115696;17.629619;0.55;-1.14;0.08;-0.765442;-0.641932;-0.008356;0.0;0.0;0.0;0.0;0.0;0.0
4.0;1753876677.120297;17.663718;0.67;-1.15;-0.08;-0.764154;-0.64165;-0.008673;0.0;0.0;0.0;0.0;0.0;0.0
4.0;1753876677.124898;17.679608;0.7;-1.02;-0.07;-0.764332;-0.641448;-0.008379;0.0;0.0;0.0;0.0;0.0;0.0
4.0;1753876677.129499;17.660819;0.77;-1.11;0.02;-0.763951;-0.640555;-0.007551;0.0;0.0;0.0;0.0;0.0;0.0
4.0;1753876677.1343;17.652344;0.63;-1.12;0.0;-0.76433;-0.640988;-0.00854;0.0;0.0;0.0;0.0;0.0;0.0
4.0;1753876677.138901;17.627469;0.64;-1.16;-0.04;-0.765448;-0.642601;-0.008373;0.0;0.0;0.0;0.0;0.0;0.0
4.0;1753876677.143502;17.622671;0.57;-1.04;-0.01;-0.761371;-0.64014;-0.009038;0.0;0.0;0.0;0.0;0.0;0.0
4.0;1753876677.148103;17.648556;0.64;-1.18;0.06;-0.766009;-0.638113;-0.008235;0.0;0.0;0.0;0.0;0.0;0.0
4.0;1753876677.152704;17.614338;0.67;-1.08;0.03;-0.764739;-0.640324;-0.008968;0.0;0.0;0.0;0.0;0.0;0.0
4.0;1753876677.157305;17.681161;0.63;-1.16;0.02;-0.763697;-0.645039;-0.007696;0.0;0.0;0.0;0.0;0.0;0.0
4.0;1753876677.161906;17.635793;0.58;-1.14;-0.04;-0.764351;-0.64497;-0.009601;0.0;0.0;0.0;0.0;0.0;0.0
4.0;1753876677.166507;17.675303;0.72;-1.15;0.09;-0.76539;-0.638702;-0.008599;0.0;0.0;0.0;0.0;0.0;0.0
4.0;1753876677.171108;17.643501;0.64;-1.14;-0.04;-0.763954;-0.642378;-0.009229;0.0;0.0;0.0;0.0;0.0;0.0
4.0;1753876677.175709;17.64782;0.58;-1.16;-0.04;-0.765096;-0.64114;-0.009316;0.0;0.0;0.0;0.0;0.0;0.0
4.0;1753876677.18031;17.617531;0.67;-1.11;0.03;-0.764635;-0.642362;-0.009176;0.0;0.0;0.0;0.0;0.0;0.0
4.0;1753876677.184911;17.654203;0.61;-1.05;0.03;-0.76687;-0.641458;-0.008299;0.0;0.0;0.0;0.0;0.0;0.0
4.0;1753876677.189512;17.635705;0.55;-1.11;0.03;-0.762744;-0.645209;-0.00911;0.0;0.0;0.0;0.0;0.0;0.0
4.0;1753876677.194113;17.688922;0.54;-1.16;0.06;-0.766501;-0.644209;-0.009127;0.0;0.0;0.0;0.0;0.0;0.0
4.0;1753876677.198714;17.657785;0.57;-1.13;0.07;-0.763507;-0.641326;-0.009157;0.0;0.0;0.0;0.0;0.0;0.0
4.0;1753876677.203315;17.62381;0.55;-1.2;0.02;-0.766453;-0.641218;-0.008017;0.0;0.0;0.0;0.0;0.0;0.0
4.0;1753876677.207916;17.680331;0.7;-1.13;0.07;-0.76521;-0.638105;-0.008241;0.0;0.0;0.0;0.0;0.0;0.0
4.0;1753876677.212517;17.68051;0.55;-1.23;-0.06;-0.764417;-0.639199;-0.007385;0.0;0.0;0.0;0.0;0.0;0.0
4.0;1753876677.217118;17.650087;0.69;-1.11;-0.1;-0.762727;-0.642097;-0.008715;0.0;0.0;0.0;0.0;0.0;0.0
4.0;1753876677.221719;17.717458;0.6;-1.23;0.08;-0.765753;-0.643186;-0.008365;0.0;0.0;0.0;0.0;0.0;0.0
4.0;1753876677.22632;17.659326;0.71;-1.12;0.11;-0.765161;-0.640048;-0.00859;0.0;0.0;0.0;0.0;0.0;0.0
4.0;1753876677.230921;17.713292;0.58;-1.05;0.03;-0.764102;-0.641675;-0.009365;0.0;0.0;0.0;0.0;0.0;0.0
4.0;1753876677.235522;17.669422;0.67;-1.03;-0.02;-0.763607;-0.640938;-0.009269;0.0;0.0;0.0;0.0;0.0;0.0
4.0;1753876677.240123;17.657622;0.6;-1.22;0.03;-0.764409;-0.642236;-0.008583;0.0;0.0;0.0;0.0;0.0;0.0
4.0;1753876677.244724;17.642686;0.44;-1.16;0.02;-0.764258;-0.642532;-0.008935;0.0;0.0;0.0;0.0;0.0;0.0
4.0;1753876677.249325;17.651361;0.56;-1.2;-0.0;-0.765312;-0.638447;-0.009338;0.0;0.0;0.0;0.0;0.0;0.0
4.0;1753876677.253926;17.64432;0.58;-1.24;-0.04;-0.762991;-0.638137;-0.009379;0.0;0.0;0.0;0.0;0.0;0.0
4.0;1753876677.258527;17.671318;0.65;-1.15;-0.06;-0.764028;-0.641795;-0.009005;0.0;0.0;0.0;0.0;0.0;0.0
4.0;1753876677.263128;17.666116;0.66;-1.23;0.08;-0.764472;-0.640566;-0.008593;0.0;0.0;0.0;0.0;0.0;0.0
4.0;1753876677.267729;17.636395;0.48;-1.25;0.0;-0.763258;-0.640547;-0.008862;0.0;0.0;0.0;0.0;0.0;0.0
4.0;1753876677.27233;17.6295;0.62;-1.1;0.01;-0.764365;-0.640958;-0.009306;0.0;0.0;0.0;0.0;0.0;0.0
4.0;1753876677.276931;17.646961;0.65;-1.34;0.1;-0.763026;-0.640683;-0.009251;0.0;0.0;0.0;0.0;0.0;0.0
4.0;1753876677.281532;17.672079;0.76;-1.2;0.05;-0.76319;-0.639494;-0.007961;0.0;0.0;0.0;0.0;0.0;0.0
4.0;1753876677.286133;17.614894;0.65;-1.2;0.16;-0.764882;-0.641075;-0.008575;0.0;0.0;0.0;0.0;0.0;0.0
4.0;1753876677.290734;17.653421;0.6;-1.2;0.01;-0.76545;-0.63901;-0.008197;0.0;0.0;0.0;0.0;0.0;0.0
4.0;1753876677.295335;17.693713;0.55;-1.09;0.08;-0.764241;-0.642719;-0.008785;0.0;0.0;0.0;0.0;0.0;0.0
4.0;1753876677.299936;17.68811;0.7;-1.28;0.13;-0.764013;-0.640891;-0.008219;0.0;0.0;0.0;0.0;0.0;0.0
4.0;1753876677.304537;17.68755;0.71;-1.31;-0.13;-0.763028;-0.641945;-0.009081;0.0;0.0;0.0;0.0;0.0;0.0
4.0;1753876677.309138;17.642642;0.58;-1.17;-0.05;-0.763576;-0.641618;-0.008628;0.0;0.0;0.0;0.0;0.0;0.0
4.0;1753876677.313739;17.631263;0.6;-1.19;0.05;-0.763338;-0.63843;-0.008957;0.0;0.0;0.0;0.0;0.0;0.0
4.0;1753876677.31834;17.647594;0.52;-1.11;0.0;-0.764619;-0.638993;-0.009528;0.0;0.0;0.0;0.0;0.0;0.0
4.0;1753876677.322941;17.647686;0.64;-1.24;0.01;-0.764122;-0.644241;-0.008584;0.0;0.0;0.0;0.0;0.0;0.0
4.0;1753876677.327542;17.625523;0.48;-1.13;0.11;-0.764016;-0.641674;-0.00878;0.0;0.0;0.0;0.0;0.0;0.0
4.0;1753876677.332143;17.620313;0.56;-1.18;0.1;-0.763869;-0.640931;-0.008155;0.0;0.0;0.0;0.0;0.0;0.0
4.0;1753876677.336744;17.648029;0.62;-1.21;-0.01;-0.763744;-0.640524;-0.008464;0.0;0.0;0.0;0.0;0.0;0.0
4.0;1753876677.341345;17.646808;0.7;-1.22;0.25;-0.76517;-0.641407;-0.0088;0.0;0.0;0.0;0.0;0.0;0.0
4.0;1753876677.345946;17.673322;0.6;-1.21;0.03;-0.76329;-0.638359;-0.009283;0.0;0.0;0.0;0.0;0.0;0.0
4.0;1753876677.350547;17.635035;0.51;-1.2;0.06;-0.76455;-0.641045;-0.00892;0.0;0.0;0.0;0.0;0.0;0.0
4.0;1753876677.355148;17.631856;0.74;-1.26;0.04;-0.764319;-0.641883;-0.00924;0.0;0.0;0.0;0.0;0.0;0.0
4.0;1753876677.359749;17.690027;0.61;-1.24;0.01;-0.764004;-0.64095;-0.009504;0.0;0.0;0.0;0.0;0.0;0.0
4.0;1753876677.36435;17.690638;0.65;-1.08;0.02;-0.763221;-0.641918;-0.008466;0.0;0.0;0.0;0.0;0.0;0.0
4.0;1753876677.368951;17.649979;0.5;-1.31;0.16;-0.764636;-0.642683;-0.008169;0.0;0.0;0.0;0.0;0.0;0.0
4.0;1753876677.373552;17.636465;0.5;-1.21;0.11;-0.765297;-0.641814;-0.008765;0.0;0.0;0.0;0.0;0.0;0.0
4.0;1753876677.378153;17.654753;0.58;-1.18;0.06;-0.764491;-0.640428;-0.008406;0.0;0.0;0.0;0.0;0.0;0.0
4.0;1753876677.382754;17.62962;0.54;-1.12;-0.02;-0.763328;-0.642821;-0.008927;0.0;0.0;0.0;0.0;0.0;0.0
4.0;1753876677.387355;17.658209;0.61;-1.23;0.07;-0.763139;-0.640955;-0.008767;0.0;0.0;0.0;0.0;0.0;0.0
4.0;1753876677.391956;17.66139;0.54;-1.23;0.09;-0.764531;-0.640407;-0.008052;0.0;0.0;0.0;0.0;0.0;0.0
4.0;1753876677.396557;17.694221;0.6;-1.17;0.01;-0.764155;-0.64127;-0.010023;0.0;0.0;0.0;0.0;0.0;0.0
4.0;1753876677.401158;17.600169;0.7;-1.17;0.05;-0.765453;-0.641573;-0.009857;0.0;0.0;0.0;0.0;0.0;0.0
4.0;1753876677.405759;17.663028;0.58;-1.23;0.03;-0.762126;-0.643645;-0.008525;0.0;0.0;0.0;0.0;0.0;0.0
4.0;1753876677.41036;17.626768;0.56;-1.12;0.07;-0.763894;-0.641056;-0.00867;0.0;0.0;0.0;0.0;0.0;0.0
4.0;1753876677.414961;17.667541;0.6;-1.28;0.02;-0.763318;-0.639758;-0.009927;0.0;0.0;0.0;0.0;0.0;0.0
4.0;1753876677.419562;17.61963;0.66;-1.15;0.09;-0.764855;-0.640736;-0.007588;0.0;0.0;0.0;0.0;0.0;0.0
4.0;1753876677.424163;17.662707;0.49;-1.19;0.06;-0.765037;-0.644916;-0.009329;0.0;0.0;0.0;0.0;0.0;0.0
4.0;1753876677.428764;17.638324;0.59;-1.27;0.03;-0.766258;-0.638525;-0.009473;0.0;0.0;0.0;0.0;0.0;0.0
4.0;1753876677.433365;17.654246;0.63;-1.31;-0.04;-0.763916;-0.645171;-0.008531;0.0;0.0;0.0;0.0;0.0;0.0
4.0;1753876677.437966;17.677216;0.59;-1.14;0.12;-0.766132;-0.642629;-0.007669;0.0;0.0;0.0;0.0;0.0;0.0
4.0;1753876677.442567;17.703424;0.62;-1.33;0.11;-0.76612;-0.642323;-0.008523;0.0;0.0;0.0;0.0;0.0;0.0
4.0;1753876677.447168;17.689123;0.63;-1.19;0.14;-0.7655;-0.642499;-0.00923;0.0;0.0;0.0;0.0;0.0;0.0
4.0;1753876677.451769;17.62064;0.65;-1.21;0.04;-0.764496;-0.641198;-0.008573;0.0;0.0;0.0;0.0;0.0;0.0
4.0;1753876677.45637;17.652747;0.58;-1.23;0.02;-0.764752;-0.639685;-0.00888;0.0;0.0;0.0;0.0;0.0;0.0
4.0;1753876677.460971;17.642467;0.67;-1.21;0.13;-0.764121;-0.641194;-0.008718;0.0;0.0;0.0;0.0;0.0;0.0
4.0;1753876677.465572;17.60689;0.49;-1.22;0.07;-0.764769;-0.642266;-0.008442;0.0;0.0;0.0;0.0;0.0;0.0
4.0;1753876677.470173;17.693353;0.55;-1.22;0.03;-0.763722;-0.64408;-0.0098;0.0;0.0;0.0;0.0;0.0;0.0
4.0;1753876677.474774;17.631808;0.44;-1.28;0.02;-0.763987;-0.638575;-0.008351;0.0;0.0;0.0;0.0;0.0;0.0
4.0;1753876677.479375;17.663438;0.59;-1.27;0.1;-0.763056;-0.639407;-0.008039;0.0;0.0;0.0;0.0;0.0;0.0
4.0;1753876677.483976;17.676484;0.58;-1.27;0.07;-0.763563;-0.643858;-0.008175;0.0;0.0;0.0;0.0;0.0;0.0
4.0;1753876677.488577;17.656763;0.61;-1.23;0.06;-0.763313;-0.64032;-0.008152;0.0;0.0;0.0;0.0;0.0;0.0
4.0;1753876677.493178;17.59147;0.56;-1.22;0.03;-0.762764;-0.641364;-0.008398;0.0;0.0;0.0;0.0;0.0;0.0
4.0;1753876677.497779;17.675832;0.56;-1.21;0.11;-0.764966;-0.641558;-0.007656;0.0;0.0;0.0;0.0;0.0;0.0
4.0;1753876677.50238;17.663375;0.54;-1.31;0.19;-0.765856;-0.64094;-0.009119;0.0;0.0;0.0;0.0;0.0;0.0
4.0;1753876677.506981;17.610073;0.51;-1.17;0.05;-0.763854;-0.640838;-0.009162;0.0;0.0;0.0;0.0;0.0;0.0
4.0;1753876677.511582;17.660527;0.48;-1.34;0.13;-0.764098;-0.643126;-0.00896;0.0;0.0;0.0;0.0;0.0;0.0
4.0;1753876677.516183;17.659407;0.59;-1.14;0.09;-0.764184;-0.640917;-0.009677;0.0;0.0;0.0;0.0;0.0;0.0
4.0;1753876677.522;17.652344;0.56;-1.26;0.07;-0.764208;-0.641476;-0.008784;0.0;0.0;0.0;0.0;0.0;0.0
4.0;1753876677.526601;17.703132;0.48;-1.35;0.04;-0.764295;-0.640729;-0.008664;0.0;0.0;0.0;0.0;0.0;0.0
4.0;1753876677.531202;17.584718;0.64;-1.29;0.03;-0.765742;-0.638324;-0.009283;0.0;0.0;0.0;0.0;0.0;0.0
4.0;1753876677.535803;17.649401;0.59;-1.34;-0.03;-0.764188;-0.642065;-0.007466;0.0;0.0;0.0;0.0;0.0;0.0
4.0;1753876677.540404;17.609195;0.54;-1.36;0.06;-0.763941;-0.639566;-0.007627;0.0;0.0;0.0;0.0;0.0;0.0
4.0;1753876677.545005;17.683792;0.63;-1.18;-0.06;-0.764815;-0.64101;-0.008657;0.0;0.0;0.0;0.0;0.0;0.0
4.0;1753876677.55302;17.671875;0.63;-1.26;0.0;-0.764452;-0.6405;-0.008052;0.0;0.0;0.0;0.0;0.0;0.0
4.0;1753876677.557621;17.645001;0.65;-1.26;0.04;-0.765458;-0.637454;-0.007995;0.0;0.0;0.0;0.0;0.0;0.0
4.0;1753876677.562222;17.66776;0.67;-1.12;-0.01;-0.764169;-0.642235;-0.008303;0.0;0.0;0.0;0.0;0.0;0.0
4.0;1753876677.566823;17.691389;0.64;-1.17;0.05;-0.765794;-0.639499;-0.008611;0.0;0.0;0.0;0.0;0.0;0.0
4.0;1753876677.571424;17.704992;0.58;-1.25;-0.12;-0.764675;-0.641883;-0.008038;0.0;0.0;0.0;0.0;0.0;0.0
4.0;1753876677.576025;17.690247;0.59;-1.25;0.0;-0.764919;-0.641663;-0.008873;0.0;0.0;0.0;0.0;0.0;0.0
4.0;1753876677.580626;17.629298;0.63;-1.27;0.02;-0.762644;-0.638659;-0.009172;0.0;0.0;0.0;0.0;0.0;0.0
4.0;1753876677.585227;17.694107;0.61;-1.21;0.01;-0.765658;-0.640917;-0.009467;0.0;0.0;0.0;0.0;0.0;0.0
4.0;1753876677.589828;17.67226;0.47;-1.16;0.1;-0.764241;-0.640558;-0.009038;0.0;0.0;0.0;0.0;0.0;0.0
4.0;1753876677.594429;17.645884;0.53;-1.14;0.05;-0.764249;-0.642677;-0.00865;0.0;0.0;0.0;0.0;0.0;0.0
4.0;1753876677.59903;17.681905;0.58;-1.08;0.02;-0.763223;-0.641163;-0.008622;0.0;0.0;0.0;0.0;0.0;0.0
4.0;1753876677.60516;17.671875;0.49;-1.12;0.0;-0.763598;-0.640988;-0.009272;0.0;0.0;0.0;0.0;0.0;0.0
4.0;1753876677.609761;17.676802;0.52;-1.22;0.03;-0.764592;-0.63993;-0.009474;0.0;0.0;0.0;0.0;0.0;0.0
4.0;1753876677.614362;17.639275;0.46;-1.07;0.04;-0.765433;-0.639714;-0.011;0.0;0.0;0.0;0.0;0.0;0.0
4.0;1753876677.618963;17.72633;0.55;-1.13;-0.01;-0.763047;-0.642869;-0.010137;0.0;0.0;0.0;0.0;0.0;0.0
4.0;1753876677.623564;17.653813;0.56;-1.15;0.05;-0.763648;-0.642739;-0.009622;0.0;0.0;0.0;0.0;0.0;0.0
4.0;1753876677.628165;17.713676;0.57;-1.16;0.02;-0.763401;-0.640142;-0.00866;0.0;0.0;0.0;0.0;0.0;0.0
4.0;1753876677.632766;17.693837;0.45;-1.08;0.09;-0.762937;-0.638849;-0.008863;0.0;0.0;0.0;0.0;0.0;0.0
4.0;1753876677.637367;17.663585;0.53;-1.15;0.03;-0.765456;-0.642599;-0.009641;0.0;0.0;0.0;0.0;0.0;0.0
4.0;1753876677.641968;17.67388;0.53;-1.13;0.1;-0.763848;-0.640871;-0.008849;0.0;0.0;0.0;0.0;0.0;0.0
4.0;1753876677.646569;17.680529;0.58;-1.18;-0.06;-0.764495;-0.643092;-0.009449;0.0;0.0;0.0;0.0;0.0;0.0
4.0;1753876677.65117;17.607477;0.52;-1.19;0.24;-0.760782;-0.639675;-0.009348;0.0;0.0;0.0;0.0;0.0;0.0
4.0;1753876677.655771;17.673608;0.52;-1.03;0.05;-0.760853;-0.641598;-0.009031;0.0;0.0;0.0;0.0;0.0;0.0
4.0;1753876677.660372;17.656275;0.63;-1.13;0.15;-0.762768;-0.639668;-0.009456;0.0;0.0;0.0;0.0;0.0;0.0
4.0;1753876677.664973;17.715501;0.67;-1.1;0.18;-0.765216;-0.639401;-0.009986;0.0;0.0;0.0;0.0;0.0;0.0
4.0;1753876677.67057;17.671875;0.56;-1.12;0.14;-0.763232;-0.6405;-0.009516;0.0;0.0;0.0;0.0;0.0;0.0
4.0;1753876677.675171;17.670734;0.64;-1.09;0.13;-0.764675;-0.642697;-0.01007;0.0;0.0;0.0;0.0;0.0;0.0
4.0;1753876677.679772;17.607245;0.59;-1.06;0.13;-0.764033;-0.639964;-0.00924;0.0;0.0;0.0;0.0;0.0;0.0
4.0;1753876677.684373;17.694406;0.6;-0.99;0.16;-0.762789;-0.641341;-0.009871;0.0;0.0;0.0;0.0;0.0;0.0
4.0;1753876677.6891;17.671875;0.63;-1.12;0.07;-0.764208;-0.641232;-0.009394;0.0;0.0;0.0;0.0;0.0;0.0
4.0;1753876677.693701;17.720705;0.69;-1.07;0.08;-0.76327;-0.640587;-0.010048;0.0;0.0;0.0;0.0;0.0;0.0
4.0;1753876677.698302;17.702563;0.55;-1.14;0.08;-0.764714;-0.641754;-0.009123;0.0;0.0;0.0;0.0;0.0;0.0
4.0;1753876677.702903;17.67064;0.65;-1.1;0.1;-0.762235;-0.640965;-0.008576;0.0;0.0;0.0;0.0;0.0;0.0
4.0;1753876677.707504;17.776524;0.6;-1.21;0.11;-0.762753;-0.641612;-0.009771;0.0;0.0;0.0;0.0;0.0;0.0
4.0;1753876677.712105;17.68409;0.57;-1.14;0.12;-0.764496;-0.642349;-0.009488;0.0;0.0;0.0;0.0;0.0;0.0
4.0;1753876677.716706;17.676012;0.59;-1.05;0.03;-0.763228;-0.645175;-0.009186;0.0;0.0;0.0;0.0;0.0;0.0
4.0;1753876677.721307;17.691727;0.63;-1.0;0.03;-0.764279;-0.640852;-0.009175;0.0;0.0;0.0;0.0;0.0;0.0
4.0;1753876677.725908;17.678063;0.65;-0.95;0.05;-0.764213;-0.63747;-0.009734;0.0;0.0;0.0;0.0;0.0;0.0
4.0;1753876677.730509;17.743983;0.66;-1.07;0.01;-0.765186;-0.642356;-0.009176;0.0;0.0;0.0;0.0;0.0;0.0
4.0;1753876677.73511;17.673422;0.55;-1.09;0.07;-0.76573;-0.641837;-0.010245;0.0;0.0;0.0;0.0;0.0;0.0
4.0;1753876677.739711;17.650274;0.67;-1.13;0.05;-0.76144;-0.639459;-0.010414;0.0;0.0;0.0;0.0;0.0;0.0
4.0;1753876677.744312;17.620416;0.5;-1.18;0.04;-0.762229;-0.640598;-0.009768;0.0;0.0;0.0;0.0;0.0;0.0
4.0;1753876677.748913;17.684372;0.55;-1.1;0.1;-0.76448;-0.638772;-0.009569;0.0;0.0;0.0;0.0;0.0;0.0
4.0;1753876677.753514;17.736617;0.65;-1.02;0.09;-0.764334;-0.643848;-0.010566;0.0;0.0;0.0;0.0;0.0;0.0
4.0;1753876677.758115;17.698287;0.65;-1.11;0.08;-0.766093;-0.638168;-0.009306;0.0;0.0;0.0;0.0;0.0;0.0
4.0;1753876677.762716;17.649638;0.63;-1.13;0.12;-0.76495;-0.638888;-0.009417;0.0;0.0;0.0;0.0;0.0;0.0
4.0;1753876677.767317;17.672977;0.58;-1.22;0.05;-0.763158;-0.640456;-0.009767;0.0;0.0;0.0;0.0;0.0;0.0
4.0;1753876677.771918;17.683681;0.54;-1.04;0.06;-0.763187;-0.637816;-0.00991;0.0;0.0;0.0;0.0;0.0;0.0
4.0;1753876677.776519;17.742945;0.55;-1.12;0.16;-0.76349;-0.641767;-0.009451;0.0;0.0;0.0;0.0;0.0;0.0
4.0;1753876677.78405;17.703125;0.56;-1.12;0.07;-0.76433;-0.640134;-0.010004;0.0;0.0;0.0;0.0;0.0;0.0
4.0;1753876677.788651;17.715976;0.51;-1.12;0.02;-0.766343;-0.639115;-0.00899;0.0;0.0;0.0;0.0;0.0;0.0
4.0;1753876677.793252;17.685861;0.55;-1.06;0.1;-0.76352;-0.642522;-0.010723;0.0;0.0;0.0;0.0;0.0;0.0
4.0;1753876677.797853;17.713751;0.51;-1.09;0.1;-0.764289;-0.641347;-0.009572;0.0;0.0;0.0;0.0;0.0;0.0
4.0;1753876677.802454;17.683646;0.45;-1.01;0.13;-0.764913;-0.638303;-0.009463;0.0;0.0;0.0;0.0;0.0;0.0
4.0;1753876677.807055;17.743914;0.55;-1.09;0.15;-0.764579;-0.637903;-0.00956;0.0;0.0;0.0;0.0;0.0;0.0
4.0;1753876677.811656;17.692173;0.51;-1.09;0.15;-0.764142;-0.638581;-0.009246;0.0;0.0;0.0;0.0;0.0;0.0
4.0;1753876677.816257;17.678069;0.57;-1.18;0.12;-0.76735;-0.645035;-0.009022;0.0;0.0;0.0;0.0;0.0;0.0
4.0;1753876677.820858;17.737112;0.54;-1.01;0.13;-0.768479;-0.638241;-0.01005;0.0;0.0;0.0;0.0;0.0;0.0
4.0;1753876677.82587;17.703125;0.56;-1.05;0.14;-0.766038;-0.641476;-0.009272;0.0;0.0;0.0;0.0;0.0;0.0
4.0;1753876677.830471;17.686148;0.49;-0.95;0.11;-0.764456;-0.640872;-0.009205;0.0;0.0;0.0;0.0;0.0;0.0
4.0;1753876677.835072;17.693118;0.61;-1.17;0.13;-0.765902;-0.64261;-0.008203;0.0;0.0;0.0;0.0;0.0;0.0
4.0;1753876677.839673;17.716391;0.53;-1.05;0.08;-0.769743;-0.641195;-0.009991;0.0;0.0;0.0;0.0;0.0;0.0
4.0;1753876677.844274;17.737141;0.62;-1.12;0.1;-0.765709;-0.642741;-0.009259;0.0;0.0;0.0;0.0;0.0;0.0
4.0;1753876677.848875;17.70635;0.58;-1.16;0.07;-0.766907;-0.642984;-0.010016;0.0;0.0;0.0;0.0;0.0;0.0
4.0;1753876677.853476;17.713752;0.49;-1.0;0.1;-0.766339;-0.64272;-0.010723;0.0;0.0;0.0;0.0;0.0;0.0
4.0;1753876677.858077;17.683267;0.54;-1.08;0.1;-0.764256;-0.638789;-0.010548;0.0;0.0;0.0;0.0;0.0;0.0
4.0;1753876677.862678;17.704115;0.61;-1.24;0.09;-0.766755;-0.640036;-0.009727;0.0;0.0;0.0;0.0;0.0;0.0
4.0;1753876677.867279;17.737426;0.59;-1.15;0.09;-0.766087;-0.640727;-0.010097;0.0;0.0;0.0;0.0;0.0;0.0
4.0;1753876677.87408;17.703125;0.56;-1.19;0.0;-0.765306;-0.6405;-0.009516;0.0;0.0;0.0;0.0;0.0;0.0
4.0;1753876677.878681;17.649646;0.51;-1.12;0.05;-0.768302;-0.641474;-0.009612;0.0;0.0;0.0;0.0;0.0;0.0
4.0;1753876677.883282;17.697147;0.5;-1.19;0.01;-0.765492;-0.642144;-0.009402;0.0;0.0;0.0;0.0;0.0;0.0
4.0;1753876677.887883;17.684278;0.6;-1.14;0.09;-0.763413;-0.643332;-0.008623;0.0;0.0;0.0;0.0;0.0;0.0
4.0;1753876677.892484;17.714301;0.62;-1.22;0.09;-0.764505;-0.64132;-0.009058;0.0;0.0;0.0;0.0;0.0;0.0
4.0;1753876677.897085;17.70808;0.67;-1.2;0.12;-0.763693;-0.639542;-0.008783;0.0;0.0;0.0;0.0;0.0;0.0
4.0;1753876677.901686;17.668037;0.65;-1.2;0.11;-0.762309;-0.639591;-0.009956;0.0;0.0;0.0;0.0;0.0;0.0
4.0;1753876677.906287;17.72228;0.56;-1.16;0.09;-0.761949;-0.641048;-0.009369;0.0;0.0;0.0;0.0;0.0;0.0
4.0;1753876677.910888;17.688166;0.65;-1.18;0.09;-0.764945;-0.642052;-0.009077;0.0;0.0;0.0;0.0;0.0;0.0
4.0;1753876677.915489;17.709252;0.58;-1.09;0.23;-0.76331;-0.640368;-0.009656;0.0;0.0;0.0;0.0;0.0;0.0
4.0;1753876677.92009;17.679455;0.64;-1.22;0.11;-0.764455;-0.641368;-0.008143;0.0;0.0;0.0;0.0;0.0;0.0
4.0;1753876677.924691;17.68797;0.58;-1.13;0.15;-0.761842;-0.643799;-0.009086;0.0;0.0;0.0;0.0;0.0;0.0
4.0;1753876677.929292;17.676298;0.59;-1.11;0.11;-0.763987;-0.643276;-0.00898;0.0;0.0;0.0;0.0;0.0;0.0
4.0;1753876677.93688;17.691406;0.63;-1.12;0.21;-0.762744;-0.641964;-0.009028;0.0;0.0;0.0;0.0;0.0;0.0
4.0;1753876677.941481;17.698548;0.73;-1.22;0.12;-0.763847;-0.642548;-0.008665;0.0;0.0;0.0;0.0;0.0;0.0
4.0;1753876677.946082;17.692565;0.52;-1.22;0.19;-0.764135;-0.640773;-0.009254;0.0;0.0;0.0;0.0;0.0;0.0
4.0;1753876677.950683;17.673501;0.65;-1.16;0.14;-0.766163;-0.640258;-0.009031;0.0;0.0;0.0;0.0;0.0;0.0
4.0;1753876677.955284;17.679407;0.63;-1.17;0.15;-0.765454;-0.639155;-0.009415;0.0;0.0;0.0;0.0;0.0;0.0
4.0;1753876677.96222;17.691406;0.63;-1.19;0.14;-0.765306;-0.639646;-0.009516;0.0;0.0;0.0;0.0;0.0;0.0
4.0;1753876677.965522;17.75;0.63;-1.12;0.07;-0.766282;-0.639158;-0.007564;0.0;0.0;0.0;0.0;0.0;0.0
4.0;1753876677.971858;17.75;0.49;-1.12;0.07;-0.76494;-0.641842;-0.010492;0.0;0.0;0.0;0.0;0.0;0.0
4.0;1753876677.974592;17.75;0.7;-1.12;0.07;-0.763842;-0.63989;-0.00854;0.0;0.0;0.0;0.0;0.0;0.0
4.0;1753876677.979144;17.75;0.56;-1.19;0.0;-0.764086;-0.640744;-0.00854;0.0;0.0;0.0;0.0;0.0;0.0
4.0;1753876677.983699;17.707031;0.56;-1.12;0.0;-0.763964;-0.641354;-0.01037;0.0;0.0;0.0;0.0;0.0;0.0
4.0;1753876677.988313;17.707031;0.63;-1.12;0.07;-0.762378;-0.64111;-0.008296;0.0;0.0;0.0;0.0;0.0;0.0
4.0;1753876677.992797;17.707031;0.56;-1.19;0.07;-0.765184;-0.638914;-0.01037;0.0;0.0;0.0;0.0;0.0;0.0
4.0;1753876677.997398;17.689098;0.58;-1.26;0.11;-0.765763;-0.63842;-0.011276;0.0;0.0;0.0;0.0;0.0;0.0
4.0;1753876678.001999;17.741215;0.56;-1.13;0.07;-0.763298;-0.639962;-0.010397;0.0;0.0;0.0;0.0;0.0;0.0
4.0;1753876678.0066;17.707698;0.55;-1.19;-0.03;-0.764343;-0.641763;-0.011334;0.0;0.0;0.0;0.0;0.0;0.0
4.0;1753876678.011201;17.698365;0.51;-1.21;0.12;-0.765102;-0.639031;-0.010483;0.0;0.0;0.0;0.0;0.0;0.0
4.0;1753876678.015802;17.725971;0.53;-1.14;0.13;-0.767902;-0.640026;-0.010948;0.0;0.0;0.0;0.0;0.0;0.0
4.0;1753876678.020403;17.706264;0.6;-1.17;0.09;-0.765132;-0.642065;-0.009114;0.0;0.0;0.0;0.0;0.0;0.0
4.0;1753876678.025004;17.697293;0.5;-1.21;0.13;-0.766834;-0.638766;-0.010356;0.0;0.0;0.0;0.0;0.0;0.0
4.0;1753876678.029605;17.696904;0.65;-1.19;0.03;-0.764369;-0.639707;-0.01079;0.0;0.0;0.0;0.0;0.0;0.0
4.0;1753876678.034206;17.727209;0.53;-1.17;0.04;-0.765086;-0.638493;-0.009576;0.0;0.0;0.0;0.0;0.0;0.0
4.0;1753876678.038807;17.725205;0.57;-1.18;0.04;-0.765884;-0.639999;-0.010471;0.0;0.0;0.0;0.0;0.0;0.0
4.0;1753876678.043408;17.700508;0.5;-1.14;0.02;-0.763393;-0.637994;-0.009552;0.0;0.0;0.0;0.0;0.0;0.0
4.0;1753876678.048009;17.702063;0.53;-1.18;0.04;-0.765197;-0.638384;-0.011029;0.0;0.0;0.0;0.0;0.0;0.0
4.0;1753876678.05261;17.70336;0.57;-1.2;0.05;-0.763248;-0.638515;-0.008927;0.0;0.0;0.0;0.0;0.0;0.0
4.0;1753876678.057211;17.737323;0.54;-1.29;0.05;-0.764907;-0.640939;-0.012351;0.0;0.0;0.0;0.0;0.0;0.0
4.0;1753876678.061812;17.677138;0.47;-1.19;0.09;-0.765191;-0.640306;-0.010486;0.0;0.0;0.0;0.0;0.0;0.0
4.0;1753876678.066413;17.700885;0.46;-1.18;0.13;-0.763022;-0.641131;-0.010277;0.0;0.0;0.0;0.0;0.0;0.0
4.0;1753876678.071014;17.716877;0.56;-1.12;0.07;-0.765258;-0.639533;-0.010394;0.0;0.0;0.0;0.0;0.0;0.0
4.0;1753876678.075615;17.699773;0.57;-1.16;0.11;-0.764254;-0.638859;-0.010155;0.0;0.0;0.0;0.0;0.0;0.0
4.0;1753876678.080216;17.67487;0.64;-1.23;0.05;-0.766687;-0.640196;-0.010223;0.0;0.0;0.0;0.0;0.0;0.0
4.0;1753876678.084817;17.734599;0.44;-1.21;0.07;-0.764096;-0.642198;-0.010417;0.0;0.0;0.0;0.0;0.0;0.0
4.0;1753876678.089418;17.736047;0.63;-1.18;0.15;-0.7645;-0.639587;-0.00998;0.0;0.0;0.0;0.0;0.0;0.0
4.0;1753876678.094019;17.692104;0.56;-1.14;0.04;-0.766072;-0.639409;-0.009589;0.0;0.0;0.0;0.0;0.0;0.0
4.0;1753876678.09862;17.658143;0.56;-1.17;0.1;-0.766412;-0.638342;-0.009587;0.0;0.0;0.0;0.0;0.0;0.0
4.0;1753876678.103221;17.705194;0.66;-1.14;0.01;-0.762524;-0.63938;-0.011383;0.0;0.0;0.0;0.0;0.0;0.0
4.0;1753876678.107822;17.688734;0.6;-1.18;0.02;-0.764855;-0.643376;-0.010161;0.0;0.0;0.0;0.0;0.0;0.0
4.0;1753876678.112423;17.694816;0.52;-1.17;0.03;-0.764443;-0.639674;-0.010394;0.0;0.0;0.0;0.0;0.0;0.0
4.0;1753876678.117024;17.717896;0.57;-1.2;0.06;-0.76354;-0.640968;-0.011422;0.0;0.0;0.0;0.0;0.0;0.0
4.0;1753876678.121625;17.702004;0.64;-1.17;0.0;-0.763917;-0.640389;-0.011873;0.0;0.0;0.0;0.0;0.0;0.0
4.0;1753876678.126226;17.709762;0.55;-1.21;0.09;-0.764531;-0.644009;-0.010988;0.0;0.0;0.0;0.0;0.0;0.0
4.0;1753876678.130827;17.731876;0.53;-1.21;-0.03;-0.765729;-0.641506;-0.010701;0.0;0.0;0.0;0.0;0.0;0.0
4.0;1753876678.135428;17.714519;0.49;-1.2;0.1;-0.761764;-0.640449;-0.009788;0.0;0.0;0.0;0.0;0.0;0.0
4.0;1753876678.140029;17.697506;0.54;-1.17;0.1;-0.764806;-0.641786;-0.008961;0.0;0.0;0.0;0.0;0.0;0.0
4.0;1753876678.14463;17.677158;0.58;-1.26;0.07;-0.765241;-0.642198;-0.010488;0.0;0.0;0.0;0.0;0.0;0.0
4.0;1753876678.149231;17.713033;0.58;-1.21;0.14;-0.766837;-0.638812;-0.009927;0.0;0.0;0.0;0.0;0.0;0.0
4.0;1753876678.153832;17.711788;0.5;-1.19;0.02;-0.762234;-0.640135;-0.011361;0.0;0.0;0.0;0.0;0.0;0.0
4.0;1753876678.158433;17.717074;0.58;-1.16;0.08;-0.764055;-0.641286;-0.00855;0.0;0.0;0.0;0.0;0.0;0.0
4.0;1753876678.163034;17.728724;0.51;-1.18;0.04;-0.766338;-0.641458;-0.010378;0.0;0.0;0.0;0.0;0.0;0.0
4.0;1753876678.167635;17.690625;0.67;-1.17;0.09;-0.763163;-0.641659;-0.008954;0.0;0.0;0.0;0.0;0.0;0.0
4.0;1753876678.172236;17.676469;0.55;-1.15;0.16;-0.763267;-0.64048;-0.00848;0.0;0.0;0.0;0.0;0.0;0.0
4.0;1753876678.176837;17.703812;0.64;-1.18;0.14;-0.763599;-0.639112;-0.010172;0.0;0.0;0.0;0.0;0.0;0.0
4.0;1753876678.181438;17.699068;0.65;-1.19;0.09;-0.761799;-0.642093;-0.009751;0.0;0.0;0.0;0.0;0.0;0.0
4.0;1753876678.186039;17.713384;0.52;-1.19;0.1;-0.764603;-0.641469;-0.009685;0.0;0.0;0.0;0.0;0.0;0.0
4.0;1753876678.19064;17.704261;0.56;-1.15;0.03;-0.763998;-0.640178;-0.009187;0.0;0.0;0.0;0.0;0.0;0.0
4.0;1753876678.195241;17.677934;0.54;-1.15;0.03;-0.760547;-0.641819;-0.010063;0.0;0.0;0.0;0.0;0.0;0.0
4.0;1753876678.199842;17.699841;0.51;-1.19;0.08;-0.762224;-0.641685;-0.009623;0.0;0.0;0.0;0.0;0.0;0.0
4.0;1753876678.204443;17.682104;0.56;-1.19;0.04;-0.761973;-0.642942;-0.010414;0.0;0.0;0.0;0.0;0.0;0.0
4.0;1753876678.209044;17.695865;0.6;-1.19;0.07;-0.764926;-0.641283;-0.010814;0.0;0.0;0.0;0.0;0.0;0.0
4.0;1753876678.213645;17.711943;0.54;-1.17;0.08;-0.764912;-0.641278;-0.009562;0.0;0.0;0.0;0.0;0.0;0.0
4.0;1753876678.218246;17.740023;0.57;-1.14;0.1;-0.765742;-0.641206;-0.009773;0.0;0.0;0.0;0.0;0.0;0.0
4.0;1753876678.222847;17.725401;0.53;-1.17;0.09;-0.761324;-0.642053;-0.009075;0.0;0.0;0.0;0.0;0.0;0.0
4.0;1753876678.227448;17.710426;0.6;-1.18;0.09;-0.763508;-0.63961;-0.010876;0.0;0.0;0.0;0.0;0.0;0.0
4.0;1753876678.232049;17.715365;0.51;-1.16;0.13;-0.761152;-0.642987;-0.010131;0.0;0.0;0.0;0.0;0.0;0.0
4.0;1753876678.23665;17.73617;0.57;-1.24;0.06;-0.766811;-0.642379;-0.010737;0.0;0.0;0.0;0.0;0.0;0.0
4.0;1753876678.241251;17.772322;0.63;-1.18;0.06;-0.762785;-0.641402;-0.008587;0.0;0.0;0.0;0.0;0.0;0.0
4.0;1753876678.245852;17.70026;0.65;-1.2;0.08;-0.762604;-0.640938;-0.00891;0.0;0.0;0.0;0.0;0.0;0.0
4.0;1753876678.250453;17.733867;0.56;-1.23;0.06;-0.763185;-0.641851;-0.009532;0.0;0.0;0.0;0.0;0.0;0.0
4.0;1753876678.255054;17.744269;0.58;-1.18;0.07;-0.764642;-0.642509;-0.010252;0.0;0.0;0.0;0.0;0.0;0.0
4.0;1753876678.259655;17.668609;0.59;-1.16;0.03;-0.763822;-0.642939;-0.009689;0.0;0.0;0.0;0.0;0.0;0.0
4.0;1753876678.264256;17.675718;0.68;-1.21;0.09;-0.762196;-0.64183;-0.011296;0.0;0.0;0.0;0.0;0.0;0.0
4.0;1753876678.268857;17.666746;0.55;-1.17;0.16;-0.763931;-0.642138;-0.00898;0.0;0.0;0.0;0.0;0.0;0.0
4.0;1753876678.273458;17.719851;0.54;-1.22;0.1;-0.761707;-0.64078;-0.009737;0.0;0.0;0.0;0.0;0.0;0.0
4.0;1753876678.278059;17.692032;0.57;-1.24;0.11;-0.762525;-0.642906;-0.010419;0.0;0.0;0.0;0.0;0.0;0.0
4.0;1753876678.28266;17.676835;0.56;-1.15;0.08;-0.763567;-0.641296;-0.009112;0.0;0.0;0.0;0.0;0.0;0.0
4.0;1753876678.287261;17.72503;0.63;-1.23;0.05;-0.761943;-0.642737;-0.01088;0.0;0.0;0.0;0.0;0.0;0.0
4.0;1753876678.291862;17.719158;0.56;-1.22;0.03;-0.763572;-0.642625;-0.010185;0.0;0.0;0.0;0.0;0.0;0.0
4.0;1753876678.296463;17.6679;0.52;-1.18;0.09;-0.762061;-0.644305;-0.01031;0.0;0.0;0.0;0.0;0.0;0.0
4.0;1753876678.301;17.707031;0.56;-1.19;0.07;-0.7625;-0.643184;-0.00976;0.0;0.0;0.0;0.0;0.0;0.0
4.0;1753876678.305601;17.671683;0.51;-1.15;0.03;-0.762659;-0.643922;-0.010195;0.0;0.0;0.0;0.0;0.0;0.0
4.0;1753876678.310202;17.708108;0.65;-1.25;0.09;-0.761941;-0.641577;-0.010058;0.0;0.0;0.0;0.0;0.0;0.0
4.0;1753876678.314803;17.722899;0.53;-1.17;0.06;-0.762326;-0.645049;-0.010343;0.0;0.0;0.0;0.0;0.0;0.0
4.0;1753876678.319404;17.670129;0.52;-1.18;0.04;-0.763219;-0.644778;-0.008725;0.0;0.0;0.0;0.0;0.0;0.0
4.0;1753876678.324005;17.727102;0.61;-1.15;0.04;-0.762979;-0.643675;-0.009086;0.0;0.0;0.0;0.0;0.0;0.0
4.0;1753876678.328606;17.688155;0.6;-1.17;0.12;-0.763737;-0.642471;-0.009584;0.0;0.0;0.0;0.0;0.0;0.0
4.0;1753876678.333207;17.704915;0.57;-1.16;0.04;-0.760096;-0.644234;-0.009846;0.0;0.0;0.0;0.0;0.0;0.0
4.0;1753876678.337808;17.685768;0.45;-1.18;0.11;-0.76265;-0.643078;-0.009937;0.0;0.0;0.0;0.0;0.0;0.0
4.0;1753876678.342409;17.699829;0.65;-1.22;0.06;-0.761486;-0.643838;-0.009161;0.0;0.0;0.0;0.0;0.0;0.0
4.0;1753876678.34701;17.714195;0.55;-1.21;0.04;-0.764958;-0.643028;-0.008906;0.0;0.0;0.0;0.0;0.0;0.0
4.0;1753876678.351611;17.711374;0.58;-1.15;0.12;-0.76092;-0.644934;-0.009521;0.0;0.0;0.0;0.0;0.0;0.0
4.0;1753876678.356212;17.709839;0.57;-1.16;0.02;-0.761754;-0.643613;-0.009808;0.0;0.0;0.0;0.0;0.0;0.0
4.0;1753876678.360813;17.699118;0.51;-1.22;0.04;-0.761901;-0.643249;-0.010572;0.0;0.0;0.0;0.0;0.0;0.0
4.0;1753876678.365414;17.700686;0.55;-1.15;0.09;-0.761284;-0.644659;-0.009612;0.0;0.0;0.0;0.0;0.0;0.0
4.0;1753876678.370015;17.661722;0.6;-1.18;0.12;-0.763144;-0.64283;-0.011395;0.0;0.0;0.0;0.0;0.0;0.0
4.0;1753876678.374616;17.691302;0.49;-1.18;0.01;-0.760965;-0.64086;-0.009196;0.0;0.0;0.0;0.0;0.0;0.0
4.0;1753876678.379217;17.726406;0.52;-1.13;0.04;-0.762242;-0.64387;-0.008774;0.0;0.0;0.0;0.0;0.0;0.0
4.0;1753876678.383818;17.693902;0.65;-1.19;0.07;-0.763415;-0.643122;-0.011731;0.0;0.0;0.0;0.0;0.0;0.0
4.0;1753876678.388419;17.717652;0.6;-1.18;0.04;-0.761013;-0.642576;-0.008178;0.0;0.0;0.0;0.0;0.0;0.0
4.0;1753876678.39302;17.715616;0.57;-1.17;0.04;-0.762708;-0.642905;-0.008298;0.0;0.0;0.0;0.0;0.0;0.0
4.0;1753876678.397621;17.695545;0.63;-1.17;0.13;-0.764873;-0.643061;-0.009271;0.0;0.0;0.0;0.0;0.0;0.0
4.0;1753876678.402222;17.7235;0.44;-1.15;0.12;-0.763037;-0.643179;-0.008462;0.0;0.0;0.0;0.0;0.0;0.0
4.0;1753876678.406823;17.698918;0.64;-1.12;0.06;-0.761782;-0.644357;-0.007368;0.0;0.0;0.0;0.0;0.0;0.0
4.0;1753876678.411424;17.713841;0.61;-1.18;0.12;-0.763232;-0.646548;-0.008639;0.0;0.0;0.0;0.0;0.0;0.0
4.0;1753876678.416025;17.728232;0.58;-1.16;0.09;-0.763618;-0.641797;-0.008483;0.0;0.0;0.0;0.0;0.0;0.0
4.0;1753876678.420626;17.714908;0.65;-1.19;0.03;-0.760768;-0.642146;-0.009544;0.0;0.0;0.0;0.0;0.0;0.0
