Timestamp;PosX;PosY;PosZ;Roll;Pitch;Yaw;Q1;Q2;Q3;Q4;M1;M2;M3;M4;AccelX;AccelY;AccelZ;GyroX;GyroY;GyroZ
1753881461.542478;0.0;0.0;0.0;-2.1;1.25;-0.05;0.0;0.0;0.0;0.0;-17.0;2.0;-3.0;-18.0;0.2;0.45;-10.68;0.51;0.36;0.66
1753881461.547478;0.0;0.0;0.0;-2.1;1.25;-0.05;0.0;0.0;0.0;0.0;-17.0;2.0;-3.0;-18.0;0.2;0.45;-10.67;0.54;0.41;0.97
1753881461.552478;0.0;0.0;0.0;-2.1;1.25;-0.05;0.0;0.0;0.0;0.0;-17.0;2.0;-3.0;-18.0;0.2;0.45;-10.68;0.62;0.38;0.95
1753881461.557478;0.0;0.0;0.0;-2.1;1.25;-0.05;0.0;0.0;0.0;0.0;-17.0;2.0;-3.0;-18.0;0.2;0.45;-10.68;0.62;0.45;1.02
1753881461.562478;0.0;0.0;0.0;-2.1;1.25;-0.05;0.0;0.0;0.0;0.0;-17.0;2.0;-3.0;-18.0;0.2;0.45;-10.69;0.58;0.45;0.88
1753881461.567478;0.0;0.0;0.0;-2.1;1.25;-0.05;0.0;0.0;0.0;0.0;-17.0;2.0;-3.0;-18.0;0.2;0.45;-10.68;0.49;0.54;1.0
1753881461.572478;0.0;0.0;0.0;-2.1;1.25;-0.05;0.0;0.0;0.0;0.0;-17.0;2.0;-3.0;-18.0;0.2;0.45;-10.68;0.65;0.35;0.93
1753881461.577478;0.0;0.0;0.0;-2.1;1.25;-0.05;0.0;0.0;0.0;0.0;-17.0;2.0;-3.0;-18.0;0.2;0.44;-10.68;0.6;0.26;1.02
1753881461.582478;0.0;0.0;0.0;-2.1;1.25;-0.05;0.0;0.0;0.0;0.0;-17.0;2.0;-3.0;-18.0;0.19;0.45;-10.68;0.45;0.44;0.95
1753881461.587478;0.0;0.0;0.0;-2.1;1.25;-0.05;0.0;0.0;0.0;0.0;-17.0;2.0;-3.0;-18.0;0.19;0.45;-10.68;0.39;0.51;0.83
1753881461.592478;0.0;0.0;0.0;-2.1;1.25;-0.05;0.0;0.0;0.0;0.0;-17.0;2.0;-3.0;-18.0;0.18;0.45;-10.67;0.69;0.28;0.97
1753881461.597478;0.0;0.0;0.0;-2.1;1.25;-0.05;0.0;0.0;0.0;0.0;-17.0;2.0;-3.0;-18.0;0.18;0.45;-10.67;0.66;0.45;1.01
1753881461.602478;0.0;0.0;0.0;-2.1;1.25;-0.05;0.0;0.0;0.0;0.0;-17.0;2.0;-3.0;-18.0;0.18;0.45;-10.67;0.57;0.4;0.85
1753881461.607478;0.0;0.0;0.0;-2.1;1.25;-0.05;0.0;0.0;0.0;0.0;-17.0;2.0;-3.0;-18.0;0.18;0.45;-10.66;0.57;0.42;0.93
1753881461.612478;0.0;0.0;0.0;-2.1;1.25;-0.05;0.0;0.0;0.0;0.0;-17.0;2.0;-3.0;-18.0;0.18;0.45;-10.66;0.61;0.39;0.93
1753881461.617478;0.0;0.0;0.0;-2.1;1.25;-0.05;0.0;0.0;0.0;0.0;-17.0;2.0;-3.0;-18.0;0.18;0.46;-10.66;0.59;0.45;0.89
1753881461.622478;0.0;0.0;0.0;-2.1;1.25;-0.05;0.0;0.0;0.0;0.0;-17.0;2.0;-3.0;-18.0;0.18;0.46;-10.67;0.54;0.46;0.99
1753881461.627478;0.0;0.0;0.0;-2.1;1.25;-0.05;0.0;0.0;0.0;0.0;-17.0;2.0;-3.0;-18.0;0.18;0.45;-10.67;0.59;0.52;0.86
1753881461.632478;0.0;0.0;0.0;-2.1;1.25;-0.05;0.0;0.0;0.0;0.0;-17.0;2.0;-3.0;-18.0;0.18;0.45;-10.66;0.54;0.31;0.99
1753881461.637478;0.0;0.0;0.0;-2.1;1.25;-0.05;0.0;0.0;0.0;0.0;-17.0;2.0;-3.0;-18.0;0.19;0.45;-10.66;0.46;0.41;0.91
1753881461.642478;0.0;0.0;0.0;-2.1;1.25;-0.05;0.0;0.0;0.0;0.0;-17.0;2.0;-3.0;-18.0;0.19;0.44;-10.67;0.49;0.35;0.99
1753881461.647478;0.0;0.0;0.0;-2.1;1.25;-0.05;0.0;0.0;0.0;0.0;-17.0;2.0;-3.0;-18.0;0.19;0.45;-10.67;0.46;0.34;0.9
1753881461.652478;0.0;0.0;0.0;-2.1;1.25;-0.05;0.0;0.0;0.0;0.0;-17.0;2.0;-3.0;-18.0;0.19;0.44;-10.67;0.61;0.48;0.91
1753881461.657478;0.0;0.0;0.0;-2.1;1.25;-0.05;0.0;0.0;0.0;0.0;-17.0;2.0;-3.0;-18.0;0.2;0.44;-10.67;0.61;0.46;0.8
1753881461.662478;0.0;0.0;0.0;-2.1;1.25;-0.05;0.0;0.0;0.0;0.0;-17.0;2.0;-3.0;-18.0;0.2;0.45;-10.68;0.52;0.48;0.98
1753881461.667478;0.0;0.0;0.0;-2.1;1.25;-0.05;0.0;0.0;0.0;0.0;-17.0;2.0;-3.0;-18.0;0.2;0.45;-10.67;0.52;0.41;0.93
1753881461.672478;0.0;0.0;0.0;-2.1;1.25;-0.05;0.0;0.0;0.0;0.0;-17.0;2.0;-3.0;-18.0;0.2;0.44;-10.67;0.61;0.41;0.9
1753881461.677478;0.0;0.0;0.0;-2.1;1.25;-0.05;0.0;0.0;0.0;0.0;-17.0;2.0;-3.0;-18.0;0.19;0.43;-10.66;0.51;0.36;0.93
1753881461.682478;0.0;0.0;0.0;-2.1;1.25;-0.05;0.0;0.0;0.0;0.0;-17.0;2.0;-3.0;-18.0;0.19;0.44;-10.66;0.54;0.45;0.96
1753881461.687478;0.0;0.0;0.0;-2.1;1.25;-0.05;0.0;0.0;0.0;0.0;-17.0;2.0;-3.0;-18.0;0.19;0.43;-10.67;0.61;0.4;0.92
1753881461.692478;0.0;0.0;0.0;-2.1;1.25;-0.05;0.0;0.0;0.0;0.0;-17.0;2.0;-3.0;-18.0;0.19;0.43;-10.68;0.58;0.28;0.85
1753881461.697478;0.0;0.0;0.0;-2.1;1.25;-0.05;0.0;0.0;0.0;0.0;-17.0;2.0;-3.0;-18.0;0.19;0.44;-10.68;0.7;0.35;1.0
1753881461.702478;0.0;0.0;0.0;-2.1;1.25;-0.05;0.0;0.0;0.0;0.0;-17.0;2.0;-3.0;-18.0;0.19;0.44;-10.69;0.55;0.34;0.82
1753881461.707478;0.0;0.0;0.0;-2.1;1.25;-0.05;0.0;0.0;0.0;0.0;-17.0;2.0;-3.0;-18.0;0.19;0.44;-10.69;0.54;0.41;1.02
1753881461.712478;0.0;0.0;0.0;-2.1;1.25;-0.05;0.0;0.0;0.0;0.0;-17.0;2.0;-3.0;-18.0;0.18;0.44;-10.68;0.54;0.42;0.86
1753881461.717478;0.0;0.0;0.0;-2.1;1.25;-0.05;0.0;0.0;0.0;0.0;-17.0;2.0;-3.0;-18.0;0.18;0.44;-10.68;0.55;0.44;0.81
1753881461.722478;0.0;0.0;0.0;-2.1;1.25;-0.05;0.0;0.0;0.0;0.0;-17.0;2.0;-3.0;-18.0;0.18;0.44;-10.68;0.74;0.41;1.06
1753881461.727478;0.0;0.0;0.0;-2.1;1.25;-0.05;0.0;0.0;0.0;0.0;-17.0;2.0;-3.0;-18.0;0.17;0.44;-10.68;0.71;0.39;0.99
1753881461.732478;0.0;0.0;0.0;-2.1;1.25;-0.05;0.0;0.0;0.0;0.0;-26.8;2.0;-2.4;-18.0;0.16;0.44;-10.68;0.69;0.4;0.94
1753881461.737478;0.0;0.0;0.0;-2.1;1.25;-0.05;0.0;0.0;0.0;0.0;-16.1;2.7;-3.3;-18.0;0.18;0.44;-10.68;0.67;0.42;0.98
1753881461.742478;0.0;0.0;0.0;-2.1;1.25;-0.05;0.0;0.0;0.0;0.0;-8.5;1.4;-1.5;-18.0;0.18;0.43;-10.68;0.68;0.22;1.21
1753881461.747478;0.0;0.0;0.0;-2.1;1.25;-0.05;0.0;0.0;0.0;0.0;-13.3;2.6;-1.7;-18.0;0.16;0.43;-10.68;0.7;0.37;1.01
1753881461.752478;0.0;0.0;0.0;-2.1;1.25;-0.05;0.0;0.0;0.0;0.0;-13.7;2.2;-2.1;-18.0;0.18;0.43;-10.67;0.82;0.44;1.07
1753881461.757479;0.0;0.0;0.0;-2.1;1.25;-0.05;0.0;0.0;0.0;0.0;-14.6;3.5;-1.8;-18.0;0.18;0.44;-10.68;0.68;0.5;1.0
1753881461.762479;0.0;0.0;0.0;-2.1;1.25;-0.05;0.0;0.0;0.0;0.0;-9.8;4.1;-2.0;-18.0;0.18;0.43;-10.69;0.73;0.45;0.88
1753881461.767479;0.0;0.0;0.0;-2.1;1.25;-0.05;0.0;0.0;0.0;0.0;2.0;3.5;-2.1;-18.0;0.17;0.45;-10.67;0.75;0.37;0.93
1753881461.772479;0.0;0.0;0.0;-2.1;1.25;-0.05;0.0;0.0;0.0;0.0;-2.6;2.9;3.8;-18.0;0.19;0.44;-10.68;0.57;0.44;0.94
1753881461.777479;0.0;0.0;0.0;-2.1;1.25;-0.05;0.0;0.0;0.0;0.0;11.8;3.5;-1.0;-18.0;0.17;0.44;-10.67;0.64;0.35;0.86
1753881461.782479;0.0;0.0;0.0;-2.1;1.25;-0.05;0.0;0.0;0.0;0.0;-14.8;3.7;1.7;-18.0;0.17;0.44;-10.67;0.56;0.44;0.9
1753881461.78748;0.0;0.0;0.0;-2.1;1.25;-0.05;0.0;0.0;0.0;0.0;-10.1;3.3;-0.8;-18.0;0.18;0.45;-10.68;0.61;0.39;0.97
1753881461.79248;0.0;0.0;0.0;-2.1;1.25;-0.05;0.0;0.0;0.0;0.0;-2.0;2.4;7.5;-18.0;0.19;0.44;-10.69;0.5;0.34;0.87
1753881461.79748;0.0;0.0;0.0;-2.1;1.25;-0.05;0.0;0.0;0.0;0.0;4.5;4.0;3.8;-18.0;0.18;0.44;-10.68;0.54;0.41;0.82
1753881461.80248;0.0;0.0;0.0;-2.1;1.25;-0.05;0.0;0.0;0.0;0.0;-1.9;2.6;-2.2;-18.0;0.19;0.44;-10.68;0.57;0.45;0.94
1753881461.80748;0.0;0.0;0.0;-2.1;1.25;-0.05;0.0;0.0;0.0;0.0;-4.1;3.7;7.1;-18.0;0.17;0.44;-10.68;0.69;0.46;0.94
1753881461.81248;0.0;0.0;0.0;-2.1;1.25;-0.05;0.0;0.0;0.0;0.0;0.5;5.1;2.3;-18.0;0.17;0.44;-10.69;0.55;0.38;0.85
1753881461.81748;0.0;0.0;0.0;-2.1;1.25;-0.05;0.0;0.0;0.0;0.0;-0.3;4.4;7.0;-18.0;0.19;0.44;-10.68;0.48;0.41;0.88
1753881461.82248;0.0;0.0;0.0;-2.1;1.25;-0.05;0.0;0.0;0.0;0.0;11.7;5.1;7.2;-18.0;0.18;0.44;-10.69;0.59;0.38;0.84
1753881461.82748;0.0;0.0;0.0;-2.1;1.25;-0.05;0.0;0.0;0.0;0.0;4.6;5.2;10.6;-18.0;0.19;0.44;-10.69;0.52;0.37;0.88
1753881461.83248;0.0;0.0;0.0;-2.1;1.25;-0.05;0.0;0.0;0.0;0.0;10.8;4.3;7.1;-18.0;0.2;0.44;-10.67;0.65;0.38;0.87
1753881461.83748;0.0;0.0;0.0;-2.1;1.25;-0.05;0.0;0.0;0.0;0.0;-2.3;5.3;7.3;-18.0;0.2;0.44;-10.68;0.48;0.39;0.86
1753881461.842481;0.0;0.0;0.0;-2.1;1.25;-0.05;0.0;0.0;0.0;0.0;-2.4;4.2;6.4;-18.0;0.18;0.44;-10.7;0.48;0.33;0.71
1753881461.847478;0.0;0.0;0.0;-2.1;1.25;-0.05;0.0;0.0;0.0;0.0;8.0;5.0;9.0;-18.0;0.19;0.44;-10.68;0.48;0.39;0.82
1753881461.852478;0.0;0.0;0.0;-2.1;1.25;-0.05;0.0;0.0;0.0;0.0;2.2;5.1;17.2;-18.0;0.18;0.44;-10.68;0.59;0.4;0.85
1753881461.857478;0.0;0.0;0.0;-2.1;1.25;-0.05;0.0;0.0;0.0;0.0;0.4;4.5;11.0;-18.0;0.19;0.44;-10.67;0.4;0.47;1.02
1753881461.862478;0.0;0.0;0.0;-2.1;1.25;-0.05;0.0;0.0;0.0;0.0;8.0;5.0;9.0;-18.0;0.19;0.44;-10.67;0.47;0.45;0.91
1753881461.867478;0.0;0.0;0.0;-2.1;1.25;-0.05;0.0;0.0;0.0;0.0;8.0;5.0;9.0;-18.0;0.19;0.44;-10.67;0.65;0.37;0.93
1753881461.872478;0.0;0.0;0.0;-2.1;1.25;-0.05;0.0;0.0;0.0;0.0;7.7;6.6;12.1;-18.0;0.19;0.44;-10.67;0.59;0.32;0.98
1753881461.877478;0.0;0.0;0.0;-2.1;1.25;-0.05;0.0;0.0;0.0;0.0;8.0;5.0;9.0;-18.0;0.2;0.44;-10.67;0.57;0.34;0.97
1753881461.882478;0.0;0.0;0.0;-2.1;1.25;-0.05;0.0;0.0;0.0;0.0;8.5;4.3;-0.2;-18.0;0.18;0.44;-10.66;0.44;0.41;1.1
1753881461.887478;0.0;0.0;0.0;-2.1;1.25;-0.05;0.0;0.0;0.0;0.0;8.0;5.0;9.0;-18.0;0.19;0.44;-10.65;0.49;0.41;1.0
1753881461.892478;0.0;0.0;0.0;-2.1;1.25;-0.05;0.0;0.0;0.0;0.0;8.0;5.0;9.0;-18.0;0.19;0.44;-10.66;0.46;0.37;1.02
1753881461.897478;0.0;0.0;0.0;-2.1;1.25;-0.05;0.0;0.0;0.0;0.0;8.0;5.0;9.0;-18.0;0.19;0.44;-10.66;0.53;0.38;0.84
1753881461.902478;0.0;0.0;0.0;-2.1;1.25;-0.05;0.0;0.0;0.0;0.0;8.0;5.0;9.0;-18.0;0.19;0.44;-10.67;0.67;0.24;0.83
1753881461.907478;0.0;0.0;0.0;-2.1;1.25;-0.05;0.0;0.0;0.0;0.0;8.0;5.0;9.0;-18.0;0.18;0.44;-10.68;0.51;0.3;0.94
1753881461.912478;0.0;0.0;0.0;-2.1;1.25;-0.05;0.0;0.0;0.0;0.0;8.0;5.0;9.0;-18.0;0.19;0.45;-10.68;0.5;0.39;0.99
1753881461.917478;0.0;0.0;0.0;-2.1;1.25;-0.05;0.0;0.0;0.0;0.0;-4.2;4.7;3.5;-18.1;0.2;0.46;-10.68;0.61;0.37;0.92
1753881461.922478;0.0;0.0;0.0;-2.1;1.25;-0.05;0.0;0.0;0.0;0.0;10.6;4.3;2.8;-17.4;0.18;0.45;-10.65;0.45;0.43;0.99
1753881461.927478;0.0;0.0;0.0;-2.1;1.25;-0.05;0.0;0.0;0.0;0.0;-3.3;0.9;6.4;-17.1;0.18;0.45;-10.68;0.64;0.37;0.94
1753881461.932478;0.0;0.0;0.0;-2.1;1.25;-0.05;0.0;0.0;0.0;0.0;21.1;7.7;10.7;-18.3;0.18;0.45;-10.67;0.5;0.48;0.96
1753881461.937478;0.0;0.0;0.0;-2.1;1.25;-0.05;0.0;0.0;0.0;0.0;-0.9;3.7;19.6;-17.8;0.18;0.44;-10.68;0.39;0.41;0.95
1753881461.942479;0.0;0.0;0.0;-2.1;1.25;-0.05;0.0;0.0;0.0;0.0;8.4;5.1;3.5;-19.0;0.2;0.45;-10.69;0.41;0.43;0.96
1753881461.947479;0.0;0.0;0.0;-2.1;1.25;-0.05;0.0;0.0;0.0;0.0;7.7;9.5;8.1;-18.0;0.19;0.45;-10.68;0.69;0.42;0.82
1753881461.952479;0.0;0.0;0.0;-2.1;1.25;-0.05;0.0;0.0;0.0;0.0;7.3;6.5;-3.0;-19.6;0.19;0.45;-10.67;0.55;0.42;0.9
1753881461.957479;0.0;0.0;0.0;-2.1;1.25;-0.05;0.0;0.0;0.0;0.0;-1.7;6.6;-7.4;-18.2;0.18;0.44;-10.68;0.56;0.37;0.94
1753881461.962479;0.0;0.0;0.0;-2.1;1.25;-0.05;0.0;0.0;0.0;0.0;-21.8;6.9;12.4;-21.0;0.2;0.44;-10.68;0.45;0.51;0.92
1753881461.967479;0.0;0.0;0.0;-2.1;1.25;-0.05;0.0;0.0;0.0;0.0;1.7;3.9;0.3;-20.3;0.18;0.44;-10.67;0.49;0.43;0.94
1753881461.972479;0.0;0.0;0.0;-2.1;1.25;-0.05;0.0;0.0;0.0;0.0;0.9;4.5;6.5;-19.3;0.19;0.45;-10.69;0.6;0.39;0.89
1753881461.97748;0.0;0.0;0.0;-2.1;1.25;-0.05;0.0;0.0;0.0;0.0;14.6;5.6;5.5;-19.3;0.19;0.44;-10.65;0.61;0.4;0.97
1753881461.98248;0.0;0.0;0.0;-2.1;1.25;-0.05;0.0;0.0;0.0;0.0;-6.8;5.9;-3.5;-19.1;0.19;0.44;-10.69;0.49;0.52;0.9
1753881461.98748;0.0;0.0;0.0;-2.1;1.25;-0.05;0.0;0.0;0.0;0.0;2.5;4.6;1.4;-20.4;0.18;0.45;-10.67;0.37;0.44;0.81
1753881461.99248;0.0;0.0;0.0;-2.1;1.25;-0.05;0.0;0.0;0.0;0.0;-1.2;6.7;-5.7;-18.9;0.18;0.44;-10.68;0.47;0.48;0.8
1753881461.99748;0.0;0.0;0.0;-2.1;1.25;-0.05;0.0;0.0;0.0;0.0;6.1;4.0;-4.2;-19.9;0.18;0.44;-10.68;0.48;0.58;1.12
1753881462.00248;0.0;0.0;0.0;-2.1;1.25;-0.05;0.0;0.0;0.0;0.0;-13.4;7.7;5.2;-20.0;0.19;0.44;-10.69;0.41;0.42;0.81
1753881462.00748;0.0;0.0;0.0;-2.1;1.25;-0.05;0.0;0.0;0.0;0.0;-27.6;7.5;1.1;-21.2;0.18;0.44;-10.68;0.66;0.49;0.91
1753881462.01248;0.0;0.0;0.0;-2.1;1.25;-0.05;0.0;0.0;0.0;0.0;-9.9;8.5;3.8;-20.1;0.16;0.44;-10.68;0.51;0.55;0.8
1753881462.01748;0.0;0.0;0.0;-2.1;1.25;-0.05;0.0;0.0;0.0;0.0;0.8;6.4;-8.4;-21.0;0.18;0.45;-10.68;0.59;0.46;0.94
1753881462.02248;0.0;0.0;0.0;-2.1;1.25;-0.05;0.0;0.0;0.0;0.0;-17.1;7.8;-1.3;-20.9;0.18;0.44;-10.69;0.57;0.59;1.05
1753881462.02748;0.0;0.0;0.0;-2.1;1.25;-0.05;0.0;0.0;0.0;0.0;-42.7;8.5;-2.7;-20.8;0.18;0.44;-10.67;0.42;0.42;0.68
1753881462.032478;0.0;0.0;0.0;-2.1;1.25;-0.05;0.0;0.0;0.0;0.0;-13.0;7.0;-2.0;-21.0;0.18;0.44;-10.68;0.54;0.51;0.84
1753881462.037478;0.0;0.0;0.0;-2.1;1.25;-0.05;0.0;0.0;0.0;0.0;-13.0;7.0;-2.0;-21.0;0.18;0.45;-10.69;0.54;0.49;0.98
1753881462.042478;0.0;0.0;0.0;-2.1;1.25;-0.05;0.0;0.0;0.0;0.0;-13.0;7.0;-2.0;-21.0;0.18;0.45;-10.68;0.56;0.53;1.07
1753881462.047478;0.0;0.0;0.0;-2.1;1.25;-0.05;0.0;0.0;0.0;0.0;-13.0;7.0;-2.0;-21.0;0.17;0.44;-10.68;0.64;0.45;1.09
1753881462.052478;0.0;0.0;0.0;-2.1;1.25;-0.05;0.0;0.0;0.0;0.0;-13.0;7.0;-2.0;-21.0;0.17;0.45;-10.69;0.46;0.23;0.98
1753881462.057478;0.0;0.0;0.0;-2.1;1.25;-0.05;0.0;0.0;0.0;0.0;-13.0;7.0;-2.0;-21.0;0.17;0.45;-10.69;0.67;0.36;0.96
1753881462.062478;0.0;0.0;0.0;-2.1;1.25;-0.05;0.0;0.0;0.0;0.0;-13.0;7.0;-2.0;-21.0;0.17;0.45;-10.69;0.58;0.5;0.89
1753881462.067478;0.0;0.0;0.0;-2.1;1.25;-0.05;0.0;0.0;0.0;0.0;-13.0;7.0;-2.0;-21.0;0.17;0.45;-10.68;0.47;0.49;0.85
1753881462.072478;0.0;0.0;0.0;-2.1;1.25;-0.05;0.0;0.0;0.0;0.0;-13.0;7.0;-2.0;-21.0;0.17;0.45;-10.69;0.59;0.66;0.94
1753881462.077478;0.0;0.0;0.0;-2.1;1.25;-0.05;0.0;0.0;0.0;0.0;-13.0;7.0;-2.0;-21.0;0.17;0.45;-10.68;0.57;0.35;0.95
1753881462.082478;0.0;0.0;0.0;-2.1;1.25;-0.05;0.0;0.0;0.0;0.0;-13.0;7.0;-2.0;-21.0;0.18;0.45;-10.69;0.39;0.41;0.93
1753881462.087478;0.0;0.0;0.0;-2.1;1.25;-0.05;0.0;0.0;0.0;0.0;-13.0;7.0;-2.0;-21.0;0.18;0.45;-10.68;0.48;0.36;1.19
1753881462.092478;0.0;0.0;0.0;-2.1;1.25;-0.05;0.0;0.0;0.0;0.0;-13.0;7.0;-2.0;-21.0;0.18;0.45;-10.69;0.47;0.35;0.96
1753881462.097478;0.0;0.0;0.0;-2.1;1.25;-0.05;0.0;0.0;0.0;0.0;-13.0;7.0;-2.0;-21.0;0.18;0.45;-10.69;0.55;0.34;1.03
1753881462.102478;0.0;0.0;0.0;-2.1;1.25;-0.05;0.0;0.0;0.0;0.0;-13.0;7.0;-2.0;-21.0;0.18;0.45;-10.7;0.53;0.36;0.93
1753881462.107478;0.0;0.0;0.0;-2.1;1.25;-0.05;0.0;0.0;0.0;0.0;-13.0;7.0;-2.0;-21.0;0.18;0.45;-10.69;0.53;0.55;0.96
1753881462.112478;0.0;0.0;0.0;-2.1;1.25;-0.05;0.0;0.0;0.0;0.0;-13.0;7.0;-2.0;-21.0;0.19;0.45;-10.7;0.61;0.35;0.91
1753881462.117478;0.0;0.0;0.0;-2.1;1.25;-0.05;0.0;0.0;0.0;0.0;-13.0;7.0;-2.0;-21.0;0.19;0.44;-10.69;0.62;0.26;0.86
1753881462.122478;0.0;0.0;0.0;-2.1;1.25;-0.05;0.0;0.0;0.0;0.0;-13.0;7.0;-2.0;-21.0;0.19;0.44;-10.69;0.61;0.42;0.93
1753881462.127478;0.0;0.0;0.0;-2.1;1.25;-0.05;0.0;0.0;0.0;0.0;-13.0;7.0;-2.0;-21.0;0.19;0.44;-10.69;0.57;0.38;0.88
1753881462.132478;0.0;0.0;0.0;-2.1;1.25;-0.05;0.0;0.0;0.0;0.0;-13.0;7.0;-2.0;-21.0;0.19;0.44;-10.69;0.5;0.25;0.93
1753881462.137478;0.0;0.0;0.0;-2.1;1.25;-0.05;0.0;0.0;0.0;0.0;-13.0;7.0;-2.0;-21.0;0.18;0.44;-10.7;0.53;0.43;0.87
1753881462.142478;0.0;0.0;0.0;-2.1;1.25;-0.05;0.0;0.0;0.0;0.0;-13.0;7.0;-2.0;-21.0;0.18;0.45;-10.69;0.73;0.45;0.87
1753881462.147478;0.0;0.0;0.0;-2.1;1.25;-0.05;0.0;0.0;0.0;0.0;-13.0;7.0;-2.0;-21.0;0.17;0.45;-10.69;0.57;0.25;0.99
1753881462.152478;0.0;0.0;0.0;-2.1;1.25;-0.05;0.0;0.0;0.0;0.0;-13.0;7.0;-2.0;-21.0;0.18;0.45;-10.69;0.48;0.42;0.94
1753881462.157478;0.0;0.0;0.0;-2.1;1.25;-0.05;0.0;0.0;0.0;0.0;-13.0;7.0;-2.0;-21.0;0.17;0.45;-10.68;0.63;0.43;0.86
1753881462.162478;0.0;0.0;0.0;-2.1;1.25;-0.05;0.0;0.0;0.0;0.0;-13.0;7.0;-2.0;-21.0;0.18;0.45;-10.68;0.58;0.27;1.01
1753881462.167478;0.0;0.0;0.0;-2.1;1.25;-0.05;0.0;0.0;0.0;0.0;-13.0;7.0;-2.0;-21.0;0.18;0.45;-10.67;0.51;0.39;0.89
1753881462.172478;0.0;0.0;0.0;-2.1;1.25;-0.05;0.0;0.0;0.0;0.0;-13.0;7.0;-2.0;-21.0;0.18;0.45;-10.68;0.53;0.49;0.76
1753881462.177478;0.0;0.0;0.0;-2.1;1.25;-0.05;0.0;0.0;0.0;0.0;-13.0;7.0;-2.0;-21.0;0.18;0.45;-10.68;0.57;0.47;0.92
1753881462.182478;0.0;0.0;0.0;-2.1;1.25;-0.05;0.0;0.0;0.0;0.0;-13.0;7.0;-2.0;-21.0;0.18;0.44;-10.67;0.61;0.43;0.98
1753881462.187478;0.0;0.0;0.0;-2.1;1.25;-0.05;0.0;0.0;0.0;0.0;-13.0;7.0;-2.0;-21.0;0.17;0.43;-10.67;0.68;0.34;0.95
1753881462.192478;0.0;0.0;0.0;-2.1;1.25;-0.05;0.0;0.0;0.0;0.0;-13.0;7.0;-2.0;-21.0;0.18;0.44;-10.67;0.56;0.38;0.9
1753881462.197478;0.0;0.0;0.0;-2.1;1.25;-0.05;0.0;0.0;0.0;0.0;-13.0;7.0;-2.0;-21.0;0.17;0.45;-10.65;0.57;0.57;0.87
1753881462.202478;0.0;0.0;0.0;-2.1;1.25;-0.05;0.0;0.0;0.0;0.0;-13.0;7.0;-2.0;-21.0;0.19;0.44;-10.68;0.58;0.53;0.82
1753881462.207478;0.0;0.0;0.0;-2.1;1.25;-0.05;0.0;0.0;0.0;0.0;-13.0;7.0;-2.0;-21.0;0.18;0.44;-10.66;0.49;0.6;0.91
1753881462.212479;0.0;0.0;0.0;-2.1;1.25;-0.05;0.0;0.0;0.0;0.0;-13.0;7.0;-2.0;-21.0;0.19;0.44;-10.67;0.56;0.41;0.85
1753881462.217479;0.0;0.0;0.0;-2.1;1.25;-0.05;0.0;0.0;0.0;0.0;-13.0;7.0;-2.0;-21.0;0.18;0.43;-10.64;0.6;0.4;0.88
1753881462.222479;0.0;0.0;0.0;-2.1;1.25;-0.05;0.0;0.0;0.0;0.0;-13.0;7.0;-2.0;-21.0;0.19;0.44;-10.65;0.42;0.29;0.97
1753881462.227479;0.0;0.0;0.0;-2.1;1.25;-0.05;0.0;0.0;0.0;0.0;-13.0;7.0;-2.0;-21.0;0.19;0.44;-10.66;0.63;0.46;0.79
1753881462.232478;0.0;0.0;0.0;-2.1;1.25;-0.05;0.0;0.0;0.0;0.0;-13.0;7.0;-2.0;-21.0;0.19;0.44;-10.66;0.51;0.39;0.82
1753881462.237478;0.0;0.0;0.0;-2.1;1.25;-0.05;0.0;0.0;0.0;0.0;-13.0;7.0;-2.0;-21.0;0.18;0.45;-10.66;0.57;0.31;0.83
1753881462.242478;0.0;0.0;0.0;-2.1;1.25;-0.05;0.0;0.0;0.0;0.0;-13.0;7.0;-2.0;-21.0;0.18;0.45;-10.67;0.61;0.36;0.99
1753881462.247478;0.0;0.0;0.0;-2.1;1.25;-0.05;0.0;0.0;0.0;0.0;-13.0;7.0;-2.0;-21.0;0.2;0.45;-10.68;0.56;0.65;1.04
1753881462.252478;0.0;0.0;0.0;-2.1;1.25;-0.05;0.0;0.0;0.0;0.0;-13.0;7.0;-2.0;-21.0;0.19;0.44;-10.66;0.56;0.44;0.86
1753881462.257478;0.0;0.0;0.0;-2.1;1.25;-0.05;0.0;0.0;0.0;0.0;-13.0;7.0;-2.0;-21.0;0.18;0.44;-10.65;0.58;0.42;0.85
1753881462.262478;0.0;0.0;0.0;-2.1;1.25;-0.05;0.0;0.0;0.0;0.0;-13.0;7.0;-2.0;-21.0;0.19;0.45;-10.66;0.64;0.32;0.88
1753881462.267478;0.0;0.0;0.0;-2.1;1.25;-0.05;0.0;0.0;0.0;0.0;-13.0;7.0;-2.0;-21.0;0.19;0.45;-10.67;0.45;0.48;1.06
1753881462.272478;0.0;0.0;0.0;-2.1;1.25;-0.05;0.0;0.0;0.0;0.0;-13.0;7.0;-2.0;-21.0;0.19;0.45;-10.68;0.54;0.57;0.92
1753881462.277478;0.0;0.0;0.0;-2.1;1.25;-0.05;0.0;0.0;0.0;0.0;-13.0;7.0;-2.0;-21.0;0.19;0.45;-10.68;0.52;0.38;0.86
1753881462.282478;0.0;0.0;0.0;-2.1;1.25;-0.05;0.0;0.0;0.0;0.0;-13.0;7.0;-2.0;-21.0;0.19;0.45;-10.69;0.54;0.51;0.86
1753881462.287478;0.0;0.0;0.0;-2.1;1.25;-0.05;0.0;0.0;0.0;0.0;-13.0;7.0;-2.0;-21.0;0.18;0.44;-10.69;0.51;0.37;0.88
1753881462.292478;0.0;0.0;0.0;-2.1;1.25;-0.05;0.0;0.0;0.0;0.0;-13.0;7.0;-2.0;-21.0;0.19;0.44;-10.69;0.51;0.42;0.9
1753881462.297478;0.0;0.0;0.0;-2.1;1.25;-0.05;0.0;0.0;0.0;0.0;-13.0;7.0;-2.0;-21.0;0.19;0.44;-10.69;0.57;0.39;0.97
1753881462.302478;0.0;0.0;0.0;-2.1;1.25;-0.05;0.0;0.0;0.0;0.0;-13.0;7.0;-2.0;-21.0;0.19;0.44;-10.69;0.61;0.32;0.8
1753881462.307478;0.0;0.0;0.0;-2.1;1.25;-0.05;0.0;0.0;0.0;0.0;-11.7;4.8;-1.5;-22.0;0.19;0.44;-10.67;0.66;0.31;0.82
1753881462.312478;0.0;0.0;0.0;-2.1;1.25;-0.05;0.0;0.0;0.0;0.0;-10.4;3.4;0.7;-20.4;0.19;0.44;-10.69;0.54;0.34;0.95
1753881462.317478;0.0;0.0;0.0;-2.1;1.25;-0.05;0.0;0.0;0.0;0.0;-13.3;7.9;-0.9;-19.4;0.19;0.44;-10.67;0.57;0.42;0.88
1753881462.322478;0.0;0.0;0.0;-2.1;1.25;-0.05;0.0;0.0;0.0;0.0;-12.7;5.2;-1.9;-21.3;0.2;0.44;-10.67;0.64;0.31;0.82
1753881462.327479;0.0;0.0;0.0;-2.1;1.25;-0.05;0.0;0.0;0.0;0.0;-10.9;7.0;-0.8;-19.6;0.19;0.44;-10.68;0.66;0.36;0.89
1753881462.332479;0.0;0.0;0.0;-2.1;1.25;-0.05;0.0;0.0;0.0;0.0;-12.9;6.0;5.3;-21.2;0.19;0.43;-10.7;0.69;0.42;0.88
1753881462.337479;0.0;0.0;0.0;-2.1;1.25;-0.05;0.0;0.0;0.0;0.0;-12.6;8.5;4.4;-20.7;0.19;0.44;-10.68;0.63;0.43;0.93
1753881462.342479;0.0;0.0;0.0;-2.1;1.25;-0.05;0.0;0.0;0.0;0.0;-12.5;0.9;-0.4;-20.6;0.19;0.44;-10.68;0.63;0.42;0.93
1753881462.347479;0.0;0.0;0.0;-2.1;1.24;-0.05;0.0;0.0;0.0;0.0;-12.0;2.9;4.1;-19.6;0.19;0.44;-10.66;0.57;0.32;0.88
1753881462.352479;0.0;0.0;0.0;-2.1;1.25;-0.05;0.0;0.0;0.0;0.0;-10.8;4.5;0.5;-18.1;0.19;0.45;-10.69;0.57;0.25;0.97
1753881462.357479;0.0;0.0;0.0;-2.1;1.24;-0.05;0.0;0.0;0.0;0.0;-11.7;3.7;0.8;-17.7;0.19;0.43;-10.66;0.64;0.43;0.81
1753881462.36248;0.0;0.0;0.0;-2.1;1.24;-0.05;0.0;0.0;0.0;0.0;-10.9;2.2;-0.9;-18.0;0.19;0.44;-10.69;0.64;0.24;0.89
1753881462.36748;0.0;0.0;0.0;-2.1;1.24;-0.05;0.0;0.0;0.0;0.0;-11.2;3.4;0.3;-19.3;0.19;0.44;-10.68;0.59;0.42;0.9
1753881462.37248;0.0;0.0;0.0;-2.1;1.24;-0.05;0.0;0.0;0.0;0.0;-10.0;3.5;5.6;-19.0;0.19;0.44;-10.67;0.62;0.45;0.89
1753881462.37748;0.0;0.0;0.0;-2.1;1.24;-0.05;0.0;0.0;0.0;0.0;-10.9;3.5;-0.5;-17.3;0.19;0.45;-10.67;0.55;0.35;0.94
1753881462.38248;0.0;0.0;0.0;-2.1;1.24;-0.05;0.0;0.0;0.0;0.0;-10.4;-1.4;5.7;-18.3;0.19;0.45;-10.66;0.62;0.29;0.79
1753881462.38748;0.0;0.0;0.0;-2.1;1.24;-0.05;0.0;0.0;0.0;0.0;-9.9;4.4;3.4;-18.0;0.19;0.45;-10.66;0.58;0.33;0.98
1753881462.39248;0.0;0.0;0.0;-2.1;1.24;-0.05;0.0;0.0;0.0;0.0;-10.0;1.7;13.5;-16.8;0.18;0.45;-10.67;0.55;0.31;0.85
1753881462.39748;0.0;0.0;0.0;-2.1;1.24;-0.05;0.0;0.0;0.0;0.0;-10.5;0.8;5.0;-18.3;0.19;0.44;-10.65;0.64;0.45;0.86
1753881462.40248;0.0;0.0;0.0;-2.1;1.24;-0.05;0.0;0.0;0.0;0.0;-10.1;-1.1;10.4;-17.4;0.19;0.45;-10.66;0.58;0.38;0.85
1753881462.40748;0.0;0.0;0.0;-2.1;1.24;-0.05;0.0;0.0;0.0;0.0;-8.8;1.5;4.9;-16.9;0.19;0.44;-10.68;0.62;0.59;0.82
1753881462.41248;0.0;0.0;0.0;-2.1;1.24;-0.05;0.0;0.0;0.0;0.0;-8.2;3.1;10.2;-16.5;0.2;0.44;-10.65;0.59;0.39;0.95
1753881462.417481;0.0;0.0;0.0;-2.1;1.24;-0.05;0.0;0.0;0.0;0.0;-8.6;0.8;6.7;-15.9;0.18;0.43;-10.65;0.66;0.46;0.89
1753881462.422481;0.0;0.0;0.0;-2.1;1.24;-0.05;0.0;0.0;0.0;0.0;-9.1;-3.0;11.6;-16.9;0.19;0.44;-10.65;0.58;0.41;0.88
1753881462.427478;0.0;0.0;0.0;-2.1;1.24;-0.05;0.0;0.0;0.0;0.0;-9.0;-1.0;9.0;-17.0;0.19;0.44;-10.65;0.6;0.42;0.92
1753881462.432478;0.0;0.0;0.0;-2.1;1.24;-0.05;0.0;0.0;0.0;0.0;-9.0;-1.0;9.0;-17.0;0.19;0.44;-10.65;0.41;0.4;0.9
1753881462.437478;0.0;0.0;0.0;-2.1;1.24;-0.05;0.0;0.0;0.0;0.0;-9.0;-1.0;9.0;-17.0;0.18;0.44;-10.66;0.61;0.38;0.93
1753881462.442478;0.0;0.0;0.0;-2.1;1.24;-0.05;0.0;0.0;0.0;0.0;-9.0;-1.0;9.0;-17.0;0.18;0.44;-10.66;0.54;0.41;0.85
1753881462.447478;0.0;0.0;0.0;-2.1;1.24;-0.05;0.0;0.0;0.0;0.0;-9.0;-1.0;9.0;-17.0;0.18;0.44;-10.66;0.5;0.49;0.87
1753881462.452478;0.0;0.0;0.0;-2.1;1.24;-0.05;0.0;0.0;0.0;0.0;-9.0;-1.0;9.0;-17.0;0.18;0.44;-10.65;0.48;0.39;0.84
1753881462.457478;0.0;0.0;0.0;-2.1;1.24;-0.05;0.0;0.0;0.0;0.0;-9.0;-1.0;9.0;-17.0;0.18;0.44;-10.65;0.45;0.43;0.93
1753881462.462478;0.0;0.0;0.0;-2.1;1.24;-0.05;0.0;0.0;0.0;0.0;-9.0;-1.0;9.0;-17.0;0.18;0.44;-10.66;0.49;0.24;0.8
1753881462.467478;0.0;0.0;0.0;-2.1;1.24;-0.05;0.0;0.0;0.0;0.0;-9.8;-1.8;5.4;-17.8;0.18;0.44;-10.66;0.49;0.29;0.83
1753881462.472478;0.0;0.0;0.0;-2.1;1.24;-0.05;0.0;0.0;0.0;0.0;-14.5;0.7;12.8;-17.4;0.18;0.44;-10.67;0.48;0.2;0.76
1753881462.477478;0.0;0.0;0.0;-2.1;1.25;-0.05;0.0;0.0;0.0;0.0;-11.6;-1.0;6.0;-16.1;0.18;0.45;-10.65;0.47;0.23;0.68
1753881462.482478;0.0;0.0;0.0;-2.1;1.24;-0.05;0.0;0.0;0.0;0.0;-15.4;2.7;14.8;-16.8;0.18;0.44;-10.66;0.43;0.21;0.9
1753881462.487478;0.0;0.0;0.0;-2.1;1.23;-0.05;0.0;0.0;0.0;0.0;-4.0;0.6;6.8;-18.7;0.18;0.44;-10.66;0.39;0.42;0.86
1753881462.492478;0.0;0.0;0.0;-2.1;1.24;-0.05;0.0;0.0;0.0;0.0;-4.8;0.2;3.2;-21.6;0.17;0.44;-10.65;0.38;0.24;0.87
1753881462.497479;0.0;0.0;0.0;-2.1;1.23;-0.05;0.0;0.0;0.0;0.0;-6.4;4.5;3.6;-15.4;0.18;0.43;-10.63;0.52;0.25;0.77
1753881462.502479;0.0;0.0;0.0;-2.1;1.25;-0.05;0.0;0.0;0.0;0.0;-6.0;0.1;7.6;-16.6;0.18;0.44;-10.65;0.41;0.19;0.89
1753881462.507479;0.0;0.0;0.0;-2.1;1.24;-0.05;0.0;0.0;0.0;0.0;3.6;1.3;0.9;-15.4;0.18;0.45;-10.64;0.54;0.18;0.84
1753881462.512479;0.0;0.0;0.0;-2.1;1.24;-0.05;0.0;0.0;0.0;0.0;-3.2;-2.8;-0.5;-15.2;0.18;0.45;-10.69;0.43;0.35;0.88
1753881462.517479;0.0;0.0;0.0;-2.1;1.24;-0.05;0.0;0.0;0.0;0.0;2.4;-2.1;0.2;-19.4;0.18;0.44;-10.67;0.39;0.36;0.73
1753881462.522479;0.0;0.0;0.0;-2.1;1.23;-0.05;0.0;0.0;0.0;0.0;-2.2;-2.0;2.4;-16.8;0.18;0.45;-10.66;0.48;0.41;0.79
1753881462.52748;0.0;0.0;0.0;-2.1;1.24;-0.05;0.0;0.0;0.0;0.0;0.8;-2.8;2.3;-16.6;0.18;0.44;-10.67;0.4;0.36;0.83
1753881462.53248;0.0;0.0;0.0;-2.1;1.24;-0.05;0.0;0.0;0.0;0.0;-6.1;10.0;5.4;-20.2;0.19;0.45;-10.64;0.4;0.39;0.71
1753881462.53748;0.0;0.0;0.0;-2.1;1.23;-0.05;0.0;0.0;0.0;0.0;3.8;5.6;2.8;-19.2;0.19;0.45;-10.68;0.51;0.27;0.82
1753881462.54248;0.0;0.0;0.0;-2.1;1.23;-0.05;0.0;0.0;0.0;0.0;-3.8;-3.2;6.7;-18.6;0.19;0.45;-10.68;0.47;0.33;0.64
1753881462.54748;0.0;0.0;0.0;-2.1;1.24;-0.05;0.0;0.0;0.0;0.0;-1.8;-1.3;3.7;-21.2;0.19;0.44;-10.67;0.51;0.41;0.68
1753881462.55248;0.0;0.0;0.0;-2.1;1.24;-0.05;0.0;0.0;0.0;0.0;-5.0;1.4;-3.9;-18.6;0.19;0.44;-10.66;0.36;0.44;0.78
1753881462.55748;0.0;0.0;0.0;-2.1;1.23;-0.05;0.0;0.0;0.0;0.0;-2.5;3.1;-5.7;-21.1;0.18;0.45;-10.65;0.44;0.48;0.82
1753881462.56248;0.0;0.0;0.0;-2.1;1.23;-0.05;0.0;0.0;0.0;0.0;0.4;6.1;-2.3;-21.5;0.19;0.45;-10.68;0.48;0.37;0.87
1753881462.56748;0.0;0.0;0.0;-2.1;1.23;-0.05;0.0;0.0;0.0;0.0;3.9;4.5;-7.8;-20.3;0.2;0.44;-10.67;0.37;0.24;0.69
1753881462.57248;0.0;0.0;0.0;-2.1;1.24;-0.05;0.0;0.0;0.0;0.0;2.6;-0.6;-3.9;-14.1;0.19;0.44;-10.66;0.54;0.49;0.87
1753881462.57748;0.0;0.0;0.0;-2.1;1.23;-0.05;0.0;0.0;0.0;0.0;0.3;7.2;-0.2;-18.6;0.19;0.44;-10.67;0.51;0.36;0.83
1753881462.582481;0.0;0.0;0.0;-2.1;1.23;-0.05;0.0;0.0;0.0;0.0;-3.2;6.5;3.4;-18.9;0.2;0.45;-10.66;0.44;0.49;0.82
1753881462.587481;0.0;0.0;0.0;-2.1;1.22;-0.05;0.0;0.0;0.0;0.0;6.4;6.2;-7.1;-19.4;0.19;0.44;-10.69;0.55;0.39;0.81
1753881462.592481;0.0;0.0;0.0;-2.1;1.23;-0.05;0.0;0.0;0.0;0.0;2.8;5.0;2.6;-21.7;0.19;0.46;-10.66;0.41;0.39;0.77
1753881462.597481;0.0;0.0;0.0;-2.1;1.23;-0.05;0.0;0.0;0.0;0.0;-3.6;7.0;1.2;-20.0;0.19;0.45;-10.68;0.58;0.5;0.86
1753881462.602481;0.0;0.0;0.0;-2.1;1.23;-0.05;0.0;0.0;0.0;0.0;7.5;10.4;-17.9;-19.5;0.19;0.46;-10.65;0.32;0.46;0.71
1753881462.607478;0.0;0.0;0.0;-2.1;1.23;-0.05;0.0;0.0;0.0;0.0;5.0;6.0;-3.0;-21.0;0.19;0.45;-10.67;0.45;0.45;0.83
1753881462.612478;0.0;0.0;0.0;-2.1;1.23;-0.05;0.0;0.0;0.0;0.0;5.0;6.0;-3.0;-21.0;0.19;0.45;-10.67;0.54;0.35;0.95
1753881462.617478;0.0;0.0;0.0;-2.1;1.23;-0.05;0.0;0.0;0.0;0.0;5.0;6.0;-3.0;-21.0;0.19;0.45;-10.67;0.51;0.31;0.84
1753881462.622478;0.0;0.0;0.0;-2.1;1.23;-0.05;0.0;0.0;0.0;0.0;5.0;6.0;-3.0;-21.0;0.19;0.45;-10.68;0.51;0.54;0.9
1753881462.627478;0.0;0.0;0.0;-2.1;1.23;-0.05;0.0;0.0;0.0;0.0;5.0;6.0;-3.0;-21.0;0.19;0.45;-10.67;0.58;0.5;0.86
1753881462.632478;0.0;0.0;0.0;-2.1;1.22;-0.05;0.0;0.0;0.0;0.0;10.9;8.6;-5.9;-21.6;0.19;0.45;-10.68;0.61;0.56;0.92
1753881462.637478;0.0;0.0;0.0;-2.1;1.25;-0.05;0.0;0.0;0.0;0.0;6.1;1.7;-6.5;-19.3;0.19;0.44;-10.65;0.56;0.43;0.82
1753881462.642478;0.0;0.0;0.0;-2.1;1.23;-0.05;0.0;0.0;0.0;0.0;-13.5;6.6;-10.6;-22.7;0.18;0.44;-10.67;0.62;0.53;0.95
1753881462.647478;0.0;0.0;0.0;-2.1;1.24;-0.05;0.0;0.0;0.0;0.0;7.0;9.3;8.8;-19.9;0.18;0.44;-10.68;0.53;0.37;0.78
1753881462.652478;0.0;0.0;0.0;-2.1;1.24;-0.05;0.0;0.0;0.0;0.0;2.1;5.4;-12.5;-15.7;0.19;0.45;-10.67;0.57;0.39;0.9
1753881462.657478;0.0;0.0;0.0;-2.1;1.22;-0.05;0.0;0.0;0.0;0.0;6.7;8.2;8.2;-22.5;0.19;0.45;-10.68;0.54;0.51;0.85
1753881462.662479;0.0;0.0;0.0;-2.1;1.23;-0.05;0.0;0.0;0.0;0.0;-0.1;3.0;4.2;-21.8;0.19;0.45;-10.67;0.54;0.47;0.87
1753881462.667479;0.0;0.0;0.0;-2.1;1.22;-0.05;0.0;0.0;0.0;0.0;-4.6;8.9;2.4;-20.0;0.2;0.45;-10.66;0.58;0.45;0.79
1753881462.672479;0.0;0.0;0.0;-2.1;1.23;-0.05;0.0;0.0;0.0;0.0;16.9;2.9;1.8;-26.2;0.19;0.45;-10.66;0.57;0.5;0.85
1753881462.677479;0.0;0.0;0.0;-2.1;1.24;-0.05;0.0;0.0;0.0;0.0;6.6;10.6;-3.2;-24.8;0.19;0.45;-10.65;0.58;0.44;0.91
1753881462.682479;0.0;0.0;0.0;-2.1;1.22;-0.05;0.0;0.0;0.0;0.0;7.2;4.6;6.5;-24.1;0.19;0.46;-10.68;0.51;0.39;0.95
1753881462.687479;0.0;0.0;0.0;-2.1;1.22;-0.05;0.0;0.0;0.0;0.0;3.3;0.9;-0.4;-23.3;0.19;0.45;-10.65;0.51;0.41;0.91
1753881462.692479;0.0;0.0;0.0;-2.1;1.23;-0.05;0.0;0.0;0.0;0.0;-2.0;9.1;-8.2;-20.5;0.18;0.45;-10.66;0.53;0.61;0.77
1753881462.69748;0.0;0.0;0.0;-2.1;1.23;-0.05;0.0;0.0;0.0;0.0;-3.6;-0.9;-7.6;-23.3;0.2;0.45;-10.68;0.46;0.65;0.9
1753881462.70248;0.0;0.0;0.0;-2.1;1.22;-0.05;0.0;0.0;0.0;0.0;-1.8;6.8;-7.3;-19.9;0.2;0.45;-10.67;0.59;0.45;0.86
1753881462.70748;0.0;0.0;0.0;-2.1;1.22;-0.05;0.0;0.0;0.0;0.0;6.8;3.8;5.2;-20.1;0.2;0.45;-10.66;0.55;0.46;0.81
1753881462.71248;0.0;0.0;0.0;-2.1;1.24;-0.05;0.0;0.0;0.0;0.0;8.7;10.8;1.5;-19.9;0.19;0.45;-10.66;0.59;0.45;0.86
1753881462.71748;0.0;0.0;0.0;-2.1;1.23;-0.05;0.0;0.0;0.0;0.0;11.0;3.6;0.4;-20.8;0.2;0.44;-10.67;0.52;0.44;0.84
1753881462.72248;0.0;0.0;0.0;-2.1;1.23;-0.05;0.0;0.0;0.0;0.0;-1.0;6.0;10.7;-19.8;0.2;0.44;-10.66;0.53;0.47;0.92
1753881462.72748;0.0;0.0;0.0;-2.1;1.24;-0.05;0.0;0.0;0.0;0.0;6.7;12.4;-5.5;-19.8;0.2;0.45;-10.67;0.61;0.48;0.87
1753881462.73248;0.0;0.0;0.0;-2.1;1.23;-0.05;0.0;0.0;0.0;0.0;13.3;6.1;-3.2;-19.9;0.2;0.44;-10.66;0.6;0.34;0.9
1753881462.73748;0.0;0.0;0.0;-2.1;1.23;-0.05;0.0;0.0;0.0;0.0;-9.5;6.3;-1.4;-19.0;0.2;0.45;-10.65;0.55;0.45;0.87
1753881462.74248;0.0;0.0;0.0;-2.1;1.23;-0.05;0.0;0.0;0.0;0.0;7.8;2.2;-2.8;-23.7;0.2;0.45;-10.68;0.6;0.38;0.87
1753881462.747481;0.0;0.0;0.0;-2.1;1.22;-0.05;0.0;0.0;0.0;0.0;0.7;1.4;-11.4;-23.0;0.2;0.44;-10.68;0.56;0.43;0.88
1753881462.752481;0.0;0.0;0.0;-2.1;1.23;-0.05;0.0;0.0;0.0;0.0;10.2;6.9;-11.0;-20.2;0.2;0.44;-10.67;0.41;0.3;0.9
1753881462.757481;0.0;0.0;0.0;-2.1;1.25;-0.05;0.0;0.0;0.0;0.0;-2.8;3.6;-10.8;-21.1;0.19;0.44;-10.69;0.44;0.43;0.83
1753881462.762481;0.0;0.0;0.0;-2.1;1.22;-0.05;0.0;0.0;0.0;0.0;2.7;12.0;-9.4;-20.5;0.21;0.44;-10.66;0.55;0.2;0.9
1753881462.767481;0.0;0.0;0.0;-2.1;1.23;-0.05;0.0;0.0;0.0;0.0;12.4;8.7;-11.9;-25.2;0.2;0.44;-10.67;0.54;0.36;0.91
1753881462.772481;0.0;0.0;0.0;-2.1;1.23;-0.05;0.0;0.0;0.0;0.0;11.6;4.4;-0.1;-18.8;0.2;0.44;-10.66;0.47;0.3;0.9
1753881462.777481;0.0;0.0;0.0;-2.1;1.24;-0.05;0.0;0.0;0.0;0.0;12.8;4.0;-5.1;-21.1;0.2;0.45;-10.67;0.59;0.43;0.81
1753881462.782482;0.0;0.0;0.0;-2.1;1.22;-0.05;0.0;0.0;0.0;0.0;12.5;2.5;-8.5;-20.8;0.19;0.44;-10.67;0.54;0.29;0.82
1753881462.787482;0.0;0.0;0.0;-2.1;1.23;-0.05;0.0;0.0;0.0;0.0;6.4;11.0;-2.4;-20.6;0.2;0.44;-10.67;0.47;0.38;0.85
1753881462.792478;0.0;0.0;0.0;-2.1;1.23;-0.05;0.0;0.0;0.0;0.0;5.0;6.0;-3.0;-21.0;0.2;0.44;-10.67;0.53;0.36;0.86
1753881462.797478;0.0;0.0;0.0;-2.1;1.23;-0.05;0.0;0.0;0.0;0.0;5.0;6.0;-3.0;-21.0;0.2;0.44;-10.68;0.58;0.26;0.75
1753881462.802478;0.0;0.0;0.0;-2.1;1.23;-0.05;0.0;0.0;0.0;0.0;5.0;6.0;-3.0;-21.0;0.2;0.44;-10.68;0.74;0.35;0.81
1753881462.807478;0.0;0.0;0.0;-2.1;1.23;-0.05;0.0;0.0;0.0;0.0;5.0;6.0;-3.0;-21.0;0.2;0.44;-10.67;0.51;0.51;0.77
1753881462.812478;0.0;0.0;0.0;-2.1;1.23;-0.05;0.0;0.0;0.0;0.0;5.0;6.0;-3.0;-21.0;0.19;0.44;-10.67;0.4;0.35;0.92
1753881462.817478;0.0;0.0;0.0;-2.1;1.23;-0.05;0.0;0.0;0.0;0.0;5.0;6.0;-3.0;-21.0;0.19;0.44;-10.67;0.45;0.25;0.96
1753881462.822478;0.0;0.0;0.0;-2.1;1.23;-0.05;0.0;0.0;0.0;0.0;5.0;6.0;-3.0;-21.0;0.19;0.44;-10.68;0.5;0.35;0.88
1753881462.827478;0.0;0.0;0.0;-2.1;1.23;-0.05;0.0;0.0;0.0;0.0;5.0;6.0;-3.0;-21.0;0.19;0.44;-10.68;0.71;0.31;0.99
1753881462.832478;0.0;0.0;0.0;-2.1;1.23;-0.05;0.0;0.0;0.0;0.0;5.0;6.0;-3.0;-21.0;0.19;0.44;-10.68;0.52;0.56;0.96
1753881462.837478;0.0;0.0;0.0;-2.1;1.23;-0.05;0.0;0.0;0.0;0.0;5.0;6.0;-3.0;-21.0;0.19;0.44;-10.69;0.48;0.37;0.83
1753881462.842478;0.0;0.0;0.0;-2.1;1.23;-0.05;0.0;0.0;0.0;0.0;5.0;6.0;-3.0;-21.0;0.18;0.44;-10.69;0.62;0.32;0.86
1753881462.847478;0.0;0.0;0.0;-2.1;1.23;-0.05;0.0;0.0;0.0;0.0;5.0;6.0;-3.0;-21.0;0.18;0.44;-10.68;0.51;0.33;0.94
1753881462.852478;0.0;0.0;0.0;-2.1;1.23;-0.05;0.0;0.0;0.0;0.0;5.0;6.0;-3.0;-21.0;0.18;0.44;-10.68;0.62;0.32;0.81
1753881462.857478;0.0;0.0;0.0;-2.1;1.22;-0.05;0.0;0.0;0.0;0.0;8.8;2.6;-1.5;-20.7;0.19;0.44;-10.68;0.55;0.31;0.8
1753881462.862478;0.0;0.0;0.0;-2.1;1.23;-0.05;0.0;0.0;0.0;0.0;2.0;6.0;-1.8;-21.1;0.18;0.44;-10.68;0.62;0.31;0.72
1753881462.867478;0.0;0.0;0.0;-2.1;1.23;-0.05;0.0;0.0;0.0;0.0;6.0;6.2;-1.7;-20.5;0.18;0.45;-10.68;0.66;0.44;0.76
1753881462.872478;0.0;0.0;0.0;-2.1;1.23;-0.05;0.0;0.0;0.0;0.0;10.2;6.0;3.3;-19.9;0.17;0.44;-10.68;0.48;0.47;0.82
1753881462.877478;0.0;0.0;0.0;-2.1;1.23;-0.05;0.0;0.0;0.0;0.0;7.3;8.7;2.2;-19.5;0.17;0.44;-10.68;0.69;0.14;0.75
1753881462.882479;0.0;0.0;0.0;-2.1;1.23;-0.05;0.0;0.0;0.0;0.0;7.6;6.5;-6.8;-19.9;0.19;0.45;-10.67;0.53;0.25;0.82
1753881462.887479;0.0;0.0;0.0;-2.1;1.23;-0.05;0.0;0.0;0.0;0.0;5.7;6.5;4.0;-22.0;0.19;0.43;-10.67;0.55;0.14;0.87
1753881462.892479;0.0;0.0;0.0;-2.1;1.23;-0.05;0.0;0.0;0.0;0.0;8.3;1.7;-3.5;-21.1;0.18;0.45;-10.69;0.68;0.28;0.9
1753881462.897479;0.0;0.0;0.0;-2.1;1.23;-0.05;0.0;0.0;0.0;0.0;2.7;3.5;5.1;-20.7;0.18;0.44;-10.68;0.62;0.33;0.76
1753881462.902479;0.0;0.0;0.0;-2.1;1.23;-0.05;0.0;0.0;0.0;0.0;4.0;3.5;2.1;-20.7;0.18;0.44;-10.68;0.67;0.28;0.94
1753881462.907479;0.0;0.0;0.0;-2.1;1.24;-0.05;0.0;0.0;0.0;0.0;7.4;3.6;4.5;-21.8;0.18;0.44;-10.69;0.55;0.32;0.9
1753881462.91248;0.0;0.0;0.0;-2.1;1.23;-0.05;0.0;0.0;0.0;0.0;9.3;2.9;-0.6;-20.2;0.18;0.44;-10.68;0.76;0.43;0.99
1753881462.91748;0.0;0.0;0.0;-2.1;1.23;-0.05;0.0;0.0;0.0;0.0;2.7;2.7;-0.7;-19.8;0.19;0.44;-10.69;0.65;0.29;0.96
1753881462.92248;0.0;0.0;0.0;-2.1;1.23;-0.05;0.0;0.0;0.0;0.0;9.3;3.0;5.1;-21.5;0.19;0.44;-10.68;0.76;0.33;0.85
1753881462.92748;0.0;0.0;0.0;-2.1;1.24;-0.05;0.0;0.0;0.0;0.0;2.3;2.4;3.8;-18.9;0.19;0.44;-10.69;0.56;0.34;1.0
1753881462.93248;0.0;0.0;0.0;-2.1;1.23;-0.05;0.0;0.0;0.0;0.0;3.6;2.3;6.7;-21.4;0.2;0.44;-10.7;0.49;0.25;0.84
1753881462.93748;0.0;0.0;0.0;-2.1;1.24;-0.05;0.0;0.0;0.0;0.0;9.9;0.6;9.3;-22.3;0.19;0.44;-10.69;0.52;0.21;1.05
1753881462.94248;0.0;0.0;0.0;-2.1;1.23;-0.05;0.0;0.0;0.0;0.0;8.3;2.6;3.0;-18.8;0.19;0.44;-10.68;0.6;0.35;1.01
1753881462.94748;0.0;0.0;0.0;-2.1;1.24;-0.05;0.0;0.0;0.0;0.0;7.3;1.9;6.4;-19.6;0.19;0.44;-10.68;0.64;0.38;0.98
1753881462.95248;0.0;0.0;0.0;-2.1;1.24;-0.05;0.0;0.0;0.0;0.0;7.2;-0.2;4.6;-20.1;0.18;0.43;-10.69;0.5;0.32;0.98
1753881462.95748;0.0;0.0;0.0;-2.1;1.24;-0.05;0.0;0.0;0.0;0.0;10.2;6.5;9.4;-20.1;0.19;0.44;-10.69;0.67;0.22;0.92
1753881462.96248;0.0;0.0;0.0;-2.1;1.24;-0.05;0.0;0.0;0.0;0.0;14.8;2.6;14.2;-20.1;0.19;0.44;-10.68;0.71;0.43;0.96
1753881462.967481;0.0;0.0;0.0;-2.1;1.24;-0.05;0.0;0.0;0.0;0.0;8.3;5.4;7.7;-19.7;0.19;0.44;-10.7;0.65;0.51;1.06
1753881462.972481;0.0;0.0;0.0;-2.1;1.24;-0.05;0.0;0.0;0.0;0.0;1.3;0.6;15.0;-20.0;0.19;0.44;-10.69;0.67;0.45;1.1
1753881462.977481;0.0;0.0;0.0;-2.1;1.24;-0.05;0.0;0.0;0.0;0.0;4.7;0.0;17.8;-20.1;0.18;0.43;-10.67;0.48;0.21;0.99
1753881462.982478;0.0;0.0;0.0;-2.1;1.24;-0.05;0.0;0.0;0.0;0.0;7.0;1.0;11.0;-20.0;0.19;0.44;-10.69;0.63;0.34;0.99
1753881462.987478;0.0;0.0;0.0;-2.1;1.24;-0.05;0.0;0.0;0.0;0.0;7.0;1.0;11.0;-20.0;0.2;0.44;-10.68;0.45;0.38;0.83
1753881462.992478;0.0;0.0;0.0;-2.1;1.24;-0.05;0.0;0.0;0.0;0.0;7.0;1.0;11.0;-20.0;0.2;0.44;-10.68;0.5;0.42;0.87
1753881462.997478;0.0;0.0;0.0;-2.1;1.24;-0.05;0.0;0.0;0.0;0.0;7.0;1.0;11.0;-20.0;0.19;0.44;-10.69;0.51;0.37;0.73
1753881463.002478;0.0;0.0;0.0;-2.1;1.24;-0.05;0.0;0.0;0.0;0.0;1.4;1.2;12.8;-18.9;0.18;0.43;-10.7;0.67;0.34;0.78
1753881463.007478;0.0;0.0;0.0;-2.1;1.24;-0.05;0.0;0.0;0.0;0.0;2.2;3.0;2.9;-19.0;0.18;0.45;-10.69;0.61;0.3;0.58
1753881463.012478;0.0;0.0;0.0;-2.1;1.24;-0.05;0.0;0.0;0.0;0.0;2.5;3.7;23.2;-20.9;0.19;0.44;-10.68;0.5;0.22;0.74
1753881463.017479;0.0;0.0;0.0;-2.1;1.24;-0.05;0.0;0.0;0.0;0.0;7.6;3.9;7.4;-19.6;0.18;0.44;-10.68;0.46;0.48;0.75
1753881463.022479;0.0;0.0;0.0;-2.1;1.24;-0.05;0.0;0.0;0.0;0.0;7.4;-1.4;2.3;-19.7;0.18;0.44;-10.68;0.56;0.49;0.74
1753881463.027479;0.0;0.0;0.0;-2.1;1.24;-0.05;0.0;0.0;0.0;0.0;-3.5;2.1;6.7;-19.4;0.2;0.44;-10.68;0.46;0.43;0.72
1753881463.032479;0.0;0.0;0.0;-2.1;1.24;-0.05;0.0;0.0;0.0;0.0;-4.1;6.8;11.6;-20.5;0.2;0.44;-10.68;0.35;0.12;0.77
1753881463.037479;0.0;0.0;0.0;-2.1;1.24;-0.05;0.0;0.0;0.0;0.0;-3.7;-2.7;11.8;-19.7;0.18;0.44;-10.68;0.6;0.39;0.82
1753881463.042479;0.0;0.0;0.0;-2.1;1.25;-0.05;0.0;0.0;0.0;0.0;-1.8;2.9;7.1;-19.3;0.18;0.44;-10.7;0.6;0.26;0.78
1753881463.04748;0.0;0.0;0.0;-2.1;1.25;-0.05;0.0;0.0;0.0;0.0;3.3;2.3;2.4;-19.8;0.19;0.44;-10.68;0.55;0.44;0.79
1753881463.05248;0.0;0.0;0.0;-2.1;1.25;-0.05;0.0;0.0;0.0;0.0;-1.9;2.8;-0.5;-18.5;0.2;0.44;-10.67;0.51;0.33;0.71
1753881463.05748;0.0;0.0;0.0;-2.1;1.24;-0.05;0.0;0.0;0.0;0.0;-4.9;6.0;10.5;-17.9;0.18;0.44;-10.69;0.7;0.41;0.7
1753881463.06248;0.0;0.0;0.0;-2.1;1.24;-0.05;0.0;0.0;0.0;0.0;-6.3;2.5;8.3;-19.0;0.18;0.44;-10.68;0.48;0.49;0.84
1753881463.06748;0.0;0.0;0.0;-2.1;1.24;-0.05;0.0;0.0;0.0;0.0;4.0;3.5;-3.1;-19.7;0.17;0.44;-10.69;0.67;0.42;0.79
1753881463.07248;0.0;0.0;0.0;-2.1;1.24;-0.05;0.0;0.0;0.0;0.0;-6.6;0.8;-9.3;-17.3;0.18;0.44;-10.68;0.61;0.51;0.86
1753881463.07748;0.0;0.0;0.0;-2.1;1.24;-0.05;0.0;0.0;0.0;0.0;-10.2;2.3;-4.7;-16.6;0.18;0.44;-10.69;0.54;0.38;0.84
1753881463.08248;0.0;0.0;0.0;-2.1;1.24;-0.05;0.0;0.0;0.0;0.0;3.6;0.8;2.8;-17.6;0.19;0.44;-10.68;0.61;0.46;0.8
1753881463.08748;0.0;0.0;0.0;-2.1;1.24;-0.05;0.0;0.0;0.0;0.0;-4.4;5.7;-6.2;-17.2;0.18;0.44;-10.68;0.49;0.41;0.89
1753881463.09248;0.0;0.0;0.0;-2.1;1.24;-0.05;0.0;0.0;0.0;0.0;-11.8;-0.9;10.4;-16.8;0.19;0.44;-10.68;0.51;0.33;0.82
1753881463.09748;0.0;0.0;0.0;-2.1;1.24;-0.05;0.0;0.0;0.0;0.0;-5.1;-0.9;13.1;-16.4;0.19;0.44;-10.69;0.53;0.44;0.76
1753881463.102481;0.0;0.0;0.0;-2.1;1.23;-0.05;0.0;0.0;0.0;0.0;-5.6;-1.4;5.5;-18.2;0.17;0.43;-10.66;0.68;0.36;0.91
1753881463.107481;0.0;0.0;0.0;-2.1;1.23;-0.05;0.0;0.0;0.0;0.0;-2.3;-3.2;2.6;-17.6;0.18;0.45;-10.65;0.56;0.5;0.78
1753881463.112481;0.0;0.0;0.0;-2.1;1.24;-0.05;0.0;0.0;0.0;0.0;-2.8;2.6;3.4;-18.7;0.19;0.44;-10.66;0.77;0.42;0.83
1753881463.117481;0.0;0.0;0.0;-2.1;1.24;-0.05;0.0;0.0;0.0;0.0;-13.7;-1.7;-11.2;-16.7;0.17;0.44;-10.67;0.63;0.41;0.79
1753881463.122481;0.0;0.0;0.0;-2.1;1.25;-0.05;0.0;0.0;0.0;0.0;-5.6;-1.0;-13.5;-17.0;0.18;0.44;-10.66;0.49;0.38;0.83
1753881463.127481;0.0;0.0;0.0;-2.1;1.24;-0.05;0.0;0.0;0.0;0.0;-4.7;4.8;-1.8;-18.0;0.18;0.44;-10.65;0.64;0.31;0.83
1753881463.132481;0.0;0.0;0.0;-2.1;1.24;-0.05;0.0;0.0;0.0;0.0;-10.3;3.0;-13.5;-14.6;0.18;0.44;-10.66;0.7;0.22;0.96
1753881463.137482;0.0;0.0;0.0;-2.1;1.24;-0.05;0.0;0.0;0.0;0.0;-3.7;0.2;-15.2;-16.0;0.18;0.44;-10.66;0.64;0.51;0.83
1753881463.142482;0.0;0.0;0.0;-2.1;1.23;-0.05;0.0;0.0;0.0;0.0;-4.5;6.1;-11.1;-16.9;0.18;0.44;-10.66;0.59;0.37;0.95
1753881463.147482;0.0;0.0;0.0;-2.1;1.23;-0.05;0.0;0.0;0.0;0.0;-4.7;3.2;-12.1;-15.1;0.17;0.44;-10.68;0.56;0.38;0.89
1753881463.152482;0.0;0.0;0.0;-2.1;1.24;-0.05;0.0;0.0;0.0;0.0;-11.1;-0.4;-9.0;-16.5;0.19;0.45;-10.65;0.61;0.4;0.93
1753881463.157478;0.0;0.0;0.0;-2.1;1.24;-0.05;0.0;0.0;0.0;0.0;-10.0;2.0;-13.0;-16.0;0.18;0.44;-10.66;0.64;0.35;0.94
1753881463.162478;0.0;0.0;0.0;-2.1;1.24;-0.05;0.0;0.0;0.0;0.0;-10.0;2.0;-13.0;-16.0;0.18;0.45;-10.66;0.54;0.42;0.93
1753881463.167478;0.0;0.0;0.0;-2.1;1.24;-0.05;0.0;0.0;0.0;0.0;-10.0;2.0;-13.0;-16.0;0.18;0.45;-10.67;0.57;0.26;0.86
1753881463.172478;0.0;0.0;0.0;-2.1;1.24;-0.05;0.0;0.0;0.0;0.0;-10.0;2.0;-13.0;-16.0;0.18;0.45;-10.68;0.51;0.33;0.83
1753881463.177478;0.0;0.0;0.0;-2.1;1.24;-0.05;0.0;0.0;0.0;0.0;-10.0;2.0;-13.0;-16.0;0.18;0.45;-10.68;0.41;0.41;0.98
1753881463.182478;0.0;0.0;0.0;-2.1;1.24;-0.05;0.0;0.0;0.0;0.0;-10.0;2.0;-13.0;-16.0;0.18;0.45;-10.68;0.59;0.34;0.96
1753881463.187478;0.0;0.0;0.0;-2.1;1.24;-0.05;0.0;0.0;0.0;0.0;-10.0;2.0;-13.0;-16.0;0.18;0.45;-10.69;0.55;0.32;1.02
1753881463.192478;0.0;0.0;0.0;-2.1;1.24;-0.05;0.0;0.0;0.0;0.0;-10.0;2.0;-13.0;-16.0;0.19;0.45;-10.69;0.68;0.41;0.98
1753881463.197478;0.0;0.0;0.0;-2.1;1.24;-0.05;0.0;0.0;0.0;0.0;-10.0;2.0;-13.0;-16.0;0.19;0.45;-10.68;0.39;0.3;0.79
1753881463.202478;0.0;0.0;0.0;-2.1;1.24;-0.05;0.0;0.0;0.0;0.0;-10.0;2.0;-13.0;-16.0;0.18;0.45;-10.69;0.54;0.44;0.89
1753881463.207478;0.0;0.0;0.0;-2.1;1.24;-0.05;0.0;0.0;0.0;0.0;-10.0;2.0;-13.0;-16.0;0.18;0.44;-10.69;0.59;0.42;0.96
1753881463.212478;0.0;0.0;0.0;-2.1;1.24;-0.05;0.0;0.0;0.0;0.0;-10.0;2.0;-13.0;-16.0;0.19;0.44;-10.68;0.62;0.5;0.92
1753881463.217478;0.0;0.0;0.0;-2.1;1.24;-0.05;0.0;0.0;0.0;0.0;-10.0;2.0;-13.0;-16.0;0.19;0.44;-10.68;0.58;0.5;0.98
1753881463.222478;0.0;0.0;0.0;-2.1;1.24;-0.05;0.0;0.0;0.0;0.0;-10.0;2.0;-13.0;-16.0;0.19;0.44;-10.68;0.55;0.5;0.83
1753881463.227478;0.0;0.0;0.0;-2.1;1.24;-0.05;0.0;0.0;0.0;0.0;-10.0;2.0;-13.0;-16.0;0.19;0.44;-10.67;0.53;0.28;0.9
1753881463.232478;0.0;0.0;0.0;-2.1;1.24;-0.05;0.0;0.0;0.0;0.0;-10.0;2.0;-13.0;-16.0;0.19;0.44;-10.67;0.57;0.35;0.93
1753881463.237478;0.0;0.0;0.0;-2.1;1.24;-0.05;0.0;0.0;0.0;0.0;-10.0;2.0;-13.0;-16.0;0.19;0.44;-10.67;0.64;0.37;0.95
1753881463.242478;0.0;0.0;0.0;-2.1;1.24;-0.05;0.0;0.0;0.0;0.0;-10.0;2.0;-13.0;-16.0;0.19;0.44;-10.67;0.55;0.35;0.99
1753881463.247478;0.0;0.0;0.0;-2.1;1.24;-0.05;0.0;0.0;0.0;0.0;-10.0;2.0;-13.0;-16.0;0.19;0.44;-10.67;0.53;0.45;0.9
1753881463.252478;0.0;0.0;0.0;-2.1;1.24;-0.05;0.0;0.0;0.0;0.0;-10.0;2.0;-13.0;-16.0;0.19;0.44;-10.66;0.57;0.35;0.8
1753881463.257478;0.0;0.0;0.0;-2.1;1.24;-0.05;0.0;0.0;0.0;0.0;-2.1;2.1;-10.3;-16.7;0.2;0.45;-10.67;0.53;0.36;0.82
1753881463.262478;0.0;0.0;0.0;-2.1;1.24;-0.05;0.0;0.0;0.0;0.0;-4.4;2.2;-11.4;-17.8;0.18;0.44;-10.65;0.64;0.28;0.94
1753881463.267478;0.0;0.0;0.0;-2.1;1.24;-0.05;0.0;0.0;0.0;0.0;-4.5;2.2;-8.8;-18.5;0.19;0.45;-10.66;0.6;0.43;0.76
1753881463.272478;0.0;0.0;0.0;-2.1;1.24;-0.05;0.0;0.0;0.0;0.0;-5.1;2.6;-8.9;-16.8;0.18;0.45;-10.67;0.64;0.3;0.79
1753881463.277478;0.0;0.0;0.0;-2.1;1.24;-0.05;0.0;0.0;0.0;0.0;-2.2;2.2;-8.8;-17.0;0.19;0.45;-10.66;0.59;0.34;0.99
1753881463.282478;0.0;0.0;0.0;-2.1;1.24;-0.05;0.0;0.0;0.0;0.0;-3.5;2.1;-10.0;-17.6;0.18;0.45;-10.66;0.66;0.3;0.85
1753881463.287479;0.0;0.0;0.0;-2.1;1.24;-0.05;0.0;0.0;0.0;0.0;1.9;2.3;-9.3;-18.3;0.19;0.45;-10.67;0.68;0.29;0.89
1753881463.292479;0.0;0.0;0.0;-2.1;1.24;-0.05;0.0;0.0;0.0;0.0;4.6;2.4;-8.7;-16.7;0.19;0.44;-10.67;0.49;0.26;0.88
1753881463.297479;0.0;0.0;0.0;-2.1;1.24;-0.05;0.0;0.0;0.0;0.0;2.1;2.5;-5.6;-18.0;0.19;0.45;-10.66;0.61;0.46;0.84
1753881463.302479;0.0;0.0;0.0;-2.1;1.24;-0.05;0.0;0.0;0.0;0.0;-0.5;2.9;-6.0;-18.6;0.18;0.45;-10.66;0.66;0.38;0.94
1753881463.307479;0.0;0.0;0.0;-2.1;1.24;-0.05;0.0;0.0;0.0;0.0;1.4;2.9;-7.3;-18.5;0.18;0.44;-10.65;0.68;0.44;0.85
1753881463.312479;0.0;0.0;0.0;-2.1;1.24;-0.05;0.0;0.0;0.0;0.0;-0.5;2.7;-6.6;-17.9;0.18;0.44;-10.66;0.76;0.24;0.95
1753881463.317479;0.0;0.0;0.0;-2.1;1.24;-0.05;0.0;0.0;0.0;0.0;1.8;2.7;-4.8;-20.6;0.18;0.44;-10.66;0.73;0.43;0.99
1753881463.32248;0.0;0.0;0.0;-2.1;1.24;-0.05;0.0;0.0;0.0;0.0;3.3;2.7;-4.1;-20.5;0.18;0.45;-10.67;0.69;0.43;0.9
1753881463.32748;0.0;0.0;0.0;-2.1;1.24;-0.05;0.0;0.0;0.0;0.0;2.4;3.0;-5.4;-18.5;0.19;0.45;-10.67;0.64;0.54;1.04
1753881463.33248;0.0;0.0;0.0;-2.1;1.24;-0.05;0.0;0.0;0.0;0.0;-1.0;3.3;-7.9;-19.9;0.18;0.45;-10.68;0.62;0.3;1.07
1753881463.337478;0.0;0.0;0.0;-2.1;1.24;-0.05;0.0;0.0;0.0;0.0;6.0;3.0;-3.0;-20.0;0.18;0.45;-10.67;0.68;0.36;1.0
1753881463.342478;0.0;0.0;0.0;-2.1;1.24;-0.05;0.0;0.0;0.0;0.0;6.0;3.0;-3.0;-20.0;0.19;0.45;-10.66;0.64;0.38;0.97
1753881463.347478;0.0;0.0;0.0;-2.1;1.24;-0.05;0.0;0.0;0.0;0.0;6.0;3.0;-3.0;-20.0;0.19;0.45;-10.66;0.66;0.47;0.93
1753881463.352478;0.0;0.0;0.0;-2.1;1.24;-0.05;0.0;0.0;0.0;0.0;6.0;3.0;-3.0;-20.0;0.19;0.45;-10.66;0.7;0.33;1.05
1753881463.357478;0.0;0.0;0.0;-2.1;1.24;-0.05;0.0;0.0;0.0;0.0;6.0;3.0;-3.0;-20.0;0.19;0.45;-10.66;0.67;0.5;0.91
1753881463.362478;0.0;0.0;0.0;-2.1;1.24;-0.05;0.0;0.0;0.0;0.0;6.0;3.0;-3.0;-20.0;0.19;0.45;-10.66;0.51;0.43;0.85
1753881463.367478;0.0;0.0;0.0;-2.1;1.24;-0.05;0.0;0.0;0.0;0.0;6.0;3.0;-3.0;-20.0;0.19;0.45;-10.67;0.49;0.43;0.9
1753881463.372478;0.0;0.0;0.0;-2.1;1.24;-0.05;0.0;0.0;0.0;0.0;6.0;3.0;-3.0;-20.0;0.19;0.45;-10.66;0.45;0.28;0.79
1753881463.377478;0.0;0.0;0.0;-2.1;1.24;-0.05;0.0;0.0;0.0;0.0;6.0;3.0;-3.0;-20.0;0.19;0.44;-10.67;0.61;0.28;0.85
1753881463.382478;0.0;0.0;0.0;-2.1;1.24;-0.05;0.0;0.0;0.0;0.0;6.0;3.0;-3.0;-20.0;0.19;0.44;-10.67;0.63;0.48;0.9
1753881463.387478;0.0;0.0;0.0;-2.1;1.24;-0.05;0.0;0.0;0.0;0.0;2.2;3.2;-0.2;-22.7;0.19;0.45;-10.67;0.55;0.41;0.76
1753881463.392478;0.0;0.0;0.0;-2.1;1.24;-0.05;0.0;0.0;0.0;0.0;6.0;3.0;-3.0;-20.0;0.19;0.44;-10.67;0.57;0.33;0.89
1753881463.397478;0.0;0.0;0.0;-2.1;1.24;-0.05;0.0;0.0;0.0;0.0;6.0;3.0;-3.0;-20.0;0.19;0.44;-10.67;0.54;0.45;0.93
1753881463.402478;0.0;0.0;0.0;-2.1;1.24;-0.05;0.0;0.0;0.0;0.0;6.0;3.0;-3.0;-20.0;0.19;0.44;-10.67;0.53;0.45;0.82
1753881463.407478;0.0;0.0;0.0;-2.1;1.24;-0.05;0.0;0.0;0.0;0.0;6.0;3.0;-3.0;-20.0;0.19;0.44;-10.67;0.6;0.43;0.9
1753881463.412478;0.0;0.0;0.0;-2.1;1.24;-0.05;0.0;0.0;0.0;0.0;6.0;3.0;-3.0;-20.0;0.19;0.43;-10.67;0.57;0.42;0.97
1753881463.417478;0.0;0.0;0.0;-2.1;1.24;-0.05;0.0;0.0;0.0;0.0;6.0;3.0;-3.0;-20.0;0.18;0.43;-10.66;0.5;0.27;0.98
1753881463.422478;0.0;0.0;0.0;-2.1;1.24;-0.05;0.0;0.0;0.0;0.0;6.0;3.0;-3.0;-20.0;0.18;0.43;-10.65;0.61;0.34;0.9
1753881463.427478;0.0;0.0;0.0;-2.1;1.24;-0.05;0.0;0.0;0.0;0.0;1.6;3.4;0.1;-20.1;0.19;0.41;-10.65;0.57;0.56;1.0
1753881463.432478;0.0;0.0;0.0;-2.1;1.24;-0.05;0.0;0.0;0.0;0.0;6.0;3.0;-3.0;-20.0;0.19;0.43;-10.66;0.52;0.56;0.96
1753881463.437478;0.0;0.0;0.0;-2.1;1.24;-0.05;0.0;0.0;0.0;0.0;6.0;3.0;-3.0;-20.0;0.19;0.44;-10.65;0.54;0.49;0.87
1753881463.442478;0.0;0.0;0.0;-2.1;1.24;-0.05;0.0;0.0;0.0;0.0;6.0;3.0;-3.0;-20.0;0.19;0.44;-10.65;0.57;0.36;0.96
1753881463.447478;0.0;0.0;0.0;-2.1;1.24;-0.05;0.0;0.0;0.0;0.0;6.0;3.0;-3.0;-20.0;0.19;0.44;-10.65;0.54;0.51;0.87
1753881463.452478;0.0;0.0;0.0;-2.1;1.24;-0.05;0.0;0.0;0.0;0.0;6.0;3.0;-3.0;-20.0;0.19;0.44;-10.65;0.52;0.41;0.9
1753881463.457478;0.0;0.0;0.0;-2.1;1.24;-0.05;0.0;0.0;0.0;0.0;6.0;3.0;-3.0;-20.0;0.19;0.43;-10.65;0.55;0.36;0.84
1753881463.462478;0.0;0.0;0.0;-2.1;1.24;-0.05;0.0;0.0;0.0;0.0;6.0;3.0;-3.0;-20.0;0.19;0.44;-10.65;0.55;0.4;0.9
1753881463.467478;0.0;0.0;0.0;-2.1;1.24;-0.05;0.0;0.0;0.0;0.0;6.0;3.0;-3.0;-20.0;0.19;0.44;-10.65;0.54;0.36;0.85
1753881463.472478;0.0;0.0;0.0;-2.1;1.24;-0.05;0.0;0.0;0.0;0.0;6.0;3.0;-3.0;-20.0;0.2;0.44;-10.66;0.57;0.38;1.06
1753881463.477478;0.0;0.0;0.0;-2.1;1.24;-0.05;0.0;0.0;0.0;0.0;6.0;3.0;-3.0;-20.0;0.2;0.45;-10.66;0.52;0.48;0.82
1753881463.482478;0.0;0.0;0.0;-2.1;1.24;-0.05;0.0;0.0;0.0;0.0;6.0;3.0;-3.0;-20.0;0.2;0.45;-10.66;0.48;0.57;1.01
1753881463.487478;0.0;0.0;0.0;-2.1;1.24;-0.05;0.0;0.0;0.0;0.0;6.0;3.0;-3.0;-20.0;0.2;0.45;-10.66;0.57;0.32;0.96
1753881463.492478;0.0;0.0;0.0;-2.1;1.24;-0.05;0.0;0.0;0.0;0.0;6.0;3.0;-3.0;-20.0;0.2;0.44;-10.67;0.51;0.34;0.84
1753881463.497478;0.0;0.0;0.0;-2.1;1.24;-0.05;0.0;0.0;0.0;0.0;6.0;3.0;-3.0;-20.0;0.19;0.43;-10.67;0.58;0.53;0.91
1753881463.502478;0.0;0.0;0.0;-2.1;1.24;-0.05;0.0;0.0;0.0;0.0;6.0;3.0;-3.0;-20.0;0.2;0.43;-10.67;0.58;0.41;0.91
1753881463.507478;0.0;0.0;0.0;-2.1;1.24;-0.05;0.0;0.0;0.0;0.0;6.0;3.0;-3.0;-20.0;0.2;0.44;-10.66;0.51;0.49;0.86
1753881463.512478;0.0;0.0;0.0;-2.1;1.24;-0.05;0.0;0.0;0.0;0.0;6.0;3.0;-3.0;-20.0;0.2;0.44;-10.66;0.4;0.38;0.99
1753881463.517478;0.0;0.0;0.0;-2.1;1.24;-0.05;0.0;0.0;0.0;0.0;6.0;3.0;-3.0;-20.0;0.2;0.44;-10.67;0.51;0.25;0.94
1753881463.522478;0.0;0.0;0.0;-2.1;1.24;-0.05;0.0;0.0;0.0;0.0;6.0;3.0;-3.0;-20.0;0.2;0.43;-10.67;0.55;0.43;0.89
1753881463.527478;0.0;0.0;0.0;-2.1;1.24;-0.05;0.0;0.0;0.0;0.0;6.0;3.0;-3.0;-20.0;0.2;0.43;-10.67;0.53;0.41;0.95
1753881463.532478;0.0;0.0;0.0;-2.1;1.24;-0.05;0.0;0.0;0.0;0.0;6.0;3.0;-3.0;-20.0;0.2;0.42;-10.67;0.6;0.27;0.99
1753881463.537478;0.0;0.0;0.0;-2.1;1.24;-0.05;0.0;0.0;0.0;0.0;6.0;3.0;-3.0;-20.0;0.2;0.42;-10.67;0.6;0.38;0.68
1753881463.542478;0.0;0.0;0.0;-2.1;1.24;-0.05;0.0;0.0;0.0;0.0;6.0;3.0;-3.0;-20.0;0.2;0.43;-10.67;0.54;0.46;0.83
1753881463.547478;0.0;0.0;0.0;-2.1;1.24;-0.05;0.0;0.0;0.0;0.0;6.0;3.0;-3.0;-20.0;0.2;0.44;-10.67;0.52;0.32;0.9
1753881463.552478;0.0;0.0;0.0;-2.1;1.24;-0.05;0.0;0.0;0.0;0.0;6.0;3.0;-3.0;-20.0;0.2;0.44;-10.67;0.52;0.39;0.96
1753881463.557478;0.0;0.0;0.0;-2.1;1.24;-0.05;0.0;0.0;0.0;0.0;6.0;3.0;-3.0;-20.0;0.2;0.44;-10.67;0.63;0.41;0.78
1753881463.562478;0.0;0.0;0.0;-2.1;1.24;-0.05;0.0;0.0;0.0;0.0;6.0;3.0;-3.0;-20.0;0.2;0.44;-10.67;0.54;0.41;1.0
1753881463.567478;0.0;0.0;0.0;-2.1;1.24;-0.05;0.0;0.0;0.0;0.0;6.0;3.0;-3.0;-20.0;0.2;0.44;-10.67;0.51;0.43;0.96
1753881463.572478;0.0;0.0;0.0;-2.1;1.24;-0.05;0.0;0.0;0.0;0.0;6.0;3.0;-3.0;-20.0;0.2;0.44;-10.67;0.49;0.51;0.8
1753881463.577478;0.0;0.0;0.0;-2.1;1.24;-0.05;0.0;0.0;0.0;0.0;6.0;3.0;-3.0;-20.0;0.19;0.45;-10.67;0.43;0.36;0.88
1753881463.582478;0.0;0.0;0.0;-2.1;1.24;-0.05;0.0;0.0;0.0;0.0;6.0;3.0;-3.0;-20.0;0.2;0.45;-10.67;0.56;0.36;0.9
1753881463.587478;0.0;0.0;0.0;-2.1;1.24;-0.05;0.0;0.0;0.0;0.0;6.0;3.0;-3.0;-20.0;0.19;0.45;-10.67;0.54;0.31;0.91
1753881463.592478;0.0;0.0;0.0;-2.1;1.24;-0.05;0.0;0.0;0.0;0.0;6.0;3.0;-3.0;-20.0;0.19;0.45;-10.67;0.47;0.25;0.9
1753881463.597478;0.0;0.0;0.0;-2.1;1.24;-0.05;0.0;0.0;0.0;0.0;6.0;3.0;-3.0;-20.0;0.19;0.45;-10.67;0.51;0.54;0.92
1753881463.602478;0.0;0.0;0.0;-2.1;1.24;-0.05;0.0;0.0;0.0;0.0;6.0;3.0;-3.0;-20.0;0.19;0.45;-10.67;0.47;0.25;0.83
1753881463.607478;0.0;0.0;0.0;-2.1;1.24;-0.05;0.0;0.0;0.0;0.0;6.0;3.0;-3.0;-20.0;0.18;0.45;-10.66;0.6;0.3;0.89
1753881463.612478;0.0;0.0;0.0;-2.1;1.24;-0.05;0.0;0.0;0.0;0.0;6.0;3.0;-3.0;-20.0;0.18;0.45;-10.67;0.49;0.32;0.86
1753881463.617478;0.0;0.0;0.0;-2.1;1.24;-0.05;0.0;0.0;0.0;0.0;6.0;3.0;-3.0;-20.0;0.17;0.44;-10.67;0.55;0.48;0.87
1753881463.622478;0.0;0.0;0.0;-2.1;1.24;-0.05;0.0;0.0;0.0;0.0;6.0;3.0;-3.0;-20.0;0.18;0.45;-10.66;0.51;0.43;0.86
1753881463.627478;0.0;0.0;0.0;-2.1;1.24;-0.05;0.0;0.0;0.0;0.0;6.0;3.0;-3.0;-20.0;0.17;0.45;-10.66;0.45;0.4;0.92
1753881463.632478;0.0;0.0;0.0;-2.1;1.24;-0.05;0.0;0.0;0.0;0.0;6.0;3.0;-3.0;-20.0;0.18;0.44;-10.66;0.49;0.45;0.81
1753881463.637478;0.0;0.0;0.0;-2.1;1.24;-0.05;0.0;0.0;0.0;0.0;6.0;3.0;-3.0;-20.0;0.17;0.44;-10.66;0.56;0.35;0.82
1753881463.642478;0.0;0.0;0.0;-2.1;1.24;-0.05;0.0;0.0;0.0;0.0;6.0;3.0;-3.0;-20.0;0.17;0.44;-10.66;0.51;0.33;0.86
1753881463.647478;0.0;0.0;0.0;-2.1;1.24;-0.05;0.0;0.0;0.0;0.0;6.0;3.0;-3.0;-20.0;0.18;0.45;-10.66;0.54;0.48;0.96
1753881463.652478;0.0;0.0;0.0;-2.1;1.24;-0.05;0.0;0.0;0.0;0.0;6.0;3.0;-3.0;-20.0;0.18;0.45;-10.65;0.55;0.39;0.72
1753881463.657478;0.0;0.0;0.0;-2.1;1.24;-0.05;0.0;0.0;0.0;0.0;6.0;3.0;-3.0;-20.0;0.18;0.45;-10.66;0.57;0.32;0.83
1753881463.662478;0.0;0.0;0.0;-2.1;1.24;-0.05;0.0;0.0;0.0;0.0;6.0;3.0;-3.0;-20.0;0.18;0.44;-10.66;0.67;0.49;0.81
1753881463.667478;0.0;0.0;0.0;-2.1;1.24;-0.05;0.0;0.0;0.0;0.0;6.0;3.0;-3.0;-20.0;0.18;0.44;-10.64;0.6;0.43;0.87
1753881463.672478;0.0;0.0;0.0;-2.1;1.24;-0.05;0.0;0.0;0.0;0.0;6.0;3.0;-3.0;-20.0;0.19;0.44;-10.65;0.57;0.48;0.88
1753881463.677478;0.0;0.0;0.0;-2.1;1.24;-0.05;0.0;0.0;0.0;0.0;6.0;3.0;-3.0;-20.0;0.19;0.44;-10.66;0.7;0.33;0.9
1753881463.682478;0.0;0.0;0.0;-2.1;1.24;-0.05;0.0;0.0;0.0;0.0;6.0;3.0;-3.0;-20.0;0.19;0.44;-10.65;0.49;0.43;0.85
1753881463.687478;0.0;0.0;0.0;-2.1;1.24;-0.05;0.0;0.0;0.0;0.0;6.0;3.0;-3.0;-20.0;0.19;0.44;-10.66;0.65;0.47;0.98
1753881463.692478;0.0;0.0;0.0;-2.1;1.24;-0.05;0.0;0.0;0.0;0.0;6.0;3.0;-3.0;-20.0;0.19;0.44;-10.65;0.7;0.34;0.89
1753881463.697478;0.0;0.0;0.0;-2.1;1.24;-0.05;0.0;0.0;0.0;0.0;6.0;3.0;-3.0;-20.0;0.2;0.44;-10.66;0.47;0.39;0.91
1753881463.702478;0.0;0.0;0.0;-2.1;1.24;-0.05;0.0;0.0;0.0;0.0;6.0;3.0;-3.0;-20.0;0.2;0.44;-10.67;0.57;0.29;0.84
1753881463.707478;0.0;0.0;0.0;-2.1;1.24;-0.05;0.0;0.0;0.0;0.0;6.0;3.0;-3.0;-20.0;0.2;0.44;-10.65;0.64;0.27;0.91
1753881463.712478;0.0;0.0;0.0;-2.1;1.24;-0.05;0.0;0.0;0.0;0.0;6.0;3.0;-3.0;-20.0;0.19;0.45;-10.67;0.45;0.33;0.96
1753881463.717478;0.0;0.0;0.0;-2.1;1.24;-0.05;0.0;0.0;0.0;0.0;6.0;3.0;-3.0;-20.0;0.18;0.44;-10.68;0.68;0.28;0.92
1753881463.722478;0.0;0.0;0.0;-2.1;1.24;-0.05;0.0;0.0;0.0;0.0;6.0;3.0;-3.0;-20.0;0.22;0.44;-10.67;0.57;0.47;0.86
1753881463.727478;0.0;0.0;0.0;-2.1;1.24;-0.05;0.0;0.0;0.0;0.0;6.0;3.0;-3.0;-20.0;0.2;0.45;-10.67;0.74;0.36;0.94
1753881463.732478;0.0;0.0;0.0;-2.1;1.24;-0.05;0.0;0.0;0.0;0.0;6.0;3.0;-3.0;-20.0;0.19;0.45;-10.67;0.65;0.45;0.87
1753881463.737478;0.0;0.0;0.0;-2.1;1.24;-0.05;0.0;0.0;0.0;0.0;6.0;3.0;-3.0;-20.0;0.19;0.45;-10.67;0.5;0.35;0.83
1753881463.742478;0.0;0.0;0.0;-2.1;1.24;-0.05;0.0;0.0;0.0;0.0;6.0;3.0;-3.0;-20.0;0.18;0.45;-10.67;0.6;0.38;0.9
1753881463.747478;0.0;0.0;0.0;-2.1;1.24;-0.05;0.0;0.0;0.0;0.0;6.0;3.0;-3.0;-20.0;0.19;0.45;-10.68;0.51;0.43;0.77
1753881463.752478;0.0;0.0;0.0;-2.1;1.24;-0.05;0.0;0.0;0.0;0.0;6.0;3.0;-3.0;-20.0;0.18;0.45;-10.68;0.48;0.33;1.03
1753881463.757478;0.0;0.0;0.0;-2.1;1.24;-0.05;0.0;0.0;0.0;0.0;6.0;3.0;-3.0;-20.0;0.19;0.46;-10.67;0.59;0.45;1.02
1753881463.762478;0.0;0.0;0.0;-2.1;1.24;-0.05;0.0;0.0;0.0;0.0;6.0;3.0;-3.0;-20.0;0.19;0.45;-10.66;0.51;0.37;0.79
1753881463.767478;0.0;0.0;0.0;-2.1;1.24;-0.05;0.0;0.0;0.0;0.0;6.0;3.0;-3.0;-20.0;0.19;0.45;-10.66;0.48;0.47;0.91
1753881463.772478;0.0;0.0;0.0;-2.1;1.24;-0.05;0.0;0.0;0.0;0.0;6.0;3.0;-3.0;-20.0;0.19;0.45;-10.66;0.53;0.33;0.74
1753881463.777478;0.0;0.0;0.0;-2.1;1.24;-0.05;0.0;0.0;0.0;0.0;6.0;3.0;-3.0;-20.0;0.19;0.45;-10.66;0.54;0.35;0.96
1753881463.782478;0.0;0.0;0.0;-2.1;1.24;-0.05;0.0;0.0;0.0;0.0;6.0;3.0;-3.0;-20.0;0.19;0.45;-10.67;0.51;0.38;0.81
1753881463.787478;0.0;0.0;0.0;-2.1;1.24;-0.05;0.0;0.0;0.0;0.0;6.0;3.0;-3.0;-20.0;0.19;0.44;-10.67;0.53;0.41;1.08
1753881463.792478;0.0;0.0;0.0;-2.1;1.24;-0.05;0.0;0.0;0.0;0.0;6.0;3.0;-3.0;-20.0;0.19;0.45;-10.67;0.6;0.41;0.89
1753881463.797478;0.0;0.0;0.0;-2.1;1.24;-0.05;0.0;0.0;0.0;0.0;6.0;3.0;-3.0;-20.0;0.18;0.45;-10.67;0.56;0.47;0.92
1753881463.802478;0.0;0.0;0.0;-2.1;1.24;-0.05;0.0;0.0;0.0;0.0;6.0;3.0;-3.0;-20.0;0.18;0.45;-10.67;0.63;0.48;0.9
1753881463.807478;0.0;0.0;0.0;-2.1;1.24;-0.05;0.0;0.0;0.0;0.0;6.0;3.0;-3.0;-20.0;0.18;0.44;-10.66;0.58;0.28;0.86
1753881463.812478;0.0;0.0;0.0;-2.1;1.24;-0.05;0.0;0.0;0.0;0.0;6.0;3.0;-3.0;-20.0;0.17;0.44;-10.66;0.61;0.41;1.03
1753881463.817478;0.0;0.0;0.0;-2.1;1.24;-0.05;0.0;0.0;0.0;0.0;6.0;3.0;-3.0;-20.0;0.17;0.44;-10.66;0.56;0.51;1.0
1753881463.822478;0.0;0.0;0.0;-2.1;1.24;-0.05;0.0;0.0;0.0;0.0;6.0;3.0;-3.0;-20.0;0.17;0.44;-10.66;0.59;0.34;0.99
1753881463.827478;0.0;0.0;0.0;-2.1;1.24;-0.05;0.0;0.0;0.0;0.0;6.0;3.0;-3.0;-20.0;0.17;0.45;-10.66;0.58;0.31;0.93
1753881463.832478;0.0;0.0;0.0;-2.1;1.24;-0.05;0.0;0.0;0.0;0.0;6.0;3.0;-3.0;-20.0;0.17;0.44;-10.66;0.51;0.41;0.99
1753881463.837478;0.0;0.0;0.0;-2.1;1.24;-0.05;0.0;0.0;0.0;0.0;6.0;3.0;-3.0;-20.0;0.17;0.44;-10.65;0.61;0.33;0.94
1753881463.842478;0.0;0.0;0.0;-2.1;1.24;-0.05;0.0;0.0;0.0;0.0;6.0;3.0;-3.0;-20.0;0.17;0.44;-10.65;0.69;0.34;1.01
1753881463.847478;0.0;0.0;0.0;-2.1;1.24;-0.05;0.0;0.0;0.0;0.0;6.0;3.0;-3.0;-20.0;0.18;0.44;-10.65;0.5;0.44;0.93
1753881463.852478;0.0;0.0;0.0;-2.1;1.24;-0.05;0.0;0.0;0.0;0.0;6.0;3.0;-3.0;-20.0;0.18;0.43;-10.65;0.4;0.41;0.83
1753881463.857478;0.0;0.0;0.0;-2.1;1.24;-0.05;0.0;0.0;0.0;0.0;6.0;3.0;-3.0;-20.0;0.19;0.43;-10.65;0.48;0.35;0.88
1753881463.862478;0.0;0.0;0.0;-2.1;1.24;-0.05;0.0;0.0;0.0;0.0;6.0;3.0;-3.0;-20.0;0.19;0.44;-10.65;0.54;0.28;1.0
1753881463.867478;0.0;0.0;0.0;-2.1;1.24;-0.05;0.0;0.0;0.0;0.0;6.0;3.0;-3.0;-20.0;0.19;0.44;-10.66;0.5;0.25;0.83
1753881463.872478;0.0;0.0;0.0;-2.1;1.24;-0.05;0.0;0.0;0.0;0.0;6.0;3.0;-3.0;-20.0;0.19;0.44;-10.67;0.61;0.34;0.89
1753881463.877478;0.0;0.0;0.0;-2.1;1.24;-0.05;0.0;0.0;0.0;0.0;6.0;3.0;-3.0;-20.0;0.19;0.44;-10.67;0.57;0.36;0.87
1753881463.882478;0.0;0.0;0.0;-2.1;1.24;-0.05;0.0;0.0;0.0;0.0;6.0;3.0;-3.0;-20.0;0.19;0.44;-10.66;0.57;0.45;0.93
1753881463.887478;0.0;0.0;0.0;-2.1;1.24;-0.05;0.0;0.0;0.0;0.0;6.0;3.0;-3.0;-20.0;0.2;0.44;-10.66;0.57;0.46;0.85
1753881463.892478;0.0;0.0;0.0;-2.1;1.24;-0.05;0.0;0.0;0.0;0.0;6.0;3.0;-3.0;-20.0;0.2;0.44;-10.67;0.57;0.43;0.99
1753881463.897478;0.0;0.0;0.0;-2.1;1.24;-0.05;0.0;0.0;0.0;0.0;6.0;3.0;-3.0;-20.0;0.2;0.44;-10.67;0.43;0.5;1.02
1753881463.902478;0.0;0.0;0.0;-2.1;1.24;-0.05;0.0;0.0;0.0;0.0;6.0;3.0;-3.0;-20.0;0.19;0.45;-10.67;0.5;0.54;0.97
1753881463.907478;0.0;0.0;0.0;-2.1;1.24;-0.05;0.0;0.0;0.0;0.0;6.0;3.0;-3.0;-20.0;0.19;0.45;-10.67;0.7;0.29;0.9
1753881463.912478;0.0;0.0;0.0;-2.1;1.24;-0.05;0.0;0.0;0.0;0.0;6.0;3.0;-3.0;-20.0;0.19;0.45;-10.66;0.66;0.27;0.8
1753881463.917478;0.0;0.0;0.0;-2.1;1.24;-0.05;0.0;0.0;0.0;0.0;6.0;3.0;-3.0;-20.0;0.19;0.45;-10.65;0.55;0.54;0.9
1753881463.922478;0.0;0.0;0.0;-2.1;1.24;-0.05;0.0;0.0;0.0;0.0;6.0;3.0;-3.0;-20.0;0.19;0.45;-10.65;0.59;0.33;0.93
1753881463.927478;0.0;0.0;0.0;-2.1;1.24;-0.05;0.0;0.0;0.0;0.0;6.0;3.0;-3.0;-20.0;0.19;0.45;-10.64;0.46;0.35;0.83
1753881463.932478;0.0;0.0;0.0;-2.1;1.24;-0.05;0.0;0.0;0.0;0.0;6.0;3.0;-3.0;-20.0;0.2;0.44;-10.64;0.56;0.34;0.72
1753881463.937478;0.0;0.0;0.0;-2.1;1.24;-0.05;0.0;0.0;0.0;0.0;6.0;3.0;-3.0;-20.0;0.18;0.45;-10.62;0.52;0.37;0.83
1753881463.942478;0.0;0.0;0.0;-2.1;1.24;-0.05;0.0;0.0;0.0;0.0;6.0;3.0;-3.0;-20.0;0.21;0.44;-10.62;0.44;0.24;0.71
1753881463.947478;0.0;0.0;0.0;-2.1;1.24;-0.05;0.0;0.0;0.0;0.0;6.0;3.0;-3.0;-20.0;0.18;0.45;-10.66;0.53;0.46;0.78
1753881463.952479;0.0;0.0;0.0;-2.1;1.24;-0.05;0.0;0.0;0.0;0.0;6.0;3.0;-3.0;-20.0;0.19;0.45;-10.65;0.53;0.4;0.77
1753881463.957479;0.0;0.0;0.0;-2.1;1.24;-0.05;0.0;0.0;0.0;0.0;6.0;3.0;-3.0;-20.0;0.18;0.45;-10.65;0.51;0.48;0.9
1753881463.962479;0.0;0.0;0.0;-2.1;1.24;-0.05;0.0;0.0;0.0;0.0;6.0;3.0;-3.0;-20.0;0.2;0.45;-10.67;0.52;0.27;0.75
1753881463.967479;0.0;0.0;0.0;-2.1;1.24;-0.05;0.0;0.0;0.0;0.0;6.0;3.0;-3.0;-20.0;0.19;0.45;-10.67;0.53;0.22;0.76
1753881463.972479;0.0;0.0;0.0;-2.1;1.24;-0.05;0.0;0.0;0.0;0.0;6.0;3.0;-3.0;-20.0;0.18;0.46;-10.65;0.6;0.29;0.84
1753881463.977479;0.0;0.0;0.0;-2.1;1.24;-0.05;0.0;0.0;0.0;0.0;6.0;3.0;-3.0;-20.0;0.19;0.44;-10.66;0.58;0.49;0.77
1753881463.982479;0.0;0.0;0.0;-2.1;1.24;-0.05;0.0;0.0;0.0;0.0;6.0;3.0;-3.0;-20.0;0.19;0.44;-10.66;0.52;0.44;0.89
1753881463.987478;0.0;0.0;0.0;-2.1;1.24;-0.05;0.0;0.0;0.0;0.0;6.0;3.0;-3.0;-20.0;0.18;0.45;-10.67;0.51;0.42;0.78
1753881463.992478;0.0;0.0;0.0;-2.1;1.24;-0.05;0.0;0.0;0.0;0.0;6.9;3.0;-3.2;-20.0;0.18;0.44;-10.68;0.58;0.34;0.7
1753881463.997478;0.0;0.0;0.0;-2.1;1.24;-0.05;0.0;0.0;0.0;0.0;7.7;3.0;-3.1;-20.0;0.17;0.45;-10.66;0.51;0.37;0.84
1753881464.002478;0.0;0.0;0.0;-2.1;1.24;-0.05;0.0;0.0;0.0;0.0;2.6;3.0;-3.0;-20.1;0.18;0.45;-10.68;0.58;0.42;0.86
1753881464.007478;0.0;0.0;0.0;-2.1;1.24;-0.05;0.0;0.0;0.0;0.0;0.6;3.0;-2.7;-20.4;0.18;0.45;-10.69;0.62;0.46;0.79
1753881464.012478;0.0;0.0;0.0;-2.1;1.24;-0.05;0.0;0.0;0.0;0.0;-1.3;3.0;-2.5;-20.3;0.18;0.45;-10.67;0.62;0.35;0.71
1753881464.017479;0.0;0.0;0.0;-2.1;1.24;-0.05;0.0;0.0;0.0;0.0;-5.9;3.0;-2.1;-20.4;0.18;0.46;-10.68;0.53;0.49;0.87
1753881464.022479;0.0;0.0;0.0;-2.1;1.24;-0.05;0.0;0.0;0.0;0.0;-1.1;3.0;-2.5;-20.5;0.18;0.44;-10.66;0.56;0.61;0.74
1753881464.027479;0.0;0.0;0.0;-2.1;1.24;-0.05;0.0;0.0;0.0;0.0;-3.3;3.0;-2.4;-20.5;0.18;0.43;-10.68;0.45;0.33;1.03
1753881464.032479;0.0;0.0;0.0;-2.1;1.24;-0.05;0.0;0.0;0.0;0.0;-6.9;3.0;-2.5;-20.3;0.17;0.44;-10.68;0.55;0.34;0.85
1753881464.037479;0.0;0.0;0.0;-2.1;1.24;-0.05;0.0;0.0;0.0;0.0;-9.9;3.0;-2.2;-20.6;0.2;0.44;-10.69;0.56;0.44;0.87
1753881464.042479;0.0;0.0;0.0;-2.1;1.24;-0.05;0.0;0.0;0.0;0.0;-5.2;3.0;-2.9;-20.8;0.17;0.45;-10.67;0.42;0.4;0.91
1753881464.04748;0.0;0.0;0.0;-2.1;1.24;-0.05;0.0;0.0;0.0;0.0;-16.3;3.0;-2.5;-20.7;0.18;0.43;-10.68;0.43;0.47;0.83
1753881464.05248;0.0;0.0;0.0;-2.1;1.24;-0.05;0.0;0.0;0.0;0.0;-6.1;3.0;-2.1;-21.0;0.18;0.45;-10.66;0.47;0.54;0.87
1753881464.05748;0.0;0.0;0.0;-2.1;1.24;-0.05;0.0;0.0;0.0;0.0;-11.0;3.0;-2.1;-21.0;0.16;0.44;-10.67;0.71;0.41;0.97
1753881464.06248;0.0;0.0;0.0;-2.1;1.24;-0.05;0.0;0.0;0.0;0.0;-6.0;3.0;-2.3;-21.0;0.18;0.44;-10.69;0.63;0.65;0.98
1753881464.06748;0.0;0.0;0.0;-2.1;1.24;-0.05;0.0;0.0;0.0;0.0;-9.7;3.0;-1.8;-21.2;0.18;0.44;-10.7;0.42;0.47;0.97
1753881464.072478;0.0;0.0;0.0;-2.1;1.24;-0.05;0.0;0.0;0.0;0.0;-11.0;3.0;-2.0;-21.0;0.18;0.43;-10.68;0.54;0.53;0.97
1753881464.077478;0.0;0.0;0.0;-2.1;1.24;-0.05;0.0;0.0;0.0;0.0;-11.0;3.0;-2.0;-21.0;0.18;0.44;-10.67;0.56;0.38;0.94
1753881464.082478;0.0;0.0;0.0;-2.1;1.24;-0.05;0.0;0.0;0.0;0.0;-11.0;3.0;-2.0;-21.0;0.18;0.43;-10.67;0.51;0.54;0.82
1753881464.087478;0.0;0.0;0.0;-2.1;1.24;-0.05;0.0;0.0;0.0;0.0;-11.0;3.0;-2.0;-21.0;0.19;0.43;-10.66;0.52;0.33;0.9
1753881464.092478;0.0;0.0;0.0;-2.1;1.24;-0.05;0.0;0.0;0.0;0.0;-11.0;3.0;-2.0;-21.0;0.19;0.43;-10.66;0.61;0.48;0.85
1753881464.097478;0.0;0.0;0.0;-2.1;1.24;-0.05;0.0;0.0;0.0;0.0;-11.0;3.0;-2.0;-21.0;0.2;0.44;-10.66;0.62;0.36;0.91
1753881464.102478;0.0;0.0;0.0;-2.1;1.24;-0.05;0.0;0.0;0.0;0.0;-11.0;3.0;-2.0;-21.0;0.2;0.43;-10.66;0.55;0.37;0.85
1753881464.107478;0.0;0.0;0.0;-2.1;1.24;-0.05;0.0;0.0;0.0;0.0;-11.0;3.0;-2.0;-21.0;0.2;0.44;-10.66;0.5;0.44;1.01
1753881464.112478;0.0;0.0;0.0;-2.1;1.24;-0.05;0.0;0.0;0.0;0.0;-11.0;3.0;-2.0;-21.0;0.2;0.44;-10.65;0.58;0.41;0.86
1753881464.117478;0.0;0.0;0.0;-2.1;1.24;-0.05;0.0;0.0;0.0;0.0;-11.0;3.0;-2.0;-21.0;0.2;0.44;-10.65;0.56;0.31;0.91
1753881464.122478;0.0;0.0;0.0;-2.1;1.24;-0.05;0.0;0.0;0.0;0.0;-11.0;3.0;-2.0;-21.0;0.2;0.44;-10.64;0.58;0.51;0.9
1753881464.127478;0.0;0.0;0.0;-2.1;1.24;-0.05;0.0;0.0;0.0;0.0;-11.0;3.0;-2.0;-21.0;0.2;0.44;-10.64;0.75;0.54;1.06
1753881464.132478;0.0;0.0;0.0;-2.1;1.24;-0.05;0.0;0.0;0.0;0.0;-11.0;3.0;-2.0;-21.0;0.2;0.44;-10.64;0.74;0.42;0.87
1753881464.137478;0.0;0.0;0.0;-2.1;1.24;-0.05;0.0;0.0;0.0;0.0;-11.0;3.0;-2.0;-21.0;0.2;0.44;-10.65;0.6;0.37;0.86
1753881464.142478;0.0;0.0;0.0;-2.1;1.24;-0.05;0.0;0.0;0.0;0.0;-11.0;3.0;-2.0;-21.0;0.2;0.44;-10.65;0.59;0.38;0.85
1753881464.147478;0.0;0.0;0.0;-2.1;1.24;-0.05;0.0;0.0;0.0;0.0;-11.0;3.0;-2.0;-21.0;0.19;0.44;-10.66;0.58;0.57;0.9
1753881464.152478;0.0;0.0;0.0;-2.1;1.24;-0.05;0.0;0.0;0.0;0.0;-11.0;3.0;-2.0;-21.0;0.19;0.44;-10.65;0.57;0.41;0.9
1753881464.157478;0.0;0.0;0.0;-2.1;1.24;-0.05;0.0;0.0;0.0;0.0;-11.0;3.0;-2.0;-21.0;0.19;0.44;-10.65;0.59;0.45;0.89
1753881464.162478;0.0;0.0;0.0;-2.1;1.24;-0.05;0.0;0.0;0.0;0.0;-11.0;3.0;-2.0;-21.0;0.18;0.44;-10.65;0.64;0.54;0.95
1753881464.167478;0.0;0.0;0.0;-2.1;1.24;-0.05;0.0;0.0;0.0;0.0;-11.0;3.0;-2.0;-21.0;0.19;0.44;-10.66;0.62;0.38;0.84
1753881464.172478;0.0;0.0;0.0;-2.1;1.24;-0.05;0.0;0.0;0.0;0.0;-11.0;3.0;-2.0;-21.0;0.19;0.44;-10.67;0.57;0.41;0.96
1753881464.177478;0.0;0.0;0.0;-2.1;1.24;-0.05;0.0;0.0;0.0;0.0;-11.0;3.0;-2.0;-21.0;0.19;0.44;-10.68;0.58;0.28;1.15
1753881464.182478;0.0;0.0;0.0;-2.1;1.24;-0.05;0.0;0.0;0.0;0.0;-11.0;3.0;-2.0;-21.0;0.19;0.44;-10.68;0.58;0.38;0.99
1753881464.187478;0.0;0.0;0.0;-2.1;1.24;-0.05;0.0;0.0;0.0;0.0;-11.0;3.0;-2.0;-21.0;0.19;0.44;-10.68;0.55;0.51;0.95
1753881464.192478;0.0;0.0;0.0;-2.1;1.24;-0.05;0.0;0.0;0.0;0.0;-12.5;4.0;-2.0;-21.0;0.19;0.44;-10.68;0.59;0.66;1.07
1753881464.197478;0.0;0.0;0.0;-2.1;1.24;-0.05;0.0;0.0;0.0;0.0;-7.5;4.5;-2.0;-21.0;0.19;0.44;-10.68;0.59;0.45;0.99
1753881464.202478;0.0;0.0;0.0;-2.1;1.24;-0.05;0.0;0.0;0.0;0.0;-5.4;5.2;-2.0;-21.0;0.19;0.44;-10.68;0.62;0.5;1.06
1753881464.207478;0.0;0.0;0.0;-2.1;1.24;-0.05;0.0;0.0;0.0;0.0;-4.8;4.7;-2.0;-21.0;0.2;0.44;-10.69;0.48;0.29;0.79
1753881464.212479;0.0;0.0;0.0;-2.1;1.24;-0.05;0.0;0.0;0.0;0.0;1.3;6.1;-2.0;-21.0;0.18;0.45;-10.67;0.58;0.48;0.9
1753881464.217479;0.0;0.0;0.0;-2.1;1.25;-0.05;0.0;0.0;0.0;0.0;-0.8;3.7;-2.0;-21.0;0.2;0.45;-10.7;0.64;0.53;1.17
1753881464.222479;0.0;0.0;0.0;-2.1;1.25;-0.05;0.0;0.0;0.0;0.0;-4.9;4.1;-2.0;-21.0;0.19;0.45;-10.65;0.56;0.44;0.94
1753881464.227479;0.0;0.0;0.0;-2.1;1.24;-0.05;0.0;0.0;0.0;0.0;1.9;4.7;-2.0;-21.0;0.2;0.45;-10.67;0.46;0.25;0.85
1753881464.232479;0.0;0.0;0.0;-2.1;1.24;-0.05;0.0;0.0;0.0;0.0;-6.4;6.3;-2.0;-21.0;0.19;0.45;-10.68;0.43;0.4;0.9
1753881464.237479;0.0;0.0;0.0;-2.1;1.25;-0.05;0.0;0.0;0.0;0.0;-2.6;5.6;-2.0;-21.0;0.18;0.45;-10.69;0.55;0.4;0.85
1753881464.242479;0.0;0.0;0.0;-2.1;1.25;-0.05;0.0;0.0;0.0;0.0;6.5;5.1;-2.0;-21.0;0.19;0.44;-10.69;0.5;0.55;0.97
1753881464.24748;0.0;0.0;0.0;-2.1;1.25;-0.05;0.0;0.0;0.0;0.0;4.2;7.2;-2.0;-21.0;0.18;0.45;-10.69;0.64;0.36;0.99
1753881464.25248;0.0;0.0;0.0;-2.1;1.25;-0.05;0.0;0.0;0.0;0.0;13.0;6.7;-2.0;-21.0;0.18;0.45;-10.66;0.5;0.39;0.82
1753881464.257478;0.0;0.0;0.0;-2.1;1.25;-0.05;0.0;0.0;0.0;0.0;7.0;7.0;-2.0;-21.0;0.19;0.45;-10.67;0.52;0.39;0.99
1753881464.262478;0.0;0.0;0.0;-2.1;1.25;-0.05;0.0;0.0;0.0;0.0;7.0;7.0;-2.0;-21.0;0.19;0.45;-10.68;0.57;0.38;0.99
1753881464.267478;0.0;0.0;0.0;-2.1;1.25;-0.05;0.0;0.0;0.0;0.0;7.0;7.0;-2.0;-21.0;0.19;0.45;-10.67;0.53;0.35;0.99
1753881464.272478;0.0;0.0;0.0;-2.1;1.25;-0.05;0.0;0.0;0.0;0.0;7.0;7.0;-2.0;-21.0;0.19;0.45;-10.68;0.47;0.45;0.9
1753881464.277478;0.0;0.0;0.0;-2.1;1.25;-0.05;0.0;0.0;0.0;0.0;7.0;7.0;-2.0;-21.0;0.19;0.46;-10.68;0.56;0.43;0.93
1753881464.282478;0.0;0.0;0.0;-2.1;1.25;-0.05;0.0;0.0;0.0;0.0;7.0;7.0;-2.0;-21.0;0.19;0.46;-10.68;0.55;0.41;0.78
1753881464.287478;0.0;0.0;0.0;-2.1;1.25;-0.05;0.0;0.0;0.0;0.0;7.0;7.0;-2.0;-21.0;0.2;0.46;-10.67;0.61;0.43;0.83
1753881464.292478;0.0;0.0;0.0;-2.1;1.25;-0.05;0.0;0.0;0.0;0.0;7.0;7.0;-2.0;-21.0;0.19;0.46;-10.67;0.52;0.43;0.76
1753881464.297478;0.0;0.0;0.0;-2.1;1.25;-0.05;0.0;0.0;0.0;0.0;7.0;7.0;-2.0;-21.0;0.19;0.47;-10.66;0.61;0.37;0.83
1753881464.302478;0.0;0.0;0.0;-2.1;1.25;-0.05;0.0;0.0;0.0;0.0;7.0;7.0;-2.0;-21.0;0.2;0.46;-10.66;0.67;0.45;0.99
1753881464.307478;0.0;0.0;0.0;-2.1;1.25;-0.05;0.0;0.0;0.0;0.0;7.0;7.0;-2.0;-21.0;0.2;0.46;-10.67;0.63;0.5;0.94
1753881464.312478;0.0;0.0;0.0;-2.1;1.25;-0.05;0.0;0.0;0.0;0.0;7.0;7.0;-2.0;-21.0;0.19;0.46;-10.66;0.64;0.32;0.9
1753881464.317478;0.0;0.0;0.0;-2.1;1.25;-0.05;0.0;0.0;0.0;0.0;7.0;7.0;-2.0;-21.0;0.19;0.46;-10.65;0.41;0.4;0.9
1753881464.322478;0.0;0.0;0.0;-2.1;1.25;-0.05;0.0;0.0;0.0;0.0;7.0;7.0;-2.0;-21.0;0.2;0.46;-10.66;0.47;0.45;0.8
1753881464.327478;0.0;0.0;0.0;-2.1;1.25;-0.05;0.0;0.0;0.0;0.0;7.0;7.0;-2.0;-21.0;0.2;0.46;-10.66;0.51;0.45;0.7
1753881464.332478;0.0;0.0;0.0;-2.1;1.25;-0.05;0.0;0.0;0.0;0.0;7.0;7.0;-2.0;-21.0;0.21;0.47;-10.66;0.52;0.59;0.48
1753881464.337478;0.0;0.0;0.0;-2.1;1.25;-0.05;0.0;0.0;0.0;0.0;7.0;7.0;-2.0;-21.0;0.26;0.48;-10.67;0.56;0.3;0.99
1753881464.342478;0.0;0.0;0.0;-2.1;1.25;-0.05;0.0;0.0;0.0;0.0;7.0;7.0;-2.0;-21.0;0.27;0.47;-10.68;0.54;0.45;0.36
1753881464.347478;0.0;0.0;0.0;-2.1;1.25;-0.05;0.0;0.0;0.0;0.0;7.0;7.0;-2.0;-21.0;0.28;0.46;-10.67;0.64;0.44;0.51
1753881464.352478;0.0;0.0;0.0;-2.1;1.25;-0.05;0.0;0.0;0.0;0.0;7.0;7.0;-2.0;-21.0;0.32;0.46;-10.66;0.57;0.39;1.15
1753881464.357478;-0.0;0.0;0.0;-2.1;1.28;-0.05;-40.7;46.5;136.9;42.2;-3.9;19.5;-16.0;-45.5;0.29;0.47;-10.66;0.56;0.29;0.65
1753881464.362478;0.0;0.0;0.0;-2.1;1.26;-0.05;1.1;209.6;-67.6;-113.0;20.8;6.4;-11.5;-27.9;0.26;0.45;-10.64;0.62;0.38;0.9
1753881464.367478;0.0;0.0;0.0;-2.1;1.28;-0.05;161.8;38.0;185.2;61.6;16.8;4.1;9.5;-34.8;0.26;0.45;-10.67;0.54;0.43;0.91
1753881464.372478;0.0;0.0;0.0;-2.1;1.34;-0.05;164.4;3.4;40.7;296.6;45.4;20.8;-3.7;-20.8;0.26;0.46;-10.66;0.5;0.44;0.87
1753881464.377478;0.0;0.0;0.0;-2.1;1.28;-0.05;128.3;52.2;277.6;93.3;76.9;14.0;23.0;-11.2;0.29;0.43;-10.67;0.57;0.37;1.21
1753881464.382479;0.0;0.0;0.0;-2.1;1.29;-0.05;5.1;170.5;330.0;87.7;72.4;17.2;37.8;-12.0;0.33;0.46;-10.66;0.51;0.44;0.73
1753881464.387479;0.0;0.0;0.0;-2.1;1.31;-0.05;49.1;250.7;259.5;163.1;77.3;11.8;18.9;-11.7;0.33;0.44;-10.65;0.59;0.41;1.07
1753881464.392479;0.0;0.0;0.0;-2.1;1.29;-0.05;49.5;99.1;372.8;123.5;61.6;25.7;48.5;2.3;0.36;0.46;-10.68;0.45;0.32;0.76
1753881464.397479;0.0;0.0;0.0;-2.1;1.37;-0.05;162.1;7.5;192.8;171.9;56.8;27.2;37.1;-0.9;0.31;0.43;-10.66;0.63;0.48;0.94
1753881464.402479;0.0;0.0;0.0;-2.1;1.35;-0.05;201.4;171.0;361.1;47.2;74.3;38.3;74.9;-3.1;0.33;0.46;-10.66;0.58;0.42;0.65
1753881464.407479;0.0;0.0;0.0;-2.1;1.33;-0.05;261.0;304.0;153.6;354.0;75.7;15.9;34.1;6.1;0.31;0.45;-10.67;0.55;0.42;0.96
1753881464.41248;0.0;0.0;0.0;-2.1;1.35;-0.05;201.0;223.1;415.8;304.5;92.9;29.8;58.8;9.4;0.4;0.42;-10.66;0.54;0.46;0.8
1753881464.41748;0.0;0.0;0.0;-2.1;1.36;-0.05;217.5;212.9;441.7;373.6;120.2;27.0;89.0;13.0;0.47;0.43;-10.67;0.46;0.38;1.02
1753881464.42248;0.0;0.0;0.0;-2.1;1.32;-0.05;231.7;486.2;399.2;317.2;131.4;22.1;97.0;27.7;0.31;0.44;-10.65;0.46;0.29;0.72
1753881464.42748;0.0;0.0;0.0;-2.1;1.41;-0.05;306.2;331.1;494.4;518.8;92.3;43.4;59.2;17.0;0.27;0.44;-10.67;0.66;0.39;0.66
1753881464.43248;0.0;0.0;0.0;-2.1;1.39;-0.05;354.4;362.3;407.8;613.3;136.8;29.8;80.8;13.5;0.47;0.41;-10.66;0.54;0.38;0.42
1753881464.437478;0.0;0.0;0.0;-2.1;1.39;-0.05;290.0;400.0;393.0;446.0;122.0;38.0;83.0;20.0;0.38;0.42;-10.66;0.57;0.45;0.69
1753881464.442478;0.0;0.0;0.0;-2.1;1.39;-0.05;290.0;400.0;393.0;446.0;122.0;38.0;83.0;20.0;0.37;0.38;-10.67;0.6;0.45;0.34
1753881464.447478;0.0;0.0;0.0;-2.1;1.39;-0.05;290.0;400.0;393.0;446.0;122.0;38.0;83.0;20.0;0.39;0.37;-10.67;0.5;0.24;1.03
1753881464.452478;0.0;0.0;0.0;-2.1;1.39;-0.05;290.0;400.0;393.0;446.0;122.0;38.0;83.0;20.0;0.41;0.35;-10.65;0.4;0.28;1.12
1753881464.457478;0.0;0.0;0.0;-2.1;1.39;-0.05;290.0;400.0;393.0;446.0;122.0;38.0;83.0;20.0;0.41;0.31;-10.67;0.5;0.56;0.78
1753881464.462478;0.0;0.0;0.0;-2.1;1.39;-0.05;290.0;400.0;393.0;446.0;122.0;38.0;83.0;20.0;0.42;0.31;-10.68;0.66;0.38;1.25
1753881464.467478;0.0;0.0;0.0;-2.1;1.39;-0.05;290.0;400.0;393.0;446.0;122.0;38.0;83.0;20.0;0.44;0.3;-10.66;0.52;0.26;1.35
1753881464.472478;0.0;0.0;0.0;-2.1;1.39;-0.05;290.0;400.0;393.0;446.0;122.0;38.0;83.0;20.0;0.45;0.28;-10.66;0.46;0.36;0.99
1753881464.477478;0.0;0.0;0.0;-2.1;1.39;-0.05;290.0;400.0;393.0;446.0;122.0;38.0;83.0;20.0;0.46;0.29;-10.68;0.54;0.32;1.37
1753881464.482478;0.0;0.0;0.0;-2.1;1.39;-0.05;290.0;400.0;393.0;446.0;122.0;38.0;83.0;20.0;0.47;0.3;-10.68;0.37;0.32;1.55
1753881464.487478;0.0;0.0;0.0;-2.1;1.39;-0.05;290.0;400.0;393.0;446.0;122.0;38.0;83.0;20.0;0.49;0.31;-10.68;0.45;0.35;1.27
1753881464.492478;0.0;0.0;0.0;-2.1;1.39;-0.05;290.0;400.0;393.0;446.0;122.0;38.0;83.0;20.0;0.48;0.35;-10.68;0.5;0.34;1.34
1753881464.497478;0.0;0.0;0.0;-2.1;1.39;-0.05;290.0;400.0;393.0;446.0;122.0;38.0;83.0;20.0;0.49;0.4;-10.68;0.43;0.32;1.54
1753881464.502478;0.0;0.0;0.0;-2.1;1.39;-0.05;290.0;400.0;393.0;446.0;122.0;38.0;83.0;20.0;0.48;0.39;-10.67;0.51;0.45;1.51
1753881464.507478;0.0;0.0;0.0;-2.1;1.39;-0.05;290.0;400.0;393.0;446.0;122.0;38.0;83.0;20.0;0.49;0.39;-10.68;0.54;0.45;1.25
1753881464.512478;0.0;0.0;0.0;-2.1;1.39;-0.05;290.0;400.0;393.0;446.0;122.0;38.0;83.0;20.0;0.5;0.4;-10.67;0.57;0.53;1.64
1753881464.517478;0.0;0.0;0.0;-2.1;1.39;-0.05;290.0;400.0;393.0;446.0;122.0;38.0;83.0;20.0;0.52;0.38;-10.67;0.48;0.46;2.23
1753881464.522478;0.0;0.0;0.0;-2.1;1.39;-0.05;290.0;400.0;393.0;446.0;122.0;38.0;83.0;20.0;0.54;0.35;-10.68;0.54;0.41;2.43
1753881464.527478;0.0;0.0;0.0;-2.1;1.49;-0.05;425.9;371.3;355.9;466.6;125.8;44.8;137.1;39.6;0.58;0.35;-10.68;0.51;0.5;2.93
1753881464.532478;0.0;0.0;0.0;-2.0;1.61;-0.04;493.0;446.0;720.0;830.0;122.0;41.0;164.0;88.0;0.61;0.29;-10.67;0.61;0.6;2.96
1753881464.537478;0.0;0.0;0.0;-2.0;1.61;-0.04;493.0;446.0;720.0;830.0;122.0;41.0;164.0;88.0;0.68;0.28;-10.69;0.76;0.35;3.05
1753881464.542478;0.0;0.0;0.0;-2.0;1.51;-0.03;312.8;459.5;681.0;607.0;122.0;40.1;162.9;124.3;0.33;0.1;-10.68;0.48;0.03;2.49
1753881464.547478;0.0;0.0;0.0;-2.1;1.46;-0.05;439.7;451.7;640.5;721.6;122.0;39.6;176.9;40.8;0.96;0.46;-10.69;0.55;0.27;2.58
1753881464.552478;0.0;0.0;0.0;-2.1;1.68;-0.04;565.7;443.5;780.8;918.0;122.0;40.2;164.2;35.0;0.88;0.42;-10.86;0.86;0.15;4.69
1753881464.557478;0.0;0.0;0.0;-2.0;1.8;-0.04;594.5;462.7;928.5;672.8;122.0;41.0;155.1;75.5;0.78;0.48;-10.65;0.6;0.38;3.36
1753881464.562478;0.0;0.0;0.0;-2.0;1.61;-0.04;486.7;447.3;663.3;775.2;122.0;41.0;202.5;89.5;0.67;0.48;-10.73;0.57;0.36;3.14
1753881464.567479;0.0;0.0;0.0;-2.0;1.54;-0.04;392.9;464.3;778.6;801.3;122.0;42.6;126.0;92.0;0.71;0.91;-10.68;0.48;0.42;5.13
1753881464.572479;0.0;0.0;0.0;-2.0;1.5;-0.05;484.0;409.5;660.9;821.1;122.0;41.3;127.0;131.0;0.67;1.02;-10.84;0.51;0.06;2.89
1753881464.577479;0.0;0.0;0.0;-2.1;1.56;-0.04;415.8;446.6;605.6;1046.8;122.0;41.7;118.3;88.7;1.24;0.88;-10.76;0.76;0.03;4.74
1753881464.582479;0.0;0.0;0.0;-2.1;1.62;-0.03;375.2;438.1;745.3;781.5;122.0;39.9;135.0;101.3;0.71;0.6;-10.8;-0.02;0.34;3.33
1753881464.587479;0.0;0.0;0.0;-2.1;1.66;-0.05;489.8;473.3;741.3;749.0;122.0;39.3;190.2;80.2;1.18;1.39;-10.77;0.01;0.09;3.9
1753881464.592479;0.0;0.0;0.0;-2.0;1.64;-0.04;486.8;449.5;759.0;918.8;122.0;43.2;89.2;97.0;0.78;1.57;-10.86;-0.1;0.41;5.36
1753881464.597479;0.0;0.0;0.0;-2.0;1.56;-0.04;518.5;439.2;551.8;748.1;122.0;42.7;127.2;122.8;0.95;1.46;-10.83;0.31;0.11;4.81
1753881464.60248;0.0;0.0;0.0;-2.1;1.58;-0.04;478.3;433.1;649.1;876.6;122.0;40.7;134.7;109.2;1.46;0.94;-10.84;0.1;0.19;4.31
1753881464.60748;0.0;0.0;0.0;-2.0;1.58;-0.04;570.3;435.5;838.4;493.4;122.0;39.9;133.6;70.0;1.4;1.78;-10.8;0.35;0.46;4.29
1753881464.61248;0.0;0.0;0.0;-2.0;1.52;-0.04;390.0;425.5;730.9;635.8;122.0;40.0;172.8;68.6;1.29;2.01;-10.96;-0.2;0.24;6.59
1753881464.61748;0.0;0.0;0.0;-2.0;1.58;-0.05;564.9;463.2;683.2;628.0;122.0;41.6;155.3;100.1;1.52;1.16;-10.88;-0.37;0.21;5.72
1753881464.62248;0.0;0.0;0.0;-2.0;1.66;-0.04;608.8;473.4;603.3;1082.9;122.0;40.8;147.2;65.6;1.44;1.57;-10.84;-0.14;0.13;6.5
1753881464.62748;0.0;0.0;0.0;-2.1;1.55;-0.05;392.4;448.8;652.7;867.4;122.0;40.8;154.5;85.0;1.57;1.27;-11.0;-0.29;0.17;4.86
1753881464.632478;0.0;0.0;0.0;-2.0;1.61;-0.04;493.0;446.0;720.0;830.0;122.0;41.0;164.0;88.0;1.46;1.88;-10.94;-0.15;0.04;5.48
1753881464.637478;0.0;0.0;0.0;-2.0;1.61;-0.04;493.0;446.0;720.0;830.0;122.0;41.0;164.0;88.0;1.7;1.87;-10.8;0.32;-0.93;3.39
1753881464.642478;0.0;0.0;0.0;-2.0;1.61;-0.04;493.0;446.0;720.0;830.0;122.0;41.0;164.0;88.0;1.69;2.03;-10.7;1.24;-0.41;0.5
1753881464.647478;0.0;0.0;0.0;-2.0;1.61;-0.04;493.0;446.0;720.0;830.0;122.0;41.0;164.0;88.0;1.21;2.11;-10.8;0.57;0.61;1.45
1753881464.652478;0.0;0.0;0.0;-2.0;1.61;-0.04;493.0;446.0;720.0;830.0;122.0;41.0;164.0;88.0;1.55;2.03;-10.76;-0.33;-0.85;3.74
1753881464.657478;0.0;0.0;0.0;-2.0;1.61;-0.04;493.0;446.0;720.0;830.0;122.0;41.0;164.0;88.0;1.64;1.88;-10.85;0.45;-0.11;-2.92
1753881464.662478;0.0;0.0;0.0;-2.0;1.61;-0.04;493.0;446.0;720.0;830.0;122.0;41.0;164.0;88.0;1.08;1.86;-10.86;0.74;0.03;-2.51
1753881464.667478;0.0;0.0;0.0;-2.0;1.61;-0.04;493.0;446.0;720.0;830.0;122.0;41.0;164.0;88.0;1.16;1.72;-10.57;0.51;-0.61;0.11
1753881464.672478;0.0;0.0;0.0;-2.0;1.61;-0.04;493.0;446.0;720.0;830.0;122.0;41.0;164.0;88.0;1.23;1.49;-10.37;1.06;1.15;-3.78
1753881464.677478;0.0;0.0;0.0;-2.0;1.61;-0.04;493.0;446.0;720.0;830.0;122.0;41.0;164.0;88.0;0.89;1.42;-10.54;0.99;1.25;-3.39
1753881464.682478;0.0;0.0;0.0;-2.0;1.61;-0.04;493.0;446.0;720.0;830.0;122.0;41.0;164.0;88.0;0.92;1.14;-10.82;0.16;-0.67;-0.54
1753881464.687478;0.0;0.0;0.0;-2.0;1.61;-0.04;493.0;446.0;720.0;830.0;122.0;41.0;164.0;88.0;1.14;0.77;-10.67;0.91;-0.55;-3.35
1753881464.692478;0.0;0.0;0.0;-2.0;1.61;-0.04;493.0;446.0;720.0;830.0;122.0;41.0;164.0;88.0;0.77;0.54;-10.61;1.27;1.1;-3.19
1753881464.697478;0.0;0.0;0.0;-2.0;1.61;-0.04;493.0;446.0;720.0;830.0;122.0;41.0;164.0;88.0;0.76;0.32;-10.68;0.83;-0.04;0.69
1753881464.702478;0.0;0.0;0.0;-2.0;1.61;-0.04;493.0;446.0;720.0;830.0;122.0;41.0;164.0;88.0;1.1;0.0;-10.67;1.27;-0.22;-1.93
1753881464.707478;0.0;0.0;-0.0;-1.9;1.72;-0.12;465.1;607.0;1227.6;754.4;117.6;49.6;113.4;94.9;0.91;0.2;-10.95;1.19;-0.53;-0.96
1753881464.712478;0.0;0.0;-0.0;-2.1;1.67;-0.04;416.5;318.8;441.3;691.3;109.1;43.3;159.7;118.0;0.74;0.35;-10.63;1.32;-0.31;-3.28
1753881464.717478;0.0;0.0;0.0;-1.9;1.67;-0.05;1290.0;1278.6;910.7;1434.6;97.6;48.6;201.8;69.3;0.75;0.18;-10.54;1.3;0.78;-3.8
1753881464.722478;0.0;0.0;0.0;-2.1;1.45;0.01;709.3;1142.8;1167.2;779.7;107.0;48.9;134.5;77.5;1.18;-1.05;-10.52;0.81;-0.16;-1.65
1753881464.727478;0.0;0.0;-0.0;-2.0;1.81;-0.09;1792.3;387.5;750.1;851.1;91.8;40.2;176.4;115.2;1.05;-0.42;-10.68;1.15;-0.75;-3.59
1753881464.732478;0.0;0.0;0.0;-1.8;1.86;-0.08;784.7;225.8;656.1;1247.9;47.2;48.1;125.2;58.2;1.37;0.43;-10.82;1.88;-0.54;2.05
1753881464.737479;0.0;0.0;-0.0;-2.0;1.61;0.04;806.7;1222.2;1616.8;1538.8;97.1;49.6;128.4;106.8;1.25;1.17;-10.61;0.93;-0.44;-1.34
1753881464.742479;0.0;0.0;-0.0;-2.0;1.73;0.03;1354.5;234.9;876.3;1066.1;115.3;47.6;110.4;25.4;0.98;-0.21;-10.56;1.54;-0.0;-3.61
1753881464.747479;0.0;0.0;-0.0;-1.9;1.8;0.07;426.6;1123.5;1399.4;1286.8;70.6;52.7;117.4;69.6;-0.18;0.22;-10.8;0.94;-0.16;-3.12
1753881464.752479;0.0;0.0;-0.0;-1.8;2.28;0.02;1877.0;1752.5;1600.8;1363.0;82.0;49.0;119.9;68.7;0.37;0.3;-10.52;1.58;1.3;0.97
1753881464.757479;0.0;0.0;-0.0;-1.9;2.38;0.01;852.1;1201.7;1148.8;957.3;21.9;44.1;168.0;74.6;0.16;1.17;-10.69;1.71;0.98;-3.83
1753881464.762479;0.0;0.0;-0.0;-1.7;2.1;0.0;1919.3;490.5;1222.5;1035.5;29.7;47.9;150.9;12.9;0.74;0.32;-10.45;0.86;1.12;-3.71
1753881464.76748;0.0;0.0;-0.0;-1.9;2.35;0.01;869.8;678.9;1156.7;1978.7;79.5;51.0;108.4;71.8;0.39;-0.42;-10.7;1.02;1.04;-5.19
1753881464.77248;0.0;0.0;-0.0;-1.9;1.95;0.1;2209.3;1185.4;1273.4;1816.7;87.9;62.7;145.0;42.3;-0.31;0.25;-10.64;2.11;0.41;3.3
1753881464.77748;0.1;0.0;-0.0;-1.7;2.14;0.1;2017.7;746.0;791.7;2154.1;77.1;67.1;110.1;14.2;0.99;0.76;-10.42;1.14;0.6;-5.16
1753881464.78248;0.0;0.0;-0.0;-1.7;2.6;0.11;2725.0;1543.4;1730.4;1638.7;82.3;57.3;121.5;67.5;-0.47;0.39;-10.91;1.46;-0.14;-9.77
1753881464.78748;0.0;0.0;-0.0;-1.8;2.15;0.27;1475.1;1494.1;1673.5;2288.1;105.9;48.2;141.5;58.2;0.53;0.88;-10.39;0.91;1.54;-8.38
1753881464.79248;0.0;0.0;-0.0;-1.8;2.7;0.09;1852.2;1999.6;2461.1;1553.0;63.4;55.3;57.1;27.7;0.14;-0.23;-10.66;1.2;0.86;-1.37
1753881464.79748;0.1;0.0;-0.0;-1.9;2.52;0.09;1859.9;1145.0;1557.1;2605.0;65.9;56.6;66.2;23.2;0.46;0.64;-10.66;1.91;0.6;0.39
1753881464.80248;0.0;0.0;-0.0;-1.7;2.65;0.16;1953.8;1389.3;1906.9;1887.0;72.7;51.4;57.4;42.4;0.6;1.19;-10.59;1.44;1.53;-2.76
1753881464.80748;0.0;0.0;-0.0;-1.8;2.62;0.11;1764.9;1979.0;1875.4;2196.9;78.0;63.4;111.4;92.8;0.24;0.9;-10.73;0.32;1.48;-5.01
1753881464.81248;0.0;0.0;-0.0;-1.6;2.8;0.15;2042.1;2014.7;1381.2;2432.4;51.9;59.7;35.9;58.5;0.41;0.4;-10.86;1.6;1.07;-6.16
1753881464.81748;0.0;0.0;-0.0;-1.7;3.26;0.26;2177.2;1993.7;2241.9;1956.3;-18.8;62.7;70.3;46.5;-0.45;2.24;-10.55;1.29;1.52;1.25
1753881464.822481;0.0;0.0;-0.0;-1.8;2.49;0.28;2263.9;2242.4;2632.2;2955.4;46.6;56.1;81.6;31.6;-1.0;1.32;-10.47;1.58;1.46;-3.94
1753881464.827481;0.1;0.0;-0.0;-1.8;2.97;0.1;2853.0;2017.9;2171.4;2913.1;-6.4;62.4;103.8;19.0;0.09;0.43;-10.41;1.16;0.36;2.34
1753881464.832478;0.1;0.0;-0.0;-1.7;2.94;0.23;2453.0;2380.0;2150.0;2453.0;7.0;64.0;63.0;27.0;-0.04;0.93;-10.58;1.12;1.16;-3.98
1753881464.837478;0.1;0.0;-0.0;-1.7;2.94;0.23;2453.0;2380.0;2150.0;2453.0;7.0;64.0;63.0;27.0;0.05;1.15;-10.44;0.85;1.22;-2.82
1753881464.842478;0.1;0.0;-0.0;-1.7;2.94;0.23;2453.0;2380.0;2150.0;2453.0;7.0;64.0;63.0;27.0;0.11;1.29;-10.33;0.66;0.28;3.23
1753881464.847478;0.1;0.0;-0.0;-1.7;2.94;0.23;2453.0;2380.0;2150.0;2453.0;7.0;64.0;63.0;27.0;0.0;0.91;-10.52;1.06;0.76;-3.02
1753881464.852478;0.1;0.0;-0.0;-1.7;2.94;0.23;2453.0;2380.0;2150.0;2453.0;7.0;64.0;63.0;27.0;0.16;1.04;-10.59;1.12;0.78;-3.47
1753881464.857478;0.1;0.0;-0.0;-1.6;3.15;0.29;1908.1;2671.6;2753.2;3159.3;169.3;58.4;108.4;43.4;0.17;2.21;-10.49;0.57;1.2;-1.96
1753881464.862478;0.1;0.0;-0.0;-1.6;3.27;0.08;1948.1;2104.6;2330.6;1368.5;21.0;85.9;78.5;24.9;-0.04;1.1;-10.76;1.35;1.11;-1.02
1753881464.867478;0.0;0.0;-0.0;-1.9;3.02;0.01;2271.2;2485.4;2925.3;3369.8;-55.3;69.0;103.7;15.6;1.17;1.04;-10.43;1.77;0.59;-5.96
1753881464.872478;0.0;0.0;-0.0;-1.9;2.43;0.23;1123.7;2911.4;1915.8;2677.3;62.1;57.7;140.7;37.3;-0.2;1.51;-10.63;1.07;0.62;1.0
1753881464.877478;0.1;0.0;-0.0;-1.6;4.12;0.19;2515.1;2272.3;2663.5;3400.5;-40.7;41.6;104.5;39.0;-0.02;1.65;-10.42;0.48;-1.03;-1.97
1753881464.882479;0.1;0.0;-0.0;-1.7;3.03;0.11;3919.5;3427.1;1933.6;2593.7;33.0;54.5;-47.1;38.8;0.35;1.43;-10.61;1.57;1.37;-3.11
1753881464.887479;0.0;0.0;-0.0;-1.9;1.75;0.15;2692.9;2620.4;3358.2;2912.9;75.4;39.2;131.7;7.5;-0.06;0.77;-10.73;1.6;0.53;-6.25
1753881464.892479;0.1;0.0;-0.0;-1.8;2.38;0.22;2350.5;4337.8;2021.3;2990.6;-76.7;39.6;82.5;24.5;-0.92;1.16;-10.67;1.77;0.65;-1.88
1753881464.897479;0.1;0.0;-0.0;-1.8;2.87;0.08;1417.5;2172.5;2404.4;1952.1;-77.3;47.2;-12.0;19.0;-0.51;0.87;-10.51;0.77;0.92;-3.28
1753881464.902479;0.1;0.0;-0.0;-1.9;3.37;0.15;1782.8;3432.7;3004.0;2572.3;26.1;44.7;29.2;23.6;-0.33;1.3;-10.71;1.13;1.27;-0.27
1753881464.907479;0.0;0.0;-0.0;-1.9;3.06;0.4;2842.0;1515.0;1384.5;2503.7;54.7;48.4;28.9;47.6;-0.07;0.92;-10.65;1.19;0.77;0.74
1753881464.91248;0.1;0.0;-0.0;-1.7;2.83;0.3;1420.2;3153.6;3466.5;2560.1;-3.9;37.1;31.1;29.1;1.23;1.07;-10.45;1.45;0.57;-4.55
1753881464.91748;0.0;0.0;-0.0;-2.1;3.53;0.0;4252.1;1996.9;2068.7;2033.9;-0.7;58.8;55.2;73.2;0.24;-0.35;-10.37;1.39;0.44;-1.15
1753881464.92248;0.0;0.0;-0.0;-1.8;2.94;0.42;2873.3;1965.0;2160.7;1013.7;171.3;47.5;72.0;27.6;0.35;1.2;-10.49;0.64;1.16;-4.4
1753881464.92748;0.1;0.0;-0.0;-1.8;2.15;0.05;2276.6;1573.6;2309.6;2000.5;-62.1;48.5;10.9;57.7;0.63;0.52;-10.92;1.28;0.1;-3.32
1753881464.93248;0.1;0.0;-0.0;-2.1;3.95;0.17;3159.0;1122.6;2255.9;3316.8;10.3;46.5;30.9;51.9;0.01;1.14;-10.76;-0.11;1.04;1.49
1753881464.93748;0.1;0.0;-0.0;-1.7;2.99;0.72;1474.5;3379.6;2395.9;1535.6;113.7;61.8;81.1;-14.3;-0.86;0.25;-10.48;0.28;0.75;-2.95
1753881464.94248;0.1;0.0;-0.0;-1.9;1.92;0.12;2848.7;1937.3;1867.5;2877.4;99.8;33.4;61.2;-7.7;0.55;1.58;-10.64;0.63;1.19;-0.05
1753881464.94748;0.1;0.0;-0.0;-1.8;2.47;0.27;1924.3;2200.9;2095.7;3108.8;9.0;22.0;55.2;46.0;0.22;0.82;-10.94;1.04;0.44;-3.77
1753881464.95248;0.1;0.0;-0.0;-2.4;2.28;0.12;2720.3;1968.5;1358.1;1943.9;131.6;36.2;0.8;21.9;-0.35;0.06;-10.5;1.11;0.36;-3.34
1753881464.95748;0.0;0.0;-0.0;-2.1;3.39;0.23;3197.7;1193.6;1577.4;3029.8;120.5;16.5;24.4;62.9;0.69;1.35;-10.54;0.81;1.07;1.79
1753881464.96248;0.0;0.0;-0.0;-2.0;2.26;0.15;1819.4;899.4;2595.7;2665.2;33.0;25.9;34.6;8.4;0.26;1.85;-10.68;0.91;-0.84;-3.5
1753881464.967481;0.0;0.0;-0.0;-1.9;1.76;0.09;1032.3;2373.4;3601.8;2923.9;10.7;31.1;3.5;29.4;-0.22;0.06;-10.37;0.65;-0.37;-0.57
1753881464.972481;0.1;0.0;-0.0;-2.0;2.7;0.04;1105.2;2047.7;2834.3;2595.5;102.9;37.4;158.3;58.7;0.08;1.87;-10.7;0.86;-0.9;-4.83
1753881464.977481;0.0;0.0;-0.0;-2.1;3.2;0.47;1233.8;3135.2;1627.7;4209.6;44.8;13.1;33.9;49.5;0.28;1.57;-10.64;1.24;-0.12;-6.62
1753881464.982481;0.1;0.0;-0.0;-1.9;2.64;0.16;1919.7;2594.3;1679.0;2023.3;45.2;18.7;50.4;43.9;0.16;0.45;-10.53;0.82;1.84;0.29
1753881464.987481;0.1;0.0;-0.0;-2.1;2.3;0.13;2771.0;1876.3;1474.6;2418.6;-47.2;6.2;22.2;36.3;0.61;1.19;-10.53;0.56;0.81;1.81
1753881464.992481;0.1;0.0;-0.0;-2.1;3.03;0.2;2877.1;3812.6;2621.4;2506.6;47.9;-7.2;53.4;56.8;0.51;1.24;-10.8;0.37;-0.69;-1.81
1753881464.997481;0.0;0.0;-0.0;-2.1;2.63;0.09;3995.3;3092.2;762.7;3257.5;58.9;20.3;76.7;39.7;-0.06;0.85;-10.64;0.77;-0.0;-0.94
1753881465.002482;0.1;0.0;-0.0;-2.0;3.03;0.08;2926.8;2551.7;2020.9;1822.7;19.7;8.8;73.4;66.0;0.63;1.72;-10.47;0.74;1.0;-0.73
1753881465.007482;0.1;0.0;-0.0;-2.2;2.87;0.15;2384.9;2913.7;1940.8;2046.3;13.1;5.5;-38.3;5.0;0.54;0.46;-10.64;1.02;0.04;-0.83
1753881465.012478;0.1;0.0;-0.0;-2.2;2.51;0.17;2140.0;2396.0;2350.0;2250.0;33.0;-6.0;35.0;36.0;0.28;0.95;-10.61;0.78;0.1;-0.42
1753881465.017478;0.1;0.0;-0.0;-2.2;2.51;0.17;2140.0;2396.0;2350.0;2250.0;33.0;-6.0;35.0;36.0;0.38;0.98;-10.59;0.88;-0.08;0.61
1753881465.022478;0.1;0.0;-0.0;-2.2;2.51;0.17;2140.0;2396.0;2350.0;2250.0;33.0;-6.0;35.0;36.0;0.39;0.84;-10.58;0.97;0.19;-0.34
1753881465.027478;0.1;0.0;-0.0;-2.2;2.51;0.17;2140.0;2396.0;2350.0;2250.0;33.0;-6.0;35.0;36.0;0.41;0.76;-10.57;1.09;0.38;-1.04
1753881465.032478;0.1;0.0;-0.0;-2.2;2.51;0.17;2140.0;2396.0;2350.0;2250.0;33.0;-6.0;35.0;36.0;0.54;0.79;-10.52;1.09;0.17;0.8
1753881465.037478;0.1;0.0;-0.0;-2.2;2.51;0.17;2140.0;2396.0;2350.0;2250.0;33.0;-6.0;35.0;36.0;0.55;0.64;-10.55;1.1;0.13;-0.11
1753881465.042478;0.1;0.0;-0.0;-2.2;2.51;0.17;2140.0;2396.0;2350.0;2250.0;33.0;-6.0;35.0;36.0;0.56;0.56;-10.53;1.25;0.52;-1.04
1753881465.047478;0.1;0.0;-0.0;-2.2;2.51;0.17;2140.0;2396.0;2350.0;2250.0;33.0;-6.0;35.0;36.0;0.61;0.52;-10.5;1.44;0.06;0.07
1753881465.052478;0.1;0.0;-0.0;-2.2;2.51;0.17;2140.0;2396.0;2350.0;2250.0;33.0;-6.0;35.0;36.0;0.58;0.46;-10.55;1.36;0.24;-0.33
1753881465.057478;0.1;0.0;-0.0;-2.2;2.51;0.17;2140.0;2396.0;2350.0;2250.0;33.0;-6.0;35.0;36.0;0.53;0.45;-10.62;1.43;0.09;-0.65
1753881465.062478;0.1;0.0;-0.0;-2.2;2.51;0.17;2140.0;2396.0;2350.0;2250.0;33.0;-6.0;35.0;36.0;0.52;0.46;-10.61;1.79;0.33;-1.57
1753881465.067478;0.1;0.0;-0.0;-2.2;2.51;0.17;2140.0;2396.0;2350.0;2250.0;33.0;-6.0;35.0;36.0;0.42;0.79;-10.54;1.03;0.93;0.11
1753881465.072478;0.1;0.0;-0.0;-2.2;2.51;0.17;2140.0;2396.0;2350.0;2250.0;33.0;-6.0;35.0;36.0;0.39;0.79;-10.72;-0.38;-0.6;2.69
1753881465.077478;0.1;0.0;-0.0;-2.2;2.51;0.17;2140.0;2396.0;2350.0;2250.0;33.0;-6.0;35.0;36.0;0.47;0.67;-11.19;-1.16;-2.15;2.2
1753881465.082478;0.1;0.0;-0.0;-2.2;2.51;0.17;2140.0;2396.0;2350.0;2250.0;33.0;-6.0;35.0;36.0;0.08;0.4;-11.57;-0.56;-0.27;-2.05
1753881465.087478;0.1;0.0;-0.0;-2.2;2.51;0.17;2140.0;2396.0;2350.0;2250.0;33.0;-6.0;35.0;36.0;0.14;0.2;-11.39;-0.15;-1.28;3.47
1753881465.092478;0.1;0.0;-0.0;-2.2;2.51;0.17;2140.0;2396.0;2350.0;2250.0;33.0;-6.0;35.0;36.0;0.27;-0.02;-11.1;-1.07;-1.12;6.84
1753881465.097478;0.1;0.0;-0.0;-2.2;2.51;0.17;2140.0;2396.0;2350.0;2250.0;33.0;-6.0;35.0;36.0;-0.16;-0.26;-11.06;-1.17;1.65;0.84
1753881465.102478;0.1;0.0;-0.0;-2.2;2.51;0.17;2140.0;2396.0;2350.0;2250.0;33.0;-6.0;35.0;36.0;-0.17;-0.34;-10.96;-0.99;0.43;7.24
1753881465.107478;0.1;0.0;-0.0;-2.2;2.51;0.17;2140.0;2396.0;2350.0;2250.0;33.0;-6.0;35.0;36.0;0.12;-0.59;-10.87;-1.2;-0.96;9.17
1753881465.112478;0.1;0.0;-0.0;-2.2;2.51;0.17;2140.0;2396.0;2350.0;2250.0;33.0;-6.0;35.0;36.0;-0.21;-0.74;-11.01;-0.57;1.71;2.66
1753881465.117478;0.1;0.0;-0.0;-2.2;2.51;0.17;2140.0;2396.0;2350.0;2250.0;33.0;-6.0;35.0;36.0;-0.32;-0.67;-11.1;0.03;0.69;6.85
1753881465.122478;0.1;0.0;-0.0;-2.2;2.51;0.17;2140.0;2396.0;2350.0;2250.0;33.0;-6.0;35.0;36.0;0.05;-0.95;-11.12;-0.42;-1.33;9.38
1753881465.127478;0.1;0.0;-0.0;-2.2;2.51;0.17;2140.0;2396.0;2350.0;2250.0;33.0;-6.0;35.0;36.0;-0.09;-1.01;-10.94;-0.39;0.5;3.02
1753881465.132478;0.1;0.0;-0.0;-2.2;2.51;0.17;2140.0;2396.0;2350.0;2250.0;33.0;-6.0;35.0;36.0;-0.03;-0.84;-11.09;-0.86;2.51;9.49
1753881465.137478;0.1;0.0;-0.0;-2.2;2.51;0.17;2140.0;2396.0;2350.0;2250.0;33.0;-6.0;35.0;36.0;-0.63;-0.06;-10.82;-0.1;-1.05;3.33
1753881465.142478;0.1;0.0;-0.0;-2.2;2.51;0.17;2140.0;2396.0;2350.0;2250.0;33.0;-6.0;35.0;36.0;0.03;-1.12;-10.48;-0.43;1.57;6.56
1753881465.147478;0.1;0.0;-0.0;-2.2;2.51;0.17;2140.0;2396.0;2350.0;2250.0;33.0;-6.0;35.0;36.0;0.21;-0.15;-10.65;-1.22;0.89;5.97
1753881465.152478;0.1;0.0;-0.0;-2.2;2.51;0.17;2140.0;2396.0;2350.0;2250.0;33.0;-6.0;35.0;36.0;0.02;0.17;-9.96;-0.13;1.59;-4.45
1753881465.157478;0.1;0.0;-0.0;-2.2;2.51;0.17;2140.0;2396.0;2350.0;2250.0;33.0;-6.0;35.0;36.0;-0.58;0.7;-10.78;-0.68;0.21;1.54
1753881465.162479;0.1;0.0;-0.0;-2.2;2.51;0.17;2140.0;2396.0;2350.0;2250.0;33.0;-6.0;35.0;36.0;-0.26;0.29;-10.57;-0.18;0.54;1.21
1753881465.167479;0.1;0.0;-0.0;-2.2;2.51;0.17;2140.0;2396.0;2350.0;2250.0;33.0;-6.0;35.0;36.0;-0.16;0.67;-10.43;-1.03;0.02;4.74
1753881465.172479;0.1;0.0;-0.0;-2.2;2.51;0.17;2140.0;2396.0;2350.0;2250.0;33.0;-6.0;35.0;36.0;0.23;0.03;-10.41;-0.55;1.84;4.62
1753881465.177479;0.1;0.0;-0.0;-2.2;2.51;0.17;2140.0;2396.0;2350.0;2250.0;33.0;-6.0;35.0;36.0;0.03;0.35;-10.48;0.13;1.77;5.28
1753881465.182479;0.1;0.0;-0.0;-2.2;2.51;0.17;2140.0;2396.0;2350.0;2250.0;33.0;-6.0;35.0;36.0;0.09;1.2;-11.12;2.29;0.69;-0.55
1753881465.187479;0.1;0.0;-0.0;-2.2;2.51;0.17;2140.0;2396.0;2350.0;2250.0;33.0;-6.0;35.0;36.0;0.04;1.48;-10.82;1.31;0.69;-5.78
1753881465.192479;0.1;0.0;-0.0;-2.2;2.51;0.17;2140.0;2396.0;2350.0;2250.0;33.0;-6.0;35.0;36.0;0.15;0.93;-10.31;1.41;0.0;-7.01
1753881465.197478;0.1;0.0;-0.0;-2.2;2.51;0.17;2140.0;2396.0;2350.0;2250.0;33.0;-6.0;35.0;36.0;0.14;1.39;-10.54;0.81;0.24;-1.15
1753881465.202478;0.1;0.0;-0.0;-2.2;2.51;0.17;2140.0;2396.0;2350.0;2250.0;33.0;-6.0;35.0;36.0;0.5;1.29;-10.34;0.61;-0.12;-0.22
1753881465.207478;0.1;0.0;-0.0;-2.2;2.51;0.17;2140.0;2396.0;2350.0;2250.0;33.0;-6.0;35.0;36.0;0.19;1.09;-10.39;0.73;1.38;-4.58
1753881465.212478;0.1;0.0;-0.0;-2.2;2.51;0.17;2140.0;2396.0;2350.0;2250.0;33.0;-6.0;35.0;36.0;0.14;1.18;-10.42;0.76;1.13;-2.94
1753881465.217478;0.1;0.0;-0.0;-2.2;2.51;0.17;2140.0;2396.0;2350.0;2250.0;33.0;-6.0;35.0;36.0;0.42;1.19;-10.4;0.74;0.25;-0.22
1753881465.222478;0.1;0.0;-0.0;-2.2;2.51;0.17;2140.0;2396.0;2350.0;2250.0;33.0;-6.0;35.0;36.0;0.31;0.99;-10.48;0.66;1.08;-4.06
1753881465.227478;0.1;0.0;-0.0;-2.2;2.51;0.17;2140.0;2396.0;2350.0;2250.0;33.0;-6.0;35.0;36.0;0.24;0.99;-10.49;0.16;1.64;-2.86
1753881465.232478;0.1;0.0;-0.0;-2.2;2.76;0.17;2134.4;2408.6;2353.2;2240.3;33.1;-10.4;35.3;30.7;0.38;0.62;-10.09;0.54;1.13;-3.75
1753881465.237478;0.1;0.0;-0.0;-2.2;2.55;0.17;2161.5;2317.5;2349.8;2264.9;35.0;-2.8;31.9;23.5;0.25;3.67;-10.62;0.86;-0.15;-11.3
1753881465.242478;0.1;0.0;-0.0;-2.2;2.58;0.17;2165.9;2328.1;2337.2;2246.2;34.9;-3.7;33.4;25.8;0.12;0.04;-10.68;0.11;0.72;3.32
1753881465.247478;0.0;-0.0;-0.0;-2.1;2.46;0.17;2145.5;2420.8;2333.5;2237.4;31.1;1.7;34.1;55.2;0.22;1.0;-10.21;1.33;-0.27;-4.46
1753881465.252478;0.1;0.0;-0.0;-2.1;2.23;0.17;2145.7;2415.1;2330.8;2228.3;35.2;-3.9;32.4;23.9;0.14;1.26;-10.33;0.76;1.11;2.92
1753881465.257479;0.1;0.0;-0.0;-2.2;2.05;0.17;2152.0;2341.6;2312.4;2253.7;36.0;0.4;36.4;33.7;0.18;0.81;-10.18;0.58;1.65;-9.68
1753881465.262479;0.1;0.0;-0.0;-2.2;2.14;0.17;2142.2;2399.1;2320.2;2236.8;36.8;1.3;38.0;68.0;-0.14;1.23;-10.14;1.94;2.4;1.75
1753881465.267479;0.1;0.0;-0.0;-2.2;2.32;0.17;2134.1;2337.9;2347.1;2184.2;37.9;0.5;28.1;53.7;-0.21;-0.42;-10.8;0.54;0.75;-8.57
1753881465.272479;0.1;0.0;-0.0;-2.2;2.43;0.17;2157.3;2378.1;2347.2;2237.2;33.7;-2.3;30.1;51.1;-0.22;1.41;-10.97;-0.32;1.71;-8.47
1753881465.277479;0.1;0.0;-0.0;-2.2;2.34;0.17;2161.5;2355.9;2335.0;2218.3;35.1;2.0;35.3;52.7;-0.32;1.42;-10.04;2.06;1.64;2.04
1753881465.282479;0.1;0.0;-0.0;-2.2;2.18;0.17;2152.3;2364.8;2308.6;2240.1;34.4;0.3;33.1;47.2;-0.01;0.11;-9.77;1.56;2.58;-3.71
1753881465.28748;0.1;-0.0;-0.0;-2.2;2.4;0.17;2144.5;2344.1;2314.1;2233.6;38.9;5.6;28.3;44.8;0.32;-0.37;-10.89;-0.21;-0.13;-5.85
1753881465.29248;0.1;0.0;-0.0;-2.2;2.05;0.17;2159.3;2368.8;2345.1;2201.6;36.7;4.1;32.2;68.3;-0.12;0.38;-10.21;1.12;-0.2;-0.4
1753881465.29748;0.1;0.0;-0.0;-2.2;2.0;0.17;2170.5;2334.8;2324.9;2190.9;32.0;7.8;21.0;43.2;-0.06;1.65;-10.68;-0.89;0.88;-7.38
1753881465.30248;0.1;0.0;-0.0;-2.2;1.98;0.17;2166.8;2301.6;2291.0;2226.2;34.4;0.8;28.0;83.5;-0.09;2.15;-10.41;1.78;0.77;2.64
1753881465.30748;0.1;0.0;-0.0;-2.2;2.06;0.17;2151.6;2344.0;2295.8;2199.8;37.7;4.5;30.5;82.3;-0.34;1.6;-10.77;0.9;0.9;-2.77
1753881465.31248;0.1;0.0;-0.0;-2.2;2.21;0.17;2164.0;2309.9;2311.6;2194.6;36.3;0.7;25.7;39.7;-0.08;-0.47;-10.47;-1.0;2.22;-1.64
1753881465.31748;0.1;0.0;-0.0;-2.3;2.24;0.17;2157.0;2293.7;2308.2;2211.5;34.3;3.6;24.5;57.6;0.11;1.6;-10.28;0.33;0.93;-2.76
1753881465.32248;0.2;0.0;-0.0;-2.2;1.93;0.17;2175.9;2299.6;2292.3;2205.1;39.3;5.9;22.4;89.9;0.09;-0.52;-10.54;0.8;1.07;0.71
1753881465.32748;0.2;0.0;-0.0;-2.2;2.2;0.17;2196.3;2346.3;2313.7;2176.0;39.0;10.5;26.8;76.9;-0.03;-0.86;-11.04;0.77;0.82;0.69
1753881465.33248;0.1;0.0;-0.0;-2.2;1.92;0.17;2173.1;2369.7;2298.7;2236.9;38.0;3.7;27.5;110.1;0.05;1.04;-11.31;0.32;2.67;-0.56
1753881465.33748;0.1;0.0;-0.0;-2.3;1.83;0.17;2168.3;2296.1;2296.4;2177.6;39.4;9.0;25.7;76.5;-0.23;0.48;-10.92;-0.48;0.38;-2.81
1753881465.342481;0.2;0.0;-0.0;-2.3;2.12;0.17;2181.5;2276.2;2305.9;2191.9;42.3;16.9;26.1;54.1;-0.01;0.35;-10.52;0.58;0.85;-1.38
1753881465.347481;0.1;0.0;-0.0;-2.3;1.95;0.17;2168.0;2301.0;2303.5;2177.0;38.0;11.4;23.5;73.1;0.09;0.27;-11.45;0.42;0.66;-3.88
1753881465.352481;0.2;0.0;-0.0;-2.2;2.03;0.17;2173.5;2275.8;2282.7;2204.3;37.8;23.8;22.8;99.8;-0.44;0.0;-10.34;-0.43;-0.11;5.2
1753881465.357481;0.1;0.0;-0.0;-2.3;1.87;0.17;2173.6;2300.7;2277.2;2174.7;41.0;12.4;24.8;77.2;-0.12;0.03;-10.97;0.29;-0.69;-0.87
1753881465.362481;0.1;0.0;-0.0;-2.3;1.88;0.17;2181.9;2272.7;2291.7;2168.2;39.8;9.5;19.8;93.9;-0.17;0.74;-11.04;0.98;1.83;-0.11
1753881465.367481;0.1;0.0;-0.0;-2.3;1.71;0.17;2183.6;2316.3;2286.4;2169.0;43.4;6.9;19.5;80.0;-0.19;0.72;-10.43;0.58;-0.13;0.96
1753881465.372481;0.2;0.0;-0.0;-2.2;1.82;0.17;2174.9;2292.9;2252.1;2169.5;40.0;5.7;18.3;94.1;-0.5;0.29;-11.19;-0.29;-1.96;0.73
1753881465.377478;0.2;0.0;-0.0;-2.3;1.78;0.17;2186.0;2276.0;2286.0;2176.0;41.0;14.0;21.0;101.0;-0.21;0.1;-10.73;0.56;-0.04;0.48
1753881465.382478;0.2;0.0;-0.0;-2.3;1.78;0.17;2186.0;2276.0;2286.0;2176.0;41.0;14.0;21.0;101.0;-0.02;0.35;-10.52;0.47;-0.19;2.99
1753881465.387478;0.2;0.0;-0.0;-2.3;1.78;0.17;2186.0;2276.0;2286.0;2176.0;41.0;14.0;21.0;101.0;-0.07;0.43;-10.58;0.9;0.56;-0.46
1753881465.392478;0.2;0.0;-0.0;-2.3;1.78;0.17;2186.0;2276.0;2286.0;2176.0;41.0;14.0;21.0;101.0;-0.09;0.55;-10.69;0.86;0.21;-0.76
1753881465.397478;0.2;0.0;-0.0;-2.3;1.78;0.17;2186.0;2276.0;2286.0;2176.0;41.0;14.0;21.0;101.0;0.07;0.74;-10.68;0.87;-0.22;1.09
1753881465.402478;0.2;0.0;-0.0;-2.3;1.78;0.17;2186.0;2276.0;2286.0;2176.0;41.0;14.0;21.0;101.0;0.01;0.83;-10.62;1.26;0.19;-0.09
1753881465.407478;0.2;0.0;-0.0;-2.3;1.78;0.17;2186.0;2276.0;2286.0;2176.0;41.0;14.0;21.0;101.0;0.04;0.89;-10.59;1.26;0.79;-1.96
1753881465.412478;0.2;0.0;-0.0;-2.3;1.78;0.17;2186.0;2276.0;2286.0;2176.0;41.0;14.0;21.0;101.0;0.1;1.05;-10.64;1.02;0.22;-0.2
1753881465.417478;0.2;0.0;-0.0;-2.3;1.97;0.17;2181.1;2158.9;2281.8;2175.8;40.4;14.9;32.8;144.1;-0.14;1.3;-10.87;1.7;-0.98;1.9
1753881465.422478;0.2;0.0;-0.0;-2.2;1.22;0.17;2197.1;2377.3;2241.6;2169.1;42.3;38.3;12.8;125.8;-0.02;1.12;-10.58;1.72;-1.03;-1.56
1753881465.427478;0.2;0.0;-0.0;-2.3;2.78;0.17;2189.7;2251.0;2288.1;2194.0;42.4;4.9;17.5;39.9;-0.36;-0.97;-10.51;1.61;-0.11;5.03
1753881465.432478;0.2;0.0;-0.0;-2.3;1.65;0.17;2221.9;2201.1;2263.7;2192.9;47.8;17.0;27.7;112.5;0.47;1.6;-10.28;0.24;0.42;0.44
1753881465.437478;0.2;0.0;-0.0;-2.2;2.29;0.17;2207.9;2372.0;2270.2;2176.7;44.5;14.5;19.5;57.9;-0.02;1.13;-11.02;0.42;-0.03;-1.15
1753881465.442479;0.1;0.0;-0.0;-2.3;1.26;0.17;2208.7;2234.8;2306.4;2237.3;49.3;33.8;26.1;105.8;0.04;1.26;-10.54;2.23;-0.35;-0.08
1753881465.447479;0.2;0.0;-0.0;-2.2;1.57;0.17;2220.5;2207.8;2261.0;2160.3;47.8;34.3;22.2;101.5;0.02;1.27;-10.47;1.2;0.46;-1.45
1753881465.452479;0.2;0.0;-0.0;-2.2;1.41;0.17;2225.2;2207.4;2295.4;2222.7;39.9;10.9;23.8;88.6;0.14;1.2;-10.49;1.36;0.23;-0.18
1753881465.457479;0.2;0.0;-0.0;-2.2;1.49;0.17;2216.0;2279.7;2319.2;2160.6;43.7;23.1;19.3;152.3;-0.18;1.4;-10.41;1.24;0.61;0.39
1753881465.462479;0.3;0.0;-0.0;-2.2;2.24;0.17;2173.1;2309.4;2303.5;2242.4;39.8;11.5;37.0;89.5;-0.01;0.33;-10.52;0.57;0.88;-1.49
1753881465.467479;0.2;0.0;-0.0;-2.3;1.17;0.17;2185.1;2358.5;2342.9;2235.7;42.6;-7.2;24.1;133.5;0.14;0.38;-10.94;0.88;0.73;-3.54
1753881465.472479;0.2;0.0;-0.0;-2.2;1.15;0.17;2161.7;2235.1;2304.8;2144.8;41.7;-12.2;33.7;77.6;0.15;1.76;-10.97;1.1;0.37;-5.33
1753881465.47748;0.2;0.0;-0.0;-2.3;2.22;0.18;2228.9;2281.6;2331.3;2176.3;44.2;29.2;16.2;119.2;0.27;-0.15;-10.47;0.27;1.56;0.33
1753881465.48248;0.2;0.0;-0.0;-2.2;1.12;0.17;2202.2;2194.0;2365.4;2187.5;40.8;15.8;38.0;66.5;-0.17;1.19;-10.57;1.0;-0.57;4.17
1753881465.48748;0.2;0.0;-0.0;-2.2;1.34;0.18;2219.4;2336.8;2281.7;2285.2;49.5;19.2;42.8;0.1;0.01;1.98;-10.68;1.12;0.14;-0.24
1753881465.49248;0.2;0.0;-0.0;-2.1;0.98;0.18;2193.5;2285.0;2268.6;2196.4;44.1;30.9;40.1;90.8;-0.09;1.99;-10.6;0.81;0.35;2.0
1753881465.49748;0.2;0.0;-0.0;-2.2;1.35;0.17;2213.9;2226.4;2301.1;2253.6;48.6;11.4;37.9;67.4;0.36;1.98;-10.8;1.12;0.8;-0.71
1753881465.50248;0.2;0.0;-0.0;-2.3;1.4;0.18;2243.2;2030.0;2273.2;2248.4;39.0;39.4;28.9;88.7;-0.45;-0.03;-10.7;1.13;2.34;-2.44
1753881465.50748;0.2;0.0;-0.0;-2.2;1.56;0.18;2238.0;2319.8;2358.1;2207.1;38.8;30.3;29.6;150.9;0.37;0.82;-10.78;0.47;2.08;6.11
1753881465.51248;0.2;0.0;-0.0;-2.2;1.77;0.18;2228.5;2197.7;2331.2;2201.8;46.9;22.9;36.0;65.4;0.24;-0.5;-10.31;1.41;1.42;8.05
1753881465.51748;0.2;0.0;-0.0;-2.2;1.07;0.18;2174.9;2262.5;2289.1;2204.3;38.2;31.5;21.8;93.7;-0.02;0.82;-10.56;1.31;2.36;-1.05
1753881465.52248;0.1;0.0;-0.0;-2.2;1.32;0.18;2193.3;2120.8;2286.5;2270.1;41.4;39.5;40.4;66.3;-0.16;0.85;-10.64;1.43;1.11;-1.43
1753881465.52748;0.2;0.0;-0.0;-2.1;1.17;0.18;2235.2;2153.6;2341.1;2268.1;33.8;41.8;44.5;101.3;0.34;0.15;-10.56;1.62;2.16;2.51
1753881465.532481;0.3;0.0;-0.0;-2.2;1.07;0.18;2251.3;2253.1;2345.5;2229.1;50.6;16.1;35.7;89.3;0.26;-0.41;-10.71;0.82;0.91;-2.04
1753881465.537481;0.2;0.0;-0.0;-2.1;2.22;0.18;2245.8;2335.3;2317.0;2233.6;44.7;13.0;33.8;102.3;0.21;-0.52;-11.11;1.1;0.64;1.83
1753881465.542481;0.2;0.0;-0.0;-2.2;1.45;0.18;2259.6;2104.6;2336.8;2241.2;46.7;58.7;40.8;35.4;-0.0;-0.74;-10.78;0.98;1.59;2.57
1753881465.547481;0.2;0.0;-0.0;-2.2;1.44;0.18;2288.3;2205.9;2298.8;2266.4;41.0;35.2;34.2;114.1;-0.08;0.1;-10.81;-0.03;0.23;1.51
1753881465.552481;0.2;0.0;-0.0;-2.2;0.49;0.18;2304.6;2090.0;2332.1;2235.3;38.0;17.8;35.8;175.0;0.47;0.66;-10.75;0.63;1.98;-0.44
1753881465.557481;0.2;0.0;-0.0;-2.2;1.59;0.18;2273.3;2196.1;2408.2;2238.7;47.3;33.3;41.0;177.5;0.12;0.68;-10.77;-0.05;0.73;0.75
1753881465.562478;0.2;0.0;-0.0;-2.2;1.34;0.18;2270.0;2166.0;2343.0;2250.0;41.0;36.0;43.0;82.0;0.12;0.29;-10.72;1.24;1.01;0.0
1753881465.567478;0.2;0.0;-0.0;-2.2;1.34;0.18;2270.0;2166.0;2343.0;2250.0;41.0;36.0;43.0;82.0;0.2;0.31;-10.7;0.83;0.41;1.71
1753881465.572478;0.2;0.0;-0.0;-2.2;1.34;0.18;2270.0;2166.0;2343.0;2250.0;41.0;36.0;43.0;82.0;0.19;0.37;-10.71;1.07;0.14;2.06
1753881465.577478;0.2;0.0;-0.0;-2.2;1.34;0.18;2270.0;2166.0;2343.0;2250.0;41.0;36.0;43.0;82.0;0.12;0.32;-10.69;1.31;0.78;-0.25
1753881465.582478;0.2;0.0;-0.0;-2.2;1.34;0.18;2270.0;2166.0;2343.0;2250.0;41.0;36.0;43.0;82.0;0.2;0.34;-10.65;1.14;0.33;1.18
1753881465.587478;0.2;0.0;-0.0;-2.2;1.34;0.18;2270.0;2166.0;2343.0;2250.0;41.0;36.0;43.0;82.0;0.22;0.41;-10.66;1.12;0.11;2.19
1753881465.592478;0.2;0.0;-0.0;-2.2;1.34;0.18;2270.0;2166.0;2343.0;2250.0;41.0;36.0;43.0;82.0;0.16;0.33;-10.71;0.77;0.59;-0.25
1753881465.597478;0.2;0.0;-0.0;-2.2;1.34;0.18;2270.0;2166.0;2343.0;2250.0;41.0;36.0;43.0;82.0;0.25;0.29;-10.79;0.32;-0.07;0.87
1753881465.602478;0.2;0.0;-0.0;-2.2;1.34;0.18;2270.0;2166.0;2343.0;2250.0;41.0;36.0;43.0;82.0;0.31;0.3;-10.91;0.36;-0.69;2.27
1753881465.607478;0.2;0.0;-0.0;-2.2;1.34;0.18;2270.0;2166.0;2343.0;2250.0;41.0;36.0;43.0;82.0;0.22;0.2;-10.92;0.58;0.17;-0.52
1753881465.612478;0.2;0.0;-0.0;-2.2;1.34;0.18;2270.0;2166.0;2343.0;2250.0;41.0;36.0;43.0;82.0;0.24;0.2;-10.77;0.28;-0.1;1.98
1753881465.617478;0.2;0.0;-0.0;-2.2;1.34;0.18;2270.0;2166.0;2343.0;2250.0;41.0;36.0;43.0;82.0;0.27;0.2;-10.66;0.38;-0.03;2.15
1753881465.622478;0.2;0.0;-0.0;-2.1;1.12;0.18;2274.4;2254.5;2414.9;2202.1;41.0;27.1;27.3;79.5;0.32;-0.01;-10.57;-0.01;0.18;1.52
1753881465.627478;0.2;0.0;-0.0;-2.2;1.51;0.18;2182.2;2199.0;2266.4;2247.5;41.1;43.0;44.4;81.8;0.2;0.46;-10.7;0.39;-0.31;0.98
1753881465.632478;0.2;0.0;-0.0;-2.0;1.43;0.18;2187.5;2197.0;2290.7;2254.2;41.2;25.6;43.3;60.4;0.3;0.04;-10.65;0.65;-0.28;2.84
1753881465.637478;0.2;0.0;-0.0;-2.2;1.29;0.18;2184.3;2211.9;2268.3;2309.5;40.9;35.9;49.7;93.0;0.07;-0.11;-10.58;0.49;-0.12;1.1
1753881465.642478;0.2;0.0;-0.0;-2.1;1.39;0.19;2307.0;2268.1;2317.8;2233.1;41.1;31.2;44.4;69.5;0.26;0.3;-10.71;1.55;0.13;0.8
1753881465.647478;0.2;0.0;-0.0;-2.1;1.36;0.18;2272.2;2161.9;2225.4;2211.4;40.4;38.0;55.5;91.5;0.33;-0.12;-10.75;0.77;0.51;1.57
1753881465.652479;0.2;0.0;-0.0;-2.1;1.21;0.18;2312.8;2158.5;2290.4;2226.8;40.3;38.5;45.8;80.5;0.01;0.3;-10.35;0.75;0.05;1.87
1753881465.657479;0.2;0.0;-0.0;-2.2;1.63;0.17;2289.3;2305.3;2240.1;2251.4;40.1;12.9;64.5;73.1;0.39;0.19;-10.71;0.54;-0.07;1.39
1753881465.662479;0.2;0.0;-0.0;-2.1;1.11;0.17;2284.4;2199.9;2291.4;2282.6;39.8;26.1;39.0;88.8;0.13;0.06;-10.77;1.09;0.72;4.65
1753881465.667479;0.2;0.0;-0.0;-2.0;1.23;0.17;2293.4;2194.7;2281.3;2229.9;39.6;21.5;57.3;88.8;0.12;0.18;-10.81;1.46;-0.1;3.74
1753881465.672479;0.2;0.0;-0.0;-2.2;0.94;0.18;2243.6;2161.4;2275.9;2250.1;39.6;37.8;36.1;81.9;0.13;0.11;-10.62;0.98;0.65;2.19
1753881465.677479;0.2;0.0;-0.0;-2.1;1.02;0.17;2236.4;2217.1;2263.5;2297.5;39.3;4.3;72.0;79.8;0.23;-0.01;-10.56;0.69;0.35;2.63
1753881465.68248;0.2;0.0;-0.0;-2.1;1.25;0.18;2305.7;2130.9;2332.2;2250.9;40.5;24.8;71.5;83.3;0.33;0.6;-10.65;0.96;0.22;1.61
1753881465.68748;0.2;0.0;-0.0;-2.1;0.75;0.18;2286.9;2157.7;2266.2;2197.9;39.6;33.0;65.1;86.6;0.19;0.31;-10.7;0.34;-0.15;6.62
1753881465.69248;0.2;0.0;-0.0;-2.0;1.48;0.18;2259.0;2262.7;2313.5;2243.7;39.6;30.8;44.3;87.5;0.16;-0.11;-10.89;1.01;0.69;2.25
1753881465.69748;0.2;0.0;-0.0;-2.1;1.24;0.17;2255.1;2247.4;2241.9;2299.3;39.6;26.9;58.8;90.8;0.36;0.31;-10.5;1.01;0.19;2.37
1753881465.70248;0.2;0.0;-0.0;-2.1;1.01;0.18;2255.1;2217.8;2243.0;2258.3;39.4;24.6;76.9;77.6;0.11;-0.34;-10.5;0.86;0.07;1.18
1753881465.70748;0.2;0.0;-0.0;-2.2;1.1;0.17;2248.9;2230.1;2271.6;2211.5;39.5;34.4;49.0;59.0;0.01;0.54;-10.52;1.2;0.36;3.76
1753881465.71248;0.2;0.0;-0.0;-2.0;1.25;0.17;2251.6;2318.0;2284.6;2302.8;38.7;23.6;74.9;84.6;0.24;0.57;-10.79;1.46;-0.13;2.6
1753881465.71748;0.2;0.0;-0.0;-2.2;1.28;0.17;2325.0;2311.5;2266.6;2281.4;39.3;37.8;63.2;74.8;0.28;0.14;-10.73;0.63;0.16;2.62
1753881465.72248;0.2;0.0;-0.0;-2.0;1.09;0.17;2254.0;2289.4;2267.7;2229.7;39.4;43.0;80.1;98.6;0.18;0.52;-10.57;1.12;0.39;0.29
1753881465.72748;0.3;0.0;-0.0;-2.0;1.39;0.18;2280.2;2246.2;2233.5;2324.6;38.6;13.8;78.6;80.2;0.26;0.71;-10.78;1.93;-0.02;2.3
1753881465.73248;0.3;0.0;-0.0;-2.0;1.09;0.17;2228.4;2304.6;2203.5;2273.3;39.5;22.3;45.8;89.6;0.12;0.38;-10.65;2.1;0.2;-0.84
1753881465.737481;0.2;0.0;-0.0;-2.1;1.37;0.17;2261.6;2213.9;2222.4;2280.2;39.1;8.5;96.4;74.8;0.23;0.7;-10.83;2.13;0.27;0.57
1753881465.742478;0.2;0.0;-0.0;-2.1;1.24;0.17;2270.0;2250.0;2203.0;2250.0;39.0;23.0;69.0;78.0;0.24;0.33;-10.66;1.63;0.42;1.48
1753881465.747478;0.2;0.0;-0.0;-2.1;1.24;0.17;2270.0;2250.0;2203.0;2250.0;39.0;23.0;69.0;78.0;0.23;0.32;-10.65;1.76;0.36;0.36
1753881465.752478;0.2;0.0;-0.0;-2.1;1.24;0.17;2270.0;2250.0;2203.0;2250.0;39.0;23.0;69.0;78.0;0.28;0.4;-10.68;1.44;0.19;1.4
1753881465.757478;0.2;0.0;-0.0;-2.1;1.24;0.17;2270.0;2250.0;2203.0;2250.0;39.0;23.0;69.0;78.0;0.33;0.34;-10.72;1.25;0.01;1.39
1753881465.762478;0.2;0.0;-0.0;-2.1;1.24;0.17;2270.0;2250.0;2203.0;2250.0;39.0;23.0;69.0;78.0;0.34;0.3;-10.75;1.45;-0.18;-0.08
1753881465.767478;0.2;0.0;-0.0;-2.1;1.24;0.17;2270.0;2250.0;2203.0;2250.0;39.0;23.0;69.0;78.0;0.34;0.38;-10.74;1.26;-0.12;0.34
1753881465.772478;0.2;0.0;-0.0;-2.1;1.24;0.17;2270.0;2250.0;2203.0;2250.0;39.0;23.0;69.0;78.0;0.36;0.37;-10.65;1.36;-0.67;1.31
1753881465.777478;0.2;0.0;-0.0;-2.1;1.24;0.17;2270.0;2250.0;2203.0;2250.0;39.0;23.0;69.0;78.0;0.37;0.32;-10.59;1.23;-0.13;0.74
1753881465.782478;0.2;0.0;-0.0;-2.1;1.24;0.17;2270.0;2250.0;2203.0;2250.0;39.0;23.0;69.0;78.0;0.37;0.35;-10.6;1.45;0.01;-0.28
1753881465.787478;0.2;0.0;-0.0;-2.1;1.24;0.17;2270.0;2250.0;2203.0;2250.0;39.0;23.0;69.0;78.0;0.29;0.38;-10.67;1.6;-0.56;2.29
1753881465.792478;0.2;0.0;-0.0;-2.1;1.24;0.17;2270.0;2250.0;2203.0;2250.0;39.0;23.0;69.0;78.0;0.32;0.27;-10.7;1.21;-0.33;0.45
1753881465.797478;0.2;0.0;-0.0;-2.1;1.24;0.17;2270.0;2250.0;2203.0;2250.0;39.0;23.0;69.0;78.0;0.34;0.23;-10.68;1.57;-0.19;0.01
1753881465.802478;0.2;0.0;-0.0;-2.1;1.24;0.17;2270.0;2250.0;2203.0;2250.0;39.0;23.0;69.0;78.0;0.37;0.25;-10.65;1.53;-0.48;2.37
1753881465.807478;0.2;0.0;-0.0;-2.1;1.24;0.17;2270.0;2250.0;2203.0;2250.0;39.0;23.0;69.0;78.0;0.41;0.17;-10.62;1.48;-0.68;2.34
1753881465.812478;0.2;0.0;-0.0;-2.1;1.24;0.17;2270.0;2250.0;2203.0;2250.0;39.0;23.0;69.0;78.0;0.36;0.13;-10.62;1.55;-0.65;0.74
1753881465.817478;0.2;0.0;-0.0;-2.1;1.24;0.17;2270.0;2250.0;2203.0;2250.0;39.0;23.0;69.0;78.0;0.31;0.11;-10.59;1.19;-0.7;2.13
1753881465.822478;0.2;0.0;-0.0;-2.1;1.24;0.17;2270.0;2250.0;2203.0;2250.0;39.0;23.0;69.0;78.0;0.39;0.04;-10.54;1.05;-0.78;2.59
1753881465.827478;0.2;0.0;-0.0;-2.1;1.24;0.17;2270.0;2250.0;2203.0;2250.0;39.0;23.0;69.0;78.0;0.32;0.04;-10.65;1.46;-1.25;0.99
1753881465.832478;0.2;0.0;-0.0;-2.1;1.24;0.17;2270.0;2250.0;2203.0;2250.0;39.0;23.0;69.0;78.0;0.28;0.11;-10.7;1.66;-1.28;3.0
1753881465.837478;0.2;0.0;-0.0;-2.1;1.24;0.17;2270.0;2250.0;2203.0;2250.0;39.0;23.0;69.0;78.0;0.37;0.1;-10.69;1.59;-1.61;1.93
1753881465.842478;0.2;0.0;-0.0;-2.1;1.24;0.17;2270.0;2250.0;2203.0;2250.0;39.0;23.0;69.0;78.0;0.4;0.11;-10.66;2.28;-1.6;1.16
1753881465.847478;0.2;0.0;-0.0;-2.1;1.24;0.17;2270.0;2250.0;2203.0;2250.0;39.0;23.0;69.0;78.0;0.37;0.26;-10.67;2.61;-2.02;3.47
1753881465.852478;0.2;0.0;-0.0;-2.1;1.24;0.17;2270.0;2250.0;2203.0;2250.0;39.0;23.0;69.0;78.0;0.37;0.26;-10.73;2.11;-2.21;3.54
1753881465.857478;0.2;0.0;-0.0;-2.1;1.24;0.17;2270.0;2250.0;2203.0;2250.0;39.0;23.0;69.0;78.0;0.31;0.16;-10.86;1.4;-1.94;1.48
1753881465.862478;0.2;0.0;-0.0;-2.1;1.24;0.17;2270.0;2250.0;2203.0;2250.0;39.0;23.0;69.0;78.0;0.2;0.1;-10.83;0.34;-1.35;0.64
1753881465.867478;0.2;0.0;-0.0;-2.1;1.24;0.17;2270.0;2250.0;2203.0;2250.0;39.0;23.0;69.0;78.0;0.04;0.27;-10.69;1.18;1.08;0.89
1753881465.872478;0.2;0.0;-0.0;-2.1;1.24;0.17;2270.0;2250.0;2203.0;2250.0;39.0;23.0;69.0;78.0;0.07;0.24;-10.8;-0.06;0.02;4.0
1753881465.877478;0.2;0.0;-0.0;-2.1;1.24;0.17;2270.0;2250.0;2203.0;2250.0;39.0;23.0;69.0;78.0;-0.06;0.25;-11.0;0.08;0.0;-0.3
1753881465.882478;0.2;0.0;-0.0;-2.1;1.24;0.17;2270.0;2250.0;2203.0;2250.0;39.0;23.0;69.0;78.0;-0.13;0.33;-10.8;0.94;0.3;-0.57
1753881465.887478;0.2;0.0;-0.0;-2.1;1.24;0.17;2270.0;2250.0;2203.0;2250.0;39.0;23.0;69.0;78.0;-0.01;0.33;-10.64;-0.48;-0.89;5.56
1753881465.892478;0.2;0.0;-0.0;-2.1;1.24;0.17;2270.0;2250.0;2203.0;2250.0;39.0;23.0;69.0;78.0;-0.33;0.28;-10.83;0.19;0.25;1.45
1753881465.897478;0.2;0.0;-0.0;-2.1;1.24;0.17;2270.0;2250.0;2203.0;2250.0;39.0;23.0;69.0;78.0;-0.35;0.18;-10.82;0.61;1.02;-3.23
1753881465.902478;0.2;0.0;-0.0;-2.1;1.24;0.17;2270.0;2250.0;2203.0;2250.0;39.0;23.0;69.0;78.0;-0.29;0.26;-10.73;0.0;-0.57;4.74
1753881465.907478;0.2;0.0;-0.0;-2.1;1.24;0.17;2270.0;2250.0;2203.0;2250.0;39.0;23.0;69.0;78.0;-0.5;0.28;-10.72;0.32;-0.15;2.12
1753881465.912478;0.2;0.0;-0.0;-2.1;1.24;0.17;2270.0;2250.0;2203.0;2250.0;39.0;23.0;69.0;78.0;-0.55;0.36;-10.53;0.96;0.99;-3.37
1753881465.917478;0.2;0.0;-0.0;-2.1;1.24;0.17;2270.0;2250.0;2203.0;2250.0;39.0;23.0;69.0;78.0;-0.44;0.63;-10.56;0.73;-0.35;2.47
1753881465.922478;0.2;0.0;-0.0;-2.1;1.24;0.17;2270.0;2250.0;2203.0;2250.0;39.0;23.0;69.0;78.0;-0.39;0.6;-10.75;0.76;-0.15;1.98
1753881465.927478;0.2;0.0;-0.0;-2.1;1.24;0.17;2270.0;2250.0;2203.0;2250.0;39.0;23.0;69.0;78.0;-0.55;0.66;-10.65;1.01;0.93;-3.02
1753881465.932478;0.2;0.0;-0.0;-2.1;1.24;0.17;2270.0;2250.0;2203.0;2250.0;39.0;23.0;69.0;78.0;-0.46;0.82;-10.44;0.82;0.25;-0.04
1753881465.937478;0.2;0.0;-0.0;-2.1;1.24;0.17;2270.0;2250.0;2203.0;2250.0;39.0;23.0;69.0;78.0;-0.41;0.82;-10.53;0.84;-0.59;2.73
1753881465.942478;0.2;0.0;-0.0;-2.1;1.24;0.17;2270.0;2250.0;2203.0;2250.0;39.0;23.0;69.0;78.0;-0.63;0.72;-10.67;0.99;0.96;-2.54
1753881465.947478;0.2;0.0;-0.0;-2.1;1.24;0.17;2270.0;2250.0;2203.0;2250.0;39.0;23.0;69.0;78.0;-0.44;0.86;-10.56;0.85;0.54;-0.77
1753881465.952478;0.2;0.0;-0.0;-2.1;1.24;0.17;2270.0;2250.0;2203.0;2250.0;39.0;23.0;69.0;78.0;-0.38;0.96;-10.56;0.76;-0.6;2.92
1753881465.957478;0.2;0.0;-0.0;-2.1;1.24;0.17;2270.0;2250.0;2203.0;2250.0;39.0;23.0;69.0;78.0;-0.54;0.71;-10.64;1.02;0.56;-1.7
1753881465.962478;0.2;0.0;-0.0;-2.1;1.24;0.17;2270.0;2250.0;2203.0;2250.0;39.0;23.0;69.0;78.0;-0.42;0.76;-10.59;0.93;0.73;-1.26
1753881465.967478;0.2;0.0;-0.0;-2.1;1.24;0.17;2270.0;2250.0;2203.0;2250.0;39.0;23.0;69.0;78.0;-0.33;0.83;-10.67;0.64;-0.74;4.1
1753881465.972478;0.2;0.0;-0.0;-2.1;1.24;0.17;2270.0;2250.0;2203.0;2250.0;39.0;23.0;69.0;78.0;-0.46;0.57;-10.75;0.69;-0.03;-0.14
1753881465.977478;0.2;0.0;-0.0;-2.1;1.24;0.17;2270.0;2250.0;2203.0;2250.0;39.0;23.0;69.0;78.0;-0.43;0.48;-10.68;1.02;0.44;-1.35
1753881465.982478;0.2;0.0;-0.0;-2.1;1.24;0.17;2270.0;2250.0;2203.0;2250.0;39.0;23.0;69.0;78.0;-0.32;0.56;-10.62;0.83;-0.2;3.63
1753881465.987478;0.2;0.0;-0.0;-2.1;1.24;0.17;2270.0;2250.0;2203.0;2250.0;39.0;23.0;69.0;78.0;-0.32;0.39;-10.68;0.74;-0.16;2.09
1753881465.992478;0.2;0.0;-0.0;-2.1;1.24;0.17;2270.0;2250.0;2203.0;2250.0;39.0;23.0;69.0;78.0;-0.35;0.26;-10.81;0.95;0.29;-1.11
1753881465.997478;0.2;0.0;-0.0;-2.1;1.24;0.17;2270.0;2250.0;2203.0;2250.0;39.0;23.0;69.0;78.0;-0.27;0.4;-10.78;1.02;-0.32;3.02
1753881466.002478;0.2;0.0;-0.0;-2.1;1.24;0.17;2270.0;2250.0;2203.0;2250.0;39.0;23.0;69.0;78.0;-0.27;0.3;-10.67;0.7;-0.05;3.12
1753881466.007478;0.2;0.0;-0.0;-2.1;1.24;0.17;2270.0;2250.0;2203.0;2250.0;39.0;23.0;69.0;78.0;-0.31;0.13;-10.64;0.87;0.59;-0.25
1753881466.012478;0.2;0.0;-0.0;-2.1;1.24;0.17;2270.0;2250.0;2203.0;2250.0;39.0;23.0;69.0;78.0;-0.24;0.27;-10.69;1.09;0.32;1.16
1753881466.017478;0.2;0.0;-0.0;-2.1;1.24;0.17;2270.0;2250.0;2203.0;2250.0;39.0;23.0;69.0;78.0;-0.22;0.21;-10.69;0.61;-0.13;4.07
1753881466.022478;0.2;0.0;-0.0;-2.1;1.24;0.17;2270.0;2250.0;2203.0;2250.0;39.0;23.0;69.0;78.0;-0.25;0.05;-10.65;1.06;0.71;0.45
1753881466.027478;0.2;0.0;-0.0;-2.1;1.24;0.17;2270.0;2250.0;2203.0;2250.0;39.0;23.0;69.0;78.0;-0.22;0.16;-10.6;1.35;0.88;0.63
1753881466.032478;0.2;0.0;-0.0;-2.1;1.24;0.17;2270.0;2250.0;2203.0;2250.0;39.0;23.0;69.0;78.0;-0.15;0.22;-10.58;1.15;0.05;4.82
1753881466.037478;0.2;0.0;-0.0;-2.1;1.24;0.17;2270.0;2250.0;2203.0;2250.0;39.0;23.0;69.0;78.0;-0.15;0.09;-10.63;1.48;0.66;1.81
1753881466.042478;0.2;0.0;-0.0;-2.1;1.24;0.17;2270.0;2250.0;2203.0;2250.0;39.0;23.0;69.0;78.0;-0.16;0.1;-10.61;1.5;1.22;0.19
1753881466.047478;0.2;0.0;-0.0;-2.1;1.24;0.17;2270.0;2250.0;2203.0;2250.0;39.0;23.0;69.0;78.0;-0.12;0.22;-10.55;1.02;0.28;3.92
1753881466.052478;0.2;0.0;-0.0;-2.1;1.24;0.17;2270.0;2250.0;2203.0;2250.0;39.0;23.0;69.0;78.0;-0.15;0.01;-10.61;0.41;-0.06;4.63
1753881466.057478;0.2;0.0;-0.0;-2.1;1.24;0.17;2270.0;2250.0;2203.0;2250.0;39.0;23.0;69.0;78.0;0.01;0.41;-10.67;1.28;0.99;2.57
1753881466.062478;0.2;0.0;-0.0;-2.1;1.24;0.17;2270.0;2250.0;2203.0;2250.0;39.0;23.0;69.0;78.0;-0.01;0.34;-10.61;1.05;0.15;3.26
1753881466.067478;0.2;0.0;-0.0;-2.1;1.24;0.17;2270.0;2250.0;2203.0;2250.0;39.0;23.0;69.0;78.0;-0.03;0.04;-10.56;0.79;0.68;0.14
1753881466.072478;0.2;0.0;-0.0;-2.1;1.24;0.17;2270.0;2250.0;2203.0;2250.0;39.0;23.0;69.0;78.0;0.02;0.33;-10.59;1.48;1.2;2.26
1753881466.077479;0.2;0.0;-0.0;-2.1;1.24;0.17;2270.0;2250.0;2203.0;2250.0;39.0;23.0;69.0;78.0;-0.06;0.94;-10.58;1.24;0.74;1.35
1753881466.082479;0.2;0.0;-0.0;-2.1;1.24;0.17;2270.0;2250.0;2203.0;2250.0;39.0;23.0;69.0;78.0;0.1;0.66;-10.62;0.84;0.11;3.75
1753881466.087479;0.2;0.0;-0.0;-2.1;1.24;0.17;2270.0;2250.0;2203.0;2250.0;39.0;23.0;69.0;78.0;0.0;0.13;-10.55;1.24;-0.07;3.47
1753881466.092479;0.2;0.0;-0.0;-2.1;1.24;0.17;2270.0;2250.0;2203.0;2250.0;39.0;23.0;69.0;78.0;-0.08;0.6;-10.56;1.03;1.0;1.94
1753881466.097479;0.2;0.0;-0.0;-2.1;1.24;0.17;2270.0;2250.0;2203.0;2250.0;39.0;23.0;69.0;78.0;0.01;0.82;-10.59;1.13;0.33;2.72
1753881466.102479;0.2;0.0;-0.0;-2.1;1.24;0.17;2270.0;2250.0;2203.0;2250.0;39.0;23.0;69.0;78.0;0.17;0.36;-10.63;1.27;1.14;4.78
1753881466.107479;0.2;0.0;-0.0;-2.1;1.24;0.17;2270.0;2250.0;2203.0;2250.0;39.0;23.0;69.0;78.0;0.24;0.77;-10.62;1.05;0.27;0.8
1753881466.11248;0.2;0.0;-0.0;-2.1;1.24;0.17;2270.0;2250.0;2203.0;2250.0;39.0;23.0;69.0;78.0;0.15;1.19;-10.63;1.5;0.13;0.43
1753881466.11748;0.2;0.0;-0.0;-2.1;1.24;0.17;2270.0;2250.0;2203.0;2250.0;39.0;23.0;69.0;78.0;-0.01;0.92;-10.76;0.88;0.02;-0.13
1753881466.12248;0.2;0.0;-0.0;-2.1;1.24;0.17;2270.0;2250.0;2203.0;2250.0;39.0;23.0;69.0;78.0;-0.07;0.83;-10.64;1.11;0.02;-1.02
1753881466.12748;0.2;0.0;-0.0;-2.1;1.24;0.17;2270.0;2250.0;2203.0;2250.0;39.0;23.0;69.0;78.0;0.23;0.88;-10.69;1.33;0.73;5.08
1753881466.132478;0.2;0.0;-0.0;-2.1;1.24;0.17;2270.0;2250.0;2203.0;2250.0;39.0;23.0;69.0;78.0;0.28;0.86;-10.66;0.97;0.03;0.22
1753881466.137478;0.2;0.0;-0.0;-2.1;1.24;0.17;2270.0;2250.0;2203.0;2250.0;39.0;23.0;69.0;78.0;0.28;0.73;-10.65;1.17;0.54;-2.78
1753881466.142478;0.2;0.0;-0.0;-2.1;1.24;0.17;2270.0;2250.0;2203.0;2250.0;39.0;23.0;69.0;78.0;0.33;0.79;-10.64;1.19;0.33;-1.4
1753881466.147478;0.2;0.0;-0.0;-2.1;1.24;0.17;2270.0;2250.0;2203.0;2250.0;39.0;23.0;69.0;78.0;0.33;0.74;-10.63;1.24;-0.09;0.45
1753881466.152478;0.2;0.0;-0.0;-2.1;1.24;0.17;2270.0;2250.0;2203.0;2250.0;39.0;23.0;69.0;78.0;0.29;0.52;-10.69;1.26;0.28;-0.78
1753881466.157478;0.2;0.0;-0.0;-2.1;1.24;0.17;2270.0;2250.0;2203.0;2250.0;39.0;23.0;69.0;78.0;0.35;0.39;-10.72;1.26;0.47;-1.9
1753881466.162478;0.2;0.0;-0.0;-2.1;1.24;0.17;2270.0;2250.0;2203.0;2250.0;39.0;23.0;69.0;78.0;0.45;0.41;-10.7;1.33;-0.06;1.33
1753881466.167478;0.2;0.0;-0.0;-2.1;1.24;0.17;2270.0;2250.0;2203.0;2250.0;39.0;23.0;69.0;78.0;0.36;0.29;-10.75;0.96;0.31;1.08
1753881466.172478;0.2;0.0;-0.0;-2.1;1.24;0.17;2270.0;2250.0;2203.0;2250.0;39.0;23.0;69.0;78.0;0.39;0.19;-10.74;1.03;0.64;-0.88
1753881466.177478;0.2;0.0;-0.0;-2.1;1.24;0.17;2270.0;2250.0;2203.0;2250.0;39.0;23.0;69.0;78.0;0.42;0.25;-10.69;1.06;0.08;1.5
1753881466.182478;0.2;0.0;-0.0;-2.1;1.24;0.17;2270.0;2250.0;2203.0;2250.0;39.0;23.0;69.0;78.0;0.4;0.16;-10.72;0.84;-0.16;3.16
1753881466.187478;0.2;0.0;-0.0;-2.1;1.24;0.17;2270.0;2250.0;2203.0;2250.0;39.0;23.0;69.0;78.0;0.39;0.03;-10.77;0.84;0.38;-0.35
1753881466.192478;0.2;0.0;-0.0;-2.1;1.24;0.17;2270.0;2250.0;2203.0;2250.0;39.0;23.0;69.0;78.0;0.41;0.04;-10.75;0.72;0.26;1.89
1753881466.197478;0.2;0.0;-0.0;-2.1;1.24;0.17;2270.0;2250.0;2203.0;2250.0;39.0;23.0;69.0;78.0;0.38;0.0;-10.79;0.61;-0.03;3.34
1753881466.202478;0.2;0.0;-0.0;-2.1;1.24;0.17;2270.0;2250.0;2203.0;2250.0;39.0;23.0;69.0;78.0;0.36;-0.07;-10.79;0.46;0.51;0.66
1753881466.207478;0.2;0.0;-0.0;-2.1;1.24;0.17;2270.0;2250.0;2203.0;2250.0;39.0;23.0;69.0;78.0;0.36;0.02;-10.69;0.69;0.38;1.96
1753881466.212478;0.2;0.0;-0.0;-2.1;1.24;0.17;2270.0;2250.0;2203.0;2250.0;39.0;23.0;69.0;78.0;0.36;0.14;-10.67;0.87;-0.18;3.57
1753881466.217478;0.2;0.0;-0.0;-2.1;1.24;0.17;2270.0;2250.0;2203.0;2250.0;39.0;23.0;69.0;78.0;0.24;0.05;-10.71;0.64;0.35;0.74
1753881466.222478;0.2;0.0;-0.0;-2.1;1.24;0.17;2270.0;2250.0;2203.0;2250.0;39.0;23.0;69.0;78.0;0.28;0.09;-10.64;0.48;0.41;1.68
1753881466.227478;0.2;0.0;-0.0;-2.1;1.24;0.17;2270.0;2250.0;2203.0;2250.0;39.0;23.0;69.0;78.0;0.29;0.14;-10.64;0.51;0.09;3.02
1753881466.232478;0.2;0.0;-0.0;-2.1;1.24;0.17;2270.0;2250.0;2203.0;2250.0;39.0;23.0;69.0;78.0;0.26;-0.29;-10.72;0.6;0.0;2.19
1753881466.237478;0.2;0.0;-0.0;-2.1;1.24;0.17;2270.0;2250.0;2203.0;2250.0;39.0;23.0;69.0;78.0;0.24;-0.17;-10.7;-0.34;-0.05;1.28
1753881466.242478;0.2;0.0;-0.0;-2.1;1.24;0.17;2270.0;2250.0;2203.0;2250.0;39.0;23.0;69.0;78.0;0.41;0.31;-10.62;0.18;-0.02;1.45
1753881466.247478;0.2;0.0;-0.0;-2.1;1.24;0.17;2270.0;2250.0;2203.0;2250.0;39.0;23.0;69.0;78.0;0.14;0.45;-10.61;0.86;-0.04;1.16
1753881466.252478;0.2;0.0;-0.0;-2.1;1.24;0.17;2270.0;2250.0;2203.0;2250.0;39.0;23.0;69.0;78.0;0.26;0.1;-10.64;0.56;-0.38;4.52
1753881466.257479;0.2;0.0;-0.0;-2.1;1.24;0.17;2270.0;2250.0;2203.0;2250.0;39.0;23.0;69.0;78.0;0.37;0.15;-10.67;0.31;0.37;1.2
1753881466.262479;0.2;0.0;-0.0;-2.1;1.24;0.17;2270.0;2250.0;2203.0;2250.0;39.0;23.0;69.0;78.0;0.26;0.08;-10.74;0.95;0.15;2.73
1753881466.267479;0.2;0.0;-0.0;-2.1;1.24;0.17;2270.0;2250.0;2203.0;2250.0;39.0;23.0;69.0;78.0;0.1;0.01;-10.68;0.41;0.46;5.2
1753881466.272479;0.2;0.0;-0.0;-2.1;1.24;0.17;2270.0;2250.0;2203.0;2250.0;39.0;23.0;69.0;78.0;0.1;-0.35;-10.66;0.62;-0.25;3.39
1753881466.277479;0.2;0.0;-0.0;-2.1;1.24;0.17;2270.0;2250.0;2203.0;2250.0;39.0;23.0;69.0;78.0;0.24;0.1;-10.61;1.05;0.0;1.8
1753881466.282479;0.2;0.0;-0.0;-2.1;1.24;0.17;2270.0;2250.0;2203.0;2250.0;39.0;23.0;69.0;78.0;0.16;-0.09;-10.67;-0.16;0.27;4.1
1753881466.28748;0.2;0.0;-0.0;-2.1;1.24;0.17;2270.0;2250.0;2203.0;2250.0;39.0;23.0;69.0;78.0;0.21;0.34;-10.63;0.07;0.26;4.69
1753881466.29248;0.2;0.0;-0.0;-2.1;1.24;0.17;2270.0;2250.0;2203.0;2250.0;39.0;23.0;69.0;78.0;0.16;0.11;-10.67;0.3;0.04;0.96
1753881466.29748;0.2;0.0;-0.0;-2.1;1.24;0.17;2270.0;2250.0;2203.0;2250.0;39.0;23.0;69.0;78.0;0.15;0.24;-10.67;0.83;0.32;3.98
1753881466.30248;0.2;0.0;-0.0;-2.1;1.24;0.17;2270.0;2250.0;2203.0;2250.0;39.0;23.0;69.0;78.0;0.18;0.52;-10.82;-0.05;0.33;-0.89
1753881466.30748;0.2;0.0;-0.0;-2.1;1.24;0.17;2270.0;2250.0;2203.0;2250.0;39.0;23.0;69.0;78.0;0.2;0.39;-10.57;0.97;0.3;1.59
1753881466.31248;0.2;0.0;-0.0;-2.1;1.24;0.17;2270.0;2250.0;2203.0;2250.0;39.0;23.0;69.0;78.0;0.3;0.27;-10.57;0.53;0.34;1.41
1753881466.31748;0.2;0.0;-0.0;-2.1;1.24;0.17;2270.0;2250.0;2203.0;2250.0;39.0;23.0;69.0;78.0;0.14;0.44;-10.69;0.42;0.04;-0.65
1753881466.322478;0.2;0.0;-0.0;-2.1;1.24;0.17;2270.0;2250.0;2203.0;2250.0;39.0;23.0;69.0;78.0;0.13;0.28;-10.65;0.79;0.09;0.12
1753881466.327478;0.2;0.0;-0.0;-2.1;1.24;0.17;2270.0;2250.0;2203.0;2250.0;39.0;23.0;69.0;78.0;0.12;0.37;-10.61;1.81;-0.02;1.04
1753881466.332478;0.2;0.0;-0.0;-2.1;1.24;0.17;2270.0;2250.0;2203.0;2250.0;39.0;23.0;69.0;78.0;0.18;0.42;-10.61;1.01;-0.51;3.54
1753881466.337478;0.2;0.0;-0.0;-2.1;1.24;0.17;2270.0;2250.0;2203.0;2250.0;39.0;23.0;69.0;78.0;0.07;0.35;-10.62;1.24;0.99;-1.51
1753881466.342478;0.2;0.0;-0.0;-2.1;1.24;0.17;2270.0;2250.0;2203.0;2250.0;39.0;23.0;69.0;78.0;0.03;0.43;-10.64;1.28;0.87;0.06
1753881466.347478;0.2;0.0;-0.0;-2.1;1.24;0.17;2270.0;2250.0;2203.0;2250.0;39.0;23.0;69.0;78.0;0.06;0.5;-10.68;1.0;-0.19;2.76
1753881466.352478;0.2;0.0;-0.0;-2.1;1.24;0.17;2270.0;2250.0;2203.0;2250.0;39.0;23.0;69.0;78.0;-0.01;0.44;-10.64;1.09;0.77;-1.73
1753881466.357478;0.2;0.0;-0.0;-2.1;1.24;0.17;2270.0;2250.0;2203.0;2250.0;39.0;23.0;69.0;78.0;-0.02;0.46;-10.55;1.3;0.77;-0.45
1753881466.362478;0.2;0.0;-0.0;-2.1;1.24;0.17;2270.0;2250.0;2203.0;2250.0;39.0;23.0;69.0;78.0;0.0;0.51;-10.59;1.15;0.0;3.3
1753881466.367478;0.2;0.0;-0.0;-2.1;1.24;0.17;2270.0;2250.0;2203.0;2250.0;39.0;23.0;69.0;78.0;-0.08;0.37;-10.7;1.15;0.75;-2.12
1753881466.372478;0.2;0.0;-0.0;-2.1;1.24;0.17;2270.0;2250.0;2203.0;2250.0;39.0;23.0;69.0;78.0;-0.08;0.34;-10.67;0.77;0.45;-0.77
1753881466.377478;0.2;0.0;-0.0;-2.1;1.24;0.17;2270.0;2250.0;2203.0;2250.0;39.0;23.0;69.0;78.0;-0.01;0.43;-10.59;0.87;-0.02;2.96
1753881466.382478;0.2;0.0;-0.0;-2.1;1.24;0.17;2270.0;2250.0;2203.0;2250.0;39.0;23.0;69.0;78.0;-0.06;0.27;-10.67;1.23;0.86;-0.54
1753881466.387478;0.3;0.0;-0.0;-1.9;1.05;0.18;2072.6;2174.7;1954.3;2052.2;44.2;24.3;66.5;62.6;-0.11;0.28;-10.59;1.09;0.54;0.47
1753881466.392478;0.4;0.0;-0.0;-1.6;0.8;0.18;1876.0;2003.0;1883.0;1950.0;46.0;25.0;63.0;57.0;0.03;0.34;-10.66;1.11;-0.24;3.57
1753881466.397478;0.4;0.0;-0.0;-1.6;0.8;0.18;1876.0;2003.0;1883.0;1950.0;46.0;25.0;63.0;57.0;-0.02;0.19;-10.66;0.99;0.76;0.77
1753881466.402478;0.4;0.0;-0.0;-1.6;0.8;0.18;1876.0;2003.0;1883.0;1950.0;46.0;25.0;63.0;57.0;-0.03;0.13;-10.62;0.83;0.75;-0.35
1753881466.407478;0.4;0.0;-0.0;-1.6;0.8;0.18;1876.0;2003.0;1883.0;1950.0;46.0;25.0;63.0;57.0;0.1;0.23;-10.65;0.9;-0.19;3.54
1753881466.412478;0.4;0.0;-0.0;-1.6;0.8;0.18;1876.0;2003.0;1883.0;1950.0;46.0;25.0;63.0;57.0;0.02;0.18;-10.73;1.06;0.57;2.03
1753881466.417478;0.4;0.0;-0.0;-1.6;0.8;0.18;1876.0;2003.0;1883.0;1950.0;46.0;25.0;63.0;57.0;0.0;0.12;-10.68;0.94;0.79;0.09
1753881466.422478;0.4;0.0;-0.0;-1.6;0.8;0.18;1876.0;2003.0;1883.0;1950.0;46.0;25.0;63.0;57.0;0.13;0.3;-10.59;0.9;0.03;2.56
1753881466.427478;0.4;0.0;-0.0;-1.6;0.8;0.18;1876.0;2003.0;1883.0;1950.0;46.0;25.0;63.0;57.0;0.06;0.34;-10.64;0.84;0.41;2.4
1753881466.432478;0.5;0.0;-0.0;-1.9;0.87;0.19;1997.0;1935.7;1787.1;2093.4;38.2;24.0;64.0;56.5;0.03;0.41;-10.67;0.94;0.65;0.41
1753881466.437478;0.4;0.0;-0.0;-1.6;0.75;0.18;1908.8;1997.9;1958.4;1864.8;49.1;24.6;59.4;67.4;0.09;0.27;-10.56;0.66;0.66;3.25
1753881466.442478;0.4;0.0;-0.0;-1.5;0.87;0.18;1649.0;1972.5;1765.2;2098.1;49.6;24.2;61.3;51.2;0.09;0.54;-10.67;0.69;0.73;4.1
1753881466.447478;0.4;0.0;-0.0;-1.3;1.11;0.18;1472.6;2068.1;2072.3;1934.4;47.4;24.9;59.5;60.2;0.15;0.17;-10.62;0.79;1.08;2.9
1753881466.452479;0.3;0.0;-0.0;-1.9;1.25;0.18;2052.5;2115.1;1883.8;1912.3;49.2;26.0;66.1;51.2;0.01;0.42;-10.69;0.52;0.78;0.19
1753881466.457479;0.3;0.0;-0.0;-1.5;0.62;0.19;1718.9;2034.5;2508.6;1714.6;45.4;23.1;60.6;61.8;0.05;0.38;-10.62;0.61;0.2;0.68
1753881466.462479;0.4;0.0;-0.0;-1.3;0.9;0.18;1409.5;1987.4;1961.5;2145.8;48.1;25.2;62.1;71.2;0.23;0.26;-10.73;0.44;0.79;2.83
1753881466.467479;0.4;0.0;-0.0;-1.8;0.85;0.18;1646.6;1966.2;1840.4;1972.0;43.0;23.9;58.9;59.3;0.08;0.44;-10.66;0.59;0.44;1.32
1753881466.472479;0.4;0.0;-0.0;-1.5;0.47;0.17;2052.8;2063.3;1992.9;2004.3;45.3;22.5;63.5;65.0;-0.09;0.33;-10.56;0.44;1.15;-2.39
1753881466.477478;0.4;0.0;-0.0;-1.6;0.8;0.18;1876.0;2003.0;1883.0;1950.0;46.0;25.0;63.0;57.0;0.05;0.32;-10.64;0.53;0.93;0.49
1753881466.482478;0.5;0.0;-0.0;-1.7;0.88;0.18;1312.8;2997.4;2111.3;1447.6;62.0;131.6;82.9;40.1;0.42;0.4;-10.59;0.32;1.18;0.66
1753881466.487478;0.5;0.0;-0.0;-1.3;0.82;0.17;2033.8;1861.1;2072.9;2223.4;61.6;85.5;70.4;-10.3;-0.49;0.23;-10.65;0.91;1.13;1.8
1753881466.492478;0.4;0.0;-0.0;-2.0;1.47;0.18;1271.4;2356.7;1857.1;1818.6;136.7;48.9;54.6;56.8;1.52;0.31;-10.67;0.77;1.04;0.18
1753881466.497478;0.3;0.0;-0.0;-1.8;1.54;0.17;1954.6;3045.2;1815.6;2031.8;8.4;102.4;76.7;245.1;0.66;0.46;-10.62;0.86;0.45;0.04
1753881466.502478;0.3;0.0;-0.0;-1.7;1.22;0.17;2372.8;2748.1;2504.7;3855.5;56.6;46.3;84.3;81.9;0.71;0.3;-10.62;-0.01;1.18;1.69
1753881466.507479;0.3;0.0;-0.0;-1.7;1.19;0.17;1891.6;3436.2;1422.5;3123.6;170.8;25.5;65.6;112.8;-0.32;0.35;-10.61;1.02;1.15;0.7
1753881466.512479;0.4;0.0;-0.0;-1.7;0.84;0.18;2873.6;3132.7;2489.8;3174.3;142.3;142.9;108.9;102.0;0.36;0.18;-10.64;0.72;1.13;2.93
1753881466.517479;0.4;0.0;-0.0;-2.0;0.72;0.18;1704.7;1911.6;2644.9;4061.1;150.0;150.5;79.4;243.2;0.53;0.34;-10.58;0.03;1.09;-1.25
1753881466.522479;0.4;0.0;-0.0;-1.5;0.63;0.18;2321.0;2836.1;1859.1;2252.1;218.1;168.9;82.7;171.3;0.59;0.43;-10.56;0.86;1.22;0.52
1753881466.527479;0.4;0.0;-0.0;-1.6;1.57;0.17;2471.1;3095.7;2977.8;2850.0;206.4;59.1;79.9;-46.7;0.77;0.33;-10.59;0.58;0.08;0.71
1753881466.532479;0.5;0.0;-0.0;-1.5;1.29;0.18;3892.3;3098.7;3410.9;2552.5;33.8;204.1;113.7;293.9;0.88;0.23;-10.62;1.1;1.21;0.4
1753881466.53748;0.4;0.0;-0.0;-1.9;1.22;0.18;2471.0;3899.6;1935.3;3286.4;191.2;89.8;115.1;321.5;-0.04;0.08;-10.57;-0.2;0.63;1.42
1753881466.54248;0.4;0.0;-0.0;-2.2;1.51;0.17;1111.7;2852.6;2286.1;1986.0;158.6;72.5;168.6;298.9;0.18;0.27;-10.58;0.16;-0.05;0.85
1753881466.54748;0.4;0.0;-0.0;-1.8;1.87;0.18;3095.5;2671.0;3175.6;2320.9;234.9;86.8;118.5;243.1;1.16;0.17;-10.57;-0.45;1.53;2.96
1753881466.55248;0.4;0.0;-0.0;-1.5;0.73;0.18;2335.6;2722.1;4103.5;2933.4;116.1;93.9;112.1;348.0;2.32;0.17;-10.62;0.86;1.23;1.65
1753881466.55748;0.4;0.0;-0.0;-1.8;2.28;0.17;3169.6;3169.7;3400.1;3455.4;217.0;97.1;159.3;244.5;2.29;0.16;-10.55;0.52;1.47;5.31
1753881466.56248;0.2;0.0;-0.0;-1.4;1.87;0.18;3592.8;3257.0;2198.2;4115.0;222.9;56.2;144.5;240.6;0.75;0.15;-10.61;0.32;0.98;3.09
1753881466.56748;0.4;0.0;-0.0;-1.8;1.29;0.18;2799.5;3484.9;3054.1;3988.7;258.4;136.4;149.7;141.0;1.86;-0.1;-10.69;0.3;1.21;0.66
1753881466.57248;0.4;0.0;-0.0;-1.9;1.62;0.17;1809.0;3920.9;3619.7;4286.7;245.7;152.2;164.0;97.0;1.15;0.23;-10.59;0.31;0.2;0.77
1753881466.57748;0.5;0.0;-0.0;-1.4;1.86;0.18;3995.3;3174.5;3645.5;3541.6;39.4;100.1;158.6;212.1;0.37;-0.05;-10.63;-0.03;0.49;2.22
1753881466.58248;0.4;0.0;-0.0;-1.7;1.19;0.17;3211.7;5042.8;2906.5;3480.7;324.5;211.5;172.2;272.7;2.56;0.3;-10.58;0.41;1.13;0.96
