DeviceID;Timestamp;Temperature;GyroX;GyroY;GyroZ;AccelX;AccelY;AccelZ;Dist1;Dist2;Dist3;Err1;Err2;Err3
1.0;1753881461.542353;17.492188;1.05;-1.61;0.21;0.28792;0.944524;0.041114;0.0;0.0;0.0;0.0;0.0;0.0
1.0;1753881461.546946;17.449219;1.12;-1.54;0.14;0.28914;0.942816;0.041358;0.0;0.0;0.0;0.0;0.0;0.0
1.0;1753881461.551545;17.446761;0.29;-1.32;3.85;0.357521;0.927205;0.057725;0.0;0.4;-0.1;0.0;-0.0;0.0
1.0;1753881461.556034;17.449219;1.12;-1.68;0.21;0.28914;0.942572;0.041968;0.0;0.0;0.0;0.0;0.0;0.0
1.0;1753881461.560673;17.449219;1.12;-1.68;0.14;0.28914;0.944524;0.041236;0.0;0.0;0.0;0.0;0.0;0.0
1.0;1753881461.56567;17.523438;1.19;-1.61;0.07;0.289384;0.94123;0.0427;0.0;0.0;0.0;0.0;0.0;0.0
1.0;1753881461.57119;17.523438;1.05;-1.68;0.14;0.28731;0.943182;0.041236;0.0;0.0;0.0;0.0;0.0;0.0
1.0;1753881461.574362;17.523438;1.05;-1.61;0.07;0.28914;0.942206;0.042578;0.0;0.0;0.0;0.0;0.0;0.0
1.0;1753881461.579504;17.523438;1.05;-1.68;0.14;0.289872;0.94184;0.042334;0.0;0.0;0.0;0.0;0.0;0.0
1.0;1753881461.583532;17.515625;1.12;-1.61;0.14;0.288286;0.943792;0.042334;0.0;0.0;0.0;0.0;0.0;0.0
1.0;1753881461.588108;17.515625;1.05;-1.54;0.14;0.28975;0.942694;0.0427;0.0;0.0;0.0;0.0;0.0;0.0
1.0;1753881461.593373;17.515625;1.12;-1.61;0.07;0.288896;0.942572;0.041602;0.0;0.0;0.0;0.0;0.0;0.0
1.0;1753881461.597624;17.515625;1.19;-1.68;0.0;0.289994;0.943914;0.042578;0.0;0.0;0.0;0.0;0.0;0.0
1.0;1753881461.60371;17.492188;1.05;-1.61;0.14;0.289018;0.942572;0.040504;0.0;0.0;0.0;0.0;0.0;0.0
1.0;1753881461.606402;17.492188;1.05;-1.68;0.14;0.29036;0.941962;0.041846;0.0;0.0;0.0;0.0;0.0;0.0
1.0;1753881461.610969;17.492188;0.98;-1.61;0.14;0.288042;0.943304;0.042334;0.0;0.0;0.0;0.0;0.0;0.0
1.0;1753881461.619423;17.492188;1.05;-1.61;0.14;0.289506;0.942816;0.042212;0.0;0.0;0.0;0.0;0.0;0.0
1.0;1753881461.620064;17.515625;1.12;-1.68;0.0;0.289506;0.941962;0.042212;0.0;0.0;0.0;0.0;0.0;0.0
1.0;1753881461.624698;17.515625;1.05;-1.68;0.0;0.28853;0.94306;0.042212;0.0;0.0;0.0;0.0;0.0;0.0
1.0;1753881461.629261;17.515625;1.05;-1.61;0.0;0.291458;0.942816;0.040626;0.0;0.0;0.0;0.0;0.0;0.0
1.0;1753881461.633834;17.515625;1.05;-1.75;0.07;0.289872;0.94306;0.041114;0.0;0.0;0.0;0.0;0.0;0.0
1.0;1753881461.638404;17.507812;1.05;-1.47;0.07;0.288774;0.942084;0.040626;0.0;0.0;0.0;0.0;0.0;0.0
1.0;1753881461.642976;17.507812;1.05;-1.61;0.14;0.289018;0.94306;0.042334;0.0;0.0;0.0;0.0;0.0;0.0
1.0;1753881461.647575;17.553586;1.04;-1.57;0.07;0.287584;0.943319;0.042877;0.0;0.0;0.0;0.0;0.0;0.0
1.0;1753881461.652398;17.507812;1.12;-1.61;0.07;0.287676;0.944036;0.041724;0.0;0.0;0.0;0.0;0.0;0.0
1.0;1753881461.657235;17.492188;1.05;-1.54;0.07;0.291214;0.94184;0.041968;0.0;0.0;0.0;0.0;0.0;0.0
1.0;1753881461.661297;17.492188;0.98;-1.75;0.07;0.28853;0.94184;0.042456;0.0;0.0;0.0;0.0;0.0;0.0
1.0;1753881461.669206;17.492188;1.05;-1.68;0.07;0.287432;0.942816;0.041236;0.0;0.0;0.0;0.0;0.0;0.0
1.0;1753881461.670369;17.492188;1.05;-1.68;0.07;0.28975;0.944402;0.041724;0.0;0.0;0.0;0.0;0.0;0.0
1.0;1753881461.67489;17.523438;0.98;-1.68;0.07;0.28975;0.944402;0.041724;0.0;0.0;0.0;0.0;0.0;0.0
1.0;1753881461.679781;17.523438;1.05;-1.68;0.07;0.288896;0.942938;0.041968;0.0;0.0;0.0;0.0;0.0;0.0
1.0;1753881461.684034;17.523438;1.12;-1.68;0.0;0.288896;0.942938;0.041968;0.0;0.0;0.0;0.0;0.0;0.0
1.0;1753881461.688708;17.523438;1.12;-1.68;0.0;0.287554;0.942328;0.040748;0.0;0.0;0.0;0.0;0.0;0.0
1.0;1753881461.693285;17.5;1.05;-1.54;0.07;0.290116;0.943182;0.041968;0.0;0.0;0.0;0.0;0.0;0.0
1.0;1753881461.701621;17.5;1.05;-1.61;0.07;0.28853;0.94306;0.041602;0.0;0.0;0.0;0.0;0.0;0.0
1.0;1753881461.70237;17.5;1.12;-1.68;0.07;0.289872;0.942206;0.041358;0.0;0.0;0.0;0.0;0.0;0.0
1.0;1753881461.70719;17.5;1.05;-1.61;0.07;0.290116;0.942206;0.041724;0.0;0.0;0.0;0.0;0.0;0.0
1.0;1753881461.712566;17.476562;1.12;-1.68;0.14;0.287798;0.943792;0.041724;0.0;0.0;0.0;0.0;0.0;0.0
1.0;1753881461.718195;17.476562;1.19;-1.61;0.14;0.289994;0.94184;0.042212;0.0;0.0;0.0;0.0;0.0;0.0
1.0;1753881461.720971;17.476562;1.05;-1.68;0.21;0.287676;0.942328;0.041968;0.0;0.0;0.0;0.0;0.0;0.0
1.0;1753881461.726296;17.476562;1.05;-1.68;0.07;0.289872;0.942816;0.042334;0.0;0.0;0.0;0.0;0.0;0.0
1.0;1753881461.730203;17.476562;1.05;-1.75;0.07;0.290116;0.941718;0.041602;0.0;0.0;0.0;0.0;0.0;0.0
1.0;1753881461.734439;17.476562;1.12;-1.68;0.07;0.288042;0.944646;0.040626;0.0;0.0;0.0;0.0;0.0;0.0
1.0;1753881461.739011;17.476562;1.05;-1.61;0.14;0.291336;0.942816;0.042334;0.0;0.0;0.0;0.0;0.0;0.0
1.0;1753881461.743596;17.476562;1.12;-1.61;0.21;0.28914;0.943548;0.04148;0.0;0.0;0.0;0.0;0.0;0.0
1.0;1753881461.751427;17.515625;1.12;-1.68;0.14;0.28853;0.94306;0.041846;0.0;0.0;0.0;0.0;0.0;0.0
1.0;1753881461.7532;17.515625;1.12;-1.68;0.07;0.288164;0.94367;0.041968;0.0;0.0;0.0;0.0;0.0;0.0
1.0;1753881461.757689;17.515625;1.05;-1.54;0.07;0.289994;0.942938;0.041724;0.0;0.0;0.0;0.0;0.0;0.0
1.0;1753881461.762288;17.531436;1.1;-1.55;0.08;0.288685;0.944185;0.040569;0.0;0.0;0.0;0.0;0.0;0.0
1.0;1753881461.768836;17.5;1.05;-1.61;0.21;0.288896;0.94428;0.040626;0.0;0.0;0.0;0.0;0.0;0.0
1.0;1753881461.771021;17.5;1.12;-1.61;0.07;0.29158;0.941596;0.043066;0.0;0.0;0.0;0.0;0.0;0.0
1.0;1753881461.775609;17.5;1.12;-1.68;0.14;0.287676;0.94367;0.041602;0.0;0.0;0.0;0.0;0.0;0.0
1.0;1753881461.780052;17.5;1.19;-1.68;0.07;0.287676;0.94367;0.041602;0.0;0.0;0.0;0.0;0.0;0.0
1.0;1753881461.786246;17.507812;0.98;-1.54;0.0;0.29036;0.942084;0.042212;0.0;0.0;0.0;0.0;0.0;0.0
1.0;1753881461.790097;17.507812;0.98;-1.61;0.07;0.287432;0.944036;0.041724;0.0;0.0;0.0;0.0;0.0;0.0
1.0;1753881461.793769;17.507812;1.19;-1.54;0.0;0.287432;0.944036;0.041724;0.0;0.0;0.0;0.0;0.0;0.0
1.0;1753881461.80048;17.507812;0.98;-1.68;0.07;0.286822;0.94489;0.04148;0.0;0.0;0.0;0.0;0.0;0.0
1.0;1753881461.802982;17.484375;1.12;-1.68;0.0;0.289994;0.943182;0.04087;0.0;0.0;0.0;0.0;0.0;0.0
1.0;1753881461.807553;17.484375;1.05;-1.68;0.07;0.289384;0.943792;0.041236;0.0;0.0;0.0;0.0;0.0;0.0
1.0;1753881461.816235;17.484375;1.05;-1.68;0.07;0.288896;0.941962;0.04148;0.0;0.0;0.0;0.0;0.0;0.0
1.0;1753881461.816694;17.484375;1.05;-1.68;0.0;0.290116;0.942328;0.04148;0.0;0.0;0.0;0.0;0.0;0.0
1.0;1753881461.821302;17.492188;1.12;-1.68;0.14;0.289384;0.942572;0.041114;0.0;0.0;0.0;0.0;0.0;0.0
1.0;1753881461.825893;17.492188;1.05;-1.54;0.14;0.290604;0.943548;0.041968;0.0;0.0;0.0;0.0;0.0;0.0
1.0;1753881461.830463;17.492188;0.98;-1.68;0.14;0.28853;0.943182;0.04209;0.0;0.0;0.0;0.0;0.0;0.0
1.0;1753881461.83504;17.492188;1.12;-1.61;0.14;0.289384;0.943304;0.041846;0.0;0.0;0.0;0.0;0.0;0.0
1.0;1753881461.839617;17.523438;1.12;-1.68;0.07;0.288408;0.941596;0.041724;0.0;0.0;0.0;0.0;0.0;0.0
1.0;1753881461.848087;17.523438;1.12;-1.75;0.07;0.286578;0.94489;0.039772;0.0;0.0;0.0;0.0;0.0;0.0
1.0;1753881461.848701;17.523438;1.12;-1.61;0.14;0.290238;0.941718;0.041358;0.0;0.0;0.0;0.0;0.0;0.0
1.0;1753881461.854892;17.523438;0.98;-1.61;0.07;0.28975;0.943792;0.041724;0.0;0.0;0.0;0.0;0.0;0.0
1.0;1753881461.858477;17.46875;0.98;-1.68;0.14;0.28792;0.943182;0.041236;0.0;0.0;0.0;0.0;0.0;0.0
1.0;1753881461.866439;17.46875;0.98;-1.68;0.07;0.29036;0.94306;0.0427;0.0;0.0;0.0;0.0;0.0;0.0
1.0;1753881461.866991;17.46875;1.12;-1.61;0.14;0.28914;0.94245;0.041968;0.0;0.0;0.0;0.0;0.0;0.0
1.0;1753881461.871518;17.46875;1.12;-1.75;0.14;0.28914;0.94245;0.041968;0.0;0.0;0.0;0.0;0.0;0.0
1.0;1753881461.876164;17.5;1.05;-1.61;0.07;0.28975;0.942328;0.041114;0.0;0.0;0.0;0.0;0.0;0.0
1.0;1753881461.880716;17.5;1.05;-1.68;0.07;0.289872;0.942816;0.04209;0.0;0.0;0.0;0.0;0.0;0.0
1.0;1753881461.886425;17.5;0.98;-1.61;0.14;0.28792;0.944646;0.041358;0.0;0.0;0.0;0.0;0.0;0.0
1.0;1753881461.889862;17.5;1.12;-1.61;0.07;0.29036;0.941718;0.042456;0.0;0.0;0.0;0.0;0.0;0.0
1.0;1753881461.897089;17.484375;1.05;-1.68;0.07;0.286578;0.945012;0.04209;0.0;0.0;0.0;0.0;0.0;0.0
1.0;1753881461.901043;17.484375;1.05;-1.61;0.14;0.287676;0.943792;0.041846;0.0;0.0;0.0;0.0;0.0;0.0
1.0;1753881461.903662;17.484375;1.05;-1.68;0.14;0.289872;0.942694;0.041358;0.0;0.0;0.0;0.0;0.0;0.0
1.0;1753881461.908205;17.484375;0.98;-1.68;0.14;0.28731;0.944036;0.041114;0.0;0.0;0.0;0.0;0.0;0.0
1.0;1753881461.915788;17.484375;0.98;-1.68;0.07;0.289994;0.943792;0.041724;0.0;0.0;0.0;0.0;0.0;0.0
1.0;1753881461.917299;17.484375;0.98;-1.82;0.07;0.28914;0.941962;0.040748;0.0;0.0;0.0;0.0;0.0;0.0
1.0;1753881461.921922;17.484375;1.05;-1.68;0.07;0.286944;0.942816;0.041724;0.0;0.0;0.0;0.0;0.0;0.0
1.0;1753881461.926447;17.484375;1.12;-1.75;0.07;0.288652;0.942084;0.041236;0.0;0.0;0.0;0.0;0.0;0.0
1.0;1753881461.931055;17.492188;0.98;-1.68;0.0;0.287676;0.94245;0.041724;0.0;0.0;0.0;0.0;0.0;0.0
1.0;1753881461.935612;17.492188;0.98;-1.61;0.07;0.288652;0.943426;0.041968;0.0;0.0;0.0;0.0;0.0;0.0
1.0;1753881461.941755;17.492188;1.05;-1.68;0.07;0.290604;0.942938;0.04148;0.0;0.0;0.0;0.0;0.0;0.0
1.0;1753881461.948137;17.492188;1.05;-1.75;0.07;0.289384;0.943792;0.042578;0.0;0.0;0.0;0.0;0.0;0.0
1.0;1753881461.949246;17.484375;0.98;-1.68;0.14;0.289384;0.943792;0.042578;0.0;0.0;0.0;0.0;0.0;0.0
1.0;1753881461.953906;17.484375;1.05;-1.61;0.14;0.289628;0.942694;0.041358;0.0;0.0;0.0;0.0;0.0;0.0
1.0;1753881461.958505;17.499485;1.07;-1.64;0.08;0.289036;0.944254;0.040488;0.0;0.0;0.0;0.0;0.0;0.0
1.0;1753881461.96282;17.484375;1.05;-1.75;0.07;0.288286;0.943548;0.04148;0.0;0.0;0.0;0.0;0.0;0.0
1.0;1753881461.96302;17.484375;1.05;-1.68;0.07;0.288896;0.943182;0.041968;0.0;0.0;0.0;0.0;0.0;0.0
1.0;1753881461.967546;17.449219;1.05;-1.68;0.07;0.288896;0.943182;0.041968;0.0;0.0;0.0;0.0;0.0;0.0
1.0;1753881461.97326;17.449219;1.05;-1.68;0.14;0.289262;0.94367;0.04087;0.0;0.0;0.0;0.0;0.0;0.0
1.0;1753881461.976796;17.449219;1.12;-1.54;0.07;0.289628;0.941718;0.040748;0.0;0.0;0.0;0.0;0.0;0.0
1.0;1753881461.981607;17.449219;1.05;-1.61;0.14;0.289506;0.94306;0.042944;0.0;0.0;0.0;0.0;0.0;0.0
1.0;1753881461.985892;17.492188;1.05;-1.61;0.07;0.289628;0.94367;0.041846;0.0;0.0;0.0;0.0;0.0;0.0
1.0;1753881461.990736;17.492188;1.05;-1.61;0.07;0.289018;0.941962;0.042334;0.0;0.0;0.0;0.0;0.0;0.0
1.0;1753881461.998109;17.492188;1.12;-1.54;0.07;0.28914;0.944524;0.041968;0.0;0.0;0.0;0.0;0.0;0.0
1.0;1753881461.999615;17.492188;1.05;-1.54;0.07;0.291214;0.941474;0.040748;0.0;0.0;0.0;0.0;0.0;0.0
1.0;1753881462.004214;17.505585;0.98;-1.49;0.09;0.292201;0.941168;0.039824;0.0;0.0;0.0;0.0;0.0;0.0
1.0;1753881462.008813;17.497567;1.05;-1.49;0.05;0.291873;0.940957;0.040667;0.0;0.0;0.0;0.0;0.0;0.0
1.0;1753881462.013412;17.498418;1.17;-1.54;0.06;0.290952;0.941902;0.041201;0.0;0.0;0.0;0.0;0.0;0.0
1.0;1753881462.018011;17.487941;1.01;-1.65;0.11;0.289847;0.94232;0.040648;0.0;0.0;0.0;0.0;0.0;0.0
1.0;1753881462.02261;17.439733;1.02;-1.68;0.02;0.28855;0.941124;0.041739;0.0;0.0;0.0;0.0;0.0;0.0
1.0;1753881462.02721;17.472367;1.08;-1.42;0.1;0.289518;0.941408;0.040909;0.0;0.0;0.0;0.0;0.0;0.0
1.0;1753881462.031808;17.435763;1.11;-1.53;0.08;0.291292;0.941264;0.040463;0.0;0.0;0.0;0.0;0.0;0.0
1.0;1753881462.036408;17.494678;1.03;-1.48;0.07;0.290925;0.94143;0.040416;0.0;0.0;0.0;0.0;0.0;0.0
1.0;1753881462.041007;17.486416;1.06;-1.62;0.05;0.29095;0.94229;0.041143;0.0;0.0;0.0;0.0;0.0;0.0
1.0;1753881462.045606;17.468094;1.09;-1.51;0.06;0.290158;0.942844;0.041981;0.0;0.0;0.0;0.0;0.0;0.0
1.0;1753881462.050205;17.484951;1.06;-1.56;0.09;0.291269;0.941832;0.039905;0.0;0.0;0.0;0.0;0.0;0.0
1.0;1753881462.054804;17.488228;1.06;-1.63;0.09;0.289875;0.940533;0.040263;0.0;0.0;0.0;0.0;0.0;0.0
1.0;1753881462.059403;17.47755;0.95;-1.49;0.05;0.292915;0.941365;0.040461;0.0;0.0;0.0;0.0;0.0;0.0
1.0;1753881462.064002;17.496994;1.1;-1.58;0.06;0.291369;0.940814;0.041647;0.0;0.0;0.0;0.0;0.0;0.0
1.0;1753881462.068601;17.494405;1.02;-1.66;0.02;0.292059;0.94077;0.040671;0.0;0.0;0.0;0.0;0.0;0.0
1.0;1753881462.0732;17.468057;0.99;-1.51;0.04;0.289772;0.942765;0.040332;0.0;0.0;0.0;0.0;0.0;0.0
1.0;1753881462.0778;17.478848;1.02;-1.66;0.05;0.289892;0.941176;0.040555;0.0;0.0;0.0;0.0;0.0;0.0
1.0;1753881462.082399;17.458872;0.99;-1.54;0.1;0.289303;0.942724;0.041287;0.0;0.0;0.0;0.0;0.0;0.0
1.0;1753881462.086998;17.46641;0.99;-1.58;0.13;0.288584;0.941754;0.040333;0.0;0.0;0.0;0.0;0.0;0.0
1.0;1753881462.091597;17.483798;1.06;-1.72;0.05;0.292086;0.941719;0.040292;0.0;0.0;0.0;0.0;0.0;0.0
1.0;1753881462.096196;17.502445;1.08;-1.56;0.09;0.29012;0.942573;0.040804;0.0;0.0;0.0;0.0;0.0;0.0
1.0;1753881462.100795;17.467668;1.07;-1.62;0.17;0.289787;0.941321;0.040476;0.0;0.0;0.0;0.0;0.0;0.0
1.0;1753881462.105394;17.469583;0.98;-1.57;0.01;0.289887;0.942482;0.042469;0.0;0.0;0.0;0.0;0.0;0.0
1.0;1753881462.109993;17.469478;1.01;-1.5;0.11;0.290226;0.941298;0.039942;0.0;0.0;0.0;0.0;0.0;0.0
1.0;1753881462.114592;17.465063;1.05;-1.6;0.05;0.289348;0.942753;0.041801;0.0;0.0;0.0;0.0;0.0;0.0
1.0;1753881462.119192;17.455067;0.97;-1.55;0.1;0.290156;0.942478;0.041006;0.0;0.0;0.0;0.0;0.0;0.0
1.0;1753881462.12379;17.477782;1.09;-1.52;0.09;0.288983;0.941262;0.041396;0.0;0.0;0.0;0.0;0.0;0.0
1.0;1753881462.12839;17.459402;1.02;-1.48;0.03;0.290748;0.943024;0.041001;0.0;0.0;0.0;0.0;0.0;0.0
1.0;1753881462.132989;17.477357;1.1;-1.53;0.04;0.289552;0.942055;0.040753;0.0;0.0;0.0;0.0;0.0;0.0
1.0;1753881462.137588;17.490708;1.0;-1.53;-0.01;0.29103;0.942369;0.04184;0.0;0.0;0.0;0.0;0.0;0.0
1.0;1753881462.142187;17.448079;1.03;-1.5;0.14;0.291146;0.941658;0.04129;0.0;0.0;0.0;0.0;0.0;0.0
1.0;1753881462.146786;17.483477;1.1;-1.54;0.06;0.289947;0.943814;0.041002;0.0;0.0;0.0;0.0;0.0;0.0
1.0;1753881462.151385;17.475174;0.95;-1.59;0.1;0.289353;0.942483;0.041417;0.0;0.0;0.0;0.0;0.0;0.0
1.0;1753881462.155984;17.477498;1.05;-1.62;0.06;0.289678;0.943181;0.041509;0.0;0.0;0.0;0.0;0.0;0.0
1.0;1753881462.160583;17.458403;0.95;-1.6;0.09;0.290793;0.94194;0.040381;0.0;0.0;0.0;0.0;0.0;0.0
1.0;1753881462.165182;17.473891;1.1;-1.49;0.05;0.289468;0.942053;0.041262;0.0;0.0;0.0;0.0;0.0;0.0
1.0;1753881462.169782;17.453246;1.05;-1.6;0.04;0.288765;0.944179;0.041059;0.0;0.0;0.0;0.0;0.0;0.0
1.0;1753881462.17438;17.466051;1.02;-1.53;0.04;0.291294;0.941247;0.041852;0.0;0.0;0.0;0.0;0.0;0.0
1.0;1753881462.17898;17.468263;1.03;-1.63;0.07;0.289422;0.943014;0.040681;0.0;0.0;0.0;0.0;0.0;0.0
1.0;1753881462.183579;17.473026;1.02;-1.73;0.08;0.287773;0.942377;0.04129;0.0;0.0;0.0;0.0;0.0;0.0
1.0;1753881462.188178;17.478129;1.01;-1.53;0.04;0.290218;0.942393;0.040896;0.0;0.0;0.0;0.0;0.0;0.0
1.0;1753881462.192777;17.44881;0.96;-1.55;0.06;0.289189;0.943485;0.041931;0.0;0.0;0.0;0.0;0.0;0.0
1.0;1753881462.197376;17.457432;1.09;-1.51;0.11;0.287461;0.944;0.04168;0.0;0.0;0.0;0.0;0.0;0.0
1.0;1753881462.201975;17.505224;1.06;-1.6;0.09;0.288998;0.942342;0.040568;0.0;0.0;0.0;0.0;0.0;0.0
1.0;1753881462.206574;17.483798;1.06;-1.5;0.05;0.287097;0.944231;0.042504;0.0;0.0;0.0;0.0;0.0;0.0
1.0;1753881462.211173;17.471223;1.01;-1.55;0.07;0.289243;0.942357;0.042064;0.0;0.0;0.0;0.0;0.0;0.0
1.0;1753881462.215772;17.467005;0.92;-1.47;0.08;0.288765;0.943959;0.041602;0.0;0.0;0.0;0.0;0.0;0.0
1.0;1753881462.220372;17.488274;0.96;-1.63;0.06;0.289494;0.944451;0.040816;0.0;0.0;0.0;0.0;0.0;0.0
1.0;1753881462.22497;17.457073;0.99;-1.56;0.09;0.289537;0.942156;0.04148;0.0;0.0;0.0;0.0;0.0;0.0
1.0;1753881462.22957;17.480395;0.98;-1.61;0.04;0.288446;0.942824;0.041215;0.0;0.0;0.0;0.0;0.0;0.0
1.0;1753881462.234169;17.441681;1.03;-1.67;0.03;0.290949;0.944404;0.041836;0.0;0.0;0.0;0.0;0.0;0.0
1.0;1753881462.238768;17.471817;1.03;-1.65;0.13;0.288558;0.942102;0.042386;0.0;0.0;0.0;0.0;0.0;0.0
1.0;1753881462.243367;17.463178;0.95;-1.58;0.07;0.288684;0.942914;0.041094;0.0;0.0;0.0;0.0;0.0;0.0
1.0;1753881462.247966;17.457141;1.04;-1.54;0.08;0.289024;0.944055;0.041325;0.0;0.0;0.0;0.0;0.0;0.0
1.0;1753881462.252565;17.438408;1.01;-1.53;0.09;0.288576;0.944384;0.042032;0.0;0.0;0.0;0.0;0.0;0.0
1.0;1753881462.257164;17.476697;1.03;-1.61;0.08;0.288857;0.941013;0.042072;0.0;0.0;0.0;0.0;0.0;0.0
1.0;1753881462.261763;17.462432;0.99;-1.45;0.09;0.287288;0.943162;0.041609;0.0;0.0;0.0;0.0;0.0;0.0
1.0;1753881462.266362;17.458402;1.01;-1.54;0.1;0.287912;0.942866;0.040835;0.0;0.0;0.0;0.0;0.0;0.0
1.0;1753881462.270962;17.451934;1.03;-1.65;0.1;0.291945;0.943551;0.041033;0.0;0.0;0.0;0.0;0.0;0.0
1.0;1753881462.27556;17.438594;1.04;-1.6;0.05;0.288293;0.942764;0.04049;0.0;0.0;0.0;0.0;0.0;0.0
1.0;1753881462.28016;17.499511;1.02;-1.61;0.1;0.287711;0.9453;0.041542;0.0;0.0;0.0;0.0;0.0;0.0
1.0;1753881462.284759;17.479403;1.0;-1.51;0.1;0.287884;0.944076;0.041259;0.0;0.0;0.0;0.0;0.0;0.0
1.0;1753881462.289358;17.461973;1.03;-1.57;0.13;0.288044;0.943601;0.041588;0.0;0.0;0.0;0.0;0.0;0.0
1.0;1753881462.293957;17.465552;1.05;-1.62;0.08;0.288757;0.942759;0.040298;0.0;0.0;0.0;0.0;0.0;0.0
1.0;1753881462.298556;17.472814;1.07;-1.63;0.06;0.289409;0.943942;0.041746;0.0;0.0;0.0;0.0;0.0;0.0
1.0;1753881462.303155;17.445878;1.02;-1.45;0.11;0.287603;0.944093;0.041125;0.0;0.0;0.0;0.0;0.0;0.0
1.0;1753881462.307754;17.445839;1.0;-1.6;0.02;0.288613;0.943738;0.042439;0.0;0.0;0.0;0.0;0.0;0.0
1.0;1753881462.312353;17.433934;0.93;-1.54;0.02;0.28842;0.943082;0.041836;0.0;0.0;0.0;0.0;0.0;0.0
1.0;1753881462.316952;17.453342;1.0;-1.73;0.06;0.287749;0.943132;0.040701;0.0;0.0;0.0;0.0;0.0;0.0
1.0;1753881462.321552;17.464574;0.98;-1.52;0.06;0.288783;0.943815;0.04188;0.0;0.0;0.0;0.0;0.0;0.0
1.0;1753881462.326151;17.442815;1.0;-1.59;0.05;0.286968;0.942407;0.040631;0.0;0.0;0.0;0.0;0.0;0.0
1.0;1753881462.33075;17.45218;1.03;-1.64;0.09;0.288759;0.942987;0.04136;0.0;0.0;0.0;0.0;0.0;0.0
1.0;1753881462.335349;17.473936;1.03;-1.71;0.04;0.287243;0.943778;0.040329;0.0;0.0;0.0;0.0;0.0;0.0
1.0;1753881462.339948;17.462036;1.06;-1.67;0.08;0.286302;0.943494;0.041894;0.0;0.0;0.0;0.0;0.0;0.0
1.0;1753881462.344547;17.481865;1.03;-1.59;0.08;0.288326;0.942704;0.041887;0.0;0.0;0.0;0.0;0.0;0.0
1.0;1753881462.349146;17.430164;1.05;-1.61;0.06;0.287602;0.942814;0.041248;0.0;0.0;0.0;0.0;0.0;0.0
1.0;1753881462.353745;17.432602;1.02;-1.62;0.05;0.289285;0.943799;0.042611;0.0;0.0;0.0;0.0;0.0;0.0
1.0;1753881462.358344;17.456229;1.02;-1.72;0.05;0.287155;0.943535;0.04197;0.0;0.0;0.0;0.0;0.0;0.0
1.0;1753881462.362944;17.456225;0.98;-1.7;0.03;0.288526;0.943895;0.040842;0.0;0.0;0.0;0.0;0.0;0.0
1.0;1753881462.367542;17.478109;0.99;-1.7;0.04;0.287739;0.945793;0.042082;0.0;0.0;0.0;0.0;0.0;0.0
1.0;1753881462.372142;17.452016;0.95;-1.56;0.07;0.288416;0.944628;0.04156;0.0;0.0;0.0;0.0;0.0;0.0
1.0;1753881462.376741;17.43623;0.96;-1.68;0.1;0.288358;0.944724;0.042593;0.0;0.0;0.0;0.0;0.0;0.0
1.0;1753881462.38134;17.460717;1.01;-1.6;0.04;0.287458;0.944984;0.042609;0.0;0.0;0.0;0.0;0.0;0.0
1.0;1753881462.385939;17.448059;0.95;-1.77;0.09;0.288558;0.944831;0.041209;0.0;0.0;0.0;0.0;0.0;0.0
1.0;1753881462.390538;17.423221;0.98;-1.55;0.09;0.288778;0.944403;0.040881;0.0;0.0;0.0;0.0;0.0;0.0
1.0;1753881462.395137;17.447223;0.93;-1.52;0.14;0.285303;0.943817;0.042285;0.0;0.0;0.0;0.0;0.0;0.0
1.0;1753881462.399736;17.452135;0.91;-1.51;0.06;0.286779;0.94591;0.041364;0.0;0.0;0.0;0.0;0.0;0.0
1.0;1753881462.404335;17.412774;0.95;-1.67;0.02;0.287717;0.94318;0.041689;0.0;0.0;0.0;0.0;0.0;0.0
1.0;1753881462.408934;17.436271;0.96;-1.5;0.09;0.288286;0.944032;0.042094;0.0;0.0;0.0;0.0;0.0;0.0
1.0;1753881462.413534;17.41717;1.04;-1.55;0.07;0.287709;0.943373;0.040746;0.0;0.0;0.0;0.0;0.0;0.0
1.0;1753881462.4221;17.441406;0.98;-1.61;0.07;0.28731;0.944402;0.041846;0.0;0.0;0.0;0.0;0.0;0.0
1.0;1753881462.426699;17.458627;1.0;-1.48;0.04;0.286287;0.944162;0.040728;0.0;0.0;0.0;0.0;0.0;0.0
1.0;1753881462.431298;17.432112;1.01;-1.49;0.04;0.286505;0.944199;0.041177;0.0;0.0;0.0;0.0;0.0;0.0
1.0;1753881462.435897;17.455196;0.96;-1.58;-0.03;0.288902;0.944137;0.041672;0.0;0.0;0.0;0.0;0.0;0.0
1.0;1753881462.440496;17.440668;1.0;-1.67;0.05;0.287111;0.94381;0.040688;0.0;0.0;0.0;0.0;0.0;0.0
1.0;1753881462.445096;17.44524;0.95;-1.66;0.09;0.29009;0.943542;0.041977;0.0;0.0;0.0;0.0;0.0;0.0
1.0;1753881462.45072;17.441406;1.05;-1.61;0.07;0.28853;0.944402;0.041602;0.0;0.0;0.0;0.0;0.0;0.0
1.0;1753881462.45338;17.441406;1.12;-1.68;0.07;0.289384;0.942206;0.041236;0.0;0.0;0.0;0.0;0.0;0.0
1.0;1753881462.457979;17.430521;1.13;-1.56;0.14;0.28861;0.94331;0.041557;0.0;0.0;0.0;0.0;0.0;0.0
1.0;1753881462.462578;17.453713;1.14;-1.75;0.07;0.289468;0.940748;0.041503;0.0;0.0;0.0;0.0;0.0;0.0
1.0;1753881462.467178;17.475092;1.11;-1.68;0.07;0.288614;0.942676;0.0416;0.0;0.0;0.0;0.0;0.0;0.0
1.0;1753881462.471776;17.420898;1.15;-1.7;0.15;0.289287;0.942812;0.042853;0.0;0.0;0.0;0.0;0.0;0.0
1.0;1753881462.476376;17.426372;1.13;-1.65;0.1;0.289883;0.943737;0.04157;0.0;0.0;0.0;0.0;0.0;0.0
1.0;1753881462.480975;17.441637;1.06;-1.68;0.17;0.291281;0.942541;0.042143;0.0;0.0;0.0;0.0;0.0;0.0
1.0;1753881462.485574;17.393877;1.16;-1.58;0.04;0.289626;0.940373;0.042567;0.0;0.0;0.0;0.0;0.0;0.0
1.0;1753881462.490173;17.423947;1.12;-1.63;0.2;0.291415;0.944166;0.042417;0.0;0.0;0.0;0.0;0.0;0.0
1.0;1753881462.494772;17.447945;1.16;-1.59;0.04;0.289217;0.945885;0.041615;0.0;0.0;0.0;0.0;0.0;0.0
1.0;1753881462.49954;17.441406;1.12;-1.54;0.14;0.288896;0.943182;0.042334;0.0;0.0;0.0;0.0;0.0;0.0
1.0;1753881462.504139;17.464066;1.14;-1.51;0.11;0.288919;0.942799;0.041958;0.0;0.0;0.0;0.0;0.0;0.0
1.0;1753881462.508738;17.423887;0.91;-1.58;0.21;0.289474;0.945011;0.042395;0.0;0.0;0.0;0.0;0.0;0.0
1.0;1753881462.513337;17.417891;1.13;-1.56;0.17;0.286863;0.944289;0.042046;0.0;0.0;0.0;0.0;0.0;0.0
1.0;1753881462.517936;17.405212;1.1;-1.49;0.11;0.289819;0.944423;0.04254;0.0;0.0;0.0;0.0;0.0;0.0
1.0;1753881462.522536;17.412099;1.09;-1.49;0.27;0.290298;0.944511;0.039683;0.0;0.0;0.0;0.0;0.0;0.0
1.0;1753881462.527135;17.420954;1.02;-1.54;0.1;0.28897;0.943692;0.040782;0.0;0.0;0.0;0.0;0.0;0.0
1.0;1753881462.531734;17.438893;1.04;-1.6;0.09;0.28924;0.94421;0.040936;0.0;0.0;0.0;0.0;0.0;0.0
1.0;1753881462.536333;17.441763;1.1;-1.55;0.13;0.29147;0.942536;0.041843;0.0;0.0;0.0;0.0;0.0;0.0
1.0;1753881462.54481;17.441406;1.05;-1.61;0.14;0.289872;0.94245;0.040138;0.0;0.0;0.0;0.0;0.0;0.0
1.0;1753881462.549409;17.392355;1.14;-1.66;0.07;0.288023;0.944948;0.040165;0.0;0.0;0.0;0.0;0.0;0.0
1.0;1753881462.554008;17.451598;1.05;-1.61;0.11;0.287812;0.941966;0.04088;0.0;0.0;0.0;0.0;0.0;0.0
1.0;1753881462.558607;17.446968;1.02;-1.62;0.14;0.290163;0.943059;0.039726;0.0;0.0;0.0;0.0;0.0;0.0
1.0;1753881462.563206;17.457722;1.02;-1.65;0.16;0.289098;0.94187;0.039441;0.0;0.0;0.0;0.0;0.0;0.0
1.0;1753881462.567806;17.439992;1.08;-1.59;0.18;0.289603;0.94284;0.041803;0.0;0.0;0.0;0.0;0.0;0.0
1.0;1753881462.572404;17.462736;1.0;-1.68;0.18;0.290119;0.945303;0.041108;0.0;0.0;0.0;0.0;0.0;0.0
1.0;1753881462.577004;17.463754;1.05;-1.67;0.17;0.289996;0.942392;0.039997;0.0;0.0;0.0;0.0;0.0;0.0
1.0;1753881462.581603;17.45803;0.99;-1.6;0.04;0.289562;0.942829;0.040636;0.0;0.0;0.0;0.0;0.0;0.0
1.0;1753881462.586202;17.474078;0.93;-1.62;0.19;0.288844;0.940338;0.041484;0.0;0.0;0.0;0.0;0.0;0.0
1.0;1753881462.590801;17.474637;1.01;-1.63;0.19;0.290932;0.940889;0.040928;0.0;0.0;0.0;0.0;0.0;0.0
1.0;1753881462.5954;17.42184;1.04;-1.7;0.08;0.289959;0.939982;0.039886;0.0;0.0;0.0;0.0;0.0;0.0
1.0;1753881462.599999;17.417082;0.98;-1.66;0.15;0.29051;0.942989;0.040772;0.0;0.0;0.0;0.0;0.0;0.0
1.0;1753881462.604598;17.400469;1.04;-1.63;0.12;0.289908;0.941201;0.041212;0.0;0.0;0.0;0.0;0.0;0.0
1.0;1753881462.609198;17.454949;1.07;-1.62;0.15;0.290216;0.942117;0.041128;0.0;0.0;0.0;0.0;0.0;0.0
1.0;1753881462.613796;17.428685;1.0;-1.71;0.14;0.289979;0.940498;0.041611;0.0;0.0;0.0;0.0;0.0;0.0
1.0;1753881462.618396;17.555924;0.94;-1.8;0.14;0.290581;0.943567;0.040767;0.0;0.0;0.0;0.0;0.0;0.0
1.0;1753881462.622995;17.444934;1.0;-1.65;0.14;0.289874;0.943134;0.042172;0.0;0.0;0.0;0.0;0.0;0.0
1.0;1753881462.62913;17.449219;0.98;-1.68;0.14;0.290116;0.941962;0.041358;0.0;0.0;0.0;0.0;0.0;0.0
1.0;1753881462.63638;17.449219;1.05;-1.75;0.14;0.288652;0.944036;0.040626;0.0;0.0;0.0;0.0;0.0;0.0
1.0;1753881462.640979;17.430154;1.03;-1.7;0.08;0.286653;0.94419;0.039403;0.0;0.0;0.0;0.0;0.0;0.0
1.0;1753881462.645578;17.443137;0.98;-1.59;0.19;0.29003;0.944886;0.041027;0.0;0.0;0.0;0.0;0.0;0.0
1.0;1753881462.650177;17.455402;1.04;-1.67;0.21;0.288513;0.943188;0.040939;0.0;0.0;0.0;0.0;0.0;0.0
1.0;1753881462.654776;17.428464;1.0;-1.63;0.13;0.289685;0.944102;0.040543;0.0;0.0;0.0;0.0;0.0;0.0
1.0;1753881462.659376;17.426082;1.13;-1.7;0.15;0.288499;0.944371;0.040204;0.0;0.0;0.0;0.0;0.0;0.0
1.0;1753881462.663974;17.435187;0.97;-1.66;0.18;0.290553;0.941843;0.039746;0.0;0.0;0.0;0.0;0.0;0.0
1.0;1753881462.668574;17.441454;1.0;-1.64;0.18;0.290886;0.94277;0.04026;0.0;0.0;0.0;0.0;0.0;0.0
1.0;1753881462.673173;17.477213;1.03;-1.67;0.08;0.290393;0.943776;0.039511;0.0;0.0;0.0;0.0;0.0;0.0
1.0;1753881462.677772;17.441413;1.09;-1.59;0.23;0.288593;0.942664;0.040799;0.0;0.0;0.0;0.0;0.0;0.0
1.0;1753881462.68276;17.449219;0.98;-1.61;0.14;0.291214;0.942938;0.040382;0.0;0.0;0.0;0.0;0.0;0.0
1.0;1753881462.687359;17.424028;1.05;-1.54;0.17;0.29062;0.943408;0.041255;0.0;0.0;0.0;0.0;0.0;0.0
1.0;1753881462.691958;17.453335;1.05;-1.57;0.18;0.290674;0.943993;0.042003;0.0;0.0;0.0;0.0;0.0;0.0
1.0;1753881462.696557;17.469382;0.99;-1.66;0.13;0.291261;0.942334;0.039968;0.0;0.0;0.0;0.0;0.0;0.0
1.0;1753881462.701156;17.478487;1.01;-1.62;0.09;0.290805;0.941177;0.041656;0.0;0.0;0.0;0.0;0.0;0.0
1.0;1753881462.705756;17.42464;0.97;-1.63;0.11;0.290865;0.943417;0.042845;0.0;0.0;0.0;0.0;0.0;0.0
1.0;1753881462.710354;17.442509;0.92;-1.69;0.05;0.2882;0.943104;0.042907;0.0;0.0;0.0;0.0;0.0;0.0
1.0;1753881462.714954;17.471999;0.98;-1.73;0.12;0.288114;0.944504;0.042824;0.0;0.0;0.0;0.0;0.0;0.0
1.0;1753881462.719553;17.469484;0.94;-1.64;-0.03;0.289883;0.943808;0.04398;0.0;0.0;0.0;0.0;0.0;0.0
1.0;1753881462.7278;17.449219;0.98;-1.68;0.07;0.288652;0.942938;0.043432;0.0;0.0;0.0;0.0;0.0;0.0
1.0;1753881462.732399;17.4813;0.96;-1.6;-0.02;0.287015;0.943767;0.042605;0.0;0.0;0.0;0.0;0.0;0.0
1.0;1753881462.736998;17.434557;1.07;-1.72;0.11;0.288891;0.943185;0.041365;0.0;0.0;0.0;0.0;0.0;0.0
1.0;1753881462.741597;17.459251;1.04;-1.65;0.01;0.288836;0.942608;0.043037;0.0;0.0;0.0;0.0;0.0;0.0
1.0;1753881462.746196;17.427893;0.98;-1.74;0.11;0.290447;0.943079;0.0429;0.0;0.0;0.0;0.0;0.0;0.0
1.0;1753881462.750795;17.473269;1.01;-1.77;0.1;0.288483;0.943376;0.042405;0.0;0.0;0.0;0.0;0.0;0.0
1.0;1753881462.755394;17.487185;1.02;-1.62;0.08;0.289757;0.942698;0.041776;0.0;0.0;0.0;0.0;0.0;0.0
1.0;1753881462.759994;17.533128;1.09;-1.71;0.04;0.290189;0.941664;0.041724;0.0;0.0;0.0;0.0;0.0;0.0
1.0;1753881462.764593;17.40922;0.96;-1.76;0.02;0.288639;0.94364;0.042446;0.0;0.0;0.0;0.0;0.0;0.0
1.0;1753881462.769192;17.437633;1.05;-1.68;0.08;0.289456;0.942567;0.040425;0.0;0.0;0.0;0.0;0.0;0.0
1.0;1753881462.773791;17.504764;1.0;-1.62;0.08;0.287606;0.941946;0.041309;0.0;0.0;0.0;0.0;0.0;0.0
1.0;1753881462.77839;17.507804;0.97;-1.69;0.14;0.28966;0.941169;0.039894;0.0;0.0;0.0;0.0;0.0;0.0
1.0;1753881462.782989;17.492731;1.01;-1.62;0.09;0.287743;0.940006;0.041943;0.0;0.0;0.0;0.0;0.0;0.0
1.0;1753881462.78923;17.484375;1.05;-1.68;0.07;0.28914;0.941108;0.040016;0.0;0.0;0.0;0.0;0.0;0.0
1.0;1753881462.793829;17.460646;1.05;-1.6;0.06;0.290966;0.942758;0.040177;0.0;0.0;0.0;0.0;0.0;0.0
1.0;1753881462.798428;17.471332;1.04;-1.55;0.1;0.290219;0.942118;0.040921;0.0;0.0;0.0;0.0;0.0;0.0
1.0;1753881462.803028;17.496622;1.02;-1.75;0.09;0.290247;0.941968;0.039871;0.0;0.0;0.0;0.0;0.0;0.0
1.0;1753881462.807626;17.472738;0.95;-1.67;0.09;0.29204;0.941946;0.043323;0.0;0.0;0.0;0.0;0.0;0.0
1.0;1753881462.812226;17.497107;0.99;-1.57;0.13;0.288883;0.940699;0.040263;0.0;0.0;0.0;0.0;0.0;0.0
1.0;1753881462.816825;17.472026;1.03;-1.67;0.1;0.288677;0.942037;0.041928;0.0;0.0;0.0;0.0;0.0;0.0
1.0;1753881462.821424;17.450585;0.95;-1.8;0.15;0.291657;0.94245;0.041014;0.0;0.0;0.0;0.0;0.0;0.0
1.0;1753881462.826023;17.473481;0.95;-1.62;-0.01;0.289031;0.942443;0.042178;0.0;0.0;0.0;0.0;0.0;0.0
1.0;1753881462.83387;17.484375;0.98;-1.61;0.07;0.291824;0.94245;0.043066;0.0;0.0;0.0;0.0;0.0;0.0
1.0;1753881462.838469;17.518948;1.0;-1.62;0.11;0.292259;0.943296;0.043935;0.0;0.0;0.0;0.0;0.0;0.0
1.0;1753881462.843068;17.426528;0.94;-1.58;0.07;0.292689;0.940865;0.041327;0.0;0.0;0.0;0.0;0.0;0.0
1.0;1753881462.847667;17.500422;1.05;-1.66;0.12;0.293606;0.943264;0.043007;0.0;0.0;0.0;0.0;0.0;0.0
1.0;1753881462.852266;17.507644;0.95;-1.68;0.11;0.289267;0.942688;0.040907;0.0;0.0;0.0;0.0;0.0;0.0
1.0;1753881462.856866;17.512887;1.09;-1.54;0.04;0.291255;0.944377;0.041506;0.0;0.0;0.0;0.0;0.0;0.0
1.0;1753881462.86495;17.484375;0.98;-1.61;0.07;0.289628;0.943914;0.040992;0.0;0.0;0.0;0.0;0.0;0.0
1.0;1753881462.869549;17.500001;0.95;-1.65;0.07;0.28938;0.942893;0.040463;0.0;0.0;0.0;0.0;0.0;0.0
1.0;1753881462.874148;17.486554;1.02;-1.59;0.06;0.287212;0.943526;0.042319;0.0;0.0;0.0;0.0;0.0;0.0
1.0;1753881462.878747;17.481536;0.95;-1.71;0.02;0.287938;0.943147;0.042018;0.0;0.0;0.0;0.0;0.0;0.0
1.0;1753881462.883346;17.476023;0.88;-1.65;0.07;0.289895;0.943267;0.043444;0.0;0.0;0.0;0.0;0.0;0.0
1.0;1753881462.887946;17.493615;1.15;-1.59;0.0;0.287464;0.944048;0.04193;0.0;0.0;0.0;0.0;0.0;0.0
1.0;1753881462.892544;17.494126;0.95;-1.69;0.03;0.289023;0.942741;0.040073;0.0;0.0;0.0;0.0;0.0;0.0
1.0;1753881462.897144;17.487279;1.09;-1.65;-0.09;0.290119;0.942591;0.043446;0.0;0.0;0.0;0.0;0.0;0.0
1.0;1753881462.901743;17.495924;0.97;-1.68;-0.1;0.289861;0.942743;0.043445;0.0;0.0;0.0;0.0;0.0;0.0
1.0;1753881462.906342;17.480312;1.07;-1.68;0.0;0.289047;0.945145;0.042583;0.0;0.0;0.0;0.0;0.0;0.0
1.0;1753881462.910941;17.456754;1.03;-1.63;-0.0;0.288916;0.943844;0.043398;0.0;0.0;0.0;0.0;0.0;0.0
1.0;1753881462.91554;17.505956;1.12;-1.59;-0.01;0.288217;0.943293;0.043274;0.0;0.0;0.0;0.0;0.0;0.0
1.0;1753881462.920139;17.512531;1.03;-1.73;0.05;0.292384;0.943865;0.044155;0.0;0.0;0.0;0.0;0.0;0.0
1.0;1753881462.924738;17.538562;1.01;-1.69;-0.05;0.29148;0.940607;0.041312;0.0;0.0;0.0;0.0;0.0;0.0
1.0;1753881462.929337;17.496829;0.97;-1.71;-0.0;0.288917;0.944138;0.040411;0.0;0.0;0.0;0.0;0.0;0.0
1.0;1753881462.933936;17.50854;1.1;-1.73;0.04;0.290216;0.944594;0.043282;0.0;0.0;0.0;0.0;0.0;0.0
1.0;1753881462.938536;17.513854;1.09;-1.79;0.01;0.288336;0.945145;0.042697;0.0;0.0;0.0;0.0;0.0;0.0
1.0;1753881462.943134;17.454743;0.97;-1.74;-0.12;0.290066;0.943185;0.042848;0.0;0.0;0.0;0.0;0.0;0.0
1.0;1753881462.95129;17.484375;1.05;-1.75;0.0;0.289384;0.94245;0.0427;0.0;0.0;0.0;0.0;0.0;0.0
1.0;1753881462.95642;17.492188;1.05;-1.68;0.07;0.289506;0.943182;0.041602;0.0;0.0;0.0;0.0;0.0;0.0
1.0;1753881462.960369;17.40625;0.98;-1.54;0.14;0.289994;0.942328;0.041724;0.0;0.0;0.0;0.0;0.0;0.0
1.0;1753881462.96451;17.40625;1.05;-1.61;0.14;0.28975;0.943548;0.041114;0.0;0.0;0.0;0.0;0.0;0.0
1.0;1753881462.971147;17.40625;1.05;-1.61;0.14;0.289018;0.942938;0.040748;0.0;0.0;0.0;0.0;0.0;0.0
1.0;1753881462.978101;17.460938;1.05;-1.61;0.07;0.289628;0.945256;0.041358;0.0;0.0;0.0;0.0;0.0;0.0
1.0;1753881462.982716;17.460938;1.12;-1.75;0.14;0.29158;0.942572;0.040382;0.0;0.0;0.0;0.0;0.0;0.0
1.0;1753881462.990299;17.460938;0.98;-1.68;0.07;0.291336;0.942328;0.042334;0.0;0.0;0.0;0.0;0.0;0.0
1.0;1753881462.992052;17.484375;0.98;-1.75;0.07;0.290482;0.942694;0.04209;0.0;0.0;0.0;0.0;0.0;0.0
1.0;1753881462.996534;17.484375;1.05;-1.54;0.14;0.287798;0.94428;0.041236;0.0;0.0;0.0;0.0;0.0;0.0
1.0;1753881463.001133;17.499009;1.11;-1.48;0.26;0.28896;0.944456;0.040865;0.0;0.0;0.0;0.0;0.0;0.0
1.0;1753881463.005732;17.499641;1.05;-1.52;0.14;0.286779;0.944516;0.041907;0.0;0.0;0.0;0.0;0.0;0.0
1.0;1753881463.010332;17.49484;1.12;-1.56;0.18;0.289577;0.944714;0.040979;0.0;0.0;0.0;0.0;0.0;0.0
1.0;1753881463.01493;17.47051;1.05;-1.48;0.09;0.28755;0.943631;0.042632;0.0;0.0;0.0;0.0;0.0;0.0
1.0;1753881463.01953;17.513804;1.14;-1.62;0.2;0.288421;0.944749;0.041316;0.0;0.0;0.0;0.0;0.0;0.0
1.0;1753881463.024129;17.476579;1.06;-1.62;0.15;0.286282;0.944462;0.040729;0.0;0.0;0.0;0.0;0.0;0.0
1.0;1753881463.028728;17.50036;1.15;-1.59;0.23;0.288452;0.942678;0.041121;0.0;0.0;0.0;0.0;0.0;0.0
1.0;1753881463.033327;17.491866;1.13;-1.5;0.14;0.288505;0.944008;0.041443;0.0;0.0;0.0;0.0;0.0;0.0
1.0;1753881463.037926;17.486747;1.07;-1.53;0.16;0.288874;0.945477;0.042076;0.0;0.0;0.0;0.0;0.0;0.0
1.0;1753881463.042525;17.533327;1.09;-1.5;0.17;0.288083;0.943799;0.041094;0.0;0.0;0.0;0.0;0.0;0.0
1.0;1753881463.047124;17.505039;1.09;-1.57;0.25;0.288749;0.943738;0.041567;0.0;0.0;0.0;0.0;0.0;0.0
1.0;1753881463.051723;17.497672;1.11;-1.54;0.13;0.289067;0.942233;0.041469;0.0;0.0;0.0;0.0;0.0;0.0
1.0;1753881463.056322;17.411834;1.1;-1.59;0.21;0.290271;0.942871;0.042193;0.0;0.0;0.0;0.0;0.0;0.0
1.0;1753881463.060922;17.524199;1.02;-1.53;0.17;0.288018;0.942864;0.040878;0.0;0.0;0.0;0.0;0.0;0.0
1.0;1753881463.06552;17.469037;1.01;-1.36;0.17;0.28851;0.943105;0.042057;0.0;0.0;0.0;0.0;0.0;0.0
1.0;1753881463.07012;17.473906;1.01;-1.46;0.15;0.288866;0.941765;0.040978;0.0;0.0;0.0;0.0;0.0;0.0
1.0;1753881463.074719;17.472428;1.09;-1.56;0.22;0.288822;0.943217;0.040946;0.0;0.0;0.0;0.0;0.0;0.0
1.0;1753881463.079318;17.466942;0.95;-1.69;0.22;0.289302;0.943429;0.042042;0.0;0.0;0.0;0.0;0.0;0.0
1.0;1753881463.083917;17.509025;0.97;-1.59;0.1;0.29043;0.943835;0.041061;0.0;0.0;0.0;0.0;0.0;0.0
1.0;1753881463.088516;17.497155;0.92;-1.45;0.21;0.288435;0.942088;0.041949;0.0;0.0;0.0;0.0;0.0;0.0
1.0;1753881463.093115;17.477989;0.99;-1.64;0.18;0.288258;0.942821;0.042341;0.0;0.0;0.0;0.0;0.0;0.0
1.0;1753881463.097714;17.43308;1.0;-1.57;0.15;0.290566;0.94278;0.04138;0.0;0.0;0.0;0.0;0.0;0.0
1.0;1753881463.102313;17.471078;0.95;-1.58;0.32;0.287373;0.943718;0.042075;0.0;0.0;0.0;0.0;0.0;0.0
1.0;1753881463.1108;17.484375;0.98;-1.54;0.21;0.28975;0.942694;0.041846;0.0;0.0;0.0;0.0;0.0;0.0
1.0;1753881463.115399;17.4227;0.97;-1.57;0.24;0.290114;0.941372;0.042831;0.0;0.0;0.0;0.0;0.0;0.0
1.0;1753881463.119998;17.450511;1.13;-1.57;0.2;0.288258;0.942294;0.041983;0.0;0.0;0.0;0.0;0.0;0.0
1.0;1753881463.124597;17.44554;0.99;-1.65;0.22;0.289598;0.942276;0.041277;0.0;0.0;0.0;0.0;0.0;0.0
1.0;1753881463.129196;17.549244;1.06;-1.53;0.27;0.288368;0.943669;0.042097;0.0;0.0;0.0;0.0;0.0;0.0
1.0;1753881463.133796;17.462279;0.94;-1.52;0.14;0.289452;0.943702;0.042085;0.0;0.0;0.0;0.0;0.0;0.0
1.0;1753881463.138394;17.477451;1.05;-1.51;0.22;0.287554;0.943256;0.042581;0.0;0.0;0.0;0.0;0.0;0.0
1.0;1753881463.142994;17.435528;0.93;-1.55;0.18;0.289637;0.942693;0.041386;0.0;0.0;0.0;0.0;0.0;0.0
1.0;1753881463.147593;17.504338;0.99;-1.52;0.19;0.289891;0.943129;0.041578;0.0;0.0;0.0;0.0;0.0;0.0
1.0;1753881463.152192;17.515673;0.94;-1.48;0.13;0.291188;0.941593;0.041635;0.0;0.0;0.0;0.0;0.0;0.0
1.0;1753881463.156791;17.520849;0.99;-1.61;0.28;0.288223;0.942347;0.040958;0.0;0.0;0.0;0.0;0.0;0.0
1.0;1753881463.16139;17.434831;1.01;-1.44;0.23;0.290235;0.942477;0.041148;0.0;0.0;0.0;0.0;0.0;0.0
1.0;1753881463.165989;17.474274;0.94;-1.52;0.17;0.289313;0.941499;0.041812;0.0;0.0;0.0;0.0;0.0;0.0
1.0;1753881463.170588;17.491952;1.03;-1.57;0.27;0.289944;0.942574;0.041648;0.0;0.0;0.0;0.0;0.0;0.0
1.0;1753881463.175187;17.450799;1.0;-1.64;0.23;0.292024;0.942189;0.041727;0.0;0.0;0.0;0.0;0.0;0.0
1.0;1753881463.179786;17.454227;1.05;-1.61;0.22;0.289179;0.942442;0.042223;0.0;0.0;0.0;0.0;0.0;0.0
1.0;1753881463.184386;17.491805;0.93;-1.55;0.34;0.288448;0.943984;0.041708;0.0;0.0;0.0;0.0;0.0;0.0
1.0;1753881463.188985;17.527584;0.97;-1.61;0.2;0.288787;0.942029;0.041947;0.0;0.0;0.0;0.0;0.0;0.0
1.0;1753881463.193584;17.488929;0.93;-1.63;0.2;0.291582;0.943601;0.042422;0.0;0.0;0.0;0.0;0.0;0.0
1.0;1753881463.198183;17.490697;0.89;-1.58;0.19;0.289487;0.941763;0.041237;0.0;0.0;0.0;0.0;0.0;0.0
1.0;1753881463.202782;17.540229;0.93;-1.51;0.23;0.29237;0.94366;0.041938;0.0;0.0;0.0;0.0;0.0;0.0
1.0;1753881463.207381;17.488797;1.02;-1.65;0.16;0.289299;0.941421;0.040998;0.0;0.0;0.0;0.0;0.0;0.0
1.0;1753881463.21198;17.526168;1.06;-1.54;0.2;0.290373;0.943302;0.041204;0.0;0.0;0.0;0.0;0.0;0.0
1.0;1753881463.216579;17.508763;0.91;-1.65;0.23;0.290963;0.942398;0.041298;0.0;0.0;0.0;0.0;0.0;0.0
1.0;1753881463.221178;17.458137;0.99;-1.58;0.18;0.287715;0.942201;0.042641;0.0;0.0;0.0;0.0;0.0;0.0
1.0;1753881463.225778;17.451689;1.01;-1.51;0.1;0.28867;0.940823;0.040996;0.0;0.0;0.0;0.0;0.0;0.0
1.0;1753881463.230376;17.510726;0.94;-1.7;0.17;0.288323;0.94217;0.041018;0.0;0.0;0.0;0.0;0.0;0.0
1.0;1753881463.234976;17.538731;1.05;-1.45;0.26;0.289294;0.942827;0.041814;0.0;0.0;0.0;0.0;0.0;0.0
1.0;1753881463.239575;17.487891;1.1;-1.58;0.22;0.288282;0.94298;0.041403;0.0;0.0;0.0;0.0;0.0;0.0
1.0;1753881463.244174;17.491774;0.99;-1.6;0.18;0.289558;0.943358;0.041547;0.0;0.0;0.0;0.0;0.0;0.0
1.0;1753881463.248773;17.438799;1.08;-1.57;0.15;0.289855;0.941575;0.041218;0.0;0.0;0.0;0.0;0.0;0.0
1.0;1753881463.253372;17.421817;1.04;-1.66;0.24;0.289267;0.943092;0.040991;0.0;0.0;0.0;0.0;0.0;0.0
1.0;1753881463.257971;17.521748;0.96;-1.63;0.12;0.288117;0.942189;0.04217;0.0;0.0;0.0;0.0;0.0;0.0
1.0;1753881463.26257;17.508923;0.95;-1.35;0.16;0.289323;0.941832;0.041603;0.0;0.0;0.0;0.0;0.0;0.0
1.0;1753881463.267169;17.513619;0.87;-1.67;0.18;0.288619;0.941728;0.042569;0.0;0.0;0.0;0.0;0.0;0.0
1.0;1753881463.271768;17.511906;1.01;-1.57;0.17;0.287805;0.943314;0.041366;0.0;0.0;0.0;0.0;0.0;0.0
1.0;1753881463.276368;17.455308;0.92;-1.53;0.21;0.288344;0.943016;0.041628;0.0;0.0;0.0;0.0;0.0;0.0
1.0;1753881463.280966;17.441587;0.98;-1.64;0.21;0.288584;0.943958;0.042314;0.0;0.0;0.0;0.0;0.0;0.0
1.0;1753881463.285566;17.433579;1.04;-1.62;0.29;0.288853;0.943084;0.041288;0.0;0.0;0.0;0.0;0.0;0.0
1.0;1753881463.290165;17.450331;1.0;-1.5;0.08;0.288267;0.941914;0.040533;0.0;0.0;0.0;0.0;0.0;0.0
1.0;1753881463.294764;17.525151;1.03;-1.56;0.17;0.287228;0.943293;0.040848;0.0;0.0;0.0;0.0;0.0;0.0
1.0;1753881463.299363;17.50863;1.12;-1.72;0.2;0.288314;0.942513;0.041723;0.0;0.0;0.0;0.0;0.0;0.0
1.0;1753881463.303962;17.495876;1.05;-1.52;0.16;0.288485;0.941963;0.041334;0.0;0.0;0.0;0.0;0.0;0.0
1.0;1753881463.308561;17.465152;0.93;-1.56;0.13;0.28803;0.942085;0.041174;0.0;0.0;0.0;0.0;0.0;0.0
1.0;1753881463.31316;17.508343;1.01;-1.56;0.08;0.28873;0.943035;0.040668;0.0;0.0;0.0;0.0;0.0;0.0
1.0;1753881463.317759;17.437354;1.0;-1.51;0.18;0.289919;0.943712;0.041142;0.0;0.0;0.0;0.0;0.0;0.0
1.0;1753881463.322358;17.515256;1.05;-1.49;0.16;0.288268;0.944483;0.040523;0.0;0.0;0.0;0.0;0.0;0.0
1.0;1753881463.326958;17.518555;0.97;-1.65;0.16;0.288753;0.943042;0.04042;0.0;0.0;0.0;0.0;0.0;0.0
1.0;1753881463.331556;17.482424;0.97;-1.8;0.23;0.288829;0.943124;0.041142;0.0;0.0;0.0;0.0;0.0;0.0
1.0;1753881463.336156;17.505702;1.03;-1.48;0.24;0.290795;0.943177;0.041254;0.0;0.0;0.0;0.0;0.0;0.0
1.0;1753881463.340755;17.420075;1.05;-1.58;0.25;0.289269;0.941877;0.041229;0.0;0.0;0.0;0.0;0.0;0.0
1.0;1753881463.345354;17.48968;1.09;-1.65;0.11;0.287752;0.942995;0.040886;0.0;0.0;0.0;0.0;0.0;0.0
1.0;1753881463.349953;17.486546;0.95;-1.61;0.13;0.287922;0.944001;0.040397;0.0;0.0;0.0;0.0;0.0;0.0
1.0;1753881463.354552;17.494519;1.02;-1.54;0.23;0.288536;0.941756;0.041177;0.0;0.0;0.0;0.0;0.0;0.0
1.0;1753881463.359151;17.468771;1.17;-1.5;0.15;0.288827;0.94349;0.041673;0.0;0.0;0.0;0.0;0.0;0.0
1.0;1753881463.36375;17.420281;1.05;-1.56;0.19;0.286242;0.943927;0.041508;0.0;0.0;0.0;0.0;0.0;0.0
1.0;1753881463.368349;17.490376;0.96;-1.63;0.14;0.287148;0.942456;0.040746;0.0;0.0;0.0;0.0;0.0;0.0
1.0;1753881463.372948;17.480372;1.01;-1.69;0.18;0.287911;0.942502;0.039752;0.0;0.0;0.0;0.0;0.0;0.0
1.0;1753881463.377548;17.438284;0.99;-1.56;0.19;0.287001;0.943317;0.040666;0.0;0.0;0.0;0.0;0.0;0.0
1.0;1753881463.382146;17.449276;0.98;-1.74;0.18;0.28646;0.942967;0.041362;0.0;0.0;0.0;0.0;0.0;0.0
1.0;1753881463.386746;17.503082;1.02;-1.67;0.17;0.288596;0.943831;0.041677;0.0;0.0;0.0;0.0;0.0;0.0
1.0;1753881463.391345;17.441845;1.06;-1.55;0.27;0.288074;0.942638;0.041454;0.0;0.0;0.0;0.0;0.0;0.0
1.0;1753881463.395944;17.506361;0.94;-1.55;0.3;0.290943;0.943362;0.04154;0.0;0.0;0.0;0.0;0.0;0.0
1.0;1753881463.400543;17.468691;1.12;-1.54;0.18;0.289311;0.94303;0.04164;0.0;0.0;0.0;0.0;0.0;0.0
1.0;1753881463.405142;17.485882;1.04;-1.62;0.16;0.287833;0.943396;0.042244;0.0;0.0;0.0;0.0;0.0;0.0
1.0;1753881463.409741;17.469905;1.06;-1.63;0.18;0.285914;0.943086;0.040202;0.0;0.0;0.0;0.0;0.0;0.0
1.0;1753881463.41434;17.519792;1.05;-1.61;0.21;0.287891;0.94242;0.041944;0.0;0.0;0.0;0.0;0.0;0.0
1.0;1753881463.418939;17.503906;1.04;-1.69;0.04;0.288351;0.941729;0.041116;0.0;0.0;0.0;0.0;0.0;0.0
1.0;1753881463.423538;17.503112;1.01;-1.78;0.27;0.290372;0.942749;0.041091;0.0;0.0;0.0;0.0;0.0;0.0
1.0;1753881463.428138;17.485675;1.09;-1.73;0.24;0.288257;0.944014;0.041207;0.0;0.0;0.0;0.0;0.0;0.0
1.0;1753881463.432737;17.506297;1.02;-1.66;0.15;0.288136;0.943091;0.041946;0.0;0.0;0.0;0.0;0.0;0.0
1.0;1753881463.437336;17.537354;0.97;-1.62;0.25;0.287848;0.942684;0.041041;0.0;0.0;0.0;0.0;0.0;0.0
1.0;1753881463.441935;17.490573;1.12;-1.56;0.14;0.287565;0.943374;0.040124;0.0;0.0;0.0;0.0;0.0;0.0
1.0;1753881463.446534;17.475972;1.04;-1.61;0.19;0.288217;0.944148;0.04024;0.0;0.0;0.0;0.0;0.0;0.0
1.0;1753881463.451133;17.492339;0.99;-1.71;0.17;0.289826;0.942094;0.040049;0.0;0.0;0.0;0.0;0.0;0.0
1.0;1753881463.455732;17.483745;1.17;-1.63;0.11;0.287887;0.943652;0.041448;0.0;0.0;0.0;0.0;0.0;0.0
1.0;1753881463.460331;17.474518;0.99;-1.63;0.12;0.288828;0.942752;0.0399;0.0;0.0;0.0;0.0;0.0;0.0
1.0;1753881463.46493;17.460286;1.08;-1.73;0.15;0.289269;0.943112;0.040594;0.0;0.0;0.0;0.0;0.0;0.0
1.0;1753881463.46953;17.449826;1.0;-1.67;0.12;0.287305;0.944056;0.041108;0.0;0.0;0.0;0.0;0.0;0.0
1.0;1753881463.474128;17.464385;1.1;-1.61;0.21;0.288468;0.941361;0.040003;0.0;0.0;0.0;0.0;0.0;0.0
1.0;1753881463.478728;17.499435;0.96;-1.71;0.16;0.289198;0.94369;0.040631;0.0;0.0;0.0;0.0;0.0;0.0
1.0;1753881463.483327;17.551015;0.97;-1.67;0.14;0.288311;0.943402;0.041652;0.0;0.0;0.0;0.0;0.0;0.0
1.0;1753881463.487926;17.415;1.08;-1.62;0.07;0.288855;0.943655;0.04004;0.0;0.0;0.0;0.0;0.0;0.0
1.0;1753881463.492525;17.501508;1.05;-1.63;0.21;0.289396;0.943442;0.040919;0.0;0.0;0.0;0.0;0.0;0.0
1.0;1753881463.497124;17.478232;0.99;-1.73;0.15;0.288121;0.944679;0.040507;0.0;0.0;0.0;0.0;0.0;0.0
1.0;1753881463.501723;17.520181;0.99;-1.59;0.15;0.288581;0.940927;0.040427;0.0;0.0;0.0;0.0;0.0;0.0
1.0;1753881463.506322;17.471285;1.02;-1.55;0.18;0.284981;0.943008;0.040576;0.0;0.0;0.0;0.0;0.0;0.0
1.0;1753881463.510921;17.438087;1.1;-1.6;0.09;0.287321;0.942578;0.04143;0.0;0.0;0.0;0.0;0.0;0.0
1.0;1753881463.51552;17.475217;1.12;-1.69;0.24;0.287396;0.942141;0.040897;0.0;0.0;0.0;0.0;0.0;0.0
1.0;1753881463.52012;17.494316;1.08;-1.75;0.17;0.289348;0.94315;0.040869;0.0;0.0;0.0;0.0;0.0;0.0
1.0;1753881463.524718;17.506916;1.04;-1.61;0.18;0.289107;0.943452;0.042125;0.0;0.0;0.0;0.0;0.0;0.0
1.0;1753881463.529318;17.459219;1.02;-1.65;0.2;0.287939;0.942924;0.040424;0.0;0.0;0.0;0.0;0.0;0.0
1.0;1753881463.533917;17.458491;1.04;-1.7;0.15;0.287194;0.943465;0.040723;0.0;0.0;0.0;0.0;0.0;0.0
1.0;1753881463.538516;17.522696;1.02;-1.59;0.18;0.289229;0.9432;0.040461;0.0;0.0;0.0;0.0;0.0;0.0
1.0;1753881463.543115;17.504254;1.07;-1.73;0.19;0.286339;0.94381;0.040235;0.0;0.0;0.0;0.0;0.0;0.0
1.0;1753881463.547714;17.547451;1.16;-1.62;0.16;0.286597;0.944565;0.040478;0.0;0.0;0.0;0.0;0.0;0.0
1.0;1753881463.552313;17.486115;1.05;-1.59;0.16;0.286776;0.943341;0.041838;0.0;0.0;0.0;0.0;0.0;0.0
1.0;1753881463.556912;17.515198;0.99;-1.75;0.19;0.290116;0.942718;0.040272;0.0;0.0;0.0;0.0;0.0;0.0
1.0;1753881463.561511;17.439036;1.1;-1.51;0.13;0.287487;0.94424;0.041168;0.0;0.0;0.0;0.0;0.0;0.0
1.0;1753881463.5696;17.484375;1.05;-1.68;0.14;0.287432;0.94306;0.040626;0.0;0.0;0.0;0.0;0.0;0.0
1.0;1753881463.574199;17.416263;1.04;-1.7;0.17;0.287658;0.942932;0.040498;0.0;0.0;0.0;0.0;0.0;0.0
1.0;1753881463.578798;17.471743;1.09;-1.5;0.19;0.288042;0.94223;0.042415;0.0;0.0;0.0;0.0;0.0;0.0
1.0;1753881463.583398;17.442457;0.98;-1.73;0.14;0.285864;0.942796;0.04039;0.0;0.0;0.0;0.0;0.0;0.0
1.0;1753881463.587996;17.405237;1.13;-1.61;0.11;0.289825;0.943554;0.043021;0.0;0.0;0.0;0.0;0.0;0.0
1.0;1753881463.592596;17.429687;1.12;-1.74;0.26;0.286607;0.944046;0.039808;0.0;0.0;0.0;0.0;0.0;0.0
1.0;1753881463.597195;17.463424;1.1;-1.62;0.12;0.289671;0.941492;0.042481;0.0;0.0;0.0;0.0;0.0;0.0
1.0;1753881463.60549;17.414062;1.12;-1.61;0.21;0.288286;0.943304;0.0427;0.0;0.0;0.0;0.0;0.0;0.0
1.0;1753881463.610089;17.403398;1.13;-1.51;0.11;0.288055;0.942901;0.042806;0.0;0.0;0.0;0.0;0.0;0.0
1.0;1753881463.614688;17.442252;1.14;-1.68;0.29;0.289846;0.943773;0.043027;0.0;0.0;0.0;0.0;0.0;0.0
1.0;1753881463.619287;17.411212;1.06;-1.66;0.34;0.287108;0.942207;0.041574;0.0;0.0;0.0;0.0;0.0;0.0
1.0;1753881463.623886;17.423925;1.13;-1.67;0.19;0.287695;0.94179;0.042769;0.0;0.0;0.0;0.0;0.0;0.0
1.0;1753881463.628486;17.425621;1.2;-1.62;0.14;0.289963;0.941381;0.043087;0.0;0.0;0.0;0.0;0.0;0.0
1.0;1753881463.633084;17.397119;1.16;-1.67;0.12;0.286989;0.942164;0.041381;0.0;0.0;0.0;0.0;0.0;0.0
1.0;1753881463.637684;17.425384;1.04;-1.71;0.13;0.290138;0.941939;0.041634;0.0;0.0;0.0;0.0;0.0;0.0
1.0;1753881463.642283;17.427969;1.13;-1.64;0.22;0.289521;0.941863;0.042738;0.0;0.0;0.0;0.0;0.0;0.0
1.0;1753881463.646882;17.398185;1.19;-1.56;0.09;0.28793;0.944505;0.042694;0.0;0.0;0.0;0.0;0.0;0.0
1.0;1753881463.65124;17.417969;1.12;-1.68;0.07;0.289262;0.942572;0.041846;0.0;0.0;0.0;0.0;0.0;0.0
1.0;1753881463.655839;17.419119;1.13;-1.65;-0.02;0.290827;0.942566;0.043015;0.0;0.0;0.0;0.0;0.0;0.0
1.0;1753881463.660438;17.429815;1.18;-1.67;0.05;0.287509;0.942289;0.041668;0.0;0.0;0.0;0.0;0.0;0.0
1.0;1753881463.665038;17.466126;1.11;-1.65;0.09;0.28942;0.942238;0.043025;0.0;0.0;0.0;0.0;0.0;0.0
1.0;1753881463.669636;17.40532;1.12;-1.71;-0.06;0.287293;0.942065;0.042886;0.0;0.0;0.0;0.0;0.0;0.0
1.0;1753881463.674236;17.442892;1.1;-1.68;0.11;0.288837;0.942866;0.042739;0.0;0.0;0.0;0.0;0.0;0.0
1.0;1753881463.678835;17.46887;1.1;-1.74;0.06;0.290826;0.943443;0.042868;0.0;0.0;0.0;0.0;0.0;0.0
1.0;1753881463.683434;17.454879;1.15;-1.78;-0.02;0.285178;0.943497;0.040648;0.0;0.0;0.0;0.0;0.0;0.0
1.0;1753881463.688033;17.428961;1.06;-1.68;0.08;0.284509;0.943717;0.041905;0.0;0.0;0.0;0.0;0.0;0.0
1.0;1753881463.692632;17.460587;1.13;-1.67;-0.02;0.286756;0.943445;0.041041;0.0;0.0;0.0;0.0;0.0;0.0
1.0;1753881463.69709;17.417969;1.12;-1.68;0.07;0.287432;0.94306;0.042334;0.0;0.0;0.0;0.0;0.0;0.0
1.0;1753881463.701689;17.359374;1.17;-1.6;0.09;0.28737;0.942364;0.04242;0.0;0.0;0.0;0.0;0.0;0.0
1.0;1753881463.706288;17.436928;1.21;-1.67;0.1;0.287955;0.942848;0.043484;0.0;0.0;0.0;0.0;0.0;0.0
1.0;1753881463.710887;17.465628;1.14;-1.63;0.01;0.288531;0.943836;0.042946;0.0;0.0;0.0;0.0;0.0;0.0
1.0;1753881463.715486;17.40688;1.11;-1.53;-0.04;0.291598;0.943861;0.042453;0.0;0.0;0.0;0.0;0.0;0.0
1.0;1753881463.720086;17.401754;1.11;-1.63;0.13;0.286868;0.941863;0.042446;0.0;0.0;0.0;0.0;0.0;0.0
1.0;1753881463.724684;17.416386;1.03;-1.87;0.19;0.286921;0.944444;0.042515;0.0;0.0;0.0;0.0;0.0;0.0
1.0;1753881463.729284;17.428032;1.18;-1.65;0.06;0.285665;0.943151;0.041009;0.0;0.0;0.0;0.0;0.0;0.0
1.0;1753881463.733883;17.401851;1.04;-1.62;0.18;0.285429;0.942102;0.040194;0.0;0.0;0.0;0.0;0.0;0.0
1.0;1753881463.738482;17.462683;1.19;-1.57;0.13;0.287266;0.942004;0.041085;0.0;0.0;0.0;0.0;0.0;0.0
1.0;1753881463.743081;17.395098;0.99;-1.65;0.18;0.288222;0.941911;0.040042;0.0;0.0;0.0;0.0;0.0;0.0
1.0;1753881463.74768;17.394497;1.07;-1.63;0.21;0.288385;0.942938;0.04169;0.0;0.0;0.0;0.0;0.0;0.0
1.0;1753881463.752279;17.382584;1.04;-1.62;0.16;0.287492;0.943544;0.04116;0.0;0.0;0.0;0.0;0.0;0.0
1.0;1753881463.756878;17.402597;1.03;-1.55;0.12;0.28589;0.942399;0.040189;0.0;0.0;0.0;0.0;0.0;0.0
1.0;1753881463.761477;17.382379;1.03;-1.53;0.1;0.287665;0.942908;0.041752;0.0;0.0;0.0;0.0;0.0;0.0
1.0;1753881463.766076;17.433241;1.0;-1.51;0.08;0.286293;0.942226;0.042204;0.0;0.0;0.0;0.0;0.0;0.0
1.0;1753881463.77142;17.417969;1.05;-1.61;0.14;0.287188;0.942816;0.041236;0.0;0.0;0.0;0.0;0.0;0.0
1.0;1753881463.776019;17.409929;1.19;-1.69;0.16;0.288826;0.941078;0.039984;0.0;0.0;0.0;0.0;0.0;0.0
1.0;1753881463.780618;17.444586;1.23;-1.59;0.09;0.290079;0.942939;0.041999;0.0;0.0;0.0;0.0;0.0;0.0
1.0;1753881463.788;17.417969;1.19;-1.61;0.07;0.290116;0.94184;0.041724;0.0;0.0;0.0;0.0;0.0;0.0
1.0;1753881463.792599;17.420359;1.2;-1.67;0.07;0.288218;0.942468;0.039979;0.0;0.0;0.0;0.0;0.0;0.0
1.0;1753881463.797198;17.479907;1.18;-1.66;0.06;0.288722;0.941928;0.041679;0.0;0.0;0.0;0.0;0.0;0.0
1.0;1753881463.801798;17.388982;1.19;-1.61;-0.03;0.288721;0.942778;0.041299;0.0;0.0;0.0;0.0;0.0;0.0
1.0;1753881463.806396;17.428371;1.1;-1.76;0.21;0.288448;0.94356;0.040455;0.0;0.0;0.0;0.0;0.0;0.0
1.0;1753881463.810996;17.417013;1.21;-1.66;0.07;0.289325;0.941638;0.041184;0.0;0.0;0.0;0.0;0.0;0.0
1.0;1753881463.815595;17.412252;1.13;-1.59;0.08;0.288695;0.943718;0.041709;0.0;0.0;0.0;0.0;0.0;0.0
1.0;1753881463.820194;17.451369;1.19;-1.58;0.1;0.290921;0.941805;0.041842;0.0;0.0;0.0;0.0;0.0;0.0
1.0;1753881463.824793;17.391133;1.29;-1.52;-0.05;0.290179;0.942696;0.039854;0.0;0.0;0.0;0.0;0.0;0.0
1.0;1753881463.829392;17.411739;1.17;-1.61;0.02;0.289587;0.943671;0.041202;0.0;0.0;0.0;0.0;0.0;0.0
1.0;1753881463.833991;17.376346;1.08;-1.66;0.1;0.288084;0.94231;0.042189;0.0;0.0;0.0;0.0;0.0;0.0
1.0;1753881463.83859;17.436918;1.15;-1.57;0.06;0.289091;0.942147;0.042129;0.0;0.0;0.0;0.0;0.0;0.0
1.0;1753881463.843189;17.403191;1.14;-1.65;-0.12;0.289743;0.944005;0.042279;0.0;0.0;0.0;0.0;0.0;0.0
1.0;1753881463.847788;17.413632;1.06;-1.67;-0.07;0.287605;0.943405;0.04312;0.0;0.0;0.0;0.0;0.0;0.0
1.0;1753881463.852388;17.388234;1.19;-1.67;-0.05;0.287192;0.944205;0.042969;0.0;0.0;0.0;0.0;0.0;0.0
1.0;1753881463.856986;17.431405;1.22;-1.57;-0.04;0.290713;0.942721;0.040354;0.0;0.0;0.0;0.0;0.0;0.0
1.0;1753881463.861586;17.403954;1.2;-1.68;0.09;0.291514;0.942869;0.04083;0.0;0.0;0.0;0.0;0.0;0.0
1.0;1753881463.866185;17.43517;1.15;-1.68;0.01;0.286987;0.944267;0.044019;0.0;0.0;0.0;0.0;0.0;0.0
1.0;1753881463.870784;17.400644;1.14;-1.69;-0.05;0.28748;0.943655;0.043395;0.0;0.0;0.0;0.0;0.0;0.0
1.0;1753881463.875383;17.385428;1.11;-1.72;-0.01;0.286809;0.944247;0.0403;0.0;0.0;0.0;0.0;0.0;0.0
1.0;1753881463.88301;17.394531;1.12;-1.68;0.0;0.28853;0.944036;0.041724;0.0;0.0;0.0;0.0;0.0;0.0
1.0;1753881463.887609;17.43144;1.15;-1.62;-0.03;0.289363;0.944582;0.041842;0.0;0.0;0.0;0.0;0.0;0.0
1.0;1753881463.892208;17.398054;1.0;-1.52;0.09;0.289288;0.943797;0.042116;0.0;0.0;0.0;0.0;0.0;0.0
1.0;1753881463.896807;17.431229;1.09;-1.7;-0.07;0.288845;0.943896;0.041477;0.0;0.0;0.0;0.0;0.0;0.0
1.0;1753881463.901406;17.365614;1.06;-1.61;0.02;0.291152;0.944063;0.044377;0.0;0.0;0.0;0.0;0.0;0.0
1.0;1753881463.906006;17.436635;1.11;-1.63;-0.04;0.290583;0.944411;0.043901;0.0;0.0;0.0;0.0;0.0;0.0
1.0;1753881463.910604;17.428164;1.05;-1.58;0.08;0.287061;0.943805;0.042917;0.0;0.0;0.0;0.0;0.0;0.0
1.0;1753881463.915204;17.396969;1.09;-1.6;0.12;0.292088;0.943827;0.042245;0.0;0.0;0.0;0.0;0.0;0.0
1.0;1753881463.919803;17.367636;1.02;-1.66;0.1;0.291663;0.943901;0.043052;0.0;0.0;0.0;0.0;0.0;0.0
1.0;1753881463.92556;17.394531;1.05;-1.68;0.07;0.291214;0.943426;0.042944;0.0;0.0;0.0;0.0;0.0;0.0
1.0;1753881463.930159;17.425129;1.1;-1.7;0.13;0.289875;0.942692;0.044036;0.0;0.0;0.0;0.0;0.0;0.0
1.0;1753881463.934758;17.400817;1.1;-1.67;0.12;0.290433;0.94412;0.042903;0.0;0.0;0.0;0.0;0.0;0.0
1.0;1753881463.939357;17.452101;1.03;-1.86;0.05;0.291291;0.942899;0.043403;0.0;0.0;0.0;0.0;0.0;0.0
1.0;1753881463.943956;17.398244;1.08;-1.77;0.01;0.289641;0.942958;0.043018;0.0;0.0;0.0;0.0;0.0;0.0
1.0;1753881463.948556;17.37687;1.05;-1.61;0.05;0.291559;0.943361;0.044573;0.0;0.0;0.0;0.0;0.0;0.0
1.0;1753881463.953154;17.460023;1.01;-1.86;-0.05;0.288514;0.942875;0.042634;0.0;0.0;0.0;0.0;0.0;0.0
1.0;1753881463.957754;17.391467;1.08;-1.71;0.03;0.290251;0.944223;0.042615;0.0;0.0;0.0;0.0;0.0;0.0
1.0;1753881463.962353;17.460321;1.15;-1.65;-0.05;0.292102;0.943399;0.042242;0.0;0.0;0.0;0.0;0.0;0.0
1.0;1753881463.966952;17.438568;1.05;-1.77;-0.01;0.289037;0.943445;0.040798;0.0;0.0;0.0;0.0;0.0;0.0
1.0;1753881463.97143;17.394531;1.05;-1.68;-0.07;0.288774;0.94367;0.042578;0.0;0.0;0.0;0.0;0.0;0.0
1.0;1753881463.975135;17.417969;1.05;-1.68;0.07;0.287676;0.94367;0.042212;0.0;0.0;0.0;0.0;0.0;0.0
1.0;1753881463.979699;17.417969;0.91;-1.68;0.14;0.288896;0.943304;0.041114;0.0;0.0;0.0;0.0;0.0;0.0
1.0;1753881463.985727;17.417969;1.05;-1.75;0.14;0.287066;0.94367;0.040992;0.0;0.0;0.0;0.0;0.0;0.0
1.0;1753881463.988838;17.417969;1.05;-1.61;0.07;0.289262;0.943304;0.040992;0.0;0.0;0.0;0.0;0.0;0.0
1.0;1753881463.993408;17.417969;0.98;-1.54;0.14;0.291458;0.943548;0.041358;0.0;0.0;0.0;0.0;0.0;0.0
1.0;1753881463.997982;17.421875;1.05;-1.68;0.14;0.28914;0.942328;0.041236;0.0;0.0;0.0;0.0;0.0;0.0
1.0;1753881464.002581;17.404254;1.21;-1.69;0.09;0.289353;0.942176;0.041312;0.0;0.0;0.0;0.0;0.0;0.0
1.0;1753881464.00718;17.428555;1.2;-1.71;0.21;0.289045;0.942324;0.042192;0.0;0.0;0.0;0.0;0.0;0.0
1.0;1753881464.011779;17.422581;1.08;-1.72;0.17;0.28973;0.943292;0.040974;0.0;0.0;0.0;0.0;0.0;0.0
1.0;1753881464.016378;17.4215;1.08;-1.71;0.12;0.289892;0.942477;0.041981;0.0;0.0;0.0;0.0;0.0;0.0
1.0;1753881464.020978;17.419834;1.0;-1.71;0.21;0.290662;0.942669;0.040767;0.0;0.0;0.0;0.0;0.0;0.0
1.0;1753881464.025576;17.417154;1.04;-1.58;0.1;0.28999;0.943253;0.038805;0.0;0.0;0.0;0.0;0.0;0.0
1.0;1753881464.030176;17.415825;1.13;-1.67;0.15;0.288963;0.942007;0.040415;0.0;0.0;0.0;0.0;0.0;0.0
1.0;1753881464.034775;17.416732;0.96;-1.65;0.17;0.289447;0.943015;0.040124;0.0;0.0;0.0;0.0;0.0;0.0
1.0;1753881464.039374;17.414936;1.06;-1.65;0.24;0.289646;0.942536;0.041306;0.0;0.0;0.0;0.0;0.0;0.0
1.0;1753881464.043973;17.417032;1.0;-1.66;0.13;0.288034;0.942925;0.041069;0.0;0.0;0.0;0.0;0.0;0.0
1.0;1753881464.048572;17.424011;1.2;-1.72;0.19;0.289349;0.942768;0.041738;0.0;0.0;0.0;0.0;0.0;0.0
1.0;1753881464.053171;17.420621;1.01;-1.67;0.17;0.29029;0.942903;0.041511;0.0;0.0;0.0;0.0;0.0;0.0
1.0;1753881464.05777;17.412077;1.03;-1.62;0.1;0.28804;0.942083;0.041169;0.0;0.0;0.0;0.0;0.0;0.0
1.0;1753881464.062369;17.422373;1.12;-1.71;0.12;0.287987;0.942466;0.04117;0.0;0.0;0.0;0.0;0.0;0.0
1.0;1753881464.066968;17.413425;1.11;-1.7;0.19;0.289429;0.943028;0.042418;0.0;0.0;0.0;0.0;0.0;0.0
1.0;1753881464.071568;17.426904;1.17;-1.62;0.14;0.289288;0.942306;0.04037;0.0;0.0;0.0;0.0;0.0;0.0
1.0;1753881464.076167;17.427598;1.02;-1.64;0.12;0.287061;0.94159;0.042166;0.0;0.0;0.0;0.0;0.0;0.0
1.0;1753881464.080766;17.426509;1.22;-1.71;0.14;0.288668;0.943315;0.040149;0.0;0.0;0.0;0.0;0.0;0.0
1.0;1753881464.085365;17.429091;1.12;-1.7;0.1;0.288093;0.943823;0.040957;0.0;0.0;0.0;0.0;0.0;0.0
1.0;1753881464.089964;17.433413;1.06;-1.78;0.16;0.290049;0.943515;0.042074;0.0;0.0;0.0;0.0;0.0;0.0
1.0;1753881464.094563;17.427368;1.16;-1.71;0.18;0.288622;0.942872;0.041517;0.0;0.0;0.0;0.0;0.0;0.0
1.0;1753881464.099162;17.420303;0.95;-1.69;0.16;0.28927;0.943086;0.041621;0.0;0.0;0.0;0.0;0.0;0.0
1.0;1753881464.103761;17.41977;0.97;-1.72;0.12;0.289612;0.942384;0.04161;0.0;0.0;0.0;0.0;0.0;0.0
1.0;1753881464.10836;17.422915;1.16;-1.73;0.15;0.289778;0.942745;0.043176;0.0;0.0;0.0;0.0;0.0;0.0
1.0;1753881464.11296;17.431193;1.11;-1.67;0.19;0.288805;0.941994;0.042346;0.0;0.0;0.0;0.0;0.0;0.0
1.0;1753881464.117558;17.42104;1.14;-1.78;0.13;0.289932;0.94213;0.040601;0.0;0.0;0.0;0.0;0.0;0.0
1.0;1753881464.122158;17.428547;0.96;-1.62;0.16;0.288447;0.943601;0.04042;0.0;0.0;0.0;0.0;0.0;0.0
1.0;1753881464.126757;17.4135;1.01;-1.63;0.1;0.287339;0.942762;0.041255;0.0;0.0;0.0;0.0;0.0;0.0
1.0;1753881464.131356;17.430497;1.07;-1.65;0.12;0.289087;0.94261;0.041523;0.0;0.0;0.0;0.0;0.0;0.0
1.0;1753881464.135955;17.421235;1.07;-1.74;0.16;0.288693;0.943201;0.041417;0.0;0.0;0.0;0.0;0.0;0.0
1.0;1753881464.140554;17.41585;0.98;-1.67;0.17;0.288658;0.943964;0.041902;0.0;0.0;0.0;0.0;0.0;0.0
1.0;1753881464.145153;17.418746;1.1;-1.58;0.17;0.28952;0.942466;0.041731;0.0;0.0;0.0;0.0;0.0;0.0
1.0;1753881464.149752;17.428508;1.06;-1.61;0.22;0.289829;0.943948;0.042007;0.0;0.0;0.0;0.0;0.0;0.0
1.0;1753881464.154351;17.418572;1.19;-1.69;0.13;0.2878;0.944612;0.042566;0.0;0.0;0.0;0.0;0.0;0.0
1.0;1753881464.15895;17.418628;1.08;-1.67;0.14;0.287706;0.943147;0.041979;0.0;0.0;0.0;0.0;0.0;0.0
1.0;1753881464.16355;17.421573;1.1;-1.69;0.12;0.290881;0.943018;0.042113;0.0;0.0;0.0;0.0;0.0;0.0
1.0;1753881464.168148;17.410165;1.07;-1.58;0.11;0.288343;0.942473;0.040198;0.0;0.0;0.0;0.0;0.0;0.0
1.0;1753881464.172748;17.428954;1.19;-1.74;0.18;0.288776;0.943573;0.042235;0.0;0.0;0.0;0.0;0.0;0.0
1.0;1753881464.177347;17.42558;1.09;-1.63;0.13;0.287221;0.943445;0.040214;0.0;0.0;0.0;0.0;0.0;0.0
1.0;1753881464.181946;17.421717;1.12;-1.66;0.09;0.290277;0.943125;0.041627;0.0;0.0;0.0;0.0;0.0;0.0
1.0;1753881464.186545;17.421709;1.18;-1.59;0.18;0.289339;0.944153;0.041188;0.0;0.0;0.0;0.0;0.0;0.0
1.0;1753881464.191144;17.424866;1.14;-1.57;0.13;0.28892;0.944737;0.041995;0.0;0.0;0.0;0.0;0.0;0.0
1.0;1753881464.195743;17.420392;1.14;-1.66;0.15;0.287273;0.943391;0.041455;0.0;0.0;0.0;0.0;0.0;0.0
1.0;1753881464.200342;17.423099;1.09;-1.64;0.13;0.289543;0.943248;0.041098;0.0;0.0;0.0;0.0;0.0;0.0
1.0;1753881464.204941;17.420763;1.07;-1.62;0.17;0.287418;0.942958;0.042433;0.0;0.0;0.0;0.0;0.0;0.0
1.0;1753881464.20954;17.424117;1.07;-1.72;0.15;0.289449;0.943562;0.042176;0.0;0.0;0.0;0.0;0.0;0.0
1.0;1753881464.21414;17.431897;1.12;-1.67;0.07;0.287431;0.942881;0.042145;0.0;0.0;0.0;0.0;0.0;0.0
1.0;1753881464.218738;17.42447;1.09;-1.71;0.14;0.288114;0.943463;0.042199;0.0;0.0;0.0;0.0;0.0;0.0
1.0;1753881464.223338;17.421999;1.15;-1.67;0.15;0.289254;0.94301;0.041786;0.0;0.0;0.0;0.0;0.0;0.0
1.0;1753881464.227937;17.420593;1.04;-1.68;0.06;0.29038;0.943267;0.041903;0.0;0.0;0.0;0.0;0.0;0.0
1.0;1753881464.232536;17.426726;1.05;-1.69;0.12;0.288115;0.943065;0.041947;0.0;0.0;0.0;0.0;0.0;0.0
1.0;1753881464.237135;17.429052;1.14;-1.6;0.1;0.28988;0.943614;0.041108;0.0;0.0;0.0;0.0;0.0;0.0
1.0;1753881464.241734;17.419043;1.03;-1.71;0.13;0.290195;0.94351;0.041349;0.0;0.0;0.0;0.0;0.0;0.0
1.0;1753881464.246333;17.428117;1.0;-1.66;0.14;0.289798;0.944049;0.041759;0.0;0.0;0.0;0.0;0.0;0.0
1.0;1753881464.2534;17.421875;1.12;-1.68;0.14;0.288652;0.94367;0.04209;0.0;0.0;0.0;0.0;0.0;0.0
1.0;1753881464.257999;17.417898;1.16;-1.68;0.2;0.288344;0.943658;0.041044;0.0;0.0;0.0;0.0;0.0;0.0
1.0;1753881464.262598;17.41135;1.18;-1.65;0.08;0.288859;0.943387;0.041064;0.0;0.0;0.0;0.0;0.0;0.0
1.0;1753881464.267197;17.430199;1.12;-1.64;0.24;0.288393;0.94272;0.041964;0.0;0.0;0.0;0.0;0.0;0.0
1.0;1753881464.271796;17.418121;1.21;-1.63;0.18;0.289268;0.943071;0.042181;0.0;0.0;0.0;0.0;0.0;0.0
1.0;1753881464.276396;17.414696;1.07;-1.75;0.15;0.290154;0.942708;0.042272;0.0;0.0;0.0;0.0;0.0;0.0
1.0;1753881464.280995;17.418811;1.1;-1.73;0.15;0.288252;0.943033;0.04163;0.0;0.0;0.0;0.0;0.0;0.0
1.0;1753881464.285594;17.418042;1.08;-1.64;0.1;0.288788;0.943961;0.041263;0.0;0.0;0.0;0.0;0.0;0.0
1.0;1753881464.290193;17.434824;1.15;-1.69;0.2;0.289355;0.943045;0.042207;0.0;0.0;0.0;0.0;0.0;0.0
1.0;1753881464.294792;17.427927;1.04;-1.74;0.12;0.288899;0.941856;0.043581;0.0;0.0;0.0;0.0;0.0;0.0
1.0;1753881464.299391;17.417387;1.13;-1.69;0.17;0.289891;0.942927;0.040703;0.0;0.0;0.0;0.0;0.0;0.0
1.0;1753881464.30399;17.421101;1.13;-1.67;0.11;0.287978;0.944679;0.041974;0.0;0.0;0.0;0.0;0.0;0.0
1.0;1753881464.308589;17.42099;1.08;-1.61;0.13;0.288967;0.94322;0.041456;0.0;0.0;0.0;0.0;0.0;0.0
1.0;1753881464.313188;17.429523;1.12;-1.61;0.09;0.289271;0.945498;0.042265;0.0;0.0;0.0;0.0;0.0;0.0
1.0;1753881464.317788;17.424631;1.08;-1.68;0.08;0.288725;0.943583;0.0412;0.0;0.0;0.0;0.0;0.0;0.0
1.0;1753881464.322386;17.41874;1.11;-1.68;0.06;0.289935;0.9438;0.042688;0.0;0.0;0.0;0.0;0.0;0.0
1.0;1753881464.326986;17.423417;1.14;-1.69;0.05;0.287463;0.943251;0.043431;0.0;0.0;0.0;0.0;0.0;0.0
1.0;1753881464.331585;17.417884;1.23;-1.67;0.17;0.290313;0.943138;0.041729;0.0;0.0;0.0;0.0;0.0;0.0
1.0;1753881464.336184;17.425678;1.12;-1.65;0.21;0.291243;0.943221;0.041966;0.0;0.0;0.0;0.0;0.0;0.0
1.0;1753881464.340783;17.429909;1.06;-1.74;0.08;0.290965;0.942938;0.040597;0.0;0.0;0.0;0.0;0.0;0.0
1.0;1753881464.345382;17.41237;1.12;-1.62;0.12;0.288324;0.943521;0.042204;0.0;0.0;0.0;0.0;0.0;0.0
1.0;1753881464.349981;17.426685;1.14;-1.65;0.14;0.289199;0.944602;0.043099;0.0;0.0;0.0;0.0;0.0;0.0
1.0;1753881464.35458;17.42136;1.05;-1.7;0.11;0.288774;0.942889;0.041414;0.0;0.0;0.0;0.0;0.0;0.0
1.0;1753881464.359179;17.425234;1.06;-1.58;0.13;0.290784;0.943387;0.042154;0.0;0.0;0.0;0.0;0.0;0.0
1.0;1753881464.363778;17.429033;1.23;-1.72;0.15;0.287219;0.943737;0.042033;0.0;0.0;0.0;0.0;0.0;0.0
1.0;1753881464.368378;17.417521;1.11;-1.63;0.11;0.288662;0.943545;0.041247;0.0;0.0;0.0;0.0;0.0;0.0
1.0;1753881464.372976;17.42535;1.0;-1.69;0.16;0.289634;0.942626;0.04056;0.0;0.0;0.0;0.0;0.0;0.0
1.0;1753881464.377576;17.427;1.13;-1.69;0.12;0.289898;0.944217;0.043469;0.0;0.0;0.0;0.0;0.0;0.0
1.0;1753881464.382175;17.425054;1.14;-1.63;0.13;0.288837;0.942511;0.041676;0.0;0.0;0.0;0.0;0.0;0.0
1.0;1753881464.386774;17.425458;1.1;-1.7;0.11;0.288898;0.942983;0.042529;0.0;0.0;0.0;0.0;0.0;0.0
1.0;1753881464.391373;17.41693;1.12;-1.64;0.13;0.289013;0.943054;0.043888;0.0;0.0;0.0;0.0;0.0;0.0
1.0;1753881464.395972;17.412311;1.11;-1.64;0.19;0.290376;0.942322;0.042995;0.0;0.0;0.0;0.0;0.0;0.0
1.0;1753881464.400571;17.439534;1.12;-1.67;0.09;0.288637;0.94395;0.042417;0.0;0.0;0.0;0.0;0.0;0.0
1.0;1753881464.40517;17.432268;0.97;-1.77;0.11;0.288544;0.943069;0.042341;0.0;0.0;0.0;0.0;0.0;0.0
1.0;1753881464.409769;17.41849;1.18;-1.7;0.13;0.288776;0.943326;0.042726;0.0;0.0;0.0;0.0;0.0;0.0
1.0;1753881464.414368;17.41362;1.11;-1.61;0.11;0.290585;0.943006;0.042262;0.0;0.0;0.0;0.0;0.0;0.0
1.0;1753881464.418968;17.421643;0.95;-1.59;0.09;0.288746;0.942954;0.041948;0.0;0.0;0.0;0.0;0.0;0.0
1.0;1753881464.423566;17.421958;1.04;-1.65;0.14;0.291599;0.941849;0.042239;0.0;0.0;0.0;0.0;0.0;0.0
1.0;1753881464.428166;17.418169;0.99;-1.63;0.13;0.289627;0.941394;0.041691;0.0;0.0;0.0;0.0;0.0;0.0
1.0;1753881464.432765;17.436156;1.18;-1.51;0.11;0.2884;0.941955;0.039793;0.0;0.0;0.0;0.0;0.0;0.0
1.0;1753881464.437364;17.42043;1.14;-1.7;0.16;0.288227;0.943088;0.040865;0.0;0.0;0.0;0.0;0.0;0.0
1.0;1753881464.441963;17.418512;1.14;-1.6;0.18;0.289879;0.943805;0.041875;0.0;0.0;0.0;0.0;0.0;0.0
1.0;1753881464.446562;17.434092;1.1;-1.68;0.08;0.289627;0.941808;0.041917;0.0;0.0;0.0;0.0;0.0;0.0
1.0;1753881464.451161;17.417957;1.1;-1.7;0.08;0.288247;0.943147;0.041649;0.0;0.0;0.0;0.0;0.0;0.0
1.0;1753881464.45576;17.412374;1.04;-1.75;0.14;0.289952;0.943573;0.04122;0.0;0.0;0.0;0.0;0.0;0.0
1.0;1753881464.460359;17.417306;1.09;-1.58;0.13;0.289659;0.94454;0.043841;0.0;0.0;0.0;0.0;0.0;0.0
1.0;1753881464.464958;17.426676;1.08;-1.64;0.11;0.290639;0.942688;0.043396;0.0;0.0;0.0;0.0;0.0;0.0
1.0;1753881464.469558;17.424259;1.07;-1.76;0.12;0.289159;0.94377;0.041821;0.0;0.0;0.0;0.0;0.0;0.0
1.0;1753881464.474156;17.425908;1.0;-1.64;0.09;0.288432;0.941204;0.041999;0.0;0.0;0.0;0.0;0.0;0.0
1.0;1753881464.478756;17.414439;1.13;-1.68;0.09;0.290159;0.942681;0.041475;0.0;0.0;0.0;0.0;0.0;0.0
1.0;1753881464.483355;17.424298;1.05;-1.71;0.11;0.290219;0.943463;0.04465;0.0;0.0;0.0;0.0;0.0;0.0
1.0;1753881464.487954;17.414514;1.1;-1.67;0.14;0.289502;0.941992;0.042799;0.0;0.0;0.0;0.0;0.0;0.0
1.0;1753881464.492553;17.421713;1.23;-1.71;0.1;0.290667;0.94238;0.040561;0.0;0.0;0.0;0.0;0.0;0.0
1.0;1753881464.497152;17.427973;1.1;-1.69;0.05;0.289106;0.941824;0.042285;0.0;0.0;0.0;0.0;0.0;0.0
1.0;1753881464.501751;17.41273;1.13;-1.62;0.1;0.289399;0.942796;0.042196;0.0;0.0;0.0;0.0;0.0;0.0
1.0;1753881464.50635;17.430303;1.08;-1.65;0.2;0.287293;0.942499;0.041953;0.0;0.0;0.0;0.0;0.0;0.0
1.0;1753881464.510949;17.411906;1.05;-1.67;0.11;0.289293;0.943674;0.04101;0.0;0.0;0.0;0.0;0.0;0.0
1.0;1753881464.515548;17.423084;1.15;-1.67;0.1;0.290785;0.943642;0.043917;0.0;0.0;0.0;0.0;0.0;0.0
1.0;1753881464.520148;17.429197;1.13;-1.63;0.12;0.290709;0.943301;0.043167;0.0;0.0;0.0;0.0;0.0;0.0
1.0;1753881464.524747;17.424681;1.2;-1.64;0.08;0.289017;0.942795;0.042094;0.0;0.0;0.0;0.0;0.0;0.0
1.0;1753881464.529346;17.425115;1.15;-1.61;0.12;0.289824;0.943525;0.042316;0.0;0.0;0.0;0.0;0.0;0.0
1.0;1753881464.533945;17.439222;1.08;-1.61;0.1;0.289998;0.942969;0.041866;0.0;0.0;0.0;0.0;0.0;0.0
1.0;1753881464.538544;17.411603;1.08;-1.67;0.09;0.289065;0.94326;0.041294;0.0;0.0;0.0;0.0;0.0;0.0
1.0;1753881464.543143;17.424389;1.11;-1.63;0.1;0.287516;0.943254;0.042585;0.0;0.0;0.0;0.0;0.0;0.0
1.0;1753881464.547742;17.414536;1.08;-1.64;0.11;0.288956;0.943336;0.041648;0.0;0.0;0.0;0.0;0.0;0.0
1.0;1753881464.552341;17.416914;1.1;-1.65;0.14;0.288036;0.941987;0.043871;0.0;0.0;0.0;0.0;0.0;0.0
1.0;1753881464.55694;17.424965;1.08;-1.7;0.08;0.28897;0.943834;0.043105;0.0;0.0;0.0;0.0;0.0;0.0
1.0;1753881464.56154;17.427321;1.01;-1.62;0.09;0.288647;0.943357;0.042045;0.0;0.0;0.0;0.0;0.0;0.0
1.0;1753881464.566138;17.418201;1.14;-1.65;0.11;0.288015;0.944373;0.041026;0.0;0.0;0.0;0.0;0.0;0.0
1.0;1753881464.570738;17.418933;1.13;-1.55;0.1;0.289961;0.940783;0.043105;0.0;0.0;0.0;0.0;0.0;0.0
1.0;1753881464.575337;17.423995;1.06;-1.59;0.13;0.288235;0.94344;0.041118;0.0;0.0;0.0;0.0;0.0;0.0
1.0;1753881464.579936;17.414567;1.13;-1.57;0.13;0.290141;0.941911;0.042271;0.0;0.0;0.0;0.0;0.0;0.0
1.0;1753881464.584535;17.433134;1.13;-1.7;0.1;0.289335;0.943023;0.04087;0.0;0.0;0.0;0.0;0.0;0.0
1.0;1753881464.589134;17.419191;1.21;-1.59;0.11;0.289541;0.943107;0.043503;0.0;0.0;0.0;0.0;0.0;0.0
1.0;1753881464.593733;17.410881;1.0;-1.62;0.15;0.289793;0.942503;0.041892;0.0;0.0;0.0;0.0;0.0;0.0
1.0;1753881464.598332;17.431159;1.01;-1.58;0.15;0.289441;0.941266;0.04237;0.0;0.0;0.0;0.0;0.0;0.0
1.0;1753881464.602931;17.413826;0.99;-1.67;0.12;0.28816;0.941703;0.041031;0.0;0.0;0.0;0.0;0.0;0.0
1.0;1753881464.60753;17.431622;1.07;-1.54;0.08;0.289671;0.9438;0.042006;0.0;0.0;0.0;0.0;0.0;0.0
1.0;1753881464.61213;17.421513;0.96;-1.69;0.02;0.289559;0.942475;0.043455;0.0;0.0;0.0;0.0;0.0;0.0
1.0;1753881464.616728;17.422178;1.07;-1.64;0.14;0.289281;0.942026;0.041463;0.0;0.0;0.0;0.0;0.0;0.0
1.0;1753881464.621328;17.412654;1.09;-1.66;0.12;0.292287;0.942471;0.042453;0.0;0.0;0.0;0.0;0.0;0.0
1.0;1753881464.625927;17.412933;1.06;-1.61;0.13;0.289581;0.942837;0.043806;0.0;0.0;0.0;0.0;0.0;0.0
1.0;1753881464.630526;17.421633;1.05;-1.62;0.1;0.290622;0.943022;0.042217;0.0;0.0;0.0;0.0;0.0;0.0
1.0;1753881464.635125;17.413611;1.12;-1.67;0.16;0.289288;0.94268;0.042363;0.0;0.0;0.0;0.0;0.0;0.0
1.0;1753881464.639724;17.417592;1.12;-1.58;0.05;0.28883;0.942677;0.042735;0.0;0.0;0.0;0.0;0.0;0.0
1.0;1753881464.644323;17.417731;1.01;-1.66;0.13;0.28975;0.942145;0.042618;0.0;0.0;0.0;0.0;0.0;0.0
1.0;1753881464.648922;17.433833;1.14;-1.63;0.05;0.290155;0.943264;0.042589;0.0;0.0;0.0;0.0;0.0;0.0
1.0;1753881464.653521;17.420453;1.07;-1.65;0.03;0.28881;0.942393;0.042805;0.0;0.0;0.0;0.0;0.0;0.0
1.0;1753881464.65812;17.4235;1.13;-1.55;0.08;0.290165;0.942606;0.043864;0.0;0.0;0.0;0.0;0.0;0.0
1.0;1753881464.66272;17.421053;1.08;-1.61;0.11;0.288924;0.941955;0.042282;0.0;0.0;0.0;0.0;0.0;0.0
1.0;1753881464.667318;17.417244;1.23;-1.72;0.1;0.288775;0.941789;0.043158;0.0;0.0;0.0;0.0;0.0;0.0
1.0;1753881464.671918;17.433482;1.08;-1.56;0.1;0.290053;0.941691;0.042444;0.0;0.0;0.0;0.0;0.0;0.0
1.0;1753881464.676517;17.41873;1.08;-1.65;0.04;0.290439;0.942508;0.043484;0.0;0.0;0.0;0.0;0.0;0.0
1.0;1753881464.681116;17.412743;1.11;-1.65;0.07;0.291046;0.942317;0.042399;0.0;0.0;0.0;0.0;0.0;0.0
1.0;1753881464.685715;17.416614;1.07;-1.64;0.08;0.290018;0.943163;0.041946;0.0;0.0;0.0;0.0;0.0;0.0
1.0;1753881464.690314;17.400565;1.01;-1.71;0.08;0.290572;0.9419;0.042717;0.0;0.0;0.0;0.0;0.0;0.0
1.0;1753881464.694913;17.42076;0.96;-1.62;0.11;0.290352;0.941773;0.041521;0.0;0.0;0.0;0.0;0.0;0.0
1.0;1753881464.699512;17.424423;0.99;-1.63;0.02;0.290416;0.941989;0.042555;0.0;0.0;0.0;0.0;0.0;0.0
1.0;1753881464.704111;17.432437;1.03;-1.7;0.12;0.290956;0.943017;0.042366;0.0;0.0;0.0;0.0;0.0;0.0
1.0;1753881464.70871;17.428427;1.04;-1.62;0.11;0.28854;0.942723;0.044145;0.0;0.0;0.0;0.0;0.0;0.0
1.0;1753881464.71331;17.422368;1.03;-1.65;0.07;0.289246;0.941275;0.04387;0.0;0.0;0.0;0.0;0.0;0.0
1.0;1753881464.717908;17.423207;1.06;-1.59;0.08;0.292848;0.943428;0.04193;0.0;0.0;0.0;0.0;0.0;0.0
1.0;1753881464.722508;17.424066;1.14;-1.7;0.09;0.290042;0.942053;0.040772;0.0;0.0;0.0;0.0;0.0;0.0
1.0;1753881464.727107;17.431265;1.01;-1.63;0.05;0.289213;0.943108;0.042498;0.0;0.0;0.0;0.0;0.0;0.0
1.0;1753881464.731706;17.419075;1.0;-1.59;0.08;0.289305;0.944071;0.043668;0.0;0.0;0.0;0.0;0.0;0.0
1.0;1753881464.736305;17.419239;1.08;-1.71;0.13;0.290169;0.943292;0.043972;0.0;0.0;0.0;0.0;0.0;0.0
1.0;1753881464.740904;17.418034;1.15;-1.53;0.15;0.290093;0.942209;0.041363;0.0;0.0;0.0;0.0;0.0;0.0
1.0;1753881464.745503;17.416835;1.12;-1.64;0.06;0.289987;0.94375;0.041083;0.0;0.0;0.0;0.0;0.0;0.0
1.0;1753881464.750102;17.427998;1.08;-1.63;0.07;0.288454;0.941196;0.042382;0.0;0.0;0.0;0.0;0.0;0.0
1.0;1753881464.754702;17.42089;1.1;-1.65;0.1;0.290296;0.941403;0.042475;0.0;0.0;0.0;0.0;0.0;0.0
1.0;1753881464.7593;17.431513;1.11;-1.69;0.14;0.289625;0.943214;0.043331;0.0;0.0;0.0;0.0;0.0;0.0
1.0;1753881464.7639;17.419426;1.0;-1.62;0.1;0.290467;0.942285;0.042519;0.0;0.0;0.0;0.0;0.0;0.0
1.0;1753881464.768499;17.42845;1.08;-1.69;0.02;0.288676;0.942078;0.041973;0.0;0.0;0.0;0.0;0.0;0.0
1.0;1753881464.773098;17.427475;1.15;-1.63;0.04;0.290909;0.941688;0.044286;0.0;0.0;0.0;0.0;0.0;0.0
1.0;1753881464.777697;17.421662;1.03;-1.67;0.1;0.290937;0.943292;0.041889;0.0;0.0;0.0;0.0;0.0;0.0
1.0;1753881464.782296;17.414305;1.1;-1.67;0.04;0.289421;0.941796;0.042316;0.0;0.0;0.0;0.0;0.0;0.0
1.0;1753881464.786895;17.426707;1.11;-1.55;0.13;0.288558;0.942853;0.043161;0.0;0.0;0.0;0.0;0.0;0.0
1.0;1753881464.791494;17.420742;0.97;-1.61;0.04;0.288787;0.942565;0.041591;0.0;0.0;0.0;0.0;0.0;0.0
1.0;1753881464.796093;17.423606;1.05;-1.62;0.03;0.289783;0.943274;0.0431;0.0;0.0;0.0;0.0;0.0;0.0
1.0;1753881464.800692;17.422598;1.05;-1.61;0.06;0.290518;0.942318;0.042811;0.0;0.0;0.0;0.0;0.0;0.0
1.0;1753881464.805292;17.425422;1.07;-1.72;0.1;0.289991;0.941949;0.041894;0.0;0.0;0.0;0.0;0.0;0.0
1.0;1753881464.80989;17.42781;0.98;-1.61;0.1;0.292307;0.941679;0.042399;0.0;0.0;0.0;0.0;0.0;0.0
1.0;1753881464.81449;17.420785;1.07;-1.59;0.08;0.289434;0.942691;0.043113;0.0;0.0;0.0;0.0;0.0;0.0
1.0;1753881464.819089;17.430935;1.05;-1.6;0.11;0.290746;0.94197;0.043267;0.0;0.0;0.0;0.0;0.0;0.0
1.0;1753881464.823688;17.425233;1.02;-1.72;0.12;0.289917;0.942798;0.04349;0.0;0.0;0.0;0.0;0.0;0.0
1.0;1753881464.828287;17.413797;1.1;-1.63;0.08;0.289931;0.942109;0.043396;0.0;0.0;0.0;0.0;0.0;0.0
1.0;1753881464.832886;17.425328;1.03;-1.77;0.07;0.289558;0.942092;0.042222;0.0;0.0;0.0;0.0;0.0;0.0
1.0;1753881464.837485;17.420708;1.06;-1.62;0.05;0.289657;0.942138;0.042044;0.0;0.0;0.0;0.0;0.0;0.0
1.0;1753881464.842084;17.419237;1.06;-1.62;0.1;0.289687;0.941471;0.044454;0.0;0.0;0.0;0.0;0.0;0.0
1.0;1753881464.846683;17.413161;1.06;-1.61;0.1;0.290637;0.942012;0.042526;0.0;0.0;0.0;0.0;0.0;0.0
1.0;1753881464.851282;17.416178;1.07;-1.62;0.12;0.28964;0.941396;0.042556;0.0;0.0;0.0;0.0;0.0;0.0
1.0;1753881464.855882;17.42045;1.01;-1.57;0.09;0.2899;0.942185;0.042645;0.0;0.0;0.0;0.0;0.0;0.0
1.0;1753881464.86048;17.427427;1.04;-1.51;0.06;0.289888;0.94224;0.042488;0.0;0.0;0.0;0.0;0.0;0.0
1.0;1753881464.86508;17.423326;1.04;-1.58;0.13;0.290791;0.942652;0.042521;0.0;0.0;0.0;0.0;0.0;0.0
1.0;1753881464.869679;17.427726;1.21;-1.6;-0.02;0.289512;0.940799;0.041854;0.0;0.0;0.0;0.0;0.0;0.0
1.0;1753881464.874278;17.438057;1.09;-1.68;0.11;0.291702;0.940878;0.043511;0.0;0.0;0.0;0.0;0.0;0.0
1.0;1753881464.878877;17.412268;1.09;-1.61;0.13;0.290295;0.942893;0.043556;0.0;0.0;0.0;0.0;0.0;0.0
1.0;1753881464.883476;17.43849;1.12;-1.61;0.09;0.28942;0.94168;0.042268;0.0;0.0;0.0;0.0;0.0;0.0
1.0;1753881464.888075;17.407013;1.07;-1.6;0.08;0.289385;0.941703;0.042366;0.0;0.0;0.0;0.0;0.0;0.0
1.0;1753881464.892674;17.419492;1.06;-1.5;0.04;0.290464;0.941999;0.040634;0.0;0.0;0.0;0.0;0.0;0.0
1.0;1753881464.897273;17.432042;1.09;-1.67;0.07;0.291477;0.941901;0.043407;0.0;0.0;0.0;0.0;0.0;0.0
1.0;1753881464.901872;17.411477;1.11;-1.67;0.08;0.290735;0.942315;0.041768;0.0;0.0;0.0;0.0;0.0;0.0
1.0;1753881464.906472;17.420167;0.94;-1.65;0.07;0.290791;0.941525;0.042798;0.0;0.0;0.0;0.0;0.0;0.0
1.0;1753881464.9109;17.421875;1.05;-1.61;0.07;0.290482;0.941718;0.0427;0.0;0.0;0.0;0.0;0.0;0.0
1.0;1753881464.915499;17.418491;1.08;-1.63;0.02;0.289578;0.942321;0.042919;0.0;0.0;0.0;0.0;0.0;0.0
1.0;1753881464.920098;17.407727;1.17;-1.67;0.01;0.289904;0.942642;0.043321;0.0;0.0;0.0;0.0;0.0;0.0
1.0;1753881464.924698;17.404871;1.13;-1.59;0.06;0.290337;0.941733;0.043314;0.0;0.0;0.0;0.0;0.0;0.0
1.0;1753881464.929296;17.448127;1.08;-1.61;0.08;0.289138;0.94145;0.042136;0.0;0.0;0.0;0.0;0.0;0.0
1.0;1753881464.933896;17.381979;1.11;-1.64;-0.01;0.290338;0.941324;0.042298;0.0;0.0;0.0;0.0;0.0;0.0
1.0;1753881464.94009;17.371094;1.19;-1.61;0.0;0.289872;0.942816;0.041358;0.0;0.0;0.0;0.0;0.0;0.0
1.0;1753881464.944689;17.378002;1.2;-1.64;-0.01;0.288843;0.943787;0.04107;0.0;0.0;0.0;0.0;0.0;0.0
1.0;1753881464.949288;17.347334;1.2;-1.67;0.06;0.292767;0.944194;0.041818;0.0;0.0;0.0;0.0;0.0;0.0
1.0;1753881464.953887;17.363102;1.14;-1.77;0.05;0.289735;0.942351;0.041253;0.0;0.0;0.0;0.0;0.0;0.0
1.0;1753881464.958486;17.3666;1.15;-1.64;-0.02;0.288193;0.941901;0.041115;0.0;0.0;0.0;0.0;0.0;0.0
1.0;1753881464.963086;17.364628;1.07;-1.58;0.0;0.290161;0.941328;0.042287;0.0;0.0;0.0;0.0;0.0;0.0
1.0;1753881464.967684;17.391936;1.11;-1.53;0.0;0.288986;0.942474;0.042701;0.0;0.0;0.0;0.0;0.0;0.0
1.0;1753881464.972284;17.413506;1.21;-1.5;0.03;0.288889;0.94136;0.042498;0.0;0.0;0.0;0.0;0.0;0.0
1.0;1753881464.976883;17.38906;1.18;-1.62;0.03;0.287241;0.943792;0.042933;0.0;0.0;0.0;0.0;0.0;0.0
1.0;1753881464.981482;17.332701;1.1;-1.58;0.07;0.288432;0.942588;0.041262;0.0;0.0;0.0;0.0;0.0;0.0
1.0;1753881464.98604;17.371094;1.12;-1.61;0.07;0.288652;0.942206;0.041846;0.0;0.0;0.0;0.0;0.0;0.0
1.0;1753881464.990382;17.378906;0.14;-4.41;105.0;0.957212;0.286212;0.051728;0.0;0.0;0.0;0.0;0.0;0.0
1.0;1753881464.996376;17.378906;-1.33;-5.18;104.79;0.850828;0.528382;0.022204;0.0;0.0;0.0;0.0;0.0;0.0
1.0;1753881464.999419;17.378906;0.28;-4.34;102.41;0.919392;0.402234;0.069174;0.0;0.0;0.0;0.0;0.0;0.0
1.0;1753881465.004018;17.376399;1.79;-2.95;110.88;0.935148;0.364095;0.064641;0.0;0.0;0.0;0.0;0.0;0.0
1.0;1753881465.008617;17.382292;-1.01;-4.27;93.4;0.781841;0.797653;0.157713;0.0;0.0;0.0;0.0;0.0;0.0
1.0;1753881465.013216;17.389508;3.36;-3.11;123.26;0.860389;0.47318;0.057032;0.0;0.0;0.0;0.0;0.0;0.0
1.0;1753881465.017815;17.375886;-6.7;-5.18;103.92;0.954088;0.019005;0.115944;0.0;0.0;0.0;0.0;0.0;0.0
1.0;1753881465.022414;17.382058;-7.83;-6.93;111.66;0.771071;0.363838;0.050836;0.0;0.0;0.0;0.0;0.0;0.0
1.0;1753881465.027014;17.371342;-3.03;-4.4;113.88;0.806072;0.446956;0.009281;0.0;0.0;0.0;0.0;0.0;0.0
1.0;1753881465.031613;17.376656;1.19;-2.62;107.09;0.84833;0.434964;0.018249;0.0;0.0;0.0;0.0;0.0;0.0
1.0;1753881465.036212;17.376102;1.71;-5.58;103.64;0.904789;0.627596;0.101126;0.0;0.0;0.0;0.0;0.0;0.0
1.0;1753881465.040811;17.373811;3.53;-3.52;96.26;0.848416;0.141461;0.067063;0.0;0.0;0.0;0.0;0.0;0.0
1.0;1753881465.04541;17.383001;-3.4;-4.33;93.54;0.980521;0.412714;0.052445;0.0;0.0;0.0;0.0;0.0;0.0
1.0;1753881465.050009;17.384059;5.2;-6.35;92.47;1.033707;0.503166;0.094552;0.0;0.0;0.0;0.0;0.0;0.0
1.0;1753881465.054608;17.377517;3.42;-1.97;119.22;0.53102;0.464012;0.040772;0.0;0.0;0.0;0.0;0.0;0.0
1.0;1753881465.059207;17.379241;-1.19;-6.54;95.74;0.988967;0.441247;0.111742;0.0;0.0;0.0;0.0;0.0;0.0
1.0;1753881465.063806;17.37839;-1.43;-4.91;93.09;0.862516;0.009395;0.085145;0.0;0.0;0.0;0.0;0.0;0.0
1.0;1753881465.068406;17.373043;1.26;-2.68;105.33;1.076102;0.444728;0.112384;0.0;0.0;0.0;0.0;0.0;0.0
1.0;1753881465.073004;17.374183;3.63;-6.08;97.08;1.027241;0.236852;0.098896;0.0;0.0;0.0;0.0;0.0;0.0
1.0;1753881465.077604;17.37132;-6.56;-5.25;99.06;0.97247;0.409379;0.043511;0.0;0.0;0.0;0.0;0.0;0.0
1.0;1753881465.082203;17.380344;-1.92;-1.92;95.81;0.807695;0.367801;0.056156;0.0;0.0;0.0;0.0;0.0;0.0
1.0;1753881465.086802;17.371733;-0.57;-3.22;107.89;1.021259;0.324801;0.114202;0.0;0.0;0.0;0.0;0.0;0.0
1.0;1753881465.091401;17.381245;-3.0;-7.1;111.82;0.814127;0.304059;0.012075;0.0;0.0;0.0;0.0;0.0;0.0
1.0;1753881465.096;17.381534;3.9;-4.42;102.06;0.853985;0.32834;-0.062002;0.0;0.0;0.0;0.0;0.0;0.0
1.0;1753881465.100599;17.381325;-1.99;-2.77;109.03;1.179526;0.673709;0.044857;0.0;0.0;0.0;0.0;0.0;0.0
1.0;1753881465.105198;17.367713;-6.83;-5.05;91.76;0.976105;0.284445;0.071381;0.0;0.0;0.0;0.0;0.0;0.0
1.0;1753881465.109797;17.385921;-0.25;-8.07;108.82;0.950791;0.320663;0.038324;0.0;0.0;0.0;0.0;0.0;0.0
1.0;1753881465.114396;17.385543;-0.27;-2.35;112.78;1.014125;0.453273;0.088736;0.0;0.0;0.0;0.0;0.0;0.0
1.0;1753881465.118996;17.393054;1.46;-8.16;109.07;1.012053;0.468437;0.076712;0.0;0.0;0.0;0.0;0.0;0.0
1.0;1753881465.123594;17.377063;-3.2;-7.54;85.51;0.934419;0.45877;0.102938;0.0;0.0;0.0;0.0;0.0;0.0
1.0;1753881465.128194;17.382579;5.91;-3.4;91.64;0.766045;0.392407;0.075539;0.0;0.0;0.0;0.0;0.0;0.0
1.0;1753881465.132793;17.375676;-6.1;-3.38;117.05;1.068461;0.353935;0.044363;0.0;0.0;0.0;0.0;0.0;0.0
1.0;1753881465.137392;17.375946;4.85;-4.58;104.53;0.699284;0.175387;0.079089;0.0;0.0;0.0;0.0;0.0;0.0
1.0;1753881465.141991;17.368496;4.45;-4.11;116.51;0.985991;0.616956;-0.041719;0.0;0.0;0.0;0.0;0.0;0.0
1.0;1753881465.14659;17.384344;-0.98;-3.62;103.27;0.945197;0.007211;0.095997;0.0;0.0;0.0;0.0;0.0;0.0
1.0;1753881465.151189;17.369239;3.88;-4.68;94.72;1.059803;0.342721;0.020756;0.0;0.0;0.0;0.0;0.0;0.0
1.0;1753881465.155788;17.370856;1.05;-5.13;110.96;1.031737;0.355151;0.086603;0.0;0.0;0.0;0.0;0.0;0.0
1.0;1753881465.160387;17.366774;-3.73;-4.64;110.84;0.837948;0.602984;0.115346;0.0;0.0;0.0;0.0;0.0;0.0
1.0;1753881465.164986;17.38318;1.33;-3.59;107.56;0.972997;0.37;-0.034304;0.0;0.0;0.0;0.0;0.0;0.0
1.0;1753881465.169586;17.377618;3.96;-5.28;90.49;0.822502;0.290628;0.041093;0.0;0.0;0.0;0.0;0.0;0.0
1.0;1753881465.174184;17.358254;-0.62;-2.97;103.13;1.131256;0.510036;0.021064;0.0;0.0;0.0;0.0;0.0;0.0
1.0;1753881465.178784;17.382517;0.8;-4.63;98.47;1.002741;0.492446;0.013072;0.0;0.0;0.0;0.0;0.0;0.0
1.0;1753881465.183383;17.371463;0.32;-2.07;113.17;1.208816;0.279366;0.061814;0.0;0.0;0.0;0.0;0.0;0.0
1.0;1753881465.187982;17.377604;-1.29;-2.73;98.63;1.140062;0.327007;0.041205;0.0;0.0;0.0;0.0;0.0;0.0
1.0;1753881465.192581;17.372263;5.74;-3.17;99.71;0.851481;0.619565;0.095414;0.0;0.0;0.0;0.0;0.0;0.0
1.0;1753881465.19718;17.377986;2.63;-4.91;100.39;0.977194;0.613032;0.002407;0.0;0.0;0.0;0.0;0.0;0.0
1.0;1753881465.201779;17.376932;2.41;-3.42;84.13;1.00963;0.307376;0.025679;0.0;0.0;0.0;0.0;0.0;0.0
1.0;1753881465.206378;17.364245;-1.27;-3.54;100.68;0.940006;0.556321;-0.002221;0.0;0.0;0.0;0.0;0.0;0.0
1.0;1753881465.210977;17.372892;-2.69;-5.09;108.45;0.83749;0.593441;0.081919;0.0;0.0;0.0;0.0;0.0;0.0
1.0;1753881465.215576;17.373698;0.98;-5.96;79.08;0.854069;0.66115;0.059181;0.0;0.0;0.0;0.0;0.0;0.0
1.0;1753881465.220176;17.389071;-3.35;-6.08;91.41;1.037439;0.278986;-0.015388;0.0;0.0;0.0;0.0;0.0;0.0
1.0;1753881465.224774;17.371699;1.09;-4.93;79.86;1.113021;0.423059;0.113812;0.0;0.0;0.0;0.0;0.0;0.0
1.0;1753881465.229374;17.376885;-1.99;-2.77;127.23;0.910812;0.426314;0.024328;0.0;0.0;0.0;0.0;0.0;0.0
1.0;1753881465.233973;17.374049;-3.23;-4.33;128.06;0.965578;0.397993;0.057923;0.0;0.0;0.0;0.0;0.0;0.0
1.0;1753881465.238572;17.359704;-0.75;-5.58;102.27;0.936481;0.430952;0.111158;0.0;0.0;0.0;0.0;0.0;0.0
1.0;1753881465.243171;17.379295;-0.14;-4.16;99.61;1.320678;0.39423;0.047407;0.0;0.0;0.0;0.0;0.0;0.0
1.0;1753881465.24777;17.377097;-4.24;-2.79;118.04;0.85458;0.484459;-0.059888;0.0;0.0;0.0;0.0;0.0;0.0
1.0;1753881465.252369;17.363922;-0.71;-5.82;107.2;0.836936;0.269549;0.019215;0.0;0.0;0.0;0.0;0.0;0.0
1.0;1753881465.256968;17.380815;-2.16;-3.66;97.19;1.085245;0.224087;0.046897;0.0;0.0;0.0;0.0;0.0;0.0
1.0;1753881465.261567;17.368041;2.14;-4.7;125.64;0.887113;0.4277;0.084983;0.0;0.0;0.0;0.0;0.0;0.0
1.0;1753881465.266166;17.375768;-4.49;-5.0;105.52;0.889513;0.30582;0.041593;0.0;0.0;0.0;0.0;0.0;0.0
1.0;1753881465.270766;17.37791;-5.15;-5.1;91.62;0.897559;0.508155;0.109963;0.0;0.0;0.0;0.0;0.0;0.0
1.0;1753881465.275365;17.368893;3.77;-2.81;114.93;1.021766;0.707218;0.021596;0.0;0.0;0.0;0.0;0.0;0.0
1.0;1753881465.279964;17.369687;-2.74;-4.76;101.84;1.067558;0.495956;0.003268;0.0;0.0;0.0;0.0;0.0;0.0
1.0;1753881465.284563;17.378045;2.43;-3.37;98.66;0.907906;0.42078;0.072765;0.0;0.0;0.0;0.0;0.0;0.0
1.0;1753881465.289162;17.378137;-5.62;-4.02;119.17;0.916678;0.230722;0.155782;0.0;0.0;0.0;0.0;0.0;0.0
1.0;1753881465.293761;17.378329;-1.46;-4.1;101.42;0.747719;0.218744;0.069466;0.0;0.0;0.0;0.0;0.0;0.0
1.0;1753881465.29836;17.378814;-2.29;-3.58;103.27;0.795426;0.473835;0.01237;0.0;0.0;0.0;0.0;0.0;0.0
1.0;1753881465.302959;17.377226;-2.61;-6.06;115.0;0.901913;0.442566;0.069046;0.0;0.0;0.0;0.0;0.0;0.0
1.0;1753881465.307558;17.369389;1.33;-2.11;110.33;0.936421;0.547936;-0.067713;0.0;0.0;0.0;0.0;0.0;0.0
1.0;1753881465.312158;17.362992;1.1;-2.42;75.17;0.903611;0.068553;0.059781;0.0;0.0;0.0;0.0;0.0;0.0
1.0;1753881465.316756;17.366104;-0.3;-6.51;100.52;0.755637;0.352497;-0.006652;0.0;0.0;0.0;0.0;0.0;0.0
1.0;1753881465.321356;17.382851;-4.11;-4.42;103.34;0.929834;0.26485;0.057605;0.0;0.0;0.0;0.0;0.0;0.0
1.0;1753881465.325955;17.371697;-2.25;-3.0;107.71;0.95469;0.506568;-0.060047;0.0;0.0;0.0;0.0;0.0;0.0
1.0;1753881465.330554;17.37178;3.28;-1.04;103.07;0.86436;0.340651;0.100561;0.0;0.0;0.0;0.0;0.0;0.0
1.0;1753881465.335153;17.376996;0.01;-3.64;77.97;0.887362;0.645942;-0.002182;0.0;0.0;0.0;0.0;0.0;0.0
1.0;1753881465.339752;17.37183;-0.95;-3.51;100.78;0.847524;0.417991;0.083192;0.0;0.0;0.0;0.0;0.0;0.0
1.0;1753881465.344351;17.379302;-1.86;-4.44;105.21;0.78183;0.374449;0.000886;0.0;0.0;0.0;0.0;0.0;0.0
1.0;1753881465.34895;17.380069;-1.83;-4.06;95.59;0.878448;0.157735;0.05811;0.0;0.0;0.0;0.0;0.0;0.0
1.0;1753881465.353549;17.373096;-2.68;-2.05;91.58;0.937608;0.491925;0.04339;0.0;0.0;0.0;0.0;0.0;0.0
1.0;1753881465.358148;17.359505;2.12;-4.64;119.01;1.036684;0.514402;0.052103;0.0;0.0;0.0;0.0;0.0;0.0
1.0;1753881465.362748;17.3808;-0.1;-5.28;107.76;0.892208;0.367751;0.00087;0.0;0.0;0.0;0.0;0.0;0.0
1.0;1753881465.367346;17.364931;0.7;-5.73;117.47;0.914732;0.069792;0.000187;0.0;0.0;0.0;0.0;0.0;0.0
1.0;1753881465.371946;17.373605;-1.16;-4.73;103.96;1.148263;0.367685;0.019588;0.0;0.0;0.0;0.0;0.0;0.0
1.0;1753881465.376545;17.365989;-6.26;-4.94;87.44;0.768761;0.376693;0.008521;0.0;0.0;0.0;0.0;0.0;0.0
1.0;1753881465.381144;17.368138;-3.4;-3.19;98.87;0.973302;0.403858;0.023331;0.0;0.0;0.0;0.0;0.0;0.0
1.0;1753881465.385743;17.377139;-1.37;-3.58;108.34;1.063555;0.517622;-0.008123;0.0;0.0;0.0;0.0;0.0;0.0
1.0;1753881465.390342;17.373933;-6.88;-0.81;111.02;0.893344;0.354637;0.00395;0.0;0.0;0.0;0.0;0.0;0.0
1.0;1753881465.394941;17.377017;1.22;-7.59;89.98;0.897571;0.633121;0.077872;0.0;0.0;0.0;0.0;0.0;0.0
1.0;1753881465.4003;17.371094;-1.4;-4.2;103.32;0.901214;0.42395;0.037576;0.0;0.0;0.0;0.0;0.0;0.0
1.0;1753881465.404899;17.372281;-2.6;-4.84;120.6;0.964746;0.480005;0.006368;0.0;0.0;0.0;0.0;0.0;0.0
1.0;1753881465.409498;17.374722;-5.78;-3.73;89.06;0.994832;0.286659;-0.001715;0.0;0.0;0.0;0.0;0.0;0.0
1.0;1753881465.414097;17.375297;-4.02;-3.05;105.06;1.056594;0.291634;0.117215;0.0;0.0;0.0;0.0;0.0;0.0
1.0;1753881465.418696;17.371376;-1.19;-5.06;101.21;0.833099;0.377358;0.033189;0.0;0.0;0.0;0.0;0.0;0.0
1.0;1753881465.423296;17.367145;-1.11;-6.56;93.91;0.706569;0.437221;-0.024187;0.0;0.0;0.0;0.0;0.0;0.0
1.0;1753881465.427894;17.373502;-3.24;-2.98;100.74;0.962756;0.379526;0.064899;0.0;0.0;0.0;0.0;0.0;0.0
1.0;1753881465.432494;17.372064;0.95;-4.42;116.17;0.844976;0.59122;-0.054438;0.0;0.0;0.0;0.0;0.0;0.0
1.0;1753881465.437093;17.361044;0.07;-6.6;91.47;0.78175;0.258844;0.019998;0.0;0.0;0.0;0.0;0.0;0.0
1.0;1753881465.441692;17.373343;-1.64;-5.27;113.52;0.931675;0.529673;-0.013731;0.0;0.0;0.0;0.0;0.0;0.0
1.0;1753881465.446291;17.374738;0.91;-3.49;95.94;0.949817;0.7952;-0.050336;0.0;0.0;0.0;0.0;0.0;0.0
1.0;1753881465.45089;17.36592;-1.57;-6.92;89.83;1.036103;0.256308;0.008423;0.0;0.0;0.0;0.0;0.0;0.0
1.0;1753881465.455489;17.363316;-3.62;-3.25;90.67;0.939357;0.329222;-0.039667;0.0;0.0;0.0;0.0;0.0;0.0
1.0;1753881465.460088;17.368912;-1.37;-6.44;100.27;0.880238;0.63572;0.048359;0.0;0.0;0.0;0.0;0.0;0.0
1.0;1753881465.464687;17.370438;0.65;-5.33;101.86;0.92873;0.485445;-0.032197;0.0;0.0;0.0;0.0;0.0;0.0
1.0;1753881465.469286;17.375715;-2.93;-5.58;104.92;0.956117;0.463674;0.084275;0.0;0.0;0.0;0.0;0.0;0.0
1.0;1753881465.473886;17.372457;-1.13;-5.69;82.83;1.032223;0.492051;0.043815;0.0;0.0;0.0;0.0;0.0;0.0
1.0;1753881465.478485;17.369098;-1.51;-5.06;128.3;0.794038;0.533466;0.020983;0.0;0.0;0.0;0.0;0.0;0.0
1.0;1753881465.483084;17.363063;0.08;-4.69;97.4;1.072024;0.432046;0.049085;0.0;0.0;0.0;0.0;0.0;0.0
1.0;1753881465.487683;17.372121;-1.46;-4.3;100.41;0.842322;0.33678;0.041376;0.0;0.0;0.0;0.0;0.0;0.0
1.0;1753881465.492282;17.363331;-1.24;-5.68;120.04;0.882873;0.539751;0.101168;0.0;0.0;0.0;0.0;0.0;0.0
1.0;1753881465.496881;17.373795;-1.08;-3.74;108.75;0.71214;0.438019;-0.000192;0.0;0.0;0.0;0.0;0.0;0.0
1.0;1753881465.50148;17.369533;3.33;-4.64;104.48;0.897063;0.317457;-0.026384;0.0;0.0;0.0;0.0;0.0;0.0
1.0;1753881465.506079;17.363152;-0.86;-5.22;80.55;0.914169;0.245316;0.075136;0.0;0.0;0.0;0.0;0.0;0.0
1.0;1753881465.510678;17.369347;-0.66;-3.87;123.76;0.917003;0.258125;0.046632;0.0;0.0;0.0;0.0;0.0;0.0
1.0;1753881465.515278;17.367831;-4.55;-4.44;115.62;0.902599;0.377553;-0.024472;0.0;0.0;0.0;0.0;0.0;0.0
1.0;1753881465.519876;17.369526;-5.11;-4.98;82.05;0.816024;0.237065;0.01678;0.0;0.0;0.0;0.0;0.0;0.0
1.0;1753881465.524476;17.371089;-0.04;-3.57;90.31;0.935235;0.328786;0.044845;0.0;0.0;0.0;0.0;0.0;0.0
1.0;1753881465.529075;17.373305;-2.39;-5.14;95.95;0.80384;0.145539;0.043956;0.0;0.0;0.0;0.0;0.0;0.0
1.0;1753881465.533674;17.370522;-2.68;-2.65;112.58;1.070544;0.473718;0.079573;0.0;0.0;0.0;0.0;0.0;0.0
1.0;1753881465.538273;17.366717;-2.06;-2.11;113.42;0.857868;0.634133;0.12601;0.0;0.0;0.0;0.0;0.0;0.0
1.0;1753881465.542872;17.375488;-1.43;-4.8;111.29;0.936517;0.802427;-0.002437;0.0;0.0;0.0;0.0;0.0;0.0
1.0;1753881465.547471;17.379615;0.23;-3.31;100.81;0.792158;0.570899;0.082279;0.0;0.0;0.0;0.0;0.0;0.0
1.0;1753881465.55207;17.373956;-5.8;-2.57;96.51;0.879879;0.554236;0.077461;0.0;0.0;0.0;0.0;0.0;0.0
1.0;1753881465.556669;17.364163;-1.95;-4.19;105.22;0.81315;0.382587;0.009085;0.0;0.0;0.0;0.0;0.0;0.0
1.0;1753881465.561268;17.383466;-3.41;-4.3;102.06;0.874996;0.524475;-0.015628;0.0;0.0;0.0;0.0;0.0;0.0
1.0;1753881465.565868;17.370131;-0.17;-3.09;112.92;0.823735;0.321378;0.041248;0.0;0.0;0.0;0.0;0.0;0.0
1.0;1753881465.570466;17.369225;-0.53;-3.56;112.73;0.884582;0.545738;0.047178;0.0;0.0;0.0;0.0;0.0;0.0
1.0;1753881465.575066;17.377284;-3.12;-1.62;93.01;0.912104;0.208706;0.075101;0.0;0.0;0.0;0.0;0.0;0.0
1.0;1753881465.579665;17.378339;-5.6;-2.29;108.47;0.874119;0.261498;0.084043;0.0;0.0;0.0;0.0;0.0;0.0
1.0;1753881465.584264;17.374078;-2.92;-4.21;92.06;0.81942;0.16587;0.012456;0.0;0.0;0.0;0.0;0.0;0.0
1.0;1753881465.588863;17.373422;0.08;-2.77;109.58;0.690617;0.233691;0.060525;0.0;0.0;0.0;0.0;0.0;0.0
1.0;1753881465.593462;17.36973;0.85;-4.63;117.07;0.85164;0.347503;0.025713;0.0;0.0;0.0;0.0;0.0;0.0
1.0;1753881465.598061;17.364948;-1.24;-3.65;122.07;0.853548;0.425127;0.068553;0.0;0.0;0.0;0.0;0.0;0.0
1.0;1753881465.60266;17.374317;-1.36;-1.52;108.83;0.860998;0.397041;0.020398;0.0;0.0;0.0;0.0;0.0;0.0
1.0;1753881465.607259;17.379175;0.5;-3.3;92.95;0.719805;0.455528;0.011852;0.0;0.0;0.0;0.0;0.0;0.0
1.0;1753881465.611858;17.366316;-3.74;-3.17;92.14;0.907846;0.576346;0.052206;0.0;0.0;0.0;0.0;0.0;0.0
1.0;1753881465.616458;17.365523;1.29;-2.49;102.25;0.881152;0.398715;0.071951;0.0;0.0;0.0;0.0;0.0;0.0
1.0;1753881465.621056;17.374583;-1.33;-4.32;120.85;0.832982;0.419189;0.048823;0.0;0.0;0.0;0.0;0.0;0.0
1.0;1753881465.625656;17.371242;1.85;-4.06;82.44;0.905368;0.593061;0.084299;0.0;0.0;0.0;0.0;0.0;0.0
1.0;1753881465.630255;17.371335;-4.98;-4.17;86.88;0.952362;0.521823;0.011318;0.0;0.0;0.0;0.0;0.0;0.0
1.0;1753881465.634854;17.37221;-1.89;-4.72;103.62;0.81218;0.537806;0.01746;0.0;0.0;0.0;0.0;0.0;0.0
1.0;1753881465.639453;17.373199;-2.22;-4.9;104.18;0.838448;0.589969;-0.001628;0.0;0.0;0.0;0.0;0.0;0.0
1.0;1753881465.644052;17.379474;2.89;-6.07;100.49;0.837442;0.80393;-0.030026;0.0;0.0;0.0;0.0;0.0;0.0
1.0;1753881465.648651;17.365941;-3.06;-3.71;90.45;0.816629;0.375332;0.028141;0.0;0.0;0.0;0.0;0.0;0.0
1.0;1753881465.65325;17.37289;3.39;-4.75;112.09;0.869533;0.408588;0.105997;0.0;0.0;0.0;0.0;0.0;0.0
1.0;1753881465.657849;17.373099;2.52;-4.26;99.66;0.792988;0.560907;0.041727;0.0;0.0;0.0;0.0;0.0;0.0
1.0;1753881465.662448;17.377391;1.83;-4.14;122.05;0.852368;0.449415;0.146425;0.0;0.0;0.0;0.0;0.0;0.0
1.0;1753881465.667048;17.375268;-4.22;-4.87;113.45;0.925586;0.568335;0.07632;0.0;0.0;0.0;0.0;0.0;0.0
1.0;1753881465.671646;17.373834;5.13;-4.13;100.4;0.828318;0.518543;0.057441;0.0;0.0;0.0;0.0;0.0;0.0
1.0;1753881465.676246;17.370916;0.46;-3.87;138.26;0.681789;0.414165;0.114232;0.0;0.0;0.0;0.0;0.0;0.0
1.0;1753881465.680845;17.36457;-1.26;-4.74;105.01;1.013276;0.518839;0.0816;0.0;0.0;0.0;0.0;0.0;0.0
1.0;1753881465.685444;17.376569;0.3;-3.62;105.43;0.970236;0.349347;0.042338;0.0;0.0;0.0;0.0;0.0;0.0
1.0;1753881465.690043;17.379394;1.02;-4.64;127.66;0.83392;0.395919;0.056852;0.0;0.0;0.0;0.0;0.0;0.0
1.0;1753881465.694642;17.368485;0.21;-3.18;89.93;0.88816;0.506004;-0.020295;0.0;0.0;0.0;0.0;0.0;0.0
1.0;1753881465.699241;17.366106;1.36;-3.78;125.64;0.857134;0.427381;0.060081;0.0;0.0;0.0;0.0;0.0;0.0
1.0;1753881465.70384;17.36725;-3.43;-3.09;112.17;0.735549;0.453214;0.075471;0.0;0.0;0.0;0.0;0.0;0.0
1.0;1753881465.708439;17.364516;-4.03;-3.29;117.79;0.717436;0.422422;0.128511;0.0;0.0;0.0;0.0;0.0;0.0
1.0;1753881465.713038;17.368384;-0.54;-3.09;93.43;0.887487;0.326698;0.122631;0.0;0.0;0.0;0.0;0.0;0.0
1.0;1753881465.717638;17.375672;2.98;-3.81;83.38;1.027113;0.07269;-0.030712;0.0;0.0;0.0;0.0;0.0;0.0
1.0;1753881465.722237;17.38152;-1.35;-4.32;97.68;0.925776;0.4828;0.091602;0.0;0.0;0.0;0.0;0.0;0.0
1.0;1753881465.726836;17.374901;3.77;-3.65;100.6;0.931337;0.626576;0.030117;0.0;0.0;0.0;0.0;0.0;0.0
1.0;1753881465.731435;17.367014;0.66;-3.88;96.09;1.051989;0.365536;0.078631;0.0;0.0;0.0;0.0;0.0;0.0
1.0;1753881465.736034;17.384375;-1.37;-3.36;88.89;0.856886;0.271842;0.01732;0.0;0.0;0.0;0.0;0.0;0.0
1.0;1753881465.740633;17.365784;-3.48;-2.67;97.65;0.940286;0.304394;0.082102;0.0;0.0;0.0;0.0;0.0;0.0
1.0;1753881465.745232;17.375169;-0.1;-6.33;107.89;0.900307;0.594057;0.115475;0.0;0.0;0.0;0.0;0.0;0.0
1.0;1753881465.749831;17.368284;0.21;-3.9;109.91;0.83619;0.415068;0.015175;0.0;0.0;0.0;0.0;0.0;0.0
1.0;1753881465.75443;17.36639;-0.73;-5.1;90.29;1.002789;0.445565;0.099154;0.0;0.0;0.0;0.0;0.0;0.0
1.0;1753881465.75903;17.371217;4.83;-3.48;90.04;0.859884;0.371484;0.074241;0.0;0.0;0.0;0.0;0.0;0.0
1.0;1753881465.763628;17.374626;2.12;-5.65;85.85;1.106802;0.429251;0.108967;0.0;0.0;0.0;0.0;0.0;0.0
1.0;1753881465.768228;17.365875;-0.1;-5.57;126.17;0.794115;0.541179;-0.003279;0.0;0.0;0.0;0.0;0.0;0.0
1.0;1753881465.772827;17.370613;-0.73;-5.39;107.54;0.973516;0.635789;0.156375;0.0;0.0;0.0;0.0;0.0;0.0
1.0;1753881465.777426;17.373556;-1.81;-3.69;97.24;0.925031;0.407405;0.020337;0.0;0.0;0.0;0.0;0.0;0.0
1.0;1753881465.782025;17.363305;-0.96;-3.97;129.45;0.869204;0.45693;0.066449;0.0;0.0;0.0;0.0;0.0;0.0
1.0;1753881465.786624;17.378903;-3.38;-4.37;102.97;0.783437;0.490621;0.062576;0.0;0.0;0.0;0.0;0.0;0.0
1.0;1753881465.791223;17.37854;1.68;-3.29;87.56;0.853521;0.548937;0.089333;0.0;0.0;0.0;0.0;0.0;0.0
1.0;1753881465.795822;17.375558;-0.8;-3.11;117.55;0.971944;0.538101;-0.01868;0.0;0.0;0.0;0.0;0.0;0.0
1.0;1753881465.800421;17.368412;-1.87;-3.65;87.35;0.778015;0.299965;-5.7e-05;0.0;0.0;0.0;0.0;0.0;0.0
1.0;1753881465.80502;17.385567;-0.66;-3.23;88.73;0.900464;0.474346;0.031486;0.0;0.0;0.0;0.0;0.0;0.0
1.0;1753881465.80962;17.371219;-3.31;-1.67;105.2;0.787875;0.347202;-0.016744;0.0;0.0;0.0;0.0;0.0;0.0
1.0;1753881465.814218;17.358597;-5.76;-4.09;122.33;0.852177;0.354017;-0.016749;0.0;0.0;0.0;0.0;0.0;0.0
1.0;1753881465.818818;17.371664;-1.0;-3.23;104.77;0.841988;0.604148;-0.011568;0.0;0.0;0.0;0.0;0.0;0.0
1.0;1753881465.823417;17.368525;2.81;-3.69;117.77;0.851444;0.299126;0.081123;0.0;0.0;0.0;0.0;0.0;0.0
1.0;1753881465.828016;17.361194;1.5;-3.14;114.15;0.889244;0.443008;0.089345;0.0;0.0;0.0;0.0;0.0;0.0
1.0;1753881465.832615;17.372813;0.12;-5.05;80.58;0.815232;0.611663;-0.021851;0.0;0.0;0.0;0.0;0.0;0.0
1.0;1753881465.837214;17.373108;-1.01;-3.4;80.74;0.794788;0.453342;0.061362;0.0;0.0;0.0;0.0;0.0;0.0
1.0;1753881465.841813;17.370916;-0.68;-3.1;104.77;0.795346;0.427827;0.052479;0.0;0.0;0.0;0.0;0.0;0.0
1.0;1753881465.846412;17.370589;1.79;-4.39;98.95;0.823088;0.564636;0.123128;0.0;0.0;0.0;0.0;0.0;0.0
1.0;1753881465.851011;17.367464;-1.28;-3.82;117.96;0.925042;0.644991;0.055443;0.0;0.0;0.0;0.0;0.0;0.0
1.0;1753881465.85561;17.373779;2.24;-2.31;96.12;0.911655;0.61719;0.064097;0.0;0.0;0.0;0.0;0.0;0.0
1.0;1753881465.86021;17.368199;2.33;-5.0;110.93;0.726459;0.484555;0.066131;0.0;0.0;0.0;0.0;0.0;0.0
1.0;1753881465.864808;17.37413;1.01;-4.66;118.85;0.701941;0.600613;-0.045799;0.0;0.0;0.0;0.0;0.0;0.0
1.0;1753881465.869408;17.367585;-1.18;-1.67;122.82;0.778613;0.573498;0.061773;0.0;0.0;0.0;0.0;0.0;0.0
1.0;1753881465.874007;17.36817;-2.53;-2.52;112.02;0.809107;0.322621;0.07759;0.0;0.0;0.0;0.0;0.0;0.0
1.0;1753881465.878606;17.382118;-4.02;-3.92;118.12;0.852941;0.508761;0.048885;0.0;0.0;0.0;0.0;0.0;0.0
1.0;1753881465.883205;17.370877;-0.84;-1.68;127.3;1.018797;0.500157;0.043533;0.0;0.0;0.0;0.0;0.0;0.0
1.0;1753881465.887804;17.371336;-3.22;-4.23;93.16;0.769706;0.360182;0.079515;0.0;0.0;0.0;0.0;0.0;0.0
1.0;1753881465.892403;17.375371;-1.1;-4.29;103.27;1.023653;0.516268;-0.044789;0.0;0.0;0.0;0.0;0.0;0.0
1.0;1753881465.897002;17.365431;5.12;-4.6;99.06;0.818159;0.399629;0.00319;0.0;0.0;0.0;0.0;0.0;0.0
1.0;1753881465.901601;17.374835;-0.88;-3.0;118.59;0.978843;0.441546;0.061532;0.0;0.0;0.0;0.0;0.0;0.0
1.0;1753881465.9062;17.369746;0.74;-2.98;124.67;0.829163;0.696038;0.140496;0.0;0.0;0.0;0.0;0.0;0.0
1.0;1753881465.9108;17.370151;-0.44;-2.03;77.1;0.995323;0.394449;0.106473;0.0;0.0;0.0;0.0;0.0;0.0
1.0;1753881465.915398;17.365098;-2.88;-2.84;118.84;0.638312;0.63074;0.022002;0.0;0.0;0.0;0.0;0.0;0.0
1.0;1753881465.919998;17.363595;-4.07;-3.59;84.96;0.828002;0.516013;0.016046;0.0;0.0;0.0;0.0;0.0;0.0
1.0;1753881465.9279;17.371094;-0.77;-3.43;104.51;0.858636;0.465674;0.059536;0.0;0.0;0.0;0.0;0.0;0.0
1.0;1753881465.932499;17.387751;-1.82;-1.73;103.15;0.825474;0.343356;0.052953;0.0;0.0;0.0;0.0;0.0;0.0
1.0;1753881465.937098;17.388617;-1.5;0.18;107.43;0.804796;0.335291;0.045328;0.0;0.0;0.0;0.0;0.0;0.0
1.0;1753881465.94377;17.394531;0.14;-1.19;112.14;0.862662;0.34099;0.050386;0.0;0.0;0.0;0.0;0.0;0.0
1.0;1753881465.948369;17.408535;-0.9;-0.05;113.85;0.842133;0.489351;0.02264;0.0;0.0;0.0;0.0;0.0;0.0
1.0;1753881465.95405;17.386719;-0.21;-0.28;113.33;0.958798;0.354776;0.048312;0.0;0.0;0.0;0.0;0.0;0.0
1.0;1753881465.95514;17.328125;-4.62;-3.15;121.66;0.106628;-0.98149;-0.102724;0.0;0.0;0.0;0.0;0.0;0.0
1.0;1753881465.959717;17.328125;-2.1;0.0;121.03;0.12749;-1.021506;0.081618;0.0;0.0;0.0;0.0;0.0;0.0
1.0;1753881465.965497;17.328125;3.15;-0.77;129.85;0.503494;-0.997472;-0.007198;0.0;0.0;0.0;0.0;0.0;0.0
1.0;1753881465.970096;17.326573;2.11;-2.73;121.42;0.444498;-1.006255;-0.133121;0.0;0.0;0.0;0.0;0.0;0.0
1.0;1753881465.976307;17.363281;-1.33;-3.5;121.1;-0.152256;-1.101172;0.0061;0.0;0.0;0.0;0.0;0.0;0.0
1.0;1753881465.978898;17.363281;-3.22;2.45;114.94;-0.152256;-1.101172;0.0061;0.0;0.0;0.0;0.0;0.0;0.0
1.0;1753881465.983207;17.363281;-1.19;-2.31;119.63;0.395036;-0.961482;0.021716;0.0;0.0;0.0;0.0;0.0;0.0
1.0;1753881465.987104;17.363281;-0.07;-6.79;121.52;-0.145058;-1.031022;0.044408;0.0;0.0;0.0;0.0;0.0;0.0
1.0;1753881465.991946;17.378906;-0.14;-1.61;118.09;-0.015494;-1.080066;-0.019398;0.0;0.0;0.0;0.0;0.0;0.0
1.0;1753881465.996303;17.378906;0.56;-0.91;117.88;0.25864;-0.975756;0.022204;0.0;0.0;0.0;0.0;0.0;0.0
1.0;1753881466.000902;17.389947;-1.92;1.86;115.83;0.500762;-0.964674;-0.014788;0.0;0.0;0.0;0.0;0.0;0.0
1.0;1753881466.005501;17.37881;-0.13;1.36;119.07;0.322347;-0.916116;0.005585;0.0;0.0;0.0;0.0;0.0;0.0
1.0;1753881466.0101;17.388839;-1.22;-3.73;118.2;0.23591;-1.10241;0.049486;0.0;0.0;0.0;0.0;0.0;0.0
1.0;1753881466.0147;17.380119;2.17;0.64;113.73;0.098151;-0.914941;0.010866;0.0;0.0;0.0;0.0;0.0;0.0
1.0;1753881466.019298;17.376272;2.85;-1.13;116.35;0.26661;-1.076947;-0.009532;0.0;0.0;0.0;0.0;0.0;0.0
1.0;1753881466.023898;17.389807;-1.41;-2.74;119.03;0.427915;-1.065002;0.025981;0.0;0.0;0.0;0.0;0.0;0.0
1.0;1753881466.028497;17.368009;-1.83;1.26;115.47;0.486134;-0.984242;0.066834;0.0;0.0;0.0;0.0;0.0;0.0
1.0;1753881466.033096;17.375021;1.98;-2.26;124.69;0.453699;-1.00219;0.018394;0.0;0.0;0.0;0.0;0.0;0.0
1.0;1753881466.037695;17.358649;-1.02;-2.46;120.74;0.017763;-0.95439;-0.008752;0.0;0.0;0.0;0.0;0.0;0.0
1.0;1753881466.042294;17.38705;3.06;-3.63;117.21;0.19737;-0.996231;0.033224;0.0;0.0;0.0;0.0;0.0;0.0
1.0;1753881466.046893;17.406709;4.39;-4.88;114.47;-0.033824;-0.954957;-0.029103;0.0;0.0;0.0;0.0;0.0;0.0
1.0;1753881466.051492;17.3599;1.45;1.81;115.03;0.057797;-1.059459;-0.022192;0.0;0.0;0.0;0.0;0.0;0.0
1.0;1753881466.056091;17.383081;-1.76;-5.13;116.34;0.323249;-1.026669;-0.013376;0.0;0.0;0.0;0.0;0.0;0.0
1.0;1753881466.06069;17.393889;0.58;-0.66;114.5;-0.127167;-0.936965;-0.021841;0.0;0.0;0.0;0.0;0.0;0.0
1.0;1753881466.06529;17.381759;3.82;-1.07;124.56;0.446434;-1.02766;0.001726;0.0;0.0;0.0;0.0;0.0;0.0
1.0;1753881466.069888;17.384413;2.6;-5.24;115.79;0.13829;-1.011923;0.058494;0.0;0.0;0.0;0.0;0.0;0.0
1.0;1753881466.074488;17.35522;4.05;-2.84;118.91;-0.238681;-0.960925;-0.007668;0.0;0.0;0.0;0.0;0.0;0.0
1.0;1753881466.079087;17.381385;2.46;0.1;119.1;0.382152;-0.986685;0.000931;0.0;0.0;0.0;0.0;0.0;0.0
1.0;1753881466.083686;17.365467;0.7;-0.04;115.08;0.070234;-0.926847;0.059965;0.0;0.0;0.0;0.0;0.0;0.0
1.0;1753881466.088285;17.393857;6.24;-4.42;123.28;0.208486;-1.024525;-0.000855;0.0;0.0;0.0;0.0;0.0;0.0
1.0;1753881466.092884;17.376014;0.94;-0.0;119.66;0.385643;-0.925507;0.020664;0.0;0.0;0.0;0.0;0.0;0.0
1.0;1753881466.097483;17.375278;-2.7;2.51;114.3;0.262155;-1.046549;0.124836;0.0;0.0;0.0;0.0;0.0;0.0
1.0;1753881466.102082;17.395428;0.81;0.38;115.3;0.066922;-0.971885;0.035454;0.0;0.0;0.0;0.0;0.0;0.0
1.0;1753881466.106681;17.392668;-0.18;-2.06;118.26;0.182086;-0.898715;0.040127;0.0;0.0;0.0;0.0;0.0;0.0
1.0;1753881466.11128;17.386527;1.56;-0.24;117.49;0.120641;-1.043428;-0.031767;0.0;0.0;0.0;0.0;0.0;0.0
1.0;1753881466.11588;17.388741;-2.69;0.49;114.4;-0.026154;-0.8728;0.034508;0.0;0.0;0.0;0.0;0.0;0.0
1.0;1753881466.120479;17.409376;0.84;-4.82;124.7;0.235296;-1.060239;-0.027143;0.0;0.0;0.0;0.0;0.0;0.0
1.0;1753881466.125078;17.38757;0.77;-0.58;121.09;0.198705;-0.894644;0.011747;0.0;0.0;0.0;0.0;0.0;0.0
1.0;1753881466.129677;17.352056;-3.69;-5.57;114.56;0.29395;-0.983988;0.03256;0.0;0.0;0.0;0.0;0.0;0.0
1.0;1753881466.134276;17.403527;0.04;-1.59;112.67;0.326254;-0.963534;0.050868;0.0;0.0;0.0;0.0;0.0;0.0
1.0;1753881466.138875;17.334979;-4.46;1.81;117.06;0.134843;-0.991373;0.038504;0.0;0.0;0.0;0.0;0.0;0.0
1.0;1753881466.143474;17.374689;4.3;-1.1;117.49;0.088341;-0.935321;-0.028052;0.0;0.0;0.0;0.0;0.0;0.0
1.0;1753881466.148073;17.378066;0.14;-1.5;117.79;0.069972;-0.983667;0.104809;0.0;0.0;0.0;0.0;0.0;0.0
1.0;1753881466.152672;17.37666;1.14;-1.82;115.8;0.099919;-0.987657;-0.021833;0.0;0.0;0.0;0.0;0.0;0.0
1.0;1753881466.157272;17.379242;-2.37;-1.47;118.82;-0.00339;-1.05158;-0.054261;0.0;0.0;0.0;0.0;0.0;0.0
1.0;1753881466.16187;17.356541;2.48;-1.09;117.44;0.318145;-0.986033;-0.019999;0.0;0.0;0.0;0.0;0.0;0.0
1.0;1753881466.16647;17.393055;0.89;-0.52;115.33;0.185856;-0.978239;0.018645;0.0;0.0;0.0;0.0;0.0;0.0
1.0;1753881466.171069;17.350467;2.72;-2.41;114.35;0.278668;-0.921593;0.001565;0.0;0.0;0.0;0.0;0.0;0.0
1.0;1753881466.175668;17.398138;4.82;-7.26;119.46;0.247221;-0.992309;0.062493;0.0;0.0;0.0;0.0;0.0;0.0
1.0;1753881466.180267;17.380947;0.39;-6.56;118.48;0.1104;-0.876601;0.099402;0.0;0.0;0.0;0.0;0.0;0.0
1.0;1753881466.184866;17.379473;2.06;4.55;118.94;0.072341;-0.962038;-0.025027;0.0;0.0;0.0;0.0;0.0;0.0
1.0;1753881466.189465;17.368628;2.23;-3.3;119.0;0.18857;-0.978075;0.077704;0.0;0.0;0.0;0.0;0.0;0.0
1.0;1753881466.194064;17.421553;5.31;-8.42;109.97;-0.209414;-0.911311;0.034944;0.0;0.0;0.0;0.0;0.0;0.0
1.0;1753881466.198663;17.389765;2.92;4.76;118.87;0.229273;-0.912585;0.044278;0.0;0.0;0.0;0.0;0.0;0.0
1.0;1753881466.203262;17.370969;-4.83;-3.02;116.46;0.185146;-0.978658;0.125005;0.0;0.0;0.0;0.0;0.0;0.0
1.0;1753881466.207862;17.362624;4.16;-2.88;119.73;-0.070122;-1.004847;0.072712;0.0;0.0;0.0;0.0;0.0;0.0
1.0;1753881466.21246;17.366671;0.47;-6.24;117.85;0.401437;-0.946343;0.081912;0.0;0.0;0.0;0.0;0.0;0.0
1.0;1753881466.21706;17.328577;-0.62;2.5;120.49;0.117042;-0.923947;0.065348;0.0;0.0;0.0;0.0;0.0;0.0
1.0;1753881466.221659;17.406631;3.32;-2.55;115.37;-0.004904;-0.976519;0.068558;0.0;0.0;0.0;0.0;0.0;0.0
1.0;1753881466.226258;17.359084;-1.06;-6.6;116.08;0.388762;-0.982185;0.038669;0.0;0.0;0.0;0.0;0.0;0.0
1.0;1753881466.230857;17.377101;0.25;-2.1;116.67;-0.195657;-0.900419;0.05476;0.0;0.0;0.0;0.0;0.0;0.0
1.0;1753881466.235456;17.365568;-3.17;0.73;119.7;-0.104708;-0.986661;-0.032868;0.0;0.0;0.0;0.0;0.0;0.0
1.0;1753881466.240055;17.352777;8.07;-2.6;119.09;0.133882;-0.896168;-6e-05;0.0;0.0;0.0;0.0;0.0;0.0
1.0;1753881466.244654;17.386137;1.15;-2.0;122.31;0.41457;-0.941807;0.00354;0.0;0.0;0.0;0.0;0.0;0.0
1.0;1753881466.249253;17.386939;-4.38;-1.24;119.94;0.001593;-0.974456;0.022404;0.0;0.0;0.0;0.0;0.0;0.0
1.0;1753881466.253852;17.415399;4.34;1.14;122.1;0.02184;-1.024471;-0.000706;0.0;0.0;0.0;0.0;0.0;0.0
1.0;1753881466.258452;17.376772;0.34;0.46;121.56;-0.011212;-0.981191;0.038159;0.0;0.0;0.0;0.0;0.0;0.0
1.0;1753881466.26305;17.350278;1.97;-8.05;114.25;-0.190963;-1.06236;0.054746;0.0;0.0;0.0;0.0;0.0;0.0
1.0;1753881466.26765;17.351325;1.05;-1.03;122.92;0.243109;-0.92925;0.027484;0.0;0.0;0.0;0.0;0.0;0.0
1.0;1753881466.272249;17.361073;-0.15;-0.62;108.79;0.095897;-1.020684;-0.030474;0.0;0.0;0.0;0.0;0.0;0.0
1.0;1753881466.276848;17.370568;-2.18;-6.15;121.46;-0.099802;-1.022409;0.052271;0.0;0.0;0.0;0.0;0.0;0.0
1.0;1753881466.281447;17.402828;4.96;-0.83;119.93;0.282739;-0.913823;-0.00901;0.0;0.0;0.0;0.0;0.0;0.0
1.0;1753881466.286046;17.386152;4.1;1.3;118.76;0.10688;-0.8827;-0.024136;0.0;0.0;0.0;0.0;0.0;0.0
1.0;1753881466.290645;17.366373;-5.68;-2.78;117.12;0.177981;-0.919933;-0.032646;0.0;0.0;0.0;0.0;0.0;0.0
1.0;1753881466.295244;17.363076;-0.29;-6.23;115.49;0.430154;-0.875896;0.006432;0.0;0.0;0.0;0.0;0.0;0.0
1.0;1753881466.299843;17.368204;3.26;2.19;121.03;-0.039497;-1.062505;0.034924;0.0;0.0;0.0;0.0;0.0;0.0
1.0;1753881466.304442;17.386174;-2.91;-3.26;119.78;0.207264;-1.014111;0.113449;0.0;0.0;0.0;0.0;0.0;0.0
1.0;1753881466.309042;17.394076;-2.36;-0.31;116.16;0.058908;-1.023841;0.080188;0.0;0.0;0.0;0.0;0.0;0.0
1.0;1753881466.31364;17.380398;1.81;-2.36;121.91;0.088129;-1.041271;0.063019;0.0;0.0;0.0;0.0;0.0;0.0
1.0;1753881466.31824;17.396785;0.76;-4.95;128.36;0.37835;-0.974;-0.021043;0.0;0.0;0.0;0.0;0.0;0.0
1.0;1753881466.322839;17.402441;0.05;-1.74;115.45;0.146165;-0.979334;-0.041657;0.0;0.0;0.0;0.0;0.0;0.0
1.0;1753881466.327438;17.357534;3.31;-1.8;116.38;0.35371;-1.022383;0.001699;0.0;0.0;0.0;0.0;0.0;0.0
1.0;1753881466.332037;17.381612;2.26;-1.82;120.81;0.194167;-0.955408;0.030425;0.0;0.0;0.0;0.0;0.0;0.0
1.0;1753881466.336636;17.384366;-4.59;0.15;123.56;-0.056952;-0.917684;0.018831;0.0;0.0;0.0;0.0;0.0;0.0
1.0;1753881466.341235;17.356359;0.85;2.35;118.58;-0.369796;-0.936043;0.02448;0.0;0.0;0.0;0.0;0.0;0.0
1.0;1753881466.345834;17.383288;1.72;-5.16;117.61;0.374178;-0.933236;0.045219;0.0;0.0;0.0;0.0;0.0;0.0
1.0;1753881466.350433;17.357331;-1.14;-6.57;121.43;-0.124143;-1.036038;-0.006231;0.0;0.0;0.0;0.0;0.0;0.0
1.0;1753881466.355032;17.393594;-5.16;2.79;118.11;0.034059;-0.966402;0.025769;0.0;0.0;0.0;0.0;0.0;0.0
1.0;1753881466.359632;17.375567;6.89;-6.98;123.22;0.162827;-0.920105;0.061428;0.0;0.0;0.0;0.0;0.0;0.0
1.0;1753881466.364231;17.373848;3.14;-3.3;116.83;0.176676;-1.019204;0.02629;0.0;0.0;0.0;0.0;0.0;0.0
1.0;1753881466.36883;17.37607;-4.57;-0.71;124.54;0.228151;-0.965002;0.012742;0.0;0.0;0.0;0.0;0.0;0.0
1.0;1753881466.373429;17.364029;-6.32;-1.55;130.71;0.15324;-0.947949;-0.028534;0.0;0.0;0.0;0.0;0.0;0.0
1.0;1753881466.378028;17.390337;-1.91;-1.04;111.48;-0.069957;-1.106755;0.086139;0.0;0.0;0.0;0.0;0.0;0.0
1.0;1753881466.382627;17.408823;1.16;1.73;117.97;0.073395;-0.914912;-0.031147;0.0;0.0;0.0;0.0;0.0;0.0
1.0;1753881466.387226;17.365206;2.38;-5.51;113.68;0.364708;-1.028501;0.040381;0.0;0.0;0.0;0.0;0.0;0.0
1.0;1753881466.391825;17.388066;-3.21;-3.56;116.72;0.603523;-1.019288;0.046626;0.0;0.0;0.0;0.0;0.0;0.0
1.0;1753881466.396424;17.374531;-0.4;-0.96;128.16;0.146707;-0.890966;0.039034;0.0;0.0;0.0;0.0;0.0;0.0
1.0;1753881466.401024;17.347018;2.62;-2.24;116.94;-0.087219;-0.922311;0.023296;0.0;0.0;0.0;0.0;0.0;0.0
1.0;1753881466.405622;17.376559;-4.37;-2.06;119.9;0.076248;-0.96421;0.05343;0.0;0.0;0.0;0.0;0.0;0.0
1.0;1753881466.410222;17.392885;-0.58;1.42;119.04;0.157102;-0.924143;-0.015555;0.0;0.0;0.0;0.0;0.0;0.0
1.0;1753881466.414821;17.364111;5.16;-1.38;118.23;0.345167;-0.850491;0.036459;0.0;0.0;0.0;0.0;0.0;0.0
1.0;1753881466.41942;17.387617;-2.34;-1.24;118.11;-0.160023;-1.010423;0.044469;0.0;0.0;0.0;0.0;0.0;0.0
1.0;1753881466.424019;17.377793;0.75;-8.24;118.39;0.054322;-1.100819;0.067423;0.0;0.0;0.0;0.0;0.0;0.0
1.0;1753881466.428618;17.381767;1.28;-4.71;118.81;0.013004;-0.994269;0.075949;0.0;0.0;0.0;0.0;0.0;0.0
1.0;1753881466.433217;17.380212;-2.51;-8.2;118.19;0.239545;-0.958918;0.106288;0.0;0.0;0.0;0.0;0.0;0.0
1.0;1753881466.437816;17.382099;0.81;-6.16;112.33;0.055085;-0.940834;0.053137;0.0;0.0;0.0;0.0;0.0;0.0
1.0;1753881466.442415;17.361647;-1.28;-5.34;118.7;0.167291;-0.927083;0.042156;0.0;0.0;0.0;0.0;0.0;0.0
1.0;1753881466.447014;17.353378;-1.0;-2.89;124.6;0.397859;-0.967335;0.04676;0.0;0.0;0.0;0.0;0.0;0.0
1.0;1753881466.451614;17.406332;5.85;-0.62;111.77;0.560735;-1.009024;0.028208;0.0;0.0;0.0;0.0;0.0;0.0
1.0;1753881466.456212;17.383626;0.29;-4.37;117.14;0.197333;-1.000891;-0.028554;0.0;0.0;0.0;0.0;0.0;0.0
1.0;1753881466.460812;17.372989;3.43;-5.39;120.36;0.185621;-0.953806;0.1377;0.0;0.0;0.0;0.0;0.0;0.0
1.0;1753881466.465411;17.346283;-2.42;-1.87;121.65;0.75567;-0.982099;-0.017897;0.0;0.0;0.0;0.0;0.0;0.0
1.0;1753881466.47001;17.385598;-0.34;-4.61;123.51;0.421167;-0.945651;0.030036;0.0;0.0;0.0;0.0;0.0;0.0
1.0;1753881466.474609;17.358767;2.54;-5.51;115.41;0.091213;-0.97988;0.069947;0.0;0.0;0.0;0.0;0.0;0.0
1.0;1753881466.479208;17.393252;-0.82;-4.39;119.63;0.273116;-0.948007;0.04955;0.0;0.0;0.0;0.0;0.0;0.0
1.0;1753881466.483807;17.386688;-8.03;-0.99;123.49;0.097462;-0.906653;0.083362;0.0;0.0;0.0;0.0;0.0;0.0
1.0;1753881466.488406;17.373153;-1.2;-4.28;118.28;0.45295;-1.000601;0.087614;0.0;0.0;0.0;0.0;0.0;0.0
1.0;1753881466.493005;17.380512;1.01;-8.34;113.95;0.022219;-0.935904;0.0339;0.0;0.0;0.0;0.0;0.0;0.0
1.0;1753881466.497604;17.404227;-1.78;-2.33;122.91;0.479116;-1.034696;0.118776;0.0;0.0;0.0;0.0;0.0;0.0
1.0;1753881466.502204;17.372524;-1.69;-3.27;117.82;0.027947;-1.111687;0.041672;0.0;0.0;0.0;0.0;0.0;0.0
1.0;1753881466.506802;17.383784;2.77;-3.35;111.68;0.507321;-1.012648;-0.007416;0.0;0.0;0.0;0.0;0.0;0.0
1.0;1753881466.511402;17.408542;5.26;-1.47;119.76;0.293942;-0.993986;0.000871;0.0;0.0;0.0;0.0;0.0;0.0
1.0;1753881466.516001;17.366811;1.07;-0.8;121.03;0.002737;-0.998186;-0.014643;0.0;0.0;0.0;0.0;0.0;0.0
1.0;1753881466.5206;17.388079;0.84;-0.88;119.47;0.493559;-1.104976;-0.031088;0.0;0.0;0.0;0.0;0.0;0.0
1.0;1753881466.525199;17.400943;1.15;-4.09;126.55;0.24985;-0.855454;-0.032245;0.0;0.0;0.0;0.0;0.0;0.0
1.0;1753881466.529798;17.380243;2.21;-1.75;120.03;-0.042164;-0.893153;-0.005624;0.0;0.0;0.0;0.0;0.0;0.0
1.0;1753881466.534397;17.361834;-1.69;-3.14;116.94;0.184496;-0.989046;-0.002127;0.0;0.0;0.0;0.0;0.0;0.0
1.0;1753881466.538996;17.375739;1.93;-2.18;112.84;0.318343;-1.00026;0.157642;0.0;0.0;0.0;0.0;0.0;0.0
1.0;1753881466.543595;17.37497;3.5;-1.04;114.81;0.282121;-1.049953;0.003514;0.0;0.0;0.0;0.0;0.0;0.0
1.0;1753881466.548194;17.386817;-2.87;0.12;120.11;-0.166751;-1.058509;0.003285;0.0;0.0;0.0;0.0;0.0;0.0
1.0;1753881466.552794;17.392087;2.67;-4.85;120.39;0.196655;-1.031756;0.04141;0.0;0.0;0.0;0.0;0.0;0.0
1.0;1753881466.557392;17.375087;-4.83;-4.93;121.38;0.102271;-0.878509;0.006205;0.0;0.0;0.0;0.0;0.0;0.0
1.0;1753881466.561992;17.376583;0.48;-6.49;118.05;0.167314;-1.029841;0.041047;0.0;0.0;0.0;0.0;0.0;0.0
1.0;1753881466.566591;17.392008;-1.29;-3.91;120.56;0.133655;-0.961827;0.079708;0.0;0.0;0.0;0.0;0.0;0.0
1.0;1753881466.57119;17.402248;3.15;-6.94;120.59;-0.064073;-1.008318;0.057758;0.0;0.0;0.0;0.0;0.0;0.0
1.0;1753881466.575789;17.393336;-0.14;1.9;121.95;0.336969;-0.954956;0.018274;0.0;0.0;0.0;0.0;0.0;0.0
1.0;1753881466.580388;17.418598;1.0;-2.67;122.33;-0.197384;-1.009646;0.046937;0.0;0.0;0.0;0.0;0.0;0.0
1.0;1753881466.584987;17.373973;3.39;-6.88;124.64;0.101257;-0.972881;0.028157;0.0;0.0;0.0;0.0;0.0;0.0
1.0;1753881466.589586;17.372376;-3.12;-3.1;121.4;0.251221;-0.923972;0.024336;0.0;0.0;0.0;0.0;0.0;0.0
1.0;1753881466.594185;17.370263;-1.45;1.18;115.6;0.336949;-0.94552;0.025629;0.0;0.0;0.0;0.0;0.0;0.0
1.0;1753881466.598784;17.358283;-0.78;-4.8;123.75;0.137696;-0.999186;0.001932;0.0;0.0;0.0;0.0;0.0;0.0
1.0;1753881466.603384;17.372074;2.07;-8.22;122.15;0.060937;-1.002918;0.02903;0.0;0.0;0.0;0.0;0.0;0.0
1.0;1753881466.607983;17.384376;-2.84;1.23;113.28;0.059444;-0.882703;-0.021287;0.0;0.0;0.0;0.0;0.0;0.0
1.0;1753881466.612582;17.372202;-0.79;-2.96;124.62;-0.391204;-1.090036;0.07737;0.0;0.0;0.0;0.0;0.0;0.0
1.0;1753881466.617181;17.35788;1.64;-3.5;120.19;0.069629;-0.960053;0.099268;0.0;0.0;0.0;0.0;0.0;0.0
1.0;1753881466.62178;17.365414;-2.45;-0.65;118.17;0.293443;-0.964175;0.008665;0.0;0.0;0.0;0.0;0.0;0.0
1.0;1753881466.626379;17.398926;-1.88;-1.98;116.67;-0.294371;-0.961512;0.023134;0.0;0.0;0.0;0.0;0.0;0.0
1.0;1753881466.630978;17.411726;-7.19;-4.37;114.38;-0.119436;-0.889908;0.102935;0.0;0.0;0.0;0.0;0.0;0.0
1.0;1753881466.635577;17.392133;-2.01;-6.3;125.42;0.173786;-0.988645;-0.066405;0.0;0.0;0.0;0.0;0.0;0.0
1.0;1753881466.640176;17.350458;-3.33;-4.24;119.14;0.004716;-0.890006;-0.055014;0.0;0.0;0.0;0.0;0.0;0.0
1.0;1753881466.644776;17.35565;-2.17;-1.16;122.22;-0.276345;-0.879285;-0.012386;0.0;0.0;0.0;0.0;0.0;0.0
1.0;1753881466.649374;17.419647;-2.18;-5.8;123.09;0.423009;-1.036357;0.009641;0.0;0.0;0.0;0.0;0.0;0.0
1.0;1753881466.653974;17.385134;0.69;-8.86;110.63;0.230915;-0.98309;0.016435;0.0;0.0;0.0;0.0;0.0;0.0
1.0;1753881466.658573;17.378349;-2.1;-6.94;119.61;0.049602;-0.983558;-0.003917;0.0;0.0;0.0;0.0;0.0;0.0
1.0;1753881466.663172;17.382047;-3.34;-3.02;122.15;0.099154;-1.002398;-0.060567;0.0;0.0;0.0;0.0;0.0;0.0
1.0;1753881466.667771;17.38128;1.05;-1.15;118.4;0.287935;-1.049146;0.002368;0.0;0.0;0.0;0.0;0.0;0.0
1.0;1753881466.67237;17.375021;0.62;-6.04;121.46;-0.322904;-0.915629;0.045072;0.0;0.0;0.0;0.0;0.0;0.0
1.0;1753881466.676969;17.380207;-1.11;-6.77;122.71;0.135765;-0.986244;-0.012661;0.0;0.0;0.0;0.0;0.0;0.0
1.0;1753881466.681568;17.389236;-2.36;-6.43;119.29;0.258835;-0.954901;0.013865;0.0;0.0;0.0;0.0;0.0;0.0
1.0;1753881466.686167;17.37518;-1.5;-5.1;123.24;0.228854;-0.992818;0.038918;0.0;0.0;0.0;0.0;0.0;0.0
1.0;1753881466.690766;17.387077;1.74;-8.89;117.95;0.032951;-0.864009;-0.016651;0.0;0.0;0.0;0.0;0.0;0.0
1.0;1753881466.695366;17.375541;-4.01;-4.09;124.85;-0.001872;-1.06129;0.022623;0.0;0.0;0.0;0.0;0.0;0.0
1.0;1753881466.699964;17.366979;-5.24;-5.09;117.73;0.181923;-1.008664;-0.004533;0.0;0.0;0.0;0.0;0.0;0.0
1.0;1753881466.704564;17.388943;2.38;-5.05;114.23;-0.188173;-0.871151;0.024535;0.0;0.0;0.0;0.0;0.0;0.0
1.0;1753881466.709163;17.386336;-2.58;-2.28;122.2;-0.139635;-1.023598;-0.00529;0.0;0.0;0.0;0.0;0.0;0.0
1.0;1753881466.713762;17.38809;-0.02;-3.52;118.57;0.11574;-0.946579;0.039426;0.0;0.0;0.0;0.0;0.0;0.0
1.0;1753881466.718361;17.394735;-0.36;-6.86;119.42;0.186303;-0.927431;-0.021636;0.0;0.0;0.0;0.0;0.0;0.0
1.0;1753881466.72296;17.351479;1.33;-5.6;128.11;0.049069;-0.930783;0.051329;0.0;0.0;0.0;0.0;0.0;0.0
1.0;1753881466.727559;17.377412;2.73;-6.92;113.42;0.211065;-1.022375;0.069182;0.0;0.0;0.0;0.0;0.0;0.0
1.0;1753881466.732158;17.370672;-3.62;-7.18;118.8;0.151481;-0.955583;0.085362;0.0;0.0;0.0;0.0;0.0;0.0
1.0;1753881466.736757;17.368367;3.54;-9.93;116.61;0.203606;-0.983481;0.043589;0.0;0.0;0.0;0.0;0.0;0.0
1.0;1753881466.741356;17.397148;1.53;-8.44;123.5;0.132426;-1.014332;0.013118;0.0;0.0;0.0;0.0;0.0;0.0
1.0;1753881466.745956;17.360434;2.61;-2.01;112.08;0.301031;-0.930107;0.029779;0.0;0.0;0.0;0.0;0.0;0.0
1.0;1753881466.750554;17.368017;-3.56;-3.61;121.61;0.062578;-0.960708;0.013313;0.0;0.0;0.0;0.0;0.0;0.0
1.0;1753881466.755154;17.353425;-3.29;-5.03;114.93;0.25472;-0.959106;-0.057275;0.0;0.0;0.0;0.0;0.0;0.0
1.0;1753881466.759753;17.385717;4.22;-6.34;121.74;0.160689;-0.963286;0.032805;0.0;0.0;0.0;0.0;0.0;0.0
1.0;1753881466.764352;17.358734;-5.29;-5.73;121.7;0.520361;-0.949273;0.055553;0.0;0.0;0.0;0.0;0.0;0.0
1.0;1753881466.768951;17.388544;5.94;-6.32;118.93;0.11351;-1.10731;-0.026757;0.0;0.0;0.0;0.0;0.0;0.0
1.0;1753881466.77355;17.35777;-2.06;-2.14;123.71;0.194919;-1.070434;0.014801;0.0;0.0;0.0;0.0;0.0;0.0
1.0;1753881466.778149;17.388435;8.57;-5.21;117.96;0.011443;-0.976995;0.000951;0.0;0.0;0.0;0.0;0.0;0.0
1.0;1753881466.782748;17.367567;8.26;-10.01;120.48;0.402856;-1.037122;-0.020119;0.0;0.0;0.0;0.0;0.0;0.0
1.0;1753881466.787347;17.373264;1.37;-6.8;113.73;-0.235697;-0.998356;0.022624;0.0;0.0;0.0;0.0;0.0;0.0
1.0;1753881466.791946;17.392018;-0.41;-6.37;121.6;-0.071498;-0.908219;0.035714;0.0;0.0;0.0;0.0;0.0;0.0
1.0;1753881466.796546;17.35665;-1.83;-4.82;121.42;0.186638;-0.94678;0.039463;0.0;0.0;0.0;0.0;0.0;0.0
1.0;1753881466.801144;17.372679;8.42;-9.21;117.15;-0.020709;-0.889855;0.02062;0.0;0.0;0.0;0.0;0.0;0.0
1.0;1753881466.805744;17.357205;-1.37;-6.46;120.01;0.085908;-1.089966;0.028187;0.0;0.0;0.0;0.0;0.0;0.0
1.0;1753881466.810343;17.377524;-0.26;-8.7;116.13;-0.066788;-0.958741;0.06272;0.0;0.0;0.0;0.0;0.0;0.0
1.0;1753881466.814942;17.385485;1.1;-9.88;122.04;0.521378;-0.975597;0.078021;0.0;0.0;0.0;0.0;0.0;0.0
1.0;1753881466.82;17.378906;-0.07;-5.88;119.91;0.062342;-0.972706;0.033428;0.0;0.0;0.0;0.0;0.0;0.0
1.0;1753881466.824599;17.3711;-0.39;-2.95;100.07;-0.079405;-0.928282;-0.016236;0.0;0.0;0.0;0.0;0.0;0.0
1.0;1753881466.83139;17.355469;-0.98;-2.66;83.02;-0.140056;-0.996618;-0.016958;0.0;0.0;0.0;0.0;0.0;0.0
1.0;1753881466.835989;17.354109;-0.81;-1.5;61.7;-0.090321;-0.970968;0.002071;0.0;0.0;0.0;0.0;0.0;0.0
1.0;1753881466.840588;17.37524;-1.31;-2.7;92.76;-0.271274;-0.957594;0.024809;0.0;0.0;0.0;0.0;0.0;0.0
1.0;1753881466.845187;17.377561;-1.61;-1.38;77.82;0.009897;-0.992457;0.001975;0.0;0.0;0.0;0.0;0.0;0.0
1.0;1753881466.849786;17.345364;-1.03;-0.62;79.5;-0.271408;-0.966285;0.008953;0.0;0.0;0.0;0.0;0.0;0.0
1.0;1753881466.854386;17.36567;-1.44;-2.48;75.29;-0.064322;-0.985611;-0.039017;0.0;0.0;0.0;0.0;0.0;0.0
1.0;1753881466.858984;17.325689;-1.68;-1.68;73.29;-0.304534;-1.060565;-0.025774;0.0;0.0;0.0;0.0;0.0;0.0
1.0;1753881466.863584;17.363413;-1.43;-1.37;83.16;-0.140235;-0.892426;-0.029179;0.0;0.0;0.0;0.0;0.0;0.0
1.0;1753881466.868183;17.34096;-1.03;-3.87;79.75;-0.215827;-1.008458;-0.010404;0.0;0.0;0.0;0.0;0.0;0.0
1.0;1753881466.872782;17.359063;-0.8;-2.68;77.3;-0.170217;-0.958025;0.034305;0.0;0.0;0.0;0.0;0.0;0.0
1.0;1753881466.87758;17.355469;-1.19;-1.82;80.57;-0.112972;-0.993202;0.012932;0.0;0.0;0.0;0.0;0.0;0.0
1.0;1753881466.882179;17.34892;-1.03;-0.25;81.45;-0.245363;-0.955739;0.000976;0.0;0.0;0.0;0.0;0.0;0.0
1.0;1753881466.886778;17.335113;-2.0;-1.95;83.36;-0.204514;-1.047614;-0.035346;0.0;0.0;0.0;0.0;0.0;0.0
1.0;1753881466.891377;17.348454;-0.49;-0.95;94.93;0.0502;-1.053349;0.029903;0.0;0.0;0.0;0.0;0.0;0.0
1.0;1753881466.895976;17.359125;-0.63;-1.71;97.92;-0.037222;-1.059363;-0.027959;0.0;0.0;0.0;0.0;0.0;0.0
1.0;1753881466.900576;17.347727;-0.15;-3.56;87.03;-0.067676;-0.938274;0.054124;0.0;0.0;0.0;0.0;0.0;0.0
1.0;1753881466.905174;17.349038;-0.16;-3.27;88.31;0.073312;-1.05219;0.034817;0.0;0.0;0.0;0.0;0.0;0.0
1.0;1753881466.909774;17.378491;-1.68;-1.48;100.39;-0.048176;-1.064888;0.026632;0.0;0.0;0.0;0.0;0.0;0.0
1.0;1753881466.914373;17.365391;-1.86;-0.24;97.13;-0.191482;-0.972986;0.027019;0.0;0.0;0.0;0.0;0.0;0.0
1.0;1753881466.918972;17.353646;-1.01;-1.41;82.88;-0.029906;-1.005234;0.115164;0.0;0.0;0.0;0.0;0.0;0.0
1.0;1753881466.92462;17.355469;-0.7;-2.17;81.34;-0.044042;-1.03151;0.023912;0.0;0.0;0.0;0.0;0.0;0.0
1.0;1753881466.929219;17.342888;-0.42;-3.64;82.77;-0.023693;-0.990153;0.009691;0.0;0.0;0.0;0.0;0.0;0.0
1.0;1753881466.933818;17.35869;0.39;-0.11;77.86;-0.04313;-1.049216;0.042903;0.0;0.0;0.0;0.0;0.0;0.0
1.0;1753881466.938417;17.37995;-0.29;-2.7;81.43;-0.000235;-1.07225;0.044078;0.0;0.0;0.0;0.0;0.0;0.0
1.0;1753881466.943016;17.349613;0.68;-2.05;110.87;0.031839;-1.071164;-0.043357;0.0;0.0;0.0;0.0;0.0;0.0
1.0;1753881466.947616;17.3556;-1.43;-3.58;82.67;-0.158283;-1.058199;0.011568;0.0;0.0;0.0;0.0;0.0;0.0
1.0;1753881466.952214;17.387372;-1.23;-3.03;98.52;-0.222635;-1.044477;-0.045067;0.0;0.0;0.0;0.0;0.0;0.0
1.0;1753881466.956814;17.328709;-0.52;-0.33;83.37;-0.135571;-0.971464;0.011923;0.0;0.0;0.0;0.0;0.0;0.0
1.0;1753881466.961413;17.37902;0.31;-3.63;45.85;-0.222751;-0.985187;-0.056778;0.0;0.0;0.0;0.0;0.0;0.0
1.0;1753881466.96895;17.355469;0.07;-2.87;83.86;-0.093086;-0.995764;-0.023424;0.0;0.0;0.0;0.0;0.0;0.0
1.0;1753881466.970268;17.347656;28.0;-24.01;496.86;-1.466928;0.468114;0.021472;0.0;0.0;0.0;0.0;2.0;0.0
1.0;1753881466.97488;17.347656;2.17;-0.49;470.12;0.20496;0.778116;0.00671;0.0;0.0;0.0;0.0;2.0;0.0
1.0;1753881466.979498;17.363281;-10.99;-13.02;484.19;0.20496;0.778116;0.00671;0.0;0.0;0.0;0.0;2.0;0.0
1.0;1753881466.983976;17.363281;-9.17;-8.19;484.19;-0.28853;0.850706;-0.209474;0.0;0.0;0.0;0.0;2.0;0.0
1.0;1753881466.988607;17.363281;-15.4;-9.31;484.19;0.236192;0.57889;0.102968;0.0;0.0;0.0;0.0;2.0;0.0
1.0;1753881466.993144;17.363281;-10.78;-12.46;483.21;-0.351848;1.545374;0.052216;0.0;0.0;0.0;0.0;2.0;0.0
1.0;1753881466.997743;17.369802;-10.61;-20.41;456.16;-1.210423;1.222892;0.192939;0.0;0.0;0.0;0.0;1.3;0.7
1.0;1753881467.002342;17.355753;4.16;-23.5;461.11;0.316706;2.034685;0.122428;0.0;0.0;0.0;0.0;1.7;0.5
1.0;1753881467.006941;17.370061;-9.07;-13.64;454.14;-0.150899;2.039659;0.205746;0.0;0.0;0.0;0.0;1.7;2.0
1.0;1753881467.01154;17.342835;-0.11;-11.52;474.98;-0.749061;2.49892;0.13644;0.0;0.0;0.0;0.0;2.3;-0.5
1.0;1753881467.01614;17.351662;3.28;-10.74;469.96;-0.535061;1.337179;0.016731;0.0;0.0;0.0;0.0;0.6;3.3
1.0;1753881467.020738;17.379048;-2.77;-10.17;499.03;-0.830479;1.808014;0.016138;0.0;0.0;0.0;0.0;1.2;-0.2
1.0;1753881467.025338;17.387196;-14.06;-13.5;457.9;-0.876631;1.330543;0.032916;0.0;0.0;0.0;0.0;2.5;-0.4
1.0;1753881467.029937;17.353629;-3.03;-17.23;473.63;0.211927;2.221943;0.144877;0.0;0.0;0.0;0.0;0.5;2.7
1.0;1753881467.034536;17.365888;-14.83;-13.73;474.98;-0.452638;1.191416;0.187309;0.0;0.0;0.0;0.0;2.1;0.4
1.0;1753881467.039135;17.381891;-3.85;-22.88;476.38;-0.440349;1.02368;0.084127;0.0;0.0;0.0;0.0;2.4;-4.1
1.0;1753881467.043734;17.351818;16.22;-12.14;483.86;0.615571;1.569658;0.029457;0.0;0.0;0.0;0.0;1.3;-1.1
1.0;1753881467.048333;17.371206;-13.14;-8.55;480.79;-1.778475;0.612964;0.156834;0.0;0.0;0.0;0.0;0.9;1.0
1.0;1753881467.052932;17.384993;-20.2;-17.66;488.16;-0.650449;1.340285;0.060565;0.0;0.0;0.0;0.0;2.4;-0.7
1.0;1753881467.057531;17.360456;-22.77;-20.09;469.38;-1.01808;0.407503;0.193776;0.0;0.0;0.0;0.0;2.6;-1.2
1.0;1753881467.06213;17.348696;-5.5;-11.76;481.34;-0.318082;1.606655;-0.00351;0.0;0.0;0.0;0.0;1.4;0.1
1.0;1753881467.06673;17.37473;2.78;-7.77;485.8;-0.327916;1.032373;-0.046591;0.0;0.0;0.0;0.0;0.5;0.5
1.0;1753881467.071329;17.376395;-17.51;-17.53;490.62;-0.360242;2.014788;-0.068565;0.0;0.0;0.0;0.0;1.9;-1.5
1.0;1753881467.075928;17.354818;-4.15;-10.35;466.71;0.034298;1.36862;-0.028848;0.0;0.0;0.0;0.0;3.8;-2.1
1.0;1753881467.080527;17.392468;11.06;-14.38;491.84;0.009599;1.316192;0.178104;0.0;0.0;0.0;0.0;3.1;-2.7
1.0;1753881467.085126;17.369686;-21.25;-23.46;479.24;0.182679;0.857407;0.210151;0.0;0.0;0.0;0.0;0.5;2.6
1.0;1753881467.089725;17.366014;3.79;-10.19;502.85;0.427978;1.039911;0.070616;0.0;0.0;0.0;0.0;0.0;-1.3
1.0;1753881467.094324;17.371059;-17.39;-16.4;463.02;0.000803;1.977631;-0.00204;0.0;0.0;0.0;0.0;1.2;-0.8
1.0;1753881467.098923;17.363313;-11.91;-8.41;479.88;-0.225106;1.812008;0.060395;0.0;0.0;0.0;0.0;1.2;0.8
1.0;1753881467.103522;17.405927;-14.08;-13.01;488.29;-0.391328;0.668202;0.083981;0.0;0.0;0.0;0.0;3.1;0.3
1.0;1753881467.108122;17.375121;-15.71;-19.78;439.42;0.361998;0.652677;0.173944;0.0;0.0;0.0;0.0;0.8;2.0
1.0;1753881467.11272;17.360424;-1.07;-9.02;478.59;-1.259941;0.774878;0.124538;0.0;0.0;0.0;0.0;-0.2;0.3
1.0;1753881467.11732;17.384672;-12.75;-10.47;483.9;-0.993633;1.795668;-0.007808;0.0;0.0;0.0;0.0;-0.3;-1.5
1.0;1753881467.121919;17.371119;-10.05;-12.7;502.44;-0.305392;0.748851;-0.006013;0.0;0.0;0.0;0.0;1.1;1.2
1.0;1753881467.126518;17.344381;9.98;-15.02;505.77;0.406088;1.693402;0.172941;0.0;0.0;0.0;0.0;4.7;2.9
1.0;1753881467.131117;17.409333;12.16;-6.42;469.81;-0.264091;0.289737;0.2554;0.0;0.0;0.0;0.0;2.0;-0.6
1.0;1753881467.135716;17.37217;-0.65;-11.22;472.94;0.102793;1.2901;0.039612;0.0;0.0;0.0;0.0;2.0;-0.7
