DeviceID;Timestamp;Temperature;GyroX;GyroY;GyroZ;AccelX;AccelY;AccelZ;Dist1;Dist2;Dist3;Err1;Err2;Err3
1.0;1753875303.932553;17.964844;1.05;-1.68;0.14;-0.937204;-0.357948;-0.013908;0.0;0.0;0.0;0.0;0.0;0.0
1.0;1753875303.936795;17.964844;0.98;-1.61;0.14;-0.938302;-0.35807;-0.012688;0.0;0.0;0.0;0.0;0.0;0.0
1.0;1753875303.944004;17.964844;1.19;-1.54;0.14;-0.938302;-0.357582;-0.012932;0.0;0.0;0.0;0.0;0.0;0.0
1.0;1753875303.949488;17.964844;1.12;-1.61;0.07;-0.937082;-0.356972;-0.014274;0.0;0.0;0.0;0.0;0.0;0.0
1.0;1753875303.950467;17.964844;1.12;-1.75;0.07;-0.938912;-0.356728;-0.012932;0.0;0.0;0.0;0.0;0.0;0.0
1.0;1753875303.955984;17.964844;1.19;-1.68;0.07;-0.936594;-0.35807;-0.01464;0.0;0.0;0.0;0.0;0.0;0.0
1.0;1753875303.959662;17.964844;1.05;-1.54;0.0;-0.939644;-0.358314;-0.01281;0.0;0.0;0.0;0.0;0.0;0.0
1.0;1753875303.964383;17.964844;1.05;-1.61;0.07;-0.935984;-0.358924;-0.013786;0.0;0.0;0.0;0.0;0.0;0.0
1.0;1753875303.96881;17.964844;0.98;-1.68;0.0;-0.937936;-0.357094;-0.012932;0.0;0.0;0.0;0.0;0.0;0.0
1.0;1753875303.973368;17.964844;1.05;-1.61;0.0;-0.938912;-0.357704;-0.012688;0.0;0.0;0.0;0.0;0.0;0.0
1.0;1753875303.979406;17.964844;1.12;-1.68;0.07;-0.937814;-0.35807;-0.01281;0.0;0.0;0.0;0.0;0.0;0.0
1.0;1753875303.982526;17.957031;1.12;-1.68;0.07;-0.937936;-0.356972;-0.01342;0.0;0.0;0.0;0.0;0.0;0.0
1.0;1753875303.987324;17.957031;1.05;-1.68;0.14;-0.938302;-0.357216;-0.01281;0.0;0.0;0.0;0.0;0.0;0.0
1.0;1753875303.994338;17.957031;1.19;-1.61;0.07;-0.939156;-0.358314;-0.01281;0.0;0.0;0.0;0.0;0.0;0.0
1.0;1753875303.999762;17.957031;1.05;-1.61;0.14;-0.937204;-0.35807;-0.013054;0.0;0.0;0.0;0.0;0.0;0.0
1.0;1753875304.004355;17.944836;1.06;-1.66;0.1;-0.937038;-0.358382;-0.01372;0.0;0.0;0.0;0.0;0.0;0.0
1.0;1753875304.008948;17.96089;1.08;-1.59;0.2;-0.938528;-0.357891;-0.013979;0.0;0.0;0.0;0.0;0.0;0.0
1.0;1753875304.013541;17.956314;0.97;-1.59;0.12;-0.935688;-0.358001;-0.012144;0.0;0.0;0.0;0.0;0.0;0.0
1.0;1753875304.018134;17.953382;1.11;-1.55;0.1;-0.935308;-0.358334;-0.014061;0.0;0.0;0.0;0.0;0.0;0.0
1.0;1753875304.022726;17.949508;1.05;-1.65;0.1;-0.937076;-0.357847;-0.013454;0.0;0.0;0.0;0.0;0.0;0.0
1.0;1753875304.02732;17.951221;1.04;-1.68;0.09;-0.93611;-0.357735;-0.014067;0.0;0.0;0.0;0.0;0.0;0.0
1.0;1753875304.031912;17.961734;1.05;-1.6;0.17;-0.937035;-0.358188;-0.013121;0.0;0.0;0.0;0.0;0.0;0.0
1.0;1753875304.036505;17.965129;1.11;-1.62;0.04;-0.936536;-0.358022;-0.012883;0.0;0.0;0.0;0.0;0.0;0.0
1.0;1753875304.041098;17.949412;1.0;-1.6;0.22;-0.937005;-0.358081;-0.01307;0.0;0.0;0.0;0.0;0.0;0.0
1.0;1753875304.045691;17.961808;1.05;-1.59;0.28;-0.937167;-0.357629;-0.012474;0.0;0.0;0.0;0.0;0.0;0.0
1.0;1753875304.050284;17.964311;1.11;-1.64;0.14;-0.937345;-0.357497;-0.012312;0.0;0.0;0.0;0.0;0.0;0.0
1.0;1753875304.054877;17.968597;1.11;-1.56;0.16;-0.938292;-0.35758;-0.012196;0.0;0.0;0.0;0.0;0.0;0.0
1.0;1753875304.05947;17.969793;1.06;-1.58;0.23;-0.938157;-0.35833;-0.012854;0.0;0.0;0.0;0.0;0.0;0.0
1.0;1753875304.064062;17.962283;1.05;-1.57;0.13;-0.93667;-0.357786;-0.013228;0.0;0.0;0.0;0.0;0.0;0.0
1.0;1753875304.068656;17.959475;0.95;-1.53;0.17;-0.937869;-0.358556;-0.011991;0.0;0.0;0.0;0.0;0.0;0.0
1.0;1753875304.073248;17.959305;1.04;-1.46;0.07;-0.935981;-0.358191;-0.013384;0.0;0.0;0.0;0.0;0.0;0.0
1.0;1753875304.077841;17.963213;1.16;-1.51;0.09;-0.936525;-0.358401;-0.012807;0.0;0.0;0.0;0.0;0.0;0.0
1.0;1753875304.082434;17.948718;0.95;-1.64;0.11;-0.937006;-0.357714;-0.012276;0.0;0.0;0.0;0.0;0.0;0.0
1.0;1753875304.087027;17.961491;1.0;-1.54;0.13;-0.937559;-0.357616;-0.013021;0.0;0.0;0.0;0.0;0.0;0.0
1.0;1753875304.09162;17.961279;1.04;-1.54;0.12;-0.937236;-0.357515;-0.012129;0.0;0.0;0.0;0.0;0.0;0.0
1.0;1753875304.096213;17.958478;1.0;-1.58;0.09;-0.937341;-0.358234;-0.012843;0.0;0.0;0.0;0.0;0.0;0.0
1.0;1753875304.100806;17.962592;1.09;-1.52;0.14;-0.938109;-0.35792;-0.013064;0.0;0.0;0.0;0.0;0.0;0.0
1.0;1753875304.105399;17.954652;0.97;-1.59;0.14;-0.936946;-0.356287;-0.013211;0.0;0.0;0.0;0.0;0.0;0.0
1.0;1753875304.109992;17.957506;1.08;-1.62;0.19;-0.936904;-0.358479;-0.012237;0.0;0.0;0.0;0.0;0.0;0.0
1.0;1753875304.114584;17.959883;1.03;-1.62;0.16;-0.935488;-0.357494;-0.012784;0.0;0.0;0.0;0.0;0.0;0.0
1.0;1753875304.119177;17.958748;0.95;-1.69;0.07;-0.937014;-0.357612;-0.014148;0.0;0.0;0.0;0.0;0.0;0.0
1.0;1753875304.12377;17.958937;1.13;-1.56;0.13;-0.938062;-0.358336;-0.013774;0.0;0.0;0.0;0.0;0.0;0.0
1.0;1753875304.128363;17.966235;1.07;-1.69;0.16;-0.939537;-0.357034;-0.012401;0.0;0.0;0.0;0.0;0.0;0.0
1.0;1753875304.132956;17.957603;0.99;-1.61;0.18;-0.936698;-0.357881;-0.011578;0.0;0.0;0.0;0.0;0.0;0.0
1.0;1753875304.137549;17.966001;1.19;-1.59;0.12;-0.937601;-0.358735;-0.0125;0.0;0.0;0.0;0.0;0.0;0.0
1.0;1753875304.142142;17.968549;0.94;-1.63;0.19;-0.935607;-0.358136;-0.012789;0.0;0.0;0.0;0.0;0.0;0.0
1.0;1753875304.146735;17.96685;1.02;-1.55;0.25;-0.936887;-0.358312;-0.012962;0.0;0.0;0.0;0.0;0.0;0.0
1.0;1753875304.151328;17.968659;1.0;-1.55;0.22;-0.938296;-0.358;-0.013799;0.0;0.0;0.0;0.0;0.0;0.0
1.0;1753875304.15592;17.97064;1.08;-1.59;0.22;-0.936857;-0.357533;-0.014057;0.0;0.0;0.0;0.0;0.0;0.0
1.0;1753875304.160514;17.97012;0.99;-1.64;0.13;-0.937621;-0.358413;-0.011916;0.0;0.0;0.0;0.0;0.0;0.0
1.0;1753875304.165106;17.969821;1.08;-1.63;0.06;-0.936576;-0.359646;-0.012418;0.0;0.0;0.0;0.0;0.0;0.0
1.0;1753875304.169699;17.971504;1.07;-1.65;0.16;-0.936564;-0.357355;-0.013555;0.0;0.0;0.0;0.0;0.0;0.0
1.0;1753875304.174292;17.964185;1.11;-1.61;0.15;-0.936964;-0.357042;-0.012946;0.0;0.0;0.0;0.0;0.0;0.0
1.0;1753875304.178885;17.958999;1.1;-1.58;0.08;-0.937054;-0.357445;-0.013467;0.0;0.0;0.0;0.0;0.0;0.0
1.0;1753875304.183478;17.967129;1.1;-1.57;0.2;-0.938669;-0.358336;-0.012545;0.0;0.0;0.0;0.0;0.0;0.0
1.0;1753875304.188071;17.967513;1.11;-1.58;0.21;-0.938138;-0.358998;-0.01347;0.0;0.0;0.0;0.0;0.0;0.0
1.0;1753875304.192664;17.953062;1.08;-1.65;0.21;-0.937915;-0.356985;-0.012476;0.0;0.0;0.0;0.0;0.0;0.0
1.0;1753875304.197256;17.958123;0.99;-1.62;0.17;-0.936953;-0.358125;-0.013184;0.0;0.0;0.0;0.0;0.0;0.0
1.0;1753875304.20185;17.970802;1.03;-1.56;0.24;-0.939764;-0.358523;-0.014043;0.0;0.0;0.0;0.0;0.0;0.0
1.0;1753875304.206442;17.966311;0.94;-1.65;0.15;-0.936856;-0.357535;-0.011519;0.0;0.0;0.0;0.0;0.0;0.0
1.0;1753875304.211035;17.973051;1.02;-1.6;0.16;-0.938498;-0.356142;-0.012897;0.0;0.0;0.0;0.0;0.0;0.0
1.0;1753875304.215628;17.9638;1.09;-1.64;0.17;-0.937111;-0.358691;-0.012218;0.0;0.0;0.0;0.0;0.0;0.0
1.0;1753875304.220221;17.961231;1.07;-1.56;0.05;-0.938281;-0.357464;-0.013803;0.0;0.0;0.0;0.0;0.0;0.0
1.0;1753875304.224814;17.97886;1.06;-1.66;0.12;-0.93694;-0.356856;-0.012331;0.0;0.0;0.0;0.0;0.0;0.0
1.0;1753875304.229407;17.955049;1.03;-1.6;0.24;-0.938963;-0.357398;-0.01349;0.0;0.0;0.0;0.0;0.0;0.0
1.0;1753875304.234;17.955383;1.0;-1.53;0.09;-0.937336;-0.358651;-0.012777;0.0;0.0;0.0;0.0;0.0;0.0
1.0;1753875304.238592;17.966663;1.07;-1.48;0.1;-0.937708;-0.358498;-0.013142;0.0;0.0;0.0;0.0;0.0;0.0
1.0;1753875304.243186;17.975679;1.05;-1.56;0.17;-0.938904;-0.358804;-0.013584;0.0;0.0;0.0;0.0;0.0;0.0
1.0;1753875304.247778;17.967767;0.92;-1.56;0.13;-0.937798;-0.358212;-0.013134;0.0;0.0;0.0;0.0;0.0;0.0
1.0;1753875304.252371;17.969542;1.02;-1.54;0.2;-0.936245;-0.358157;-0.013334;0.0;0.0;0.0;0.0;0.0;0.0
1.0;1753875304.256964;17.967421;0.95;-1.65;0.27;-0.939164;-0.358101;-0.012894;0.0;0.0;0.0;0.0;0.0;0.0
1.0;1753875304.261557;17.955487;1.08;-1.71;0.23;-0.937884;-0.356906;-0.011861;0.0;0.0;0.0;0.0;0.0;0.0
1.0;1753875304.26615;17.961065;0.98;-1.64;0.17;-0.937728;-0.357365;-0.011881;0.0;0.0;0.0;0.0;0.0;0.0
1.0;1753875304.270743;17.971208;1.04;-1.55;0.19;-0.937331;-0.357667;-0.012196;0.0;0.0;0.0;0.0;0.0;0.0
1.0;1753875304.275336;17.963421;1.07;-1.53;0.21;-0.937123;-0.357725;-0.011912;0.0;0.0;0.0;0.0;0.0;0.0
1.0;1753875304.279929;17.970592;1.02;-1.6;0.05;-0.937501;-0.357289;-0.011767;0.0;0.0;0.0;0.0;0.0;0.0
1.0;1753875304.284522;17.962284;0.94;-1.54;0.13;-0.93749;-0.356765;-0.012852;0.0;0.0;0.0;0.0;0.0;0.0
1.0;1753875304.289114;17.982539;1.04;-1.49;0.06;-0.938426;-0.357375;-0.012881;0.0;0.0;0.0;0.0;0.0;0.0
1.0;1753875304.293707;17.979687;1.13;-1.6;0.07;-0.937618;-0.357571;-0.013089;0.0;0.0;0.0;0.0;0.0;0.0
1.0;1753875304.2983;17.975134;1.11;-1.67;0.15;-0.936547;-0.35792;-0.012846;0.0;0.0;0.0;0.0;0.0;0.0
1.0;1753875304.302893;17.979981;1.14;-1.62;0.23;-0.937645;-0.356733;-0.012798;0.0;0.0;0.0;0.0;0.0;0.0
1.0;1753875304.307486;17.972222;1.12;-1.66;0.08;-0.936784;-0.358861;-0.012754;0.0;0.0;0.0;0.0;0.0;0.0
1.0;1753875304.312079;17.969068;1.07;-1.71;0.02;-0.939487;-0.358688;-0.012826;0.0;0.0;0.0;0.0;0.0;0.0
1.0;1753875304.316672;17.969883;1.09;-1.46;0.15;-0.937377;-0.358683;-0.013118;0.0;0.0;0.0;0.0;0.0;0.0
1.0;1753875304.321265;17.967341;1.13;-1.59;0.04;-0.939652;-0.356339;-0.014913;0.0;0.0;0.0;0.0;0.0;0.0
1.0;1753875304.325858;17.968835;0.97;-1.52;0.02;-0.938567;-0.35708;-0.012716;0.0;0.0;0.0;0.0;0.0;0.0
1.0;1753875304.33045;17.965249;0.98;-1.53;0.2;-0.93775;-0.357112;-0.013518;0.0;0.0;0.0;0.0;0.0;0.0
1.0;1753875304.335044;17.956481;1.21;-1.66;0.13;-0.938186;-0.358636;-0.013292;0.0;0.0;0.0;0.0;0.0;0.0
1.0;1753875304.339636;17.964107;1.11;-1.54;0.14;-0.938292;-0.356677;-0.011829;0.0;0.0;0.0;0.0;0.0;0.0
1.0;1753875304.344229;17.982809;0.96;-1.57;0.26;-0.938118;-0.358314;-0.012715;0.0;0.0;0.0;0.0;0.0;0.0
1.0;1753875304.348822;17.974495;1.07;-1.57;0.21;-0.93782;-0.356918;-0.0126;0.0;0.0;0.0;0.0;0.0;0.0
1.0;1753875304.353415;17.963157;1.1;-1.71;0.16;-0.937605;-0.356053;-0.013461;0.0;0.0;0.0;0.0;0.0;0.0
1.0;1753875304.358008;17.975713;1.06;-1.62;0.06;-0.937562;-0.357191;-0.013711;0.0;0.0;0.0;0.0;0.0;0.0
1.0;1753875304.362601;17.964998;1.15;-1.52;0.13;-0.936995;-0.356896;-0.013024;0.0;0.0;0.0;0.0;0.0;0.0
1.0;1753875304.367194;17.975114;1.01;-1.65;0.16;-0.938359;-0.357174;-0.013;0.0;0.0;0.0;0.0;0.0;0.0
1.0;1753875304.371786;17.970554;1.04;-1.58;0.09;-0.937331;-0.357043;-0.012422;0.0;0.0;0.0;0.0;0.0;0.0
1.0;1753875304.37638;17.971007;1.16;-1.53;0.08;-0.939115;-0.357703;-0.013738;0.0;0.0;0.0;0.0;0.0;0.0
1.0;1753875304.380972;17.971094;0.99;-1.53;0.08;-0.938154;-0.35646;-0.01264;0.0;0.0;0.0;0.0;0.0;0.0
1.0;1753875304.385565;17.966726;1.16;-1.54;0.11;-0.937867;-0.35806;-0.012953;0.0;0.0;0.0;0.0;0.0;0.0
1.0;1753875304.390158;17.970912;0.92;-1.57;0.14;-0.938736;-0.357317;-0.013061;0.0;0.0;0.0;0.0;0.0;0.0
1.0;1753875304.394751;17.968972;1.06;-1.69;0.16;-0.936764;-0.356859;-0.012642;0.0;0.0;0.0;0.0;0.0;0.0
1.0;1753875304.399344;17.969034;0.93;-1.58;0.13;-0.939165;-0.357042;-0.01233;0.0;0.0;0.0;0.0;0.0;0.0
1.0;1753875304.403937;17.969105;1.06;-1.61;0.17;-0.937081;-0.357437;-0.011548;0.0;0.0;0.0;0.0;0.0;0.0
1.0;1753875304.40853;17.975065;1.07;-1.59;0.16;-0.937582;-0.358357;-0.013027;0.0;0.0;0.0;0.0;0.0;0.0
1.0;1753875304.413123;17.953665;0.98;-1.65;0.09;-0.938102;-0.35856;-0.012312;0.0;0.0;0.0;0.0;0.0;0.0
1.0;1753875304.417716;17.974015;1.03;-1.68;0.03;-0.938729;-0.357522;-0.012084;0.0;0.0;0.0;0.0;0.0;0.0
1.0;1753875304.422308;17.973006;1.07;-1.51;0.09;-0.938017;-0.358059;-0.013884;0.0;0.0;0.0;0.0;0.0;0.0
1.0;1753875304.426901;17.97466;1.05;-1.58;0.1;-0.937822;-0.356916;-0.012904;0.0;0.0;0.0;0.0;0.0;0.0
1.0;1753875304.431494;17.979065;1.09;-1.68;0.13;-0.938241;-0.358061;-0.012846;0.0;0.0;0.0;0.0;0.0;0.0
1.0;1753875304.436087;17.964773;1.07;-1.64;0.13;-0.938444;-0.357134;-0.012977;0.0;0.0;0.0;0.0;0.0;0.0
1.0;1753875304.44068;17.973761;1.05;-1.62;0.1;-0.938027;-0.357639;-0.011314;0.0;0.0;0.0;0.0;0.0;0.0
1.0;1753875304.445273;17.966508;1.1;-1.5;0.11;-0.936676;-0.358143;-0.012709;0.0;0.0;0.0;0.0;0.0;0.0
1.0;1753875304.449866;17.972251;0.98;-1.58;0.19;-0.937914;-0.358658;-0.01294;0.0;0.0;0.0;0.0;0.0;0.0
1.0;1753875304.454459;17.976626;1.02;-1.55;0.17;-0.93892;-0.357158;-0.012429;0.0;0.0;0.0;0.0;0.0;0.0
1.0;1753875304.459052;17.968765;1.05;-1.58;0.17;-0.937163;-0.357454;-0.012834;0.0;0.0;0.0;0.0;0.0;0.0
1.0;1753875304.463644;17.980419;1.02;-1.55;0.08;-0.937126;-0.357638;-0.011896;0.0;0.0;0.0;0.0;0.0;0.0
1.0;1753875304.468238;17.976455;1.03;-1.62;0.07;-0.938957;-0.357921;-0.011412;0.0;0.0;0.0;0.0;0.0;0.0
1.0;1753875304.47283;17.972859;1.13;-1.56;0.06;-0.938997;-0.357363;-0.011075;0.0;0.0;0.0;0.0;0.0;0.0
1.0;1753875304.477423;17.980017;1.05;-1.56;0.08;-0.936444;-0.358721;-0.012186;0.0;0.0;0.0;0.0;0.0;0.0
1.0;1753875304.482016;17.986706;1.15;-1.65;0.16;-0.938047;-0.356729;-0.012581;0.0;0.0;0.0;0.0;0.0;0.0
1.0;1753875304.486609;17.981482;1.04;-1.68;0.17;-0.939464;-0.357383;-0.012112;0.0;0.0;0.0;0.0;0.0;0.0
1.0;1753875304.491202;17.984869;1.08;-1.6;0.19;-0.937317;-0.35748;-0.012882;0.0;0.0;0.0;0.0;0.0;0.0
1.0;1753875304.495795;17.973549;1.13;-1.54;0.18;-0.937246;-0.35635;-0.012117;0.0;0.0;0.0;0.0;0.0;0.0
1.0;1753875304.500388;17.975683;1.15;-1.54;0.14;-0.939061;-0.357865;-0.012867;0.0;0.0;0.0;0.0;0.0;0.0
1.0;1753875304.50498;17.976927;1.01;-1.56;0.21;-0.937406;-0.357253;-0.011024;0.0;0.0;0.0;0.0;0.0;0.0
1.0;1753875304.509574;17.982995;1.11;-1.62;0.01;-0.939455;-0.357618;-0.011924;0.0;0.0;0.0;0.0;0.0;0.0
1.0;1753875304.514166;17.990236;1.03;-1.65;0.1;-0.937809;-0.358213;-0.011694;0.0;0.0;0.0;0.0;0.0;0.0
1.0;1753875304.518759;17.967476;1.01;-1.59;0.22;-0.939068;-0.358009;-0.012623;0.0;0.0;0.0;0.0;0.0;0.0
1.0;1753875304.523352;17.968768;1.09;-1.59;0.12;-0.937044;-0.35785;-0.012627;0.0;0.0;0.0;0.0;0.0;0.0
1.0;1753875304.527945;17.977977;1.02;-1.58;0.14;-0.939053;-0.357094;-0.012523;0.0;0.0;0.0;0.0;0.0;0.0
1.0;1753875304.532538;17.972832;1.11;-1.56;0.11;-0.937328;-0.356883;-0.013297;0.0;0.0;0.0;0.0;0.0;0.0
1.0;1753875304.537131;17.982866;1.02;-1.51;0.05;-0.938405;-0.357338;-0.012347;0.0;0.0;0.0;0.0;0.0;0.0
1.0;1753875304.541724;17.984042;1.12;-1.5;0.11;-0.938355;-0.358533;-0.012894;0.0;0.0;0.0;0.0;0.0;0.0
1.0;1753875304.546316;17.976647;1.15;-1.54;0.07;-0.937946;-0.357606;-0.012233;0.0;0.0;0.0;0.0;0.0;0.0
1.0;1753875304.55091;17.980411;1.15;-1.62;0.13;-0.936916;-0.356918;-0.012768;0.0;0.0;0.0;0.0;0.0;0.0
1.0;1753875304.555502;17.982559;1.14;-1.58;0.07;-0.940013;-0.358518;-0.013293;0.0;0.0;0.0;0.0;0.0;0.0
1.0;1753875304.560095;17.959248;1.23;-1.51;0.15;-0.940041;-0.356322;-0.012291;0.0;0.0;0.0;0.0;0.0;0.0
1.0;1753875304.564688;17.982089;1.04;-1.57;0.2;-0.937397;-0.357876;-0.012691;0.0;0.0;0.0;0.0;0.0;0.0
1.0;1753875304.569281;17.985212;1.15;-1.55;0.28;-0.938404;-0.357802;-0.01272;0.0;0.0;0.0;0.0;0.0;0.0
1.0;1753875304.573874;17.975623;1.11;-1.54;0.25;-0.93932;-0.357103;-0.011837;0.0;0.0;0.0;0.0;0.0;0.0
1.0;1753875304.578467;17.976239;1.03;-1.53;0.2;-0.938214;-0.357738;-0.012719;0.0;0.0;0.0;0.0;0.0;0.0
1.0;1753875304.58306;17.978745;1.02;-1.54;0.16;-0.937398;-0.357846;-0.011594;0.0;0.0;0.0;0.0;0.0;0.0
1.0;1753875304.587653;17.978123;1.07;-1.56;0.12;-0.937738;-0.358165;-0.01295;0.0;0.0;0.0;0.0;0.0;0.0
1.0;1753875304.592246;17.967643;1.07;-1.57;0.11;-0.937439;-0.357436;-0.011319;0.0;0.0;0.0;0.0;0.0;0.0
1.0;1753875304.596838;17.971082;1.19;-1.52;0.18;-0.939175;-0.358064;-0.012423;0.0;0.0;0.0;0.0;0.0;0.0
1.0;1753875304.601431;17.974463;1.17;-1.57;0.15;-0.937203;-0.357096;-0.012599;0.0;0.0;0.0;0.0;0.0;0.0
1.0;1753875304.606024;17.977946;1.05;-1.46;0.17;-0.938676;-0.357596;-0.012456;0.0;0.0;0.0;0.0;0.0;0.0
1.0;1753875304.610617;17.966927;1.1;-1.52;0.2;-0.936657;-0.357823;-0.012759;0.0;0.0;0.0;0.0;0.0;0.0
1.0;1753875304.61521;17.974039;1.14;-1.47;0.21;-0.938484;-0.357064;-0.012688;0.0;0.0;0.0;0.0;0.0;0.0
1.0;1753875304.619803;17.97677;1.22;-1.56;0.12;-0.939123;-0.35695;-0.012728;0.0;0.0;0.0;0.0;0.0;0.0
1.0;1753875304.624396;17.971412;1.13;-1.52;0.1;-0.937549;-0.356802;-0.011882;0.0;0.0;0.0;0.0;0.0;0.0
1.0;1753875304.628989;17.980213;1.09;-1.56;0.12;-0.938369;-0.356541;-0.011262;0.0;0.0;0.0;0.0;0.0;0.0
1.0;1753875304.633582;17.983333;1.17;-1.58;0.15;-0.93834;-0.357718;-0.012752;0.0;0.0;0.0;0.0;0.0;0.0
1.0;1753875304.638174;17.983153;1.08;-1.51;0.24;-0.938412;-0.357785;-0.012102;0.0;0.0;0.0;0.0;0.0;0.0
1.0;1753875304.642768;17.993161;1.08;-1.62;0.12;-0.939456;-0.355901;-0.011903;0.0;0.0;0.0;0.0;0.0;0.0
1.0;1753875304.64736;17.982886;1.01;-1.53;0.09;-0.937722;-0.357158;-0.011304;0.0;0.0;0.0;0.0;0.0;0.0
1.0;1753875304.651953;17.984924;1.15;-1.47;0.12;-0.937639;-0.357366;-0.012171;0.0;0.0;0.0;0.0;0.0;0.0
1.0;1753875304.656546;17.986117;1.11;-1.52;0.1;-0.938259;-0.356813;-0.012984;0.0;0.0;0.0;0.0;0.0;0.0
1.0;1753875304.661139;17.981856;1.09;-1.63;0.09;-0.939494;-0.357315;-0.011778;0.0;0.0;0.0;0.0;0.0;0.0
1.0;1753875304.665732;17.992161;1.17;-1.5;0.09;-0.939018;-0.357325;-0.012444;0.0;0.0;0.0;0.0;0.0;0.0
1.0;1753875304.670325;17.976773;1.16;-1.54;0.15;-0.938276;-0.357536;-0.012884;0.0;0.0;0.0;0.0;0.0;0.0
1.0;1753875304.674918;17.975195;1.07;-1.62;0.15;-0.938086;-0.356913;-0.012068;0.0;0.0;0.0;0.0;0.0;0.0
1.0;1753875304.67951;17.98802;1.19;-1.53;0.19;-0.938659;-0.358187;-0.011713;0.0;0.0;0.0;0.0;0.0;0.0
1.0;1753875304.684104;17.991853;1.18;-1.57;0.08;-0.939119;-0.35783;-0.01159;0.0;0.0;0.0;0.0;0.0;0.0
1.0;1753875304.688696;17.971203;1.06;-1.47;0.13;-0.937656;-0.357548;-0.012241;0.0;0.0;0.0;0.0;0.0;0.0
1.0;1753875304.693289;17.978367;1.04;-1.61;0.12;-0.937869;-0.356513;-0.012165;0.0;0.0;0.0;0.0;0.0;0.0
1.0;1753875304.697882;17.98772;0.98;-1.56;0.17;-0.937824;-0.35708;-0.012356;0.0;0.0;0.0;0.0;0.0;0.0
1.0;1753875304.702475;17.973735;1.15;-1.54;0.15;-0.937974;-0.356124;-0.012318;0.0;0.0;0.0;0.0;0.0;0.0
1.0;1753875304.707068;17.972856;1.02;-1.54;0.14;-0.940323;-0.357343;-0.011028;0.0;0.0;0.0;0.0;0.0;0.0
1.0;1753875304.711661;17.97543;1.11;-1.46;0.1;-0.936288;-0.357032;-0.012821;0.0;0.0;0.0;0.0;0.0;0.0
1.0;1753875304.716254;17.984085;1.04;-1.48;0.18;-0.939013;-0.357942;-0.011595;0.0;0.0;0.0;0.0;0.0;0.0
1.0;1753875304.720847;17.983317;1.08;-1.51;0.26;-0.93765;-0.356569;-0.011603;0.0;0.0;0.0;0.0;0.0;0.0
1.0;1753875304.72544;17.98204;1.16;-1.64;0.09;-0.937779;-0.356064;-0.011799;0.0;0.0;0.0;0.0;0.0;0.0
1.0;1753875304.730032;17.968532;1.2;-1.51;0.11;-0.938615;-0.357151;-0.012684;0.0;0.0;0.0;0.0;0.0;0.0
1.0;1753875304.734625;17.986209;1.14;-1.41;0.15;-0.937896;-0.357735;-0.01197;0.0;0.0;0.0;0.0;0.0;0.0
1.0;1753875304.739218;17.998161;1.11;-1.59;0.18;-0.939513;-0.357239;-0.012961;0.0;0.0;0.0;0.0;0.0;0.0
1.0;1753875304.743811;17.97896;1.13;-1.62;0.16;-0.93861;-0.356857;-0.012011;0.0;0.0;0.0;0.0;0.0;0.0
1.0;1753875304.748404;17.990554;1.12;-1.56;0.15;-0.940012;-0.357192;-0.010913;0.0;0.0;0.0;0.0;0.0;0.0
1.0;1753875304.752997;17.987624;1.22;-1.59;0.21;-0.938044;-0.356728;-0.011348;0.0;0.0;0.0;0.0;0.0;0.0
1.0;1753875304.75759;17.98737;1.18;-1.59;0.14;-0.937806;-0.357381;-0.01181;0.0;0.0;0.0;0.0;0.0;0.0
1.0;1753875304.766;17.984375;1.12;-1.54;0.14;-0.938546;-0.357094;-0.012078;0.0;0.0;0.0;0.0;0.0;0.0
1.0;1753875304.770593;17.989173;1.1;-1.55;0.17;-0.939309;-0.35789;-0.010816;0.0;0.0;0.0;0.0;0.0;0.0
1.0;1753875304.775186;17.998998;1.15;-1.57;0.02;-0.938041;-0.357394;-0.012502;0.0;0.0;0.0;0.0;0.0;0.0
1.0;1753875304.779779;17.985317;1.1;-1.5;0.19;-0.93845;-0.357417;-0.011582;0.0;0.0;0.0;0.0;0.0;0.0
1.0;1753875304.784372;17.975449;1.21;-1.5;0.16;-0.938959;-0.356898;-0.011439;0.0;0.0;0.0;0.0;0.0;0.0
1.0;1753875304.788964;17.986667;1.11;-1.66;0.18;-0.937797;-0.35752;-0.011913;0.0;0.0;0.0;0.0;0.0;0.0
1.0;1753875304.793558;18.000012;1.15;-1.56;0.12;-0.939281;-0.356622;-0.011126;0.0;0.0;0.0;0.0;0.0;0.0
1.0;1753875304.79815;17.978642;1.08;-1.46;-0.02;-0.937628;-0.35799;-0.012031;0.0;0.0;0.0;0.0;0.0;0.0
1.0;1753875304.802743;17.975519;1.1;-1.5;0.14;-0.938401;-0.357024;-0.012058;0.0;0.0;0.0;0.0;0.0;0.0
1.0;1753875304.807336;17.978947;1.13;-1.6;0.17;-0.940652;-0.357401;-0.011885;0.0;0.0;0.0;0.0;0.0;0.0
1.0;1753875304.811929;17.991018;1.08;-1.67;0.2;-0.939109;-0.358522;-0.013005;0.0;0.0;0.0;0.0;0.0;0.0
1.0;1753875304.816522;17.990381;1.08;-1.52;0.11;-0.937807;-0.357083;-0.010967;0.0;0.0;0.0;0.0;0.0;0.0
1.0;1753875304.821115;17.975103;1.11;-1.57;0.05;-0.938568;-0.357452;-0.011728;0.0;0.0;0.0;0.0;0.0;0.0
1.0;1753875304.825708;17.977202;1.04;-1.44;0.07;-0.939321;-0.357776;-0.011294;0.0;0.0;0.0;0.0;0.0;0.0
1.0;1753875304.8303;17.988464;1.11;-1.57;0.16;-0.937544;-0.357892;-0.012247;0.0;0.0;0.0;0.0;0.0;0.0
1.0;1753875304.834894;17.993638;1.04;-1.6;0.16;-0.939071;-0.358639;-0.011381;0.0;0.0;0.0;0.0;0.0;0.0
1.0;1753875304.839486;17.994366;1.04;-1.6;0.13;-0.937321;-0.357291;-0.011526;0.0;0.0;0.0;0.0;0.0;0.0
1.0;1753875304.844079;18.006055;1.12;-1.66;0.13;-0.939371;-0.358122;-0.012816;0.0;0.0;0.0;0.0;0.0;0.0
1.0;1753875304.848672;17.991928;1.08;-1.6;0.06;-0.937587;-0.35721;-0.013401;0.0;0.0;0.0;0.0;0.0;0.0
1.0;1753875304.853265;17.984563;1.04;-1.61;0.16;-0.939609;-0.357833;-0.012054;0.0;0.0;0.0;0.0;0.0;0.0
1.0;1753875304.857858;17.986908;1.08;-1.54;0.15;-0.937744;-0.357143;-0.01062;0.0;0.0;0.0;0.0;0.0;0.0
1.0;1753875304.862451;17.984499;1.13;-1.61;0.2;-0.937958;-0.357421;-0.011522;0.0;0.0;0.0;0.0;0.0;0.0
1.0;1753875304.867044;17.983585;1.03;-1.59;0.24;-0.938497;-0.357848;-0.011602;0.0;0.0;0.0;0.0;0.0;0.0
1.0;1753875304.871637;17.970375;1.02;-1.62;0.07;-0.940806;-0.359405;-0.012995;0.0;0.0;0.0;0.0;0.0;0.0
1.0;1753875304.87623;17.969981;1.05;-1.64;0.14;-0.937925;-0.357319;-0.010669;0.0;0.0;0.0;0.0;0.0;0.0
1.0;1753875304.880822;17.992707;0.98;-1.7;0.16;-0.939358;-0.356526;-0.013752;0.0;0.0;0.0;0.0;0.0;0.0
1.0;1753875304.885415;17.979674;0.95;-1.64;0.21;-0.938072;-0.356864;-0.011273;0.0;0.0;0.0;0.0;0.0;0.0
1.0;1753875304.890008;17.993532;1.12;-1.65;0.15;-0.938321;-0.357219;-0.011664;0.0;0.0;0.0;0.0;0.0;0.0
1.0;1753875304.894601;17.985413;1.16;-1.59;0.11;-0.939318;-0.357922;-0.012207;0.0;0.0;0.0;0.0;0.0;0.0
1.0;1753875304.899194;17.97648;1.07;-1.54;0.15;-0.938443;-0.357572;-0.012317;0.0;0.0;0.0;0.0;0.0;0.0
1.0;1753875304.903787;17.980345;1.19;-1.71;0.11;-0.940112;-0.357734;-0.011535;0.0;0.0;0.0;0.0;0.0;0.0
1.0;1753875304.90838;17.982933;1.06;-1.69;0.2;-0.938831;-0.358196;-0.01174;0.0;0.0;0.0;0.0;0.0;0.0
1.0;1753875304.912973;17.986258;1.19;-1.61;0.07;-0.937076;-0.356978;-0.01255;0.0;0.0;0.0;0.0;0.0;0.0
1.0;1753875304.917566;17.985189;1.09;-1.62;0.12;-0.938548;-0.358199;-0.013312;0.0;0.0;0.0;0.0;0.0;0.0
1.0;1753875304.922158;17.988621;1.08;-1.64;0.1;-0.939456;-0.358656;-0.011977;0.0;0.0;0.0;0.0;0.0;0.0
1.0;1753875304.926752;17.982189;1.06;-1.63;0.23;-0.938162;-0.358348;-0.012857;0.0;0.0;0.0;0.0;0.0;0.0
1.0;1753875304.931344;18.001192;1.14;-1.64;0.08;-0.938738;-0.358174;-0.011298;0.0;0.0;0.0;0.0;0.0;0.0
1.0;1753875304.935937;17.982364;0.98;-1.69;0.13;-0.938343;-0.3578;-0.013203;0.0;0.0;0.0;0.0;0.0;0.0
1.0;1753875304.94053;17.986353;1.11;-1.72;0.13;-0.939004;-0.358379;-0.012026;0.0;0.0;0.0;0.0;0.0;0.0
1.0;1753875304.945123;17.971837;0.99;-1.57;0.13;-0.938861;-0.357473;-0.012579;0.0;0.0;0.0;0.0;0.0;0.0
1.0;1753875304.949716;17.988352;1.05;-1.71;0.16;-0.940093;-0.356965;-0.010658;0.0;0.0;0.0;0.0;0.0;0.0
1.0;1753875304.954309;17.997897;1.14;-1.63;0.16;-0.939495;-0.35793;-0.011435;0.0;0.0;0.0;0.0;0.0;0.0
1.0;1753875304.958902;17.966234;1.0;-1.61;0.23;-0.938622;-0.357996;-0.011637;0.0;0.0;0.0;0.0;0.0;0.0
1.0;1753875304.963494;17.985843;1.04;-1.73;0.12;-0.937764;-0.358057;-0.012274;0.0;0.0;0.0;0.0;0.0;0.0
1.0;1753875304.968088;17.986225;1.03;-1.6;0.14;-0.940651;-0.357599;-0.010199;0.0;0.0;0.0;0.0;0.0;0.0
1.0;1753875304.97268;17.993093;0.99;-1.64;0.14;-0.9391;-0.357948;-0.011981;0.0;0.0;0.0;0.0;0.0;0.0
1.0;1753875304.977273;17.987394;1.08;-1.63;0.14;-0.938409;-0.358998;-0.011764;0.0;0.0;0.0;0.0;0.0;0.0
1.0;1753875304.981866;17.989431;0.98;-1.65;0.07;-0.939632;-0.357192;-0.012104;0.0;0.0;0.0;0.0;0.0;0.0
1.0;1753875304.986459;17.995794;1.02;-1.67;0.17;-0.939799;-0.359111;-0.011585;0.0;0.0;0.0;0.0;0.0;0.0
1.0;1753875304.991052;17.968155;1.13;-1.69;0.15;-0.938703;-0.357997;-0.011849;0.0;0.0;0.0;0.0;0.0;0.0
1.0;1753875304.9963;17.984375;1.05;-1.68;0.14;-0.938912;-0.357948;-0.011834;0.0;0.0;0.0;0.0;0.0;0.0
1.0;1753875304.997715;17.902344;1.12;-1.68;0.07;-0.940132;-0.357948;-0.011834;0.0;0.0;0.0;0.0;0.0;0.0
1.0;1753875305.002308;17.895423;1.07;-1.67;0.02;-0.939878;-0.358587;-0.011515;0.0;0.0;0.0;0.0;0.0;0.0
1.0;1753875305.006901;17.907853;1.02;-1.67;0.03;-0.940446;-0.357534;-0.011763;0.0;0.0;0.0;0.0;0.0;0.0
1.0;1753875305.011494;17.908325;1.09;-1.68;0.13;-0.940223;-0.357675;-0.011881;0.0;0.0;0.0;0.0;0.0;0.0
1.0;1753875305.016086;17.938441;1.14;-1.71;0.14;-0.939574;-0.357301;-0.013092;0.0;0.0;0.0;0.0;0.0;0.0
1.0;1753875305.02068;17.886715;1.11;-1.71;0.09;-0.938732;-0.356564;-0.012326;0.0;0.0;0.0;0.0;0.0;0.0
1.0;1753875305.025272;17.901971;1.08;-1.75;-0.0;-0.940493;-0.358948;-0.011205;0.0;0.0;0.0;0.0;0.0;0.0
1.0;1753875305.029865;17.898438;1.11;-1.6;0.13;-0.940397;-0.358509;-0.014203;0.0;0.0;0.0;0.0;0.0;0.0
1.0;1753875305.034458;17.962401;1.01;-1.68;0.08;-0.939817;-0.358055;-0.011719;0.0;0.0;0.0;0.0;0.0;0.0
1.0;1753875305.039051;17.91162;1.17;-1.73;0.1;-0.940722;-0.359125;-0.011471;0.0;0.0;0.0;0.0;0.0;0.0
1.0;1753875305.043644;17.921996;1.23;-1.76;0.05;-0.938473;-0.356889;-0.012019;0.0;0.0;0.0;0.0;0.0;0.0
1.0;1753875305.048237;17.933304;1.12;-1.69;-0.02;-0.940312;-0.358235;-0.010789;0.0;0.0;0.0;0.0;0.0;0.0
1.0;1753875305.05283;17.938617;1.18;-1.71;0.12;-0.939256;-0.357564;-0.012004;0.0;0.0;0.0;0.0;0.0;0.0
1.0;1753875305.057423;17.892309;1.07;-1.62;-0.03;-0.93854;-0.357042;-0.011916;0.0;0.0;0.0;0.0;0.0;0.0
1.0;1753875305.062016;17.8789;1.11;-1.52;0.09;-0.940757;-0.358064;-0.011264;0.0;0.0;0.0;0.0;0.0;0.0
1.0;1753875305.066608;17.908234;1.11;-1.77;0.08;-0.937567;-0.358457;-0.011191;0.0;0.0;0.0;0.0;0.0;0.0
1.0;1753875305.071201;17.893424;1.05;-1.66;0.03;-0.939722;-0.356484;-0.012387;0.0;0.0;0.0;0.0;0.0;0.0
1.0;1753875305.075794;17.88121;1.1;-1.68;-0.05;-0.940012;-0.357185;-0.011145;0.0;0.0;0.0;0.0;0.0;0.0
1.0;1753875305.080387;17.88761;1.18;-1.76;0.09;-0.939655;-0.355112;-0.011461;0.0;0.0;0.0;0.0;0.0;0.0
1.0;1753875305.08498;17.93472;1.07;-1.72;0.06;-0.939186;-0.356465;-0.012094;0.0;0.0;0.0;0.0;0.0;0.0
1.0;1753875305.089573;17.914054;1.17;-1.63;0.03;-0.938537;-0.358761;-0.012152;0.0;0.0;0.0;0.0;0.0;0.0
1.0;1753875305.094166;17.890228;1.03;-1.75;0.09;-0.939866;-0.357625;-0.010793;0.0;0.0;0.0;0.0;0.0;0.0
1.0;1753875305.098759;17.894368;1.17;-1.73;0.01;-0.938828;-0.357742;-0.010538;0.0;0.0;0.0;0.0;0.0;0.0
1.0;1753875305.103352;17.88583;1.05;-1.59;0.05;-0.938393;-0.358012;-0.012094;0.0;0.0;0.0;0.0;0.0;0.0
1.0;1753875305.107944;17.884619;1.16;-1.71;0.09;-0.938564;-0.358437;-0.011362;0.0;0.0;0.0;0.0;0.0;0.0
1.0;1753875305.112538;17.908139;1.08;-1.61;0.07;-0.93798;-0.358114;-0.012132;0.0;0.0;0.0;0.0;0.0;0.0
1.0;1753875305.11713;17.889654;0.97;-1.69;0.05;-0.939568;-0.356698;-0.011728;0.0;0.0;0.0;0.0;0.0;0.0
1.0;1753875305.121723;17.912298;1.1;-1.68;0.02;-0.938888;-0.357272;-0.011306;0.0;0.0;0.0;0.0;0.0;0.0
1.0;1753875305.126316;17.876795;1.15;-1.69;0.06;-0.938591;-0.357564;-0.010327;0.0;0.0;0.0;0.0;0.0;0.0
1.0;1753875305.130909;17.915288;1.09;-1.72;0.03;-0.937768;-0.357705;-0.010679;0.0;0.0;0.0;0.0;0.0;0.0
1.0;1753875305.135502;17.891184;1.11;-1.72;0.02;-0.938351;-0.357399;-0.012149;0.0;0.0;0.0;0.0;0.0;0.0
1.0;1753875305.140095;17.901817;1.02;-1.76;-0.05;-0.936761;-0.358546;-0.011537;0.0;0.0;0.0;0.0;0.0;0.0
1.0;1753875305.144688;17.886213;1.05;-1.72;0.08;-0.939243;-0.357091;-0.011645;0.0;0.0;0.0;0.0;0.0;0.0
1.0;1753875305.14928;17.882469;1.08;-1.7;0.18;-0.937773;-0.357199;-0.011967;0.0;0.0;0.0;0.0;0.0;0.0
1.0;1753875305.153874;17.894283;1.03;-1.72;0.07;-0.938028;-0.356645;-0.010489;0.0;0.0;0.0;0.0;0.0;0.0
1.0;1753875305.158466;17.933738;1.01;-1.65;-0.02;-0.938643;-0.357597;-0.011179;0.0;0.0;0.0;0.0;0.0;0.0
1.0;1753875305.163059;17.917906;1.09;-1.7;0.09;-0.937607;-0.357325;-0.011799;0.0;0.0;0.0;0.0;0.0;0.0
1.0;1753875305.167652;17.916211;0.99;-1.63;0.15;-0.93894;-0.355955;-0.011225;0.0;0.0;0.0;0.0;0.0;0.0
1.0;1753875305.172245;17.896898;1.02;-1.71;0.07;-0.936373;-0.356371;-0.011647;0.0;0.0;0.0;0.0;0.0;0.0
1.0;1753875305.176838;17.871086;1.0;-1.73;0.11;-0.937125;-0.357268;-0.011101;0.0;0.0;0.0;0.0;0.0;0.0
1.0;1753875305.181431;17.893659;1.16;-1.71;0.01;-0.937844;-0.357075;-0.011433;0.0;0.0;0.0;0.0;0.0;0.0
1.0;1753875305.186024;17.919636;1.09;-1.62;0.03;-0.937495;-0.356419;-0.011765;0.0;0.0;0.0;0.0;0.0;0.0
1.0;1753875305.190616;17.861789;1.03;-1.69;0.05;-0.938913;-0.35771;-0.011253;0.0;0.0;0.0;0.0;0.0;0.0
1.0;1753875305.19521;17.922068;1.04;-1.58;0.08;-0.939907;-0.356129;-0.011083;0.0;0.0;0.0;0.0;0.0;0.0
1.0;1753875305.199802;17.909192;1.02;-1.71;0.1;-0.937379;-0.357619;-0.010388;0.0;0.0;0.0;0.0;0.0;0.0
1.0;1753875305.204395;17.892552;1.04;-1.69;0.08;-0.938933;-0.356836;-0.011893;0.0;0.0;0.0;0.0;0.0;0.0
1.0;1753875305.208988;17.908711;1.13;-1.74;0.13;-0.937169;-0.3575;-0.010798;0.0;0.0;0.0;0.0;0.0;0.0
1.0;1753875305.213581;17.854178;1.1;-1.64;0.07;-0.937928;-0.357606;-0.011124;0.0;0.0;0.0;0.0;0.0;0.0
1.0;1753875305.218174;17.907793;0.93;-1.71;0.05;-0.937282;-0.356987;-0.011106;0.0;0.0;0.0;0.0;0.0;0.0
1.0;1753875305.223;17.902344;1.05;-1.68;0.07;-0.937448;-0.357216;-0.011346;0.0;0.0;0.0;0.0;0.0;0.0
1.0;1753875305.227593;17.886485;0.96;-1.68;0.08;-0.937139;-0.354927;-0.01081;0.0;0.0;0.0;0.0;0.0;0.0
1.0;1753875305.232186;17.891088;1.01;-1.7;0.06;-0.936743;-0.357709;-0.01075;0.0;0.0;0.0;0.0;0.0;0.0
1.0;1753875305.236779;17.93511;1.05;-1.71;0.1;-0.937745;-0.355057;-0.010334;0.0;0.0;0.0;0.0;0.0;0.0
1.0;1753875305.241372;17.895876;0.92;-1.65;0.06;-0.936951;-0.356503;-0.011014;0.0;0.0;0.0;0.0;0.0;0.0
1.0;1753875305.245964;17.895863;1.05;-1.64;-0.04;-0.937832;-0.358359;-0.010166;0.0;0.0;0.0;0.0;0.0;0.0
1.0;1753875305.250558;17.91166;1.02;-1.65;0.12;-0.936357;-0.356785;-0.011226;0.0;0.0;0.0;0.0;0.0;0.0
1.0;1753875305.25515;17.921592;1.07;-1.62;0.03;-0.936932;-0.356855;-0.012988;0.0;0.0;0.0;0.0;0.0;0.0
1.0;1753875305.259743;17.907963;1.11;-1.72;0.07;-0.936228;-0.356453;-0.012265;0.0;0.0;0.0;0.0;0.0;0.0
1.0;1753875305.264336;17.879889;1.08;-1.52;0.08;-0.936121;-0.355829;-0.010345;0.0;0.0;0.0;0.0;0.0;0.0
1.0;1753875305.268929;17.897792;1.05;-1.71;0.08;-0.93895;-0.356806;-0.011618;0.0;0.0;0.0;0.0;0.0;0.0
1.0;1753875305.273522;17.911362;1.1;-1.6;0.15;-0.937295;-0.357166;-0.011086;0.0;0.0;0.0;0.0;0.0;0.0
1.0;1753875305.278115;17.901631;0.92;-1.74;0.09;-0.937084;-0.357282;-0.011326;0.0;0.0;0.0;0.0;0.0;0.0
1.0;1753875305.282708;17.89727;1.05;-1.65;0.09;-0.938092;-0.358625;-0.01175;0.0;0.0;0.0;0.0;0.0;0.0
1.0;1753875305.2873;17.895474;1.11;-1.68;0.09;-0.93799;-0.357987;-0.009356;0.0;0.0;0.0;0.0;0.0;0.0
1.0;1753875305.291894;17.899667;0.99;-1.67;0.06;-0.938517;-0.356589;-0.013008;0.0;0.0;0.0;0.0;0.0;0.0
1.0;1753875305.296486;17.905838;0.96;-1.67;0.07;-0.939377;-0.357014;-0.012224;0.0;0.0;0.0;0.0;0.0;0.0
1.0;1753875305.301079;17.931282;1.12;-1.73;0.07;-0.939288;-0.357658;-0.010731;0.0;0.0;0.0;0.0;0.0;0.0
1.0;1753875305.305672;17.893311;0.97;-1.75;0.12;-0.937196;-0.356844;-0.011551;0.0;0.0;0.0;0.0;0.0;0.0
1.0;1753875305.310265;17.890929;1.09;-1.75;0.07;-0.938645;-0.358744;-0.011002;0.0;0.0;0.0;0.0;0.0;0.0
1.0;1753875305.314858;17.896407;1.09;-1.62;0.02;-0.938362;-0.356963;-0.012396;0.0;0.0;0.0;0.0;0.0;0.0
1.0;1753875305.319451;17.93231;1.11;-1.57;0.14;-0.937338;-0.357891;-0.011472;0.0;0.0;0.0;0.0;0.0;0.0
1.0;1753875305.324044;17.90385;1.15;-1.67;0.08;-0.938456;-0.358597;-0.011931;0.0;0.0;0.0;0.0;0.0;0.0
1.0;1753875305.328637;17.913624;1.05;-1.71;0.06;-0.938104;-0.35764;-0.0108;0.0;0.0;0.0;0.0;0.0;0.0
1.0;1753875305.33323;17.894651;0.96;-1.77;0.1;-0.939086;-0.358704;-0.011331;0.0;0.0;0.0;0.0;0.0;0.0
1.0;1753875305.337822;17.907048;1.01;-1.67;0.17;-0.93937;-0.35853;-0.011419;0.0;0.0;0.0;0.0;0.0;0.0
1.0;1753875305.342415;17.885155;0.89;-1.7;0.18;-0.937569;-0.35654;-0.011583;0.0;0.0;0.0;0.0;0.0;0.0
1.0;1753875305.347008;17.892106;1.08;-1.63;0.13;-0.93676;-0.357006;-0.010889;0.0;0.0;0.0;0.0;0.0;0.0
1.0;1753875305.351601;17.909052;1.07;-1.7;0.1;-0.936827;-0.357496;-0.011364;0.0;0.0;0.0;0.0;0.0;0.0
1.0;1753875305.356194;17.913456;1.04;-1.77;0.06;-0.939246;-0.355906;-0.011999;0.0;0.0;0.0;0.0;0.0;0.0
1.0;1753875305.360787;17.91364;1.06;-1.61;0.06;-0.937916;-0.356633;-0.012737;0.0;0.0;0.0;0.0;0.0;0.0
1.0;1753875305.36538;17.86508;0.96;-1.72;0.12;-0.938063;-0.358414;-0.011266;0.0;0.0;0.0;0.0;0.0;0.0
1.0;1753875305.369973;17.902134;0.92;-1.64;0.1;-0.938152;-0.357758;-0.011802;0.0;0.0;0.0;0.0;0.0;0.0
1.0;1753875305.374566;17.887353;1.02;-1.54;0.06;-0.938693;-0.358459;-0.01293;0.0;0.0;0.0;0.0;0.0;0.0
1.0;1753875305.379158;17.912575;0.99;-1.61;0.09;-0.93753;-0.357615;-0.012747;0.0;0.0;0.0;0.0;0.0;0.0
1.0;1753875305.383752;17.89195;1.09;-1.68;0.07;-0.938173;-0.358646;-0.011613;0.0;0.0;0.0;0.0;0.0;0.0
1.0;1753875305.388344;17.87722;1.06;-1.63;0.04;-0.938111;-0.35737;-0.010938;0.0;0.0;0.0;0.0;0.0;0.0
1.0;1753875305.392937;17.896644;0.96;-1.7;0.12;-0.938291;-0.357436;-0.012929;0.0;0.0;0.0;0.0;0.0;0.0
1.0;1753875305.39753;17.869692;0.97;-1.57;0.1;-0.936749;-0.359087;-0.01333;0.0;0.0;0.0;0.0;0.0;0.0
1.0;1753875305.402123;17.901704;1.03;-1.75;0.05;-0.937564;-0.357369;-0.012845;0.0;0.0;0.0;0.0;0.0;0.0
1.0;1753875305.406716;17.891097;1.11;-1.7;0.13;-0.938319;-0.359249;-0.012666;0.0;0.0;0.0;0.0;0.0;0.0
1.0;1753875305.411309;17.903201;1.17;-1.62;-0.02;-0.939647;-0.358268;-0.01309;0.0;0.0;0.0;0.0;0.0;0.0
1.0;1753875305.415902;17.909486;0.97;-1.72;0.06;-0.938513;-0.357577;-0.011972;0.0;0.0;0.0;0.0;0.0;0.0
1.0;1753875305.420494;17.89435;0.98;-1.66;0.13;-0.93779;-0.35723;-0.013108;0.0;0.0;0.0;0.0;0.0;0.0
1.0;1753875305.425088;17.87403;1.07;-1.67;0.1;-0.939793;-0.357659;-0.012962;0.0;0.0;0.0;0.0;0.0;0.0
1.0;1753875305.42968;17.879895;0.97;-1.67;0.17;-0.938195;-0.357209;-0.012005;0.0;0.0;0.0;0.0;0.0;0.0
1.0;1753875305.434273;17.869166;0.96;-1.6;0.07;-0.937812;-0.357732;-0.012938;0.0;0.0;0.0;0.0;0.0;0.0
1.0;1753875305.438866;17.926337;0.94;-1.67;0.19;-0.938696;-0.357166;-0.013244;0.0;0.0;0.0;0.0;0.0;0.0
1.0;1753875305.443459;17.897745;1.0;-1.66;0.05;-0.937774;-0.357915;-0.013276;0.0;0.0;0.0;0.0;0.0;0.0
1.0;1753875305.448052;17.889407;1.0;-1.75;0.05;-0.938622;-0.357209;-0.012412;0.0;0.0;0.0;0.0;0.0;0.0
1.0;1753875305.452645;17.90862;0.93;-1.71;0.13;-0.937963;-0.359249;-0.012561;0.0;0.0;0.0;0.0;0.0;0.0
1.0;1753875305.457238;17.857128;1.05;-1.63;0.08;-0.93779;-0.358888;-0.012051;0.0;0.0;0.0;0.0;0.0;0.0
1.0;1753875305.46183;17.922238;0.98;-1.61;0.1;-0.938996;-0.356855;-0.010896;0.0;0.0;0.0;0.0;0.0;0.0
1.0;1753875305.466424;17.884654;1.04;-1.6;0.03;-0.939111;-0.358536;-0.012206;0.0;0.0;0.0;0.0;0.0;0.0
1.0;1753875305.471016;17.878397;1.08;-1.67;0.14;-0.938211;-0.359201;-0.011658;0.0;0.0;0.0;0.0;0.0;0.0
1.0;1753875305.475609;17.907552;1.03;-1.59;0.05;-0.93734;-0.357762;-0.01197;0.0;0.0;0.0;0.0;0.0;0.0
1.0;1753875305.480202;17.892205;0.99;-1.65;0.08;-0.938783;-0.357203;-0.01256;0.0;0.0;0.0;0.0;0.0;0.0
1.0;1753875305.484795;17.916178;0.93;-1.72;0.1;-0.93873;-0.358875;-0.011945;0.0;0.0;0.0;0.0;0.0;0.0
1.0;1753875305.489388;17.895946;1.06;-1.68;0.12;-0.938468;-0.359062;-0.013372;0.0;0.0;0.0;0.0;0.0;0.0
1.0;1753875305.493981;17.895156;1.06;-1.73;0.08;-0.939297;-0.357031;-0.01214;0.0;0.0;0.0;0.0;0.0;0.0
1.0;1753875305.498574;17.888262;1.09;-1.69;0.11;-0.939279;-0.35758;-0.013041;0.0;0.0;0.0;0.0;0.0;0.0
1.0;1753875305.503167;17.889808;0.87;-1.64;0.14;-0.939403;-0.357977;-0.012551;0.0;0.0;0.0;0.0;0.0;0.0
1.0;1753875305.50776;17.892084;0.99;-1.7;0.09;-0.938642;-0.357997;-0.011799;0.0;0.0;0.0;0.0;0.0;0.0
1.0;1753875305.512352;17.894879;0.98;-1.73;0.0;-0.939383;-0.358146;-0.011964;0.0;0.0;0.0;0.0;0.0;0.0
1.0;1753875305.516945;17.884262;0.96;-1.7;0.09;-0.937332;-0.358224;-0.01266;0.0;0.0;0.0;0.0;0.0;0.0
1.0;1753875305.521538;17.880807;0.99;-1.69;0.18;-0.939318;-0.356763;-0.012953;0.0;0.0;0.0;0.0;0.0;0.0
1.0;1753875305.526131;17.887952;0.92;-1.79;0.14;-0.938307;-0.359366;-0.013046;0.0;0.0;0.0;0.0;0.0;0.0
1.0;1753875305.530724;17.898597;0.89;-1.64;0.07;-0.93872;-0.357914;-0.011358;0.0;0.0;0.0;0.0;0.0;0.0
1.0;1753875305.535317;17.886081;1.13;-1.66;0.19;-0.938055;-0.358556;-0.012938;0.0;0.0;0.0;0.0;0.0;0.0
1.0;1753875305.53991;17.877377;0.99;-1.65;0.08;-0.938475;-0.360128;-0.011048;0.0;0.0;0.0;0.0;0.0;0.0
1.0;1753875305.544503;17.87177;1.06;-1.69;0.09;-0.938298;-0.358025;-0.011917;0.0;0.0;0.0;0.0;0.0;0.0
1.0;1753875305.549096;17.898848;1.08;-1.63;0.08;-0.938609;-0.358991;-0.013124;0.0;0.0;0.0;0.0;0.0;0.0
1.0;1753875305.553688;17.898893;0.96;-1.65;0.15;-0.937894;-0.358392;-0.012655;0.0;0.0;0.0;0.0;0.0;0.0
1.0;1753875305.558282;17.899144;1.07;-1.67;0.15;-0.940524;-0.358458;-0.012992;0.0;0.0;0.0;0.0;0.0;0.0
1.0;1753875305.562874;17.859239;0.96;-1.78;0.17;-0.937011;-0.359145;-0.012391;0.0;0.0;0.0;0.0;0.0;0.0
1.0;1753875305.567467;17.902693;1.01;-1.66;0.3;-0.938666;-0.357901;-0.013165;0.0;0.0;0.0;0.0;0.0;0.0
1.0;1753875305.57206;17.871986;1.09;-1.7;0.2;-0.937493;-0.357487;-0.013333;0.0;0.0;0.0;0.0;0.0;0.0
1.0;1753875305.576653;17.885896;0.9;-1.75;0.04;-0.938377;-0.359773;-0.012928;0.0;0.0;0.0;0.0;0.0;0.0
1.0;1753875305.581246;17.891906;0.95;-1.65;0.14;-0.938487;-0.358592;-0.013358;0.0;0.0;0.0;0.0;0.0;0.0
1.0;1753875305.585839;17.896249;1.07;-1.61;0.11;-0.938713;-0.36009;-0.013252;0.0;0.0;0.0;0.0;0.0;0.0
1.0;1753875305.590432;17.881417;0.9;-1.76;0.05;-0.940135;-0.357454;-0.0121;0.0;0.0;0.0;0.0;0.0;0.0
1.0;1753875305.595024;17.876984;0.96;-1.69;0.16;-0.937186;-0.35872;-0.014188;0.0;0.0;0.0;0.0;0.0;0.0
1.0;1753875305.599618;17.869086;1.02;-1.63;0.1;-0.940165;-0.35971;-0.011652;0.0;0.0;0.0;0.0;0.0;0.0
1.0;1753875305.60421;17.861995;1.01;-1.67;0.23;-0.938411;-0.358711;-0.01274;0.0;0.0;0.0;0.0;0.0;0.0
1.0;1753875305.608803;17.911941;1.03;-1.68;0.13;-0.9394;-0.356414;-0.012604;0.0;0.0;0.0;0.0;0.0;0.0
1.0;1753875305.613396;17.870163;1.07;-1.75;0.1;-0.938506;-0.357683;-0.013156;0.0;0.0;0.0;0.0;0.0;0.0
1.0;1753875305.617989;17.877345;0.96;-1.69;0.11;-0.939473;-0.357921;-0.012153;0.0;0.0;0.0;0.0;0.0;0.0
1.0;1753875305.622582;17.891603;0.93;-1.69;0.12;-0.939728;-0.356641;-0.012885;0.0;0.0;0.0;0.0;0.0;0.0
1.0;1753875305.627175;17.893161;1.06;-1.73;0.15;-0.939369;-0.359463;-0.012352;0.0;0.0;0.0;0.0;0.0;0.0
1.0;1753875305.631768;17.889237;0.93;-1.74;0.12;-0.938937;-0.358143;-0.012097;0.0;0.0;0.0;0.0;0.0;0.0
1.0;1753875305.636361;17.832853;1.09;-1.77;0.1;-0.94023;-0.359243;-0.013041;0.0;0.0;0.0;0.0;0.0;0.0
1.0;1753875305.640954;17.878284;1.02;-1.71;0.08;-0.939355;-0.357908;-0.011704;0.0;0.0;0.0;0.0;0.0;0.0
1.0;1753875305.645546;17.88804;0.98;-1.59;0.13;-0.938592;-0.359661;-0.013165;0.0;0.0;0.0;0.0;0.0;0.0
1.0;1753875305.650139;17.862198;0.96;-1.7;0.15;-0.937755;-0.359529;-0.013532;0.0;0.0;0.0;0.0;0.0;0.0
1.0;1753875305.654732;17.876894;1.08;-1.73;0.14;-0.939749;-0.35739;-0.011798;0.0;0.0;0.0;0.0;0.0;0.0
1.0;1753875305.659325;17.876596;1.04;-1.69;0.22;-0.940943;-0.358852;-0.013737;0.0;0.0;0.0;0.0;0.0;0.0
1.0;1753875305.663918;17.892941;0.97;-1.65;0.12;-0.938901;-0.35732;-0.013558;0.0;0.0;0.0;0.0;0.0;0.0
1.0;1753875305.668511;17.8676;0.93;-1.72;0.17;-0.939547;-0.357674;-0.012894;0.0;0.0;0.0;0.0;0.0;0.0
1.0;1753875305.673104;17.860466;1.0;-1.74;0.08;-0.937238;-0.359091;-0.012826;0.0;0.0;0.0;0.0;0.0;0.0
1.0;1753875305.6806;17.878906;0.98;-1.68;0.14;-0.939156;-0.358314;-0.013054;0.0;0.0;0.0;0.0;0.0;0.0
1.0;1753875305.685193;17.874573;0.97;-1.66;0.14;-0.939527;-0.357315;-0.013483;0.0;0.0;0.0;0.0;0.0;0.0
1.0;1753875305.689786;17.877271;1.07;-1.6;0.11;-0.938787;-0.35823;-0.012373;0.0;0.0;0.0;0.0;0.0;0.0
1.0;1753875305.694378;17.860876;1.07;-1.64;0.06;-0.937789;-0.357246;-0.013701;0.0;0.0;0.0;0.0;0.0;0.0
1.0;1753875305.698972;17.917633;1.05;-1.62;-0.01;-0.938729;-0.359325;-0.012794;0.0;0.0;0.0;0.0;0.0;0.0
1.0;1753875305.703564;17.908647;1.02;-1.62;-0.0;-0.938307;-0.358334;-0.013406;0.0;0.0;0.0;0.0;0.0;0.0
1.0;1753875305.708157;17.90578;1.03;-1.58;0.0;-0.93883;-0.358435;-0.012126;0.0;0.0;0.0;0.0;0.0;0.0
1.0;1753875305.71275;17.872382;1.1;-1.62;0.08;-0.938499;-0.357198;-0.013144;0.0;0.0;0.0;0.0;0.0;0.0
1.0;1753875305.71955;17.902344;1.05;-1.54;0.0;-0.938546;-0.358314;-0.012566;0.0;0.0;0.0;0.0;0.0;0.0
1.0;1753875305.724143;17.878914;1.09;-1.51;-0.0;-0.938128;-0.357747;-0.013563;0.0;0.0;0.0;0.0;0.0;0.0
1.0;1753875305.728736;17.887997;1.07;-1.62;-0.05;-0.939382;-0.35722;-0.013133;0.0;0.0;0.0;0.0;0.0;0.0
1.0;1753875305.733328;17.913197;1.05;-1.55;-0.01;-0.939636;-0.357645;-0.01211;0.0;0.0;0.0;0.0;0.0;0.0
1.0;1753875305.737922;17.917322;0.97;-1.5;-0.0;-0.937612;-0.358984;-0.012648;0.0;0.0;0.0;0.0;0.0;0.0
1.0;1753875305.742514;17.885098;1.12;-1.62;0.05;-0.938763;-0.359686;-0.012736;0.0;0.0;0.0;0.0;0.0;0.0
1.0;1753875305.747107;17.878636;1.16;-1.59;0.07;-0.938672;-0.359445;-0.014336;0.0;0.0;0.0;0.0;0.0;0.0
1.0;1753875305.7517;17.900728;1.15;-1.58;0.07;-0.938113;-0.357905;-0.012793;0.0;0.0;0.0;0.0;0.0;0.0
1.0;1753875305.756293;17.905003;1.16;-1.51;0.04;-0.93834;-0.358129;-0.012981;0.0;0.0;0.0;0.0;0.0;0.0
1.0;1753875305.760886;17.916146;1.28;-1.57;0.04;-0.937948;-0.358736;-0.012874;0.0;0.0;0.0;0.0;0.0;0.0
1.0;1753875305.765479;17.887425;1.13;-1.49;0.05;-0.938129;-0.358645;-0.014002;0.0;0.0;0.0;0.0;0.0;0.0
1.0;1753875305.770072;17.928428;1.15;-1.49;-0.01;-0.936575;-0.356273;-0.01291;0.0;0.0;0.0;0.0;0.0;0.0
1.0;1753875305.7773;17.902344;1.19;-1.54;0.07;-0.93696;-0.358314;-0.013908;0.0;0.0;0.0;0.0;0.0;0.0
1.0;1753875305.781893;17.893662;1.1;-1.57;0.02;-0.9389;-0.357653;-0.013055;0.0;0.0;0.0;0.0;0.0;0.0
1.0;1753875305.786486;17.91805;1.15;-1.53;0.11;-0.937931;-0.357393;-0.01511;0.0;0.0;0.0;0.0;0.0;0.0
1.0;1753875305.791078;17.850718;1.08;-1.61;0.11;-0.937985;-0.358069;-0.012749;0.0;0.0;0.0;0.0;0.0;0.0
1.0;1753875305.795672;17.850023;1.16;-1.67;0.16;-0.93943;-0.356558;-0.013925;0.0;0.0;0.0;0.0;0.0;0.0
1.0;1753875305.80003;17.855469;1.12;-1.68;0.14;-0.938912;-0.356728;-0.013054;0.0;0.0;0.0;0.0;0.0;0.0
1.0;1753875305.804623;17.860637;1.07;-1.69;0.12;-0.939513;-0.35776;-0.013385;0.0;0.0;0.0;0.0;0.0;0.0
1.0;1753875305.809216;17.85745;1.11;-1.66;0.11;-0.938004;-0.357542;-0.012879;0.0;0.0;0.0;0.0;0.0;0.0
1.0;1753875305.813809;17.867921;1.07;-1.58;0.14;-0.937125;-0.356921;-0.013948;0.0;0.0;0.0;0.0;0.0;0.0
1.0;1753875305.818402;17.873985;1.05;-1.74;0.16;-0.93912;-0.357955;-0.014915;0.0;0.0;0.0;0.0;0.0;0.0
1.0;1753875305.822994;17.888054;1.17;-1.68;0.15;-0.935837;-0.357599;-0.012556;0.0;0.0;0.0;0.0;0.0;0.0
1.0;1753875305.827587;17.859502;1.2;-1.57;0.14;-0.937277;-0.358541;-0.012962;0.0;0.0;0.0;0.0;0.0;0.0
1.0;1753875305.83218;17.834638;1.13;-1.67;0.07;-0.939847;-0.358804;-0.014785;0.0;0.0;0.0;0.0;0.0;0.0
1.0;1753875305.836773;17.830385;1.14;-1.73;0.14;-0.937664;-0.35705;-0.013498;0.0;0.0;0.0;0.0;0.0;0.0
1.0;1753875305.841366;17.84848;1.03;-1.46;0.07;-0.936189;-0.358124;-0.015126;0.0;0.0;0.0;0.0;0.0;0.0
1.0;1753875305.84597;17.855469;1.12;-1.61;0.07;-0.936472;-0.35807;-0.013786;0.0;0.0;0.0;0.0;0.0;0.0
1.0;1753875305.850563;17.832157;1.01;-1.66;0.18;-0.935958;-0.358527;-0.013114;0.0;0.0;0.0;0.0;0.0;0.0
1.0;1753875305.855156;17.863039;1.05;-1.53;0.11;-0.934557;-0.356675;-0.013548;0.0;0.0;0.0;0.0;0.0;0.0
1.0;1753875305.859748;17.849503;1.16;-1.7;0.0;-0.936388;-0.358151;-0.01183;0.0;0.0;0.0;0.0;0.0;0.0
1.0;1753875305.864342;17.845676;1.13;-1.51;0.02;-0.934749;-0.357434;-0.012906;0.0;0.0;0.0;0.0;0.0;0.0
1.0;1753875305.868934;17.811004;1.15;-1.56;0.03;-0.937561;-0.355814;-0.013865;0.0;0.0;0.0;0.0;0.0;0.0
1.0;1753875305.873527;17.877809;1.13;-1.68;0.06;-0.9381;-0.35621;-0.01426;0.0;0.0;0.0;0.0;0.0;0.0
1.0;1753875305.87812;17.85205;1.02;-1.65;0.03;-0.938196;-0.356205;-0.013127;0.0;0.0;0.0;0.0;0.0;0.0
1.0;1753875305.882713;17.825167;1.07;-1.5;0.09;-0.937265;-0.356523;-0.014701;0.0;0.0;0.0;0.0;0.0;0.0
1.0;1753875305.887306;17.858479;1.23;-1.62;0.04;-0.937729;-0.354663;-0.013032;0.0;0.0;0.0;0.0;0.0;0.0
1.0;1753875305.89174;17.855469;1.12;-1.68;0.0;-0.937326;-0.356362;-0.013054;0.0;0.0;0.0;0.0;0.0;0.0
1.0;1753875305.896333;17.833146;1.1;-1.75;0.08;-0.937564;-0.356544;-0.013478;0.0;0.0;0.0;0.0;0.0;0.0
1.0;1753875305.900926;17.876545;1.09;-1.51;0.04;-0.93462;-0.35708;-0.013943;0.0;0.0;0.0;0.0;0.0;0.0
1.0;1753875305.905519;17.840008;1.16;-1.73;0.04;-0.937167;-0.358131;-0.013475;0.0;0.0;0.0;0.0;0.0;0.0
1.0;1753875305.910112;17.85771;1.13;-1.75;0.01;-0.937177;-0.357014;-0.013351;0.0;0.0;0.0;0.0;0.0;0.0
1.0;1753875305.914704;17.833407;1.22;-1.67;-0.07;-0.937331;-0.357701;-0.013488;0.0;0.0;0.0;0.0;0.0;0.0
1.0;1753875305.919298;17.875547;1.16;-1.56;0.1;-0.93914;-0.357499;-0.014143;0.0;0.0;0.0;0.0;0.0;0.0
1.0;1753875305.92389;17.857521;1.16;-1.72;0.01;-0.937148;-0.357312;-0.012327;0.0;0.0;0.0;0.0;0.0;0.0
1.0;1753875305.928483;17.85922;1.21;-1.81;0.1;-0.936085;-0.356032;-0.011268;0.0;0.0;0.0;0.0;0.0;0.0
1.0;1753875305.93695;17.855469;1.19;-1.68;0.07;-0.937082;-0.357948;-0.013298;0.0;0.0;0.0;0.0;0.0;0.0
1.0;1753875305.941543;17.860565;1.17;-1.7;0.1;-0.936045;-0.357964;-0.013583;0.0;0.0;0.0;0.0;0.0;0.0
1.0;1753875305.946136;17.831385;1.24;-1.6;0.03;-0.93786;-0.358342;-0.013864;0.0;0.0;0.0;0.0;0.0;0.0
1.0;1753875305.950729;17.890043;1.15;-1.75;0.07;-0.937517;-0.358654;-0.012583;0.0;0.0;0.0;0.0;0.0;0.0
1.0;1753875305.955322;17.868994;1.19;-1.71;0.03;-0.936141;-0.358296;-0.012685;0.0;0.0;0.0;0.0;0.0;0.0
1.0;1753875305.959914;17.840116;1.11;-1.79;0.09;-0.937977;-0.358066;-0.013395;0.0;0.0;0.0;0.0;0.0;0.0
1.0;1753875305.964507;17.898081;1.17;-1.73;0.08;-0.93781;-0.357886;-0.013373;0.0;0.0;0.0;0.0;0.0;0.0
1.0;1753875305.9691;17.8726;1.11;-1.66;0.08;-0.937456;-0.35738;-0.011602;0.0;0.0;0.0;0.0;0.0;0.0
1.0;1753875305.973693;17.866515;1.12;-1.73;0.05;-0.936106;-0.357719;-0.012983;0.0;0.0;0.0;0.0;0.0;0.0
1.0;1753875305.978286;17.898364;1.25;-1.77;0.13;-0.939198;-0.360205;-0.013308;0.0;0.0;0.0;0.0;0.0;0.0
1.0;1753875305.98538;17.886719;1.12;-1.75;0.07;-0.936716;-0.357948;-0.0122;0.0;0.0;0.0;0.0;0.0;0.0
1.0;1753875305.985851;17.84375;0.98;-1.61;0.07;-0.937326;-0.358436;-0.012932;0.0;0.0;0.0;0.0;0.0;0.0
1.0;1753875305.990017;17.84375;1.12;-1.75;0.0;-0.936472;-0.358192;-0.013908;0.0;0.0;0.0;0.0;0.0;0.0
1.0;1753875305.994601;17.796875;1.19;-1.54;0.14;-0.937692;-0.356118;-0.01403;0.0;0.0;0.0;0.0;0.0;0.0
1.0;1753875305.999194;17.801762;1.28;-1.46;0.1;-0.937964;-0.355887;-0.013077;0.0;0.0;0.0;0.0;0.0;0.0
1.0;1753875306.003787;17.814279;1.06;-1.45;0.14;-0.938485;-0.356383;-0.015195;0.0;0.0;0.0;0.0;0.0;0.0
1.0;1753875306.00838;17.789496;1.33;-1.42;0.18;-0.935884;-0.355776;-0.014385;0.0;0.0;0.0;0.0;0.0;0.0
1.0;1753875306.012972;17.800933;1.27;-1.53;0.14;-0.937366;-0.355855;-0.013398;0.0;0.0;0.0;0.0;0.0;0.0
1.0;1753875306.017566;17.791484;1.14;-1.56;0.09;-0.936936;-0.356276;-0.013663;0.0;0.0;0.0;0.0;0.0;0.0
1.0;1753875306.022158;17.808054;1.27;-1.67;0.12;-0.938825;-0.354996;-0.013387;0.0;0.0;0.0;0.0;0.0;0.0
1.0;1753875306.026751;17.778864;1.19;-1.57;0.09;-0.937048;-0.355584;-0.013446;0.0;0.0;0.0;0.0;0.0;0.0
1.0;1753875306.031344;17.759161;1.21;-1.61;0.14;-0.9389;-0.356564;-0.012807;0.0;0.0;0.0;0.0;0.0;0.0
1.0;1753875306.035937;17.805919;1.22;-1.6;0.14;-0.937668;-0.35717;-0.014212;0.0;0.0;0.0;0.0;0.0;0.0
1.0;1753875306.04053;17.803003;1.11;-1.54;0.13;-0.936857;-0.356708;-0.014043;0.0;0.0;0.0;0.0;0.0;0.0
1.0;1753875306.045123;17.803236;1.05;-1.61;0.13;-0.937824;-0.357053;-0.013048;0.0;0.0;0.0;0.0;0.0;0.0
1.0;1753875306.049716;17.778637;1.14;-1.44;0.2;-0.937306;-0.355386;-0.015685;0.0;0.0;0.0;0.0;0.0;0.0
1.0;1753875306.054309;17.807396;1.13;-1.62;0.16;-0.938374;-0.356951;-0.013088;0.0;0.0;0.0;0.0;0.0;0.0
1.0;1753875306.058902;17.799355;1.26;-1.58;0.17;-0.937876;-0.356215;-0.012531;0.0;0.0;0.0;0.0;0.0;0.0
1.0;1753875306.063494;17.792406;1.06;-1.67;0.14;-0.93699;-0.356759;-0.01201;0.0;0.0;0.0;0.0;0.0;0.0
1.0;1753875306.068087;17.77068;1.25;-1.64;0.18;-0.938297;-0.355385;-0.01387;0.0;0.0;0.0;0.0;0.0;0.0
1.0;1753875306.07268;17.821211;1.13;-1.57;0.18;-0.938232;-0.357695;-0.012833;0.0;0.0;0.0;0.0;0.0;0.0
1.0;1753875306.077273;17.828538;1.18;-1.56;0.15;-0.937237;-0.356443;-0.012708;0.0;0.0;0.0;0.0;0.0;0.0
1.0;1753875306.081866;17.821419;1.19;-1.59;0.21;-0.937274;-0.358476;-0.012455;0.0;0.0;0.0;0.0;0.0;0.0
1.0;1753875306.086459;17.813551;1.2;-1.54;0.13;-0.938414;-0.357256;-0.012642;0.0;0.0;0.0;0.0;0.0;0.0
1.0;1753875306.091052;17.803654;1.16;-1.6;0.17;-0.937854;-0.3564;-0.013613;0.0;0.0;0.0;0.0;0.0;0.0
1.0;1753875306.095645;17.776173;1.22;-1.63;0.07;-0.937031;-0.356458;-0.014644;0.0;0.0;0.0;0.0;0.0;0.0
1.0;1753875306.100238;17.806183;1.05;-1.59;0.05;-0.937179;-0.356535;-0.01216;0.0;0.0;0.0;0.0;0.0;0.0
1.0;1753875306.10483;17.790871;1.22;-1.59;0.12;-0.93661;-0.356362;-0.01451;0.0;0.0;0.0;0.0;0.0;0.0
1.0;1753875306.109424;17.810405;1.13;-1.56;0.17;-0.937774;-0.355373;-0.013997;0.0;0.0;0.0;0.0;0.0;0.0
1.0;1753875306.114016;17.816128;1.23;-1.63;0.15;-0.937498;-0.355493;-0.013662;0.0;0.0;0.0;0.0;0.0;0.0
1.0;1753875306.118609;17.803367;1.17;-1.57;0.11;-0.937023;-0.357211;-0.013412;0.0;0.0;0.0;0.0;0.0;0.0
1.0;1753875306.123202;17.781015;1.09;-1.62;0.11;-0.936914;-0.358667;-0.012317;0.0;0.0;0.0;0.0;0.0;0.0
1.0;1753875306.127795;17.791936;1.18;-1.55;0.12;-0.935117;-0.357134;-0.011871;0.0;0.0;0.0;0.0;0.0;0.0
1.0;1753875306.132388;17.782598;1.12;-1.56;0.1;-0.937323;-0.356282;-0.013945;0.0;0.0;0.0;0.0;0.0;0.0
1.0;1753875306.136981;17.818524;1.33;-1.56;0.15;-0.938008;-0.357274;-0.01482;0.0;0.0;0.0;0.0;0.0;0.0
1.0;1753875306.141574;17.812991;1.22;-1.64;0.12;-0.938272;-0.356529;-0.012099;0.0;0.0;0.0;0.0;0.0;0.0
1.0;1753875306.146166;17.808599;1.21;-1.5;0.12;-0.938034;-0.356231;-0.012693;0.0;0.0;0.0;0.0;0.0;0.0
1.0;1753875306.15076;17.821778;1.19;-1.69;0.12;-0.937102;-0.356396;-0.013344;0.0;0.0;0.0;0.0;0.0;0.0
1.0;1753875306.155352;17.782327;1.16;-1.59;0.14;-0.938587;-0.356512;-0.013445;0.0;0.0;0.0;0.0;0.0;0.0
1.0;1753875306.159945;17.771954;1.11;-1.6;0.13;-0.938363;-0.356977;-0.013156;0.0;0.0;0.0;0.0;0.0;0.0
1.0;1753875306.164538;17.785478;1.19;-1.52;0.18;-0.936364;-0.358617;-0.011424;0.0;0.0;0.0;0.0;0.0;0.0
1.0;1753875306.169131;17.812057;1.05;-1.48;0.09;-0.939329;-0.357232;-0.013176;0.0;0.0;0.0;0.0;0.0;0.0
1.0;1753875306.173724;17.81062;1.22;-1.48;0.08;-0.93823;-0.358042;-0.011873;0.0;0.0;0.0;0.0;0.0;0.0
1.0;1753875306.178317;17.803795;1.15;-1.51;0.18;-0.937616;-0.358162;-0.012523;0.0;0.0;0.0;0.0;0.0;0.0
1.0;1753875306.18291;17.780437;1.02;-1.6;0.1;-0.936346;-0.356955;-0.012805;0.0;0.0;0.0;0.0;0.0;0.0
1.0;1753875306.187502;17.812596;1.15;-1.51;0.15;-0.936557;-0.357616;-0.011225;0.0;0.0;0.0;0.0;0.0;0.0
1.0;1753875306.192096;17.791143;1.19;-1.67;0.12;-0.938819;-0.356809;-0.012953;0.0;0.0;0.0;0.0;0.0;0.0
1.0;1753875306.196688;17.831528;1.07;-1.73;0.15;-0.937165;-0.356364;-0.012093;0.0;0.0;0.0;0.0;0.0;0.0
1.0;1753875306.201281;17.796338;1.12;-1.6;0.13;-0.937988;-0.356661;-0.012952;0.0;0.0;0.0;0.0;0.0;0.0
1.0;1753875306.205874;17.83802;1.02;-1.6;0.1;-0.938472;-0.356204;-0.011468;0.0;0.0;0.0;0.0;0.0;0.0
1.0;1753875306.210467;17.772034;1.28;-1.58;0.12;-0.937737;-0.356657;-0.013374;0.0;0.0;0.0;0.0;0.0;0.0
1.0;1753875306.21506;17.782831;1.16;-1.6;0.17;-0.936452;-0.356936;-0.01378;0.0;0.0;0.0;0.0;0.0;0.0
1.0;1753875306.219653;17.764425;1.03;-1.67;0.17;-0.938197;-0.357381;-0.011662;0.0;0.0;0.0;0.0;0.0;0.0
1.0;1753875306.224246;17.80725;1.09;-1.52;0.14;-0.937067;-0.358119;-0.01347;0.0;0.0;0.0;0.0;0.0;0.0
1.0;1753875306.228839;17.813836;1.02;-1.52;0.14;-0.936708;-0.356772;-0.012134;0.0;0.0;0.0;0.0;0.0;0.0
1.0;1753875306.233432;17.829643;1.09;-1.53;0.13;-0.940115;-0.357776;-0.011919;0.0;0.0;0.0;0.0;0.0;0.0
1.0;1753875306.238024;17.765033;1.04;-1.68;0.16;-0.93633;-0.355775;-0.011642;0.0;0.0;0.0;0.0;0.0;0.0
1.0;1753875306.2439;17.796875;1.12;-1.61;0.14;-0.937692;-0.35746;-0.012322;0.0;0.0;0.0;0.0;0.0;0.0
1.0;1753875306.248493;17.771286;1.04;-1.67;0.09;-0.936446;-0.355769;-0.012017;0.0;0.0;0.0;0.0;0.0;0.0
1.0;1753875306.253086;17.836492;1.07;-1.6;0.14;-0.937349;-0.356809;-0.011098;0.0;0.0;0.0;0.0;0.0;0.0
1.0;1753875306.257679;17.814419;1.08;-1.57;0.11;-0.937451;-0.358819;-0.013259;0.0;0.0;0.0;0.0;0.0;0.0
1.0;1753875306.262272;17.82756;1.14;-1.57;0.05;-0.93717;-0.356742;-0.012651;0.0;0.0;0.0;0.0;0.0;0.0
1.0;1753875306.266864;17.786862;1.1;-1.55;0.13;-0.937861;-0.35775;-0.012115;0.0;0.0;0.0;0.0;0.0;0.0
1.0;1753875306.271458;17.816824;1.11;-1.62;0.15;-0.937362;-0.357084;-0.011657;0.0;0.0;0.0;0.0;0.0;0.0
1.0;1753875306.27605;17.795186;1.1;-1.63;0.12;-0.93795;-0.358796;-0.012851;0.0;0.0;0.0;0.0;0.0;0.0
1.0;1753875306.280643;17.780964;1.2;-1.59;0.16;-0.938345;-0.357481;-0.011684;0.0;0.0;0.0;0.0;0.0;0.0
1.0;1753875306.285236;17.800055;1.01;-1.69;0.27;-0.938576;-0.357086;-0.013679;0.0;0.0;0.0;0.0;0.0;0.0
1.0;1753875306.289829;17.777157;1.08;-1.56;0.12;-0.938834;-0.357342;-0.012085;0.0;0.0;0.0;0.0;0.0;0.0
1.0;1753875306.294422;17.800925;1.18;-1.58;0.13;-0.939476;-0.356618;-0.01291;0.0;0.0;0.0;0.0;0.0;0.0
1.0;1753875306.299015;17.803345;1.23;-1.72;0.11;-0.938355;-0.357135;-0.011142;0.0;0.0;0.0;0.0;0.0;0.0
1.0;1753875306.303608;17.800095;1.08;-1.43;0.2;-0.936734;-0.357159;-0.01122;0.0;0.0;0.0;0.0;0.0;0.0
1.0;1753875306.3082;17.818514;1.2;-1.63;0.13;-0.937674;-0.357091;-0.011259;0.0;0.0;0.0;0.0;0.0;0.0
1.0;1753875306.312794;17.795677;1.15;-1.59;0.08;-0.937195;-0.358673;-0.012223;0.0;0.0;0.0;0.0;0.0;0.0
1.0;1753875306.317386;17.828258;1.14;-1.49;0.14;-0.936897;-0.356297;-0.010367;0.0;0.0;0.0;0.0;0.0;0.0
1.0;1753875306.321979;17.801194;1.03;-1.51;0.17;-0.937825;-0.357889;-0.012381;0.0;0.0;0.0;0.0;0.0;0.0
1.0;1753875306.326572;17.813679;1.02;-1.56;0.07;-0.936701;-0.357933;-0.011688;0.0;0.0;0.0;0.0;0.0;0.0
1.0;1753875306.331165;17.779546;1.02;-1.65;0.09;-0.936895;-0.359144;-0.012488;0.0;0.0;0.0;0.0;0.0;0.0
1.0;1753875306.335758;17.793268;1.19;-1.58;0.15;-0.937434;-0.35879;-0.012121;0.0;0.0;0.0;0.0;0.0;0.0
1.0;1753875306.340351;17.782351;0.99;-1.64;0.08;-0.938303;-0.35845;-0.01302;0.0;0.0;0.0;0.0;0.0;0.0
1.0;1753875306.344944;17.769514;1.15;-1.69;0.04;-0.936863;-0.358929;-0.013139;0.0;0.0;0.0;0.0;0.0;0.0
1.0;1753875306.349537;17.809528;1.06;-1.55;0.13;-0.937157;-0.358478;-0.012229;0.0;0.0;0.0;0.0;0.0;0.0
1.0;1753875306.35413;17.806514;1.25;-1.47;0.11;-0.938516;-0.356724;-0.010362;0.0;0.0;0.0;0.0;0.0;0.0
1.0;1753875306.358722;17.779982;1.0;-1.67;0.09;-0.937285;-0.357904;-0.011807;0.0;0.0;0.0;0.0;0.0;0.0
1.0;1753875306.363315;17.79055;1.2;-1.65;0.1;-0.937408;-0.356888;-0.012342;0.0;0.0;0.0;0.0;0.0;0.0
1.0;1753875306.367908;17.78942;1.09;-1.67;0.16;-0.937739;-0.356806;-0.013474;0.0;0.0;0.0;0.0;0.0;0.0
1.0;1753875306.372501;17.781691;1.15;-1.54;0.06;-0.936655;-0.35789;-0.011913;0.0;0.0;0.0;0.0;0.0;0.0
1.0;1753875306.377094;17.77311;1.09;-1.6;0.11;-0.938398;-0.357674;-0.012318;0.0;0.0;0.0;0.0;0.0;0.0
1.0;1753875306.381687;17.803531;1.11;-1.59;0.14;-0.938515;-0.3573;-0.013973;0.0;0.0;0.0;0.0;0.0;0.0
1.0;1753875306.38628;17.798931;1.21;-1.58;0.11;-0.936458;-0.357946;-0.011949;0.0;0.0;0.0;0.0;0.0;0.0
1.0;1753875306.390873;17.819206;1.12;-1.49;0.11;-0.938337;-0.356515;-0.011208;0.0;0.0;0.0;0.0;0.0;0.0
1.0;1753875306.395466;17.784233;1.04;-1.58;0.12;-0.937385;-0.358685;-0.012351;0.0;0.0;0.0;0.0;0.0;0.0
1.0;1753875306.400058;17.811363;1.17;-1.61;0.09;-0.938269;-0.35759;-0.013322;0.0;0.0;0.0;0.0;0.0;0.0
1.0;1753875306.404652;17.805888;1.09;-1.57;0.1;-0.937457;-0.35722;-0.011057;0.0;0.0;0.0;0.0;0.0;0.0
1.0;1753875306.409244;17.812404;1.19;-1.57;0.05;-0.937503;-0.356943;-0.013482;0.0;0.0;0.0;0.0;0.0;0.0
1.0;1753875306.413837;17.81953;1.12;-1.62;0.07;-0.936644;-0.357449;-0.01253;0.0;0.0;0.0;0.0;0.0;0.0
1.0;1753875306.41843;17.770075;1.07;-1.74;0.08;-0.938375;-0.358942;-0.012387;0.0;0.0;0.0;0.0;0.0;0.0
1.0;1753875306.423023;17.812006;1.15;-1.66;0.06;-0.937979;-0.358208;-0.01351;0.0;0.0;0.0;0.0;0.0;0.0
1.0;1753875306.427616;17.791746;1.14;-1.67;0.13;-0.938947;-0.356389;-0.011845;0.0;0.0;0.0;0.0;0.0;0.0
1.0;1753875306.432209;17.776412;1.17;-1.62;0.04;-0.937049;-0.35911;-0.012382;0.0;0.0;0.0;0.0;0.0;0.0
1.0;1753875306.436802;17.809019;1.07;-1.52;0.13;-0.937694;-0.358031;-0.013408;0.0;0.0;0.0;0.0;0.0;0.0
1.0;1753875306.441394;17.787551;1.04;-1.69;0.07;-0.939398;-0.358503;-0.013513;0.0;0.0;0.0;0.0;0.0;0.0
1.0;1753875306.445988;17.817963;1.12;-1.73;0.07;-0.937906;-0.355966;-0.011903;0.0;0.0;0.0;0.0;0.0;0.0
1.0;1753875306.45058;17.78282;1.14;-1.51;0.13;-0.937939;-0.357506;-0.011393;0.0;0.0;0.0;0.0;0.0;0.0
1.0;1753875306.455173;17.787833;1.16;-1.57;0.12;-0.938664;-0.35736;-0.012439;0.0;0.0;0.0;0.0;0.0;0.0
1.0;1753875306.459766;17.794244;1.12;-1.7;0.11;-0.938724;-0.357851;-0.011444;0.0;0.0;0.0;0.0;0.0;0.0
1.0;1753875306.464359;17.789407;1.02;-1.68;0.06;-0.938469;-0.358981;-0.012383;0.0;0.0;0.0;0.0;0.0;0.0
1.0;1753875306.468952;17.776755;1.13;-1.61;0.17;-0.937772;-0.356617;-0.011437;0.0;0.0;0.0;0.0;0.0;0.0
1.0;1753875306.473545;17.770673;1.09;-1.67;0.08;-0.937185;-0.358602;-0.011913;0.0;0.0;0.0;0.0;0.0;0.0
1.0;1753875306.478138;17.795065;1.12;-1.78;0.15;-0.938417;-0.357818;-0.012551;0.0;0.0;0.0;0.0;0.0;0.0
1.0;1753875306.482731;17.81717;1.16;-1.7;0.11;-0.938102;-0.359389;-0.012228;0.0;0.0;0.0;0.0;0.0;0.0
1.0;1753875306.487324;17.75711;1.14;-1.59;0.11;-0.93905;-0.359342;-0.012959;0.0;0.0;0.0;0.0;0.0;0.0
1.0;1753875306.491916;17.782233;0.94;-1.56;0.2;-0.938587;-0.357531;-0.013355;0.0;0.0;0.0;0.0;0.0;0.0
1.0;1753875306.496509;17.794254;1.19;-1.64;0.03;-0.936888;-0.358391;-0.013244;0.0;0.0;0.0;0.0;0.0;0.0
1.0;1753875306.501102;17.830291;1.08;-1.69;0.09;-0.938039;-0.357123;-0.011617;0.0;0.0;0.0;0.0;0.0;0.0
1.0;1753875306.505695;17.788813;1.11;-1.69;0.05;-0.937212;-0.359713;-0.012836;0.0;0.0;0.0;0.0;0.0;0.0
1.0;1753875306.510288;17.779991;1.11;-1.73;0.11;-0.937221;-0.356236;-0.010272;0.0;0.0;0.0;0.0;0.0;0.0
1.0;1753875306.514881;17.800109;1.07;-1.6;0.14;-0.937283;-0.357749;-0.011836;0.0;0.0;0.0;0.0;0.0;0.0
1.0;1753875306.519474;17.798272;1.18;-1.57;0.08;-0.937879;-0.358094;-0.012471;0.0;0.0;0.0;0.0;0.0;0.0
1.0;1753875306.524067;17.819074;1.0;-1.65;0.09;-0.937296;-0.359574;-0.013116;0.0;0.0;0.0;0.0;0.0;0.0
1.0;1753875306.52866;17.828274;1.08;-1.71;0.07;-0.938756;-0.357952;-0.012304;0.0;0.0;0.0;0.0;0.0;0.0
1.0;1753875306.533252;17.812169;1.03;-1.55;0.06;-0.938215;-0.358102;-0.013119;0.0;0.0;0.0;0.0;0.0;0.0
1.0;1753875306.537845;17.809098;1.05;-1.64;0.11;-0.937211;-0.357648;-0.012204;0.0;0.0;0.0;0.0;0.0;0.0
1.0;1753875306.542438;17.794686;1.02;-1.56;0.15;-0.938863;-0.360547;-0.012307;0.0;0.0;0.0;0.0;0.0;0.0
1.0;1753875306.547031;17.7905;1.08;-1.69;0.05;-0.938035;-0.359745;-0.012683;0.0;0.0;0.0;0.0;0.0;0.0
1.0;1753875306.551624;17.785276;1.08;-1.74;0.08;-0.938636;-0.356872;-0.012492;0.0;0.0;0.0;0.0;0.0;0.0
1.0;1753875306.556217;17.801047;1.04;-1.67;0.07;-0.937646;-0.358028;-0.011391;0.0;0.0;0.0;0.0;0.0;0.0
1.0;1753875306.56081;17.770383;1.11;-1.73;0.08;-0.938226;-0.35999;-0.01323;0.0;0.0;0.0;0.0;0.0;0.0
1.0;1753875306.565403;17.779008;1.04;-1.65;0.0;-0.938429;-0.358043;-0.012196;0.0;0.0;0.0;0.0;0.0;0.0
1.0;1753875306.569996;17.79893;1.1;-1.64;0.08;-0.937616;-0.358417;-0.012778;0.0;0.0;0.0;0.0;0.0;0.0
1.0;1753875306.574588;17.794806;1.12;-1.6;0.07;-0.937475;-0.357151;-0.012281;0.0;0.0;0.0;0.0;0.0;0.0
1.0;1753875306.579182;17.803494;1.08;-1.68;0.04;-0.938407;-0.358981;-0.014484;0.0;0.0;0.0;0.0;0.0;0.0
1.0;1753875306.583774;17.778825;0.99;-1.63;0.02;-0.936988;-0.359071;-0.013661;0.0;0.0;0.0;0.0;0.0;0.0
1.0;1753875306.588367;17.799937;1.16;-1.67;0.05;-0.937794;-0.359452;-0.010981;0.0;0.0;0.0;0.0;0.0;0.0
1.0;1753875306.59296;17.8144;0.93;-1.66;0.08;-0.938912;-0.359414;-0.01133;0.0;0.0;0.0;0.0;0.0;0.0
1.0;1753875306.597553;17.776597;1.05;-1.69;0.08;-0.93898;-0.359216;-0.01301;0.0;0.0;0.0;0.0;0.0;0.0
1.0;1753875306.602146;17.815394;1.01;-1.62;0.03;-0.937945;-0.359191;-0.012557;0.0;0.0;0.0;0.0;0.0;0.0
1.0;1753875306.606739;17.777853;1.02;-1.66;0.07;-0.939219;-0.35824;-0.013041;0.0;0.0;0.0;0.0;0.0;0.0
1.0;1753875306.611332;17.794094;1.04;-1.7;0.12;-0.937831;-0.356465;-0.013311;0.0;0.0;0.0;0.0;0.0;0.0
1.0;1753875306.615924;17.809215;1.11;-1.8;0.08;-0.937858;-0.358299;-0.011583;0.0;0.0;0.0;0.0;0.0;0.0
1.0;1753875306.620518;17.793489;1.06;-1.86;-0.01;-0.937341;-0.359571;-0.011953;0.0;0.0;0.0;0.0;0.0;0.0
1.0;1753875306.62511;17.782165;1.09;-1.66;0.09;-0.938122;-0.357474;-0.012096;0.0;0.0;0.0;0.0;0.0;0.0
1.0;1753875306.629703;17.780068;1.11;-1.6;0.06;-0.936791;-0.358897;-0.011596;0.0;0.0;0.0;0.0;0.0;0.0
1.0;1753875306.634296;17.814074;1.09;-1.62;-0.02;-0.93676;-0.357328;-0.011386;0.0;0.0;0.0;0.0;0.0;0.0
1.0;1753875306.638889;17.801539;1.0;-1.7;0.08;-0.937061;-0.358368;-0.011087;0.0;0.0;0.0;0.0;0.0;0.0
1.0;1753875306.643482;17.805374;0.99;-1.66;0.07;-0.938524;-0.360533;-0.011091;0.0;0.0;0.0;0.0;0.0;0.0
1.0;1753875306.648075;17.800783;1.1;-1.61;0.06;-0.93817;-0.358096;-0.012968;0.0;0.0;0.0;0.0;0.0;0.0
1.0;1753875306.652668;17.777971;1.09;-1.81;-0.03;-0.937666;-0.358916;-0.011758;0.0;0.0;0.0;0.0;0.0;0.0
1.0;1753875306.657261;17.796758;1.07;-1.54;0.08;-0.939023;-0.359575;-0.01186;0.0;0.0;0.0;0.0;0.0;0.0
1.0;1753875306.661854;17.80056;1.15;-1.71;0.07;-0.937505;-0.358281;-0.011396;0.0;0.0;0.0;0.0;0.0;0.0
1.0;1753875306.666446;17.812537;1.08;-1.75;0.02;-0.937626;-0.357229;-0.01231;0.0;0.0;0.0;0.0;0.0;0.0
1.0;1753875306.671039;17.821969;1.12;-1.75;0.04;-0.937353;-0.358365;-0.01296;0.0;0.0;0.0;0.0;0.0;0.0
1.0;1753875306.675632;17.802085;0.97;-1.75;0.02;-0.937753;-0.358464;-0.013911;0.0;0.0;0.0;0.0;0.0;0.0
1.0;1753875306.680225;17.755738;1.2;-1.71;0.04;-0.939845;-0.357435;-0.010979;0.0;0.0;0.0;0.0;0.0;0.0
1.0;1753875306.684818;17.833844;1.05;-1.66;0.04;-0.938476;-0.361145;-0.012928;0.0;0.0;0.0;0.0;0.0;0.0
1.0;1753875306.689411;17.771115;1.06;-1.71;0.06;-0.939379;-0.359068;-0.012313;0.0;0.0;0.0;0.0;0.0;0.0
1.0;1753875306.694004;17.764443;1.07;-1.7;0.04;-0.937369;-0.359224;-0.011451;0.0;0.0;0.0;0.0;0.0;0.0
1.0;1753875306.698597;17.808449;1.06;-1.71;-0.05;-0.938794;-0.359682;-0.011406;0.0;0.0;0.0;0.0;0.0;0.0
1.0;1753875306.70319;17.770773;1.01;-1.64;-0.0;-0.938322;-0.360209;-0.011874;0.0;0.0;0.0;0.0;0.0;0.0
1.0;1753875306.707782;17.816025;1.07;-1.8;0.1;-0.93929;-0.358944;-0.012687;0.0;0.0;0.0;0.0;0.0;0.0
1.0;1753875306.712376;17.793264;1.06;-1.73;0.01;-0.937787;-0.359798;-0.011701;0.0;0.0;0.0;0.0;0.0;0.0
1.0;1753875306.716968;17.81839;1.01;-1.62;0.09;-0.937871;-0.358812;-0.012012;0.0;0.0;0.0;0.0;0.0;0.0
1.0;1753875306.721561;17.809234;1.1;-1.65;-0.03;-0.938417;-0.360297;-0.011362;0.0;0.0;0.0;0.0;0.0;0.0
1.0;1753875306.726154;17.805786;0.95;-1.51;0.04;-0.937956;-0.357569;-0.011994;0.0;0.0;0.0;0.0;0.0;0.0
1.0;1753875306.730747;17.823378;1.02;-1.72;-0.02;-0.938802;-0.35897;-0.011349;0.0;0.0;0.0;0.0;0.0;0.0
1.0;1753875306.73534;17.785879;1.06;-1.65;-0.04;-0.937378;-0.357092;-0.011481;0.0;0.0;0.0;0.0;0.0;0.0
1.0;1753875306.739933;17.774663;1.16;-1.7;-0.02;-0.939598;-0.359654;-0.012437;0.0;0.0;0.0;0.0;0.0;0.0
1.0;1753875306.744526;17.816056;1.15;-1.6;0.12;-0.939714;-0.360172;-0.011157;0.0;0.0;0.0;0.0;0.0;0.0
1.0;1753875306.749118;17.783084;1.05;-1.71;0.02;-0.940272;-0.358268;-0.012806;0.0;0.0;0.0;0.0;0.0;0.0
1.0;1753875306.753712;17.774038;1.13;-1.88;0.01;-0.938505;-0.358729;-0.011104;0.0;0.0;0.0;0.0;0.0;0.0
1.0;1753875306.758304;17.736818;1.11;-1.63;-0.03;-0.93808;-0.359209;-0.011727;0.0;0.0;0.0;0.0;0.0;0.0
1.0;1753875306.762897;17.79433;1.07;-1.66;0.0;-0.936613;-0.358984;-0.013461;0.0;0.0;0.0;0.0;0.0;0.0
1.0;1753875306.76749;17.78626;1.08;-1.61;0.06;-0.938594;-0.358912;-0.012762;0.0;0.0;0.0;0.0;0.0;0.0
1.0;1753875306.772083;17.794839;1.03;-1.68;0.02;-0.9385;-0.35962;-0.011333;0.0;0.0;0.0;0.0;0.0;0.0
1.0;1753875306.776676;17.791454;1.13;-1.8;0.01;-0.936931;-0.359029;-0.011229;0.0;0.0;0.0;0.0;0.0;0.0
1.0;1753875306.7845;17.796875;1.05;-1.68;0.0;-0.938424;-0.359046;-0.0122;0.0;0.0;0.0;0.0;0.0;0.0
1.0;1753875306.789093;17.77234;0.96;-1.68;-0.04;-0.940077;-0.358977;-0.012664;0.0;0.0;0.0;0.0;0.0;0.0
1.0;1753875306.793686;17.779089;1.03;-1.6;0.06;-0.938952;-0.358899;-0.011908;0.0;0.0;0.0;0.0;0.0;0.0
1.0;1753875306.798278;17.792217;1.12;-1.6;0.03;-0.937625;-0.359087;-0.012088;0.0;0.0;0.0;0.0;0.0;0.0
1.0;1753875306.802872;17.758086;1.04;-1.73;0.02;-0.939827;-0.357698;-0.010268;0.0;0.0;0.0;0.0;0.0;0.0
1.0;1753875306.807464;17.779544;1.02;-1.72;0.07;-0.938439;-0.356929;-0.013244;0.0;0.0;0.0;0.0;0.0;0.0
1.0;1753875306.812057;17.830326;1.1;-1.63;0.03;-0.938175;-0.355514;-0.012194;0.0;0.0;0.0;0.0;0.0;0.0
1.0;1753875306.81665;17.749095;1.03;-1.64;0.11;-0.937693;-0.356563;-0.011853;0.0;0.0;0.0;0.0;0.0;0.0
1.0;1753875306.821243;17.773985;1.03;-1.62;0.05;-0.938758;-0.356115;-0.012178;0.0;0.0;0.0;0.0;0.0;0.0
1.0;1753875306.8267;17.796875;1.05;-1.61;0.07;-0.93818;-0.356606;-0.011834;0.0;0.0;0.0;0.0;0.0;0.0
1.0;1753875306.831293;17.803457;1.15;-1.64;0.06;-0.93858;-0.356642;-0.012057;0.0;0.0;0.0;0.0;0.0;0.0
1.0;1753875306.835886;17.807063;1.09;-1.54;0.03;-0.938217;-0.355567;-0.012059;0.0;0.0;0.0;0.0;0.0;0.0
1.0;1753875306.840479;17.857606;1.08;-1.68;0.08;-0.936494;-0.357638;-0.012539;0.0;0.0;0.0;0.0;0.0;0.0
1.0;1753875306.845072;17.851565;1.19;-1.71;0.04;-0.936616;-0.357589;-0.012855;0.0;0.0;0.0;0.0;0.0;0.0
1.0;1753875306.849664;17.845137;1.06;-1.73;0.07;-0.939291;-0.355688;-0.013052;0.0;0.0;0.0;0.0;0.0;0.0
1.0;1753875306.854257;17.844603;1.05;-1.64;0.09;-0.937931;-0.357989;-0.013758;0.0;0.0;0.0;0.0;0.0;0.0
1.0;1753875306.86048;17.878906;1.12;-1.68;0.07;-0.937204;-0.357704;-0.013298;0.0;0.0;0.0;0.0;0.0;0.0
1.0;1753875306.865073;17.83358;1.11;-1.64;0.11;-0.937677;-0.357831;-0.012779;0.0;0.0;0.0;0.0;0.0;0.0
1.0;1753875306.869666;17.915817;1.2;-1.69;0.02;-0.937311;-0.357975;-0.01198;0.0;0.0;0.0;0.0;0.0;0.0
1.0;1753875306.874259;17.886753;1.1;-1.63;-0.01;-0.938322;-0.357603;-0.014652;0.0;0.0;0.0;0.0;0.0;0.0
1.0;1753875306.878852;17.897243;1.09;-1.54;0.1;-0.938403;-0.35818;-0.012979;0.0;0.0;0.0;0.0;0.0;0.0
1.0;1753875306.883444;17.848358;1.07;-1.71;0.02;-0.93754;-0.35942;-0.014734;0.0;0.0;0.0;0.0;0.0;0.0
1.0;1753875306.888038;17.840953;1.14;-1.59;0.09;-0.937866;-0.35662;-0.013058;0.0;0.0;0.0;0.0;0.0;0.0
1.0;1753875306.89263;17.883774;1.06;-1.65;0.06;-0.937964;-0.357633;-0.012081;0.0;0.0;0.0;0.0;0.0;0.0
1.0;1753875306.897223;17.888886;1.04;-1.7;0.12;-0.938378;-0.357531;-0.012281;0.0;0.0;0.0;0.0;0.0;0.0
1.0;1753875306.901816;17.907077;1.09;-1.7;0.2;-0.939496;-0.357034;-0.013418;0.0;0.0;0.0;0.0;0.0;0.0
1.0;1753875306.906409;17.91104;1.08;-1.63;0.1;-0.937842;-0.35799;-0.012827;0.0;0.0;0.0;0.0;0.0;0.0
1.0;1753875306.91365;17.878906;1.05;-1.61;0.07;-0.938668;-0.35746;-0.012932;0.0;0.0;0.0;0.0;0.0;0.0
1.0;1753875306.914394;17.792969;1.12;-1.68;0.07;-0.93818;-0.355874;-0.013908;0.0;0.0;0.0;0.0;0.0;0.0
1.0;1753875306.918925;17.792969;1.12;-1.54;0.07;-0.938424;-0.357094;-0.01403;0.0;0.0;0.0;0.0;0.0;0.0
1.0;1753875306.922885;17.792969;1.05;-1.61;0.07;-0.937326;-0.357094;-0.01281;0.0;0.0;0.0;0.0;0.0;0.0
1.0;1753875306.927478;17.742329;1.12;-1.73;0.15;-0.938198;-0.356503;-0.011436;0.0;0.0;0.0;0.0;0.0;0.0
1.0;1753875306.932901;17.792969;1.12;-1.75;0.14;-0.938546;-0.356728;-0.011834;0.0;0.0;0.0;0.0;0.0;0.0
1.0;1753875306.938337;17.792969;1.05;-1.68;0.07;-0.939156;-0.357338;-0.013298;0.0;0.0;0.0;0.0;0.0;0.0
1.0;1753875306.941181;17.792969;1.12;-1.68;0.07;-0.938058;-0.357826;-0.013298;0.0;0.0;0.0;0.0;0.0;0.0
1.0;1753875306.945759;17.796875;0.98;-1.68;0.07;-0.93879;-0.357704;-0.013908;0.0;0.0;0.0;0.0;0.0;0.0
1.0;1753875306.950232;17.796875;1.05;-1.61;0.07;-0.93879;-0.357704;-0.013908;0.0;0.0;0.0;0.0;0.0;0.0
1.0;1753875306.954894;17.796875;1.05;-1.68;0.07;-0.938546;-0.357094;-0.014274;0.0;0.0;0.0;0.0;0.0;0.0
1.0;1753875306.959481;17.796875;1.05;-1.61;0.21;-0.937448;-0.357704;-0.013542;0.0;0.0;0.0;0.0;0.0;0.0
1.0;1753875306.965841;17.796875;1.12;-1.68;0.07;-0.93757;-0.35746;-0.013298;0.0;0.0;0.0;0.0;0.0;0.0
1.0;1753875306.96865;17.796875;0.98;-1.61;0.07;-0.937692;-0.356728;-0.013664;0.0;0.0;0.0;0.0;0.0;0.0
1.0;1753875306.973243;17.792427;1.0;-1.67;0.09;-0.938435;-0.357418;-0.013959;0.0;0.0;0.0;0.0;0.0;0.0
1.0;1753875306.980795;17.796875;1.12;-1.68;0.07;-0.937448;-0.360266;-0.013664;0.0;0.0;0.0;0.0;0.0;0.0
1.0;1753875306.986501;17.820312;1.19;-1.75;0.14;-0.939278;-0.35685;-0.0122;0.0;0.0;0.0;0.0;0.0;0.0
1.0;1753875306.98686;17.820312;1.19;-1.68;0.07;-0.937692;-0.357094;-0.01403;0.0;0.0;0.0;0.0;0.0;0.0
1.0;1753875306.992175;17.820312;1.12;-1.68;0.07;-0.938058;-0.358802;-0.01342;0.0;0.0;0.0;0.0;0.0;0.0
1.0;1753875306.996061;17.820312;1.19;-1.75;0.07;-0.938302;-0.355508;-0.012688;0.0;0.0;0.0;0.0;0.0;0.0
1.0;1753875307.000654;17.814661;1.2;-1.57;0.09;-0.937491;-0.355583;-0.012396;0.0;0.0;0.0;0.0;0.0;0.0
1.0;1753875307.005247;17.820223;1.13;-1.75;0.02;-0.937983;-0.355777;-0.012486;0.0;0.0;0.0;0.0;0.0;0.0
1.0;1753875307.00984;17.826041;1.24;-1.72;0.08;-0.938508;-0.354691;-0.012645;0.0;0.0;0.0;0.0;0.0;0.0
1.0;1753875307.014433;17.797429;1.26;-1.88;0.01;-0.938947;-0.355244;-0.013653;0.0;0.0;0.0;0.0;0.0;0.0
1.0;1753875307.019026;17.81809;1.13;-1.79;0.08;-0.937818;-0.35628;-0.013274;0.0;0.0;0.0;0.0;0.0;0.0
1.0;1753875307.023618;17.808753;1.13;-1.79;0.04;-0.938639;-0.356101;-0.011692;0.0;0.0;0.0;0.0;0.0;0.0
1.0;1753875307.028211;17.825304;1.05;-1.69;0.13;-0.938433;-0.355174;-0.013108;0.0;0.0;0.0;0.0;0.0;0.0
1.0;1753875307.032804;17.820756;1.29;-1.71;0.12;-0.938155;-0.355987;-0.012819;0.0;0.0;0.0;0.0;0.0;0.0
1.0;1753875307.037397;17.827975;1.21;-1.79;0.11;-0.938909;-0.355628;-0.011747;0.0;0.0;0.0;0.0;0.0;0.0
1.0;1753875307.04199;17.809784;1.15;-1.68;0.06;-0.937999;-0.355969;-0.012807;0.0;0.0;0.0;0.0;0.0;0.0
1.0;1753875307.046583;17.804908;1.19;-1.83;0.04;-0.938694;-0.354732;-0.01268;0.0;0.0;0.0;0.0;0.0;0.0
1.0;1753875307.051176;17.809547;1.11;-1.8;0.08;-0.938199;-0.356428;-0.012947;0.0;0.0;0.0;0.0;0.0;0.0
1.0;1753875307.055769;17.816579;1.13;-1.86;0.03;-0.93829;-0.355283;-0.012454;0.0;0.0;0.0;0.0;0.0;0.0
1.0;1753875307.060362;17.828474;1.15;-1.72;0.08;-0.937788;-0.355956;-0.01283;0.0;0.0;0.0;0.0;0.0;0.0
1.0;1753875307.064954;17.822715;1.24;-1.69;0.13;-0.938143;-0.35622;-0.013177;0.0;0.0;0.0;0.0;0.0;0.0
1.0;1753875307.069548;17.812978;1.18;-1.69;0.09;-0.937935;-0.356533;-0.013627;0.0;0.0;0.0;0.0;0.0;0.0
1.0;1753875307.07414;17.800827;1.22;-1.72;0.05;-0.937799;-0.355931;-0.01355;0.0;0.0;0.0;0.0;0.0;0.0
1.0;1753875307.078733;17.817678;1.04;-1.84;0.04;-0.938604;-0.355985;-0.013664;0.0;0.0;0.0;0.0;0.0;0.0
1.0;1753875307.083326;17.835392;1.04;-1.74;0.03;-0.939035;-0.355293;-0.013616;0.0;0.0;0.0;0.0;0.0;0.0
1.0;1753875307.087919;17.822396;1.16;-1.73;0.02;-0.938125;-0.35669;-0.012191;0.0;0.0;0.0;0.0;0.0;0.0
1.0;1753875307.092512;17.801497;1.21;-1.81;0.13;-0.937703;-0.356974;-0.013053;0.0;0.0;0.0;0.0;0.0;0.0
1.0;1753875307.097105;17.835607;1.15;-1.77;0.07;-0.938799;-0.355391;-0.013596;0.0;0.0;0.0;0.0;0.0;0.0
1.0;1753875307.101698;17.804949;1.04;-1.86;0.05;-0.938236;-0.356152;-0.013089;0.0;0.0;0.0;0.0;0.0;0.0
1.0;1753875307.10629;17.814088;1.19;-1.9;0.1;-0.938283;-0.355474;-0.013483;0.0;0.0;0.0;0.0;0.0;0.0
1.0;1753875307.110884;17.824509;1.19;-1.68;0.13;-0.937485;-0.356674;-0.012872;0.0;0.0;0.0;0.0;0.0;0.0
1.0;1753875307.115476;17.818592;1.13;-1.67;0.0;-0.93791;-0.356568;-0.012715;0.0;0.0;0.0;0.0;0.0;0.0
1.0;1753875307.120069;17.807912;1.19;-1.74;0.06;-0.937331;-0.357444;-0.013367;0.0;0.0;0.0;0.0;0.0;0.0
1.0;1753875307.124662;17.826986;1.16;-1.72;0.06;-0.937748;-0.355515;-0.013425;0.0;0.0;0.0;0.0;0.0;0.0
1.0;1753875307.129255;17.831528;1.08;-1.68;0.07;-0.938214;-0.355486;-0.012592;0.0;0.0;0.0;0.0;0.0;0.0
1.0;1753875307.133848;17.836535;1.14;-1.76;-0.02;-0.9377;-0.355412;-0.012527;0.0;0.0;0.0;0.0;0.0;0.0
1.0;1753875307.138441;17.827546;1.2;-1.7;0.03;-0.937841;-0.35639;-0.013708;0.0;0.0;0.0;0.0;0.0;0.0
1.0;1753875307.143034;17.831271;1.15;-1.71;-0.05;-0.937906;-0.358189;-0.011949;0.0;0.0;0.0;0.0;0.0;0.0
1.0;1753875307.147627;17.809477;1.08;-1.75;0.01;-0.938229;-0.356495;-0.013162;0.0;0.0;0.0;0.0;0.0;0.0
1.0;1753875307.15222;17.824861;1.09;-1.71;0.12;-0.938634;-0.355837;-0.012691;0.0;0.0;0.0;0.0;0.0;0.0
1.0;1753875307.156812;17.83153;1.19;-1.73;0.07;-0.937493;-0.355675;-0.013609;0.0;0.0;0.0;0.0;0.0;0.0
1.0;1753875307.161405;17.816646;1.16;-1.66;0.03;-0.938517;-0.354713;-0.013288;0.0;0.0;0.0;0.0;0.0;0.0
1.0;1753875307.165998;17.803216;1.17;-1.76;0.09;-0.937945;-0.356884;-0.01265;0.0;0.0;0.0;0.0;0.0;0.0
1.0;1753875307.170591;17.802234;1.17;-1.83;0.05;-0.939133;-0.355762;-0.013295;0.0;0.0;0.0;0.0;0.0;0.0
1.0;1753875307.175184;17.829511;1.22;-1.71;0.12;-0.938858;-0.357215;-0.012859;0.0;0.0;0.0;0.0;0.0;0.0
1.0;1753875307.179777;17.816743;1.14;-1.73;0.08;-0.938372;-0.355371;-0.011961;0.0;0.0;0.0;0.0;0.0;0.0
1.0;1753875307.18437;17.824167;1.21;-1.59;0.05;-0.93853;-0.355934;-0.011667;0.0;0.0;0.0;0.0;0.0;0.0
1.0;1753875307.188963;17.830003;1.31;-1.74;0.12;-0.938484;-0.357197;-0.012968;0.0;0.0;0.0;0.0;0.0;0.0
1.0;1753875307.193556;17.807479;1.13;-1.74;0.07;-0.939015;-0.355807;-0.012951;0.0;0.0;0.0;0.0;0.0;0.0
1.0;1753875307.198148;17.814628;1.1;-1.7;0.13;-0.938508;-0.356379;-0.012551;0.0;0.0;0.0;0.0;0.0;0.0
1.0;1753875307.202742;17.819583;1.01;-1.62;0.07;-0.93791;-0.354135;-0.011789;0.0;0.0;0.0;0.0;0.0;0.0
1.0;1753875307.207334;17.809636;1.22;-1.77;0.04;-0.93813;-0.3557;-0.013401;0.0;0.0;0.0;0.0;0.0;0.0
1.0;1753875307.211927;17.805231;1.18;-1.89;-0.03;-0.938128;-0.355793;-0.013114;0.0;0.0;0.0;0.0;0.0;0.0
1.0;1753875307.21652;17.801547;1.19;-1.65;-0.0;-0.939067;-0.357861;-0.012819;0.0;0.0;0.0;0.0;0.0;0.0
1.0;1753875307.221113;17.819972;1.23;-1.79;0.04;-0.939146;-0.357421;-0.011887;0.0;0.0;0.0;0.0;0.0;0.0
1.0;1753875307.225706;17.821654;1.11;-1.75;0.1;-0.937764;-0.356338;-0.012735;0.0;0.0;0.0;0.0;0.0;0.0
1.0;1753875307.230299;17.80284;1.09;-1.85;0.12;-0.937176;-0.355626;-0.011848;0.0;0.0;0.0;0.0;0.0;0.0
1.0;1753875307.234892;17.80945;1.15;-1.65;0.09;-0.938517;-0.356257;-0.013405;0.0;0.0;0.0;0.0;0.0;0.0
1.0;1753875307.239484;17.787394;1.08;-1.56;0.04;-0.938012;-0.355254;-0.012767;0.0;0.0;0.0;0.0;0.0;0.0
1.0;1753875307.244078;17.816526;1.16;-1.62;0.11;-0.938528;-0.356243;-0.013591;0.0;0.0;0.0;0.0;0.0;0.0
1.0;1753875307.24867;17.813239;1.18;-1.75;0.07;-0.938534;-0.356396;-0.0128;0.0;0.0;0.0;0.0;0.0;0.0
1.0;1753875307.253263;17.795371;1.3;-1.73;0.06;-0.938666;-0.354582;-0.012906;0.0;0.0;0.0;0.0;0.0;0.0
1.0;1753875307.257856;17.824446;1.1;-1.69;0.11;-0.938827;-0.356161;-0.012006;0.0;0.0;0.0;0.0;0.0;0.0
1.0;1753875307.262449;17.782611;1.08;-1.72;0.04;-0.937624;-0.355958;-0.012805;0.0;0.0;0.0;0.0;0.0;0.0
1.0;1753875307.267042;17.811979;1.05;-1.68;0.12;-0.937701;-0.35538;-0.013767;0.0;0.0;0.0;0.0;0.0;0.0
1.0;1753875307.271635;17.826441;1.07;-1.62;0.14;-0.937804;-0.355802;-0.012734;0.0;0.0;0.0;0.0;0.0;0.0
1.0;1753875307.276228;17.811964;1.26;-1.71;0.08;-0.937879;-0.356234;-0.013379;0.0;0.0;0.0;0.0;0.0;0.0
1.0;1753875307.28082;17.816499;1.24;-1.71;0.04;-0.938207;-0.356037;-0.013285;0.0;0.0;0.0;0.0;0.0;0.0
1.0;1753875307.285414;17.803868;1.18;-1.65;0.05;-0.937886;-0.356428;-0.01389;0.0;0.0;0.0;0.0;0.0;0.0
1.0;1753875307.290006;17.804792;1.2;-1.68;0.08;-0.939042;-0.354809;-0.012835;0.0;0.0;0.0;0.0;0.0;0.0
1.0;1753875307.294599;17.811546;1.13;-1.57;0.09;-0.937178;-0.356007;-0.013005;0.0;0.0;0.0;0.0;0.0;0.0
1.0;1753875307.299192;17.811972;1.23;-1.74;0.12;-0.938521;-0.356588;-0.013558;0.0;0.0;0.0;0.0;0.0;0.0
1.0;1753875307.303785;17.800331;1.28;-1.75;0.1;-0.938582;-0.356851;-0.012333;0.0;0.0;0.0;0.0;0.0;0.0
1.0;1753875307.308378;17.812346;1.11;-1.78;0.03;-0.938504;-0.357187;-0.012749;0.0;0.0;0.0;0.0;0.0;0.0
1.0;1753875307.312971;17.824017;1.13;-1.66;0.05;-0.937287;-0.356119;-0.013401;0.0;0.0;0.0;0.0;0.0;0.0
1.0;1753875307.317564;17.813567;1.25;-1.75;0.06;-0.937844;-0.357115;-0.014435;0.0;0.0;0.0;0.0;0.0;0.0
1.0;1753875307.322157;17.805669;1.11;-1.81;0.07;-0.937689;-0.356481;-0.01274;0.0;0.0;0.0;0.0;0.0;0.0
1.0;1753875307.32675;17.811027;1.21;-1.67;0.05;-0.93774;-0.355075;-0.013968;0.0;0.0;0.0;0.0;0.0;0.0
1.0;1753875307.331342;17.796957;1.19;-1.76;0.05;-0.938076;-0.355415;-0.011877;0.0;0.0;0.0;0.0;0.0;0.0
1.0;1753875307.335935;17.81173;1.15;-1.7;0.05;-0.937782;-0.356042;-0.013114;0.0;0.0;0.0;0.0;0.0;0.0
1.0;1753875307.340528;17.81081;1.18;-1.65;0.02;-0.937604;-0.355184;-0.012858;0.0;0.0;0.0;0.0;0.0;0.0
1.0;1753875307.345121;17.820648;1.18;-1.64;0.03;-0.937496;-0.357479;-0.013475;0.0;0.0;0.0;0.0;0.0;0.0
1.0;1753875307.349714;17.811201;1.2;-1.72;0.0;-0.937711;-0.357024;-0.013739;0.0;0.0;0.0;0.0;0.0;0.0
1.0;1753875307.354307;17.804725;1.08;-1.63;0.09;-0.937427;-0.355684;-0.013133;0.0;0.0;0.0;0.0;0.0;0.0
1.0;1753875307.3589;17.821451;1.19;-1.79;0.12;-0.937081;-0.357163;-0.013074;0.0;0.0;0.0;0.0;0.0;0.0
1.0;1753875307.363493;17.819344;1.27;-1.78;0.08;-0.938603;-0.356945;-0.013013;0.0;0.0;0.0;0.0;0.0;0.0
1.0;1753875307.368086;17.816482;1.13;-1.66;0.09;-0.937701;-0.354809;-0.012789;0.0;0.0;0.0;0.0;0.0;0.0
1.0;1753875307.372678;17.808367;1.22;-1.71;0.01;-0.938567;-0.357003;-0.013359;0.0;0.0;0.0;0.0;0.0;0.0
1.0;1753875307.377272;17.816561;1.19;-1.71;0.1;-0.937598;-0.356011;-0.013626;0.0;0.0;0.0;0.0;0.0;0.0
1.0;1753875307.381864;17.805042;1.05;-1.66;0.1;-0.938096;-0.355279;-0.01229;0.0;0.0;0.0;0.0;0.0;0.0
1.0;1753875307.386457;17.80765;1.17;-1.78;0.04;-0.937609;-0.356677;-0.014076;0.0;0.0;0.0;0.0;0.0;0.0
1.0;1753875307.39105;17.814801;1.24;-1.61;0.01;-0.937537;-0.354765;-0.014039;0.0;0.0;0.0;0.0;0.0;0.0
1.0;1753875307.395643;17.806733;0.95;-1.74;0.04;-0.936869;-0.357121;-0.012932;0.0;0.0;0.0;0.0;0.0;0.0
1.0;1753875307.400236;17.819907;1.08;-1.62;0.04;-0.938185;-0.355559;-0.012882;0.0;0.0;0.0;0.0;0.0;0.0
1.0;1753875307.404829;17.819113;1.24;-1.62;0.01;-0.937779;-0.358286;-0.012633;0.0;0.0;0.0;0.0;0.0;0.0
1.0;1753875307.409422;17.801864;1.24;-1.65;0.03;-0.93865;-0.356069;-0.013023;0.0;0.0;0.0;0.0;0.0;0.0
1.0;1753875307.414014;17.845638;1.25;-1.82;0.19;-0.938927;-0.35743;-0.014413;0.0;0.0;0.0;0.0;0.0;0.0
1.0;1753875307.418608;17.812735;1.16;-1.71;0.07;-0.9381;-0.356756;-0.013743;0.0;0.0;0.0;0.0;0.0;0.0
1.0;1753875307.4232;17.81221;1.21;-1.65;0.08;-0.938178;-0.356826;-0.012432;0.0;0.0;0.0;0.0;0.0;0.0
1.0;1753875307.427793;17.800189;1.01;-1.64;0.1;-0.938855;-0.357348;-0.012762;0.0;0.0;0.0;0.0;0.0;0.0
1.0;1753875307.432386;17.803646;1.2;-1.76;0.01;-0.938171;-0.357349;-0.012142;0.0;0.0;0.0;0.0;0.0;0.0
1.0;1753875307.436979;17.813338;1.27;-1.81;0.07;-0.937215;-0.355008;-0.012532;0.0;0.0;0.0;0.0;0.0;0.0
1.0;1753875307.441572;17.817202;1.2;-1.59;0.07;-0.93725;-0.35522;-0.013655;0.0;0.0;0.0;0.0;0.0;0.0
1.0;1753875307.446165;17.799767;1.03;-1.57;0.04;-0.938684;-0.357591;-0.014163;0.0;0.0;0.0;0.0;0.0;0.0
1.0;1753875307.450758;17.812764;1.17;-1.81;0.05;-0.938179;-0.358793;-0.013592;0.0;0.0;0.0;0.0;0.0;0.0
1.0;1753875307.455351;17.819782;1.09;-1.71;0.03;-0.938153;-0.35555;-0.012896;0.0;0.0;0.0;0.0;0.0;0.0
1.0;1753875307.459944;17.800928;1.13;-1.6;0.04;-0.937724;-0.35581;-0.013825;0.0;0.0;0.0;0.0;0.0;0.0
1.0;1753875307.464536;17.811734;1.11;-1.66;0.13;-0.938627;-0.355872;-0.013425;0.0;0.0;0.0;0.0;0.0;0.0
1.0;1753875307.469129;17.825191;1.03;-1.65;0.14;-0.937456;-0.357064;-0.013908;0.0;0.0;0.0;0.0;0.0;0.0
1.0;1753875307.473722;17.808352;1.15;-1.69;0.0;-0.937479;-0.354169;-0.012713;0.0;0.0;0.0;0.0;0.0;0.0
1.0;1753875307.478315;17.813566;1.15;-1.54;0.02;-0.937261;-0.355519;-0.012582;0.0;0.0;0.0;0.0;0.0;0.0
1.0;1753875307.482908;17.813449;1.16;-1.72;0.01;-0.937762;-0.356601;-0.012611;0.0;0.0;0.0;0.0;0.0;0.0
1.0;1753875307.487501;17.800247;1.17;-1.84;0.11;-0.938189;-0.356925;-0.013215;0.0;0.0;0.0;0.0;0.0;0.0
1.0;1753875307.492094;17.824791;1.25;-1.65;0.09;-0.937391;-0.355975;-0.012156;0.0;0.0;0.0;0.0;0.0;0.0
1.0;1753875307.496687;17.808884;1.13;-1.71;0.08;-0.938024;-0.357532;-0.014288;0.0;0.0;0.0;0.0;0.0;0.0
1.0;1753875307.50128;17.797546;1.01;-1.75;0.11;-0.937294;-0.359037;-0.014746;0.0;0.0;0.0;0.0;0.0;0.0
1.0;1753875307.505872;17.797268;1.11;-1.7;0.08;-0.937623;-0.356203;-0.013898;0.0;0.0;0.0;0.0;0.0;0.0
1.0;1753875307.510466;17.78632;1.23;-1.77;0.06;-0.938665;-0.355846;-0.013337;0.0;0.0;0.0;0.0;0.0;0.0
1.0;1753875307.515058;17.789124;1.07;-1.68;0.05;-0.937836;-0.356499;-0.013109;0.0;0.0;0.0;0.0;0.0;0.0
1.0;1753875307.519651;17.802365;1.2;-1.76;0.08;-0.936942;-0.355929;-0.013718;0.0;0.0;0.0;0.0;0.0;0.0
1.0;1753875307.524244;17.811529;1.2;-1.69;0.03;-0.938493;-0.357749;-0.013312;0.0;0.0;0.0;0.0;0.0;0.0
1.0;1753875307.528837;17.800338;1.09;-1.79;0.08;-0.937044;-0.359153;-0.014781;0.0;0.0;0.0;0.0;0.0;0.0
1.0;1753875307.53343;17.807141;1.24;-1.7;0.12;-0.938172;-0.35805;-0.013001;0.0;0.0;0.0;0.0;0.0;0.0
1.0;1753875307.538023;17.804452;1.27;-1.63;0.03;-0.938032;-0.356257;-0.013758;0.0;0.0;0.0;0.0;0.0;0.0
1.0;1753875307.542616;17.808864;1.08;-1.72;0.05;-0.938548;-0.35693;-0.013369;0.0;0.0;0.0;0.0;0.0;0.0
1.0;1753875307.547208;17.810026;1.06;-1.77;0.05;-0.938248;-0.356548;-0.01351;0.0;0.0;0.0;0.0;0.0;0.0
1.0;1753875307.551802;17.804221;1.15;-1.61;0.05;-0.938055;-0.355726;-0.014463;0.0;0.0;0.0;0.0;0.0;0.0
1.0;1753875307.556394;17.802528;1.11;-1.75;0.06;-0.937814;-0.35672;-0.012767;0.0;0.0;0.0;0.0;0.0;0.0
1.0;1753875307.560987;17.807366;1.16;-1.7;0.11;-0.938039;-0.356802;-0.013072;0.0;0.0;0.0;0.0;0.0;0.0
1.0;1753875307.56558;17.787126;1.07;-1.71;0.04;-0.938114;-0.355075;-0.013067;0.0;0.0;0.0;0.0;0.0;0.0
1.0;1753875307.570173;17.809541;1.15;-1.63;0.09;-0.939029;-0.355421;-0.014082;0.0;0.0;0.0;0.0;0.0;0.0
1.0;1753875307.574766;17.785648;1.12;-1.63;0.09;-0.936942;-0.357805;-0.013375;0.0;0.0;0.0;0.0;0.0;0.0
1.0;1753875307.579359;17.810221;1.19;-1.68;0.03;-0.938391;-0.357531;-0.012633;0.0;0.0;0.0;0.0;0.0;0.0
1.0;1753875307.583952;17.784237;1.11;-1.67;0.05;-0.937492;-0.355966;-0.012847;0.0;0.0;0.0;0.0;0.0;0.0
1.0;1753875307.588544;17.813037;1.16;-1.6;0.13;-0.938022;-0.356739;-0.012898;0.0;0.0;0.0;0.0;0.0;0.0
1.0;1753875307.593138;17.811133;1.22;-1.68;0.06;-0.939129;-0.356764;-0.01282;0.0;0.0;0.0;0.0;0.0;0.0
1.0;1753875307.59773;17.803286;1.02;-1.56;0.08;-0.938192;-0.356791;-0.01271;0.0;0.0;0.0;0.0;0.0;0.0
1.0;1753875307.602323;17.808833;1.14;-1.85;0.09;-0.938866;-0.358354;-0.014262;0.0;0.0;0.0;0.0;0.0;0.0
1.0;1753875307.606916;17.819335;1.19;-1.76;-0.04;-0.937594;-0.355693;-0.014594;0.0;0.0;0.0;0.0;0.0;0.0
1.0;1753875307.611509;17.812538;1.15;-1.71;0.08;-0.937231;-0.357155;-0.013528;0.0;0.0;0.0;0.0;0.0;0.0
1.0;1753875307.616102;17.79853;1.16;-1.76;0.06;-0.937912;-0.357025;-0.013139;0.0;0.0;0.0;0.0;0.0;0.0
1.0;1753875307.620695;17.790873;1.09;-1.76;0.09;-0.937709;-0.357994;-0.013869;0.0;0.0;0.0;0.0;0.0;0.0
1.0;1753875307.625288;17.8055;1.03;-1.65;0.06;-0.937519;-0.358193;-0.013537;0.0;0.0;0.0;0.0;0.0;0.0
1.0;1753875307.629881;17.797833;1.14;-1.81;0.13;-0.938093;-0.356475;-0.012407;0.0;0.0;0.0;0.0;0.0;0.0
1.0;1753875307.634474;17.795012;1.18;-1.75;0.06;-0.937493;-0.354969;-0.014108;0.0;0.0;0.0;0.0;0.0;0.0
1.0;1753875307.639066;17.799259;1.11;-1.67;0.03;-0.93827;-0.358101;-0.013177;0.0;0.0;0.0;0.0;0.0;0.0
1.0;1753875307.643659;17.799398;1.22;-1.83;0.02;-0.93776;-0.355169;-0.013484;0.0;0.0;0.0;0.0;0.0;0.0
1.0;1753875307.648252;17.818772;1.21;-1.64;0.01;-0.9375;-0.356336;-0.012829;0.0;0.0;0.0;0.0;0.0;0.0
1.0;1753875307.652845;17.802715;1.18;-1.67;0.05;-0.937848;-0.35872;-0.014874;0.0;0.0;0.0;0.0;0.0;0.0
1.0;1753875307.657438;17.829416;1.18;-1.72;0.05;-0.937677;-0.357042;-0.014085;0.0;0.0;0.0;0.0;0.0;0.0
1.0;1753875307.662031;17.810606;1.08;-1.61;0.04;-0.937192;-0.357132;-0.014796;0.0;0.0;0.0;0.0;0.0;0.0
1.0;1753875307.666624;17.817179;1.08;-1.8;0.04;-0.938793;-0.357004;-0.013029;0.0;0.0;0.0;0.0;0.0;0.0
1.0;1753875307.671217;17.80835;1.26;-1.57;0.03;-0.938164;-0.356059;-0.014575;0.0;0.0;0.0;0.0;0.0;0.0
1.0;1753875307.67581;17.797247;1.08;-1.72;0.12;-0.938743;-0.355976;-0.014145;0.0;0.0;0.0;0.0;0.0;0.0
1.0;1753875307.680402;17.804861;1.08;-1.71;0.03;-0.938058;-0.358319;-0.013504;0.0;0.0;0.0;0.0;0.0;0.0
1.0;1753875307.684996;17.819941;1.02;-1.58;0.04;-0.937961;-0.357727;-0.014536;0.0;0.0;0.0;0.0;0.0;0.0
1.0;1753875307.689588;17.801632;1.05;-1.57;0.1;-0.938038;-0.356419;-0.0138;0.0;0.0;0.0;0.0;0.0;0.0
1.0;1753875307.694181;17.802976;1.13;-1.67;0.1;-0.93797;-0.357137;-0.013671;0.0;0.0;0.0;0.0;0.0;0.0
1.0;1753875307.698774;17.802317;1.08;-1.69;0.0;-0.937543;-0.356509;-0.013293;0.0;0.0;0.0;0.0;0.0;0.0
1.0;1753875307.703367;17.81326;1.14;-1.71;0.04;-0.937482;-0.357119;-0.011661;0.0;0.0;0.0;0.0;0.0;0.0
1.0;1753875307.70796;17.826981;1.14;-1.68;-0.03;-0.936694;-0.359401;-0.012832;0.0;0.0;0.0;0.0;0.0;0.0
1.0;1753875307.712553;17.791398;1.02;-1.66;0.01;-0.937711;-0.356966;-0.014297;0.0;0.0;0.0;0.0;0.0;0.0
1.0;1753875307.717146;17.810647;1.07;-1.74;0.07;-0.937444;-0.356873;-0.014606;0.0;0.0;0.0;0.0;0.0;0.0
1.0;1753875307.721738;17.80347;1.05;-1.64;0.03;-0.937401;-0.356637;-0.015082;0.0;0.0;0.0;0.0;0.0;0.0
1.0;1753875307.726332;17.811125;1.16;-1.84;0.09;-0.938402;-0.357875;-0.014523;0.0;0.0;0.0;0.0;0.0;0.0
1.0;1753875307.734;17.804688;1.12;-1.68;0.07;-0.937692;-0.357338;-0.013786;0.0;0.0;0.0;0.0;0.0;0.0
1.0;1753875307.738593;17.797631;1.17;-1.67;0.09;-0.938558;-0.35775;-0.013441;0.0;0.0;0.0;0.0;0.0;0.0
1.0;1753875307.743186;17.792542;1.1;-1.69;0.04;-0.937783;-0.356494;-0.013554;0.0;0.0;0.0;0.0;0.0;0.0
1.0;1753875307.747779;17.796482;1.13;-1.7;0.14;-0.937339;-0.357955;-0.01384;0.0;0.0;0.0;0.0;0.0;0.0
1.0;1753875307.752372;17.810672;1.06;-1.67;0.08;-0.937939;-0.357241;-0.01397;0.0;0.0;0.0;0.0;0.0;0.0
1.0;1753875307.756964;17.798886;1.14;-1.61;0.11;-0.937755;-0.358142;-0.013989;0.0;0.0;0.0;0.0;0.0;0.0
1.0;1753875307.761557;17.799006;1.17;-1.64;0.07;-0.937268;-0.358028;-0.014185;0.0;0.0;0.0;0.0;0.0;0.0
1.0;1753875307.76615;17.818386;1.01;-1.66;0.06;-0.938076;-0.35785;-0.014404;0.0;0.0;0.0;0.0;0.0;0.0
1.0;1753875307.770743;17.812365;1.11;-1.69;0.06;-0.937588;-0.358524;-0.01319;0.0;0.0;0.0;0.0;0.0;0.0
1.0;1753875307.775336;17.804766;1.12;-1.65;0.16;-0.937648;-0.358039;-0.01454;0.0;0.0;0.0;0.0;0.0;0.0
1.0;1753875307.779929;17.80406;1.07;-1.74;0.09;-0.938989;-0.358776;-0.013806;0.0;0.0;0.0;0.0;0.0;0.0
1.0;1753875307.784522;17.799438;1.14;-1.67;0.07;-0.938184;-0.358013;-0.014264;0.0;0.0;0.0;0.0;0.0;0.0
1.0;1753875307.789115;17.795264;1.05;-1.6;0.05;-0.937459;-0.357785;-0.012897;0.0;0.0;0.0;0.0;0.0;0.0
1.0;1753875307.793708;17.805031;1.32;-1.75;0.13;-0.938069;-0.355488;-0.013933;0.0;0.0;0.0;0.0;0.0;0.0
1.0;1753875307.7983;17.790959;1.17;-1.6;0.09;-0.936486;-0.357596;-0.014175;0.0;0.0;0.0;0.0;0.0;0.0
1.0;1753875307.802894;17.819379;1.07;-1.77;0.13;-0.938353;-0.356913;-0.01393;0.0;0.0;0.0;0.0;0.0;0.0
1.0;1753875307.807486;17.80701;1.18;-1.65;0.13;-0.937542;-0.356433;-0.013059;0.0;0.0;0.0;0.0;0.0;0.0
1.0;1753875307.812079;17.81836;1.12;-1.67;0.17;-0.937972;-0.355365;-0.013584;0.0;0.0;0.0;0.0;0.0;0.0
1.0;1753875307.816672;17.811371;1.18;-1.75;0.16;-0.936957;-0.357791;-0.014603;0.0;0.0;0.0;0.0;0.0;0.0
1.0;1753875307.821265;17.799583;1.0;-1.7;0.1;-0.937154;-0.356354;-0.013209;0.0;0.0;0.0;0.0;0.0;0.0
1.0;1753875307.825858;17.815279;1.19;-1.6;0.01;-0.937324;-0.356488;-0.01454;0.0;0.0;0.0;0.0;0.0;0.0
1.0;1753875307.830451;17.807433;1.2;-1.62;0.11;-0.938061;-0.356789;-0.013981;0.0;0.0;0.0;0.0;0.0;0.0
1.0;1753875307.835044;17.798198;1.17;-1.64;0.11;-0.93738;-0.357725;-0.01359;0.0;0.0;0.0;0.0;0.0;0.0
1.0;1753875307.839636;17.819235;1.13;-1.6;0.05;-0.936722;-0.357007;-0.013929;0.0;0.0;0.0;0.0;0.0;0.0
1.0;1753875307.84423;17.791563;1.23;-1.69;0.03;-0.938225;-0.357555;-0.014569;0.0;0.0;0.0;0.0;0.0;0.0
1.0;1753875307.848822;17.799119;1.22;-1.63;0.09;-0.937975;-0.355704;-0.013938;0.0;0.0;0.0;0.0;0.0;0.0
1.0;1753875307.853415;17.800618;1.19;-1.71;0.14;-0.937008;-0.357779;-0.012756;0.0;0.0;0.0;0.0;0.0;0.0
1.0;1753875307.858008;17.79996;1.26;-1.67;0.12;-0.937751;-0.356516;-0.013447;0.0;0.0;0.0;0.0;0.0;0.0
1.0;1753875307.862601;17.818381;1.09;-1.64;0.03;-0.937471;-0.358703;-0.014249;0.0;0.0;0.0;0.0;0.0;0.0
1.0;1753875307.867194;17.810336;1.22;-1.7;0.16;-0.9362;-0.35675;-0.014046;0.0;0.0;0.0;0.0;0.0;0.0
1.0;1753875307.871787;17.798574;1.16;-1.62;0.14;-0.9373;-0.358555;-0.015036;0.0;0.0;0.0;0.0;0.0;0.0
1.0;1753875307.87638;17.803364;1.06;-1.56;0.1;-0.937243;-0.358369;-0.014378;0.0;0.0;0.0;0.0;0.0;0.0
1.0;1753875307.880972;17.819638;1.18;-1.7;0.09;-0.937167;-0.357297;-0.014924;0.0;0.0;0.0;0.0;0.0;0.0
1.0;1753875307.885566;17.799056;1.07;-1.66;0.08;-0.937572;-0.355432;-0.013035;0.0;0.0;0.0;0.0;0.0;0.0
1.0;1753875307.890158;17.819152;1.04;-1.73;0.16;-0.937566;-0.360292;-0.01411;0.0;0.0;0.0;0.0;0.0;0.0
1.0;1753875307.894751;17.809859;1.02;-1.65;0.05;-0.938186;-0.356042;-0.014529;0.0;0.0;0.0;0.0;0.0;0.0
1.0;1753875307.899344;17.806586;1.13;-1.67;0.12;-0.937264;-0.356534;-0.013185;0.0;0.0;0.0;0.0;0.0;0.0
1.0;1753875307.903937;17.818974;1.23;-1.75;0.13;-0.937971;-0.357397;-0.013867;0.0;0.0;0.0;0.0;0.0;0.0
1.0;1753875307.90853;17.815864;1.12;-1.68;0.11;-0.936759;-0.358613;-0.014464;0.0;0.0;0.0;0.0;0.0;0.0
1.0;1753875307.913123;17.797111;1.09;-1.73;0.12;-0.937852;-0.356526;-0.014121;0.0;0.0;0.0;0.0;0.0;0.0
1.0;1753875307.917716;17.793298;1.17;-1.62;0.1;-0.937466;-0.356994;-0.013944;0.0;0.0;0.0;0.0;0.0;0.0
1.0;1753875307.922309;17.811147;1.24;-1.67;0.14;-0.937794;-0.35805;-0.014185;0.0;0.0;0.0;0.0;0.0;0.0
1.0;1753875307.926902;17.81393;1.2;-1.63;0.08;-0.938059;-0.358052;-0.013336;0.0;0.0;0.0;0.0;0.0;0.0
1.0;1753875307.931494;17.807603;1.34;-1.68;0.14;-0.936942;-0.356456;-0.014026;0.0;0.0;0.0;0.0;0.0;0.0
1.0;1753875307.936087;17.803163;1.18;-1.65;0.08;-0.93646;-0.359198;-0.013848;0.0;0.0;0.0;0.0;0.0;0.0
1.0;1753875307.94068;17.786656;1.14;-1.67;0.11;-0.937134;-0.356453;-0.013172;0.0;0.0;0.0;0.0;0.0;0.0
1.0;1753875307.945273;17.810694;1.18;-1.69;0.12;-0.93702;-0.357151;-0.012972;0.0;0.0;0.0;0.0;0.0;0.0
1.0;1753875307.949866;17.806189;1.27;-1.72;0.13;-0.936217;-0.357338;-0.013556;0.0;0.0;0.0;0.0;0.0;0.0
1.0;1753875307.954459;17.807139;1.15;-1.7;0.17;-0.937578;-0.357963;-0.014252;0.0;0.0;0.0;0.0;0.0;0.0
1.0;1753875307.959052;17.801198;1.21;-1.71;0.11;-0.936672;-0.357476;-0.01281;0.0;0.0;0.0;0.0;0.0;0.0
1.0;1753875307.963645;17.794813;1.16;-1.72;0.12;-0.937111;-0.358004;-0.013465;0.0;0.0;0.0;0.0;0.0;0.0
1.0;1753875307.968238;17.80626;1.27;-1.62;0.13;-0.937534;-0.357252;-0.013942;0.0;0.0;0.0;0.0;0.0;0.0
1.0;1753875307.97283;17.795711;1.26;-1.67;0.16;-0.937354;-0.358583;-0.013951;0.0;0.0;0.0;0.0;0.0;0.0
1.0;1753875307.9815;17.804688;1.19;-1.68;0.14;-0.937326;-0.357582;-0.013908;0.0;0.0;0.0;0.0;0.0;0.0
1.0;1753875307.983802;17.78125;-1.19;-2.8;35.14;-0.942328;-0.356728;-0.02074;0.0;0.0;0.0;0.0;0.0;0.0
1.0;1753875307.988711;17.789062;-1.54;-3.01;36.68;-0.955504;-0.328912;-0.011712;0.0;0.0;0.0;0.0;0.0;0.0
1.0;1753875307.992948;17.789062;-1.75;-3.01;37.1;-0.94489;-0.3172;-0.019276;0.0;0.0;0.0;0.0;0.0;0.0
1.0;1753875307.997625;17.789062;-1.61;-3.22;38.36;-0.941108;-0.326106;-0.010858;0.0;0.0;0.0;0.0;0.0;0.0
1.0;1753875308.002218;17.793772;-1.36;-3.42;33.57;-0.95081;-0.314592;-0.007621;0.0;0.0;0.0;0.0;0.0;0.0
1.0;1753875308.006811;17.791525;-1.93;-3.95;42.22;-0.949312;-0.320131;-0.006167;0.0;0.0;0.0;0.0;0.0;0.0
1.0;1753875308.011404;17.784827;-2.51;-3.79;40.19;-0.952734;-0.339038;0.007992;0.0;0.0;0.0;0.0;0.0;0.0
1.0;1753875308.015997;17.792766;-1.23;-3.07;37.96;-0.922603;-0.343826;0.003042;0.0;0.0;0.0;0.0;0.0;0.0
1.0;1753875308.02059;17.785939;-1.57;-3.23;39.03;-0.935568;-0.321875;-0.002425;0.0;0.0;0.0;0.0;0.0;0.0
1.0;1753875308.025182;17.794414;-1.75;-3.28;33.01;-0.942557;-0.307122;-0.009828;0.0;0.0;0.0;0.0;0.0;0.0
1.0;1753875308.029776;17.792283;-2.4;-3.93;39.09;-0.929669;-0.31043;-0.028072;0.0;0.0;0.0;0.0;0.0;0.0
1.0;1753875308.034368;17.780574;-1.75;-2.78;40.3;-0.939089;-0.311644;0.005637;0.0;0.0;0.0;0.0;0.0;0.0
1.0;1753875308.038961;17.788924;-0.8;-2.85;41.95;-0.946228;-0.33899;-0.006046;0.0;0.0;0.0;0.0;0.0;0.0
1.0;1753875308.043554;17.788628;-1.03;-3.49;43.43;-0.937934;-0.321792;-0.009156;0.0;0.0;0.0;0.0;0.0;0.0
1.0;1753875308.048147;17.779286;-1.73;-3.28;39.02;-0.935753;-0.340761;-0.013242;0.0;0.0;0.0;0.0;0.0;0.0
1.0;1753875308.05274;17.785727;-1.39;-2.86;36.06;-0.935805;-0.328171;-0.019411;0.0;0.0;0.0;0.0;0.0;0.0
1.0;1753875308.057333;17.780413;-1.49;-2.16;45.6;-0.948209;-0.310736;-0.003708;0.0;0.0;0.0;0.0;0.0;0.0
1.0;1753875308.061926;17.791304;-0.89;-3.49;33.66;-0.939452;-0.33086;-0.007233;0.0;0.0;0.0;0.0;0.0;0.0
1.0;1753875308.066518;17.790493;-2.06;-3.34;39.92;-0.934966;-0.329771;-0.010861;0.0;0.0;0.0;0.0;0.0;0.0
1.0;1753875308.071112;17.788349;-1.21;-4.32;47.61;-0.958368;-0.338863;-0.006456;0.0;0.0;0.0;0.0;0.0;0.0
1.0;1753875308.075704;17.780087;-1.09;-3.58;42.47;-0.946132;-0.300021;-0.00669;0.0;0.0;0.0;0.0;0.0;0.0
1.0;1753875308.080297;17.796626;-2.68;-2.82;43.37;-0.940795;-0.301073;-0.013885;0.0;0.0;0.0;0.0;0.0;0.0
1.0;1753875308.08489;17.786525;-1.8;-3.15;37.97;-0.944729;-0.327181;-0.01428;0.0;0.0;0.0;0.0;0.0;0.0
1.0;1753875308.089483;17.785004;-1.35;-3.02;40.6;-0.930107;-0.318179;0.006128;0.0;0.0;0.0;0.0;0.0;0.0
1.0;1753875308.094076;17.793532;-1.89;-3.29;37.37;-0.941394;-0.300715;0.00984;0.0;0.0;0.0;0.0;0.0;0.0
1.0;1753875308.098669;17.787577;-1.65;-3.24;43.41;-0.946992;-0.297003;-0.006614;0.0;0.0;0.0;0.0;0.0;0.0
1.0;1753875308.103262;17.788921;-1.92;-4.3;33.46;-0.944024;-0.321263;-0.016423;0.0;0.0;0.0;0.0;0.0;0.0
1.0;1753875308.107854;17.788663;-2.05;-2.62;36.38;-0.932225;-0.330735;-0.014544;0.0;0.0;0.0;0.0;0.0;0.0
1.0;1753875308.112448;17.785629;-2.05;-2.93;42.85;-0.953148;-0.337185;-0.023444;0.0;0.0;0.0;0.0;0.0;0.0
1.0;1753875308.11704;17.783883;-2.36;-3.9;31.11;-0.931444;-0.321211;0.003525;0.0;0.0;0.0;0.0;0.0;0.0
1.0;1753875308.121633;17.7888;-1.67;-3.22;34.08;-0.930798;-0.297503;0.002832;0.0;0.0;0.0;0.0;0.0;0.0
1.0;1753875308.126226;17.792888;-1.42;-3.15;35.56;-0.944401;-0.346205;-0.012884;0.0;0.0;0.0;0.0;0.0;0.0
1.0;1753875308.130819;17.792282;-1.34;-2.93;42.51;-0.941822;-0.344429;-0.014052;0.0;0.0;0.0;0.0;0.0;0.0
1.0;1753875308.135412;17.785638;-2.19;-3.53;35.0;-0.955961;-0.318691;-0.015182;0.0;0.0;0.0;0.0;0.0;0.0
1.0;1753875308.140005;17.794588;-2.09;-2.91;40.18;-0.957649;-0.296038;-0.004994;0.0;0.0;0.0;0.0;0.0;0.0
1.0;1753875308.144598;17.796097;-2.12;-3.94;37.65;-0.933004;-0.340815;-0.007481;0.0;0.0;0.0;0.0;0.0;0.0
1.0;1753875308.149191;17.784048;-1.1;-3.88;39.9;-0.950729;-0.313017;-0.016263;0.0;0.0;0.0;0.0;0.0;0.0
1.0;1753875308.153784;17.779105;-2.56;-4.39;41.57;-0.950279;-0.32748;0.001708;0.0;0.0;0.0;0.0;0.0;0.0
1.0;1753875308.158376;17.791899;-2.21;-3.39;32.23;-0.928073;-0.330389;0.003308;0.0;0.0;0.0;0.0;0.0;0.0
1.0;1753875308.162969;17.791951;-1.63;-3.87;38.87;-0.947314;-0.320246;0.004913;0.0;0.0;0.0;0.0;0.0;0.0
1.0;1753875308.167562;17.788645;-1.94;-3.63;39.13;-0.937635;-0.328491;0.001345;0.0;0.0;0.0;0.0;0.0;0.0
1.0;1753875308.172155;17.79376;-1.38;-2.63;37.28;-0.948508;-0.322922;-0.015337;0.0;0.0;0.0;0.0;0.0;0.0
1.0;1753875308.176748;17.784624;-1.96;-3.29;40.23;-0.944876;-0.273597;0.005861;0.0;0.0;0.0;0.0;0.0;0.0
1.0;1753875308.181341;17.786072;-1.13;-2.86;42.85;-0.945437;-0.307003;0.011772;0.0;0.0;0.0;0.0;0.0;0.0
1.0;1753875308.185934;17.789171;-1.23;-2.82;40.71;-0.944117;-0.329578;0.002478;0.0;0.0;0.0;0.0;0.0;0.0
1.0;1753875308.190527;17.799014;-2.91;-3.06;30.57;-0.950337;-0.33237;-0.014802;0.0;0.0;0.0;0.0;0.0;0.0
1.0;1753875308.19512;17.78652;-2.03;-3.34;34.93;-0.939523;-0.298623;-0.004732;0.0;0.0;0.0;0.0;0.0;0.0
1.0;1753875308.199712;17.794189;-2.25;-3.44;45.09;-0.935836;-0.313765;-0.004912;0.0;0.0;0.0;0.0;0.0;0.0
1.0;1753875308.204306;17.790241;-2.28;-2.72;36.43;-0.941497;-0.303318;0.003676;0.0;0.0;0.0;0.0;0.0;0.0
1.0;1753875308.208898;17.787635;-1.72;-3.22;28.42;-0.95474;-0.314527;0.016759;0.0;0.0;0.0;0.0;0.0;0.0
1.0;1753875308.213491;17.78691;-1.28;-3.17;32.16;-0.95827;-0.314678;0.006252;0.0;0.0;0.0;0.0;0.0;0.0
1.0;1753875308.218084;17.792167;-1.93;-3.23;32.85;-0.948894;-0.327011;0.01056;0.0;0.0;0.0;0.0;0.0;0.0
1.0;1753875308.222677;17.785054;-2.14;-2.81;39.36;-0.933603;-0.310475;-0.015109;0.0;0.0;0.0;0.0;0.0;0.0
1.0;1753875308.22727;17.78778;-1.86;-3.82;35.49;-0.942881;-0.316162;-0.007373;0.0;0.0;0.0;0.0;0.0;0.0
1.0;1753875308.231863;17.780454;-2.72;-3.21;46.44;-0.952618;-0.327535;-0.001145;0.0;0.0;0.0;0.0;0.0;0.0
1.0;1753875308.236456;17.79356;-0.33;-2.26;34.49;-0.947191;-0.312669;0.009355;0.0;0.0;0.0;0.0;0.0;0.0
1.0;1753875308.241048;17.787353;-1.98;-3.76;43.32;-0.954214;-0.320538;-0.007833;0.0;0.0;0.0;0.0;0.0;0.0
1.0;1753875308.245642;17.785379;-2.07;-3.5;35.03;-0.955026;-0.322974;-0.013477;0.0;0.0;0.0;0.0;0.0;0.0
1.0;1753875308.250234;17.789798;-3.06;-3.11;49.83;-0.962511;-0.327701;0.01041;0.0;0.0;0.0;0.0;0.0;0.0
1.0;1753875308.254827;17.79532;-2.46;-2.65;39.53;-0.959124;-0.303951;-0.004422;0.0;0.0;0.0;0.0;0.0;0.0
1.0;1753875308.25942;17.787006;-3.3;-2.89;41.8;-0.943441;-0.348461;0.002548;0.0;0.0;0.0;0.0;0.0;0.0
1.0;1753875308.264013;17.788175;-2.23;-2.16;33.61;-0.95446;-0.305916;-0.018398;0.0;0.0;0.0;0.0;0.0;0.0
1.0;1753875308.268606;17.793952;-2.76;-2.81;37.44;-0.955457;-0.332836;-0.005101;0.0;0.0;0.0;0.0;0.0;0.0
1.0;1753875308.273199;17.790984;-0.5;-3.23;42.59;-0.948518;-0.294695;-0.002477;0.0;0.0;0.0;0.0;0.0;0.0
1.0;1753875308.2776;17.789062;-1.96;-3.15;39.13;-0.94794;-0.31598;-0.002928;0.0;0.0;0.0;0.0;0.0;0.0
1.0;1753875308.282193;17.784281;-0.34;-4.0;36.08;-0.947411;-0.318878;-0.009577;0.0;0.0;0.0;0.0;0.0;0.0
1.0;1753875308.286786;17.793565;-2.66;-3.36;30.21;-0.951389;-0.300752;-0.009215;0.0;0.0;0.0;0.0;0.0;0.0
1.0;1753875308.291379;17.785198;-1.16;-3.43;32.16;-0.945702;-0.310167;-0.004671;0.0;0.0;0.0;0.0;0.0;0.0
1.0;1753875308.295972;17.799833;-3.32;-2.87;40.44;-0.951103;-0.307938;-0.004101;0.0;0.0;0.0;0.0;0.0;0.0
1.0;1753875308.300564;17.77753;-1.84;-4.02;36.8;-0.943281;-0.289672;0.010393;0.0;0.0;0.0;0.0;0.0;0.0
1.0;1753875308.305158;17.77527;-2.59;-2.33;38.22;-0.942008;-0.318824;-0.004572;0.0;0.0;0.0;0.0;0.0;0.0
1.0;1753875308.30975;17.785994;-1.44;-3.63;39.74;-0.952176;-0.308588;0.000694;0.0;0.0;0.0;0.0;0.0;0.0
1.0;1753875308.314343;17.794692;-0.81;-3.81;41.25;-0.940722;-0.321972;0.00543;0.0;0.0;0.0;0.0;0.0;0.0
1.0;1753875308.318936;17.80001;-2.34;-2.36;37.44;-0.951528;-0.336715;0.011858;0.0;0.0;0.0;0.0;0.0;0.0
1.0;1753875308.323529;17.78006;-1.74;-2.74;38.57;-0.942127;-0.324725;-0.009329;0.0;0.0;0.0;0.0;0.0;0.0
1.0;1753875308.328122;17.776946;-2.82;-3.75;39.97;-0.954566;-0.313994;0.011982;0.0;0.0;0.0;0.0;0.0;0.0
1.0;1753875308.332715;17.793648;-1.42;-2.89;39.92;-0.957987;-0.274072;-0.013593;0.0;0.0;0.0;0.0;0.0;0.0
1.0;1753875308.337308;17.772715;-2.89;-2.65;43.09;-0.939592;-0.305476;0.000789;0.0;0.0;0.0;0.0;0.0;0.0
1.0;1753875308.3419;17.784869;-2.94;-3.65;42.43;-0.948309;-0.325178;-0.010609;0.0;0.0;0.0;0.0;0.0;0.0
1.0;1753875308.346494;17.768945;-1.61;-3.0;38.63;-0.95855;-0.318309;-0.004738;0.0;0.0;0.0;0.0;0.0;0.0
1.0;1753875308.351086;17.796943;-2.2;-2.67;41.21;-0.941398;-0.323237;0.009992;0.0;0.0;0.0;0.0;0.0;0.0
1.0;1753875308.355679;17.779027;-2.76;-2.52;35.39;-0.945503;-0.302564;0.009325;0.0;0.0;0.0;0.0;0.0;0.0
1.0;1753875308.360272;17.775817;-2.78;-2.96;41.31;-0.945374;-0.318896;-0.00397;0.0;0.0;0.0;0.0;0.0;0.0
1.0;1753875308.364865;17.779649;-2.04;-3.8;43.41;-0.952716;-0.295455;0.002325;0.0;0.0;0.0;0.0;0.0;0.0
1.0;1753875308.369458;17.799553;-1.53;-2.89;34.7;-0.941706;-0.321782;-0.021215;0.0;0.0;0.0;0.0;0.0;0.0
1.0;1753875308.374051;17.790839;-0.71;-3.25;29.29;-0.944825;-0.371147;-0.023509;0.0;0.0;0.0;0.0;0.0;0.0
1.0;1753875308.378644;17.781032;-2.4;-3.37;40.48;-0.939608;-0.309906;-0.00336;0.0;0.0;0.0;0.0;0.0;0.0
1.0;1753875308.383237;17.778049;-1.31;-3.7;37.54;-0.94426;-0.305243;-0.005263;0.0;0.0;0.0;0.0;0.0;0.0
1.0;1753875308.38783;17.777552;-0.8;-2.82;34.96;-0.946802;-0.316615;-0.00627;0.0;0.0;0.0;0.0;0.0;0.0
1.0;1753875308.392422;17.777092;-1.81;-2.85;50.34;-0.943941;-0.322227;-0.007014;0.0;0.0;0.0;0.0;0.0;0.0
1.0;1753875308.397015;17.796671;-2.39;-3.59;43.66;-0.953541;-0.317246;-0.006462;0.0;0.0;0.0;0.0;0.0;0.0
1.0;1753875308.401608;17.783318;-3.27;-3.82;37.05;-0.95722;-0.300362;0.019422;0.0;0.0;0.0;0.0;0.0;0.0
1.0;1753875308.406201;17.781082;-1.86;-3.05;37.48;-0.958062;-0.31334;-0.003808;0.0;0.0;0.0;0.0;0.0;0.0
1.0;1753875308.410794;17.764754;-1.42;-2.92;39.46;-0.944572;-0.302344;0.007356;0.0;0.0;0.0;0.0;0.0;0.0
1.0;1753875308.415387;17.796237;-1.64;-2.78;40.38;-0.950479;-0.296774;0.004022;0.0;0.0;0.0;0.0;0.0;0.0
1.0;1753875308.41998;17.773308;-1.59;-2.97;33.72;-0.939492;-0.313985;-0.000329;0.0;0.0;0.0;0.0;0.0;0.0
1.0;1753875308.424573;17.77696;-1.14;-3.96;38.64;-0.942372;-0.310333;-0.021253;0.0;0.0;0.0;0.0;0.0;0.0
1.0;1753875308.429166;17.779884;-1.91;-2.57;41.41;-0.934404;-0.314508;-0.020865;0.0;0.0;0.0;0.0;0.0;0.0
1.0;1753875308.433758;17.799432;-1.8;-2.52;37.45;-0.953078;-0.292534;-0.021773;0.0;0.0;0.0;0.0;0.0;0.0
1.0;1753875308.438352;17.769195;-3.86;-2.81;39.12;-0.950742;-0.309418;-0.013305;0.0;0.0;0.0;0.0;0.0;0.0
1.0;1753875308.442944;17.777241;-0.69;-3.35;42.17;-0.939479;-0.319543;-0.003976;0.0;0.0;0.0;0.0;0.0;0.0
1.0;1753875308.447537;17.765584;-1.07;-2.79;35.33;-0.947617;-0.287572;-0.011593;0.0;0.0;0.0;0.0;0.0;0.0
1.0;1753875308.45213;17.783148;-2.99;-4.59;53.34;-0.94348;-0.334208;-0.002048;0.0;0.0;0.0;0.0;0.0;0.0
1.0;1753875308.456723;17.788019;-1.47;-2.53;44.74;-0.942851;-0.2925;-0.003529;0.0;0.0;0.0;0.0;0.0;0.0
1.0;1753875308.461316;17.77805;-1.97;-3.19;39.24;-0.95005;-0.297437;0.000232;0.0;0.0;0.0;0.0;0.0;0.0
1.0;1753875308.465909;17.794629;-2.65;-3.61;34.03;-0.9429;-0.317238;0.004964;0.0;0.0;0.0;0.0;0.0;0.0
1.0;1753875308.470502;17.778106;-1.91;-3.0;37.33;-0.95517;-0.298745;-0.011907;0.0;0.0;0.0;0.0;0.0;0.0
1.0;1753875308.475094;17.769158;-2.46;-2.48;39.29;-0.944187;-0.331319;0.004481;0.0;0.0;0.0;0.0;0.0;0.0
1.0;1753875308.479688;17.778713;-2.35;-3.93;36.61;-0.948845;-0.312262;-0.005973;0.0;0.0;0.0;0.0;0.0;0.0
1.0;1753875308.48428;17.792366;-1.23;-3.34;36.66;-0.95216;-0.288849;-0.01502;0.0;0.0;0.0;0.0;0.0;0.0
1.0;1753875308.488873;17.789799;-2.57;-2.96;40.24;-0.946971;-0.320598;-0.005942;0.0;0.0;0.0;0.0;0.0;0.0
1.0;1753875308.493466;17.787462;-2.21;-3.25;35.59;-0.92896;-0.323059;0.004883;0.0;0.0;0.0;0.0;0.0;0.0
1.0;1753875308.498059;17.783164;-2.99;-2.33;36.89;-0.948902;-0.289926;0.004839;0.0;0.0;0.0;0.0;0.0;0.0
1.0;1753875308.502652;17.771921;-1.32;-3.73;41.57;-0.934112;-0.331545;-0.010231;0.0;0.0;0.0;0.0;0.0;0.0
1.0;1753875308.507245;17.776291;-3.49;-3.44;35.25;-0.945699;-0.325256;0.007468;0.0;0.0;0.0;0.0;0.0;0.0
1.0;1753875308.511838;17.783246;-2.44;-4.09;45.96;-0.940215;-0.329067;-0.020778;0.0;0.0;0.0;0.0;0.0;0.0
1.0;1753875308.51643;17.783492;-1.92;-2.93;40.0;-0.932557;-0.329767;-0.008876;0.0;0.0;0.0;0.0;0.0;0.0
1.0;1753875308.521024;17.765291;-1.56;-3.67;36.75;-0.951491;-0.316345;0.007098;0.0;0.0;0.0;0.0;0.0;0.0
1.0;1753875308.525616;17.7711;-1.89;-3.27;42.2;-0.931497;-0.323173;-0.009801;0.0;0.0;0.0;0.0;0.0;0.0
1.0;1753875308.530209;17.782073;-1.88;-3.36;40.34;-0.930729;-0.336685;-0.014005;0.0;0.0;0.0;0.0;0.0;0.0
1.0;1753875308.534802;17.781732;-1.9;-2.92;36.88;-0.951129;-0.297429;-0.006883;0.0;0.0;0.0;0.0;0.0;0.0
1.0;1753875308.539395;17.782406;-2.95;-2.56;40.97;-0.922582;-0.309327;-0.01981;0.0;0.0;0.0;0.0;0.0;0.0
1.0;1753875308.543988;17.760975;-0.48;-3.58;33.26;-0.935814;-0.30492;-0.020316;0.0;0.0;0.0;0.0;0.0;0.0
1.0;1753875308.548581;17.768949;-1.07;-3.16;39.88;-0.947062;-0.307609;-0.00596;0.0;0.0;0.0;0.0;0.0;0.0
1.0;1753875308.553174;17.77566;-2.18;-3.25;38.12;-0.934551;-0.303733;0.000784;0.0;0.0;0.0;0.0;0.0;0.0
1.0;1753875308.557767;17.775304;-2.63;-2.18;41.53;-0.948941;-0.308304;-0.011497;0.0;0.0;0.0;0.0;0.0;0.0
1.0;1753875308.56236;17.774512;-2.15;-3.61;37.32;-0.95108;-0.306366;-0.012701;0.0;0.0;0.0;0.0;0.0;0.0
1.0;1753875308.566952;17.773546;-1.66;-2.95;39.62;-0.962142;-0.284463;0.001958;0.0;0.0;0.0;0.0;0.0;0.0
1.0;1753875308.571545;17.777769;-0.63;-2.99;39.84;-0.943009;-0.34614;-0.000995;0.0;0.0;0.0;0.0;0.0;0.0
1.0;1753875308.576138;17.766587;-3.14;-2.55;46.09;-0.947698;-0.317458;0.002036;0.0;0.0;0.0;0.0;0.0;0.0
1.0;1753875308.580731;17.763274;-0.62;-2.89;36.32;-0.933066;-0.29626;-0.003528;0.0;0.0;0.0;0.0;0.0;0.0
1.0;1753875308.585324;17.769692;-1.72;-3.24;32.93;-0.943869;-0.308949;-0.017445;0.0;0.0;0.0;0.0;0.0;0.0
1.0;1753875308.589917;17.779404;-2.64;-3.09;33.51;-0.935017;-0.306042;-0.025907;0.0;0.0;0.0;0.0;0.0;0.0
1.0;1753875308.59451;17.782097;-1.95;-2.65;37.68;-0.950237;-0.314163;-0.005586;0.0;0.0;0.0;0.0;0.0;0.0
1.0;1753875308.599103;17.776408;-1.89;-2.53;37.02;-0.956392;-0.31918;-0.009365;0.0;0.0;0.0;0.0;0.0;0.0
1.0;1753875308.603696;17.781013;-2.11;-3.22;34.44;-0.942463;-0.317977;-0.007064;0.0;0.0;0.0;0.0;0.0;0.0
1.0;1753875308.608288;17.779595;-2.56;-2.64;38.29;-0.940837;-0.328954;-0.012029;0.0;0.0;0.0;0.0;0.0;0.0
1.0;1753875308.612882;17.775184;-2.06;-2.79;46.38;-0.940313;-0.301045;-0.014292;0.0;0.0;0.0;0.0;0.0;0.0
1.0;1753875308.617474;17.757439;-1.66;-2.49;42.7;-0.942299;-0.30311;0.007818;0.0;0.0;0.0;0.0;0.0;0.0
1.0;1753875308.622067;17.776568;-2.32;-3.19;36.94;-0.946733;-0.316827;0.006352;0.0;0.0;0.0;0.0;0.0;0.0
1.0;1753875308.62666;17.764242;-2.28;-2.87;36.71;-0.94317;-0.309321;-0.000979;0.0;0.0;0.0;0.0;0.0;0.0
1.0;1753875308.631253;17.769037;-2.87;-3.18;39.16;-0.933781;-0.319987;-0.019445;0.0;0.0;0.0;0.0;0.0;0.0
1.0;1753875308.635846;17.768176;-1.56;-3.09;38.75;-0.94978;-0.310284;-0.000247;0.0;0.0;0.0;0.0;0.0;0.0
1.0;1753875308.640439;17.761904;-1.2;-2.92;47.81;-0.94453;-0.333636;-0.008337;0.0;0.0;0.0;0.0;0.0;0.0
1.0;1753875308.645032;17.764692;-2.63;-3.19;45.15;-0.946529;-0.300047;-0.003423;0.0;0.0;0.0;0.0;0.0;0.0
1.0;1753875308.649624;17.77217;-1.25;-3.97;33.29;-0.950574;-0.308472;0.005505;0.0;0.0;0.0;0.0;0.0;0.0
1.0;1753875308.654218;17.765916;-2.09;-1.94;43.47;-0.953659;-0.308474;-0.008222;0.0;0.0;0.0;0.0;0.0;0.0
1.0;1753875308.65881;17.763659;-0.89;-2.76;38.73;-0.951049;-0.314564;0.002612;0.0;0.0;0.0;0.0;0.0;0.0
1.0;1753875308.663403;17.770616;-1.92;-3.25;35.57;-0.951841;-0.296913;-0.011326;0.0;0.0;0.0;0.0;0.0;0.0
1.0;1753875308.667996;17.763828;-2.11;-2.57;37.71;-0.954403;-0.326533;-0.00347;0.0;0.0;0.0;0.0;0.0;0.0
1.0;1753875308.672589;17.759662;-2.39;-3.06;30.34;-0.957694;-0.296232;-0.017281;0.0;0.0;0.0;0.0;0.0;0.0
1.0;1753875308.677182;17.761432;-3.9;-2.47;41.91;-0.937477;-0.333774;-0.009259;0.0;0.0;0.0;0.0;0.0;0.0
1.0;1753875308.681775;17.757444;-1.75;-2.91;38.96;-0.947087;-0.321867;-0.001342;0.0;0.0;0.0;0.0;0.0;0.0
1.0;1753875308.686368;17.763211;-1.38;-3.27;37.19;-0.939535;-0.290374;-0.014221;0.0;0.0;0.0;0.0;0.0;0.0
1.0;1753875308.690961;17.767516;-1.37;-3.39;39.22;-0.959998;-0.352552;-0.01526;0.0;0.0;0.0;0.0;0.0;0.0
1.0;1753875308.695554;17.766869;-1.07;-2.93;37.27;-0.948994;-0.311408;-0.006096;0.0;0.0;0.0;0.0;0.0;0.0
1.0;1753875308.700146;17.753945;-2.63;-2.99;44.13;-0.941894;-0.292593;-0.011371;0.0;0.0;0.0;0.0;0.0;0.0
1.0;1753875308.704739;17.774347;-1.65;-2.5;46.17;-0.952132;-0.297494;-0.001407;0.0;0.0;0.0;0.0;0.0;0.0
1.0;1753875308.709332;17.763977;-1.59;-3.13;43.65;-0.953242;-0.325787;0.005984;0.0;0.0;0.0;0.0;0.0;0.0
1.0;1753875308.713925;17.774489;-2.96;-2.81;44.54;-0.937864;-0.316168;-0.006898;0.0;0.0;0.0;0.0;0.0;0.0
1.0;1753875308.718518;17.763444;-0.31;-3.2;35.44;-0.945719;-0.315223;0.007466;0.0;0.0;0.0;0.0;0.0;0.0
1.0;1753875308.723111;17.76475;-2.16;-3.24;36.75;-0.954886;-0.299314;-0.002629;0.0;0.0;0.0;0.0;0.0;0.0
1.0;1753875308.727704;17.754314;-3.32;-3.16;34.78;-0.951445;-0.301027;-0.006997;0.0;0.0;0.0;0.0;0.0;0.0
1.0;1753875308.732297;17.76381;-2.87;-2.97;38.26;-0.947912;-0.315512;0.014641;0.0;0.0;0.0;0.0;0.0;0.0
1.0;1753875308.73689;17.768483;-1.9;-2.94;40.32;-0.953817;-0.30312;-0.002695;0.0;0.0;0.0;0.0;0.0;0.0
1.0;1753875308.741482;17.772219;-1.23;-3.38;36.93;-0.94685;-0.309902;-0.01342;0.0;0.0;0.0;0.0;0.0;0.0
1.0;1753875308.746076;17.770336;-0.54;-3.09;38.34;-0.953552;-0.323801;-0.019138;0.0;0.0;0.0;0.0;0.0;0.0
1.0;1753875308.750668;17.77984;-1.89;-2.39;37.67;-0.94043;-0.304314;0.00782;0.0;0.0;0.0;0.0;0.0;0.0
1.0;1753875308.755261;17.760046;-1.81;-3.13;39.79;-0.945865;-0.286022;0.007621;0.0;0.0;0.0;0.0;0.0;0.0
1.0;1753875308.759854;17.758383;-2.6;-3.06;38.94;-0.946415;-0.314198;-0.031018;0.0;0.0;0.0;0.0;0.0;0.0
1.0;1753875308.764447;17.772832;-2.17;-2.5;37.61;-0.942149;-0.293022;0.011242;0.0;0.0;0.0;0.0;0.0;0.0
1.0;1753875308.76904;17.756771;-1.27;-3.21;38.09;-0.941092;-0.293091;-0.014055;0.0;0.0;0.0;0.0;0.0;0.0
1.0;1753875308.773633;17.76309;-0.63;-2.87;32.82;-0.945911;-0.337594;-0.013753;0.0;0.0;0.0;0.0;0.0;0.0
1.0;1753875308.778226;17.758101;-1.61;-2.16;44.8;-0.949918;-0.326223;-0.006311;0.0;0.0;0.0;0.0;0.0;0.0
1.0;1753875308.782818;17.759815;-1.91;-3.45;31.21;-0.942886;-0.293591;-0.003774;0.0;0.0;0.0;0.0;0.0;0.0
1.0;1753875308.787412;17.77517;-1.53;-3.44;40.28;-0.956825;-0.334272;0.002292;0.0;0.0;0.0;0.0;0.0;0.0
1.0;1753875308.792004;17.760001;-1.83;-3.33;39.0;-0.950096;-0.309037;-0.003114;0.0;0.0;0.0;0.0;0.0;0.0
1.0;1753875308.796597;17.769071;-0.61;-2.39;40.77;-0.945641;-0.305127;-0.009689;0.0;0.0;0.0;0.0;0.0;0.0
1.0;1753875308.80119;17.754851;-1.33;-2.6;41.97;-0.939451;-0.30414;0.005843;0.0;0.0;0.0;0.0;0.0;0.0
1.0;1753875308.805783;17.743673;-1.18;-2.53;40.14;-0.957175;-0.303709;0.013663;0.0;0.0;0.0;0.0;0.0;0.0
1.0;1753875308.810376;17.756278;-1.53;-2.67;36.49;-0.950115;-0.300409;-0.005915;0.0;0.0;0.0;0.0;0.0;0.0
1.0;1753875308.814969;17.76673;-2.37;-3.3;41.39;-0.95201;-0.280248;-0.01476;0.0;0.0;0.0;0.0;0.0;0.0
1.0;1753875308.819562;17.765806;-1.65;-2.33;37.36;-0.93804;-0.302817;-0.009009;0.0;0.0;0.0;0.0;0.0;0.0
1.0;1753875308.824154;17.77083;-1.92;-2.85;48.59;-0.940828;-0.320579;-0.024202;0.0;0.0;0.0;0.0;0.0;0.0
1.0;1753875308.828748;17.752104;-1.98;-4.07;42.23;-0.946842;-0.322005;0.012329;0.0;0.0;0.0;0.0;0.0;0.0
1.0;1753875308.83334;17.773081;-2.73;-2.14;48.65;-0.94719;-0.311886;-0.020022;0.0;0.0;0.0;0.0;0.0;0.0
1.0;1753875308.837933;17.748814;-2.53;-2.51;39.63;-0.94814;-0.305704;-0.006806;0.0;0.0;0.0;0.0;0.0;0.0
1.0;1753875308.842526;17.756533;-1.49;-4.04;33.39;-0.943824;-0.310217;-0.01878;0.0;0.0;0.0;0.0;0.0;0.0
1.0;1753875308.847119;17.771884;-2.1;-3.51;36.7;-0.942868;-0.297583;0.015776;0.0;0.0;0.0;0.0;0.0;0.0
1.0;1753875308.851712;17.750204;-1.54;-3.02;37.66;-0.945716;-0.309925;-0.001053;0.0;0.0;0.0;0.0;0.0;0.0
1.0;1753875308.856305;17.758931;-1.48;-2.82;38.32;-0.948442;-0.294821;0.000444;0.0;0.0;0.0;0.0;0.0;0.0
1.0;1753875308.860898;17.77054;-1.7;-2.75;38.7;-0.942167;-0.292546;-0.006883;0.0;0.0;0.0;0.0;0.0;0.0
1.0;1753875308.8667;17.757812;-2.1;-2.94;39.83;-0.945744;-0.307806;-0.0061;0.0;0.0;0.0;0.0;0.0;0.0
1.0;1753875308.871293;17.779662;-0.99;-2.78;42.55;-0.949797;-0.325272;-0.004407;0.0;0.0;0.0;0.0;0.0;0.0
1.0;1753875308.875886;17.773289;-0.34;-2.33;43.05;-0.943523;-0.291203;-0.009196;0.0;0.0;0.0;0.0;0.0;0.0
1.0;1753875308.880478;17.77673;-3.18;-1.77;48.8;-0.95431;-0.283449;0.02317;0.0;0.0;0.0;0.0;0.0;0.0
1.0;1753875308.885072;17.749269;-1.93;-1.34;51.81;-0.950834;-0.270475;0.00139;0.0;0.0;0.0;0.0;0.0;0.0
1.0;1753875308.88946;17.78125;0.77;-1.89;52.01;-0.958188;-0.253882;0.000732;0.0;0.0;0.0;0.0;0.0;0.0
1.0;1753875308.894053;17.779918;0.35;-1.41;50.14;-0.969315;-0.251621;-0.035831;0.0;0.0;0.0;0.0;0.0;0.0
1.0;1753875308.898646;17.757915;-0.48;-2.5;52.64;-0.957175;-0.288481;-0.030939;0.0;0.0;0.0;0.0;0.0;0.0
1.0;1753875308.903239;17.771462;2.89;-1.67;54.34;-0.9464;-0.28064;-0.018662;0.0;0.0;0.0;0.0;0.0;0.0
1.0;1753875308.907832;17.788626;1.94;-2.02;48.63;-0.963163;-0.274001;0.001681;0.0;0.0;0.0;0.0;0.0;0.0
1.0;1753875308.912424;17.814802;1.4;-2.07;50.23;-0.973963;-0.23492;-0.046965;0.0;0.0;0.0;0.0;0.0;0.0
1.0;1753875308.917018;17.793206;-1.02;-1.91;55.37;-0.934869;-0.241907;-0.016061;0.0;0.0;0.0;0.0;0.0;0.0
1.0;1753875308.92161;17.765789;0.28;-2.1;57.68;-0.985822;-0.251633;-0.03787;0.0;0.0;0.0;0.0;0.0;0.0
1.0;1753875308.926203;17.749238;-1.0;-1.2;57.42;-0.984127;-0.228283;-0.027527;0.0;0.0;0.0;0.0;0.0;0.0
1.0;1753875308.930796;17.791601;2.36;-2.17;58.59;-0.965727;-0.237949;-0.006912;0.0;0.0;0.0;0.0;0.0;0.0
1.0;1753875308.935389;17.780209;-0.49;-2.17;50.11;-0.954616;-0.27886;-0.049181;0.0;0.0;0.0;0.0;0.0;0.0
1.0;1753875308.94097;17.78125;0.91;-2.03;54.81;-0.975634;-0.25559;-0.01159;0.0;0.0;0.0;0.0;0.0;0.0
1.0;1753875308.945563;17.781445;1.54;-3.18;55.5;-0.982411;-0.245358;0.002634;0.0;0.0;0.0;0.0;0.0;0.0
1.0;1753875308.950156;17.794085;0.02;-1.7;57.11;-0.989269;-0.2684;0.007189;0.0;0.0;0.0;0.0;0.0;0.0
1.0;1753875308.954749;17.772213;-0.23;-2.4;58.76;-0.977552;-0.293274;-0.001375;0.0;0.0;0.0;0.0;0.0;0.0
1.0;1753875308.959342;17.767133;1.59;-1.89;48.3;-0.961119;-0.267869;-0.038881;0.0;0.0;0.0;0.0;0.0;0.0
1.0;1753875308.963934;17.801848;0.77;-2.63;55.78;-0.983378;-0.265616;0.002874;0.0;0.0;0.0;0.0;0.0;0.0
1.0;1753875308.968527;17.766394;0.52;-1.44;53.26;-0.963614;-0.249212;-0.018111;0.0;0.0;0.0;0.0;0.0;0.0
1.0;1753875308.97312;17.792256;2.76;-1.62;58.93;-0.976506;-0.291539;0.003089;0.0;0.0;0.0;0.0;0.0;0.0
1.0;1753875308.98109;17.773438;0.98;-1.89;56.07;-0.975634;-0.26901;-0.007442;0.0;0.0;0.0;0.0;0.0;0.0
1.0;1753875308.987751;17.777344;-7.35;-1.75;298.97;-0.55571;1.108492;-0.117852;0.0;0.0;0.0;0.0;0.0;0.0
1.0;1753875308.992573;17.777344;-1.12;-7.14;260.26;0.132736;1.036024;0.225578;0.0;0.0;0.0;0.0;0.0;0.0
1.0;1753875308.994813;17.78125;-4.06;-9.24;264.88;-0.965264;0.723582;-0.071248;0.0;0.0;0.0;0.0;0.0;0.0
1.0;1753875308.99906;17.78125;-3.78;-5.25;280.07;0.015006;0.987956;0.141642;0.0;0.0;0.0;0.0;0.0;0.0
1.0;1753875309.003653;17.771361;-4.4;-7.68;326.92;0.099318;1.086377;0.074504;0.0;0.0;0.0;0.0;0.0;0.0
1.0;1753875309.008246;17.793254;-0.0;-7.09;244.59;0.228181;0.729608;0.006605;0.0;0.0;0.0;0.0;0.0;0.0
1.0;1753875309.012838;17.771772;-1.05;-7.57;247.09;0.003256;1.176673;0.172737;0.0;0.0;0.0;0.0;0.0;0.0
1.0;1753875309.017432;17.815241;-7.9;-3.54;321.78;0.283971;1.090988;0.112532;0.0;0.0;0.0;0.0;0.0;0.0
1.0;1753875309.022024;17.768296;-6.85;-6.13;282.47;0.532477;1.105127;0.058517;0.0;0.0;0.0;0.0;0.0;0.0
1.0;1753875309.026617;17.807906;-3.44;-6.83;246.48;-0.014913;1.438278;0.125614;0.0;0.0;0.0;0.0;0.0;0.0
1.0;1753875309.03121;17.799146;-5.59;-4.0;270.6;-0.291642;0.989322;0.22886;0.0;0.0;0.0;0.0;0.0;0.0
1.0;1753875309.035803;17.77416;-1.77;-5.54;278.12;-0.09;1.030365;0.092337;0.0;0.0;0.0;0.0;0.0;0.0
1.0;1753875309.040396;17.791424;-6.27;-8.47;230.69;0.117974;1.073148;0.273277;0.0;0.0;0.0;0.0;0.0;0.0
1.0;1753875309.044989;17.777454;-6.5;-5.89;296.29;0.03782;0.962299;0.100252;0.0;0.0;0.0;0.0;0.0;0.0
1.0;1753875309.049582;17.781304;-6.53;-5.58;257.95;0.186548;0.818682;0.09806;0.0;0.0;0.0;0.0;0.0;0.0
1.0;1753875309.054175;17.820809;-1.22;-6.13;257.0;0.108389;0.854855;-0.047772;0.0;0.0;0.0;0.0;0.0;0.0
1.0;1753875309.058768;17.760144;-2.12;-4.65;317.5;-0.025405;0.98119;0.213791;0.0;0.0;0.0;0.0;0.0;0.0
1.0;1753875309.06336;17.790751;-3.95;-5.24;236.52;-0.076999;1.09194;0.070319;0.0;0.0;0.0;0.0;0.0;0.0
1.0;1753875309.067953;17.767982;-4.45;-6.0;303.67;-0.12706;1.012205;0.099539;0.0;0.0;0.0;0.0;0.0;0.0
1.0;1753875309.072546;17.78551;-4.36;-5.27;292.71;-0.159476;1.047538;0.032454;0.0;0.0;0.0;0.0;0.0;0.0
1.0;1753875309.077139;17.753421;-4.48;-7.48;272.94;-0.259791;1.090408;0.055602;0.0;0.0;0.0;0.0;0.0;0.0
1.0;1753875309.081732;17.755743;-1.49;-7.38;331.03;-0.404335;0.838561;0.289543;0.0;0.0;0.0;0.0;0.0;0.0
1.0;1753875309.086325;17.781958;-2.61;-7.09;279.61;-0.30422;0.863522;0.171054;0.0;0.0;0.0;0.0;0.0;0.0
1.0;1753875309.090918;17.769514;-4.81;-6.59;314.25;-0.483573;1.049211;-0.030578;0.0;0.0;0.0;0.0;0.0;0.0
1.0;1753875309.095511;17.761835;-1.32;-1.88;320.41;0.069716;1.027777;0.16253;0.0;0.0;0.0;0.0;0.0;0.0
1.0;1753875309.100104;17.773986;-1.97;-7.61;334.77;-0.405693;0.903703;0.152033;0.0;0.0;0.0;0.0;0.0;0.0
1.0;1753875309.104696;17.775672;-0.15;-7.73;285.55;0.154981;1.04972;0.257175;0.0;0.0;0.0;0.0;0.0;0.0
1.0;1753875309.10929;17.759169;-1.8;-5.9;273.55;0.136888;1.036073;0.064325;0.0;0.0;0.0;0.0;0.0;0.0
1.0;1753875309.113882;17.804472;-3.99;-3.79;294.38;-0.174771;0.974312;0.059938;0.0;0.0;0.0;0.0;0.0;0.0
1.0;1753875309.118475;17.775364;-5.85;-5.59;309.04;-0.237689;1.275833;-0.054186;0.0;0.0;0.0;0.0;0.0;0.0
1.0;1753875309.123068;17.77448;-4.58;-6.71;278.8;0.136135;0.917052;0.001918;0.0;0.0;0.0;0.0;0.0;0.0
1.0;1753875309.127661;17.769659;-2.34;-6.54;303.33;-0.235394;0.922272;0.175443;0.0;0.0;0.0;0.0;0.0;0.0
1.0;1753875309.132254;17.793348;-1.99;-7.74;295.16;-0.615287;1.132153;0.102351;0.0;0.0;0.0;0.0;0.0;0.0
1.0;1753875309.136847;17.776863;1.11;-6.37;290.44;0.089415;1.234761;0.176676;0.0;0.0;0.0;0.0;0.0;0.0
1.0;1753875309.14144;17.76826;-5.52;-5.83;321.91;-0.156622;0.859425;0.100305;0.0;0.0;0.0;0.0;0.0;0.0
1.0;1753875309.146032;17.809098;-1.22;-5.37;313.99;-0.076182;1.046419;-0.012262;0.0;0.0;0.0;0.0;0.0;0.0
1.0;1753875309.150626;17.787007;-3.33;-6.18;290.91;-0.193635;0.851904;0.084742;0.0;0.0;0.0;0.0;0.0;0.0
1.0;1753875309.155218;17.805383;-2.41;-4.47;238.64;-0.531607;0.959292;0.181275;0.0;0.0;0.0;0.0;0.0;0.0
1.0;1753875309.159811;17.788335;-4.94;-3.95;234.55;-0.112561;1.053216;0.18365;0.0;0.0;0.0;0.0;0.0;0.0
1.0;1753875309.164404;17.771921;-3.97;-4.85;230.48;-0.274169;0.926673;0.189088;0.0;0.0;0.0;0.0;0.0;0.0
1.0;1753875309.168997;17.775183;-3.03;-6.53;360.07;-0.167557;0.798225;0.169401;0.0;0.0;0.0;0.0;0.0;0.0
1.0;1753875309.17359;17.779342;-2.84;-7.77;286.99;0.035036;0.867109;0.249179;0.0;0.0;0.0;0.0;0.0;0.0
1.0;1753875309.178183;17.771202;-4.9;-7.29;245.41;-0.075467;1.045858;0.216871;0.0;0.0;0.0;0.0;0.0;0.0
1.0;1753875309.182776;17.78962;-1.14;-6.66;257.33;-0.387651;1.062463;0.211647;0.0;0.0;0.0;0.0;0.0;0.0
1.0;1753875309.187369;17.756347;0.18;-5.27;361.14;-0.44536;1.031492;0.039136;0.0;0.0;0.0;0.0;0.0;0.0
1.0;1753875309.191962;17.799854;-4.15;-6.51;329.6;-0.669248;0.800635;0.07913;0.0;0.0;0.0;0.0;0.0;0.0
1.0;1753875309.196554;17.820748;-2.06;-6.39;311.01;-0.893313;1.07189;0.029059;0.0;0.0;0.0;0.0;0.0;0.0
1.0;1753875309.201147;17.798251;-1.93;-7.5;299.94;-0.630376;0.928265;0.070262;0.0;0.0;0.0;0.0;0.0;0.0
1.0;1753875309.20574;17.754995;-2.24;-9.87;268.42;-0.410766;0.816228;-0.095776;0.0;0.0;0.0;0.0;0.0;0.0
1.0;1753875309.210333;17.755197;2.36;-4.91;248.19;0.06721;1.009097;0.108455;0.0;0.0;0.0;0.0;0.0;0.0
1.0;1753875309.214926;17.802241;-4.83;-5.58;270.99;-0.116761;0.914591;0.122706;0.0;0.0;0.0;0.0;0.0;0.0
1.0;1753875309.219519;17.780189;-3.08;-7.51;283.95;-0.347239;0.679904;0.079654;0.0;0.0;0.0;0.0;0.0;0.0
1.0;1753875309.224112;17.803592;-2.89;-9.44;288.36;-0.336159;1.045136;0.209586;0.0;0.0;0.0;0.0;0.0;0.0
1.0;1753875309.228705;17.774293;-3.15;-4.4;267.27;-0.135844;1.131724;0.223043;0.0;0.0;0.0;0.0;0.0;0.0
1.0;1753875309.233298;17.799502;-4.85;-4.45;254.54;-0.216738;1.162902;-0.009437;0.0;0.0;0.0;0.0;0.0;0.0
1.0;1753875309.23789;17.781217;-2.11;-5.42;307.62;0.218607;1.142424;0.296107;0.0;0.0;0.0;0.0;0.0;0.0
1.0;1753875309.242484;17.801326;-5.74;-6.5;304.66;0.141134;0.919846;0.184711;0.0;0.0;0.0;0.0;0.0;0.0
1.0;1753875309.247076;17.794777;-3.06;-4.63;295.41;-0.328704;1.098071;0.244376;0.0;0.0;0.0;0.0;0.0;0.0
1.0;1753875309.251669;17.774927;-0.6;-5.19;227.08;-0.302901;0.94938;-0.016912;0.0;0.0;0.0;0.0;0.0;0.0
1.0;1753875309.256262;17.789042;-0.1;-3.31;280.11;0.050655;1.218563;0.167638;0.0;0.0;0.0;0.0;0.0;0.0
1.0;1753875309.260855;17.811745;0.62;-10.33;277.38;-0.471232;1.085682;0.146233;0.0;0.0;0.0;0.0;0.0;0.0
1.0;1753875309.265448;17.777355;-1.25;-8.01;300.24;-0.287933;1.171696;0.038537;0.0;0.0;0.0;0.0;0.0;0.0
1.0;1753875309.270041;17.798606;-0.03;-6.46;261.2;-0.352865;1.21111;0.157039;0.0;0.0;0.0;0.0;0.0;0.0
1.0;1753875309.274634;17.782797;0.31;-6.21;281.58;-0.367226;1.076092;0.049332;0.0;0.0;0.0;0.0;0.0;0.0
1.0;1753875309.279226;17.770248;-1.82;-5.38;246.05;-0.891338;1.124638;0.240808;0.0;0.0;0.0;0.0;0.0;0.0
1.0;1753875309.28382;17.805202;-0.25;-7.13;230.72;-0.333755;1.096887;0.127196;0.0;0.0;0.0;0.0;0.0;0.0
1.0;1753875309.288412;17.76723;-1.12;-5.55;228.98;-0.445071;1.233418;-0.016132;0.0;0.0;0.0;0.0;0.0;0.0
1.0;1753875309.293005;17.785087;0.4;-4.83;230.07;-0.152932;0.926533;0.16483;0.0;0.0;0.0;0.0;0.0;0.0
1.0;1753875309.297598;17.75447;-0.79;-8.92;290.6;-0.365403;1.320291;0.12372;0.0;0.0;0.0;0.0;0.0;0.0
1.0;1753875309.302191;17.764995;-4.44;-8.02;306.9;-0.266932;1.443272;0.176946;0.0;0.0;0.0;0.0;0.0;0.0
1.0;1753875309.306784;17.800557;-1.7;-5.76;222.34;-0.468266;0.877977;0.066732;0.0;0.0;0.0;0.0;0.0;0.0
1.0;1753875309.311377;17.765332;-4.36;-9.02;261.27;-0.330939;1.145996;0.095476;0.0;0.0;0.0;0.0;0.0;0.0
1.0;1753875309.31597;17.800177;-7.43;-7.09;284.26;-0.789859;0.935477;0.080468;0.0;0.0;0.0;0.0;0.0;0.0
1.0;1753875309.320562;17.786042;-2.77;-7.28;236.2;-0.555311;1.223918;0.193826;0.0;0.0;0.0;0.0;0.0;0.0
1.0;1753875309.325156;17.795614;-3.55;-6.47;270.44;-0.430744;0.941927;0.257574;0.0;0.0;0.0;0.0;0.0;0.0
1.0;1753875309.329748;17.790812;3.03;-3.96;299.64;-0.629518;0.983739;0.196449;0.0;0.0;0.0;0.0;0.0;0.0
1.0;1753875309.334341;17.814481;-0.41;-8.36;306.68;-0.138899;1.268779;0.156913;0.0;0.0;0.0;0.0;0.0;0.0
1.0;1753875309.338934;17.780069;-1.58;-5.86;270.73;-0.265833;1.232063;0.058992;0.0;0.0;0.0;0.0;0.0;0.0
1.0;1753875309.343527;17.792672;-0.74;-7.5;273.71;-0.375586;1.092405;0.201111;0.0;0.0;0.0;0.0;0.0;0.0
1.0;1753875309.34812;17.806328;0.57;-6.76;335.72;-0.838346;1.07884;0.235675;0.0;0.0;0.0;0.0;0.0;0.0
1.0;1753875309.352713;17.785373;-0.4;-8.79;286.57;-0.290533;1.00166;0.029322;0.0;0.0;0.0;0.0;0.0;0.0
1.0;1753875309.357306;17.753728;-3.36;-10.64;225.14;-1.021446;1.266467;0.190867;0.0;0.0;0.0;0.0;0.0;0.0
1.0;1753875309.361899;17.802608;-3.9;-10.64;257.38;-0.311082;1.088389;0.064273;0.0;0.0;0.0;0.0;0.0;0.0
1.0;1753875309.366492;17.78315;-4.25;-9.86;340.48;-0.456055;1.186699;-0.002625;0.0;0.0;0.0;0.0;0.0;0.0
1.0;1753875309.371084;17.806243;0.88;-7.79;244.86;-0.763936;1.245047;0.238027;0.0;0.0;0.0;0.0;0.0;0.0
1.0;1753875309.375677;17.773747;-1.06;-6.35;336.99;-0.448312;0.845291;0.199939;0.0;0.0;0.0;0.0;0.0;0.0
1.0;1753875309.38027;17.797938;-1.39;-7.83;257.56;-0.584785;1.245005;0.118275;0.0;0.0;0.0;0.0;0.0;0.0
