DeviceID;Timestamp;Temperature;GyroX;GyroY;GyroZ;AccelX;AccelY;AccelZ;Dist1;Dist2;Dist3;Err1;Err2;Err3
4.0;1753875303.92808;17.167969;0.56;-1.12;0.07;0.738954;-0.671854;0.006222;90.0;0.0;0.0;2.0;0.0;0.0
4.0;1753875303.932907;17.167969;0.56;-1.12;0.07;0.738954;-0.671854;0.006222;90.0;0.0;0.0;2.0;0.0;0.0
4.0;1753875303.937904;17.113281;0.63;-1.19;0.07;0.739076;-0.67283;0.004636;90.0;0.0;0.0;2.0;0.0;0.0
4.0;1753875303.941782;17.113281;0.56;-1.12;0.14;0.739076;-0.67283;0.006222;90.0;0.0;0.0;2.0;0.0;0.0
4.0;1753875303.94818;17.113281;0.7;-1.12;0.07;0.737246;-0.67344;0.004026;90.0;0.0;0.0;2.0;0.0;0.0
4.0;1753875303.950838;17.113281;0.63;-1.19;0.07;0.738466;-0.670878;0.00488;90.0;0.0;0.0;2.0;0.0;0.0
4.0;1753875303.955443;17.114104;0.86;-1.8;1.48;0.718202;-0.660126;0.005364;87.7;-0.0;-0.1;2.0;0.0;0.0
4.0;1753875303.960048;17.114328;0.66;-0.85;0.03;0.733972;-0.645956;-0.008726;88.0;0.0;0.1;1.8;0.0;0.0
4.0;1753875303.964262;17.113281;0.63;-1.12;0.0;0.73932;-0.670756;0.004148;90.0;0.0;0.0;2.0;0.0;0.0
4.0;1753875303.969945;17.113281;0.63;-1.19;0.07;0.73749;-0.673562;0.006222;93.0;0.0;0.0;2.0;0.0;0.0
4.0;1753875303.973629;17.167969;0.77;-1.12;0.07;0.740052;-0.670756;0.004758;93.0;0.0;0.0;2.0;0.0;0.0
4.0;1753875303.97809;17.167969;0.63;-1.19;0.07;0.740052;-0.670756;0.004758;93.0;0.0;0.0;2.0;0.0;0.0
4.0;1753875303.982761;17.167969;0.63;-1.19;0.14;0.739564;-0.670756;0.005368;93.0;0.0;0.0;2.0;0.0;0.0
4.0;1753875303.987303;17.167969;0.63;-1.19;0.14;0.73749;-0.673318;0.006588;93.0;0.0;0.0;2.0;0.0;0.0
4.0;1753875303.991845;17.160156;0.7;-1.19;0.07;0.74054;-0.672586;0.00549;93.0;0.0;0.0;2.0;0.0;0.0
4.0;1753875303.996295;17.160156;0.63;-1.12;0.07;0.74054;-0.672586;0.00549;93.0;0.0;0.0;2.0;0.0;0.0
4.0;1753875304.0009;17.161773;0.82;-1.23;-0.16;0.715526;-0.685732;-0.005554;92.6;0.0;-0.1;2.0;-0.0;0.0
4.0;1753875304.005505;17.156632;0.99;-1.11;-0.08;0.72838;-0.682197;0.024097;91.3;-0.0;0.2;2.0;0.0;-0.0
4.0;1753875304.01011;17.159076;0.5;-0.84;-1.1;0.704649;-0.667503;0.001013;92.7;-0.0;0.1;2.1;-0.0;-0.0
4.0;1753875304.014715;17.160375;0.8;-1.02;-1.88;0.690866;-0.663801;-0.002649;91.8;0.0;0.1;2.2;0.0;-0.0
4.0;1753875304.01932;17.161177;0.45;-1.14;1.51;0.742469;-0.690349;-0.010035;92.5;-0.0;0.4;2.1;-0.0;0.0
4.0;1753875304.023925;17.161213;0.55;-1.53;-0.13;0.756996;-0.722467;0.019354;92.5;0.0;0.4;2.0;-0.0;0.0
4.0;1753875304.02853;17.159281;0.55;-0.52;-2.19;0.628133;-0.693449;-0.000186;90.9;0.0;-0.5;2.1;0.0;-0.0
4.0;1753875304.033136;17.160926;0.39;-0.92;0.19;0.767516;-0.65412;0.002606;91.7;-0.0;-0.2;2.2;0.0;0.0
4.0;1753875304.03774;17.160966;0.93;-1.73;-1.66;0.754309;-0.63894;-0.004084;92.8;0.0;0.2;1.9;-0.0;-0.0
4.0;1753875304.042346;17.15989;0.24;-0.74;-0.01;0.754871;-0.669118;0.032764;93.6;-0.0;0.4;1.9;0.0;-0.0
4.0;1753875304.04695;17.162125;0.7;-1.19;0.82;0.715856;-0.6617;-0.006595;92.9;0.0;-0.0;2.2;-0.0;0.0
4.0;1753875304.051556;17.160924;0.66;-1.04;-0.4;0.730022;-0.684721;-0.012317;92.4;-0.0;0.2;2.2;0.0;0.0
4.0;1753875304.056161;17.161433;0.23;-1.12;0.11;0.729347;-0.670431;0.007887;93.3;-0.0;0.1;2.0;0.0;0.0
4.0;1753875304.060766;17.161679;0.2;-1.01;-0.62;0.747712;-0.71988;0.005455;93.4;-0.1;0.3;2.0;-0.0;-0.0
4.0;1753875304.065371;17.160357;0.39;-1.29;-0.18;0.772206;-0.634385;0.006278;93.2;-0.0;-0.4;2.1;0.0;-0.0
4.0;1753875304.069976;17.162363;1.42;-1.0;0.34;0.733216;-0.676693;-0.003649;94.2;0.0;0.0;2.0;0.0;-0.0
4.0;1753875304.074581;17.160586;0.66;-0.91;-0.81;0.762938;-0.635472;0.00271;93.3;0.0;-0.2;2.1;-0.0;0.0
4.0;1753875304.079186;17.162022;0.85;-1.03;1.49;0.686625;-0.733003;-0.010463;93.0;-0.0;0.2;1.9;-0.0;-0.0
4.0;1753875304.083791;17.160869;0.24;-1.35;0.17;0.719532;-0.693623;0.002051;92.2;0.0;0.1;2.3;0.0;0.0
4.0;1753875304.088396;17.156415;0.63;-1.07;-0.8;0.721823;-0.693852;-0.002961;93.0;-0.0;0.5;2.0;0.0;-0.0
4.0;1753875304.093001;17.160497;0.6;-0.72;-3.66;0.763264;-0.689951;-0.015224;93.9;0.0;0.1;2.2;-0.0;-0.0
4.0;1753875304.097606;17.16085;0.39;-1.7;1.4;0.739097;-0.720712;0.003738;92.2;-0.0;-0.1;2.2;0.0;0.0
4.0;1753875304.102211;17.157449;0.92;-1.0;-1.25;0.738107;-0.684765;0.001256;90.4;-0.0;0.0;2.1;-0.0;0.0
4.0;1753875304.106816;17.159935;0.32;-1.57;-1.01;0.750452;-0.730118;0.008853;93.3;-0.1;-0.4;1.9;-0.0;0.0
4.0;1753875304.111421;17.1633;1.09;-1.13;0.76;0.756533;-0.656834;-0.005511;93.0;-0.0;0.4;1.8;0.0;0.0
4.0;1753875304.116026;17.159943;0.78;-0.61;-0.24;0.707102;-0.661224;0.016075;93.9;0.0;0.4;2.0;-0.0;0.0
4.0;1753875304.120632;17.161863;0.46;-1.16;2.05;0.739508;-0.64482;0.015627;94.1;0.0;0.2;1.8;0.0;-0.0
4.0;1753875304.125236;17.161758;0.62;-0.68;-0.05;0.73053;-0.691432;0.008241;93.1;-0.0;-0.2;2.1;-0.0;0.0
4.0;1753875304.129842;17.159459;0.38;-0.21;-0.57;0.724796;-0.640167;0.004972;93.8;-0.0;-0.1;2.1;-0.0;-0.0
4.0;1753875304.134446;17.158579;1.25;-1.7;3.0;0.68379;-0.713565;0.007261;93.6;0.0;-0.5;2.0;0.0;0.0
4.0;1753875304.139052;17.163052;-0.3;-1.42;-0.41;0.68914;-0.663601;-0.002258;92.8;-0.0;-0.0;1.9;0.0;0.0
4.0;1753875304.143657;17.158781;1.05;-1.76;-0.28;0.729334;-0.64788;-0.00276;93.3;-0.0;0.2;2.1;-0.0;0.0
4.0;1753875304.148262;17.156865;0.1;-1.66;-0.03;0.766469;-0.708014;-0.000315;93.3;0.0;0.1;2.1;0.0;-0.0
4.0;1753875304.152867;17.158103;1.48;-1.2;-0.54;0.722094;-0.63324;0.01158;92.7;-0.0;0.1;2.2;0.0;0.0
4.0;1753875304.157472;17.161223;0.41;-2.18;0.2;0.746997;-0.691506;0.015448;92.1;-0.0;-0.0;1.8;0.0;0.0
4.0;1753875304.162077;17.158982;0.05;-0.41;-0.93;0.7365;-0.649439;-0.000555;91.7;0.0;0.1;1.9;-0.0;-0.0
4.0;1753875304.166682;17.159391;1.38;-1.77;-0.45;0.700948;-0.665123;0.015198;94.1;-0.1;-0.0;2.5;-0.0;0.0
4.0;1753875304.171287;17.161037;0.41;-0.61;0.69;0.730444;-0.650137;0.018942;92.9;-0.0;0.2;2.1;0.0;0.0
4.0;1753875304.175892;17.160544;0.04;-0.66;1.33;0.740389;-0.664494;0.009751;93.3;0.1;0.3;1.9;0.0;-0.0
4.0;1753875304.180497;17.158025;0.53;-1.88;-0.88;0.750436;-0.676479;0.010763;92.2;-0.0;0.1;2.0;-0.0;0.0
4.0;1753875304.185102;17.160868;0.88;-1.08;1.01;0.756134;-0.63592;0.000371;94.2;-0.1;0.1;2.0;0.0;0.0
4.0;1753875304.189707;17.164468;0.41;-1.34;1.86;0.761999;-0.678946;0.003383;94.0;0.0;0.3;1.7;0.0;0.0
4.0;1753875304.194312;17.160661;1.74;-1.34;1.89;0.715182;-0.661422;0.002783;92.5;-0.0;0.2;2.1;0.0;0.0
4.0;1753875304.198918;17.157624;0.38;-1.34;-0.08;0.734257;-0.696222;0.009237;95.2;0.0;-0.4;1.9;-0.0;-0.0
4.0;1753875304.203522;17.157801;-0.18;-1.43;1.15;0.721002;-0.687542;-0.002076;93.7;-0.0;-0.3;1.8;0.0;0.0
4.0;1753875304.208128;17.163773;0.82;-1.41;-0.57;0.732266;-0.650884;-0.003809;94.6;0.0;-0.3;2.1;0.0;0.0
4.0;1753875304.212732;17.161673;0.77;-0.6;0.32;0.72042;-0.68795;0.018515;93.6;-0.0;-0.2;2.3;0.0;0.0
4.0;1753875304.217338;17.163726;0.64;0.11;-2.97;0.732958;-0.676293;-0.004745;94.5;-0.0;-0.2;2.0;0.0;-0.0
4.0;1753875304.221943;17.161829;0.52;-0.95;-1.4;0.731177;-0.636857;-0.003788;93.9;-0.1;-0.2;2.0;0.0;-0.0
4.0;1753875304.226548;17.155697;0.81;-1.12;-0.28;0.737164;-0.594;0.001855;93.8;-0.0;-0.1;2.0;0.0;-0.0
4.0;1753875304.231153;17.158057;0.98;-0.84;1.63;0.721635;-0.653948;0.005446;91.5;-0.0;0.0;2.2;-0.0;-0.0
4.0;1753875304.235758;17.162547;0.63;-1.17;0.06;0.744329;-0.637229;0.014235;93.6;-0.0;0.2;2.1;0.0;0.0
4.0;1753875304.240363;17.158735;0.29;-1.33;-0.28;0.746307;-0.629893;0.015762;93.3;-0.0;0.2;1.9;0.0;-0.0
4.0;1753875304.244968;17.160303;-0.2;-1.92;-0.18;0.759543;-0.622401;0.00485;94.2;0.0;-0.3;1.8;0.0;-0.0
4.0;1753875304.249573;17.160971;0.55;-1.2;0.4;0.744307;-0.70108;-0.008029;93.3;0.0;0.0;2.1;0.0;0.0
4.0;1753875304.254178;17.15836;1.21;-0.39;-0.66;0.727667;-0.653032;0.009436;92.7;-0.0;0.1;2.2;-0.0;-0.0
4.0;1753875304.258783;17.162198;1.57;-1.36;0.74;0.718324;-0.734347;0.002728;93.1;0.1;0.1;2.2;0.0;-0.0
4.0;1753875304.263388;17.163083;0.34;-1.02;-0.21;0.712771;-0.662735;0.01161;93.9;-0.0;0.1;1.7;0.0;0.0
4.0;1753875304.267993;17.160701;0.59;-0.49;-0.3;0.75897;-0.600969;0.005322;93.4;-0.0;0.2;2.2;-0.0;-0.0
4.0;1753875304.272598;17.158793;0.9;-0.35;-3.33;0.747313;-0.654875;0.00379;91.6;-0.0;-0.1;1.9;0.0;0.0
4.0;1753875304.277203;17.161617;0.47;-1.32;-0.02;0.713211;-0.725906;-0.001335;93.9;0.0;-0.1;1.9;-0.0;0.0
4.0;1753875304.281808;17.162107;1.18;-1.92;-0.32;0.740069;-0.636646;0.007731;94.1;0.0;-0.3;1.9;0.0;-0.0
4.0;1753875304.286414;17.158809;1.27;-0.4;0.71;0.760893;-0.703949;0.000143;94.1;0.0;-0.4;1.9;-0.0;-0.0
4.0;1753875304.291018;17.162132;0.54;-0.87;0.41;0.755609;-0.687914;0.006486;93.5;0.0;0.1;2.3;0.0;-0.0
4.0;1753875304.295624;17.159255;-0.09;-1.32;0.69;0.741381;-0.689426;0.001517;93.1;0.0;-0.0;2.3;0.0;0.0
4.0;1753875304.300228;17.16056;0.54;-0.66;1.41;0.74012;-0.676362;-0.006009;92.7;0.0;-0.2;2.6;0.0;-0.0
4.0;1753875304.304834;17.159702;0.96;-1.65;-2.11;0.735472;-0.659565;-0.001706;93.7;0.0;-0.1;2.3;-0.0;-0.0
4.0;1753875304.309439;17.158383;0.64;-0.91;1.19;0.785113;-0.698793;0.007883;93.3;-0.0;0.0;2.0;0.0;-0.0
4.0;1753875304.314044;17.157704;0.56;-1.43;2.2;0.710434;-0.693699;0.019484;91.2;0.1;-0.3;2.0;-0.0;-0.0
4.0;1753875304.318649;17.158339;0.63;-1.41;1.61;0.723795;-0.661614;-0.009723;90.9;-0.0;-0.4;2.0;0.0;0.0
4.0;1753875304.323254;17.159873;0.51;-0.49;-2.14;0.75863;-0.680479;0.01398;92.8;0.0;-0.1;2.0;-0.0;-0.0
4.0;1753875304.327859;17.161417;0.21;-1.11;-0.96;0.747466;-0.668528;0.006543;91.9;-0.0;0.4;2.2;-0.0;0.0
4.0;1753875304.332464;17.161826;1.06;-0.67;0.47;0.779587;-0.656241;0.003381;92.1;-0.0;-0.1;2.1;-0.0;-0.0
4.0;1753875304.337069;17.160329;0.32;-0.83;0.69;0.712493;-0.671507;-0.005356;94.5;-0.0;0.1;2.1;0.0;-0.0
4.0;1753875304.341674;17.159971;1.34;-1.4;1.31;0.738631;-0.660981;-0.008916;91.5;0.0;0.2;2.2;0.0;-0.0
4.0;1753875304.346279;17.162155;-0.09;-1.31;2.23;0.758713;-0.682453;-0.001269;93.4;-0.0;0.1;2.0;-0.0;-0.0
4.0;1753875304.350884;17.161034;1.13;-0.32;1.54;0.748791;-0.647068;0.022979;93.2;0.0;-0.1;2.1;0.0;0.0
4.0;1753875304.355489;17.159881;-0.15;-1.58;1.62;0.714715;-0.675667;0.010086;94.3;0.1;-0.1;2.0;-0.0;0.0
4.0;1753875304.360094;17.1584;0.97;-1.51;1.32;0.746823;-0.683628;-0.002128;93.2;0.0;0.2;2.0;0.0;-0.0
4.0;1753875304.364699;17.16111;0.27;-0.53;-0.66;0.734489;-0.703761;0.010973;93.0;-0.0;0.2;2.0;0.0;-0.0
4.0;1753875304.369304;17.159678;0.68;-0.95;-1.98;0.748087;-0.720727;0.001496;92.8;-0.0;-0.0;2.0;-0.0;0.0
4.0;1753875304.37391;17.156615;0.41;-1.36;2.36;0.732693;-0.663691;-0.026038;94.7;-0.0;0.3;1.8;-0.0;0.0
4.0;1753875304.378514;17.160761;-0.15;-1.27;-0.31;0.758911;-0.671219;0.011624;92.1;0.0;-0.1;2.0;-0.0;-0.0
4.0;1753875304.38312;17.16092;0.34;-1.57;-0.62;0.773499;-0.659961;-0.005267;93.5;-0.1;0.2;1.9;0.0;-0.0
4.0;1753875304.387725;17.164903;0.88;-1.33;-0.06;0.748472;-0.625447;0.022344;92.7;0.0;-0.1;1.9;0.0;0.0
4.0;1753875304.39233;17.161872;0.51;-1.82;0.18;0.70771;-0.694516;0.006981;93.8;0.0;-0.0;2.0;-0.0;0.0
4.0;1753875304.396935;17.159059;0.2;-1.07;-0.9;0.739766;-0.709249;0.014994;91.9;-0.0;-0.1;2.1;0.0;0.0
4.0;1753875304.40154;17.157543;-0.24;-1.19;-1.77;0.750421;-0.694494;0.013263;94.4;-0.0;-0.0;1.8;-0.0;-0.0
4.0;1753875304.406145;17.161803;0.88;-1.1;0.16;0.770798;-0.689429;-0.004207;93.6;0.0;0.0;2.0;-0.0;-0.0
4.0;1753875304.41075;17.162886;0.62;-0.4;-0.6;0.669311;-0.704287;-0.029698;93.2;-0.0;0.1;2.2;0.0;-0.0
4.0;1753875304.415355;17.162265;0.3;-1.48;0.85;0.724992;-0.674418;0.019595;94.0;-0.0;-0.1;2.0;-0.0;-0.0
4.0;1753875304.41996;17.161272;0.76;-1.36;-0.63;0.681321;-0.694423;0.018535;93.5;0.0;-0.0;2.1;0.0;-0.0
4.0;1753875304.424565;17.157417;0.81;-1.14;-1.14;0.738995;-0.676491;0.010474;95.9;0.0;0.2;1.8;0.0;0.0
4.0;1753875304.42917;17.160292;0.71;-1.45;2.8;0.743128;-0.661912;0.006753;91.4;-0.1;0.2;2.0;-0.0;-0.0
4.0;1753875304.433775;17.160778;0.43;-1.83;-0.66;0.738197;-0.665268;0.012963;94.3;-0.0;-0.3;2.1;0.0;-0.0
4.0;1753875304.43838;17.161597;0.21;-0.27;1.89;0.731463;-0.648568;0.004789;91.2;-0.0;-0.0;2.1;-0.0;0.0
4.0;1753875304.4451;17.160156;0.63;-1.19;0.07;0.737978;-0.672586;0.005124;93.0;0.0;0.0;2.0;0.0;0.0
4.0;1753875304.449705;17.143902;0.61;-1.18;-0.01;0.738915;-0.671543;0.00538;94.5;0.0;0.0;2.0;0.0;0.0
4.0;1753875304.45431;17.116919;0.64;-1.13;0.04;0.737733;-0.674043;0.006476;93.1;0.0;0.0;2.0;0.0;0.0
4.0;1753875304.458915;17.109972;0.6;-1.18;0.02;0.737195;-0.67454;0.006258;92.7;0.0;0.0;2.0;0.0;0.0
4.0;1753875304.46435;17.097656;0.56;-1.12;0.07;0.737612;-0.674172;0.006954;92.0;0.0;0.0;2.0;0.0;0.0
4.0;1753875304.468955;17.085018;0.63;-1.13;0.06;0.737816;-0.673356;0.005996;92.7;0.0;0.0;2.0;0.0;0.0
4.0;1753875304.47356;17.101851;0.6;-1.12;0.07;0.735068;-0.672198;0.007187;90.7;0.0;0.0;2.0;0.0;0.0
4.0;1753875304.478165;17.096762;0.5;-1.25;0.05;0.7389;-0.673753;0.006349;90.6;0.0;0.0;2.0;0.0;0.0
4.0;1753875304.48277;17.118653;0.56;-1.19;0.05;0.736897;-0.671284;0.00575;92.6;0.0;0.0;2.0;0.0;0.0
4.0;1753875304.487375;17.078468;0.58;-1.2;0.05;0.737468;-0.673877;0.006248;91.9;0.0;0.0;2.0;0.0;0.0
4.0;1753875304.49198;17.106893;0.58;-1.11;0.05;0.739432;-0.674136;0.005508;91.1;0.0;0.0;2.0;0.0;0.0
4.0;1753875304.496585;17.103303;0.58;-1.24;0.07;0.737972;-0.675145;0.004047;94.1;0.0;0.0;2.0;0.0;0.0
4.0;1753875304.50119;17.094656;0.58;-1.18;0.09;0.735315;-0.675043;0.006179;92.2;0.0;0.0;2.0;0.0;0.0
4.0;1753875304.505796;17.067432;0.58;-1.21;0.14;0.738862;-0.676881;0.005956;91.5;0.0;0.0;2.0;0.0;0.0
4.0;1753875304.5104;17.096378;0.58;-1.08;0.19;0.738468;-0.672367;0.006853;91.8;0.0;0.0;2.0;0.0;0.0
4.0;1753875304.515006;17.1303;0.58;-1.13;0.13;0.73693;-0.673683;0.006075;92.2;0.0;0.0;2.0;0.0;0.0
4.0;1753875304.519611;17.108166;0.63;-1.11;0.05;0.737361;-0.671623;0.004365;93.0;0.0;0.0;2.0;0.0;0.0
4.0;1753875304.524216;17.10772;0.6;-1.15;0.15;0.739574;-0.67078;0.006026;92.1;0.0;0.0;2.0;0.0;0.0
4.0;1753875304.528821;17.085119;0.58;-1.2;0.09;0.739137;-0.67187;0.006451;92.5;0.0;0.0;2.0;0.0;0.0
4.0;1753875304.533426;17.130451;0.61;-1.28;0.07;0.739261;-0.67316;0.006541;89.9;0.0;0.0;2.0;0.0;0.0
4.0;1753875304.538031;17.082032;0.58;-1.17;0.15;0.737936;-0.6739;0.006982;91.1;0.0;0.0;2.0;0.0;0.0
4.0;1753875304.542636;17.070664;0.59;-1.16;0.14;0.735955;-0.674114;0.006711;90.4;0.0;0.0;2.0;0.0;0.0
4.0;1753875304.547241;17.097666;0.57;-1.28;0.14;0.73887;-0.674212;0.006546;91.7;0.0;0.0;2.0;0.0;0.0
4.0;1753875304.551846;17.093865;0.63;-1.23;0.16;0.736653;-0.671947;0.004491;93.2;0.0;0.0;2.0;0.0;0.0
4.0;1753875304.556451;17.110849;0.57;-1.26;0.15;0.735292;-0.674056;0.005158;92.4;0.0;0.0;2.0;0.0;0.0
4.0;1753875304.561056;17.097166;0.7;-1.26;0.14;0.738264;-0.671891;0.007253;91.4;0.0;0.0;2.0;0.0;0.0
4.0;1753875304.565661;17.126789;0.66;-1.27;0.13;0.737202;-0.669929;0.00537;92.3;0.0;0.0;2.0;0.0;0.0
4.0;1753875304.570266;17.089117;0.6;-1.26;0.05;0.739305;-0.6725;0.006576;92.3;0.0;0.0;2.0;0.0;0.0
4.0;1753875304.574871;17.107032;0.58;-1.16;0.06;0.739513;-0.671338;0.006251;92.8;0.0;0.0;2.0;0.0;0.0
4.0;1753875304.579476;17.153661;0.63;-1.39;0.13;0.737335;-0.673271;0.005504;92.1;0.0;0.0;2.0;0.0;0.0
4.0;1753875304.584082;17.062506;0.6;-1.3;0.14;0.737589;-0.670919;0.005095;93.0;0.0;0.0;2.0;0.0;0.0
4.0;1753875304.588686;17.061644;0.66;-1.24;0.2;0.738013;-0.673915;0.005;90.8;0.0;0.0;2.0;0.0;0.0
4.0;1753875304.593292;17.067224;0.65;-1.31;0.13;0.736073;-0.672374;0.005291;89.6;0.0;0.0;2.0;0.0;0.0
4.0;1753875304.60123;17.097656;0.63;-1.26;0.14;0.738344;-0.672098;0.005002;92.0;0.0;0.0;2.0;0.0;0.0
4.0;1753875304.605835;17.121209;0.61;-1.26;0.14;0.737954;-0.674439;0.004655;89.8;0.0;0.0;2.0;0.0;0.0
4.0;1753875304.61044;17.099239;0.54;-1.27;0.12;0.738033;-0.672655;0.004176;92.4;0.0;0.0;2.0;0.0;0.0
4.0;1753875304.615045;17.110502;0.62;-1.24;0.12;0.737968;-0.670901;0.006386;91.0;0.0;0.0;2.0;0.0;0.0
4.0;1753875304.61965;17.0636;0.61;-1.2;0.09;0.737722;-0.672277;0.006472;90.0;0.0;0.0;2.0;0.0;0.0
4.0;1753875304.624255;17.06448;0.62;-1.19;0.14;0.73808;-0.674022;0.004671;90.3;0.0;0.0;2.0;0.0;0.0
4.0;1753875304.62886;17.074908;0.58;-1.18;0.17;0.73711;-0.672968;0.006976;88.9;0.0;0.0;2.0;0.0;0.0
4.0;1753875304.633465;17.105369;0.65;-1.26;0.1;0.736658;-0.673662;0.005858;89.2;0.0;0.0;2.0;0.0;0.0
4.0;1753875304.63807;17.019103;0.56;-1.14;0.12;0.734757;-0.673439;0.005823;89.2;0.0;0.0;2.0;0.0;0.0
4.0;1753875304.642676;17.079567;0.56;-1.24;0.18;0.737758;-0.67501;0.005613;90.1;0.0;0.0;2.0;0.0;0.0
4.0;1753875304.6505;17.070312;0.56;-1.19;0.07;0.73566;-0.67405;0.006222;89.0;0.0;0.0;2.0;0.0;0.0
4.0;1753875304.655105;17.078979;0.59;-1.13;0.07;0.73656;-0.674844;0.006023;87.7;0.0;0.0;2.0;0.0;0.0
4.0;1753875304.65971;17.052046;0.52;-1.2;0.04;0.735498;-0.674804;0.006028;89.7;0.0;0.0;2.0;0.0;0.0
4.0;1753875304.664315;17.058853;0.72;-1.1;0.13;0.73868;-0.672992;0.00565;88.9;0.0;0.0;2.0;0.0;0.0
4.0;1753875304.66892;17.109094;0.54;-1.15;0.09;0.739085;-0.67119;0.005937;87.9;0.0;0.0;2.0;0.0;0.0
4.0;1753875304.673525;17.078101;0.64;-1.06;0.04;0.739517;-0.670963;0.005002;86.3;0.0;0.0;2.0;0.0;0.0
4.0;1753875304.67813;17.036793;0.61;-0.96;0.11;0.742054;-0.669995;0.005922;89.1;0.0;0.0;2.0;0.0;0.0
4.0;1753875304.682736;17.090482;0.45;-1.03;0.12;0.740066;-0.67163;0.005011;89.0;0.0;0.0;2.0;0.0;0.0
4.0;1753875304.68734;17.122292;0.51;-1.03;0.07;0.740127;-0.67044;0.007348;88.2;0.0;0.0;2.0;0.0;0.0
4.0;1753875304.69211;17.070312;0.56;-1.05;0.07;0.74054;-0.67039;0.006222;89.0;0.0;0.0;2.0;0.0;0.0
4.0;1753875304.696715;17.027016;0.64;-1.05;0.09;0.739807;-0.67104;0.007722;91.4;0.0;0.0;2.0;0.0;0.0
4.0;1753875304.70132;17.096086;0.51;-1.11;0.0;0.741916;-0.67109;0.006664;87.4;0.0;0.0;2.0;0.0;0.0
4.0;1753875304.705925;17.051875;0.56;-0.9;0.05;0.740746;-0.674278;0.006079;88.5;0.0;0.0;2.0;0.0;0.0
4.0;1753875304.71053;17.148093;0.51;-1.12;0.04;0.737275;-0.674003;0.007844;88.1;0.0;0.0;2.0;0.0;0.0
4.0;1753875304.715135;17.02665;0.62;-1.06;-0.04;0.73762;-0.670797;0.007882;90.3;0.0;0.0;2.0;0.0;0.0
4.0;1753875304.71974;17.125275;0.55;-1.06;0.04;0.738424;-0.673055;0.007614;87.8;0.0;0.0;2.0;0.0;0.0
4.0;1753875304.724346;17.086288;0.59;-1.14;-0.04;0.739278;-0.67474;0.0066;89.6;0.0;0.0;2.0;0.0;0.0
4.0;1753875304.72895;17.073359;0.68;-1.05;0.06;0.735919;-0.670933;0.00836;88.8;0.0;0.0;2.0;0.0;0.0
4.0;1753875304.73736;17.070312;0.63;-1.12;0.0;0.736026;-0.675148;0.006588;89.0;0.0;0.0;2.0;0.0;0.0
4.0;1753875304.741965;17.111567;0.65;-1.09;-0.02;0.73679;-0.676992;0.007299;86.5;0.0;0.0;2.0;0.0;0.0
4.0;1753875304.74657;16.998864;0.57;-1.1;0.03;0.735433;-0.67744;0.005038;89.9;0.0;0.0;2.0;0.0;0.0
4.0;1753875304.751175;17.075924;0.55;-1.06;0.09;0.738869;-0.674368;0.006326;88.7;0.0;0.0;2.0;0.0;0.0
4.0;1753875304.75578;17.050764;0.56;-1.23;0.08;0.736707;-0.67515;0.005946;87.5;0.0;0.0;2.0;0.0;0.0
4.0;1753875304.760385;17.065861;0.59;-1.17;0.05;0.737697;-0.67437;0.007099;88.4;0.0;0.0;2.0;0.0;0.0
4.0;1753875304.76499;17.079254;0.5;-1.16;0.07;0.737897;-0.67372;0.005957;92.1;0.0;0.0;2.0;0.0;0.0
4.0;1753875304.769596;17.021868;0.46;-1.16;0.03;0.737122;-0.674289;0.006723;90.4;0.0;0.0;2.0;0.0;0.0
4.0;1753875304.7742;17.027576;0.52;-1.0;0.04;0.739167;-0.674538;0.006115;90.4;0.0;0.0;2.0;0.0;0.0
4.0;1753875304.778806;17.107511;0.59;-1.12;0.05;0.739382;-0.674916;0.005544;88.7;0.0;0.0;2.0;0.0;0.0
4.0;1753875304.78341;17.025617;0.58;-1.14;0.1;0.74074;-0.67044;0.006421;86.5;0.0;0.0;2.0;0.0;0.0
4.0;1753875304.79031;17.070312;0.56;-1.12;0.07;0.741028;-0.67222;0.005368;89.0;0.0;0.0;2.0;0.0;0.0
4.0;1753875304.794915;17.019945;0.57;-1.02;0.04;0.744077;-0.670919;0.005119;88.8;0.0;0.0;2.0;0.0;0.0
4.0;1753875304.79952;17.10911;0.56;-1.15;0.06;0.739099;-0.673269;0.003844;90.4;0.0;0.0;2.0;0.0;0.0
4.0;1753875304.804125;17.095347;0.6;-1.15;-0.01;0.740264;-0.670096;0.004307;91.2;0.0;0.0;2.0;0.0;0.0
4.0;1753875304.80873;17.06304;0.67;-1.17;0.05;0.742108;-0.67344;0.005611;91.9;0.0;0.0;2.0;0.0;0.0
4.0;1753875304.813335;17.032443;0.66;-1.23;-0.0;0.740434;-0.672429;0.006951;87.9;0.0;0.0;2.0;0.0;0.0
4.0;1753875304.81794;17.081171;0.62;-1.15;0.04;0.741772;-0.672782;0.004412;89.3;0.0;0.0;2.0;0.0;0.0
4.0;1753875304.822545;17.161704;0.67;-1.18;0.03;0.736958;-0.674022;0.006141;89.2;0.0;0.0;2.0;0.0;0.0
4.0;1753875304.82852;17.121094;0.63;-1.19;0.0;0.738466;-0.67344;0.006832;89.0;0.0;0.0;2.0;0.0;0.0
4.0;1753875304.833125;17.157414;0.61;-1.19;0.03;0.741891;-0.673976;0.004642;86.4;0.0;0.0;2.0;0.0;0.0
4.0;1753875304.83773;17.110522;0.61;-1.13;-0.01;0.737867;-0.67512;0.006892;90.5;0.0;0.0;2.0;0.0;0.0
4.0;1753875304.842335;17.144215;0.6;-1.13;0.02;0.738798;-0.673115;0.006306;89.4;0.0;0.0;2.0;0.0;0.0
4.0;1753875304.84694;17.143101;0.53;-1.17;0.03;0.737377;-0.673456;0.007905;88.9;0.0;0.0;2.0;0.0;0.0
4.0;1753875304.851545;17.198872;0.6;-1.2;0.02;0.73932;-0.670821;0.007219;91.3;0.0;0.0;2.0;0.0;0.0
4.0;1753875304.85615;17.115652;0.65;-1.07;0.11;0.740304;-0.674084;0.005885;89.9;0.0;0.0;2.0;0.0;0.0
4.0;1753875304.860756;17.127521;0.66;-1.08;-0.02;0.736931;-0.673193;0.006448;89.8;0.0;0.0;2.0;0.0;0.0
4.0;1753875304.86536;17.14186;0.4;-1.1;-0.01;0.740618;-0.673349;0.006686;90.6;0.0;0.0;2.0;0.0;0.0
4.0;1753875304.87319;17.121094;0.56;-1.12;0.0;0.738466;-0.67344;0.006832;89.0;0.0;0.0;2.0;0.0;0.0
4.0;1753875304.877795;17.15496;0.51;-1.16;0.0;0.736199;-0.671883;0.007112;89.1;0.0;0.0;2.0;0.0;0.0
4.0;1753875304.8824;17.101792;0.56;-1.14;0.01;0.738001;-0.673063;0.006375;89.1;0.0;0.0;2.0;0.0;0.0
4.0;1753875304.887005;17.132225;0.53;-1.16;0.04;0.739757;-0.673939;0.006192;88.5;0.0;0.0;2.0;0.0;0.0
4.0;1753875304.89161;17.11436;0.53;-1.12;0.02;0.739816;-0.672441;0.006172;89.1;0.0;0.0;2.0;0.0;0.0
4.0;1753875304.896215;17.126045;0.54;-1.03;0.02;0.738655;-0.673066;0.006215;87.2;0.0;0.0;2.0;0.0;0.0
4.0;1753875304.90082;17.113417;0.68;-1.05;0.06;0.740276;-0.670929;0.0056;88.6;0.0;0.0;2.0;0.0;0.0
4.0;1753875304.905425;17.124241;0.54;-1.12;0.01;0.736345;-0.671643;0.006842;90.9;0.0;0.0;2.0;0.0;0.0
4.0;1753875304.91003;17.123356;0.63;-1.13;0.05;0.737685;-0.672291;0.00512;90.1;0.0;0.0;2.0;0.0;0.0
4.0;1753875304.914636;17.051955;0.64;-1.07;0.14;0.738747;-0.672147;0.005473;89.3;0.0;0.0;2.0;0.0;0.0
4.0;1753875304.91924;17.107092;0.57;-1.09;0.11;0.737272;-0.673395;0.004876;89.1;0.0;0.0;2.0;0.0;0.0
4.0;1753875304.923846;17.121322;0.61;-1.08;0.14;0.74021;-0.671544;0.006086;88.9;0.0;0.0;2.0;0.0;0.0
4.0;1753875304.92895;17.121094;0.63;-1.12;0.14;0.739686;-0.671244;0.005734;89.0;0.0;0.0;2.0;0.0;0.0
4.0;1753875304.933555;17.116535;0.62;-1.16;0.1;0.738788;-0.673466;0.007585;91.0;0.0;0.0;2.0;0.0;0.0
4.0;1753875304.93816;17.11935;0.61;-1.13;0.22;0.739254;-0.674098;0.004432;87.5;0.0;0.0;2.0;0.0;0.0
4.0;1753875304.942765;17.163601;0.64;-1.2;0.09;0.738507;-0.671009;0.006189;88.7;0.0;0.0;2.0;0.0;0.0
4.0;1753875304.94737;17.108593;0.58;-1.1;0.13;0.740863;-0.672812;0.007101;90.8;0.0;0.0;2.0;0.0;0.0
4.0;1753875304.951975;17.143532;0.57;-1.14;0.15;0.737552;-0.67013;0.005009;92.2;0.0;0.0;2.0;0.0;0.0
4.0;1753875304.95658;17.099045;0.61;-1.2;0.09;0.737181;-0.671721;0.007278;89.6;0.0;0.0;2.0;0.0;0.0
4.0;1753875304.961186;17.145397;0.57;-1.19;0.12;0.737081;-0.674594;0.006899;87.9;0.0;0.0;2.0;0.0;0.0
4.0;1753875304.96959;17.121094;0.56;-1.19;0.07;0.736392;-0.674172;0.006222;89.0;0.0;0.0;2.0;0.0;0.0
4.0;1753875304.970339;17.046875;0.56;-1.12;0.14;0.73749;-0.671854;0.004026;91.0;0.0;0.0;2.0;0.0;0.0
4.0;1753875304.974903;17.0625;0.56;-1.12;0.14;0.73932;-0.67283;0.005002;91.0;0.0;0.0;2.0;0.0;0.0
4.0;1753875304.979453;17.0625;0.63;-1.12;0.07;0.73932;-0.671976;0.006344;91.0;0.0;0.0;2.0;0.0;0.0
4.0;1753875304.988094;17.0625;0.56;-1.12;0.0;0.73688;-0.674416;0.004392;91.0;0.0;0.0;2.0;0.0;0.0
4.0;1753875304.988498;17.0625;0.56;-1.12;0.0;0.742248;-0.671488;0.005734;91.0;0.0;0.0;2.0;0.0;0.0
4.0;1753875304.99358;17.035156;0.7;-1.12;0.14;0.735782;-0.674782;0.005734;91.0;0.0;0.0;2.0;0.0;0.0
4.0;1753875304.998185;17.020486;0.73;-1.1;0.09;0.734713;-0.674445;0.003585;90.3;0.0;0.0;2.0;0.0;0.0
4.0;1753875305.00279;17.042537;0.81;-1.19;0.17;0.733936;-0.674919;0.005699;89.4;0.0;0.0;2.0;0.0;0.0
4.0;1753875305.007395;17.005439;0.75;-1.17;0.19;0.73617;-0.674678;0.006606;90.4;0.0;0.0;2.0;0.0;0.0
4.0;1753875305.012;17.061276;0.78;-1.1;0.2;0.73438;-0.673211;0.005081;90.7;0.0;0.0;2.0;0.0;0.0
4.0;1753875305.016606;17.023026;0.83;-1.14;0.12;0.734257;-0.674733;0.006117;92.6;0.0;0.0;2.0;0.0;0.0
4.0;1753875305.02121;17.062611;0.68;-1.13;0.19;0.736955;-0.675734;0.007067;91.6;0.0;0.0;2.0;0.0;0.0
4.0;1753875305.025816;17.025142;0.68;-1.1;0.12;0.734925;-0.675083;0.007554;93.4;0.0;0.0;2.0;0.0;0.0
4.0;1753875305.03042;17.015209;0.66;-1.17;0.17;0.736651;-0.673718;0.005732;90.2;0.0;0.0;2.0;0.0;0.0
4.0;1753875305.035026;17.050867;0.76;-1.12;0.08;0.735096;-0.673874;0.006349;91.0;0.0;0.0;2.0;0.0;0.0
4.0;1753875305.039631;17.040117;0.66;-1.05;0.16;0.735057;-0.673935;0.005226;90.9;0.0;0.0;2.0;0.0;0.0
4.0;1753875305.044236;17.031454;0.69;-1.13;0.08;0.735817;-0.67297;0.006362;91.0;0.0;0.0;2.0;0.0;0.0
4.0;1753875305.048841;17.014646;0.67;-1.18;0.14;0.734336;-0.674501;0.003968;90.8;0.0;0.0;2.0;0.0;0.0
4.0;1753875305.053446;17.036747;0.65;-1.08;0.19;0.736321;-0.673008;0.004971;89.3;0.0;0.0;2.0;0.0;0.0
4.0;1753875305.058051;17.118015;0.68;-1.08;0.26;0.734893;-0.674074;0.005913;91.2;0.0;0.0;2.0;0.0;0.0
4.0;1753875305.062656;17.066702;0.76;-1.08;0.09;0.737191;-0.675353;0.006398;92.4;0.0;0.0;2.0;0.0;0.0
4.0;1753875305.067261;17.017183;0.73;-1.06;0.09;0.735531;-0.673747;0.005326;91.4;0.0;0.0;2.0;0.0;0.0
4.0;1753875305.071866;17.040794;0.69;-1.14;0.13;0.732696;-0.675255;0.006892;88.7;0.0;0.0;2.0;0.0;0.0
4.0;1753875305.076471;17.034998;0.66;-1.08;0.15;0.735356;-0.675158;0.005833;90.3;0.0;0.0;2.0;0.0;0.0
4.0;1753875305.081076;17.043242;0.68;-1.16;0.18;0.738761;-0.675784;0.006322;91.2;0.0;0.0;2.0;0.0;0.0
4.0;1753875305.085681;17.033218;0.73;-1.11;0.14;0.73806;-0.674881;0.006631;89.9;0.0;0.0;2.0;0.0;0.0
4.0;1753875305.090286;17.065962;0.71;-1.19;0.08;0.736537;-0.675521;0.005969;90.8;0.0;0.0;2.0;0.0;0.0
4.0;1753875305.094891;17.049046;0.68;-1.19;0.1;0.737008;-0.674997;0.006046;90.4;0.0;0.0;2.0;0.0;0.0
4.0;1753875305.099496;17.067774;0.66;-1.19;0.14;0.736102;-0.67542;0.005494;89.6;0.0;0.0;2.0;0.0;0.0
4.0;1753875305.104102;17.045809;0.69;-1.12;0.03;0.737351;-0.676402;0.007055;92.0;0.0;0.0;2.0;0.0;0.0
4.0;1753875305.108706;17.028097;0.63;-1.14;0.12;0.734732;-0.674816;0.005451;90.9;0.0;0.0;2.0;0.0;0.0
4.0;1753875305.113312;16.989621;0.59;-1.07;0.2;0.735788;-0.675765;0.005941;90.5;0.0;0.0;2.0;0.0;0.0
4.0;1753875305.117916;17.06279;0.61;-1.1;0.17;0.734761;-0.674039;0.00508;90.3;0.0;0.0;2.0;0.0;0.0
4.0;1753875305.122522;17.033026;0.63;-1.15;0.14;0.736919;-0.675597;0.007125;90.9;0.0;0.0;2.0;0.0;0.0
4.0;1753875305.127127;17.019856;0.64;-1.16;0.08;0.735391;-0.673881;0.004409;90.0;0.0;0.0;2.0;0.0;0.0
4.0;1753875305.131732;17.039963;0.76;-1.12;0.11;0.735082;-0.675815;0.006786;90.6;0.0;0.0;2.0;0.0;0.0
4.0;1753875305.136337;17.033203;0.72;-1.08;0.2;0.735431;-0.676421;0.007283;90.5;0.0;0.0;2.0;0.0;0.0
4.0;1753875305.140942;17.022733;0.79;-1.15;0.11;0.735809;-0.675222;0.005217;88.3;0.0;0.0;2.0;0.0;0.0
4.0;1753875305.145547;17.051859;0.72;-1.12;0.05;0.737972;-0.673317;0.006206;90.8;0.0;0.0;2.0;0.0;0.0
4.0;1753875305.150152;17.021187;0.71;-1.1;0.11;0.734399;-0.673484;0.00588;91.1;0.0;0.0;2.0;0.0;0.0
4.0;1753875305.154757;17.068284;0.71;-1.09;0.12;0.733424;-0.675218;0.006449;88.9;0.0;0.0;2.0;0.0;0.0
4.0;1753875305.159362;17.048647;0.71;-1.15;0.11;0.736241;-0.674038;0.006723;90.5;0.0;0.0;2.0;0.0;0.0
4.0;1753875305.163967;17.019886;0.69;-1.14;0.12;0.736226;-0.675336;0.003892;91.3;0.0;0.0;2.0;0.0;0.0
4.0;1753875305.168572;17.007196;0.64;-1.16;0.13;0.739047;-0.675504;0.005687;90.7;0.0;0.0;2.0;0.0;0.0
4.0;1753875305.173177;17.052062;0.7;-1.13;0.1;0.734516;-0.673796;0.005662;90.1;0.0;0.0;2.0;0.0;0.0
4.0;1753875305.177782;17.035599;0.62;-1.17;0.07;0.732897;-0.673448;0.005533;91.3;0.0;0.0;2.0;0.0;0.0
4.0;1753875305.182387;17.035001;0.66;-1.13;0.19;0.73853;-0.674693;0.007249;90.2;0.0;0.0;2.0;0.0;0.0
4.0;1753875305.186992;17.028444;0.71;-1.05;0.1;0.739259;-0.675977;0.003291;90.9;0.0;0.0;2.0;0.0;0.0
4.0;1753875305.191598;17.074686;0.63;-1.11;0.1;0.736359;-0.675239;0.004695;91.0;0.0;0.0;2.0;0.0;0.0
4.0;1753875305.196202;17.056668;0.63;-1.15;0.13;0.735284;-0.674733;0.005024;90.8;0.0;0.0;2.0;0.0;0.0
4.0;1753875305.200808;17.016685;0.79;-1.12;0.1;0.734578;-0.674668;0.006101;90.5;0.0;0.0;2.0;0.0;0.0
4.0;1753875305.205413;17.031151;0.65;-1.14;0.11;0.735125;-0.676215;0.003562;90.2;0.0;0.0;2.0;0.0;0.0
4.0;1753875305.210018;17.022868;0.73;-1.13;0.16;0.73531;-0.672798;0.006927;90.8;0.0;0.0;2.0;0.0;0.0
4.0;1753875305.214623;17.01321;0.64;-1.17;0.06;0.736007;-0.676102;0.00622;88.5;0.0;0.0;2.0;0.0;0.0
4.0;1753875305.219228;17.038264;0.68;-1.14;0.07;0.73747;-0.674144;0.006622;90.5;0.0;0.0;2.0;0.0;0.0
4.0;1753875305.223833;17.037964;0.66;-1.13;0.01;0.734357;-0.672759;0.005929;90.4;0.0;0.0;2.0;0.0;0.0
4.0;1753875305.228438;17.038455;0.72;-1.14;0.09;0.736415;-0.67439;0.005702;91.1;0.0;0.0;2.0;0.0;0.0
4.0;1753875305.233043;17.065249;0.61;-1.08;0.05;0.73663;-0.673799;0.005932;90.2;0.0;0.0;2.0;0.0;0.0
4.0;1753875305.237648;17.035953;0.69;-1.12;0.22;0.736449;-0.67319;0.006525;90.7;0.0;0.0;2.0;0.0;0.0
4.0;1753875305.242253;17.00461;0.69;-1.14;0.1;0.737919;-0.674481;0.005224;90.3;0.0;0.0;2.0;0.0;0.0
4.0;1753875305.246858;17.018176;0.6;-1.11;0.14;0.736938;-0.673629;0.005449;90.9;0.0;0.0;2.0;0.0;0.0
4.0;1753875305.251463;17.071481;0.83;-1.18;0.11;0.736123;-0.676846;0.005786;89.5;0.0;0.0;2.0;0.0;0.0
4.0;1753875305.256068;17.065311;0.65;-1.13;0.12;0.736245;-0.675559;0.004358;89.9;0.0;0.0;2.0;0.0;0.0
4.0;1753875305.260673;16.993629;0.68;-1.2;0.09;0.736123;-0.675141;0.005366;89.6;0.0;0.0;2.0;0.0;0.0
4.0;1753875305.265278;17.005989;0.67;-1.13;0.1;0.735886;-0.67453;0.007067;89.8;0.0;0.0;2.0;0.0;0.0
4.0;1753875305.269884;17.06681;0.71;-1.09;0.09;0.735538;-0.67539;0.004444;91.3;0.0;0.0;2.0;0.0;0.0
4.0;1753875305.274488;17.040173;0.7;-1.21;0.06;0.733617;-0.675274;0.005242;89.3;0.0;0.0;2.0;0.0;0.0
4.0;1753875305.279094;17.013838;0.68;-1.2;0.03;0.736671;-0.67376;0.006224;91.0;0.0;0.0;2.0;0.0;0.0
4.0;1753875305.283698;17.039788;0.71;-1.15;0.08;0.735643;-0.674602;0.005856;91.3;0.0;0.0;2.0;0.0;0.0
4.0;1753875305.288304;17.060794;0.73;-1.14;0.13;0.736912;-0.674016;0.006525;90.5;0.0;0.0;2.0;0.0;0.0
4.0;1753875305.292909;17.015908;0.67;-1.19;0.06;0.735994;-0.674957;0.006244;89.1;0.0;0.0;2.0;0.0;0.0
4.0;1753875305.297514;17.063593;0.6;-1.11;0.2;0.734737;-0.671794;0.006179;88.3;0.0;0.0;2.0;0.0;0.0
4.0;1753875305.302119;17.039209;0.62;-1.22;0.13;0.737788;-0.673163;0.004507;90.3;0.0;0.0;2.0;0.0;0.0
4.0;1753875305.306724;17.047218;0.75;-1.09;0.15;0.737379;-0.675031;0.004526;88.5;0.0;0.0;2.0;0.0;0.0
4.0;1753875305.311329;17.029044;0.68;-1.16;0.13;0.737629;-0.674007;0.005231;90.6;0.0;0.0;2.0;0.0;0.0
4.0;1753875305.315934;17.016723;0.64;-1.08;0.12;0.739278;-0.674536;0.007239;89.2;0.0;0.0;2.0;0.0;0.0
4.0;1753875305.320539;17.026266;0.67;-1.11;0.14;0.736952;-0.673457;0.005814;89.2;0.0;0.0;2.0;0.0;0.0
4.0;1753875305.325144;17.019037;0.65;-1.16;0.11;0.736921;-0.67556;0.006878;90.8;0.0;0.0;2.0;0.0;0.0
4.0;1753875305.329749;16.992195;0.63;-1.14;0.04;0.73534;-0.675638;0.00592;89.6;0.0;0.0;2.0;0.0;0.0
4.0;1753875305.334354;17.019931;0.66;-1.18;0.12;0.738316;-0.674633;0.003376;90.0;0.0;0.0;2.0;0.0;0.0
4.0;1753875305.338959;17.023236;0.72;-1.13;0.12;0.735537;-0.673621;0.005823;91.0;0.0;0.0;2.0;0.0;0.0
4.0;1753875305.343564;17.010428;0.63;-1.19;0.04;0.734932;-0.675417;0.005588;91.6;0.0;0.0;2.0;0.0;0.0
4.0;1753875305.348169;16.975087;0.77;-1.11;0.11;0.734302;-0.675201;0.006133;90.7;0.0;0.0;2.0;0.0;0.0
4.0;1753875305.352774;17.040971;0.69;-1.16;0.13;0.736386;-0.673587;0.007211;88.8;0.0;0.0;2.0;0.0;0.0
4.0;1753875305.35738;17.023994;0.59;-1.13;0.07;0.735379;-0.673029;0.004862;89.9;0.0;0.0;2.0;0.0;0.0
4.0;1753875305.361984;17.032846;0.7;-1.09;0.06;0.73895;-0.673066;0.004952;87.3;0.0;0.0;2.0;0.0;0.0
4.0;1753875305.36659;17.059617;0.64;-1.13;0.08;0.736256;-0.674979;0.005773;88.3;0.0;0.0;2.0;0.0;0.0
4.0;1753875305.371194;16.985785;0.69;-1.12;0.07;0.73428;-0.673644;0.004957;88.2;0.0;0.0;2.0;0.0;0.0
4.0;1753875305.3758;17.031002;0.67;-1.14;0.1;0.738958;-0.673723;0.005954;90.1;0.0;0.0;2.0;0.0;0.0
4.0;1753875305.380405;16.999237;0.68;-1.12;0.07;0.735743;-0.672703;0.006895;89.9;0.0;0.0;2.0;0.0;0.0
4.0;1753875305.38501;16.991722;0.69;-1.11;0.05;0.73564;-0.671779;0.006492;87.6;0.0;0.0;2.0;0.0;0.0
4.0;1753875305.389615;17.018397;0.65;-1.15;0.05;0.737521;-0.674496;0.006517;89.8;0.0;0.0;2.0;0.0;0.0
4.0;1753875305.39422;17.053949;0.74;-1.14;0.02;0.738108;-0.673273;0.004596;89.8;0.0;0.0;2.0;0.0;0.0
4.0;1753875305.398825;17.068044;0.6;-1.09;0.12;0.738475;-0.673885;0.006478;89.9;0.0;0.0;2.0;0.0;0.0
4.0;1753875305.40343;17.022504;0.58;-1.13;0.03;0.73769;-0.675773;0.005596;89.3;0.0;0.0;2.0;0.0;0.0
4.0;1753875305.408035;17.047206;0.66;-1.17;0.01;0.738493;-0.674929;0.003768;90.1;0.0;0.0;2.0;0.0;0.0
4.0;1753875305.41264;17.047256;0.73;-1.14;0.1;0.73786;-0.673445;0.004679;88.3;0.0;0.0;2.0;0.0;0.0
4.0;1753875305.417245;17.023256;0.67;-1.2;0.02;0.739434;-0.673015;0.006949;89.4;0.0;0.0;2.0;0.0;0.0
4.0;1753875305.42185;17.064129;0.68;-1.19;0.06;0.73558;-0.672735;0.00509;88.8;0.0;0.0;2.0;0.0;0.0
4.0;1753875305.426455;17.030922;0.77;-1.09;0.03;0.737667;-0.673575;0.005952;89.7;0.0;0.0;2.0;0.0;0.0
4.0;1753875305.43106;17.032556;0.68;-1.12;0.12;0.734718;-0.675604;0.006733;89.2;0.0;0.0;2.0;0.0;0.0
4.0;1753875305.435665;17.041784;0.64;-1.17;0.05;0.737141;-0.674495;0.006519;91.2;0.0;0.0;2.0;0.0;0.0
4.0;1753875305.44027;17.07979;0.62;-1.11;0.18;0.737182;-0.67467;0.005449;90.3;0.0;0.0;2.0;0.0;0.0
4.0;1753875305.444876;17.070153;0.67;-1.17;0.06;0.736838;-0.673364;0.007041;89.1;0.0;0.0;2.0;0.0;0.0
4.0;1753875305.44948;16.987153;0.83;-1.14;0.11;0.738371;-0.673876;0.00428;90.6;0.0;0.0;2.0;0.0;0.0
4.0;1753875305.454086;17.068081;0.75;-1.18;0.04;0.738461;-0.672005;0.004216;88.5;0.0;0.0;2.0;0.0;0.0
4.0;1753875305.458691;17.035503;0.69;-1.16;0.01;0.737229;-0.671942;0.005026;91.1;0.0;0.0;2.0;0.0;0.0
4.0;1753875305.463296;17.002782;0.68;-1.13;0.07;0.738335;-0.674226;0.006082;89.6;0.0;0.0;2.0;0.0;0.0
4.0;1753875305.467901;17.027751;0.6;-1.16;0.05;0.736927;-0.674438;0.005381;90.2;0.0;0.0;2.0;0.0;0.0
4.0;1753875305.472506;17.065194;0.59;-1.17;0.05;0.737488;-0.674466;0.004602;89.6;0.0;0.0;2.0;0.0;0.0
4.0;1753875305.477111;17.033248;0.72;-1.16;0.09;0.738587;-0.674018;0.004568;89.6;0.0;0.0;2.0;0.0;0.0
4.0;1753875305.481716;17.022058;0.61;-1.19;0.09;0.736277;-0.673946;0.005296;88.6;0.0;0.0;2.0;0.0;0.0
4.0;1753875305.486321;17.03578;0.59;-1.2;0.1;0.734142;-0.674297;0.006237;90.1;0.0;0.0;2.0;0.0;0.0
4.0;1753875305.490926;17.043823;0.75;-1.13;0.12;0.736596;-0.673569;0.004481;89.7;0.0;0.0;2.0;0.0;0.0
4.0;1753875305.495531;17.008184;0.72;-1.23;0.08;0.736792;-0.673056;0.003638;89.0;0.0;0.0;2.0;0.0;0.0
4.0;1753875305.500136;17.032921;0.6;-1.19;0.07;0.736982;-0.674343;0.005125;90.6;0.0;0.0;2.0;0.0;0.0
4.0;1753875305.504741;17.008514;0.63;-1.18;-0.01;0.734644;-0.67321;0.005446;88.3;0.0;0.0;2.0;0.0;0.0
4.0;1753875305.509346;17.052068;0.8;-1.14;0.12;0.737418;-0.673195;0.005284;88.2;0.0;0.0;2.0;0.0;0.0
4.0;1753875305.513951;17.017191;0.73;-1.1;0.06;0.733897;-0.67501;0.004883;88.5;0.0;0.0;2.0;0.0;0.0
4.0;1753875305.518556;17.053504;0.63;-1.22;0.06;0.736722;-0.674908;0.005785;90.6;0.0;0.0;2.0;0.0;0.0
4.0;1753875305.523162;17.061779;0.59;-1.14;0.08;0.736709;-0.672793;0.004447;89.5;0.0;0.0;2.0;0.0;0.0
4.0;1753875305.527766;17.053182;0.62;-1.19;0.08;0.738737;-0.673045;0.005307;88.6;0.0;0.0;2.0;0.0;0.0
4.0;1753875305.532372;17.0252;0.62;-1.16;0.04;0.736523;-0.671948;0.006397;88.9;0.0;0.0;2.0;0.0;0.0
4.0;1753875305.536976;17.038961;0.77;-1.19;0.04;0.736711;-0.67378;0.004845;89.3;0.0;0.0;2.0;0.0;0.0
4.0;1753875305.541582;17.047789;0.61;-1.14;0.05;0.737253;-0.673332;0.005663;89.8;0.0;0.0;2.0;0.0;0.0
4.0;1753875305.546187;17.030899;0.55;-1.16;0.03;0.740057;-0.673392;0.006636;88.5;0.0;0.0;2.0;0.0;0.0
4.0;1753875305.550792;17.017655;0.63;-1.19;-0.0;0.73577;-0.673367;0.005762;90.5;0.0;0.0;2.0;0.0;0.0
4.0;1753875305.555397;17.032439;0.68;-1.15;0.11;0.735824;-0.673461;0.005825;88.4;0.0;0.0;2.0;0.0;0.0
4.0;1753875305.560002;17.043024;0.53;-1.13;0.05;0.739203;-0.67453;0.005103;89.7;0.0;0.0;2.0;0.0;0.0
4.0;1753875305.564607;17.054495;0.56;-1.18;0.04;0.736497;-0.673668;0.007251;89.3;0.0;0.0;2.0;0.0;0.0
4.0;1753875305.569212;17.024266;0.68;-1.21;0.02;0.737688;-0.674491;0.005122;87.6;0.0;0.0;2.0;0.0;0.0
4.0;1753875305.573817;17.015779;0.68;-1.16;0.03;0.736667;-0.674781;0.004083;87.8;0.0;0.0;2.0;0.0;0.0
4.0;1753875305.578422;17.069417;0.67;-1.16;0.03;0.739093;-0.672114;0.0051;88.3;0.0;0.0;2.0;0.0;0.0
4.0;1753875305.583027;17.019666;0.54;-1.13;-0.03;0.736326;-0.673248;0.00525;88.9;0.0;0.0;2.0;0.0;0.0
4.0;1753875305.587632;17.01645;0.67;-1.22;-0.03;0.735902;-0.672815;0.004846;88.5;0.0;0.0;2.0;0.0;0.0
4.0;1753875305.592237;17.04154;0.75;-1.2;0.09;0.736242;-0.673651;0.005571;87.5;0.0;0.0;2.0;0.0;0.0
4.0;1753875305.596842;17.020448;0.64;-1.19;0.01;0.737632;-0.67373;0.005908;89.3;0.0;0.0;2.0;0.0;0.0
4.0;1753875305.601447;17.037997;0.69;-1.15;0.05;0.734598;-0.675112;0.005243;88.3;0.0;0.0;2.0;0.0;0.0
4.0;1753875305.606052;17.055842;0.65;-1.21;0.08;0.738641;-0.673219;0.004749;90.7;0.0;0.0;2.0;0.0;0.0
4.0;1753875305.610658;17.057982;0.61;-1.19;0.07;0.737881;-0.674175;0.005682;90.1;0.0;0.0;2.0;0.0;0.0
4.0;1753875305.615262;17.031131;0.7;-1.14;0.03;0.73647;-0.673149;0.005305;88.2;0.0;0.0;2.0;0.0;0.0
4.0;1753875305.619868;17.054635;0.74;-1.17;0.08;0.736171;-0.674129;0.005127;89.3;0.0;0.0;2.0;0.0;0.0
4.0;1753875305.624472;17.036261;0.72;-1.15;0.08;0.737654;-0.674734;0.005762;88.1;0.0;0.0;2.0;0.0;0.0
4.0;1753875305.629078;17.035451;0.55;-1.15;0.07;0.73544;-0.675458;0.004519;90.5;0.0;0.0;2.0;0.0;0.0
4.0;1753875305.633683;17.027497;0.61;-1.14;0.05;0.735617;-0.674363;0.006549;88.6;0.0;0.0;2.0;0.0;0.0
4.0;1753875305.638288;17.013243;0.66;-1.2;0.08;0.739499;-0.674214;0.004154;88.6;0.0;0.0;2.0;0.0;0.0
4.0;1753875305.642893;17.040109;0.57;-1.15;0.04;0.737809;-0.671906;0.004603;90.1;0.0;0.0;2.0;0.0;0.0
4.0;1753875305.647498;17.007158;0.75;-1.18;0.05;0.737766;-0.673649;0.004265;90.7;0.0;0.0;2.0;0.0;0.0
4.0;1753875305.652103;17.019004;0.6;-1.17;0.02;0.737181;-0.673801;0.005668;88.3;0.0;0.0;2.0;0.0;0.0
4.0;1753875305.656708;17.01941;0.66;-1.15;-0.06;0.735501;-0.674299;0.004614;87.1;0.0;0.0;2.0;0.0;0.0
4.0;1753875305.661313;17.020792;0.63;-1.19;0.04;0.733414;-0.673191;0.00598;88.6;0.0;0.0;2.0;0.0;0.0
4.0;1753875305.665918;17.040947;0.83;-1.19;0.07;0.736991;-0.674038;0.004795;89.6;0.0;0.0;2.0;0.0;0.0
4.0;1753875305.670523;17.077266;0.74;-1.2;-0.05;0.73742;-0.671954;0.006414;89.4;0.0;0.0;2.0;0.0;0.0
4.0;1753875305.675128;17.027988;0.71;-1.16;0.05;0.73795;-0.674036;0.003667;90.8;0.0;0.0;2.0;0.0;0.0
4.0;1753875305.679733;17.006666;0.59;-1.16;-0.02;0.738387;-0.672225;0.004946;89.9;0.0;0.0;2.0;0.0;0.0
4.0;1753875305.684338;17.040532;0.62;-1.16;0.06;0.736231;-0.671951;0.004903;89.1;0.0;0.0;2.0;0.0;0.0
4.0;1753875305.688944;17.063238;0.58;-1.12;0.05;0.736599;-0.673292;0.004365;89.0;0.0;0.0;2.0;0.0;0.0
4.0;1753875305.693548;16.997639;0.63;-1.21;0.04;0.738397;-0.673542;0.004987;88.2;0.0;0.0;2.0;0.0;0.0
4.0;1753875305.698154;17.048867;0.69;-1.14;-0.04;0.737134;-0.674809;0.005417;87.5;0.0;0.0;2.0;0.0;0.0
4.0;1753875305.702758;17.019057;0.68;-1.2;0.1;0.737403;-0.672527;0.006345;88.4;0.0;0.0;2.0;0.0;0.0
4.0;1753875305.707364;17.05368;0.68;-1.23;-0.12;0.735;-0.673883;0.006011;90.1;0.0;0.0;2.0;0.0;0.0
4.0;1753875305.711969;16.994895;0.68;-1.18;0.02;0.736898;-0.673009;0.00481;89.3;0.0;0.0;2.0;0.0;0.0
4.0;1753875305.716574;17.069482;0.64;-1.2;0.02;0.738272;-0.674102;0.006025;88.2;0.0;0.0;2.0;0.0;0.0
4.0;1753875305.721179;17.013759;0.52;-1.17;-0.02;0.73699;-0.67421;0.005289;87.9;0.0;0.0;2.0;0.0;0.0
4.0;1753875305.725784;17.049631;0.66;-1.16;0.02;0.73362;-0.672556;0.004485;90.0;0.0;0.0;2.0;0.0;0.0
4.0;1753875305.730389;17.011938;0.65;-1.21;0.07;0.737069;-0.671738;0.00535;86.7;0.0;0.0;2.0;0.0;0.0
4.0;1753875305.734994;17.021561;0.57;-1.19;-0.03;0.735231;-0.674826;0.00608;88.7;0.0;0.0;2.0;0.0;0.0
4.0;1753875305.739599;17.070578;0.55;-1.17;0.03;0.738799;-0.673189;0.005477;87.8;0.0;0.0;2.0;0.0;0.0
4.0;1753875305.744204;17.088576;0.63;-1.19;0.04;0.736891;-0.672501;0.005317;87.8;0.0;0.0;2.0;0.0;0.0
4.0;1753875305.748809;17.035472;0.61;-1.18;0.03;0.738435;-0.67411;0.005601;86.5;0.0;0.0;2.0;0.0;0.0
4.0;1753875305.753414;17.018091;0.64;-1.21;0.1;0.736047;-0.673617;0.00513;88.6;0.0;0.0;2.0;0.0;0.0
4.0;1753875305.758019;17.029483;0.64;-1.19;0.04;0.737542;-0.671894;0.006552;88.8;0.0;0.0;2.0;0.0;0.0
4.0;1753875305.762624;17.030101;0.62;-1.18;-0.08;0.738493;-0.675116;0.003624;88.1;0.0;0.0;2.0;0.0;0.0
4.0;1753875305.767229;17.027987;0.66;-1.18;0.04;0.734451;-0.672945;0.005412;89.3;0.0;0.0;2.0;0.0;0.0
4.0;1753875305.771834;17.034453;0.58;-1.19;0.04;0.737898;-0.673757;0.004502;88.8;0.0;0.0;2.0;0.0;0.0
4.0;1753875305.77644;17.05142;0.69;-1.21;0.04;0.737671;-0.67051;0.005491;88.1;0.0;0.0;2.0;0.0;0.0
4.0;1753875305.781044;17.037296;0.6;-1.13;-0.01;0.738973;-0.671241;0.00629;88.0;0.0;0.0;2.0;0.0;0.0
4.0;1753875305.78565;17.032755;0.74;-1.22;0.04;0.73775;-0.672503;0.007258;88.2;0.0;0.0;2.0;0.0;0.0
4.0;1753875305.790254;17.028568;0.8;-1.18;0.02;0.736478;-0.67479;0.004118;87.6;0.0;0.0;2.0;0.0;0.0
4.0;1753875305.79486;16.997471;0.63;-1.12;0.02;0.737045;-0.672813;0.005964;88.6;0.0;0.0;2.0;0.0;0.0
4.0;1753875305.799465;17.008251;0.65;-1.18;-0.01;0.736768;-0.672862;0.00523;87.4;0.0;0.0;2.0;0.0;0.0
4.0;1753875305.80407;17.023986;0.71;-1.17;0.04;0.73652;-0.671881;0.004167;86.0;0.0;0.0;2.0;0.0;0.0
4.0;1753875305.808675;16.989256;0.54;-1.21;0.08;0.737377;-0.673611;0.005528;87.9;0.0;0.0;2.0;0.0;0.0
4.0;1753875305.81328;17.027778;0.45;-1.15;-0.03;0.738649;-0.673063;0.005226;87.8;0.0;0.0;2.0;0.0;0.0
4.0;1753875305.817885;17.036695;0.64;-1.17;-0.02;0.739021;-0.673237;0.006865;88.4;0.0;0.0;2.0;0.0;0.0
4.0;1753875305.82249;17.027466;0.64;-1.15;0.02;0.737155;-0.673592;0.006442;87.7;0.0;0.0;2.0;0.0;0.0
4.0;1753875305.828;17.035156;0.63;-1.19;0.0;0.737734;-0.672952;0.005246;88.0;0.0;0.0;2.0;0.0;0.0
4.0;1753875305.832605;17.014495;0.6;-1.23;0.04;0.740114;-0.673025;0.0059;87.9;0.0;0.0;2.0;0.0;0.0
4.0;1753875305.83721;17.029739;0.61;-1.21;-0.03;0.736385;-0.670589;0.005263;87.8;0.0;0.0;2.0;0.0;0.0
4.0;1753875305.841815;16.997529;0.59;-1.18;0.09;0.738797;-0.674548;0.004326;88.1;0.0;0.0;2.0;0.0;0.0
4.0;1753875305.84642;17.031096;0.7;-1.2;-0.04;0.736607;-0.673012;0.005702;87.1;0.0;0.0;2.0;0.0;0.0
4.0;1753875305.851025;17.066163;0.66;-1.17;0.0;0.738373;-0.671421;0.005692;89.6;0.0;0.0;2.0;0.0;0.0
4.0;1753875305.85563;17.032356;0.64;-1.17;0.07;0.736729;-0.672467;0.005965;90.3;0.0;0.0;2.0;0.0;0.0
4.0;1753875305.860236;17.0547;0.63;-1.16;0.04;0.735701;-0.671257;0.005777;89.6;0.0;0.0;2.0;0.0;0.0
4.0;1753875305.86484;17.01854;0.66;-1.11;0.07;0.738866;-0.673101;0.006037;89.4;0.0;0.0;2.0;0.0;0.0
4.0;1753875305.869446;17.014502;0.71;-1.1;0.1;0.738134;-0.671172;0.005545;89.1;0.0;0.0;2.0;0.0;0.0
4.0;1753875305.87405;17.067811;0.68;-1.17;0.06;0.738749;-0.672169;0.005076;87.7;0.0;0.0;2.0;0.0;0.0
4.0;1753875305.878656;17.053892;0.61;-1.16;0.06;0.738697;-0.671027;0.005943;89.0;0.0;0.0;2.0;0.0;0.0
4.0;1753875305.883261;17.069344;0.64;-1.16;0.07;0.737307;-0.672784;0.004324;90.1;0.0;0.0;2.0;0.0;0.0
4.0;1753875305.887866;17.079888;0.58;-1.1;0.09;0.737337;-0.673046;0.00532;89.2;0.0;0.0;2.0;0.0;0.0
4.0;1753875305.892471;17.033397;0.61;-1.13;0.1;0.737621;-0.672936;0.006925;90.6;0.0;0.0;2.0;0.0;0.0
4.0;1753875305.897076;17.039449;0.59;-1.19;0.12;0.738671;-0.671546;0.005817;87.6;0.0;0.0;2.0;0.0;0.0
4.0;1753875305.901681;17.062061;0.67;-1.06;0.07;0.738154;-0.671263;0.006324;90.0;0.0;0.0;2.0;0.0;0.0
4.0;1753875305.906286;17.096124;0.61;-1.18;0.11;0.737259;-0.672182;0.004329;88.8;0.0;0.0;2.0;0.0;0.0
4.0;1753875305.910891;17.041373;0.66;-1.15;0.11;0.739358;-0.672523;0.004711;89.6;0.0;0.0;2.0;0.0;0.0
4.0;1753875305.915496;17.062888;0.55;-1.12;0.1;0.73561;-0.671841;0.005224;88.0;0.0;0.0;2.0;0.0;0.0
4.0;1753875305.920101;17.018355;0.6;-1.19;-0.04;0.738959;-0.673437;0.005606;90.7;0.0;0.0;2.0;0.0;0.0
4.0;1753875305.92449;17.050781;0.63;-1.12;0.14;0.737612;-0.672708;0.005734;90.0;0.0;0.0;2.0;0.0;0.0
4.0;1753875305.929095;17.039932;0.62;-1.14;0.11;0.739167;-0.674646;0.005589;92.4;0.0;0.0;2.0;0.0;0.0
4.0;1753875305.9337;17.061044;0.58;-1.07;0.07;0.737777;-0.672795;0.0057;89.4;0.0;0.0;2.0;0.0;0.0
4.0;1753875305.938305;17.088128;0.66;-1.18;0.1;0.738485;-0.672382;0.00617;89.6;0.0;0.0;2.0;0.0;0.0
4.0;1753875305.94291;17.04388;0.61;-1.17;0.15;0.736193;-0.673049;0.006525;91.3;0.0;0.0;2.0;0.0;0.0
4.0;1753875305.947515;17.052644;0.63;-1.22;0.02;0.739331;-0.672575;0.005147;92.4;0.0;0.0;2.0;0.0;0.0
4.0;1753875305.95212;17.008407;0.62;-1.14;0.01;0.735471;-0.673607;0.007433;96.7;0.0;0.0;2.0;0.0;0.0
4.0;1753875305.956725;17.041888;0.64;-1.24;0.16;0.734418;-0.674748;0.007861;91.0;0.0;0.0;2.0;0.0;0.0
4.0;1753875305.96133;17.114125;0.65;-1.17;0.14;0.735859;-0.67217;0.006968;94.8;0.0;0.0;2.0;0.0;0.0
4.0;1753875305.965936;17.081434;0.64;-1.24;0.11;0.735163;-0.67195;0.006666;93.1;0.0;0.0;2.0;0.0;0.0
4.0;1753875305.97054;17.057961;0.66;-1.19;0.11;0.735172;-0.674598;0.007779;96.2;0.0;0.0;2.0;0.0;0.0
4.0;1753875305.97777;17.050781;0.63;-1.26;0.07;0.736148;-0.674172;0.00732;95.0;0.0;0.0;2.0;0.0;0.0
4.0;1753875305.983757;17.007812;0.63;-1.12;0.07;0.738832;-0.672342;0.004514;91.0;0.0;0.0;2.0;0.0;0.0
4.0;1753875305.985212;17.007812;0.7;-1.05;0.0;0.7381;-0.672586;0.00549;91.0;0.0;0.0;2.0;0.0;0.0
4.0;1753875305.989715;17.007812;0.63;-1.19;0.07;0.7381;-0.672586;0.00549;91.0;0.0;0.0;2.0;0.0;0.0
4.0;1753875305.994345;17.007812;0.7;-1.12;0.07;0.737978;-0.673562;0.005246;91.0;0.0;0.0;2.0;0.0;0.0
4.0;1753875305.99895;17.006523;0.66;-1.11;-0.03;0.738846;-0.672495;0.005539;90.7;0.0;0.0;2.0;0.0;0.0
4.0;1753875306.003555;16.980468;0.74;-0.94;0.07;0.737854;-0.673081;0.006362;91.5;0.0;0.0;2.0;0.0;0.0
4.0;1753875306.00816;17.012232;0.63;-1.07;0.1;0.740134;-0.674739;0.005586;90.4;0.0;0.0;2.0;0.0;0.0
4.0;1753875306.012765;17.011413;0.77;-1.16;0.14;0.737773;-0.67338;0.006184;90.7;0.0;0.0;2.0;0.0;0.0
4.0;1753875306.01737;16.997299;0.67;-1.1;0.08;0.738266;-0.673024;0.004547;90.4;0.0;0.0;2.0;0.0;0.0
4.0;1753875306.021975;17.002071;0.7;-1.15;0.0;0.738017;-0.671773;0.005724;91.1;0.0;0.0;2.0;0.0;0.0
4.0;1753875306.02658;17.0077;0.84;-1.18;0.08;0.738562;-0.673025;0.005563;90.1;0.0;0.0;2.0;0.0;0.0
4.0;1753875306.031186;17.00447;0.74;-1.13;0.02;0.738933;-0.674975;0.006112;91.1;0.0;0.0;2.0;0.0;0.0
4.0;1753875306.03579;17.003701;0.77;-1.1;0.09;0.738526;-0.672538;0.005548;91.1;0.0;0.0;2.0;0.0;0.0
4.0;1753875306.040396;16.997225;0.51;-1.1;0.09;0.740996;-0.674264;0.005737;91.4;0.0;0.0;2.0;0.0;0.0
4.0;1753875306.045;17.004891;0.59;-1.09;0.08;0.738141;-0.67315;0.005072;91.2;0.0;0.0;2.0;0.0;0.0
4.0;1753875306.049606;17.01505;0.64;-1.04;0.09;0.739422;-0.671867;0.005068;91.4;0.0;0.0;2.0;0.0;0.0
4.0;1753875306.054211;17.026728;0.74;-1.07;0.03;0.737871;-0.672773;0.005326;91.1;0.0;0.0;2.0;0.0;0.0
4.0;1753875306.058816;17.024038;0.84;-1.17;0.07;0.738534;-0.673882;0.005418;90.5;0.0;0.0;2.0;0.0;0.0
4.0;1753875306.063421;17.025786;0.71;-1.11;0.02;0.738878;-0.673016;0.004634;90.6;0.0;0.0;2.0;0.0;0.0
4.0;1753875306.068026;17.012816;0.76;-1.08;0.07;0.737318;-0.672941;0.004718;91.4;0.0;0.0;2.0;0.0;0.0
4.0;1753875306.072631;17.014473;0.67;-1.08;0.08;0.737846;-0.671998;0.004247;90.7;0.0;0.0;2.0;0.0;0.0
4.0;1753875306.077236;17.003112;0.66;-1.14;0.08;0.737682;-0.673241;0.006194;90.2;0.0;0.0;2.0;0.0;0.0
4.0;1753875306.081841;17.018522;0.74;-1.2;0.16;0.738077;-0.673394;0.006192;91.2;0.0;0.0;2.0;0.0;0.0
4.0;1753875306.086446;16.992695;0.73;-1.15;0.04;0.738627;-0.673045;0.005032;90.1;0.0;0.0;2.0;0.0;0.0
4.0;1753875306.091051;16.993552;0.57;-1.15;0.06;0.739072;-0.673832;0.004307;91.3;0.0;0.0;2.0;0.0;0.0
4.0;1753875306.095656;17.005626;0.79;-1.07;0.07;0.739649;-0.673304;0.003666;91.4;0.0;0.0;2.0;0.0;0.0
4.0;1753875306.100261;17.008035;0.62;-1.12;0.08;0.737725;-0.674065;0.00475;91.5;0.0;0.0;2.0;0.0;0.0
4.0;1753875306.104866;16.994496;0.59;-1.24;0.09;0.736728;-0.673603;0.00557;90.8;0.0;0.0;2.0;0.0;0.0
4.0;1753875306.109471;16.995824;0.7;-1.1;0.07;0.738731;-0.671277;0.005684;91.2;0.0;0.0;2.0;0.0;0.0
4.0;1753875306.114076;17.013528;0.75;-1.07;-0.01;0.73782;-0.673697;0.005645;90.8;0.0;0.0;2.0;0.0;0.0
4.0;1753875306.118682;16.995409;0.6;-1.21;0.09;0.739142;-0.673814;0.005183;90.4;0.0;0.0;2.0;0.0;0.0
4.0;1753875306.123286;16.996142;0.77;-1.11;0.06;0.738668;-0.672938;0.005732;91.5;0.0;0.0;2.0;0.0;0.0
4.0;1753875306.127892;17.008291;0.65;-1.19;0.12;0.738096;-0.673603;0.004375;91.0;0.0;0.0;2.0;0.0;0.0
4.0;1753875306.132496;17.009554;0.72;-1.2;0.01;0.739169;-0.674082;0.0041;90.8;0.0;0.0;2.0;0.0;0.0
4.0;1753875306.137102;17.013874;0.72;-1.08;0.09;0.738639;-0.673687;0.004515;91.4;0.0;0.0;2.0;0.0;0.0
4.0;1753875306.141707;17.005706;0.61;-1.15;0.14;0.737337;-0.675152;0.003945;91.9;0.0;0.0;2.0;0.0;0.0
4.0;1753875306.146312;16.988203;0.63;-1.08;0.07;0.738658;-0.674877;0.006427;91.1;0.0;0.0;2.0;0.0;0.0
4.0;1753875306.150917;16.996988;0.62;-1.12;0.08;0.738584;-0.671894;0.004855;90.6;0.0;0.0;2.0;0.0;0.0
4.0;1753875306.155522;17.0004;0.67;-1.05;0.04;0.740524;-0.670923;0.005397;90.7;0.0;0.0;2.0;0.0;0.0
4.0;1753875306.160127;17.022413;0.67;-1.2;0.03;0.738491;-0.673263;0.005245;91.7;0.0;0.0;2.0;0.0;0.0
4.0;1753875306.164732;17.000928;0.65;-1.12;0.01;0.739396;-0.674994;0.005416;90.8;0.0;0.0;2.0;0.0;0.0
4.0;1753875306.169337;16.990184;0.62;-1.12;0.12;0.7384;-0.675476;0.005679;90.9;0.0;0.0;2.0;0.0;0.0
4.0;1753875306.173942;17.003449;0.78;-1.09;0.11;0.739945;-0.672131;0.005662;91.0;0.0;0.0;2.0;0.0;0.0
4.0;1753875306.178547;17.002785;0.75;-1.07;0.03;0.739801;-0.672848;0.0049;91.0;0.0;0.0;2.0;0.0;0.0
4.0;1753875306.183152;17.012416;0.6;-1.13;-0.0;0.73933;-0.673641;0.005564;91.1;0.0;0.0;2.0;0.0;0.0
4.0;1753875306.187757;16.995165;0.63;-1.06;0.14;0.738179;-0.672942;0.00513;91.5;0.0;0.0;2.0;0.0;0.0
4.0;1753875306.192362;17.02264;0.57;-1.11;-0.03;0.737783;-0.673786;0.004736;91.2;0.0;0.0;2.0;0.0;0.0
4.0;1753875306.196967;16.97964;0.65;-1.11;0.05;0.7405;-0.672021;0.005149;91.3;0.0;0.0;2.0;0.0;0.0
4.0;1753875306.201572;17.007186;0.59;-1.12;0.04;0.739402;-0.674464;0.00502;90.6;0.0;0.0;2.0;0.0;0.0
4.0;1753875306.206178;17.009244;0.7;-1.03;0.07;0.738855;-0.673543;0.004718;91.5;0.0;0.0;2.0;0.0;0.0
4.0;1753875306.210782;17.005878;0.65;-1.06;0.05;0.740433;-0.672248;0.005393;90.5;0.0;0.0;2.0;0.0;0.0
4.0;1753875306.215388;17.010202;0.7;-1.14;0.05;0.738223;-0.672224;0.004982;91.3;0.0;0.0;2.0;0.0;0.0
4.0;1753875306.219993;17.015011;0.58;-1.23;0.05;0.740369;-0.671954;0.005605;90.8;0.0;0.0;2.0;0.0;0.0
4.0;1753875306.224598;17.018775;0.73;-1.09;0.03;0.739571;-0.672876;0.005571;90.3;0.0;0.0;2.0;0.0;0.0
4.0;1753875306.229203;16.991947;0.69;-1.11;0.07;0.738239;-0.671896;0.005753;90.2;0.0;0.0;2.0;0.0;0.0
4.0;1753875306.233808;17.013794;0.61;-1.15;0.04;0.738609;-0.674494;0.005189;90.8;0.0;0.0;2.0;0.0;0.0
4.0;1753875306.238413;17.01641;0.7;-1.11;0.05;0.73975;-0.672225;0.004327;91.1;0.0;0.0;2.0;0.0;0.0
4.0;1753875306.243018;17.015568;0.59;-1.1;0.04;0.739021;-0.673741;0.005849;90.3;0.0;0.0;2.0;0.0;0.0
4.0;1753875306.247623;17.014244;0.65;-1.12;0.06;0.739481;-0.671761;0.00531;90.8;0.0;0.0;2.0;0.0;0.0
4.0;1753875306.252228;17.001161;0.55;-1.13;0.09;0.740516;-0.67346;0.005714;91.2;0.0;0.0;2.0;0.0;0.0
4.0;1753875306.256833;17.007471;0.56;-1.16;0.05;0.738762;-0.675391;0.004471;91.1;0.0;0.0;2.0;0.0;0.0
4.0;1753875306.261438;17.008943;0.71;-1.12;0.11;0.739228;-0.67435;0.004684;90.4;0.0;0.0;2.0;0.0;0.0
4.0;1753875306.266043;16.990746;0.65;-1.12;0.09;0.74023;-0.672651;0.005773;89.7;0.0;0.0;2.0;0.0;0.0
4.0;1753875306.270648;16.988815;0.69;-1.14;0.14;0.740236;-0.671442;0.005217;90.9;0.0;0.0;2.0;0.0;0.0
4.0;1753875306.275253;16.991903;0.58;-1.17;0.07;0.740711;-0.671154;0.004385;90.9;0.0;0.0;2.0;0.0;0.0
4.0;1753875306.279858;17.003926;0.66;-1.25;0.03;0.739755;-0.67431;0.005707;90.6;0.0;0.0;2.0;0.0;0.0
4.0;1753875306.284464;17.020271;0.56;-1.14;0.02;0.740453;-0.674436;0.005336;91.0;0.0;0.0;2.0;0.0;0.0
4.0;1753875306.289068;16.99814;0.68;-1.1;0.09;0.740547;-0.672387;0.006625;91.4;0.0;0.0;2.0;0.0;0.0
4.0;1753875306.293674;17.006922;0.6;-1.06;0.03;0.739651;-0.671364;0.005698;91.2;0.0;0.0;2.0;0.0;0.0
4.0;1753875306.299;17.007812;0.63;-1.12;0.07;0.739686;-0.672464;0.005368;91.0;0.0;0.0;2.0;0.0;0.0
4.0;1753875306.303605;16.994107;0.68;-1.12;-0.0;0.739823;-0.672972;0.005246;90.8;0.0;0.0;2.0;0.0;0.0
4.0;1753875306.30821;17.012659;0.68;-1.21;-0.02;0.739235;-0.674411;0.005328;90.9;0.0;0.0;2.0;0.0;0.0
4.0;1753875306.312815;16.997123;0.6;-1.12;0.04;0.738772;-0.673818;0.006472;90.8;0.0;0.0;2.0;0.0;0.0
4.0;1753875306.31742;16.993395;0.67;-1.13;0.06;0.738202;-0.671412;0.005039;91.2;0.0;0.0;2.0;0.0;0.0
4.0;1753875306.322025;17.019145;0.75;-1.16;0.05;0.740125;-0.672271;0.006277;91.2;0.0;0.0;2.0;0.0;0.0
4.0;1753875306.32663;17.009607;0.62;-1.2;0.09;0.737676;-0.672155;0.006111;91.0;0.0;0.0;2.0;0.0;0.0
4.0;1753875306.331236;17.005105;0.62;-1.18;0.02;0.740457;-0.672454;0.005459;90.7;0.0;0.0;2.0;0.0;0.0
4.0;1753875306.33584;17.018223;0.67;-1.05;0.05;0.738348;-0.671759;0.005238;90.9;0.0;0.0;2.0;0.0;0.0
4.0;1753875306.340446;17.02268;0.63;-1.21;0.01;0.737355;-0.670111;0.00587;91.4;0.0;0.0;2.0;0.0;0.0
4.0;1753875306.3472;17.007812;0.63;-1.19;0.07;0.7381;-0.671854;0.005612;91.0;0.0;0.0;2.0;0.0;0.0
4.0;1753875306.351805;17.007172;0.69;-1.13;0.04;0.737899;-0.670761;0.005663;90.9;0.0;0.0;2.0;0.0;0.0
4.0;1753875306.35641;16.995214;0.56;-1.17;0.11;0.738542;-0.671269;0.005784;91.0;0.0;0.0;2.0;0.0;0.0
4.0;1753875306.361015;16.999963;0.68;-1.19;0.06;0.738279;-0.672673;0.004373;91.3;0.0;0.0;2.0;0.0;0.0
4.0;1753875306.36562;17.015277;0.58;-1.2;0.04;0.738955;-0.670488;0.005092;91.2;0.0;0.0;2.0;0.0;0.0
4.0;1753875306.370225;17.024943;0.67;-1.19;0.14;0.738432;-0.671863;0.005073;91.0;0.0;0.0;2.0;0.0;0.0
4.0;1753875306.37483;17.03224;0.68;-1.21;0.12;0.737056;-0.672475;0.005908;90.8;0.0;0.0;2.0;0.0;0.0
4.0;1753875306.379435;17.013392;0.6;-1.16;0.16;0.736988;-0.673752;0.006765;90.7;0.0;0.0;2.0;0.0;0.0
4.0;1753875306.38404;17.013912;0.59;-1.18;0.05;0.737499;-0.672367;0.00572;90.8;0.0;0.0;2.0;0.0;0.0
4.0;1753875306.388646;17.026608;0.66;-1.21;0.02;0.737492;-0.671543;0.006535;91.1;0.0;0.0;2.0;0.0;0.0
4.0;1753875306.39325;17.004897;0.47;-1.25;0.14;0.737264;-0.670805;0.005904;90.7;0.0;0.0;2.0;0.0;0.0
4.0;1753875306.397856;17.02444;0.76;-1.2;0.08;0.738774;-0.671671;0.006264;90.7;0.0;0.0;2.0;0.0;0.0
4.0;1753875306.40246;16.982385;0.57;-1.21;0.07;0.738468;-0.672121;0.006205;91.4;0.0;0.0;2.0;0.0;0.0
4.0;1753875306.407066;17.001783;0.68;-1.22;0.04;0.736969;-0.673828;0.005327;91.1;0.0;0.0;2.0;0.0;0.0
4.0;1753875306.411671;17.009703;0.56;-1.13;0.06;0.738831;-0.670327;0.005565;90.7;0.0;0.0;2.0;0.0;0.0
4.0;1753875306.416276;17.003681;0.53;-1.23;0.1;0.73809;-0.671846;0.006434;91.7;0.0;0.0;2.0;0.0;0.0
4.0;1753875306.420881;17.006009;0.65;-1.13;0.03;0.737864;-0.671003;0.006036;91.1;0.0;0.0;2.0;0.0;0.0
4.0;1753875306.425486;17.005432;0.72;-1.23;0.05;0.738687;-0.670834;0.006521;90.7;0.0;0.0;2.0;0.0;0.0
4.0;1753875306.430091;16.983558;0.6;-1.13;0.08;0.736189;-0.671875;0.005193;91.6;0.0;0.0;2.0;0.0;0.0
4.0;1753875306.434696;17.003884;0.62;-1.2;0.06;0.738396;-0.67061;0.005186;91.6;0.0;0.0;2.0;0.0;0.0
4.0;1753875306.439301;17.010812;0.69;-1.41;0.01;0.737069;-0.673885;0.004916;91.5;0.0;0.0;2.0;0.0;0.0
4.0;1753875306.443906;17.019486;0.64;-1.36;0.09;0.740602;-0.672358;0.004932;91.0;0.0;0.0;2.0;0.0;0.0
4.0;1753875306.448511;17.018185;0.71;-1.2;0.13;0.738048;-0.672004;0.005567;90.6;0.0;0.0;2.0;0.0;0.0
4.0;1753875306.453116;17.007042;0.59;-1.23;0.1;0.737245;-0.672865;0.005375;91.4;0.0;0.0;2.0;0.0;0.0
4.0;1753875306.457721;17.00527;0.59;-1.21;0.05;0.736973;-0.67044;0.004675;91.6;0.0;0.0;2.0;0.0;0.0
4.0;1753875306.462326;17.007631;0.55;-1.26;0.04;0.738495;-0.672514;0.004446;91.4;0.0;0.0;2.0;0.0;0.0
4.0;1753875306.466931;16.978195;0.48;-1.23;0.08;0.739452;-0.672488;0.00541;91.0;0.0;0.0;2.0;0.0;0.0
4.0;1753875306.471536;17.017152;0.63;-1.16;0.06;0.739187;-0.671887;0.005663;91.5;0.0;0.0;2.0;0.0;0.0
4.0;1753875306.476142;17.009814;0.7;-1.11;0.08;0.739723;-0.67367;0.005025;90.5;0.0;0.0;2.0;0.0;0.0
4.0;1753875306.480746;17.0239;0.58;-1.2;0.08;0.736593;-0.674067;0.005868;90.5;0.0;0.0;2.0;0.0;0.0
4.0;1753875306.485352;17.005891;0.48;-1.2;0.04;0.738325;-0.67239;0.005689;90.9;0.0;0.0;2.0;0.0;0.0
4.0;1753875306.489956;17.011005;0.73;-1.23;0.08;0.736124;-0.673796;0.006802;91.1;0.0;0.0;2.0;0.0;0.0
4.0;1753875306.494562;17.026048;0.62;-1.24;0.1;0.737482;-0.673017;0.004694;90.6;0.0;0.0;2.0;0.0;0.0
4.0;1753875306.499167;17.013496;0.63;-1.19;0.14;0.736854;-0.671277;0.00449;90.7;0.0;0.0;2.0;0.0;0.0
4.0;1753875306.503772;17.023;0.69;-1.24;0.16;0.736921;-0.672821;0.005012;90.7;0.0;0.0;2.0;0.0;0.0
4.0;1753875306.508377;17.001186;0.72;-1.24;0.11;0.738262;-0.672411;0.005131;90.9;0.0;0.0;2.0;0.0;0.0
4.0;1753875306.512982;17.013187;0.65;-1.19;0.17;0.738647;-0.673941;0.00488;91.4;0.0;0.0;2.0;0.0;0.0
4.0;1753875306.517587;17.01114;0.66;-1.2;0.07;0.738882;-0.671894;0.007262;91.0;0.0;0.0;2.0;0.0;0.0
4.0;1753875306.522192;16.998662;0.65;-1.1;0.09;0.739803;-0.673188;0.005552;91.1;0.0;0.0;2.0;0.0;0.0
4.0;1753875306.526797;17.006538;0.69;-1.25;0.11;0.73924;-0.671847;0.005811;91.7;0.0;0.0;2.0;0.0;0.0
4.0;1753875306.531402;17.003275;0.64;-1.26;0.06;0.738661;-0.671511;0.005138;91.4;0.0;0.0;2.0;0.0;0.0
4.0;1753875306.536007;17.012346;0.66;-1.23;0.05;0.738133;-0.67222;0.005254;90.4;0.0;0.0;2.0;0.0;0.0
4.0;1753875306.540612;16.995504;0.67;-1.15;0.1;0.737458;-0.672541;0.003101;90.9;0.0;0.0;2.0;0.0;0.0
4.0;1753875306.545217;17.004265;0.52;-1.13;0.06;0.737353;-0.673761;0.003695;91.2;0.0;0.0;2.0;0.0;0.0
4.0;1753875306.549822;17.011301;0.7;-1.17;0.04;0.737251;-0.672684;0.006191;90.8;0.0;0.0;2.0;0.0;0.0
4.0;1753875306.554428;17.003676;0.51;-1.24;0.1;0.735963;-0.672842;0.005369;91.0;0.0;0.0;2.0;0.0;0.0
4.0;1753875306.559032;17.026743;0.65;-1.14;0.17;0.735769;-0.673611;0.006051;91.3;0.0;0.0;2.0;0.0;0.0
4.0;1753875306.563638;17.017407;0.56;-1.08;0.18;0.736884;-0.673419;0.004386;91.0;0.0;0.0;2.0;0.0;0.0
4.0;1753875306.568242;17.000316;0.53;-1.23;0.03;0.736767;-0.672228;0.00456;90.9;0.0;0.0;2.0;0.0;0.0
4.0;1753875306.572848;17.00447;0.71;-1.14;0.1;0.73738;-0.675035;0.004753;90.9;0.0;0.0;2.0;0.0;0.0
4.0;1753875306.577453;17.019331;0.49;-1.12;0.07;0.737139;-0.671345;0.003837;90.6;0.0;0.0;2.0;0.0;0.0
4.0;1753875306.582058;17.004142;0.66;-1.24;0.07;0.738321;-0.67349;0.006124;90.2;0.0;0.0;2.0;0.0;0.0
4.0;1753875306.586663;17.007461;0.66;-1.22;0.09;0.737611;-0.671134;0.005818;91.0;0.0;0.0;2.0;0.0;0.0
4.0;1753875306.591268;16.986822;0.56;-1.23;0.14;0.737233;-0.672199;0.004154;91.0;0.0;0.0;2.0;0.0;0.0
4.0;1753875306.595873;17.014857;0.68;-1.19;0.11;0.736518;-0.670991;0.005797;90.9;0.0;0.0;2.0;0.0;0.0
4.0;1753875306.600478;17.000977;0.6;-1.23;0.06;0.738464;-0.673657;0.004549;90.4;0.0;0.0;2.0;0.0;0.0
4.0;1753875306.605083;17.021418;0.6;-1.14;0.11;0.73875;-0.67167;0.005342;91.1;0.0;0.0;2.0;0.0;0.0
4.0;1753875306.609688;17.015292;0.52;-1.12;0.1;0.737548;-0.671858;0.0059;90.9;0.0;0.0;2.0;0.0;0.0
4.0;1753875306.614293;17.02215;0.71;-1.19;0.07;0.738663;-0.671974;0.004389;90.7;0.0;0.0;2.0;0.0;0.0
4.0;1753875306.618898;17.005721;0.67;-1.17;0.11;0.736891;-0.671886;0.005627;90.7;0.0;0.0;2.0;0.0;0.0
4.0;1753875306.623503;17.010098;0.71;-1.15;0.12;0.738773;-0.673635;0.004123;91.9;0.0;0.0;2.0;0.0;0.0
4.0;1753875306.628108;17.001487;0.64;-1.18;0.15;0.737948;-0.672495;0.004627;91.2;0.0;0.0;2.0;0.0;0.0
4.0;1753875306.632713;17.003808;0.56;-1.19;0.12;0.735813;-0.673359;0.004837;91.0;0.0;0.0;2.0;0.0;0.0
4.0;1753875306.637318;17.012428;0.59;-1.31;0.1;0.738559;-0.67268;0.006723;91.1;0.0;0.0;2.0;0.0;0.0
4.0;1753875306.641924;16.997175;0.65;-1.25;0.17;0.737522;-0.672012;0.005378;90.7;0.0;0.0;2.0;0.0;0.0
4.0;1753875306.646528;17.000874;0.62;-1.17;0.22;0.736829;-0.673063;0.004011;91.3;0.0;0.0;2.0;0.0;0.0
4.0;1753875306.651134;16.994396;0.67;-1.23;0.11;0.737925;-0.670984;0.003904;90.7;0.0;0.0;2.0;0.0;0.0
4.0;1753875306.655738;17.024635;0.68;-1.15;0.05;0.736141;-0.671721;0.004618;91.1;0.0;0.0;2.0;0.0;0.0
4.0;1753875306.660344;17.014452;0.62;-1.15;0.06;0.737613;-0.671577;0.005648;90.4;0.0;0.0;2.0;0.0;0.0
4.0;1753875306.664949;17.018568;0.59;-1.28;0.13;0.735647;-0.672626;0.005666;90.8;0.0;0.0;2.0;0.0;0.0
4.0;1753875306.669554;17.011615;0.72;-1.3;0.09;0.73778;-0.672875;0.00386;90.7;0.0;0.0;2.0;0.0;0.0
4.0;1753875306.674159;17.006385;0.7;-1.16;0.03;0.736704;-0.674436;0.004638;90.7;0.0;0.0;2.0;0.0;0.0
4.0;1753875306.678764;17.027212;0.66;-1.2;0.15;0.737409;-0.672018;0.004742;90.9;0.0;0.0;2.0;0.0;0.0
4.0;1753875306.683369;17.011032;0.74;-1.12;0.12;0.737464;-0.670878;0.00455;90.6;0.0;0.0;2.0;0.0;0.0
4.0;1753875306.687974;16.99533;0.66;-1.2;0.13;0.739817;-0.67241;0.006621;91.0;0.0;0.0;2.0;0.0;0.0
4.0;1753875306.692579;17.009364;0.58;-1.26;0.09;0.739054;-0.673403;0.0055;90.9;0.0;0.0;2.0;0.0;0.0
4.0;1753875306.697184;17.009717;0.62;-1.21;0.13;0.737769;-0.672099;0.00443;90.4;0.0;0.0;2.0;0.0;0.0
4.0;1753875306.701789;17.002523;0.66;-1.11;0.15;0.736533;-0.672546;0.00381;91.5;0.0;0.0;2.0;0.0;0.0
4.0;1753875306.706394;17.01495;0.67;-1.21;0.08;0.736742;-0.673032;0.004602;90.5;0.0;0.0;2.0;0.0;0.0
4.0;1753875306.710999;17.02182;0.74;-1.19;0.12;0.736503;-0.67334;0.003631;90.9;0.0;0.0;2.0;0.0;0.0
4.0;1753875306.715604;17.016221;0.64;-1.2;0.13;0.736696;-0.672587;0.003886;90.7;0.0;0.0;2.0;0.0;0.0
4.0;1753875306.720209;16.994603;0.64;-1.24;0.1;0.736652;-0.672164;0.004554;91.3;0.0;0.0;2.0;0.0;0.0
4.0;1753875306.724814;17.00493;0.72;-1.21;0.09;0.736018;-0.673305;0.004918;91.1;0.0;0.0;2.0;0.0;0.0
4.0;1753875306.72942;17.011864;0.62;-1.18;0.21;0.736822;-0.672381;0.003696;90.6;0.0;0.0;2.0;0.0;0.0
4.0;1753875306.734024;17.021241;0.73;-1.24;0.15;0.737468;-0.675212;0.004288;90.9;0.0;0.0;2.0;0.0;0.0
4.0;1753875306.73863;17.017041;0.68;-1.16;0.09;0.73672;-0.674337;0.00428;91.2;0.0;0.0;2.0;0.0;0.0
4.0;1753875306.743235;17.022905;0.62;-1.15;0.19;0.737218;-0.673851;0.00439;90.8;0.0;0.0;2.0;0.0;0.0
4.0;1753875306.74784;17.00734;0.64;-1.22;0.14;0.737248;-0.672085;0.004222;91.2;0.0;0.0;2.0;0.0;0.0
4.0;1753875306.752445;17.019759;0.62;-1.28;0.09;0.737295;-0.674665;0.004858;91.5;0.0;0.0;2.0;0.0;0.0
4.0;1753875306.75705;17.01151;0.62;-1.14;0.01;0.73788;-0.674572;0.004546;90.9;0.0;0.0;2.0;0.0;0.0
4.0;1753875306.761655;17.000615;0.58;-1.16;0.12;0.736199;-0.673782;0.005216;90.9;0.0;0.0;2.0;0.0;0.0
4.0;1753875306.76626;16.986614;0.6;-1.3;0.18;0.737239;-0.673091;0.004593;91.0;0.0;0.0;2.0;0.0;0.0
4.0;1753875306.770865;17.031153;0.62;-1.2;0.24;0.737567;-0.674744;0.004394;90.6;0.0;0.0;2.0;0.0;0.0
4.0;1753875306.77547;17.008046;0.67;-1.14;0.09;0.736857;-0.673863;0.005384;91.0;0.0;0.0;2.0;0.0;0.0
4.0;1753875306.780075;17.003199;0.64;-1.22;0.08;0.736613;-0.674398;0.002972;91.0;0.0;0.0;2.0;0.0;0.0
4.0;1753875306.78468;16.990647;0.61;-1.17;0.16;0.737984;-0.672911;0.003939;90.8;0.0;0.0;2.0;0.0;0.0
4.0;1753875306.789285;17.014941;0.68;-1.19;0.18;0.737837;-0.673981;0.00605;90.8;0.0;0.0;2.0;0.0;0.0
4.0;1753875306.7967;17.007812;0.63;-1.19;0.14;0.737124;-0.673562;0.004148;91.0;0.0;0.0;2.0;0.0;0.0
4.0;1753875306.801305;17.003659;0.56;-1.09;0.15;0.738311;-0.673205;0.006362;91.0;0.0;0.0;2.0;0.0;0.0
4.0;1753875306.80591;17.04051;0.63;-1.1;0.07;0.73744;-0.67485;0.004436;94.3;0.0;0.0;2.0;0.0;0.0
4.0;1753875306.810515;17.026239;0.48;-1.17;0.07;0.73657;-0.673558;0.005147;94.1;0.0;0.0;2.0;0.0;0.0
4.0;1753875306.81639;17.039062;0.56;-1.12;0.07;0.736636;-0.67527;0.006222;94.0;0.0;0.0;2.0;0.0;0.0
4.0;1753875306.820995;17.027249;0.66;-1.07;0.01;0.737455;-0.675419;0.008121;93.0;0.0;0.0;2.0;0.0;0.0
4.0;1753875306.8256;17.046623;0.56;-1.1;0.05;0.737228;-0.674812;0.007646;93.5;0.0;0.0;2.0;0.0;0.0
4.0;1753875306.830205;17.021301;0.55;-1.21;0.06;0.736354;-0.673973;0.004974;93.7;0.0;0.0;2.0;0.0;0.0
4.0;1753875306.83481;17.030824;0.54;-1.08;0.08;0.740375;-0.674624;0.004352;93.8;0.0;0.0;2.0;0.0;0.0
4.0;1753875306.839415;17.020979;0.54;-1.11;0.06;0.738881;-0.672949;0.006463;91.2;0.0;0.0;2.0;0.0;0.0
4.0;1753875306.84402;17.048719;0.48;-1.16;0.06;0.739481;-0.672505;0.005783;93.1;0.0;0.0;2.0;0.0;0.0
4.0;1753875306.848626;17.028401;0.52;-1.12;0.06;0.738093;-0.674409;0.004431;93.4;0.0;0.0;2.0;0.0;0.0
4.0;1753875306.85323;17.034632;0.52;-1.14;0.08;0.739362;-0.672841;0.005034;93.0;0.0;0.0;2.0;0.0;0.0
4.0;1753875306.86191;17.023438;0.56;-1.19;0.07;0.740418;-0.67222;0.005612;94.0;0.0;0.0;2.0;0.0;0.0
4.0;1753875306.866515;16.980397;0.56;-1.24;0.12;0.740558;-0.673227;0.007124;96.6;0.0;0.0;2.0;0.0;0.0
4.0;1753875306.87112;17.018449;0.51;-1.2;0.02;0.74053;-0.673309;0.007007;91.1;0.0;0.0;2.0;0.0;0.0
4.0;1753875306.875725;17.001183;0.46;-1.18;0.09;0.739673;-0.672521;0.00556;92.4;0.0;0.0;2.0;0.0;0.0
4.0;1753875306.88033;17.009696;0.46;-1.25;0.09;0.737963;-0.672922;0.005944;92.8;0.0;0.0;2.0;0.0;0.0
4.0;1753875306.884936;17.037802;0.54;-1.18;0.04;0.738327;-0.672312;0.006033;94.1;0.0;0.0;2.0;0.0;0.0
4.0;1753875306.88954;17.016598;0.56;-1.19;0.05;0.738612;-0.673207;0.006759;94.4;0.0;0.0;2.0;0.0;0.0
4.0;1753875306.894146;17.032368;0.54;-1.17;0.11;0.7387;-0.673353;0.007215;96.4;0.0;0.0;2.0;0.0;0.0
4.0;1753875306.89875;17.042183;0.58;-1.21;0.07;0.740656;-0.673575;0.00612;94.5;0.0;0.0;2.0;0.0;0.0
4.0;1753875306.903356;17.013959;0.45;-1.19;0.05;0.740439;-0.673208;0.006778;90.4;0.0;0.0;2.0;0.0;0.0
4.0;1753875306.90991;17.023438;0.49;-1.19;0.07;0.737978;-0.673318;0.006954;94.0;0.0;0.0;2.0;0.0;0.0
4.0;1753875306.914515;17.033374;0.53;-1.2;0.09;0.737842;-0.672118;0.006726;91.7;0.0;0.0;2.0;0.0;0.0
4.0;1753875306.91912;17.046093;0.46;-1.11;0.14;0.740815;-0.672203;0.006882;94.0;0.0;0.0;2.0;0.0;0.0
4.0;1753875306.923725;17.024953;0.56;-1.12;0.01;0.738356;-0.674167;0.00686;94.8;0.0;0.0;2.0;0.0;0.0
4.0;1753875306.92833;16.998698;0.63;-1.18;0.06;0.739266;-0.673982;0.005821;94.0;0.0;0.0;2.0;0.0;0.0
4.0;1753875306.932935;17.006603;0.6;-1.19;0.09;0.737015;-0.673335;0.006607;91.6;0.0;0.0;2.0;0.0;0.0
4.0;1753875306.93754;16.995955;0.58;-1.21;0.09;0.738583;-0.673965;0.006462;91.5;0.0;0.0;2.0;0.0;0.0
4.0;1753875306.9448;17.023438;0.56;-1.19;0.07;0.73871;-0.674416;0.005368;94.0;0.0;0.0;2.0;0.0;0.0
4.0;1753875306.949405;17.009745;0.59;-1.24;0.06;0.739005;-0.676031;0.004896;92.6;0.0;0.0;2.0;0.0;0.0
4.0;1753875306.95401;17.00761;0.58;-1.15;0.06;0.738814;-0.673777;0.005834;94.9;0.0;0.0;2.0;0.0;0.0
4.0;1753875306.958615;17.05614;0.61;-1.23;0.11;0.737758;-0.674035;0.004385;93.8;0.0;0.0;2.0;0.0;0.0
4.0;1753875306.96322;17.020207;0.6;-1.17;0.02;0.738079;-0.673469;0.004981;92.1;0.0;0.0;2.0;0.0;0.0
4.0;1753875306.967825;17.008895;0.61;-1.19;0.09;0.739724;-0.673881;0.006097;92.5;0.0;0.0;2.0;0.0;0.0
4.0;1753875306.97243;17.005744;0.68;-1.19;0.05;0.740154;-0.672369;0.005293;94.6;0.0;0.0;2.0;0.0;0.0
4.0;1753875306.977035;17.034405;0.56;-1.17;0.1;0.740609;-0.672262;0.007055;93.1;0.0;0.0;2.0;0.0;0.0
4.0;1753875306.98164;17.006349;0.69;-1.14;0.04;0.739778;-0.673038;0.005417;93.7;0.0;0.0;2.0;0.0;0.0
4.0;1753875306.986246;17.02885;0.74;-1.13;0.09;0.739119;-0.673246;0.006481;93.3;0.0;0.0;2.0;0.0;0.0
4.0;1753875306.99044;17.023438;0.63;-1.12;0.07;0.73932;-0.672342;0.005978;94.0;0.0;0.0;2.0;0.0;0.0
4.0;1753875306.992906;16.976562;0.63;-1.19;0.07;0.7381;-0.673562;0.006466;92.0;0.0;0.0;2.0;0.0;0.0
4.0;1753875306.999365;17.023438;0.7;-1.19;0.07;0.736026;-0.675026;0.00488;92.0;0.0;0.0;2.0;0.0;0.0
4.0;1753875307.00397;17.024643;0.71;-1.18;0.04;0.736872;-0.677252;0.005236;95.2;0.0;0.0;2.0;0.0;0.0
4.0;1753875307.008575;17.024122;0.68;-1.25;0.09;0.736273;-0.674389;0.005133;90.9;0.0;0.0;2.0;0.0;0.0
4.0;1753875307.01318;17.006892;0.73;-1.26;-0.06;0.73582;-0.673419;0.006313;93.6;0.0;0.0;2.0;0.0;0.0
4.0;1753875307.017785;17.045851;0.8;-1.12;0.08;0.734522;-0.673733;0.004944;90.6;0.0;0.0;2.0;0.0;0.0
4.0;1753875307.02239;17.042329;0.76;-1.23;0.07;0.738031;-0.673463;0.004496;91.0;0.0;0.0;2.0;0.0;0.0
4.0;1753875307.026996;17.000974;0.62;-1.19;0.04;0.736802;-0.674588;0.005192;93.0;0.0;0.0;2.0;0.0;0.0
4.0;1753875307.0316;17.034185;0.71;-1.11;0.12;0.73681;-0.674734;0.005513;93.4;0.0;0.0;2.0;0.0;0.0
4.0;1753875307.036206;17.018958;0.67;-1.14;0.1;0.736301;-0.674661;0.004417;92.0;0.0;0.0;2.0;0.0;0.0
4.0;1753875307.04081;17.019458;0.63;-1.13;0.09;0.735377;-0.673772;0.004102;94.3;0.0;0.0;2.0;0.0;0.0
4.0;1753875307.045416;17.016286;0.67;-1.11;0.07;0.739082;-0.673755;0.006904;90.5;0.0;0.0;2.0;0.0;0.0
4.0;1753875307.050021;17.018448;0.64;-1.15;0.08;0.736629;-0.674657;0.005247;91.8;0.0;0.0;2.0;0.0;0.0
4.0;1753875307.054626;17.025813;0.76;-1.13;0.08;0.739347;-0.674328;0.005937;95.2;0.0;0.0;2.0;0.0;0.0
4.0;1753875307.059231;17.010805;0.76;-1.1;0.08;0.73871;-0.672546;0.004977;95.0;0.0;0.0;2.0;0.0;0.0
4.0;1753875307.063836;17.020489;0.72;-1.04;0.1;0.738496;-0.671673;0.00639;94.2;0.0;0.0;2.0;0.0;0.0
4.0;1753875307.068441;17.030328;0.71;-1.19;0.1;0.739799;-0.672983;0.005345;91.3;0.0;0.0;2.0;0.0;0.0
4.0;1753875307.073046;17.025008;0.69;-1.1;0.03;0.73872;-0.672835;0.003401;92.4;0.0;0.0;2.0;0.0;0.0
4.0;1753875307.077651;17.028613;0.68;-1.13;0.11;0.740137;-0.673143;0.005039;91.4;0.0;0.0;2.0;0.0;0.0
4.0;1753875307.082256;17.028394;0.67;-1.15;0.06;0.739331;-0.675124;0.00573;92.5;0.0;0.0;2.0;0.0;0.0
4.0;1753875307.086861;17.038787;0.67;-1.16;0.06;0.739623;-0.673642;0.004641;92.8;0.0;0.0;2.0;0.0;0.0
4.0;1753875307.091466;16.987519;0.64;-1.22;0.05;0.738253;-0.671732;0.004394;94.2;0.0;0.0;2.0;0.0;0.0
4.0;1753875307.096071;17.03387;0.66;-1.1;0.09;0.740419;-0.672107;0.004556;90.3;0.0;0.0;2.0;0.0;0.0
4.0;1753875307.100676;17.020509;0.64;-0.97;0.05;0.73881;-0.672105;0.006862;94.9;0.0;0.0;2.0;0.0;0.0
4.0;1753875307.105281;16.993717;0.69;-1.09;0.13;0.740073;-0.670597;0.005713;92.6;0.0;0.0;2.0;0.0;0.0
4.0;1753875307.109886;17.037387;0.72;-1.06;0.1;0.738479;-0.671068;0.004594;94.2;0.0;0.0;2.0;0.0;0.0
4.0;1753875307.115;17.023438;0.7;-1.12;0.07;0.73993;-0.671244;0.005368;92.0;0.0;0.0;2.0;0.0;0.0
4.0;1753875307.119605;17.029448;0.72;-1.04;0.02;0.74024;-0.673559;0.005062;92.0;0.0;0.0;2.0;0.0;0.0
4.0;1753875307.12421;17.025871;0.68;-1.14;0.06;0.738618;-0.671582;0.005466;90.1;0.0;0.0;2.0;0.0;0.0
4.0;1753875307.128815;17.01009;0.67;-1.23;0.12;0.739878;-0.671549;0.004825;92.8;0.0;0.0;2.0;0.0;0.0
4.0;1753875307.13342;17.042996;0.69;-1.19;0.06;0.738932;-0.670786;0.006196;92.0;0.0;0.0;2.0;0.0;0.0
4.0;1753875307.138025;17.001966;0.76;-1.06;0.01;0.740309;-0.671983;0.00487;92.3;0.0;0.0;2.0;0.0;0.0
4.0;1753875307.14263;17.034875;0.71;-1.1;0.07;0.740077;-0.671704;0.005625;91.3;0.0;0.0;2.0;0.0;0.0
4.0;1753875307.147236;17.020181;0.77;-1.09;0.07;0.742628;-0.672817;0.005247;89.8;0.0;0.0;2.0;0.0;0.0
4.0;1753875307.15184;17.037252;0.72;-0.99;0.02;0.740149;-0.670415;0.006527;94.0;0.0;0.0;2.0;0.0;0.0
4.0;1753875307.156446;17.043053;0.69;-1.0;0.17;0.738592;-0.670751;0.005303;93.8;0.0;0.0;2.0;0.0;0.0
4.0;1753875307.16105;17.019631;0.69;-1.09;0.0;0.739562;-0.670681;0.007147;90.4;0.0;0.0;2.0;0.0;0.0
4.0;1753875307.165656;17.043988;0.72;-1.15;0.07;0.738788;-0.671306;0.004383;92.8;0.0;0.0;2.0;0.0;0.0
4.0;1753875307.170261;17.010764;0.77;-1.07;0.13;0.740124;-0.671769;0.005657;91.4;0.0;0.0;2.0;0.0;0.0
4.0;1753875307.174866;16.989995;0.61;-1.14;0.09;0.740927;-0.671301;0.005683;91.2;0.0;0.0;2.0;0.0;0.0
4.0;1753875307.179471;17.014475;0.68;-1.17;-0.0;0.742464;-0.671872;0.005942;92.7;0.0;0.0;2.0;0.0;0.0
4.0;1753875307.184076;17.019891;0.8;-1.19;0.04;0.738906;-0.67391;0.00524;92.9;0.0;0.0;2.0;0.0;0.0
4.0;1753875307.188681;17.018847;0.63;-1.17;0.06;0.740035;-0.671334;0.005328;93.1;0.0;0.0;2.0;0.0;0.0
4.0;1753875307.193286;17.009568;0.75;-1.18;0.14;0.73909;-0.671979;0.005514;92.4;0.0;0.0;2.0;0.0;0.0
4.0;1753875307.197891;17.014361;0.66;-1.16;0.06;0.739754;-0.673857;0.005786;96.0;0.0;0.0;2.0;0.0;0.0
4.0;1753875307.202496;17.006392;0.78;-1.18;0.09;0.738965;-0.671045;0.005034;91.4;0.0;0.0;2.0;0.0;0.0
4.0;1753875307.207101;17.024747;0.69;-1.16;-0.0;0.740294;-0.671977;0.005241;93.1;0.0;0.0;2.0;0.0;0.0
4.0;1753875307.211706;17.02415;0.69;-1.13;0.09;0.739476;-0.673579;0.005561;93.8;0.0;0.0;2.0;0.0;0.0
4.0;1753875307.216311;17.034919;0.64;-1.01;-0.02;0.739456;-0.67342;0.006402;89.6;0.0;0.0;2.0;0.0;0.0
4.0;1753875307.220916;17.041276;0.74;-1.17;0.03;0.739072;-0.672594;0.005272;90.0;0.0;0.0;2.0;0.0;0.0
4.0;1753875307.225521;17.062361;0.75;-1.3;0.04;0.7406;-0.671888;0.006222;93.7;0.0;0.0;2.0;0.0;0.0
4.0;1753875307.230126;16.995945;0.69;-1.19;-0.01;0.73999;-0.672281;0.006101;90.0;0.0;0.0;2.0;0.0;0.0
4.0;1753875307.234732;17.035357;0.71;-1.28;0.02;0.740602;-0.672827;0.007116;95.1;0.0;0.0;2.0;0.0;0.0
4.0;1753875307.239336;17.011551;0.77;-1.03;0.03;0.740401;-0.671945;0.00656;94.1;0.0;0.0;2.0;0.0;0.0
4.0;1753875307.243942;17.032681;0.73;-1.12;0.11;0.740396;-0.673246;0.005186;92.8;0.0;0.0;2.0;0.0;0.0
4.0;1753875307.248546;17.045765;0.66;-1.17;0.01;0.738865;-0.67238;0.005292;90.9;0.0;0.0;2.0;0.0;0.0
4.0;1753875307.253152;17.046118;0.71;-1.13;0.13;0.739576;-0.67301;0.006418;93.4;0.0;0.0;2.0;0.0;0.0
4.0;1753875307.257757;17.01628;0.68;-1.14;0.08;0.738363;-0.671569;0.005849;90.5;0.0;0.0;2.0;0.0;0.0
4.0;1753875307.262362;17.024598;0.8;-1.21;0.04;0.739082;-0.671046;0.004883;91.5;0.0;0.0;2.0;0.0;0.0
4.0;1753875307.266967;17.034517;0.73;-1.21;0.1;0.740988;-0.674539;0.005656;93.0;0.0;0.0;2.0;0.0;0.0
4.0;1753875307.271572;17.057191;0.78;-1.15;0.2;0.73903;-0.671309;0.003824;88.3;0.0;0.0;2.0;0.0;0.0
4.0;1753875307.276177;17.012993;0.69;-1.06;0.03;0.73895;-0.67178;0.005879;92.0;0.0;0.0;2.0;0.0;0.0
4.0;1753875307.280782;17.027828;0.71;-1.1;0.05;0.739873;-0.670152;0.006447;91.9;0.0;0.0;2.0;0.0;0.0
4.0;1753875307.285387;17.022727;0.67;-1.15;0.05;0.742043;-0.675212;0.004891;93.0;0.0;0.0;2.0;0.0;0.0
4.0;1753875307.289992;17.016047;0.73;-1.11;0.08;0.739842;-0.672769;0.005988;91.3;0.0;0.0;2.0;0.0;0.0
4.0;1753875307.294597;17.06073;0.61;-1.13;0.01;0.740456;-0.674347;0.006538;92.6;0.0;0.0;2.0;0.0;0.0
4.0;1753875307.299202;17.02794;0.72;-1.18;0.07;0.739192;-0.672853;0.004872;91.4;0.0;0.0;2.0;0.0;0.0
4.0;1753875307.303807;17.014963;0.72;-1.18;0.06;0.738764;-0.670772;0.005306;87.7;0.0;0.0;2.0;0.0;0.0
4.0;1753875307.308412;17.01416;0.78;-1.14;-0.06;0.739452;-0.673537;0.006279;93.9;0.0;0.0;2.0;0.0;0.0
4.0;1753875307.313017;17.009108;0.77;-1.08;0.13;0.738496;-0.671706;0.006088;89.0;0.0;0.0;2.0;0.0;0.0
4.0;1753875307.317622;17.019838;0.75;-1.09;0.1;0.739767;-0.672389;0.005159;99.1;0.0;0.0;2.0;0.0;0.0
4.0;1753875307.322228;17.031072;0.71;-1.16;0.04;0.738946;-0.674348;0.005594;94.3;0.0;0.0;2.0;0.0;0.0
4.0;1753875307.326832;17.041513;0.79;-1.18;0.14;0.738518;-0.673825;0.005944;93.8;0.0;0.0;2.0;0.0;0.0
4.0;1753875307.331438;17.023552;0.7;-1.19;0.09;0.739772;-0.674218;0.006318;94.2;0.0;0.0;2.0;0.0;0.0
4.0;1753875307.336043;17.013439;0.75;-1.24;0.14;0.738716;-0.673454;0.005451;92.2;0.0;0.0;2.0;0.0;0.0
4.0;1753875307.340648;17.011559;0.6;-1.13;-0.01;0.738075;-0.67502;0.005977;87.7;0.0;0.0;2.0;0.0;0.0
4.0;1753875307.345253;17.018918;0.69;-1.21;0.04;0.735792;-0.672934;0.005914;89.3;0.0;0.0;2.0;0.0;0.0
4.0;1753875307.349858;17.038483;0.78;-1.18;0.06;0.736525;-0.67464;0.005514;93.0;0.0;0.0;2.0;0.0;0.0
4.0;1753875307.354463;17.053915;0.74;-1.14;0.13;0.737416;-0.67558;0.004434;87.7;0.0;0.0;2.0;0.0;0.0
4.0;1753875307.359068;17.006112;0.63;-1.12;0.05;0.737572;-0.67266;0.006341;90.7;0.0;0.0;2.0;0.0;0.0
4.0;1753875307.363673;16.996258;0.64;-1.1;0.06;0.74197;-0.674701;0.007113;92.4;0.0;0.0;2.0;0.0;0.0
4.0;1753875307.368278;17.010167;0.68;-1.17;0.06;0.740194;-0.672305;0.006437;90.1;0.0;0.0;2.0;0.0;0.0
4.0;1753875307.372883;17.017625;0.65;-1.14;0.09;0.73852;-0.672977;0.005157;93.9;0.0;0.0;2.0;0.0;0.0
4.0;1753875307.377488;17.039105;0.68;-1.16;-0.0;0.737063;-0.674238;0.004393;89.7;0.0;0.0;2.0;0.0;0.0
4.0;1753875307.382093;17.041077;0.73;-1.09;0.03;0.739304;-0.673436;0.005048;91.0;0.0;0.0;2.0;0.0;0.0
4.0;1753875307.386698;17.045811;0.65;-1.29;0.1;0.740037;-0.672468;0.004856;88.4;0.0;0.0;2.0;0.0;0.0
4.0;1753875307.391303;17.053825;0.64;-1.15;0.07;0.738519;-0.674635;0.004787;92.4;0.0;0.0;2.0;0.0;0.0
4.0;1753875307.395908;17.033283;0.72;-1.17;0.11;0.740955;-0.674826;0.005583;89.1;0.0;0.0;2.0;0.0;0.0
4.0;1753875307.400514;17.015345;0.69;-1.2;0.07;0.739386;-0.673191;0.004628;91.7;0.0;0.0;2.0;0.0;0.0
4.0;1753875307.405118;17.030621;0.66;-1.06;0.01;0.738088;-0.672794;0.003392;89.1;0.0;0.0;2.0;0.0;0.0
4.0;1753875307.409724;17.01038;0.59;-1.23;0.01;0.737265;-0.6744;0.00589;92.6;0.0;0.0;2.0;0.0;0.0
4.0;1753875307.414328;17.046348;0.65;-1.13;0.05;0.738061;-0.674932;0.005549;91.1;0.0;0.0;2.0;0.0;0.0
4.0;1753875307.418934;17.014498;0.74;-1.23;0.08;0.738162;-0.67385;0.005463;95.3;0.0;0.0;2.0;0.0;0.0
4.0;1753875307.423539;16.983478;0.72;-1.13;0.11;0.737791;-0.674332;0.00629;91.7;0.0;0.0;2.0;0.0;0.0
4.0;1753875307.428144;17.01894;0.75;-1.18;0.02;0.738716;-0.673938;0.005883;94.6;0.0;0.0;2.0;0.0;0.0
4.0;1753875307.432749;17.027754;0.71;-1.16;0.07;0.738608;-0.672151;0.004919;91.0;0.0;0.0;2.0;0.0;0.0
4.0;1753875307.437354;17.053381;0.7;-1.22;0.11;0.739736;-0.671789;0.005812;88.8;0.0;0.0;2.0;0.0;0.0
4.0;1753875307.441959;17.030727;0.77;-1.2;0.02;0.738811;-0.675551;0.005457;95.4;0.0;0.0;2.0;0.0;0.0
4.0;1753875307.446564;17.036425;0.73;-1.17;0.06;0.737862;-0.673886;0.006831;89.6;0.0;0.0;2.0;0.0;0.0
4.0;1753875307.451169;16.996514;0.73;-1.21;0.1;0.739467;-0.672552;0.005423;91.2;0.0;0.0;2.0;0.0;0.0
4.0;1753875307.455774;17.012818;0.62;-1.2;0.11;0.738481;-0.675518;0.00593;95.0;0.0;0.0;2.0;0.0;0.0
4.0;1753875307.460379;17.014274;0.75;-1.17;0.07;0.740072;-0.673489;0.005028;92.3;0.0;0.0;2.0;0.0;0.0
4.0;1753875307.464984;17.010669;0.7;-1.21;0.11;0.737647;-0.676173;0.005369;93.2;0.0;0.0;2.0;0.0;0.0
4.0;1753875307.4721;17.023438;0.7;-1.19;0.07;0.738222;-0.674294;0.005734;92.0;0.0;0.0;2.0;0.0;0.0
4.0;1753875307.476705;17.006255;0.53;-1.13;0.05;0.737929;-0.676496;0.006035;92.9;0.0;0.0;2.0;0.0;0.0
4.0;1753875307.48131;17.025304;0.7;-1.17;0.22;0.736275;-0.67183;0.005825;89.1;0.0;0.0;2.0;0.0;0.0
4.0;1753875307.48747;17.0;0.63;-1.19;0.14;0.736758;-0.67466;0.006344;89.0;0.0;0.0;2.0;0.0;0.0
4.0;1753875307.492075;16.976029;0.6;-1.3;0.04;0.736323;-0.672467;0.005438;86.9;0.0;0.0;2.0;0.0;0.0
4.0;1753875307.49668;16.969061;0.71;-1.28;0.02;0.740546;-0.673171;0.006937;90.7;0.0;0.0;2.0;0.0;0.0
4.0;1753875307.50186;17.03125;0.7;-1.12;0.07;0.738832;-0.672464;0.00549;89.0;0.0;0.0;2.0;0.0;0.0
4.0;1753875307.506465;17.039918;0.62;-1.1;0.04;0.739453;-0.673174;0.005562;88.2;0.0;0.0;2.0;0.0;0.0
4.0;1753875307.51107;17.008159;0.69;-1.15;0.05;0.736967;-0.673509;0.005673;89.9;0.0;0.0;2.0;0.0;0.0
4.0;1753875307.515675;17.036983;0.74;-1.11;-0.03;0.739167;-0.669658;0.00566;88.2;0.0;0.0;2.0;0.0;0.0
4.0;1753875307.52028;17.037606;0.57;-1.14;-0.05;0.738327;-0.671622;0.005612;90.6;0.0;0.0;2.0;0.0;0.0
4.0;1753875307.524885;17.013198;0.69;-1.08;0.08;0.738107;-0.670497;0.005107;89.4;0.0;0.0;2.0;0.0;0.0
4.0;1753875307.52949;17.02753;0.76;-1.27;0.02;0.73738;-0.672092;0.005923;88.5;0.0;0.0;2.0;0.0;0.0
4.0;1753875307.534095;17.054636;0.65;-1.28;0.07;0.739997;-0.671037;0.006673;89.8;0.0;0.0;2.0;0.0;0.0
4.0;1753875307.5387;17.057933;0.73;-1.15;0.08;0.738516;-0.672021;0.006083;93.0;0.0;0.0;2.0;0.0;0.0
4.0;1753875307.543306;17.030002;0.62;-1.23;0.08;0.741132;-0.672663;0.005476;87.5;0.0;0.0;2.0;0.0;0.0
4.0;1753875307.54791;17.03125;0.63;-1.19;0.07;0.73993;-0.671976;0.006466;89.0;0.0;0.0;2.0;0.0;0.0
4.0;1753875307.552515;17.042618;0.66;-1.14;0.06;0.739247;-0.675427;0.005335;91.0;0.0;0.0;2.0;0.0;0.0
4.0;1753875307.55712;17.039192;0.59;-1.12;0.06;0.736451;-0.672785;0.007656;87.5;0.0;0.0;2.0;0.0;0.0
4.0;1753875307.561725;17.029593;0.68;-1.14;0.1;0.739533;-0.672085;0.006539;89.5;0.0;0.0;2.0;0.0;0.0
4.0;1753875307.56633;17.041367;0.62;-1.12;-0.0;0.736842;-0.670477;0.004873;89.1;0.0;0.0;2.0;0.0;0.0
4.0;1753875307.570935;17.028754;0.63;-1.17;-0.06;0.735553;-0.672378;0.005925;89.5;0.0;0.0;2.0;0.0;0.0
4.0;1753875307.57554;16.988605;0.65;-1.21;-0.04;0.738681;-0.675861;0.005612;88.0;0.0;0.0;2.0;0.0;0.0
4.0;1753875307.580145;17.031351;0.58;-1.3;-0.04;0.737559;-0.672876;0.008462;87.0;0.0;0.0;2.0;0.0;0.0
4.0;1753875307.58475;17.021271;0.69;-1.14;0.02;0.739484;-0.674072;0.00639;88.1;0.0;0.0;2.0;0.0;0.0
4.0;1753875307.589356;17.012911;0.67;-1.2;0.11;0.734846;-0.672198;0.007678;88.7;0.0;0.0;2.0;0.0;0.0
4.0;1753875307.59351;17.03125;0.63;-1.19;0.07;0.73688;-0.67344;0.00671;89.0;0.0;0.0;2.0;0.0;0.0
4.0;1753875307.598115;17.043459;0.65;-1.24;0.07;0.737144;-0.671591;0.006241;88.2;0.0;0.0;2.0;0.0;0.0
4.0;1753875307.60272;17.026821;0.49;-1.21;0.16;0.737047;-0.674606;0.007811;89.6;0.0;0.0;2.0;0.0;0.0
4.0;1753875307.607325;16.991698;0.61;-1.21;0.15;0.73776;-0.673308;0.005671;89.5;0.0;0.0;2.0;0.0;0.0
4.0;1753875307.61193;17.043791;0.5;-1.19;0.07;0.737543;-0.672708;0.005862;88.2;0.0;0.0;2.0;0.0;0.0
4.0;1753875307.616535;17.013157;0.6;-1.2;0.08;0.738765;-0.672472;0.005583;87.6;0.0;0.0;2.0;0.0;0.0
4.0;1753875307.62114;17.027863;0.58;-1.14;0.05;0.736607;-0.674047;0.00542;89.0;0.0;0.0;2.0;0.0;0.0
4.0;1753875307.625745;17.065272;0.49;-1.24;0.19;0.736611;-0.672869;0.00547;89.9;0.0;0.0;2.0;0.0;0.0
4.0;1753875307.63035;17.000102;0.66;-1.14;0.14;0.739612;-0.673207;0.005363;90.6;0.0;0.0;2.0;0.0;0.0
4.0;1753875307.634956;17.077576;0.66;-1.12;0.06;0.736379;-0.672542;0.005572;91.4;0.0;0.0;2.0;0.0;0.0
4.0;1753875307.63956;17.004789;0.58;-1.18;0.06;0.736005;-0.672665;0.004019;89.8;0.0;0.0;2.0;0.0;0.0
4.0;1753875307.644166;17.017411;0.64;-1.18;0.12;0.737773;-0.672497;0.006412;88.8;0.0;0.0;2.0;0.0;0.0
4.0;1753875307.64877;17.042744;0.65;-1.16;0.04;0.73711;-0.671164;0.005446;90.7;0.0;0.0;2.0;0.0;0.0
4.0;1753875307.65584;17.03125;0.56;-1.19;0.07;0.738588;-0.671976;0.004148;89.0;0.0;0.0;2.0;0.0;0.0
4.0;1753875307.660445;16.99592;0.5;-1.3;0.13;0.736014;-0.671443;0.005564;88.6;0.0;0.0;2.0;0.0;0.0
4.0;1753875307.66505;17.011658;0.53;-1.19;0.09;0.737214;-0.672309;0.003643;88.4;0.0;0.0;2.0;0.0;0.0
4.0;1753875307.669655;17.003492;0.6;-1.25;0.12;0.738311;-0.671639;0.00569;86.3;0.0;0.0;2.0;0.0;0.0
4.0;1753875307.67426;17.024841;0.56;-1.15;0.07;0.738315;-0.671652;0.004458;86.9;0.0;0.0;2.0;0.0;0.0
4.0;1753875307.678865;17.045245;0.61;-1.2;0.13;0.738073;-0.673748;0.005018;87.3;0.0;0.0;2.0;0.0;0.0
4.0;1753875307.68445;17.0;0.63;-1.19;0.07;0.737246;-0.673928;0.0061;89.0;0.0;0.0;2.0;0.0;0.0
4.0;1753875307.689055;17.011642;0.68;-1.18;0.07;0.735903;-0.673673;0.006539;85.9;0.0;0.0;2.0;0.0;0.0
4.0;1753875307.69366;17.008889;0.54;-1.19;0.01;0.736206;-0.674543;0.004512;88.7;0.0;0.0;2.0;0.0;0.0
4.0;1753875307.698265;16.997268;0.58;-1.1;0.01;0.739835;-0.674061;0.006083;88.0;0.0;0.0;2.0;0.0;0.0
4.0;1753875307.70287;16.964128;0.58;-1.15;0.02;0.737758;-0.675137;0.005444;90.2;0.0;0.0;2.0;0.0;0.0
4.0;1753875307.707475;17.015675;0.55;-1.2;0.05;0.737788;-0.673929;0.004809;88.4;0.0;0.0;2.0;0.0;0.0
4.0;1753875307.71208;16.990741;0.54;-1.14;0.14;0.73706;-0.674375;0.003274;89.6;0.0;0.0;2.0;0.0;0.0
4.0;1753875307.716685;16.992991;0.58;-1.12;0.06;0.737849;-0.672852;0.004563;89.1;0.0;0.0;2.0;0.0;0.0
4.0;1753875307.72129;16.996514;0.69;-1.12;0.02;0.735696;-0.675006;0.004255;89.9;0.0;0.0;2.0;0.0;0.0
4.0;1753875307.72946;17.0;0.56;-1.12;0.07;0.736636;-0.67344;0.00366;89.0;0.0;0.0;2.0;0.0;0.0
4.0;1753875307.734065;17.004646;0.55;-1.15;0.05;0.734884;-0.672562;0.002393;87.7;0.0;0.0;2.0;0.0;0.0
4.0;1753875307.73867;17.009864;0.6;-1.23;0.1;0.736881;-0.673413;0.003325;89.0;0.0;0.0;2.0;0.0;0.0
4.0;1753875307.743275;16.979856;0.54;-1.13;0.1;0.735199;-0.674739;0.002907;90.4;0.0;0.0;2.0;0.0;0.0
4.0;1753875307.74788;17.007453;0.55;-1.15;0.07;0.735904;-0.674169;0.003029;90.7;0.0;0.0;2.0;0.0;0.0
4.0;1753875307.752485;17.03754;0.57;-1.06;0.12;0.736293;-0.673794;0.0025;89.0;0.0;0.0;2.0;0.0;0.0
4.0;1753875307.75709;16.986238;0.55;-1.12;0.0;0.738287;-0.671778;0.004107;88.6;0.0;0.0;2.0;0.0;0.0
4.0;1753875307.761696;16.963618;0.59;-1.13;0.08;0.736227;-0.673181;0.00368;86.3;0.0;0.0;2.0;0.0;0.0
4.0;1753875307.7663;17.001625;0.56;-1.17;0.14;0.73647;-0.672745;0.003406;89.7;0.0;0.0;2.0;0.0;0.0
4.0;1753875307.770906;16.987356;0.36;-1.08;0.05;0.735315;-0.672229;0.002766;87.3;0.0;0.0;2.0;0.0;0.0
4.0;1753875307.77551;17.013683;0.54;-1.15;0.1;0.73564;-0.674853;0.004397;89.6;0.0;0.0;2.0;0.0;0.0
4.0;1753875307.780116;16.980648;0.53;-1.11;0.01;0.737223;-0.672666;0.004136;89.6;0.0;0.0;2.0;0.0;0.0
4.0;1753875307.78456;17.0;0.49;-1.12;0.07;0.736636;-0.67344;0.00366;89.0;0.0;0.0;2.0;0.0;0.0
4.0;1753875307.789165;17.000004;0.43;-1.14;0.06;0.737734;-0.673659;0.002283;89.7;0.0;0.0;2.0;0.0;0.0
4.0;1753875307.79377;16.991622;0.43;-1.08;0.08;0.736954;-0.674153;0.003254;88.2;0.0;0.0;2.0;0.0;0.0
4.0;1753875307.798375;16.964849;0.53;-1.14;0.08;0.736323;-0.673338;0.004093;88.0;0.0;0.0;2.0;0.0;0.0
4.0;1753875307.80298;17.01175;0.58;-1.11;0.09;0.735137;-0.672822;0.002668;88.6;0.0;0.0;2.0;0.0;0.0
4.0;1753875307.807585;16.990359;0.58;-1.13;0.1;0.737649;-0.673247;0.004991;89.3;0.0;0.0;2.0;0.0;0.0
4.0;1753875307.81219;16.998713;0.53;-1.09;0.08;0.736509;-0.672548;0.004328;87.2;0.0;0.0;2.0;0.0;0.0
4.0;1753875307.816795;16.994436;0.61;-1.06;0.02;0.737716;-0.672449;0.004123;87.3;0.0;0.0;2.0;0.0;0.0
4.0;1753875307.8214;17.009403;0.58;-1.04;0.08;0.734622;-0.673306;0.00429;90.1;0.0;0.0;2.0;0.0;0.0
4.0;1753875307.826006;16.987109;0.66;-1.12;0.1;0.736924;-0.672411;0.004853;89.2;0.0;0.0;2.0;0.0;0.0
4.0;1753875307.83061;16.992552;0.74;-1.13;0.03;0.735008;-0.672982;0.00534;89.0;0.0;0.0;2.0;0.0;0.0
4.0;1753875307.83653;17.0;0.7;-1.12;0.07;0.73566;-0.672708;0.00488;89.0;0.0;0.0;2.0;0.0;0.0
4.0;1753875307.841135;17.000203;0.66;-1.08;0.09;0.734453;-0.672411;0.005998;89.6;0.0;0.0;2.0;0.0;0.0
4.0;1753875307.84574;16.990638;0.64;-1.17;0.1;0.735858;-0.67129;0.004155;88.2;0.0;0.0;2.0;0.0;0.0
4.0;1753875307.850345;16.995581;0.7;-1.09;0.09;0.735245;-0.671282;0.006291;89.9;0.0;0.0;2.0;0.0;0.0
4.0;1753875307.85495;16.990388;0.69;-1.08;0.04;0.736156;-0.671973;0.004732;87.5;0.0;0.0;2.0;0.0;0.0
4.0;1753875307.859555;16.980402;0.75;-1.02;0.1;0.736506;-0.673219;0.007421;89.0;0.0;0.0;2.0;0.0;0.0
4.0;1753875307.86416;17.00003;0.64;-1.08;0.13;0.736506;-0.672215;0.006628;89.4;0.0;0.0;2.0;0.0;0.0
4.0;1753875307.868765;17.005454;0.67;-1.14;0.08;0.736285;-0.673727;0.008193;87.5;0.0;0.0;2.0;0.0;0.0
4.0;1753875307.87337;16.992937;0.59;-1.13;0.15;0.738911;-0.672443;0.005169;90.3;0.0;0.0;2.0;0.0;0.0
4.0;1753875307.877976;16.996099;0.56;-1.15;0.03;0.74041;-0.672026;0.005852;88.7;0.0;0.0;2.0;0.0;0.0
4.0;1753875307.88258;16.987739;0.68;-1.14;0.05;0.737592;-0.673508;0.006279;87.8;0.0;0.0;2.0;0.0;0.0
4.0;1753875307.887186;16.990748;0.56;-1.11;0.08;0.738647;-0.669543;0.006514;88.6;0.0;0.0;2.0;0.0;0.0
4.0;1753875307.89159;17.0;0.63;-1.12;0.07;0.738832;-0.671366;0.005734;89.0;0.0;0.0;2.0;0.0;0.0
4.0;1753875307.896195;16.991971;0.59;-1.09;0.1;0.739281;-0.673652;0.005728;88.7;0.0;0.0;2.0;0.0;0.0
4.0;1753875307.9008;16.98692;0.62;-1.12;0.03;0.735622;-0.671138;0.007162;90.5;0.0;0.0;2.0;0.0;0.0
4.0;1753875307.905405;17.016636;0.47;-1.12;0.17;0.736464;-0.672758;0.007326;89.9;0.0;0.0;2.0;0.0;0.0
4.0;1753875307.9115;17.0;0.63;-1.12;0.14;0.73627;-0.673562;0.006954;89.0;0.0;0.0;2.0;0.0;0.0
4.0;1753875307.916105;16.975652;0.66;-1.09;0.2;0.737256;-0.673839;0.006931;90.0;0.0;0.0;2.0;0.0;0.0
4.0;1753875307.92071;16.997075;0.65;-1.14;0.14;0.735809;-0.672727;0.00877;89.8;0.0;0.0;2.0;0.0;0.0
4.0;1753875307.925315;17.008814;0.78;-1.14;0.18;0.737504;-0.673204;0.006661;90.0;0.0;0.0;2.0;0.0;0.0
4.0;1753875307.92992;17.014382;0.56;-1.0;0.11;0.737797;-0.67291;0.007295;88.1;0.0;0.0;2.0;0.0;0.0
4.0;1753875307.934525;16.999571;0.62;-1.12;0.08;0.736284;-0.673027;0.007266;87.6;0.0;0.0;2.0;0.0;0.0
4.0;1753875307.93913;17.002984;0.48;-1.01;0.12;0.73695;-0.673697;0.006918;87.6;0.0;0.0;2.0;0.0;0.0
4.0;1753875307.943735;17.036883;0.55;-1.04;0.08;0.737444;-0.672701;0.005376;88.3;0.0;0.0;2.0;0.0;0.0
4.0;1753875307.94834;16.99535;0.6;-1.11;0.04;0.737457;-0.671058;0.006424;91.2;0.0;0.0;2.0;0.0;0.0
4.0;1753875307.952946;16.994962;0.54;-1.1;0.07;0.737782;-0.671542;0.007674;87.6;0.0;0.0;2.0;0.0;0.0
4.0;1753875307.95755;17.009729;0.51;-1.08;-0.02;0.741127;-0.672496;0.006039;90.3;0.0;0.0;2.0;0.0;0.0
4.0;1753875307.962156;17.013308;0.53;-1.17;0.0;0.738859;-0.671027;0.006543;90.9;0.0;0.0;2.0;0.0;0.0
4.0;1753875307.966761;17.010711;0.64;-1.04;0.01;0.740127;-0.674122;0.005849;91.1;0.0;0.0;2.0;0.0;0.0
4.0;1753875307.97415;17.0;0.56;-1.05;0.0;0.739076;-0.67283;0.006344;89.0;0.0;0.0;2.0;0.0;0.0
4.0;1753875307.979312;16.984375;0.98;-1.26;-24.22;0.795562;-0.603778;0.045628;91.0;0.0;0.0;2.0;0.0;0.0
4.0;1753875307.983202;16.984375;1.4;-1.12;-22.05;0.78568;-0.658922;0.019032;91.0;0.0;0.0;2.0;0.0;0.0
4.0;1753875307.987778;16.984375;1.05;-1.05;-22.54;0.792756;-0.600484;0.036234;91.0;0.0;0.0;2.0;0.0;0.0
4.0;1753875307.992336;16.984375;0.98;-1.68;-21.63;0.788974;-0.600728;0.04514;91.0;0.0;0.0;2.0;0.0;0.0
4.0;1753875307.996941;16.984453;0.35;-1.14;-25.02;0.777256;-0.587854;0.037728;91.0;0.0;0.0;2.0;0.0;0.0
4.0;1753875308.001546;16.985223;0.5;-1.76;-23.57;0.798918;-0.632371;0.057514;90.2;0.0;0.0;2.0;0.0;0.0
4.0;1753875308.006151;16.992559;2.21;-2.0;-26.24;0.826612;-0.676987;0.057286;90.1;0.0;0.0;2.0;0.0;0.0
4.0;1753875308.010756;16.985382;0.96;-0.27;-19.64;0.777563;-0.638651;0.045058;90.5;0.0;0.0;2.0;0.0;0.0
4.0;1753875308.015361;16.994853;0.61;-1.83;-26.86;0.797846;-0.675893;0.043348;90.8;0.0;0.0;2.0;0.0;0.0
4.0;1753875308.019966;16.986474;1.32;-1.15;-22.57;0.823786;-0.635586;0.053505;90.5;0.0;0.0;2.0;0.0;0.0
4.0;1753875308.024572;16.984545;2.12;-1.51;-20.37;0.836974;-0.596177;0.054521;91.1;0.0;0.0;2.0;0.0;0.0
4.0;1753875308.029176;16.999548;1.44;-2.13;-25.03;0.784963;-0.599781;0.079111;90.8;0.0;0.0;2.0;0.0;0.0
4.0;1753875308.033782;16.994369;-0.27;-2.45;-23.97;0.73779;-0.538603;0.058999;90.8;0.0;0.0;2.0;0.0;0.0
4.0;1753875308.038386;16.997825;2.11;-1.34;-26.36;0.796094;-0.606348;0.03655;90.6;0.0;0.0;2.0;0.0;0.0
4.0;1753875308.042992;16.960455;1.51;-1.3;-23.78;0.766532;-0.620678;0.045522;90.6;0.0;0.0;2.0;0.0;0.0
4.0;1753875308.047597;16.987922;0.85;-2.32;-25.92;0.813177;-0.590702;0.020771;90.5;0.0;0.0;2.0;0.0;0.0
4.0;1753875308.052202;16.996151;0.13;-1.81;-19.23;0.809755;-0.576198;0.030915;91.3;0.0;0.0;2.0;0.0;0.0
4.0;1753875308.056807;17.0011;0.87;-2.38;-18.99;0.804797;-0.603183;0.009479;91.1;0.0;0.0;2.0;0.0;0.0
4.0;1753875308.061412;16.978661;2.03;-1.34;-16.15;0.78438;-0.655547;0.061648;90.9;0.0;0.0;2.0;0.0;0.0
4.0;1753875308.066017;16.99537;1.02;-2.38;-22.05;0.823158;-0.555396;0.018923;89.2;0.0;0.0;2.0;0.0;0.0
4.0;1753875308.070622;16.985999;1.55;-1.82;-16.3;0.74091;-0.648782;0.056132;90.6;0.0;0.0;2.0;0.0;0.0
4.0;1753875308.075227;16.993866;-0.87;-2.41;-21.06;0.749253;-0.616168;0.051334;90.9;0.0;0.0;2.0;0.0;0.0
4.0;1753875308.079832;16.986789;0.09;-1.66;-21.86;0.750648;-0.499232;0.037743;89.4;0.0;0.0;2.0;0.0;0.0
4.0;1753875308.084437;16.985238;0.53;-1.59;-15.14;0.830739;-0.583691;0.061504;90.9;0.0;0.0;2.0;0.0;0.0
4.0;1753875308.089042;16.984567;1.67;-1.66;-16.4;0.807775;-0.595327;0.048363;89.6;0.0;0.0;2.0;0.0;0.0
4.0;1753875308.093647;16.993449;0.55;-1.66;-18.99;0.808088;-0.648628;0.056028;90.1;0.0;0.0;2.0;0.0;0.0
4.0;1753875308.098252;17.005681;0.29;-2.62;-18.32;0.790695;-0.59465;0.036077;90.1;0.0;0.0;2.0;0.0;0.0
4.0;1753875308.102857;16.980877;0.45;-2.25;-21.21;0.787654;-0.542045;0.049306;90.8;0.0;0.0;2.0;0.0;0.0
4.0;1753875308.107462;16.973625;0.29;-1.68;-25.1;0.787243;-0.677865;0.071985;90.0;0.0;0.0;2.0;0.0;0.0
4.0;1753875308.112068;17.003575;0.48;-2.0;-20.97;0.814461;-0.57646;0.0577;90.6;0.0;0.0;2.0;0.0;0.0
4.0;1753875308.116672;17.004669;1.59;-1.14;-25.92;0.815807;-0.60192;0.024817;90.3;0.0;0.0;2.0;0.0;0.0
4.0;1753875308.121278;16.981968;0.55;-2.33;-18.84;0.757544;-0.561587;0.040891;89.8;0.0;0.0;2.0;0.0;0.0
4.0;1753875308.125883;16.992204;1.47;-1.85;-25.13;0.815245;-0.645124;0.065356;89.6;0.0;0.0;2.0;0.0;0.0
4.0;1753875308.130488;16.98533;0.95;-1.53;-21.39;0.749631;-0.532083;0.033443;90.5;0.0;0.0;2.0;0.0;0.0
4.0;1753875308.135093;16.999388;0.4;-2.48;-21.09;0.807297;-0.524728;0.053734;89.4;0.0;0.0;2.0;0.0;0.0
4.0;1753875308.139698;16.989826;-0.07;-1.52;-19.04;0.815484;-0.592733;0.046664;89.9;0.0;0.0;2.0;0.0;0.0
4.0;1753875308.144303;16.992263;2.22;-2.21;-22.47;0.778922;-0.656407;0.047892;90.1;0.0;0.0;2.0;0.0;0.0
4.0;1753875308.148908;16.978939;0.2;-2.62;-22.17;0.796882;-0.64958;0.054107;89.8;0.0;0.0;2.0;0.0;0.0
4.0;1753875308.153513;16.98854;0.32;-2.33;-25.0;0.745886;-0.558307;0.042643;88.7;0.0;0.0;2.0;0.0;0.0
4.0;1753875308.158118;16.963994;1.46;-1.8;-16.45;0.800363;-0.61796;0.03649;90.0;0.0;0.0;2.0;0.0;0.0
4.0;1753875308.162723;16.99117;1.0;-3.02;-21.27;0.829405;-0.551939;0.065454;89.6;0.0;0.0;2.0;0.0;0.0
4.0;1753875308.167328;16.996896;1.66;-1.74;-19.46;0.808688;-0.592399;0.038431;88.9;0.0;0.0;2.0;0.0;0.0
4.0;1753875308.171933;17.001173;0.9;-0.75;-18.99;0.805956;-0.57188;0.043211;90.1;0.0;0.0;2.0;0.0;0.0
4.0;1753875308.176538;16.994849;0.58;-1.91;-16.08;0.763838;-0.578805;0.069588;89.9;0.0;0.0;2.0;0.0;0.0
4.0;1753875308.181143;16.985553;0.57;-2.52;-19.5;0.834564;-0.57787;0.042813;88.9;0.0;0.0;2.0;0.0;0.0
4.0;1753875308.185748;16.983724;0.17;-2.24;-19.82;0.809792;-0.706472;0.04594;88.1;0.0;0.0;2.0;0.0;0.0
4.0;1753875308.190354;16.997178;0.55;-2.15;-19.31;0.817958;-0.556889;0.048937;89.5;0.0;0.0;2.0;0.0;0.0
4.0;1753875308.194958;16.984687;0.36;-1.9;-21.48;0.803226;-0.498519;0.044142;89.5;0.0;0.0;2.0;0.0;0.0
4.0;1753875308.199564;16.976059;-0.04;-1.74;-18.06;0.780497;-0.553382;0.054125;89.2;0.0;0.0;2.0;0.0;0.0
4.0;1753875308.204168;17.001977;2.35;-3.02;-18.45;0.760319;-0.634896;0.031716;90.0;0.0;0.0;2.0;0.0;0.0
4.0;1753875308.208774;17.000097;1.5;-2.57;-18.71;0.801487;-0.607443;0.064264;89.0;0.0;0.0;2.0;0.0;0.0
4.0;1753875308.213379;16.994567;0.4;-2.84;-23.02;0.868056;-0.57689;0.054046;89.2;0.0;0.0;2.0;0.0;0.0
4.0;1753875308.217984;17.004201;1.51;-1.72;-21.08;0.880722;-0.627195;0.044316;89.5;0.0;0.0;2.0;0.0;0.0
4.0;1753875308.222589;17.006668;0.61;-1.28;-20.41;0.760817;-0.587164;0.045884;89.0;0.0;0.0;2.0;0.0;0.0
4.0;1753875308.227194;17.011817;0.88;-2.06;-23.2;0.81155;-0.588024;0.053298;89.7;0.0;0.0;2.0;0.0;0.0
4.0;1753875308.231799;17.014238;0.09;-0.73;-20.7;0.808517;-0.550118;0.022905;88.9;0.0;0.0;2.0;0.0;0.0
4.0;1753875308.236404;16.995759;0.56;-1.44;-22.03;0.826441;-0.587018;0.05095;89.6;0.0;0.0;2.0;0.0;0.0
4.0;1753875308.2427;17.0;0.84;-2.24;-20.09;0.793122;-0.59536;0.051118;89.0;0.0;0.0;2.0;0.0;0.0
4.0;1753875308.247305;16.993669;1.6;-2.25;-20.67;0.794971;-0.560796;0.056935;89.0;0.0;0.0;2.0;0.0;0.0
4.0;1753875308.25191;17.008238;0.95;-1.72;-18.85;0.828406;-0.622346;0.053844;89.4;0.0;0.0;2.0;0.0;0.0
4.0;1753875308.256515;16.993203;2.09;-2.37;-18.79;0.761044;-0.687818;0.049123;89.0;0.0;0.0;2.0;0.0;0.0
4.0;1753875308.26112;17.014464;1.81;-0.64;-21.3;0.806119;-0.649162;0.060304;89.0;0.0;0.0;2.0;0.0;0.0
4.0;1753875308.265725;17.007877;0.69;-1.61;-25.45;0.772464;-0.660638;0.07619;90.6;0.0;0.0;2.0;0.0;0.0
4.0;1753875308.27033;17.006035;0.53;-3.43;-23.76;0.822757;-0.65473;0.047877;89.1;0.0;0.0;2.0;0.0;0.0
4.0;1753875308.274936;16.978725;0.85;-2.17;-24.72;0.719941;-0.635674;0.057496;88.4;0.0;0.0;2.0;0.0;0.0
4.0;1753875308.27954;17.008192;-0.35;-2.72;-23.88;0.751596;-0.578615;0.058471;89.9;0.0;0.0;2.0;0.0;0.0
4.0;1753875308.284146;17.010768;1.16;-2.69;-16.83;0.787863;-0.597913;0.061298;88.7;0.0;0.0;2.0;0.0;0.0
4.0;1753875308.288751;17.011187;1.33;-1.82;-24.14;0.795577;-0.570495;0.036339;89.0;0.0;0.0;2.0;0.0;0.0
4.0;1753875308.293356;16.988145;0.94;-3.02;-17.5;0.749457;-0.580781;0.038525;89.7;0.0;0.0;2.0;0.0;0.0
4.0;1753875308.297961;16.997977;1.27;-1.33;-26.6;0.78579;-0.636473;0.045369;88.7;0.0;0.0;2.0;0.0;0.0
4.0;1753875308.302566;16.993986;1.4;-1.81;-21.51;0.767741;-0.568238;0.05154;89.7;0.0;0.0;2.0;0.0;0.0
4.0;1753875308.307171;17.010823;0.81;-2.91;-23.76;0.81953;-0.640813;0.040818;89.1;0.0;0.0;2.0;0.0;0.0
4.0;1753875308.311776;16.983552;1.4;-4.37;-25.63;0.803023;-0.606089;0.061674;88.7;0.0;0.0;2.0;0.0;0.0
4.0;1753875308.316381;17.002139;1.8;-2.63;-12.33;0.72269;-0.549294;0.065457;88.7;0.0;0.0;2.0;0.0;0.0
4.0;1753875308.320986;16.988043;0.47;-3.58;-16.84;0.737638;-0.654909;0.067696;89.3;0.0;0.0;2.0;0.0;0.0
4.0;1753875308.325591;16.965223;-0.94;-1.1;-14.83;0.779686;-0.620668;0.040387;90.0;0.0;0.0;2.0;0.0;0.0
4.0;1753875308.330196;17.01597;0.33;-2.01;-17.22;0.738857;-0.550062;0.046587;88.2;0.0;0.0;2.0;0.0;0.0
4.0;1753875308.334801;17.006984;2.4;-3.03;-25.15;0.814759;-0.634814;0.042103;89.2;0.0;0.0;2.0;0.0;0.0
4.0;1753875308.339406;17.01951;1.44;-3.69;-23.36;0.746658;-0.552828;0.048647;89.0;0.0;0.0;2.0;0.0;0.0
4.0;1753875308.344011;17.009219;0.46;-2.61;-19.32;0.813085;-0.586189;0.06742;88.5;0.0;0.0;2.0;0.0;0.0
4.0;1753875308.348616;16.996868;0.49;-2.16;-19.15;0.752198;-0.642509;0.037584;88.6;0.0;0.0;2.0;0.0;0.0
4.0;1753875308.353222;17.011288;0.96;-2.98;-16.49;0.715607;-0.592736;0.054355;89.1;0.0;0.0;2.0;0.0;0.0
4.0;1753875308.357826;17.003963;1.35;-2.24;-18.93;0.754522;-0.546483;0.086972;89.5;0.0;0.0;2.0;0.0;0.0
4.0;1753875308.362432;16.998727;0.46;-1.84;-19.09;0.797065;-0.544489;0.061616;90.4;0.0;0.0;2.0;0.0;0.0
4.0;1753875308.367036;17.003848;1.02;-2.92;-26.82;0.851306;-0.567096;0.077668;89.5;0.0;0.0;2.0;0.0;0.0
4.0;1753875308.371642;16.981963;1.72;-2.46;-21.93;0.793809;-0.647712;0.033355;90.4;0.0;0.0;2.0;0.0;0.0
4.0;1753875308.376247;16.991507;0.24;-2.31;-24.99;0.740558;-0.665471;0.054613;89.3;0.0;0.0;2.0;0.0;0.0
4.0;1753875308.380852;16.997658;0.3;-2.2;-18.11;0.762801;-0.516956;0.022102;88.8;0.0;0.0;2.0;0.0;0.0
4.0;1753875308.385457;17.016005;0.43;-1.74;-21.95;0.834022;-0.622209;0.03577;88.4;0.0;0.0;2.0;0.0;0.0
4.0;1753875308.390062;17.010523;0.8;-2.14;-19.38;0.746129;-0.648256;0.0328;90.5;0.0;0.0;2.0;0.0;0.0
4.0;1753875308.394667;17.002333;0.73;-1.96;-19.68;0.813336;-0.561714;0.059418;88.1;0.0;0.0;2.0;0.0;0.0
4.0;1753875308.399272;16.995052;1.24;-0.63;-19.13;0.823884;-0.569462;0.073104;88.7;0.0;0.0;2.0;0.0;0.0
4.0;1753875308.403877;17.002364;1.32;-1.65;-18.71;0.773584;-0.642811;0.034716;89.1;0.0;0.0;2.0;0.0;0.0
4.0;1753875308.408482;16.989637;0.28;-1.02;-15.88;0.852533;-0.557383;0.053917;89.3;0.0;0.0;2.0;0.0;0.0
4.0;1753875308.413087;17.015046;1.51;-1.27;-22.8;0.765067;-0.656284;0.056304;89.1;0.0;0.0;2.0;0.0;0.0
4.0;1753875308.417692;17.002581;0.56;-0.93;-21.2;0.800216;-0.671899;0.041116;89.5;0.0;0.0;2.0;0.0;0.0
4.0;1753875308.422297;17.011675;1.29;-1.25;-17.86;0.802088;-0.618556;0.069642;88.8;0.0;0.0;2.0;0.0;0.0
4.0;1753875308.426902;16.990158;0.66;-2.33;-16.57;0.788175;-0.614339;0.041108;89.1;0.0;0.0;2.0;0.0;0.0
4.0;1753875308.431507;17.010756;1.07;-0.74;-20.36;0.873116;-0.607516;0.078696;88.4;0.0;0.0;2.0;0.0;0.0
4.0;1753875308.436112;16.96834;1.83;-1.28;-13.97;0.804739;-0.557541;0.050466;90.2;0.0;0.0;2.0;0.0;0.0
4.0;1753875308.440718;16.985011;0.93;-1.82;-20.06;0.749234;-0.641336;0.056578;89.8;0.0;0.0;2.0;0.0;0.0
4.0;1753875308.445322;17.007425;1.02;-2.64;-20.0;0.838953;-0.610053;0.054386;89.0;0.0;0.0;2.0;0.0;0.0
4.0;1753875308.449928;17.00759;0.26;-2.02;-15.78;0.692249;-0.646852;0.031764;89.4;0.0;0.0;2.0;0.0;0.0
4.0;1753875308.454532;17.007569;0.11;-2.66;-23.25;0.784436;-0.555546;0.021237;87.6;0.0;0.0;2.0;0.0;0.0
4.0;1753875308.459138;16.995233;1.16;-2.31;-22.17;0.772665;-0.660729;0.052429;88.4;0.0;0.0;2.0;0.0;0.0
4.0;1753875308.463743;16.983972;1.22;-1.88;-17.13;0.786572;-0.642494;0.063066;89.7;0.0;0.0;2.0;0.0;0.0
4.0;1753875308.468348;16.988932;1.08;-2.01;-17.98;0.771917;-0.666144;0.076803;89.0;0.0;0.0;2.0;0.0;0.0
4.0;1753875308.472953;17.009708;1.71;-2.39;-14.75;0.795661;-0.593189;0.039448;89.2;0.0;0.0;2.0;0.0;0.0
4.0;1753875308.477558;17.015889;0.44;-1.1;-21.0;0.781741;-0.673083;0.055587;88.2;0.0;0.0;2.0;0.0;0.0
4.0;1753875308.482163;17.008957;-0.09;-1.34;-17.25;0.818018;-0.627287;0.065899;88.3;0.0;0.0;2.0;0.0;0.0
4.0;1753875308.486768;16.995463;0.6;-2.41;-18.91;0.773108;-0.601935;0.058514;88.5;0.0;0.0;2.0;0.0;0.0
4.0;1753875308.491373;16.98032;1.19;-2.5;-19.9;0.817065;-0.68996;0.074866;89.6;0.0;0.0;2.0;0.0;0.0
4.0;1753875308.495978;16.995034;1.64;-1.68;-20.67;0.799589;-0.642725;0.054617;89.1;0.0;0.0;2.0;0.0;0.0
4.0;1753875308.500583;17.001293;0.62;-2.49;-18.79;0.789657;-0.61279;0.020087;90.2;0.0;0.0;2.0;0.0;0.0
4.0;1753875308.505188;16.985705;1.41;-3.19;-22.28;0.761628;-0.635871;0.063091;89.3;0.0;0.0;2.0;0.0;0.0
4.0;1753875308.509793;17.019075;1.83;-2.37;-22.31;0.73653;-0.640028;0.036584;87.5;0.0;0.0;2.0;0.0;0.0
4.0;1753875308.514398;16.976832;0.26;-1.1;-24.62;0.802688;-0.552506;0.048752;89.1;0.0;0.0;2.0;0.0;0.0
4.0;1753875308.519004;16.983128;1.21;-2.25;-18.08;0.799026;-0.65999;0.043582;89.0;0.0;0.0;2.0;0.0;0.0
4.0;1753875308.523608;17.016127;0.47;-1.86;-24.97;0.774107;-0.623143;0.082121;88.5;0.0;0.0;2.0;0.0;0.0
4.0;1753875308.528214;16.999768;1.68;-2.49;-15.98;0.78702;-0.572785;0.050672;88.9;0.0;0.0;2.0;0.0;0.0
4.0;1753875308.532818;16.995915;1.29;-1.78;-13.05;0.808559;-0.617214;0.071794;88.9;0.0;0.0;2.0;0.0;0.0
4.0;1753875308.537424;17.000391;0.49;-1.92;-18.32;0.894361;-0.603837;0.043404;89.4;0.0;0.0;2.0;0.0;0.0
4.0;1753875308.542029;17.003541;0.44;-1.03;-19.18;0.816428;-0.638599;0.050095;88.5;0.0;0.0;2.0;0.0;0.0
4.0;1753875308.546634;16.993964;0.45;-1.3;-18.48;0.855906;-0.593508;0.060466;88.8;0.0;0.0;2.0;0.0;0.0
4.0;1753875308.551239;17.004727;1.38;-3.03;-24.08;0.82953;-0.595424;0.057959;89.7;0.0;0.0;2.0;0.0;0.0
4.0;1753875308.555844;17.010474;1.2;-1.86;-15.66;0.823208;-0.656933;0.074769;88.4;0.0;0.0;2.0;0.0;0.0
4.0;1753875308.560449;17.001038;1.23;-1.83;-22.12;0.830303;-0.600745;0.052858;88.8;0.0;0.0;2.0;0.0;0.0
4.0;1753875308.565054;17.017835;1.48;-2.45;-14.92;0.755258;-0.539876;0.061766;88.7;0.0;0.0;2.0;0.0;0.0
4.0;1753875308.569659;16.977332;1.03;-2.92;-16.8;0.78896;-0.589812;0.074019;88.5;0.0;0.0;2.0;0.0;0.0
4.0;1753875308.574264;16.97579;0.96;-1.01;-13.72;0.843255;-0.545562;0.050516;88.7;0.0;0.0;2.0;0.0;0.0
4.0;1753875308.578869;17.000872;1.45;-1.3;-16.74;0.822647;-0.597428;0.080727;88.4;0.0;0.0;2.0;0.0;0.0
4.0;1753875308.583474;16.999046;-0.12;-0.82;-20.49;0.802736;-0.611829;0.092046;90.0;0.0;0.0;2.0;0.0;0.0
4.0;1753875308.588079;17.004559;0.75;-0.88;-20.91;0.839756;-0.631466;0.029394;89.5;0.0;0.0;2.0;0.0;0.0
4.0;1753875308.5966;17.0;0.98;-2.03;-18.2;0.781166;-0.627812;0.056974;89.0;0.0;0.0;2.0;0.0;0.0
4.0;1753875308.601205;16.992651;1.9;-0.57;-25.48;0.764878;-0.656707;0.031374;89.1;0.0;0.0;2.0;0.0;0.0
4.0;1753875308.60592;17.0;2.73;-3.01;-9.66;0.781654;-0.610244;0.035502;90.0;0.0;0.0;2.0;0.0;0.0
4.0;1753875308.610525;17.011232;2.57;-3.72;-7.69;0.77087;-0.64824;0.042989;89.8;0.0;0.0;2.0;0.0;0.0
4.0;1753875308.61513;16.989769;2.9;-2.5;-11.4;0.851125;-0.71364;0.01911;91.3;0.0;0.0;2.0;0.0;0.0
4.0;1753875308.619735;16.995632;2.41;-2.02;-21.23;0.832199;-0.610091;0.026383;89.0;0.0;0.0;2.0;0.0;0.0
4.0;1753875308.62434;16.99436;2.8;-1.97;-13.4;0.859476;-0.596448;0.014401;89.7;0.0;0.0;2.0;0.0;0.0
4.0;1753875308.628945;17.004304;3.58;-2.54;-12.83;0.808632;-0.683942;0.011775;89.3;0.0;0.0;2.0;0.0;0.0
4.0;1753875308.63355;17.00372;3.77;-2.75;-12.32;0.798709;-0.560247;0.017022;90.9;0.0;0.0;2.0;0.0;0.0
4.0;1753875308.638156;17.003621;3.42;-4.36;-10.51;0.79718;-0.695419;0.020294;90.0;0.0;0.0;2.0;0.0;0.0
4.0;1753875308.64276;16.996369;1.72;-3.89;-6.96;0.77105;-0.649757;0.014369;91.0;0.0;0.0;2.0;0.0;0.0
4.0;1753875308.647366;17.000228;1.68;-4.44;-3.94;0.861575;-0.651844;0.004264;90.5;0.0;0.0;2.0;0.0;0.0
4.0;1753875308.65197;17.010425;3.46;-3.27;-16.96;0.816955;-0.589244;-0.006364;87.8;0.0;0.0;2.0;0.0;0.0
4.0;1753875308.656576;16.994894;3.5;-4.13;-13.37;0.853794;-0.653139;0.001824;88.9;0.0;0.0;2.0;0.0;0.0
4.0;1753875308.661181;17.004083;3.54;-3.29;-22.21;0.85191;-0.586638;-0.010397;91.3;0.0;0.0;2.0;0.0;0.0
4.0;1753875308.665786;17.002598;1.34;-2.84;-16.01;0.843847;-0.652882;0.012154;91.3;0.0;0.0;2.0;0.0;0.0
4.0;1753875308.670391;17.001069;2.61;-3.48;-3.06;0.893017;-0.730287;0.00589;90.5;0.0;0.0;2.0;0.0;0.0
4.0;1753875308.67698;17.0;2.59;-3.71;-12.25;0.876936;-0.672342;-0.00915;90.0;0.0;0.0;2.0;0.0;0.0
4.0;1753875308.681585;17.017734;1.45;-5.06;-18.13;0.835198;-0.589106;-0.011529;89.4;0.0;0.0;2.0;0.0;0.0
4.0;1753875308.68619;16.985931;4.32;-4.51;-18.35;0.834441;-0.628978;-0.049281;89.6;0.0;0.0;2.0;0.0;0.0
4.0;1753875308.690795;16.981082;3.57;-4.03;-16.33;0.725178;-0.568696;0.030033;89.8;0.0;0.0;2.0;0.0;0.0
4.0;1753875308.6954;16.985681;2.8;-8.12;-17.97;0.735849;-0.5843;-0.006952;89.3;0.0;0.0;2.0;0.0;0.0
4.0;1753875308.70025;16.984375;2.52;-5.39;-16.03;0.6405;-0.598898;-0.006954;90.0;0.0;0.0;2.0;0.0;0.0
4.0;1753875308.704855;16.979367;1.99;-4.34;-18.41;0.641445;-0.584909;-0.02178;89.5;0.0;0.0;2.0;0.0;0.0
4.0;1753875308.70946;16.978267;1.73;-6.26;-9.93;0.703752;-0.594804;-0.012088;89.4;0.0;0.0;2.0;0.0;0.0
4.0;1753875308.714065;16.975165;2.39;-4.75;-8.61;0.67022;-0.650329;-0.001457;89.7;0.0;0.0;2.0;0.0;0.0
4.0;1753875308.71867;16.976324;3.28;-5.3;-19.63;0.697381;-0.651946;-0.026272;90.7;0.0;0.0;2.0;0.0;0.0
4.0;1753875308.723275;16.987161;2.64;-3.49;-16.31;0.589771;-0.684047;-0.02618;91.3;0.0;0.0;2.0;0.0;0.0
4.0;1753875308.72788;16.977746;2.65;-6.52;-18.16;0.68921;-0.606794;-0.034206;89.5;0.0;0.0;2.0;0.0;0.0
4.0;1753875308.732485;16.988671;2.81;-4.75;-16.27;0.650528;-0.705776;-0.059182;89.7;0.0;0.0;2.0;0.0;0.0
4.0;1753875308.73709;16.979922;0.88;-4.24;-18.79;0.745237;-0.652289;-0.011543;90.4;0.0;0.0;2.0;0.0;0.0
4.0;1753875308.741696;16.991746;2.19;-4.39;-10.24;0.670922;-0.656498;-0.025291;89.0;0.0;0.0;2.0;0.0;0.0
4.0;1753875308.7463;16.990272;1.49;-1.9;-21.58;0.74929;-0.59708;-0.056516;90.7;0.0;0.0;2.0;0.0;0.0
4.0;1753875308.750906;16.996071;1.34;-1.16;-14.66;0.804945;-0.679634;-0.088286;90.1;0.0;0.0;2.0;0.0;0.0
4.0;1753875308.75551;16.992199;2.18;-0.41;-10.83;0.747369;-0.685959;-0.070915;90.3;0.0;0.0;2.0;0.0;0.0
4.0;1753875308.760116;16.984079;2.43;-0.54;-20.25;0.823549;-0.622673;-0.016269;90.2;0.0;0.0;2.0;0.0;0.0
4.0;1753875308.764721;16.992002;1.72;-0.4;-8.95;0.801315;-0.703999;-0.000812;89.9;0.0;0.0;2.0;0.0;0.0
4.0;1753875308.769326;16.984541;1.2;-0.82;-14.13;0.705103;-0.759623;-0.029827;89.4;0.0;0.0;2.0;0.0;0.0
4.0;1753875308.773931;16.990095;1.34;-0.25;-15.83;0.729985;-0.770737;-0.070937;90.3;0.0;0.0;2.0;0.0;0.0
4.0;1753875308.778536;16.971891;2.69;-2.57;-17.91;0.774861;-0.660654;-0.06871;90.2;0.0;0.0;2.0;0.0;0.0
4.0;1753875308.783141;16.991862;2.88;-2.36;-19.72;0.781827;-0.679267;-0.072777;90.0;0.0;0.0;2.0;0.0;0.0
4.0;1753875308.787746;16.992208;2.38;-0.32;-21.47;0.799084;-0.736202;-0.019465;90.3;0.0;0.0;2.0;0.0;0.0
4.0;1753875308.79303;16.984375;2.31;-0.56;-16.31;0.801662;-0.727608;-0.052216;90.0;0.0;0.0;2.0;0.0;0.0
4.0;1753875308.797635;16.975174;2.99;-0.29;-20.99;0.751368;-0.802152;-0.023264;89.4;0.0;0.0;2.0;0.0;0.0
4.0;1753875308.80224;16.997921;2.65;-0.1;-13.82;0.783339;-0.722444;-0.078542;90.1;0.0;0.0;2.0;0.0;0.0
4.0;1753875308.806845;16.984302;3.01;-1.7;-22.26;0.818806;-0.738303;-0.068314;89.1;0.0;0.0;2.0;0.0;0.0
4.0;1753875308.81145;16.97254;2.62;-0.17;-22.61;0.827418;-0.748319;-0.058096;88.7;0.0;0.0;2.0;0.0;0.0
4.0;1753875308.816055;16.975324;1.37;-2.33;-23.05;0.775345;-0.599061;-0.074585;90.7;0.0;0.0;2.0;0.0;0.0
4.0;1753875308.82066;16.982469;2.32;-2.4;-18.38;0.860929;-0.662557;-0.074808;90.1;0.0;0.0;2.0;0.0;0.0
4.0;1753875308.825266;16.970995;1.48;-0.56;-24.28;0.725059;-0.799517;-0.03343;89.6;0.0;0.0;2.0;0.0;0.0
4.0;1753875308.82987;16.984863;2.26;-2.22;-18.75;0.810992;-0.733358;-0.033176;89.4;0.0;0.0;2.0;0.0;0.0
4.0;1753875308.83786;16.984375;2.17;-1.4;-21.28;0.801662;-0.727608;-0.052216;90.0;0.0;0.0;2.0;0.0;0.0
4.0;1753875308.842465;16.988064;1.48;0.43;-22.77;0.80111;-0.733028;-0.097258;90.5;0.0;0.0;2.0;0.0;0.0
4.0;1753875308.84707;16.995261;1.7;-0.2;-17.44;0.804534;-0.703296;-0.067216;90.2;0.0;0.0;2.0;0.0;0.0
4.0;1753875308.851675;16.989607;2.46;-0.56;-25.81;0.848696;-0.750905;-0.008969;90.4;0.0;0.0;2.0;0.0;0.0
4.0;1753875308.85628;16.987687;1.25;-0.13;-21.61;0.750953;-0.65739;0.004473;89.4;0.0;0.0;2.0;0.0;0.0
4.0;1753875308.860886;17.004593;1.9;-2.15;-18.68;0.822488;-0.672986;-0.065978;90.4;0.0;0.0;2.0;0.0;0.0
4.0;1753875308.86549;17.000623;2.72;0.56;-23.23;0.800204;-0.649986;0.021147;89.8;0.0;0.0;2.0;0.0;0.0
4.0;1753875308.870096;17.000711;1.52;-0.56;-20.73;0.732933;-0.645881;-0.060707;90.8;0.0;0.0;2.0;0.0;0.0
4.0;1753875308.8788;17.0;2.03;-0.35;-22.54;0.753594;-0.630618;-0.02745;90.0;0.0;0.0;2.0;0.0;0.0
4.0;1753875308.883405;17.007768;3.11;-0.78;-27.26;0.784598;-0.67767;-0.045128;89.7;0.0;0.0;2.0;0.0;0.0
4.0;1753875308.88801;17.005211;2.74;-1.23;-20.75;0.734904;-0.586029;-0.057078;88.9;0.0;0.0;2.0;0.0;0.0
4.0;1753875308.892615;17.002017;3.08;-1.15;-22.47;0.774841;-0.774731;-0.044266;89.2;0.0;0.0;2.0;0.0;0.0
4.0;1753875308.89722;17.002941;1.3;-0.99;-26.08;0.740124;-0.730023;0.008008;90.4;0.0;0.0;2.0;0.0;0.0
4.0;1753875308.901825;17.008141;1.51;-1.3;-19.47;0.763345;-0.607641;-0.052926;89.9;0.0;0.0;2.0;0.0;0.0
4.0;1753875308.90643;16.998375;1.19;0.43;-22.37;0.688669;-0.779762;-0.027414;89.6;0.0;0.0;2.0;0.0;0.0
4.0;1753875308.911035;16.994157;2.14;0.59;-26.44;0.778662;-0.678863;-0.000779;89.5;0.0;0.0;2.0;0.0;0.0
4.0;1753875308.91564;17.008539;1.72;-2.43;-27.25;0.755992;-0.67516;0.010829;90.0;0.0;0.0;2.0;0.0;0.0
4.0;1753875308.920246;17.001357;2.98;0.99;-25.11;0.790925;-0.80158;-0.026557;90.0;0.0;0.0;2.0;0.0;0.0
4.0;1753875308.92466;17.0;2.1;-1.19;-26.25;0.75762;-0.74542;-0.0305;90.0;0.0;0.0;2.0;0.0;0.0
4.0;1753875308.929265;17.003236;2.45;-0.45;-27.7;0.790122;-0.682355;-0.071534;89.5;0.0;0.0;1.9;0.0;0.0
4.0;1753875308.93387;16.993253;0.42;-2.53;-23.13;0.810491;-0.717963;-0.013583;90.3;0.0;0.0;1.9;0.0;0.0
4.0;1753875308.938475;17.005551;1.98;1.55;-25.7;0.831036;-0.797619;-0.030447;88.1;0.0;0.0;1.6;0.0;0.0
4.0;1753875308.94308;17.005552;1.04;-1.62;-22.28;0.703025;-0.675924;-0.035788;87.9;0.0;0.0;1.6;0.0;0.0
4.0;1753875308.947685;16.989882;0.99;0.62;-26.06;0.793883;-0.6998;0.010718;88.5;0.0;0.0;1.3;0.0;0.0
4.0;1753875308.95229;16.996215;1.4;-0.83;-31.87;0.853633;-0.792867;-0.053472;88.7;0.0;0.0;1.2;0.0;0.0
4.0;1753875308.956895;16.999269;1.62;-0.62;-28.75;0.773148;-0.767695;-0.001579;88.3;0.0;0.0;1.6;0.0;0.0
4.0;1753875308.9615;17.004476;1.77;0.92;-29.76;0.802451;-0.749809;-0.067379;88.9;0.0;0.0;1.3;0.0;0.0
4.0;1753875308.966106;17.010765;0.31;0.17;-24.98;0.800008;-0.625587;-0.024652;87.9;0.0;0.0;1.7;0.0;0.0
4.0;1753875308.97071;17.014065;-0.13;-1.88;-33.78;0.834876;-0.764996;-0.069766;88.6;0.0;0.0;1.3;0.0;0.0
4.0;1753875308.975316;17.011522;1.1;1.2;-30.5;0.742493;-0.676783;0.011091;86.5;0.0;0.0;1.6;0.0;0.0
4.0;1753875308.979921;16.998291;0.8;-1.67;-31.8;0.793562;-0.698151;-0.028349;86.7;0.0;0.0;1.6;0.0;0.0
4.0;1753875308.984526;16.998708;0.56;0.26;-25.8;0.766888;-0.606628;-0.02923;86.8;0.0;0.0;1.0;0.0;0.0
4.0;1753875308.989131;17.00953;0.83;-0.88;-36.33;0.815363;-0.74411;-0.00299;86.3;0.0;0.0;1.0;0.0;0.0
4.0;1753875308.99548;17.0;0.7;-1.12;-32.55;0.776042;-0.725412;-0.035136;87.0;0.0;0.0;1.0;0.0;0.0
4.0;1753875308.996302;16.976562;1.4;-0.91;-240.17;1.039684;0.658434;0.174338;0.0;0.0;0.0;0.0;0.0;0.0
4.0;1753875308.998083;16.941406;3.64;1.47;-223.44;0.716994;0.637572;-0.045628;0.0;0.0;0.0;0.0;0.0;0.0
4.0;1753875309.002688;16.963487;1.48;3.82;-196.65;0.741132;0.774537;-0.094359;-100.9;0.0;0.0;-25.0;0.0;0.0
4.0;1753875309.007293;16.92747;4.44;-1.11;-192.31;0.598079;0.622527;0.022741;110.1;0.0;0.0;-9.1;0.0;0.0
4.0;1753875309.011898;16.910224;2.86;5.11;-260.16;0.730719;0.735151;-0.039173;21.7;0.0;0.0;-1.2;0.0;0.0
4.0;1753875309.016503;16.945229;3.22;1.75;-219.61;0.65868;0.543703;-0.089713;-130.4;0.0;0.0;6.3;0.0;0.0
4.0;1753875309.021108;16.918053;2.57;-0.23;-123.5;0.642798;0.63546;0.006614;-20.1;0.0;0.0;-2.6;0.0;0.0
4.0;1753875309.025714;16.9148;2.12;-0.08;-207.49;0.759045;0.576497;-0.060386;3.4;0.0;0.0;32.6;0.0;0.0
4.0;1753875309.030318;16.904487;2.55;0.99;-221.87;0.782555;0.724479;-0.166196;-54.2;0.0;0.0;-6.2;0.0;0.0
4.0;1753875309.034924;16.938834;3.7;-1.21;-280.83;0.82701;0.471168;-0.006524;161.9;0.0;0.0;10.1;0.0;0.0
4.0;1753875309.039528;16.934949;2.8;0.44;-250.2;0.662648;0.689993;-0.056961;12.9;0.0;0.0;30.0;0.0;0.0
4.0;1753875309.044134;16.935281;3.12;2.27;-247.31;0.955399;0.488403;-0.186553;85.6;0.0;0.0;4.8;0.0;0.0
4.0;1753875309.048739;16.957305;4.55;3.43;-216.15;0.817281;0.73496;-0.03397;-15.8;0.0;0.0;18.5;0.0;0.0
4.0;1753875309.053344;16.91065;3.75;3.9;-212.81;0.740978;0.43593;-0.017538;49.1;0.0;0.0;9.3;0.0;0.0
4.0;1753875309.057949;16.916679;0.54;3.51;-236.78;0.722231;0.599816;-0.011741;-65.1;0.0;0.0;19.2;0.0;0.0
4.0;1753875309.062554;16.969472;1.25;0.4;-257.69;0.718366;0.56898;-0.042525;-145.9;0.0;0.0;12.3;0.0;0.0
4.0;1753875309.067159;16.928587;4.13;3.44;-208.57;0.779794;0.5963;0.176038;32.4;0.0;0.0;-1.0;0.0;0.0
4.0;1753875309.071764;16.944772;4.2;1.49;-268.09;0.722872;0.483581;-0.046313;1.5;0.0;0.0;14.5;0.0;0.0
4.0;1753875309.076369;16.946493;3.18;2.64;-216.85;0.642921;0.614109;-0.115706;72.1;0.0;0.0;-7.1;0.0;0.0
4.0;1753875309.080974;16.940056;3.11;-1.06;-255.39;0.820476;0.593344;0.06954;-0.3;0.0;0.0;8.5;0.0;0.0
4.0;1753875309.085579;16.924592;1.72;5.96;-202.52;0.797995;0.617539;0.04337;53.6;0.0;0.0;4.6;0.0;0.0
4.0;1753875309.090184;16.909627;0.74;-1.92;-213.95;0.649868;0.669134;-0.00829;112.3;0.0;0.0;-1.6;0.0;0.0
4.0;1753875309.094789;16.948174;0.44;1.87;-257.58;0.823976;0.631896;0.034598;-8.8;0.0;0.0;-15.2;0.0;0.0
4.0;1753875309.099394;16.908996;2.77;1.04;-243.33;0.795231;0.623317;0.009897;18.7;0.0;0.0;17.0;0.0;0.0
4.0;1753875309.104;16.965282;2.3;2.74;-181.75;0.660603;0.573757;-3.3e-05;60.0;0.0;0.0;-3.1;0.0;0.0
4.0;1753875309.108604;16.924753;4.19;2.75;-254.03;0.745558;0.569461;0.059177;-93.3;0.0;0.0;10.3;0.0;0.0
4.0;1753875309.11321;16.977881;0.76;4.23;-186.39;0.826928;0.532967;-0.013805;1.8;0.0;0.0;-14.5;0.0;0.0
4.0;1753875309.117814;16.971129;2.78;3.01;-199.19;0.778653;0.698693;-0.024509;-8.1;0.0;0.0;5.2;0.0;0.0
4.0;1753875309.12242;16.925521;2.97;2.46;-228.8;0.828083;0.625239;-0.007515;20.6;0.0;0.0;-8.0;0.0;0.0
4.0;1753875309.127025;16.971509;2.32;5.0;-182.39;0.870633;0.48421;-0.008792;-12.8;0.0;0.0;-15.9;0.0;0.0
4.0;1753875309.13163;16.943423;0.9;-1.25;-213.44;0.862674;0.618167;-0.076094;-68.0;0.0;0.0;-15.5;0.0;0.0
4.0;1753875309.136235;16.932237;2.18;2.66;-244.48;0.862953;0.576652;0.049044;-43.3;0.0;0.0;-12.2;0.0;0.0
4.0;1753875309.14084;16.949668;2.02;2.93;-226.84;0.877641;0.508787;-0.054754;-42.5;0.0;0.0;-25.5;0.0;0.0
4.0;1753875309.145445;16.970492;2.58;-2.28;-182.45;0.874103;0.625027;0.036701;79.2;0.0;0.0;14.8;0.0;0.0
4.0;1753875309.15005;16.948556;2.43;0.78;-199.07;0.773557;0.692246;-0.032507;18.4;0.0;0.0;5.9;0.0;0.0
4.0;1753875309.154655;16.939302;1.57;1.53;-223.46;0.815831;0.488753;0.035747;-181.4;0.0;0.0;24.0;0.0;0.0
4.0;1753875309.15926;16.923112;2.51;0.91;-275.98;0.907092;0.613168;0.011;-101.0;0.0;0.0;-8.9;0.0;0.0
4.0;1753875309.163865;16.963721;-0.99;3.61;-206.57;0.871531;0.551006;-0.124764;88.1;0.0;0.0;14.7;0.0;0.0
4.0;1753875309.16847;16.956203;1.91;3.77;-259.68;0.905785;0.560311;0.003;61.9;0.0;0.0;-22.7;0.0;0.0
4.0;1753875309.173075;16.936118;-0.22;5.59;-214.07;0.791182;0.436976;0.133907;53.5;0.0;0.0;5.9;0.0;0.0
4.0;1753875309.17768;16.909937;-0.15;1.55;-167.07;0.922779;0.535758;0.112161;33.6;0.0;0.0;-10.1;0.0;0.0
4.0;1753875309.182285;16.973367;0.62;-0.22;-173.28;1.033641;0.599801;-0.119809;-45.2;0.0;0.0;-1.0;0.0;0.0
4.0;1753875309.18689;16.937042;2.39;4.1;-225.57;1.00742;0.615223;-0.029199;41.7;0.0;0.0;6.3;0.0;0.0
4.0;1753875309.191496;16.941148;2.53;5.65;-204.92;0.98262;0.480702;0.051422;21.6;0.0;0.0;-15.1;0.0;0.0
4.0;1753875309.1961;16.9688;0.37;3.0;-193.88;0.819261;0.538254;-0.064234;85.3;0.0;0.0;5.4;0.0;0.0
4.0;1753875309.200706;16.946697;-0.08;5.14;-277.74;0.854507;0.704838;-0.056885;-34.8;0.0;0.0;-12.7;0.0;0.0
4.0;1753875309.20531;16.940256;0.71;-0.22;-132.7;0.907137;0.56025;-0.074551;120.3;0.0;0.0;3.9;0.0;0.0
4.0;1753875309.209916;16.972606;0.57;2.39;-197.1;0.814379;0.649343;0.022075;-2.4;0.0;0.0;5.8;0.0;0.0
4.0;1753875309.214521;16.942504;0.41;2.09;-241.08;0.809428;0.553319;0.036413;119.9;0.0;0.0;-6.0;0.0;0.0
4.0;1753875309.219126;16.964938;-0.5;3.71;-202.59;1.073133;0.687378;0.091003;-27.7;0.0;0.0;-10.8;0.0;0.0
4.0;1753875309.223731;16.926252;-1.76;1.18;-206.57;0.80965;0.506406;-0.027834;99.9;0.0;0.0;3.4;0.0;0.0
4.0;1753875309.228336;16.927355;0.0;3.86;-209.78;1.015022;0.613404;0.148836;-75.5;0.0;0.0;-28.1;0.0;0.0
4.0;1753875309.232941;16.948909;0.33;1.2;-194.55;0.94658;0.667393;0.064174;-48.3;0.0;0.0;3.5;0.0;0.0
4.0;1753875309.237546;16.896476;0.07;2.1;-235.91;0.901421;0.613089;0.062847;87.4;0.0;0.0;3.0;0.0;0.0
4.0;1753875309.242151;16.975629;0.89;0.87;-243.58;0.828772;0.481793;0.024688;-6.1;0.0;0.0;2.6;0.0;0.0
4.0;1753875309.246756;16.950623;0.53;0.72;-229.02;1.03203;0.611454;0.030227;112.9;0.0;0.0;3.9;0.0;0.0
4.0;1753875309.251361;16.950815;1.1;1.67;-198.69;1.088282;0.567823;0.11219;-231.0;0.0;0.0;-2.8;0.0;0.0
4.0;1753875309.255966;16.943675;1.14;4.25;-278.42;0.96103;0.610243;0.089734;25.7;0.0;0.0;13.4;0.0;0.0
4.0;1753875309.260571;16.958194;0.3;0.1;-222.05;0.954909;0.591712;-0.061257;-80.8;0.0;0.0;-5.3;0.0;0.0
4.0;1753875309.2664;16.941406;0.21;2.59;-225.82;0.956968;0.550586;0.031354;0.0;0.0;0.0;0.0;0.0;0.0
4.0;1753875309.271005;16.921584;-0.31;3.39;-250.44;1.104334;0.586265;0.011152;66.5;0.0;0.0;-0.7;0.0;0.0
4.0;1753875309.27561;16.949269;1.28;2.61;-195.62;0.922451;0.554163;0.019402;12.0;0.0;0.0;-8.8;0.0;0.0
4.0;1753875309.280215;16.936759;1.63;1.4;-153.06;0.801521;0.696252;0.079681;-102.2;0.0;0.0;-1.3;0.0;0.0
4.0;1753875309.28482;16.981179;-0.4;3.19;-199.46;0.818564;0.5332;-0.010647;-13.9;0.0;0.0;-1.1;0.0;0.0
4.0;1753875309.289425;16.93379;-0.03;1.33;-237.61;0.911655;0.508189;0.143987;70.1;0.0;0.0;20.2;0.0;0.0
4.0;1753875309.29403;16.943329;-0.56;1.99;-249.5;0.808402;0.443646;-0.040016;90.2;0.0;0.0;20.3;0.0;0.0
4.0;1753875309.298636;16.992496;1.38;2.3;-243.59;0.822821;0.57048;0.060978;27.2;0.0;0.0;-18.5;0.0;0.0
4.0;1753875309.30324;16.953021;0.15;0.99;-229.08;0.852055;0.75666;0.067803;-50.6;0.0;0.0;-35.3;0.0;0.0
4.0;1753875309.307846;16.97802;0.15;0.15;-315.05;0.558689;0.89074;-0.037571;18.8;0.0;0.0;33.7;0.0;0.0
4.0;1753875309.312451;16.980633;-0.41;-0.69;-259.15;0.791211;0.683999;0.07093;28.0;0.0;0.0;23.1;0.0;0.0
4.0;1753875309.317056;16.978303;1.27;-1.32;-216.79;0.924575;0.642236;-0.03981;-59.4;0.0;0.0;24.0;0.0;0.0
4.0;1753875309.321661;16.960162;2.31;1.24;-230.72;0.648486;0.672097;-0.030203;-64.2;0.0;0.0;11.4;0.0;0.0
4.0;1753875309.326266;16.995992;-0.93;-2.58;-269.89;0.734987;0.579124;-0.011327;109.3;0.0;0.0;11.9;0.0;0.0
4.0;1753875309.330871;17.006737;-0.63;-2.08;-235.75;0.769305;0.740304;-0.00775;-79.6;0.0;0.0;-53.5;0.0;0.0
4.0;1753875309.335476;17.007175;0.27;0.36;-305.2;0.756172;0.899545;-0.010701;-22.4;0.0;0.0;-25.0;0.0;0.0
4.0;1753875309.34161;16.984375;0.63;-1.75;-270.06;0.662582;0.750788;0.010126;0.0;0.0;0.0;0.0;0.0;0.0
4.0;1753875309.34492;17.007812;0.91;0.49;-271.39;0.733098;0.672708;0.10675;0.0;0.0;0.0;0.0;0.0;0.0
4.0;1753875309.349525;17.015008;-0.35;3.16;-280.1;0.884402;0.641016;0.054854;8.9;0.0;0.0;10.2;0.0;0.0
4.0;1753875309.35413;17.004768;1.62;0.61;-291.77;0.731654;0.818845;0.015059;26.0;0.0;0.0;-11.4;0.0;0.0
4.0;1753875309.358735;16.982935;-0.01;-0.29;-291.04;0.836723;0.421896;0.146189;6.1;0.0;0.0;27.3;0.0;0.0
4.0;1753875309.36334;17.020159;-0.65;-1.77;-218.61;0.685609;0.784718;0.065146;8.8;0.0;0.0;11.2;0.0;0.0
4.0;1753875309.367945;16.967159;2.77;-2.15;-288.88;0.930055;0.610597;0.145691;47.4;0.0;0.0;13.4;0.0;0.0
4.0;1753875309.37255;17.0196;2.96;5.9;-207.46;0.815301;0.773873;0.156325;-5.4;0.0;0.0;-18.1;0.0;0.0
4.0;1753875309.377155;17.016958;0.56;1.22;-280.87;0.683047;0.889155;0.16214;-175.3;0.0;0.0;18.8;0.0;0.0
4.0;1753875309.38176;16.980436;1.0;0.21;-220.06;0.836355;0.725699;0.170799;-74.5;0.0;0.0;10.0;0.0;0.0
4.0;1753875309.386366;17.006924;-0.93;0.99;-290.97;0.81947;0.621959;0.062734;-95.0;0.0;0.0;16.6;0.0;0.0
4.0;1753875309.39097;16.989762;-0.77;-4.25;-292.83;0.630746;0.66861;0.172814;-151.3;0.0;0.0;9.3;0.0;0.0
4.0;1753875309.39892;17.007812;-0.07;-1.05;-277.9;0.733098;0.672708;0.10675;0.0;0.0;0.0;0.0;0.0;0.0
4.0;1753875309.403525;16.990793;0.28;-1.09;-311.45;0.709267;0.598582;0.090483;100.3;0.0;0.0;13.7;0.0;0.0
4.0;1753875309.40813;16.953091;-1.18;-2.64;-272.73;0.577579;0.412219;0.127132;29.4;0.0;0.0;-7.4;0.0;0.0
4.0;1753875309.412735;17.003525;0.58;-2.09;-316.56;0.704414;0.747954;0.027605;4.6;0.0;0.0;3.6;0.0;0.0
4.0;1753875309.41734;16.976868;0.49;-2.47;-298.57;0.471013;1.033248;0.078202;-199.4;0.0;0.0;10.9;0.0;0.0
4.0;1753875309.421945;17.006551;1.66;1.31;-300.45;0.74896;0.778741;0.159055;52.2;0.0;0.0;25.9;0.0;0.0
4.0;1753875309.42655;17.00512;0.5;1.95;-255.9;0.591352;0.867676;0.09443;40.5;0.0;0.0;-2.1;0.0;0.0
4.0;1753875309.431156;16.986566;1.93;-1.02;-253.97;0.776556;0.61645;0.100254;-58.9;0.0;0.0;11.6;0.0;0.0
4.0;1753875309.43576;16.987462;2.08;-1.41;-279.3;0.528588;0.731522;0.067759;-78.0;0.0;0.0;13.5;0.0;0.0
4.0;1753875309.440366;16.998376;2.66;2.72;-278.87;0.473734;0.869715;0.033109;-31.0;0.0;0.0;6.8;0.0;0.0
4.0;1753875309.44497;16.994909;-0.61;-2.96;-261.11;0.539894;0.841078;0.084559;-88.6;0.0;0.0;4.3;0.0;0.0
4.0;1753875309.449576;17.010672;1.01;-2.63;-241.96;0.437076;0.707998;0.211934;-42.2;0.0;0.0;10.3;0.0;0.0
4.0;1753875309.454181;16.964224;1.64;-0.36;-223.74;0.393681;0.774613;0.065064;44.7;0.0;0.0;-1.3;0.0;0.0
4.0;1753875309.458786;17.01412;-0.93;0.69;-275.31;0.397135;0.794274;0.140922;40.5;0.0;0.0;-14.5;0.0;0.0
4.0;1753875309.463391;17.009766;1.4;1.33;-326.48;0.494407;0.933908;0.028458;79.7;0.0;0.0;13.5;0.0;0.0
4.0;1753875309.47016;17.007812;1.47;-1.12;-283.22;0.446764;0.870348;0.088572;0.0;0.0;0.0;0.0;0.0;0.0
