DeviceID;Timestamp;Temperature;GyroX;GyroY;GyroZ;AccelX;AccelY;AccelZ;Dist1;Dist2;Dist3;Err1;Err2;Err3
1.0;1753876242.760764;16.933594;1.12;-1.61;0.07;1.00711;0.050142;0.007686;0.0;0.0;0.0;0.0;0.0;0.0
1.0;1753876242.765208;16.96875;1.12;-1.68;0.07;1.00406;0.048922;0.008174;0.0;0.0;0.0;0.0;0.0;0.0
1.0;1753876242.772989;16.96875;1.05;-1.68;0.07;1.003816;0.049654;0.009272;0.0;0.0;0.0;0.0;0.0;0.0
1.0;1753876242.774494;16.96875;1.12;-1.75;0.07;1.004426;0.049776;0.007442;0.0;0.0;0.0;0.0;0.0;0.0
1.0;1753876242.778889;16.96875;1.19;-1.68;0.0;1.004792;0.04941;0.00854;0.0;0.0;0.0;0.0;0.0;0.0
1.0;1753876242.783672;16.953125;1.12;-1.68;0.07;1.005158;0.049044;0.008784;0.0;0.0;0.0;0.0;0.0;0.0
1.0;1753876242.788035;16.953125;1.19;-1.68;0.07;1.004914;0.049044;0.007564;0.0;0.0;0.0;0.0;0.0;0.0
1.0;1753876242.796504;16.953125;1.05;-1.54;0.07;1.005158;0.048556;0.007564;0.0;0.0;0.0;0.0;0.0;0.0
1.0;1753876242.797067;16.953125;1.12;-1.61;0.07;1.005158;0.048556;0.007564;0.0;0.0;0.0;0.0;0.0;0.0
1.0;1753876242.802986;16.953125;0.98;-1.61;0.07;1.006744;0.048556;0.009028;0.0;0.0;0.0;0.0;0.0;0.0
1.0;1753876242.806951;16.953125;0.98;-1.61;0.07;1.006012;0.048922;0.008662;0.0;0.0;0.0;0.0;0.0;0.0
1.0;1753876242.810898;16.953125;1.05;-1.68;0.07;1.00467;0.050996;0.00793;0.0;0.0;0.0;0.0;0.0;0.0
1.0;1753876242.815475;16.953125;1.12;-1.61;0.07;1.006378;0.047946;0.00732;0.0;0.0;0.0;0.0;0.0;0.0
1.0;1753876242.822679;16.925781;1.12;-1.68;0.07;1.005768;0.049654;0.008296;0.0;0.0;0.0;0.0;0.0;0.0
1.0;1753876242.824855;16.925781;0.98;-1.75;0.07;1.005768;0.049654;0.008296;0.0;0.0;0.0;0.0;0.0;0.0
1.0;1753876242.829548;16.925781;1.05;-1.61;0.07;1.004792;0.048922;0.008662;0.0;0.0;0.0;0.0;0.0;0.0
1.0;1753876242.834082;16.925781;0.98;-1.61;0.14;1.00528;0.049166;0.008784;0.0;0.0;0.0;0.0;0.0;0.0
1.0;1753876242.838337;16.96875;1.12;-1.61;0.14;1.00528;0.048556;0.00854;0.0;0.0;0.0;0.0;0.0;0.0
1.0;1753876242.846205;16.96875;0.98;-1.54;0.07;1.00467;0.049654;0.009516;0.0;0.0;0.0;0.0;0.0;0.0
1.0;1753876242.847431;16.96875;1.12;-1.61;0.0;1.003938;0.049288;0.007442;0.0;0.0;0.0;0.0;0.0;0.0
1.0;1753876242.852247;16.96875;1.05;-1.61;0.07;1.006256;0.049044;0.009272;0.0;0.0;0.0;0.0;0.0;0.0
1.0;1753876242.856604;16.953125;1.05;-1.75;0.0;1.004914;0.049532;0.008418;0.0;0.0;0.0;0.0;0.0;0.0
1.0;1753876242.86228;16.953125;1.12;-1.68;0.0;1.005768;0.047824;0.008052;0.0;0.0;0.0;0.0;0.0;0.0
1.0;1753876242.86575;16.953125;1.05;-1.68;0.07;1.006256;0.048068;0.007198;0.0;0.0;0.0;0.0;0.0;0.0
1.0;1753876242.873274;16.953125;1.12;-1.82;0.07;1.005768;0.0488;0.007808;0.0;0.0;0.0;0.0;0.0;0.0
1.0;1753876242.875371;16.898438;1.12;-1.68;0.07;1.00467;0.0488;0.008662;0.0;0.0;0.0;0.0;0.0;0.0
1.0;1753876242.879761;16.898438;1.12;-1.68;0.21;1.0065;0.05002;0.00732;0.0;0.0;0.0;0.0;0.0;0.0
1.0;1753876242.884063;16.898438;1.12;-1.68;0.14;1.00528;0.048312;0.009394;0.0;0.0;0.0;0.0;0.0;0.0
1.0;1753876242.888639;16.898438;0.98;-1.68;0.07;1.005402;0.049776;0.008296;0.0;0.0;0.0;0.0;0.0;0.0
1.0;1753876242.895479;16.886719;0.98;-1.68;0.07;1.00589;0.048434;0.008662;0.0;0.0;0.0;0.0;0.0;0.0
1.0;1753876242.897772;16.886719;1.12;-1.68;0.07;1.005524;0.050386;0.00793;0.0;0.0;0.0;0.0;0.0;0.0
1.0;1753876242.902854;16.886719;0.98;-1.54;0.07;1.005158;0.049288;0.008784;0.0;0.0;0.0;0.0;0.0;0.0
1.0;1753876242.906925;16.886719;0.98;-1.82;0.0;1.00467;0.0488;0.008296;0.0;0.0;0.0;0.0;0.0;0.0
1.0;1753876242.91161;16.894531;1.05;-1.68;0.07;1.005768;0.0488;0.008662;0.0;0.0;0.0;0.0;0.0;0.0
1.0;1753876242.919829;16.894531;1.12;-1.68;0.0;1.006134;0.0488;0.008296;0.0;0.0;0.0;0.0;0.0;0.0
1.0;1753876242.920531;16.894531;1.05;-1.68;0.0;1.006134;0.0488;0.008296;0.0;0.0;0.0;0.0;0.0;0.0
1.0;1753876242.926247;16.894531;1.05;-1.68;0.07;1.005646;0.049166;0.008052;0.0;0.0;0.0;0.0;0.0;0.0
1.0;1753876242.92998;16.910156;1.12;-1.61;0.0;1.00467;0.049044;0.008052;0.0;0.0;0.0;0.0;0.0;0.0
1.0;1753876242.934369;16.910156;0.98;-1.54;0.14;1.005402;0.050264;0.00915;0.0;0.0;0.0;0.0;0.0;0.0
1.0;1753876242.938935;16.910156;1.05;-1.61;0.07;1.005158;0.047458;0.00793;0.0;0.0;0.0;0.0;0.0;0.0
1.0;1753876242.944701;16.910156;0.98;-1.61;0.07;1.005158;0.04941;0.008296;0.0;0.0;0.0;0.0;0.0;0.0
1.0;1753876242.948752;16.945312;0.98;-1.75;0.07;1.005768;0.048312;0.009028;0.0;0.0;0.0;0.0;0.0;0.0
1.0;1753876242.952787;16.945312;0.98;-1.68;0.07;1.005158;0.049654;0.008296;0.0;0.0;0.0;0.0;0.0;0.0
1.0;1753876242.957226;16.945312;0.98;-1.68;0.07;1.005036;0.050264;0.00793;0.0;0.0;0.0;0.0;0.0;0.0
1.0;1753876242.961755;16.945312;1.12;-1.61;0.07;1.00528;0.0488;0.008662;0.0;0.0;0.0;0.0;0.0;0.0
1.0;1753876242.970094;16.917969;0.98;-1.54;0.14;1.005158;0.049532;0.010004;0.0;0.0;0.0;0.0;0.0;0.0
1.0;1753876242.970894;16.917969;0.98;-1.68;0.14;1.005524;0.05063;0.009028;0.0;0.0;0.0;0.0;0.0;0.0
1.0;1753876242.976908;16.917969;1.05;-1.68;0.14;1.005524;0.048922;0.008662;0.0;0.0;0.0;0.0;0.0;0.0
1.0;1753876242.980264;16.917969;1.05;-1.68;0.14;1.005158;0.048312;0.006832;0.0;0.0;0.0;0.0;0.0;0.0
1.0;1753876242.984662;16.898438;1.12;-1.75;-0.07;1.005158;0.048434;0.008906;0.0;0.0;0.0;0.0;0.0;0.0
1.0;1753876242.989251;16.905803;1.11;-1.67;0.0;1.006269;0.04921;0.008812;0.0;0.0;0.0;0.0;0.0;0.0
1.0;1753876242.993774;16.898438;1.05;-1.61;0.14;1.005646;0.0488;0.006954;0.0;0.0;0.0;0.0;0.0;0.0
1.0;1753876242.998772;16.898438;1.05;-1.61;0.07;1.005524;0.049166;0.00854;0.0;0.0;0.0;0.0;0.0;0.0
1.0;1753876243.003361;16.926523;1.16;-1.53;0.07;1.005435;0.049417;0.007268;0.0;0.0;0.0;0.0;0.0;0.0
1.0;1753876243.00795;16.91802;0.98;-1.64;0.08;1.006241;0.049524;0.007829;0.0;0.0;0.0;0.0;0.0;0.0
1.0;1753876243.012538;16.919153;1.12;-1.63;0.11;1.005681;0.049085;0.01044;0.0;0.0;0.0;0.0;0.0;0.0
1.0;1753876243.017127;16.899903;1.12;-1.62;-0.02;1.005301;0.048466;0.007248;0.0;0.0;0.0;0.0;0.0;0.0
1.0;1753876243.021716;16.899857;1.03;-1.65;0.07;1.005046;0.048842;0.009507;0.0;0.0;0.0;0.0;0.0;0.0
1.0;1753876243.026305;16.871535;1.11;-1.63;0.09;1.005784;0.048827;0.009402;0.0;0.0;0.0;0.0;0.0;0.0
1.0;1753876243.030894;16.90029;1.13;-1.6;0.06;1.005255;0.048902;0.008877;0.0;0.0;0.0;0.0;0.0;0.0
1.0;1753876243.035483;16.904055;1.04;-1.66;0.05;1.005517;0.049273;0.008063;0.0;0.0;0.0;0.0;0.0;0.0
1.0;1753876243.040072;16.869971;0.99;-1.51;0.03;1.005443;0.049577;0.008339;0.0;0.0;0.0;0.0;0.0;0.0
1.0;1753876243.04466;16.889111;1.13;-1.54;-0.03;1.005812;0.048827;0.008297;0.0;0.0;0.0;0.0;0.0;0.0
1.0;1753876243.049249;16.866373;0.99;-1.58;0.07;1.00466;0.048849;0.009108;0.0;0.0;0.0;0.0;0.0;0.0
1.0;1753876243.053838;16.895793;1.03;-1.55;0.02;1.004809;0.049594;0.00762;0.0;0.0;0.0;0.0;0.0;0.0
1.0;1753876243.058427;16.923397;1.08;-1.64;-0.0;1.005876;0.049179;0.0087;0.0;0.0;0.0;0.0;0.0;0.0
1.0;1753876243.063016;16.928566;1.1;-1.57;0.07;1.004667;0.049325;0.009263;0.0;0.0;0.0;0.0;0.0;0.0
1.0;1753876243.067604;16.914234;1.07;-1.45;0.16;1.005147;0.049439;0.008139;0.0;0.0;0.0;0.0;0.0;0.0
1.0;1753876243.072194;16.906875;1.06;-1.57;0.1;1.004987;0.049563;0.008956;0.0;0.0;0.0;0.0;0.0;0.0
1.0;1753876243.076782;16.924455;1.02;-1.59;0.07;1.005513;0.049359;0.007227;0.0;0.0;0.0;0.0;0.0;0.0
1.0;1753876243.081371;16.904186;1.03;-1.58;0.07;1.005383;0.049506;0.007847;0.0;0.0;0.0;0.0;0.0;0.0
1.0;1753876243.08596;16.900166;1.0;-1.61;0.08;1.005519;0.050251;0.008678;0.0;0.0;0.0;0.0;0.0;0.0
1.0;1753876243.090549;16.930162;1.1;-1.61;0.14;1.004911;0.049258;0.008305;0.0;0.0;0.0;0.0;0.0;0.0
1.0;1753876243.095138;16.879847;0.97;-1.69;0.16;1.005797;0.049718;0.009683;0.0;0.0;0.0;0.0;0.0;0.0
1.0;1753876243.099726;16.924388;0.99;-1.57;0.16;1.005077;0.049969;0.009128;0.0;0.0;0.0;0.0;0.0;0.0
1.0;1753876243.104315;16.877903;1.03;-1.63;0.19;1.005813;0.048857;0.009652;0.0;0.0;0.0;0.0;0.0;0.0
1.0;1753876243.108904;16.899537;1.2;-1.67;0.08;1.005073;0.050323;0.010022;0.0;0.0;0.0;0.0;0.0;0.0
1.0;1753876243.113493;16.924233;1.01;-1.56;-0.01;1.004895;0.050089;0.009107;0.0;0.0;0.0;0.0;0.0;0.0
1.0;1753876243.118082;16.900114;1.1;-1.54;0.05;1.005768;0.049204;0.008203;0.0;0.0;0.0;0.0;0.0;0.0
1.0;1753876243.122671;16.941573;0.99;-1.69;0.2;1.005376;0.049153;0.009436;0.0;0.0;0.0;0.0;0.0;0.0
1.0;1753876243.12726;16.896658;1.08;-1.64;-0.02;1.00556;0.049346;0.008607;0.0;0.0;0.0;0.0;0.0;0.0
1.0;1753876243.131848;16.920088;0.95;-1.53;0.07;1.00542;0.04863;0.007499;0.0;0.0;0.0;0.0;0.0;0.0
1.0;1753876243.136437;16.908496;0.98;-1.62;0.14;1.004779;0.049528;0.007821;0.0;0.0;0.0;0.0;0.0;0.0
1.0;1753876243.141026;16.876233;0.97;-1.65;0.06;1.005465;0.04944;0.009595;0.0;0.0;0.0;0.0;0.0;0.0
1.0;1753876243.145615;16.910629;1.01;-1.55;0.2;1.005635;0.049348;0.010249;0.0;0.0;0.0;0.0;0.0;0.0
1.0;1753876243.150204;16.924829;1.03;-1.68;0.14;1.005182;0.05004;0.009155;0.0;0.0;0.0;0.0;0.0;0.0
1.0;1753876243.154792;16.921088;1.0;-1.51;0.17;1.005631;0.048534;0.009173;0.0;0.0;0.0;0.0;0.0;0.0
1.0;1753876243.159382;16.940904;0.97;-1.56;0.08;1.005267;0.048102;0.009913;0.0;0.0;0.0;0.0;0.0;0.0
1.0;1753876243.16397;16.903263;0.99;-1.54;0.13;1.005288;0.048346;0.009682;0.0;0.0;0.0;0.0;0.0;0.0
1.0;1753876243.168559;16.93083;0.97;-1.59;0.24;1.005255;0.049011;0.010004;0.0;0.0;0.0;0.0;0.0;0.0
1.0;1753876243.173148;16.926226;0.92;-1.64;0.13;1.005148;0.049509;0.01016;0.0;0.0;0.0;0.0;0.0;0.0
1.0;1753876243.177737;16.882228;1.03;-1.61;0.14;1.005915;0.049806;0.007328;0.0;0.0;0.0;0.0;0.0;0.0
1.0;1753876243.182326;16.929208;1.08;-1.67;0.06;1.005762;0.049342;0.008685;0.0;0.0;0.0;0.0;0.0;0.0
1.0;1753876243.186914;16.962342;0.91;-1.58;0.04;1.004585;0.050049;0.0093;0.0;0.0;0.0;0.0;0.0;0.0
1.0;1753876243.191503;16.905047;1.0;-1.51;0.13;1.004657;0.048678;0.010064;0.0;0.0;0.0;0.0;0.0;0.0
1.0;1753876243.196092;16.937234;1.09;-1.64;0.1;1.0056;0.05035;0.009766;0.0;0.0;0.0;0.0;0.0;0.0
1.0;1753876243.200681;16.919467;1.01;-1.54;0.08;1.005163;0.050206;0.009417;0.0;0.0;0.0;0.0;0.0;0.0
1.0;1753876243.20527;16.948471;1.06;-1.54;0.25;1.005408;0.048229;0.009083;0.0;0.0;0.0;0.0;0.0;0.0
1.0;1753876243.209859;16.921469;0.97;-1.47;0.09;1.005106;0.049109;0.009388;0.0;0.0;0.0;0.0;0.0;0.0
1.0;1753876243.214448;16.91549;1.0;-1.5;0.13;1.005294;0.049921;0.008337;0.0;0.0;0.0;0.0;0.0;0.0
1.0;1753876243.219036;16.928457;0.94;-1.58;0.11;1.005579;0.049354;0.009799;0.0;0.0;0.0;0.0;0.0;0.0
1.0;1753876243.223625;16.923051;0.95;-1.5;0.11;1.005144;0.04949;0.009776;0.0;0.0;0.0;0.0;0.0;0.0
1.0;1753876243.228214;16.922502;1.01;-1.51;0.14;1.005137;0.048065;0.008664;0.0;0.0;0.0;0.0;0.0;0.0
1.0;1753876243.232803;16.92566;0.97;-1.61;0.16;1.004978;0.049172;0.009455;0.0;0.0;0.0;0.0;0.0;0.0
1.0;1753876243.237392;16.937972;0.94;-1.55;0.1;1.004706;0.049581;0.010359;0.0;0.0;0.0;0.0;0.0;0.0
1.0;1753876243.24198;16.926653;1.0;-1.47;0.13;1.005526;0.048071;0.008381;0.0;0.0;0.0;0.0;0.0;0.0
1.0;1753876243.24657;16.89482;1.05;-1.57;0.24;1.00573;0.049363;0.009072;0.0;0.0;0.0;0.0;0.0;0.0
1.0;1753876243.251158;16.940824;1.0;-1.57;0.11;1.004784;0.048531;0.010445;0.0;0.0;0.0;0.0;0.0;0.0
1.0;1753876243.255747;16.919677;1.11;-1.58;0.07;1.004952;0.049313;0.009323;0.0;0.0;0.0;0.0;0.0;0.0
1.0;1753876243.260336;16.92099;0.83;-1.44;0.07;1.005104;0.048964;0.008949;0.0;0.0;0.0;0.0;0.0;0.0
1.0;1753876243.264925;16.910088;1.03;-1.67;0.04;1.005342;0.049592;0.009111;0.0;0.0;0.0;0.0;0.0;0.0
1.0;1753876243.269514;16.911837;1.09;-1.56;0.15;1.005077;0.048792;0.008909;0.0;0.0;0.0;0.0;0.0;0.0
1.0;1753876243.274102;16.952824;0.97;-1.47;0.04;1.004061;0.050108;0.008931;0.0;0.0;0.0;0.0;0.0;0.0
1.0;1753876243.278691;16.966505;0.96;-1.49;0.02;1.005139;0.04913;0.008998;0.0;0.0;0.0;0.0;0.0;0.0
1.0;1753876243.28328;16.937205;0.9;-1.54;0.16;1.004851;0.04866;0.009117;0.0;0.0;0.0;0.0;0.0;0.0
1.0;1753876243.287869;16.921293;0.91;-1.6;0.24;1.005077;0.049638;0.009367;0.0;0.0;0.0;0.0;0.0;0.0
1.0;1753876243.292458;16.931318;0.93;-1.53;0.18;1.004872;0.048518;0.00906;0.0;0.0;0.0;0.0;0.0;0.0
1.0;1753876243.297047;16.920091;1.01;-1.54;0.24;1.00491;0.049843;0.008789;0.0;0.0;0.0;0.0;0.0;0.0
1.0;1753876243.301636;16.897709;1.14;-1.56;0.17;1.004382;0.050384;0.009288;0.0;0.0;0.0;0.0;0.0;0.0
1.0;1753876243.306224;16.968517;0.97;-1.59;0.06;1.004921;0.050923;0.010214;0.0;0.0;0.0;0.0;0.0;0.0
1.0;1753876243.3106;16.9375;0.98;-1.54;0.14;1.004792;0.049166;0.009394;0.0;0.0;0.0;0.0;0.0;0.0
1.0;1753876243.315189;16.954487;1.01;-1.57;0.15;1.004903;0.047804;0.008824;0.0;0.0;0.0;0.0;0.0;0.0
1.0;1753876243.319778;16.941608;0.96;-1.71;0.03;1.005247;0.04866;0.010811;0.0;0.0;0.0;0.0;0.0;0.0
1.0;1753876243.324366;16.938366;1.05;-1.62;0.12;1.00475;0.049649;0.008695;0.0;0.0;0.0;0.0;0.0;0.0
1.0;1753876243.328956;16.926325;1.06;-1.53;0.13;1.003614;0.048101;0.009902;0.0;0.0;0.0;0.0;0.0;0.0
1.0;1753876243.333544;16.930541;0.96;-1.63;0.27;1.004834;0.049191;0.009044;0.0;0.0;0.0;0.0;0.0;0.0
1.0;1753876243.338133;16.928776;0.97;-1.55;0.09;1.005648;0.049072;0.009005;0.0;0.0;0.0;0.0;0.0;0.0
1.0;1753876243.342722;16.925051;0.96;-1.61;0.16;1.005146;0.050504;0.009693;0.0;0.0;0.0;0.0;0.0;0.0
1.0;1753876243.347311;16.919258;0.93;-1.53;0.23;1.004593;0.047762;0.008744;0.0;0.0;0.0;0.0;0.0;0.0
1.0;1753876243.3519;16.948128;1.03;-1.56;0.14;1.004682;0.048432;0.010112;0.0;0.0;0.0;0.0;0.0;0.0
1.0;1753876243.356488;16.931757;0.97;-1.5;0.05;1.004842;0.049222;0.009786;0.0;0.0;0.0;0.0;0.0;0.0
1.0;1753876243.361077;16.976259;1.0;-1.58;0.11;1.004723;0.048848;0.009364;0.0;0.0;0.0;0.0;0.0;0.0
1.0;1753876243.365666;16.963133;1.07;-1.48;0.21;1.005336;0.04838;0.009267;0.0;0.0;0.0;0.0;0.0;0.0
1.0;1753876243.370255;16.925457;0.93;-1.57;0.18;1.005251;0.049996;0.008308;0.0;0.0;0.0;0.0;0.0;0.0
1.0;1753876243.374844;16.968373;0.98;-1.64;0.08;1.004877;0.050582;0.0097;0.0;0.0;0.0;0.0;0.0;0.0
1.0;1753876243.379433;16.92465;0.98;-1.41;0.09;1.005063;0.048387;0.009255;0.0;0.0;0.0;0.0;0.0;0.0
1.0;1753876243.384022;16.912384;1.04;-1.57;0.09;1.004583;0.049876;0.009936;0.0;0.0;0.0;0.0;0.0;0.0
1.0;1753876243.38861;16.954545;1.04;-1.47;0.07;1.004674;0.04908;0.008355;0.0;0.0;0.0;0.0;0.0;0.0
1.0;1753876243.393199;16.955823;1.02;-1.52;0.16;1.004667;0.048069;0.00966;0.0;0.0;0.0;0.0;0.0;0.0
1.0;1753876243.397788;16.941555;1.0;-1.6;0.2;1.004836;0.048997;0.009666;0.0;0.0;0.0;0.0;0.0;0.0
1.0;1753876243.402377;16.963204;1.02;-1.61;0.15;1.005305;0.048927;0.008519;0.0;0.0;0.0;0.0;0.0;0.0
1.0;1753876243.406966;16.914686;0.95;-1.69;0.17;1.005071;0.048736;0.008723;0.0;0.0;0.0;0.0;0.0;0.0
1.0;1753876243.411554;16.939104;1.03;-1.56;0.23;1.00525;0.048017;0.009331;0.0;0.0;0.0;0.0;0.0;0.0
1.0;1753876243.416144;16.9299;1.06;-1.64;0.12;1.004489;0.050229;0.008727;0.0;0.0;0.0;0.0;0.0;0.0
1.0;1753876243.420732;16.956004;0.92;-1.58;0.21;1.005387;0.04906;0.009639;0.0;0.0;0.0;0.0;0.0;0.0
1.0;1753876243.425321;16.966182;0.93;-1.73;0.08;1.0048;0.048815;0.007897;0.0;0.0;0.0;0.0;0.0;0.0
1.0;1753876243.42991;16.896676;1.08;-1.62;0.21;1.005256;0.050181;0.00906;0.0;0.0;0.0;0.0;0.0;0.0
1.0;1753876243.434499;16.941433;1.02;-1.57;0.06;1.004602;0.050193;0.00984;0.0;0.0;0.0;0.0;0.0;0.0
1.0;1753876243.439088;16.893914;1.02;-1.55;0.19;1.004778;0.048725;0.008577;0.0;0.0;0.0;0.0;0.0;0.0
1.0;1753876243.443676;16.944025;1.02;-1.58;0.16;1.004788;0.048992;0.010018;0.0;0.0;0.0;0.0;0.0;0.0
1.0;1753876243.448265;16.927934;0.95;-1.65;0.05;1.004401;0.048985;0.008714;0.0;0.0;0.0;0.0;0.0;0.0
1.0;1753876243.452854;16.93089;1.08;-1.63;0.06;1.004862;0.049578;0.009481;0.0;0.0;0.0;0.0;0.0;0.0
1.0;1753876243.457443;16.925422;1.06;-1.58;0.09;1.004837;0.04893;0.008535;0.0;0.0;0.0;0.0;0.0;0.0
1.0;1753876243.462032;16.993351;1.06;-1.52;0.18;1.005218;0.049344;0.009133;0.0;0.0;0.0;0.0;0.0;0.0
1.0;1753876243.466621;16.95205;1.05;-1.65;0.14;1.005162;0.047656;0.009381;0.0;0.0;0.0;0.0;0.0;0.0
1.0;1753876243.47121;16.938417;1.05;-1.54;0.08;1.005387;0.049009;0.009587;0.0;0.0;0.0;0.0;0.0;0.0
1.0;1753876243.475798;16.954268;1.02;-1.65;0.11;1.004604;0.04863;0.00834;0.0;0.0;0.0;0.0;0.0;0.0
1.0;1753876243.480387;16.951403;1.05;-1.59;0.18;1.004661;0.048472;0.009433;0.0;0.0;0.0;0.0;0.0;0.0
1.0;1753876243.484976;16.94048;1.08;-1.61;0.01;1.005008;0.046819;0.009273;0.0;0.0;0.0;0.0;0.0;0.0
1.0;1753876243.489565;16.961271;1.01;-1.58;0.13;1.005488;0.049725;0.008384;0.0;0.0;0.0;0.0;0.0;0.0
1.0;1753876243.494154;16.892824;1.0;-1.68;0.18;1.005225;0.047846;0.010419;0.0;0.0;0.0;0.0;0.0;0.0
1.0;1753876243.498742;16.922343;1.0;-1.58;0.18;1.004357;0.049439;0.00872;0.0;0.0;0.0;0.0;0.0;0.0
1.0;1753876243.503332;16.942708;1.03;-1.49;0.11;1.004252;0.049487;0.008581;0.0;0.0;0.0;0.0;0.0;0.0
1.0;1753876243.50792;16.900206;1.09;-1.62;0.02;1.005048;0.049972;0.009352;0.0;0.0;0.0;0.0;0.0;0.0
1.0;1753876243.512509;16.917305;1.02;-1.47;0.01;1.005274;0.049545;0.009473;0.0;0.0;0.0;0.0;0.0;0.0
1.0;1753876243.517098;16.917234;1.02;-1.74;-0.03;1.004546;0.048158;0.009474;0.0;0.0;0.0;0.0;0.0;0.0
1.0;1753876243.521687;16.946142;1.13;-1.68;0.05;1.005389;0.049599;0.009161;0.0;0.0;0.0;0.0;0.0;0.0
1.0;1753876243.526276;16.930712;1.06;-1.61;0.08;1.004889;0.048844;0.008723;0.0;0.0;0.0;0.0;0.0;0.0
1.0;1753876243.530864;16.92796;1.0;-1.69;0.14;1.005502;0.048747;0.009164;0.0;0.0;0.0;0.0;0.0;0.0
1.0;1753876243.535453;16.943623;1.04;-1.61;0.13;1.004841;0.050938;0.008062;0.0;0.0;0.0;0.0;0.0;0.0
1.0;1753876243.540042;16.91949;0.98;-1.6;0.06;1.005907;0.049615;0.009273;0.0;0.0;0.0;0.0;0.0;0.0
1.0;1753876243.544631;16.95778;1.01;-1.63;0.11;1.005057;0.049635;0.009936;0.0;0.0;0.0;0.0;0.0;0.0
1.0;1753876243.54922;16.936661;1.02;-1.7;0.12;1.005122;0.049881;0.008314;0.0;0.0;0.0;0.0;0.0;0.0
1.0;1753876243.553809;16.917316;0.95;-1.71;0.17;1.005552;0.048483;0.008081;0.0;0.0;0.0;0.0;0.0;0.0
1.0;1753876243.558398;16.916474;1.04;-1.67;0.16;1.005448;0.050082;0.009037;0.0;0.0;0.0;0.0;0.0;0.0
1.0;1753876243.562986;16.943667;1.0;-1.67;0.11;1.004391;0.049383;0.008863;0.0;0.0;0.0;0.0;0.0;0.0
1.0;1753876243.567575;16.932549;1.02;-1.63;0.03;1.005526;0.047809;0.007422;0.0;0.0;0.0;0.0;0.0;0.0
1.0;1753876243.572164;16.950535;1.12;-1.64;0.16;1.00477;0.048734;0.009967;0.0;0.0;0.0;0.0;0.0;0.0
1.0;1753876243.576753;16.936634;0.96;-1.49;0.04;1.005504;0.049417;0.00905;0.0;0.0;0.0;0.0;0.0;0.0
1.0;1753876243.581342;16.970077;1.05;-1.7;0.03;1.004653;0.047872;0.007028;0.0;0.0;0.0;0.0;0.0;0.0
1.0;1753876243.58593;16.932029;1.14;-1.7;0.03;1.005763;0.048369;0.009907;0.0;0.0;0.0;0.0;0.0;0.0
1.0;1753876243.59052;16.979351;0.99;-1.68;0.1;1.004957;0.0494;0.008865;0.0;0.0;0.0;0.0;0.0;0.0
1.0;1753876243.595108;16.924513;1.02;-1.71;0.08;1.005103;0.049607;0.008069;0.0;0.0;0.0;0.0;0.0;0.0
1.0;1753876243.599697;16.942044;1.12;-1.68;0.16;1.005288;0.050535;0.008532;0.0;0.0;0.0;0.0;0.0;0.0
1.0;1753876243.604286;16.94443;0.99;-1.76;0.13;1.004572;0.049312;0.01021;0.0;0.0;0.0;0.0;0.0;0.0
1.0;1753876243.608875;16.952452;1.1;-1.69;-0.02;1.004457;0.048903;0.008982;0.0;0.0;0.0;0.0;0.0;0.0
1.0;1753876243.613464;16.883464;1.11;-1.6;0.02;1.005403;0.050571;0.008628;0.0;0.0;0.0;0.0;0.0;0.0
1.0;1753876243.618052;16.903765;1.09;-1.66;0.16;1.005353;0.050222;0.009313;0.0;0.0;0.0;0.0;0.0;0.0
1.0;1753876243.622641;16.971026;1.12;-1.75;0.14;1.005089;0.048584;0.00944;0.0;0.0;0.0;0.0;0.0;0.0
1.0;1753876243.62723;16.943791;1.14;-1.67;0.09;1.005106;0.04926;0.009033;0.0;0.0;0.0;0.0;0.0;0.0
1.0;1753876243.631819;16.926095;1.12;-1.64;0.05;1.00434;0.049539;0.006619;0.0;0.0;0.0;0.0;0.0;0.0
1.0;1753876243.636408;16.950387;1.16;-1.78;0.11;1.005156;0.048343;0.007348;0.0;0.0;0.0;0.0;0.0;0.0
1.0;1753876243.640997;16.945333;1.15;-1.67;0.06;1.005076;0.047811;0.008958;0.0;0.0;0.0;0.0;0.0;0.0
1.0;1753876243.645586;16.948819;1.08;-1.74;0.12;1.005329;0.048231;0.009447;0.0;0.0;0.0;0.0;0.0;0.0
1.0;1753876243.650174;16.952175;1.12;-1.73;0.14;1.004996;0.048277;0.009178;0.0;0.0;0.0;0.0;0.0;0.0
1.0;1753876243.654763;16.918404;1.04;-1.78;0.05;1.004674;0.048883;0.009178;0.0;0.0;0.0;0.0;0.0;0.0
1.0;1753876243.659352;16.942435;1.04;-1.65;0.14;1.005101;0.048055;0.009996;0.0;0.0;0.0;0.0;0.0;0.0
1.0;1753876243.663941;16.963681;1.02;-1.78;0.19;1.005022;0.049278;0.0094;0.0;0.0;0.0;0.0;0.0;0.0
1.0;1753876243.66853;16.916792;1.21;-1.82;0.14;1.004979;0.050087;0.0105;0.0;0.0;0.0;0.0;0.0;0.0
1.0;1753876243.673118;16.941969;1.03;-1.7;0.17;1.005492;0.049888;0.008153;0.0;0.0;0.0;0.0;0.0;0.0
1.0;1753876243.677708;16.929843;1.11;-1.7;0.15;1.004907;0.048387;0.008836;0.0;0.0;0.0;0.0;0.0;0.0
1.0;1753876243.682296;16.942278;1.13;-1.79;0.04;1.004876;0.049;0.009397;0.0;0.0;0.0;0.0;0.0;0.0
1.0;1753876243.686885;16.943338;1.11;-1.79;0.15;1.00521;0.04961;0.009695;0.0;0.0;0.0;0.0;0.0;0.0
1.0;1753876243.691474;16.936175;1.14;-1.82;0.21;1.005512;0.047689;0.009114;0.0;0.0;0.0;0.0;0.0;0.0
1.0;1753876243.696063;16.905124;1.11;-1.65;0.08;1.005889;0.04835;0.009444;0.0;0.0;0.0;0.0;0.0;0.0
1.0;1753876243.700652;16.951745;1.16;-1.85;0.08;1.004574;0.048765;0.008165;0.0;0.0;0.0;0.0;0.0;0.0
1.0;1753876243.70524;16.908316;1.16;-1.64;0.15;1.004965;0.047283;0.007887;0.0;0.0;0.0;0.0;0.0;0.0
1.0;1753876243.709829;16.94418;1.05;-1.75;0.04;1.005533;0.048761;0.010153;0.0;0.0;0.0;0.0;0.0;0.0
1.0;1753876243.714418;16.919288;1.08;-1.77;0.04;1.004973;0.048755;0.008439;0.0;0.0;0.0;0.0;0.0;0.0
1.0;1753876243.719007;16.914652;1.12;-1.63;0.12;1.005011;0.048217;0.00839;0.0;0.0;0.0;0.0;0.0;0.0
1.0;1753876243.723596;16.943488;1.11;-1.75;0.07;1.005184;0.048711;0.007719;0.0;0.0;0.0;0.0;0.0;0.0
1.0;1753876243.728185;16.956734;1.06;-1.73;0.13;1.004694;0.049026;0.009585;0.0;0.0;0.0;0.0;0.0;0.0
1.0;1753876243.732774;16.916472;1.08;-1.68;0.1;1.005222;0.048457;0.010198;0.0;0.0;0.0;0.0;0.0;0.0
1.0;1753876243.737362;16.941055;1.07;-1.76;0.13;1.005115;0.049588;0.008954;0.0;0.0;0.0;0.0;0.0;0.0
1.0;1753876243.741951;16.934716;1.23;-1.72;0.04;1.004652;0.049095;0.00847;0.0;0.0;0.0;0.0;0.0;0.0
1.0;1753876243.74654;16.919124;1.18;-1.76;0.11;1.0052;0.048114;0.008662;0.0;0.0;0.0;0.0;0.0;0.0
1.0;1753876243.7514;16.9375;1.12;-1.75;0.07;1.005158;0.049044;0.008784;0.0;0.0;0.0;0.0;0.0;0.0
1.0;1753876243.755989;16.939491;1.18;-1.77;0.13;1.006185;0.04955;0.007872;0.0;0.0;0.0;0.0;0.0;0.0
1.0;1753876243.76091;16.894531;1.12;-1.75;0.14;1.006012;0.047946;0.008418;0.0;0.0;0.0;0.0;0.0;0.0
1.0;1753876243.765499;16.86625;1.18;-1.79;0.07;1.006527;0.047841;0.007737;0.0;0.0;0.0;0.0;0.0;0.0
1.0;1753876243.770088;16.890697;1.18;-1.72;0.11;1.006113;0.047861;0.006987;0.0;0.0;0.0;0.0;0.0;0.0
1.0;1753876243.774676;16.892265;1.14;-1.71;0.08;1.005529;0.047758;0.008358;0.0;0.0;0.0;0.0;0.0;0.0
1.0;1753876243.779266;16.903186;1.15;-1.63;0.09;1.006022;0.049297;0.007308;0.0;0.0;0.0;0.0;0.0;0.0
1.0;1753876243.783854;16.901254;1.08;-1.86;0.16;1.005897;0.048653;0.00929;0.0;0.0;0.0;0.0;0.0;0.0
1.0;1753876243.788443;16.890444;1.06;-1.73;0.07;1.00604;0.050039;0.008511;0.0;0.0;0.0;0.0;0.0;0.0
1.0;1753876243.793032;16.905062;1.1;-1.67;0.1;1.006347;0.048316;0.008553;0.0;0.0;0.0;0.0;0.0;0.0
1.0;1753876243.797621;16.927637;1.16;-1.67;0.1;1.004197;0.050912;0.008977;0.0;0.0;0.0;0.0;0.0;0.0
1.0;1753876243.80221;16.909337;1.16;-1.69;0.14;1.004847;0.048301;0.008819;0.0;0.0;0.0;0.0;0.0;0.0
1.0;1753876243.806798;16.895111;1.06;-1.68;0.12;1.004906;0.049962;0.009619;0.0;0.0;0.0;0.0;0.0;0.0
1.0;1753876243.81277;16.894531;1.12;-1.68;0.07;1.004914;0.049044;0.009272;0.0;0.0;0.0;0.0;0.0;0.0
1.0;1753876243.817359;16.913657;1.14;-1.62;-0.0;1.004475;0.048939;0.009746;0.0;0.0;0.0;0.0;0.0;0.0
1.0;1753876243.821948;16.918607;1.18;-1.8;0.07;1.005541;0.05024;0.008766;0.0;0.0;0.0;0.0;0.0;0.0
1.0;1753876243.826536;16.91662;1.13;-1.64;0.09;1.004378;0.04955;0.009142;0.0;0.0;0.0;0.0;0.0;0.0
1.0;1753876243.831125;16.911195;1.18;-1.74;0.1;1.005164;0.048273;0.008918;0.0;0.0;0.0;0.0;0.0;0.0
1.0;1753876243.835714;16.862962;1.12;-1.81;0.02;1.005892;0.048857;0.009574;0.0;0.0;0.0;0.0;0.0;0.0
1.0;1753876243.840303;16.891465;1.08;-1.66;0.01;1.006007;0.049704;0.008686;0.0;0.0;0.0;0.0;0.0;0.0
1.0;1753876243.844892;16.90676;1.16;-1.76;-0.03;1.004839;0.049627;0.008501;0.0;0.0;0.0;0.0;0.0;0.0
1.0;1753876243.85275;16.894531;1.12;-1.75;0.0;1.006134;0.049166;0.008662;0.0;0.0;0.0;0.0;0.0;0.0
1.0;1753876243.857339;16.893248;1.02;-1.6;0.03;1.004982;0.050399;0.008785;0.0;0.0;0.0;0.0;0.0;0.0
1.0;1753876243.861928;16.887037;1.05;-1.68;-0.0;1.004714;0.048343;0.008387;0.0;0.0;0.0;0.0;0.0;0.0
1.0;1753876243.866516;16.904806;1.06;-1.68;0.0;1.007595;0.049126;0.008305;0.0;0.0;0.0;0.0;0.0;0.0
1.0;1753876243.871106;16.8818;1.2;-1.74;0.06;1.00644;0.049541;0.009475;0.0;0.0;0.0;0.0;0.0;0.0
1.0;1753876243.875694;16.886209;1.07;-1.68;0.01;1.006735;0.048985;0.009522;0.0;0.0;0.0;0.0;0.0;0.0
1.0;1753876243.880283;16.887564;1.07;-1.81;0.1;1.004499;0.049817;0.008718;0.0;0.0;0.0;0.0;0.0;0.0
1.0;1753876243.884872;16.884457;1.12;-1.62;0.04;1.005296;0.048117;0.007709;0.0;0.0;0.0;0.0;0.0;0.0
1.0;1753876243.889461;16.870537;1.07;-1.54;0.1;1.004453;0.048103;0.008332;0.0;0.0;0.0;0.0;0.0;0.0
1.0;1753876243.89405;16.906227;0.94;-1.76;0.04;1.004679;0.049276;0.008281;0.0;0.0;0.0;0.0;0.0;0.0
1.0;1753876243.898638;16.895908;1.14;-1.64;0.12;1.005574;0.048981;0.007581;0.0;0.0;0.0;0.0;0.0;0.0
1.0;1753876243.903227;16.882831;1.14;-1.72;0.08;1.004333;0.047736;0.009004;0.0;0.0;0.0;0.0;0.0;0.0
1.0;1753876243.90831;16.894531;1.12;-1.68;0.07;1.004792;0.048678;0.008418;0.0;0.0;0.0;0.0;0.0;0.0
1.0;1753876243.912899;16.884249;1.15;-1.63;0.07;1.005727;0.048398;0.008148;0.0;0.0;0.0;0.0;0.0;0.0
1.0;1753876243.917488;16.912463;1.18;-1.64;0.05;1.005631;0.049702;0.00885;0.0;0.0;0.0;0.0;0.0;0.0
1.0;1753876243.922076;16.877202;1.15;-1.52;0.04;1.00416;0.049419;0.008855;0.0;0.0;0.0;0.0;0.0;0.0
1.0;1753876243.926665;16.896023;1.14;-1.69;0.01;1.005655;0.04838;0.007827;0.0;0.0;0.0;0.0;0.0;0.0
1.0;1753876243.931254;16.904578;1.12;-1.68;0.12;1.005598;0.04803;0.009172;0.0;0.0;0.0;0.0;0.0;0.0
1.0;1753876243.935843;16.927;1.19;-1.73;-0.01;1.004663;0.04903;0.008939;0.0;0.0;0.0;0.0;0.0;0.0
1.0;1753876243.94411;16.929688;1.12;-1.68;0.07;1.00528;0.048312;0.008906;0.0;0.0;0.0;0.0;0.0;0.0
1.0;1753876243.948699;16.903402;1.08;-1.66;0.0;1.005695;0.048325;0.009334;0.0;0.0;0.0;0.0;0.0;0.0
1.0;1753876243.953288;16.950281;1.12;-1.72;0.04;1.005595;0.048636;0.008525;0.0;0.0;0.0;0.0;0.0;0.0
1.0;1753876243.957876;16.943122;1.15;-1.66;0.0;1.005167;0.048606;0.007723;0.0;0.0;0.0;0.0;0.0;0.0
1.0;1753876243.962465;16.92375;1.09;-1.72;0.08;1.00457;0.050448;0.007667;0.0;0.0;0.0;0.0;0.0;0.0
1.0;1753876243.967054;16.946301;1.06;-1.69;-0.03;1.00373;0.04859;0.007785;0.0;0.0;0.0;0.0;0.0;0.0
1.0;1753876243.971643;16.935092;1.03;-1.73;-0.03;1.005207;0.049138;0.007549;0.0;0.0;0.0;0.0;0.0;0.0
1.0;1753876243.976232;16.918874;0.98;-1.76;0.09;1.006523;0.048336;0.008318;0.0;0.0;0.0;0.0;0.0;0.0
1.0;1753876243.980821;16.905098;1.03;-1.72;0.08;1.004692;0.049176;0.007401;0.0;0.0;0.0;0.0;0.0;0.0
1.0;1753876243.98541;16.936331;1.03;-1.56;0.05;1.004827;0.0502;0.008443;0.0;0.0;0.0;0.0;0.0;0.0
1.0;1753876243.98988;16.929688;1.05;-1.68;0.07;1.004426;0.049898;0.007442;0.0;0.0;0.0;0.0;0.0;0.0
1.0;1753876243.996248;16.832031;1.05;-1.68;-0.49;1.005524;0.037332;0.011468;0.0;0.0;0.0;0.0;0.0;0.0
1.0;1753876244.000837;16.832444;1.12;-1.67;-1.44;1.006445;0.041844;0.009099;0.0;0.0;0.0;0.0;0.0;0.0
1.0;1753876244.005426;16.804697;1.05;-1.72;-1.61;1.004216;0.035439;0.018052;0.0;0.0;0.0;0.0;0.0;0.0
1.0;1753876244.010014;16.864676;1.14;-1.63;-0.46;1.007361;0.039334;0.014708;0.0;0.0;0.0;0.0;0.0;0.0
1.0;1753876244.014604;16.834816;1.0;-1.63;-0.81;1.005119;0.03625;0.01683;0.0;0.0;0.0;0.0;0.0;0.0
1.0;1753876244.019192;16.850461;1.17;-1.72;-1.54;1.005778;0.041553;0.0135;0.0;0.0;0.0;0.0;0.0;0.0
1.0;1753876244.023781;16.870639;1.09;-1.73;-0.98;1.006066;0.03714;0.015283;0.0;0.0;0.0;0.0;0.0;0.0
1.0;1753876244.02837;16.801403;1.03;-1.7;0.29;1.004328;0.032901;0.014787;0.0;0.0;0.0;0.0;0.0;0.0
1.0;1753876244.032959;16.813985;1.0;-1.62;-0.19;1.003856;0.037011;0.009952;0.0;0.0;0.0;0.0;0.0;0.0
1.0;1753876244.037548;16.856064;0.99;-1.67;-1.44;1.004334;0.034661;0.020889;0.0;0.0;0.0;0.0;0.0;0.0
1.0;1753876244.042136;16.825271;1.11;-1.63;-0.56;1.005086;0.03465;0.013047;0.0;0.0;0.0;0.0;0.0;0.0
1.0;1753876244.046725;16.835451;0.93;-1.65;0.39;1.005951;0.041472;0.017355;0.0;0.0;0.0;0.0;0.0;0.0
1.0;1753876244.051314;16.834784;1.1;-1.64;-0.74;1.004916;0.039901;0.010032;0.0;0.0;0.0;0.0;0.0;0.0
1.0;1753876244.055903;16.866076;1.12;-1.6;-3.09;1.006147;0.03659;0.011519;0.0;0.0;0.0;0.0;0.0;0.0
1.0;1753876244.060492;16.807195;1.14;-1.85;-1.47;1.005786;0.037312;0.013039;0.0;0.0;0.0;0.0;0.0;0.0
1.0;1753876244.065081;16.833626;1.11;-1.7;0.2;1.006192;0.041185;0.011063;0.0;0.0;0.0;0.0;0.0;0.0
1.0;1753876244.06967;16.825465;1.15;-1.7;-0.17;1.003559;0.037927;0.01022;0.0;0.0;0.0;0.0;0.0;0.0
1.0;1753876244.074258;16.844577;1.05;-1.56;1.33;1.006892;0.029614;0.011605;0.0;0.0;0.0;0.0;0.0;0.0
1.0;1753876244.078847;16.858446;1.09;-1.66;-0.3;1.004632;0.034443;0.013291;0.0;0.0;0.0;0.0;0.0;0.0
1.0;1753876244.083436;16.836858;1.08;-1.62;-0.4;1.006763;0.041125;0.019857;0.0;0.0;0.0;0.0;0.0;0.0
1.0;1753876244.088025;16.802227;1.03;-1.68;0.34;1.007562;0.045477;0.010412;0.0;0.0;0.0;0.0;0.0;0.0
1.0;1753876244.092614;16.827684;1.18;-1.68;0.59;1.007271;0.032891;0.016943;0.0;0.0;0.0;0.0;0.0;0.0
1.0;1753876244.097202;16.823597;1.01;-1.58;0.07;1.006707;0.040921;0.012893;0.0;0.0;0.0;0.0;0.0;0.0
1.0;1753876244.101792;16.840363;1.05;-1.69;-0.12;1.005806;0.041854;0.015742;0.0;0.0;0.0;0.0;0.0;0.0
1.0;1753876244.10638;16.811058;1.09;-1.66;0.04;1.005578;0.037593;0.008475;0.0;0.0;0.0;0.0;0.0;0.0
1.0;1753876244.110969;16.823369;1.04;-1.56;-0.89;1.007312;0.040549;0.004595;0.0;0.0;0.0;0.0;0.0;0.0
1.0;1753876244.115558;16.854757;0.94;-1.67;0.03;1.005907;0.040428;0.015722;0.0;0.0;0.0;0.0;0.0;0.0
1.0;1753876244.120147;16.857109;1.1;-1.65;-0.97;1.00629;0.035276;0.005821;0.0;0.0;0.0;0.0;0.0;0.0
1.0;1753876244.124736;16.856647;1.12;-1.62;-0.63;1.005876;0.041825;0.014433;0.0;0.0;0.0;0.0;0.0;0.0
1.0;1753876244.129324;16.829196;1.02;-1.58;-0.07;1.004798;0.043029;0.009517;0.0;0.0;0.0;0.0;0.0;0.0
1.0;1753876244.133913;16.823025;0.94;-1.6;-1.29;1.006477;0.03664;0.004443;0.0;0.0;0.0;0.0;0.0;0.0
1.0;1753876244.138502;16.814131;0.83;-1.75;-0.14;1.007116;0.033848;0.008031;0.0;0.0;0.0;0.0;0.0;0.0
1.0;1753876244.143091;16.805603;1.07;-1.64;-1.14;1.006902;0.048718;0.009371;0.0;0.0;0.0;0.0;0.0;0.0
1.0;1753876244.14768;16.819788;1.1;-1.67;-0.57;1.006959;0.04253;-0.001243;0.0;0.0;0.0;0.0;0.0;0.0
1.0;1753876244.152269;16.829594;1.01;-1.65;-0.5;1.006316;0.037951;0.006068;0.0;0.0;0.0;0.0;0.0;0.0
1.0;1753876244.156858;16.829286;1.13;-1.56;1.42;1.005784;0.035545;0.016359;0.0;0.0;0.0;0.0;0.0;0.0
1.0;1753876244.161446;16.847919;1.24;-1.65;-2.14;1.006534;0.036172;0.004472;0.0;0.0;0.0;0.0;0.0;0.0
1.0;1753876244.166035;16.859639;0.86;-1.56;-0.33;1.008886;0.042348;0.00807;0.0;0.0;0.0;0.0;0.0;0.0
1.0;1753876244.170624;16.821851;1.08;-1.65;-0.49;1.006124;0.037309;0.013655;0.0;0.0;0.0;0.0;0.0;0.0
1.0;1753876244.175213;16.854205;1.11;-1.7;0.59;1.00748;0.045235;0.021462;0.0;0.0;0.0;0.0;0.0;0.0
1.0;1753876244.179802;16.802084;1.2;-1.71;-0.54;1.00709;0.039491;0.010063;0.0;0.0;0.0;0.0;0.0;0.0
1.0;1753876244.18439;16.853304;0.99;-1.61;0.25;1.007471;0.037729;0.007454;0.0;0.0;0.0;0.0;0.0;0.0
1.0;1753876244.18898;16.828174;1.12;-1.64;-0.27;1.005351;0.040232;0.012253;0.0;0.0;0.0;0.0;0.0;0.0
1.0;1753876244.193568;16.802328;1.07;-1.53;0.12;1.007187;0.043579;0.010863;0.0;0.0;0.0;0.0;0.0;0.0
1.0;1753876244.198157;16.810204;0.95;-1.64;-0.86;1.007478;0.038013;0.001759;0.0;0.0;0.0;0.0;0.0;0.0
1.0;1753876244.202746;16.842082;1.1;-1.61;-0.12;1.008198;0.036072;0.008974;0.0;0.0;0.0;0.0;0.0;0.0
1.0;1753876244.207335;16.822835;0.97;-1.62;0.27;1.00596;0.038843;0.005604;0.0;0.0;0.0;0.0;0.0;0.0
1.0;1753876244.211924;16.854245;1.05;-1.59;-1.0;1.008028;0.044037;0.011152;0.0;0.0;0.0;0.0;0.0;0.0
1.0;1753876244.216512;16.843587;1.27;-1.62;2.07;1.006573;0.040734;0.017477;0.0;0.0;0.0;0.0;0.0;0.0
1.0;1753876244.221101;16.844128;1.01;-1.72;-0.11;1.007009;0.043781;0.003015;0.0;0.0;0.0;0.0;0.0;0.0
1.0;1753876244.22569;16.82073;0.97;-1.6;-1.48;1.007986;0.041023;0.015267;0.0;0.0;0.0;0.0;0.0;0.0
1.0;1753876244.233;16.832031;1.05;-1.61;-0.42;1.006988;0.038796;0.010126;0.0;0.0;0.0;0.0;0.0;0.0
1.0;1753876244.237589;16.80714;1.07;-1.6;-2.05;1.005276;0.039033;0.01456;0.0;0.0;0.0;0.0;0.0;0.0
1.0;1753876244.242178;16.834408;1.02;-1.56;-1.1;1.00542;0.040957;0.01522;0.0;0.0;0.0;0.0;0.0;0.0
1.0;1753876244.246766;16.842294;0.99;-1.59;1.09;1.007789;0.041525;0.019141;0.0;0.0;0.0;0.0;0.0;0.0
1.0;1753876244.251356;16.814096;0.98;-1.58;-0.65;1.008518;0.038568;0.009333;0.0;0.0;0.0;0.0;0.0;0.0
1.0;1753876244.255944;16.846771;1.15;-1.56;-0.04;1.007123;0.037924;0.014216;0.0;0.0;0.0;0.0;0.0;0.0
1.0;1753876244.260533;16.81108;0.97;-1.56;-1.05;1.006896;0.038374;0.013447;0.0;0.0;0.0;0.0;0.0;0.0
1.0;1753876244.265122;16.827424;1.11;-1.7;0.48;1.006254;0.034026;0.012619;0.0;0.0;0.0;0.0;0.0;0.0
1.0;1753876244.269711;16.833831;0.99;-1.55;0.61;1.008619;0.036965;0.007325;0.0;0.0;0.0;0.0;0.0;0.0
1.0;1753876244.2743;16.825206;0.94;-1.63;-0.26;1.00768;0.041039;0.000375;0.0;0.0;0.0;0.0;0.0;0.0
1.0;1753876244.278888;16.849064;1.08;-1.56;-0.6;1.006784;0.038878;0.008541;0.0;0.0;0.0;0.0;0.0;0.0
1.0;1753876244.283477;16.837941;1.22;-1.52;-0.05;1.007119;0.042647;0.007335;0.0;0.0;0.0;0.0;0.0;0.0
1.0;1753876244.288066;16.828043;1.17;-1.57;-0.86;1.005652;0.039555;0.003159;0.0;0.0;0.0;0.0;0.0;0.0
1.0;1753876244.292655;16.855323;1.06;-1.61;-0.34;1.008093;0.034508;0.00666;0.0;0.0;0.0;0.0;0.0;0.0
1.0;1753876244.297244;16.791613;0.97;-1.62;0.38;1.007205;0.035595;0.009764;0.0;0.0;0.0;0.0;0.0;0.0
1.0;1753876244.301833;16.838328;1.13;-1.69;-1.57;1.006012;0.037187;0.005752;0.0;0.0;0.0;0.0;0.0;0.0
1.0;1753876244.306422;16.816695;1.04;-1.73;-0.03;1.006754;0.036234;0.009592;0.0;0.0;0.0;0.0;0.0;0.0
1.0;1753876244.31101;16.835104;0.99;-1.61;-1.5;1.00679;0.036145;0.016326;0.0;0.0;0.0;0.0;0.0;0.0
1.0;1753876244.315599;16.854687;1.03;-1.56;1.23;1.007591;0.035288;0.014619;0.0;0.0;0.0;0.0;0.0;0.0
1.0;1753876244.320188;16.82295;1.02;-1.65;0.56;1.008023;0.036967;0.012313;0.0;0.0;0.0;0.0;0.0;0.0
1.0;1753876244.324777;16.829493;1.08;-1.5;-0.97;1.008515;0.038007;0.011836;0.0;0.0;0.0;0.0;0.0;0.0
1.0;1753876244.329366;16.805235;1.1;-1.57;-0.95;1.006982;0.040008;-0.003381;0.0;0.0;0.0;0.0;0.0;0.0
1.0;1753876244.333954;16.827681;0.97;-1.59;-0.9;1.006768;0.037653;0.007226;0.0;0.0;0.0;0.0;0.0;0.0
1.0;1753876244.338544;16.82087;1.2;-1.61;-0.0;1.005633;0.036258;0.012108;0.0;0.0;0.0;0.0;0.0;0.0
1.0;1753876244.343132;16.850626;1.05;-1.49;0.03;1.006521;0.038867;0.005689;0.0;0.0;0.0;0.0;0.0;0.0
1.0;1753876244.347721;16.833412;0.92;-1.64;-0.07;1.006375;0.039633;0.010005;0.0;0.0;0.0;0.0;0.0;0.0
1.0;1753876244.35231;16.865148;0.96;-1.59;0.32;1.005655;0.037547;0.013006;0.0;0.0;0.0;0.0;0.0;0.0
1.0;1753876244.356899;16.829753;1.05;-1.53;0.02;1.006819;0.039609;0.006236;0.0;0.0;0.0;0.0;0.0;0.0
1.0;1753876244.361488;16.793099;0.98;-1.57;-0.46;1.008515;0.039912;0.009016;0.0;0.0;0.0;0.0;0.0;0.0
1.0;1753876244.366076;16.84745;0.98;-1.65;-1.35;1.007624;0.040824;0.002119;0.0;0.0;0.0;0.0;0.0;0.0
1.0;1753876244.370665;16.813904;1.0;-1.59;1.42;1.00644;0.03895;-0.001447;0.0;0.0;0.0;0.0;0.0;0.0
1.0;1753876244.375254;16.846732;0.9;-1.58;-0.2;1.005939;0.034682;0.011564;0.0;0.0;0.0;0.0;0.0;0.0
1.0;1753876244.379843;16.843459;1.04;-1.55;-0.35;1.006059;0.037335;0.001414;0.0;0.0;0.0;0.0;0.0;0.0
1.0;1753876244.384432;16.805439;1.05;-1.69;-0.15;1.007148;0.038084;0.013049;0.0;0.0;0.0;0.0;0.0;0.0
1.0;1753876244.389021;16.831779;1.0;-1.62;-0.45;1.005954;0.036965;0.006643;0.0;0.0;0.0;0.0;0.0;0.0
1.0;1753876244.39361;16.836255;1.07;-1.65;0.78;1.006518;0.041929;0.006034;0.0;0.0;0.0;0.0;0.0;0.0
1.0;1753876244.398198;16.825887;1.04;-1.64;-0.52;1.005141;0.037935;-0.000436;0.0;0.0;0.0;0.0;0.0;0.0
1.0;1753876244.402787;16.819529;0.95;-1.68;-0.58;1.006231;0.038377;0.013347;0.0;0.0;0.0;0.0;0.0;0.0
1.0;1753876244.407376;16.821756;1.08;-1.6;0.16;1.005542;0.038854;0.017519;0.0;0.0;0.0;0.0;0.0;0.0
1.0;1753876244.411965;16.830644;0.97;-1.49;0.05;1.005998;0.035093;0.007851;0.0;0.0;0.0;0.0;0.0;0.0
1.0;1753876244.416554;16.847296;1.08;-1.69;-1.13;1.006623;0.0363;0.014446;0.0;0.0;0.0;0.0;0.0;0.0
1.0;1753876244.421142;16.827882;0.91;-1.62;-0.41;1.007833;0.038382;0.005603;0.0;0.0;0.0;0.0;0.0;0.0
1.0;1753876244.425732;16.827856;1.05;-1.67;1.64;1.008125;0.036078;0.005061;0.0;0.0;0.0;0.0;0.0;0.0
1.0;1753876244.43032;16.841658;1.04;-1.56;-0.89;1.008946;0.040191;0.008132;0.0;0.0;0.0;0.0;0.0;0.0
1.0;1753876244.438;16.832031;1.05;-1.61;-0.42;1.006744;0.037576;0.00854;0.0;0.0;0.0;0.0;0.0;0.0
1.0;1753876244.442589;16.824732;1.07;-1.75;-0.19;1.006605;0.038072;0.006677;0.0;0.0;0.0;0.0;0.0;0.0
1.0;1753876244.447178;16.839856;1.11;-1.58;-0.32;1.006484;0.038434;0.017973;0.0;0.0;0.0;0.0;0.0;0.0
1.0;1753876244.451766;16.830721;1.08;-1.55;-1.92;1.00706;0.040542;0.00518;0.0;0.0;0.0;0.0;0.0;0.0
1.0;1753876244.456355;16.868083;1.09;-1.55;-0.4;1.006476;0.036756;0.016973;0.0;0.0;0.0;0.0;0.0;0.0
1.0;1753876244.460944;16.844072;1.0;-1.61;-0.57;1.007298;0.03783;0.011773;0.0;0.0;0.0;0.0;0.0;0.0
1.0;1753876244.465533;16.803324;0.99;-1.54;-0.59;1.006451;0.039071;0.009366;0.0;0.0;0.0;0.0;0.0;0.0
1.0;1753876244.470122;16.817793;1.02;-1.69;-0.21;1.006875;0.037169;-0.000924;0.0;0.0;0.0;0.0;0.0;0.0
1.0;1753876244.474711;16.832616;1.07;-1.59;0.01;1.006275;0.040057;0.009699;0.0;0.0;0.0;0.0;0.0;0.0
1.0;1753876244.4793;16.811842;1.11;-1.56;-0.57;1.005553;0.04064;0.006182;0.0;0.0;0.0;0.0;0.0;0.0
1.0;1753876244.483888;16.873671;0.98;-1.63;-0.4;1.006553;0.040767;0.01087;0.0;0.0;0.0;0.0;0.0;0.0
1.0;1753876244.488477;16.830189;0.99;-1.55;-0.24;1.006015;0.042611;0.011198;0.0;0.0;0.0;0.0;0.0;0.0
1.0;1753876244.493066;16.810151;1.04;-1.61;1.0;1.006584;0.037966;0.002258;0.0;0.0;0.0;0.0;0.0;0.0
1.0;1753876244.497655;16.844923;1.12;-1.64;0.52;1.007088;0.045993;0.008763;0.0;0.0;0.0;0.0;0.0;0.0
1.0;1753876244.502244;16.802285;1.0;-1.67;-0.49;1.007631;0.037397;0.014447;0.0;0.0;0.0;0.0;0.0;0.0
1.0;1753876244.506832;16.846288;0.92;-1.55;0.48;1.007156;0.037322;0.013508;0.0;0.0;0.0;0.0;0.0;0.0
1.0;1753876244.511422;16.842196;1.01;-1.57;-0.08;1.007375;0.040169;0.010436;0.0;0.0;0.0;0.0;0.0;0.0
1.0;1753876244.51601;16.829234;1.04;-1.56;-0.61;1.006418;0.041895;0.006208;0.0;0.0;0.0;0.0;0.0;0.0
1.0;1753876244.520599;16.838359;1.2;-1.6;-0.31;1.007173;0.036046;0.013334;0.0;0.0;0.0;0.0;0.0;0.0
1.0;1753876244.525188;16.8555;1.02;-1.56;-0.4;1.007024;0.036665;0.015268;0.0;0.0;0.0;0.0;0.0;0.0
1.0;1753876244.529777;16.841812;1.14;-1.65;0.03;1.007412;0.04097;0.015578;0.0;0.0;0.0;0.0;0.0;0.0
1.0;1753876244.534366;16.842349;1.07;-1.5;-0.17;1.006541;0.036639;0.010518;0.0;0.0;0.0;0.0;0.0;0.0
1.0;1753876244.538954;16.832034;1.06;-1.59;-0.69;1.006173;0.039019;0.009703;0.0;0.0;0.0;0.0;0.0;0.0
1.0;1753876244.543543;16.852899;1.1;-1.45;-0.97;1.007024;0.035972;0.007346;0.0;0.0;0.0;0.0;0.0;0.0
1.0;1753876244.548132;16.863513;1.1;-1.67;-0.53;1.007305;0.030758;0.006617;0.0;0.0;0.0;0.0;0.0;0.0
1.0;1753876244.552721;16.807733;1.02;-1.64;-1.04;1.006812;0.036186;0.004034;0.0;0.0;0.0;0.0;0.0;0.0
1.0;1753876244.55731;16.876919;1.07;-1.65;0.3;1.008296;0.039829;0.01257;0.0;0.0;0.0;0.0;0.0;0.0
1.0;1753876244.561899;16.830452;1.11;-1.54;0.22;1.006573;0.036499;0.011783;0.0;0.0;0.0;0.0;0.0;0.0
1.0;1753876244.566488;16.839513;1.05;-1.61;-0.35;1.006748;0.036117;0.011222;0.0;0.0;0.0;0.0;0.0;0.0
1.0;1753876244.571076;16.830933;1.13;-1.57;0.46;1.006856;0.03809;0.000888;0.0;0.0;0.0;0.0;0.0;0.0
1.0;1753876244.575665;16.846548;1.06;-1.54;-2.24;1.007999;0.036333;0.013335;0.0;0.0;0.0;0.0;0.0;0.0
1.0;1753876244.580254;16.852156;1.11;-1.73;-1.77;1.006178;0.037771;0.00632;0.0;0.0;0.0;0.0;0.0;0.0
1.0;1753876244.584843;16.857959;1.05;-1.56;-0.74;1.006504;0.038969;0.013761;0.0;0.0;0.0;0.0;0.0;0.0
1.0;1753876244.589432;16.846731;1.1;-1.61;1.09;1.005457;0.034171;0.00389;0.0;0.0;0.0;0.0;0.0;0.0
1.0;1753876244.59402;16.847358;1.05;-1.62;-0.8;1.006583;0.039847;0.007239;0.0;0.0;0.0;0.0;0.0;0.0
1.0;1753876244.59861;16.863615;1.13;-1.59;-0.12;1.006591;0.040906;0.017585;0.0;0.0;0.0;0.0;0.0;0.0
1.0;1753876244.603198;16.824528;1.06;-1.54;0.96;1.007031;0.039265;0.017757;0.0;0.0;0.0;0.0;0.0;0.0
1.0;1753876244.607787;16.860461;1.06;-1.61;-0.44;1.007176;0.037716;0.019027;0.0;0.0;0.0;0.0;0.0;0.0
1.0;1753876244.612376;16.819945;0.93;-1.58;-0.31;1.007781;0.039649;0.017017;0.0;0.0;0.0;0.0;0.0;0.0
1.0;1753876244.616965;16.831706;1.02;-1.57;-0.97;1.006429;0.037774;0.015155;0.0;0.0;0.0;0.0;0.0;0.0
1.0;1753876244.621554;16.824315;1.01;-1.65;1.4;1.006432;0.038366;0.014072;0.0;0.0;0.0;0.0;0.0;0.0
1.0;1753876244.626142;16.85686;1.13;-1.63;0.27;1.006002;0.03834;0.018922;0.0;0.0;0.0;0.0;0.0;0.0
1.0;1753876244.630731;16.824125;1.24;-1.62;-0.33;1.00672;0.035399;0.016453;0.0;0.0;0.0;0.0;0.0;0.0
1.0;1753876244.63532;16.829293;1.04;-1.71;0.06;1.006799;0.039341;0.009599;0.0;0.0;0.0;0.0;0.0;0.0
1.0;1753876244.639909;16.819326;0.98;-1.72;-0.58;1.007508;0.0334;0.003201;0.0;0.0;0.0;0.0;0.0;0.0
1.0;1753876244.644498;16.877826;1.0;-1.64;0.63;1.00666;0.040154;0.007336;0.0;0.0;0.0;0.0;0.0;0.0
1.0;1753876244.649087;16.809848;1.14;-1.62;-0.17;1.007235;0.040568;0.00753;0.0;0.0;0.0;0.0;0.0;0.0
1.0;1753876244.653676;16.834281;0.99;-1.66;0.37;1.006456;0.038366;0.0062;0.0;0.0;0.0;0.0;0.0;0.0
1.0;1753876244.658264;16.847783;1.17;-1.65;-0.38;1.007063;0.037434;0.009035;0.0;0.0;0.0;0.0;0.0;0.0
1.0;1753876244.662853;16.874783;1.16;-1.69;-0.27;1.007457;0.038831;0.01245;0.0;0.0;0.0;0.0;0.0;0.0
1.0;1753876244.667442;16.853181;1.03;-1.59;-0.54;1.006645;0.039194;0.007595;0.0;0.0;0.0;0.0;0.0;0.0
1.0;1753876244.672031;16.845318;1.13;-1.59;-0.09;1.006472;0.040766;0.005257;0.0;0.0;0.0;0.0;0.0;0.0
1.0;1753876244.67662;16.857914;1.07;-1.56;0.44;1.006271;0.03813;0.005928;0.0;0.0;0.0;0.0;0.0;0.0
1.0;1753876244.681208;16.863892;1.12;-1.58;-0.98;1.005164;0.037383;0.010106;0.0;0.0;0.0;0.0;0.0;0.0
1.0;1753876244.685798;16.880049;1.14;-1.75;0.6;1.005504;0.040093;0.008686;0.0;0.0;0.0;0.0;0.0;0.0
1.0;1753876244.690386;16.860834;1.05;-1.64;-0.44;1.006461;0.044452;0.014739;0.0;0.0;0.0;0.0;0.0;0.0
1.0;1753876244.694975;16.836552;1.04;-1.64;0.95;1.006774;0.038481;0.007144;0.0;0.0;0.0;0.0;0.0;0.0
1.0;1753876244.699564;16.853209;1.05;-1.6;-0.05;1.006247;0.038686;0.00144;0.0;0.0;0.0;0.0;0.0;0.0
1.0;1753876244.704153;16.814889;1.28;-1.58;-0.6;1.008165;0.039752;0.006593;0.0;0.0;0.0;0.0;0.0;0.0
1.0;1753876244.708742;16.831288;1.02;-1.63;-0.35;1.00774;0.039524;0.012117;0.0;0.0;0.0;0.0;0.0;0.0
1.0;1753876244.71333;16.860788;1.14;-1.57;-0.48;1.007136;0.035424;0.014941;0.0;0.0;0.0;0.0;0.0;0.0
1.0;1753876244.717919;16.843126;1.03;-1.6;0.67;1.006083;0.039457;0.004552;0.0;0.0;0.0;0.0;0.0;0.0
1.0;1753876244.722508;16.840569;1.07;-1.52;-0.36;1.008017;0.040864;0.014609;0.0;0.0;0.0;0.0;0.0;0.0
1.0;1753876244.727097;16.844752;1.27;-1.64;-0.8;1.006376;0.036867;0.014221;0.0;0.0;0.0;0.0;0.0;0.0
1.0;1753876244.731686;16.821039;0.99;-1.64;-0.14;1.007159;0.042574;0.009739;0.0;0.0;0.0;0.0;0.0;0.0
1.0;1753876244.736275;16.810611;1.12;-1.41;-0.21;1.006833;0.035489;0.011854;0.0;0.0;0.0;0.0;0.0;0.0
1.0;1753876244.740864;16.856701;1.17;-1.63;0.07;1.006362;0.036952;0.001474;0.0;0.0;0.0;0.0;0.0;0.0
1.0;1753876244.745452;16.844843;1.08;-1.59;0.48;1.004969;0.041396;0.006841;0.0;0.0;0.0;0.0;0.0;0.0
1.0;1753876244.750041;16.878075;1.15;-1.63;0.19;1.006462;0.038649;0.002265;0.0;0.0;0.0;0.0;0.0;0.0
1.0;1753876244.75463;16.873108;1.13;-1.63;-0.99;1.006561;0.039166;0.009752;0.0;0.0;0.0;0.0;0.0;0.0
1.0;1753876244.759219;16.80995;0.98;-1.63;0.07;1.0072;0.040238;0.00934;0.0;0.0;0.0;0.0;0.0;0.0
1.0;1753876244.763808;16.863854;1.01;-1.54;-1.25;1.006272;0.038523;0.005453;0.0;0.0;0.0;0.0;0.0;0.0
1.0;1753876244.768396;16.840823;1.0;-1.71;-0.82;1.006312;0.039108;0.004209;0.0;0.0;0.0;0.0;0.0;0.0
1.0;1753876244.772986;16.848051;1.16;-1.53;-1.77;1.006569;0.041254;0.009249;0.0;0.0;0.0;0.0;0.0;0.0
1.0;1753876244.777574;16.843893;1.04;-1.58;-0.78;1.007084;0.038351;0.008678;0.0;0.0;0.0;0.0;0.0;0.0
1.0;1753876244.782163;16.860672;1.14;-1.55;-1.07;1.008214;0.037894;0.014083;0.0;0.0;0.0;0.0;0.0;0.0
1.0;1753876244.786752;16.852658;1.08;-1.54;0.12;1.007719;0.035816;0.007648;0.0;0.0;0.0;0.0;0.0;0.0
1.0;1753876244.791341;16.84895;1.19;-1.57;1.12;1.007852;0.034191;0.015038;0.0;0.0;0.0;0.0;0.0;0.0
1.0;1753876244.79593;16.896913;1.13;-1.62;0.28;1.005678;0.031971;0.011325;0.0;0.0;0.0;0.0;0.0;0.0
1.0;1753876244.800518;16.856475;1.05;-1.58;-0.93;1.007276;0.034798;0.012921;0.0;0.0;0.0;0.0;0.0;0.0
1.0;1753876244.805107;16.861095;1.19;-1.59;-1.12;1.005668;0.032337;0.004632;0.0;0.0;0.0;0.0;0.0;0.0
1.0;1753876244.809696;16.833037;1.01;-1.6;-0.56;1.007276;0.045631;0.011735;0.0;0.0;0.0;0.0;0.0;0.0
1.0;1753876244.814285;16.853025;1.04;-1.64;-1.21;1.007994;0.037581;0.007507;0.0;0.0;0.0;0.0;0.0;0.0
1.0;1753876244.818874;16.862096;1.02;-1.63;-1.77;1.007021;0.035393;0.010494;0.0;0.0;0.0;0.0;0.0;0.0
1.0;1753876244.823463;16.842388;1.08;-1.51;0.53;1.007259;0.03818;0.005421;0.0;0.0;0.0;0.0;0.0;0.0
1.0;1753876244.828052;16.86998;1.17;-1.57;-1.48;1.007253;0.037698;0.013346;0.0;0.0;0.0;0.0;0.0;0.0
1.0;1753876244.83264;16.872376;1.09;-1.68;0.19;1.006398;0.034567;0.013043;0.0;0.0;0.0;0.0;0.0;0.0
1.0;1753876244.837229;16.85792;1.11;-1.64;-0.16;1.006938;0.041433;0.005303;0.0;0.0;0.0;0.0;0.0;0.0
1.0;1753876244.841818;16.81516;1.02;-1.65;-0.62;1.007499;0.038364;0.003551;0.0;0.0;0.0;0.0;0.0;0.0
1.0;1753876244.846407;16.85265;1.15;-1.61;-0.73;1.006869;0.038624;0.003785;0.0;0.0;0.0;0.0;0.0;0.0
1.0;1753876244.850996;16.862922;1.21;-1.66;-1.26;1.005601;0.038757;0.009054;0.0;0.0;0.0;0.0;0.0;0.0
1.0;1753876244.855584;16.860284;1.02;-1.64;0.46;1.007008;0.040403;0.014984;0.0;0.0;0.0;0.0;0.0;0.0
1.0;1753876244.860174;16.866998;1.15;-1.59;0.27;1.007092;0.034174;0.004538;0.0;0.0;0.0;0.0;0.0;0.0
1.0;1753876244.864762;16.873042;1.15;-1.72;0.9;1.006502;0.040088;0.008304;0.0;0.0;0.0;0.0;0.0;0.0
1.0;1753876244.869351;16.833028;1.22;-1.6;-0.88;1.006896;0.041419;0.010576;0.0;0.0;0.0;0.0;0.0;0.0
1.0;1753876244.87394;16.875494;1.09;-1.61;1.78;1.005879;0.036279;0.004623;0.0;0.0;0.0;0.0;0.0;0.0
1.0;1753876244.878529;16.86866;1.17;-1.54;-1.26;1.006752;0.041768;0.010252;0.0;0.0;0.0;0.0;0.0;0.0
1.0;1753876244.883118;16.867129;1.09;-1.66;0.39;1.005867;0.041926;0.007067;0.0;0.0;0.0;0.0;0.0;0.0
1.0;1753876244.887706;16.878589;1.11;-1.58;-1.25;1.006938;0.039137;0.010489;0.0;0.0;0.0;0.0;0.0;0.0
1.0;1753876244.8959;16.863281;1.12;-1.61;-0.35;1.006744;0.03965;0.009028;0.0;0.0;0.0;0.0;0.0;0.0
1.0;1753876244.900489;16.874832;1.13;-1.57;-0.02;1.007517;0.040997;0.009236;0.0;0.0;0.0;0.0;0.0;0.0
1.0;1753876244.905078;16.868744;1.09;-1.56;-0.22;1.006823;0.037775;0.011831;0.0;0.0;0.0;0.0;0.0;0.0
1.0;1753876244.909666;16.849546;1.09;-1.59;-1.12;1.006682;0.041096;0.008761;0.0;0.0;0.0;0.0;0.0;0.0
1.0;1753876244.914256;16.866995;1.02;-1.56;0.04;1.006682;0.037002;0.010244;0.0;0.0;0.0;0.0;0.0;0.0
1.0;1753876244.918844;16.889083;1.17;-1.58;-0.1;1.005857;0.042478;0.009008;0.0;0.0;0.0;0.0;0.0;0.0
1.0;1753876244.923433;16.842034;1.03;-1.57;-0.32;1.00732;0.031121;0.009009;0.0;0.0;0.0;0.0;0.0;0.0
1.0;1753876244.928022;16.87691;1.15;-1.67;0.4;1.006308;0.036935;0.01136;0.0;0.0;0.0;0.0;0.0;0.0
1.0;1753876244.932611;16.840087;1.08;-1.63;0.74;1.007077;0.036342;0.009069;0.0;0.0;0.0;0.0;0.0;0.0
1.0;1753876244.93787;16.839844;1.05;-1.61;0.28;1.005768;0.032818;0.011346;0.0;0.0;0.0;0.0;0.0;0.0
1.0;1753876244.942459;16.890339;1.01;-1.56;0.08;1.006036;0.034488;0.013517;0.0;0.0;0.0;0.0;0.0;0.0
1.0;1753876244.947048;16.864966;0.96;-1.71;0.27;1.00444;0.038649;0.011569;0.0;0.0;0.0;0.0;0.0;0.0
1.0;1753876244.951636;16.853944;0.91;-1.65;0.24;1.005414;0.031261;0.010181;0.0;0.0;0.0;0.0;0.0;0.0
1.0;1753876244.95794;16.839844;0.98;-1.68;0.21;1.005402;0.035136;0.00854;0.0;0.0;0.0;0.0;0.0;0.0
1.0;1753876244.960719;16.886719;1.05;-1.61;0.07;1.0065;0.037454;0.006954;0.0;0.0;0.0;0.0;0.0;0.0
1.0;1753876244.965261;16.886719;1.12;-1.61;0.07;1.006012;0.038186;0.008052;0.0;0.0;0.0;0.0;0.0;0.0
1.0;1753876244.971711;16.886719;1.12;-1.75;0.07;1.006866;0.03782;0.008906;0.0;0.0;0.0;0.0;0.0;0.0
1.0;1753876244.973869;16.886719;1.12;-1.68;0.0;1.006866;0.03782;0.008906;0.0;0.0;0.0;0.0;0.0;0.0
1.0;1753876244.978601;16.804688;0.98;-1.75;0.07;1.005646;0.036722;0.008418;0.0;0.0;0.0;0.0;0.0;0.0
1.0;1753876244.982952;16.804688;1.12;-1.75;0.07;1.00711;0.038552;0.008662;0.0;0.0;0.0;0.0;0.0;0.0
1.0;1753876244.987497;16.804688;1.05;-1.61;0.0;1.006256;0.03721;0.007564;0.0;0.0;0.0;0.0;0.0;0.0
1.0;1753876244.992106;16.804688;1.12;-1.75;0.07;1.005158;0.038552;0.007564;0.0;0.0;0.0;0.0;0.0;0.0
1.0;1753876244.996624;16.855469;1.12;-1.75;0.07;1.006622;0.037576;0.006588;0.0;0.0;0.0;0.0;0.0;0.0
1.0;1753876245.001213;16.854135;1.08;-1.69;0.09;1.008227;0.037998;0.006569;0.0;0.0;0.0;0.0;0.0;0.0
1.0;1753876245.005802;16.83684;1.08;-1.73;0.07;1.006479;0.038349;0.007171;0.0;0.0;0.0;0.0;0.0;0.0
1.0;1753876245.01039;16.836672;1.15;-1.84;0.07;1.006875;0.038058;0.007493;0.0;0.0;0.0;0.0;0.0;0.0
1.0;1753876245.014979;16.872264;1.08;-1.81;0.06;1.006644;0.037816;0.007375;0.0;0.0;0.0;0.0;0.0;0.0
1.0;1753876245.019568;16.858555;1.18;-1.85;0.08;1.006523;0.037507;0.005734;0.0;0.0;0.0;0.0;0.0;0.0
1.0;1753876245.024157;16.86894;1.1;-1.79;0.12;1.006058;0.039032;0.007539;0.0;0.0;0.0;0.0;0.0;0.0
1.0;1753876245.028746;16.824066;1.05;-1.79;0.02;1.006879;0.03809;0.007395;0.0;0.0;0.0;0.0;0.0;0.0
1.0;1753876245.033335;16.836633;1.05;-1.87;0.12;1.006952;0.037734;0.007323;0.0;0.0;0.0;0.0;0.0;0.0
1.0;1753876245.037924;16.832919;1.05;-1.79;0.02;1.006421;0.038313;0.005861;0.0;0.0;0.0;0.0;0.0;0.0
1.0;1753876245.042512;16.876132;1.07;-1.73;0.04;1.007366;0.037126;0.006195;0.0;0.0;0.0;0.0;0.0;0.0
1.0;1753876245.047101;16.825186;1.07;-1.7;0.03;1.006229;0.03798;0.006557;0.0;0.0;0.0;0.0;0.0;0.0
1.0;1753876245.05169;16.875198;1.03;-1.84;-0.0;1.006825;0.037839;0.007501;0.0;0.0;0.0;0.0;0.0;0.0
1.0;1753876245.056279;16.863575;1.16;-1.79;-0.02;1.006766;0.038261;0.008298;0.0;0.0;0.0;0.0;0.0;0.0
1.0;1753876245.060868;16.892836;1.0;-1.76;0.08;1.006922;0.037656;0.005866;0.0;0.0;0.0;0.0;0.0;0.0
1.0;1753876245.065457;16.875046;1.08;-1.78;0.12;1.006338;0.036926;0.006062;0.0;0.0;0.0;0.0;0.0;0.0
1.0;1753876245.070046;16.82343;1.18;-1.68;0.07;1.00593;0.037011;0.006596;0.0;0.0;0.0;0.0;0.0;0.0
1.0;1753876245.074634;16.853423;1.05;-1.82;0.06;1.006209;0.037663;0.007525;0.0;0.0;0.0;0.0;0.0;0.0
1.0;1753876245.079223;16.805749;1.03;-1.8;0.11;1.006729;0.036543;0.006852;0.0;0.0;0.0;0.0;0.0;0.0
1.0;1753876245.083812;16.822894;1.06;-1.8;-0.07;1.005801;0.037946;0.0077;0.0;0.0;0.0;0.0;0.0;0.0
1.0;1753876245.088401;16.872797;1.13;-1.73;0.08;1.007164;0.03889;0.006285;0.0;0.0;0.0;0.0;0.0;0.0
1.0;1753876245.09299;16.86481;1.02;-1.78;0.04;1.005622;0.03759;0.006653;0.0;0.0;0.0;0.0;0.0;0.0
1.0;1753876245.097578;16.841762;1.05;-1.79;0.08;1.007329;0.036967;0.00598;0.0;0.0;0.0;0.0;0.0;0.0
1.0;1753876245.102167;16.855428;1.17;-1.84;0.15;1.006713;0.037795;0.007091;0.0;0.0;0.0;0.0;0.0;0.0
1.0;1753876245.106756;16.904107;1.11;-1.73;0.05;1.005872;0.0375;0.005876;0.0;0.0;0.0;0.0;0.0;0.0
1.0;1753876245.111345;16.893441;1.16;-1.77;0.25;1.007187;0.036838;0.007236;0.0;0.0;0.0;0.0;0.0;0.0
1.0;1753876245.115934;16.853672;1.09;-1.78;0.15;1.006493;0.037916;0.007429;0.0;0.0;0.0;0.0;0.0;0.0
1.0;1753876245.120523;16.894026;1.12;-1.82;0.13;1.006457;0.03722;0.006555;0.0;0.0;0.0;0.0;0.0;0.0
1.0;1753876245.125112;16.889273;1.12;-1.74;0.15;1.004955;0.03622;0.006909;0.0;0.0;0.0;0.0;0.0;0.0
1.0;1753876245.1297;16.869539;1.06;-1.64;0.2;1.005935;0.036945;0.007703;0.0;0.0;0.0;0.0;0.0;0.0
1.0;1753876245.134289;16.866554;1.15;-1.76;0.13;1.006499;0.037361;0.00545;0.0;0.0;0.0;0.0;0.0;0.0
1.0;1753876245.138878;16.857777;1.17;-1.81;0.09;1.004919;0.037834;0.007359;0.0;0.0;0.0;0.0;0.0;0.0
1.0;1753876245.143467;16.900161;1.05;-1.74;0.17;1.006625;0.038004;0.008009;0.0;0.0;0.0;0.0;0.0;0.0
1.0;1753876245.148056;16.827182;1.07;-1.71;0.25;1.006878;0.038436;0.006947;0.0;0.0;0.0;0.0;0.0;0.0
1.0;1753876245.152645;16.865823;1.11;-1.84;-0.02;1.005945;0.036813;0.007113;0.0;0.0;0.0;0.0;0.0;0.0
1.0;1753876245.157234;16.887442;1.15;-1.62;0.12;1.006094;0.037899;0.007344;0.0;0.0;0.0;0.0;0.0;0.0
1.0;1753876245.161822;16.852602;1.1;-1.78;0.06;1.006755;0.03717;0.00686;0.0;0.0;0.0;0.0;0.0;0.0
1.0;1753876245.166411;16.822636;1.14;-1.65;0.13;1.007083;0.038174;0.006259;0.0;0.0;0.0;0.0;0.0;0.0
1.0;1753876245.171;16.860021;1.06;-1.83;0.2;1.006481;0.037062;0.00762;0.0;0.0;0.0;0.0;0.0;0.0
1.0;1753876245.175589;16.824102;1.16;-1.75;0.13;1.006863;0.037248;0.007041;0.0;0.0;0.0;0.0;0.0;0.0
1.0;1753876245.180178;16.814716;1.11;-1.79;0.05;1.00563;0.037187;0.007526;0.0;0.0;0.0;0.0;0.0;0.0
1.0;1753876245.184766;16.911926;1.08;-1.72;0.03;1.006621;0.037391;0.004031;0.0;0.0;0.0;0.0;0.0;0.0
1.0;1753876245.189355;16.897022;1.1;-1.73;0.07;1.006251;0.036468;0.007596;0.0;0.0;0.0;0.0;0.0;0.0
1.0;1753876245.193944;16.823704;1.04;-1.96;0.17;1.005639;0.037169;0.007263;0.0;0.0;0.0;0.0;0.0;0.0
1.0;1753876245.198533;16.85003;1.14;-1.74;0.17;1.006091;0.038908;0.008577;0.0;0.0;0.0;0.0;0.0;0.0
1.0;1753876245.203122;16.877967;1.07;-1.71;0.09;1.007337;0.037963;0.00555;0.0;0.0;0.0;0.0;0.0;0.0
1.0;1753876245.207711;16.912132;1.08;-1.76;0.05;1.005006;0.037458;0.006551;0.0;0.0;0.0;0.0;0.0;0.0
1.0;1753876245.2123;16.891289;1.14;-1.8;0.08;1.00549;0.037618;0.006947;0.0;0.0;0.0;0.0;0.0;0.0
1.0;1753876245.216888;16.802452;1.06;-1.66;0.08;1.006271;0.037885;0.0081;0.0;0.0;0.0;0.0;0.0;0.0
1.0;1753876245.221477;16.839622;1.12;-1.74;0.13;1.005781;0.037337;0.007204;0.0;0.0;0.0;0.0;0.0;0.0
1.0;1753876245.226066;16.863213;1.0;-1.78;0.11;1.006201;0.037194;0.006056;0.0;0.0;0.0;0.0;0.0;0.0
1.0;1753876245.230655;16.899407;1.07;-1.71;0.15;1.007103;0.036758;0.007738;0.0;0.0;0.0;0.0;0.0;0.0
1.0;1753876245.235244;16.85783;1.07;-1.78;0.08;1.007775;0.03694;0.005801;0.0;0.0;0.0;0.0;0.0;0.0
1.0;1753876245.239833;16.777766;1.12;-1.75;0.08;1.005656;0.037753;0.008049;0.0;0.0;0.0;0.0;0.0;0.0
1.0;1753876245.244422;16.825646;0.98;-1.72;0.08;1.005582;0.037768;0.005758;0.0;0.0;0.0;0.0;0.0;0.0
1.0;1753876245.24901;16.847335;1.05;-1.81;0.16;1.006164;0.036826;0.008251;0.0;0.0;0.0;0.0;0.0;0.0
1.0;1753876245.253599;16.827828;1.01;-1.69;0.12;1.006281;0.036651;0.005791;0.0;0.0;0.0;0.0;0.0;0.0
1.0;1753876245.258188;16.92395;1.07;-1.71;0.15;1.006019;0.037015;0.008367;0.0;0.0;0.0;0.0;0.0;0.0
1.0;1753876245.262777;16.874613;1.18;-1.82;0.21;1.005457;0.036089;0.006472;0.0;0.0;0.0;0.0;0.0;0.0
1.0;1753876245.267366;16.767177;1.06;-1.57;-0.01;1.005112;0.036755;0.006869;0.0;0.0;0.0;0.0;0.0;0.0
1.0;1753876245.271954;16.880201;1.11;-1.9;0.1;1.005328;0.036498;0.007169;0.0;0.0;0.0;0.0;0.0;0.0
1.0;1753876245.276544;16.804633;1.18;-1.71;0.28;1.006467;0.037273;0.00631;0.0;0.0;0.0;0.0;0.0;0.0
1.0;1753876245.281132;16.921147;1.07;-1.8;0.06;1.006289;0.037685;0.005492;0.0;0.0;0.0;0.0;0.0;0.0
1.0;1753876245.285721;16.858343;1.07;-1.73;0.17;1.006374;0.037549;0.007186;0.0;0.0;0.0;0.0;0.0;0.0
1.0;1753876245.29031;16.845988;0.98;-1.64;0.06;1.006602;0.036964;0.007547;0.0;0.0;0.0;0.0;0.0;0.0
1.0;1753876245.294899;16.82485;1.18;-1.87;0.17;1.005777;0.037254;0.006748;0.0;0.0;0.0;0.0;0.0;0.0
1.0;1753876245.299488;16.900684;1.02;-1.68;0.15;1.005396;0.038747;0.006871;0.0;0.0;0.0;0.0;0.0;0.0
1.0;1753876245.304076;16.823844;1.07;-1.75;0.15;1.006093;0.037367;0.006156;0.0;0.0;0.0;0.0;0.0;0.0
1.0;1753876245.308665;16.903777;1.19;-1.87;0.13;1.006171;0.037752;0.00726;0.0;0.0;0.0;0.0;0.0;0.0
1.0;1753876245.313254;16.841425;1.11;-1.62;0.18;1.005799;0.037205;0.006933;0.0;0.0;0.0;0.0;0.0;0.0
1.0;1753876245.317843;16.812601;1.01;-1.68;0.12;1.006301;0.038333;0.007678;0.0;0.0;0.0;0.0;0.0;0.0
1.0;1753876245.322432;16.86183;1.09;-1.71;0.26;1.006712;0.037324;0.008549;0.0;0.0;0.0;0.0;0.0;0.0
1.0;1753876245.327021;16.860587;1.09;-1.79;0.09;1.007174;0.036986;0.007014;0.0;0.0;0.0;0.0;0.0;0.0
1.0;1753876245.33161;16.87231;0.95;-1.63;0.11;1.005384;0.037032;0.00773;0.0;0.0;0.0;0.0;0.0;0.0
1.0;1753876245.336198;16.830028;1.11;-1.65;0.21;1.004121;0.036596;0.007832;0.0;0.0;0.0;0.0;0.0;0.0
1.0;1753876245.340787;16.835836;1.06;-1.67;0.17;1.006423;0.037614;0.007589;0.0;0.0;0.0;0.0;0.0;0.0
1.0;1753876245.345376;16.877446;1.08;-1.69;0.15;1.006255;0.038764;0.007667;0.0;0.0;0.0;0.0;0.0;0.0
1.0;1753876245.349965;16.88887;1.05;-1.77;0.21;1.005962;0.037226;0.006629;0.0;0.0;0.0;0.0;0.0;0.0
1.0;1753876245.354554;16.876854;1.05;-1.79;0.22;1.005148;0.037794;0.0067;0.0;0.0;0.0;0.0;0.0;0.0
1.0;1753876245.359142;16.878153;1.2;-1.74;0.14;1.007178;0.037135;0.006371;0.0;0.0;0.0;0.0;0.0;0.0
1.0;1753876245.363732;16.879466;1.01;-1.76;0.16;1.006901;0.037278;0.005996;0.0;0.0;0.0;0.0;0.0;0.0
1.0;1753876245.36832;16.864762;1.1;-1.65;0.09;1.00694;0.038161;0.007196;0.0;0.0;0.0;0.0;0.0;0.0
1.0;1753876245.372909;16.816056;1.1;-1.9;0.12;1.007475;0.03784;0.00718;0.0;0.0;0.0;0.0;0.0;0.0
1.0;1753876245.377498;16.861801;1.09;-1.76;0.17;1.005749;0.038066;0.007436;0.0;0.0;0.0;0.0;0.0;0.0
1.0;1753876245.382087;16.877422;1.04;-1.67;0.2;1.005661;0.036821;0.006264;0.0;0.0;0.0;0.0;0.0;0.0
1.0;1753876245.386676;16.838527;1.03;-1.87;0.09;1.005085;0.038202;0.008468;0.0;0.0;0.0;0.0;0.0;0.0
1.0;1753876245.391264;16.858929;0.92;-1.64;0.13;1.006613;0.038367;0.005102;0.0;0.0;0.0;0.0;0.0;0.0
1.0;1753876245.395853;16.777337;1.01;-1.86;0.17;1.006955;0.038125;0.005835;0.0;0.0;0.0;0.0;0.0;0.0
1.0;1753876245.400442;16.840972;1.09;-1.78;0.18;1.005672;0.037883;0.007464;0.0;0.0;0.0;0.0;0.0;0.0
1.0;1753876245.405031;16.852937;1.07;-1.79;0.21;1.005517;0.037714;0.007054;0.0;0.0;0.0;0.0;0.0;0.0
1.0;1753876245.40962;16.839306;1.1;-1.78;0.19;1.006507;0.037619;0.007046;0.0;0.0;0.0;0.0;0.0;0.0
1.0;1753876245.414209;16.872599;1.1;-1.8;0.24;1.006637;0.038076;0.006696;0.0;0.0;0.0;0.0;0.0;0.0
1.0;1753876245.418798;16.857395;1.13;-1.63;0.15;1.005547;0.037914;0.008422;0.0;0.0;0.0;0.0;0.0;0.0
1.0;1753876245.423386;16.884252;1.14;-1.73;0.27;1.005988;0.037812;0.008335;0.0;0.0;0.0;0.0;0.0;0.0
1.0;1753876245.427975;16.849032;1.05;-1.76;0.16;1.004924;0.037583;0.00664;0.0;0.0;0.0;0.0;0.0;0.0
1.0;1753876245.432564;16.896517;0.97;-1.55;0.1;1.006238;0.037739;0.007624;0.0;0.0;0.0;0.0;0.0;0.0
1.0;1753876245.437153;16.862516;1.11;-1.76;0.03;1.00596;0.038686;0.005463;0.0;0.0;0.0;0.0;0.0;0.0
1.0;1753876245.441742;16.864343;1.1;-1.72;0.05;1.00629;0.036051;0.007641;0.0;0.0;0.0;0.0;0.0;0.0
1.0;1753876245.44633;16.897768;1.11;-1.76;0.15;1.005893;0.036804;0.00783;0.0;0.0;0.0;0.0;0.0;0.0
1.0;1753876245.45092;16.882885;1.07;-1.73;0.15;1.006161;0.036651;0.007735;0.0;0.0;0.0;0.0;0.0;0.0
1.0;1753876245.455508;16.855682;1.21;-1.8;0.14;1.006437;0.038396;0.007263;0.0;0.0;0.0;0.0;0.0;0.0
1.0;1753876245.460097;16.861038;1.1;-1.66;0.2;1.00638;0.038081;0.005815;0.0;0.0;0.0;0.0;0.0;0.0
1.0;1753876245.464686;16.85186;1.09;-1.65;0.16;1.005246;0.036197;0.006755;0.0;0.0;0.0;0.0;0.0;0.0
1.0;1753876245.469275;16.836401;1.0;-1.8;0.28;1.005464;0.037336;0.007498;0.0;0.0;0.0;0.0;0.0;0.0
1.0;1753876245.473864;16.83046;1.07;-1.76;0.21;1.006517;0.037998;0.009012;0.0;0.0;0.0;0.0;0.0;0.0
1.0;1753876245.478452;16.813538;1.07;-1.71;0.15;1.006952;0.038469;0.008359;0.0;0.0;0.0;0.0;0.0;0.0
1.0;1753876245.483041;16.891382;1.07;-1.64;0.18;1.005555;0.037778;0.007028;0.0;0.0;0.0;0.0;0.0;0.0
1.0;1753876245.48763;16.851518;1.07;-1.67;0.25;1.006392;0.036921;0.008461;0.0;0.0;0.0;0.0;0.0;0.0
1.0;1753876245.492219;16.91786;1.0;-1.7;0.22;1.006507;0.037405;0.006787;0.0;0.0;0.0;0.0;0.0;0.0
1.0;1753876245.496808;16.829112;1.14;-1.79;0.22;1.006413;0.037234;0.007164;0.0;0.0;0.0;0.0;0.0;0.0
1.0;1753876245.501397;16.816137;1.07;-1.84;0.11;1.006536;0.038239;0.008575;0.0;0.0;0.0;0.0;0.0;0.0
1.0;1753876245.505986;16.891741;1.04;-1.68;0.15;1.007036;0.037392;0.00671;0.0;0.0;0.0;0.0;0.0;0.0
1.0;1753876245.510574;16.84068;1.15;-1.79;0.14;1.006013;0.036974;0.006526;0.0;0.0;0.0;0.0;0.0;0.0
1.0;1753876245.515163;16.89455;1.14;-1.78;0.13;1.00579;0.037619;0.006976;0.0;0.0;0.0;0.0;0.0;0.0
1.0;1753876245.519752;16.862347;1.15;-1.74;0.17;1.006374;0.037711;0.006735;0.0;0.0;0.0;0.0;0.0;0.0
1.0;1753876245.524341;16.823242;1.11;-1.81;0.16;1.005986;0.036828;0.007026;0.0;0.0;0.0;0.0;0.0;0.0
1.0;1753876245.52893;16.89274;1.09;-1.72;0.29;1.006278;0.037668;0.007502;0.0;0.0;0.0;0.0;0.0;0.0
1.0;1753876245.533518;16.810805;1.07;-1.76;0.2;1.00652;0.036414;0.007364;0.0;0.0;0.0;0.0;0.0;0.0
1.0;1753876245.538108;16.826024;1.13;-1.78;0.18;1.005358;0.036886;0.007166;0.0;0.0;0.0;0.0;0.0;0.0
1.0;1753876245.542696;16.84525;1.06;-1.71;0.3;1.006221;0.037085;0.007811;0.0;0.0;0.0;0.0;0.0;0.0
1.0;1753876245.547285;16.838524;1.01;-1.78;0.12;1.005185;0.037937;0.008711;0.0;0.0;0.0;0.0;0.0;0.0
1.0;1753876245.551874;16.92741;1.12;-1.72;0.3;1.005179;0.036617;0.007641;0.0;0.0;0.0;0.0;0.0;0.0
1.0;1753876245.556463;16.842849;1.11;-1.8;0.28;1.005193;0.037104;0.006976;0.0;0.0;0.0;0.0;0.0;0.0
1.0;1753876245.561052;16.911592;1.07;-1.75;0.22;1.006185;0.03669;0.007447;0.0;0.0;0.0;0.0;0.0;0.0
1.0;1753876245.56564;16.818942;1.05;-1.71;0.29;1.005269;0.037061;0.007757;0.0;0.0;0.0;0.0;0.0;0.0
1.0;1753876245.570229;16.904235;1.07;-1.86;0.32;1.004943;0.038355;0.00833;0.0;0.0;0.0;0.0;0.0;0.0
1.0;1753876245.574818;16.848808;0.99;-1.64;0.14;1.006427;0.037734;0.007401;0.0;0.0;0.0;0.0;0.0;0.0
1.0;1753876245.579407;16.902188;1.02;-1.64;0.12;1.005768;0.037545;0.005579;0.0;0.0;0.0;0.0;0.0;0.0
1.0;1753876245.583996;16.901471;0.95;-1.63;0.2;1.005658;0.037945;0.006775;0.0;0.0;0.0;0.0;0.0;0.0
1.0;1753876245.588585;16.916348;1.07;-1.67;0.19;1.006761;0.036694;0.007407;0.0;0.0;0.0;0.0;0.0;0.0
1.0;1753876245.593174;16.900882;1.08;-1.79;0.2;1.005315;0.038002;0.007004;0.0;0.0;0.0;0.0;0.0;0.0
1.0;1753876245.597762;16.902555;1.14;-1.72;0.11;1.006552;0.038038;0.007888;0.0;0.0;0.0;0.0;0.0;0.0
1.0;1753876245.6035;16.855469;1.05;-1.75;0.21;1.005646;0.03721;0.007686;0.0;0.0;0.0;0.0;0.0;0.0
1.0;1753876245.60715;16.839844;1.12;-1.61;0.07;1.0065;0.03782;0.008296;0.0;0.0;0.0;0.0;0.0;0.0
1.0;1753876245.611739;16.839683;1.13;-1.7;0.12;1.005807;0.03721;0.008584;0.0;0.0;0.0;0.0;0.0;0.0
1.0;1753876245.616328;16.847695;1.11;-1.58;-0.02;1.005709;0.037613;0.007388;0.0;0.0;0.0;0.0;0.0;0.0
1.0;1753876245.620916;16.841157;1.12;-1.8;0.11;1.006836;0.037231;0.008679;0.0;0.0;0.0;0.0;0.0;0.0
1.0;1753876245.625506;16.867617;1.13;-1.52;0.03;1.006244;0.036873;0.009036;0.0;0.0;0.0;0.0;0.0;0.0
1.0;1753876245.630094;16.8356;1.09;-1.56;-0.08;1.007472;0.036503;0.007487;0.0;0.0;0.0;0.0;0.0;0.0
1.0;1753876245.634683;16.839319;1.13;-1.6;0.14;1.007126;0.035863;0.007677;0.0;0.0;0.0;0.0;0.0;0.0
1.0;1753876245.639272;16.826153;1.16;-1.66;0.01;1.005726;0.037712;0.008855;0.0;0.0;0.0;0.0;0.0;0.0
1.0;1753876245.643861;16.846342;1.03;-1.7;0.12;1.006824;0.036111;0.007649;0.0;0.0;0.0;0.0;0.0;0.0
1.0;1753876245.64845;16.843455;1.02;-1.71;0.17;1.005991;0.036982;0.008221;0.0;0.0;0.0;0.0;0.0;0.0
1.0;1753876245.653038;16.840637;1.04;-1.7;0.18;1.007149;0.03648;0.009089;0.0;0.0;0.0;0.0;0.0;0.0
1.0;1753876245.657627;16.822907;1.06;-1.62;0.03;1.005956;0.035722;0.00934;0.0;0.0;0.0;0.0;0.0;0.0
1.0;1753876245.662216;16.869999;1.08;-1.67;0.02;1.005442;0.037165;0.008621;0.0;0.0;0.0;0.0;0.0;0.0
1.0;1753876245.666805;16.797644;1.01;-1.7;0.07;1.00566;0.036201;0.009038;0.0;0.0;0.0;0.0;0.0;0.0
1.0;1753876245.671394;16.831095;1.14;-1.71;0.14;1.006317;0.035768;0.008826;0.0;0.0;0.0;0.0;0.0;0.0
1.0;1753876245.675983;16.816396;1.02;-1.61;0.05;1.007236;0.038187;0.008564;0.0;0.0;0.0;0.0;0.0;0.0
1.0;1753876245.680572;16.843543;1.01;-1.78;0.02;1.006253;0.037811;0.007107;0.0;0.0;0.0;0.0;0.0;0.0
1.0;1753876245.68516;16.83215;1.02;-1.77;-0.04;1.005224;0.036551;0.009438;0.0;0.0;0.0;0.0;0.0;0.0
1.0;1753876245.69238;16.839844;1.05;-1.68;0.07;1.006622;0.036722;0.008418;0.0;0.0;0.0;0.0;0.0;0.0
1.0;1753876245.69783;16.855469;0.98;-1.68;0.07;1.005646;0.037088;0.00732;0.0;0.0;0.0;0.0;0.0;0.0
1.0;1753876245.702419;16.828754;0.99;-1.76;0.04;1.004361;0.036636;0.007252;0.0;0.0;0.0;0.0;0.0;0.0
1.0;1753876245.707008;16.850526;0.97;-1.7;0.06;1.005132;0.036611;0.008377;0.0;0.0;0.0;0.0;0.0;0.0
1.0;1753876245.711596;16.893861;1.06;-1.68;0.09;1.006894;0.037164;0.008242;0.0;0.0;0.0;0.0;0.0;0.0
1.0;1753876245.716185;16.866748;0.92;-1.65;0.15;1.004808;0.037302;0.007707;0.0;0.0;0.0;0.0;0.0;0.0
1.0;1753876245.720774;16.848125;1.04;-1.71;0.1;1.005814;0.037567;0.007366;0.0;0.0;0.0;0.0;0.0;0.0
1.0;1753876245.725363;16.849279;1.14;-1.72;0.08;1.005506;0.03779;0.008043;0.0;0.0;0.0;0.0;0.0;0.0
1.0;1753876245.729952;16.833669;1.13;-1.7;0.06;1.005974;0.03648;0.007044;0.0;0.0;0.0;0.0;0.0;0.0
1.0;1753876245.734541;16.850367;1.11;-1.75;0.14;1.006007;0.036483;0.008585;0.0;0.0;0.0;0.0;0.0;0.0
1.0;1753876245.73913;16.872977;1.21;-1.67;0.09;1.005259;0.036301;0.008331;0.0;0.0;0.0;0.0;0.0;0.0
1.0;1753876245.74619;16.855469;1.12;-1.75;0.14;1.005768;0.0366;0.008784;0.0;0.0;0.0;0.0;0.0;0.0
1.0;1753876245.750779;16.871818;1.13;-1.79;0.06;1.006343;0.035361;0.009126;0.0;0.0;0.0;0.0;0.0;0.0
1.0;1753876245.755368;16.853487;1.09;-1.7;0.07;1.006015;0.03736;0.007733;0.0;0.0;0.0;0.0;0.0;0.0
1.0;1753876245.759956;16.824436;1.15;-1.67;0.1;1.005298;0.03723;0.007979;0.0;0.0;0.0;0.0;0.0;0.0
1.0;1753876245.764546;16.806636;1.13;-1.78;0.23;1.00515;0.037514;0.00835;0.0;0.0;0.0;0.0;0.0;0.0
1.0;1753876245.769134;16.849829;1.13;-1.85;0.01;1.005164;0.038917;0.009004;0.0;0.0;0.0;0.0;0.0;0.0
1.0;1753876245.773723;16.867621;1.14;-1.78;0.22;1.005637;0.037314;0.007809;0.0;0.0;0.0;0.0;0.0;0.0
1.0;1753876245.778312;16.870775;1.05;-1.77;0.08;1.005332;0.038031;0.007672;0.0;0.0;0.0;0.0;0.0;0.0
1.0;1753876245.782901;16.877718;1.01;-1.71;0.05;1.005429;0.038922;0.007865;0.0;0.0;0.0;0.0;0.0;0.0
1.0;1753876245.78984;16.855469;1.05;-1.75;0.07;1.00528;0.038308;0.008784;0.0;0.0;0.0;0.0;0.0;0.0
1.0;1753876245.794429;16.876983;1.08;-1.75;0.0;1.005674;0.03685;0.008098;0.0;0.0;0.0;0.0;0.0;0.0
1.0;1753876245.799018;16.849477;1.06;-1.65;0.12;1.005844;0.038945;0.008626;0.0;0.0;0.0;0.0;0.0;0.0
1.0;1753876245.803606;16.887504;1.04;-1.81;0.1;1.006287;0.037945;0.009066;0.0;0.0;0.0;0.0;0.0;0.0
1.0;1753876245.808195;16.882952;1.01;-1.62;0.09;1.004882;0.038382;0.010223;0.0;0.0;0.0;0.0;0.0;0.0
1.0;1753876245.812784;16.819399;1.05;-1.74;0.11;1.006153;0.038632;0.009863;0.0;0.0;0.0;0.0;0.0;0.0
1.0;1753876245.817373;16.851959;1.02;-1.71;0.14;1.006111;0.037709;0.008696;0.0;0.0;0.0;0.0;0.0;0.0
1.0;1753876245.821962;16.86224;1.1;-1.8;0.05;1.005737;0.038976;0.009539;0.0;0.0;0.0;0.0;0.0;0.0
1.0;1753876245.826551;16.8203;1.03;-1.71;0.05;1.006263;0.038152;0.008404;0.0;0.0;0.0;0.0;0.0;0.0
1.0;1753876245.83114;16.888279;1.06;-1.75;0.08;1.00535;0.037884;0.008771;0.0;0.0;0.0;0.0;0.0;0.0
1.0;1753876245.835728;16.884475;0.95;-1.63;0.01;1.005696;0.038148;0.008745;0.0;0.0;0.0;0.0;0.0;0.0
1.0;1753876245.840317;16.842701;1.14;-1.81;0.09;1.007032;0.037553;0.010004;0.0;0.0;0.0;0.0;0.0;0.0
1.0;1753876245.844906;16.850447;1.0;-1.54;0.02;1.00642;0.037486;0.008438;0.0;0.0;0.0;0.0;0.0;0.0
1.0;1753876245.84944;16.855469;1.05;-1.68;0.07;1.006134;0.037454;0.00915;0.0;0.0;0.0;0.0;0.0;0.0
1.0;1753876245.854029;16.854635;1.18;-1.61;0.09;1.006478;0.037527;0.008908;0.0;0.0;0.0;0.0;0.0;0.0
1.0;1753876245.858618;16.829392;1.0;-1.72;0.08;1.006103;0.037633;0.008821;0.0;0.0;0.0;0.0;0.0;0.0
1.0;1753876245.863206;16.817971;1.01;-1.72;0.03;1.004508;0.037016;0.00713;0.0;0.0;0.0;0.0;0.0;0.0
1.0;1753876245.867796;16.805714;1.13;-1.6;-0.02;1.00436;0.037349;0.007147;0.0;0.0;0.0;0.0;0.0;0.0
1.0;1753876245.872384;16.849302;1.09;-1.88;-0.07;1.006171;0.037901;0.006265;0.0;0.0;0.0;0.0;0.0;0.0
1.0;1753876245.88079;16.792969;1.05;-1.75;0.0;1.005036;0.037332;0.006344;0.0;0.0;0.0;0.0;0.0;0.0
1.0;1753876245.885379;16.812011;1.12;-1.78;0.02;1.005626;0.037291;0.006997;0.0;0.0;0.0;0.0;0.0;0.0
1.0;1753876245.889968;16.808046;1.03;-1.74;-0.01;1.005547;0.036362;0.006837;0.0;0.0;0.0;0.0;0.0;0.0
1.0;1753876245.894556;16.816276;1.12;-1.78;-0.06;1.006309;0.037881;0.005691;0.0;0.0;0.0;0.0;0.0;0.0
1.0;1753876245.899145;16.778022;1.14;-1.65;0.12;1.005181;0.037259;0.008252;0.0;0.0;0.0;0.0;0.0;0.0
1.0;1753876245.903734;16.77465;1.08;-1.75;0.11;1.005663;0.037119;0.007008;0.0;0.0;0.0;0.0;0.0;0.0
1.0;1753876245.908323;16.787214;1.16;-1.64;0.06;1.006711;0.036492;0.007314;0.0;0.0;0.0;0.0;0.0;0.0
1.0;1753876245.912912;16.818502;1.1;-1.78;0.06;1.007562;0.037165;0.006795;0.0;0.0;0.0;0.0;0.0;0.0
1.0;1753876245.917501;16.75584;1.15;-1.85;-0.01;1.006461;0.037256;0.007746;0.0;0.0;0.0;0.0;0.0;0.0
1.0;1753876245.92209;16.793181;1.16;-1.79;0.07;1.00658;0.037033;0.00716;0.0;0.0;0.0;0.0;0.0;0.0
1.0;1753876245.92653;16.792969;1.12;-1.75;0.07;1.006256;0.036722;0.007442;0.0;0.0;0.0;0.0;0.0;0.0
1.0;1753876245.931119;16.787248;1.13;-1.62;0.13;1.006993;0.037428;0.006335;0.0;0.0;0.0;0.0;0.0;0.0
1.0;1753876245.935708;16.789466;1.15;-1.88;0.14;1.006687;0.036251;0.007967;0.0;0.0;0.0;0.0;0.0;0.0
1.0;1753876245.940296;16.829457;1.03;-1.81;0.1;1.005132;0.037126;0.00745;0.0;0.0;0.0;0.0;0.0;0.0
1.0;1753876245.944885;16.767215;1.07;-1.6;-0.01;1.007169;0.037899;0.006823;0.0;0.0;0.0;0.0;0.0;0.0
1.0;1753876245.949474;16.825193;1.17;-1.74;0.13;1.005619;0.037241;0.006749;0.0;0.0;0.0;0.0;0.0;0.0
1.0;1753876245.954063;16.760227;0.98;-1.72;0.13;1.006914;0.037301;0.00775;0.0;0.0;0.0;0.0;0.0;0.0
1.0;1753876245.958652;16.783745;0.95;-1.58;0.02;1.005928;0.036381;0.006313;0.0;0.0;0.0;0.0;0.0;0.0
1.0;1753876245.96324;16.784254;1.06;-1.64;0.03;1.006295;0.037601;0.007664;0.0;0.0;0.0;0.0;0.0;0.0
1.0;1753876245.96783;16.794355;0.98;-1.71;0.07;1.005967;0.036437;0.009171;0.0;0.0;0.0;0.0;0.0;0.0
1.0;1753876245.97281;16.792969;0.98;-1.61;0.07;1.006256;0.037332;0.00732;0.0;0.0;0.0;0.0;0.0;0.0
1.0;1753876245.975251;16.824219;1.05;-1.68;0.07;1.005402;0.037454;0.008052;0.0;0.0;0.0;0.0;0.0;0.0
1.0;1753876245.980067;16.824219;1.12;-1.82;0.07;1.006256;0.038308;0.007686;0.0;0.0;0.0;0.0;0.0;0.0
1.0;1753876245.986879;16.839844;1.05;-1.61;0.07;1.006622;0.037332;0.008296;0.0;0.0;0.0;0.0;0.0;0.0
1.0;1753876245.988915;16.839844;1.05;-1.68;0.07;1.005646;0.037454;0.007686;0.0;0.0;0.0;0.0;0.0;0.0
1.0;1753876245.993504;16.822301;0.89;-1.67;0.09;1.005681;0.037568;0.008024;0.0;0.0;0.0;0.0;0.0;0.0
1.0;1753876245.997695;16.839844;1.05;-1.68;0.07;1.006012;0.037698;0.007686;0.0;0.0;0.0;0.0;0.0;0.0
1.0;1753876245.997991;16.839844;1.05;-1.68;0.07;1.006012;0.037698;0.007686;0.0;0.0;0.0;0.0;0.0;0.0
1.0;1753876246.00258;16.83312;1.12;-1.7;0.01;1.006666;0.03833;0.007356;0.0;0.0;0.0;0.0;0.0;0.0
1.0;1753876246.007169;16.84305;1.02;-1.63;0.08;1.006538;0.038556;0.008081;0.0;0.0;0.0;0.0;0.0;0.0
1.0;1753876246.011758;16.832693;1.04;-1.73;0.09;1.005351;0.038061;0.00802;0.0;0.0;0.0;0.0;0.0;0.0
1.0;1753876246.016346;16.84319;1.07;-1.73;0.09;1.00548;0.037255;0.007253;0.0;0.0;0.0;0.0;0.0;0.0
1.0;1753876246.020935;16.8668;0.95;-1.65;0.1;1.005889;0.037213;0.00735;0.0;0.0;0.0;0.0;0.0;0.0
1.0;1753876246.025524;16.797263;1.1;-1.64;0.08;1.005295;0.038174;0.007615;0.0;0.0;0.0;0.0;0.0;0.0
1.0;1753876246.030113;16.825237;1.04;-1.74;0.08;1.005695;0.037163;0.007966;0.0;0.0;0.0;0.0;0.0;0.0
1.0;1753876246.034702;16.855069;1.09;-1.69;0.07;1.006386;0.037085;0.007211;0.0;0.0;0.0;0.0;0.0;0.0
1.0;1753876246.039291;16.833887;1.16;-1.68;0.08;1.006113;0.037849;0.007587;0.0;0.0;0.0;0.0;0.0;0.0
1.0;1753876246.04388;16.830766;0.98;-1.6;0.08;1.004817;0.037392;0.00799;0.0;0.0;0.0;0.0;0.0;0.0
1.0;1753876246.048468;16.837173;1.12;-1.69;0.04;1.004354;0.037209;0.007186;0.0;0.0;0.0;0.0;0.0;0.0
1.0;1753876246.053057;16.797885;1.05;-1.56;0.09;1.005685;0.037625;0.006692;0.0;0.0;0.0;0.0;0.0;0.0
1.0;1753876246.057646;16.819301;1.05;-1.71;0.02;1.00648;0.036783;0.007692;0.0;0.0;0.0;0.0;0.0;0.0
1.0;1753876246.062235;16.849213;1.15;-1.77;0.07;1.006312;0.037056;0.007534;0.0;0.0;0.0;0.0;0.0;0.0
1.0;1753876246.066824;16.82131;1.1;-1.76;0.05;1.006714;0.03808;0.007753;0.0;0.0;0.0;0.0;0.0;0.0
1.0;1753876246.071412;16.865947;1.08;-1.68;0.07;1.006285;0.037665;0.006195;0.0;0.0;0.0;0.0;0.0;0.0
1.0;1753876246.076002;16.834921;1.09;-1.67;0.05;1.006646;0.037131;0.007066;0.0;0.0;0.0;0.0;0.0;0.0
1.0;1753876246.08059;16.819853;1.06;-1.68;0.03;1.005862;0.038102;0.007558;0.0;0.0;0.0;0.0;0.0;0.0
1.0;1753876246.085179;16.798689;1.05;-1.59;0.04;1.00521;0.03764;0.007947;0.0;0.0;0.0;0.0;0.0;0.0
1.0;1753876246.089768;16.835542;1.1;-1.74;0.07;1.005863;0.036956;0.007708;0.0;0.0;0.0;0.0;0.0;0.0
1.0;1753876246.094357;16.831094;1.09;-1.76;-0.03;1.005834;0.036475;0.007435;0.0;0.0;0.0;0.0;0.0;0.0
1.0;1753876246.098946;16.814844;0.98;-1.63;0.05;1.005093;0.037646;0.007393;0.0;0.0;0.0;0.0;0.0;0.0
1.0;1753876246.103534;16.821518;1.09;-1.73;0.02;1.004945;0.036911;0.006875;0.0;0.0;0.0;0.0;0.0;0.0
1.0;1753876246.108123;16.791396;1.08;-1.66;0.11;1.005441;0.037947;0.00664;0.0;0.0;0.0;0.0;0.0;0.0
1.0;1753876246.112712;16.801494;1.12;-1.69;-0.01;1.005203;0.037305;0.007661;0.0;0.0;0.0;0.0;0.0;0.0
1.0;1753876246.117301;16.806035;1.12;-1.73;0.06;1.004663;0.03703;0.006187;0.0;0.0;0.0;0.0;0.0;0.0
1.0;1753876246.12189;16.831966;1.04;-1.75;0.03;1.005321;0.037361;0.007127;0.0;0.0;0.0;0.0;0.0;0.0
1.0;1753876246.126479;16.833906;1.08;-1.7;-0.01;1.006099;0.037193;0.007222;0.0;0.0;0.0;0.0;0.0;0.0
1.0;1753876246.131068;16.803994;1.05;-1.77;0.05;1.004905;0.036874;0.007202;0.0;0.0;0.0;0.0;0.0;0.0
1.0;1753876246.135656;16.816926;1.09;-1.81;-0.02;1.005602;0.036903;0.006349;0.0;0.0;0.0;0.0;0.0;0.0
1.0;1753876246.140245;16.819647;1.04;-1.7;0.06;1.005941;0.036828;0.007635;0.0;0.0;0.0;0.0;0.0;0.0
1.0;1753876246.144834;16.816663;1.12;-1.73;0.01;1.005812;0.036465;0.006105;0.0;0.0;0.0;0.0;0.0;0.0
1.0;1753876246.149423;16.836072;1.14;-1.63;0.14;1.005246;0.036882;0.007127;0.0;0.0;0.0;0.0;0.0;0.0
1.0;1753876246.154012;16.806694;1.13;-1.78;0.01;1.004839;0.037363;0.006903;0.0;0.0;0.0;0.0;0.0;0.0
1.0;1753876246.1586;16.814542;1.09;-1.84;0.05;1.00527;0.036825;0.006922;0.0;0.0;0.0;0.0;0.0;0.0
1.0;1753876246.16319;16.818443;1.07;-1.67;0.08;1.004899;0.036628;0.006464;0.0;0.0;0.0;0.0;0.0;0.0
1.0;1753876246.167778;16.818787;1.13;-1.72;0.03;1.005911;0.037019;0.006537;0.0;0.0;0.0;0.0;0.0;0.0
1.0;1753876246.172367;16.793211;1.07;-1.63;0.01;1.005456;0.037614;0.006934;0.0;0.0;0.0;0.0;0.0;0.0
1.0;1753876246.176956;16.809797;1.09;-1.75;0.04;1.004106;0.036591;0.00736;0.0;0.0;0.0;0.0;0.0;0.0
1.0;1753876246.181545;16.770773;1.12;-1.7;0.03;1.006071;0.036792;0.006424;0.0;0.0;0.0;0.0;0.0;0.0
1.0;1753876246.186134;16.774298;1.03;-1.64;-0.0;1.004248;0.036877;0.006558;0.0;0.0;0.0;0.0;0.0;0.0
1.0;1753876246.190722;16.812334;1.01;-1.73;0.02;1.005604;0.0364;0.007291;0.0;0.0;0.0;0.0;0.0;0.0
1.0;1753876246.195311;16.78454;1.05;-1.9;0.06;1.005425;0.036777;0.006419;0.0;0.0;0.0;0.0;0.0;0.0
1.0;1753876246.1999;16.778745;1.06;-1.76;-0.02;1.005446;0.03732;0.006526;0.0;0.0;0.0;0.0;0.0;0.0
1.0;1753876246.204489;16.811409;1.2;-1.72;0.07;1.004552;0.036472;0.007457;0.0;0.0;0.0;0.0;0.0;0.0
1.0;1753876246.209078;16.813567;1.07;-1.73;-0.04;1.004532;0.037042;0.007665;0.0;0.0;0.0;0.0;0.0;0.0
1.0;1753876246.213667;16.770153;1.08;-1.76;0.07;1.005051;0.03621;0.006297;0.0;0.0;0.0;0.0;0.0;0.0
1.0;1753876246.218256;16.804275;1.12;-1.69;-0.03;1.005889;0.036504;0.006596;0.0;0.0;0.0;0.0;0.0;0.0
1.0;1753876246.222844;16.803166;0.97;-1.82;0.0;1.003765;0.037396;0.005876;0.0;0.0;0.0;0.0;0.0;0.0
1.0;1753876246.227433;16.793103;1.07;-1.84;0.03;1.005668;0.037385;0.007374;0.0;0.0;0.0;0.0;0.0;0.0
1.0;1753876246.232022;16.850449;1.11;-1.68;0.11;1.004919;0.036546;0.006807;0.0;0.0;0.0;0.0;0.0;0.0
1.0;1753876246.236611;16.824623;1.03;-1.71;-0.05;1.005433;0.036006;0.006952;0.0;0.0;0.0;0.0;0.0;0.0
1.0;1753876246.2412;16.801471;1.05;-1.76;0.06;1.004703;0.036966;0.008433;0.0;0.0;0.0;0.0;0.0;0.0
1.0;1753876246.245788;16.819489;1.13;-1.7;-0.05;1.004109;0.036911;0.007205;0.0;0.0;0.0;0.0;0.0;0.0
1.0;1753876246.250378;16.797499;1.08;-1.8;-0.02;1.004063;0.036853;0.007595;0.0;0.0;0.0;0.0;0.0;0.0
1.0;1753876246.254966;16.780333;1.15;-1.73;0.0;1.004817;0.036773;0.006877;0.0;0.0;0.0;0.0;0.0;0.0
1.0;1753876246.259555;16.829693;1.09;-1.66;-0.0;1.005003;0.035897;0.006683;0.0;0.0;0.0;0.0;0.0;0.0
1.0;1753876246.264144;16.786307;1.19;-1.84;0.04;1.004887;0.036527;0.007351;0.0;0.0;0.0;0.0;0.0;0.0
1.0;1753876246.268733;16.837942;1.12;-1.7;0.02;1.005281;0.036642;0.006235;0.0;0.0;0.0;0.0;0.0;0.0
1.0;1753876246.273322;16.795412;1.13;-1.7;0.04;1.005553;0.036019;0.007333;0.0;0.0;0.0;0.0;0.0;0.0
1.0;1753876246.27791;16.788543;1.01;-1.89;-0.0;1.005557;0.036465;0.006818;0.0;0.0;0.0;0.0;0.0;0.0
1.0;1753876246.282499;16.805004;1.06;-1.79;0.08;1.005261;0.036557;0.007128;0.0;0.0;0.0;0.0;0.0;0.0
1.0;1753876246.287088;16.833941;1.12;-1.85;0.01;1.003765;0.036273;0.007782;0.0;0.0;0.0;0.0;0.0;0.0
1.0;1753876246.2938;16.796875;1.12;-1.75;0.0;1.00467;0.036356;0.00671;0.0;0.0;0.0;0.0;0.0;0.0
1.0;1753876246.298389;16.785814;1.03;-1.85;-0.07;1.004715;0.035794;0.006568;0.0;0.0;0.0;0.0;0.0;0.0
1.0;1753876246.302978;16.816311;1.13;-1.79;0.05;1.003898;0.036309;0.00649;0.0;0.0;0.0;0.0;0.0;0.0
1.0;1753876246.307567;16.807789;1.16;-1.83;-0.09;1.005199;0.036868;0.007024;0.0;0.0;0.0;0.0;0.0;0.0
1.0;1753876246.312156;16.81282;1.21;-1.67;-0.05;1.005876;0.037041;0.006328;0.0;0.0;0.0;0.0;0.0;0.0
1.0;1753876246.316744;16.781886;1.14;-1.8;-0.01;1.005313;0.036261;0.006374;0.0;0.0;0.0;0.0;0.0;0.0
1.0;1753876246.321333;16.791848;1.22;-1.84;-0.02;1.004606;0.036003;0.006761;0.0;0.0;0.0;0.0;0.0;0.0
1.0;1753876246.325922;16.811746;1.14;-1.76;-0.01;1.00567;0.036234;0.008014;0.0;0.0;0.0;0.0;0.0;0.0
1.0;1753876246.330511;16.794941;1.15;-1.72;0.02;1.005779;0.036267;0.006359;0.0;0.0;0.0;0.0;0.0;0.0
1.0;1753876246.3351;16.820815;1.09;-1.75;-0.02;1.004024;0.03669;0.005502;0.0;0.0;0.0;0.0;0.0;0.0
1.0;1753876246.339688;16.785902;1.1;-1.77;0.03;1.004742;0.035787;0.007274;0.0;0.0;0.0;0.0;0.0;0.0
1.0;1753876246.344278;16.808938;1.15;-1.87;-0.02;1.004906;0.036239;0.006737;0.0;0.0;0.0;0.0;0.0;0.0
1.0;1753876246.348866;16.78567;1.11;-1.72;-0.01;1.005516;0.035316;0.00703;0.0;0.0;0.0;0.0;0.0;0.0
1.0;1753876246.353455;16.791607;1.12;-1.69;0.01;1.005614;0.036735;0.005785;0.0;0.0;0.0;0.0;0.0;0.0
1.0;1753876246.358044;16.753444;1.21;-1.76;0.08;1.005764;0.036119;0.006861;0.0;0.0;0.0;0.0;0.0;0.0
1.0;1753876246.362633;16.832076;1.17;-1.7;-0.0;1.004504;0.035778;0.007169;0.0;0.0;0.0;0.0;0.0;0.0
1.0;1753876246.367222;16.816596;1.14;-1.79;-0.02;1.004284;0.036822;0.007691;0.0;0.0;0.0;0.0;0.0;0.0
1.0;1753876246.37181;16.772169;1.18;-1.73;-0.03;1.003869;0.036384;0.006092;0.0;0.0;0.0;0.0;0.0;0.0
1.0;1753876246.376399;16.77923;1.13;-1.77;0.01;1.004765;0.036286;0.007855;0.0;0.0;0.0;0.0;0.0;0.0
1.0;1753876246.380988;16.803177;1.25;-1.68;0.06;1.004981;0.036359;0.006996;0.0;0.0;0.0;0.0;0.0;0.0
1.0;1753876246.385577;16.790547;0.99;-1.73;-0.01;1.005122;0.036199;0.007481;0.0;0.0;0.0;0.0;0.0;0.0
1.0;1753876246.390166;16.816801;1.07;-1.7;0.05;1.005419;0.036593;0.005752;0.0;0.0;0.0;0.0;0.0;0.0
1.0;1753876246.394755;16.81431;1.18;-1.64;0.03;1.003443;0.036277;0.007694;0.0;0.0;0.0;0.0;0.0;0.0
1.0;1753876246.399344;16.813796;1.21;-1.67;0.02;1.004525;0.036665;0.006256;0.0;0.0;0.0;0.0;0.0;0.0
1.0;1753876246.403932;16.76879;1.14;-1.69;0.01;1.005316;0.036695;0.006711;0.0;0.0;0.0;0.0;0.0;0.0
1.0;1753876246.408521;16.793205;1.11;-1.75;-0.03;1.00567;0.036207;0.007407;0.0;0.0;0.0;0.0;0.0;0.0
1.0;1753876246.41311;16.776265;1.23;-1.7;-0.03;1.003998;0.036088;0.005896;0.0;0.0;0.0;0.0;0.0;0.0
1.0;1753876246.417699;16.800346;1.15;-1.7;-0.05;1.006055;0.035832;0.007211;0.0;0.0;0.0;0.0;0.0;0.0
1.0;1753876246.422288;16.79747;1.19;-1.68;0.01;1.00536;0.035675;0.006921;0.0;0.0;0.0;0.0;0.0;0.0
1.0;1753876246.426876;16.81399;1.2;-1.81;0.0;1.005063;0.036642;0.006957;0.0;0.0;0.0;0.0;0.0;0.0
1.0;1753876246.431466;16.816343;1.1;-1.65;0.01;1.003132;0.03629;0.007562;0.0;0.0;0.0;0.0;0.0;0.0
1.0;1753876246.436054;16.823563;1.06;-1.87;0.08;1.005769;0.035921;0.006996;0.0;0.0;0.0;0.0;0.0;0.0
1.0;1753876246.440643;16.794937;0.98;-1.63;0.07;1.003106;0.035949;0.006866;0.0;0.0;0.0;0.0;0.0;0.0
1.0;1753876246.445232;16.783528;1.31;-1.69;0.07;1.00418;0.036317;0.007003;0.0;0.0;0.0;0.0;0.0;0.0
1.0;1753876246.449821;16.793542;1.17;-1.66;0.04;1.005271;0.036878;0.007929;0.0;0.0;0.0;0.0;0.0;0.0
1.0;1753876246.45441;16.808234;1.2;-1.63;0.05;1.005657;0.035954;0.006953;0.0;0.0;0.0;0.0;0.0;0.0
1.0;1753876246.458998;16.81488;1.09;-1.65;0.07;1.00535;0.036343;0.007477;0.0;0.0;0.0;0.0;0.0;0.0
1.0;1753876246.463587;16.803968;1.15;-1.7;0.02;1.005446;0.036173;0.006416;0.0;0.0;0.0;0.0;0.0;0.0
1.0;1753876246.468176;16.780963;1.19;-1.93;-0.02;1.004246;0.036544;0.00764;0.0;0.0;0.0;0.0;0.0;0.0
1.0;1753876246.472765;16.804119;1.19;-1.63;0.02;1.00515;0.036304;0.005757;0.0;0.0;0.0;0.0;0.0;0.0
1.0;1753876246.477354;16.771639;1.16;-1.66;0.04;1.004623;0.036258;0.007472;0.0;0.0;0.0;0.0;0.0;0.0
1.0;1753876246.481943;16.80792;1.15;-1.78;0.01;1.003728;0.036095;0.006971;0.0;0.0;0.0;0.0;0.0;0.0
1.0;1753876246.486532;16.759851;1.15;-1.73;0.09;1.004982;0.035964;0.006714;0.0;0.0;0.0;0.0;0.0;0.0
1.0;1753876246.49112;16.782714;1.14;-1.84;0.05;1.004572;0.037034;0.007284;0.0;0.0;0.0;0.0;0.0;0.0
1.0;1753876246.495709;16.764038;1.14;-1.74;0.06;1.005495;0.036661;0.007622;0.0;0.0;0.0;0.0;0.0;0.0
1.0;1753876246.500298;16.81173;1.11;-1.66;0.06;1.005216;0.036397;0.007243;0.0;0.0;0.0;0.0;0.0;0.0
1.0;1753876246.504887;16.774099;1.11;-1.71;0.04;1.003877;0.035203;0.006906;0.0;0.0;0.0;0.0;0.0;0.0
1.0;1753876246.509476;16.812228;1.14;-1.67;0.03;1.005108;0.036315;0.00604;0.0;0.0;0.0;0.0;0.0;0.0
1.0;1753876246.514064;16.755539;1.15;-1.78;0.02;1.005288;0.037143;0.007023;0.0;0.0;0.0;0.0;0.0;0.0
1.0;1753876246.518654;16.776524;1.16;-1.74;0.07;1.005321;0.036163;0.006792;0.0;0.0;0.0;0.0;0.0;0.0
1.0;1753876246.523242;16.797862;1.21;-1.76;0.01;1.004619;0.036206;0.007098;0.0;0.0;0.0;0.0;0.0;0.0
1.0;1753876246.527831;16.79192;1.17;-1.69;0.02;1.00566;0.035981;0.006788;0.0;0.0;0.0;0.0;0.0;0.0
1.0;1753876246.53242;16.807267;1.25;-1.73;-0.02;1.006187;0.035038;0.007713;0.0;0.0;0.0;0.0;0.0;0.0
1.0;1753876246.537009;16.771356;1.17;-1.68;0.02;1.00537;0.035041;0.006798;0.0;0.0;0.0;0.0;0.0;0.0
1.0;1753876246.541598;16.781523;1.32;-1.78;0.05;1.003388;0.036496;0.007308;0.0;0.0;0.0;0.0;0.0;0.0
1.0;1753876246.546186;16.833567;1.21;-1.66;0.02;1.004949;0.03645;0.007363;0.0;0.0;0.0;0.0;0.0;0.0
1.0;1753876246.550775;16.832494;1.17;-1.79;0.06;1.006314;0.036668;0.006595;0.0;0.0;0.0;0.0;0.0;0.0
1.0;1753876246.555364;16.817973;1.19;-1.69;0.07;1.00445;0.036402;0.007189;0.0;0.0;0.0;0.0;0.0;0.0
1.0;1753876246.559953;16.795097;1.05;-1.66;0.03;1.004844;0.037017;0.006764;0.0;0.0;0.0;0.0;0.0;0.0
1.0;1753876246.564542;16.785686;1.17;-1.71;0.04;1.005193;0.035526;0.006762;0.0;0.0;0.0;0.0;0.0;0.0
1.0;1753876246.569131;16.787977;1.14;-1.75;-0.01;1.002135;0.035538;0.007344;0.0;0.0;0.0;0.0;0.0;0.0
1.0;1753876246.57372;16.768561;1.18;-1.64;0.01;1.003948;0.036089;0.007723;0.0;0.0;0.0;0.0;0.0;0.0
1.0;1753876246.578308;16.837968;1.11;-1.71;0.1;1.004304;0.036082;0.006802;0.0;0.0;0.0;0.0;0.0;0.0
1.0;1753876246.582897;16.812796;1.18;-1.67;0.09;1.004696;0.03696;0.006953;0.0;0.0;0.0;0.0;0.0;0.0
1.0;1753876246.587486;16.788278;1.15;-1.7;0.08;1.004974;0.036292;0.00667;0.0;0.0;0.0;0.0;0.0;0.0
1.0;1753876246.592075;16.809168;1.1;-1.71;0.08;1.004681;0.036095;0.007134;0.0;0.0;0.0;0.0;0.0;0.0
1.0;1753876246.596664;16.831822;1.19;-1.78;0.05;1.006091;0.036592;0.006309;0.0;0.0;0.0;0.0;0.0;0.0
1.0;1753876246.601252;16.773895;1.13;-1.61;0.09;1.003336;0.036566;0.006966;0.0;0.0;0.0;0.0;0.0;0.0
1.0;1753876246.605842;16.799653;1.2;-1.65;0.07;1.004147;0.036004;0.007404;0.0;0.0;0.0;0.0;0.0;0.0
1.0;1753876246.61043;16.797756;1.2;-1.72;0.03;1.005096;0.036425;0.005936;0.0;0.0;0.0;0.0;0.0;0.0
1.0;1753876246.615019;16.770734;1.24;-1.68;0.1;1.004019;0.036553;0.006885;0.0;0.0;0.0;0.0;0.0;0.0
1.0;1753876246.619608;16.800005;1.11;-1.77;0.01;1.005763;0.035928;0.007133;0.0;0.0;0.0;0.0;0.0;0.0
1.0;1753876246.624197;16.775658;1.14;-1.67;0.07;1.006193;0.0364;0.006977;0.0;0.0;0.0;0.0;0.0;0.0
1.0;1753876246.628786;16.764985;1.13;-1.74;0.03;1.005336;0.035725;0.007267;0.0;0.0;0.0;0.0;0.0;0.0
1.0;1753876246.633374;16.834758;1.23;-1.69;0.07;1.004142;0.03669;0.006257;0.0;0.0;0.0;0.0;0.0;0.0
1.0;1753876246.637963;16.755288;1.16;-1.66;0.05;1.004469;0.036247;0.007972;0.0;0.0;0.0;0.0;0.0;0.0
1.0;1753876246.642552;16.792913;1.2;-1.71;0.09;1.005346;0.037008;0.008028;0.0;0.0;0.0;0.0;0.0;0.0
1.0;1753876246.647141;16.815187;1.16;-1.64;0.08;1.004375;0.036332;0.006979;0.0;0.0;0.0;0.0;0.0;0.0
1.0;1753876246.65173;16.799053;1.15;-1.89;0.0;1.006075;0.035829;0.006741;0.0;0.0;0.0;0.0;0.0;0.0
1.0;1753876246.656319;16.806312;1.2;-1.72;0.07;1.004916;0.036426;0.006968;0.0;0.0;0.0;0.0;0.0;0.0
1.0;1753876246.660908;16.796285;1.17;-1.69;0.06;1.004581;0.036213;0.006747;0.0;0.0;0.0;0.0;0.0;0.0
1.0;1753876246.665496;16.813048;1.17;-1.61;0.04;1.005554;0.037098;0.007282;0.0;0.0;0.0;0.0;0.0;0.0
1.0;1753876246.670085;16.77563;1.22;-1.59;0.13;1.003436;0.036443;0.006206;0.0;0.0;0.0;0.0;0.0;0.0
1.0;1753876246.674674;16.833328;1.07;-1.78;0.07;1.006985;0.035768;0.006737;0.0;0.0;0.0;0.0;0.0;0.0
1.0;1753876246.679263;16.797481;1.12;-1.75;0.12;1.005407;0.036724;0.008444;0.0;0.0;0.0;0.0;0.0;0.0
1.0;1753876246.683852;16.771643;1.29;-1.74;0.06;1.00415;0.034948;0.007474;0.0;0.0;0.0;0.0;0.0;0.0
1.0;1753876246.68844;16.754657;1.09;-1.71;0.05;1.0052;0.036952;0.006699;0.0;0.0;0.0;0.0;0.0;0.0
1.0;1753876246.69303;16.788016;1.09;-1.61;0.12;1.005258;0.03613;0.007513;0.0;0.0;0.0;0.0;0.0;0.0
1.0;1753876246.697618;16.81195;1.2;-1.72;0.05;1.004774;0.036446;0.007501;0.0;0.0;0.0;0.0;0.0;0.0
1.0;1753876246.702207;16.814164;1.2;-1.7;0.03;1.005624;0.036239;0.006912;0.0;0.0;0.0;0.0;0.0;0.0
1.0;1753876246.706796;16.765174;1.27;-1.72;0.07;1.005798;0.035691;0.007103;0.0;0.0;0.0;0.0;0.0;0.0
1.0;1753876246.711385;16.760969;1.25;-1.67;0.05;1.00465;0.037392;0.008516;0.0;0.0;0.0;0.0;0.0;0.0
1.0;1753876246.715974;16.824208;1.08;-1.72;0.04;1.005104;0.035974;0.008083;0.0;0.0;0.0;0.0;0.0;0.0
1.0;1753876246.720562;16.806993;1.3;-1.7;0.08;1.004117;0.036507;0.007546;0.0;0.0;0.0;0.0;0.0;0.0
1.0;1753876246.7263;16.796875;1.19;-1.68;0.07;1.005402;0.036234;0.007198;0.0;0.0;0.0;0.0;0.0;0.0
1.0;1753876246.730889;16.835953;1.28;-1.71;0.03;1.004282;0.0364;0.007889;0.0;0.0;0.0;0.0;0.0;0.0
1.0;1753876246.735478;16.813261;1.14;-1.68;0.01;1.005185;0.036073;0.006209;0.0;0.0;0.0;0.0;0.0;0.0
1.0;1753876246.740066;16.832108;1.12;-1.81;0.12;1.005086;0.036812;0.007342;0.0;0.0;0.0;0.0;0.0;0.0
1.0;1753876246.744655;16.82409;1.14;-1.82;0.07;1.005044;0.036826;0.006971;0.0;0.0;0.0;0.0;0.0;0.0
1.0;1753876246.749244;16.802351;1.2;-1.74;0.06;1.006989;0.03619;0.00724;0.0;0.0;0.0;0.0;0.0;0.0
1.0;1753876246.753833;16.843052;1.04;-1.75;0.08;1.007005;0.037335;0.006122;0.0;0.0;0.0;0.0;0.0;0.0
1.0;1753876246.75797;16.847656;1.12;-1.75;0.07;1.006012;0.037454;0.007442;0.0;0.0;0.0;0.0;0.0;0.0
1.0;1753876246.762559;16.849527;1.04;-1.7;0.05;1.005872;0.037124;0.007002;0.0;0.0;0.0;0.0;0.0;0.0
1.0;1753876246.767148;16.899745;0.96;-1.77;0.07;1.006447;0.037648;0.00798;0.0;0.0;0.0;0.0;0.0;0.0
1.0;1753876246.771736;16.855515;1.19;-1.76;0.07;1.006579;0.036229;0.008534;0.0;0.0;0.0;0.0;0.0;0.0
1.0;1753876246.776326;16.864265;1.19;-1.72;0.11;1.006164;0.038055;0.007006;0.0;0.0;0.0;0.0;0.0;0.0
1.0;1753876246.780914;16.854506;1.08;-1.69;0.08;1.006933;0.037016;0.006908;0.0;0.0;0.0;0.0;0.0;0.0
1.0;1753876246.785503;16.828624;1.07;-1.71;0.1;1.004909;0.036666;0.008153;0.0;0.0;0.0;0.0;0.0;0.0
1.0;1753876246.790092;16.907736;1.12;-1.72;-0.01;1.006468;0.036058;0.007645;0.0;0.0;0.0;0.0;0.0;0.0
1.0;1753876246.794681;16.812453;1.05;-1.75;0.02;1.006561;0.037774;0.007254;0.0;0.0;0.0;0.0;0.0;0.0
1.0;1753876246.79927;16.826985;1.2;-1.75;0.08;1.005827;0.03799;0.007262;0.0;0.0;0.0;0.0;0.0;0.0
1.0;1753876246.803858;16.882381;0.95;-1.71;0.15;1.007538;0.037297;0.005933;0.0;0.0;0.0;0.0;0.0;0.0
1.0;1753876246.808447;16.877272;1.11;-1.71;0.0;1.007795;0.036915;0.006835;0.0;0.0;0.0;0.0;0.0;0.0
1.0;1753876246.813036;16.848869;1.15;-1.72;0.04;1.006133;0.037615;0.006847;0.0;0.0;0.0;0.0;0.0;0.0
1.0;1753876246.817625;16.838889;1.12;-1.73;0.03;1.007565;0.037982;0.006793;0.0;0.0;0.0;0.0;0.0;0.0
1.0;1753876246.822214;16.827431;1.17;-1.69;0.02;1.005194;0.037848;0.007383;0.0;0.0;0.0;0.0;0.0;0.0
1.0;1753876246.826803;16.857167;1.08;-1.72;0.02;1.006277;0.036127;0.007668;0.0;0.0;0.0;0.0;0.0;0.0
1.0;1753876246.831392;16.837387;1.03;-1.7;0.05;1.006956;0.037134;0.006961;0.0;0.0;0.0;0.0;0.0;0.0
1.0;1753876246.83598;16.867103;1.14;-1.76;0.02;1.006543;0.037864;0.007914;0.0;0.0;0.0;0.0;0.0;0.0
1.0;1753876246.840569;16.864847;1.0;-1.74;0.03;1.006825;0.036925;0.0072;0.0;0.0;0.0;0.0;0.0;0.0
1.0;1753876246.84505;16.847656;1.05;-1.68;0.0;1.006744;0.037454;0.007442;0.0;0.0;0.0;0.0;0.0;0.0
1.0;1753876246.84932;16.847656;1.12;-1.68;0.07;1.006256;0.036722;0.006466;0.0;0.0;0.0;0.0;0.0;0.0
1.0;1753876246.853909;16.831447;1.15;-1.62;0.06;1.005816;0.035616;0.00597;0.0;0.0;0.0;0.0;0.0;0.0
1.0;1753876246.858498;16.85598;1.16;-1.73;0.13;1.005126;0.036823;0.007499;0.0;0.0;0.0;0.0;0.0;0.0
1.0;1753876246.863086;16.811071;1.2;-1.74;0.06;1.005304;0.037042;0.004618;0.0;0.0;0.0;0.0;0.0;0.0
1.0;1753876246.867675;16.848575;1.11;-1.73;0.07;1.005385;0.037086;0.0076;0.0;0.0;0.0;0.0;0.0;0.0
1.0;1753876246.872264;16.815275;1.09;-1.67;0.06;1.00562;0.037123;0.006657;0.0;0.0;0.0;0.0;0.0;0.0
1.0;1753876246.876853;16.862512;1.15;-1.71;0.13;1.005821;0.038685;0.006783;0.0;0.0;0.0;0.0;0.0;0.0
1.0;1753876246.881442;16.860993;1.12;-1.62;0.04;1.006189;0.035914;0.007527;0.0;0.0;0.0;0.0;0.0;0.0
1.0;1753876246.886031;16.819602;1.06;-1.72;0.16;1.006056;0.037442;0.00711;0.0;0.0;0.0;0.0;0.0;0.0
1.0;1753876246.89062;16.861484;1.04;-1.68;0.07;1.005603;0.037375;0.007736;0.0;0.0;0.0;0.0;0.0;0.0
1.0;1753876246.895208;16.860312;1.03;-1.68;0.1;1.00713;0.037388;0.006681;0.0;0.0;0.0;0.0;0.0;0.0
1.0;1753876246.899797;16.852558;1.08;-1.74;0.19;1.005683;0.03781;0.007311;0.0;0.0;0.0;0.0;0.0;0.0
1.0;1753876246.904386;16.800426;1.01;-1.65;0.12;1.005661;0.037458;0.006695;0.0;0.0;0.0;0.0;0.0;0.0
1.0;1753876246.908975;16.861122;1.16;-1.65;0.11;1.006381;0.035871;0.008993;0.0;0.0;0.0;0.0;0.0;0.0
1.0;1753876246.913564;16.8199;1.03;-1.72;-0.03;1.006234;0.037469;0.006471;0.0;0.0;0.0;0.0;0.0;0.0
1.0;1753876246.918152;16.837285;0.92;-1.63;0.2;1.006927;0.038302;0.007791;0.0;0.0;0.0;0.0;0.0;0.0
1.0;1753876246.922742;16.859594;1.0;-1.62;0.07;1.004527;0.03661;0.006727;0.0;0.0;0.0;0.0;0.0;0.0
1.0;1753876246.92733;16.823827;1.03;-1.67;0.1;1.006242;0.037576;0.006883;0.0;0.0;0.0;0.0;0.0;0.0
1.0;1753876246.931919;16.866012;1.09;-1.57;0.07;1.006087;0.037287;0.006421;0.0;0.0;0.0;0.0;0.0;0.0
1.0;1753876246.936508;16.85135;1.02;-1.76;0.15;1.00635;0.03786;0.00734;0.0;0.0;0.0;0.0;0.0;0.0
1.0;1753876246.941097;16.835024;1.14;-1.67;0.1;1.006476;0.037392;0.006581;0.0;0.0;0.0;0.0;0.0;0.0
1.0;1753876246.94881;16.847656;1.05;-1.68;0.14;1.006012;0.037698;0.006954;0.0;0.0;0.0;0.0;0.0;0.0
1.0;1753876246.953399;16.833024;1.11;-1.66;0.1;1.006243;0.037865;0.005979;0.0;0.0;0.0;0.0;0.0;0.0
1.0;1753876246.957988;16.829765;0.98;-1.74;0.1;1.005705;0.0361;0.006429;0.0;0.0;0.0;0.0;0.0;0.0
1.0;1753876246.962577;16.886627;0.96;-1.64;0.15;1.005936;0.037994;0.006572;0.0;0.0;0.0;0.0;0.0;0.0
1.0;1753876246.967166;16.836688;1.23;-1.65;0.02;1.006191;0.039254;0.007354;0.0;0.0;0.0;0.0;0.0;0.0
1.0;1753876246.971754;16.852952;1.0;-1.55;0.14;1.005965;0.03773;0.006463;0.0;0.0;0.0;0.0;0.0;0.0
1.0;1753876246.976343;16.838744;1.07;-1.59;0.16;1.005987;0.036667;0.006988;0.0;0.0;0.0;0.0;0.0;0.0
1.0;1753876246.980932;16.858404;0.99;-1.6;0.11;1.005868;0.0388;0.007138;0.0;0.0;0.0;0.0;0.0;0.0
1.0;1753876246.985521;16.833729;1.09;-1.5;0.15;1.00647;0.037356;0.006692;0.0;0.0;0.0;0.0;0.0;0.0
1.0;1753876246.99164;16.847656;1.05;-1.54;0.07;1.006378;0.03782;0.007076;0.0;0.0;0.0;0.0;0.0;0.0
1.0;1753876246.994955;16.847656;1.12;-1.61;0.07;1.006988;0.0366;0.006222;0.0;0.0;0.0;0.0;0.0;0.0
1.0;1753876246.999538;16.847656;0.91;-1.68;0.14;1.006744;0.037942;0.006466;0.0;0.0;0.0;0.0;0.0;0.0
1.0;1753876247.004127;16.841462;0.89;-1.66;0.07;1.006789;0.036437;0.007433;0.0;0.0;0.0;0.0;0.0;0.0
1.0;1753876247.008716;16.847251;0.86;-1.69;0.11;1.007568;0.037895;0.006165;0.0;0.0;0.0;0.0;0.0;0.0
1.0;1753876247.013304;16.849424;0.95;-1.64;0.22;1.007093;0.037114;0.006897;0.0;0.0;0.0;0.0;0.0;0.0
1.0;1753876247.017893;16.848221;0.86;-1.61;0.15;1.006818;0.038512;0.005787;0.0;0.0;0.0;0.0;0.0;0.0
1.0;1753876247.022482;16.840374;0.95;-1.77;0.17;1.007187;0.037302;0.006982;0.0;0.0;0.0;0.0;0.0;0.0
1.0;1753876247.027071;16.833199;1.11;-1.61;0.18;1.006866;0.038267;0.006918;0.0;0.0;0.0;0.0;0.0;0.0
1.0;1753876247.03166;16.839963;0.92;-1.72;0.05;1.006371;0.038318;0.005548;0.0;0.0;0.0;0.0;0.0;0.0
1.0;1753876247.036249;16.83941;0.92;-1.66;0.14;1.006769;0.037793;0.007215;0.0;0.0;0.0;0.0;0.0;0.0
1.0;1753876247.040838;16.844161;0.92;-1.7;0.11;1.006302;0.037573;0.005932;0.0;0.0;0.0;0.0;0.0;0.0
1.0;1753876247.045426;16.835881;1.07;-1.7;0.15;1.006706;0.037003;0.007002;0.0;0.0;0.0;0.0;0.0;0.0
1.0;1753876247.050015;16.831639;0.99;-1.76;0.06;1.005646;0.038123;0.005975;0.0;0.0;0.0;0.0;0.0;0.0
1.0;1753876247.054604;16.843637;0.93;-1.61;0.01;1.005701;0.037363;0.007748;0.0;0.0;0.0;0.0;0.0;0.0
1.0;1753876247.059193;16.837899;0.96;-1.66;0.14;1.007166;0.03743;0.007379;0.0;0.0;0.0;0.0;0.0;0.0
1.0;1753876247.063782;16.838961;0.86;-1.52;0.13;1.006175;0.03785;0.005216;0.0;0.0;0.0;0.0;0.0;0.0
1.0;1753876247.06837;16.849447;1.09;-1.51;0.12;1.006437;0.037606;0.005968;0.0;0.0;0.0;0.0;0.0;0.0
1.0;1753876247.07296;16.833915;0.88;-1.73;0.09;1.006565;0.036444;0.005301;0.0;0.0;0.0;0.0;0.0;0.0
1.0;1753876247.077548;16.828455;0.92;-1.68;0.13;1.006623;0.037171;0.006427;0.0;0.0;0.0;0.0;0.0;0.0
1.0;1753876247.082137;16.836494;0.89;-1.67;0.16;1.006132;0.03677;0.005589;0.0;0.0;0.0;0.0;0.0;0.0
1.0;1753876247.086726;16.842535;0.98;-1.68;0.14;1.006476;0.0374;0.006866;0.0;0.0;0.0;0.0;0.0;0.0
1.0;1753876247.091315;16.833715;0.9;-1.51;0.11;1.006054;0.037599;0.006537;0.0;0.0;0.0;0.0;0.0;0.0
1.0;1753876247.095904;16.835034;0.94;-1.57;0.11;1.006431;0.03788;0.006938;0.0;0.0;0.0;0.0;0.0;0.0
1.0;1753876247.100492;16.841787;0.77;-1.67;0.14;1.005897;0.038764;0.005107;0.0;0.0;0.0;0.0;0.0;0.0
1.0;1753876247.105081;16.853422;1.02;-1.63;0.14;1.006231;0.036363;0.006916;0.0;0.0;0.0;0.0;0.0;0.0
1.0;1753876247.10967;16.863846;0.83;-1.67;0.16;1.006323;0.036428;0.006905;0.0;0.0;0.0;0.0;0.0;0.0
1.0;1753876247.114259;16.83747;0.98;-1.77;0.08;1.007288;0.03539;0.007453;0.0;0.0;0.0;0.0;0.0;0.0
1.0;1753876247.118848;16.840934;0.84;-1.81;0.14;1.00538;0.039023;0.005982;0.0;0.0;0.0;0.0;0.0;0.0
1.0;1753876247.123437;16.847667;0.93;-1.68;0.08;1.006068;0.03736;0.00518;0.0;0.0;0.0;0.0;0.0;0.0
1.0;1753876247.128026;16.849223;0.97;-1.67;0.1;1.00745;0.037317;0.007033;0.0;0.0;0.0;0.0;0.0;0.0
1.0;1753876247.132614;16.84518;0.88;-1.71;0.16;1.006041;0.037776;0.006475;0.0;0.0;0.0;0.0;0.0;0.0
1.0;1753876247.137203;16.851519;0.92;-1.71;0.09;1.006175;0.03804;0.007008;0.0;0.0;0.0;0.0;0.0;0.0
1.0;1753876247.141792;16.841663;1.06;-1.76;0.04;1.006417;0.037588;0.007339;0.0;0.0;0.0;0.0;0.0;0.0
1.0;1753876247.146381;16.831888;0.91;-1.53;0.18;1.006069;0.037594;0.005946;0.0;0.0;0.0;0.0;0.0;0.0
1.0;1753876247.15097;16.856481;0.96;-1.65;0.12;1.005975;0.036846;0.007406;0.0;0.0;0.0;0.0;0.0;0.0
1.0;1753876247.155558;16.838551;1.1;-1.73;0.09;1.006566;0.038178;0.007477;0.0;0.0;0.0;0.0;0.0;0.0
1.0;1753876247.160148;16.826028;1.15;-1.67;0.15;1.006088;0.037677;0.0076;0.0;0.0;0.0;0.0;0.0;0.0
1.0;1753876247.164736;16.842514;0.9;-1.64;0.08;1.006915;0.037837;0.006555;0.0;0.0;0.0;0.0;0.0;0.0
1.0;1753876247.169325;16.851276;1.01;-1.58;0.04;1.006282;0.036715;0.006902;0.0;0.0;0.0;0.0;0.0;0.0
1.0;1753876247.173914;16.846205;1.02;-1.72;0.02;1.004581;0.038199;0.006351;0.0;0.0;0.0;0.0;0.0;0.0
1.0;1753876247.178503;16.845341;0.98;-1.71;0.03;1.006677;0.036667;0.00647;0.0;0.0;0.0;0.0;0.0;0.0
1.0;1753876247.183092;16.853165;0.97;-1.6;0.16;1.006761;0.038604;0.004921;0.0;0.0;0.0;0.0;0.0;0.0
1.0;1753876247.18768;16.847495;0.99;-1.6;0.08;1.006863;0.037023;0.00697;0.0;0.0;0.0;0.0;0.0;0.0
1.0;1753876247.192269;16.848688;0.98;-1.72;0.07;1.005414;0.038568;0.007036;0.0;0.0;0.0;0.0;0.0;0.0
1.0;1753876247.196858;16.857811;0.94;-1.61;0.07;1.006853;0.036775;0.00616;0.0;0.0;0.0;0.0;0.0;0.0
1.0;1753876247.201447;16.853294;1.04;-1.66;0.08;1.006644;0.037589;0.006199;0.0;0.0;0.0;0.0;0.0;0.0
1.0;1753876247.206036;16.849834;0.91;-1.64;0.08;1.006534;0.037715;0.006966;0.0;0.0;0.0;0.0;0.0;0.0
1.0;1753876247.210625;16.856831;1.05;-1.67;0.12;1.006494;0.037765;0.006917;0.0;0.0;0.0;0.0;0.0;0.0
1.0;1753876247.215214;16.842498;0.93;-1.6;0.07;1.006356;0.035863;0.007263;0.0;0.0;0.0;0.0;0.0;0.0
1.0;1753876247.219802;16.852759;0.92;-1.73;0.06;1.006353;0.037909;0.006615;0.0;0.0;0.0;0.0;0.0;0.0
1.0;1753876247.224391;16.862612;1.07;-1.69;0.03;1.006116;0.039015;0.007653;0.0;0.0;0.0;0.0;0.0;0.0
1.0;1753876247.22898;16.844472;0.94;-1.77;0.02;1.004812;0.038092;0.006354;0.0;0.0;0.0;0.0;0.0;0.0
1.0;1753876247.233569;16.820254;0.95;-1.72;0.12;1.006085;0.036082;0.006005;0.0;0.0;0.0;0.0;0.0;0.0
1.0;1753876247.238158;16.85957;0.95;-1.69;0.04;1.005759;0.0361;0.006591;0.0;0.0;0.0;0.0;0.0;0.0
1.0;1753876247.242746;16.854825;0.99;-1.57;0.04;1.005698;0.037503;0.007411;0.0;0.0;0.0;0.0;0.0;0.0
1.0;1753876247.247336;16.855157;1.01;-1.75;0.04;1.007031;0.03844;0.006687;0.0;0.0;0.0;0.0;0.0;0.0
1.0;1753876247.251924;16.854695;1.05;-1.66;-0.02;1.00616;0.037057;0.008452;0.0;0.0;0.0;0.0;0.0;0.0
1.0;1753876247.256513;16.842772;1.11;-1.7;0.01;1.005819;0.037521;0.00649;0.0;0.0;0.0;0.0;0.0;0.0
1.0;1753876247.261102;16.863042;0.98;-1.68;-0.02;1.006148;0.037868;0.006517;0.0;0.0;0.0;0.0;0.0;0.0
1.0;1753876247.265691;16.864583;0.97;-1.69;0.03;1.007175;0.037266;0.007957;0.0;0.0;0.0;0.0;0.0;0.0
1.0;1753876247.27028;16.852402;1.13;-1.76;-0.02;1.006593;0.037216;0.007448;0.0;0.0;0.0;0.0;0.0;0.0
1.0;1753876247.274868;16.865361;1.06;-1.68;0.07;1.006375;0.037196;0.008326;0.0;0.0;0.0;0.0;0.0;0.0
1.0;1753876247.279457;16.8421;1.07;-1.68;-0.01;1.005137;0.036834;0.007072;0.0;0.0;0.0;0.0;0.0;0.0
1.0;1753876247.284046;16.841879;0.97;-1.72;0.03;1.005868;0.037808;0.007397;0.0;0.0;0.0;0.0;0.0;0.0
1.0;1753876247.288635;16.850489;1.0;-1.54;0.01;1.005809;0.037191;0.00679;0.0;0.0;0.0;0.0;0.0;0.0
1.0;1753876247.293224;16.851519;0.96;-1.61;0.03;1.00466;0.036855;0.006352;0.0;0.0;0.0;0.0;0.0;0.0
1.0;1753876247.297813;16.845737;1.06;-1.72;0.0;1.005882;0.036028;0.007493;0.0;0.0;0.0;0.0;0.0;0.0
1.0;1753876247.302402;16.846203;0.98;-1.71;0.0;1.005798;0.036805;0.005366;0.0;0.0;0.0;0.0;0.0;0.0
1.0;1753876247.30699;16.829403;0.98;-1.78;0.04;1.005461;0.037674;0.008202;0.0;0.0;0.0;0.0;0.0;0.0
1.0;1753876247.311579;16.84559;0.98;-1.73;-0.01;1.005394;0.037347;0.006185;0.0;0.0;0.0;0.0;0.0;0.0
1.0;1753876247.316168;16.83933;1.02;-1.7;0.02;1.006783;0.036193;0.006977;0.0;0.0;0.0;0.0;0.0;0.0
1.0;1753876247.320757;16.839342;1.04;-1.61;0.02;1.005509;0.037104;0.006945;0.0;0.0;0.0;0.0;0.0;0.0
1.0;1753876247.325346;16.854977;0.85;-1.55;0.05;1.00572;0.037181;0.007435;0.0;0.0;0.0;0.0;0.0;0.0
1.0;1753876247.329934;16.855821;0.98;-1.74;0.09;1.005372;0.037121;0.007169;0.0;0.0;0.0;0.0;0.0;0.0
1.0;1753876247.334524;16.828776;1.1;-1.69;0.03;1.005729;0.038098;0.006932;0.0;0.0;0.0;0.0;0.0;0.0
1.0;1753876247.339112;16.844845;1.14;-1.71;0.07;1.00564;0.037532;0.006722;0.0;0.0;0.0;0.0;0.0;0.0
1.0;1753876247.343701;16.874696;1.03;-1.55;0.06;1.006096;0.037561;0.008499;0.0;0.0;0.0;0.0;0.0;0.0
1.0;1753876247.34829;16.856099;1.16;-1.71;0.06;1.006337;0.038246;0.006718;0.0;0.0;0.0;0.0;0.0;0.0
1.0;1753876247.352879;16.848332;1.14;-1.73;-0.04;1.005296;0.038247;0.007729;0.0;0.0;0.0;0.0;0.0;0.0
1.0;1753876247.357468;16.838925;1.12;-1.7;0.06;1.006231;0.037901;0.006767;0.0;0.0;0.0;0.0;0.0;0.0
1.0;1753876247.362056;16.833199;0.98;-1.64;-0.05;1.005275;0.03776;0.007102;0.0;0.0;0.0;0.0;0.0;0.0
1.0;1753876247.366645;16.853939;1.1;-1.73;0.05;1.005065;0.036279;0.00783;0.0;0.0;0.0;0.0;0.0;0.0
1.0;1753876247.371234;16.861044;1.01;-1.71;0.01;1.006498;0.037379;0.006471;0.0;0.0;0.0;0.0;0.0;0.0
1.0;1753876247.375823;16.841757;1.01;-1.49;0.04;1.005002;0.036704;0.007877;0.0;0.0;0.0;0.0;0.0;0.0
1.0;1753876247.380412;16.865379;1.04;-1.72;0.07;1.005005;0.038346;0.006155;0.0;0.0;0.0;0.0;0.0;0.0
1.0;1753876247.385001;16.8575;1.15;-1.71;-0.03;1.006515;0.036705;0.006101;0.0;0.0;0.0;0.0;0.0;0.0
1.0;1753876247.38959;16.86486;1.09;-1.79;0.01;1.005719;0.037545;0.007669;0.0;0.0;0.0;0.0;0.0;0.0
1.0;1753876247.394178;16.854722;0.95;-1.83;0.05;1.005097;0.037244;0.007858;0.0;0.0;0.0;0.0;0.0;0.0
1.0;1753876247.398767;16.830344;1.14;-1.67;-0.06;1.005052;0.036272;0.006902;0.0;0.0;0.0;0.0;0.0;0.0
1.0;1753876247.403356;16.844684;0.98;-1.81;0.03;1.005112;0.037438;0.007024;0.0;0.0;0.0;0.0;0.0;0.0
1.0;1753876247.41;16.847656;1.05;-1.68;0.0;1.005524;0.036966;0.006954;0.0;0.0;0.0;0.0;0.0;0.0
1.0;1753876247.414589;16.855294;1.1;-1.68;-0.04;1.00572;0.037298;0.006536;0.0;0.0;0.0;0.0;0.0;0.0
1.0;1753876247.419178;16.85574;1.1;-1.7;0.02;1.00572;0.037099;0.006734;0.0;0.0;0.0;0.0;0.0;0.0
1.0;1753876247.423766;16.852178;1.02;-1.8;0.1;1.00659;0.03695;0.006597;0.0;0.0;0.0;0.0;0.0;0.0
1.0;1753876247.428356;16.867623;1.02;-1.64;-0.02;1.006051;0.037038;0.006178;0.0;0.0;0.0;0.0;0.0;0.0
1.0;1753876247.432944;16.844154;1.1;-1.55;0.01;1.005288;0.036703;0.006862;0.0;0.0;0.0;0.0;0.0;0.0
1.0;1753876247.437533;16.856024;1.15;-1.69;-0.06;1.00527;0.037602;0.00731;0.0;0.0;0.0;0.0;0.0;0.0
1.0;1753876247.442122;16.86487;0.93;-1.8;-0.04;1.006114;0.037302;0.006922;0.0;0.0;0.0;0.0;0.0;0.0
1.0;1753876247.446711;16.849856;0.91;-1.7;-0.03;1.005904;0.035626;0.006759;0.0;0.0;0.0;0.0;0.0;0.0
1.0;1753876247.4513;16.842442;1.01;-1.6;-0.03;1.005252;0.037426;0.007252;0.0;0.0;0.0;0.0;0.0;0.0
1.0;1753876247.455888;16.846544;1.02;-1.64;0.1;1.005855;0.038411;0.005969;0.0;0.0;0.0;0.0;0.0;0.0
1.0;1753876247.460477;16.836944;1.08;-1.63;0.03;1.006136;0.037057;0.007034;0.0;0.0;0.0;0.0;0.0;0.0
1.0;1753876247.465066;16.839506;1.09;-1.64;0.03;1.005967;0.036771;0.006498;0.0;0.0;0.0;0.0;0.0;0.0
1.0;1753876247.469655;16.855863;1.0;-1.73;-0.05;1.005911;0.035703;0.006534;0.0;0.0;0.0;0.0;0.0;0.0
1.0;1753876247.474244;16.85164;0.98;-1.74;-0.02;1.005168;0.03663;0.007547;0.0;0.0;0.0;0.0;0.0;0.0
1.0;1753876247.478833;16.84469;1.1;-1.65;0.02;1.005354;0.037159;0.00671;0.0;0.0;0.0;0.0;0.0;0.0
1.0;1753876247.483422;16.844283;0.99;-1.66;-0.02;1.005958;0.037566;0.006661;0.0;0.0;0.0;0.0;0.0;0.0
1.0;1753876247.48801;16.822221;1.03;-1.76;0.01;1.005163;0.035771;0.008481;0.0;0.0;0.0;0.0;0.0;0.0
1.0;1753876247.492599;16.835125;1.09;-1.64;0.06;1.005577;0.037538;0.007422;0.0;0.0;0.0;0.0;0.0;0.0
1.0;1753876247.497188;16.830841;1.12;-1.66;0.03;1.00522;0.036711;0.005881;0.0;0.0;0.0;0.0;0.0;0.0
1.0;1753876247.501777;16.845292;1.04;-1.62;-0.04;1.005572;0.036494;0.007447;0.0;0.0;0.0;0.0;0.0;0.0
1.0;1753876247.506366;16.843753;1.12;-1.63;-0.01;1.005018;0.035336;0.007577;0.0;0.0;0.0;0.0;0.0;0.0
1.0;1753876247.510954;16.839909;0.99;-1.59;0.07;1.005262;0.038058;0.008574;0.0;0.0;0.0;0.0;0.0;0.0
1.0;1753876247.515544;16.822378;1.13;-1.72;-0.02;1.006065;0.036721;0.005241;0.0;0.0;0.0;0.0;0.0;0.0
1.0;1753876247.520132;16.8431;1.1;-1.67;0.09;1.005912;0.037086;0.005962;0.0;0.0;0.0;0.0;0.0;0.0
1.0;1753876247.524721;16.856147;1.06;-1.7;-0.08;1.005165;0.037722;0.007308;0.0;0.0;0.0;0.0;0.0;0.0
1.0;1753876247.52931;16.83616;1.1;-1.7;0.05;1.005176;0.037526;0.00671;0.0;0.0;0.0;0.0;0.0;0.0
1.0;1753876247.533899;16.841399;1.01;-1.61;0.04;1.005921;0.037288;0.005839;0.0;0.0;0.0;0.0;0.0;0.0
1.0;1753876247.538488;16.835299;0.95;-1.66;0.04;1.005903;0.037835;0.00628;0.0;0.0;0.0;0.0;0.0;0.0
1.0;1753876247.543076;16.831179;1.05;-1.55;0.07;1.00555;0.036665;0.006515;0.0;0.0;0.0;0.0;0.0;0.0
1.0;1753876247.547665;16.84008;1.08;-1.66;-0.09;1.005306;0.037489;0.006668;0.0;0.0;0.0;0.0;0.0;0.0
1.0;1753876247.552254;16.840657;1.15;-1.66;-0.03;1.005337;0.037353;0.006987;0.0;0.0;0.0;0.0;0.0;0.0
1.0;1753876247.556843;16.855706;1.06;-1.61;0.12;1.006348;0.037468;0.007694;0.0;0.0;0.0;0.0;0.0;0.0
1.0;1753876247.561432;16.840822;1.04;-1.68;-0.02;1.005737;0.037241;0.006442;0.0;0.0;0.0;0.0;0.0;0.0
1.0;1753876247.566021;16.83364;1.0;-1.66;-0.01;1.005223;0.036965;0.006381;0.0;0.0;0.0;0.0;0.0;0.0
1.0;1753876247.57061;16.855295;1.12;-1.7;0.01;1.005394;0.036594;0.006421;0.0;0.0;0.0;0.0;0.0;0.0
1.0;1753876247.575198;16.854733;1.07;-1.71;0.04;1.004863;0.036171;0.008209;0.0;0.0;0.0;0.0;0.0;0.0
1.0;1753876247.579787;16.841801;1.05;-1.63;0.06;1.005773;0.036824;0.006236;0.0;0.0;0.0;0.0;0.0;0.0
1.0;1753876247.584376;16.831967;1.02;-1.77;0.04;1.005535;0.037725;0.007904;0.0;0.0;0.0;0.0;0.0;0.0
1.0;1753876247.588965;16.83519;1.1;-1.79;0.08;1.004107;0.037359;0.006882;0.0;0.0;0.0;0.0;0.0;0.0
1.0;1753876247.593554;16.842274;0.98;-1.62;0.01;1.006276;0.03679;0.007381;0.0;0.0;0.0;0.0;0.0;0.0
1.0;1753876247.598142;16.814745;1.1;-1.63;0.04;1.005726;0.037081;0.006552;0.0;0.0;0.0;0.0;0.0;0.0
1.0;1753876247.602732;16.834018;1.08;-1.66;0.03;1.005681;0.037369;0.007317;0.0;0.0;0.0;0.0;0.0;0.0
1.0;1753876247.60732;16.836386;1.04;-1.59;0.04;1.005279;0.038264;0.006611;0.0;0.0;0.0;0.0;0.0;0.0
1.0;1753876247.611909;16.839294;1.01;-1.75;-0.08;1.004903;0.036775;0.007816;0.0;0.0;0.0;0.0;0.0;0.0
1.0;1753876247.616498;16.845631;1.08;-1.62;-0.03;1.005668;0.037644;0.00653;0.0;0.0;0.0;0.0;0.0;0.0
1.0;1753876247.621087;16.829641;1.09;-1.75;-0.02;1.006244;0.03765;0.006281;0.0;0.0;0.0;0.0;0.0;0.0
1.0;1753876247.625676;16.837511;1.02;-1.73;0.03;1.004725;0.037844;0.005543;0.0;0.0;0.0;0.0;0.0;0.0
1.0;1753876247.630264;16.832257;1.13;-1.7;0.08;1.005319;0.037769;0.006446;0.0;0.0;0.0;0.0;0.0;0.0
1.0;1753876247.634853;16.823313;1.12;-1.56;0.04;1.005301;0.038231;0.007896;0.0;0.0;0.0;0.0;0.0;0.0
1.0;1753876247.639442;16.828761;1.03;-1.61;0.03;1.005987;0.0361;0.006762;0.0;0.0;0.0;0.0;0.0;0.0
1.0;1753876247.644031;16.830557;1.06;-1.73;0.07;1.0054;0.037476;0.006835;0.0;0.0;0.0;0.0;0.0;0.0
1.0;1753876247.64862;16.821448;1.12;-1.62;0.11;1.006373;0.035468;0.007393;0.0;0.0;0.0;0.0;0.0;0.0
1.0;1753876247.653209;16.855455;1.14;-1.52;0.05;1.005991;0.036243;0.007581;0.0;0.0;0.0;0.0;0.0;0.0
1.0;1753876247.657798;16.842548;1.05;-1.75;0.09;1.005614;0.036807;0.007356;0.0;0.0;0.0;0.0;0.0;0.0
1.0;1753876247.662386;16.827573;1.05;-1.59;0.02;1.005886;0.037283;0.005737;0.0;0.0;0.0;0.0;0.0;0.0
1.0;1753876247.666975;16.823286;0.94;-1.69;0.08;1.005615;0.036692;0.006095;0.0;0.0;0.0;0.0;0.0;0.0
1.0;1753876247.671564;16.848538;1.21;-1.61;0.03;1.005147;0.036314;0.007557;0.0;0.0;0.0;0.0;0.0;0.0
1.0;1753876247.676153;16.858161;1.08;-1.54;-0.01;1.006454;0.036236;0.007078;0.0;0.0;0.0;0.0;0.0;0.0
1.0;1753876247.680742;16.826781;1.09;-1.63;0.13;1.005521;0.037305;0.007965;0.0;0.0;0.0;0.0;0.0;0.0
1.0;1753876247.685331;16.836275;1.05;-1.68;0.01;1.004708;0.036769;0.007098;0.0;0.0;0.0;0.0;0.0;0.0
1.0;1753876247.68992;16.853474;1.06;-1.73;0.1;1.006335;0.036323;0.007768;0.0;0.0;0.0;0.0;0.0;0.0
1.0;1753876247.694508;16.791779;1.06;-1.66;-0.0;1.005844;0.037196;0.005818;0.0;0.0;0.0;0.0;0.0;0.0
1.0;1753876247.699097;16.822998;1.06;-1.62;0.06;1.005239;0.036683;0.006998;0.0;0.0;0.0;0.0;0.0;0.0
1.0;1753876247.703686;16.818646;1.09;-1.61;0.12;1.006092;0.03644;0.006332;0.0;0.0;0.0;0.0;0.0;0.0
1.0;1753876247.708275;16.840972;1.03;-1.61;-0.04;1.006364;0.037369;0.005739;0.0;0.0;0.0;0.0;0.0;0.0
1.0;1753876247.712864;16.837467;1.13;-1.59;0.08;1.006368;0.037332;0.005818;0.0;0.0;0.0;0.0;0.0;0.0
1.0;1753876247.717452;16.822871;1.15;-1.63;0.0;1.005442;0.037442;0.006405;0.0;0.0;0.0;0.0;0.0;0.0
1.0;1753876247.722041;16.826377;1.07;-1.55;0.05;1.00562;0.036869;0.006758;0.0;0.0;0.0;0.0;0.0;0.0
1.0;1753876247.72663;16.831261;1.04;-1.63;0.06;1.005827;0.037452;0.006938;0.0;0.0;0.0;0.0;0.0;0.0
1.0;1753876247.731219;16.849666;1.21;-1.61;0.03;1.006224;0.037043;0.00584;0.0;0.0;0.0;0.0;0.0;0.0
1.0;1753876247.735808;16.848953;1.17;-1.65;-0.01;1.005117;0.03767;0.007601;0.0;0.0;0.0;0.0;0.0;0.0
1.0;1753876247.740397;16.852115;1.1;-1.61;-0.02;1.005581;0.03685;0.005364;0.0;0.0;0.0;0.0;0.0;0.0
1.0;1753876247.744986;16.819691;1.1;-1.7;0.11;1.005493;0.036867;0.006563;0.0;0.0;0.0;0.0;0.0;0.0
1.0;1753876247.749574;16.844406;1.12;-1.73;0.07;1.00631;0.037467;0.00649;0.0;0.0;0.0;0.0;0.0;0.0
1.0;1753876247.754163;16.814061;1.05;-1.62;0.09;1.00616;0.037601;0.00657;0.0;0.0;0.0;0.0;0.0;0.0
1.0;1753876247.758752;16.844915;1.07;-1.65;0.12;1.005867;0.037487;0.006793;0.0;0.0;0.0;0.0;0.0;0.0
1.0;1753876247.763341;16.823838;1.07;-1.71;0.07;1.005192;0.037238;0.005787;0.0;0.0;0.0;0.0;0.0;0.0
1.0;1753876247.76793;16.827249;1.19;-1.67;0.07;1.006436;0.037205;0.007857;0.0;0.0;0.0;0.0;0.0;0.0
1.0;1753876247.772519;16.84725;1.07;-1.63;0.07;1.005462;0.037561;0.005622;0.0;0.0;0.0;0.0;0.0;0.0
1.0;1753876247.777108;16.830917;1.12;-1.65;0.0;1.005929;0.036495;0.007407;0.0;0.0;0.0;0.0;0.0;0.0
1.0;1753876247.781696;16.834174;1.14;-1.7;0.01;1.004857;0.038151;0.006351;0.0;0.0;0.0;0.0;0.0;0.0
1.0;1753876247.786285;16.836908;1.05;-1.76;0.07;1.006328;0.03867;0.00748;0.0;0.0;0.0;0.0;0.0;0.0
1.0;1753876247.790874;16.807869;1.06;-1.58;0.1;1.005509;0.037605;0.006404;0.0;0.0;0.0;0.0;0.0;0.0
1.0;1753876247.795463;16.828089;1.09;-1.79;0.02;1.006075;0.03768;0.008077;0.0;0.0;0.0;0.0;0.0;0.0
1.0;1753876247.800052;16.837184;1.14;-1.78;0.09;1.006399;0.037025;0.006047;0.0;0.0;0.0;0.0;0.0;0.0
1.0;1753876247.80464;16.825767;1.17;-1.59;-0.0;1.007138;0.036717;0.00607;0.0;0.0;0.0;0.0;0.0;0.0
1.0;1753876247.809229;16.817808;1.06;-1.66;0.05;1.006205;0.036886;0.006;0.0;0.0;0.0;0.0;0.0;0.0
1.0;1753876247.813818;16.818396;1.18;-1.58;0.05;1.004921;0.036944;0.005251;0.0;0.0;0.0;0.0;0.0;0.0
1.0;1753876247.818407;16.810734;1.12;-1.68;0.11;1.005942;0.037982;0.006512;0.0;0.0;0.0;0.0;0.0;0.0
1.0;1753876247.822996;16.829583;1.19;-1.57;0.05;1.00661;0.036965;0.006926;0.0;0.0;0.0;0.0;0.0;0.0
1.0;1753876247.827585;16.821471;1.17;-1.61;0.12;1.00624;0.038161;0.007675;0.0;0.0;0.0;0.0;0.0;0.0
1.0;1753876247.832174;16.836133;1.18;-1.61;0.07;1.005632;0.037818;0.007392;0.0;0.0;0.0;0.0;0.0;0.0
1.0;1753876247.836762;16.839989;1.14;-1.54;0.09;1.005745;0.037097;0.006703;0.0;0.0;0.0;0.0;0.0;0.0
1.0;1753876247.841351;16.836973;1.17;-1.66;0.06;1.006511;0.037803;0.005242;0.0;0.0;0.0;0.0;0.0;0.0
1.0;1753876247.84594;16.821948;1.04;-1.71;0.02;1.006186;0.037244;0.007358;0.0;0.0;0.0;0.0;0.0;0.0
1.0;1753876247.850529;16.803994;1.08;-1.63;0.03;1.005864;0.036161;0.007511;0.0;0.0;0.0;0.0;0.0;0.0
1.0;1753876247.855118;16.820027;0.96;-1.58;0.13;1.005792;0.036728;0.006209;0.0;0.0;0.0;0.0;0.0;0.0
1.0;1753876247.859707;16.813987;1.1;-1.68;0.06;1.006252;0.037863;0.006305;0.0;0.0;0.0;0.0;0.0;0.0
1.0;1753876247.864296;16.840006;1.12;-1.75;0.04;1.005432;0.036613;0.006951;0.0;0.0;0.0;0.0;0.0;0.0
1.0;1753876247.8687;16.824219;1.12;-1.61;0.07;1.006012;0.03721;0.006588;0.0;0.0;0.0;0.0;0.0;0.0
1.0;1753876247.873289;16.821674;1.0;-1.57;0.12;1.005892;0.037835;0.005768;0.0;0.0;0.0;0.0;0.0;0.0
1.0;1753876247.877878;16.828225;1.23;-1.61;0.12;1.006705;0.037213;0.00712;0.0;0.0;0.0;0.0;0.0;0.0
1.0;1753876247.882466;16.814806;1.1;-1.58;0.07;1.005467;0.036187;0.006522;0.0;0.0;0.0;0.0;0.0;0.0
1.0;1753876247.887056;16.845945;1.05;-1.63;0.07;1.006419;0.037097;0.005894;0.0;0.0;0.0;0.0;0.0;0.0
1.0;1753876247.891644;16.835614;1.18;-1.53;0.1;1.006194;0.036734;0.006726;0.0;0.0;0.0;0.0;0.0;0.0
1.0;1753876247.896233;16.811586;1.16;-1.53;0.06;1.005577;0.036157;0.006469;0.0;0.0;0.0;0.0;0.0;0.0
1.0;1753876247.900822;16.803252;1.13;-1.64;0.14;1.004807;0.035642;0.006594;0.0;0.0;0.0;0.0;0.0;0.0
1.0;1753876247.905411;16.825715;1.07;-1.63;0.09;1.006531;0.037007;0.006598;0.0;0.0;0.0;0.0;0.0;0.0
1.0;1753876247.90985;16.832031;1.05;-1.61;0.07;1.006256;0.036356;0.005978;0.0;0.0;0.0;0.0;0.0;0.0
1.0;1753876247.914439;16.824611;1.09;-1.68;0.0;1.00603;0.036672;0.005563;0.0;0.0;0.0;0.0;0.0;0.0
1.0;1753876247.919028;16.83043;1.17;-1.59;0.05;1.005245;0.036865;0.00585;0.0;0.0;0.0;0.0;0.0;0.0
1.0;1753876247.923616;16.857235;1.12;-1.62;0.14;1.006433;0.037289;0.005419;0.0;0.0;0.0;0.0;0.0;0.0
1.0;1753876247.928205;16.833008;1.01;-1.69;0.1;1.005534;0.036316;0.006359;0.0;0.0;0.0;0.0;0.0;0.0
1.0;1753876247.932794;16.824239;1.06;-1.67;0.14;1.006201;0.037723;0.006918;0.0;0.0;0.0;0.0;0.0;0.0
1.0;1753876247.937383;16.82878;0.95;-1.62;0.09;1.006803;0.037738;0.006638;0.0;0.0;0.0;0.0;0.0;0.0
1.0;1753876247.941972;16.8301;1.1;-1.66;0.1;1.00673;0.037768;0.00607;0.0;0.0;0.0;0.0;0.0;0.0
1.0;1753876247.94656;16.844842;1.07;-1.64;0.19;1.005581;0.036339;0.006272;0.0;0.0;0.0;0.0;0.0;0.0
1.0;1753876247.95115;16.847546;0.99;-1.59;0.15;1.005556;0.037632;0.005915;0.0;0.0;0.0;0.0;0.0;0.0
1.0;1753876247.955738;16.85484;1.02;-1.65;0.15;1.006119;0.037734;0.007249;0.0;0.0;0.0;0.0;0.0;0.0
1.0;1753876247.960327;16.819984;1.08;-1.76;0.1;1.005987;0.036901;0.006279;0.0;0.0;0.0;0.0;0.0;0.0
1.0;1753876247.964916;16.824361;1.04;-1.68;0.17;1.006166;0.037845;0.005742;0.0;0.0;0.0;0.0;0.0;0.0
1.0;1753876247.97084;16.832031;1.05;-1.68;0.14;1.006012;0.03782;0.006344;0.0;0.0;0.0;0.0;0.0;0.0
1.0;1753876247.973487;16.917969;1.12;-1.68;0.07;1.005036;0.0366;0.005002;0.0;0.0;0.0;0.0;0.0;0.0
1.0;1753876247.978058;16.832031;1.05;-1.68;0.07;1.006134;0.036844;0.005368;0.0;0.0;0.0;0.0;0.0;0.0
1.0;1753876247.983169;16.832031;0.98;-1.61;0.07;1.006256;0.03843;0.00671;0.0;0.0;0.0;0.0;0.0;0.0
1.0;1753876247.987408;16.832031;1.12;-1.68;0.14;1.004304;0.036478;0.006222;0.0;0.0;0.0;0.0;0.0;0.0
1.0;1753876247.991822;16.832031;0.98;-1.68;0.07;1.004548;0.037942;0.007564;0.0;0.0;0.0;0.0;0.0;0.0
1.0;1753876247.996411;16.882267;1.04;-1.7;0.05;1.004031;0.037877;0.007345;0.0;0.0;0.0;0.0;0.0;0.0
1.0;1753876248.001;16.763437;0.91;-1.75;0.1;1.00334;0.036922;0.008355;0.0;0.0;0.0;0.0;0.0;0.0
1.0;1753876248.005588;16.850741;0.97;-1.65;0.11;1.00626;0.037267;0.008336;0.0;0.0;0.0;0.0;0.0;0.0
1.0;1753876248.010177;16.833581;1.04;-1.62;0.12;1.004448;0.03775;0.007444;0.0;0.0;0.0;0.0;0.0;0.0
1.0;1753876248.014766;16.826881;1.0;-1.78;0.03;1.004293;0.039154;0.006788;0.0;0.0;0.0;0.0;0.0;0.0
1.0;1753876248.019355;16.780564;1.01;-1.67;0.08;1.004199;0.036575;0.007235;0.0;0.0;0.0;0.0;0.0;0.0
1.0;1753876248.023944;16.888736;1.01;-1.7;0.03;1.003572;0.036863;0.007555;0.0;0.0;0.0;0.0;0.0;0.0
1.0;1753876248.028533;16.761383;0.98;-1.64;0.04;1.004845;0.037708;0.006684;0.0;0.0;0.0;0.0;0.0;0.0
1.0;1753876248.033122;16.832719;0.91;-1.63;0.09;1.00594;0.039013;0.007287;0.0;0.0;0.0;0.0;0.0;0.0
1.0;1753876248.03771;16.853108;0.98;-1.66;0.09;1.005392;0.037565;0.007647;0.0;0.0;0.0;0.0;0.0;0.0
1.0;1753876248.042299;16.882338;0.99;-1.78;0.05;1.005493;0.037848;0.008688;0.0;0.0;0.0;0.0;0.0;0.0
1.0;1753876248.046888;16.88682;0.98;-1.62;0.1;1.003283;0.037208;0.007234;0.0;0.0;0.0;0.0;0.0;0.0
1.0;1753876248.051477;16.753588;1.01;-1.83;0.03;1.003876;0.036967;0.006903;0.0;0.0;0.0;0.0;0.0;0.0
1.0;1753876248.056066;16.848489;0.92;-1.68;0.1;1.005616;0.037272;0.00756;0.0;0.0;0.0;0.0;0.0;0.0
1.0;1753876248.060655;16.813509;0.99;-1.53;0.01;1.003442;0.037704;0.006907;0.0;0.0;0.0;0.0;0.0;0.0
1.0;1753876248.065244;16.857479;1.08;-1.73;0.09;1.004572;0.038837;0.008176;0.0;0.0;0.0;0.0;0.0;0.0
1.0;1753876248.069832;16.756096;1.06;-1.66;0.08;1.005684;0.037443;0.008522;0.0;0.0;0.0;0.0;0.0;0.0
1.0;1753876248.074421;16.871318;1.01;-1.68;0.16;1.00419;0.037203;0.007855;0.0;0.0;0.0;0.0;0.0;0.0
1.0;1753876248.07901;16.754783;0.99;-1.72;-0.01;1.005558;0.03851;0.006971;0.0;0.0;0.0;0.0;0.0;0.0
1.0;1753876248.083599;16.868289;1.01;-1.76;0.14;1.006083;0.036596;0.009034;0.0;0.0;0.0;0.0;0.0;0.0
1.0;1753876248.088188;16.869176;1.0;-1.69;0.03;1.004485;0.037449;0.007112;0.0;0.0;0.0;0.0;0.0;0.0
1.0;1753876248.092776;16.817069;0.89;-1.68;0.04;1.00468;0.035544;0.007566;0.0;0.0;0.0;0.0;0.0;0.0
1.0;1753876248.097366;16.828125;0.94;-1.65;0.1;1.003435;0.037361;0.007284;0.0;0.0;0.0;0.0;0.0;0.0
1.0;1753876248.101954;16.84687;0.96;-1.77;-0.06;1.003645;0.036812;0.007395;0.0;0.0;0.0;0.0;0.0;0.0
1.0;1753876248.106543;16.82444;1.0;-1.56;-0.0;1.005513;0.037199;0.007333;0.0;0.0;0.0;0.0;0.0;0.0
1.0;1753876248.111132;16.827902;1.05;-1.73;-0.06;1.005218;0.036261;0.007462;0.0;0.0;0.0;0.0;0.0;0.0
1.0;1753876248.115721;16.849493;0.97;-1.63;0.07;1.005854;0.036833;0.008381;0.0;0.0;0.0;0.0;0.0;0.0
1.0;1753876248.12031;16.81848;0.98;-1.68;0.05;1.0043;0.036873;0.006779;0.0;0.0;0.0;0.0;0.0;0.0
1.0;1753876248.124898;16.866872;0.98;-1.72;-0.02;1.004646;0.038075;0.006546;0.0;0.0;0.0;0.0;0.0;0.0
1.0;1753876248.129487;16.852927;1.02;-1.71;0.06;1.005199;0.037137;0.007802;0.0;0.0;0.0;0.0;0.0;0.0
1.0;1753876248.134076;16.834666;1.04;-1.72;0.01;1.005968;0.036794;0.008036;0.0;0.0;0.0;0.0;0.0;0.0
1.0;1753876248.138665;16.78389;0.95;-1.61;0.03;1.004844;0.037201;0.007504;0.0;0.0;0.0;0.0;0.0;0.0
1.0;1753876248.143254;16.872862;1.11;-1.63;0.07;1.005547;0.036485;0.008196;0.0;0.0;0.0;0.0;0.0;0.0
1.0;1753876248.147843;16.888403;0.94;-1.61;0.12;1.00381;0.036061;0.006504;0.0;0.0;0.0;0.0;0.0;0.0
1.0;1753876248.152432;16.794963;0.99;-1.7;-0.02;1.00632;0.036615;0.007658;0.0;0.0;0.0;0.0;0.0;0.0
1.0;1753876248.15702;16.860343;0.98;-1.66;0.1;1.005777;0.038135;0.006196;0.0;0.0;0.0;0.0;0.0;0.0
1.0;1753876248.161609;16.858641;1.02;-1.66;0.13;1.00571;0.037061;0.008119;0.0;0.0;0.0;0.0;0.0;0.0
1.0;1753876248.166198;16.873809;0.97;-1.62;0.13;1.0068;0.035788;0.007928;0.0;0.0;0.0;0.0;0.0;0.0
1.0;1753876248.170787;16.847005;0.98;-1.63;0.05;1.006738;0.03742;0.007299;0.0;0.0;0.0;0.0;0.0;0.0
1.0;1753876248.175376;16.884559;0.99;-1.6;0.15;1.005889;0.038069;0.009054;0.0;0.0;0.0;0.0;0.0;0.0
1.0;1753876248.179964;16.730239;0.99;-1.57;0.12;1.005481;0.037015;0.008251;0.0;0.0;0.0;0.0;0.0;0.0
1.0;1753876248.184554;16.839224;1.0;-1.59;0.14;1.006865;0.03719;0.007225;0.0;0.0;0.0;0.0;0.0;0.0
1.0;1753876248.189142;16.885781;0.97;-1.58;0.12;1.006625;0.035888;0.00613;0.0;0.0;0.0;0.0;0.0;0.0
1.0;1753876248.193731;16.877637;1.07;-1.64;0.07;1.006076;0.036349;0.007159;0.0;0.0;0.0;0.0;0.0;0.0
1.0;1753876248.19832;16.842512;1.05;-1.67;0.11;1.005447;0.038018;0.007142;0.0;0.0;0.0;0.0;0.0;0.0
1.0;1753876248.202909;16.864663;0.95;-1.57;0.08;1.005654;0.038566;0.00877;0.0;0.0;0.0;0.0;0.0;0.0
1.0;1753876248.207498;16.851294;1.08;-1.7;0.05;1.005195;0.037186;0.006587;0.0;0.0;0.0;0.0;0.0;0.0
1.0;1753876248.212086;16.893435;1.11;-1.7;0.08;1.006518;0.037149;0.007971;0.0;0.0;0.0;0.0;0.0;0.0
1.0;1753876248.216675;16.799299;1.12;-1.58;-0.03;1.006235;0.037446;0.008063;0.0;0.0;0.0;0.0;0.0;0.0
1.0;1753876248.221264;16.821234;0.98;-1.59;0.1;1.00536;0.036662;0.007846;0.0;0.0;0.0;0.0;0.0;0.0
1.0;1753876248.225853;16.907773;1.11;-1.72;-0.02;1.00647;0.036038;0.00778;0.0;0.0;0.0;0.0;0.0;0.0
1.0;1753876248.230442;16.78867;1.0;-1.7;0.07;1.00691;0.035938;0.008435;0.0;0.0;0.0;0.0;0.0;0.0
1.0;1753876248.235031;16.887908;1.01;-1.62;-0.03;1.005422;0.036998;0.007573;0.0;0.0;0.0;0.0;0.0;0.0
1.0;1753876248.23962;16.840253;1.06;-1.56;0.12;1.006208;0.037513;0.007482;0.0;0.0;0.0;0.0;0.0;0.0
1.0;1753876248.244208;16.870555;1.12;-1.62;0.1;1.006827;0.037249;0.006107;0.0;0.0;0.0;0.0;0.0;0.0
1.0;1753876248.248797;16.830963;1.07;-1.65;0.15;1.007248;0.037204;0.007978;0.0;0.0;0.0;0.0;0.0;0.0
1.0;1753876248.253386;16.821655;1.0;-1.57;0.11;1.006226;0.036363;0.008233;0.0;0.0;0.0;0.0;0.0;0.0
1.0;1753876248.257975;16.809953;1.07;-1.64;0.2;1.006191;0.036717;0.007463;0.0;0.0;0.0;0.0;0.0;0.0
1.0;1753876248.262564;16.864996;1.09;-1.53;0.08;1.005898;0.035603;0.008381;0.0;0.0;0.0;0.0;0.0;0.0
1.0;1753876248.267152;16.901761;0.99;-1.68;0.03;1.00657;0.037118;0.006892;0.0;0.0;0.0;0.0;0.0;0.0
1.0;1753876248.271742;16.857093;1.05;-1.61;-0.07;1.007513;0.03636;0.008631;0.0;0.0;0.0;0.0;0.0;0.0
1.0;1753876248.27633;16.823406;0.9;-1.6;0.06;1.006378;0.036289;0.007519;0.0;0.0;0.0;0.0;0.0;0.0
1.0;1753876248.280919;16.965285;1.01;-1.64;0.09;1.005386;0.034953;0.00788;0.0;0.0;0.0;0.0;0.0;0.0
1.0;1753876248.285508;16.840468;1.02;-1.7;0.1;1.006617;0.035426;0.008806;0.0;0.0;0.0;0.0;0.0;0.0
1.0;1753876248.290097;16.923508;1.01;-1.66;0.11;1.008374;0.038505;0.008733;0.0;0.0;0.0;0.0;0.0;0.0
1.0;1753876248.294686;16.862898;0.97;-1.63;0.02;1.007147;0.035882;0.006963;0.0;0.0;0.0;0.0;0.0;0.0
1.0;1753876248.299274;16.828069;0.99;-1.61;-0.01;1.006557;0.035719;0.007685;0.0;0.0;0.0;0.0;0.0;0.0
1.0;1753876248.303863;16.894534;1.0;-1.6;0.14;1.006019;0.037068;0.007351;0.0;0.0;0.0;0.0;0.0;0.0
1.0;1753876248.308452;16.827982;1.03;-1.65;-0.01;1.00834;0.036259;0.008027;0.0;0.0;0.0;0.0;0.0;0.0
1.0;1753876248.313041;16.907469;1.05;-1.66;0.02;1.006784;0.036115;0.008121;0.0;0.0;0.0;0.0;0.0;0.0
1.0;1753876248.31763;16.895148;1.04;-1.63;0.04;1.007023;0.037107;0.007152;0.0;0.0;0.0;0.0;0.0;0.0
1.0;1753876248.322219;16.861865;1.13;-1.63;-0.01;1.007532;0.036257;0.008323;0.0;0.0;0.0;0.0;0.0;0.0
1.0;1753876248.3272;16.871094;1.05;-1.61;0.07;1.006866;0.03599;0.007686;0.0;0.0;0.0;0.0;0.0;0.0
1.0;1753876248.331789;16.944894;1.09;-1.58;0.07;1.005302;0.037789;0.007727;0.0;0.0;0.0;0.0;0.0;0.0
1.0;1753876248.336378;16.905859;1.15;-1.7;0.01;1.00658;0.036485;0.007851;0.0;0.0;0.0;0.0;0.0;0.0
1.0;1753876248.340966;16.949699;1.01;-1.73;0.08;1.005682;0.035958;0.006258;0.0;0.0;0.0;0.0;0.0;0.0
1.0;1753876248.345555;16.864219;1.15;-1.62;0.13;1.007292;0.035669;0.007651;0.0;0.0;0.0;0.0;0.0;0.0
1.0;1753876248.350144;16.825641;1.09;-1.67;0.07;1.006474;0.035531;0.005736;0.0;0.0;0.0;0.0;0.0;0.0
1.0;1753876248.354733;16.827238;1.08;-1.64;0.02;1.005786;0.03531;0.006072;0.0;0.0;0.0;0.0;0.0;0.0
1.0;1753876248.359322;16.873202;1.07;-1.61;0.04;1.007276;0.035542;0.007279;0.0;0.0;0.0;0.0;0.0;0.0
1.0;1753876248.363911;16.879961;1.04;-1.67;0.15;1.008628;0.036745;0.007687;0.0;0.0;0.0;0.0;0.0;0.0
1.0;1753876248.3685;16.91812;1.01;-1.61;0.1;1.007136;0.035907;0.0066;0.0;0.0;0.0;0.0;0.0;0.0
1.0;1753876248.373088;16.885197;1.01;-1.65;0.04;1.007997;0.036683;0.006471;0.0;0.0;0.0;0.0;0.0;0.0
1.0;1753876248.377677;16.877274;1.07;-1.58;-0.01;1.006453;0.036599;0.005667;0.0;0.0;0.0;0.0;0.0;0.0
1.0;1753876248.382266;16.910437;1.05;-1.59;0.06;1.008074;0.036162;0.00751;0.0;0.0;0.0;0.0;0.0;0.0
