sep=,
PacketCounter,SampleTimeFine,Euler_X,Euler_Y,Euler_Z,Acc_X,Acc_Y,Acc_Z,Gyr_X,Gyr_Y,Gyr_Z,Mag_X,Mag_Y,Mag_Z,Status,
0, 2068689076, 87.8307113647461, -38.670684814453125, -25.728206634521484, 0, 0, 0, 0, 0, 0, -0.8994140625, -0.03271484375, 0.3798828125, 0, 
1, 2068697409, 87.83252716064453, -38.66971206665039, -25.7288761138916, 6.32401704788208, 7.711373329162598, 0.2658832371234894, 1.9870753288269043, -3.3010218143463135, 0.456855446100235, -0.8994140625, -0.0322265625, 0.3798828125, 0, 
2, 2068705742, 87.83168029785156, -38.669456481933594, -25.7280216217041, 6.388707160949707, 7.777186393737793, 0.1857898235321045, 1.780112385749817, -3.161372423171997, 0.5480165481567383, -0.8994140625, -0.03369140625, 0.37939453125, 0, 
3, 2068714075, 87.83052062988281, -38.66958236694336, -25.72855567932129, 6.149919509887695, 7.734373092651367, 0.18662339448928833, 1.7561118602752686, -3.1436734199523926, 0.5928670167922974, -0.8994140625, -0.0322265625, 0.38232421875, 0, 
4, 2068722408, 87.82980346679688, -38.669551849365234, -25.72801399230957, 5.892928600311279, 7.651308536529541, 0.27945834398269653, 1.7731964588165283, -3.1932363510131836, 0.5749369859695435, -0.90087890625, -0.0341796875, 0.37890625, 0, 
5, 2068730741, 87.83035278320312, -38.669410705566406, -25.7283935546875, 6.007177352905273, 7.54903507232666, 0.4389389753341675, 1.7863622903823853, -3.3601393699645996, 0.554163932800293, -0.89990234375, -0.0322265625, 0.3759765625, 0, 
6, 2068739074, 87.8322525024414, -38.66836929321289, -25.729862213134766, 6.264004230499268, 7.6528167724609375, 0.4007466435432434, 1.9397656917572021, -3.3762757778167725, 0.4442276060581207, -0.90087890625, -0.03271484375, 0.37939453125, 0, 
7, 2068747407, 87.83185577392578, -38.667236328125, -25.731971740722656, 6.417819976806641, 7.861762046813965, 0.1799728274345398, 1.7570339441299438, -3.250023603439331, 0.44164061546325684, -0.89990234375, -0.033203125, 0.37646484375, 0, 
8, 2068755740, 87.83106994628906, -38.66698455810547, -25.730934143066406, 6.304930210113525, 7.756944179534912, 0.09342151135206223, 1.804215431213379, -3.145005226135254, 0.5476579070091248, -0.8994140625, -0.03076171875, 0.38134765625, 0, 
9, 2068764073, 87.82986450195312, -38.66705322265625, -25.719425201416016, 5.951303958892822, 7.587207794189453, 0.2573572099208832, 1.8139234781265259, -3.065985918045044, 0.5910229682922363, -0.896484375, -0.033203125, 0.37744140625, 0, 
10, 2068772406, 87.8297348022461, -38.66676712036133, -25.719615936279297, 5.870572566986084, 7.557774543762207, 0.40516728162765503, 1.7882577180862427, -3.2582972049713135, 0.5397687554359436, -0.900390625, -0.033203125, 0.37841796875, 0, 
11, 2068780739, 87.83148956298828, -38.667415618896484, -25.719816207885742, 6.132061958312988, 7.61433744430542, 0.30322322249412537, 1.8675081729888916, -3.4459469318389893, 0.6474766135215759, -0.89892578125, -0.0302734375, 0.37890625, 0, 
12, 2068789072, 87.83208465576172, -38.66704177856445, -25.720308303833008, 6.465488433837891, 7.768433570861816, 0.26057854294776917, 1.8550597429275513, -3.287856101989746, 0.5283704400062561, -0.8984375, -0.0322265625, 0.3779296875, 0, 
13, 2068797405, 87.83116912841797, -38.66700744628906, -25.722585678100586, 6.318778038024902, 7.843198299407959, 0.16278468072414398, 1.8362587690353394, -3.070186138153076, 0.5779851675033569, -0.89990234375, -0.03271484375, 0.3779296875, 0, 
14, 2068805738, 87.82979583740234, -38.66701126098633, -25.721071243286133, 6.002374172210693, 7.739067077636719, 0.21523769199848175, 1.7703533172607422, -3.1026649475097656, 0.5810332894325256, -0.89990234375, -0.03271484375, 0.3759765625, 0, 
15, 2068814071, 87.82833862304688, -38.66762924194336, -25.709869384765625, 5.973437309265137, 7.567724227905273, 0.3096266984939575, 1.6880549192428589, -3.1824533939361572, 0.6504734754562378, -0.8994140625, -0.033203125, 0.37939453125, 0, 
16, 2068822404, 87.82913208007812, -38.667327880859375, -25.711261749267578, 5.963144779205322, 7.5474114418029785, 0.3908041715621948, 1.8101322650909424, -3.370999813079834, 0.5349276661872864, -0.8994140625, -0.0341796875, 0.3798828125, 0, 
17, 2068830737, 87.82953643798828, -38.66779327392578, -25.708051681518555, 6.2670063972473145, 7.653904438018799, 0.2791186273097992, 1.887922763824463, -3.2140612602233887, 0.6328252553939819, -0.9013671875, -0.03173828125, 0.3779296875, 0, 
18, 2068839070, 87.82820129394531, -38.667503356933594, -25.70700454711914, 6.497249126434326, 7.780845642089844, 0.15340960025787354, 1.739437222480774, -3.1443140506744385, 0.5447635650634766, -0.89990234375, -0.0322265625, 0.3798828125, 0, 
19, 2068847403, 87.82823181152344, -38.668514251708984, -25.708314895629883, 6.171382904052734, 7.746632099151611, 0.16265209019184113, 1.8902021646499634, -3.1606295108795166, 0.6984488368034363, -0.89990234375, -0.0361328125, 0.37890625, 0, 
20, 2068855736, 87.82595825195312, -38.668643951416016, -25.707611083984375, 5.841055393218994, 7.665247440338135, 0.3552568256855011, 1.6008896827697754, -3.1777400970458984, 0.5944551229476929, -0.89990234375, -0.033203125, 0.37890625, 0, 
21, 2068864069, 87.82666778564453, -38.66917037963867, -25.708740234375, 5.976378440856934, 7.591274261474609, 0.4339684247970581, 1.7894104719161987, -3.381322145462036, 0.6338754296302795, -0.9013671875, -0.03125, 0.376953125, 0, 
22, 2068872402, 87.82798767089844, -38.66901397705078, -25.709989547729492, 6.224577903747559, 7.671490669250488, 0.2926197648048401, 1.8866163492202759, -3.35947322845459, 0.5531906485557556, -0.900390625, -0.0341796875, 0.38232421875, 0, 
23, 2068880735, 87.82791900634766, -38.6690559387207, -25.70663833618164, 6.443699836730957, 7.78044319152832, 0.22535428404808044, 1.8708637952804565, -3.1595797538757324, 0.5830568075180054, -0.90087890625, -0.0341796875, 0.38134765625, 0, 
24, 2068889068, 87.82858276367188, -38.66912841796875, -25.705974578857422, 6.323770999908447, 7.729386329650879, 0.134257510304451, 1.9478086233139038, -3.1794304847717285, 0.5874623656272888, -0.8974609375, -0.0361328125, 0.38134765625, 0, 
25, 2068897401, 87.82756042480469, -38.66946029663086, -25.699068069458008, 5.939690589904785, 7.66873025894165, 0.2914182245731354, 1.7366963624954224, -3.1901886463165283, 0.6165602207183838, -0.8994140625, -0.03125, 0.380859375, 0, 
26, 2068905734, 87.82801818847656, -38.6690559387207, -25.6999454498291, 5.9066362380981445, 7.602632999420166, 0.42632970213890076, 1.809799075126648, -3.323894739151001, 0.5243489146232605, -0.89990234375, -0.03515625, 0.37841796875, 0, 
27, 2068914067, 87.82971954345703, -38.66893768310547, -25.698518753051758, 6.1465535163879395, 7.616976737976074, 0.373614102602005, 1.8909451961517334, -3.407909631729126, 0.5556495785713196, -0.89990234375, -0.0322265625, 0.380859375, 0, 
28, 2068922400, 87.82960510253906, -38.669830322265625, -25.698644638061523, 6.402083396911621, 7.7923150062561035, 0.29758918285369873, 1.796838641166687, -3.2589375972747803, 0.681594729423523, -0.9013671875, -0.0322265625, 0.37841796875, 0, 
29, 2068930733, 87.82681274414062, -38.66976547241211, -25.700103759765625, 6.340816020965576, 7.790114402770996, 0.15136204659938812, 1.6299619674682617, -3.0591208934783936, 0.575218915939331, -0.900390625, -0.0341796875, 0.380859375, 0, 
30, 2068939066, 87.8259048461914, -38.66904830932617, -25.69847869873047, 6.073814392089844, 7.64875602722168, 0.2544272541999817, 1.8335437774658203, -3.0869381427764893, 0.49430352449417114, -0.900390625, -0.0302734375, 0.3798828125, 0, 
31, 2068947399, 87.82576751708984, -38.668025970458984, -25.691726684570312, 5.935029983520508, 7.550907611846924, 0.3156004846096039, 1.856750249862671, -3.1691596508026123, 0.4559589922428131, -0.90087890625, -0.0341796875, 0.37744140625, 0, 
32, 2068955732, 87.8260269165039, -38.667938232421875, -25.69301986694336, 6.027628421783447, 7.584992408752441, 0.38612815737724304, 1.7540371417999268, -3.3632640838623047, 0.5609517693519592, -0.8984375, -0.0322265625, 0.37939453125, 0, 
33, 2068964065, 87.82776641845703, -38.6680908203125, -25.69722557067871, 6.366355895996094, 7.674275875091553, 0.2946309745311737, 1.8133341073989868, -3.5056025981903076, 0.5840814113616943, -0.89990234375, -0.03564453125, 0.37841796875, 0, 
34, 2068972398, 87.8264389038086, -38.667869567871094, -25.69544219970703, 6.447237491607666, 7.820934772491455, 0.18146958947181702, 1.7963007688522339, -3.0758728981018066, 0.5559313893318176, -0.90185546875, -0.03271484375, 0.3798828125, 0, 
35, 2068980731, 87.82522583007812, -38.66860580444336, -25.692686080932617, 6.08275842666626, 7.7746686935424805, 0.20302337408065796, 1.7921512126922607, -3.0972859859466553, 0.6681216955184937, -0.90087890625, -0.03271484375, 0.380859375, 0, 
36, 2068989064, 87.82569885253906, -38.668479919433594, -25.693634033203125, 5.857611179351807, 7.609396457672119, 0.3557487428188324, 1.8064181804656982, -3.3304266929626465, 0.5586977005004883, -0.90087890625, -0.0341796875, 0.380859375, 0, 
37, 2068997397, 87.82732391357422, -38.668540954589844, -25.696348190307617, 5.969720840454102, 7.514499664306641, 0.40116944909095764, 1.8813397884368896, -3.408499002456665, 0.5759104490280151, -0.900390625, -0.0322265625, 0.38134765625, 0, 
38, 2069005730, 87.82781219482422, -38.66747283935547, -25.697343826293945, 6.169775009155273, 7.605579376220703, 0.3233157694339752, 1.8036006689071655, -3.330887794494629, 0.44353607296943665, -0.900390625, -0.03369140625, 0.3818359375, 0, 
39, 2069014063, 87.82687377929688, -38.66757583618164, -25.696910858154297, 6.500901222229004, 7.781048774719238, 0.2236146330833435, 1.7346984148025513, -3.2051217555999756, 0.5898189544677734, -0.90185546875, -0.0341796875, 0.3798828125, 0, 
40, 2069022396, 87.82496643066406, -38.66795349121094, -25.694259643554688, 6.319093227386475, 7.762251853942871, 0.08692178130149841, 1.7895898818969727, -2.997237205505371, 0.6316470503807068, -0.90087890625, -0.03515625, 0.3798828125, 0, 
41, 2069030729, 87.82498931884766, -38.66876220703125, -25.699254989624023, 5.9460248947143555, 7.654755592346191, 0.2995056211948395, 1.8081600666046143, -3.2536606788635254, 0.6706831455230713, -0.89990234375, -0.033203125, 0.3759765625, 0, 
42, 2069039062, 87.82502746582031, -38.66843032836914, -25.699554443359375, 5.929892063140869, 7.569271564483643, 0.4550853967666626, 1.8031396865844727, -3.27048921585083, 0.5356704592704773, -0.89892578125, -0.033203125, 0.376953125, 0, 
43, 2069047395, 87.82686614990234, -38.668243408203125, -25.69338035583496, 6.1157965660095215, 7.638626575469971, 0.3024168610572815, 1.8713501691818237, -3.4470224380493164, 0.5450708866119385, -0.900390625, -0.03271484375, 0.37890625, 0, 
44, 2069055728, 87.82754516601562, -38.6682243347168, -25.6944580078125, 6.361339092254639, 7.7247314453125, 0.26222383975982666, 1.8215818405151367, -3.3429007530212402, 0.5693275928497314, -0.9013671875, -0.03271484375, 0.37646484375, 0, 
45, 2069064061, 87.82795715332031, -38.66846466064453, -25.697378158569336, 6.336886405944824, 7.763885021209717, 0.17350858449935913, 1.8543933629989624, -3.258937120437622, 0.6025748252868652, -0.89990234375, -0.03125, 0.3662109375, 0, 
46, 2069072394, 87.82603454589844, -38.66966247558594, -25.695697784423828, 6.008595943450928, 7.690131664276123, 0.18289513885974884, 1.7168198823928833, -3.0914204120635986, 0.7262916564941406, -0.9052734375, -0.03076171875, 0.3642578125, 0, 
47, 2069080727, 87.82506561279297, -38.66987609863281, -25.695144653320312, 5.852223873138428, 7.592740058898926, 0.365709125995636, 1.741870403289795, -3.190547466278076, 0.6033432483673096, -0.9052734375, -0.0302734375, 0.365234375, 0, 
48, 2069089060, 87.82574462890625, -38.66939163208008, -25.69611167907715, 6.076840400695801, 7.568099021911621, 0.37669429183006287, 1.8280878067016602, -3.331374406814575, 0.5126432776451111, -0.90478515625, -0.0322265625, 0.36328125, 0, 
49, 2069097393, 87.82803344726562, -38.66884994506836, -25.698293685913086, 6.412516117095947, 7.73136043548584, 0.31008410453796387, 1.9264719486236572, -3.442002296447754, 0.5036782622337341, -0.90234375, -0.0302734375, 0.3662109375, 0, 
50, 2069105726, 87.82655334472656, -38.66875457763672, -25.69691276550293, 6.420328617095947, 7.860332012176514, 0.14034196734428406, 1.7485815286636353, -3.114370822906494, 0.5693020224571228, -0.9033203125, -0.0341796875, 0.3642578125, 0, 
51, 2069114059, 87.8252944946289, -38.6698112487793, -25.69597816467285, 6.173914432525635, 7.665411949157715, 0.16475993394851685, 1.734749436378479, -3.1581194400787354, 0.7041608095169067, -0.904296875, -0.03466796875, 0.36767578125, 0, 
52, 2069122392, 87.82432556152344, -38.66876983642578, -25.69646644592285, 5.902563095092773, 7.560755252838135, 0.36530011892318726, 1.668664813041687, -3.282963752746582, 0.4491456151008606, -0.90283203125, -0.03173828125, 0.36962890625, 0, 
53, 2069130725, 87.824462890625, -38.66831588745117, -25.697254180908203, 5.897287368774414, 7.5938005447387695, 0.39489296078681946, 1.7744258642196655, -3.313495397567749, 0.5185601115226746, -0.90283203125, -0.03271484375, 0.3662109375, 0, 
54, 2069139058, 87.82708740234375, -38.66758346557617, -25.70012664794922, 6.2200517654418945, 7.6636481285095215, 0.2632441520690918, 1.917481541633606, -3.5069851875305176, 0.47762855887413025, -0.90234375, -0.03271484375, 0.36767578125, 0, 
55, 2069147391, 87.82600402832031, -38.667537689208984, -25.699237823486328, 6.488396644592285, 7.785872936248779, 0.22410205006599426, 1.752090334892273, -3.1577353477478027, 0.5738356113433838, -0.90185546875, -0.0322265625, 0.365234375, 0, 
56, 2069155724, 87.82500457763672, -38.66769027709961, -25.697830200195312, 6.209169387817383, 7.802484512329102, 0.17623260617256165, 1.8058546781539917, -3.11116886138916, 0.597580075263977, -0.9033203125, -0.03173828125, 0.36865234375, 0, 
57, 2069164057, 87.8243408203125, -38.66847610473633, -25.697614669799805, 5.9221720695495605, 7.6715826988220215, 0.27033475041389465, 1.751783013343811, -3.223461627960205, 0.6712979078292847, -0.90380859375, -0.03076171875, 0.36767578125, 0, 
58, 2069172390, 87.82470703125, -38.66748046875, -25.698583602905273, 6.005587100982666, 7.511372089385986, 0.382359117269516, 1.7940208911895752, -3.330042839050293, 0.4533463418483734, -0.90380859375, -0.03271484375, 0.36962890625, 0, 
59, 2069180723, 87.82588958740234, -38.667606353759766, -25.699268341064453, 6.0444440841674805, 7.5471110343933105, 0.3301590085029602, 1.9084140062332153, -3.305452346801758, 0.5873599648475647, -0.90087890625, -0.0322265625, 0.36767578125, 0, 
60, 2069189056, 87.82657623291016, -38.66780471801758, -25.69975471496582, 6.376128673553467, 7.776408672332764, 0.2719075679779053, 1.8648698329925537, -3.289623260498047, 0.5974776148796082, -0.90234375, -0.0322265625, 0.369140625, 0, 
61, 2069197389, 87.82553100585938, -38.66819381713867, -25.698272705078125, 6.485983848571777, 7.8008832931518555, 0.07475363463163376, 1.8035752773284912, -3.103997230529785, 0.6275488138198853, -0.90185546875, -0.03271484375, 0.36865234375, 0, 
62, 2069205722, 87.82414245605469, -38.66836929321289, -25.696237564086914, 6.024591445922852, 7.674801826477051, 0.2722836136817932, 1.805598497390747, -3.0527172088623047, 0.6031895875930786, -0.90283203125, -0.033203125, 0.369140625, 0, 
63, 2069214055, 87.82469177246094, -38.66789245605469, -25.697616577148438, 5.809821128845215, 7.5944647789001465, 0.40762633085250854, 1.7791391611099243, -3.367003917694092, 0.5142057538032532, -0.90380859375, -0.03076171875, 0.36865234375, 0, 
64, 2069222388, 87.82543182373047, -38.66749954223633, -25.698863983154297, 6.068148612976074, 7.612238883972168, 0.35049712657928467, 1.816715121269226, -3.3581669330596924, 0.5227352380752563, -0.90380859375, -0.03125, 0.3671875, 0, 
65, 2069230721, 87.82545471191406, -38.66700744628906, -25.69830322265625, 6.357999801635742, 7.7098493576049805, 0.27480778098106384, 1.8608741760253906, -3.185911178588867, 0.5194566249847412, -0.9013671875, -0.03125, 0.36962890625, 0, 
66, 2069239054, 87.82463073730469, -38.666629791259766, -25.696897506713867, 6.3830037117004395, 7.8027567863464355, 0.21781042218208313, 1.8244251012802124, -3.1081976890563965, 0.5356448292732239, -0.9033203125, -0.03173828125, 0.37158203125, 0, 
67, 2069247387, 87.82418060302734, -38.668243408203125, -25.69601058959961, 6.179916858673096, 7.716219425201416, 0.17813794314861298, 1.8294708728790283, -3.164369583129883, 0.7707834839820862, -0.90283203125, -0.0322265625, 0.3701171875, 0, 
68, 2069255720, 87.82332611083984, -38.668453216552734, -25.69597816467285, 5.924711227416992, 7.635262966156006, 0.27868953347206116, 1.7209948301315308, -3.2423393726348877, 0.6012428998947144, -0.900390625, -0.03173828125, 0.3701171875, 0, 
69, 2069264053, 87.82478332519531, -38.66834259033203, -25.697237014770508, 5.966651916503906, 7.564940929412842, 0.4566635489463806, 1.8976560831069946, -3.3566811084747314, 0.5570839047431946, -0.90380859375, -0.0322265625, 0.369140625, 0, 
70, 2069272386, 87.82719421386719, -38.667293548583984, -25.699771881103516, 6.2484917640686035, 7.649473667144775, 0.3304400146007538, 1.9190953969955444, -3.4764277935028076, 0.44051358103752136, -0.9033203125, -0.03076171875, 0.369140625, 0, 
71, 2069280719, 87.82715606689453, -38.66647720336914, -25.699024200439453, 6.474368572235107, 7.8548078536987305, 0.17699536681175232, 1.8659714460372925, -3.1662139892578125, 0.4806254804134369, -0.9033203125, -0.03369140625, 0.36962890625, 0, 
72, 2069289052, 87.8251724243164, -38.666664123535156, -25.69731903076172, 6.255177021026611, 7.7535319328308105, 0.12064413726329803, 1.7129008769989014, -3.0839157104492188, 0.6032664775848389, -0.904296875, -0.03076171875, 0.36865234375, 0, 
73, 2069297385, 87.82333374023438, -38.66677474975586, -25.69580841064453, 5.921258449554443, 7.5897603034973145, 0.27964335680007935, 1.7081108093261719, -3.100795030593872, 0.5935842394828796, -0.90283203125, -0.033203125, 0.369140625, 0, 
74, 2069305718, 87.82364654541016, -38.66737365722656, -25.696327209472656, 5.87839412689209, 7.537822723388672, 0.4074972867965698, 1.819071650505066, -3.2938239574432373, 0.6466825604438782, -0.90234375, -0.03466796875, 0.3681640625, 0, 
75, 2069314051, 87.82568359375, -38.667293548583984, -25.69827651977539, 6.132166385650635, 7.555633068084717, 0.30395662784576416, 1.9122306108474731, -3.4216134548187256, 0.5583134889602661, -0.90234375, -0.0341796875, 0.37060546875, 0, 
76, 2069322384, 87.82676696777344, -38.66727066040039, -25.69893455505371, 6.489307880401611, 7.756765842437744, 0.22402998805046082, 1.9012162685394287, -3.304837703704834, 0.5705313682556152, -0.90283203125, -0.03125, 0.3701171875, 0, 
77, 2069330717, 87.82579803466797, -38.66602325439453, -25.69799041748047, 6.355235576629639, 7.791799545288086, 0.17640385031700134, 1.7702511548995972, -3.1462860107421875, 0.42962759733200073, -0.90234375, -0.03173828125, 0.3671875, 0, 
78, 2069339050, 87.82511901855469, -38.66617202758789, -25.69768524169922, 5.988551616668701, 7.6939496994018555, 0.2532072067260742, 1.7619519233703613, -3.2158541679382324, 0.594634473323822, -0.89990234375, -0.03271484375, 0.37255859375, 0, 
79, 2069347383, 87.82479858398438, -38.66603088378906, -25.69916343688965, 5.931663990020752, 7.571254730224609, 0.39642927050590515, 1.6652837991714478, -3.3765580654144287, 0.5537797212600708, -0.9033203125, -0.033203125, 0.369140625, 0, 
80, 2069355716, 87.82548522949219, -38.664791107177734, -25.70085906982422, 6.01286506652832, 7.541833877563477, 0.33491215109825134, 1.7771413326263428, -3.3982789516448975, 0.4208674728870392, -0.90234375, -0.03369140625, 0.37109375, 0, 
81, 2069364049, 87.82588958740234, -38.66453170776367, -25.701616287231445, 6.287562370300293, 7.670784950256348, 0.2725183069705963, 1.8092358112335205, -3.3091156482696533, 0.5409725904464722, -0.90380859375, -0.0302734375, 0.3662109375, 0, 
82, 2069372382, 87.82499694824219, -38.663814544677734, -25.700956344604492, 6.442707538604736, 7.75557279586792, 0.15951554477214813, 1.761183500289917, -3.177612066268921, 0.4913322329521179, -0.90234375, -0.03173828125, 0.36962890625, 0, 
83, 2069380715, 87.82452392578125, -38.66312789916992, -25.700132369995117, 6.157919883728027, 7.7093119621276855, 0.17422674596309662, 1.8219658136367798, -3.159912347793579, 0.496608704328537, -0.9033203125, -0.0322265625, 0.37158203125, 0, 
84, 2069389048, 87.82273864746094, -38.6627082824707, -25.699241638183594, 5.855650901794434, 7.640003204345703, 0.36022016406059265, 1.6718924045562744, -3.1579408645629883, 0.5284217000007629, -0.9033203125, -0.03173828125, 0.36962890625, 0, 
85, 2069397381, 87.82344818115234, -38.66249084472656, -25.700170516967773, 6.006503582000732, 7.59011173248291, 0.44355639815330505, 1.8299833536148071, -3.3258161544799805, 0.5458649396896362, -0.90234375, -0.03369140625, 0.36865234375, 0, 
86, 2069405714, 87.82487487792969, -38.66172790527344, -25.702186584472656, 6.261720180511475, 7.627729892730713, 0.3199450969696045, 1.8410487174987793, -3.4274535179138184, 0.47588688135147095, -0.90380859375, -0.03271484375, 0.37060546875, 0, 
87, 2069414047, 87.8247299194336, -38.660865783691406, -25.702224731445312, 6.420039653778076, 7.78533411026001, 0.20635515451431274, 1.7976068258285522, -3.2421085834503174, 0.4727362394332886, -0.9013671875, -0.03466796875, 0.3701171875, 0, 
88, 2069422380, 87.82344055175781, -38.66153335571289, -25.701486587524414, 6.2847466468811035, 7.745680332183838, 0.1768186092376709, 1.718638300895691, -3.1757423877716064, 0.6595921516418457, -0.90234375, -0.03076171875, 0.36669921875, 0, 
89, 2069430713, 87.8223648071289, -38.6620979309082, -25.700607299804688, 5.933218002319336, 7.660221576690674, 0.2921035587787628, 1.7518855333328247, -3.1609628200531006, 0.6443004012107849, -0.90283203125, -0.033203125, 0.3759765625, 0, 
90, 2069439046, 87.82240295410156, -38.661930084228516, -25.701793670654297, 5.863923072814941, 7.585206031799316, 0.45172786712646484, 1.7395648956298828, -3.354708671569824, 0.5504498481750488, -0.900390625, -0.03271484375, 0.376953125, 0, 
91, 2069447379, 87.8238296508789, -38.662506103515625, -25.703264236450195, 6.128605842590332, 7.619828224182129, 0.3051466941833496, 1.875294804573059, -3.3791449069976807, 0.6380762457847595, -0.900390625, -0.03369140625, 0.37939453125, 0, 
92, 2069455712, 87.8246841430664, -38.662410736083984, -25.702985763549805, 6.433688640594482, 7.800607681274414, 0.2950275242328644, 1.9425833225250244, -3.2154953479766846, 0.5665099620819092, -0.89990234375, -0.0322265625, 0.376953125, 0, 
93, 2069464045, 87.82373809814453, -38.66197967529297, -25.70171546936035, 6.3236165046691895, 7.840465068817139, 0.16230161488056183, 1.8004757165908813, -3.121312141418457, 0.5276020169258118, -0.89892578125, -0.033203125, 0.37744140625, 0, 
94, 2069472378, 87.8225326538086, -38.66120529174805, -25.700145721435547, 6.043848991394043, 7.675845623016357, 0.2012263834476471, 1.7924844026565552, -3.0928807258605957, 0.4898722767829895, -0.89990234375, -0.0341796875, 0.37890625, 0, 
95, 2069480711, 87.82182312011719, -38.66091537475586, -25.699880599975586, 5.948091983795166, 7.535123825073242, 0.3711360991001129, 1.751091480255127, -3.2140612602233887, 0.5402042269706726, -0.8984375, -0.0341796875, 0.38037109375, 0, 
96, 2069489044, 87.8233642578125, -38.66041564941406, -25.70183563232422, 5.987810134887695, 7.561415195465088, 0.3467571437358856, 1.8585429191589355, -3.4237136840820312, 0.5095183253288269, -0.8994140625, -0.0341796875, 0.3798828125, 0, 
97, 2069497377, 87.82572937011719, -38.66017532348633, -25.703710556030273, 6.3209428787231445, 7.702178955078125, 0.30791404843330383, 1.961614727973938, -3.4149532318115234, 0.5376171469688416, -0.900390625, -0.0322265625, 0.3798828125, 0, 
98, 2069505710, 87.82471466064453, -38.66009521484375, -25.7031307220459, 6.4425435066223145, 7.845157146453857, 0.18174105882644653, 1.7416908740997314, -3.1890103816986084, 0.5693787932395935, -0.89990234375, -0.03271484375, 0.3779296875, 0, 
99, 2069514043, 87.82334899902344, -38.66035842895508, -25.70067024230957, 6.0965728759765625, 7.774392604827881, 0.18364322185516357, 1.8373345136642456, -3.009916067123413, 0.6155868768692017, -0.89794921875, -0.0322265625, 0.37841796875, 0, 
100, 2069522376, 87.82275390625, -38.66062927246094, -25.699949264526367, 5.843735694885254, 7.644273281097412, 0.33231207728385925, 1.8007571697235107, -3.1771249771118164, 0.6101822257041931, -0.89990234375, -0.0322265625, 0.37841796875, 0, 
101, 2069530709, 87.82471466064453, -38.661643981933594, -25.70382308959961, 5.959290981292725, 7.552402973175049, 0.43400800228118896, 1.9185829162597656, -3.4129557609558105, 0.6914306282997131, -0.9013671875, -0.0341796875, 0.38037109375, 0, 
102, 2069539042, 87.82704162597656, -38.66202163696289, -25.706350326538086, 6.181718349456787, 7.572460174560547, 0.3225346803665161, 1.9082605838775635, -3.4816274642944336, 0.6104127764701843, -0.8994140625, -0.033203125, 0.37939453125, 0, 
103, 2069547375, 87.82732391357422, -38.66201400756836, -25.706790924072266, 6.4541497230529785, 7.750509262084961, 0.22493255138397217, 1.8473238945007324, -3.247051954269409, 0.5745784044265747, -0.8974609375, -0.03271484375, 0.37744140625, 0, 
104, 2069555708, 87.82638549804688, -38.662227630615234, -25.70551109313965, 6.361559867858887, 7.736631393432617, 0.14273667335510254, 1.8020380735397339, -3.123872995376587, 0.6053410768508911, -0.8994140625, -0.033203125, 0.37939453125, 0, 
105, 2069564041, 87.8253173828125, -38.66209411621094, -25.705801010131836, 5.970855712890625, 7.659732341766357, 0.3031144142150879, 1.788334846496582, -3.111553430557251, 0.564537763595581, -0.8994140625, -0.03173828125, 0.37841796875, 0, 
106, 2069572374, 87.82523345947266, -38.6622428894043, -25.706335067749023, 5.905813217163086, 7.601539134979248, 0.4960103929042816, 1.7709169387817383, -3.2951302528381348, 0.5922523140907288, -0.900390625, -0.0322265625, 0.38037109375, 0, 
107, 2069580707, 87.82655334472656, -38.66212844848633, -25.710206985473633, 6.125901699066162, 7.620480060577393, 0.3183448314666748, 1.793483018875122, -3.4672579765319824, 0.5547530651092529, -0.89990234375, -0.0322265625, 0.3798828125, 0, 
108, 2069589040, 87.82775115966797, -38.66132354736328, -25.711130142211914, 6.380902290344238, 7.733540058135986, 0.22627049684524536, 1.8960679769515991, -3.3269431591033936, 0.47452932596206665, -0.90087890625, -0.033203125, 0.3779296875, 0, 
109, 2069597373, 87.82733917236328, -38.662315368652344, -25.706151962280273, 6.342002868652344, 7.751814365386963, 0.1601552963256836, 1.8342865705490112, -3.1627049446105957, 0.6960412859916687, -0.89990234375, -0.033203125, 0.380859375, 0, 
110, 2069605706, 87.8276596069336, -38.6623649597168, -25.705135345458984, 6.0440754890441895, 7.691529750823975, 0.24467960000038147, 1.9342585802078247, -3.1470797061920166, 0.5862072706222534, -0.89794921875, -0.0322265625, 0.376953125, 0, 
111, 2069614039, 87.8274154663086, -38.66251754760742, -25.701026916503906, 5.895577430725098, 7.616199493408203, 0.32780715823173523, 1.792202353477478, -3.237933874130249, 0.5930719375610352, -0.9013671875, -0.03466796875, 0.37939453125, 0, 
112, 2069622372, 87.82781219482422, -38.662353515625, -25.702796936035156, 6.051753520965576, 7.549685001373291, 0.3766103982925415, 1.7354923486709595, -3.4095234870910645, 0.5497326850891113, -0.8994140625, -0.0341796875, 0.37744140625, 0, 
113, 2069630705, 87.82923889160156, -38.662147521972656, -25.70899200439453, 6.354187965393066, 7.689049243927002, 0.3505764603614807, 1.913588047027588, -3.3378286361694336, 0.5480164885520935, -0.89892578125, -0.03369140625, 0.38232421875, 0, 
114, 2069639038, 87.82856750488281, -38.66258239746094, -25.707721710205078, 6.465107440948486, 7.850235462188721, 0.08610578626394272, 1.8320834636688232, -3.125333547592163, 0.6340802907943726, -0.89794921875, -0.0322265625, 0.38037109375, 0, 
115, 2069647371, 87.82723999023438, -38.66350173950195, -25.70487403869629, 6.19187068939209, 7.712301731109619, 0.18156549334526062, 1.7602614164352417, -3.1186225414276123, 0.6909439563751221, -0.9013671875, -0.0341796875, 0.38037109375, 0, 
116, 2069655704, 87.82713317871094, -38.66229248046875, -25.70389747619629, 5.930300235748291, 7.551977634429932, 0.27529576420783997, 1.881980299949646, -3.146029472351074, 0.4327012598514557, -0.8984375, -0.03466796875, 0.38037109375, 0, 
117, 2069664037, 87.82687377929688, -38.66163635253906, -25.696369171142578, 5.937370300292969, 7.553229331970215, 0.40430518984794617, 1.7607992887496948, -3.266749858856201, 0.49427786469459534, -0.900390625, -0.033203125, 0.37841796875, 0, 
118, 2069672370, 87.83007049560547, -38.661861419677734, -25.69845199584961, 6.193482875823975, 7.612417697906494, 0.29270005226135254, 2.046910285949707, -3.439415216445923, 0.594788134098053, -0.90185546875, -0.03271484375, 0.37841796875, 0, 
119, 2069680703, 87.82986450195312, -38.6611213684082, -25.693603515625, 6.467352867126465, 7.800500869750977, 0.24976897239685059, 1.8474777936935425, -3.1802759170532227, 0.4892318844795227, -0.8994140625, -0.0322265625, 0.37890625, 0, 
120, 2069689036, 87.82931518554688, -38.66139221191406, -25.692829132080078, 6.278934001922607, 7.836173057556152, 0.17253467440605164, 1.813462257385254, -3.173334836959839, 0.610797107219696, -0.8984375, -0.0341796875, 0.38037109375, 0, 
121, 2069697369, 87.82820892333984, -38.661624908447266, -25.694904327392578, 5.873973369598389, 7.7316131591796875, 0.26831483840942383, 1.7409738302230835, -3.1704912185668945, 0.6050593852996826, -0.89990234375, -0.03271484375, 0.37841796875, 0, 
122, 2069705702, 87.82803344726562, -38.661197662353516, -25.69532585144043, 5.930194854736328, 7.516122341156006, 0.3647622764110565, 1.767561435699463, -3.2794032096862793, 0.5227864980697632, -0.89892578125, -0.03515625, 0.37890625, 0, 
123, 2069714035, 87.82960510253906, -38.66025161743164, -25.69917869567871, 6.104303359985352, 7.521374702453613, 0.3353751301765442, 1.9260367155075073, -3.335805654525757, 0.4601341187953949, -0.89892578125, -0.03125, 0.37939453125, 0, 
124, 2069722368, 87.83080291748047, -38.65916061401367, -25.69952392578125, 6.358236312866211, 7.758691310882568, 0.2836150825023651, 1.9385876655578613, -3.271104097366333, 0.444765567779541, -0.89990234375, -0.0322265625, 0.37841796875, 0, 
125, 2069730701, 87.83045196533203, -38.65934371948242, -25.7005672454834, 6.456284046173096, 7.792155742645264, 0.07883650809526443, 1.7654353380203247, -3.2550179958343506, 0.59417325258255, -0.8994140625, -0.033203125, 0.37890625, 0, 
126, 2069739034, 87.82919311523438, -38.6594352722168, -25.699016571044922, 6.0776872634887695, 7.702634334564209, 0.23610660433769226, 1.7866954803466797, -3.0975677967071533, 0.5923805236816406, -0.89990234375, -0.0341796875, 0.380859375, 0, 
127, 2069747367, 87.82849884033203, -38.65850067138672, -25.703388214111328, 5.833461761474609, 7.620327472686768, 0.42412036657333374, 1.7472749948501587, -3.2155723571777344, 0.46477025747299194, -0.8984375, -0.03466796875, 0.37939453125, 0, 
128, 2069755700, 87.8288803100586, -38.6588249206543, -25.70474624633789, 6.017512798309326, 7.610944747924805, 0.3539717197418213, 1.7649487257003784, -3.3717424869537354, 0.6111555695533752, -0.8984375, -0.0341796875, 0.37890625, 0, 
129, 2069764033, 87.830322265625, -38.65955352783203, -25.71044921875, 6.337703227996826, 7.687062740325928, 0.24162498116493225, 1.8474010229110718, -3.422023296356201, 0.6523945331573486, -0.89990234375, -0.03369140625, 0.37890625, 0, 
130, 2069772366, 87.82904815673828, -38.66017532348633, -25.708568572998047, 6.397104263305664, 7.785861968994141, 0.23840877413749695, 1.8065975904464722, -3.069187879562378, 0.6594641804695129, -0.9013671875, -0.03369140625, 0.37939453125, 0, 
131, 2069780699, 87.8282699584961, -38.66121292114258, -25.708179473876953, 6.150865077972412, 7.718994140625, 0.19576235115528107, 1.811131238937378, -3.1312248706817627, 0.7020861506462097, -0.89990234375, -0.03369140625, 0.3779296875, 0, 
132, 2069789032, 87.82670593261719, -38.660404205322266, -25.70729637145996, 5.935145378112793, 7.641766548156738, 0.25346267223358154, 1.6986079216003418, -3.157120704650879, 0.48234161734580994, -0.900390625, -0.0322265625, 0.37939453125, 0, 
133, 2069797365, 87.8267593383789, -38.65989685058594, -25.706161499023438, 5.941349983215332, 7.575565338134766, 0.42272916436195374, 1.8097224235534668, -3.247411012649536, 0.512796938419342, -0.900390625, -0.03173828125, 0.3779296875, 0, 
134, 2069805698, 87.82888793945312, -38.658660888671875, -25.70780372619629, 6.198798179626465, 7.641521453857422, 0.3487809896469116, 1.9502676725387573, -3.3910555839538574, 0.42312151193618774, -0.89892578125, -0.03466796875, 0.37841796875, 0, 
135, 2069814031, 87.82832336425781, -38.659446716308594, -25.703678131103516, 6.463415145874023, 7.836631774902344, 0.16944928467273712, 1.7797538042068481, -3.2023298740386963, 0.6694793105125427, -0.900390625, -0.033203125, 0.37939453125, 0, 
136, 2069822364, 87.82745361328125, -38.66029357910156, -25.70273208618164, 6.266336441040039, 7.7515130043029785, 0.11670716106891632, 1.7879247665405273, -3.15801739692688, 0.6818252801895142, -0.9013671875, -0.0341796875, 0.38037109375, 0, 
137, 2069830697, 87.82472229003906, -38.660072326660156, -25.700748443603516, 5.912992000579834, 7.60435676574707, 0.2947881519794464, 1.6742489337921143, -3.011376142501831, 0.5564693212509155, -0.90087890625, -0.03271484375, 0.37939453125, 0, 
138, 2069839030, 87.8243637084961, -38.65995788574219, -25.700450897216797, 5.9019060134887695, 7.533327102661133, 0.4614272117614746, 1.7962749004364014, -3.2146754264831543, 0.5637692809104919, -0.89892578125, -0.03466796875, 0.38134765625, 0, 
139, 2069847363, 87.82658386230469, -38.659889221191406, -25.703601837158203, 6.077981948852539, 7.579290866851807, 0.2864602506160736, 1.9015494585037231, -3.4657979011535645, 0.5590050220489502, -0.8994140625, -0.03369140625, 0.37744140625, 0, 
140, 2069855696, 87.8271484375, -38.66024398803711, -25.703516006469727, 6.41599702835083, 7.730462551116943, 0.2563055157661438, 1.8950691223144531, -3.237011671066284, 0.6165090203285217, -0.89892578125, -0.03369140625, 0.37939453125, 0, 
141, 2069864029, 87.8260269165039, -38.65987014770508, -25.70171546936035, 6.414114475250244, 7.816092491149902, 0.16309823095798492, 1.816740870475769, -3.0732858180999756, 0.5378221273422241, -0.90234375, -0.03271484375, 0.365234375, 0, 
142, 2069872362, 87.82484436035156, -38.66094207763672, -25.70089340209961, 6.043417930603027, 7.736703395843506, 0.23024924099445343, 1.7400773763656616, -3.172694206237793, 0.707260251045227, -0.90380859375, -0.03125, 0.36279296875, 0, 
143, 2069880695, 87.82341766357422, -38.66122817993164, -25.700597763061523, 5.899702072143555, 7.576888084411621, 0.3594609200954437, 1.6683831214904785, -3.21142315864563, 0.6106433868408203, -0.904296875, -0.0322265625, 0.36328125, 0, 
144, 2069889028, 87.82504272460938, -38.66107177734375, -25.702129364013672, 6.0035247802734375, 7.510282516479492, 0.3587746024131775, 1.899039387702942, -3.3858559131622314, 0.5517305731773376, -0.90380859375, -0.0322265625, 0.3642578125, 0, 
145, 2069897361, 87.826171875, -38.66122817993164, -25.703401565551758, 6.249650478363037, 7.6200127601623535, 0.30024468898773193, 1.8573391437530518, -3.3607535362243652, 0.5887942910194397, -0.90380859375, -0.033203125, 0.36669921875, 0, 
146, 2069905694, 87.82505798339844, -38.66142654418945, -25.702096939086914, 6.4671525955200195, 7.7870869636535645, 0.1805901676416397, 1.7846461534500122, -3.123361349105835, 0.6034457087516785, -0.90478515625, -0.03125, 0.36474609375, 0, 
147, 2069914027, 87.82386016845703, -38.66135787963867, -25.69969367980957, 6.2208781242370605, 7.752577304840088, 0.16063664853572845, 1.8517554998397827, -3.014756917953491, 0.5767300724983215, -0.9033203125, -0.03271484375, 0.36767578125, 0, 
148, 2069922360, 87.82239532470703, -38.66047286987305, -25.69869041442871, 5.910093784332275, 7.667169094085693, 0.3710218369960785, 1.720508337020874, -3.1457481384277344, 0.47255703806877136, -0.9033203125, -0.0322265625, 0.36669921875, 0, 
149, 2069930693, 87.82328033447266, -38.66065979003906, -25.699790954589844, 5.9513654708862305, 7.573727607727051, 0.42355799674987793, 1.8417915105819702, -3.345615863800049, 0.5915094614028931, -0.90185546875, -0.03271484375, 0.36865234375, 0, 
150, 2069939026, 87.8251724243164, -38.660545349121094, -25.701374053955078, 6.229770660400391, 7.626800537109375, 0.3183669149875641, 1.9267282485961914, -3.388929605484009, 0.5573912858963013, -0.9033203125, -0.03271484375, 0.36767578125, 0, 
151, 2069947359, 87.82518005371094, -38.660858154296875, -25.701887130737305, 6.415671348571777, 7.812807559967041, 0.23067285120487213, 1.7800356149673462, -3.2906222343444824, 0.6109507083892822, -0.90673828125, -0.0322265625, 0.36767578125, 0, 
152, 2069955692, 87.8245620727539, -38.66061782836914, -25.701337814331055, 6.2938127517700195, 7.7586517333984375, 0.18526875972747803, 1.7853375673294067, -3.1893177032470703, 0.5486311912536621, -0.9033203125, -0.03271484375, 0.36865234375, 0, 
153, 2069964025, 87.82386779785156, -38.66041564941406, -25.70094871520996, 5.991456508636475, 7.6537766456604, 0.2379540503025055, 1.7623361349105835, -3.202944755554199, 0.5522941946983337, -0.90234375, -0.03369140625, 0.3681640625, 0, 
154, 2069972358, 87.82374572753906, -38.66038131713867, -25.700891494750977, 5.913486480712891, 7.602496147155762, 0.412320077419281, 1.8090050220489502, -3.2365758419036865, 0.5726317763328552, -0.904296875, -0.03271484375, 0.369140625, 0, 
155, 2069980691, 87.82495880126953, -38.660282135009766, -25.701505661010742, 6.043333053588867, 7.621181964874268, 0.36346888542175293, 1.9153555631637573, -3.2977685928344727, 0.5610541701316833, -0.90380859375, -0.03369140625, 0.36767578125, 0, 
156, 2069989024, 87.8260726928711, -38.66047286987305, -25.701923370361328, 6.396977424621582, 7.775055885314941, 0.33082151412963867, 1.922092080116272, -3.2830657958984375, 0.5967603325843811, -0.90283203125, -0.03271484375, 0.36767578125, 0, 
157, 2069997357, 87.82434844970703, -38.6601448059082, -25.700820922851562, 6.38035249710083, 7.817091464996338, 0.1497071236371994, 1.6930497884750366, -3.1356050968170166, 0.5387698411941528, -0.904296875, -0.03125, 0.369140625, 0, 
158, 2070005690, 87.82353973388672, -38.66120147705078, -25.700397491455078, 6.070489406585693, 7.7003254890441895, 0.19674284756183624, 1.7569571733474731, -3.209296941757202, 0.7054417133331299, -0.90478515625, -0.0341796875, 0.36767578125, 0, 
159, 2070014023, 87.82250213623047, -38.66080093383789, -25.6998291015625, 5.942524433135986, 7.549296855926514, 0.33061009645462036, 1.7342370748519897, -3.1848862171173096, 0.5285753011703491, -0.90234375, -0.03125, 0.36865234375, 0, 
160, 2070022356, 87.82341766357422, -38.66039276123047, -25.701000213623047, 5.99893856048584, 7.547034740447998, 0.36932721734046936, 1.8420988321304321, -3.351123332977295, 0.5223766565322876, -0.90283203125, -0.0322265625, 0.3662109375, 0, 
161, 2070030689, 87.82625579833984, -38.660728454589844, -25.704153060913086, 6.224250316619873, 7.663986682891846, 0.31028228998184204, 1.9195563793182373, -3.5376458168029785, 0.6045728325843811, -0.9033203125, -0.03125, 0.36865234375, 0, 
162, 2070039022, 87.82611846923828, -38.66154098510742, -25.703872680664062, 6.490203380584717, 7.79998779296875, 0.17922446131706238, 1.8257825374603271, -3.220080614089966, 0.675652265548706, -0.90283203125, -0.03271484375, 0.369140625, 0, 
163, 2070047355, 87.82552337646484, -38.661033630371094, -25.702564239501953, 6.210652828216553, 7.821850776672363, 0.18133679032325745, 1.8434818983078003, -3.116394281387329, 0.5177148580551147, -0.9033203125, -0.033203125, 0.37158203125, 0, 
164, 2070055688, 87.82477569580078, -38.66151428222656, -25.70260238647461, 5.852508068084717, 7.7224225997924805, 0.3003406226634979, 1.7249137163162231, -3.248358726501465, 0.6322873830795288, -0.9052734375, -0.03173828125, 0.369140625, 0, 
165, 2070064021, 87.82505798339844, -38.661964416503906, -25.70412254333496, 5.948247909545898, 7.539972305297852, 0.3703499734401703, 1.7373366355895996, -3.3835506439208984, 0.6246287226676941, -0.9033203125, -0.03125, 0.36865234375, 0, 
166, 2070072354, 87.82736206054688, -38.662200927734375, -25.70555877685547, 6.137881755828857, 7.534641742706299, 0.2845529019832611, 1.990635633468628, -3.380092144012451, 0.5980154871940613, -0.90478515625, -0.03369140625, 0.36962890625, 0, 
167, 2070080687, 87.82794189453125, -38.66218566894531, -25.706140518188477, 6.3874101638793945, 7.754220008850098, 0.24661821126937866, 1.8411508798599243, -3.29441237449646, 0.5725036263465881, -0.90283203125, -0.03076171875, 0.36767578125, 0, 
168, 2070089020, 87.8267593383789, -38.662960052490234, -25.704906463623047, 6.428660869598389, 7.780701160430908, 0.16221842169761658, 1.77165949344635, -3.1313271522521973, 0.6718612909317017, -0.9052734375, -0.03369140625, 0.36767578125, 0, 
169, 2070097353, 87.82472229003906, -38.6623420715332, -25.70232582092285, 6.07770299911499, 7.721099376678467, 0.2117644101381302, 1.7658199071884155, -2.9956746101379395, 0.5100306868553162, -0.9033203125, -0.033203125, 0.3671875, 0, 
170, 2070105686, 87.8232192993164, -38.662109375, -25.700407028198242, 5.868706703186035, 7.635777950286865, 0.4126026928424835, 1.7834678888320923, -3.0633983612060547, 0.555086076259613, -0.90478515625, -0.03515625, 0.3681640625, 0, 
171, 2070114019, 87.82456970214844, -38.66135025024414, -25.70162010192871, 6.021678924560547, 7.6060614585876465, 0.36915555596351624, 1.8852585554122925, -3.3491761684417725, 0.47983142733573914, -0.904296875, -0.0322265625, 0.36865234375, 0, 
172, 2070122352, 87.82540130615234, -38.66175079345703, -25.702669143676758, 6.352463722229004, 7.649338722229004, 0.3063566982746124, 1.8439686298370361, -3.3440024852752686, 0.6198644638061523, -0.90380859375, -0.03076171875, 0.369140625, 0, 
173, 2070130685, 87.82469177246094, -38.66175079345703, -25.701602935791016, 6.382908821105957, 7.725000858306885, 0.1743975430727005, 1.8108494281768799, -3.1398820877075195, 0.579060971736908, -0.90283203125, -0.0322265625, 0.36865234375, 0, 
174, 2070139018, 87.82438659667969, -38.66239547729492, -25.701168060302734, 6.103421688079834, 7.756248474121094, 0.17315983772277832, 1.8141535520553589, -3.2048141956329346, 0.654443621635437, -0.90185546875, -0.03173828125, 0.36865234375, 0, 
175, 2070147351, 87.82286834716797, -38.663692474365234, -25.700740814208984, 5.921759128570557, 7.668370246887207, 0.3203573524951935, 1.6696382761001587, -3.2091434001922607, 0.7313632369041443, -0.90478515625, -0.033203125, 0.3662109375, 0, 
176, 2070155684, 87.82259368896484, -38.663429260253906, -25.701793670654297, 6.003995895385742, 7.552506923675537, 0.4270009994506836, 1.7065993547439575, -3.3398780822753906, 0.5411518216133118, -0.90185546875, -0.03369140625, 0.36865234375, 0, 
177, 2070164017, 87.82504272460938, -38.663421630859375, -25.704801559448242, 6.249570846557617, 7.622011661529541, 0.3539280593395233, 1.882723093032837, -3.521918773651123, 0.5624629259109497, -0.9013671875, -0.03173828125, 0.37158203125, 0, 
178, 2070172350, 87.82496643066406, -38.6636848449707, -25.704833984375, 6.487333297729492, 7.797022342681885, 0.18121568858623505, 1.8083906173706055, -3.246258497238159, 0.6088503003120422, -0.8994140625, -0.03369140625, 0.36962890625, 0, 
179, 2070180683, 87.82292175292969, -38.664154052734375, -25.702564239501953, 6.264842987060547, 7.724619388580322, 0.13573601841926575, 1.744150161743164, -3.0297160148620605, 0.6380762457847595, -0.90234375, -0.03173828125, 0.3671875, 0, 
180, 2070189016, 87.82182312011719, -38.66415786743164, -25.701297760009766, 5.928410530090332, 7.610326766967773, 0.32216548919677734, 1.7836471796035767, -3.1263837814331055, 0.580367386341095, -0.90234375, -0.03173828125, 0.36572265625, 0, 
181, 2070197349, 87.82123565673828, -38.66345977783203, -25.701705932617188, 5.9235005378723145, 7.561800479888916, 0.35948970913887024, 1.7145655155181885, -3.2747669219970703, 0.4913322329521179, -0.90234375, -0.03173828125, 0.36962890625, 0, 
182, 2070205682, 87.82231903076172, -38.662994384765625, -25.70323371887207, 6.087475776672363, 7.579776287078857, 0.270956426858902, 1.8392558097839355, -3.385702133178711, 0.5130530595779419, -0.9033203125, -0.033203125, 0.36865234375, 0, 
183, 2070214015, 87.82306671142578, -38.66243362426758, -25.7040958404541, 6.400912761688232, 7.721119403839111, 0.30751606822013855, 1.8389226198196411, -3.318182945251465, 0.5060091018676758, -0.90283203125, -0.03125, 0.36767578125, 0, 
184, 2070222348, 87.82218933105469, -38.662315368652344, -25.702823638916016, 6.366048336029053, 7.81514835357666, 0.20984157919883728, 1.809210181236267, -3.1221060752868652, 0.5647682547569275, -0.90234375, -0.03515625, 0.3740234375, 0, 
185, 2070230681, 87.82109069824219, -38.66243362426758, -25.7012939453125, 5.990119934082031, 7.790006637573242, 0.21431374549865723, 1.8003734350204468, -3.098464250564575, 0.5949931144714355, -0.90185546875, -0.033203125, 0.376953125, 0, 
186, 2070239014, 87.81967163085938, -38.66291427612305, -25.7006893157959, 5.944391250610352, 7.562540531158447, 0.331943154335022, 1.6942535638809204, -3.1887028217315674, 0.6346182227134705, -0.89990234375, -0.03466796875, 0.37939453125, 0, 
187, 2070247347, 87.82130432128906, -38.66290283203125, -25.702056884765625, 6.058629035949707, 7.455663681030273, 0.3476504385471344, 1.9094643592834473, -3.367259979248047, 0.5699935555458069, -0.8994140625, -0.0341796875, 0.37939453125, 0, 
188, 2070255680, 87.82318115234375, -38.662166595458984, -25.70259666442871, 6.280088901519775, 7.673614978790283, 0.30465665459632874, 2.0071310997009277, -3.291826009750366, 0.4860300123691559, -0.896484375, -0.033203125, 0.380859375, 0, 
189, 2070264013, 87.82449340820312, -38.661075592041016, -25.703306198120117, 6.484940528869629, 7.817776203155518, 0.12904112040996552, 1.9206318855285645, -3.3017897605895996, 0.4414100646972656, -0.90087890625, -0.03271484375, 0.38037109375, 0, 
190, 2070272346, 87.82401275634766, -38.661041259765625, -25.701736450195312, 6.221292495727539, 7.750301837921143, 0.1914726048707962, 1.879495620727539, -3.0954418182373047, 0.5765507817268372, -0.90234375, -0.03271484375, 0.38134765625, 0, 
191, 2070280679, 87.82364654541016, -38.660457611083984, -25.701536178588867, 5.831562519073486, 7.667318344116211, 0.3700133264064789, 1.7861058712005615, -3.2189531326293945, 0.5057017803192139, -0.89892578125, -0.03271484375, 0.37939453125, 0, 
192, 2070289012, 87.82415771484375, -38.66025924682617, -25.703392028808594, 5.931427955627441, 7.639955520629883, 0.43026021122932434, 1.7424336671829224, -3.4157474040985107, 0.5459417104721069, -0.8994140625, -0.03125, 0.376953125, 0, 
193, 2070297345, 87.82923126220703, -38.667320251464844, -25.70427131652832, 6.230411052703857, 7.622833728790283, 0.303859144449234, 1.855111002922058, -3.527707576751709, 0.48495426774024963, -0.90087890625, -0.03271484375, 0.3798828125, 0, 
194, 2070305678, 87.8294677734375, -38.667301177978516, -25.70415687561035, 6.415542125701904, 7.752904891967773, 0.2112130969762802, 1.8553670644760132, -3.233323335647583, 0.5734770894050598, -0.900390625, -0.03125, 0.37890625, 0, 
195, 2070314011, 87.82963562011719, -38.668426513671875, -25.702856063842773, 6.269826889038086, 7.765496253967285, 0.16713102161884308, 1.8992698192596436, -3.169466972351074, 0.7108718752861023, -0.89794921875, -0.0322265625, 0.37890625, 0, 
196, 2070322344, 87.8287582397461, -38.66835021972656, -25.702045440673828, 6.044739246368408, 7.6809163093566895, 0.21932679414749146, 1.775732398033142, -3.166905403137207, 0.5697630047798157, -0.9013671875, -0.03173828125, 0.37890625, 0, 
197, 2070330677, 87.827880859375, -38.66756057739258, -25.708446502685547, 5.948680877685547, 7.580012798309326, 0.3840045630931854, 1.7609785795211792, -3.174487590789795, 0.4819830358028412, -0.9013671875, -0.03271484375, 0.37744140625, 0, 
198, 2070339010, 87.82921600341797, -38.667171478271484, -25.710390090942383, 6.053968906402588, 7.573885440826416, 0.39085647463798523, 1.831904411315918, -3.423278331756592, 0.5222485661506653, -0.8994140625, -0.0341796875, 0.37841796875, 0, 
199, 2070347343, 87.8304672241211, -38.666358947753906, -25.7177734375, 6.4359636306762695, 7.781111717224121, 0.23606882989406586, 1.9321587085723877, -3.2856788635253906, 0.4745549261569977, -0.900390625, -0.033203125, 0.37744140625, 0, 
200, 2070355676, 87.82867431640625, -38.66621398925781, -25.715723037719727, 6.3933939933776855, 7.79582405090332, 0.13934208452701569, 1.7567522525787354, -3.0498228073120117, 0.5652037262916565, -0.900390625, -0.03466796875, 0.38134765625, 0, 
201, 2070364009, 87.8271484375, -38.66651916503906, -25.713912963867188, 5.976624965667725, 7.682472229003906, 0.2517823278903961, 1.7368757724761963, -3.1135001182556152, 0.6167908310890198, -0.89892578125, -0.03173828125, 0.37890625, 0, 
202, 2070372342, 87.82758331298828, -38.66506576538086, -25.715307235717773, 5.878753662109375, 7.584834575653076, 0.3637053370475769, 1.768227458000183, -3.367849111557007, 0.39417746663093567, -0.900390625, -0.033203125, 0.3818359375, 0, 
203, 2070380675, 87.8285140991211, -38.66583251953125, -25.71533203125, 6.037435054779053, 7.56685209274292, 0.3087157607078552, 1.8731430768966675, -3.307143449783325, 0.6655858755111694, -0.89892578125, -0.0322265625, 0.37939453125, 0, 
204, 2070389008, 87.83014678955078, -38.66582107543945, -25.716581344604492, 6.315411567687988, 7.64952278137207, 0.24705031514167786, 1.921631097793579, -3.361112594604492, 0.5691226720809937, -0.9013671875, -0.03369140625, 0.37939453125, 0, 
205, 2070397341, 87.82978057861328, -38.66554641723633, -25.717390060424805, 6.43818473815918, 7.784329891204834, 0.19499948620796204, 1.8092358112335205, -3.195209264755249, 0.5449427962303162, -0.89990234375, -0.03369140625, 0.38134765625, 0, 
206, 2070405674, 87.82872009277344, -38.666343688964844, -25.71536636352539, 6.159024238586426, 7.813528537750244, 0.18216702342033386, 1.8456851243972778, -3.059889554977417, 0.6759084463119507, -0.8994140625, -0.0341796875, 0.37841796875, 0, 
207, 2070414007, 87.82779693603516, -38.66606140136719, -25.716890335083008, 5.916261196136475, 7.683358669281006, 0.30853766202926636, 1.7043455839157104, -3.2388556003570557, 0.5419203639030457, -0.8994140625, -0.033203125, 0.38037109375, 0, 
208, 2070422340, 87.82769012451172, -38.665958404541016, -25.717838287353516, 5.935354232788086, 7.539036273956299, 0.3860200047492981, 1.7342373132705688, -3.331169605255127, 0.5580060482025146, -0.89892578125, -0.033203125, 0.37841796875, 0, 
209, 2070430673, 87.8288345336914, -38.666603088378906, -25.717273712158203, 6.116580963134766, 7.567434787750244, 0.3046141564846039, 1.83884596824646, -3.388878345489502, 0.6479120850563049, -0.89697265625, -0.03369140625, 0.37841796875, 0, 
210, 2070439006, 87.8297348022461, -38.666526794433594, -25.718292236328125, 6.4244489669799805, 7.72548246383667, 0.2034786194562912, 1.8516781330108643, -3.3376235961914062, 0.5634618401527405, -0.8994140625, -0.03271484375, 0.37939453125, 0, 
211, 2070447339, 87.82928466796875, -38.667274475097656, -25.717300415039062, 6.328122615814209, 7.771334171295166, 0.15152417123317719, 1.7829043865203857, -3.2224113941192627, 0.6647661328315735, -0.900390625, -0.03369140625, 0.37744140625, 0, 
212, 2070455672, 87.82843017578125, -38.66704559326172, -25.716453552246094, 5.992111682891846, 7.722203254699707, 0.2733960449695587, 1.7813674211502075, -3.1636524200439453, 0.5503473877906799, -0.89892578125, -0.03271484375, 0.38037109375, 0, 
213, 2070464005, 87.82846069335938, -38.666725158691406, -25.717697143554688, 5.919825077056885, 7.607848167419434, 0.40735524892807007, 1.7489911317825317, -3.324279308319092, 0.5340824127197266, -0.89892578125, -0.0322265625, 0.37890625, 0, 
214, 2070472338, 87.8287353515625, -38.66695785522461, -25.71813201904297, 6.093257904052734, 7.5709228515625, 0.36339664459228516, 1.8193790912628174, -3.2859606742858887, 0.6009867787361145, -0.90087890625, -0.033203125, 0.37890625, 0, 
215, 2070480671, 87.82886505126953, -38.666534423828125, -25.71862030029297, 6.357724189758301, 7.721045970916748, 0.300672322511673, 1.8027042150497437, -3.269926071166992, 0.5235292911529541, -0.8994140625, -0.03271484375, 0.37841796875, 0, 
216, 2070489004, 87.8288803100586, -38.66654968261719, -25.719213485717773, 6.368938446044922, 7.783127307891846, 0.15433979034423828, 1.777653455734253, -3.2998688220977783, 0.5752444863319397, -0.89990234375, -0.03369140625, 0.37744140625, 0, 
217, 2070497337, 87.8276138305664, -38.66682815551758, -25.719911575317383, 6.069599151611328, 7.681005477905273, 0.22282123565673828, 1.7413322925567627, -3.1474127769470215, 0.6107969880104065, -0.8974609375, -0.03271484375, 0.375, 0, 
218, 2070505670, 87.82747650146484, -38.66629409790039, -25.7198486328125, 5.909853935241699, 7.63760232925415, 0.3524661064147949, 1.807827115058899, -3.2343478202819824, 0.5122590661048889, -0.900390625, -0.03466796875, 0.37890625, 0, 
219, 2070514003, 87.8282470703125, -38.667137145996094, -25.72486686706543, 5.982666969299316, 7.604745864868164, 0.36983275413513184, 1.8004757165908813, -3.379887819290161, 0.669043779373169, -0.89990234375, -0.03466796875, 0.37744140625, 0, 
220, 2070522336, 87.83048248291016, -38.667030334472656, -25.72685432434082, 6.314988613128662, 7.637611389160156, 0.373478502035141, 1.9390230178833008, -3.4289391040802, 0.5558289289474487, -0.8994140625, -0.033203125, 0.37744140625, 0, 
221, 2070530669, 87.82952880859375, -38.66727828979492, -25.722545623779297, 6.446030616760254, 7.818239688873291, 0.18988855183124542, 1.76827871799469, -3.1590421199798584, 0.6083124876022339, -0.90185546875, -0.03466796875, 0.37841796875, 0, 
222, 2070539002, 87.82847595214844, -38.66777038574219, -25.720443725585938, 6.202232360839844, 7.77475118637085, 0.14336037635803223, 1.8516019582748413, -3.0486960411071777, 0.6413548588752747, -0.8974609375, -0.03271484375, 0.37939453125, 0, 
223, 2070547335, 87.82661437988281, -38.66769027709961, -25.719511032104492, 5.938931465148926, 7.567058563232422, 0.32848891615867615, 1.649505615234375, -3.173283815383911, 0.5681750178337097, -0.90185546875, -0.0341796875, 0.37646484375, 0, 
224, 2070555668, 87.82735443115234, -38.667808532714844, -25.720748901367188, 5.961719036102295, 7.524530410766602, 0.3761746883392334, 1.8140512704849243, -3.3584487438201904, 0.5865147709846497, -0.89990234375, -0.03173828125, 0.38037109375, 0, 
225, 2070564001, 87.82938385009766, -38.666847229003906, -25.72098731994629, 6.125662803649902, 7.6052093505859375, 0.2912730872631073, 1.8958884477615356, -3.445639133453369, 0.44988834857940674, -0.89794921875, -0.03369140625, 0.3759765625, 0, 
226, 2070572334, 87.82918548583984, -38.66613006591797, -25.721208572387695, 6.472896099090576, 7.77030611038208, 0.19840438663959503, 1.7778840065002441, -3.2608585357666016, 0.4885914921760559, -0.89990234375, -0.03466796875, 0.3779296875, 0, 
227, 2070580667, 87.82743072509766, -38.66618728637695, -25.719070434570312, 6.30656623840332, 7.8312907218933105, 0.1583954393863678, 1.7526028156280518, -3.053818702697754, 0.5887431502342224, -0.90087890625, -0.03271484375, 0.3779296875, 0, 
228, 2070589000, 87.82508087158203, -38.666568756103516, -25.716196060180664, 5.897790431976318, 7.735315322875977, 0.23727981746196747, 1.7525259256362915, -2.9760539531707764, 0.6308017373085022, -0.89892578125, -0.033203125, 0.3779296875, 0, 
229, 2070597333, 87.8251953125, -38.66658020019531, -25.714323043823242, 5.910593032836914, 7.565999984741211, 0.4164388179779053, 1.808236837387085, -3.2696187496185303, 0.5761153697967529, -0.9013671875, -0.0322265625, 0.38232421875, 0, 
230, 2070605666, 87.82704162597656, -38.66697692871094, -25.71573829650879, 6.080639362335205, 7.485034942626953, 0.2938082814216614, 1.9374862909317017, -3.3800413608551025, 0.616508960723877, -0.90185546875, -0.033203125, 0.375, 0, 
231, 2070613999, 87.82830047607422, -38.66717529296875, -25.727542877197266, 6.337177753448486, 7.716038227081299, 0.2627283036708832, 1.9157140254974365, -3.2991771697998047, 0.5973238945007324, -0.900390625, -0.0341796875, 0.37890625, 0, 
232, 2070622332, 87.82874298095703, -38.66737365722656, -25.727977752685547, 6.4455180168151855, 7.793701171875, 0.1005181223154068, 1.8410743474960327, -3.2845516204833984, 0.5955565571784973, -0.89990234375, -0.033203125, 0.3798828125, 0, 
233, 2070630665, 87.82820129394531, -38.668216705322266, -25.73029899597168, 6.185727596282959, 7.687783718109131, 0.20458340644836426, 1.8001939058303833, -3.1754605770111084, 0.6794687509536743, -0.8984375, -0.03271484375, 0.37939453125, 0, 
234, 2070638998, 87.82688903808594, -38.66778564453125, -25.728389739990234, 5.8934550285339355, 7.639098644256592, 0.4016006886959076, 1.8057523965835571, -3.062476634979248, 0.5307525992393494, -0.89892578125, -0.03369140625, 0.3798828125, 0, 
235, 2070647331, 87.82850646972656, -38.667667388916016, -25.731056213378906, 5.980618953704834, 7.6345062255859375, 0.4324783682823181, 1.9277015924453735, -3.341568946838379, 0.5581597685813904, -0.89990234375, -0.0322265625, 0.3798828125, 0, 
236, 2070655664, 87.83071899414062, -38.667667388916016, -25.73367691040039, 6.300600051879883, 7.655533790588379, 0.27381694316864014, 1.8879740238189697, -3.487826108932495, 0.5654085874557495, -0.8994140625, -0.03369140625, 0.3798828125, 0, 
237, 2070663997, 87.8299331665039, -38.667510986328125, -25.730497360229492, 6.42495059967041, 7.768337726593018, 0.18314890563488007, 1.8362843990325928, -3.1078648567199707, 0.5606187582015991, -0.89990234375, -0.03076171875, 0.36767578125, 0, 
238, 2070672330, 87.82986450195312, -38.667179107666016, -25.72954750061035, 6.131742477416992, 7.73092794418335, 0.22153854370117188, 1.8809553384780884, -3.1528429985046387, 0.5394868850708008, -0.9033203125, -0.0322265625, 0.36376953125, 0, 
239, 2070680663, 87.82981872558594, -38.66736602783203, -25.729658126831055, 5.907727241516113, 7.688199520111084, 0.2718948721885681, 1.8034982681274414, -3.2521750926971436, 0.5959407687187195, -0.90576171875, -0.03125, 0.36474609375, 0, 
240, 2070688996, 87.82951354980469, -38.66767883300781, -25.72945785522461, 5.997549057006836, 7.568991184234619, 0.44102728366851807, 1.7969666719436646, -3.2265868186950684, 0.6146647930145264, -0.90478515625, -0.03076171875, 0.36328125, 0, 
241, 2070697329, 87.8315658569336, -38.66777038574219, -25.731786727905273, 6.184307098388672, 7.584202289581299, 0.3678772449493408, 1.8873591423034668, -3.4579851627349854, 0.5761409401893616, -0.90576171875, -0.0322265625, 0.36669921875, 0, 
242, 2070705662, 87.83171844482422, -38.66765213012695, -25.732208251953125, 6.44733190536499, 7.819450378417969, 0.22909438610076904, 1.8070071935653687, -3.2833216190338135, 0.5597222447395325, -0.90478515625, -0.03369140625, 0.3662109375, 0, 
243, 2070713995, 87.83026123046875, -38.66798400878906, -25.730480194091797, 6.348641395568848, 7.777169227600098, 0.0927107110619545, 1.7726844549179077, -3.079484462738037, 0.6207354068756104, -0.90234375, -0.0322265625, 0.3662109375, 0, 
244, 2070722328, 87.82942962646484, -38.66753005981445, -25.729108810424805, 5.937454700469971, 7.613662242889404, 0.28684964776039124, 1.8210697174072266, -3.11242413520813, 0.5252199172973633, -0.9033203125, -0.03125, 0.36962890625, 0, 
245, 2070730661, 87.83040618896484, -38.667213439941406, -25.731298446655273, 5.866122722625732, 7.554844379425049, 0.4280339479446411, 1.7689189910888672, -3.4432573318481445, 0.5292413234710693, -0.90478515625, -0.03271484375, 0.3681640625, 0, 
246, 2070738994, 87.83177185058594, -38.66704559326172, -25.73302459716797, 6.058966636657715, 7.616049289703369, 0.2665892243385315, 1.8563404083251953, -3.404400587081909, 0.5486056804656982, -0.90673828125, -0.03271484375, 0.36865234375, 0, 
247, 2070747327, 87.83267211914062, -38.66706466674805, -25.73402976989746, 6.365638256072998, 7.738431453704834, 0.28150227665901184, 1.8490656614303589, -3.335754156112671, 0.5731696486473083, -0.90380859375, -0.03369140625, 0.36767578125, 0, 
248, 2070755660, 87.83245849609375, -38.66672897338867, -25.73421287536621, 6.392323970794678, 7.792574405670166, 0.22480890154838562, 1.7796001434326172, -3.256734609603882, 0.5351582169532776, -0.90380859375, -0.0341796875, 0.36767578125, 0, 
249, 2070763993, 87.83110809326172, -38.667388916015625, -25.733232498168945, 6.076231479644775, 7.768070220947266, 0.188108891248703, 1.727270245552063, -3.153022527694702, 0.6555706858634949, -0.9052734375, -0.03076171875, 0.3671875, 0, 
250, 2070772326, 87.8296890258789, -38.667503356933594, -25.73295783996582, 5.915440082550049, 7.578940391540527, 0.3469189703464508, 1.6706883907318115, -3.21833872795105, 0.5894859433174133, -0.9013671875, -0.0341796875, 0.36962890625, 0, 
251, 2070780659, 87.82958984375, -38.66783142089844, -25.733503341674805, 6.031599998474121, 7.521379470825195, 0.39991286396980286, 1.762617826461792, -3.2928249835968018, 0.6138707399368286, -0.90087890625, -0.03173828125, 0.3701171875, 0, 
252, 2070788992, 87.83164978027344, -38.66703414916992, -25.735248565673828, 6.231681823730469, 7.656800746917725, 0.33180397748947144, 1.9359238147735596, -3.4023258686065674, 0.47230085730552673, -0.9033203125, -0.03125, 0.37060546875, 0, 
253, 2070797325, 87.8318862915039, -38.667423248291016, -25.73570442199707, 6.443051815032959, 7.8120036125183105, 0.1392103135585785, 1.810695767402649, -3.2863190174102783, 0.6197620034217834, -0.9052734375, -0.03173828125, 0.3701171875, 0, 
254, 2070805658, 87.83137512207031, -38.668251037597656, -25.73442268371582, 6.274234294891357, 7.738185882568359, 0.09348301589488983, 1.8524214029312134, -3.126230239868164, 0.6802372336387634, -0.90380859375, -0.03173828125, 0.369140625, 0, 
255, 2070813991, 87.8302993774414, -38.66716766357422, -25.733383178710938, 5.879810810089111, 7.659088134765625, 0.3474831283092499, 1.7652051448822021, -3.1382946968078613, 0.4489150941371918, -0.8994140625, -0.0302734375, 0.37109375, 0, 
256, 2070822324, 87.83040618896484, -38.666748046875, -25.734050750732422, 5.907972812652588, 7.64726448059082, 0.47400763630867004, 1.7829554080963135, -3.3046584129333496, 0.5215569734573364, -0.9033203125, -0.033203125, 0.36962890625, 0, 
257, 2070830657, 87.8313980102539, -38.6663703918457, -25.73503303527832, 6.206045627593994, 7.627651691436768, 0.33189257979393005, 1.8615400791168213, -3.331451416015625, 0.5260395407676697, -0.90380859375, -0.0322265625, 0.37109375, 0, 
258, 2070838990, 87.83129119873047, -38.666255950927734, -25.735090255737305, 6.441564083099365, 7.770388126373291, 0.2532790005207062, 1.803165078163147, -3.2478718757629395, 0.5600808262825012, -0.90185546875, -0.03173828125, 0.369140625, 0, 
259, 2070847323, 87.83006286621094, -38.66646194458008, -25.734407424926758, 6.294119358062744, 7.756745338439941, 0.17926634848117828, 1.7214304208755493, -3.1779708862304688, 0.6007818579673767, -0.90380859375, -0.0341796875, 0.37060546875, 0, 
260, 2070855656, 87.82901763916016, -38.66630172729492, -25.733198165893555, 6.018402576446533, 7.700647830963135, 0.24661684036254883, 1.783851981163025, -3.1288678646087646, 0.5625397562980652, -0.90234375, -0.03076171875, 0.37158203125, 0, 
261, 2070863989, 87.82954406738281, -38.66651153564453, -25.733713150024414, 5.948707580566406, 7.6044230461120605, 0.3555462956428528, 1.8409972190856934, -3.2902634143829346, 0.5974775552749634, -0.9052734375, -0.0341796875, 0.369140625, 0, 
262, 2070872322, 87.82962799072266, -38.6663703918457, -25.734342575073242, 6.029898166656494, 7.6419219970703125, 0.3942391276359558, 1.7835190296173096, -3.3018412590026855, 0.555239737033844, -0.90087890625, -0.0322265625, 0.36767578125, 0, 
263, 2070880655, 87.83077239990234, -38.66626739501953, -25.73598289489746, 6.362416744232178, 7.748006820678711, 0.32691916823387146, 1.8281391859054565, -3.3925669193267822, 0.5586208701133728, -0.9013671875, -0.0302734375, 0.36962890625, 0, 
264, 2070888988, 87.83006286621094, -38.6664924621582, -25.73447608947754, 6.4365129470825195, 7.792148113250732, 0.13162344694137573, 1.8507308959960938, -3.105457067489624, 0.6066475510597229, -0.90380859375, -0.03173828125, 0.3662109375, 0, 
265, 2070897321, 87.82896423339844, -38.66704559326172, -25.73359489440918, 6.0705413818359375, 7.673462867736816, 0.15957540273666382, 1.7497084140777588, -3.1591956615448, 0.6448383331298828, -0.90234375, -0.0302734375, 0.37060546875, 0, 
266, 2070905654, 87.82846069335938, -38.6660270690918, -25.733491897583008, 5.8715057373046875, 7.564111232757568, 0.35967111587524414, 1.766818642616272, -3.2288405895233154, 0.45242419838905334, -0.90380859375, -0.0302734375, 0.36962890625, 0, 
267, 2070913987, 87.82830810546875, -38.6655158996582, -25.734113693237305, 6.031997203826904, 7.5805439949035645, 0.372366338968277, 1.751629114151001, -3.2969486713409424, 0.511003851890564, -0.9072265625, -0.02978515625, 0.36669921875, 0, 
268, 2070922320, 87.83084106445312, -38.6651496887207, -25.736310958862305, 6.300370216369629, 7.688855171203613, 0.30167606472969055, 1.9572861194610596, -3.4467923641204834, 0.5237599015235901, -0.90185546875, -0.03271484375, 0.3701171875, 0, 
269, 2070930653, 87.82980346679688, -38.66476821899414, -25.735733032226562, 6.466121673583984, 7.8046956062316895, 0.1456386297941208, 1.7363377809524536, -3.185732126235962, 0.530726969242096, -0.904296875, -0.03125, 0.3671875, 0, 
270, 2070938986, 87.82820129394531, -38.66463088989258, -25.73351287841797, 6.214287281036377, 7.744937896728516, 0.19312351942062378, 1.7950968742370605, -3.034121513366699, 0.5656903982162476, -0.90283203125, -0.03173828125, 0.3681640625, 0, 
271, 2070947319, 87.82733917236328, -38.664337158203125, -25.73244857788086, 5.8650360107421875, 7.672964572906494, 0.3007427752017975, 1.7933293581008911, -3.1399848461151123, 0.5418691039085388, -0.90283203125, -0.033203125, 0.37060546875, 0, 
272, 2070955652, 87.82923889160156, -38.66413879394531, -25.734149932861328, 5.935983180999756, 7.592015266418457, 0.3863676190376282, 1.919812560081482, -3.4022488594055176, 0.5486312508583069, -0.90625, -0.03076171875, 0.3701171875, 0, 
273, 2070963985, 87.83145904541016, -38.66469955444336, -25.736934661865234, 6.146407127380371, 7.555288791656494, 0.2936739921569824, 1.8725541830062866, -3.5038094520568848, 0.6305968761444092, -0.9033203125, -0.03466796875, 0.3681640625, 0, 
274, 2070972318, 87.83187866210938, -38.664459228515625, -25.737014770507812, 6.392712593078613, 7.72367000579834, 0.2247573882341385, 1.8640246391296387, -3.2487430572509766, 0.5459930300712585, -0.90283203125, -0.03125, 0.36767578125, 0, 
275, 2070980651, 87.83098602294922, -38.66526794433594, -25.735836029052734, 6.344429016113281, 7.738887786865234, 0.13972723484039307, 1.7990412712097168, -3.135451078414917, 0.6764206886291504, -0.90185546875, -0.03369140625, 0.37109375, 0, 
276, 2070988984, 87.83097076416016, -38.66519546508789, -25.735992431640625, 6.0529022216796875, 7.669310092926025, 0.2220054268836975, 1.8048813343048096, -3.2567601203918457, 0.5654085874557495, -0.900390625, -0.033203125, 0.3701171875, 0, 
277, 2070997317, 87.83019256591797, -38.665802001953125, -25.735958099365234, 5.914018630981445, 7.590077877044678, 0.42046526074409485, 1.7261688709259033, -3.2401108741760254, 0.6470667719841003, -0.9033203125, -0.03271484375, 0.37060546875, 0, 
278, 2071005650, 87.83210754394531, -38.666595458984375, -25.737613677978516, 6.045703887939453, 7.5703840255737305, 0.3398370146751404, 1.9231421947479248, -3.401224374771118, 0.6664054989814758, -0.90380859375, -0.0341796875, 0.36962890625, 0, 
279, 2071013983, 87.83273315429688, -38.6669921875, -25.737668991088867, 6.365824222564697, 7.710341930389404, 0.2958507537841797, 1.8885631561279297, -3.2475903034210205, 0.6207865476608276, -0.90234375, -0.0322265625, 0.3681640625, 0, 
280, 2071022316, 87.83077239990234, -38.66709518432617, -25.73589324951172, 6.414305210113525, 7.745998382568359, 0.13171669840812683, 1.7166661024093628, -3.0773837566375732, 0.5956334471702576, -0.90380859375, -0.0322265625, 0.3681640625, 0, 
281, 2071030649, 87.83058166503906, -38.666595458984375, -25.735824584960938, 6.087106704711914, 7.680501937866211, 0.2533515393733978, 1.7963005304336548, -3.2307870388031006, 0.5137190222740173, -0.900390625, -0.0302734375, 0.37109375, 0, 
282, 2071038982, 87.827392578125, -38.66583251953125, -25.733930587768555, 5.908453941345215, 7.629998683929443, 0.32575419545173645, 1.5817559957504272, -3.063680648803711, 0.4891294240951538, -0.8994140625, -0.0322265625, 0.37890625, 0, 
283, 2071047315, 87.82881927490234, -38.66563415527344, -25.736297607421875, 5.954613208770752, 7.630163192749023, 0.40436893701553345, 1.8122581243515015, -3.4622116088867188, 0.5413055419921875, -0.89990234375, -0.0341796875, 0.37744140625, 0, 
284, 2071055648, 87.83036804199219, -38.6660041809082, -25.738086700439453, 6.240447044372559, 7.6842942237854, 0.3292446732521057, 1.8685071468353271, -3.4115469455718994, 0.6147928833961487, -0.90185546875, -0.03515625, 0.38037109375, 0, 
285, 2071063981, 87.83025360107422, -38.66693878173828, -25.736963272094727, 6.46441650390625, 7.7801513671875, 0.21425414085388184, 1.8883838653564453, -3.1414706707000732, 0.6902011632919312, -0.8974609375, -0.0322265625, 0.37841796875, 0, 
286, 2071072314, 87.8288345336914, -38.66714096069336, -25.73548126220703, 6.250362396240234, 7.713603973388672, 0.12274645268917084, 1.7615935802459717, -3.104279041290283, 0.6039580702781677, -0.9013671875, -0.03564453125, 0.37890625, 0, 
287, 2071080647, 87.82848358154297, -38.667076110839844, -25.73603630065918, 5.924736022949219, 7.598802089691162, 0.272590696811676, 1.7313685417175293, -3.292235851287842, 0.5657159686088562, -0.8994140625, -0.03173828125, 0.38037109375, 0, 
288, 2071088980, 87.82807922363281, -38.66703414916992, -25.736066818237305, 5.982903003692627, 7.527122974395752, 0.4123099148273468, 1.7682018280029297, -3.245361804962158, 0.568866491317749, -0.90185546875, -0.033203125, 0.37841796875, 0, 
289, 2071097313, 87.82967376708984, -38.66682815551758, -25.737741470336914, 6.125603675842285, 7.591747283935547, 0.287742018699646, 1.8839268684387207, -3.3958966732025146, 0.5450709462165833, -0.8984375, -0.03173828125, 0.380859375, 0, 
290, 2071105646, 87.82965087890625, -38.66636657714844, -25.73717498779297, 6.413322925567627, 7.779151439666748, 0.27986976504325867, 1.8591066598892212, -3.188754081726074, 0.519661545753479, -0.9013671875, -0.03466796875, 0.380859375, 0, 
291, 2071113979, 87.82968139648438, -38.66642379760742, -25.741470336914062, 6.3679094314575195, 7.824055194854736, 0.17684878408908844, 1.8410230875015259, -3.218543767929077, 0.5850803256034851, -0.89892578125, -0.0341796875, 0.37744140625, 0, 
292, 2071122312, 87.82923889160156, -38.66704559326172, -25.741228103637695, 5.929302215576172, 7.761506080627441, 0.23321957886219025, 1.7854143381118774, -3.223461389541626, 0.6502684950828552, -0.89892578125, -0.0341796875, 0.37841796875, 0, 
293, 2071130645, 87.82830810546875, -38.667213439941406, -25.73981285095215, 5.872472286224365, 7.594557285308838, 0.3993823826313019, 1.7104671001434326, -3.237370014190674, 0.5936866402626038, -0.9013671875, -0.033203125, 0.38037109375, 0, 
294, 2071138978, 87.82835388183594, -38.667442321777344, -25.740318298339844, 6.061942100524902, 7.576812744140625, 0.34917986392974854, 1.7883602380752563, -3.2917749881744385, 0.6012685894966125, -0.90087890625, -0.03369140625, 0.37890625, 0, 
295, 2071147311, 87.83019256591797, -38.66696548461914, -25.745779037475586, 6.340550899505615, 7.724194049835205, 0.296783447265625, 1.895965337753296, -3.4126479625701904, 0.5102354884147644, -0.8984375, -0.033203125, 0.37890625, 0, 
296, 2071155644, 87.82942962646484, -38.66765594482422, -25.74535369873047, 6.421339511871338, 7.744627475738525, 0.1548174023628235, 1.7600562572479248, -3.2074012756347656, 0.6584906578063965, -0.8994140625, -0.03369140625, 0.37939453125, 0, 
297, 2071163977, 87.83004760742188, -38.667667388916016, -25.74519157409668, 6.197619438171387, 7.680745601654053, 0.20158496499061584, 1.8769596815109253, -3.2547872066497803, 0.5753724575042725, -0.8994140625, -0.0341796875, 0.37646484375, 0, 
298, 2071172310, 87.82867431640625, -38.667442321777344, -25.744253158569336, 5.958402633666992, 7.664808750152588, 0.3721317648887634, 1.7244782447814941, -3.154892683029175, 0.5511671304702759, -0.90087890625, -0.03173828125, 0.37939453125, 0, 
299, 2071180643, 87.82963562011719, -38.66697692871094, -25.751523971557617, 5.960479259490967, 7.677481651306152, 0.47544369101524353, 1.7709423303604126, -3.430142641067505, 0.513590931892395, -0.900390625, -0.03271484375, 0.3798828125, 0, 
300, 2071188976, 87.83162689208984, -38.666996002197266, -25.75345230102539, 6.211742877960205, 7.6746039390563965, 0.2960824966430664, 1.9138444662094116, -3.4244823455810547, 0.5701215863227844, -0.89990234375, -0.03515625, 0.37451171875, 0, 
301, 2071197309, 87.8319091796875, -38.66626739501953, -25.763469696044922, 6.445918083190918, 7.721893310546875, 0.20987769961357117, 1.8519091606140137, -3.2391631603240967, 0.4849543273448944, -0.89990234375, -0.03271484375, 0.37890625, 0, 
302, 2071205642, 87.8313217163086, -38.66691207885742, -25.76278305053711, 6.204653263092041, 7.713979721069336, 0.21502679586410522, 1.8007317781448364, -3.1823766231536865, 0.6565697193145752, -0.90087890625, -0.03466796875, 0.376953125, 0, 
303, 2071213975, 87.83071899414062, -38.66640853881836, -25.75921058654785, 5.916530609130859, 7.698233604431152, 0.2582234740257263, 1.8138208389282227, -3.14961576461792, 0.5153583884239197, -0.89990234375, -0.033203125, 0.3798828125, 0, 
304, 2071222308, 87.83103942871094, -38.66704559326172, -25.7606143951416, 6.019184589385986, 7.601753234863281, 0.4237833619117737, 1.7509119510650635, -3.3783504962921143, 0.6476301550865173, -0.89990234375, -0.03173828125, 0.3798828125, 0, 
305, 2071230641, 87.83280181884766, -38.666831970214844, -25.759214401245117, 6.1328511238098145, 7.584519386291504, 0.37647703289985657, 1.8635891675949097, -3.443948984146118, 0.5407932996749878, -0.90185546875, -0.03271484375, 0.37841796875, 0, 
306, 2071238974, 87.83295440673828, -38.66658401489258, -25.759138107299805, 6.427067279815674, 7.813797950744629, 0.2718861699104309, 1.8440710306167603, -3.236114978790283, 0.5454038977622986, -0.8984375, -0.03466796875, 0.3798828125, 0, 
307, 2071247307, 87.83345031738281, -38.666690826416016, -25.755496978759766, 6.404290676116943, 7.772403717041016, 0.07425011694431305, 1.9056475162506104, -3.203277349472046, 0.5871550440788269, -0.8974609375, -0.0322265625, 0.37841796875, 0, 
308, 2071255640, 87.83274841308594, -38.66710662841797, -25.75409507751465, 5.982666015625, 7.62919807434082, 0.23571652173995972, 1.8382822275161743, -3.113858222961426, 0.629930853843689, -0.89892578125, -0.033203125, 0.3798828125, 0, 
309, 2071263973, 87.83377075195312, -38.66757583618164, -25.751392364501953, 5.811509609222412, 7.5376691818237305, 0.37974417209625244, 1.8567756414413452, -3.3479719161987305, 0.6278048157691956, -0.90234375, -0.033203125, 0.37841796875, 0, 
310, 2071272306, 87.83503723144531, -38.668704986572266, -25.752578735351562, 6.058599948883057, 7.562376022338867, 0.21316343545913696, 1.884157419204712, -3.360344171524048, 0.7055696249008179, -0.900390625, -0.0341796875, 0.3818359375, 0, 
311, 2071280639, 87.83655548095703, -38.667762756347656, -25.760896682739258, 6.346502780914307, 7.679746150970459, 0.2476601004600525, 2.0043649673461914, -3.227534055709839, 0.4619782567024231, -0.89697265625, -0.03173828125, 0.3798828125, 0, 
312, 2071288972, 87.83574676513672, -38.66690444946289, -25.76021385192871, 6.403992176055908, 7.780533313751221, 0.25426530838012695, 1.7746310234069824, -3.177638053894043, 0.4739401638507843, -0.89990234375, -0.0341796875, 0.3798828125, 0, 
313, 2071297305, 87.83625793457031, -38.667415618896484, -25.752777099609375, 6.141193866729736, 7.761347770690918, 0.19846715033054352, 1.8963751792907715, -3.2129337787628174, 0.6363855600357056, -0.8974609375, -0.03369140625, 0.37939453125, 0, 
314, 2071305638, 87.83552551269531, -38.66799545288086, -25.75261116027832, 5.891590595245361, 7.653046131134033, 0.27891746163368225, 1.7439961433410645, -3.2302746772766113, 0.645222544670105, -0.89892578125, -0.033203125, 0.37939453125, 0, 
315, 2071313971, 87.8361587524414, -38.66836929321289, -25.7529354095459, 5.960845947265625, 7.5523762702941895, 0.4291657507419586, 1.7963262796401978, -3.359755039215088, 0.6158686876296997, -0.89990234375, -0.03173828125, 0.3798828125, 0, 
316, 2071322304, 87.83863067626953, -38.66938781738281, -25.75494384765625, 6.17431640625, 7.608171463012695, 0.2963845133781433, 1.965508222579956, -3.4361367225646973, 0.688152015209198, -0.8984375, -0.03271484375, 0.3798828125, 0, 
317, 2071330637, 87.83907318115234, -38.66980743408203, -25.754365921020508, 6.436813831329346, 7.742042541503906, 0.16736029088497162, 1.8029091358184814, -3.3281984329223633, 0.6231687068939209, -0.900390625, -0.03271484375, 0.376953125, 0, 
318, 2071338970, 87.83892822265625, -38.67011260986328, -25.753273010253906, 6.278672695159912, 7.708378314971924, 0.09582448750734329, 1.8862577676773071, -3.1422643661499023, 0.6173542737960815, -0.8994140625, -0.03173828125, 0.3779296875, 0, 
319, 2071347303, 87.83807373046875, -38.66939926147461, -25.74859046936035, 5.923952102661133, 7.639040946960449, 0.28695785999298096, 1.8879483938217163, -3.011990547180176, 0.49671122431755066, -0.900390625, -0.0341796875, 0.37939453125, 0, 
320, 2071355636, 87.83708190917969, -38.6684455871582, -25.749181747436523, 5.893486976623535, 7.617168426513672, 0.4489350914955139, 1.6580091714859009, -3.294822931289673, 0.4582130014896393, -0.900390625, -0.03173828125, 0.380859375, 0, 
321, 2071363969, 87.83860778808594, -38.66812515258789, -25.753475189208984, 6.147437572479248, 7.630439758300781, 0.2811708450317383, 1.9098742008209229, -3.3580901622772217, 0.5321613550186157, -0.90087890625, -0.03369140625, 0.38037109375, 0, 
322, 2071372302, 87.8395004272461, -38.668548583984375, -25.754335403442383, 6.444478988647461, 7.762438774108887, 0.3008083701133728, 1.8619499206542969, -3.3249454498291016, 0.6230918765068054, -0.89990234375, -0.0341796875, 0.3779296875, 0, 
323, 2071380635, 87.83674621582031, -38.6690559387207, -25.752334594726562, 6.311863422393799, 7.753543853759766, 0.12592709064483643, 1.6242499351501465, -3.0687007904052734, 0.6407913565635681, -0.90087890625, -0.03466796875, 0.376953125, 0, 
324, 2071388968, 87.83622741699219, -38.669254302978516, -25.751008987426758, 6.006933212280273, 7.669421195983887, 0.23890472948551178, 1.8542143106460571, -3.1195192337036133, 0.6050850749015808, -0.900390625, -0.03369140625, 0.38037109375, 0, 
325, 2071397301, 87.83549499511719, -38.66757583618164, -25.752134323120117, 5.9560394287109375, 7.610817909240723, 0.3325071930885315, 1.7558813095092773, -3.199794054031372, 0.37445446848869324, -0.89990234375, -0.0322265625, 0.38037109375, 0, 
326, 2071405634, 87.83609008789062, -38.667808532714844, -25.752758026123047, 6.048654079437256, 7.629706859588623, 0.3791307806968689, 1.8440710306167603, -3.304044008255005, 0.6007305979728699, -0.900390625, -0.03369140625, 0.37939453125, 0, 
327, 2071413967, 87.8377456665039, -38.66779327392578, -25.753164291381836, 6.343864440917969, 7.740438461303711, 0.2919369339942932, 1.936231017112732, -3.3341915607452393, 0.5706850290298462, -0.8994140625, -0.03515625, 0.376953125, 0, 
328, 2071422300, 87.83643341064453, -38.668312072753906, -25.75139808654785, 6.467998504638672, 7.8117876052856445, 0.17616432905197144, 1.7957372665405273, -3.0799968242645264, 0.6426355838775635, -0.89990234375, -0.03466796875, 0.37890625, 0, 
329, 2071430633, 87.83395385742188, -38.66898727416992, -25.746004104614258, 6.141213893890381, 7.722965717315674, 0.17256399989128113, 1.7316761016845703, -2.9778213500976562, 0.6649711728096008, -0.8984375, -0.03369140625, 0.38037109375, 0, 
330, 2071438966, 87.83203887939453, -38.66913986206055, -25.74543571472168, 5.8208231925964355, 7.585946083068848, 0.341229110956192, 1.6348798274993896, -3.1921355724334717, 0.5954285264015198, -0.89990234375, -0.033203125, 0.3798828125, 0, 
331, 2071447299, 87.83187103271484, -38.668548583984375, -25.74486541748047, 6.019440650939941, 7.562132358551025, 0.37978729605674744, 1.7531406879425049, -3.2952840328216553, 0.5024744272232056, -0.89990234375, -0.03369140625, 0.376953125, 0, 
332, 2071455632, 87.83341979980469, -38.668460845947266, -25.74663734436035, 6.292308807373047, 7.646092414855957, 0.31458815932273865, 1.871299147605896, -3.4098565578460693, 0.5575962662696838, -0.89990234375, -0.03515625, 0.37841796875, 0, 
333, 2071463965, 87.8338394165039, -38.668296813964844, -25.74836540222168, 6.441051959991455, 7.813854694366455, 0.19665177166461945, 1.7795233726501465, -3.340416431427002, 0.5509621500968933, -0.900390625, -0.03076171875, 0.36865234375, 0, 
334, 2071472298, 87.83353424072266, -38.66859817504883, -25.747833251953125, 6.272098064422607, 7.758620738983154, 0.20468761026859283, 1.8215562105178833, -3.1939027309417725, 0.61325603723526, -0.90283203125, -0.03125, 0.36376953125, 0, 
335, 2071480631, 87.83161163330078, -38.66798782348633, -25.745952606201172, 5.9287848472595215, 7.6882734298706055, 0.30665338039398193, 1.727731466293335, -3.062425374984741, 0.5063678622245789, -0.90380859375, -0.03173828125, 0.36767578125, 0, 
336, 2071488964, 87.82996368408203, -38.667442321777344, -25.74493980407715, 5.895072937011719, 7.6158223152160645, 0.423358678817749, 1.6977115869522095, -3.1456971168518066, 0.5150766968727112, -0.90380859375, -0.033203125, 0.3662109375, 0, 
337, 2071497297, 87.83148193359375, -38.667354583740234, -25.746152877807617, 6.10904598236084, 7.594255447387695, 0.3240624964237213, 1.9062879085540771, -3.353325366973877, 0.5587744116783142, -0.9033203125, -0.03271484375, 0.36572265625, 0, 
338, 2071505630, 87.83123779296875, -38.66765213012695, -25.745872497558594, 6.388731956481934, 7.694213390350342, 0.20108792185783386, 1.8127192258834839, -3.2196192741394043, 0.612103283405304, -0.9052734375, -0.03125, 0.365234375, 0, 
339, 2071513963, 87.83031463623047, -38.66774368286133, -25.7453556060791, 6.330996990203857, 7.731433391571045, 0.20977582037448883, 1.7440986633300781, -3.19144344329834, 0.5896139740943909, -0.904296875, -0.0302734375, 0.36669921875, 0, 
340, 2071522296, 87.83043670654297, -38.66836929321289, -25.745031356811523, 6.078595161437988, 7.665684700012207, 0.2823692262172699, 1.8576210737228394, -3.2161617279052734, 0.6507809162139893, -0.9033203125, -0.03076171875, 0.36669921875, 0, 
341, 2071530629, 87.83079528808594, -38.66762161254883, -25.74529457092285, 5.953168869018555, 7.614278793334961, 0.378921777009964, 1.840561866760254, -3.261831521987915, 0.4821622669696808, -0.9033203125, -0.0322265625, 0.3662109375, 0, 
342, 2071538962, 87.83221435546875, -38.667388916015625, -25.746814727783203, 6.01279878616333, 7.6362223625183105, 0.3934904932975769, 1.875883936882019, -3.385676622390747, 0.5422021150588989, -0.90478515625, -0.03173828125, 0.36669921875, 0, 
343, 2071547295, 87.833251953125, -38.66779327392578, -25.747879028320312, 6.336684703826904, 7.701864242553711, 0.3577452301979065, 1.8596445322036743, -3.340954303741455, 0.6199157238006592, -0.9033203125, -0.0322265625, 0.36865234375, 0, 
344, 2071555628, 87.83319091796875, -38.66777038574219, -25.74729347229004, 6.422001361846924, 7.72083854675293, 0.17261159420013428, 1.855955958366394, -3.1883442401885986, 0.5738612413406372, -0.90380859375, -0.03173828125, 0.36572265625, 0, 
345, 2071563961, 87.8326416015625, -38.66751480102539, -25.746368408203125, 6.074987888336182, 7.649856090545654, 0.2467467337846756, 1.8205316066741943, -3.152817726135254, 0.5467614531517029, -0.904296875, -0.03173828125, 0.36669921875, 0, 
346, 2071572294, 87.83148193359375, -38.667205810546875, -25.74614715576172, 5.861679553985596, 7.633048057556152, 0.31402257084846497, 1.6990177631378174, -3.2219505310058594, 0.5389235019683838, -0.9033203125, -0.033203125, 0.36865234375, 0, 
347, 2071580627, 87.83209228515625, -38.667354583740234, -25.747901916503906, 5.955056667327881, 7.615859031677246, 0.3787711560726166, 1.7569315433502197, -3.40470814704895, 0.5864379405975342, -0.90234375, -0.03125, 0.369140625, 0, 
348, 2071588960, 87.8336410522461, -38.66777801513672, -25.74947166442871, 6.192819118499756, 7.655172348022461, 0.3576611280441284, 1.8886655569076538, -3.392285108566284, 0.6198388934135437, -0.90234375, -0.03173828125, 0.3681640625, 0, 
349, 2071597293, 87.83222961425781, -38.66824722290039, -25.74835968017578, 6.41269588470459, 7.78891134262085, 0.23146168887615204, 1.732034683227539, -3.139191150665283, 0.6349513530731201, -0.904296875, -0.03125, 0.3681640625, 0, 
350, 2071605626, 87.83070373535156, -38.66876983642578, -25.747013092041016, 6.2939958572387695, 7.706623077392578, 0.1491187959909439, 1.73697829246521, -3.1192119121551514, 0.6428917050361633, -0.904296875, -0.03466796875, 0.36767578125, 0, 
351, 2071613959, 87.83026123046875, -38.66864013671875, -25.745988845825195, 5.945014476776123, 7.630034923553467, 0.2485397309064865, 1.8391021490097046, -3.1440062522888184, 0.5637180209159851, -0.9013671875, -0.03076171875, 0.36962890625, 0, 
352, 2071622292, 87.830810546875, -38.668243408203125, -25.747249603271484, 5.907209873199463, 7.547985076904297, 0.4570716619491577, 1.7906653881072998, -3.3598830699920654, 0.5229402184486389, -0.90283203125, -0.03271484375, 0.37060546875, 0, 
353, 2071630625, 87.83285522460938, -38.667694091796875, -25.748611450195312, 6.1315789222717285, 7.578359603881836, 0.29368552565574646, 1.9622551202774048, -3.3661582469940186, 0.5037550926208496, -0.9033203125, -0.03173828125, 0.3681640625, 0, 
354, 2071638958, 87.83450317382812, -38.66743087768555, -25.749971389770508, 6.372042179107666, 7.7434821128845215, 0.25611767172813416, 1.9166874885559082, -3.368643045425415, 0.5382831692695618, -0.90283203125, -0.03125, 0.36572265625, 0, 
355, 2071647291, 87.83441162109375, -38.6678352355957, -25.748960494995117, 6.355687141418457, 7.808629512786865, 0.12848569452762604, 1.8786758184432983, -3.149615526199341, 0.6283683180809021, -0.90234375, -0.03076171875, 0.37060546875, 0, 
356, 2071655624, 87.83280181884766, -38.66841125488281, -25.74681282043457, 6.052401065826416, 7.743353366851807, 0.19530829787254333, 1.7872334718704224, -3.043112277984619, 0.6512675881385803, -0.90234375, -0.03271484375, 0.369140625, 0, 
357, 2071663957, 87.832275390625, -38.66952896118164, -25.74606704711914, 5.8585968017578125, 7.643364906311035, 0.36862918734550476, 1.810490608215332, -3.1776375770568848, 0.7099239826202393, -0.9033203125, -0.03173828125, 0.3681640625, 0, 
358, 2071672290, 87.83479309082031, -38.669700622558594, -25.748699188232422, 6.037842273712158, 7.582918643951416, 0.34364554286003113, 1.9234240055084229, -3.4897472858428955, 0.5867965221405029, -0.90478515625, -0.03369140625, 0.37060546875, 0, 
359, 2071680623, 87.83731079101562, -38.66987609863281, -25.75113868713379, 6.350616931915283, 7.686351776123047, 0.27024102210998535, 1.9382293224334717, -3.4717915058135986, 0.587641716003418, -0.90283203125, -0.03173828125, 0.37158203125, 0, 
360, 2071688956, 87.83624267578125, -38.671024322509766, -25.75007438659668, 6.438805103302002, 7.753329753875732, 0.11655329167842865, 1.7698410749435425, -3.148104667663574, 0.7166094779968262, -0.90234375, -0.03271484375, 0.36962890625, 0, 
361, 2071697289, 87.83624267578125, -38.67185592651367, -25.74857521057129, 6.16738748550415, 7.6662187576293945, 0.1803339421749115, 1.9281370639801025, -3.103407621383667, 0.6784442663192749, -0.9033203125, -0.0322265625, 0.37109375, 0, 
362, 2071705622, 87.83597564697266, -38.67145538330078, -25.74822235107422, 5.988489627838135, 7.701767444610596, 0.35534343123435974, 1.812873125076294, -3.207324743270874, 0.5287290215492249, -0.9033203125, -0.03076171875, 0.3671875, 0, 
363, 2071713955, 87.8380126953125, -38.67079544067383, -25.75077247619629, 5.946839332580566, 7.695143699645996, 0.4635692238807678, 1.8725287914276123, -3.4771454334259033, 0.4853641986846924, -0.90380859375, -0.03173828125, 0.36962890625, 0, 
364, 2071722288, 87.84038543701172, -38.67087173461914, -25.75286293029785, 6.174332618713379, 7.6625213623046875, 0.27198994159698486, 1.9457341432571411, -3.4391846656799316, 0.5776265859603882, -0.9013671875, -0.03271484375, 0.3720703125, 0, 
365, 2071730621, 87.83938598632812, -38.6712532043457, -25.751371383666992, 6.467722415924072, 7.717063903808594, 0.16328267753124237, 1.808083176612854, -3.10335636138916, 0.6257813572883606, -0.90234375, -0.03076171875, 0.3701171875, 0, 
366, 2071738954, 87.8385238647461, -38.672000885009766, -25.74959373474121, 6.2246994972229, 7.720831871032715, 0.14548882842063904, 1.8494758605957031, -3.07971453666687, 0.6711697578430176, -0.90380859375, -0.03173828125, 0.369140625, 0, 
367, 2071747287, 87.83739471435547, -38.67185592651367, -25.747713088989258, 5.933168888092041, 7.704982280731201, 0.25479456782341003, 1.8226065635681152, -3.062451124191284, 0.563897430896759, -0.9013671875, -0.03466796875, 0.3671875, 0, 
368, 2071755620, 87.83875274658203, -38.672279357910156, -25.749401092529297, 6.005801200866699, 7.632416725158691, 0.3876352310180664, 1.8564938306808472, -3.4045283794403076, 0.6195570230484009, -0.90283203125, -0.0322265625, 0.37060546875, 0, 
369, 2071763953, 87.84011840820312, -38.6721305847168, -25.751096725463867, 6.128119468688965, 7.609703540802002, 0.335477739572525, 1.8530105352401733, -3.398944854736328, 0.5501168966293335, -0.90087890625, -0.03271484375, 0.3701171875, 0, 
370, 2071772286, 87.84160614013672, -38.6722412109375, -25.75274085998535, 6.385124683380127, 7.780756950378418, 0.31615641713142395, 1.8763705492019653, -3.3984832763671875, 0.5824163556098938, -0.90283203125, -0.03369140625, 0.369140625, 0, 
371, 2071780619, 87.84124755859375, -38.67205810546875, -25.75279998779297, 6.430347919464111, 7.7661004066467285, 0.09508215636014938, 1.766818642616272, -3.2435173988342285, 0.5533186197280884, -0.9013671875, -0.0322265625, 0.3671875, 0, 
372, 2071788952, 87.8397445678711, -38.67259216308594, -25.75090980529785, 6.031073093414307, 7.66903018951416, 0.16981948912143707, 1.7797027826309204, -3.0680348873138428, 0.6456325054168701, -0.90380859375, -0.03076171875, 0.36865234375, 0, 
373, 2071797285, 87.83977508544922, -38.673126220703125, -25.751731872558594, 5.848848819732666, 7.574191093444824, 0.34795328974723816, 1.7609529495239258, -3.3202321529388428, 0.6354891061782837, -0.9033203125, -0.0302734375, 0.369140625, 0, 
374, 2071805618, 87.84224700927734, -38.67182159423828, -25.754053115844727, 6.044897079467773, 7.588644981384277, 0.27983593940734863, 1.9411492347717285, -3.4551680088043213, 0.4093666970729828, -0.904296875, -0.03515625, 0.36865234375, 0, 
375, 2071813951, 87.84375, -38.67143630981445, -25.755002975463867, 6.306982517242432, 7.6811723709106445, 0.2590959072113037, 1.9267282485961914, -3.329171657562256, 0.5262444019317627, -0.90185546875, -0.0322265625, 0.37060546875, 0, 
376, 2071822284, 87.84246826171875, -38.67071533203125, -25.754919052124023, 6.38675594329834, 7.793164253234863, 0.23303717374801636, 1.6709702014923096, -3.231274127960205, 0.48725956678390503, -0.904296875, -0.03466796875, 0.37451171875, 0, 
377, 2071830617, 87.84078216552734, -38.67094802856445, -25.75377082824707, 6.231032371520996, 7.785784721374512, 0.14965225756168365, 1.6993763446807861, -3.1348876953125, 0.6074415445327759, -0.90087890625, -0.03515625, 0.37744140625, 0, 
378, 2071838950, 87.83881378173828, -38.671409606933594, -25.75170135498047, 5.953954696655273, 7.6901984214782715, 0.2483341246843338, 1.7380025386810303, -3.0502326488494873, 0.6378968358039856, -0.8994140625, -0.03271484375, 0.380859375, 0, 
379, 2071847283, 87.8385238647461, -38.67110061645508, -25.752531051635742, 5.941749572753906, 7.563088417053223, 0.4503808319568634, 1.7194322347640991, -3.317594051361084, 0.5329297184944153, -0.89990234375, -0.0341796875, 0.3779296875, 0, 
380, 2071855616, 87.84024810791016, -38.67075729370117, -25.754148483276367, 6.177363872528076, 7.569275379180908, 0.31208357214927673, 1.9037524461746216, -3.393258571624756, 0.5299329161643982, -0.9013671875, -0.03173828125, 0.380859375, 0, 
381, 2071863949, 87.83815002441406, -38.67035675048828, -25.752342224121094, 6.439971923828125, 7.754813194274902, 0.1423724889755249, 1.704755425453186, -3.070493221282959, 0.5312135815620422, -0.89794921875, -0.0341796875, 0.37744140625, 0, 
382, 2071872282, 87.83658599853516, -38.67005920410156, -25.750408172607422, 6.314218044281006, 7.743651390075684, 0.09969817101955414, 1.7756298780441284, -3.0600171089172363, 0.5459674596786499, -0.8994140625, -0.03076171875, 0.3798828125, 0, 
383, 2071880615, 87.83554077148438, -38.67001724243164, -25.748937606811523, 5.99625301361084, 7.6616668701171875, 0.3054812252521515, 1.797607183456421, -3.1025116443634033, 0.574578583240509, -0.89794921875, -0.033203125, 0.37841796875, 0, 
384, 2071888948, 87.83538818359375, -38.66967010498047, -25.7490291595459, 5.878261089324951, 7.651096820831299, 0.42492926120758057, 1.7982473373413086, -3.251790761947632, 0.5333395600318909, -0.90185546875, -0.033203125, 0.37744140625, 0, 
385, 2071897281, 87.83564758300781, -38.66941833496094, -25.749797821044922, 6.059709548950195, 7.631878852844238, 0.3471837341785431, 1.7863107919692993, -3.3089616298675537, 0.5419458746910095, -0.8994140625, -0.03515625, 0.38037109375, 0, 
386, 2071905614, 87.8377914428711, -38.66935729980469, -25.751401901245117, 6.422662734985352, 7.704832553863525, 0.29183894395828247, 1.9586436748504639, -3.393821954727173, 0.5632314085960388, -0.89892578125, -0.033203125, 0.3798828125, 0, 
387, 2071913947, 87.83647918701172, -38.669158935546875, -25.749563217163086, 6.346432685852051, 7.725068092346191, 0.18777523934841156, 1.7951993942260742, -3.0672409534454346, 0.5570840239524841, -0.8984375, -0.0322265625, 0.38037109375, 0, 
388, 2071922280, 87.83465576171875, -38.669898986816406, -25.747962951660156, 6.036232948303223, 7.724376201629639, 0.22449997067451477, 1.7213789224624634, -3.0977470874786377, 0.6685059666633606, -0.8994140625, -0.03076171875, 0.37841796875, 0, 
389, 2071930613, 87.83407592773438, -38.66971206665039, -25.749101638793945, 5.963218688964844, 7.605877876281738, 0.3505050241947174, 1.6912822723388672, -3.310626745223999, 0.5507315993309021, -0.89990234375, -0.03466796875, 0.37939453125, 0, 
390, 2071938946, 87.83403778076172, -38.66982650756836, -25.750120162963867, 6.019722938537598, 7.610390663146973, 0.38066256046295166, 1.739257574081421, -3.3399293422698975, 0.5847216844558716, -0.90087890625, -0.03173828125, 0.37890625, 0, 
391, 2071947279, 87.83550262451172, -38.6689453125, -25.750730514526367, 6.214199066162109, 7.67185640335083, 0.38474613428115845, 1.8681741952896118, -3.3861887454986572, 0.4651801288127899, -0.9013671875, -0.03271484375, 0.3798828125, 0, 
392, 2071955612, 87.83436584472656, -38.66819381713867, -25.750316619873047, 6.451616287231445, 7.758692741394043, 0.14690671861171722, 1.7142581939697266, -3.20243239402771, 0.48518484830856323, -0.8994140625, -0.0322265625, 0.3798828125, 0, 
393, 2071963945, 87.83353424072266, -38.668399810791016, -25.751134872436523, 6.185544013977051, 7.703314304351807, 0.17175740003585815, 1.862795352935791, -3.0641672611236572, 0.6055974364280701, -0.89990234375, -0.03515625, 0.3798828125, 0, 
394, 2071972278, 87.83248901367188, -38.66762924194336, -25.75067901611328, 5.886692523956299, 7.624243259429932, 0.28879794478416443, 1.7295498847961426, -3.19720721244812, 0.48433956503868103, -0.89990234375, -0.03271484375, 0.37890625, 0, 
395, 2071980611, 87.83349609375, -38.66740036010742, -25.75176429748535, 5.961025714874268, 7.568964958190918, 0.48262399435043335, 1.8813397884368896, -3.3075530529022217, 0.5457112789154053, -0.89794921875, -0.03271484375, 0.38037109375, 0, 
396, 2071988944, 87.83584594726562, -38.66688537597656, -25.754840850830078, 6.210033893585205, 7.548840522766113, 0.3151875138282776, 1.870402455329895, -3.527758836746216, 0.50206458568573, -0.89990234375, -0.0341796875, 0.376953125, 0, 
397, 2071997277, 87.83755493164062, -38.66617965698242, -25.755985260009766, 6.393172264099121, 7.778434753417969, 0.24549999833106995, 1.905366063117981, -3.385138750076294, 0.48433956503868103, -0.90087890625, -0.03369140625, 0.38134765625, 0, 
398, 2072005610, 87.83719635009766, -38.66708755493164, -25.75473403930664, 6.317226409912109, 7.765691757202148, 0.20840202271938324, 1.8692243099212646, -3.129713535308838, 0.6889972686767578, -0.900390625, -0.033203125, 0.3779296875, 0, 
399, 2072013943, 87.83573150634766, -38.667598724365234, -25.75931167602539, 5.987305164337158, 7.725012302398682, 0.23822690546512604, 1.6992480754852295, -3.182145595550537, 0.6366673111915588, -0.90185546875, -0.03369140625, 0.37890625, 0, 
400, 2072022276, 87.8366928100586, -38.667877197265625, -25.75973892211914, 5.864019870758057, 7.605958461761475, 0.41114795207977295, 1.8989366292953491, -3.282066583633423, 0.6083123683929443, -0.9013671875, -0.03369140625, 0.37841796875, 0, 
401, 2072030609, 87.83879852294922, -38.668209075927734, -25.766250610351562, 6.0530104637146, 7.521608352661133, 0.3120102882385254, 1.876626968383789, -3.4842402935028076, 0.6051106452941895, -0.900390625, -0.03369140625, 0.37939453125, 0, 
402, 2072038942, 87.84034729003906, -38.66777801513672, -25.767263412475586, 6.384776592254639, 7.623003005981445, 0.2839163541793823, 1.9316974878311157, -3.336317777633667, 0.5202762484550476, -0.8994140625, -0.03466796875, 0.3798828125, 0, 
403, 2072047275, 87.84056091308594, -38.668373107910156, -25.765628814697266, 6.38990592956543, 7.764041900634766, 0.15405014157295227, 1.8783940076828003, -3.194363832473755, 0.6468105912208557, -0.90087890625, -0.03515625, 0.3779296875, 0, 
404, 2072055608, 87.84026336669922, -38.668582916259766, -25.764511108398438, 6.1353535652160645, 7.714890480041504, 0.2392803132534027, 1.8670215606689453, -3.1384990215301514, 0.6043422222137451, -0.8994140625, -0.03271484375, 0.3798828125, 0, 
405, 2072063941, 87.83984375, -38.66884994506836, -25.76214599609375, 6.002369403839111, 7.655085563659668, 0.3364957273006439, 1.8052911758422852, -3.1933133602142334, 0.6096187233924866, -0.89892578125, -0.03369140625, 0.37841796875, 0, 
406, 2072072274, 87.84256744384766, -38.66838455200195, -25.764976501464844, 5.969092845916748, 7.628857135772705, 0.43776649236679077, 1.9348479509353638, -3.5076260566711426, 0.510004997253418, -0.8994140625, -0.03466796875, 0.380859375, 0, 
407, 2072080607, 87.8465576171875, -38.66912078857422, -25.758955001831055, 6.290431499481201, 7.65083646774292, 0.3275337219238281, 1.9630239009857178, -3.657956600189209, 0.6464008688926697, -0.89794921875, -0.02978515625, 0.3798828125, 0, 
408, 2072088940, 87.8462142944336, -38.66914367675781, -25.75825309753418, 6.482582092285156, 7.774674892425537, 0.14519928395748138, 1.8301113843917847, -3.178175687789917, 0.5815712213516235, -0.90087890625, -0.03125, 0.37890625, 0, 
409, 2072097273, 87.84526062011719, -38.6706657409668, -25.76028060913086, 6.1559271812438965, 7.719448566436768, 0.15288057923316956, 1.863921880722046, -3.047926902770996, 0.7642006278038025, -0.89794921875, -0.033203125, 0.3798828125, 0, 
410, 2072105606, 87.84453582763672, -38.67012023925781, -25.75843620300293, 5.867473602294922, 7.632710933685303, 0.3095206916332245, 1.8713250160217285, -3.069085121154785, 0.5157682299613953, -0.8984375, -0.03271484375, 0.38037109375, 0, 
411, 2072113939, 87.84486389160156, -38.67045593261719, -25.75364112854004, 6.00770378112793, 7.630152702331543, 0.4046032428741455, 1.8292149305343628, -3.2793774604797363, 0.6136658787727356, -0.89892578125, -0.0341796875, 0.37841796875, 0, 
412, 2072122272, 87.8465805053711, -38.670162200927734, -25.755130767822266, 6.172004699707031, 7.677301406860352, 0.30128273367881775, 1.912973165512085, -3.3822951316833496, 0.5344153642654419, -0.89892578125, -0.03173828125, 0.37890625, 0, 
413, 2072130605, 87.84537506103516, -38.67095947265625, -25.748497009277344, 6.46209716796875, 7.847748279571533, 0.24777233600616455, 1.7215838432312012, -3.182197093963623, 0.6726810336112976, -0.8984375, -0.03271484375, 0.3828125, 0, 
414, 2072138938, 87.84475708007812, -38.67149353027344, -25.74764060974121, 6.3809814453125, 7.736481666564941, 0.1030447706580162, 1.810388445854187, -3.1657016277313232, 0.6421488523483276, -0.8984375, -0.0341796875, 0.380859375, 0, 
415, 2072147271, 87.8449478149414, -38.67094802856445, -25.745182037353516, 5.953792572021484, 7.605981826782227, 0.24394503235816956, 1.883260726928711, -3.1852195262908936, 0.510696530342102, -0.900390625, -0.03369140625, 0.376953125, 0, 
416, 2072155604, 87.84478759765625, -38.6703987121582, -25.745813369750977, 5.904911518096924, 7.5183000564575195, 0.36261412501335144, 1.7540371417999268, -3.2995617389678955, 0.5066496133804321, -0.8984375, -0.0322265625, 0.3779296875, 0, 
417, 2072163937, 87.8460464477539, -38.669315338134766, -25.74918556213379, 6.133279323577881, 7.603985786437988, 0.29856249690055847, 1.8418426513671875, -3.3913629055023193, 0.4364665448665619, -0.90185546875, -0.033203125, 0.37744140625, 0, 
418, 2072172270, 87.84762573242188, -38.669090270996094, -25.75013542175293, 6.373568058013916, 7.806224346160889, 0.22736380994319916, 1.9369484186172485, -3.331732988357544, 0.5444561839103699, -0.90087890625, -0.03369140625, 0.37744140625, 0, 
419, 2072180603, 87.84674835205078, -38.668304443359375, -25.743711471557617, 6.3814849853515625, 7.840946197509766, 0.17693063616752625, 1.7925868034362793, -3.1312766075134277, 0.48564592003822327, -0.90087890625, -0.03515625, 0.3798828125, 0, 
420, 2072188936, 87.84571075439453, -38.66846466064453, -25.742006301879883, 6.068522930145264, 7.750658988952637, 0.2510496973991394, 1.825449824333191, -3.085299015045166, 0.600269615650177, -0.900390625, -0.03271484375, 0.37744140625, 0, 
421, 2072197269, 87.8443603515625, -38.66846466064453, -25.724130630493164, 5.820454120635986, 7.60296106338501, 0.3196285367012024, 1.7381309270858765, -3.1344780921936035, 0.5794452428817749, -0.90087890625, -0.03271484375, 0.380859375, 0, 
422, 2072205602, 87.84519958496094, -38.66935729980469, -25.725814819335938, 5.983274936676025, 7.547308921813965, 0.37577658891677856, 1.794507622718811, -3.4048616886138916, 0.6767793297767639, -0.89990234375, -0.0341796875, 0.37890625, 0, 
423, 2072213935, 87.84601593017578, -38.66938781738281, -25.72846794128418, 6.352765083312988, 7.668851375579834, 0.24923203885555267, 1.8315201997756958, -3.342721462249756, 0.5715304017066956, -0.8984375, -0.03466796875, 0.37841796875, 0, 
424, 2072222268, 87.84584045410156, -38.67034149169922, -25.7277774810791, 6.423525810241699, 7.847583770751953, 0.21822883188724518, 1.8483742475509644, -3.181684732437134, 0.6926600933074951, -0.9013671875, -0.03173828125, 0.37841796875, 0, 
425, 2072230601, 87.84461975097656, -38.6708869934082, -25.717308044433594, 6.219845294952393, 7.700865268707275, 0.1549435704946518, 1.7619519233703613, -3.1435964107513428, 0.6448895335197449, -0.90087890625, -0.03466796875, 0.37841796875, 0, 
426, 2072238934, 87.8434066772461, -38.67079162597656, -25.715961456298828, 5.9712419509887695, 7.557467937469482, 0.3137277662754059, 1.7738115787506104, -3.1151905059814453, 0.5675089955329895, -0.8994140625, -0.03369140625, 0.38134765625, 0, 
427, 2072247267, 87.84282684326172, -38.66993713378906, -25.708791732788086, 5.885993003845215, 7.628154754638672, 0.462933212518692, 1.7586733102798462, -3.2230775356292725, 0.47125062346458435, -0.90087890625, -0.03173828125, 0.376953125, 0, 
428, 2072255600, 87.8448257446289, -38.67009353637695, -25.711685180664062, 6.14503288269043, 7.666662216186523, 0.2824181318283081, 1.8415607213974, -3.514618396759033, 0.583876371383667, -0.89990234375, -0.0302734375, 0.37841796875, 0, 
429, 2072263933, 87.84426879882812, -38.6696891784668, -25.708974838256836, 6.458878040313721, 7.759406566619873, 0.25943177938461304, 1.7951735258102417, -3.178687810897827, 0.5267055034637451, -0.8994140625, -0.029296875, 0.36865234375, 0, 
430, 2072272266, 87.84381866455078, -38.66977310180664, -25.709205627441406, 6.290102958679199, 7.7099690437316895, 0.1929962933063507, 1.74691641330719, -3.2649314403533936, 0.5866684317588806, -0.90283203125, -0.03173828125, 0.36376953125, 0, 
431, 2072280599, 87.84294891357422, -38.670108795166016, -25.708574295043945, 5.9023308753967285, 7.6370625495910645, 0.2586003541946411, 1.7569056749343872, -3.1813771724700928, 0.6171749234199524, -0.904296875, -0.03173828125, 0.36279296875, 0, 
432, 2072288932, 87.84291076660156, -38.670528411865234, -25.708650588989258, 5.953492164611816, 7.567202091217041, 0.36647605895996094, 1.8109519481658936, -3.2522006034851074, 0.6233991980552673, -0.9072265625, -0.03125, 0.36474609375, 0, 
433, 2072297265, 87.83038330078125, -38.666648864746094, -25.691591262817383, 6.095271110534668, 7.624238967895508, 0.3441149592399597, 1.8639477491378784, -3.2836551666259766, 0.5471200346946716, -0.90380859375, -0.0322265625, 0.36328125, 0, 
434, 2072305598, 87.83074951171875, -38.66700744628906, -25.691795349121094, 6.335559368133545, 7.822285175323486, 0.2978473901748657, 1.846914291381836, -3.2669804096221924, 0.6182252168655396, -0.90283203125, -0.033203125, 0.36669921875, 0, 
435, 2072313931, 87.82942962646484, -38.66714096069336, -25.690832138061523, 6.454327583312988, 7.784834861755371, 0.0922095999121666, 1.7310097217559814, -3.1526637077331543, 0.5938915014266968, -0.90380859375, -0.0302734375, 0.36572265625, 0, 
436, 2072322264, 87.82642364501953, -38.66765213012695, -25.68862533569336, 6.129718780517578, 7.597438335418701, 0.2135930359363556, 1.62368643283844, -3.0400640964508057, 0.6436088681221008, -0.9033203125, -0.033203125, 0.3681640625, 0, 
437, 2072330597, 87.82666778564453, -38.66792678833008, -25.688304901123047, 5.81025505065918, 7.557878494262695, 0.42421263456344604, 1.8704537153244019, -3.214599132537842, 0.6087478995323181, -0.90283203125, -0.03466796875, 0.3681640625, 0, 
438, 2072338930, 87.82756805419922, -38.66843795776367, -25.690526962280273, 6.026565074920654, 7.596640110015869, 0.35846441984176636, 1.7586220502853394, -3.453528642654419, 0.6284196376800537, -0.90234375, -0.0322265625, 0.369140625, 0, 
439, 2072347263, 87.83002471923828, -38.66778564453125, -25.692691802978516, 6.344230651855469, 7.677621841430664, 0.2874715030193329, 1.9500370025634766, -3.4418230056762695, 0.49007707834243774, -0.90283203125, -0.03076171875, 0.3671875, 0, 
440, 2072355596, 87.8300552368164, -38.667640686035156, -25.69306755065918, 6.380586624145508, 7.803248882293701, 0.2490096092224121, 1.7943283319473267, -3.279146909713745, 0.5561618804931641, -0.90234375, -0.0322265625, 0.3681640625, 0, 
441, 2072363929, 87.8289794921875, -38.66828155517578, -25.692237854003906, 6.244369983673096, 7.76963472366333, 0.18915711343288422, 1.748197078704834, -3.1655220985412598, 0.653854489326477, -0.90283203125, -0.0322265625, 0.36669921875, 0, 
442, 2072372262, 87.82685852050781, -38.66873550415039, -25.689800262451172, 5.973341464996338, 7.663235664367676, 0.2446179836988449, 1.7489912509918213, -3.0195984840393066, 0.6381018161773682, -0.90576171875, -0.033203125, 0.36962890625, 0, 
443, 2072380595, 87.82630157470703, -38.66893005371094, -25.689720153808594, 5.891867637634277, 7.570621013641357, 0.4362833797931671, 1.7570595741271973, -3.23498797416687, 0.5980923771858215, -0.90283203125, -0.03369140625, 0.36962890625, 0, 
444, 2072388928, 87.82738494873047, -38.667808532714844, -25.691354751586914, 6.146938800811768, 7.567364692687988, 0.3141859769821167, 1.826960563659668, -3.3927969932556152, 0.4358005225658417, -0.90478515625, -0.03369140625, 0.37109375, 0, 
445, 2072397261, 87.82780456542969, -38.66756820678711, -25.691865921020508, 6.44901704788208, 7.771618843078613, 0.20042070746421814, 1.8289844989776611, -3.288086414337158, 0.543329119682312, -0.90185546875, -0.0322265625, 0.3681640625, 0, 
446, 2072405594, 87.82657623291016, -38.668052673339844, -25.690732955932617, 6.319001197814941, 7.770045757293701, 0.08721942454576492, 1.7561631202697754, -3.1407530307769775, 0.6388702392578125, -0.904296875, -0.033203125, 0.3681640625, 0, 
447, 2072413927, 87.82494354248047, -38.667076110839844, -25.689489364624023, 6.002861499786377, 7.726899147033691, 0.2764909267425537, 1.7131826877593994, -3.120800256729126, 0.46013420820236206, -0.90380859375, -0.0322265625, 0.369140625, 0, 
448, 2072422260, 87.82431030273438, -38.66630935668945, -25.689064025878906, 5.8957905769348145, 7.642845630645752, 0.378495991230011, 1.7767055034637451, -3.2024829387664795, 0.4853384792804718, -0.9013671875, -0.02978515625, 0.37060546875, 0, 
449, 2072430593, 87.82548522949219, -38.66670608520508, -25.68996810913086, 6.029068946838379, 7.647797107696533, 0.3460341691970825, 1.8890239000320435, -3.3272249698638916, 0.6185581088066101, -0.904296875, -0.03125, 0.36962890625, 0, 
450, 2072438926, 87.82699584960938, -38.666412353515625, -25.69088363647461, 6.353943347930908, 7.683149337768555, 0.318319171667099, 1.9311083555221558, -3.3301961421966553, 0.5373353958129883, -0.904296875, -0.03173828125, 0.37060546875, 0, 
451, 2072447259, 87.82527923583984, -38.666996002197266, -25.688383102416992, 6.428880214691162, 7.77708625793457, 0.1803423911333084, 1.7975047826766968, -3.0097882747650146, 0.653829038143158, -0.90380859375, -0.033203125, 0.36962890625, 0, 
452, 2072455592, 87.82431030273438, -38.66774368286133, -25.687023162841797, 6.051385879516602, 7.720801830291748, 0.18731288611888885, 1.804753303527832, -3.1191606521606445, 0.6711441874504089, -0.90185546875, -0.03173828125, 0.369140625, 0, 
453, 2072463925, 87.82389831542969, -38.66807174682617, -25.687070846557617, 5.937553405761719, 7.6225714683532715, 0.3339928686618805, 1.7632583379745483, -3.2473597526550293, 0.6120265126228333, -0.9033203125, -0.0322265625, 0.3701171875, 0, 
454, 2072472258, 87.82359313964844, -38.667728424072266, -25.686931610107422, 6.004811763763428, 7.610814094543457, 0.3940604627132416, 1.7954297065734863, -3.231837749481201, 0.5354399085044861, -0.90380859375, -0.0322265625, 0.37109375, 0, 
455, 2072480591, 87.8257827758789, -38.66656494140625, -25.688711166381836, 6.166656017303467, 7.723345756530762, 0.3719668388366699, 1.9429675340652466, -3.4010446071624756, 0.42752712965011597, -0.90087890625, -0.03271484375, 0.3681640625, 0, 
456, 2072488924, 87.82632446289062, -38.667762756347656, -25.6894474029541, 6.417357921600342, 7.790791034698486, 0.19354450702667236, 1.8321348428726196, -3.320488691329956, 0.7163533568382263, -0.90625, -0.0302734375, 0.369140625, 0, 
457, 2072497257, 87.82465362548828, -38.668479919433594, -25.687389373779297, 6.297295570373535, 7.724595546722412, 0.13445651531219482, 1.7678687572479248, -3.0513851642608643, 0.6692999005317688, -0.904296875, -0.0322265625, 0.3701171875, 0, 
458, 2072505590, 87.82402038574219, -38.669189453125, -25.686370849609375, 5.868914604187012, 7.633970260620117, 0.2861841917037964, 1.8211207389831543, -3.1523053646087646, 0.6633573770523071, -0.90478515625, -0.03271484375, 0.3681640625, 0, 
459, 2072513923, 87.82473754882812, -38.66970443725586, -25.68769645690918, 5.932428359985352, 7.578101634979248, 0.4297960698604584, 1.8032677173614502, -3.369513988494873, 0.6308785676956177, -0.90234375, -0.033203125, 0.36767578125, 0, 
460, 2072522256, 87.82579803466797, -38.66889190673828, -25.68865394592285, 6.200041770935059, 7.5886030197143555, 0.29177021980285645, 1.8738861083984375, -3.3302218914031982, 0.4749647378921509, -0.90380859375, -0.03369140625, 0.3681640625, 0, 
461, 2072530589, 87.82625579833984, -38.66828155517578, -25.688051223754883, 6.368519306182861, 7.789294719696045, 0.2621869146823883, 1.9144333600997925, -3.180711030960083, 0.5055736303329468, -0.90283203125, -0.0322265625, 0.37158203125, 0, 
462, 2072538922, 87.82500457763672, -38.6684455871582, -25.68667221069336, 6.328553676605225, 7.795201301574707, 0.15227723121643066, 1.7738372087478638, -3.115856885910034, 0.5976569652557373, -0.90283203125, -0.033203125, 0.3701171875, 0, 
463, 2072547255, 87.82489013671875, -38.66905212402344, -25.68634033203125, 6.050893306732178, 7.709866046905518, 0.21794851124286652, 1.8279341459274292, -3.2132411003112793, 0.6487316489219666, -0.90380859375, -0.03271484375, 0.36962890625, 0, 
464, 2072555588, 87.82486724853516, -38.66925811767578, -25.68714141845703, 5.8559889793396, 7.634095191955566, 0.3731113374233246, 1.7568033933639526, -3.320206642150879, 0.5976569056510925, -0.90283203125, -0.03173828125, 0.3701171875, 0, 
465, 2072563921, 87.82686614990234, -38.669349670410156, -25.689069747924805, 5.9896159172058105, 7.590919494628906, 0.33060383796691895, 1.9105654954910278, -3.4238414764404297, 0.5792402029037476, -0.9033203125, -0.03271484375, 0.36962890625, 0, 
466, 2072572254, 87.8284683227539, -38.66942596435547, -25.69062614440918, 6.341500759124756, 7.638359546661377, 0.29769405722618103, 1.8962215185165405, -3.3897488117218018, 0.5792402029037476, -0.900390625, -0.0341796875, 0.3701171875, 0, 
467, 2072580587, 87.82858276367188, -38.670074462890625, -25.691003799438477, 6.421608924865723, 7.740116596221924, 0.15561778843402863, 1.7992461919784546, -3.2811195850372314, 0.6518054008483887, -0.8984375, -0.033203125, 0.369140625, 0, 
468, 2072588920, 87.82896423339844, -38.66975021362305, -25.690927505493164, 6.180929183959961, 7.7429423332214355, 0.15570583939552307, 1.874603271484375, -3.236448049545288, 0.536413311958313, -0.90380859375, -0.0322265625, 0.37109375, 0, 
469, 2072597253, 87.82923889160156, -38.67001724243164, -25.69074249267578, 5.998956203460693, 7.649796485900879, 0.3165673613548279, 1.8611047267913818, -3.226381540298462, 0.6066475510597229, -0.9013671875, -0.03173828125, 0.3701171875, 0, 
470, 2072605586, 87.82965850830078, -38.66953659057617, -25.69175148010254, 6.001763343811035, 7.647051811218262, 0.4219529628753662, 1.7955577373504639, -3.334576368331909, 0.5140264630317688, -0.90380859375, -0.03271484375, 0.37060546875, 0, 
471, 2072613919, 87.83174896240234, -38.66994857788086, -25.694366455078125, 6.176957130432129, 7.660386562347412, 0.3270125091075897, 1.869096279144287, -3.4897985458374023, 0.6157917976379395, -0.90478515625, -0.03271484375, 0.37158203125, 0, 
472, 2072622252, 87.83120727539062, -38.670204162597656, -25.694711685180664, 6.486276626586914, 7.730564117431641, 0.12643855810165405, 1.7289607524871826, -3.276867389678955, 0.6031895875930786, -0.90380859375, -0.0322265625, 0.3701171875, 0, 
473, 2072630585, 87.83051300048828, -38.670745849609375, -25.69339942932129, 6.258001327514648, 7.696610450744629, 0.15214745700359344, 1.8322885036468506, -3.122464656829834, 0.6445565819740295, -0.90283203125, -0.03076171875, 0.37060546875, 0, 
474, 2072638918, 87.82966613769531, -38.670352935791016, -25.692161560058594, 5.899511814117432, 7.682141304016113, 0.2753986418247223, 1.8103115558624268, -3.1261789798736572, 0.532443106174469, -0.90087890625, -0.0341796875, 0.37744140625, 0, 
475, 2072647251, 87.82916259765625, -38.67055892944336, -25.692121505737305, 5.98121976852417, 7.610907554626465, 0.41605132818222046, 1.7586220502853394, -3.2395474910736084, 0.6013453602790833, -0.90087890625, -0.0341796875, 0.3779296875, 0, 
476, 2072655584, 87.83102416992188, -38.670074462890625, -25.694107055664062, 6.132342338562012, 7.629980564117432, 0.2528533637523651, 1.8958373069763184, -3.427555799484253, 0.5083144307136536, -0.89990234375, -0.03369140625, 0.37841796875, 0, 
477, 2072663917, 87.83087158203125, -38.66996765136719, -25.694387435913086, 6.371599197387695, 7.790548324584961, 0.30855900049209595, 1.7749639749526978, -3.267595052719116, 0.5626423358917236, -0.89990234375, -0.03125, 0.380859375, 0, 
478, 2072672250, 87.82958984375, -38.66986083984375, -25.69286346435547, 6.423739433288574, 7.765754699707031, 0.16256320476531982, 1.7810859680175781, -3.1024601459503174, 0.5652549862861633, -0.90283203125, -0.033203125, 0.37890625, 0, 
479, 2072680583, 87.82684326171875, -38.669334411621094, -25.69013214111328, 6.096474647521973, 7.685385227203369, 0.19675390422344208, 1.692178726196289, -2.9835331439971924, 0.5237085819244385, -0.89599609375, -0.0322265625, 0.37939453125, 0, 
480, 2072688916, 87.82491302490234, -38.66856384277344, -25.689075469970703, 5.894186496734619, 7.584144115447998, 0.3643433451652527, 1.664361834526062, -3.141214609146118, 0.48700353503227234, -0.89990234375, -0.03271484375, 0.3779296875, 0, 
481, 2072697249, 87.8262939453125, -38.66752624511719, -25.690391540527344, 6.066549777984619, 7.575174808502197, 0.35834699869155884, 1.8825691938400269, -3.3572187423706055, 0.44466304779052734, -0.89990234375, -0.0322265625, 0.37890625, 0, 
482, 2072705582, 87.82732391357422, -38.6666259765625, -25.691434860229492, 6.282359600067139, 7.656373500823975, 0.2955690622329712, 1.8674311637878418, -3.3407490253448486, 0.46213194727897644, -0.9013671875, -0.03271484375, 0.380859375, 0, 
483, 2072713915, 87.82658386230469, -38.66529846191406, -25.687931060791016, 6.377286434173584, 7.778149604797363, 0.1902814507484436, 1.8210699558258057, -3.111527919769287, 0.4206882119178772, -0.89990234375, -0.03173828125, 0.3818359375, 0, 
484, 2072722248, 87.82479095458984, -38.66515350341797, -25.684524536132812, 6.165719032287598, 7.795675277709961, 0.26087701320648193, 1.861360788345337, -2.9234166145324707, 0.5702240467071533, -0.89697265625, -0.03369140625, 0.38232421875, 0, 
485, 2072730581, 87.8243408203125, -38.664329528808594, -25.684301376342773, 5.9259419441223145, 7.7367401123046875, 0.24253176152706146, 1.7265015840530396, -3.282041072845459, 0.4739145338535309, -0.900390625, -0.033203125, 0.37646484375, 0, 
486, 2072738914, 87.824462890625, -38.66376876831055, -25.685514450073242, 5.933560371398926, 7.5416741371154785, 0.4226720631122589, 1.7432788610458374, -3.354811191558838, 0.5044722557067871, -0.89990234375, -0.0302734375, 0.37890625, 0, 
487, 2072747247, 87.82666778564453, -38.66366958618164, -25.692415237426758, 6.164517879486084, 7.551305294036865, 0.32852888107299805, 1.9068260192871094, -3.4571404457092285, 0.5538310408592224, -0.900390625, -0.03125, 0.3779296875, 0, 
488, 2072755580, 87.826904296875, -38.66395950317383, -25.69217872619629, 6.3929901123046875, 7.737166881561279, 0.18341509997844696, 1.865561604499817, -3.2245373725891113, 0.6107970476150513, -0.89892578125, -0.03369140625, 0.37841796875, 0, 
489, 2072763913, 87.82598876953125, -38.66464614868164, -25.693017959594727, 6.292356967926025, 7.731746673583984, 0.15630054473876953, 1.762797236442566, -3.177279233932495, 0.6610265374183655, -0.89697265625, -0.03369140625, 0.37744140625, 0, 
490, 2072772246, 87.82501983642578, -38.66435623168945, -25.691614151000977, 6.020090579986572, 7.705969333648682, 0.3159010708332062, 1.8071610927581787, -3.110682249069214, 0.54571133852005, -0.89794921875, -0.033203125, 0.38134765625, 0, 
491, 2072780579, 87.82504272460938, -38.66372299194336, -25.694664001464844, 5.907179832458496, 7.674570560455322, 0.39378800988197327, 1.8150758743286133, -3.243338108062744, 0.49796631932258606, -0.90185546875, -0.03076171875, 0.37939453125, 0, 
492, 2072788912, 87.82569122314453, -38.66403579711914, -25.696533203125, 6.012120246887207, 7.643077373504639, 0.31333404779434204, 1.7565984725952148, -3.4213316440582275, 0.6059303283691406, -0.900390625, -0.033203125, 0.380859375, 0, 
