sep=,
PacketCounter,SampleTimeFine,Euler_X,Euler_Y,Euler_Z,Acc_X,Acc_Y,Acc_Z,Gyr_X,Gyr_Y,Gyr_Z,Mag_X,Mag_Y,Mag_Z,Status,
0, 2068672410, 89.86853790283203, -47.402793884277344, -36.26359939575195, 0, 0, 0, 0, 0, 0, -0.02490234375, -0.00732421875, 0.2099609375, 0, 
1, 2068680743, 89.86927032470703, -47.40273666381836, -36.26472091674805, 6.923519611358643, 6.585159778594971, 0.10913533717393875, -3.1978349685668945, -2.982957363128662, -0.34666308760643005, -0.0263671875, -0.0078125, 0.2099609375, 0, 
2, 2068689076, 89.87053680419922, -47.40260696411133, -36.26020050048828, 7.093053817749023, 6.581506252288818, 0.10385404527187347, -3.2333619594573975, -3.0706088542938232, -0.3502490520477295, -0.025390625, -0.0078125, 0.2099609375, 0, 
3, 2068697409, 89.87102508544922, -47.402591705322266, -36.25990295410156, 7.357171535491943, 6.6516876220703125, 0.06053963676095009, -3.103830575942993, -2.8670780658721924, -0.34038758277893066, -0.02734375, -0.00732421875, 0.2099609375, 0, 
4, 2068705742, 89.87100219726562, -47.40243911743164, -36.25875473022461, 7.439220905303955, 6.6644158363342285, 0.005898924544453621, -3.145146608352661, -2.8499934673309326, -0.35211890935897827, -0.02490234375, -0.0078125, 0.20703125, 0, 
5, 2068714075, 89.86883544921875, -47.40281295776367, -36.26692581176758, 7.191648483276367, 6.69809103012085, -0.057678062468767166, -3.178598403930664, -2.6493313312530518, -0.2881857454776764, -0.02685546875, -0.00830078125, 0.21044921875, 0, 
6, 2068722408, 89.86808013916016, -47.403079986572266, -36.26622772216797, 6.944880485534668, 6.630850791931152, -0.04544740915298462, -3.2159695625305176, -2.8345227241516113, -0.30657678842544556, -0.02685546875, -0.0087890625, 0.2099609375, 0, 
7, 2068730741, 89.86939239501953, -47.40377426147461, -36.26774597167969, 7.042140007019043, 6.556823253631592, 0.12388642877340317, -3.167097806930542, -3.013847827911377, -0.2575511634349823, -0.02783203125, -0.00634765625, 0.2109375, 0, 
8, 2068739074, 89.86995697021484, -47.40312576293945, -36.26715850830078, 7.290844440460205, 6.606030464172363, 0.13710664212703705, -3.1241683959960938, -2.9017090797424316, -0.4115951955318451, -0.02490234375, -0.00830078125, 0.20751953125, 0, 
9, 2068747407, 89.86888122558594, -47.40230941772461, -36.266536712646484, 7.489500045776367, 6.7324981689453125, -0.003717119572684169, -3.2624340057373047, -2.8395943641662598, -0.4369276463985443, -0.0234375, -0.01123046875, 0.2099609375, 0, 
10, 2068755740, 89.86898040771484, -47.402347564697266, -36.25746536254883, 7.326794624328613, 6.656866073608398, -0.10268969088792801, -3.123886823654175, -2.8451783657073975, -0.3292197585105896, -0.02490234375, -0.0078125, 0.2119140625, 0, 
11, 2068764073, 89.86582946777344, -47.402793884277344, -36.26523971557617, 6.966405868530273, 6.607908248901367, -0.00012626996613107622, -3.2907121181488037, -2.63857364654541, -0.2788621783256531, -0.02685546875, -0.0078125, 0.21044921875, 0, 
12, 2068772406, 89.86605834960938, -47.40269470214844, -36.2658805847168, 6.8863983154296875, 6.5383710861206055, 0.09068934619426727, -3.216763973236084, -2.9443821907043457, -0.3504539430141449, -0.0234375, -0.0068359375, 0.20947265625, 0, 
13, 2068780739, 89.86800384521484, -47.402183532714844, -36.26795196533203, 7.198994159698486, 6.58152437210083, 0.057965055108070374, -3.137974739074707, -3.060004711151123, -0.4014263451099396, -0.02685546875, -0.00927734375, 0.2099609375, 0, 
14, 2068789072, 89.8690185546875, -47.40188217163086, -36.25461196899414, 7.530895709991455, 6.679177761077881, 0.04204658046364784, -3.066664457321167, -2.895535707473755, -0.3701513409614563, -0.02587890625, -0.0078125, 0.2099609375, 0, 
15, 2068797405, 89.86863708496094, -47.40240478515625, -36.253143310546875, 7.35435152053833, 6.715840816497803, -0.06789039820432663, -3.1044962406158447, -2.771357536315918, -0.27601900696754456, -0.02490234375, -0.0078125, 0.20947265625, 0, 
16, 2068805738, 89.86679077148438, -47.40289306640625, -36.25043869018555, 7.026177406311035, 6.729496479034424, -0.03540734201669693, -3.3347175121307373, -2.8297839164733887, -0.2736881375312805, -0.025390625, -0.01025390625, 0.2099609375, 0, 
17, 2068814071, 89.86619567871094, -47.402462005615234, -36.26734924316406, 7.008738994598389, 6.5450358390808105, 0.06373792141675949, -3.238740921020508, -2.8699727058410645, -0.38654443621635437, -0.02490234375, -0.0078125, 0.2099609375, 0, 
18, 2068822404, 89.86775207519531, -47.402618408203125, -36.26857376098633, 7.00679874420166, 6.538392066955566, 0.05942007526755333, -3.1094658374786377, -2.9916915893554688, -0.32081833481788635, -0.02587890625, -0.009765625, 0.21044921875, 0, 
19, 2068830737, 89.86914825439453, -47.402320861816406, -36.26932907104492, 7.314608097076416, 6.612587928771973, 0.09900204837322235, -3.086848497390747, -2.952117443084717, -0.3761450946331024, -0.02587890625, -0.0087890625, 0.21044921875, 0, 
20, 2068839070, 89.86802673339844, -47.4028434753418, -36.2686653137207, 7.5413498878479, 6.658648490905762, -0.05369752645492554, -3.2455031871795654, -2.8246612548828125, -0.26910316944122314, -0.02685546875, -0.009765625, 0.2109375, 0, 
21, 2068847403, 89.86616516113281, -47.403541564941406, -36.266178131103516, 7.188155651092529, 6.748733043670654, -0.08059439063072205, -3.1903810501098633, -2.690493583679199, -0.25578373670578003, -0.02587890625, -0.0068359375, 0.20751953125, 0, 
22, 2068855736, 89.865234375, -47.403533935546875, -36.26527404785156, 6.918139457702637, 6.660351753234863, 0.03169116750359535, -3.160104990005493, -2.765261650085449, -0.3338303565979004, -0.02587890625, -0.00537109375, 0.20947265625, 0, 
23, 2068864069, 89.86632537841797, -47.40377426147461, -36.26493835449219, 7.030998706817627, 6.566691875457764, 0.11957084387540817, -3.202061176300049, -3.0301387310028076, -0.3041178286075592, -0.025390625, -0.00634765625, 0.20849609375, 0, 
24, 2068872402, 89.86782836914062, -47.403785705566406, -36.266632080078125, 7.279135227203369, 6.6056342124938965, 0.08376891165971756, -3.1566214561462402, -3.029369831085205, -0.3391324579715729, -0.02734375, -0.005859375, 0.21044921875, 0, 
25, 2068880735, 89.8671646118164, -47.40388870239258, -36.26726531982422, 7.473776340484619, 6.694280624389648, 0.004986658226698637, -3.3262391090393066, -2.9426658153533936, -0.3256593942642212, -0.025390625, -0.0078125, 0.20947265625, 0, 
26, 2068889068, 89.86544036865234, -47.404144287109375, -36.24903106689453, 7.3516669273376465, 6.659824848175049, -0.06937333941459656, -3.273550510406494, -2.7847797870635986, -0.3036055266857147, -0.02587890625, -0.00830078125, 0.20947265625, 0, 
27, 2068897401, 89.86322021484375, -47.4046745300293, -36.246036529541016, 6.948027610778809, 6.686361789703369, 0.005781324580311775, -3.1894586086273193, -2.6465394496917725, -0.2742772102355957, -0.02294921875, -0.0068359375, 0.21044921875, 0, 
28, 2068905734, 89.86277770996094, -47.405784606933594, -36.2440185546875, 6.933294773101807, 6.5816969871521, 0.11014776676893234, -3.1312122344970703, -2.792387008666992, -0.200508251786232, -0.0263671875, -0.00634765625, 0.21142578125, 0, 
29, 2068914067, 89.86444854736328, -47.40512466430664, -36.24675750732422, 7.200726509094238, 6.587928771972656, 0.11208606511354446, -3.179853677749634, -3.0748608112335205, -0.41341376304626465, -0.0263671875, -0.0078125, 0.2109375, 0, 
30, 2068922400, 89.8657455444336, -47.40532302856445, -36.247718811035156, 7.475827693939209, 6.714834213256836, 0.08143610507249832, -3.114844799041748, -2.9695608615875244, -0.3152856230735779, -0.0234375, -0.009765625, 0.2099609375, 0, 
31, 2068930733, 89.86510467529297, -47.406593322753906, -36.24699401855469, 7.38692569732666, 6.665904521942139, -0.09766537696123123, -3.2021381855010986, -2.8327295780181885, -0.1854470819234848, -0.0263671875, -0.00927734375, 0.20947265625, 0, 
32, 2068939066, 89.86380767822266, -47.40776824951172, -36.245845794677734, 7.105205535888672, 6.6413068771362305, -0.03274537995457649, -3.239278554916382, -2.8012750148773193, -0.19479626417160034, -0.0234375, -0.005859375, 0.20849609375, 0, 
33, 2068947399, 89.86316680908203, -47.40701675415039, -36.24589538574219, 6.951915264129639, 6.546367168426514, 0.05887741968035698, -3.2685556411743164, -2.895176887512207, -0.429909348487854, -0.02734375, -0.00927734375, 0.208984375, 0, 
34, 2068955732, 89.86599731445312, -47.40652847290039, -36.252235412597656, 7.049938678741455, 6.552165508270264, 0.06908439844846725, -3.1672513484954834, -3.191713333129883, -0.3917953670024872, -0.02685546875, -0.0078125, 0.20751953125, 0, 
35, 2068964065, 89.8690414428711, -47.405723571777344, -36.254920959472656, 7.439708709716797, 6.617067337036133, 0.11373118311166763, -3.0232481956481934, -3.084594249725342, -0.4314718246459961, -0.02490234375, -0.00830078125, 0.2099609375, 0, 
36, 2068972398, 89.86798095703125, -47.405120849609375, -36.25285339355469, 7.49338960647583, 6.713626384735107, -0.06920188665390015, -3.133927345275879, -2.722895383834839, -0.410211980342865, -0.0234375, -0.0078125, 0.2109375, 0, 
37, 2068980731, 89.86588287353516, -47.406394958496094, -36.250919342041016, 7.093290328979492, 6.716517925262451, -0.07579672336578369, -3.2693498134613037, -2.7333719730377197, -0.18634356558322906, -0.0263671875, -0.00927734375, 0.21044921875, 0, 
38, 2068989064, 89.8632583618164, -47.40677261352539, -36.270469665527344, 6.904029369354248, 6.6134819984436035, 0.03291063383221626, -3.3796443939208984, -2.7821669578552246, -0.2891590893268585, -0.02685546875, -0.0087890625, 0.208984375, 0, 
39, 2068997397, 89.86283111572266, -47.40693664550781, -36.27106475830078, 7.0240044593811035, 6.523423671722412, 0.08009172976016998, -3.290917158126831, -2.9397459030151367, -0.31935831904411316, -0.02587890625, -0.0078125, 0.2080078125, 0, 
40, 2069005730, 89.86529541015625, -47.40692138671875, -36.273738861083984, 7.223655700683594, 6.586738586425781, 0.07669257372617722, -3.05887770652771, -3.0460453033447266, -0.33449631929397583, -0.0263671875, -0.00830078125, 0.20947265625, 0, 
41, 2069014063, 89.86730194091797, -47.40613555908203, -36.27596664428711, 7.5233001708984375, 6.676389694213867, -0.018827129155397415, -3.0993993282318115, -3.030855655670166, -0.42757847905158997, -0.02783203125, -0.009765625, 0.20947265625, 0, 
42, 2069022396, 89.86553955078125, -47.406829833984375, -36.27413558959961, 7.3714985847473145, 6.665821075439453, -0.10635025799274445, -3.236025810241699, -2.744309425354004, -0.2544262111186981, -0.02392578125, -0.00927734375, 0.2109375, 0, 
43, 2069030729, 89.86375427246094, -47.406410217285156, -36.27134704589844, 6.983430862426758, 6.673844337463379, 0.015768105164170265, -3.1551616191864014, -2.6644949913024902, -0.3904121220111847, -0.0263671875, -0.00732421875, 0.20947265625, 0, 
44, 2069039062, 89.86373138427734, -47.4061279296875, -36.29982376098633, 6.970795631408691, 6.574714660644531, 0.13490040600299835, -3.1520495414733887, -2.8706002235412598, -0.368038147687912, -0.025390625, -0.00634765625, 0.21142578125, 0, 
45, 2069047395, 89.86671447753906, -47.405784606933594, -36.30316162109375, 7.168489456176758, 6.607617378234863, 0.12363512068986893, -3.1246163845062256, -3.1615777015686035, -0.38179299235343933, -0.025390625, -0.0078125, 0.20751953125, 0, 
46, 2069055728, 89.86895751953125, -47.40614700317383, -36.305152893066406, 7.429699420928955, 6.685943126678467, 0.051861442625522614, -3.0723252296447754, -3.0368239879608154, -0.289056658744812, -0.02587890625, -0.00830078125, 0.2080078125, 0, 
47, 2069064061, 89.86880493164062, -47.4064826965332, -36.30812072753906, 7.411293029785156, 6.65984582901001, -0.05004257708787918, -3.1901509761810303, -2.8837785720825195, -0.29579320549964905, -0.02490234375, -0.00634765625, 0.2001953125, 0, 
48, 2069072394, 89.8674545288086, -47.4065055847168, -36.30611038208008, 7.0280303955078125, 6.6893510818481445, -0.05542720481753349, -3.172348737716675, -2.7273526191711426, -0.3350598216056824, -0.02392578125, -0.0048828125, 0.19580078125, 0, 
49, 2069080727, 89.86650848388672, -47.406734466552734, -36.30564498901367, 6.898381233215332, 6.611570358276367, 0.06570672243833542, -3.261178970336914, -2.853425979614258, -0.3107263445854187, -0.0244140625, -0.00732421875, 0.1982421875, 0, 
50, 2069089060, 89.86888122558594, -47.406654357910156, -36.329017639160156, 7.100268840789795, 6.572261333465576, 0.1147429496049881, -3.1492960453033447, -3.127063035964966, -0.34476765990257263, -0.0283203125, -0.00927734375, 0.19775390625, 0, 
51, 2069097393, 89.87178802490234, -47.40668869018555, -36.330692291259766, 7.4434733390808105, 6.682128429412842, 0.08963208645582199, -2.9894886016845703, -3.0255537033081055, -0.3341633379459381, -0.02490234375, -0.00634765625, 0.19921875, 0, 
52, 2069105726, 89.87245178222656, -47.406917572021484, -36.33552551269531, 7.491917133331299, 6.744409561157227, -0.10102103650569916, -3.146375894546509, -2.9363903999328613, -0.3067561089992523, -0.0283203125, -0.00634765625, 0.1982421875, 0, 
53, 2069114059, 89.86904907226562, -47.4078483581543, -36.3320198059082, 7.2014851570129395, 6.636666774749756, -0.053136564791202545, -3.2844748497009277, -2.609565496444702, -0.22052577137947083, -0.025390625, -0.0068359375, 0.19873046875, 0, 
54, 2069122392, 89.8690414428711, -47.40751647949219, -36.33106994628906, 6.913120269775391, 6.578709125518799, 0.035088300704956055, -3.1056621074676514, -2.813685417175293, -0.3802817761898041, -0.02490234375, -0.0078125, 0.197265625, 0, 
55, 2069130725, 89.87064361572266, -47.407066345214844, -36.33282470703125, 6.962937355041504, 6.569850444793701, 0.0847342237830162, -3.150448799133301, -3.0333404541015625, -0.3919490575790405, -0.02490234375, -0.00927734375, 0.19921875, 0, 
56, 2069139058, 89.87322998046875, -47.407440185546875, -36.3348388671875, 7.298901557922363, 6.610257625579834, 0.045016516000032425, -3.054011106491089, -3.057110548019409, -0.2904398441314697, -0.0234375, -0.00439453125, 0.19970703125, 0, 
57, 2069147391, 89.8742904663086, -47.4078254699707, -36.33464813232422, 7.52169942855835, 6.71052885055542, 0.031110040843486786, -3.0443286895751953, -2.875018835067749, -0.2915668487548828, -0.02587890625, -0.0068359375, 0.19970703125, 0, 
58, 2069155724, 89.87462615966797, -47.40897750854492, -36.334083557128906, 7.248822212219238, 6.739508152008057, -0.1058540791273117, -3.096402406692505, -2.8485848903656006, -0.19543662667274475, -0.02490234375, -0.00732421875, 0.19970703125, 0, 
59, 2069164057, 89.87226867675781, -47.409034729003906, -36.3331184387207, 6.9580302238464355, 6.708126544952393, -0.014983119443058968, -3.382488250732422, -2.81646466255188, -0.3272218406200409, -0.0244140625, -0.0068359375, 0.20068359375, 0, 
60, 2069172390, 89.87147521972656, -47.40977096557617, -36.33268737792969, 7.0312676429748535, 6.495909690856934, 0.08336043357849121, -3.2457849979400635, -2.856294631958008, -0.25173670053482056, -0.02587890625, -0.00732421875, 0.19970703125, 0, 
61, 2069180723, 89.87246704101562, -47.40951156616211, -36.33338928222656, 7.103490352630615, 6.579366207122803, 0.10536003112792969, -3.130136489868164, -2.947711706161499, -0.3718162775039673, -0.02734375, -0.00830078125, 0.203125, 0, 
62, 2069189056, 89.87458801269531, -47.4096565246582, -36.33580780029297, 7.439758777618408, 6.691019535064697, 0.022595008835196495, -3.14542818069458, -3.0904343128204346, -0.3142610490322113, -0.02734375, -0.0078125, 0.201171875, 0, 
63, 2069197389, 89.8722152709961, -47.40911102294922, -36.33304214477539, 7.4945173263549805, 6.671989440917969, -0.12443043291568756, -3.228034019470215, -2.666390895843506, -0.40547335147857666, -0.0244140625, -0.0068359375, 0.201171875, 0, 
64, 2069205722, 89.87223052978516, -47.40991973876953, -36.3331413269043, 7.045094966888428, 6.684435844421387, -0.04143458604812622, -3.192430257797241, -2.9016318321228027, -0.23613762855529785, -0.0263671875, -0.00732421875, 0.20068359375, 0, 
65, 2069214055, 89.8711929321289, -47.410526275634766, -36.33268737792969, 6.878024101257324, 6.590287685394287, 0.10005730390548706, -3.2726283073425293, -2.855910539627075, -0.25977957248687744, -0.02587890625, -0.0068359375, 0.201171875, 0, 
66, 2069222388, 89.87322235107422, -47.41049575805664, -36.33460235595703, 7.104673385620117, 6.584591388702393, 0.07034516334533691, -3.1132054328918457, -3.0482733249664307, -0.342231810092926, -0.02587890625, -0.00732421875, 0.20068359375, 0, 
67, 2069230721, 89.87480926513672, -47.410316467285156, -36.33641052246094, 7.396589279174805, 6.636697292327881, 0.11757522821426392, -3.156391143798828, -3.0362861156463623, -0.3613656461238861, -0.02587890625, -0.00732421875, 0.2001953125, 0, 
68, 2069239054, 89.87429809570312, -47.40961456298828, -36.33515930175781, 7.437971591949463, 6.6950602531433105, -0.05033330246806145, -3.1705048084259033, -2.8225607872009277, -0.41769134998321533, -0.02587890625, -0.0078125, 0.2001953125, 0, 
69, 2069247387, 89.87464141845703, -47.41004943847656, -36.33466720581055, 7.21455192565918, 6.670093059539795, -0.047694627195596695, -3.100705862045288, -2.8511464595794678, -0.28718680143356323, -0.025390625, -0.00634765625, 0.201171875, 0, 
70, 2069255720, 89.8741683959961, -47.409873962402344, -36.33097839355469, 6.9673237800598145, 6.611641883850098, 0.022900544106960297, -3.1109509468078613, -2.768130302429199, -0.3539374768733978, -0.0263671875, -0.0078125, 0.20166015625, 0, 
71, 2069264053, 89.87432098388672, -47.410282135009766, -36.33507537841797, 7.005841255187988, 6.566147804260254, 0.13597486913204193, -3.175755500793457, -2.900684356689453, -0.2832934558391571, -0.02490234375, -0.0068359375, 0.20166015625, 0, 
72, 2069272386, 89.8763656616211, -47.409671783447266, -36.336082458496094, 7.313303470611572, 6.633707046508789, 0.10989342629909515, -3.031137466430664, -2.9721992015838623, -0.4134906232357025, -0.0263671875, -0.00830078125, 0.19921875, 0, 
73, 2069280719, 89.8757553100586, -47.40890884399414, -36.33549880981445, 7.525428295135498, 6.746646881103516, 0.0014397060731425881, -3.2081830501556396, -2.8433339595794678, -0.4307802617549896, -0.0263671875, -0.0078125, 0.2021484375, 0, 
74, 2069289052, 89.87391662597656, -47.410343170166016, -36.336360931396484, 7.290163040161133, 6.670651435852051, -0.08900904655456543, -3.1838364601135254, -2.689225912094116, -0.16128002107143402, -0.0263671875, -0.0078125, 0.19921875, 0, 
75, 2069297385, 89.87257385253906, -47.410709381103516, -36.33432388305664, 6.941764831542969, 6.617364883422852, -0.02263820543885231, -3.1709401607513428, -2.7268917560577393, -0.2950247824192047, -0.02392578125, -0.00634765625, 0.20361328125, 0, 
76, 2069305718, 89.8734130859375, -47.4101676940918, -36.33841323852539, 6.9328999519348145, 6.540633201599121, 0.10587839037179947, -3.2180063724517822, -3.014603614807129, -0.3988264799118042, -0.02490234375, -0.00732421875, 0.20068359375, 0, 
77, 2069314051, 89.87664031982422, -47.40951919555664, -36.341800689697266, 7.183803558349609, 6.5442399978637695, 0.059373438358306885, -3.1257948875427246, -3.1938772201538086, -0.4125044345855713, -0.0263671875, -0.0087890625, 0.2041015625, 0, 
78, 2069322384, 89.87974548339844, -47.409202575683594, -36.34495162963867, 7.53220272064209, 6.661204814910889, 0.0466919019818306, -3.0916638374328613, -3.146939516067505, -0.37806612253189087, -0.0263671875, -0.00732421875, 0.20263671875, 0, 
79, 2069330717, 89.87869262695312, -47.410457611083984, -36.343509674072266, 7.419455528259277, 6.710425853729248, -0.08472111076116562, -3.1869490146636963, -2.775686740875244, -0.18808534741401672, -0.02490234375, -0.0078125, 0.2001953125, 0, 
80, 2069339050, 89.87638092041016, -47.41037368774414, -36.35491943359375, 7.005556106567383, 6.700688362121582, -0.040624331682920456, -3.218198299407959, -2.6618313789367676, -0.3412840962409973, -0.02490234375, -0.0078125, 0.20166015625, 0, 
81, 2069347383, 89.87552642822266, -47.409976959228516, -36.354923248291016, 6.952101230621338, 6.558574199676514, 0.11483237892389297, -3.290379285812378, -2.8921549320220947, -0.3862370550632477, -0.0263671875, -0.0087890625, 0.201171875, 0, 
82, 2069355716, 89.8759765625, -47.41070556640625, -36.3548583984375, 7.053032875061035, 6.528578281402588, 0.061394017189741135, -3.201753854751587, -2.961031198501587, -0.24797143042087555, -0.02783203125, -0.0087890625, 0.203125, 0, 
83, 2069364049, 89.87706756591797, -47.41059112548828, -36.35044860839844, 7.35402774810791, 6.6129913330078125, 0.05827879160642624, -3.2333362102508545, -3.053345203399658, -0.3481487035751343, -0.02685546875, -0.00732421875, 0.19921875, 0, 
84, 2069372382, 89.87663269042969, -47.41107940673828, -36.350337982177734, 7.502878189086914, 6.663794994354248, -0.05610624700784683, -3.229519844055176, -2.881371259689331, -0.27937448024749756, -0.0263671875, -0.00830078125, 0.203125, 0, 
85, 2069380715, 89.87425994873047, -47.41148376464844, -36.34772491455078, 7.197058200836182, 6.686859607696533, -0.06770050525665283, -3.242493152618408, -2.6796460151672363, -0.2910161316394806, -0.025390625, -0.0078125, 0.2021484375, 0, 
86, 2069389048, 89.87350463867188, -47.41120910644531, -36.34612274169922, 6.927526950836182, 6.659425258636475, 0.02575811743736267, -3.1998581886291504, -2.8275046348571777, -0.366488516330719, -0.02587890625, -0.00634765625, 0.20068359375, 0, 
87, 2069397381, 89.87504577636719, -47.412017822265625, -36.34819030761719, 7.053821086883545, 6.565284252166748, 0.12690061330795288, -3.1880760192871094, -3.0595691204071045, -0.2446672022342682, -0.0263671875, -0.0078125, 0.20263671875, 0, 
88, 2069405714, 89.8767318725586, -47.41115951538086, -36.36717987060547, 7.295604228973389, 6.605825901031494, 0.13686615228652954, -3.183593273162842, -3.077678680419922, -0.43370020389556885, -0.02294921875, -0.00634765625, 0.20166015625, 0, 
89, 2069414047, 89.87594604492188, -47.41075134277344, -36.36297607421875, 7.467906951904297, 6.713303565979004, -0.028934413567185402, -3.216097593307495, -2.8355727195739746, -0.3834195137023926, -0.02490234375, -0.0068359375, 0.20166015625, 0, 
90, 2069422380, 89.87369537353516, -47.410770416259766, -36.36050033569336, 7.320784091949463, 6.658572673797607, -0.10078281164169312, -3.2400472164154053, -2.6899302005767822, -0.33544406294822693, -0.02490234375, -0.0078125, 0.203125, 0, 
91, 2069430713, 89.8715591430664, -47.41071701049805, -36.357730865478516, 6.966632843017578, 6.657951354980469, 0.025562940165400505, -3.1983726024627686, -2.6656734943389893, -0.3456641137599945, -0.02783203125, -0.00830078125, 0.205078125, 0, 
92, 2069439046, 89.87049865722656, -47.410179138183594, -36.3570671081543, 6.937282085418701, 6.594701290130615, 0.09365073591470718, -3.266352891921997, -2.853425979614258, -0.3984038531780243, -0.02783203125, -0.0087890625, 0.20556640625, 0, 
93, 2069447379, 89.87258911132812, -47.40946960449219, -36.35875701904297, 7.193014144897461, 6.600308418273926, 0.09391062706708908, -3.0869510173797607, -3.029139518737793, -0.424248605966568, -0.02490234375, -0.00732421875, 0.208984375, 0, 
94, 2069455712, 89.87234497070312, -47.40934753417969, -36.36203384399414, 7.4904985427856445, 6.703354835510254, 0.12320788204669952, -3.1315197944641113, -2.8157730102539062, -0.34965991973876953, -0.025390625, -0.005859375, 0.20751953125, 0, 
95, 2069464045, 89.8710708618164, -47.4095573425293, -36.356361389160156, 7.376226902008057, 6.727250099182129, -0.08959929645061493, -3.22365403175354, -2.7871105670928955, -0.3091638386249542, -0.02587890625, -0.00830078125, 0.20849609375, 0, 
96, 2069472378, 89.8713607788086, -47.410484313964844, -36.35604476928711, 7.069265842437744, 6.683104515075684, -0.03691580891609192, -3.1251158714294434, -2.8652596473693848, -0.22691652178764343, -0.0263671875, -0.00634765625, 0.20849609375, 0, 
97, 2069480711, 89.87109375, -47.410465240478516, -36.35556411743164, 6.973952293395996, 6.5334272384643555, 0.08027004450559616, -3.176626443862915, -2.851684093475342, -0.34089988470077515, -0.0244140625, -0.00830078125, 0.21142578125, 0, 
98, 2069489044, 89.8732681274414, -47.410213470458984, -36.35441970825195, 7.039248466491699, 6.541153430938721, 0.0447470024228096, -3.1660990715026855, -3.116305112838745, -0.3653614819049835, -0.025390625, -0.01025390625, 0.2099609375, 0, 
99, 2069497377, 89.87639617919922, -47.409881591796875, -36.35661315917969, 7.382974147796631, 6.639793395996094, 0.12555411458015442, -3.0050621032714844, -3.068047523498535, -0.3782198131084442, -0.02685546875, -0.0078125, 0.20849609375, 0, 
100, 2069505710, 89.8752670288086, -47.409854888916016, -36.35551834106445, 7.513275623321533, 6.730864524841309, -0.03117210976779461, -3.227163314819336, -2.805399179458618, -0.33600756525993347, -0.0234375, -0.00830078125, 0.20947265625, 0, 
101, 2069514043, 89.87345886230469, -47.410186767578125, -36.38338851928711, 7.125520706176758, 6.742886066436768, -0.044178545475006104, -3.183439254760742, -2.689725160598755, -0.2954089641571045, -0.02685546875, -0.0068359375, 0.2099609375, 0, 
102, 2069522376, 89.87313842773438, -47.410701751708984, -36.38306427001953, 6.913510799407959, 6.645938396453857, 0.013879016041755676, -3.1970407962799072, -2.8652853965759277, -0.27791446447372437, -0.0244140625, -0.00927734375, 0.2109375, 0, 
103, 2069530709, 89.87532043457031, -47.41090774536133, -36.385643005371094, 7.0048089027404785, 6.5385212898254395, 0.11150926351547241, -3.154956817626953, -3.0999372005462646, -0.3130059540271759, -0.0263671875, -0.01025390625, 0.20947265625, 0, 
104, 2069539042, 89.87761688232422, -47.410919189453125, -36.38791275024414, 7.2158684730529785, 6.600783348083496, 0.07033336907625198, -3.1092607975006104, -3.0781142711639404, -0.3335486054420471, -0.02587890625, -0.01025390625, 0.21044921875, 0, 
105, 2069547375, 89.8791275024414, -47.411231994628906, -36.38901138305664, 7.496932506561279, 6.6628737449646, -0.008601355366408825, -3.102139949798584, -2.9807286262512207, -0.3003269135951996, -0.0244140625, -0.0087890625, 0.20947265625, 0, 
106, 2069555708, 89.87842559814453, -47.411861419677734, -36.388004302978516, 7.402291774749756, 6.661807060241699, -0.057517871260643005, -3.183260202407837, -2.811495542526245, -0.2590879797935486, -0.02734375, -0.00830078125, 0.2099609375, 0, 
107, 2069564041, 89.87711334228516, -47.411563873291016, -36.38631820678711, 7.004059791564941, 6.673693656921387, -0.0002139588468708098, -3.1926863193511963, -2.7576284408569336, -0.36840954422950745, -0.0263671875, -0.00732421875, 0.20947265625, 0, 
108, 2069572374, 89.8767318725586, -47.411643981933594, -36.385963439941406, 6.946862697601318, 6.5934882164001465, 0.15777315199375153, -3.2030601501464844, -2.8627238273620605, -0.33116644620895386, -0.025390625, -0.00732421875, 0.21044921875, 0, 
109, 2069580707, 89.87914276123047, -47.412353515625, -36.38811492919922, 7.159034252166748, 6.570921897888184, 0.05920379236340523, -3.088974714279175, -3.0676636695861816, -0.2540932297706604, -0.02587890625, -0.0068359375, 0.20947265625, 0, 
110, 2069589040, 89.882080078125, -47.41239547729492, -36.39048385620117, 7.425920486450195, 6.6670355796813965, 0.04398352652788162, -3.0428431034088135, -3.0852859020233154, -0.32717064023017883, -0.02392578125, -0.00634765625, 0.20849609375, 0, 
111, 2069597373, 89.88219451904297, -47.41201400756836, -36.389827728271484, 7.407995700836182, 6.669013977050781, -0.10536300390958786, -3.1161510944366455, -2.836315393447876, -0.384700208902359, -0.0244140625, -0.0068359375, 0.208984375, 0, 
112, 2069605706, 89.88053894042969, -47.41188049316406, -36.386627197265625, 7.07106876373291, 6.718873500823975, -0.049164410680532455, -3.099860191345215, -2.635141134262085, -0.3488914966583252, -0.02685546875, -0.00927734375, 0.20849609375, 0, 
113, 2069614039, 89.87859344482422, -47.41215515136719, -36.384361267089844, 6.934708118438721, 6.59312629699707, 0.03555287793278694, -3.218812942504883, -2.709909439086914, -0.30153077840805054, -0.02587890625, -0.0087890625, 0.2080078125, 0, 
114, 2069622372, 89.87944030761719, -47.412906646728516, -36.38615417480469, 7.1053056716918945, 6.5483012199401855, 0.08457006514072418, -3.2446837425231934, -3.0354151725769043, -0.2499181181192398, -0.025390625, -0.0078125, 0.2099609375, 0, 
115, 2069630705, 89.88099670410156, -47.41299057006836, -36.38764572143555, 7.423915863037109, 6.650878429412842, 0.10682041198015213, -3.1320576667785645, -3.0146422386169434, -0.32834890484809875, -0.02392578125, -0.00927734375, 0.2099609375, 0, 
116, 2069639038, 89.8799819946289, -47.41299819946289, -36.38294982910156, 7.508268356323242, 6.7318596839904785, -0.067001111805439, -3.204033374786377, -2.8027865886688232, -0.3330875337123871, -0.0244140625, -0.00927734375, 0.2099609375, 0, 
117, 2069647371, 89.87884521484375, -47.41372299194336, -36.382041931152344, 7.2050323486328125, 6.654205799102783, -0.08013392984867096, -3.244529962539673, -2.8181040287017822, -0.25247952342033386, -0.025390625, -0.00927734375, 0.20947265625, 0, 
118, 2069655704, 89.8763198852539, -47.414588928222656, -36.39362716674805, 6.969893455505371, 6.56235408782959, 0.023066919296979904, -3.3383545875549316, -2.7534024715423584, -0.22945234179496765, -0.02490234375, -0.0068359375, 0.2099609375, 0, 
119, 2069664037, 89.87913513183594, -47.41425323486328, -36.39579772949219, 6.997055530548096, 6.55092191696167, 0.06550824642181396, -3.1387174129486084, -3.1583378314971924, -0.3744288980960846, -0.02685546875, -0.0087890625, 0.208984375, 0, 
120, 2069672370, 89.88167572021484, -47.4139289855957, -36.39812469482422, 7.239229679107666, 6.598525524139404, 0.06256240606307983, -3.085695743560791, -3.0818278789520264, -0.3800896406173706, -0.025390625, -0.00927734375, 0.2099609375, 0, 
121, 2069680703, 89.8814926147461, -47.41311264038086, -36.39810562133789, 7.505263805389404, 6.71274995803833, 0.030999204143881798, -3.2101683616638184, -2.888120651245117, -0.4366843104362488, -0.02490234375, -0.0087890625, 0.20947265625, 0, 
122, 2069689036, 89.879638671875, -47.413246154785156, -36.38071060180664, 7.324133396148682, 6.741997241973877, -0.07274023443460464, -3.195312023162842, -2.6957061290740967, -0.31680968403816223, -0.02490234375, -0.00732421875, 0.2099609375, 0, 
123, 2069697369, 89.87699890136719, -47.41328048706055, -36.378257751464844, 6.957115650177002, 6.71652364730835, -0.01643194444477558, -3.2875871658325195, -2.691748857498169, -0.33449631929397583, -0.02490234375, -0.0068359375, 0.208984375, 0, 
124, 2069705702, 89.8761978149414, -47.413841247558594, -36.379573822021484, 7.001607418060303, 6.526148319244385, 0.08505532890558243, -3.2743191719055176, -2.890822649002075, -0.2666698396205902, -0.02880859375, -0.00830078125, 0.20849609375, 0, 
125, 2069714035, 89.8790283203125, -47.41398620605469, -36.373722076416016, 7.125482559204102, 6.525559425354004, 0.1070207953453064, -3.0289344787597656, -3.063257932662964, -0.3183593451976776, -0.0263671875, -0.00830078125, 0.2099609375, 0, 
126, 2069722368, 89.88175964355469, -47.41450881958008, -36.37699508666992, 7.4234490394592285, 6.663856029510498, 0.058566946536302567, -3.149705648422241, -3.156647205352783, -0.27645444869995117, -0.02880859375, -0.00927734375, 0.21142578125, 0, 
127, 2069730701, 89.88080596923828, -47.41460037231445, -36.375885009765625, 7.508062839508057, 6.675716876983643, -0.07849244028329849, -3.205442190170288, -2.8019156455993652, -0.32737553119659424, -0.02587890625, -0.005859375, 0.2109375, 0, 
128, 2069739034, 89.87854766845703, -47.41465759277344, -36.37059020996094, 7.142866611480713, 6.681215763092041, -0.04105788841843605, -3.2526493072509766, -2.7060160636901855, -0.32417377829551697, -0.0234375, -0.00732421875, 0.21044921875, 0, 
129, 2069747367, 89.87615203857422, -47.41347885131836, -36.36907196044922, 6.87182092666626, 6.637699127197266, 0.10773280262947083, -3.340250015258789, -2.7662858963012695, -0.48083043098449707, -0.02490234375, -0.00927734375, 0.20947265625, 0, 
130, 2069755700, 89.87796020507812, -47.41256332397461, -36.38846206665039, 7.0746989250183105, 6.597603797912598, 0.07141106575727463, -3.2599239349365234, -3.1608476638793945, -0.4444582462310791, -0.02490234375, -0.00732421875, 0.21142578125, 0, 
131, 2069764033, 89.88034057617188, -47.41265106201172, -36.39763641357422, 7.391851425170898, 6.6406474113464355, 0.07639339566230774, -3.066997528076172, -3.0491442680358887, -0.32407131791114807, -0.02734375, -0.00927734375, 0.208984375, 0, 
132, 2069772366, 89.88068389892578, -47.41336441040039, -36.39729309082031, 7.426746368408203, 6.692693710327148, -0.030283527448773384, -3.117149829864502, -2.862006664276123, -0.25465676188468933, -0.0263671875, -0.0087890625, 0.2109375, 0, 
133, 2069780699, 89.87934875488281, -47.413665771484375, -36.395111083984375, 7.188425540924072, 6.674655437469482, -0.05604814365506172, -3.155827283859253, -2.7154929637908936, -0.3022223114967346, -0.02490234375, -0.0087890625, 0.2109375, 0, 
134, 2069789032, 89.87728881835938, -47.41272735595703, -36.39826583862305, 7.005414962768555, 6.633330345153809, -0.023623114451766014, -3.268991231918335, -2.738264322280884, -0.44407400488853455, -0.0263671875, -0.009765625, 0.2080078125, 0, 
135, 2069797365, 89.87775421142578, -47.41337585449219, -36.398765563964844, 6.995946884155273, 6.556501388549805, 0.10612550377845764, -3.1761653423309326, -2.9323689937591553, -0.2612139880657196, -0.02392578125, -0.00732421875, 0.2109375, 0, 
136, 2069805698, 89.88031005859375, -47.41337585449219, -36.40696334838867, 7.2580413818359375, 6.607031345367432, 0.1291905790567398, -2.947814464569092, -2.958495855331421, -0.3337278962135315, -0.02490234375, -0.00732421875, 0.208984375, 0, 
137, 2069814031, 89.88054656982422, -47.41359329223633, -36.40530014038086, 7.526872634887695, 6.7152485847473145, 0.02896774560213089, -3.1163432598114014, -2.8521065711975098, -0.3074861168861389, -0.02685546875, -0.00634765625, 0.2099609375, 0, 
138, 2069822364, 89.87805938720703, -47.41462707519531, -36.40247344970703, 7.2979817390441895, 6.657588481903076, -0.156027689576149, -3.2358975410461426, -2.6624462604522705, -0.21387888491153717, -0.02490234375, -0.005859375, 0.208984375, 0, 
139, 2069830697, 89.87713623046875, -47.415069580078125, -36.40182113647461, 6.956307411193848, 6.621354579925537, -0.005551449954509735, -3.2423267364501953, -2.8384671211242676, -0.28585487604141235, -0.02490234375, -0.00830078125, 0.20751953125, 0, 
140, 2069839030, 89.8776626586914, -47.41538619995117, -36.400047302246094, 6.947044372558594, 6.532558917999268, 0.10118378698825836, -3.1184818744659424, -2.887441635131836, -0.29592129588127136, -0.02685546875, -0.0087890625, 0.20849609375, 0, 
141, 2069847363, 89.87876892089844, -47.41524887084961, -36.4009895324707, 7.153944492340088, 6.566065311431885, 0.05136625096201897, -3.136540174484253, -2.9666409492492676, -0.35544875264167786, -0.02783203125, -0.00927734375, 0.2099609375, 0, 
142, 2069855696, 89.88203430175781, -47.4155158996582, -36.402950286865234, 7.492392539978027, 6.662814617156982, 0.08730514347553253, -2.9683828353881836, -3.055138111114502, -0.30155643820762634, -0.02587890625, -0.0068359375, 0.208984375, 0, 
143, 2069864029, 89.88079071044922, -47.416114807128906, -36.38920593261719, 7.45456600189209, 6.72086763381958, -0.06581050902605057, -3.1858601570129395, -2.7555410861968994, -0.2619439959526062, -0.0244140625, -0.00732421875, 0.203125, 0, 
144, 2069872362, 89.87794494628906, -47.4170036315918, -36.38686752319336, 7.061387062072754, 6.71853494644165, -0.014468037523329258, -3.3227553367614746, -2.70207142829895, -0.23173199594020844, -0.02392578125, -0.0068359375, 0.1982421875, 0, 
145, 2069880695, 89.87725830078125, -47.41748046875, -36.38637161254883, 6.940496444702148, 6.562124252319336, 0.04350871592760086, -3.2255494594573975, -2.8511974811553955, -0.2831909954547882, -0.02392578125, -0.00732421875, 0.1982421875, 0, 
146, 2069889028, 89.87936401367188, -47.417869567871094, -36.3863410949707, 7.024575233459473, 6.518148422241211, 0.08649476617574692, -3.11177134513855, -3.0557525157928467, -0.2869563102722168, -0.02734375, -0.0087890625, 0.19677734375, 0, 
147, 2069897361, 89.88260650634766, -47.418312072753906, -36.388916015625, 7.316506385803223, 6.591152191162109, 0.07879546284675598, -3.025092601776123, -3.1002702713012695, -0.2884162664413452, -0.0244140625, -0.0078125, 0.19921875, 0, 
148, 2069905694, 89.88250732421875, -47.418243408203125, -36.39741897583008, 7.505885601043701, 6.671562194824219, -0.04141836240887642, -3.196272373199463, -2.8913352489471436, -0.3406693637371063, -0.02392578125, -0.0107421875, 0.19970703125, 0, 
149, 2069914027, 89.88072204589844, -47.4186897277832, -36.395198822021484, 7.258527755737305, 6.687283992767334, -0.0655202567577362, -3.2064414024353027, -2.712880849838257, -0.2789134085178375, -0.025390625, -0.0068359375, 0.1982421875, 0, 
150, 2069922360, 89.87899017333984, -47.41861343383789, -36.39303207397461, 6.933129787445068, 6.656504154205322, 0.058217812329530716, -3.2032651901245117, -2.7158775329589844, -0.3480975031852722, -0.02587890625, -0.00537109375, 0.19970703125, 0, 
151, 2069930693, 89.88040924072266, -47.417945861816406, -36.39485549926758, 7.017733097076416, 6.581533908843994, 0.12743093073368073, -3.178367853164673, -3.0385143756866455, -0.4203040301799774, -0.02685546875, -0.00830078125, 0.1982421875, 0, 
152, 2069939026, 89.8822250366211, -47.41815948486328, -36.396034240722656, 7.27108907699585, 6.613150596618652, 0.08098190277814865, -3.070967435836792, -2.990436315536499, -0.30803683400154114, -0.021484375, -0.00634765625, 0.19970703125, 0, 
153, 2069947359, 89.88348388671875, -47.418190002441406, -36.39616775512695, 7.479002952575684, 6.698522090911865, 0.0109917763620615, -3.048990488052368, -2.90124773979187, -0.33567455410957336, -0.025390625, -0.00634765625, 0.203125, 0, 
154, 2069955692, 89.88279724121094, -47.418949127197266, -36.40087127685547, 7.3079328536987305, 6.675808906555176, -0.10574696213006973, -3.2351675033569336, -2.8643503189086914, -0.2434249073266983, -0.02685546875, -0.0087890625, 0.2021484375, 0, 
155, 2069964025, 89.88251495361328, -47.4184684753418, -36.407470703125, 7.025568962097168, 6.670461654663086, 0.019104883074760437, -3.1255643367767334, -2.806231737136841, -0.3890930712223053, -0.02587890625, -0.0068359375, 0.2001953125, 0, 
156, 2069972358, 89.88312530517578, -47.4182014465332, -36.408302307128906, 6.9488420486450195, 6.597726821899414, 0.07086428254842758, -3.1871280670166016, -2.959904432296753, -0.37199556827545166, -0.02734375, -0.00634765625, 0.2001953125, 0, 
157, 2069980691, 89.88597869873047, -47.41829299926758, -36.4111213684082, 7.120481491088867, 6.613160133361816, 0.07016552239656448, -3.0938923358917236, -3.119736909866333, -0.3293222188949585, -0.02587890625, -0.00439453125, 0.19921875, 0, 
158, 2069989024, 89.88819885253906, -47.41815948486328, -36.41278839111328, 7.45644998550415, 6.684459686279297, 0.10969395190477371, -3.0670230388641357, -3.030855417251587, -0.3492244482040405, -0.02587890625, -0.00927734375, 0.1982421875, 0, 
159, 2069997357, 89.88673400878906, -47.41752243041992, -36.41109848022461, 7.421060085296631, 6.7019429206848145, -0.05871301516890526, -3.2154579162597656, -2.752634048461914, -0.4155910015106201, -0.02734375, -0.00732421875, 0.19921875, 0, 
160, 2070005690, 89.8865966796875, -47.417945861816406, -36.404415130615234, 7.117028713226318, 6.677768707275391, -0.082283154129982, -3.159311056137085, -2.8534772396087646, -0.28257623314857483, -0.02587890625, -0.00732421875, 0.20166015625, 0, 
161, 2070014023, 89.88540649414062, -47.41746520996094, -36.403717041015625, 6.993200302124023, 6.539918422698975, 0.03433368727564812, -3.267531156539917, -2.8356494903564453, -0.39773786067962646, -0.02392578125, -0.0087890625, 0.19873046875, 0, 
162, 2070022356, 89.88633728027344, -47.417232513427734, -36.39849090576172, 7.039419651031494, 6.5516438484191895, 0.07900857925415039, -3.093226671218872, -2.9124412536621094, -0.3591372072696686, -0.02685546875, -0.00830078125, 0.20166015625, 0, 
163, 2070030689, 89.8899917602539, -47.416500091552734, -36.394508361816406, 7.288179397583008, 6.6537017822265625, 0.10239827632904053, -3.015820264816284, -3.1386919021606445, -0.4215591251850128, -0.02587890625, -0.005859375, 0.2001953125, 0, 
164, 2070039022, 89.88937377929688, -47.415931701660156, -36.39422607421875, 7.5438432693481445, 6.716665744781494, 0.018390480428934097, -3.238075017929077, -2.8674111366271973, -0.4071894884109497, -0.0263671875, -0.0068359375, 0.203125, 0, 
165, 2070047355, 89.88890838623047, -47.416595458984375, -36.39213943481445, 7.235255718231201, 6.747361660003662, -0.0502362996339798, -3.0590312480926514, -2.720897674560547, -0.2607016861438751, -0.02685546875, -0.00927734375, 0.20166015625, 0, 
166, 2070055688, 89.88739013671875, -47.41670227050781, -36.39114761352539, 6.91005802154541, 6.705289363861084, -0.011718550696969032, -3.3285443782806396, -2.8598551750183105, -0.3210744559764862, -0.02490234375, -0.00732421875, 0.203125, 0, 
167, 2070064021, 89.88800811767578, -47.41719055175781, -36.39228820800781, 6.9845685958862305, 6.538960933685303, 0.10555845499038696, -3.2134852409362793, -2.983520746231079, -0.2808857262134552, -0.02783203125, -0.00927734375, 0.2001953125, 0, 
168, 2070072354, 89.88846588134766, -47.41728591918945, -36.391578674316406, 7.176029682159424, 6.5417985916137695, 0.052487652748823166, -3.13254451751709, -2.8999671936035156, -0.32256007194519043, -0.02490234375, -0.0087890625, 0.2001953125, 0, 
169, 2070080687, 89.89031219482422, -47.417808532714844, -36.38633728027344, 7.438878059387207, 6.663022041320801, -0.006870032753795385, -3.1628458499908447, -3.0685601234436035, -0.26879578828811646, -0.0263671875, -0.0068359375, 0.2041015625, 0, 
170, 2070089020, 89.889892578125, -47.41866683959961, -36.38594055175781, 7.4790940284729, 6.695079326629639, -0.06935817003250122, -3.201446771621704, -2.859727144241333, -0.23739275336265564, -0.0244140625, -0.00732421875, 0.20068359375, 0, 
171, 2070097353, 89.8876724243164, -47.41901779174805, -36.38309860229492, 7.121542453765869, 6.742406845092773, -0.010577553883194923, -3.203341484069824, -2.659653902053833, -0.295511394739151, -0.02294921875, -0.0068359375, 0.2021484375, 0, 
172, 2070105686, 89.88609313964844, -47.41762924194336, -36.38275909423828, 6.936031341552734, 6.631137847900391, 0.09865596145391464, -3.3014190196990967, -2.826223373413086, -0.5007582902908325, -0.0263671875, -0.005859375, 0.19970703125, 0, 
173, 2070114019, 89.88772583007812, -47.417232513427734, -36.385433197021484, 7.074013710021973, 6.572537422180176, 0.06635142117738724, -3.227726697921753, -3.108210563659668, -0.3884655237197876, -0.02392578125, -0.0068359375, 0.2021484375, 0, 
174, 2070122352, 89.88928985595703, -47.41783142089844, -36.41286087036133, 7.3994011878967285, 6.616028785705566, 0.08956743776798248, -3.036875009536743, -2.9267849922180176, -0.2602406442165375, -0.02294921875, -0.0078125, 0.20166015625, 0, 
175, 2070130685, 89.88803100585938, -47.41807556152344, -36.40473937988281, 7.424744129180908, 6.646990776062012, -0.04810893535614014, -3.1629738807678223, -2.733090400695801, -0.30342623591423035, -0.0244140625, -0.0078125, 0.201171875, 0, 
176, 2070139018, 89.88728332519531, -47.41804122924805, -36.40276336669922, 7.161303997039795, 6.729822635650635, -0.03777235373854637, -3.103599786758423, -2.7310664653778076, -0.34430649876594543, -0.0244140625, -0.0068359375, 0.20166015625, 0, 
177, 2070147351, 89.88603973388672, -47.41826629638672, -36.401458740234375, 6.9866485595703125, 6.6560893058776855, 0.033136963844299316, -3.2197608947753906, -2.783729314804077, -0.31203266978263855, -0.02685546875, -0.00732421875, 0.19970703125, 0, 
178, 2070155684, 89.88628387451172, -47.418827056884766, -36.40167999267578, 7.046088218688965, 6.582187652587891, 0.12871181964874268, -3.2794547080993652, -3.0080463886260986, -0.26647770404815674, -0.02392578125, -0.00732421875, 0.20166015625, 0, 
179, 2070164017, 89.88748168945312, -47.41856002807617, -36.40283203125, 7.2944560050964355, 6.5897932052612305, 0.12146031111478806, -3.146939516067505, -2.983238935470581, -0.37010011076927185, -0.02783203125, -0.00830078125, 0.201171875, 0, 
180, 2070172350, 89.88615417480469, -47.419063568115234, -36.406166076660156, 7.508584022521973, 6.6819939613342285, -0.04308869317173958, -3.1891002655029297, -2.754939079284668, -0.27435407042503357, -0.0263671875, -0.0068359375, 0.19970703125, 0, 
181, 2070180683, 89.88493347167969, -47.41975784301758, -36.3909912109375, 7.305783748626709, 6.678459644317627, -0.08000434935092926, -3.1806352138519287, -2.7515451908111572, -0.24870143830776215, -0.02587890625, -0.00634765625, 0.2021484375, 0, 
182, 2070189016, 89.88258361816406, -47.42018127441406, -36.389183044433594, 6.967024803161621, 6.644806385040283, -0.014172461815178394, -3.3105885982513428, -2.7443604469299316, -0.2901068329811096, -0.0263671875, -0.00634765625, 0.20166015625, 0, 
183, 2070197349, 89.88442993164062, -47.41997146606445, -36.391326904296875, 6.9729838371276855, 6.554632186889648, 0.07137066125869751, -3.155853271484375, -3.0648458003997803, -0.36390143632888794, -0.025390625, -0.00732421875, 0.2041015625, 0, 
184, 2070205682, 89.88701629638672, -47.420066833496094, -36.4149284362793, 7.1533966064453125, 6.548966407775879, 0.01335132960230112, -3.0780115127563477, -3.0717616081237793, -0.3207670748233795, -0.025390625, -0.00927734375, 0.20263671875, 0, 
185, 2070214015, 89.88961029052734, -47.420345306396484, -36.417205810546875, 7.463715553283691, 6.657586097717285, 0.06445924937725067, -3.0774736404418945, -3.07560396194458, -0.30647432804107666, -0.0244140625, -0.00732421875, 0.20068359375, 0, 
186, 2070222348, 89.88795471191406, -47.420005798339844, -36.40995788574219, 7.410524368286133, 6.723763465881348, -0.05085565149784088, -3.1735012531280518, -2.698690176010132, -0.37248218059539795, -0.025390625, -0.00732421875, 0.205078125, 0, 
187, 2070230681, 89.88602447509766, -47.42025375366211, -36.40806198120117, 7.0253472328186035, 6.7524733543396, -0.04247526824474335, -3.1788289546966553, -2.6710009574890137, -0.303887277841568, -0.02734375, -0.0078125, 0.2080078125, 0, 
188, 2070239014, 89.88517761230469, -47.42020797729492, -36.40858459472656, 6.980208396911621, 6.536049842834473, 0.05826883018016815, -3.3355629444122314, -2.9339826107025146, -0.3456385135650635, -0.02783203125, -0.0078125, 0.20849609375, 0, 
189, 2070247347, 89.88520812988281, -47.42094039916992, -36.40892028808594, 7.073541164398193, 6.489001274108887, 0.03772316500544548, -3.2139463424682617, -2.919177770614624, -0.2498156726360321, -0.02783203125, -0.00732421875, 0.2099609375, 0, 
190, 2070255680, 89.88764190673828, -47.42001724243164, -36.40739059448242, 7.333493232727051, 6.624743461608887, 0.07374420017004013, -3.0306508541107178, -3.019611358642578, -0.4449961483478546, -0.02490234375, -0.00634765625, 0.20947265625, 0, 
191, 2070264013, 89.88681030273438, -47.41914749145508, -36.406551361083984, 7.535189151763916, 6.679718494415283, -0.06451366096735, -3.2122812271118164, -2.8232011795043945, -0.4444326162338257, -0.02587890625, -0.00732421875, 0.20947265625, 0, 
192, 2070272346, 89.88469696044922, -47.41973876953125, -36.401546478271484, 7.240713119506836, 6.725590229034424, -0.053009796887636185, -3.1347720623016357, -2.6158533096313477, -0.2614188492298126, -0.02783203125, -0.00732421875, 0.21044921875, 0, 
193, 2070280679, 89.88339233398438, -47.42008972167969, -36.39591598510742, 6.907847881317139, 6.648523807525635, 0.08629489690065384, -3.168609380722046, -2.7323732376098633, -0.2891847491264343, -0.0263671875, -0.009765625, 0.2099609375, 0, 
194, 2070289012, 89.884033203125, -47.420806884765625, -36.39739227294922, 6.9753594398498535, 6.588324069976807, 0.10045433789491653, -3.239816904067993, -3.011286497116089, -0.2540932297706604, -0.02587890625, -0.00732421875, 0.21142578125, 0, 
195, 2070297345, 89.88679504394531, -47.42083740234375, -36.400489807128906, 7.258189678192139, 6.594403266906738, 0.10125549137592316, -3.131648063659668, -3.142867088317871, -0.3369809091091156, -0.0263671875, -0.00830078125, 0.20751953125, 0, 
196, 2070305678, 89.88070678710938, -47.37917709350586, -36.400638580322266, 7.456223964691162, 6.67441463470459, 0.05235091969370842, -3.120889902114868, -2.8800647258758545, -0.3692035973072052, -0.0263671875, -0.0087890625, 0.208984375, 0, 
197, 2070314011, 89.88116455078125, -47.37965393066406, -36.39992904663086, 7.306863307952881, 6.7021284103393555, -0.0661284327507019, -3.0702245235443115, -2.830731153488159, -0.28006604313850403, -0.02490234375, -0.0078125, 0.20849609375, 0, 
198, 2070322344, 89.87873077392578, -47.37959671020508, -36.39895248413086, 7.070908069610596, 6.67562198638916, -0.04245274141430855, -3.333949089050293, -2.7608046531677246, -0.3418987989425659, -0.0263671875, -0.00830078125, 0.20947265625, 0, 
199, 2070330677, 89.87903594970703, -47.38023376464844, -36.395782470703125, 6.979115009307861, 6.568467140197754, 0.07636068761348724, -3.2376139163970947, -2.973146915435791, -0.25580936670303345, -0.02490234375, -0.0068359375, 0.21044921875, 0, 
200, 2070339010, 89.88188934326172, -47.380149841308594, -36.39790725708008, 7.097232341766357, 6.57788610458374, 0.11495061218738556, -3.033161163330078, -3.062028408050537, -0.3459714651107788, -0.0244140625, -0.0087890625, 0.20947265625, 0, 
201, 2070347343, 89.88336181640625, -47.3795166015625, -36.399532318115234, 7.482414722442627, 6.691178798675537, 0.07799077779054642, -3.154726266860962, -3.0235300064086914, -0.411287784576416, -0.0234375, -0.00927734375, 0.20849609375, 0, 
202, 2070355676, 89.88103485107422, -47.379150390625, -36.43709945678711, 7.443681716918945, 6.676620006561279, -0.1271301805973053, -3.2472190856933594, -2.6932601928710938, -0.3775538504123688, -0.025390625, -0.0078125, 0.2119140625, 0, 
203, 2070364009, 89.88020324707031, -47.37936782836914, -36.43548583984375, 7.0222296714782715, 6.677756309509277, -0.07796034961938858, -3.1456074714660645, -2.760676860809326, -0.3103677034378052, -0.025390625, -0.0087890625, 0.2099609375, 0, 
204, 2070372342, 89.87987518310547, -47.378875732421875, -36.438438415527344, 6.932967662811279, 6.5837883949279785, 0.08699870854616165, -3.1966822147369385, -2.8668220043182373, -0.39281994104385376, -0.02587890625, -0.005859375, 0.2099609375, 0, 
205, 2070380675, 89.88072967529297, -47.37863540649414, -36.43943786621094, 7.0738205909729, 6.548623561859131, 0.01787901297211647, -3.179597854614258, -2.981804609298706, -0.3597775399684906, -0.02490234375, -0.00634765625, 0.20654296875, 0, 
206, 2070389008, 89.88270568847656, -47.37825012207031, -36.4417839050293, 7.3466596603393555, 6.603997707366943, 0.09280306845903397, -3.156672954559326, -3.081315755844116, -0.38126787543296814, -0.0234375, -0.0078125, 0.208984375, 0, 
207, 2070397341, 89.8818359375, -47.37809371948242, -36.441043853759766, 7.498169422149658, 6.682926654815674, -0.02938925474882126, -3.228802442550659, -2.8306803703308105, -0.35629403591156006, -0.02490234375, -0.0078125, 0.2109375, 0, 
208, 2070405674, 89.87955474853516, -47.37839889526367, -36.46645736694336, 7.219367027282715, 6.774922847747803, -0.02425452135503292, -3.1822099685668945, -2.6386759281158447, -0.2943587601184845, -0.0263671875, -0.0107421875, 0.2099609375, 0, 
209, 2070414007, 89.87731170654297, -47.37876510620117, -36.46502685546875, 6.9611124992370605, 6.663097858428955, 0.03696070611476898, -3.3318231105804443, -2.7744061946868896, -0.2919766902923584, -0.02587890625, -0.01123046875, 0.21044921875, 0, 
210, 2070422340, 89.87559509277344, -47.377994537353516, -36.47139358520508, 6.975563049316406, 6.541781425476074, 0.09632566571235657, -3.312945604324341, -2.823354721069336, -0.42555493116378784, -0.02490234375, -0.00830078125, 0.20751953125, 0, 
211, 2070430673, 89.8770523071289, -47.3779411315918, -36.47959518432617, 7.181707859039307, 6.555211544036865, 0.07489481568336487, -3.091177225112915, -2.961261749267578, -0.33682721853256226, -0.02490234375, -0.00830078125, 0.20947265625, 0, 
212, 2070439006, 89.87740325927734, -47.37789535522461, -36.4797248840332, 7.464919567108154, 6.637058734893799, -0.003917031455785036, -3.1565961837768555, -2.9017090797424316, -0.3434869349002838, -0.025390625, -0.0068359375, 0.21044921875, 0, 
213, 2070447339, 89.87662506103516, -47.37865447998047, -36.47810363769531, 7.374908924102783, 6.686435699462891, -0.07584959268569946, -3.1356945037841797, -2.761496067047119, -0.24553804099559784, -0.0244140625, -0.00634765625, 0.2080078125, 0, 
214, 2070455672, 89.87566375732422, -47.37869644165039, -36.469181060791016, 7.027091979980469, 6.699693202972412, -0.007019243203103542, -3.1517293453216553, -2.7608819007873535, -0.3272474706172943, -0.02490234375, -0.00732421875, 0.2099609375, 0, 
215, 2070464005, 89.87553405761719, -47.37965393066406, -36.469268798828125, 6.990809917449951, 6.577378749847412, 0.08735597878694534, -3.209770917892456, -2.8987374305725098, -0.21994945406913757, -0.02587890625, -0.00732421875, 0.208984375, 0, 
216, 2070472338, 89.87650299072266, -47.37929153442383, -36.47052764892578, 7.173065185546875, 6.559942245483398, 0.12131412327289581, -3.1788289546966553, -2.9964046478271484, -0.3779124915599823, -0.02880859375, -0.00732421875, 0.20849609375, 0, 
217, 2070480671, 89.87753295898438, -47.37877655029297, -36.46398162841797, 7.429483890533447, 6.664182662963867, 0.06782841682434082, -3.1193783283233643, -2.947404623031616, -0.3925637900829315, -0.025390625, -0.0078125, 0.21142578125, 0, 
218, 2070489004, 89.87617492675781, -47.37899398803711, -36.462432861328125, 7.400403022766113, 6.67550802230835, -0.049981389194726944, -3.214766025543213, -2.7663631439208984, -0.3100603222846985, -0.02490234375, -0.0068359375, 0.20849609375, 0, 
219, 2070497337, 89.87493133544922, -47.379615783691406, -36.46097946166992, 7.094936370849609, 6.711182117462158, -0.032348260283470154, -3.206902265548706, -2.7733302116394043, -0.26241785287857056, -0.02685546875, -0.00732421875, 0.21142578125, 0, 
220, 2070505670, 89.87300872802734, -47.37987518310547, -36.46182632446289, 6.941715240478516, 6.631867408752441, 0.05048295855522156, -3.3271613121032715, -2.8148510456085205, -0.2996097207069397, -0.02587890625, -0.00830078125, 0.2099609375, 0, 
221, 2070514003, 89.875244140625, -47.38010787963867, -36.46390151977539, 7.011209487915039, 6.582812786102295, 0.04788023978471756, -3.1046249866485596, -3.059390068054199, -0.30908700823783875, -0.02734375, -0.0078125, 0.20947265625, 0, 
222, 2070522336, 89.87715148925781, -47.37992477416992, -36.470218658447266, 7.350797176361084, 6.6067399978637695, 0.14434418082237244, -3.1170475482940674, -3.043893337249756, -0.3535020649433136, -0.0263671875, -0.005859375, 0.208984375, 0, 
223, 2070530669, 89.87860870361328, -47.380035400390625, -36.443538665771484, 7.50675106048584, 6.719261646270752, -0.016447698697447777, -3.1256539821624756, -2.9940481185913086, -0.320203572511673, -0.025390625, -0.0068359375, 0.2099609375, 0, 
224, 2070539002, 89.87520599365234, -47.38099670410156, -36.4406623840332, 7.224809646606445, 6.682918548583984, -0.07840703427791595, -3.340890645980835, -2.6583993434906006, -0.21989822387695312, -0.02490234375, -0.0078125, 0.2099609375, 0, 
225, 2070547335, 89.87361145019531, -47.3812255859375, -36.43940734863281, 6.979617118835449, 6.5987467765808105, 0.0025354262907058, -3.267864227294922, -2.7883658409118652, -0.3079855740070343, -0.02685546875, -0.0087890625, 0.20849609375, 0, 
226, 2070555668, 89.87492370605469, -47.381378173828125, -36.444034576416016, 7.015581130981445, 6.539173126220703, 0.03719858080148697, -3.1256539821624756, -2.982957124710083, -0.31410741806030273, -0.02685546875, -0.00830078125, 0.21044921875, 0, 
227, 2070564001, 89.87632751464844, -47.381465911865234, -36.4458122253418, 7.169831275939941, 6.598300933837891, 0.08161233365535736, -3.175243377685547, -3.035773992538452, -0.3273499608039856, -0.025390625, -0.0087890625, 0.20849609375, 0, 
228, 2070572334, 89.8758316040039, -47.38090896606445, -36.44390106201172, 7.522454261779785, 6.645769119262695, 0.02834472618997097, -3.205775260925293, -2.8647217750549316, -0.39825013279914856, -0.02685546875, -0.01025390625, 0.21044921875, 0, 
229, 2070580667, 89.87567901611328, -47.38100051879883, -36.440704345703125, 7.341085433959961, 6.746397495269775, -0.0901510939002037, -3.0834672451019287, -2.7857017517089844, -0.3206389844417572, -0.0244140625, -0.00732421875, 0.20947265625, 0, 
230, 2070589000, 89.87541198730469, -47.38220977783203, -36.441001892089844, 6.970425128936768, 6.765661716461182, -0.010373121127486229, -3.245887517929077, -2.9149770736694336, -0.19010886549949646, -0.025390625, -0.00830078125, 0.2109375, 0, 
231, 2070597333, 89.87483978271484, -47.38307189941406, -36.44073486328125, 6.966543674468994, 6.5651726722717285, 0.09756030142307281, -3.2327728271484375, -2.8685128688812256, -0.23291026055812836, -0.02685546875, -0.00732421875, 0.2099609375, 0, 
232, 2070605666, 89.87642669677734, -47.38296127319336, -36.44751739501953, 7.131341457366943, 6.5224690437316895, 0.057449132204055786, -3.139075994491577, -3.016434907913208, -0.34978803992271423, -0.02587890625, -0.00732421875, 0.2099609375, 0, 
233, 2070613999, 89.87898254394531, -47.382991790771484, -36.44956970214844, 7.406035900115967, 6.632272243499756, 0.05747033283114433, -3.0610804557800293, -3.057468891143799, -0.33188363909721375, -0.02587890625, -0.0068359375, 0.2099609375, 0, 
234, 2070622332, 89.87818908691406, -47.3837890625, -36.45307922363281, 7.5026021003723145, 6.672595500946045, -0.08953460305929184, -3.215867280960083, -2.836315631866455, -0.23600958287715912, -0.02392578125, -0.00927734375, 0.20654296875, 0, 
235, 2070630665, 89.87615203857422, -47.384212493896484, -36.45325469970703, 7.21795129776001, 6.6821722984313965, -0.016601284965872765, -3.1405868530273438, -2.6343472003936768, -0.28052711486816406, -0.0244140625, -0.0078125, 0.21044921875, 0, 
236, 2070638998, 89.87500762939453, -47.3835334777832, -36.452392578125, 6.92983865737915, 6.603982925415039, 0.09517806768417358, -3.2462456226348877, -2.8217926025390625, -0.4189464747905731, -0.02587890625, -0.0068359375, 0.20849609375, 0, 
237, 2070647331, 89.8771743774414, -47.384098052978516, -36.454959869384766, 7.031933784484863, 6.614038467407227, 0.07086184620857239, -3.153778314590454, -3.099271535873413, -0.26923123002052307, -0.025390625, -0.01123046875, 0.2099609375, 0, 
238, 2070655664, 89.87928771972656, -47.383514404296875, -36.45600128173828, 7.35659646987915, 6.624556064605713, 0.08504031598567963, -3.060004711151123, -3.00429368019104, -0.40293753147125244, -0.025390625, -0.005859375, 0.21142578125, 0, 
239, 2070663997, 89.87896728515625, -47.38323211669922, -36.4558219909668, 7.462028503417969, 6.664133071899414, 0.008628645911812782, -3.210103988647461, -2.8765811920166016, -0.3704330623149872, -0.025390625, -0.00830078125, 0.201171875, 0, 
240, 2070672330, 89.87740325927734, -47.384273529052734, -36.44382858276367, 7.163888454437256, 6.6901116371154785, -0.06096632033586502, -3.2149453163146973, -2.7457692623138428, -0.20619460940361023, -0.025390625, -0.00537109375, 0.19970703125, 0, 
241, 2070680663, 89.87605285644531, -47.38473892211914, -36.45930480957031, 6.965435981750488, 6.6604204177856445, 0.015446535311639309, -3.191405773162842, -2.7467427253723145, -0.2759678065776825, -0.02685546875, -0.00634765625, 0.1982421875, 0, 
242, 2070688996, 89.87650299072266, -47.385108947753906, -36.45978927612305, 7.056136608123779, 6.558542251586914, 0.1314651072025299, -3.1762421131134033, -2.930115222930908, -0.2917717695236206, -0.02587890625, -0.00732421875, 0.2001953125, 0, 
243, 2070697329, 89.87727355957031, -47.3839225769043, -36.46031188964844, 7.239587783813477, 6.59719705581665, 0.12956887483596802, -3.142789840698242, -2.934213161468506, -0.4803437292575836, -0.02490234375, -0.0078125, 0.197265625, 0, 
244, 2070705662, 89.87781524658203, -47.38312530517578, -36.464595794677734, 7.516396999359131, 6.713305473327637, -0.014368331991136074, -3.171938896179199, -2.9466872215270996, -0.4281931519508362, -0.02587890625, -0.00830078125, 0.19677734375, 0, 
245, 2070713995, 89.87644958496094, -47.38309860229492, -36.46331024169922, 7.38895845413208, 6.644632339477539, -0.11306124925613403, -3.237370491027832, -2.7878406047821045, -0.33929896354675293, -0.02734375, -0.00537109375, 0.19921875, 0, 
246, 2070722328, 89.874755859375, -47.383670806884766, -36.46392822265625, 6.959554672241211, 6.6421613693237305, 0.014600792899727821, -3.2027528285980225, -2.726072072982788, -0.26520979404449463, -0.02392578125, -0.0078125, 0.201171875, 0, 
247, 2070730661, 89.87492370605469, -47.383296966552734, -36.46022415161133, 6.920183181762695, 6.5243659019470215, 0.09272108227014542, -3.196195602416992, -2.9206888675689697, -0.37668296694755554, -0.02587890625, -0.00830078125, 0.20068359375, 0, 
248, 2070738994, 89.8779525756836, -47.382991790771484, -36.46372604370117, 7.103054523468018, 6.593796730041504, 0.012940941378474236, -3.131878137588501, -3.1752943992614746, -0.37227728962898254, -0.025390625, -0.00537109375, 0.19970703125, 0, 
249, 2070747327, 89.87948608398438, -47.38227844238281, -36.46440505981445, 7.427831172943115, 6.676015377044678, 0.07493093609809875, -3.0659985542297363, -2.9459190368652344, -0.42084193229675293, -0.02734375, -0.00732421875, 0.19921875, 0, 
250, 2070755660, 89.87876892089844, -47.381263732910156, -36.4709587097168, 7.441882610321045, 6.71154260635376, -0.03780252858996391, -3.175985813140869, -2.8068079948425293, -0.4553185999393463, -0.025390625, -0.00830078125, 0.20068359375, 0, 
251, 2070763993, 89.87732696533203, -47.38117980957031, -36.46977615356445, 7.121948719024658, 6.73606538772583, -0.05512943118810654, -3.25451922416687, -2.79569149017334, -0.3467143177986145, -0.02734375, -0.0087890625, 0.2001953125, 0, 
252, 2070772326, 89.87594604492188, -47.381099700927734, -36.46704864501953, 6.95180606842041, 6.575294017791748, 0.010188138112425804, -3.3142518997192383, -2.855091094970703, -0.3427441120147705, -0.0263671875, -0.00634765625, 0.19921875, 0, 
253, 2070780659, 89.87492370605469, -47.38148880004883, -36.440216064453125, 7.0663347244262695, 6.473149299621582, 0.05064704641699791, -3.191021680831909, -2.779477834701538, -0.2848815619945526, -0.0263671875, -0.0087890625, 0.20263671875, 0, 
254, 2070788992, 89.87799835205078, -47.38048553466797, -36.44259262084961, 7.289614200592041, 6.5754714012146, 0.09032440930604935, -3.02911376953125, -3.082237720489502, -0.4564456343650818, -0.0263671875, -0.00634765625, 0.2021484375, 0, 
255, 2070797325, 89.8779296875, -47.381534576416016, -36.4425163269043, 7.49473237991333, 6.6960344314575195, -0.05065446346998215, -3.187281847000122, -2.8867244720458984, -0.20985741913318634, -0.02490234375, -0.00732421875, 0.2021484375, 0, 
256, 2070805658, 89.8758773803711, -47.38219451904297, -36.43977737426758, 7.28603458404541, 6.651115894317627, -0.09774031490087509, -3.1908421516418457, -2.6704375743865967, -0.25268441438674927, -0.02294921875, -0.009765625, 0.2001953125, 0, 
257, 2070813991, 89.87438201904297, -47.380611419677734, -36.4376335144043, 6.92710018157959, 6.6790595054626465, 0.04044470936059952, -3.1782143115997314, -2.716005563735962, -0.5250405669212341, -0.0263671875, -0.00732421875, 0.2041015625, 0, 
258, 2070822324, 89.87500762939453, -47.38093566894531, -36.43910217285156, 6.965592384338379, 6.62204647064209, 0.133816197514534, -3.2402007579803467, -3.0126953125, -0.2949991524219513, -0.02490234375, -0.00830078125, 0.20166015625, 0, 
259, 2070830657, 89.87715911865234, -47.379703521728516, -36.44162368774414, 7.253356456756592, 6.613841533660889, 0.09157774597406387, -3.1499364376068115, -3.0979905128479004, -0.48124030232429504, -0.0263671875, -0.005859375, 0.2001953125, 0, 
260, 2070838990, 89.87704467773438, -47.37926483154297, -36.4406852722168, 7.487215042114258, 6.662060737609863, 0.02494211122393608, -3.1178927421569824, -2.81520938873291, -0.3883374333381653, -0.02685546875, -0.00732421875, 0.20263671875, 0, 
261, 2070847323, 89.87611389160156, -47.378265380859375, -36.43927764892578, 7.336483955383301, 6.692244052886963, -0.07563848793506622, -3.1752943992614746, -2.7764551639556885, -0.4555491805076599, -0.025390625, -0.00927734375, 0.20166015625, 0, 
262, 2070855656, 89.87492370605469, -47.37855529785156, -36.43783187866211, 7.062014102935791, 6.682238578796387, -0.011737634427845478, -3.2007548809051514, -2.7755329608917236, -0.29766303300857544, -0.0244140625, -0.00537109375, 0.20166015625, 0, 
263, 2070863989, 89.87442779541016, -47.37806701660156, -36.43709182739258, 6.996949672698975, 6.601850986480713, 0.10416053235530853, -3.1796743869781494, -2.8309109210968018, -0.3935883343219757, -0.02734375, -0.0087890625, 0.201171875, 0, 
264, 2070872322, 89.87686920166016, -47.378597259521484, -36.428321838378906, 7.0759382247924805, 6.617559432983398, 0.09689377248287201, -3.1964519023895264, -3.175422430038452, -0.2694617807865143, -0.02587890625, -0.0068359375, 0.20166015625, 0, 
265, 2070880655, 89.87743377685547, -47.3782958984375, -36.430938720703125, 7.4218363761901855, 6.6817827224731445, 0.13475383818149567, -3.20119047164917, -2.9691765308380127, -0.36874255537986755, -0.02685546875, -0.0087890625, 0.19970703125, 0, 
266, 2070888988, 89.87678527832031, -47.37849044799805, -36.429561614990234, 7.461437702178955, 6.660526752471924, -0.10598455369472504, -3.143763542175293, -2.7801437377929688, -0.31282666325569153, -0.0244140625, -0.0078125, 0.20068359375, 0, 
267, 2070897321, 89.8743667602539, -47.37803268432617, -36.427040100097656, 7.09183931350708, 6.661983013153076, -0.0644742101430893, -3.2555437088012695, -2.6864209175109863, -0.391411155462265, -0.02587890625, -0.0068359375, 0.201171875, 0, 
268, 2070905654, 89.87377166748047, -47.37738800048828, -36.428741455078125, 6.929431438446045, 6.5556960105896, 0.05874355882406235, -3.2266767024993896, -2.8690505027770996, -0.40862390398979187, -0.02587890625, -0.00732421875, 0.20068359375, 0, 
269, 2070913987, 89.87503051757812, -47.377525329589844, -36.43018341064453, 7.074626922607422, 6.5726423263549805, 0.07075414061546326, -3.1645874977111816, -3.006880760192871, -0.32007551193237305, -0.025390625, -0.0048828125, 0.203125, 0, 
270, 2070922320, 89.87809753417969, -47.377342224121094, -36.43632507324219, 7.327106952667236, 6.644721508026123, 0.06443130970001221, -3.077345371246338, -3.1329541206359863, -0.3560378849506378, -0.02490234375, -0.005859375, 0.20068359375, 0, 
271, 2070930653, 89.87792205810547, -47.37735366821289, -36.450923919677734, 7.5020432472229, 6.666740894317627, -0.007201670203357935, -3.2269840240478516, -2.909162759780884, -0.3313457667827606, -0.02490234375, -0.00732421875, 0.2001953125, 0, 
272, 2070938986, 89.87666320800781, -47.378543853759766, -36.448665618896484, 7.236441135406494, 6.685031890869141, -0.030207393690943718, -3.138819456100464, -2.7075014114379883, -0.19246535003185272, -0.025390625, -0.00634765625, 0.201171875, 0, 
273, 2070947319, 89.87492370605469, -47.37909698486328, -36.44757080078125, 6.919227600097656, 6.687645435333252, -0.04237712174654007, -3.29997181892395, -2.8019800186157227, -0.26860371232032776, -0.0244140625, -0.00830078125, 0.20166015625, 0, 
274, 2070955652, 89.8734130859375, -47.38015365600586, -36.4504508972168, 6.979548931121826, 6.5608344078063965, 0.10597462952136993, -3.3545429706573486, -2.879962205886841, -0.2072959989309311, -0.02490234375, -0.00732421875, 0.20166015625, 0, 
275, 2070963985, 89.87487030029297, -47.38018798828125, -36.452293395996094, 7.182310104370117, 6.538794994354248, 0.0633918046951294, -3.17629337310791, -3.0417418479919434, -0.3312176465988159, -0.0244140625, -0.005859375, 0.20263671875, 0, 
276, 2070972318, 89.87569427490234, -47.380271911621094, -36.452545166015625, 7.433914661407471, 6.657510757446289, 0.05664975941181183, -3.0826730728149414, -2.8886454105377197, -0.32204779982566833, -0.02685546875, -0.00732421875, 0.2001953125, 0, 
277, 2070980651, 89.87454986572266, -47.38008499145508, -36.459686279296875, 7.400487422943115, 6.654340744018555, -0.08730588108301163, -3.174346685409546, -2.7528133392333984, -0.3557817339897156, -0.0263671875, -0.00732421875, 0.20068359375, 0, 
278, 2070988984, 89.87188720703125, -47.38071060180664, -36.457637786865234, 7.081772327423096, 6.681114196777344, -0.03833191469311714, -3.324753522872925, -2.7248167991638184, -0.2586269676685333, -0.0263671875, -0.00732421875, 0.20068359375, 0, 
279, 2070997317, 89.87112426757812, -47.380645751953125, -36.45664596557617, 6.943312168121338, 6.595579624176025, 0.11774609237909317, -3.1921231746673584, -2.811777114868164, -0.3453567624092102, -0.02490234375, -0.0068359375, 0.2021484375, 0, 
280, 2071005650, 89.87332153320312, -47.3808708190918, -36.47396469116211, 7.08097505569458, 6.575929641723633, 0.0987103134393692, -3.0866177082061768, -3.050732135772705, -0.3052448332309723, -0.02587890625, -0.0078125, 0.201171875, 0, 
281, 2071013983, 89.8735580444336, -47.381248474121094, -36.4735107421875, 7.429802417755127, 6.626227855682373, 0.09764286130666733, -3.1210689544677734, -2.8549885749816895, -0.29202795028686523, -0.02587890625, -0.00537109375, 0.2021484375, 0, 
282, 2071022316, 89.87238311767578, -47.381187438964844, -36.47123336791992, 7.447121620178223, 6.650552272796631, -0.06549374014139175, -3.167149066925049, -2.7497141361236572, -0.33821040391921997, -0.025390625, -0.00634765625, 0.20361328125, 0, 
283, 2071030649, 89.87020111083984, -47.3817253112793, -36.467201232910156, 7.123738765716553, 6.68407678604126, -0.04980313032865524, -3.208592653274536, -2.6768155097961426, -0.2676175534725189, -0.02734375, -0.00830078125, 0.205078125, 0, 
284, 2071038982, 89.8686294555664, -47.38088607788086, -36.465633392333984, 6.954148292541504, 6.616706371307373, 0.029432330280542374, -3.2379467487335205, -2.7625210285186768, -0.4368252158164978, -0.02587890625, -0.00927734375, 0.2080078125, 0, 
285, 2071047315, 89.86992645263672, -47.38125991821289, -36.467533111572266, 7.010784149169922, 6.60768461227417, 0.0928235575556755, -3.1995255947113037, -3.0454559326171875, -0.2924889922142029, -0.02587890625, -0.00634765625, 0.20849609375, 0, 
286, 2071055648, 89.87137603759766, -47.38097381591797, -36.480133056640625, 7.2703986167907715, 6.635096073150635, 0.13840697705745697, -3.2078499794006348, -3.0713260173797607, -0.36684706807136536, -0.025390625, -0.00732421875, 0.21044921875, 0, 
287, 2071063981, 89.86947631835938, -47.38105010986328, -36.47896194458008, 7.501162052154541, 6.688350677490234, -0.019765475764870644, -3.312509775161743, -2.7966392040252686, -0.3267351984977722, -0.02294921875, -0.0078125, 0.208984375, 0, 
288, 2071072314, 89.86807250976562, -47.381649017333984, -36.477664947509766, 7.279969215393066, 6.668942451477051, -0.13308407366275787, -3.107518434524536, -2.668259859085083, -0.25942090153694153, -0.02490234375, -0.00732421875, 0.2080078125, 0, 
289, 2071080647, 89.86536407470703, -47.38256072998047, -36.46976089477539, 6.962358474731445, 6.622276306152344, -0.011716991662979126, -3.27536940574646, -2.6812214851379395, -0.2255333513021469, -0.02490234375, -0.0087890625, 0.208984375, 0, 
290, 2071088980, 89.8661880493164, -47.38302230834961, -36.471675872802734, 7.024209499359131, 6.521309852600098, 0.10102694481611252, -3.257183313369751, -3.048401355743408, -0.28103938698768616, -0.0234375, -0.00732421875, 0.208984375, 0, 
291, 2071097313, 89.86776733398438, -47.38274002075195, -36.47187805175781, 7.1603684425354, 6.578376293182373, 0.028965327888727188, -3.015359401702881, -2.906831741333008, -0.3709709942340851, -0.02587890625, -0.0068359375, 0.2099609375, 0, 
292, 2071105646, 89.86681365966797, -47.38168716430664, -36.49610137939453, 7.471269607543945, 6.678126335144043, 0.04847915470600128, -3.324164390563965, -2.9179482460021973, -0.45437091588974, -0.02587890625, -0.0107421875, 0.20947265625, 0, 
293, 2071113979, 89.86582946777344, -47.382266998291016, -36.49506378173828, 7.415653228759766, 6.711118221282959, -0.040156133472919464, -3.2130496501922607, -2.807448387145996, -0.26731014251708984, -0.02587890625, -0.0078125, 0.2099609375, 0, 
294, 2071122312, 89.86558532714844, -47.38346862792969, -36.536277770996094, 6.987874984741211, 6.7349019050598145, -0.06525123864412308, -3.1195833683013916, -2.8070385456085205, -0.18959656357765198, -0.025390625, -0.00732421875, 0.20947265625, 0, 
295, 2071130645, 89.86359405517578, -47.38434982299805, -36.534706115722656, 6.902609348297119, 6.603296756744385, 0.09387166053056717, -3.253674030303955, -2.7355234622955322, -0.22637861967086792, -0.02734375, -0.00634765625, 0.2099609375, 0, 
296, 2071138978, 89.86483001708984, -47.38454055786133, -36.53620529174805, 7.101166248321533, 6.553457736968994, 0.02168462984263897, -3.1724257469177246, -3.0125670433044434, -0.3122631907463074, -0.0244140625, -0.00927734375, 0.2099609375, 0, 
297, 2071147311, 89.86727905273438, -47.3843994140625, -36.537410736083984, 7.396991729736328, 6.650480270385742, 0.08852686733007431, -3.0002212524414062, -2.9891302585601807, -0.35396313667297363, -0.0244140625, -0.0068359375, 0.20849609375, 0, 
298, 2071155644, 89.86848449707031, -47.3849983215332, -36.538002014160156, 7.4709391593933105, 6.646284580230713, -0.0541575625538826, -3.0913052558898926, -2.941743850708008, -0.2599845230579376, -0.02587890625, -0.00634765625, 0.21142578125, 0, 
299, 2071163977, 89.86952209472656, -47.385581970214844, -36.5380973815918, 7.223618507385254, 6.684858798980713, -0.00745786726474762, -3.074476957321167, -2.8976619243621826, -0.2663368284702301, -0.02587890625, -0.00830078125, 0.2109375, 0, 
300, 2071172310, 89.86802673339844, -47.384822845458984, -36.53667068481445, 6.996684551239014, 6.656725883483887, 0.1048942506313324, -3.237229347229004, -2.778657913208008, -0.42419737577438354, -0.02490234375, -0.0068359375, 0.20849609375, 0, 
301, 2071180643, 89.86902618408203, -47.383575439453125, -36.53901290893555, 6.996809959411621, 6.655574321746826, 0.11425457894802094, -3.2737553119659424, -3.084594249725342, -0.4831869602203369, -0.025390625, -0.0078125, 0.208984375, 0, 
302, 2071188976, 89.87141418457031, -47.38378143310547, -36.54183578491211, 7.2815117835998535, 6.643529415130615, 0.09507859498262405, -3.1513707637786865, -3.118866205215454, -0.31011155247688293, -0.02587890625, -0.0078125, 0.20947265625, 0, 
303, 2071197309, 89.8722152709961, -47.3841552734375, -36.543296813964844, 7.479181289672852, 6.636597156524658, 0.02129366248846054, -3.22078537940979, -3.010415554046631, -0.29003003239631653, -0.025390625, -0.0078125, 0.2099609375, 0, 
304, 2071205642, 89.87310028076172, -47.38421630859375, -36.54248046875, 7.223067760467529, 6.664584159851074, -0.050663162022829056, -3.0062403678894043, -2.827965259552002, -0.3266327381134033, -0.02490234375, -0.00830078125, 0.20947265625, 0, 
305, 2071213975, 89.87006378173828, -47.384212493896484, -36.54011535644531, 6.979588985443115, 6.694208145141602, -0.035366229712963104, -3.341966390609741, -2.6999197006225586, -0.33575141429901123, -0.0263671875, -0.00732421875, 0.2109375, 0, 
306, 2071222308, 89.87135314941406, -47.384620666503906, -36.552608489990234, 7.041017532348633, 6.570406913757324, 0.11952155083417892, -3.1395368576049805, -2.9975316524505615, -0.2843180298805237, -0.0263671875, -0.00830078125, 0.20947265625, 0, 
307, 2071230641, 89.87364196777344, -47.38457489013672, -36.55351257324219, 7.1773881912231445, 6.597139835357666, 0.1166369765996933, -3.137052536010742, -3.099297285079956, -0.3391837179660797, -0.025390625, -0.00830078125, 0.20947265625, 0, 
308, 2071238974, 89.87572479248047, -47.38453674316406, -36.55625534057617, 7.482259750366211, 6.729773044586182, 0.09400986135005951, -3.179213523864746, -3.1150498390197754, -0.3414633870124817, -0.0263671875, -0.00537109375, 0.2099609375, 0, 
309, 2071247307, 89.87545013427734, -47.3853645324707, -36.55503463745117, 7.459214687347412, 6.6572585105896, -0.09096299856901169, -3.1118733882904053, -2.7914392948150635, -0.23634253442287445, -0.0263671875, -0.0078125, 0.20947265625, 0, 
310, 2071255640, 89.8740463256836, -47.38546371459961, -36.570194244384766, 7.0069403648376465, 6.636989116668701, -0.05974331870675087, -3.2085671424865723, -2.7605743408203125, -0.32061341404914856, -0.025390625, -0.0087890625, 0.21044921875, 0, 
311, 2071263973, 89.87482452392578, -47.38454818725586, -36.57089614868164, 6.86956262588501, 6.539816856384277, 0.028236111626029015, -3.1556737422943115, -2.9475836753845215, -0.44576457142829895, -0.02490234375, -0.0078125, 0.208984375, 0, 
312, 2071272306, 89.87841796875, -47.384490966796875, -36.5760612487793, 7.086787700653076, 6.551663875579834, 0.002167599741369486, -3.0353641510009766, -3.153470993041992, -0.3396703898906708, -0.02587890625, -0.0078125, 0.2080078125, 0, 
313, 2071280639, 89.88021850585938, -47.38376235961914, -36.57585144042969, 7.395195960998535, 6.6345391273498535, 0.0587497241795063, -3.0861310958862305, -2.9966349601745605, -0.41863906383514404, -0.02490234375, -0.00732421875, 0.20947265625, 0, 
314, 2071288972, 89.87937927246094, -47.38350296020508, -36.575286865234375, 7.468654632568359, 6.681596755981445, 0.020540041849017143, -3.236973285675049, -2.8434107303619385, -0.3679228723049164, -0.02783203125, -0.00732421875, 0.20703125, 0, 
315, 2071297305, 89.87831115722656, -47.38343811035156, -36.57372283935547, 7.182738304138184, 6.699848175048828, -0.046775221824645996, -3.1769847869873047, -2.7663118839263916, -0.34487009048461914, -0.02587890625, -0.00634765625, 0.21044921875, 0, 
316, 2071305638, 89.87700653076172, -47.38421630859375, -36.614891052246094, 6.977827548980713, 6.634345054626465, 0.008893654681742191, -3.1994740962982178, -2.753197431564331, -0.23757204413414001, -0.025390625, -0.00830078125, 0.2099609375, 0, 
317, 2071313971, 89.87814331054688, -47.3836784362793, -36.61619186401367, 7.007440090179443, 6.548181056976318, 0.09549438208341599, -3.164536476135254, -2.99596905708313, -0.40127259492874146, -0.0244140625, -0.00732421875, 0.21142578125, 0, 
318, 2071322304, 89.88151550292969, -47.38351058959961, -36.62023162841797, 7.24183988571167, 6.591995716094971, 0.04937024042010307, -3.0059587955474854, -3.094404697418213, -0.35127362608909607, -0.02587890625, -0.00830078125, 0.20947265625, 0, 
319, 2071330637, 89.88195037841797, -47.38351058959961, -36.620723724365234, 7.491114139556885, 6.640447616577148, -0.028933901339769363, -3.169377565383911, -2.926989793777466, -0.3338559567928314, -0.0283203125, -0.0087890625, 0.20947265625, 0, 
320, 2071338970, 89.88028717041016, -47.384117126464844, -36.619056701660156, 7.342722415924072, 6.654799938201904, -0.13881875574588776, -3.240662097930908, -2.7568602561950684, -0.2604711651802063, -0.02294921875, -0.009765625, 0.2099609375, 0, 
321, 2071347303, 89.88020324707031, -47.38454055786133, -36.61932373046875, 6.962437629699707, 6.653168678283691, 0.02736315131187439, -3.221963882446289, -2.9126205444335938, -0.28564995527267456, -0.02783203125, -0.00830078125, 0.208984375, 0, 
322, 2071355636, 89.88096618652344, -47.385093688964844, -36.6208381652832, 6.950160503387451, 6.618078708648682, 0.1326884627342224, -3.2278292179107666, -3.0169472694396973, -0.2665673494338989, -0.0234375, -0.00634765625, 0.21044921875, 0, 
323, 2071363969, 89.882568359375, -47.38423156738281, -36.6234130859375, 7.201043128967285, 6.618597507476807, 0.07413799315690994, -3.222783327102661, -3.0985796451568604, -0.43861818313598633, -0.02490234375, -0.00634765625, 0.2099609375, 0, 
324, 2071372302, 89.88103485107422, -47.38362503051758, -36.62989044189453, 7.499685287475586, 6.6752166748046875, 0.06690164655447006, -3.289764165878296, -2.822765827178955, -0.4063698649406433, -0.02490234375, -0.009765625, 0.20947265625, 0, 
325, 2071380635, 89.8788833618164, -47.38419723510742, -36.62783432006836, 7.362752914428711, 6.652191638946533, -0.04006610065698624, -3.2579002380371094, -2.7206931114196777, -0.26228979229927063, -0.025390625, -0.0078125, 0.21044921875, 0, 
326, 2071388968, 89.8783950805664, -47.38459777832031, -36.62705612182617, 7.063065052032471, 6.677842140197754, -0.07682477682828903, -3.1750893592834473, -2.828887462615967, -0.289645791053772, -0.02587890625, -0.0078125, 0.21240234375, 0, 
327, 2071397301, 89.87855529785156, -47.38520812988281, -36.62803268432617, 7.004999160766602, 6.592068195343018, 0.0779561698436737, -3.2532894611358643, -2.9703292846679688, -0.2636985778808594, -0.02587890625, -0.0048828125, 0.21044921875, 0, 
328, 2071405634, 89.87992095947266, -47.38489532470703, -36.63080978393555, 7.105398178100586, 6.614777088165283, 0.07090114057064056, -3.199371576309204, -3.0595178604125977, -0.3711758852005005, -0.02587890625, -0.00634765625, 0.20849609375, 0, 
329, 2071413967, 89.88078308105469, -47.38388442993164, -36.631473541259766, 7.393446445465088, 6.696043014526367, 0.12746615707874298, -3.1425082683563232, -2.9440746307373047, -0.45611274242401123, -0.025390625, -0.0068359375, 0.21044921875, 0, 
330, 2071422300, 89.87957000732422, -47.38410186767578, -36.642127990722656, 7.5091986656188965, 6.698111534118652, -0.05803593248128891, -3.218531370162964, -2.7954609394073486, -0.30706343054771423, -0.02490234375, -0.00732421875, 0.2109375, 0, 
331, 2071430633, 89.87744903564453, -47.38468933105469, -36.638980865478516, 7.172505855560303, 6.688741683959961, -0.05261053517460823, -3.249255418777466, -2.7119457721710205, -0.2606889009475708, -0.02587890625, -0.00390625, 0.21142578125, 0, 
332, 2071438966, 89.87599182128906, -47.38446044921875, -36.63745880126953, 6.880767345428467, 6.618448734283447, 0.012594831176102161, -3.226625442504883, -2.7677204608917236, -0.36372214555740356, -0.0263671875, -0.00537109375, 0.20947265625, 0, 
333, 2071447299, 89.877197265625, -47.38404846191406, -36.63930892944336, 7.076780796051025, 6.5536675453186035, 0.08329262584447861, -3.208029270172119, -3.0405380725860596, -0.38590410351753235, -0.02587890625, -0.00732421875, 0.20947265625, 0, 
334, 2071455632, 89.87833404541016, -47.38370895385742, -36.640167236328125, 7.346826553344727, 6.618186950683594, 0.09064875543117523, -3.125808000564575, -2.961876630783081, -0.3731738328933716, -0.0244140625, -0.0087890625, 0.2099609375, 0, 
335, 2071463965, 89.87637329101562, -47.383148193359375, -36.638919830322266, 7.48809814453125, 6.7205586433410645, -0.0078736562281847, -3.310588836669922, -2.7914137840270996, -0.4025021195411682, -0.0244140625, -0.0068359375, 0.20361328125, 0, 
336, 2071472298, 89.87448120117188, -47.38372802734375, -36.63148498535156, 7.322591304779053, 6.698983192443848, -0.057340651750564575, -3.152984142303467, -2.6601405143737793, -0.2650560736656189, -0.02587890625, -0.0087890625, 0.19921875, 0, 
337, 2071480631, 89.87266540527344, -47.383262634277344, -36.63472366333008, 6.965451240539551, 6.68524169921875, -0.007390204351395369, -3.2699389457702637, -2.769949197769165, -0.3870055079460144, -0.025390625, -0.0068359375, 0.19677734375, 0, 
338, 2071488964, 89.87278747558594, -47.383087158203125, -36.63608169555664, 6.939299583435059, 6.623555660247803, 0.084848552942276, -3.2928638458251953, -3.0021166801452637, -0.3575747311115265, -0.02294921875, -0.00830078125, 0.1962890625, 0, 
339, 2071497297, 89.87638854980469, -47.382781982421875, -36.64023208618164, 7.156597137451172, 6.560642719268799, 0.09831742197275162, -3.12060809135437, -3.2292890548706055, -0.3743008077144623, -0.02685546875, -0.0048828125, 0.1982421875, 0, 
340, 2071505630, 89.87762451171875, -47.3826904296875, -36.630741119384766, 7.44751501083374, 6.633261203765869, 0.03675197809934616, -3.0748097896575928, -2.9210474491119385, -0.34184756875038147, -0.025390625, -0.0078125, 0.1982421875, 0, 
341, 2071513963, 89.87693786621094, -47.3834342956543, -36.62894821166992, 7.372628688812256, 6.6605424880981445, -0.09464138001203537, -3.1095423698425293, -2.7449238300323486, -0.2470492720603943, -0.025390625, -0.0068359375, 0.19873046875, 0, 
342, 2071522296, 89.87516784667969, -47.384029388427734, -36.63958740234375, 7.106887340545654, 6.656720161437988, 0.012425396591424942, -3.2800567150115967, -2.781526803970337, -0.2613420784473419, -0.0263671875, -0.00732421875, 0.201171875, 0, 
343, 2071530629, 89.8748550415039, -47.38456726074219, -36.6529426574707, 6.996664524078369, 6.60128927230835, 0.08822841942310333, -3.1525235176086426, -2.8284265995025635, -0.2682066559791565, -0.02392578125, -0.00634765625, 0.20068359375, 0, 
344, 2071538962, 89.87704467773438, -47.384368896484375, -36.65589141845703, 7.088733673095703, 6.615804195404053, 0.06681772321462631, -3.1874098777770996, -3.130162239074707, -0.3592908978462219, -0.02734375, -0.00732421875, 0.201171875, 0, 
345, 2071547295, 89.87950134277344, -47.38376998901367, -36.678810119628906, 7.40195369720459, 6.623296737670898, 0.14956451952457428, -3.0662543773651123, -3.0587241649627686, -0.4050122797489166, -0.0244140625, -0.00830078125, 0.2001953125, 0, 
346, 2071555628, 89.87678527832031, -47.38347244262695, -36.67533493041992, 7.485907077789307, 6.60734224319458, -0.021991891786456108, -3.2066972255706787, -2.6101162433624268, -0.37186744809150696, -0.0234375, -0.0068359375, 0.20068359375, 0, 
347, 2071563961, 89.87581634521484, -47.38345718383789, -36.673370361328125, 7.117986679077148, 6.607288360595703, -0.04046080633997917, -3.13046932220459, -2.729811191558838, -0.3367503583431244, -0.02587890625, -0.00732421875, 0.19873046875, 0, 
348, 2071572294, 89.87549591064453, -47.38225173950195, -36.672630310058594, 6.897437572479248, 6.646449565887451, 0.029580561444163322, -3.171093702316284, -2.8462281227111816, -0.4773213267326355, -0.025390625, -0.005859375, 0.19970703125, 0, 
349, 2071580627, 89.87647247314453, -47.38241195678711, -36.673099517822266, 7.04703950881958, 6.616801738739014, 0.06629553437232971, -3.110849142074585, -2.9296538829803467, -0.31692495942115784, -0.02587890625, -0.0087890625, 0.19921875, 0, 
350, 2071588960, 89.87889099121094, -47.38188552856445, -36.67466735839844, 7.252028942108154, 6.631054401397705, 0.10764682292938232, -3.0361578464508057, -3.0206868648529053, -0.3953813314437866, -0.0263671875, -0.0087890625, 0.201171875, 0, 
351, 2071597293, 89.87979888916016, -47.381500244140625, -36.67608642578125, 7.472184181213379, 6.6964216232299805, 0.031041601672768593, -3.2008063793182373, -3.0082383155822754, -0.3790394961833954, -0.025390625, -0.00732421875, 0.201171875, 0, 
352, 2071605626, 89.87861633300781, -47.381561279296875, -36.674320220947266, 7.319858551025391, 6.63004207611084, -0.08550519496202469, -3.172041416168213, -2.7464864253997803, -0.3293222486972809, -0.02392578125, -0.0078125, 0.20166015625, 0, 
353, 2071613959, 89.8761978149414, -47.38252639770508, -36.67180633544922, 6.956493377685547, 6.61842155456543, -0.020776422694325447, -3.2549545764923096, -2.6877529621124268, -0.2201799601316452, -0.025390625, -0.0068359375, 0.20166015625, 0, 
354, 2071622292, 89.8757095336914, -47.382484436035156, -36.67194747924805, 6.968962669372559, 6.526528358459473, 0.08967617154121399, -3.257157325744629, -2.904142141342163, -0.3362380862236023, -0.025390625, -0.00732421875, 0.2001953125, 0, 
355, 2071630625, 89.87796020507812, -47.38205337524414, -36.6733512878418, 7.169336795806885, 6.535333633422852, 0.05359252169728279, -3.042689561843872, -3.005779504776001, -0.38797882199287415, -0.025390625, -0.0068359375, 0.2001953125, 0, 
356, 2071638958, 89.8791275024414, -47.38180160522461, -36.67464828491211, 7.45601749420166, 6.688467979431152, 0.11513853073120117, -3.1572108268737793, -2.997659683227539, -0.3644905686378479, -0.02587890625, -0.0078125, 0.2021484375, 0, 
357, 2071647291, 89.87799072265625, -47.381622314453125, -36.67650604248047, 7.431548118591309, 6.7079758644104, -0.0837702751159668, -3.1987314224243164, -2.780579090118408, -0.3538350462913513, -0.02490234375, -0.005859375, 0.19970703125, 0, 
358, 2071655624, 89.87609100341797, -47.38180923461914, -36.6732177734375, 7.072685718536377, 6.716617107391357, -0.0314934067428112, -3.125756025314331, -2.622718095779419, -0.3127754032611847, -0.025390625, -0.00634765625, 0.201171875, 0, 
359, 2071663957, 89.87623596191406, -47.38212585449219, -36.673133850097656, 6.913451194763184, 6.626399040222168, 0.050759412348270416, -3.1615653038024902, -2.8846495151519775, -0.2977398633956909, -0.0263671875, -0.00634765625, 0.19921875, 0, 
360, 2071672290, 89.87690734863281, -47.383094787597656, -36.67145919799805, 7.082626819610596, 6.5526018142700195, 0.07048240303993225, -3.235462188720703, -3.0131561756134033, -0.2170294225215912, -0.025390625, -0.005859375, 0.20263671875, 0, 
361, 2071680623, 89.87812042236328, -47.382781982421875, -36.67283630371094, 7.401245594024658, 6.613216400146484, 0.10811100900173187, -3.1646645069122314, -3.002347469329834, -0.37348121404647827, -0.02587890625, -0.00927734375, 0.201171875, 0, 
362, 2071688956, 89.87550354003906, -47.383182525634766, -36.687843322753906, 7.465453147888184, 6.638382434844971, -0.03735543042421341, -3.306234359741211, -2.7170557975769043, -0.28564998507499695, -0.02490234375, -0.00732421875, 0.20166015625, 0, 
363, 2071697289, 89.87605285644531, -47.383628845214844, -36.687808990478516, 7.217000961303711, 6.647773742675781, -0.08067134767770767, -3.154393196105957, -2.923762559890747, -0.2795025408267975, -0.025390625, -0.005859375, 0.203125, 0, 
364, 2071705622, 89.87537384033203, -47.38280487060547, -36.686614990234375, 7.0088324546813965, 6.657096862792969, 0.08593413233757019, -3.1621031761169434, -2.7944107055664062, -0.4340588450431824, -0.02392578125, -0.0078125, 0.20068359375, 0, 
365, 2071713955, 89.87569427490234, -47.383087158203125, -36.6868782043457, 7.004426002502441, 6.666928768157959, 0.0880504921078682, -3.172528028488159, -2.9133377075195312, -0.3036055266857147, -0.025390625, -0.00634765625, 0.2041015625, 0, 
366, 2071722288, 89.87859344482422, -47.383453369140625, -36.698429107666016, 7.248048305511475, 6.617080211639404, 0.11043821275234222, -3.129240036010742, -3.1582865715026855, -0.28659766912460327, -0.0244140625, -0.00634765625, 0.20263671875, 0, 
367, 2071730621, 89.87873840332031, -47.38315963745117, -36.69856262207031, 7.491575241088867, 6.639801979064941, 0.0015326968859881163, -3.1797773838043213, -2.901042938232422, -0.3714064657688141, -0.0263671875, -0.0068359375, 0.20263671875, 0, 
368, 2071738954, 89.87820434570312, -47.383399963378906, -36.7073860168457, 7.276875019073486, 6.649425506591797, -0.09261919558048248, -3.1002442836761475, -2.7578587532043457, -0.30557781457901, -0.0263671875, -0.00732421875, 0.201171875, 0, 
369, 2071747287, 89.87645721435547, -47.383914947509766, -36.69675064086914, 6.976278305053711, 6.701208591461182, -0.02671370841562748, -3.171067714691162, -2.6935417652130127, -0.26920560002326965, -0.0263671875, -0.00634765625, 0.2021484375, 0, 
370, 2071755620, 89.87675476074219, -47.383949279785156, -36.697235107421875, 7.033688068389893, 6.607563018798828, 0.09566591680049896, -3.195478677749634, -2.9309091567993164, -0.3318324387073517, -0.025390625, -0.005859375, 0.201171875, 0, 
371, 2071763953, 89.87905883789062, -47.38421630859375, -36.699031829833984, 7.151524066925049, 6.577790260314941, 0.03293123096227646, -3.068688154220581, -3.036695957183838, -0.30342623591423035, -0.02490234375, -0.0068359375, 0.20166015625, 0, 
372, 2071772286, 89.88028717041016, -47.38373947143555, -36.691951751708984, 7.4682745933532715, 6.712475776672363, 0.10151942819356918, -3.1938648223876953, -3.0402817726135254, -0.38997673988342285, -0.02587890625, -0.00732421875, 0.20458984375, 0, 
373, 2071780619, 89.87989807128906, -47.38438415527344, -36.692073822021484, 7.472825527191162, 6.647124290466309, -0.09370339661836624, -3.243351697921753, -2.9019393920898438, -0.25939539074897766, -0.0234375, -0.0068359375, 0.20361328125, 0, 
374, 2071788952, 89.88024139404297, -47.384647369384766, -36.697364807128906, 7.079831123352051, 6.6746439933776855, -0.055084228515625, -3.2298269271850586, -2.9658725261688232, -0.30155640840530396, -0.029296875, -0.0078125, 0.20068359375, 0, 
375, 2071797285, 89.877685546875, -47.38445281982422, -36.69559097290039, 6.906923294067383, 6.577349662780762, 0.06549050658941269, -3.3349478244781494, -2.7499442100524902, -0.3548339903354645, -0.025390625, -0.00537109375, 0.20166015625, 0, 
376, 2071805618, 89.87957000732422, -47.38401412963867, -36.69760513305664, 7.098008155822754, 6.568212032318115, 0.017099734395742416, -3.1392550468444824, -3.053370714187622, -0.3863395154476166, -0.02490234375, -0.00634765625, 0.2021484375, 0, 
377, 2071813951, 89.88126373291016, -47.383697509765625, -36.698429107666016, 7.343960762023926, 6.631224155426025, 0.09265252202749252, -3.0567262172698975, -2.95870041847229, -0.37563279271125793, -0.02734375, -0.0048828125, 0.20263671875, 0, 
378, 2071822284, 89.88133239746094, -47.3830451965332, -36.69744873046875, 7.435581207275391, 6.705819129943848, -0.041199374943971634, -3.0915229320526123, -2.8134803771972656, -0.41048091650009155, -0.02490234375, -0.0087890625, 0.20166015625, 0, 
379, 2071830617, 89.88053131103516, -47.38331985473633, -36.6961669921875, 7.255911827087402, 6.736749649047852, -0.07486797124147415, -3.1733477115631104, -2.786393404006958, -0.3021199107170105, -0.02685546875, -0.00830078125, 0.20751953125, 0, 
380, 2071838950, 89.8783950805664, -47.383949279785156, -36.694923400878906, 6.977540493011475, 6.67421817779541, -0.05756959319114685, -3.325880527496338, -2.7942311763763428, -0.25760236382484436, -0.0263671875, -0.0087890625, 0.20849609375, 0, 
381, 2071847283, 89.8785171508789, -47.3829231262207, -36.69581985473633, 6.963965892791748, 6.581882953643799, 0.09158868342638016, -3.252264976501465, -2.967050552368164, -0.45496001839637756, -0.02783203125, -0.00634765625, 0.2119140625, 0, 
382, 2071855616, 89.88114929199219, -47.38286209106445, -36.698326110839844, 7.218499660491943, 6.5388994216918945, 0.08107078820466995, -3.0924837589263916, -3.0951733589172363, -0.34466516971588135, -0.02685546875, -0.00830078125, 0.20947265625, 0, 
383, 2071863949, 89.88088989257812, -47.38290786743164, -36.69796371459961, 7.4754815101623535, 6.675906658172607, -0.007496085949242115, -3.1877686977386475, -2.860854148864746, -0.32893800735473633, -0.0234375, -0.00732421875, 0.2099609375, 0, 
384, 2071872282, 89.87812042236328, -47.38301467895508, -36.69502258300781, 7.356711387634277, 6.656030178070068, -0.14343003928661346, -3.258284568786621, -2.6551461219787598, -0.3200242817401886, -0.025390625, -0.00830078125, 0.21142578125, 0, 
385, 2071880615, 89.8761215209961, -47.38159942626953, -36.69225311279297, 7.054049015045166, 6.70353364944458, 0.010049523785710335, -3.183259963989258, -2.664802312850952, -0.502500057220459, -0.0244140625, -0.0078125, 0.21044921875, 0, 
386, 2071888948, 89.8768310546875, -47.3814582824707, -36.694740295410156, 6.948403835296631, 6.642438888549805, 0.16004043817520142, -3.126755952835083, -2.9213547706604004, -0.35260558128356934, -0.025390625, -0.0078125, 0.20947265625, 0, 
387, 2071897281, 89.87730407714844, -47.381553649902344, -36.696128845214844, 7.104733943939209, 6.613370895385742, 0.06899092346429825, -3.359947443008423, -3.09842586517334, -0.32071584463119507, -0.02587890625, -0.0078125, 0.2109375, 0, 
388, 2071905614, 89.87763977050781, -47.38070297241211, -36.69696044921875, 7.447455883026123, 6.645475387573242, 0.1159505620598793, -3.222245454788208, -2.959622383117676, -0.4379778206348419, -0.025390625, -0.0068359375, 0.2099609375, 0, 
389, 2071913947, 89.87593078613281, -47.38007354736328, -36.69559860229492, 7.400007724761963, 6.6256256103515625, -0.07911614328622818, -3.2706563472747803, -2.7790935039520264, -0.41182568669319153, -0.02392578125, -0.0068359375, 0.20947265625, 0, 
390, 2071922280, 89.87508392333984, -47.38059997558594, -36.69375228881836, 7.0742316246032715, 6.708232879638672, -0.07041339576244354, -3.176600694656372, -2.7922589778900146, -0.27025580406188965, -0.02587890625, -0.0068359375, 0.21142578125, 0, 
391, 2071930613, 89.87454986572266, -47.38080596923828, -36.69244384765625, 7.0160813331604, 6.594427108764648, 0.07755109667778015, -3.134542226791382, -2.784984827041626, -0.31108492612838745, -0.0263671875, -0.00732421875, 0.21142578125, 0, 
392, 2071938946, 89.87605285644531, -47.38099670410156, -36.68915557861328, 7.055180549621582, 6.588825702667236, 0.1178031712770462, -3.186948776245117, -3.066638708114624, -0.3091125786304474, -0.0263671875, -0.0078125, 0.2109375, 0, 
393, 2071947279, 89.87853240966797, -47.3814811706543, -36.692569732666016, 7.276659965515137, 6.633077144622803, 0.11643359065055847, -3.1337223052978516, -3.12465500831604, -0.2763007581233978, -0.0244140625, -0.0078125, 0.208984375, 0, 
394, 2071955612, 89.87835693359375, -47.38104248046875, -36.69150924682617, 7.510711193084717, 6.636383533477783, 0.018941862508654594, -3.115459680557251, -2.805399179458618, -0.3871079087257385, -0.02587890625, -0.005859375, 0.20947265625, 0, 
395, 2071963945, 89.87700653076172, -47.381343841552734, -36.688045501708984, 7.220180511474609, 6.665211200714111, -0.06239054724574089, -3.0451738834381104, -2.608835458755493, -0.29976338148117065, -0.025390625, -0.005859375, 0.2099609375, 0, 
396, 2071972278, 89.87559509277344, -47.381309509277344, -36.6832275390625, 6.943621635437012, 6.624269962310791, 0.022318942472338676, -3.1804685592651367, -2.7331929206848145, -0.33669912815093994, -0.02587890625, -0.00927734375, 0.2109375, 0, 
397, 2071980611, 89.87708282470703, -47.38246536254883, -36.68448257446289, 7.006811141967773, 6.556421756744385, 0.10399632900953293, -3.1195576190948486, -2.9942786693573, -0.19635874032974243, -0.02587890625, -0.0068359375, 0.20947265625, 0, 
398, 2071988944, 89.8799819946289, -47.382659912109375, -36.67840576171875, 7.265290260314941, 6.518412113189697, 0.11158265173435211, -2.9496073722839355, -2.9906156063079834, -0.3102908432483673, -0.02392578125, -0.00830078125, 0.208984375, 0, 
399, 2071997277, 89.88147735595703, -47.381526947021484, -36.65556335449219, 7.452655792236328, 6.683747291564941, 0.023591985926032066, -3.0584678649902344, -2.9377222061157227, -0.46710121631622314, -0.02490234375, -0.00634765625, 0.2109375, 0, 
400, 2072005610, 89.881103515625, -47.381874084472656, -36.65557861328125, 7.33933687210083, 6.676100254058838, -0.020562171936035156, -3.233771562576294, -2.89174485206604, -0.2935391366481781, -0.02685546875, -0.00634765625, 0.2119140625, 0, 
401, 2072013943, 89.87942504882812, -47.382286071777344, -36.653846740722656, 7.038231372833252, 6.72538948059082, 0.0023085589054971933, -3.236384153366089, -2.751481056213379, -0.28659766912460327, -0.02783203125, -0.0078125, 0.2099609375, 0, 
402, 2072022276, 89.88093566894531, -47.38390350341797, -36.673099517822266, 6.896338939666748, 6.6100754737854, 0.09761808812618256, -3.1762421131134033, -3.053345203399658, -0.13806073367595673, -0.02490234375, -0.00732421875, 0.21044921875, 0, 
403, 2072030609, 89.8838119506836, -47.38382339477539, -36.67692947387695, 7.093911647796631, 6.4943461418151855, 0.06507721543312073, -3.182107925415039, -3.2018821239471436, -0.3465862274169922, -0.02685546875, -0.0087890625, 0.21044921875, 0, 
404, 2072038942, 89.8853988647461, -47.38397216796875, -36.677215576171875, 7.418198108673096, 6.57542085647583, 0.07276736944913864, -3.0102877616882324, -2.9146697521209717, -0.3158235549926758, -0.0244140625, -0.0078125, 0.20947265625, 0, 
405, 2072047275, 89.8860092163086, -47.383670806884766, -36.67768859863281, 7.426925182342529, 6.673538684844971, -0.09953901171684265, -3.0469412803649902, -2.8336257934570312, -0.36953654885292053, -0.02734375, -0.00732421875, 0.21044921875, 0, 
406, 2072055608, 89.88683319091797, -47.383243560791016, -36.67775344848633, 7.169612884521484, 6.720627307891846, -0.034303028136491776, -3.0936362743377686, -2.895484447479248, -0.38546863198280334, -0.0234375, -0.0078125, 0.21044921875, 0, 
407, 2072063941, 89.88723754882812, -47.38318634033203, -36.67845153808594, 7.034893989562988, 6.647350788116455, 0.10187605023384094, -3.2001144886016846, -2.949223041534424, -0.34300023317337036, -0.0283203125, -0.0078125, 0.2099609375, 0, 
408, 2072072274, 89.88916015625, -47.383056640625, -36.69166564941406, 7.031681060791016, 6.61350679397583, 0.07406933605670929, -3.0968379974365234, -3.0179717540740967, -0.3485841155052185, -0.0283203125, -0.0087890625, 0.2099609375, 0, 
409, 2072080607, 89.8911361694336, -47.383609771728516, -36.69452667236328, 7.335234642028809, 6.593446731567383, 0.09795472770929337, -3.2035722732543945, -3.124398708343506, -0.2691799998283386, -0.0263671875, -0.00830078125, 0.2099609375, 0, 
410, 2072088940, 89.89047241210938, -47.38333511352539, -36.70304870605469, 7.507669925689697, 6.648830413818359, -0.06016948074102402, -3.1871538162231445, -2.821946144104004, -0.36715444922447205, -0.02734375, -0.00732421875, 0.2109375, 0, 
411, 2072097273, 89.8892822265625, -47.38457489013672, -36.70989227294922, 7.191521167755127, 6.6727070808410645, -0.09518797695636749, -3.292351722717285, -2.8650550842285156, -0.18521654605865479, -0.0244140625, -0.00927734375, 0.21044921875, 0, 
412, 2072105606, 89.88986206054688, -47.38418197631836, -36.709903717041016, 6.91469669342041, 6.6331682205200195, -0.008012468926608562, -3.121504783630371, -2.88974666595459, -0.38067877292633057, -0.02392578125, -0.0087890625, 0.2119140625, 0, 
413, 2072113939, 89.89237976074219, -47.383934020996094, -36.71228790283203, 7.0382609367370605, 6.626218318939209, 0.09343159943819046, -3.094174385070801, -3.0849785804748535, -0.3659506142139435, -0.025390625, -0.00732421875, 0.21240234375, 0, 
414, 2072122272, 89.89495849609375, -47.383792877197266, -36.717628479003906, 7.20826530456543, 6.6363043785095215, 0.05742661654949188, -3.04929780960083, -3.057110071182251, -0.3508125841617584, -0.0263671875, -0.00732421875, 0.208984375, 0, 
415, 2072130605, 89.89599609375, -47.383934020996094, -36.718711853027344, 7.529491901397705, 6.74186897277832, 0.026607342064380646, -3.1594135761260986, -2.977757453918457, -0.31871798634529114, -0.02490234375, -0.0068359375, 0.21044921875, 0, 
416, 2072138938, 89.89433288574219, -47.3848762512207, -36.69925308227539, 7.401000499725342, 6.649895668029785, -0.13912105560302734, -3.240264892578125, -2.7648136615753174, -0.22011594474315643, -0.025390625, -0.00732421875, 0.20947265625, 0, 
417, 2072147271, 89.89196014404297, -47.385162353515625, -36.69674301147461, 6.985462188720703, 6.614531993865967, -0.012578321620821953, -3.2977306842803955, -2.731348752975464, -0.2960749864578247, -0.025390625, -0.00634765625, 0.21044921875, 0, 
418, 2072155604, 89.89183807373047, -47.3851432800293, -36.696720123291016, 6.953433513641357, 6.537816047668457, 0.041246410459280014, -3.198833703994751, -2.891130208969116, -0.33910688757896423, -0.025390625, -0.00830078125, 0.20947265625, 0, 
419, 2072163937, 89.89413452148438, -47.38467788696289, -36.697837829589844, 7.198981285095215, 6.540875434875488, -0.012880632653832436, -3.011798620223999, -2.981855630874634, -0.39194902777671814, -0.0244140625, -0.0078125, 0.20703125, 0, 
420, 2072172270, 89.89502716064453, -47.384437561035156, -36.69752502441406, 7.422874927520752, 6.715973854064941, 0.03862715885043144, -3.135310649871826, -2.950068712234497, -0.36328673362731934, -0.02734375, -0.0068359375, 0.2099609375, 0, 
421, 2072180603, 89.89385223388672, -47.38421630859375, -36.695858001708984, 7.433495998382568, 6.735504150390625, -0.06907534599304199, -3.1811344623565674, -2.7571933269500732, -0.36326107382774353, -0.0244140625, -0.0087890625, 0.21044921875, 0, 
422, 2072188936, 89.89221954345703, -47.384376525878906, -36.69939422607422, 7.083079814910889, 6.71235990524292, -0.030480479821562767, -3.265558958053589, -2.7801692485809326, -0.311212956905365, -0.025390625, -0.00732421875, 0.20947265625, 0, 
423, 2072197269, 89.8917236328125, -47.384647369384766, -36.698394775390625, 6.856138229370117, 6.608184337615967, 0.02575521543622017, -3.2140743732452393, -2.8653876781463623, -0.30042940378189087, -0.02392578125, -0.0078125, 0.20849609375, 0, 
424, 2072205602, 89.89427185058594, -47.384620666503906, -36.700828552246094, 7.049319267272949, 6.554726600646973, 0.02775147184729576, -3.095813274383545, -3.0881805419921875, -0.3397216200828552, -0.0263671875, -0.0078125, 0.2099609375, 0, 
425, 2072213935, 89.8955307006836, -47.38428497314453, -36.701629638671875, 7.3749494552612305, 6.624019145965576, 0.09535989910364151, -3.1081082820892334, -2.956088066101074, -0.3761962950229645, -0.02392578125, -0.00830078125, 0.20947265625, 0, 
426, 2072222268, 89.89482879638672, -47.383514404296875, -36.69693374633789, 7.492070198059082, 6.731523513793945, -0.03600052744150162, -3.201395273208618, -2.833779811859131, -0.4234289526939392, -0.02783203125, -0.00830078125, 0.2109375, 0, 
427, 2072230601, 89.8928451538086, -47.38430404663086, -36.695133209228516, 7.264763355255127, 6.632263660430908, -0.038265421986579895, -3.268632650375366, -2.745077610015869, -0.24072259664535522, -0.02734375, -0.0087890625, 0.2119140625, 0, 
428, 2072238934, 89.89022827148438, -47.38431930541992, -36.677249908447266, 6.995173454284668, 6.593891143798828, 0.035128794610500336, -3.2694520950317383, -2.689392328262329, -0.330884724855423, -0.025390625, -0.00830078125, 0.21142578125, 0, 
429, 2072247267, 89.8916244506836, -47.38431167602539, -36.68070983886719, 6.940361022949219, 6.621964454650879, 0.0999288558959961, -3.179520606994629, -3.041562557220459, -0.33577704429626465, -0.02392578125, -0.01025390625, 0.2109375, 0, 
430, 2072255600, 89.8929443359375, -47.383148193359375, -36.6829948425293, 7.210811614990234, 6.618459701538086, 0.0021307864226400852, -3.230902671813965, -3.0762441158294678, -0.4742219150066376, -0.025390625, -0.0068359375, 0.21142578125, 0, 
431, 2072263933, 89.89227294921875, -47.38285827636719, -36.68166732788086, 7.502905368804932, 6.6688551902771, 0.1181676909327507, -3.1525490283966064, -2.7830381393432617, -0.37156009674072266, -0.02734375, -0.00830078125, 0.20458984375, 0, 
432, 2072272266, 89.89093780517578, -47.38279342651367, -36.68156433105469, 7.283369064331055, 6.6360955238342285, -0.0841231420636177, -3.2671213150024414, -2.8235855102539062, -0.3409254848957062, -0.02734375, -0.0078125, 0.2001953125, 0, 
433, 2072280599, 89.88980865478516, -47.38300704956055, -36.68037033081055, 6.963857650756836, 6.6401567459106445, -0.024705717340111732, -3.2177629470825195, -2.793283700942993, -0.3099834620952606, -0.025390625, -0.0068359375, 0.19775390625, 0, 
434, 2072288932, 89.88888549804688, -47.38372802734375, -36.67794418334961, 6.985872745513916, 6.556460380554199, 0.07989602535963058, -3.187896490097046, -2.7847542762756348, -0.2449745535850525, -0.02587890625, -0.00537109375, 0.197265625, 0, 
435, 2072297265, 89.88986206054688, -47.384422302246094, -36.67905044555664, 7.1728105545043945, 6.608022689819336, 0.09708468616008759, -3.168301820755005, -2.982111930847168, -0.25286373496055603, -0.025390625, -0.00634765625, 0.1962890625, 0, 
436, 2072305598, 89.87957763671875, -47.37895202636719, -36.67147445678711, 7.404391288757324, 6.719184398651123, 0.12528401613235474, -3.2249605655670166, -2.9371330738067627, -0.4103400409221649, -0.025390625, -0.00927734375, 0.1982421875, 0, 
437, 2072313931, 89.87898254394531, -47.37965393066406, -36.671424865722656, 7.490170478820801, 6.65974235534668, -0.10963554680347443, -3.255441188812256, -2.8876209259033203, -0.252223402261734, -0.02490234375, -0.0078125, 0.19970703125, 0, 
438, 2072322264, 89.87512969970703, -47.37986755371094, -36.67030715942383, 7.1278605461120605, 6.616281986236572, -0.03307639807462692, -3.375777006149292, -2.6397006511688232, -0.3056803047657013, -0.0244140625, -0.00830078125, 0.2001953125, 0, 
439, 2072330597, 89.87336730957031, -47.37898254394531, -36.6695556640625, 6.84365701675415, 6.575876712799072, 0.051819369196891785, -3.331336259841919, -2.830219030380249, -0.44292134046554565, -0.02587890625, -0.00830078125, 0.19921875, 0, 
440, 2072338930, 89.87638854980469, -47.37847900390625, -36.67440414428711, 7.088013172149658, 6.577155113220215, 0.05357949808239937, -3.065934181213379, -3.119288682937622, -0.3908860385417938, -0.0234375, -0.0048828125, 0.20166015625, 0, 
441, 2072347263, 89.87709045410156, -47.37812042236328, -36.66830062866211, 7.382227897644043, 6.614200592041016, 0.07280368357896805, -3.2284440994262695, -3.011798858642578, -0.37722089886665344, -0.02783203125, -0.0087890625, 0.201171875, 0, 
442, 2072355596, 89.87532806396484, -47.377235412597656, -36.66651916503906, 7.448960781097412, 6.704940319061279, 0.06277264654636383, -3.2400214672088623, -2.7467169761657715, -0.44322869181632996, -0.0244140625, -0.005859375, 0.201171875, 0, 
443, 2072363929, 89.8734359741211, -47.37779235839844, -36.664703369140625, 7.287790298461914, 6.697354316711426, -0.071070596575737, -3.2546985149383545, -2.7437968254089355, -0.26720768213272095, -0.025390625, -0.005859375, 0.19970703125, 0, 
444, 2072372262, 89.87129211425781, -47.37804412841797, -36.67705154418945, 7.011159896850586, 6.644440174102783, -0.002331251511350274, -3.273986339569092, -2.736830234527588, -0.3025553822517395, -0.025390625, -0.0087890625, 0.20361328125, 0, 
445, 2072380595, 89.87126922607422, -47.37793731689453, -36.67768096923828, 6.934998035430908, 6.566600322723389, 0.10176309198141098, -3.243633508682251, -2.942589044570923, -0.34873783588409424, -0.0244140625, -0.0087890625, 0.19921875, 0, 
446, 2072388928, 89.87410736083984, -47.3773307800293, -36.686859130859375, 7.220559597015381, 6.561147212982178, 0.0870475023984909, -3.110848903656006, -3.133338451385498, -0.40619057416915894, -0.02392578125, -0.00732421875, 0.20068359375, 0, 
447, 2072397261, 89.87548828125, -47.376468658447266, -36.68729019165039, 7.48065710067749, 6.668540000915527, 0.006790402811020613, -3.1257309913635254, -2.986953020095825, -0.43277814984321594, -0.02587890625, -0.0068359375, 0.201171875, 0, 
448, 2072405594, 89.87354278564453, -47.376930236816406, -36.68519592285156, 7.346421718597412, 6.661202430725098, -0.1460261195898056, -3.2351291179656982, -2.7216405868530273, -0.2820127308368683, -0.02490234375, -0.00732421875, 0.201171875, 0, 
449, 2072413927, 89.8723373413086, -47.37705993652344, -36.6831169128418, 7.06486177444458, 6.718931198120117, 0.03274565562605858, -3.148014783859253, -2.7212817668914795, -0.317667692899704, -0.02490234375, -0.005859375, 0.2021484375, 0, 
450, 2072422260, 89.87263488769531, -47.37604522705078, -36.68549346923828, 6.939846038818359, 6.597997188568115, 0.1121927797794342, -3.214714527130127, -2.958162546157837, -0.457547128200531, -0.02587890625, -0.00634765625, 0.20166015625, 0, 
451, 2072430593, 89.87410736083984, -47.37526321411133, -36.68775177001953, 7.105167388916016, 6.609323978424072, 0.008516056463122368, -3.2079269886016846, -3.074681520462036, -0.42788583040237427, -0.025390625, -0.00830078125, 0.2021484375, 0, 
452, 2072438926, 89.87379455566406, -47.37559127807617, -36.71171951293945, 7.4152679443359375, 6.641010284423828, 0.15538080036640167, -3.210052967071533, -2.875633716583252, -0.2936672270298004, -0.02392578125, -0.00732421875, 0.20361328125, 0, 
453, 2072447259, 89.87234497070312, -47.37571334838867, -36.70798873901367, 7.431429386138916, 6.656828880310059, -0.04527517035603523, -3.1464011669158936, -2.6923887729644775, -0.3188972473144531, -0.0263671875, -0.00634765625, 0.20361328125, 0, 
454, 2072455592, 89.87179565429688, -47.37523651123047, -36.70672607421875, 7.107779026031494, 6.706684112548828, -0.06707193702459335, -3.142021417617798, -2.7891340255737305, -0.3914879858493805, -0.02734375, -0.00927734375, 0.203125, 0, 
455, 2072463925, 89.87205505371094, -47.374671936035156, -36.70746994018555, 6.9894633293151855, 6.600289821624756, 0.057670969516038895, -3.2212462425231934, -2.9508371353149414, -0.40327054262161255, -0.0234375, -0.00732421875, 0.20166015625, 0, 
456, 2072472258, 89.87417602539062, -47.37405014038086, -36.710384368896484, 7.041393280029297, 6.611364364624023, 0.10470517724752426, -3.115664482116699, -3.0645129680633545, -0.40890568494796753, -0.02587890625, -0.0068359375, 0.20166015625, 0, 
457, 2072480591, 89.8759994506836, -47.374122619628906, -36.71192932128906, 7.217920780181885, 6.662997722625732, 0.1441805362701416, -3.1045737266540527, -3.0161020755767822, -0.32581308484077454, -0.0263671875, -0.00732421875, 0.2021484375, 0, 
458, 2072488924, 89.8753662109375, -47.37474822998047, -36.725669860839844, 7.472326278686523, 6.693790912628174, 0.012695129960775375, -3.2931196689605713, -2.9220974445343018, -0.25591185688972473, -0.02490234375, -0.009765625, 0.20361328125, 0, 
459, 2072497257, 89.87409973144531, -47.37575149536133, -36.71748352050781, 7.2957611083984375, 6.6564154624938965, -0.08720022439956665, -3.144275188446045, -2.7166199684143066, -0.2131616622209549, -0.02685546875, -0.0068359375, 0.20263671875, 0, 
460, 2072505590, 89.87142181396484, -47.375648498535156, -36.71538162231445, 6.90929651260376, 6.657114028930664, -0.018348392099142075, -3.324113130569458, -2.7207696437835693, -0.34866100549697876, -0.025390625, -0.00732421875, 0.201171875, 0, 
461, 2072513923, 89.87024688720703, -47.3760871887207, -36.71354293823242, 6.982785224914551, 6.564110279083252, 0.11825737357139587, -3.165356159210205, -2.7418503761291504, -0.28083449602127075, -0.02490234375, -0.0087890625, 0.203125, 0, 
462, 2072522256, 89.87220764160156, -47.37668991088867, -36.720970153808594, 7.2379889488220215, 6.554806709289551, 0.06578975170850754, -3.150397300720215, -3.0766026973724365, -0.26011258363723755, -0.025390625, -0.00830078125, 0.2001953125, 0, 
463, 2072530589, 89.87200927734375, -47.3767204284668, -36.72113800048828, 7.409397602081299, 6.717029571533203, 0.06956981122493744, -3.2256009578704834, -2.9065496921539307, -0.33313870429992676, -0.02783203125, -0.00927734375, 0.2041015625, 0, 
464, 2072538922, 89.8724136352539, -47.37705612182617, -36.72108840942383, 7.394866943359375, 6.705926418304443, -0.07794327288866043, -3.096709728240967, -2.8618273735046387, -0.290926456451416, -0.02587890625, -0.00537109375, 0.20068359375, 0, 
465, 2072547255, 89.86967468261719, -47.376976013183594, -36.71772003173828, 7.086995601654053, 6.715427398681641, -0.04196550324559212, -3.2171220779418945, -2.6210532188415527, -0.34089982509613037, -0.0244140625, -0.0078125, 0.20166015625, 0, 
466, 2072555588, 89.86834716796875, -47.37782669067383, -36.71730041503906, 6.908314228057861, 6.614030361175537, 0.06497030705213547, -3.307899236679077, -2.85793399810791, -0.2339092195034027, -0.02734375, -0.005859375, 0.2021484375, 0, 
467, 2072563921, 89.87096405029297, -47.37900924682617, -36.721099853515625, 7.027423858642578, 6.53289270401001, 0.05961853265762329, -3.208362340927124, -3.2003707885742188, -0.19546222686767578, -0.02587890625, -0.0078125, 0.20166015625, 0, 
468, 2072572254, 89.87316131591797, -47.379730224609375, -36.72294235229492, 7.374284267425537, 6.591446399688721, 0.1185564398765564, -3.0852606296539307, -3.0440728664398193, -0.24523068964481354, -0.02587890625, -0.00732421875, 0.20166015625, 0, 
469, 2072580587, 89.87491607666016, -47.380130767822266, -36.72272872924805, 7.455440521240234, 6.651613712310791, -0.07589026540517807, -2.9559085369110107, -2.87442946434021, -0.28795522451400757, -0.02490234375, -0.00830078125, 0.201171875, 0, 
470, 2072588920, 89.87356567382812, -47.381065368652344, -36.72023010253906, 7.2275190353393555, 6.6926679611206055, -0.07798709720373154, -3.129713535308838, -2.6910440921783447, -0.22032082080841064, -0.02783203125, -0.0087890625, 0.19921875, 0, 
471, 2072597253, 89.8723373413086, -47.3814811706543, -36.71895980834961, 7.047366142272949, 6.599550247192383, 0.05086369812488556, -3.219722270965576, -2.7895827293395996, -0.2813339829444885, -0.025390625, -0.0068359375, 0.19873046875, 0, 
472, 2072605586, 89.87284088134766, -47.381065368652344, -36.71929168701172, 7.007064342498779, 6.611341953277588, 0.11145409196615219, -3.155571222305298, -2.918639659881592, -0.3858272135257721, -0.0263671875, -0.00830078125, 0.20166015625, 0, 
473, 2072613919, 89.87506866455078, -47.380462646484375, -36.721717834472656, 7.2366509437561035, 6.593379974365234, 0.08755197376012802, -3.1351568698883057, -3.089358329772949, -0.40757372975349426, -0.02587890625, -0.0087890625, 0.20166015625, 0, 
474, 2072622252, 89.87602996826172, -47.38041687011719, -36.72274398803711, 7.51230001449585, 6.624218940734863, 0.003462407039478421, -3.1611809730529785, -2.977475881576538, -0.33900442719459534, -0.0244140625, -0.005859375, 0.2021484375, 0, 
475, 2072630585, 89.87373352050781, -47.3810920715332, -36.72047805786133, 7.299222946166992, 6.640497207641602, -0.13003845512866974, -3.2601802349090576, -2.7068355083465576, -0.25383707880973816, -0.0263671875, -0.0068359375, 0.203125, 0, 
476, 2072638918, 89.871826171875, -47.381004333496094, -36.71836471557617, 6.9495038986206055, 6.686432838439941, -0.032526884227991104, -3.229980707168579, -2.7227163314819336, -0.34151461720466614, -0.02685546875, -0.00830078125, 0.2060546875, 0, 
477, 2072647251, 89.87251281738281, -47.38113784790039, -36.72022247314453, 7.036213397979736, 6.61720609664917, 0.07453584671020508, -3.2680177688598633, -3.0428688526153564, -0.31523439288139343, -0.02734375, -0.00732421875, 0.20849609375, 0, 
478, 2072655584, 89.87358093261719, -47.38133239746094, -36.72245788574219, 7.166874408721924, 6.596438407897949, 0.06689851731061935, -3.2564148902893066, -3.074220657348633, -0.31451719999313354, -0.0244140625, -0.0068359375, 0.21142578125, 0, 
479, 2072663917, 89.87400817871094, -47.381004333496094, -36.7226676940918, 7.425936698913574, 6.693970680236816, 0.11159591376781464, -3.1548287868499756, -2.9074466228485107, -0.3754791021347046, -0.02685546875, -0.0078125, 0.208984375, 0, 
480, 2072672250, 89.87312316894531, -47.3814582824707, -36.720584869384766, 7.467958450317383, 6.659030914306641, -0.10743694752454758, -3.2748823165893555, -2.8779897689819336, -0.27630072832107544, -0.02685546875, -0.0078125, 0.21044921875, 0, 
481, 2072680583, 89.87026977539062, -47.38204574584961, -36.717689514160156, 7.113767623901367, 6.677459239959717, -0.03551683947443962, -3.274165153503418, -2.6560938358306885, -0.2640571594238281, -0.025390625, -0.00927734375, 0.2080078125, 0, 
482, 2072688916, 89.86900329589844, -47.3817138671875, -36.715919494628906, 6.9362359046936035, 6.5899338722229, 0.04832784831523895, -3.2295966148376465, -2.7986884117126465, -0.3732762336730957, -0.02783203125, -0.0087890625, 0.20947265625, 0, 
483, 2072697249, 89.86968994140625, -47.38133239746094, -36.71160125732422, 7.113542556762695, 6.555861473083496, 0.046144016087055206, -3.1603612899780273, -2.9409754276275635, -0.37806612253189087, -0.02490234375, -0.00732421875, 0.20947265625, 0, 
484, 2072705582, 89.87120819091797, -47.38089370727539, -36.711647033691406, 7.343005180358887, 6.639026165008545, 0.06499458104372025, -3.0091347694396973, -2.8941268920898438, -0.3902072608470917, -0.02734375, -0.0087890625, 0.20947265625, 0, 
485, 2072713915, 89.87051391601562, -47.379852294921875, -36.710445404052734, 7.4176506996154785, 6.683887958526611, -0.01497108768671751, -3.1634349822998047, -2.794154405593872, -0.4586997628211975, -0.0234375, -0.0068359375, 0.20849609375, 0, 
486, 2072722248, 89.87135314941406, -47.379249572753906, -36.711830139160156, 7.222932815551758, 6.747978687286377, -0.010444041341543198, -3.0899477005004883, -2.9028871059417725, -0.4053196609020233, -0.025390625, -0.00732421875, 0.208984375, 0, 
