sep=,
PacketCounter,SampleTimeFine,Euler_X,Euler_Y,Euler_Z,Acc_X,Acc_Y,Acc_Z,Gyr_X,Gyr_Y,Gyr_Z,
0, 1930509083, 82.60907745361328, 48.76985168457031, 83.02354431152344, 0, 0, 0, 0, 0, 0, 
1, 1930517416, 82.60909271240234, 48.77293014526367, 83.02580261230469, -7.169321537017822, 6.10270357131958, 0.8784075975418091, 1.969568133354187, 0.6683906316757202, 0.8682329058647156, 
2, 1930525749, 82.60911560058594, 48.77342224121094, 83.02642059326172, -7.337996006011963, 5.983957767486572, 0.9901294112205505, 2.1438989639282227, 0.49021804332733154, 1.1570847034454346, 
3, 1930534082, 82.61211395263672, 48.77170944213867, 83.02928924560547, -7.394782543182373, 6.371739864349365, 0.6600791215896606, 2.2696006298065186, 0.6406888961791992, 1.4425681829452515, 
4, 1930542415, 82.61172485351562, 48.76959991455078, 83.02815246582031, -7.469690799713135, 6.595253944396973, 1.0895485877990723, 2.237774610519409, 0.3184489905834198, 1.4496248960494995, 
5, 1930550748, 82.61247253417969, 48.7706184387207, 83.0293960571289, -7.2462382316589355, 6.58592414855957, 0.7292424440383911, 2.148381471633911, 0.5541768670082092, 1.101962924003601, 
6, 1930559081, 82.61133575439453, 48.774147033691406, 83.02987670898438, -7.094986438751221, 6.302553176879883, 0.9042605757713318, 1.9943883419036865, 0.5496430397033691, 0.7932087779045105, 
7, 1930567414, 82.61204528808594, 48.77537155151367, 83.03124237060547, -7.271177291870117, 5.975665092468262, 0.7307392358779907, 2.1315910816192627, 0.5679444670677185, 1.0784361362457275, 
8, 1930575747, 82.61405181884766, 48.77349853515625, 83.03479766845703, -7.397684574127197, 6.153924465179443, 1.0063087940216064, 2.3158340454101562, 0.5219668745994568, 1.44284987449646, 
9, 1930584080, 82.6153793334961, 48.77042770385742, 83.0364990234375, -7.398552417755127, 6.54563570022583, 0.8575205206871033, 2.174405336380005, 0.529792070388794, 1.594627022743225, 
10, 1930592413, 82.61649322509766, 48.77009201049805, 83.03863525390625, -7.343631267547607, 6.660893440246582, 0.6975520253181458, 2.3321890830993652, 0.42994770407676697, 1.2494752407073975, 
11, 1930600746, 82.61521911621094, 48.77238464355469, 83.03716278076172, -7.123270511627197, 6.420164108276367, 0.8985129594802856, 2.146498441696167, 0.3631841838359833, 0.9215744733810425, 
12, 1930609079, 82.6158676147461, 48.77499008178711, 83.01941680908203, -7.170495986938477, 6.054803371429443, 0.8433837890625, 2.1386990547180176, 0.5937252044677734, 0.9138006567955017, 
13, 1930617412, 82.61482238769531, 48.77487564086914, 83.01771545410156, -7.377324104309082, 6.003093719482422, 0.9441050291061401, 2.1958444118499756, 0.3068457543849945, 1.2068018913269043, 
14, 1930625745, 82.61542510986328, 48.772422790527344, 83.02033233642578, -7.456443786621094, 6.3392333984375, 0.8060165643692017, 2.0876495838165283, 0.5680853128433228, 1.5191161632537842, 
15, 1930634078, 82.61407470703125, 48.770206451416016, 83.01921844482422, -7.40146017074585, 6.58915376663208, 0.8765777349472046, 2.106886386871338, 0.31998586654663086, 1.461484432220459, 
16, 1930642411, 82.61563873291016, 48.77075958251953, 83.02017211914062, -7.1334614753723145, 6.556863784790039, 0.6971688866615295, 2.2130954265594482, 0.5896909236907959, 1.1614774465560913, 
17, 1930650744, 82.61457061767578, 48.77424621582031, 83.02031707763672, -7.165356636047363, 6.232329368591309, 0.933171272277832, 2.0269439220428467, 0.509070098400116, 0.7982804775238037, 
18, 1930659077, 82.61479949951172, 48.77412796020508, 83.02143859863281, -7.324004173278809, 6.000951766967773, 0.821398138999939, 2.1298110485076904, 0.5360419750213623, 1.2344653606414795, 
19, 1930667410, 82.61638641357422, 48.77302551269531, 83.02254486083984, -7.3588786125183105, 6.300504207611084, 0.882809042930603, 2.2596495151519775, 0.5103764533996582, 1.3523164987564087, 
20, 1930675743, 82.616455078125, 48.77063751220703, 83.02163696289062, -7.44539737701416, 6.5349345207214355, 0.7902100086212158, 2.1244444847106934, 0.45987796783447266, 1.5020443201065063, 
21, 1930684076, 82.6138687133789, 48.770877838134766, 83.0179672241211, -7.239883899688721, 6.602710247039795, 0.8575125932693481, 2.191835641860962, 0.15898756682872772, 1.1439062356948853, 
22, 1930692409, 82.61329650878906, 48.77436065673828, 83.01932525634766, -7.103254318237305, 6.306295871734619, 0.8147661685943604, 2.028749704360962, 0.5801624655723572, 0.8053883910179138, 
23, 1930700742, 82.61590576171875, 48.775978088378906, 83.0230484008789, -7.252096176147461, 5.9316511154174805, 0.7319297790527344, 2.147151470184326, 0.7596796751022339, 1.056369423866272, 
24, 1930709075, 82.61776733398438, 48.77457809448242, 83.02362823486328, -7.388979434967041, 6.15485954284668, 1.0555366277694702, 2.3401036262512207, 0.4828155040740967, 1.3811067342758179, 
25, 1930717408, 82.6179428100586, 48.771907806396484, 83.02428436279297, -7.476893901824951, 6.4965386390686035, 0.8722541332244873, 2.1317832469940186, 0.45210403203964233, 1.5351250171661377, 
26, 1930725741, 82.61743927001953, 48.77073287963867, 83.02491760253906, -7.463320255279541, 6.607449531555176, 0.7890785336494446, 2.1396212577819824, 0.4123251736164093, 1.3481669425964355, 
27, 1930734074, 82.6177749633789, 48.77286148071289, 83.02523040771484, -7.077994346618652, 6.493102073669434, 0.83050936460495, 2.181936025619507, 0.500976026058197, 0.9605979323387146, 
28, 1930742407, 82.61669921875, 48.7759895324707, 83.02489471435547, -7.118858337402344, 6.070944309234619, 0.7975749373435974, 1.8905224800109863, 0.6289703249931335, 0.8560661673545837, 
29, 1930750740, 82.61752319335938, 48.77694320678711, 83.02672576904297, -7.40298318862915, 5.952801704406738, 1.0080405473709106, 2.102531909942627, 0.6015375256538391, 1.114232063293457, 
30, 1930759073, 82.61769104003906, 48.77338409423828, 83.02477264404297, -7.374135494232178, 6.399925708770752, 0.7500543594360352, 2.282087564468384, 0.3173731863498688, 1.6279767751693726, 
31, 1930767406, 82.6183090209961, 48.77182388305664, 83.02449798583984, -7.373164176940918, 6.663439750671387, 1.055583119392395, 2.268524646759033, 0.39612409472465515, 1.392748236656189, 
32, 1930775739, 82.6173324584961, 48.77302551269531, 83.02307891845703, -7.235029220581055, 6.56296968460083, 0.45167067646980286, 2.1659271717071533, 0.37943652272224426, 1.0539617538452148, 
33, 1930784072, 82.61842346191406, 48.776519775390625, 83.02596282958984, -7.165164470672607, 6.216935157775879, 1.0860384702682495, 2.0391619205474854, 0.721975564956665, 0.8237409591674805, 
34, 1930792405, 82.6167221069336, 48.777618408203125, 83.02389526367188, -7.234732627868652, 5.970088005065918, 0.706326425075531, 2.1607272624969482, 0.31032928824424744, 1.0600323677062988, 
35, 1930800738, 82.61894226074219, 48.77600860595703, 83.0255126953125, -7.399382591247559, 6.215738296508789, 1.028996467590332, 2.2888495922088623, 0.5450837016105652, 1.4183753728866577, 
36, 1930809071, 82.61921691894531, 48.7739372253418, 83.02835845947266, -7.483212947845459, 6.483816623687744, 0.687522292137146, 2.2723798751831055, 0.36224934458732605, 1.4476525783538818, 
37, 1930817404, 82.61946868896484, 48.77272033691406, 83.02774810791016, -7.257872581481934, 6.635549545288086, 0.7837235331535339, 2.2539758682250977, 0.3757608234882355, 1.3495116233825684, 
38, 1930825737, 82.61946105957031, 48.77560043334961, 83.0299072265625, -7.104516506195068, 6.393198013305664, 0.8438612222671509, 2.1037867069244385, 0.557634711265564, 0.873944878578186, 
39, 1930834070, 82.61988067626953, 48.777591705322266, 83.03034973144531, -7.265060901641846, 6.0179443359375, 0.8433746099472046, 2.179579257965088, 0.509351909160614, 0.9788609147071838, 
40, 1930842403, 82.6204833984375, 48.77731704711914, 83.02840423583984, -7.390505790710449, 6.129478931427002, 0.8954664468765259, 2.31866455078125, 0.38466179370880127, 1.2330565452575684, 
41, 1930850736, 82.6189956665039, 48.77432632446289, 83.02674102783203, -7.410140037536621, 6.475771903991699, 0.8625854253768921, 2.1402103900909424, 0.2679120898246765, 1.5504425764083862, 
42, 1930859069, 82.61681365966797, 48.77299118041992, 83.02340698242188, -7.340150833129883, 6.612787246704102, 0.793463945388794, 2.0901858806610107, 0.28258904814720154, 1.351624608039856, 
43, 1930867402, 82.61679077148438, 48.775325775146484, 83.02333068847656, -7.072510719299316, 6.46441125869751, 0.7559738755226135, 2.1727917194366455, 0.4716733396053314, 0.9308854341506958, 
44, 1930875735, 82.61537170410156, 48.778446197509766, 83.02388000488281, -7.1959381103515625, 6.098330974578857, 0.9158693552017212, 1.9521502256393433, 0.5494381189346313, 0.8442323803901672, 
45, 1930884068, 82.6185531616211, 48.777896881103516, 83.02771759033203, -7.3218674659729, 6.050304412841797, 0.8920858502388, 2.2055394649505615, 0.7340527176856995, 1.3157776594161987, 
46, 1930892401, 82.62106323242188, 48.77570724487305, 83.02904510498047, -7.379118919372559, 6.422560691833496, 0.803666353225708, 2.3701364994049072, 0.5141545534133911, 1.4832693338394165, 
47, 1930900734, 82.62105560302734, 48.772823333740234, 83.02823638916016, -7.515840530395508, 6.611993312835693, 1.0061256885528564, 2.2402849197387695, 0.3350469768047333, 1.5451403856277466, 
48, 1930909067, 82.61940002441406, 48.7733154296875, 83.03121948242188, -7.218173027038574, 6.558052062988281, 0.6263231635093689, 2.068439245223999, 0.38199788331985474, 1.1433042287826538, 
49, 1930917400, 82.6190185546875, 48.77512741088867, 83.03175354003906, -7.06859827041626, 6.223392963409424, 0.980539083480835, 2.074957847595215, 0.513232409954071, 1.0000566244125366, 
50, 1930925733, 82.620361328125, 48.77630615234375, 83.040283203125, -7.289417266845703, 5.92777156829834, 0.8530308604240417, 2.283188581466675, 0.5180350542068481, 1.0757081508636475, 
51, 1930934066, 82.6226806640625, 48.77405548095703, 83.04122924804688, -7.401388645172119, 6.224579811096191, 0.8299344182014465, 2.3632848262786865, 0.48417311906814575, 1.4895318746566772, 
52, 1930942399, 82.62335205078125, 48.77120590209961, 83.0387954711914, -7.435941696166992, 6.558595657348633, 0.7574153542518616, 2.287184715270996, 0.38829901814460754, 1.5457038879394531, 
53, 1930950732, 82.62248992919922, 48.77072525024414, 83.03827667236328, -7.294853210449219, 6.685797214508057, 0.9217594861984253, 2.113917350769043, 0.39645716547966003, 1.2625514268875122, 
54, 1930959065, 82.6219482421875, 48.77347946166992, 83.0401611328125, -7.104240417480469, 6.41373872756958, 0.7590553164482117, 2.120269298553467, 0.4944571852684021, 0.8832044005393982, 
55, 1930967398, 82.62079620361328, 48.776058197021484, 83.04035186767578, -7.218601226806641, 6.0294189453125, 0.9761546850204468, 2.012049436569214, 0.49704423546791077, 0.9044387340545654, 
56, 1930975731, 82.62056732177734, 48.77561950683594, 83.04164123535156, -7.402445316314697, 6.030617713928223, 0.7131729125976562, 2.195523977279663, 0.41436147689819336, 1.2568137645721436, 
57, 1930984064, 82.62014770507812, 48.77265167236328, 83.04126739501953, -7.3978071212768555, 6.409643650054932, 0.9047307372093201, 2.1526331901550293, 0.3698311746120453, 1.5592793226242065, 
58, 1930992397, 82.61943817138672, 48.77021408081055, 83.03998565673828, -7.358396053314209, 6.622973442077637, 0.7618259787559509, 2.2045788764953613, 0.3184746205806732, 1.4885072708129883, 
59, 1931000730, 82.6185531616211, 48.772464752197266, 83.03958892822266, -7.1943039894104, 6.475837707519531, 0.8335740566253662, 2.099355459213257, 0.44459912180900574, 0.9366742372512817, 
60, 1931009063, 82.61652374267578, 48.77582931518555, 83.03687286376953, -7.187009811401367, 6.106309413909912, 0.7270456552505493, 2.0503811836242676, 0.40546056628227234, 0.796743631362915, 
61, 1931017396, 82.61634063720703, 48.77522659301758, 83.03675842285156, -7.292873382568359, 6.007928848266602, 1.0599932670593262, 2.156757116317749, 0.4237235188484192, 1.281237006187439, 
62, 1931025729, 82.61688232421875, 48.771705627441406, 83.0394515991211, -7.392711162567139, 6.361798286437988, 0.6322310566902161, 2.288619041442871, 0.3613784611225128, 1.6260557174682617, 
63, 1931034062, 82.61389923095703, 48.768218994140625, 83.03568267822266, -7.471859931945801, 6.59317684173584, 1.1082240343093872, 2.150122880935669, 0.09304371476173401, 1.5857131481170654, 
64, 1931042395, 82.61366271972656, 48.768314361572266, 83.0418472290039, -7.1045732498168945, 6.594483375549316, 0.44148358702659607, 2.230961561203003, 0.38064032793045044, 1.1906650066375732, 
65, 1931050728, 82.61209869384766, 48.77131652832031, 83.04241943359375, -7.09128475189209, 6.236907958984375, 1.1802771091461182, 1.9295331239700317, 0.5323534607887268, 0.859447181224823, 
66, 1931059061, 82.61366271972656, 48.77223205566406, 83.04618072509766, -7.335233688354492, 5.904670715332031, 0.6733791828155518, 2.2017483711242676, 0.60467529296875, 1.1187529563903809, 
67, 1931067394, 82.61626434326172, 48.769775390625, 83.04805755615234, -7.366518020629883, 6.245508670806885, 1.0170116424560547, 2.3116848468780518, 0.5533187389373779, 1.5225869417190552, 
68, 1931075727, 82.61624145507812, 48.76624298095703, 83.05030822753906, -7.439204216003418, 6.558811664581299, 0.7939261198043823, 2.183907985687256, 0.3964187204837799, 1.6298723220825195, 
69, 1931084060, 82.61441802978516, 48.76606750488281, 83.0495834350586, -7.3697333335876465, 6.629952430725098, 0.9486356377601624, 2.0174925327301025, 0.38276636600494385, 1.2242196798324585, 
70, 1931092393, 82.61290740966797, 48.76837921142578, 83.03762817382812, -7.068210124969482, 6.360358238220215, 0.6508536338806152, 2.054325580596924, 0.4460078477859497, 0.9320122003555298, 
71, 1931100726, 82.61373138427734, 48.769813537597656, 83.0397720336914, -7.181787490844727, 6.000028610229492, 0.9993802309036255, 2.073049545288086, 0.6322746276855469, 1.060570240020752, 
72, 1931109059, 82.61569213867188, 48.76799392700195, 83.04292297363281, -7.3845720291137695, 6.072412967681885, 0.7671558260917664, 2.270202398300171, 0.5634235143661499, 1.442990779876709, 
73, 1931117392, 82.61539459228516, 48.76390838623047, 83.04251861572266, -7.411530017852783, 6.486721038818359, 0.9060716032981873, 2.169487237930298, 0.34998011589050293, 1.6932930946350098, 
74, 1931125725, 82.61548614501953, 48.762451171875, 83.04227447509766, -7.365673065185547, 6.66954231262207, 0.7839508652687073, 2.1365857124328613, 0.4986323118209839, 1.3911088705062866, 
75, 1931134058, 82.6159896850586, 48.76469802856445, 83.04316711425781, -7.164405345916748, 6.506682872772217, 0.8329032063484192, 2.146332025527954, 0.5486441254615784, 0.9522733092308044, 
76, 1931142391, 82.61641693115234, 48.767921447753906, 83.0411376953125, -7.143530368804932, 6.124711036682129, 0.996787965297699, 2.0316569805145264, 0.6756905913352966, 0.8492270708084106, 
77, 1931150724, 82.61647033691406, 48.768253326416016, 83.04109954833984, -7.314385890960693, 5.955742835998535, 0.6682940125465393, 2.1774661540985107, 0.4461487829685211, 1.1691105365753174, 
78, 1931159057, 82.61711120605469, 48.766117095947266, 83.0401611328125, -7.418107032775879, 6.317219257354736, 0.8941771388053894, 2.24707293510437, 0.4337386190891266, 1.4677339792251587, 
79, 1931167390, 82.6155776977539, 48.76375198364258, 83.0381851196289, -7.447890758514404, 6.564354419708252, 0.9408626556396484, 2.1662344932556152, 0.2510835528373718, 1.4732155799865723, 
80, 1931175723, 82.61542510986328, 48.76392364501953, 83.03728485107422, -7.166661262512207, 6.623635768890381, 0.5962326526641846, 2.2405028343200684, 0.3879019618034363, 1.1776400804519653, 
81, 1931184056, 82.61481475830078, 48.76678466796875, 83.03791046142578, -7.10256814956665, 6.2930073738098145, 1.009832501411438, 2.0393924713134766, 0.5356320142745972, 0.8763014078140259, 
82, 1931192389, 82.61634826660156, 48.768455505371094, 83.03366088867188, -7.284435749053955, 5.99918270111084, 0.7574995756149292, 2.2154390811920166, 0.6063785552978516, 1.0300636291503906, 
83, 1931200722, 82.61717224121094, 48.7675666809082, 83.03278350830078, -7.395089149475098, 6.230775356292725, 0.9459999203681946, 2.3458285331726074, 0.361442506313324, 1.3078116178512573, 
84, 1931209055, 82.6152114868164, 48.764678955078125, 83.0282211303711, -7.471987247467041, 6.538691997528076, 0.7809388041496277, 2.226722478866577, 0.15025310218334198, 1.5205634832382202, 
85, 1931217388, 82.61297607421875, 48.764888763427734, 83.02598571777344, -7.274420738220215, 6.599027156829834, 0.8788113594055176, 2.1030056476593018, 0.26984596252441406, 1.1634242534637451, 
86, 1931225721, 82.61145782470703, 48.76750183105469, 83.02698516845703, -7.125246524810791, 6.3289361000061035, 0.7501114010810852, 1.953853964805603, 0.5240672826766968, 0.9027993679046631, 
87, 1931234054, 82.6108627319336, 48.7694206237793, 83.02696990966797, -7.228541374206543, 5.956457614898682, 0.9899039268493652, 2.1011743545532227, 0.4711354672908783, 0.9807562828063965, 
88, 1931242387, 82.61083984375, 48.769203186035156, 83.02979278564453, -7.360387802124023, 6.098534107208252, 0.6811871528625488, 2.1956138610839844, 0.4458285868167877, 1.2343372106552124, 
89, 1931250720, 82.61157989501953, 48.76677322387695, 83.03008270263672, -7.436061859130859, 6.483994960784912, 1.0310245752334595, 2.233919858932495, 0.4272966980934143, 1.5040680170059204, 
90, 1931259053, 82.61078643798828, 48.7646369934082, 83.02870178222656, -7.468111991882324, 6.650566101074219, 0.7823766469955444, 2.055785655975342, 0.450285404920578, 1.4687587022781372, 
91, 1931267386, 82.61007690429688, 48.76622772216797, 83.02787780761719, -7.107632637023926, 6.506657123565674, 0.7472107410430908, 2.1604199409484863, 0.4032320976257324, 1.0136194229125977, 
92, 1931275719, 82.60783386230469, 48.77027893066406, 83.0265884399414, -7.096153259277344, 6.143090724945068, 0.870197594165802, 1.9832078218460083, 0.4490687847137451, 0.7170448899269104, 
93, 1931284052, 82.6095199584961, 48.770694732666016, 83.02766418457031, -7.365753650665283, 5.915174961090088, 0.9303715825080872, 2.272059679031372, 0.5326480269432068, 1.1730551719665527, 
94, 1931292385, 82.61089324951172, 48.76849365234375, 83.02778625488281, -7.392118453979492, 6.323883533477783, 0.7609356045722961, 2.2969820499420166, 0.4568042457103729, 1.478223204612732, 
95, 1931300718, 82.61077880859375, 48.765594482421875, 83.02611541748047, -7.400062561035156, 6.621670246124268, 0.8469935655593872, 2.305140256881714, 0.2659910321235657, 1.5364570617675781, 
96, 1931309051, 82.61003112792969, 48.76599884033203, 83.0263900756836, -7.244642734527588, 6.5994486808776855, 0.8635178804397583, 2.1214094161987305, 0.4413973391056061, 1.158365249633789, 
97, 1931317384, 82.60753631591797, 48.768795013427734, 83.02361297607422, -7.149190902709961, 6.280767917633057, 0.8240498304367065, 2.1184380054473877, 0.26942333579063416, 0.8520447015762329, 
98, 1931325717, 82.60926055908203, 48.77041244506836, 83.02718353271484, -7.237750053405762, 5.9668354988098145, 0.8622558116912842, 2.1386735439300537, 0.6884722709655762, 1.0427428483963013, 
99, 1931334050, 82.61236572265625, 48.7686767578125, 83.02942657470703, -7.38353967666626, 6.158527851104736, 0.8888251781463623, 2.340590476989746, 0.5938276052474976, 1.4413257837295532, 
100, 1931342383, 82.61298370361328, 48.765625, 83.02932739257812, -7.475912570953369, 6.453965187072754, 0.785467803478241, 2.273212194442749, 0.3783222436904907, 1.5678473711013794, 
101, 1931350716, 82.61199188232422, 48.76416015625, 83.02840423583984, -7.294775009155273, 6.646125316619873, 0.8533563017845154, 2.1325643062591553, 0.3485584855079651, 1.3765859603881836, 
102, 1931359049, 82.61112976074219, 48.76579666137695, 83.03213500976562, -7.09641695022583, 6.4402852058410645, 0.7417381405830383, 2.0741512775421143, 0.4786916673183441, 1.014080286026001, 
103, 1931367382, 82.60870361328125, 48.76797866821289, 83.03069305419922, -7.258971214294434, 6.02382230758667, 1.0341906547546387, 2.0087578296661377, 0.36327385902404785, 0.9358032941818237, 
104, 1931375715, 82.6100082397461, 48.767093658447266, 83.03102111816406, -7.353923320770264, 6.065152168273926, 0.7290090322494507, 2.343677043914795, 0.45160457491874695, 1.31659734249115, 
105, 1931384048, 82.6099853515625, 48.76396560668945, 83.03040313720703, -7.402449607849121, 6.445112228393555, 0.8529243469238281, 2.221829652786255, 0.3447932004928589, 1.575019121170044, 
106, 1931392381, 82.60885620117188, 48.76163101196289, 83.02742767333984, -7.40304708480835, 6.61114501953125, 0.8784854412078857, 2.1536834239959717, 0.3253648281097412, 1.4762893915176392, 
107, 1931400714, 82.6069107055664, 48.764198303222656, 83.02645111083984, -7.096038818359375, 6.4763970375061035, 0.6569546461105347, 2.026252508163452, 0.40494823455810547, 0.894871711730957, 
108, 1931409047, 82.60626983642578, 48.7669792175293, 83.0302963256836, -7.137031555175781, 6.137018203735352, 1.0227102041244507, 1.9973341226577759, 0.5800983905792236, 0.8917211294174194, 
109, 1931417380, 82.60831451416016, 48.767616271972656, 83.03185272216797, -7.352817535400391, 5.976210594177246, 0.8110857009887695, 2.2755045890808105, 0.5739509463310242, 1.1490931510925293, 
110, 1931425713, 82.61060333251953, 48.764461517333984, 83.03356170654297, -7.404865264892578, 6.376213550567627, 0.839623212814331, 2.2844185829162598, 0.5474914908409119, 1.6043604612350464, 
111, 1931434046, 82.61023712158203, 48.762454986572266, 83.03231811523438, -7.472880840301514, 6.601283073425293, 1.032521367073059, 2.2357258796691895, 0.31283947825431824, 1.4363824129104614, 
112, 1931442379, 82.61064910888672, 48.763275146484375, 83.03559875488281, -7.228224277496338, 6.563530921936035, 0.6285794973373413, 2.2033238410949707, 0.49062785506248474, 1.1150773763656616, 
113, 1931450712, 82.60734558105469, 48.76626205444336, 83.0343017578125, -7.066375732421875, 6.28070068359375, 0.9697558283805847, 1.8909707069396973, 0.3869030475616455, 0.8433486819267273, 
114, 1931459045, 82.60891723632812, 48.76709747314453, 83.03849792480469, -7.2861762046813965, 5.929145336151123, 0.7617752552032471, 2.149367332458496, 0.6587213277816772, 1.1383990049362183, 
115, 1931467378, 82.60992431640625, 48.76502227783203, 83.0382080078125, -7.40195894241333, 6.184708595275879, 1.0636764764785767, 2.3148739337921143, 0.3879660367965698, 1.4537488222122192, 
116, 1931475711, 82.60981750488281, 48.76250457763672, 83.0364761352539, -7.430531978607178, 6.553742408752441, 0.6384481191635132, 2.2278366088867188, 0.37042027711868286, 1.5042858123779297, 
117, 1931484044, 82.60699462890625, 48.7619514465332, 83.03314971923828, -7.305692195892334, 6.646859645843506, 0.9056882262229919, 2.129234552383423, 0.17363888025283813, 1.2425209283828735, 
118, 1931492377, 82.60627746582031, 48.76375198364258, 83.03355407714844, -7.106958866119385, 6.421474933624268, 0.8415382504463196, 2.074061632156372, 0.49617332220077515, 0.9968035817146301, 
119, 1931500710, 82.6034927368164, 48.76579666137695, 83.03178405761719, -7.20258092880249, 6.04184627532959, 0.8786686062812805, 1.9941706657409668, 0.33598190546035767, 0.9489049315452576, 
120, 1931509043, 82.60626983642578, 48.76654815673828, 83.03643798828125, -7.36181116104126, 6.0636515617370605, 0.8214420080184937, 2.3021819591522217, 0.6497563123703003, 1.1454174518585205, 
121, 1931517376, 82.60589599609375, 48.76352310180664, 83.03463745117188, -7.445426940917969, 6.393537998199463, 0.7526594400405884, 2.287466526031494, 0.2542084753513336, 1.5525684356689453, 
122, 1931525709, 82.60652923583984, 48.76222610473633, 83.0360107421875, -7.395274639129639, 6.5934014320373535, 0.8999103903770447, 2.226581573486328, 0.46888139843940735, 1.3693755865097046, 
123, 1931534042, 82.60484313964844, 48.76327896118164, 83.03425598144531, -7.1110405921936035, 6.510197639465332, 0.6441311240196228, 2.1236891746520996, 0.32282906770706177, 1.067460536956787, 
124, 1931542375, 82.60620880126953, 48.76554489135742, 83.03582763671875, -7.185014247894287, 6.1247358322143555, 0.9177435040473938, 2.088648796081543, 0.6994350552558899, 0.9684870839118958, 
125, 1931550708, 82.60722351074219, 48.765926361083984, 83.03759002685547, -7.339226245880127, 6.000658988952637, 0.8965533971786499, 2.1329872608184814, 0.5854774117469788, 1.1817257404327393, 
126, 1931559041, 82.60946655273438, 48.763343811035156, 83.0390853881836, -7.39464807510376, 6.3958048820495605, 0.8810661435127258, 2.299325942993164, 0.5390387773513794, 1.5358166694641113, 
127, 1931567374, 82.60802459716797, 48.760738372802734, 83.03825378417969, -7.463090896606445, 6.591690540313721, 0.8310776948928833, 2.071333169937134, 0.33786454796791077, 1.5113292932510376, 
128, 1931575707, 82.60691833496094, 48.76188278198242, 83.03855895996094, -7.168223857879639, 6.571357250213623, 0.8010079264640808, 2.150712251663208, 0.39782750606536865, 1.0648990869522095, 
129, 1931584040, 82.60427856445312, 48.765350341796875, 83.03690338134766, -7.080961227416992, 6.252295970916748, 0.7800688147544861, 2.005389928817749, 0.3676411509513855, 0.7838980555534363, 
130, 1931592373, 82.6048583984375, 48.76655578613281, 83.0294189453125, -7.300441741943359, 5.903998374938965, 0.9468271136283875, 2.1723177433013916, 0.5517306327819824, 1.0751831531524658, 
131, 1931600706, 82.60841369628906, 48.76485061645508, 83.03089141845703, -7.385247707366943, 6.233461856842041, 0.8466979265213013, 2.4613614082336426, 0.5333524346351624, 1.428954005241394, 
132, 1931609039, 82.60932159423828, 48.76177215576172, 83.03136444091797, -7.459073066711426, 6.57658052444458, 0.8345752954483032, 2.23085880279541, 0.45515212416648865, 1.5830237865447998, 
133, 1931617372, 82.60743713378906, 48.761451721191406, 83.02957153320312, -7.358902454376221, 6.637538433074951, 0.9027631878852844, 2.1047346591949463, 0.2993920147418976, 1.230315923690796, 
134, 1931625705, 82.60548400878906, 48.76394271850586, 83.03050231933594, -7.088652610778809, 6.357951641082764, 0.6623187065124512, 2.0366902351379395, 0.4063698351383209, 0.9032604098320007, 
135, 1931634038, 82.60326385498047, 48.76634216308594, 83.0287094116211, -7.183309555053711, 5.970901966094971, 1.0770981311798096, 2.0647380352020264, 0.340976744890213, 0.9067696332931519, 
136, 1931642371, 82.60614013671875, 48.7659797668457, 83.03031158447266, -7.350196838378906, 6.032913684844971, 0.72446608543396, 2.3692784309387207, 0.5742583274841309, 1.270965576171875, 
137, 1931650704, 82.6054458618164, 48.762794494628906, 83.02818298339844, -7.421727657318115, 6.457522869110107, 1.0230069160461426, 2.2763755321502686, 0.22634020447731018, 1.568090796470642, 
138, 1931659037, 82.60250854492188, 48.76102066040039, 83.02757263183594, -7.357295036315918, 6.690550327301025, 0.5727889537811279, 2.138596534729004, 0.17114150524139404, 1.3898156881332397, 
139, 1931667370, 82.6021728515625, 48.76253890991211, 83.02782440185547, -7.130666732788086, 6.521355152130127, 0.9851346015930176, 2.1071937084198, 0.48509520292282104, 1.0315748453140259, 
140, 1931675703, 82.60176849365234, 48.76604080200195, 83.02970123291016, -7.206009864807129, 6.110220432281494, 0.8089686036109924, 1.9826440811157227, 0.6373078227043152, 0.8131750822067261, 
141, 1931684036, 82.60311889648438, 48.766273498535156, 83.030517578125, -7.304476737976074, 5.950095176696777, 0.9291379451751709, 2.255845785140991, 0.5102099776268005, 1.1890896558761597, 
142, 1931692369, 82.60396575927734, 48.763526916503906, 83.02983856201172, -7.373499393463135, 6.287670612335205, 0.7686814069747925, 2.2799999713897705, 0.4174351990222931, 1.5397229194641113, 
143, 1931700702, 82.60277557373047, 48.76129913330078, 83.02739715576172, -7.507645130157471, 6.5443243980407715, 0.9179590940475464, 2.243332862854004, 0.21709343791007996, 1.4494456052780151, 
144, 1931709035, 82.60411834716797, 48.76081085205078, 83.0270767211914, -7.160748481750488, 6.576077461242676, 0.6042956709861755, 2.272840738296509, 0.50235915184021, 1.2771129608154297, 
145, 1931717368, 82.6028823852539, 48.76292037963867, 83.02598571777344, -7.089123249053955, 6.304378986358643, 1.0742396116256714, 2.1231894493103027, 0.39112934470176697, 0.9498270153999329, 
146, 1931725701, 82.6042709350586, 48.764347076416016, 83.01979064941406, -7.311262130737305, 5.971287727355957, 0.7663419842720032, 2.153247594833374, 0.6504862904548645, 1.0663334131240845, 
147, 1931734034, 82.60572814941406, 48.76304244995117, 83.01995086669922, -7.412388801574707, 6.277907371520996, 0.9828956127166748, 2.330267906188965, 0.43537795543670654, 1.3649953603744507, 
148, 1931742367, 82.60700225830078, 48.75968933105469, 83.01929473876953, -7.444315433502197, 6.559067726135254, 0.8162899613380432, 2.2250447273254395, 0.5008223652839661, 1.6238528490066528, 
149, 1931750700, 82.60485076904297, 48.759403228759766, 83.01697540283203, -7.28178596496582, 6.598252296447754, 0.8670877814292908, 2.118950605392456, 0.2559758722782135, 1.220428705215454, 
150, 1931759033, 82.60523223876953, 48.76283645629883, 83.01814270019531, -7.061342239379883, 6.319636344909668, 0.6902919411659241, 2.0489981174468994, 0.6665464043617249, 0.8248168230056763, 
151, 1931767366, 82.60348510742188, 48.765052795410156, 83.01760864257812, -7.189342021942139, 5.979620456695557, 0.9857709407806396, 2.008603811264038, 0.4353266954421997, 0.9410029649734497, 
152, 1931775699, 82.60424041748047, 48.763309478759766, 83.0214614868164, -7.385560512542725, 6.126184940338135, 0.8321859836578369, 2.2713422775268555, 0.4159495532512665, 1.4162110090255737, 
153, 1931784032, 82.60428619384766, 48.75967025756836, 83.021240234375, -7.453535079956055, 6.527919769287109, 0.8636562824249268, 2.194896697998047, 0.3711887300014496, 1.6431148052215576, 
154, 1931792365, 82.60263061523438, 48.757965087890625, 83.01918029785156, -7.456962585449219, 6.689718246459961, 0.8552194833755493, 2.0671069622039795, 0.3584327697753906, 1.4029812812805176, 
155, 1931800698, 82.6019058227539, 48.759178161621094, 83.01882934570312, -7.131200313568115, 6.479281425476074, 0.8043134212493896, 2.112675189971924, 0.4327141046524048, 1.0612106323242188, 
156, 1931809031, 82.60121154785156, 48.76205062866211, 83.02117156982422, -7.108892440795898, 6.078432559967041, 0.8888366222381592, 1.9898289442062378, 0.5918297171592712, 0.8819877505302429, 
157, 1931817364, 82.60236358642578, 48.76228713989258, 83.02217864990234, -7.33034086227417, 5.915188789367676, 0.91378253698349, 2.2161433696746826, 0.5235037207603455, 1.190703272819519, 
158, 1931825697, 82.60401153564453, 48.759300231933594, 83.02461242675781, -7.438251495361328, 6.350300312042236, 0.8041045069694519, 2.3083035945892334, 0.4699700176715851, 1.574583888053894, 
159, 1931834030, 82.60240936279297, 48.755943298339844, 83.0221176147461, -7.406151294708252, 6.646460056304932, 0.7930599451065063, 2.2034006118774414, 0.1995733082294464, 1.5868916511535645, 
160, 1931842363, 82.60303497314453, 48.75682067871094, 83.01793670654297, -7.197342872619629, 6.610825061798096, 0.7771422863006592, 2.2326905727386475, 0.47962650656700134, 1.106919288635254, 
161, 1931850696, 82.60205841064453, 48.75962829589844, 83.0172119140625, -7.1740217208862305, 6.258145332336426, 0.9465040564537048, 2.1186556816101074, 0.431779146194458, 0.870858371257782, 
162, 1931859029, 82.6036376953125, 48.76066970825195, 83.02376556396484, -7.262429237365723, 5.937041282653809, 0.8069854974746704, 2.1494059562683105, 0.6513572335243225, 1.1086481809616089, 
163, 1931867362, 82.60527801513672, 48.7589225769043, 83.02409362792969, -7.3735785484313965, 6.204517364501953, 0.8244615793228149, 2.336338520050049, 0.44493210315704346, 1.423959493637085, 
164, 1931875695, 82.60546112060547, 48.75478744506836, 83.0353775024414, -7.484508514404297, 6.486690521240234, 0.8554545640945435, 2.2946128845214844, 0.30279871821403503, 1.6921662092208862, 
165, 1931884028, 82.60577392578125, 48.754486083984375, 83.03604888916016, -7.2539143562316895, 6.632577896118164, 0.7614997625350952, 2.1478559970855713, 0.49017956852912903, 1.2515883445739746, 
166, 1931892361, 82.603271484375, 48.756591796875, 83.05558013916016, -7.094729423522949, 6.398819446563721, 0.7670673727989197, 1.9771369695663452, 0.39937713742256165, 0.9502880573272705, 
167, 1931900694, 82.6019287109375, 48.759193420410156, 83.05482482910156, -7.259753227233887, 5.992356777191162, 0.9931783676147461, 2.0754318237304688, 0.4226989150047302, 0.8930018544197083, 
168, 1931909027, 82.60295104980469, 48.757965087890625, 83.05643463134766, -7.378613471984863, 6.0823869705200195, 0.7791906595230103, 2.2557051181793213, 0.47423475980758667, 1.362613320350647, 
169, 1931917360, 82.60342407226562, 48.754852294921875, 83.05642700195312, -7.412323474884033, 6.482936859130859, 0.889708936214447, 2.2266838550567627, 0.3932937979698181, 1.5804110765457153, 
170, 1931925693, 82.60065460205078, 48.75428009033203, 83.04804229736328, -7.4015607833862305, 6.619064807891846, 0.8285836577415466, 2.073612928390503, 0.250417560338974, 1.2555201053619385, 
171, 1931934026, 82.59935760498047, 48.75626754760742, 83.04634857177734, -7.122514247894287, 6.431119918823242, 0.7246270775794983, 2.1663496494293213, 0.34089985489845276, 0.9550524353981018, 
172, 1931942359, 82.59934997558594, 48.759239196777344, 83.04745483398438, -7.119027614593506, 6.078329086303711, 1.0075873136520386, 2.00465989112854, 0.6473870277404785, 0.8783506155014038, 
173, 1931950692, 82.60084533691406, 48.75929641723633, 83.04960632324219, -7.368366718292236, 5.976687908172607, 0.8395234942436218, 2.1557326316833496, 0.6130383014678955, 1.2255771160125732, 
174, 1931959025, 82.60185241699219, 48.755863189697266, 83.05008697509766, -7.450087070465088, 6.423950672149658, 0.9331696033477783, 2.307675838470459, 0.3942415118217468, 1.6182177066802979, 
175, 1931967358, 82.59961700439453, 48.752716064453125, 83.04779815673828, -7.433407783508301, 6.656651020050049, 0.7434142231941223, 2.106015205383301, 0.2149418443441391, 1.5613540410995483, 
176, 1931975691, 82.59800720214844, 48.75297927856445, 83.04496765136719, -7.191822052001953, 6.572322845458984, 0.8581934571266174, 2.1248927116394043, 0.33158910274505615, 1.1640260219573975, 
177, 1931984024, 82.59628295898438, 48.75615310668945, 83.04425048828125, -7.135014533996582, 6.187809944152832, 0.8648653030395508, 2.027456283569336, 0.4340972304344177, 0.8264816403388977, 
178, 1931992357, 82.59806060791016, 48.75627517700195, 83.04592895507812, -7.249062538146973, 5.8834147453308105, 0.8238478899002075, 2.266552686691284, 0.5672784447669983, 1.2110153436660767, 
179, 1932000690, 82.599853515625, 48.75420379638672, 83.0456314086914, -7.408178806304932, 6.251903533935547, 0.9407687187194824, 2.411452293395996, 0.3872872591018677, 1.4536335468292236, 
180, 1932009023, 82.5974349975586, 48.750389099121094, 83.04412841796875, -7.487323760986328, 6.5637946128845215, 0.7777462005615234, 2.122920513153076, 0.18633075058460236, 1.638965129852295, 
181, 1932017356, 82.59656524658203, 48.750606536865234, 83.04307556152344, -7.259327411651611, 6.691800594329834, 0.8519062399864197, 2.1597282886505127, 0.3635300099849701, 1.1732728481292725, 
182, 1932025689, 82.59558868408203, 48.75416564941406, 83.0453872680664, -7.093653678894043, 6.388156890869141, 0.8361634016036987, 2.049612522125244, 0.5172410607337952, 0.7906473875045776, 
183, 1932034022, 82.59554290771484, 48.75689697265625, 83.04706573486328, -7.248480319976807, 5.970456123352051, 0.9308988451957703, 2.01298451423645, 0.61506187915802, 0.9000202417373657, 
184, 1932042355, 82.5954360961914, 48.75619125366211, 83.04652404785156, -7.370016098022461, 6.0595903396606445, 0.7421894669532776, 2.2108287811279297, 0.403616338968277, 1.2919436693191528, 
185, 1932050688, 82.594970703125, 48.75309753417969, 83.04589080810547, -7.432912349700928, 6.436350345611572, 0.8494376540184021, 2.1720104217529297, 0.3473034203052521, 1.573175072669983, 
186, 1932059021, 82.59495544433594, 48.75143051147461, 83.04838562011719, -7.38618803024292, 6.609254837036133, 0.8624409437179565, 2.2595601081848145, 0.3541680574417114, 1.3999717235565186, 
187, 1932067354, 82.59475708007812, 48.752967834472656, 83.04869079589844, -7.09547233581543, 6.489470958709717, 0.7236136794090271, 2.117375373840332, 0.4891038239002228, 1.029820442199707, 
188, 1932075687, 82.59344482421875, 48.75612258911133, 83.04907989501953, -7.196577548980713, 6.119558811187744, 0.9795370101928711, 2.017287492752075, 0.5078662633895874, 0.8379055857658386, 
189, 1932084020, 82.5943603515625, 48.75645065307617, 83.05052185058594, -7.385497093200684, 6.004435062408447, 0.8775455355644226, 2.1478559970855713, 0.5606956481933594, 1.1846327781677246, 
190, 1932092353, 82.5937728881836, 48.753482818603516, 83.04999542236328, -7.381137847900391, 6.41657018661499, 0.8086292743682861, 2.2912445068359375, 0.2454099804162979, 1.544000506401062, 
191, 1932100686, 82.592529296875, 48.75087356567383, 83.04814910888672, -7.473394393920898, 6.623321533203125, 0.8963353633880615, 2.185854911804199, 0.258383572101593, 1.5048490762710571, 
192, 1932109019, 82.59140014648438, 48.75184631347656, 83.04742431640625, -7.177240371704102, 6.554815292358398, 0.7217501997947693, 2.093310594558716, 0.4191385507583618, 1.0866199731826782, 
193, 1932117352, 82.5904769897461, 48.75516891479492, 83.04806518554688, -7.069114685058594, 6.249405384063721, 0.8831520676612854, 2.0009710788726807, 0.5452630519866943, 0.8221784830093384, 
194, 1932125685, 82.59033203125, 48.756107330322266, 83.04774475097656, -7.287309646606445, 5.907614707946777, 0.785994827747345, 2.1188480854034424, 0.49631425738334656, 1.102270245552063, 
195, 1932134018, 82.59325408935547, 48.75469970703125, 83.04924011230469, -7.439242839813232, 6.220722198486328, 0.9473206400871277, 2.3863627910614014, 0.5392180681228638, 1.3939393758773804, 
196, 1932142351, 82.59266662597656, 48.751529693603516, 83.04843139648438, -7.472226142883301, 6.579009056091309, 0.7621801495552063, 2.2080368995666504, 0.317629337310791, 1.5770044326782227, 
197, 1932150684, 82.59103393554688, 48.75016784667969, 83.04646301269531, -7.332092761993408, 6.667124271392822, 0.9139318466186523, 2.150289297103882, 0.26836034655570984, 1.352329134941101, 
198, 1932159017, 82.58856964111328, 48.75214385986328, 83.04752349853516, -7.111593723297119, 6.351359844207764, 0.7236427664756775, 1.9791604280471802, 0.40365472435951233, 0.9658102989196777, 
199, 1932167350, 82.58805847167969, 48.75355529785156, 83.04874420166016, -7.158693313598633, 5.962008476257324, 0.9048812389373779, 1.997564435005188, 0.5619122385978699, 1.0543713569641113, 
200, 1932175683, 82.58976745605469, 48.75221252441406, 83.04859161376953, -7.338225841522217, 6.065741062164307, 0.9090152978897095, 2.2726101875305176, 0.5302018523216248, 1.3845133781433105, 
201, 1932184016, 82.59239196777344, 48.74848175048828, 83.05045318603516, -7.421665191650391, 6.443548202514648, 0.79388827085495, 2.3171534538269043, 0.5326608419418335, 1.6753630638122559, 
202, 1932192349, 82.59101867675781, 48.746578216552734, 83.04882049560547, -7.380676746368408, 6.710236072540283, 0.9187898635864258, 2.195127010345459, 0.2701148986816406, 1.415276050567627, 
203, 1932200682, 82.5902099609375, 48.748748779296875, 83.04788970947266, -7.104836940765381, 6.567372798919678, 0.7004259824752808, 2.1542983055114746, 0.40336018800735474, 0.9424630403518677, 
204, 1932209015, 82.58855438232422, 48.75165939331055, 83.04817199707031, -7.189786434173584, 6.13315486907959, 1.058431625366211, 1.9915194511413574, 0.4951359033584595, 0.8623928427696228, 
205, 1932217348, 82.5903549194336, 48.7523193359375, 83.05024719238281, -7.308812141418457, 5.907586574554443, 0.7151190042495728, 2.1993277072906494, 0.6177000403404236, 1.1553940773010254, 
206, 1932225681, 82.59060668945312, 48.750396728515625, 83.05146026611328, -7.35390567779541, 6.296594619750977, 0.9058389663696289, 2.3058321475982666, 0.3437814712524414, 1.429287075996399, 
207, 1932234014, 82.59097290039062, 48.74742126464844, 83.05084991455078, -7.483252048492432, 6.508038520812988, 0.804719865322113, 2.2671031951904297, 0.35062041878700256, 1.5578703880310059, 
208, 1932242347, 82.5914535522461, 48.746646881103516, 83.05290222167969, -7.204371452331543, 6.615554332733154, 0.7646048665046692, 2.229706048965454, 0.4442404806613922, 1.3033673763275146, 
209, 1932250680, 82.59004974365234, 48.74917984008789, 83.05322265625, -7.075313568115234, 6.357730388641357, 0.8476158380508423, 1.9722577333450317, 0.508429765701294, 0.914876401424408, 
210, 1932259013, 82.590576171875, 48.75108337402344, 83.05497741699219, -7.2962965965271, 5.963329792022705, 0.8871190547943115, 2.148406744003296, 0.5642175674438477, 0.9950745701789856, 
211, 1932267346, 82.5929946899414, 48.74961471557617, 83.05622863769531, -7.401958465576172, 6.189149856567383, 0.9034183025360107, 2.3493759632110596, 0.519751250743866, 1.3986268043518066, 
212, 1932275679, 82.59173583984375, 48.7470588684082, 83.05628204345703, -7.400703430175781, 6.516375541687012, 0.7666833400726318, 2.265002489089966, 0.20377404987812042, 1.4877899885177612, 
213, 1932284012, 82.59077453613281, 48.74624252319336, 83.05492401123047, -7.321437835693359, 6.605968475341797, 0.8914924263954163, 2.17525053024292, 0.323290079832077, 1.2936854362487793, 
214, 1932292345, 82.58985900878906, 48.74818801879883, 83.05494689941406, -7.104386329650879, 6.398859024047852, 0.7159345746040344, 2.0829110145568848, 0.46470627188682556, 0.9749161601066589, 
215, 1932300678, 82.5887222290039, 48.750709533691406, 83.0545883178711, -7.159689903259277, 6.035898208618164, 0.9260262846946716, 2.0628550052642822, 0.45358967781066895, 0.9056296348571777, 
216, 1932309011, 82.58906555175781, 48.75112533569336, 83.05316162109375, -7.382061004638672, 6.068631649017334, 0.8856854438781738, 2.232229232788086, 0.45350003242492676, 1.1609139442443848, 
217, 1932317344, 82.587890625, 48.7479362487793, 83.05103302001953, -7.419820785522461, 6.437898635864258, 0.871288537979126, 2.2200369834899902, 0.22658349573612213, 1.5707671642303467, 
218, 1932325677, 82.58692932128906, 48.74627685546875, 83.05549621582031, -7.426548004150391, 6.662170886993408, 0.8875892162322998, 2.1525943279266357, 0.3557817041873932, 1.3978455066680908, 
219, 1932334010, 82.5850830078125, 48.74760055541992, 83.05388641357422, -7.164754867553711, 6.521543979644775, 0.799092173576355, 2.0941686630249023, 0.3385433256626129, 1.0369410514831543, 
220, 1932342343, 82.58245849609375, 48.750640869140625, 83.05262756347656, -7.1162428855896, 6.160728454589844, 0.8318092823028564, 1.9529060125350952, 0.42166152596473694, 0.8405823111534119, 
221, 1932350676, 82.5832748413086, 48.7507209777832, 83.05390930175781, -7.298967361450195, 5.92299222946167, 0.8418911695480347, 2.153132438659668, 0.5453013777732849, 1.2122448682785034, 
222, 1932359009, 82.58551788330078, 48.74748229980469, 83.04991912841797, -7.416244029998779, 6.294522285461426, 0.9008176326751709, 2.434645891189575, 0.41488656401634216, 1.599416971206665, 
223, 1932367342, 82.58499908447266, 48.74430847167969, 83.04882049560547, -7.4386210441589355, 6.587435245513916, 0.8317657113075256, 2.205014228820801, 0.30797278881073, 1.5785925388336182, 
224, 1932375675, 82.5843276977539, 48.744354248046875, 83.04823303222656, -7.243119239807129, 6.652552604675293, 0.8200526237487793, 2.209624767303467, 0.3532843291759491, 1.1905368566513062, 
225, 1932384008, 82.58308410644531, 48.74683380126953, 83.0482177734375, -7.153881072998047, 6.340733051300049, 0.8688594102859497, 2.0229740142822266, 0.4819958508014679, 0.9173097610473633, 
226, 1932392341, 82.58377075195312, 48.748416900634766, 83.05821228027344, -7.241629600524902, 5.976840496063232, 0.8913108706474304, 2.066671848297119, 0.639958918094635, 1.0427939891815186, 
227, 1932400674, 82.58556365966797, 48.74734115600586, 83.05923461914062, -7.354442596435547, 6.147226810455322, 0.8268527984619141, 2.2939982414245605, 0.5067392587661743, 1.3482693433761597, 
228, 1932409007, 82.58580017089844, 48.743892669677734, 83.05827331542969, -7.4729413986206055, 6.459474086761475, 0.8104566931724548, 2.3000688552856445, 0.31798791885375977, 1.613684058189392, 
229, 1932417340, 82.58621215820312, 48.741363525390625, 83.05807495117188, -7.331339359283447, 6.6216020584106445, 0.8559373617172241, 2.237480401992798, 0.3893876075744629, 1.5105741024017334, 
230, 1932425673, 82.58670806884766, 48.743377685546875, 83.06224822998047, -7.0559844970703125, 6.473560810089111, 0.7084099054336548, 2.1669514179229736, 0.5431625843048096, 0.9780410528182983, 
231, 1932434006, 82.58627319335938, 48.74550247192383, 83.063232421875, -7.222503662109375, 6.087974548339844, 1.0014005899429321, 2.029735803604126, 0.556456446647644, 0.9710996747016907, 
232, 1932442339, 82.58934020996094, 48.74485397338867, 83.06005859375, -7.376656532287598, 6.030130863189697, 0.8245428204536438, 2.3413589000701904, 0.619877278804779, 1.3110774755477905, 
233, 1932450672, 82.59004974365234, 48.74203872680664, 83.06022644042969, -7.3815789222717285, 6.43177604675293, 0.8441371321678162, 2.239990472793579, 0.41208183765411377, 1.5488158464431763, 
234, 1932459005, 82.58828735351562, 48.73971939086914, 83.05998992919922, -7.40694522857666, 6.61483097076416, 0.8968263268470764, 2.0529556274414062, 0.3408229947090149, 1.4783767461776733, 
235, 1932467338, 82.586669921875, 48.74120330810547, 83.05819702148438, -7.157862663269043, 6.505638599395752, 0.6843693256378174, 2.1358044147491455, 0.324955016374588, 1.0161552429199219, 
236, 1932475671, 82.58567810058594, 48.74374008178711, 83.0582504272461, -7.116272449493408, 6.1838765144348145, 0.9930025339126587, 2.1140708923339844, 0.4438178241252899, 0.9016723036766052, 
237, 1932484004, 82.58840942382812, 48.74460220336914, 83.06121826171875, -7.316887378692627, 5.956359386444092, 0.8112635612487793, 2.230769157409668, 0.6882033348083496, 1.1375794410705566, 
238, 1932492337, 82.58833312988281, 48.74213790893555, 83.06169891357422, -7.419094085693359, 6.31538724899292, 0.9872193932533264, 2.2908732891082764, 0.317782998085022, 1.4924007654190063, 
239, 1932500670, 82.58670806884766, 48.738948822021484, 83.05912017822266, -7.457149028778076, 6.624168872833252, 0.7557478547096252, 2.20662784576416, 0.19091570377349854, 1.5640180110931396, 
240, 1932509003, 82.5857162475586, 48.73880386352539, 83.05941009521484, -7.245565414428711, 6.592591285705566, 0.8585603833198547, 2.1435656547546387, 0.3808195888996124, 1.2204285860061646, 
241, 1932517336, 82.58386993408203, 48.74187088012695, 83.05901336669922, -7.10630464553833, 6.318811893463135, 0.8485304713249207, 1.9814274311065674, 0.45779040455818176, 0.8415172696113586, 
242, 1932525669, 82.58413696289062, 48.74363708496094, 83.05687713623047, -7.200134754180908, 5.943655490875244, 0.8684005737304688, 2.114851951599121, 0.5543304085731506, 1.0084452629089355, 
243, 1932534002, 82.58556365966797, 48.74241256713867, 83.05732727050781, -7.368409633636475, 6.131717681884766, 0.8887680768966675, 2.3009140491485596, 0.460787296295166, 1.363048791885376, 
244, 1932542335, 82.58665466308594, 48.7394905090332, 83.05796813964844, -7.482556343078613, 6.512340068817139, 0.8418018817901611, 2.3245813846588135, 0.3786936402320862, 1.5553603172302246, 
245, 1932550668, 82.58573150634766, 48.73775863647461, 83.05577087402344, -7.3583245277404785, 6.6967644691467285, 0.8330962061882019, 2.25752329826355, 0.24296380579471588, 1.3951945304870605, 
246, 1932559001, 82.58557891845703, 48.74008560180664, 83.05807495117188, -7.08534574508667, 6.490684986114502, 0.8324062824249268, 2.0585010051727295, 0.5731313228607178, 0.9457160234451294, 
247, 1932567334, 82.58521270751953, 48.74262237548828, 83.05888366699219, -7.210247039794922, 6.067237854003906, 0.8514195680618286, 2.0509188175201416, 0.5473889708518982, 0.9171817302703857, 
248, 1932575667, 82.58631896972656, 48.74337387084961, 83.05567169189453, -7.350181579589844, 6.000820159912109, 0.8472616076469421, 2.174072265625, 0.5788945555686951, 1.1375410556793213, 
249, 1932584000, 82.58707427978516, 48.739723205566406, 83.0552749633789, -7.423277378082275, 6.362528324127197, 0.7450680136680603, 2.2958168983459473, 0.3557176887989044, 1.642013430595398, 
250, 1932592333, 82.58736419677734, 48.73626708984375, 83.05646514892578, -7.436962604522705, 6.577375888824463, 0.9248946309089661, 2.302527666091919, 0.32118967175483704, 1.6119422912597656, 
251, 1932600666, 82.5857162475586, 48.73617172241211, 83.05476379394531, -7.174459457397461, 6.564722061157227, 0.6136166453361511, 2.1261353492736816, 0.30670487880706787, 1.2049448490142822, 
252, 1932608999, 82.58434295654297, 48.738487243652344, 83.05567169189453, -7.117183685302734, 6.237493515014648, 1.0154963731765747, 1.9501910209655762, 0.541305661201477, 0.9439871311187744, 
253, 1932617332, 82.58529663085938, 48.7397575378418, 83.0573959350586, -7.314915180206299, 5.956198692321777, 0.7429760694503784, 2.1275951862335205, 0.5973239541053772, 1.0771554708480835, 
254, 1932625665, 82.5869369506836, 48.738162994384766, 83.05935668945312, -7.399696350097656, 6.306416034698486, 1.0584464073181152, 2.2642855644226074, 0.5174972414970398, 1.4129453897476196, 
255, 1932633998, 82.5849838256836, 48.735252380371094, 83.05743408203125, -7.441153526306152, 6.565716743469238, 0.6556740999221802, 2.10762882232666, 0.24742072820663452, 1.5377378463745117, 
256, 1932642331, 82.58338928222656, 48.73442459106445, 83.05348205566406, -7.282609462738037, 6.587784767150879, 0.884219229221344, 2.173508882522583, 0.2823329269886017, 1.2887163162231445, 
257, 1932650664, 82.58273315429688, 48.736602783203125, 83.05404663085938, -7.0805277824401855, 6.324609756469727, 0.7141498327255249, 2.0397255420684814, 0.5218515992164612, 0.9602392315864563, 
258, 1932658997, 82.58229064941406, 48.737640380859375, 83.05481719970703, -7.228009223937988, 5.944823741912842, 0.9647454023361206, 2.0186192989349365, 0.5578140020370483, 1.0991195440292358, 
259, 1932667330, 82.58321380615234, 48.7361946105957, 83.05429077148438, -7.406618118286133, 6.104346752166748, 0.8407609462738037, 2.327347755432129, 0.37971824407577515, 1.3759328126907349, 
260, 1932675663, 82.583984375, 48.73241424560547, 83.05303192138672, -7.4495368003845215, 6.503664493560791, 0.8822399377822876, 2.342332363128662, 0.33399683237075806, 1.6544363498687744, 
261, 1932683996, 82.58248138427734, 48.73123550415039, 83.0517807006836, -7.394946098327637, 6.642009258270264, 0.8659328818321228, 2.1035306453704834, 0.3267223834991455, 1.3360258340835571, 
262, 1932692329, 82.58049774169922, 48.7320671081543, 83.05040740966797, -7.131385326385498, 6.485132217407227, 0.8172451853752136, 2.092158079147339, 0.33066698908805847, 1.0965327024459839, 
263, 1932700662, 82.57920837402344, 48.73486328125, 83.0517807006836, -7.116901874542236, 6.089649677276611, 0.856747031211853, 1.8910349607467651, 0.5950314998626709, 0.8933092951774597, 
264, 1932708995, 82.58023071289062, 48.73577880859375, 83.05374145507812, -7.332998752593994, 5.975281238555908, 0.8794431686401367, 2.1574227809906006, 0.5948521494865417, 1.1200464963912964, 
265, 1932717328, 82.58010864257812, 48.73373031616211, 83.0523910522461, -7.4258222579956055, 6.352609634399414, 0.8635952472686768, 2.275709390640259, 0.3054625391960144, 1.439993977546692, 
266, 1932725661, 82.57843017578125, 48.73007583618164, 83.04933166503906, -7.399898052215576, 6.630252838134766, 0.8949615955352783, 2.202043056488037, 0.19724242389202118, 1.623058795928955, 
267, 1932733994, 82.57598876953125, 48.73053741455078, 83.04754638671875, -7.168699264526367, 6.600485324859619, 0.7439870834350586, 2.036984920501709, 0.30981695652008057, 1.1354660987854004, 
268, 1932742327, 82.57304382324219, 48.73311996459961, 83.0455551147461, -7.161240577697754, 6.22498083114624, 0.9742430448532104, 1.9892399311065674, 0.3526952266693115, 0.8882632255554199, 
269, 1932750660, 82.57453918457031, 48.73487091064453, 83.0480728149414, -7.271111488342285, 5.968948841094971, 0.7819397449493408, 2.120999574661255, 0.6681857705116272, 1.0273486375808716, 
270, 1932758993, 82.57591247558594, 48.73310470581055, 83.04765319824219, -7.350282192230225, 6.223285675048828, 0.9041773080825806, 2.3431005477905273, 0.4272582232952118, 1.4232677221298218, 
271, 1932767326, 82.57493591308594, 48.73019027709961, 83.04598999023438, -7.4839863777160645, 6.47634220123291, 0.7871721982955933, 2.202299118041992, 0.267374187707901, 1.540427327156067, 
272, 1932775659, 82.5745849609375, 48.72938919067383, 83.04295349121094, -7.297451019287109, 6.6159210205078125, 0.9206308126449585, 2.218231201171875, 0.36831986904144287, 1.2972968816757202, 
273, 1932783992, 82.5736312866211, 48.731475830078125, 83.04302215576172, -7.028987407684326, 6.44976282119751, 0.7620672583580017, 2.048229455947876, 0.4817653298377991, 0.9639532566070557, 
274, 1932792325, 82.57383728027344, 48.73375701904297, 83.0520248413086, -7.2678704261779785, 6.0285515785217285, 0.8876558542251587, 2.030862808227539, 0.6407272219657898, 0.9571399092674255, 
275, 1932800658, 82.57455444335938, 48.73356246948242, 83.0518798828125, -7.432399749755859, 6.085301399230957, 0.8563230633735657, 2.2680506706237793, 0.4259263277053833, 1.2304182052612305, 
276, 1932808991, 82.5756607055664, 48.73126220703125, 83.05364227294922, -7.360199928283691, 6.473855495452881, 0.8732591867446899, 2.28324031829834, 0.44313910603523254, 1.4914528131484985, 
277, 1932817324, 82.5768051147461, 48.72966384887695, 83.05464172363281, -7.364400386810303, 6.613776206970215, 0.8808234333992004, 2.214747667312622, 0.49680089950561523, 1.4103838205337524, 
278, 1932825657, 82.57717895507812, 48.73191833496094, 83.05280303955078, -7.1774139404296875, 6.457049369812012, 0.69520503282547, 2.2381844520568848, 0.47569477558135986, 0.9421555399894714, 
279, 1932833990, 82.5756607055664, 48.735198974609375, 83.05321502685547, -7.117125034332275, 6.124729156494141, 0.9934962391853333, 1.951125979423523, 0.5263596773147583, 0.825764536857605, 
280, 1932842323, 82.57765197753906, 48.73599624633789, 83.05512237548828, -7.321589469909668, 5.9928741455078125, 0.8026209473609924, 2.1834468841552734, 0.6714131236076355, 1.1445592641830444, 
281, 1932850656, 82.58061218261719, 48.73308563232422, 83.05769348144531, -7.445610046386719, 6.34665060043335, 0.9579290151596069, 2.2925124168395996, 0.6001287698745728, 1.5830237865447998, 
282, 1932858989, 82.58126068115234, 48.73081970214844, 83.05912780761719, -7.470256328582764, 6.596675395965576, 0.8186306357383728, 2.2337019443511963, 0.43834924697875977, 1.4845882654190063, 
283, 1932867322, 82.58255767822266, 48.73150634765625, 83.0612564086914, -7.222944259643555, 6.619467258453369, 0.9030794501304626, 2.1329102516174316, 0.6191601157188416, 1.1483502388000488, 
284, 1932875655, 82.58191680908203, 48.73427200317383, 83.05994415283203, -7.087706089019775, 6.273046016693115, 0.7799457907676697, 2.098484516143799, 0.4994904100894928, 0.8854200839996338, 
285, 1932883988, 82.58300018310547, 48.73605728149414, 83.06182098388672, -7.251534461975098, 5.960021495819092, 0.8321154713630676, 2.128248453140259, 0.6174184083938599, 1.0156941413879395, 
286, 1932892321, 82.58641052246094, 48.73501968383789, 83.06521606445312, -7.391261100769043, 6.168110370635986, 0.8846220970153809, 2.4118237495422363, 0.5904977917671204, 1.3543142080307007, 
287, 1932900654, 82.58642578125, 48.73218536376953, 83.06478881835938, -7.436669826507568, 6.542760848999023, 0.8695566058158875, 2.210136890411377, 0.36673182249069214, 1.543859601020813, 
288, 1932908987, 82.58601379394531, 48.7315559387207, 83.06446075439453, -7.270681381225586, 6.670971870422363, 0.7957069277763367, 2.2692291736602783, 0.31696340441703796, 1.271247386932373, 
289, 1932917320, 82.585205078125, 48.73460388183594, 83.06459045410156, -7.126115798950195, 6.451170444488525, 0.8198661208152771, 2.062061071395874, 0.5021286010742188, 0.8510201573371887, 
290, 1932925653, 82.5853042602539, 48.7365837097168, 83.06546783447266, -7.209720134735107, 6.0396928787231445, 0.8692593574523926, 2.085587978363037, 0.5733746886253357, 0.986890971660614, 
291, 1932933986, 82.58671569824219, 48.73611068725586, 83.06622314453125, -7.309258460998535, 6.0630669593811035, 0.884201169013977, 2.2719826698303223, 0.49532803893089294, 1.275870680809021, 
292, 1932942319, 82.58883666992188, 48.73394775390625, 83.06793975830078, -7.421082496643066, 6.380071640014648, 0.7818093299865723, 2.2600207328796387, 0.5622324347496033, 1.4874186515808105, 
293, 1932950652, 82.58898162841797, 48.73202896118164, 83.06768798828125, -7.441830635070801, 6.565217018127441, 0.895581841468811, 2.2111105918884277, 0.39183372259140015, 1.4359211921691895, 
294, 1932958985, 82.58800506591797, 48.732826232910156, 83.06698608398438, -7.110874652862549, 6.556065082550049, 0.6824758052825928, 2.1386735439300537, 0.39372920989990234, 1.1092371940612793, 
295, 1932967318, 82.58679962158203, 48.73591232299805, 83.06722259521484, -7.115090847015381, 6.21565055847168, 0.9202296733856201, 2.003558397293091, 0.5100435018539429, 0.8452057838439941, 
296, 1932975651, 82.58860778808594, 48.737274169921875, 83.0741195678711, -7.368653774261475, 5.971810817718506, 0.8757785558700562, 2.1367008686065674, 0.7026112675666809, 1.0791916847229004, 
297, 1932983984, 82.58973693847656, 48.73556900024414, 83.07469177246094, -7.405708312988281, 6.327327251434326, 0.8853461742401123, 2.252836227416992, 0.4594297409057617, 1.419067144393921, 
298, 1932992317, 82.58931732177734, 48.73284912109375, 83.07286834716797, -7.406596660614014, 6.5702409744262695, 0.8324630260467529, 2.2137486934661865, 0.33458590507507324, 1.5255197286605835, 
299, 1933000650, 82.59001922607422, 48.7320442199707, 83.07356262207031, -7.250631809234619, 6.563541889190674, 0.8207695484161377, 2.1906447410583496, 0.48491591215133667, 1.3134596347808838, 
300, 1933008983, 82.58930969238281, 48.73480987548828, 83.07261657714844, -7.09401273727417, 6.304040431976318, 0.8307029008865356, 2.056349277496338, 0.5287930369377136, 0.8855482339859009, 
301, 1933017316, 82.59025573730469, 48.73674774169922, 83.07425689697266, -7.24774694442749, 5.98632287979126, 0.8288782238960266, 2.1347286701202393, 0.602433979511261, 0.9979433417320251, 
302, 1933025649, 82.59100341796875, 48.73514938354492, 83.07406616210938, -7.397285461425781, 6.180543422698975, 0.9600798487663269, 2.1693079471588135, 0.5156529545783997, 1.4152761697769165, 
303, 1933033982, 82.59333038330078, 48.73121643066406, 83.07550811767578, -7.456589221954346, 6.5291643142700195, 0.7823400497436523, 2.319868326187134, 0.49462369084358215, 1.691346287727356, 
304, 1933042315, 82.59210205078125, 48.729801177978516, 83.07368469238281, -7.347344398498535, 6.670055866241455, 0.9425162672996521, 2.1430535316467285, 0.33473965525627136, 1.3685812950134277, 
305, 1933050648, 82.59227752685547, 48.73176574707031, 83.07418823242188, -7.160008907318115, 6.408114433288574, 0.7301543951034546, 2.145871162414551, 0.5116315484046936, 0.9823955297470093, 
306, 1933058981, 82.59097290039062, 48.733795166015625, 83.07147979736328, -7.190732955932617, 6.042763710021973, 0.9702519774436951, 2.048959493637085, 0.4645141363143921, 0.967552125453949, 
307, 1933067314, 82.59371185302734, 48.73319625854492, 83.07427215576172, -7.322180271148682, 6.0590972900390625, 0.8363561630249023, 2.2462403774261475, 0.6542131900787354, 1.3107316493988037, 
308, 1933075647, 82.59403991699219, 48.73030090332031, 83.07341003417969, -7.456338405609131, 6.407608985900879, 0.8643327355384827, 2.2034263610839844, 0.4147329032421112, 1.5570765733718872, 
309, 1933083980, 82.59317016601562, 48.72868728637695, 83.07270812988281, -7.426684856414795, 6.6389265060424805, 0.8394728302955627, 2.1297595500946045, 0.36232617497444153, 1.3949896097183228, 
310, 1933092313, 82.59186553955078, 48.73020935058594, 83.07046508789062, -7.095735549926758, 6.596529483795166, 0.7485784292221069, 2.1410555839538574, 0.38502037525177, 1.0186654329299927, 
311, 1933100646, 82.59162139892578, 48.73381042480469, 83.07144165039062, -7.164242267608643, 6.215583324432373, 0.9673922657966614, 2.05171275138855, 0.5749755501747131, 0.7904680967330933, 
312, 1933108979, 82.59272766113281, 48.73512268066406, 83.07263946533203, -7.355447292327881, 5.940455913543701, 0.7888553738594055, 2.1835498809814453, 0.5925981402397156, 1.0725321769714355, 
313, 1933117312, 82.59461212158203, 48.733333587646484, 83.07355499267578, -7.366452693939209, 6.28207540512085, 0.8404954075813293, 2.3133623600006104, 0.4873236417770386, 1.4319254159927368, 
314, 1933125645, 82.5941390991211, 48.73074722290039, 83.07528686523438, -7.449597358703613, 6.511225700378418, 0.8140132427215576, 2.20611572265625, 0.3400930166244507, 1.5111502408981323, 
315, 1933133978, 82.59518432617188, 48.730201721191406, 83.07632446289062, -7.232410430908203, 6.574670314788818, 0.8044930696487427, 2.1999170780181885, 0.5161653161048889, 1.2864364385604858, 
316, 1933142311, 82.59387969970703, 48.73298263549805, 83.07498168945312, -7.071549415588379, 6.330801963806152, 0.8309626579284668, 2.0365238189697266, 0.4905766248703003, 0.8786322474479675, 
317, 1933150644, 82.59489440917969, 48.73391342163086, 83.07671356201172, -7.2563066482543945, 5.986666202545166, 0.8848586082458496, 2.1361632347106934, 0.5916503667831421, 1.1181509494781494, 
318, 1933158977, 82.59625244140625, 48.732421875, 83.07909393310547, -7.386810302734375, 6.211827278137207, 0.9032232761383057, 2.3320863246917725, 0.4382467269897461, 1.390276551246643, 
319, 1933167310, 82.59664154052734, 48.729984283447266, 83.07933044433594, -7.42854118347168, 6.538963794708252, 0.73395836353302, 2.1938974857330322, 0.4245431125164032, 1.5025438070297241, 
320, 1933175643, 82.59609985351562, 48.728797912597656, 83.07933807373047, -7.316911220550537, 6.605747699737549, 0.9169684648513794, 2.1166322231292725, 0.4229934513568878, 1.3550955057144165, 
321, 1933183976, 82.59642791748047, 48.73048782348633, 83.08010864257812, -7.059930324554443, 6.400045871734619, 0.7132547497749329, 2.137892246246338, 0.5276532769203186, 1.0141444206237793, 
322, 1933192309, 82.59628295898438, 48.732486724853516, 83.08255004882812, -7.159962177276611, 6.023618698120117, 0.965225338935852, 2.1247010231018066, 0.5288314819335938, 0.980538547039032, 
323, 1933200642, 82.59795379638672, 48.73162078857422, 83.08345031738281, -7.408443450927734, 6.039783954620361, 0.8162060379981995, 2.290898561477661, 0.5015138983726501, 1.3235259056091309, 
324, 1933208975, 82.5984878540039, 48.72749328613281, 83.08472442626953, -7.436614513397217, 6.4542951583862305, 0.8614505529403687, 2.3459949493408203, 0.2993920147418976, 1.692908763885498, 
325, 1933217308, 82.59774780273438, 48.7252197265625, 83.08319854736328, -7.4016313552856445, 6.662533283233643, 0.8677860498428345, 2.2172322273254395, 0.28878772258758545, 1.464890956878662, 
326, 1933225641, 82.59732818603516, 48.72675323486328, 83.08462524414062, -7.163998126983643, 6.521413326263428, 0.7615576982498169, 2.1581785678863525, 0.4552418291568756, 1.0264649391174316, 
327, 1933233974, 82.59619140625, 48.72916030883789, 83.0853271484375, -7.1305832862854, 6.12928581237793, 0.9575886726379395, 1.9713869094848633, 0.53532475233078, 0.930680513381958, 
328, 1933242307, 82.59690856933594, 48.73079299926758, 83.08401489257812, -7.266732215881348, 5.931179523468018, 0.7727053165435791, 2.1964335441589355, 0.5317643284797668, 1.023634433746338, 
329, 1933250640, 82.59793090820312, 48.72878646850586, 83.08358001708984, -7.415379047393799, 6.301910877227783, 0.9645843505859375, 2.333200693130493, 0.3783990740776062, 1.4447451829910278, 
330, 1933258973, 82.5969009399414, 48.72611999511719, 83.08075714111328, -7.45963716506958, 6.617478370666504, 0.7706447839736938, 2.2495315074920654, 0.24311751127243042, 1.5094085931777954, 
331, 1933267306, 82.59664154052734, 48.726715087890625, 83.08012390136719, -7.195818901062012, 6.653018951416016, 0.8406358361244202, 2.1940770149230957, 0.40379559993743896, 1.131982684135437, 
332, 1933275639, 82.59513854980469, 48.72941970825195, 83.07920837402344, -7.118561744689941, 6.31467342376709, 0.886101484298706, 2.100175142288208, 0.40745845437049866, 0.8812962174415588, 
333, 1933283972, 82.59671020507812, 48.731807708740234, 83.08123016357422, -7.280487537384033, 5.919299602508545, 0.8984874486923218, 2.1750967502593994, 0.6364497542381287, 0.9453830122947693, 
334, 1933292305, 82.59723663330078, 48.73032760620117, 83.08253479003906, -7.340115070343018, 6.139052867889404, 0.7761011719703674, 2.2469193935394287, 0.4272838830947876, 1.3878434896469116, 
335, 1933300638, 82.59858703613281, 48.72757339477539, 83.08296966552734, -7.4468584060668945, 6.46671724319458, 0.8523166179656982, 2.2918848991394043, 0.4345967471599579, 1.5429247617721558, 
336, 1933308971, 82.59864807128906, 48.726505279541016, 83.08216857910156, -7.367169380187988, 6.604631423950195, 0.879352331161499, 2.2562170028686523, 0.37574800848960876, 1.331287145614624, 
337, 1933317304, 82.59915161132812, 48.72802734375, 83.08296203613281, -7.027374267578125, 6.478461742401123, 0.7762502431869507, 2.1575255393981934, 0.5274099111557007, 1.036057472229004, 
338, 1933325637, 82.59864044189453, 48.730125427246094, 83.0846939086914, -7.194622039794922, 6.091421604156494, 0.896204948425293, 2.0204124450683594, 0.57233726978302, 0.976427435874939, 
339, 1933333970, 82.60133361816406, 48.72989273071289, 83.08622741699219, -7.426815509796143, 6.033976078033447, 0.9082699418067932, 2.353064775466919, 0.5581982135772705, 1.252241611480713, 
340, 1933342303, 82.60238647460938, 48.7266960144043, 83.08690643310547, -7.401987075805664, 6.465859413146973, 0.7938346266746521, 2.299044370651245, 0.41048091650009155, 1.5941147804260254, 
341, 1933350636, 82.60094451904297, 48.72428894042969, 83.08464813232422, -7.383059024810791, 6.636438369750977, 0.8927242159843445, 2.1987900733947754, 0.22715984284877777, 1.4732413291931152, 
342, 1933358969, 82.59947204589844, 48.726505279541016, 83.08307647705078, -7.19642972946167, 6.435313701629639, 0.6587491631507874, 2.1074752807617188, 0.4008500277996063, 0.9384416341781616, 
343, 1933367302, 82.59854888916016, 48.72964859008789, 83.08380126953125, -7.101869106292725, 6.140554904937744, 0.9835201501846313, 1.9927617311477661, 0.5474274158477783, 0.843707263469696, 
344, 1933375635, 82.59891510009766, 48.730125427246094, 83.08210754394531, -7.2743239402771, 5.986336708068848, 0.7342132329940796, 2.2145297527313232, 0.4693296253681183, 1.159530758857727, 
345, 1933383968, 82.60027313232422, 48.72664260864258, 83.08219909667969, -7.4628825187683105, 6.3285346031188965, 0.9964102506637573, 2.3256959915161133, 0.39573997259140015, 1.6263759136199951, 
346, 1933392301, 82.59891510009766, 48.723262786865234, 83.08123016357422, -7.515822410583496, 6.64178466796875, 0.7732105851173401, 2.2312562465667725, 0.21249571442604065, 1.58877432346344, 
347, 1933400634, 82.59856414794922, 48.723514556884766, 83.080078125, -7.237354278564453, 6.625690937042236, 0.8427067995071411, 2.22983455657959, 0.35774123668670654, 1.1695332527160645, 
348, 1933408967, 82.59695434570312, 48.727012634277344, 83.08013153076172, -7.103001594543457, 6.278655529022217, 0.8050265908241272, 1.9925695657730103, 0.49472612142562866, 0.7912108898162842, 
349, 1933417300, 82.59822082519531, 48.72881317138672, 83.08218383789062, -7.208885669708252, 5.908198356628418, 0.8835342526435852, 2.1387503147125244, 0.6329150199890137, 1.018691062927246, 
350, 1933425633, 82.6009750366211, 48.72721862792969, 83.08718872070312, -7.3528618812561035, 6.140949726104736, 0.8076373934745789, 2.30047869682312, 0.6150105595588684, 1.4277247190475464, 
351, 1933433966, 82.60106658935547, 48.72370147705078, 83.0868148803711, -7.4857378005981445, 6.519809722900391, 0.8113973736763, 2.2157211303710938, 0.36160901188850403, 1.625415563583374, 
352, 1933442299, 82.60015869140625, 48.722198486328125, 83.08555603027344, -7.339302062988281, 6.688318252563477, 0.8945481181144714, 2.2952020168304443, 0.23699572682380676, 1.3676848411560059, 
353, 1933450632, 82.59860229492188, 48.7242431640625, 83.08474731445312, -7.079785346984863, 6.514797687530518, 0.7814003825187683, 2.0573222637176514, 0.41130053997039795, 0.9588304162025452, 
354, 1933458965, 82.59761047363281, 48.72722625732422, 83.08435821533203, -7.218005657196045, 6.052809238433838, 0.9947569370269775, 2.033731698989868, 0.533659815788269, 0.860395073890686, 
355, 1933467298, 82.60057067871094, 48.727516174316406, 83.08584594726562, -7.354691505432129, 6.005058288574219, 0.7686272859573364, 2.3893344402313232, 0.5640127062797546, 1.1893587112426758, 
356, 1933475631, 82.6013412475586, 48.724918365478516, 83.08409881591797, -7.376840591430664, 6.379560947418213, 0.8380858302116394, 2.3332903385162354, 0.3671160638332367, 1.5190906524658203, 
357, 1933483964, 82.59989929199219, 48.722694396972656, 83.08168029785156, -7.434199810028076, 6.582734107971191, 0.8683936595916748, 2.213787317276001, 0.22015437483787537, 1.4515843391418457, 
358, 1933492297, 82.59874725341797, 48.723506927490234, 83.07662963867188, -7.163974761962891, 6.553688049316406, 0.720318078994751, 2.152376890182495, 0.36819183826446533, 1.1044474840164185, 
359, 1933500630, 82.59732818603516, 48.726768493652344, 83.07681274414062, -7.1173906326293945, 6.215062141418457, 0.9836461544036865, 1.9814530611038208, 0.5079174637794495, 0.8222041130065918, 
360, 1933508963, 82.59878540039062, 48.728492736816406, 83.0806884765625, -7.333568572998047, 5.968425750732422, 0.8459280133247375, 2.2195374965667725, 0.59218829870224, 1.0213805437088013, 
361, 1933517296, 82.60014343261719, 48.7264289855957, 83.08094024658203, -7.390397548675537, 6.297936916351318, 0.94925457239151, 2.308290958404541, 0.4304856061935425, 1.4580775499343872, 
362, 1933525629, 82.59917449951172, 48.72404861450195, 83.08116912841797, -7.446418762207031, 6.568410396575928, 0.7589477300643921, 2.1909008026123047, 0.30564185976982117, 1.4825904369354248, 
363, 1933533962, 82.59879302978516, 48.72456359863281, 83.08074951171875, -7.264738082885742, 6.570461273193359, 0.8935233354568481, 2.1612396240234375, 0.4170381426811218, 1.1449692249298096, 
364, 1933542295, 82.59781646728516, 48.726776123046875, 83.080322265625, -7.063340663909912, 6.316309928894043, 0.812936544418335, 2.084998846054077, 0.46807458996772766, 0.947905957698822, 
365, 1933550628, 82.59906005859375, 48.729217529296875, 83.08252716064453, -7.213665008544922, 5.977806568145752, 0.8947230577468872, 2.1193604469299316, 0.6520744562149048, 0.9399784207344055, 
366, 1933558961, 82.60157012939453, 48.727970123291016, 83.0855712890625, -7.455589771270752, 6.157314777374268, 0.8626272082328796, 2.2680253982543945, 0.6140884757041931, 1.3849745988845825, 
367, 1933567294, 82.60240173339844, 48.72390365600586, 83.08580780029297, -7.461740016937256, 6.5257887840271, 0.908741295337677, 2.250300407409668, 0.39931315183639526, 1.6983391046524048, 
368, 1933575627, 82.60262298583984, 48.723175048828125, 83.08842468261719, -7.323183059692383, 6.654445648193359, 0.8798744082450867, 2.130873441696167, 0.5119772553443909, 1.310500979423523, 
369, 1933583960, 82.60173797607422, 48.72626495361328, 83.08788299560547, -7.140778064727783, 6.4244585037231445, 0.7713032364845276, 2.110318422317505, 0.44787776470184326, 0.8361895680427551, 
370, 1933592293, 82.6003646850586, 48.72932052612305, 83.0879135131836, -7.186192989349365, 6.01261043548584, 0.9067740440368652, 1.9964886903762817, 0.5167031288146973, 0.8520703315734863, 
371, 1933600626, 82.60324096679688, 48.72968673706055, 83.08988952636719, -7.2686076164245605, 6.018408298492432, 0.8301429748535156, 2.3353137969970703, 0.6044063568115234, 1.186566710472107, 
372, 1933608959, 82.60416412353516, 48.726749420166016, 83.092529296875, -7.41880989074707, 6.4146294593811035, 0.8705083131790161, 2.192002058029175, 0.4950591027736664, 1.5740331411361694, 
373, 1933617292, 82.60331726074219, 48.72421646118164, 83.09185791015625, -7.474095344543457, 6.650050163269043, 0.8470467925071716, 2.126903533935547, 0.3508893847465515, 1.5043494701385498, 
374, 1933625625, 82.6016845703125, 48.72592544555664, 83.09115600585938, -7.118379592895508, 6.622157573699951, 0.7773643136024475, 2.1259429454803467, 0.35699838399887085, 0.9947417378425598, 
375, 1933633958, 82.60108947753906, 48.72987747192383, 83.09233856201172, -7.131955146789551, 6.2267937660217285, 0.9460256695747375, 1.9909049272537231, 0.5978491306304932, 0.7519699335098267, 
376, 1933642291, 82.60100555419922, 48.73106384277344, 83.0923080444336, -7.338274002075195, 5.879792213439941, 0.8094044923782349, 2.171229124069214, 0.46701157093048096, 1.0718917846679688, 
377, 1933650624, 82.60182189941406, 48.728790283203125, 83.09208679199219, -7.351583480834961, 6.23559045791626, 0.8451387882232666, 2.287517786026001, 0.3925509452819824, 1.4785943031311035, 
378, 1933658957, 82.60091400146484, 48.725929260253906, 83.09199523925781, -7.444296360015869, 6.4908061027526855, 0.8216594457626343, 2.1207945346832275, 0.3612503409385681, 1.5473175048828125, 
379, 1933667290, 82.6011734008789, 48.72553253173828, 83.09237670898438, -7.2995991706848145, 6.600326061248779, 0.8590574264526367, 2.1675150394439697, 0.46544912457466125, 1.2613602876663208, 
380, 1933675623, 82.5997314453125, 48.728275299072266, 83.09075164794922, -7.045809268951416, 6.439389705657959, 0.816198468208313, 2.010396957397461, 0.4967496395111084, 0.8857272863388062, 
381, 1933683956, 82.60088348388672, 48.73074722290039, 83.09329986572266, -7.241692543029785, 6.022986888885498, 0.8587325215339661, 2.078505277633667, 0.6820942759513855, 0.9426678419113159, 
382, 1933692289, 82.60263061523438, 48.729957580566406, 83.09394073486328, -7.440019607543945, 6.1314592361450195, 0.9705861210823059, 2.3366458415985107, 0.4880920946598053, 1.3129985332489014, 
383, 1933700622, 82.6028060913086, 48.72686767578125, 83.0931625366211, -7.390951156616211, 6.509321689605713, 0.7229591012001038, 2.2607765197753906, 0.3355848789215088, 1.5717535018920898, 
384, 1933708955, 82.60224151611328, 48.72553253173828, 83.0899429321289, -7.340602397918701, 6.630383491516113, 0.9643452763557434, 2.160970687866211, 0.3876202404499054, 1.3664170503616333, 
385, 1933717288, 82.60165405273438, 48.728275299072266, 83.08985900878906, -7.167856216430664, 6.378939151763916, 0.6349384784698486, 2.104363203048706, 0.47957533597946167, 0.8819237947463989, 
386, 1933725621, 82.6001205444336, 48.73163986206055, 83.09054565429688, -7.15842866897583, 6.056455612182617, 1.0022857189178467, 1.941879391670227, 0.55576491355896, 0.8186693787574768, 
387, 1933733954, 82.60211181640625, 48.731781005859375, 83.09231567382812, -7.337258338928223, 6.014682292938232, 0.7870439291000366, 2.2484045028686523, 0.5846320986747742, 1.2115148305892944, 
388, 1933742287, 82.6034927368164, 48.728084564208984, 83.09156799316406, -7.472628593444824, 6.3954339027404785, 0.9689267873764038, 2.3469812870025635, 0.39679011702537537, 1.6530146598815918, 
389, 1933750620, 82.60344696044922, 48.726009368896484, 83.09065246582031, -7.460130214691162, 6.6512451171875, 0.7932150363922119, 2.2467784881591797, 0.3387739062309265, 1.4472812414169312, 
390, 1933758953, 82.60394287109375, 48.72615432739258, 83.09381103515625, -7.164276123046875, 6.598181247711182, 0.7932136058807373, 2.1612653732299805, 0.519110918045044, 1.2052395343780518, 
391, 1933767286, 82.60050201416016, 48.72978210449219, 83.09246063232422, -7.0942301750183105, 6.232809066772461, 0.8770354390144348, 1.8793803453445435, 0.3939853608608246, 0.7661345601081848, 
392, 1933775619, 82.60144805908203, 48.73091125488281, 83.0974349975586, -7.265677452087402, 5.935781002044678, 0.8152557611465454, 2.0996627807617188, 0.6372949481010437, 1.1011943817138672, 
393, 1933783952, 82.60387420654297, 48.72931671142578, 83.09883880615234, -7.3859405517578125, 6.242976665496826, 0.9209638833999634, 2.332829475402832, 0.529689610004425, 1.4140211343765259, 
394, 1933792285, 82.60360717773438, 48.72719192504883, 83.0948257446289, -7.479419708251953, 6.564815998077393, 0.8199150562286377, 2.328449249267578, 0.2541828751564026, 1.4422736167907715, 
395, 1933800618, 82.60450744628906, 48.726829528808594, 83.09442901611328, -7.264100074768066, 6.680333614349365, 0.8821814060211182, 2.3122994899749756, 0.4052172005176544, 1.2488219738006592, 
396, 1933808951, 82.60296630859375, 48.72999572753906, 83.09449005126953, -7.122226238250732, 6.36386775970459, 0.8519178628921509, 1.985013484954834, 0.5123743414878845, 0.840620756149292, 
397, 1933817284, 82.60191345214844, 48.731849670410156, 83.09442901611328, -7.266494274139404, 5.947755336761475, 0.9191142916679382, 2.047640323638916, 0.46555155515670776, 0.987339198589325, 
398, 1933825617, 82.60409545898438, 48.731746673583984, 83.09442901611328, -7.343971252441406, 6.084761142730713, 0.7653095126152039, 2.3196635246276855, 0.5539974570274353, 1.2391526699066162, 
399, 1933833950, 82.60596466064453, 48.72850799560547, 83.09542846679688, -7.4073872566223145, 6.446773529052734, 0.7995681166648865, 2.3023228645324707, 0.47203198075294495, 1.6042324304580688, 
400, 1933842283, 82.6053695678711, 48.72722625732422, 83.09642028808594, -7.416572093963623, 6.602707862854004, 0.926954984664917, 2.0705010890960693, 0.4590839147567749, 1.3699517250061035, 
401, 1933850616, 82.6056900024414, 48.729835510253906, 83.09654998779297, -7.091548442840576, 6.53679084777832, 0.6468172669410706, 2.1964974403381348, 0.4926641583442688, 0.9004427194595337, 
402, 1933858949, 82.60359954833984, 48.73199462890625, 83.09557342529297, -7.145064830780029, 6.149416446685791, 0.9593928456306458, 1.9951313734054565, 0.4346351623535156, 0.9525550603866577, 
403, 1933867282, 82.60397338867188, 48.73217010498047, 83.09577178955078, -7.431060314178467, 6.012311935424805, 0.8763904571533203, 2.1969587802886963, 0.4603134095668793, 1.1906777620315552, 
404, 1933875615, 82.60405731201172, 48.73003387451172, 83.09417724609375, -7.39051628112793, 6.3872270584106445, 0.8881078958511353, 2.2839317321777344, 0.3420909345149994, 1.4579238891601562, 
405, 1933883948, 82.60283660888672, 48.72831344604492, 83.09293365478516, -7.354537487030029, 6.635127067565918, 0.7963280081748962, 2.135305166244507, 0.31838494539260864, 1.401406168937683, 
406, 1933892281, 82.60084533691406, 48.72993850708008, 83.09378051757812, -7.226231098175049, 6.502629280090332, 0.6973090767860413, 2.029313325881958, 0.3998638093471527, 1.0097386837005615, 
407, 1933900614, 82.59854888916016, 48.733154296875, 83.09296417236328, -7.143900394439697, 6.189870357513428, 1.010482907295227, 1.9667249917984009, 0.4283596873283386, 0.8180034160614014, 
408, 1933908947, 82.5994873046875, 48.73394012451172, 83.094970703125, -7.243498802185059, 5.992186546325684, 0.705848217010498, 2.1337554454803467, 0.60076904296875, 1.1368237733840942, 
409, 1933917280, 82.60049438476562, 48.7320671081543, 83.09466552734375, -7.443464279174805, 6.267239093780518, 1.0224138498306274, 2.318664312362671, 0.389784574508667, 1.4293895959854126, 
410, 1933925613, 82.6009750366211, 48.73024368286133, 83.09432983398438, -7.507142066955566, 6.562655925750732, 0.737716555595398, 2.279730796813965, 0.3953429162502289, 1.4296456575393677, 
411, 1933933946, 82.60025024414062, 48.72911071777344, 83.09387969970703, -7.2576069831848145, 6.6227030754089355, 0.9332680702209473, 2.122805595397949, 0.39084765315055847, 1.3405978679656982, 
412, 1933942279, 82.59947204589844, 48.73157501220703, 83.09286499023438, -7.092116832733154, 6.348134994506836, 0.7209169864654541, 2.1134817600250244, 0.4648982584476471, 0.9141464233398438, 
413, 1933950612, 82.6004638671875, 48.73358154296875, 83.09469604492188, -7.237313270568848, 5.947967529296875, 0.9594196081161499, 2.1240477561950684, 0.6188784241676331, 0.9913093447685242, 
414, 1933958945, 82.6011962890625, 48.732234954833984, 83.09307861328125, -7.3292999267578125, 6.112415790557861, 0.7439793944358826, 2.2838549613952637, 0.41916415095329285, 1.3691704273223877, 
415, 1933967278, 82.60222625732422, 48.72927474975586, 83.09343719482422, -7.464866638183594, 6.512439250946045, 0.8993956446647644, 2.259469747543335, 0.4260287582874298, 1.5677062273025513, 
416, 1933975611, 82.5997314453125, 48.72736358642578, 83.0880355834961, -7.392924785614014, 6.667143821716309, 0.8236970901489258, 2.1346776485443115, 0.19834384322166443, 1.4136112928390503, 
417, 1933983944, 82.59757232666016, 48.728702545166016, 83.08734130859375, -7.067676544189453, 6.500778675079346, 0.8361901044845581, 1.9737688302993774, 0.4097892940044403, 1.044356346130371, 
418, 1933992277, 82.59605407714844, 48.73197937011719, 83.0837631225586, -7.193874359130859, 6.0749030113220215, 0.9692793488502502, 1.9328502416610718, 0.5506292581558228, 0.8293633460998535, 
419, 1934000610, 82.59674835205078, 48.73188018798828, 83.08453369140625, -7.35963773727417, 5.984151840209961, 0.7900879383087158, 2.1813466548919678, 0.5009247660636902, 1.2290350198745728, 
420, 1934008943, 82.5982437133789, 48.72917556762695, 83.08496856689453, -7.373144149780273, 6.37399435043335, 0.8312901854515076, 2.3257598876953125, 0.4385029375553131, 1.5387624502182007, 
421, 1934017276, 82.59686279296875, 48.727142333984375, 83.08263397216797, -7.445160388946533, 6.615278244018555, 0.8751083016395569, 2.2146835327148438, 0.22837647795677185, 1.4280190467834473, 
422, 1934025609, 82.59703063964844, 48.728633880615234, 83.08930206298828, -7.178651809692383, 6.5468292236328125, 0.7632293701171875, 2.1448593139648438, 0.5185602307319641, 1.0403990745544434, 
423, 1934033942, 82.59542083740234, 48.731998443603516, 83.08839416503906, -7.103960037231445, 6.216542720794678, 0.8824965357780457, 2.0592949390411377, 0.42349299788475037, 0.8008675575256348, 
424, 1934042275, 82.59701538085938, 48.73255157470703, 83.08990478515625, -7.332805156707764, 5.935736179351807, 0.910574197769165, 2.2024528980255127, 0.606404185295105, 1.1662801504135132, 
425, 1934050608, 82.59947204589844, 48.73080062866211, 83.09139251708984, -7.398359298706055, 6.279247283935547, 0.9378735423088074, 2.3301398754119873, 0.532584011554718, 1.432898759841919, 
426, 1934058941, 82.60038757324219, 48.72805404663086, 83.09217834472656, -7.4218220710754395, 6.59503698348999, 0.7388664484024048, 2.2307567596435547, 0.4627852439880371, 1.546779751777649, 
427, 1934067274, 82.60042572021484, 48.728477478027344, 83.09169006347656, -7.260842800140381, 6.598694801330566, 0.7941995859146118, 2.2169628143310547, 0.4124147593975067, 1.155381202697754, 
428, 1934075607, 82.59980010986328, 48.731117248535156, 83.09103393554688, -7.074656963348389, 6.313539505004883, 0.901011049747467, 2.159395456314087, 0.46012136340141296, 0.8928995132446289, 
429, 1934083940, 82.59965515136719, 48.732818603515625, 83.09203338623047, -7.175076007843018, 5.993776798248291, 0.8661018013954163, 2.061471939086914, 0.5489257574081421, 1.0190495252609253, 
430, 1934092273, 82.601806640625, 48.73252868652344, 83.09371185302734, -7.421508312225342, 6.144153118133545, 0.8611316084861755, 2.3155910968780518, 0.5614768862724304, 1.2636398077011108, 
431, 1934100606, 82.6045150756836, 48.7294921875, 83.09508514404297, -7.510317802429199, 6.4810261726379395, 0.8357032537460327, 2.3689966201782227, 0.5028715133666992, 1.5842790603637695, 
432, 1934108939, 82.60334014892578, 48.72834777832031, 83.09331512451172, -7.3032636642456055, 6.672768592834473, 0.9070350527763367, 2.1791181564331055, 0.3117380142211914, 1.3352059125900269, 
433, 1934117272, 82.60355377197266, 48.73162841796875, 83.09492492675781, -7.109292030334473, 6.4271979331970215, 0.6823351383209229, 2.051802396774292, 0.6214269995689392, 0.8369707465171814, 
434, 1934125605, 82.6043930053711, 48.73467254638672, 83.09141540527344, -7.235844135284424, 5.983119487762451, 1.0233663320541382, 2.1952037811279297, 0.588807225227356, 0.8598570227622986, 
435, 1934133938, 82.60664367675781, 48.73440170288086, 83.09312438964844, -7.2909393310546875, 6.01237154006958, 0.7165657877922058, 2.2843544483184814, 0.57414311170578, 1.2609632015228271, 
436, 1934142271, 82.60832977294922, 48.7307243347168, 83.0947265625, -7.418756484985352, 6.455267429351807, 0.9476714730262756, 2.2645416259765625, 0.5136038064956665, 1.66721773147583, 
437, 1934150604, 82.60812377929688, 48.728633880615234, 83.09427642822266, -7.488466262817383, 6.648454189300537, 0.8076611161231995, 2.1851630210876465, 0.3762347102165222, 1.4544402360916138, 
438, 1934158937, 82.60816192626953, 48.729984283447266, 83.09864807128906, -7.104816436767578, 6.610960960388184, 0.784268856048584, 2.2056291103363037, 0.43635132908821106, 1.0478143692016602, 
439, 1934167270, 82.60694885253906, 48.73293685913086, 83.09980773925781, -7.084594249725342, 6.215543746948242, 0.9252035021781921, 1.9187877178192139, 0.5795987844467163, 0.8706790208816528, 
440, 1934175603, 82.60833740234375, 48.73445129394531, 83.10385131835938, -7.349100589752197, 5.898981094360352, 0.8383480310440063, 2.20662784576416, 0.6141653060913086, 1.0514004230499268, 
441, 1934183936, 82.6110610961914, 48.732017517089844, 83.10574340820312, -7.397272109985352, 6.257407188415527, 0.8235980868339539, 2.324427604675293, 0.5519483685493469, 1.5175280570983887, 
442, 1934192269, 82.61197662353516, 48.7291259765625, 83.10787200927734, -7.430451393127441, 6.556299209594727, 0.8104242086410522, 2.2600080966949463, 0.44083383679389954, 1.5601246356964111, 
443, 1934200602, 82.61146545410156, 48.728797912597656, 83.10749816894531, -7.283151149749756, 6.600417613983154, 0.8775354027748108, 2.1430535316467285, 0.41030165553092957, 1.2447879314422607, 
444, 1934208935, 82.60841369628906, 48.73121643066406, 83.10441589355469, -7.073871612548828, 6.35528039932251, 0.7882782816886902, 2.0244593620300293, 0.32341811060905457, 0.9013521075248718, 
445, 1934217268, 82.6086196899414, 48.73271560668945, 83.10568237304688, -7.23459005355835, 5.979325294494629, 0.8886539936065674, 2.079120397567749, 0.5681109428405762, 1.046815276145935, 
446, 1934225601, 82.61045837402344, 48.73124694824219, 83.10543823242188, -7.429849624633789, 6.12872838973999, 0.876376211643219, 2.3546526432037354, 0.47715482115745544, 1.391736626625061, 
447, 1934233934, 82.61092376708984, 48.72833251953125, 83.10568237304688, -7.411012649536133, 6.535046100616455, 0.7944292426109314, 2.2041690349578857, 0.41716623306274414, 1.5615590810775757, 
448, 1934242267, 82.60951232910156, 48.7274169921875, 83.10394287109375, -7.276775360107422, 6.705087184906006, 0.8518800735473633, 2.173572540283203, 0.294871062040329, 1.3009724617004395, 
449, 1934250600, 82.60865783691406, 48.73024368286133, 83.10411071777344, -7.15062141418457, 6.415060520172119, 0.7133358120918274, 2.05253267288208, 0.4995928108692169, 0.8756353855133057, 
450, 1934258933, 82.6077651977539, 48.73292541503906, 83.10530090332031, -7.177037239074707, 6.026391506195068, 0.9678287506103516, 2.0476150512695312, 0.5035118460655212, 0.8952304124832153, 
451, 1934267266, 82.60859680175781, 48.731666564941406, 83.10540771484375, -7.312751770019531, 6.043291091918945, 0.824917733669281, 2.261775255203247, 0.43402040004730225, 1.3632279634475708, 
452, 1934275599, 82.60888671875, 48.72836685180664, 83.10321044921875, -7.432376384735107, 6.417734622955322, 0.9173087477684021, 2.2628512382507324, 0.3558970093727112, 1.5985716581344604, 
453, 1934283932, 82.60691833496094, 48.72542953491211, 83.10002136230469, -7.487382888793945, 6.644078731536865, 0.8791360259056091, 2.2196271419525146, 0.14792220294475555, 1.526352047920227, 
454, 1934292265, 82.60612487792969, 48.726707458496094, 83.10004425048828, -7.1366801261901855, 6.576932907104492, 0.7148093581199646, 2.089122772216797, 0.4725826680660248, 1.0636310577392578, 
455, 1934300598, 82.60554504394531, 48.72963333129883, 83.10150146484375, -7.1321539878845215, 6.193500995635986, 0.9780108332633972, 1.968876600265503, 0.6008715033531189, 0.8763782382011414, 
456, 1934308931, 82.60655212402344, 48.73056411743164, 83.09688568115234, -7.298089027404785, 5.917981147766113, 0.7898679375648499, 2.2864930629730225, 0.4720832109451294, 1.1032947301864624, 
457, 1934317264, 82.6092529296875, 48.72859191894531, 83.09894561767578, -7.386197090148926, 6.293031692504883, 0.8833059668540955, 2.3075735569000244, 0.574873149394989, 1.465505838394165, 
458, 1934325597, 82.61009979248047, 48.72533416748047, 83.10034942626953, -7.4638495445251465, 6.573748588562012, 0.7832573652267456, 2.130476713180542, 0.5188035368919373, 1.616296648979187, 
459, 1934333930, 82.61035919189453, 48.724822998046875, 83.09968566894531, -7.261735916137695, 6.631791114807129, 0.8453402519226074, 2.2610838413238525, 0.3840982913970947, 1.2642289400100708, 
460, 1934342263, 82.6082534790039, 48.72745895385742, 83.10285949707031, -7.082797050476074, 6.330155849456787, 0.8820629715919495, 2.025407075881958, 0.4000558853149414, 0.8878533840179443, 
461, 1934350596, 82.60728454589844, 48.729034423828125, 83.10328674316406, -7.26591682434082, 5.951118469238281, 0.8699288964271545, 2.0132148265838623, 0.5001819729804993, 1.0276814699172974, 
462, 1934358929, 82.60859680175781, 48.72831344604492, 83.10447692871094, -7.377729415893555, 6.133923053741455, 0.8745217323303223, 2.217334747314453, 0.5235934257507324, 1.309899091720581, 
463, 1934367262, 82.60939025878906, 48.72455596923828, 83.10449981689453, -7.409339427947998, 6.467490196228027, 0.730198323726654, 2.2630562782287598, 0.3876074552536011, 1.6602251529693604, 
464, 1934375595, 82.60807800292969, 48.723289489746094, 83.09935760498047, -7.378243923187256, 6.604808807373047, 0.9519790410995483, 2.1092939376831055, 0.354872465133667, 1.3535460233688354, 
465, 1934383928, 82.60697937011719, 48.72515106201172, 83.0985107421875, -7.085075855255127, 6.4756340980529785, 0.6907112002372742, 2.115185499191284, 0.4037187993526459, 0.980884313583374, 
466, 1934392261, 82.60645294189453, 48.72768020629883, 83.09407043457031, -7.158586502075195, 6.095926284790039, 0.9828005433082581, 1.987331748008728, 0.6004233360290527, 0.9248532056808472, 
467, 1934400594, 82.60821533203125, 48.727359771728516, 83.09532165527344, -7.382877349853516, 6.008270263671875, 0.833080530166626, 2.266936779022217, 0.5350301265716553, 1.2594776153564453, 
468, 1934408927, 82.60933685302734, 48.725257873535156, 83.0954818725586, -7.4332122802734375, 6.414967060089111, 0.9050514698028564, 2.32088041305542, 0.41167202591896057, 1.4616763591766357, 
469, 1934417260, 82.60770416259766, 48.72331619262695, 83.09344482421875, -7.329647064208984, 6.670014381408691, 0.7508693933486938, 2.1578328609466553, 0.2533888518810272, 1.422653079032898, 
470, 1934425593, 82.60657501220703, 48.72542953491211, 83.09648895263672, -7.175699710845947, 6.49558687210083, 0.7935757637023926, 2.1569364070892334, 0.40476900339126587, 0.9488152861595154, 
471, 1934433926, 82.6048583984375, 48.728328704833984, 83.09656524658203, -7.126314640045166, 6.171581745147705, 0.9846079349517822, 1.9556466341018677, 0.4928690791130066, 0.8664014339447021, 
472, 1934442259, 82.6058349609375, 48.729068756103516, 83.09505462646484, -7.250686168670654, 5.985871315002441, 0.7776402831077576, 2.1916565895080566, 0.5558801889419556, 1.1379892826080322, 
473, 1934450592, 82.60645294189453, 48.72679901123047, 83.09441375732422, -7.452693462371826, 6.29992151260376, 0.9155178666114807, 2.3015286922454834, 0.35607627034187317, 1.4727801084518433, 
474, 1934458925, 82.60675048828125, 48.723270416259766, 83.08921813964844, -7.54749059677124, 6.560827732086182, 0.8922524452209473, 2.3093667030334473, 0.32989853620529175, 1.6246215105056763, 
475, 1934467258, 82.60541534423828, 48.722869873046875, 83.08692169189453, -7.197529315948486, 6.644956111907959, 0.8001153469085693, 2.212865114212036, 0.25678274035453796, 1.2339657545089722, 
476, 1934475591, 82.60479736328125, 48.726131439208984, 83.09101104736328, -7.106884956359863, 6.302305221557617, 0.8686084747314453, 2.1349847316741943, 0.47735968232154846, 0.8248167037963867, 
477, 1934483924, 82.60401153564453, 48.728355407714844, 83.09049987792969, -7.266880512237549, 5.885839939117432, 0.8668030500411987, 2.1210505962371826, 0.43811866641044617, 0.9409005045890808, 
478, 1934492257, 82.60659790039062, 48.72690963745117, 83.09201049804688, -7.325080394744873, 6.145142078399658, 0.865598201751709, 2.362311363220215, 0.5482855439186096, 1.3997795581817627, 
479, 1934500590, 82.60830688476562, 48.72434616088867, 83.09342956542969, -7.4623212814331055, 6.515352249145508, 0.7997571229934692, 2.246842384338379, 0.5161653161048889, 1.531308650970459, 
480, 1934508923, 82.60646057128906, 48.72267532348633, 83.0889663696289, -7.420090198516846, 6.684143543243408, 0.9540274739265442, 2.1920533180236816, 0.2154797464609146, 1.3835400342941284, 
481, 1934517256, 82.60456848144531, 48.724151611328125, 83.08646392822266, -7.067607402801514, 6.529029846191406, 0.6764083504676819, 2.16684889793396, 0.268449991941452, 1.0064473152160645, 
482, 1934525589, 82.60319519042969, 48.72681427001953, 83.08631134033203, -7.160414695739746, 6.101358890533447, 1.0397322177886963, 1.9929027557373047, 0.5147053003311157, 0.9034525156021118, 
483, 1934533922, 82.6037368774414, 48.7269401550293, 83.08714294433594, -7.401819229125977, 5.950077533721924, 0.7579755187034607, 2.1576790809631348, 0.5115803480148315, 1.2047016620635986, 
484, 1934542255, 82.60368347167969, 48.72329330444336, 83.08203887939453, -7.381680965423584, 6.358361721038818, 0.8717342615127563, 2.263209819793701, 0.32510867714881897, 1.6383761167526245, 
485, 1934550588, 82.60307312011719, 48.72058868408203, 83.08112335205078, -7.380488395690918, 6.59832239151001, 0.788098931312561, 2.1787853240966797, 0.3297192454338074, 1.524213433265686, 
486, 1934558921, 82.60296630859375, 48.72165298461914, 83.0803451538086, -7.208982467651367, 6.54047155380249, 0.8322024941444397, 2.185880422592163, 0.44951707124710083, 1.0829315185546875, 
487, 1934567254, 82.60143280029297, 48.724491119384766, 83.07954406738281, -7.125328540802002, 6.226875305175781, 0.8783284425735474, 2.0576555728912354, 0.4231855571269989, 0.8654153347015381, 
488, 1934575587, 82.60177612304688, 48.726409912109375, 83.07891845703125, -7.286472797393799, 5.979048252105713, 0.8261784315109253, 2.152684450149536, 0.5548171997070312, 0.9926925301551819, 
489, 1934583920, 82.60355377197266, 48.72482681274414, 83.079833984375, -7.431210517883301, 6.277276992797852, 0.9147990942001343, 2.299889326095581, 0.49190863966941833, 1.4083346128463745, 
490, 1934592253, 82.6026382446289, 48.722293853759766, 83.07818603515625, -7.450725078582764, 6.573452949523926, 0.7521394491195679, 2.1729578971862793, 0.33564892411231995, 1.5047338008880615, 
491, 1934600586, 82.60154724121094, 48.721439361572266, 83.07701873779297, -7.241333961486816, 6.624015808105469, 0.8450788855552673, 2.1434249877929688, 0.33879950642585754, 1.299384593963623, 
492, 1934608919, 82.59927368164062, 48.72447204589844, 83.073974609375, -7.112159729003906, 6.30478048324585, 0.7593241333961487, 2.0719480514526367, 0.3605843782424927, 0.8323473334312439, 
493, 1934617252, 82.59913635253906, 48.72700881958008, 83.07467651367188, -7.201038837432861, 5.968226909637451, 0.8944888114929199, 2.089724540710449, 0.5365541577339172, 0.9154655337333679, 
494, 1934625585, 82.59999084472656, 48.725772857666016, 83.077880859375, -7.355009078979492, 6.152091979980469, 0.849155604839325, 2.2135438919067383, 0.5057402849197388, 1.3714501857757568, 
495, 1934633918, 82.6003189086914, 48.722347259521484, 83.07806396484375, -7.517711639404297, 6.49569845199585, 0.8661850094795227, 2.19256591796875, 0.4045896828174591, 1.619754672050476, 
496, 1934642251, 82.59971618652344, 48.72149658203125, 83.07292175292969, -7.376461505889893, 6.659652233123779, 0.8593088388442993, 2.090108871459961, 0.4556388258934021, 1.318889856338501, 
497, 1934650584, 82.59980010986328, 48.723018646240234, 83.07371520996094, -7.06584358215332, 6.45771598815918, 0.7981822490692139, 2.1075265407562256, 0.5281783938407898, 1.0360318422317505, 
498, 1934658917, 82.59971618652344, 48.72575378417969, 83.07573699951172, -7.171546459197998, 6.028773307800293, 0.9630894660949707, 2.0771608352661133, 0.5720170736312866, 0.9001609683036804, 
499, 1934667250, 82.60237884521484, 48.725250244140625, 83.07766723632812, -7.309638023376465, 5.999701499938965, 0.8441184759140015, 2.3140411376953125, 0.5861817598342896, 1.2897536754608154, 
500, 1934675583, 82.60354614257812, 48.72121810913086, 83.08113861083984, -7.385849475860596, 6.402892589569092, 0.8594430088996887, 2.2582919597625732, 0.4361719787120819, 1.6979037523269653, 
501, 1934683916, 82.60208129882812, 48.71846389770508, 83.07902526855469, -7.46935510635376, 6.642575263977051, 0.9221403002738953, 2.186546564102173, 0.234511137008667, 1.517758846282959, 
502, 1934692249, 82.6023178100586, 48.71947479248047, 83.08056640625, -7.162941932678223, 6.603172779083252, 0.7597817778587341, 2.1834983825683594, 0.5086602568626404, 1.0979413986206055, 
503, 1934700582, 82.60147094726562, 48.72231674194336, 83.08116149902344, -7.090877056121826, 6.249513149261475, 0.9031934142112732, 2.013240337371826, 0.5339415073394775, 0.8789396286010742, 
504, 1934708915, 82.60103607177734, 48.7234992980957, 83.08145904541016, -7.344421863555908, 5.8927788734436035, 0.7991278767585754, 2.1401076316833496, 0.45983949303627014, 1.071328043937683, 
505, 1934717248, 82.6019058227539, 48.72108459472656, 83.0810317993164, -7.3455586433410645, 6.220616817474365, 0.9264065027236938, 2.3108396530151367, 0.3714832663536072, 1.4923877716064453, 
506, 1934725581, 82.60205078125, 48.717708587646484, 83.08744812011719, -7.381909370422363, 6.5301289558410645, 0.7326903343200684, 2.2493908405303955, 0.35672950744628906, 1.6100339889526367, 
507, 1934733914, 82.60120391845703, 48.71721267700195, 83.0865707397461, -7.306793212890625, 6.584948539733887, 0.900885283946991, 2.1471259593963623, 0.3638630211353302, 1.2583633661270142, 
508, 1934742247, 82.59979248046875, 48.719520568847656, 83.08586120605469, -7.0889573097229, 6.385046005249023, 0.7886512875556946, 2.088008165359497, 0.4210083484649658, 0.9317049384117126, 
509, 1934750580, 82.59925079345703, 48.72125244140625, 83.0860824584961, -7.212348937988281, 6.0468831062316895, 0.8735268115997314, 2.0873425006866455, 0.4878872036933899, 1.0052435398101807, 
510, 1934758913, 82.6014633178711, 48.720272064208984, 83.08881378173828, -7.442529201507568, 6.122623443603516, 0.9253771305084229, 2.1799123287200928, 0.6777142882347107, 1.362741470336914, 
511, 1934767246, 82.60296630859375, 48.7172966003418, 83.0896987915039, -7.433792591094971, 6.497847557067871, 0.7935436964035034, 2.269920825958252, 0.46580770611763, 1.5739821195602417, 
512, 1934775579, 82.6019287109375, 48.715660095214844, 83.08868408203125, -7.302313327789307, 6.653889179229736, 0.8432638049125671, 2.167412281036377, 0.33271607756614685, 1.3959884643554688, 
513, 1934783912, 82.60100555419922, 48.71794509887695, 83.0883560180664, -7.106328964233398, 6.42179536819458, 0.7276788949966431, 2.086714506149292, 0.4535512328147888, 0.935764729976654, 
514, 1934792245, 82.60064697265625, 48.72072219848633, 83.08499145507812, -7.212825775146484, 6.045426845550537, 1.0474731922149658, 2.077545166015625, 0.534543514251709, 0.8880711197853088, 
515, 1934800578, 82.60405731201172, 48.72065734863281, 83.0885009765625, -7.312209129333496, 6.044338703155518, 0.7800849080085754, 2.259751796722412, 0.7172626256942749, 1.2537270784378052, 
516, 1934808911, 82.60455322265625, 48.718379974365234, 83.08895111083984, -7.439629554748535, 6.384094715118408, 0.9063749313354492, 2.257267475128174, 0.4004914164543152, 1.4827440977096558, 
517, 1934817244, 82.6054458618164, 48.71536636352539, 83.0895004272461, -7.496113300323486, 6.6030802726745605, 0.8391635417938232, 2.226850748062134, 0.44210174679756165, 1.5767098665237427, 
518, 1934825577, 82.60614013671875, 48.71598434448242, 83.08953094482422, -7.153717041015625, 6.591386795043945, 0.8709955215454102, 2.189901828765869, 0.5145516395568848, 1.1457631587982178, 
519, 1934833910, 82.60452270507812, 48.71855926513672, 83.08841705322266, -7.066765308380127, 6.230770111083984, 0.8170826435089111, 2.076738119125366, 0.3932425081729889, 0.8925151824951172, 
520, 1934842243, 82.60511779785156, 48.720882415771484, 83.08917236328125, -7.32001256942749, 5.923189640045166, 0.916832447052002, 2.1776840686798096, 0.5564308166503906, 0.943385124206543, 
521, 1934850576, 82.60539245605469, 48.71902084350586, 83.08844757080078, -7.3663434982299805, 6.257350921630859, 0.821475088596344, 2.2671799659729004, 0.35804861783981323, 1.4248559474945068, 
522, 1934858909, 82.60616302490234, 48.71595764160156, 83.0889663696289, -7.442152500152588, 6.568628311157227, 0.8650870323181152, 2.197176456451416, 0.45002931356430054, 1.5881978273391724, 
523, 1934867242, 82.60577392578125, 48.71585464477539, 83.0881118774414, -7.3043622970581055, 6.6494140625, 0.8434903025627136, 2.1984572410583496, 0.3731097877025604, 1.212949275970459, 
524, 1934875575, 82.6028823852539, 48.71807098388672, 83.08656311035156, -7.076920032501221, 6.370560169219971, 0.7889788150787354, 1.9930052757263184, 0.3505436182022095, 0.9328832626342773, 
525, 1934883908, 82.60355377197266, 48.71889114379883, 83.0894775390625, -7.217657089233398, 5.967507362365723, 0.9573851227760315, 1.98689603805542, 0.6846685409545898, 1.1425741910934448, 
526, 1934892241, 82.60448455810547, 48.7181282043457, 83.0897445678711, -7.376638412475586, 6.071408271789551, 0.8358455896377563, 2.1584601402282715, 0.5590563416481018, 1.320772409439087, 
527, 1934900574, 82.6058120727539, 48.714717864990234, 83.0904769897461, -7.4045538902282715, 6.434267520904541, 0.756994366645813, 2.2639780044555664, 0.44959384202957153, 1.6237245798110962, 
528, 1934908907, 82.60609436035156, 48.713008880615234, 83.08941650390625, -7.389815330505371, 6.6460089683532715, 0.9157894849777222, 2.2088305950164795, 0.420163094997406, 1.4135088920593262, 
529, 1934917240, 82.6061019897461, 48.71489715576172, 83.08995056152344, -7.118006229400635, 6.499929904937744, 0.7375301718711853, 2.1228952407836914, 0.5153712630271912, 0.9908739328384399, 
530, 1934925573, 82.60662078857422, 48.716983795166016, 83.09249877929688, -7.140994548797607, 6.136691570281982, 0.8853773474693298, 2.037548065185547, 0.658503532409668, 0.9880562424659729, 
531, 1934933906, 82.6080551147461, 48.71670913696289, 83.09322357177734, -7.375328063964844, 5.9742326736450195, 0.8727371692657471, 2.2771952152252197, 0.49511033296585083, 1.2496800422668457, 
532, 1934942239, 82.60948181152344, 48.71393966674805, 83.09477233886719, -7.455779552459717, 6.349848747253418, 0.9363399147987366, 2.3393609523773193, 0.4231087267398834, 1.543142318725586, 
533, 1934950572, 82.60894012451172, 48.710540771484375, 83.0938720703125, -7.372015953063965, 6.609964370727539, 0.782162606716156, 2.1856753826141357, 0.32213741540908813, 1.607049822807312, 
534, 1934958905, 82.60848236083984, 48.711219787597656, 83.09593963623047, -7.1923112869262695, 6.515378952026367, 0.7409271597862244, 2.1225876808166504, 0.4690350592136383, 1.1339550018310547, 
535, 1934967238, 82.60552215576172, 48.71230697631836, 83.09480285644531, -7.169206619262695, 6.193602085113525, 0.960462749004364, 1.9193130731582642, 0.37031781673431396, 1.0679470300674438, 
536, 1934975571, 82.60603332519531, 48.712806701660156, 83.09648132324219, -7.228989601135254, 5.974891185760498, 0.7945994734764099, 2.16567063331604, 0.5140136480331421, 1.1617463827133179, 
537, 1934983904, 82.60894012451172, 48.71126174926758, 83.09817504882812, -7.383525848388672, 6.2606706619262695, 0.9064211845397949, 2.364514112472534, 0.5528448820114136, 1.4108192920684814, 
538, 1934992237, 82.6100082397461, 48.7088508605957, 83.10171508789062, -7.559176445007324, 6.549334526062012, 0.8393884301185608, 2.2282721996307373, 0.48051026463508606, 1.5100489854812622, 
539, 1935000570, 82.61038970947266, 48.708038330078125, 83.10137939453125, -7.262588024139404, 6.6599249839782715, 0.8691526651382446, 2.244767427444458, 0.4052812457084656, 1.3039567470550537, 
540, 1935008903, 82.60858154296875, 48.71015548706055, 83.10079193115234, -7.043989658355713, 6.3848748207092285, 0.751013457775116, 2.0870349407196045, 0.382894366979599, 0.9491482973098755, 
541, 1935017236, 82.60797119140625, 48.71183776855469, 83.101806640625, -7.25566291809082, 5.9422502517700195, 0.9553611874580383, 2.0019445419311523, 0.5495662093162537, 1.0196641683578491, 
542, 1935025569, 82.60911560058594, 48.71005630493164, 83.1020736694336, -7.335880279541016, 6.08421516418457, 0.8697081804275513, 2.3227245807647705, 0.426144003868103, 1.428019404411316, 
543, 1935033902, 82.6109390258789, 48.70749282836914, 83.10326385498047, -7.3787078857421875, 6.479752063751221, 0.7632390260696411, 2.28139591217041, 0.49526405334472656, 1.5276968479156494, 
544, 1935042235, 82.60955810546875, 48.70577621459961, 83.10521697998047, -7.468468189239502, 6.667673587799072, 1.0170267820358276, 2.162571430206299, 0.28210240602493286, 1.3981914520263672, 
545, 1935050568, 82.60819244384766, 48.70661926269531, 83.10375213623047, -7.123238563537598, 6.552111625671387, 0.666371762752533, 2.1351640224456787, 0.342090904712677, 1.0950982570648193, 
546, 1935058901, 82.60623168945312, 48.70951461791992, 83.1032943725586, -7.117489337921143, 6.148504734039307, 1.0423736572265625, 1.9545327425003052, 0.49180617928504944, 0.871152937412262, 
547, 1935067234, 82.60762786865234, 48.70991134643555, 83.10559844970703, -7.3843536376953125, 5.9615478515625, 0.7419659495353699, 2.129349708557129, 0.6295850872993469, 1.1863361597061157, 
548, 1935075567, 82.6058349609375, 48.707191467285156, 83.10162353515625, -7.4100117683410645, 6.311972618103027, 0.9198151230812073, 2.20456600189209, 0.19628188014030457, 1.5101385116577148, 
549, 1935083900, 82.60403442382812, 48.70370101928711, 83.0994644165039, -7.379436016082764, 6.580199241638184, 0.7623796463012695, 2.1474077701568604, 0.21921944618225098, 1.6017990112304688, 
550, 1935092233, 82.60263061523438, 48.70467758178711, 83.09666442871094, -7.22866153717041, 6.545622825622559, 0.8149292469024658, 2.0950522422790527, 0.38381654024124146, 1.087388277053833, 
551, 1935100566, 82.60218811035156, 48.70798110961914, 83.09681701660156, -7.099084377288818, 6.266415119171143, 0.7980019450187683, 2.1022756099700928, 0.5064062476158142, 0.8189511299133301, 
552, 1935108899, 82.60283660888672, 48.70906448364258, 83.09735107421875, -7.270249843597412, 6.012649059295654, 0.8810855746269226, 2.1162097454071045, 0.5847857594490051, 1.100963830947876, 
553, 1935117232, 82.60490417480469, 48.708045959472656, 83.09835815429688, -7.441320419311523, 6.248706340789795, 0.9546154141426086, 2.327155828475952, 0.5061116814613342, 1.340956449508667, 
554, 1935125565, 82.60502624511719, 48.70539474487305, 83.098876953125, -7.441590309143066, 6.531132698059082, 0.8169344663619995, 2.29965877532959, 0.3262868821620941, 1.5178611278533936, 
555, 1935133898, 82.60432434082031, 48.705116271972656, 83.09779357910156, -7.244118690490723, 6.621567726135254, 0.8452361226081848, 2.18247389793396, 0.3532074987888336, 1.2319551706314087, 
556, 1935142231, 82.60258483886719, 48.708335876464844, 83.09489440917969, -7.1002726554870605, 6.342685222625732, 0.7600241303443909, 2.0393927097320557, 0.4470837116241455, 0.8246632218360901, 
557, 1935150564, 82.60157012939453, 48.71070098876953, 83.09518432617188, -7.203938961029053, 6.0068230628967285, 0.9105030298233032, 2.0201432704925537, 0.5017060041427612, 0.9311542510986328, 
558, 1935158897, 82.60204315185547, 48.71038055419922, 83.09567260742188, -7.34104061126709, 6.134296417236328, 0.966136634349823, 2.1361887454986572, 0.5412415862083435, 1.2632557153701782, 
559, 1935167230, 82.60194396972656, 48.70846176147461, 83.09501647949219, -7.485682010650635, 6.466643333435059, 0.7605075836181641, 2.216156244277954, 0.3609173595905304, 1.4323351383209229, 
560, 1935175563, 82.60015106201172, 48.70683670043945, 83.09798431396484, -7.437767505645752, 6.643815040588379, 1.0187665224075317, 2.0637519359588623, 0.31555458903312683, 1.3958861827850342, 
561, 1935183896, 82.59969329833984, 48.70855712890625, 83.09867858886719, -7.074892997741699, 6.490686416625977, 0.6571088433265686, 2.0509703159332275, 0.5252583622932434, 1.0117238759994507, 
562, 1935192229, 82.59723663330078, 48.71097183227539, 83.09872436523438, -7.164126396179199, 6.081160545349121, 1.0179210901260376, 2.0300817489624023, 0.3561403155326843, 0.9132242798805237, 
563, 1935200562, 82.5982666015625, 48.711395263671875, 83.0993881225586, -7.33885383605957, 5.954010963439941, 0.7995922565460205, 2.2336764335632324, 0.5030251741409302, 1.1678426265716553, 
564, 1935208895, 82.60071563720703, 48.70894241333008, 83.10034942626953, -7.379027366638184, 6.367689609527588, 0.8544030785560608, 2.413975238800049, 0.47533613443374634, 1.5144544839859009, 
565, 1935217228, 82.59920501708984, 48.7067756652832, 83.09883880615234, -7.461432933807373, 6.59998083114624, 0.8736315965652466, 2.124662399291992, 0.29045262932777405, 1.4527497291564941, 
566, 1935225561, 82.59735870361328, 48.70730972290039, 83.09798431396484, -7.225224018096924, 6.587526321411133, 0.8028770685195923, 2.1049137115478516, 0.33671194314956665, 1.1347233057022095, 
567, 1935233894, 82.59475708007812, 48.70955276489258, 83.09609985351562, -7.058561325073242, 6.322957992553711, 0.8505088090896606, 2.0260987281799316, 0.3280031085014343, 0.9248403906822205, 
568, 1935242227, 82.59605407714844, 48.71222686767578, 83.10009002685547, -7.318530082702637, 5.946094036102295, 0.8711862564086914, 2.1136484146118164, 0.6839641332626343, 0.9183600544929504, 
569, 1935250560, 82.5982437133789, 48.710872650146484, 83.1015625, -7.435544967651367, 6.120609760284424, 0.923703134059906, 2.299121141433716, 0.5375531315803528, 1.385845422744751, 
570, 1935258893, 82.59906005859375, 48.70829772949219, 83.10162353515625, -7.429461479187012, 6.4605326652526855, 0.766960620880127, 2.2014026641845703, 0.47861483693122864, 1.5288753509521484, 
571, 1935267226, 82.59990692138672, 48.70810317993164, 83.10230255126953, -7.310102462768555, 6.575936317443848, 0.8818026781082153, 2.208933115005493, 0.49388083815574646, 1.2405869960784912, 
572, 1935275559, 82.59817504882812, 48.710121154785156, 83.10091400146484, -7.111393451690674, 6.40846586227417, 0.7940882444381714, 2.088674306869507, 0.38681337237358093, 0.9647985696792603, 
573, 1935283892, 82.59823608398438, 48.712406158447266, 83.10118865966797, -7.1650919914245605, 6.102258205413818, 0.9062911868095398, 2.1494057178497314, 0.49951598048210144, 0.9381597638130188, 
574, 1935292225, 82.59961700439453, 48.71234893798828, 83.09870910644531, -7.402145862579346, 6.091331958770752, 0.8147866725921631, 2.3092386722564697, 0.48942404985427856, 1.2282923460006714, 
575, 1935300558, 82.60108184814453, 48.7098274230957, 83.0999526977539, -7.471330642700195, 6.4400248527526855, 0.9083144664764404, 2.230679750442505, 0.5016420483589172, 1.5231378078460693, 
576, 1935308891, 82.59788513183594, 48.70806121826172, 83.09629821777344, -7.340057373046875, 6.671721458435059, 0.9511135816574097, 2.0631113052368164, 0.20349229872226715, 1.3952970504760742, 
577, 1935317224, 82.59765625, 48.71025466918945, 83.09652709960938, -7.104325294494629, 6.480416297912598, 0.5136019587516785, 2.11993670463562, 0.4932277500629425, 0.9508259296417236, 
578, 1935325557, 82.59596252441406, 48.71310806274414, 83.0964584350586, -7.1950578689575195, 6.086972713470459, 1.2046594619750977, 2.0895066261291504, 0.4303191304206848, 0.8615860939025879, 
579, 1935333890, 82.59796905517578, 48.71427536010742, 83.09908294677734, -7.261822700500488, 5.995943069458008, 0.6775990724563599, 2.173598527908325, 0.6685060262680054, 1.0997984409332275, 
580, 1935342223, 82.60139465332031, 48.711341857910156, 83.10060119628906, -7.404736042022705, 6.326055526733398, 0.964583158493042, 2.4389874935150146, 0.5440464019775391, 1.5820633172988892, 
581, 1935350556, 82.6022720336914, 48.70901107788086, 83.10102844238281, -7.552977085113525, 6.545925617218018, 0.8809670805931091, 2.2352135181427, 0.44137170910835266, 1.4920165538787842, 
582, 1935358889, 82.60073852539062, 48.70878601074219, 83.10186004638672, -7.2254815101623535, 6.624831676483154, 0.8531131744384766, 2.112086057662964, 0.33911967277526855, 1.2263455390930176, 
583, 1935367222, 82.59898376464844, 48.711830139160156, 83.10250854492188, -7.02952241897583, 6.345803260803223, 0.7991915345191956, 1.8980532884597778, 0.5407293438911438, 0.853171706199646, 
584, 1935375555, 82.60057830810547, 48.7140007019043, 83.10431671142578, -7.336183547973633, 5.9276957511901855, 0.8649582862854004, 2.126621961593628, 0.7004725337028503, 0.9854820966720581, 
585, 1935383888, 82.60275268554688, 48.71281433105469, 83.106201171875, -7.39495849609375, 6.16512393951416, 0.9034384489059448, 2.261045455932617, 0.5719146132469177, 1.3716679811477661, 
586, 1935392221, 82.60371398925781, 48.70993423461914, 83.10702514648438, -7.39258337020874, 6.53296422958374, 0.7781475186347961, 2.2236487865448, 0.4697907269001007, 1.5651322603225708, 
587, 1935400554, 82.6033706665039, 48.709957122802734, 83.10565948486328, -7.361998558044434, 6.632944107055664, 0.8967229127883911, 2.250185251235962, 0.33534160256385803, 1.192445158958435, 
588, 1935408887, 82.60075378417969, 48.711734771728516, 83.09963989257812, -7.114913463592529, 6.478801727294922, 0.7504112720489502, 2.0437724590301514, 0.3304876387119293, 0.982958972454071, 
589, 1935417220, 82.60191345214844, 48.71500778198242, 83.10254669189453, -7.176553726196289, 6.089715957641602, 0.9945372343063354, 2.04472017288208, 0.7212328314781189, 0.8509176969528198, 
590, 1935425553, 82.60324096679688, 48.71525573730469, 83.107666015625, -7.373345375061035, 6.02777624130249, 0.7245581150054932, 2.2442550659179688, 0.5396278500556946, 1.1948912143707275, 
591, 1935433886, 82.6058349609375, 48.71273422241211, 83.1077651977539, -7.423144817352295, 6.356991291046143, 0.8824666738510132, 2.4720165729522705, 0.4125300347805023, 1.5121746063232422, 
592, 1935442219, 82.60397338867188, 48.71061325073242, 83.10533142089844, -7.409785747528076, 6.580915927886963, 0.8175716996192932, 2.1566803455352783, 0.260483980178833, 1.4442458152770996, 
593, 1935450552, 82.6046371459961, 48.71119689941406, 83.10552215576172, -7.165881156921387, 6.5287394523620605, 0.8757742047309875, 2.2310380935668945, 0.4663199186325073, 1.1435859203338623, 
594, 1935458885, 82.60469055175781, 48.7142219543457, 83.10549926757812, -7.0993146896362305, 6.224665641784668, 0.5557621121406555, 2.112521171569824, 0.5663947463035583, 0.8640577793121338, 
595, 1935467218, 82.60760498046875, 48.71598434448242, 83.10818481445312, -7.325362682342529, 6.007073402404785, 1.174157738685608, 2.2778353691101074, 0.6812490224838257, 1.0291928052902222, 
596, 1935475551, 82.60720825195312, 48.71354293823242, 83.10491180419922, -7.436983585357666, 6.2762885093688965, 0.6251416802406311, 2.255423069000244, 0.3076654076576233, 1.4883793592453003, 
597, 1935483884, 82.60838317871094, 48.710906982421875, 83.10430145263672, -7.4165802001953125, 6.577911376953125, 1.0999804735183716, 2.3685357570648193, 0.3540271520614624, 1.5177075862884521, 
598, 1935492217, 82.60943603515625, 48.71113967895508, 83.10621643066406, -7.210816383361816, 6.574355602264404, 0.43738025426864624, 2.221099853515625, 0.5126817226409912, 1.1962487697601318, 
599, 1935500550, 82.60602569580078, 48.713409423828125, 83.10243225097656, -7.127224922180176, 6.29718542098999, 1.1801683902740479, 2.101353406906128, 0.18215562403202057, 0.903016984462738, 
600, 1935508883, 82.60811614990234, 48.715782165527344, 83.10476684570312, -7.214457035064697, 5.987204074859619, 0.6544916033744812, 2.258957624435425, 0.6425202488899231, 0.950505793094635, 
601, 1935517216, 82.60887145996094, 48.71427536010742, 83.10530090332031, -7.364219665527344, 6.193741321563721, 0.9769350290298462, 2.209855318069458, 0.4620167315006256, 1.3943748474121094, 
602, 1935525549, 82.6089096069336, 48.711891174316406, 83.10569763183594, -7.533353805541992, 6.489991664886475, 0.8725960850715637, 2.1182334423065186, 0.4738505780696869, 1.506616473197937, 
603, 1935533882, 82.60591125488281, 48.7101936340332, 83.1026840209961, -7.3971171379089355, 6.629762172698975, 0.7716050148010254, 2.0826549530029297, 0.1794661432504654, 1.3816702365875244, 
604, 1935542215, 82.60619354248047, 48.712371826171875, 83.10431671142578, -7.071033954620361, 6.464831829071045, 0.8332091569900513, 2.0291213989257812, 0.6500253081321716, 0.9787071943283081, 
605, 1935550548, 82.60438537597656, 48.71491622924805, 83.10469055175781, -7.2230916023254395, 6.000644683837891, 0.7581748962402344, 1.9182114601135254, 0.5112985372543335, 0.9093693494796753, 
606, 1935558881, 82.60494995117188, 48.714351654052734, 83.10366821289062, -7.353654861450195, 5.991449356079102, 1.0539191961288452, 2.291538953781128, 0.4160904586315155, 1.2774971723556519, 
607, 1935567214, 82.60465240478516, 48.711605072021484, 83.10295104980469, -7.331582546234131, 6.40852165222168, 0.6482795476913452, 2.196638345718384, 0.34539517760276794, 1.5309756994247437, 
608, 1935575547, 82.60323333740234, 48.7098274230957, 83.10077667236328, -7.480090141296387, 6.609564781188965, 1.0070217847824097, 2.135394811630249, 0.335200697183609, 1.4134832620620728, 
609, 1935583880, 82.60192108154297, 48.71012878417969, 83.09883117675781, -7.193519115447998, 6.598294258117676, 0.7795811891555786, 2.185227155685425, 0.29430755972862244, 1.1534602642059326, 
610, 1935592213, 82.60011291503906, 48.712337493896484, 83.09886932373047, -7.055875778198242, 6.276259422302246, 0.828057050704956, 1.9434417486190796, 0.5074052214622498, 0.9534515142440796, 
611, 1935600546, 82.599853515625, 48.71395492553711, 83.09927368164062, -7.373584270477295, 5.961714267730713, 0.9554500579833984, 2.1014301776885986, 0.5001051425933838, 1.0212523937225342, 
612, 1935608879, 82.60061645507812, 48.71123504638672, 83.09999084472656, -7.450039386749268, 6.172070026397705, 0.8261244893074036, 2.223994255065918, 0.45294928550720215, 1.5438852310180664, 
613, 1935617212, 82.60016632080078, 48.70820617675781, 83.09769439697266, -7.364034175872803, 6.513576507568359, 0.7286009788513184, 2.323467254638672, 0.21749049425125122, 1.5480475425720215, 
614, 1935625545, 82.59982299804688, 48.70784378051758, 83.09872436523438, -7.271491527557373, 6.563605785369873, 0.9296318292617798, 2.1472668647766113, 0.4413076341152191, 1.2571979761123657, 
615, 1935633878, 82.59867858886719, 48.70954132080078, 83.09818267822266, -7.149571895599365, 6.335315704345703, 0.8138179779052734, 2.0816047191619873, 0.4259262681007385, 1.0018622875213623, 
616, 1935642211, 82.5987548828125, 48.711666107177734, 83.0988998413086, -7.186765670776367, 6.035055637359619, 0.7847867608070374, 2.0218467712402344, 0.6089911460876465, 0.980653703212738, 
617, 1935650544, 82.59884643554688, 48.71016311645508, 83.09896850585938, -7.384698390960693, 6.161334991455078, 0.9095726013183594, 2.172753095626831, 0.42732229828834534, 1.3907761573791504, 
618, 1935658877, 82.5993423461914, 48.70741653442383, 83.10072326660156, -7.475001811981201, 6.482091426849365, 0.9116050004959106, 2.1498026847839355, 0.4877462685108185, 1.5543742179870605, 
619, 1935667210, 82.5983657836914, 48.70656967163086, 83.09925079345703, -7.336940288543701, 6.650335788726807, 0.7349963188171387, 2.1857523918151855, 0.31401774287223816, 1.2961188554763794, 
620, 1935675543, 82.59579467773438, 48.708457946777344, 83.10379028320312, -7.072596549987793, 6.460906028747559, 0.8584619760513306, 2.033193826675415, 0.352336585521698, 0.9712021350860596, 
621, 1935683876, 82.59492492675781, 48.71078872680664, 83.1036605834961, -7.191971778869629, 6.050655841827393, 0.8592844009399414, 2.0753676891326904, 0.467972069978714, 0.9317177534103394, 
