sep=,
PacketCounter,SampleTimeFine,Euler_X,Euler_Y,Euler_Z,Acc_X,Acc_Y,Acc_Z,Gyr_X,Gyr_Y,Gyr_Z,
0, 1930500750, 71.97244262695312, -76.42332458496094, -119.79407501220703, 0, 0, 0, 0, 0, 0, 
1, 1930509083, 71.98688507080078, -76.4220962524414, -119.80714416503906, 9.668606758117676, 1.4557723999023438, 0.44580790400505066, 1.7385276556015015, 0.7774304151535034, 0.290580689907074, 
2, 1930517416, 72.01020050048828, -76.41310119628906, -119.82298278808594, 9.932694435119629, 2.3658041954040527, 0.5603561997413635, 2.4296000003814697, 0.9049636721611023, -0.5710694193840027, 
3, 1930525749, 72.00904083251953, -76.40937805175781, -119.81878662109375, 9.539010047912598, 3.0310990810394287, 1.4189220666885376, 1.6131459474563599, 1.19476318359375, 0.18446090817451477, 
4, 1930534082, 71.98576354980469, -76.41487121582031, -119.79796600341797, 9.25142765045166, 2.8149702548980713, 1.2073079347610474, 1.16389799118042, 1.4373811483383179, 1.3565680980682373, 
5, 1930542415, 71.97616577148438, -76.42122650146484, -119.79552459716797, 9.38638687133789, 2.013046979904175, 0.958224892616272, 0.6652913093566895, 0.9101377725601196, 1.2938389778137207, 
6, 1930550748, 71.98420715332031, -76.4234390258789, -119.79975891113281, 9.753488540649414, 1.4575079679489136, 0.004977997392416, 1.7723642587661743, 0.7603458166122437, 0.7815031409263611, 
7, 1930559081, 72.00515747070312, -76.41545104980469, -119.8114242553711, 9.76634693145752, 1.9915074110031128, 0.6132838129997253, 2.6839492321014404, 1.0660004615783691, -0.4644629657268524, 
8, 1930567414, 72.01815032958984, -76.41064453125, -119.8213119506836, 9.695486068725586, 2.828752279281616, 1.2519543170928955, 1.809556007385254, 0.8942569494247437, -0.05550604686141014, 
9, 1930575747, 71.984619140625, -76.4131088256836, -119.78630065917969, 9.396065711975098, 3.005204439163208, 1.181073546409607, 1.14194655418396, 1.751539707183838, 1.1432015895843506, 
10, 1930584080, 71.9763412475586, -76.42085266113281, -119.78373718261719, 9.330741882324219, 2.394195795059204, 1.2968465089797974, 0.8318862318992615, 0.8630331754684448, 1.4509310722351074, 
11, 1930592413, 71.97470092773438, -76.42606353759766, -119.7843246459961, 9.667421340942383, 1.4985114336013794, 0.08698353916406631, 1.2661243677139282, 0.8731251955032349, 1.133750081062317, 
12, 1930600746, 71.99451446533203, -76.4201431274414, -119.79938507080078, 9.744321823120117, 1.6175788640975952, 0.6006430983543396, 2.3743245601654053, 0.8745340704917908, -0.19825419783592224, 
13, 1930609079, 72.02391052246094, -76.41259002685547, -119.82321166992188, 9.857152938842773, 2.5692214965820312, 0.608186662197113, 2.2774767875671387, 0.723640501499176, -0.525578498840332, 
14, 1930617412, 72.00090789794922, -76.4115982055664, -119.79840850830078, 9.469482421875, 3.0949642658233643, 1.291023850440979, 1.3681716918945312, 1.6436783075332642, 0.677125096321106, 
15, 1930625745, 71.98394775390625, -76.41864013671875, -119.78258514404297, 9.190532684326172, 2.7908082008361816, 1.2153629064559937, 1.079268455505371, 1.1061378717422485, 1.519500494003296, 
16, 1930634078, 71.97826385498047, -76.42398834228516, -119.78270721435547, 9.519933700561523, 1.7346502542495728, 0.6878817677497864, 0.8346269726753235, 0.8818084597587585, 1.1519105434417725, 
17, 1930642411, 71.99855041503906, -76.42443084716797, -119.80081939697266, 9.758716583251953, 1.4346948862075806, 0.26694008708000183, 1.8516913652420044, 0.5797141194343567, 0.44103869795799255, 
18, 1930650744, 72.01271057128906, -76.41387176513672, -119.81045532226562, 9.867120742797852, 2.201594591140747, 0.542695164680481, 2.442842483520508, 1.220607876777649, -0.676395058631897, 
19, 1930659077, 72.02249908447266, -76.41112518310547, -119.81800842285156, 9.595220565795898, 2.9666779041290283, 1.4699335098266602, 1.8207237720489502, 0.9811660647392273, 0.16863130033016205, 
20, 1930667410, 71.99121856689453, -76.41496276855469, -119.79016876220703, 9.268702507019043, 2.846841335296631, 1.0206148624420166, 1.1426125764846802, 1.6411936283111572, 1.2792388200759888, 
21, 1930675743, 71.9871597290039, -76.42131042480469, -119.79485321044922, 9.370503425598145, 2.1502304077148438, 1.1561139822006226, 0.5943911075592041, 0.6658804416656494, 1.2814160585403442, 
22, 1930684076, 71.99440002441406, -76.42472076416016, -119.80259704589844, 9.715631484985352, 1.4366981983184814, -0.10409847646951675, 1.4941422939300537, 0.7472569346427917, 0.8705381155014038, 
23, 1930692409, 72.01907348632812, -76.41724395751953, -119.81783294677734, 9.838134765625, 1.8621559143066406, 0.6811161041259766, 2.712124824523926, 0.9501473307609558, -0.4398220181465149, 
24, 1930700742, 72.03047943115234, -76.41168975830078, -119.82293701171875, 9.67042350769043, 2.758635997772217, 1.0007917881011963, 1.8091717958450317, 0.967846691608429, -0.12448517233133316, 
25, 1930709075, 72.00738525390625, -76.41329193115234, -119.80184936523438, 9.466794967651367, 3.0467467308044434, 1.2689889669418335, 1.2158949375152588, 1.5879417657852173, 0.9103682637214661, 
26, 1930717408, 71.99877166748047, -76.42024230957031, -119.7966537475586, 9.282110214233398, 2.5297348499298096, 1.22653067111969, 0.9807561635971069, 0.8602412343025208, 1.4243435859680176, 
27, 1930725741, 71.99177551269531, -76.4241714477539, -119.79315948486328, 9.57970142364502, 1.5223276615142822, 0.24141205847263336, 1.190280795097351, 0.9788352847099304, 1.0785514116287231, 
28, 1930734074, 72.0131607055664, -76.42064666748047, -119.81045532226562, 9.594062805175781, 1.6361403465270996, 0.58591228723526, 2.081118106842041, 0.7483070492744446, -0.005020390264689922, 
29, 1930742407, 72.0352554321289, -76.41361999511719, -119.8272705078125, 9.946983337402344, 2.5305442810058594, 0.623202919960022, 2.2200756072998047, 0.8915931582450867, -0.40419265627861023, 
30, 1930750740, 72.02285766601562, -76.41273498535156, -119.81771850585938, 9.500391006469727, 3.048325538635254, 1.4585567712783813, 1.653206706047058, 1.4081809520721436, 0.6112709045410156, 
31, 1930759073, 72.00225067138672, -76.41891479492188, -119.80098724365234, 9.293885231018066, 2.73138427734375, 1.0884480476379395, 1.0075488090515137, 1.301548957824707, 1.395245909690857, 
32, 1930767406, 71.9967041015625, -76.4241943359375, -119.80583953857422, 9.406035423278809, 1.7609115839004517, 0.8521186709403992, 0.91264808177948, 0.8183876872062683, 1.195070743560791, 
33, 1930775739, 72.0048828125, -76.42383575439453, -119.8122329711914, 9.770857810974121, 1.4679762125015259, 0.12367210537195206, 1.6841745376586914, 0.8306312561035156, 0.48678576946258545, 
34, 1930784072, 72.02653503417969, -76.41496276855469, -119.82233428955078, 9.847593307495117, 2.1559059619903564, 0.4207301437854767, 2.9495177268981934, 1.1386680603027344, -0.5538310408592224, 
35, 1930792405, 72.03091430664062, -76.41133117675781, -119.82438659667969, 9.592236518859863, 2.9753499031066895, 1.4580116271972656, 1.8154215812683105, 1.161976933479309, 0.1110249012708664, 
36, 1930800738, 72.0036849975586, -76.41557312011719, -119.79899597167969, 9.279794692993164, 2.897531747817993, 1.1058930158615112, 1.2069299221038818, 1.5310012102127075, 1.2979629039764404, 
37, 1930809071, 71.99169921875, -76.4225082397461, -119.79345703125, 9.358176231384277, 2.2850162982940674, 1.203685998916626, 0.7350388169288635, 0.9717912077903748, 1.3856403827667236, 
38, 1930817404, 71.98880767822266, -76.42565155029297, -119.7913818359375, 9.742977142333984, 1.436722993850708, 0.007505388464778662, 1.3110259771347046, 0.920357882976532, 0.9613661170005798, 
39, 1930825737, 72.0131607055664, -76.4190444946289, -119.80658721923828, 9.723023414611816, 1.7951948642730713, 0.6920571327209473, 2.6623308658599854, 0.8417478799819946, -0.2975349724292755, 
40, 1930834070, 72.02790069580078, -76.41310119628906, -119.81909942626953, 9.771537780761719, 2.604642152786255, 0.8853025436401367, 1.8354265689849854, 0.967257559299469, -0.24548684060573578, 
41, 1930842403, 71.9988021850586, -76.41421508789062, -119.79108428955078, 9.379304885864258, 3.064530372619629, 1.322648048400879, 1.3067231178283691, 1.790396809577942, 0.9204859137535095, 
42, 1930850736, 71.9943618774414, -76.42183685302734, -119.788818359375, 9.227256774902344, 2.6058943271636963, 1.133440613746643, 1.0095211267471313, 0.725100576877594, 1.4615610837936401, 
43, 1930859069, 71.98780059814453, -76.42678833007812, -119.78422546386719, 9.551839828491211, 1.5664159059524536, 0.3556901216506958, 1.2776508331298828, 1.0215339660644531, 1.1501175165176392, 
44, 1930867402, 72.00591278076172, -76.42255401611328, -119.7941665649414, 9.752551078796387, 1.5475653409957886, 0.5223183631896973, 2.075662612915039, 0.7932088971138, -0.009579724632203579, 
45, 1930875735, 72.02608489990234, -76.41474151611328, -119.8084716796875, 9.929008483886719, 2.4503581523895264, 0.46639829874038696, 2.2847771644592285, 0.988107442855835, -0.47073841094970703, 
46, 1930884068, 72.01801300048828, -76.41287994384766, -119.79936218261719, 9.61315631866455, 3.101497173309326, 1.4958572387695312, 1.6236735582351685, 1.321066975593567, 0.45758548378944397, 
47, 1930892401, 71.99166870117188, -76.41876983642578, -119.77262878417969, 9.233869552612305, 2.7076807022094727, 1.1459343433380127, 1.0406166315078735, 1.4028276205062866, 1.4636101722717285, 
48, 1930900734, 71.98527526855469, -76.42440032958984, -119.77252197265625, 9.446881294250488, 1.8172942399978638, 0.9964410662651062, 0.7738956809043884, 0.8746877312660217, 1.1872837543487549, 
49, 1930909067, 72.00222778320312, -76.42527770996094, -119.78816223144531, 9.692559242248535, 1.4586902856826782, -0.022662272676825523, 1.7376058101654053, 0.630353569984436, 0.5086090564727783, 
50, 1930917400, 72.01960754394531, -76.41547393798828, -119.7921371459961, 9.856900215148926, 2.2044270038604736, 0.638094961643219, 2.7119200229644775, 1.164179801940918, -0.5851315855979919, 
51, 1930925733, 72.03031921386719, -76.41185760498047, -119.8021469116211, 9.583233833312988, 2.922508955001831, 1.2948124408721924, 1.6482633352279663, 0.9486104249954224, 0.044837724417448044, 
52, 1930934066, 71.99618530273438, -76.4149169921875, -119.77708435058594, 9.380724906921387, 2.8943283557891846, 1.1004315614700317, 1.2309049367904663, 1.7670106887817383, 1.227549433708191, 
53, 1930942399, 71.98794555664062, -76.4220962524414, -119.77831268310547, 9.35023021697998, 2.221219062805176, 1.2511788606643677, 0.651434063911438, 0.7632147073745728, 1.4133296012878418, 
54, 1930950732, 71.98825073242188, -76.42603302001953, -119.77962493896484, 9.76633358001709, 1.4443671703338623, -0.01662428118288517, 1.412253499031067, 0.9010703563690186, 0.9796291589736938, 
55, 1930959065, 72.009765625, -76.42020416259766, -119.79254150390625, 9.720582008361816, 1.7355635166168213, 0.6325041651725769, 2.6051340103149414, 0.9510948657989502, -0.22924740612506866, 
56, 1930967398, 72.03279876708984, -76.41212463378906, -119.8126220703125, 9.804890632629395, 2.6337180137634277, 0.893774688243866, 1.912243366241455, 0.7592443823814392, -0.5022438764572144, 
57, 1930975731, 72.00377655029297, -76.41289520263672, -119.78437805175781, 9.459388732910156, 3.0795159339904785, 1.3529642820358276, 1.3388946056365967, 1.8096842765808105, 0.877223551273346, 
58, 1930984064, 71.99530029296875, -76.41954040527344, -119.77796936035156, 9.222599029541016, 2.6894187927246094, 1.267393708229065, 1.0543969869613647, 0.884344220161438, 1.3944517374038696, 
59, 1930992397, 71.98787689208984, -76.42423248291016, -119.7737045288086, 9.505290031433105, 1.6096374988555908, 0.4077449440956116, 1.151936411857605, 0.9512486457824707, 1.1669718027114868, 
60, 1931000730, 72.00761413574219, -76.42266845703125, -119.78939056396484, 9.673580169677734, 1.533546805381775, 0.5302387475967407, 2.068362236022949, 0.7196959257125854, 0.22867107391357422, 
61, 1931009063, 72.03376770019531, -76.41464233398438, -119.80826568603516, 9.985502243041992, 2.3680927753448486, 0.31665053963661194, 2.467226982116699, 0.8740729093551636, -0.5347740054130554, 
62, 1931017396, 72.02363586425781, -76.41314697265625, -119.79989624023438, 9.470242500305176, 3.0657217502593994, 1.5709552764892578, 1.5662463903427124, 1.3480899333953857, 0.5116571187973022, 
63, 1931025729, 71.9986343383789, -76.41930389404297, -119.77809143066406, 9.190725326538086, 2.7606136798858643, 1.0816473960876465, 1.0725831985473633, 1.4382520914077759, 1.4368689060211182, 
64, 1931034062, 71.99259948730469, -76.42516326904297, -119.78060913085938, 9.408124923706055, 1.8846944570541382, 1.0399813652038574, 0.7908779978752136, 0.7786343693733215, 1.2647414207458496, 
65, 1931042395, 72.00503540039062, -76.42568969726562, -119.79377746582031, 9.80150032043457, 1.4077321290969849, -0.03288625553250313, 1.6426793336868286, 0.6677502393722534, 0.5512311458587646, 
66, 1931050728, 72.02300262451172, -76.41743469238281, -119.80197143554688, 9.85207462310791, 2.0956308841705322, 0.5883496403694153, 2.724727153778076, 1.1697638034820557, -0.4657948911190033, 
67, 1931059061, 72.0325927734375, -76.41352081298828, -119.8100814819336, 9.704739570617676, 2.948146343231201, 1.3669610023498535, 1.7362481355667114, 1.0088293552398682, 0.032235514372587204, 
68, 1931067394, 72.00251770019531, -76.41703796386719, -119.78270721435547, 9.309015274047852, 2.9476544857025146, 1.0070886611938477, 1.32521653175354, 1.6586626768112183, 1.234439730644226, 
69, 1931075727, 71.99748992919922, -76.42489624023438, -119.785888671875, 9.342121124267578, 2.296077013015747, 1.2923399209976196, 0.5532802939414978, 0.7040200233459473, 1.4156858921051025, 
70, 1931084060, 71.99073791503906, -76.42807006835938, -119.77790069580078, 9.661491394042969, 1.4222073554992676, -0.046518415212631226, 1.420040249824524, 1.0504268407821655, 1.0098026990890503, 
71, 1931092393, 72.01213836669922, -76.42223358154297, -119.79119110107422, 9.677752494812012, 1.8198820352554321, 0.8551023006439209, 2.4651525020599365, 0.8480744957923889, -0.19881770014762878, 
72, 1931100726, 72.03504180908203, -76.41674041748047, -119.81056213378906, 9.844724655151367, 2.5956008434295654, 0.7158008813858032, 2.016416549682617, 0.7677738070487976, -0.25296616554260254, 
73, 1931109059, 72.00845336914062, -76.41851806640625, -119.78414154052734, 9.539630889892578, 3.137376308441162, 1.445664882659912, 1.4185036420822144, 1.7227494716644287, 0.9809355735778809, 
74, 1931117392, 71.9951171875, -76.42672729492188, -119.7762222290039, 9.184096336364746, 2.550668239593506, 1.1195247173309326, 0.9771702885627747, 0.9412592053413391, 1.6078951358795166, 
75, 1931125725, 71.99172973632812, -76.43193817138672, -119.77581024169922, 9.602042198181152, 1.61545991897583, 0.48446017503738403, 1.169661283493042, 0.8992773294448853, 1.1459935903549194, 
76, 1931134058, 72.006591796875, -76.42926025390625, -119.7839126586914, 9.68665599822998, 1.5021542310714722, 0.49871256947517395, 1.9679800271987915, 0.7992025017738342, 0.1915048211812973, 
77, 1931142391, 72.02890014648438, -76.42029571533203, -119.80126190185547, 9.927696228027344, 2.4331510066986084, 0.41972315311431885, 2.359877824783325, 0.9118539690971375, -0.5693532824516296, 
78, 1931150724, 72.02143859863281, -76.4178237915039, -119.79300689697266, 9.54599380493164, 3.06974458694458, 1.4625416994094849, 1.592808485031128, 1.3929405212402344, 0.3342273533344269, 
79, 1931159057, 71.99906921386719, -76.4238510131836, -119.77378845214844, 9.145027160644531, 2.7756078243255615, 1.3276523351669312, 1.086363673210144, 1.3752409219741821, 1.4004967212677002, 
80, 1931167390, 71.99006652832031, -76.43001556396484, -119.77484130859375, 9.41332721710205, 1.9888265132904053, 0.8817238211631775, 0.6217727065086365, 0.8131110072135925, 1.307593822479248, 
81, 1931175723, 72.00048828125, -76.43206024169922, -119.78498840332031, 9.778564453125, 1.482735276222229, 0.1384321004152298, 1.5962152481079102, 0.7344498038291931, 0.6894199848175049, 
82, 1931184056, 72.02275848388672, -76.42390441894531, -119.79627227783203, 9.85776424407959, 1.985417366027832, 0.44690024852752686, 2.7786452770233154, 0.9813454747200012, -0.4348016381263733, 
83, 1931192389, 72.03324127197266, -76.41838836669922, -119.80889892578125, 9.673314094543457, 2.781919240951538, 1.2451900243759155, 1.8070714473724365, 0.9803463220596313, -0.11116576939821243, 
84, 1931200722, 72.00801086425781, -76.42195892333984, -119.7851791381836, 9.342806816101074, 3.017362117767334, 1.2485657930374146, 1.2674564123153687, 1.584688663482666, 1.1596204042434692, 
85, 1931209055, 72.00887298583984, -76.4288101196289, -119.7931900024414, 9.227824211120605, 2.3486645221710205, 1.199997067451477, 0.6993838548660278, 0.6143189668655396, 1.2537270784378052, 
86, 1931217388, 72.00484466552734, -76.43135070800781, -119.78937530517578, 9.671141624450684, 1.5049755573272705, 0.19855225086212158, 1.3470144271850586, 0.9780411720275879, 0.9071922302246094, 
87, 1931225721, 72.03135681152344, -76.42666625976562, -119.808837890625, 9.70678997039795, 1.688515543937683, 0.5061097741127014, 2.4377195835113525, 0.7333227396011353, -0.15535032749176025, 
88, 1931234054, 72.04480743408203, -76.41930389404297, -119.81861877441406, 9.91418170928955, 2.662257671356201, 0.8148444890975952, 2.058629035949707, 1.028680443763733, -0.332754522562027, 
89, 1931242387, 72.02690124511719, -76.42027282714844, -119.80119323730469, 9.450407028198242, 3.136770009994507, 1.303830623626709, 1.2725023031234741, 1.4043643474578857, 0.8459485173225403, 
90, 1931250720, 72.00894165039062, -76.42782592773438, -119.78792572021484, 9.209553718566895, 2.615870952606201, 1.0900635719299316, 0.9227144718170166, 1.1574689149856567, 1.5223181247711182, 
91, 1931259053, 72.0080795288086, -76.4329605102539, -119.79183197021484, 9.548015594482422, 1.5901485681533813, 0.6570529937744141, 0.9689224362373352, 0.7856781482696533, 1.0999904870986938, 
92, 1931267386, 72.01590728759766, -76.4303970336914, -119.79497528076172, 9.693187713623047, 1.5049647092819214, 0.3322336971759796, 2.0370616912841797, 1.0006585121154785, 0.26824507117271423, 
93, 1931275719, 72.03524017333984, -76.4222183227539, -119.80803680419922, 9.876253128051758, 2.3603341579437256, 0.6541715264320374, 2.325913667678833, 1.0337520837783813, -0.5060092210769653, 
94, 1931284052, 72.0360107421875, -76.4206771850586, -119.80729675292969, 9.582149505615234, 3.0238521099090576, 1.475887417793274, 1.7193423509597778, 1.0825471878051758, 0.4279753863811493, 
95, 1931292385, 71.99960327148438, -76.42530059814453, -119.7712173461914, 9.226384162902832, 2.8120551109313965, 1.133104920387268, 1.1108509302139282, 1.7403719425201416, 1.4154809713363647, 
96, 1931300718, 72.00094604492188, -76.43115997314453, -119.77983856201172, 9.472947120666504, 1.9885691404342651, 0.998908519744873, 0.6859363317489624, 0.633811354637146, 1.1390520334243774, 
97, 1931309051, 72.0070571899414, -76.43240356445312, -119.78445434570312, 9.764021873474121, 1.4385011196136475, -0.08891692012548447, 1.7250547409057617, 0.9115979075431824, 0.6494618058204651, 
98, 1931317384, 72.02372741699219, -76.4245834350586, -119.79061889648438, 9.83221435546875, 2.0375797748565674, 0.592117428779602, 2.8529775142669678, 1.140614628791809, -0.35383501648902893, 
99, 1931325717, 72.0389404296875, -76.41963958740234, -119.80288696289062, 9.705588340759277, 2.880993127822876, 1.1187553405761719, 1.9254348278045654, 0.9361362457275391, -0.1249462366104126, 
100, 1931334050, 72.00865936279297, -76.42259979248047, -119.77594757080078, 9.33704948425293, 3.009113311767578, 1.2722947597503662, 1.0847499370574951, 1.6284888982772827, 1.1707370281219482, 
101, 1931342383, 71.99776458740234, -76.42997741699219, -119.7703857421875, 9.296871185302734, 2.3797497749328613, 1.1728841066360474, 0.7758423686027527, 0.8541451692581177, 1.4751367568969727, 
102, 1931350716, 71.99635314941406, -76.43458557128906, -119.77112579345703, 9.697855949401855, 1.488525390625, 0.21984261274337769, 1.271964430809021, 0.8923358917236328, 1.0669481754302979, 
103, 1931359049, 72.02155303955078, -76.42972564697266, -119.79061889648438, 9.712627410888672, 1.6484668254852295, 0.6142860651016235, 2.2787833213806152, 0.7392141222953796, -0.17896665632724762, 
104, 1931367382, 72.04168701171875, -76.42247009277344, -119.80714416503906, 9.841363906860352, 2.545269012451172, 0.7359966039657593, 2.0674400329589844, 0.8404670357704163, -0.37353241443634033, 
105, 1931375715, 72.01776123046875, -76.42350006103516, -119.78373718261719, 9.513530731201172, 3.1130948066711426, 1.4048033952713013, 1.3899435997009277, 1.6705987453460693, 0.8706405758857727, 
106, 1931384048, 72.0002670288086, -76.43106842041016, -119.76639556884766, 9.087823867797852, 2.6620192527770996, 1.050736904144287, 0.977067768573761, 1.0780390501022339, 1.5732903480529785, 
107, 1931392381, 71.99475860595703, -76.43687438964844, -119.76122283935547, 9.569513320922852, 1.6606996059417725, 0.6638449430465698, 1.0284755229949951, 0.8288894295692444, 1.2658170461654663, 
108, 1931400714, 72.01083374023438, -76.43536376953125, -119.77423858642578, 9.690431594848633, 1.4827194213867188, 0.3363158404827118, 1.9385236501693726, 0.7892129421234131, 0.26030465960502625, 
109, 1931409047, 72.02692413330078, -76.42621612548828, -119.78370666503906, 9.94743824005127, 2.3679678440093994, 0.5373541712760925, 2.3569836616516113, 1.16633141040802, -0.5816737413406372, 
110, 1931417380, 72.0223617553711, -76.4237289428711, -119.77672576904297, 9.562407493591309, 3.0512402057647705, 1.4446076154708862, 1.6607885360717773, 1.2515498399734497, 0.3623005449771881, 
111, 1931425713, 71.98970031738281, -76.42961120605469, -119.74826049804688, 9.237931251525879, 2.820537805557251, 1.161139965057373, 0.9327294826507568, 1.6254663467407227, 1.461330533027649, 
112, 1931434046, 71.98682403564453, -76.43550872802734, -119.75182342529297, 9.39972972869873, 1.9229631423950195, 1.0076781511306763, 0.6203127503395081, 0.6530989408493042, 1.2248599529266357, 
113, 1931442379, 71.99024963378906, -76.43661499023438, -119.76013946533203, 9.776165008544922, 1.427664041519165, -0.11039067059755325, 1.672776222229004, 0.9024023413658142, 0.6991277933120728, 
114, 1931450712, 72.0145263671875, -76.42852020263672, -119.77470397949219, 9.784449577331543, 2.071962833404541, 0.6884215474128723, 2.745013475418091, 0.9916936159133911, -0.5019365549087524, 
115, 1931459045, 72.0310287475586, -76.42459869384766, -119.79058074951172, 9.635530471801758, 2.875514030456543, 1.177922010421753, 1.6586880683898926, 0.8016358613967896, -0.042878225445747375, 
116, 1931467378, 72.00233459472656, -76.42768859863281, -119.7577896118164, 9.447980880737305, 3.0193920135498047, 1.2563199996948242, 1.2807246446609497, 1.620651125907898, 1.1928421258926392, 
117, 1931475711, 71.9942626953125, -76.43480682373047, -119.75616455078125, 9.247438430786133, 2.2532095909118652, 1.184511661529541, 0.750868558883667, 0.861547589302063, 1.3688888549804688, 
118, 1931484044, 71.98796844482422, -76.43854522705078, -119.75042724609375, 9.795426368713379, 1.4350674152374268, 0.10837821662425995, 1.437944769859314, 1.0168724060058594, 1.0659490823745728, 
119, 1931492377, 72.0114517211914, -76.43339538574219, -119.7687759399414, 9.643867492675781, 1.7260390520095825, 0.6747364401817322, 2.479470729827881, 0.7643928527832031, -0.13316839933395386, 
120, 1931500710, 72.03318786621094, -76.4262924194336, -119.78646850585938, 9.884017944335938, 2.615525960922241, 0.6793965697288513, 2.0768918991088867, 0.8713322877883911, -0.4171534478664398, 
121, 1931509043, 72.00895690917969, -76.42591094970703, -119.7633285522461, 9.451227188110352, 3.103041648864746, 1.5026558637619019, 1.3189152479171753, 1.7152700424194336, 0.7036613821983337, 
122, 1931517376, 71.99344635009766, -76.43252563476562, -119.74645233154297, 9.190528869628906, 2.688065767288208, 1.1057465076446533, 0.9663097858428955, 1.0554217100143433, 1.4451422691345215, 
123, 1931525709, 71.98843383789062, -76.436767578125, -119.74593353271484, 9.504467010498047, 1.6588737964630127, 0.5863646268844604, 0.9895163178443909, 0.9376986622810364, 1.0325994491577148, 
124, 1931534042, 72.00343322753906, -76.435546875, -119.75402069091797, 9.741067886352539, 1.5528415441513062, 0.37724968791007996, 1.9194669723510742, 0.7273034453392029, 0.35167068243026733, 
125, 1931542375, 72.02112579345703, -76.42575073242188, -119.7651138305664, 9.890939712524414, 2.3220841884613037, 0.5076041221618652, 2.3879506587982178, 1.076527714729309, -0.618071436882019, 
126, 1931550708, 72.0244369506836, -76.42383575439453, -119.76750183105469, 9.590265274047852, 2.994342088699341, 1.4824413061141968, 1.648621916770935, 1.0893605947494507, 0.3008776307106018, 
127, 1931559041, 71.9933090209961, -76.4293441772461, -119.73908996582031, 9.247617721557617, 2.794734477996826, 1.0997083187103271, 1.1076748371124268, 1.6371723413467407, 1.4247021675109863, 
128, 1931567374, 71.98535919189453, -76.43598175048828, -119.73855590820312, 9.370940208435059, 1.9662880897521973, 1.0672674179077148, 0.6558908820152283, 0.7728453874588013, 1.3568243980407715, 
129, 1931575707, 71.99089050292969, -76.43779754638672, -119.74230194091797, 9.761088371276855, 1.4736988544464111, -0.06167330965399742, 1.7556636333465576, 0.9138261675834656, 0.7201825976371765, 
130, 1931584040, 72.01789855957031, -76.42930603027344, -119.76117706298828, 9.779875755310059, 2.0543675422668457, 0.7372784614562988, 2.690199136734009, 0.8422856330871582, -0.5305221080780029, 
131, 1931592373, 72.0260238647461, -76.4246597290039, -119.75968933105469, 9.777356147766113, 2.8318145275115967, 1.0820791721343994, 1.7442398071289062, 1.0000182390213013, 0.008311820216476917, 
132, 1931600706, 71.99458312988281, -76.42770385742188, -119.72954559326172, 9.361883163452148, 3.0007081031799316, 1.1763317584991455, 1.2696079015731812, 1.7757195234298706, 1.151884913444519, 
133, 1931609039, 71.9920654296875, -76.43524169921875, -119.7341079711914, 9.286565780639648, 2.3389530181884766, 1.1511917114257812, 0.69917893409729, 0.6785082221031189, 1.3673006296157837, 
134, 1931617372, 71.98487091064453, -76.43743896484375, -119.72870635986328, 9.630084037780762, 1.42183518409729, 0.17678982019424438, 1.2653048038482666, 1.0606982707977295, 0.8904661536216736, 
135, 1931625705, 72.01873779296875, -76.4329605102539, -119.75514221191406, 9.71017837524414, 1.7685083150863647, 0.5939792394638062, 2.5073904991149902, 0.5401146411895752, -0.19761383533477783, 
136, 1931634038, 72.03864288330078, -76.42594146728516, -119.77392578125, 9.820672988891602, 2.6459600925445557, 0.7372936010360718, 2.0538389682769775, 0.8297346830368042, -0.339055597782135, 
137, 1931642371, 72.01103973388672, -76.42745208740234, -119.74717712402344, 9.500299453735352, 3.127748489379883, 1.5661097764968872, 1.3594883680343628, 1.666398048400879, 0.9922314286231995, 
138, 1931650704, 71.99392700195312, -76.43588256835938, -119.7354965209961, 9.176562309265137, 2.6031458377838135, 1.0555486679077148, 0.837060272693634, 1.0811127424240112, 1.6086891889572144, 
139, 1931659037, 71.99422454833984, -76.44174194335938, -119.73926544189453, 9.615178108215332, 1.552010416984558, 0.6607638001441956, 1.1232225894927979, 0.761959433555603, 1.1815462112426758, 
140, 1931667370, 72.01129913330078, -76.43850708007812, -119.75344848632812, 9.732653617858887, 1.4505947828292847, 0.19807763397693634, 2.0664665699005127, 0.7733064889907837, 0.11420106142759323, 
141, 1931675703, 72.0361099243164, -76.42955017089844, -119.77140045166016, 9.917153358459473, 2.4804649353027344, 0.5456645488739014, 2.412745714187622, 0.9323965907096863, -0.6323386430740356, 
142, 1931684036, 72.03263092041016, -76.42749786376953, -119.76985168457031, 9.496712684631348, 3.1027984619140625, 1.3193575143814087, 1.6507221460342407, 1.2010642290115356, 0.40136224031448364, 
143, 1931692369, 72.0006103515625, -76.43408966064453, -119.74169921875, 9.182367324829102, 2.807067632675171, 1.333817481994629, 1.0343924760818481, 1.5228047370910645, 1.598981499671936, 
144, 1931700702, 72.00508880615234, -76.44219207763672, -119.75391387939453, 9.3732271194458, 1.8991440534591675, 1.0742501020431519, 0.6419311165809631, 0.45328229665756226, 1.3664296865463257, 
145, 1931709035, 72.01020050048828, -76.44434356689453, -119.75738525390625, 9.816496849060059, 1.4374343156814575, -0.07097582519054413, 1.7384507656097412, 0.9100865125656128, 0.7602176070213318, 
146, 1931717368, 72.03214263916016, -76.43490600585938, -119.76673889160156, 9.875348091125488, 2.0472896099090576, 0.7264372706413269, 2.7696032524108887, 1.0335471630096436, -0.5861817002296448, 
147, 1931725701, 72.04198455810547, -76.43071746826172, -119.77421569824219, 9.657719612121582, 2.846407175064087, 1.0293962955474854, 1.8412151336669922, 1.0372356176376343, -0.0028431799728423357, 
148, 1931734034, 72.01126861572266, -76.4338607788086, -119.74444580078125, 9.372665405273438, 3.002495527267456, 1.290622591972351, 1.178575038909912, 1.6525919437408447, 1.204445242881775, 
149, 1931742367, 72.00958251953125, -76.44147491455078, -119.75139617919922, 9.262348175048828, 2.3147945404052734, 1.189933180809021, 0.7025600671768188, 0.5777163505554199, 1.4195538759231567, 
150, 1931750700, 72.00528717041016, -76.44452667236328, -119.74728393554688, 9.705771446228027, 1.4767810106277466, 0.10225921869277954, 1.4927847385406494, 1.0780134201049805, 0.9277347922325134, 
151, 1931759033, 72.03591918945312, -76.43955993652344, -119.77169799804688, 9.693232536315918, 1.7222161293029785, 0.7101544141769409, 2.3592119216918945, 0.6113989949226379, -0.23342254757881165, 
152, 1931767366, 72.05057525634766, -76.43260955810547, -119.78045654296875, 9.888416290283203, 2.684293508529663, 0.6574521064758301, 2.0677218437194824, 0.9822162389755249, -0.28972259163856506, 
153, 1931775699, 72.03038024902344, -76.43399047851562, -119.7614974975586, 9.459710121154785, 3.07474946975708, 1.4913684129714966, 1.3146634101867676, 1.535919189453125, 0.8682073950767517, 
154, 1931784032, 72.0107421875, -76.44068145751953, -119.7481460571289, 9.214324951171875, 2.5476622581481934, 0.9442018270492554, 1.0516819953918457, 1.1860029697418213, 1.492477297782898, 
155, 1931792365, 72.005615234375, -76.44542694091797, -119.75350189208984, 9.56446361541748, 1.5931686162948608, 0.6476710438728333, 1.0835973024368286, 0.8683865666389465, 1.1573920249938965, 
156, 1931800698, 72.02142333984375, -76.4437484741211, -119.76541137695312, 9.656290054321289, 1.5647470951080322, 0.3455476462841034, 2.0344488620758057, 0.8250728845596313, 0.25144216418266296, 
157, 1931809031, 72.0394515991211, -76.43607330322266, -119.7764663696289, 9.930906295776367, 2.4247353076934814, 0.657522439956665, 2.4044723510742188, 1.0697145462036133, -0.4282444417476654, 
158, 1931817364, 72.03330993652344, -76.43421173095703, -119.76948547363281, 9.518856048583984, 3.047473669052124, 1.4781043529510498, 1.6217525005340576, 1.2617443799972534, 0.4407826066017151, 
159, 1931825697, 72.00279998779297, -76.44015502929688, -119.74140167236328, 9.210129737854004, 2.778899908065796, 1.1503287553787231, 1.1464804410934448, 1.6131974458694458, 1.467119574546814, 
160, 1931834030, 71.99533081054688, -76.44548797607422, -119.7423324584961, 9.430431365966797, 1.8694242238998413, 1.016025185585022, 0.64080411195755, 0.8019689321517944, 1.208056926727295, 
161, 1931842363, 72.00032806396484, -76.44618225097656, -119.7459487915039, 9.79126262664795, 1.437025785446167, -0.03996220603585243, 1.7465193271636963, 0.8870082497596741, 0.6472333073616028, 
162, 1931850696, 72.02320861816406, -76.43781280517578, -119.75928497314453, 9.832208633422852, 2.066453218460083, 0.6095096468925476, 2.726315498352051, 1.0346742868423462, -0.529343843460083, 
163, 1931859029, 72.03561401367188, -76.43408966064453, -119.76908874511719, 9.693872451782227, 2.9311511516571045, 1.2019304037094116, 1.867085576057434, 0.95555180311203, 0.03935627266764641, 
164, 1931867362, 72.00251770019531, -76.4368896484375, -119.73985290527344, 9.289619445800781, 3.0051255226135254, 1.2235952615737915, 1.1915102005004883, 1.7340965270996094, 1.183646559715271, 
165, 1931875695, 71.99546813964844, -76.4448471069336, -119.74010467529297, 9.31214427947998, 2.292405605316162, 1.0928876399993896, 0.6556603312492371, 0.7787624001502991, 1.4529032707214355, 
166, 1931884028, 71.98809051513672, -76.44781494140625, -119.73575592041016, 9.724485397338867, 1.4423489570617676, 0.10211373120546341, 1.2260380983352661, 1.025939702987671, 0.9772214293479919, 
167, 1931892361, 72.0090560913086, -76.44205474853516, -119.75099182128906, 9.73742389678955, 1.7457025051116943, 0.7309826612472534, 2.4562387466430664, 0.8505591154098511, -0.18232212960720062, 
168, 1931900694, 72.02583312988281, -76.43534088134766, -119.76421356201172, 9.809866905212402, 2.594449758529663, 0.74943608045578, 1.9997931718826294, 0.9752236008644104, -0.33231911063194275, 
169, 1931909027, 72.00048828125, -76.43733978271484, -119.73976135253906, 9.41241455078125, 3.1377575397491455, 1.4387973546981812, 1.340636134147644, 1.6619669198989868, 0.9872109889984131, 
170, 1931917360, 71.98519134521484, -76.44402313232422, -119.7342300415039, 9.155363082885742, 2.594820499420166, 1.0080342292785645, 0.9379549026489258, 1.0345975160598755, 1.4461671113967896, 
171, 1931925693, 71.9808120727539, -76.44856262207031, -119.73326110839844, 9.552860260009766, 1.551580786705017, 0.5378604531288147, 1.1200464963912964, 0.938620924949646, 1.0683057308197021, 
172, 1931934026, 72.00154876708984, -76.44510650634766, -119.7503890991211, 9.760472297668457, 1.5662939548492432, 0.3611646294593811, 2.13252592086792, 0.6977958679199219, 0.06986282765865326, 
173, 1931942359, 72.01702117919922, -76.43671417236328, -119.75970458984375, 9.934035301208496, 2.4600510597229004, 0.6062575578689575, 2.428601026535034, 1.0945347547531128, -0.4323171079158783, 
174, 1931950692, 72.0106201171875, -76.43647003173828, -119.7528076171875, 9.58434772491455, 3.0983314514160156, 1.497204065322876, 1.5644277334213257, 1.274858832359314, 0.574360728263855, 
175, 1931959025, 71.98614501953125, -76.44213104248047, -119.73219299316406, 9.187735557556152, 2.7449898719787598, 1.130598545074463, 0.9993777871131897, 1.4232678413391113, 1.3696316480636597, 
176, 1931967358, 71.98268127441406, -76.4479751586914, -119.73582458496094, 9.474527359008789, 1.801522135734558, 0.9285963773727417, 0.7180054783821106, 0.6915715336799622, 1.2355411052703857, 
177, 1931975691, 71.99300384521484, -76.44766998291016, -119.74373626708984, 9.737183570861816, 1.4388458728790283, 0.052912261337041855, 1.846671223640442, 0.8801435828208923, 0.4401678740978241, 
178, 1931984024, 72.01359558105469, -76.43953704833984, -119.75529479980469, 9.837493896484375, 2.2307257652282715, 0.7211130857467651, 2.6567726135253906, 0.9956893920898438, -0.42806512117385864, 
179, 1931992357, 72.0220718383789, -76.43549346923828, -119.7626953125, 9.591632843017578, 2.926405429840088, 1.2101893424987793, 1.7287943363189697, 0.9623652100563049, 0.06981159746646881, 
180, 1932000690, 71.99502563476562, -76.44001007080078, -119.73770141601562, 9.36439037322998, 2.9432241916656494, 1.2596516609191895, 1.1960439682006836, 1.5819222927093506, 1.2820309400558472, 
181, 1932009023, 71.99231719970703, -76.44738006591797, -119.74190521240234, 9.2922945022583, 2.1485605239868164, 0.9299971461296082, 0.716135561466217, 0.694722056388855, 1.3513941764831543, 
182, 1932017356, 71.99187469482422, -76.44957733154297, -119.7413558959961, 9.82822322845459, 1.4706227779388428, 0.09146274626255035, 1.5689871311187744, 0.9415152072906494, 0.8465375304222107, 
183, 1932025689, 72.022705078125, -76.44366455078125, -119.76354217529297, 9.745464324951172, 1.7805525064468384, 0.6228018403053284, 2.6414554119110107, 0.7071194052696228, -0.32458359003067017, 
184, 1932034022, 72.03646850585938, -76.43639373779297, -119.77337646484375, 9.79395866394043, 2.661005735397339, 0.7997273802757263, 1.975612998008728, 0.9956637024879456, -0.32624852657318115, 
185, 1932042355, 72.01307678222656, -76.43650817871094, -119.75118255615234, 9.444130897521973, 3.0686841011047363, 1.4508498907089233, 1.472984790802002, 1.6254408359527588, 0.8127779960632324, 
186, 1932050688, 72.00111389160156, -76.44400787353516, -119.74456787109375, 9.18239688873291, 2.632935047149658, 1.2060712575912476, 0.8624184131622314, 0.9801926612854004, 1.4631235599517822, 
187, 1932059021, 71.99608612060547, -76.44906616210938, -119.74290466308594, 9.550569534301758, 1.589564323425293, 0.4614298343658447, 1.1214295625686646, 0.9376986622810364, 1.135030746459961, 
188, 1932067354, 72.01280212402344, -76.44717407226562, -119.7527084350586, 9.71947193145752, 1.5836515426635742, 0.4164856970310211, 2.0627784729003906, 0.7349621057510376, 0.27467426657676697, 
189, 1932075687, 72.03775024414062, -76.43953704833984, -119.77131652832031, 9.935730934143066, 2.349952459335327, 0.46961289644241333, 2.3546268939971924, 0.8664142489433289, -0.48582518100738525, 
190, 1932084020, 72.02709197998047, -76.43727111816406, -119.75936126708984, 9.559316635131836, 2.990076780319214, 1.3735004663467407, 1.6821250915527344, 1.4102299213409424, 0.44006529450416565, 
191, 1932092353, 71.99859619140625, -76.44184112548828, -119.73749542236328, 9.215594291687012, 2.7700753211975098, 1.2952111959457397, 1.0150279998779297, 1.4932971000671387, 1.3350523710250854, 
192, 1932100686, 71.99393463134766, -76.44880676269531, -119.7391586303711, 9.381610870361328, 1.9386531114578247, 0.9740651845932007, 0.7777377963066101, 0.7779427170753479, 1.3262922763824463, 
193, 1932109019, 72.00003051757812, -76.45010375976562, -119.7420425415039, 9.810870170593262, 1.4974391460418701, 0.004074261989444494, 1.9222332239151, 0.9550140500068665, 0.6679039597511292, 
194, 1932117352, 72.02074432373047, -76.44268798828125, -119.75458526611328, 9.798873901367188, 2.069967031478882, 0.6240280270576477, 2.5970914363861084, 0.949276328086853, -0.35808703303337097, 
195, 1932125685, 72.02865600585938, -76.43807983398438, -119.76006317138672, 9.725543975830078, 2.8797194957733154, 1.2220041751861572, 1.841010332107544, 1.1056767702102661, -0.024154221639037132, 
196, 1932134018, 71.99799346923828, -76.44036865234375, -119.73117065429688, 9.378374099731445, 2.996628999710083, 1.13217031955719, 1.2183283567428589, 1.692242980003357, 1.1082895994186401, 
197, 1932142351, 71.98409271240234, -76.44749450683594, -119.7252426147461, 9.282986640930176, 2.3265109062194824, 1.1891710758209229, 0.6226436495780945, 0.9102658033370972, 1.4628417491912842, 
198, 1932150684, 71.9806137084961, -76.45050048828125, -119.72305297851562, 9.643325805664062, 1.4357374906539917, 0.13238926231861115, 1.3647903203964233, 1.0279632806777954, 0.909676730632782, 
199, 1932159017, 72.00501251220703, -76.4457015991211, -119.73920440673828, 9.691534042358398, 1.7816345691680908, 0.6782599687576294, 2.5733470916748047, 0.8272501826286316, -0.1446179747581482, 
200, 1932167350, 72.02632141113281, -76.43905639648438, -119.75739288330078, 9.80685043334961, 2.607025384902954, 0.7825276851654053, 1.927868127822876, 0.7541214823722839, -0.3227137327194214, 
201, 1932175683, 72.00051879882812, -76.44001007080078, -119.7315673828125, 9.562315940856934, 3.110518217086792, 1.3830002546310425, 1.4486258029937744, 1.7372726202011108, 0.8805277347564697, 
202, 1932184016, 71.98130798339844, -76.44680786132812, -119.71475219726562, 9.190224647521973, 2.6124355792999268, 1.2945244312286377, 0.8504310846328735, 1.1225568056106567, 1.4891220331192017, 
203, 1932192349, 71.98124694824219, -76.4529037475586, -119.72115325927734, 9.58176326751709, 1.6172124147415161, 0.5478389263153076, 1.1980929374694824, 0.7006645798683167, 1.2697361707687378, 
204, 1932200682, 71.993896484375, -76.45087432861328, -119.73103332519531, 9.675273895263672, 1.448738932609558, 0.347677081823349, 1.8974382877349854, 0.8925920128822327, 0.22654511034488678, 
205, 1932209015, 72.02176666259766, -76.44178771972656, -119.75160217285156, 9.97693157196045, 2.375890016555786, 0.4552340805530548, 2.4726316928863525, 0.8673620223999023, -0.6707855463027954, 
206, 1932217348, 72.00982666015625, -76.4382095336914, -119.7385482788086, 9.506972312927246, 3.0529847145080566, 1.364686131477356, 1.5729061365127563, 1.4728312492370605, 0.30259376764297485, 
207, 1932225681, 71.98519134521484, -76.44501495361328, -119.71649932861328, 9.175856590270996, 2.8687500953674316, 1.367746353149414, 1.146531581878662, 1.4184011220932007, 1.514428734779358, 
208, 1932234014, 71.97920227050781, -76.4515151977539, -119.71693420410156, 9.385008811950684, 2.0431809425354004, 0.9625294804573059, 0.5773576498031616, 0.7053520083427429, 1.318735957145691, 
209, 1932242347, 71.9902114868164, -76.45511627197266, -119.72975158691406, 9.821084976196289, 1.454245686531067, -0.03063132055103779, 1.6208560466766357, 0.5893963575363159, 0.91551673412323, 
210, 1932250680, 72.01248168945312, -76.44699096679688, -119.74263000488281, 9.788656234741211, 1.9482706785202026, 0.5602545142173767, 2.6980879306793213, 1.0359292030334473, -0.48979538679122925, 
211, 1932259013, 72.03107452392578, -76.44143676757812, -119.75884246826172, 9.732625961303711, 2.7313530445098877, 1.0767810344696045, 1.8699798583984375, 0.8541194200515747, -0.22722388803958893, 
212, 1932267346, 72.00436401367188, -76.44413757324219, -119.73831176757812, 9.379270553588867, 3.0250244140625, 1.2307207584381104, 1.2753455638885498, 1.5743917226791382, 1.1245546340942383, 
213, 1932275679, 72.00045013427734, -76.45259857177734, -119.74069213867188, 9.227465629577637, 2.4083712100982666, 1.2474666833877563, 0.784500002861023, 0.7040969729423523, 1.4862020015716553, 
214, 1932284012, 71.98900604248047, -76.45645141601562, -119.73201751708984, 9.612841606140137, 1.5002562999725342, 0.15603408217430115, 1.267943024635315, 1.113617181777954, 1.1151541471481323, 
215, 1932292345, 72.0078125, -76.45096588134766, -119.74200439453125, 9.705909729003906, 1.6840416193008423, 0.6762880682945251, 2.3272452354431152, 0.8737399578094482, -0.13491016626358032, 
216, 1932300678, 72.03226470947266, -76.44419860839844, -119.76175689697266, 9.880517959594727, 2.5790650844573975, 0.5668675303459167, 2.1632115840911865, 0.8034800887107849, -0.39927467703819275, 
217, 1932309011, 72.01508331298828, -76.44364929199219, -119.7454605102539, 9.539389610290527, 3.0871973037719727, 1.4215304851531982, 1.3669933080673218, 1.5354069471359253, 0.6247183680534363, 
218, 1932317344, 71.99298095703125, -76.4499282836914, -119.7274398803711, 9.188511848449707, 2.657632827758789, 1.1674526929855347, 1.1038838624954224, 1.2786240577697754, 1.4791322946548462, 
219, 1932325677, 71.98885345458984, -76.45504760742188, -119.7292251586914, 9.499526023864746, 1.6905672550201416, 0.7253483533859253, 0.8278392553329468, 0.8431821465492249, 1.1141806840896606, 
220, 1932334010, 72.00324249267578, -76.45443725585938, -119.7503890991211, 9.777541160583496, 1.5146770477294922, 0.2830197215080261, 1.9283291101455688, 0.7205155491828918, 0.42887192964553833, 
221, 1932342343, 72.02206420898438, -76.44469451904297, -119.75756072998047, 9.80653190612793, 2.338097095489502, 0.5979511141777039, 2.421659469604492, 1.0524505376815796, -0.6199413537979126, 
222, 1932350676, 72.03193664550781, -76.44239807128906, -119.76628875732422, 9.602359771728516, 3.003856897354126, 1.4970691204071045, 1.6985950469970703, 0.9323709011077881, 0.2105361968278885, 
223, 1932359009, 72.00006103515625, -76.44804382324219, -119.73693084716797, 9.271217346191406, 2.8515589237213135, 1.055159091949463, 1.1226592063903809, 1.65425705909729, 1.4491125345230103, 
224, 1932367342, 71.9947280883789, -76.45516204833984, -119.7435302734375, 9.44977855682373, 2.0581448078155518, 1.0940272808074951, 0.5861176252365112, 0.6639081239700317, 1.380927324295044, 
225, 1932375675, 71.9997787475586, -76.45795440673828, -119.74809265136719, 9.764470100402832, 1.4370968341827393, -0.10901454091072083, 1.601440191268921, 0.8554257750511169, 0.8224858641624451, 
226, 1932384008, 72.02159881591797, -76.45010375976562, -119.76220703125, 9.863497734069824, 1.9501811265945435, 0.6176186800003052, 2.841937780380249, 0.9936914443969727, -0.3946385085582733, 
227, 1932392341, 72.03668212890625, -76.44458770751953, -119.77892303466797, 9.655293464660645, 2.7722556591033936, 0.9845673441886902, 1.87405264377594, 0.871844470500946, -0.15009941160678864, 
228, 1932400674, 72.0067138671875, -76.4468765258789, -119.75102996826172, 9.410895347595215, 3.0580875873565674, 1.338772177696228, 1.1915359497070312, 1.74257493019104, 1.05076003074646, 
229, 1932409007, 71.9998779296875, -76.45501708984375, -119.75000762939453, 9.231066703796387, 2.4860284328460693, 1.3581479787826538, 0.8249447345733643, 0.8059902191162109, 1.4864836931228638, 
230, 1932417340, 71.98978424072266, -76.45831298828125, -119.74410247802734, 9.652597427368164, 1.5244325399398804, 0.23140281438827515, 1.1846712827682495, 1.0759644508361816, 1.03721022605896, 
231, 1932425673, 72.00778198242188, -76.45365905761719, -119.75750732421875, 9.717719078063965, 1.6252942085266113, 0.6049419045448303, 2.123842716217041, 0.8968695998191833, -0.10238009691238403, 
232, 1932434006, 72.02946472167969, -76.44491577148438, -119.76934814453125, 9.8799409866333, 2.5081472396850586, 0.5159780383110046, 2.088341474533081, 0.855502724647522, -0.5526271462440491, 
233, 1932442339, 72.0107421875, -76.4437255859375, -119.75100708007812, 9.488496780395508, 3.0841434001922607, 1.3579926490783691, 1.6216500997543335, 1.5815894603729248, 0.6364753246307373, 
234, 1932450672, 71.9916763305664, -76.45072937011719, -119.73556518554688, 9.127663612365723, 2.736344575881958, 1.1648372411727905, 1.0444587469100952, 1.2337223291397095, 1.475853681564331, 
235, 1932459005, 71.98936462402344, -76.45613861083984, -119.73876190185547, 9.469141006469727, 1.7215462923049927, 0.7867197394371033, 0.8776846528053284, 0.7944383025169373, 1.1347745656967163, 
236, 1932467338, 72.00080108642578, -76.45508575439453, -119.74872589111328, 9.77464771270752, 1.4827814102172852, 0.17004220187664032, 1.8301500082015991, 0.7919025421142578, 0.39659804105758667, 
237, 1932475671, 72.01747131347656, -76.44695281982422, -119.75697326660156, 9.945035934448242, 2.239738702774048, 0.5524498224258423, 2.56461238861084, 1.162745475769043, -0.45244988799095154, 
238, 1932484004, 72.02246856689453, -76.4432373046875, -119.76016998291016, 9.576187133789062, 3.023261308670044, 1.4800552129745483, 1.6580991744995117, 1.0287573337554932, 0.1398153156042099, 
239, 1932492337, 71.9895248413086, -76.4476547241211, -119.7099838256836, 9.30407428741455, 2.888918161392212, 1.084661841392517, 1.238179326057434, 1.6757218837738037, 1.3707842826843262, 
240, 1932500670, 71.98271942138672, -76.45498657226562, -119.71038818359375, 9.355567932128906, 2.0809335708618164, 0.9932210445404053, 0.6657012104988098, 0.7990745902061462, 1.3804152011871338, 
241, 1932509003, 71.98638153076172, -76.4577865600586, -119.71406555175781, 9.783823013305664, 1.4338529109954834, -0.0063645243644714355, 1.5410163402557373, 0.8781455755233765, 0.8342940211296082, 
242, 1932517336, 72.01140594482422, -76.45003509521484, -119.71784973144531, 9.689400672912598, 1.9077050685882568, 0.6550331115722656, 2.742708206176758, 0.8803996443748474, -0.4243766665458679, 
243, 1932525669, 72.02696228027344, -76.44432067871094, -119.73117065429688, 9.737430572509766, 2.753143310546875, 1.0296928882598877, 1.8398323059082031, 0.9352141618728638, -0.22235718369483948, 
244, 1932534002, 71.99903869628906, -76.44619750976562, -119.7076187133789, 9.40948486328125, 3.044282913208008, 1.3669605255126953, 1.2774202823638916, 1.6410655975341797, 1.0430244207382202, 
245, 1932542335, 71.98736572265625, -76.45372009277344, -119.69682312011719, 9.276849746704102, 2.464127779006958, 1.1819275617599487, 0.9207420349121094, 0.9013009071350098, 1.521037220954895, 
246, 1932550668, 71.9834976196289, -76.45866394042969, -119.6954345703125, 9.641788482666016, 1.5163965225219727, 0.26229166984558105, 1.229521632194519, 0.935265302658081, 1.1194572448730469, 
247, 1932559001, 72.00235748291016, -76.45543670654297, -119.70951843261719, 9.761191368103027, 1.6162841320037842, 0.5498272180557251, 2.151454448699951, 0.8249192237854004, 0.055698152631521225, 
248, 1932567334, 72.02693176269531, -76.44670867919922, -119.72837829589844, 9.879522323608398, 2.457609176635742, 0.4424220323562622, 2.297327756881714, 0.8218711614608765, -0.5609773993492126, 
249, 1932575667, 72.0171890258789, -76.44465637207031, -119.71798706054688, 9.580410957336426, 3.0716910362243652, 1.4310688972473145, 1.572035312652588, 1.4354857206344604, 0.4018489122390747, 
250, 1932584000, 71.99092102050781, -76.45075988769531, -119.7009506225586, 9.116297721862793, 2.7799408435821533, 1.1853857040405273, 1.0046030282974243, 1.3747286796569824, 1.4861506223678589, 
251, 1932592333, 71.98114013671875, -76.45596313476562, -119.697998046875, 9.420378684997559, 1.8343608379364014, 0.9020596742630005, 0.6546869874000549, 0.8730226159095764, 1.2182257175445557, 
252, 1932600666, 71.99202728271484, -76.45748138427734, -119.70718383789062, 9.721302032470703, 1.447489619255066, 0.13302014768123627, 1.7652435302734375, 0.7802480459213257, 0.6345030069351196, 
253, 1932608999, 72.00772094726562, -76.44860076904297, -119.71382141113281, 9.899638175964355, 2.1410698890686035, 0.620757520198822, 2.6385092735290527, 1.2321857213974, -0.5236061811447144, 
254, 1932617332, 72.01181030273438, -76.44512939453125, -119.71377563476562, 9.650009155273438, 2.9176313877105713, 1.260050892829895, 1.8688273429870605, 1.0934332609176636, 0.19142799079418182, 
255, 1932625665, 71.98065185546875, -76.44988250732422, -119.6850357055664, 9.328156471252441, 2.9632792472839355, 1.138830542564392, 1.1477609872817993, 1.674159049987793, 1.3334898948669434, 
256, 1932633998, 71.97549438476562, -76.45609283447266, -119.6862564086914, 9.245570182800293, 2.175100803375244, 1.1534749269485474, 0.7300698161125183, 0.7253311276435852, 1.293762445449829, 
257, 1932642331, 71.9715576171875, -76.45906066894531, -119.67967224121094, 9.784643173217773, 1.434635043144226, 0.0630093365907669, 1.4622271060943604, 0.9847009181976318, 0.962877631187439, 
258, 1932650664, 71.99822998046875, -76.45245361328125, -119.69839477539062, 9.78548526763916, 1.7989896535873413, 0.6845793128013611, 2.5454020500183105, 0.8230750560760498, -0.3674105703830719, 
259, 1932658997, 72.01331329345703, -76.44641876220703, -119.71148681640625, 9.769644737243652, 2.715885639190674, 0.8502084612846375, 1.8144997358322144, 0.9546554684638977, -0.25532272458076477, 
260, 1932667330, 71.98838806152344, -76.44641876220703, -119.68748474121094, 9.46170425415039, 3.1221425533294678, 1.3027845621109009, 1.3232953548431396, 1.6359683275222778, 0.8021737337112427, 
261, 1932675663, 71.97362518310547, -76.45430755615234, -119.6773452758789, 9.188765525817871, 2.585070848464966, 1.2203031778335571, 0.9402856826782227, 1.0574965476989746, 1.5325381755828857, 
262, 1932683996, 71.9606704711914, -76.45845794677734, -119.66887664794922, 9.593083381652832, 1.5116571187973022, 0.30687639117240906, 1.0835717916488647, 1.099503755569458, 1.1509883403778076, 
263, 1932692329, 71.97564697265625, -76.45514678955078, -119.67998504638672, 9.653326988220215, 1.5927064418792725, 0.5683712959289551, 2.058014154434204, 0.8300932049751282, 0.133847177028656, 
264, 1932700662, 72.00016784667969, -76.4468765258789, -119.69925689697266, 9.936197280883789, 2.444591999053955, 0.5014984011650085, 2.2226369380950928, 0.872075080871582, -0.5656903982162476, 
265, 1932708995, 71.99562072753906, -76.44552612304688, -119.69422912597656, 9.560633659362793, 3.0076746940612793, 1.4908998012542725, 1.5679113864898682, 1.2654072046279907, 0.43361055850982666, 
266, 1932717328, 71.96324920654297, -76.45101928710938, -119.66588592529297, 9.259098052978516, 2.765631914138794, 1.1580358743667603, 1.0069084167480469, 1.5644279718399048, 1.4791580438613892, 
267, 1932725661, 71.96146392822266, -76.45854187011719, -119.67095184326172, 9.393192291259766, 1.876312255859375, 1.0513319969177246, 0.7207205295562744, 0.6666232943534851, 1.3603591918945312, 
268, 1932733994, 71.96644592285156, -76.45917510986328, -119.67369842529297, 9.81163215637207, 1.505897879600525, -0.02842983976006508, 1.7000038623809814, 0.8788115978240967, 0.6361935138702393, 
269, 1932742327, 71.98271179199219, -76.45008850097656, -119.67990112304688, 9.797202110290527, 2.079360246658325, 0.5300381183624268, 2.7609455585479736, 1.250909686088562, -0.543764591217041, 
270, 1932750660, 71.99681854248047, -76.44536590576172, -119.69319152832031, 9.702449798583984, 2.897783041000366, 1.1668412685394287, 1.7967489957809448, 0.8468706011772156, -0.04810352995991707, 
271, 1932758993, 71.97154998779297, -76.44869232177734, -119.66133880615234, 9.306841850280762, 2.9378771781921387, 1.1582098007202148, 1.2675331830978394, 1.5094852447509766, 1.181930422782898, 
272, 1932767326, 71.9625473022461, -76.45602416992188, -119.65902709960938, 9.268264770507812, 2.3288662433624268, 1.2449820041656494, 0.7183384299278259, 0.8713579177856445, 1.4026740789413452, 
273, 1932775659, 71.96137237548828, -76.46038055419922, -119.66016387939453, 9.695594787597656, 1.4780550003051758, 0.14219093322753906, 1.2549822330474854, 0.8876996636390686, 1.0311906337738037, 
274, 1932783992, 71.98301696777344, -76.45487213134766, -119.67304229736328, 9.73261547088623, 1.6976033449172974, 0.7465634346008301, 2.5318007469177246, 0.837675154209137, -0.1470257192850113, 
275, 1932792325, 72.00450134277344, -76.44781494140625, -119.69121551513672, 9.839524269104004, 2.524217367172241, 0.7203781604766846, 1.988471508026123, 0.8561686277389526, -0.41484811902046204, 
276, 1932800658, 71.9820785522461, -76.44721984863281, -119.66787719726562, 9.515690803527832, 3.1509950160980225, 1.3907209634780884, 1.5099718570709229, 1.6331506967544556, 0.7175955772399902, 
277, 1932808991, 71.96508026123047, -76.45457458496094, -119.65313720703125, 9.10994815826416, 2.6839101314544678, 1.1316184997558594, 0.9939219951629639, 1.0699450969696045, 1.550391435623169, 
278, 1932817324, 71.9596939086914, -76.45990753173828, -119.65132141113281, 9.566278457641602, 1.648055076599121, 0.5761070251464844, 1.0941762924194336, 0.9300658106803894, 1.1713519096374512, 
279, 1932825657, 71.9747314453125, -76.45936584472656, -119.66336822509766, 9.66703987121582, 1.4593766927719116, 0.29937002062797546, 1.9299688339233398, 0.7784807085990906, 0.3786680996417999, 
280, 1932833990, 71.9967041015625, -76.4498291015625, -119.67910766601562, 9.974373817443848, 2.306089162826538, 0.5097120404243469, 2.537717580795288, 0.9822162985801697, -0.6158174276351929, 
281, 1932842323, 72.00031280517578, -76.44692993164062, -119.68140411376953, 9.537046432495117, 3.045984983444214, 1.4827795028686523, 1.6957008838653564, 1.1256048679351807, 0.19803647696971893, 
282, 1932850656, 71.97232055664062, -76.45124053955078, -119.65835571289062, 9.267040252685547, 2.8835973739624023, 1.1802548170089722, 1.1488111019134521, 1.5192441940307617, 1.3177114725112915, 
283, 1932858989, 71.96270751953125, -76.45645904541016, -119.6573715209961, 9.35991096496582, 1.9963586330413818, 0.9755688309669495, 0.43683797121047974, 0.8184900879859924, 1.193482518196106, 
284, 1932867322, 71.97283935546875, -76.458984375, -119.66670227050781, 9.777276992797852, 1.47626793384552, 0.06558924913406372, 1.6562036275863647, 0.7366013526916504, 0.7544288039207458, 
285, 1932875655, 71.99837493896484, -76.45052337646484, -119.68251037597656, 9.725770950317383, 1.9632712602615356, 0.6249199509620667, 2.7497262954711914, 0.971586287021637, -0.5526782870292664, 
286, 1932883988, 72.01350402832031, -76.4457015991211, -119.6954574584961, 9.757369995117188, 2.821521282196045, 1.2251166105270386, 1.8293302059173584, 0.831604540348053, -0.07033669203519821, 
287, 1932892321, 71.98832702636719, -76.44914245605469, -119.67211151123047, 9.381186485290527, 3.019869565963745, 1.2313029766082764, 1.2287533283233643, 1.5760310888290405, 1.1416136026382446, 
288, 1932900654, 71.97854614257812, -76.45620727539062, -119.66584777832031, 9.308690071105957, 2.392646312713623, 1.242462396621704, 0.8442323803901672, 0.8462558388710022, 1.438661813735962, 
289, 1932908987, 71.9693603515625, -76.45872497558594, -119.65254974365234, 9.630561828613281, 1.4677823781967163, 0.12083617597818375, 1.3474751710891724, 1.1192010641098022, 0.9589072465896606, 
290, 1932917320, 71.99581909179688, -76.45462799072266, -119.6732177734375, 9.729454040527344, 1.6548659801483154, 0.6556304097175598, 2.2934858798980713, 0.6791229844093323, -0.10027974098920822, 
291, 1932925653, 72.02396392822266, -76.44744110107422, -119.6969223022461, 9.86678409576416, 2.5491342544555664, 0.47558480501174927, 2.142054319381714, 0.7130617499351501, -0.4765527546405792, 
292, 1932933986, 71.99906921386719, -76.44699096679688, -119.67088317871094, 9.564417839050293, 3.150564670562744, 1.4018361568450928, 1.550519347190857, 1.705203652381897, 0.7621899843215942, 
293, 1932942319, 71.98186492919922, -76.45475769042969, -119.65776824951172, 9.16723918914795, 2.720515251159668, 1.1974881887435913, 0.9984298944473267, 1.1408706903457642, 1.5512362718582153, 
294, 1932950652, 71.9738998413086, -76.45953369140625, -119.65677642822266, 9.512018203735352, 1.7662358283996582, 0.7040762305259705, 0.8733557462692261, 0.8875972628593445, 1.1636416912078857, 
295, 1932958985, 71.98626708984375, -76.45864868164062, -119.6673355102539, 9.744732856750488, 1.4769095182418823, 0.334002822637558, 1.775745153427124, 0.74897301197052, 0.4034882187843323, 
296, 1932967318, 72.00648498535156, -76.44886779785156, -119.67922973632812, 9.867318153381348, 2.189389944076538, 0.5031290054321289, 2.5684800148010254, 1.1246312856674194, -0.6729884147644043, 
297, 1932975651, 72.00911712646484, -76.44660949707031, -119.68038940429688, 9.6116943359375, 3.0022640228271484, 1.490906000137329, 1.7141685485839844, 1.1320339441299438, 0.2803605794906616, 
298, 1932983984, 71.97872924804688, -76.45132446289062, -119.65181732177734, 9.23190975189209, 2.883197069168091, 0.9563650488853455, 1.225602626800537, 1.5909128189086914, 1.3879200220108032, 
299, 1932992317, 71.97586822509766, -76.45848083496094, -119.65744018554688, 9.338357925415039, 2.1216976642608643, 1.130292296409607, 0.5303555727005005, 0.6640106439590454, 1.3156112432479858, 
300, 1933000650, 71.98125457763672, -76.46167755126953, -119.6671142578125, 9.774725914001465, 1.4675174951553345, -0.1286853551864624, 1.380338191986084, 0.7002547979354858, 0.8999432921409607, 
301, 1933008983, 71.99942016601562, -76.45335388183594, -119.67472076416016, 9.849369049072266, 1.8791556358337402, 0.6478414535522461, 2.822906494140625, 1.1038838624954224, -0.4159752130508423, 
302, 1933017316, 72.01531982421875, -76.44816589355469, -119.68954467773438, 9.694541931152344, 2.763646364212036, 1.053615689277649, 1.7070224285125732, 0.8760965466499329, -0.17753228545188904, 
303, 1933025649, 71.98477172851562, -76.44976806640625, -119.65983581542969, 9.464425086975098, 3.0847551822662354, 1.2899285554885864, 1.3327726125717163, 1.8148069381713867, 0.9863401651382446, 
304, 1933033982, 71.97661590576172, -76.4561538696289, -119.65802764892578, 9.186944007873535, 2.430084466934204, 1.2354594469070435, 0.8636223077774048, 0.8327315449714661, 1.3459383249282837, 
305, 1933042315, 71.9751205444336, -76.46041870117188, -119.65927124023438, 9.673410415649414, 1.4655942916870117, 0.1539309322834015, 1.203830599784851, 0.8885193467140198, 1.0206375122070312, 
306, 1933050648, 71.99362182617188, -76.45513153076172, -119.66976165771484, 9.67064380645752, 1.6012296676635742, 0.6122378706932068, 2.2558844089508057, 0.8537609577178955, -0.11172930151224136, 
307, 1933058981, 72.01691436767578, -76.446533203125, -119.68790435791016, 9.85332202911377, 2.625030279159546, 0.6005989909172058, 2.2094712257385254, 0.8326804041862488, -0.5423814058303833, 
308, 1933067314, 72.00083923339844, -76.44676208496094, -119.67193603515625, 9.529326438903809, 3.113574743270874, 1.4252095222473145, 1.4633283615112305, 1.4973697662353516, 0.7131643295288086, 
309, 1933075647, 71.9781723022461, -76.4530029296875, -119.65313720703125, 9.2131929397583, 2.6654560565948486, 1.2231740951538086, 1.0038089752197266, 1.3508306741714478, 1.4220126867294312, 
310, 1933083980, 71.972412109375, -76.457763671875, -119.65352630615234, 9.524544715881348, 1.6505895853042603, 0.6683071851730347, 0.9608539342880249, 0.8506871461868286, 1.153601050376892, 
311, 1933092313, 71.98596954345703, -76.45751953125, -119.66423034667969, 9.788470268249512, 1.4806370735168457, 0.2283366173505783, 1.9060959815979004, 0.8009442687034607, 0.4275656044483185, 
312, 1933100646, 72.00579833984375, -76.44700622558594, -119.67507934570312, 9.928421020507812, 2.2901763916015625, 0.45709115266799927, 2.587101697921753, 1.0884641408920288, -0.706338107585907, 
313, 1933108979, 72.0068588256836, -76.44267272949219, -119.67589569091797, 9.536663055419922, 2.992137908935547, 1.4888629913330078, 1.625825047492981, 1.148862361907959, 0.10492870956659317, 
314, 1933117312, 71.97694396972656, -76.44758605957031, -119.64737701416016, 9.239986419677734, 2.8997814655303955, 1.1242949962615967, 1.270811915397644, 1.6619926691055298, 1.3558768033981323, 
315, 1933125645, 71.96908569335938, -76.454345703125, -119.64743041992188, 9.303187370300293, 2.104766845703125, 1.1102142333984375, 0.5783821940422058, 0.8267122507095337, 1.3205291032791138, 
316, 1933133978, 71.97058868408203, -76.45668029785156, -119.6485366821289, 9.806120872497559, 1.4626078605651855, -0.13216562569141388, 1.4274940490722656, 0.8450775742530823, 0.8416453003883362, 
317, 1933142311, 71.99531555175781, -76.45011901855469, -119.66472625732422, 9.768327713012695, 1.9072133302688599, 0.6938303112983704, 2.609642505645752, 0.8906198143959045, -0.34005460143089294, 
318, 1933150644, 72.01284790039062, -76.44486999511719, -119.6812515258789, 9.763137817382812, 2.7372143268585205, 0.99125736951828, 1.8883453607559204, 0.7955140471458435, -0.1400330364704132, 
319, 1933158977, 71.9795150756836, -76.44708251953125, -119.65890502929688, 9.3460054397583, 3.011080503463745, 1.3287038803100586, 1.144405484199524, 1.7394752502441406, 1.1289857625961304, 
320, 1933167310, 71.97338104248047, -76.45520782470703, -119.65841674804688, 9.225617408752441, 2.4289286136627197, 1.2328282594680786, 0.8530436158180237, 0.7924403548240662, 1.4745475053787231, 
321, 1933175643, 71.96507263183594, -76.45906829833984, -119.65185546875, 9.587674140930176, 1.500293254852295, 0.2452877312898636, 1.2998327016830444, 1.112771987915039, 1.0433573722839355, 
322, 1933183976, 71.98407745361328, -76.4551010131836, -119.67047882080078, 9.751837730407715, 1.660194754600525, 0.6098964214324951, 2.163647174835205, 0.7672104239463806, 0.024167031049728394, 
323, 1933192309, 72.00634765625, -76.44773864746094, -119.68775939941406, 9.917896270751953, 2.542461633682251, 0.5497196316719055, 2.1874427795410156, 0.888954758644104, -0.4444325566291809, 
324, 1933200642, 71.98098754882812, -76.44629669189453, -119.66666412353516, 9.502985954284668, 3.0476114749908447, 1.3889477252960205, 1.4349735975265503, 1.7292042970657349, 0.6522793173789978, 
325, 1933208975, 71.96009063720703, -76.45234680175781, -119.65177154541016, 9.1542387008667, 2.735452651977539, 1.2103646993637085, 1.082034945487976, 1.2402029037475586, 1.4408904314041138, 
326, 1933217308, 71.95594787597656, -76.45822143554688, -119.65313720703125, 9.461419105529785, 1.7291113138198853, 0.7693859338760376, 0.8705125451087952, 0.8272757530212402, 1.2007825374603271, 
327, 1933225641, 71.96903228759766, -76.45938873291016, -119.66353607177734, 9.758258819580078, 1.445213794708252, 0.21340177953243256, 1.887628197669983, 0.757067084312439, 0.5913686156272888, 
328, 1933233974, 71.98431396484375, -76.45124053955078, -119.6709976196289, 9.823467254638672, 2.303730010986328, 0.6602426171302795, 2.4790098667144775, 1.100502848625183, -0.39366522431373596, 
329, 1933242307, 71.98906707763672, -76.44940948486328, -119.67341613769531, 9.640402793884277, 2.984344482421875, 1.4728959798812866, 1.8192381858825684, 1.0822398662567139, 0.32026758790016174, 
330, 1933250640, 71.9560546875, -76.4544448852539, -119.65798950195312, 9.242058753967285, 2.870600938796997, 1.1420321464538574, 0.8996871709823608, 1.5704214572906494, 1.4179143905639648, 
331, 1933258973, 71.95303344726562, -76.4612045288086, -119.6627426147461, 9.407147407531738, 2.059375047683716, 0.9551334381103516, 0.6367570757865906, 0.6226180195808411, 1.3343863487243652, 
332, 1933267306, 71.95345306396484, -76.46283721923828, -119.66234588623047, 9.792206764221191, 1.4004369974136353, -0.006076485849916935, 1.6242883205413818, 1.0293464660644531, 0.735986590385437, 
333, 1933275639, 71.98184967041016, -76.45516204833984, -119.6801986694336, 9.895792961120605, 1.9169113636016846, 0.5902132391929626, 2.852926254272461, 0.8878533840179443, -0.48375046253204346, 
334, 1933283972, 71.99491119384766, -76.44847106933594, -119.69111633300781, 9.652350425720215, 2.835455894470215, 0.9912945628166199, 1.8105804920196533, 0.950275182723999, -0.2565777897834778, 
335, 1933292305, 71.96919250488281, -76.45170593261719, -119.66683959960938, 9.349931716918945, 3.0342345237731934, 1.3477091789245605, 1.273552417755127, 1.607792615890503, 1.1269110441207886, 
336, 1933300638, 71.95915985107422, -76.45906829833984, -119.65576171875, 9.196944236755371, 2.485509157180786, 1.3077807426452637, 0.8438481092453003, 0.8437456488609314, 1.466965675354004, 
337, 1933308971, 71.95574188232422, -76.46306610107422, -119.65574645996094, 9.638931274414062, 1.4868571758270264, 0.23312115669250488, 1.1675353050231934, 0.8588325381278992, 1.0573172569274902, 
338, 1933317304, 71.97624969482422, -76.4590072631836, -119.67079162597656, 9.733675956726074, 1.619378685951233, 0.6108869910240173, 2.2365710735321045, 0.8291711807250977, -0.04859020560979843, 
339, 1933325637, 71.99931335449219, -76.45074462890625, -119.68883514404297, 9.971439361572266, 2.511122226715088, 0.5764327049255371, 2.1918230056762695, 0.9030938148498535, -0.5500401258468628, 
340, 1933333970, 71.9864501953125, -76.44993591308594, -119.67521667480469, 9.471210479736328, 3.0690388679504395, 1.422102928161621, 1.6077669858932495, 1.3973973989486694, 0.6268444061279297, 
341, 1933342303, 71.96704864501953, -76.45684814453125, -119.6601333618164, 9.14440631866455, 2.7787222862243652, 1.0628725290298462, 0.9595476984977722, 1.2271397113800049, 1.4625087976455688, 
342, 1933350636, 71.9697265625, -76.46184539794922, -119.66189575195312, 9.43030834197998, 1.7410879135131836, 0.9836809039115906, 0.9669244885444641, 0.6048416495323181, 1.1122084856033325, 
343, 1933358969, 71.98191833496094, -76.46143341064453, -119.67020416259766, 9.809894561767578, 1.475953221321106, 0.09232348948717117, 1.7646286487579346, 0.7345009446144104, 0.4564584493637085, 
344, 1933367302, 72.00557708740234, -76.45276641845703, -119.6846694946289, 9.942392349243164, 2.2414753437042236, 0.6146116256713867, 2.6802608966827393, 1.0120569467544556, -0.5634875893592834, 
345, 1933375635, 72.01040649414062, -76.44943237304688, -119.68682861328125, 9.56969928741455, 3.026672601699829, 1.3821855783462524, 1.8601183891296387, 1.1465829610824585, 0.1497536152601242, 
346, 1933383968, 71.97867584228516, -76.45365905761719, -119.655517578125, 9.29361343383789, 2.8473455905914307, 1.1114014387130737, 1.09937584400177, 1.6156818866729736, 1.3281621932983398, 
347, 1933392301, 71.97445678710938, -76.46089172363281, -119.6602554321289, 9.379953384399414, 2.1056113243103027, 0.9692528247833252, 0.4692399799823761, 0.6847068667411804, 1.3338996171951294, 
348, 1933400634, 71.97509002685547, -76.46195983886719, -119.66168975830078, 9.730805397033691, 1.431907296180725, 0.016494376584887505, 1.562455415725708, 0.9470991492271423, 0.7119604349136353, 
349, 1933408967, 71.99994659423828, -76.45399475097656, -119.67744445800781, 9.724822044372559, 1.9282811880111694, 0.7300150990486145, 2.6714751720428467, 0.8696672916412354, -0.4454059302806854, 
350, 1933417300, 72.01589965820312, -76.44892120361328, -119.69120025634766, 9.805870056152344, 2.8146910667419434, 1.050901174545288, 1.8381158113479614, 0.9009166955947876, -0.1524815410375595, 
351, 1933425633, 71.99053955078125, -76.4521484375, -119.66747283935547, 9.356446266174316, 3.0233354568481445, 1.3151121139526367, 1.256391167640686, 1.5941147804260254, 1.1171777248382568, 
352, 1933433966, 71.98318481445312, -76.45951080322266, -119.65184020996094, 9.310053825378418, 2.4678080081939697, 1.1429252624511719, 0.9317818880081177, 0.7877529859542847, 1.4677084684371948, 
353, 1933442299, 71.9771499633789, -76.46363830566406, -119.6489028930664, 9.584832191467285, 1.4744277000427246, 0.2679782211780548, 1.1473511457443237, 1.006575345993042, 1.0407449007034302, 
354, 1933450632, 71.99517059326172, -76.45874786376953, -119.66213989257812, 9.754247665405273, 1.6295504570007324, 0.5869209170341492, 2.2974045276641846, 0.8602157235145569, -0.061832770705223083, 
355, 1933458965, 72.01541137695312, -76.44984436035156, -119.67644500732422, 9.910770416259766, 2.5101611614227295, 0.5546078681945801, 2.1260454654693604, 0.9038622975349426, -0.556546151638031, 
356, 1933467298, 72.0065689086914, -76.44877624511719, -119.66659545898438, 9.534835815429688, 3.1233420372009277, 1.4146146774291992, 1.6163990497589111, 1.3843084573745728, 0.5079174637794495, 
357, 1933475631, 71.98352813720703, -76.45628356933594, -119.64812469482422, 9.127182006835938, 2.790031671524048, 1.195128083229065, 0.9221509099006653, 1.2940438985824585, 1.565964698791504, 
358, 1933483964, 71.98060607910156, -76.46154022216797, -119.6494140625, 9.47492504119873, 1.7602431774139404, 0.8365578055381775, 0.9356240034103394, 0.7460786700248718, 1.1844918727874756, 
359, 1933492297, 71.99275970458984, -76.4614028930664, -119.6587142944336, 9.764345169067383, 1.4356414079666138, 0.11713959276676178, 1.9032785892486572, 0.8346013426780701, 0.4495426118373871, 
360, 1933500630, 72.01366424560547, -76.45181274414062, -119.66282653808594, 9.8923978805542, 2.154313325881958, 0.6003068685531616, 2.5661239624023438, 1.0185372829437256, -0.6017552018165588, 
361, 1933508963, 72.01768493652344, -76.4475326538086, -119.66861724853516, 9.570260047912598, 2.9910950660705566, 1.3282116651535034, 1.7222884893417358, 1.082957148551941, 0.09020054340362549, 
362, 1933517296, 71.9854736328125, -76.45181274414062, -119.63924407958984, 9.213955879211426, 2.884129762649536, 1.0660473108291626, 1.0886690616607666, 1.7079957723617554, 1.287973403930664, 
363, 1933525629, 71.98538208007812, -76.4594497680664, -119.64665222167969, 9.38381576538086, 2.1591286659240723, 1.1470080614089966, 0.6590414643287659, 0.597183108329773, 1.3552875518798828, 
364, 1933533962, 71.98482513427734, -76.46124267578125, -119.64521789550781, 9.71461296081543, 1.422536015510559, 0.006566366646438837, 1.6521564722061157, 0.9750954508781433, 0.8117534518241882, 
365, 1933542295, 72.01553344726562, -76.4544906616211, -119.6665267944336, 9.821269989013672, 1.8909968137741089, 0.641574501991272, 2.733384847640991, 0.7602945566177368, -0.4046024680137634, 
366, 1933550628, 72.03652954101562, -76.4476318359375, -119.68487548828125, 9.754525184631348, 2.7219161987304688, 0.958280622959137, 1.9198765754699707, 0.763342559337616, -0.34745708107948303, 
367, 1933558961, 72.00725555419922, -76.44914245605469, -119.65679931640625, 9.481391906738281, 3.0958340167999268, 1.3686549663543701, 1.2549567222595215, 1.6827143430709839, 1.0151560306549072, 
368, 1933567294, 71.99654388427734, -76.45635986328125, -119.65167999267578, 9.239689826965332, 2.484260082244873, 1.1502662897109985, 0.8414916396141052, 0.948354184627533, 1.419861078262329, 
369, 1933575627, 71.99267578125, -76.46063232421875, -119.65083312988281, 9.578798294067383, 1.5056151151657104, 0.33369719982147217, 1.163155198097229, 0.9421811699867249, 1.0407192707061768, 
370, 1933583960, 72.00750732421875, -76.45641326904297, -119.66334533691406, 9.577215194702148, 1.6133838891983032, 0.5560364723205566, 2.1725096702575684, 0.8932323455810547, 0.031492702662944794, 
371, 1933592293, 72.02989959716797, -76.4492416381836, -119.6800765991211, 9.95479679107666, 2.5282351970672607, 0.6123067736625671, 2.262415885925293, 0.8978172540664673, -0.4143871068954468, 
372, 1933600626, 72.0173568725586, -76.4483413696289, -119.66692352294922, 9.487821578979492, 3.078718900680542, 1.448508381843567, 1.5797450542449951, 1.3853586912155151, 0.6126284003257751, 
373, 1933608959, 71.98948669433594, -76.45440673828125, -119.64124298095703, 9.231836318969727, 2.6850342750549316, 1.2471555471420288, 0.9307060241699219, 1.4012140035629272, 1.4956791400909424, 
374, 1933617292, 71.98727416992188, -76.46038055419922, -119.64495849609375, 9.47385311126709, 1.7741053104400635, 0.7730581760406494, 0.8286588788032532, 0.757784366607666, 1.198835849761963, 
375, 1933625625, 71.99681091308594, -76.46041870117188, -119.65113067626953, 9.796674728393555, 1.4556059837341309, 0.16219095885753632, 1.9587844610214233, 0.9128785133361816, 0.49357348680496216, 
376, 1933633958, 72.02066802978516, -76.4510498046875, -119.6681137084961, 9.865998268127441, 2.174708843231201, 0.5757491588592529, 2.7055675983428955, 0.956345796585083, -0.595863938331604, 
377, 1933642291, 72.02580261230469, -76.44625854492188, -119.67119598388672, 9.644134521484375, 3.007418632507324, 1.3569436073303223, 1.7831476926803589, 1.1739388704299927, -0.027970748022198677, 
378, 1933650624, 71.99581146240234, -76.45000457763672, -119.64281463623047, 9.242753028869629, 2.938476324081421, 1.1134943962097168, 1.2615653276443481, 1.6234430074691772, 1.2754993438720703, 
379, 1933658957, 71.99016571044922, -76.45772552490234, -119.64518737792969, 9.318970680236816, 2.2444427013397217, 1.1639107465744019, 0.6071726083755493, 0.6506143808364868, 1.4611512422561646, 
380, 1933667290, 71.98880004882812, -76.46210479736328, -119.64473724365234, 9.706534385681152, 1.4432141780853271, -0.06852956116199493, 1.4200658798217773, 0.9293227791786194, 1.0520660877227783, 
381, 1933675623, 72.01205444335938, -76.4571762084961, -119.66098022460938, 9.737385749816895, 1.7734485864639282, 0.7742797136306763, 2.4221460819244385, 0.8279416561126709, -0.16326512396335602, 
382, 1933683956, 72.03254699707031, -76.45093536376953, -119.67921447753906, 9.864259719848633, 2.568756341934204, 0.7923041582107544, 2.080247163772583, 0.7874199748039246, -0.24794581532478333, 
383, 1933692289, 72.00697326660156, -76.45262145996094, -119.65401458740234, 9.468347549438477, 3.1523101329803467, 1.4240230321884155, 1.3990110158920288, 1.6904240846633911, 0.9582412838935852, 
384, 1933700622, 71.99288940429688, -76.46041870117188, -119.64400482177734, 9.15087604522705, 2.608224391937256, 1.0950864553451538, 0.8607536554336548, 0.9374170303344727, 1.5668612718582153, 
385, 1933708955, 71.9898681640625, -76.46453094482422, -119.64677429199219, 9.535967826843262, 1.5875873565673828, 0.5080104470252991, 1.1591850519180298, 0.84300297498703, 1.0678192377090454, 
386, 1933717288, 72.01146697998047, -76.46223449707031, -119.6641616821289, 9.737374305725098, 1.5195763111114502, 0.39827337861061096, 2.094437599182129, 0.6989485025405884, 0.13236157596111298, 
387, 1933725621, 72.0398178100586, -76.45479583740234, -119.68685150146484, 9.902997970581055, 2.479133367538452, 0.5726473331451416, 2.282343864440918, 0.7478972673416138, -0.49430352449417114, 
388, 1933733954, 72.02542114257812, -76.4522476196289, -119.67204284667969, 9.578643798828125, 3.123425006866455, 1.4326711893081665, 1.5637105703353882, 1.4941935539245605, 0.4374527037143707, 
389, 1933742287, 71.998291015625, -76.45925903320312, -119.64837646484375, 9.148234367370605, 2.72619891166687, 1.1834912300109863, 1.0339313745498657, 1.452493667602539, 1.5503400564193726, 
390, 1933750620, 71.99315643310547, -76.4649658203125, -119.64751434326172, 9.446981430053711, 1.8756685256958008, 0.8921598196029663, 0.7756118774414062, 0.7490499019622803, 1.242943525314331, 
391, 1933758953, 72.00577545166016, -76.46526336669922, -119.6645736694336, 9.728114128112793, 1.4041364192962646, 0.013640551827847958, 1.9157270193099976, 0.728635311126709, 0.5461338758468628, 
392, 1933767286, 72.02508544921875, -76.45711517333984, -119.67423248291016, 9.856706619262695, 2.141479015350342, 0.6786648035049438, 2.722524404525757, 1.1218138933181763, -0.4614917039871216, 
393, 1933775619, 72.03820037841797, -76.45418548583984, -119.6844482421875, 9.647839546203613, 2.9236786365509033, 1.3382761478424072, 1.9111422300338745, 0.9139031171798706, 0.12214148789644241, 
394, 1933783952, 72.00381469726562, -76.45841217041016, -119.64859008789062, 9.36713695526123, 2.98117995262146, 1.1947675943374634, 1.1378995180130005, 1.6916794776916504, 1.3575161695480347, 
395, 1933792285, 71.99835205078125, -76.4654312133789, -119.65092468261719, 9.30275821685791, 2.187103271484375, 1.1066735982894897, 0.6016399264335632, 0.7564011812210083, 1.3296732902526855, 
396, 1933800618, 71.99195861816406, -76.46776580810547, -119.64749908447266, 9.766403198242188, 1.470416784286499, 0.008572067134082317, 1.332106590270996, 1.0369282960891724, 0.9074225425720215, 
397, 1933808951, 72.01171112060547, -76.46089172363281, -119.65950775146484, 9.723925590515137, 1.737074851989746, 0.5599744319915771, 2.5179688930511475, 0.9338053464889526, -0.28654640913009644, 
398, 1933817284, 72.03291320800781, -76.45401000976562, -119.6773452758789, 9.817933082580566, 2.7272255420684814, 0.8526556491851807, 1.9929794073104858, 0.8572699427604675, -0.39289677143096924, 
399, 1933825617, 72.00775909423828, -76.45594787597656, -119.65289306640625, 9.383683204650879, 3.1178407669067383, 1.3919615745544434, 1.3637913465499878, 1.6614288091659546, 0.9764273166656494, 
400, 1933833950, 71.99300384521484, -76.4632568359375, -119.63977813720703, 9.208198547363281, 2.5983951091766357, 1.198630928993225, 0.9754540920257568, 0.9987629652023315, 1.5286190509796143, 
401, 1933842283, 71.98584747314453, -76.46902465820312, -119.6361312866211, 9.58775806427002, 1.5786162614822388, 0.48306313157081604, 1.0972753763198853, 0.9633384346961975, 1.2362836599349976, 
402, 1933850616, 71.99894714355469, -76.46659851074219, -119.64662170410156, 9.720499038696289, 1.5846139192581177, 0.47114843130111694, 2.107090950012207, 0.8579359650611877, 0.2505456507205963, 
403, 1933858949, 72.01776885986328, -76.45720672607422, -119.66073608398438, 10.004804611206055, 2.3647572994232178, 0.4631617069244385, 2.3127477169036865, 1.0031944513320923, -0.5794196128845215, 
404, 1933867282, 72.01126098632812, -76.45677947998047, -119.65437316894531, 9.49752426147461, 3.04260516166687, 1.5004994869232178, 1.4917346239089966, 1.265304684638977, 0.5543304085731506, 
405, 1933875615, 71.97940063476562, -76.46286010742188, -119.62581634521484, 9.127854347229004, 2.821341037750244, 1.0854343175888062, 1.039771556854248, 1.617347002029419, 1.4880975484848022, 
406, 1933883948, 71.97554779052734, -76.4681625366211, -119.62691497802734, 9.391060829162598, 1.825398325920105, 1.0646291971206665, 0.7140352129936218, 0.7155720591545105, 1.1738619804382324, 
407, 1933892281, 71.98837280273438, -76.46897888183594, -119.63748931884766, 9.836956977844238, 1.4481474161148071, -0.047703955322504044, 1.8323783874511719, 0.7657504081726074, 0.5520252585411072, 
408, 1933900614, 72.0103759765625, -76.46012115478516, -119.64964294433594, 9.84669303894043, 2.1063246726989746, 0.5889505743980408, 2.7604589462280273, 1.0001462697982788, -0.5185858011245728, 
409, 1933908947, 72.01423645019531, -76.45588684082031, -119.65121459960938, 9.682645797729492, 3.0042192935943604, 1.2829363346099854, 1.8116049766540527, 1.1117218732833862, 0.10526169091463089, 
410, 1933917280, 71.9869384765625, -76.4604721069336, -119.6266098022461, 9.3197603225708, 2.918184518814087, 1.2665380239486694, 1.1249643564224243, 1.5662720203399658, 1.2834140062332153, 
411, 1933925613, 71.98026275634766, -76.46754455566406, -119.6277084350586, 9.322250366210938, 2.198984146118164, 1.069500207901001, 0.6006922125816345, 0.7875993251800537, 1.3466813564300537, 
412, 1933933946, 71.9752197265625, -76.46910858154297, -119.62348175048828, 9.766633987426758, 1.4391037225723267, 0.10459569841623306, 1.5088962316513062, 1.0706621408462524, 0.8190792798995972, 
413, 1933942279, 72.0015869140625, -76.46299743652344, -119.64241790771484, 9.70654582977295, 1.8472603559494019, 0.738082230091095, 2.4853622913360596, 0.7993818521499634, -0.3132364749908447, 
414, 1933950612, 72.01441955566406, -76.4558334350586, -119.65118408203125, 9.839147567749023, 2.6796038150787354, 0.7926427721977234, 1.9777135848999023, 1.0120824575424194, -0.3026321828365326, 
415, 1933958945, 71.98406219482422, -76.4565658569336, -119.62240600585938, 9.40133285522461, 3.0723676681518555, 1.4779882431030273, 1.3025476932525635, 1.7537682056427002, 0.9395428895950317, 
416, 1933967278, 71.97149658203125, -76.46400451660156, -119.61396026611328, 9.210052490234375, 2.564401388168335, 1.0623853206634521, 1.0053460597991943, 1.0275022983551025, 1.4705005884170532, 
417, 1933975611, 71.96288299560547, -76.46871185302734, -119.60833740234375, 9.592976570129395, 1.5029046535491943, 0.405280202627182, 1.1518081426620483, 1.055344820022583, 1.134416103363037, 
418, 1933983944, 71.98136138916016, -76.464599609375, -119.62960052490234, 9.745024681091309, 1.5761804580688477, 0.49188387393951416, 2.1054770946502686, 0.7688496708869934, 0.005519867409020662, 
419, 1933992277, 72.001953125, -76.45631408691406, -119.64424896240234, 9.896783828735352, 2.450016736984253, 0.4855937659740448, 2.290053606033325, 0.9939988255500793, -0.5240672826766968, 
420, 1934000610, 71.99214935302734, -76.45436096191406, -119.63594055175781, 9.563628196716309, 3.057976722717285, 1.5314663648605347, 1.4415819644927979, 1.3196070194244385, 0.4502854645252228, 
421, 1934008943, 71.96467590332031, -76.45948028564453, -119.61193084716797, 9.125846862792969, 2.7639811038970947, 1.1674115657806396, 1.0199203491210938, 1.4408390522003174, 1.401700496673584, 
422, 1934017276, 71.96553039550781, -76.46600341796875, -119.61974334716797, 9.434858322143555, 1.8640738725662231, 0.9878859519958496, 0.7207717299461365, 0.6277664303779602, 1.225372076034546, 
423, 1934025609, 71.97663116455078, -76.46726989746094, -119.62946319580078, 9.803980827331543, 1.4393858909606934, 0.055253203958272934, 1.7270013093948364, 0.7712574601173401, 0.6092730164527893, 
424, 1934033942, 71.99468994140625, -76.45906829833984, -119.6319808959961, 9.862006187438965, 2.1898419857025146, 0.6695940494537354, 2.6031622886657715, 1.0535264015197754, -0.4213029742240906, 
425, 1934042275, 72.00232696533203, -76.45577239990234, -119.6379623413086, 9.587339401245117, 2.934972047805786, 1.2772266864776611, 1.7458789348602295, 1.0410009622573853, 0.12360149621963501, 
426, 1934050608, 71.97083282470703, -76.46064758300781, -119.60934448242188, 9.250955581665039, 2.9499804973602295, 1.1337544918060303, 1.0857234001159668, 1.577593445777893, 1.3990111351013184, 
427, 1934058941, 71.96871948242188, -76.46793365478516, -119.61563110351562, 9.315483093261719, 2.1736273765563965, 1.090129017829895, 0.6016656160354614, 0.5699551105499268, 1.3886371850967407, 
428, 1934067274, 71.96981048583984, -76.47054290771484, -119.61698150634766, 9.761122703552246, 1.3977172374725342, 0.0028967196121811867, 1.5053099393844604, 0.9457927346229553, 0.8326546549797058, 
429, 1934075607, 71.99797821044922, -76.4642105102539, -119.63619995117188, 9.840126991271973, 1.8169342279434204, 0.6734832525253296, 2.669656276702881, 0.8009698987007141, -0.3441784679889679, 
430, 1934083940, 72.0107192993164, -76.45781707763672, -119.64506530761719, 9.770354270935059, 2.7509946823120117, 0.9202290177345276, 1.9273046255111694, 0.97271329164505, -0.2098061889410019, 
431, 1934092273, 71.9860610961914, -76.45988464355469, -119.62112426757812, 9.423806190490723, 3.121152400970459, 1.4572136402130127, 1.3650466203689575, 1.6429353952407837, 0.9883379936218262, 
432, 1934100606, 71.97462463378906, -76.46714782714844, -119.61370086669922, 9.19808292388916, 2.522026777267456, 1.0873959064483643, 0.8945643901824951, 0.8928226232528687, 1.4824366569519043, 
433, 1934108939, 71.9694595336914, -76.47026824951172, -119.60841369628906, 9.593598365783691, 1.4905626773834229, 0.3441879153251648, 1.2016278505325317, 0.949711799621582, 0.9775801301002502, 
434, 1934117272, 71.98741912841797, -76.46709442138672, -119.62159729003906, 9.66297435760498, 1.569301724433899, 0.49703124165534973, 2.152069568634033, 0.8446165323257446, 0.07677866518497467, 
435, 1934125605, 72.00747680664062, -76.45953369140625, -119.6360092163086, 9.948302268981934, 2.5984058380126953, 0.61277174949646, 2.2522213459014893, 0.9726876616477966, -0.4382852017879486, 
436, 1934133938, 71.99244689941406, -76.45861053466797, -119.62237548828125, 9.515287399291992, 3.0918476581573486, 1.4416860342025757, 1.6262606382369995, 1.4633285999298096, 0.6341188549995422, 
437, 1934142271, 71.9647445678711, -76.4661865234375, -119.59956359863281, 9.225691795349121, 2.6400561332702637, 1.2566757202148438, 0.8673107624053955, 1.4068745374679565, 1.6111481189727783, 
438, 1934150604, 71.96097564697266, -76.47087097167969, -119.60027313232422, 9.463969230651855, 1.743283748626709, 0.8057892322540283, 0.8288125991821289, 0.7613703608512878, 1.1127721071243286, 
439, 1934158937, 71.96227264404297, -76.46968078613281, -119.60358428955078, 9.77719783782959, 1.4952905178070068, 0.14022988080978394, 1.821236252784729, 1.0721991062164307, 0.4750032126903534, 
440, 1934167270, 71.98639678955078, -76.46080780029297, -119.6193618774414, 9.87055778503418, 2.1760036945343018, 0.5337406992912292, 2.5870249271392822, 0.9868268370628357, -0.6011660695075989, 
441, 1934175603, 71.9935302734375, -76.4568099975586, -119.6244125366211, 9.644091606140137, 2.935555934906006, 1.3488411903381348, 1.795954942703247, 1.0915123224258423, 0.05088268220424652, 
442, 1934183936, 71.96037292480469, -76.45988464355469, -119.5960922241211, 9.29074478149414, 2.9005837440490723, 1.1332674026489258, 1.220710277557373, 1.7187535762786865, 1.2216325998306274, 
443, 1934192269, 71.95772552490234, -76.46731567382812, -119.59971618652344, 9.348196029663086, 2.258772373199463, 1.0968629121780396, 0.7898790240287781, 0.7054033279418945, 1.3638684749603271, 
444, 1934200602, 71.95201110839844, -76.47077178955078, -119.59693908691406, 9.691153526306152, 1.454664707183838, -0.05838194862008095, 1.4600753784179688, 1.0031687021255493, 1.043664813041687, 
445, 1934208935, 71.97566223144531, -76.46468353271484, -119.61300659179688, 9.744245529174805, 1.8340948820114136, 0.7203018069267273, 2.533389091491699, 0.8013797998428345, -0.23068182170391083, 
446, 1934217268, 71.99236297607422, -76.4590072631836, -119.62686157226562, 9.867311477661133, 2.6469647884368896, 0.9134969711303711, 1.9177762269973755, 0.9188466668128967, -0.22450877726078033, 
447, 1934225601, 71.95982360839844, -76.46050262451172, -119.59616088867188, 9.376245498657227, 3.07718563079834, 1.383848786354065, 1.208031415939331, 1.8423423767089844, 0.9853412508964539, 
448, 1934233934, 71.94757080078125, -76.46747589111328, -119.59121704101562, 9.179360389709473, 2.5638651847839355, 1.1237850189208984, 0.8044533729553223, 0.9065518379211426, 1.451776385307312, 
449, 1934242267, 71.94535064697266, -76.4725570678711, -119.59180450439453, 9.585944175720215, 1.5194100141525269, 0.38627418875694275, 1.1971198320388794, 0.8725618124008179, 1.1183561086654663, 
450, 1934250600, 71.96629333496094, -76.46846771240234, -119.60774993896484, 9.80012035369873, 1.5168648958206177, 0.33922049403190613, 2.2247114181518555, 0.7307869791984558, 0.0028303733561187983, 
451, 1934258933, 71.98735046386719, -76.45966339111328, -119.62244415283203, 9.935697555541992, 2.5139596462249756, 0.6191027164459229, 2.2812931537628174, 0.9147995710372925, -0.5355167984962463, 
452, 1934267266, 71.97701263427734, -76.45886993408203, -119.61174774169922, 9.507200241088867, 3.1413156986236572, 1.3675373792648315, 1.5352786779403687, 1.3931965827941895, 0.5488232970237732, 
453, 1934275599, 71.95055389404297, -76.46515655517578, -119.58891296386719, 9.100394248962402, 2.7379229068756104, 1.2509182691574097, 1.0219439268112183, 1.4566431045532227, 1.460024118423462, 
454, 1934283932, 71.94436645507812, -76.47135925292969, -119.5871353149414, 9.492826461791992, 1.7697677612304688, 0.8583194613456726, 0.7694387435913086, 0.7555558681488037, 1.3069021701812744, 
455, 1934292265, 71.95093536376953, -76.4730224609375, -119.59040832519531, 9.73668098449707, 1.3740789890289307, 0.046562790870666504, 1.9377810955047607, 0.930834174156189, 0.7011513113975525, 
456, 1934300598, 71.97022247314453, -76.46389770507812, -119.5971908569336, 9.878706932067871, 2.2449705600738525, 0.7155161499977112, 2.7339227199554443, 1.080498218536377, -0.5105941295623779, 
457, 1934308931, 71.97856903076172, -76.46074676513672, -119.61090087890625, 9.607464790344238, 2.9986298084259033, 1.27131187915802, 1.660327434539795, 0.9063469171524048, 0.17974787950515747, 
458, 1934317264, 71.94857788085938, -76.46485137939453, -119.58426666259766, 9.301072120666504, 2.912494659423828, 1.2352944612503052, 1.03890061378479, 1.6379152536392212, 1.2432767152786255, 
459, 1934325597, 71.94522094726562, -76.4721908569336, -119.58897399902344, 9.370540618896484, 2.0596611499786377, 0.9727362990379333, 0.5761281847953796, 0.6795840263366699, 1.346271276473999, 
460, 1934333930, 71.9421615600586, -76.47295379638672, -119.5857925415039, 9.738637924194336, 1.4380221366882324, 0.0453408807516098, 1.5727523565292358, 1.0559595823287964, 0.7220524549484253, 
461, 1934342263, 71.96968841552734, -76.46712493896484, -119.60504150390625, 9.777307510375977, 1.8561489582061768, 0.6152946949005127, 2.591174364089966, 0.7826045751571655, -0.2872892916202545, 
462, 1934350596, 71.98353576660156, -76.46063232421875, -119.6147689819336, 9.762271881103516, 2.7427144050598145, 0.8649160861968994, 1.9295587539672852, 0.9447938203811646, -0.23790501058101654, 
463, 1934358929, 71.95259094238281, -76.46224975585938, -119.582763671875, 9.406903266906738, 3.0650486946105957, 1.4302394390106201, 1.2157669067382812, 1.7097375392913818, 1.043255090713501, 
464, 1934367262, 71.94537353515625, -76.46951293945312, -119.57906341552734, 9.197277069091797, 2.4856972694396973, 1.1497163772583008, 1.095328688621521, 0.9075507521629333, 1.4050559997558594, 
465, 1934375595, 71.93692016601562, -76.47429656982422, -119.5730209350586, 9.638449668884277, 1.5604506731033325, 0.4556742310523987, 1.2210177183151245, 1.0614668130874634, 1.146301031112671, 
466, 1934383928, 71.95513153076172, -76.4697494506836, -119.5892333984375, 9.678654670715332, 1.601951241493225, 0.4811854362487793, 2.099560260772705, 0.7916719317436218, -0.0416487418115139, 
467, 1934392261, 71.9748306274414, -76.46122741699219, -119.60318756103516, 10.000225067138672, 2.4427313804626465, 0.588009238243103, 2.265899419784546, 1.020714521408081, -0.5440976023674011, 
468, 1934400594, 71.96656036376953, -76.459716796875, -119.59432983398438, 9.464566230773926, 3.0394883155822754, 1.4064205884933472, 1.5280810594558716, 1.2764211893081665, 0.504510760307312, 
469, 1934408927, 71.93584442138672, -76.46531677246094, -119.56785583496094, 9.126028060913086, 2.7512972354888916, 1.1086838245391846, 0.8661324977874756, 1.4758793115615845, 1.4666838645935059, 
470, 1934417260, 71.93486022949219, -76.47200012207031, -119.57295227050781, 9.431073188781738, 1.8229092359542847, 0.9744747281074524, 0.8194633722305298, 0.6929803490638733, 1.264459490776062, 
471, 1934425593, 71.94358825683594, -76.4724349975586, -119.57958221435547, 9.775886535644531, 1.4867608547210693, 0.013626297004520893, 1.8050481081008911, 0.8855994343757629, 0.5364518165588379, 
472, 1934433926, 71.96639251708984, -76.4632568359375, -119.59432220458984, 9.869582176208496, 2.148024082183838, 0.6354595422744751, 2.6749839782714844, 0.9717144966125488, -0.5650755763053894, 
473, 1934442259, 71.97358703613281, -76.45977783203125, -119.59866333007812, 9.66097640991211, 2.9555118083953857, 1.3416690826416016, 1.8901641368865967, 1.0912305116653442, 0.11581476777791977, 
474, 1934450592, 71.94789123535156, -76.46404266357422, -119.57267761230469, 9.35062026977539, 2.949310541152954, 1.2384213209152222, 1.234900712966919, 1.4721653461456299, 1.297066330909729, 
475, 1934458925, 71.93702697753906, -76.47030639648438, -119.57132720947266, 9.327228546142578, 2.1660311222076416, 0.8646857142448425, 0.566855788230896, 0.8343965411186218, 1.3370758295059204, 
476, 1934467258, 71.93685150146484, -76.4738998413086, -119.57150268554688, 9.744695663452148, 1.4552534818649292, 0.1494574099779129, 1.4880462884902954, 0.9400551915168762, 0.9568069577217102, 
477, 1934475591, 71.96485137939453, -76.46773529052734, -119.59197235107422, 9.680397987365723, 1.8430660963058472, 0.6874222755432129, 2.503087282180786, 0.7622155547142029, -0.3369296193122864, 
478, 1934483924, 71.97969818115234, -76.46173095703125, -119.60749053955078, 9.836782455444336, 2.726360559463501, 0.9099075198173523, 2.0411598682403564, 0.9263771772384644, -0.17545750737190247, 
479, 1934492257, 71.95613861083984, -76.46430969238281, -119.58594512939453, 9.408074378967285, 3.09214448928833, 1.4066828489303589, 1.2159719467163086, 1.5572303533554077, 1.0307040214538574, 
480, 1934500590, 71.94622802734375, -76.47115325927734, -119.58245086669922, 9.216349601745605, 2.4984958171844482, 1.09479558467865, 1.0061655044555664, 0.8885193467140198, 1.431259274482727, 
481, 1934508923, 71.939453125, -76.47496795654297, -119.57749938964844, 9.591489791870117, 1.490186095237732, 0.4250809848308563, 1.232262372970581, 0.9702287316322327, 1.0772194862365723, 
482, 1934517256, 71.96050262451172, -76.47223663330078, -119.59386444091797, 9.725203514099121, 1.5869171619415283, 0.4634491205215454, 2.146383047103882, 0.7423901557922363, 0.09089210629463196, 
483, 1934525589, 71.98458099365234, -76.46297454833984, -119.61274719238281, 9.943170547485352, 2.459947347640991, 0.48832473158836365, 2.2166941165924072, 0.9195126295089722, -0.6747814416885376, 
484, 1934533922, 71.9700927734375, -76.4614028930664, -119.59684753417969, 9.576568603515625, 3.08693265914917, 1.4278284311294556, 1.6091501712799072, 1.4663251638412476, 0.5594532489776611, 
485, 1934542255, 71.94662475585938, -76.46827697753906, -119.57747650146484, 9.131016731262207, 2.801678419113159, 1.2091386318206787, 0.9735842347145081, 1.3408410549163818, 1.5008275508880615, 
486, 1934550588, 71.94483184814453, -76.474365234375, -119.59014892578125, 9.448469161987305, 1.82759428024292, 0.9097200036048889, 0.7824251651763916, 0.641342043876648, 1.2502435445785522, 
487, 1934558921, 71.95612335205078, -76.47401428222656, -119.59911346435547, 9.765810012817383, 1.4468250274658203, 0.04402920603752136, 1.759710669517517, 0.7513039708137512, 0.4833533763885498, 
488, 1934567254, 71.97882843017578, -76.46586608886719, -119.61274719238281, 9.888769149780273, 2.1464385986328125, 0.6692238450050354, 2.6655325889587402, 1.0151561498641968, -0.4979407489299774, 
489, 1934575587, 71.9870376586914, -76.46175384521484, -119.61965942382812, 9.622786521911621, 2.944485664367676, 1.2183661460876465, 1.7070221900939941, 1.0469433069229126, 0.016149774193763733, 
490, 1934583920, 71.95442962646484, -76.46466064453125, -119.5902099609375, 9.284822463989258, 2.9712982177734375, 1.1519651412963867, 1.2671492099761963, 1.7186256647109985, 1.2101829051971436, 
491, 1934592253, 71.95010375976562, -76.47222137451172, -119.59397888183594, 9.27299690246582, 2.1797573566436768, 0.9578654766082764, 0.5726959109306335, 0.696438193321228, 1.3789552450180054, 
492, 1934600586, 71.94854736328125, -76.4751968383789, -119.59187316894531, 9.794428825378418, 1.454803228378296, 0.20387738943099976, 1.5445512533187866, 0.9268638491630554, 0.9589840769767761, 
493, 1934608919, 71.97560119628906, -76.46915435791016, -119.61096954345703, 9.775687217712402, 1.765845775604248, 0.6585100889205933, 2.5463242530822754, 0.7907755374908447, -0.3079855740070343, 
494, 1934617252, 71.9885482788086, -76.46175384521484, -119.62458801269531, 9.82132339477539, 2.6964592933654785, 0.9048921465873718, 1.9334520101547241, 1.0064729452133179, -0.33439379930496216, 
495, 1934625585, 71.95877838134766, -76.46231079101562, -119.58625793457031, 9.463947296142578, 3.1263508796691895, 1.385771632194519, 1.2430715560913086, 1.7245935201644897, 0.9113671779632568, 
496, 1934633918, 71.9469223022461, -76.46936798095703, -119.58029174804688, 9.166882514953613, 2.518799304962158, 1.0883381366729736, 0.8067587614059448, 0.9742245674133301, 1.4046461582183838, 
497, 1934642251, 71.94487762451172, -76.4742202758789, -119.58132934570312, 9.575836181640625, 1.4852765798568726, 0.37550854682922363, 1.1635137796401978, 0.8712809681892395, 1.0894373655319214, 
498, 1934650584, 71.95861053466797, -76.47173309326172, -119.58969116210938, 9.654027938842773, 1.6004563570022583, 0.46507009863853455, 2.0229225158691406, 0.8231774568557739, 0.2364834100008011, 
499, 1934658917, 71.98832702636719, -76.46434783935547, -119.61337280273438, 9.958871841430664, 2.5010509490966797, 0.5725587606430054, 2.329653263092041, 0.7192350029945374, -0.49891412258148193, 
500, 1934667250, 71.97514343261719, -76.4632339477539, -119.60037231445312, 9.539046287536621, 3.0684754848480225, 1.3584182262420654, 1.5042855739593506, 1.390609622001648, 0.5903953313827515, 
501, 1934675583, 71.94837951660156, -76.4686279296875, -119.57763671875, 9.244044303894043, 2.7249834537506104, 1.314063549041748, 0.913057804107666, 1.384103536605835, 1.4053890705108643, 
502, 1934683916, 71.94580841064453, -76.47467041015625, -119.5826644897461, 9.413241386413574, 1.7881964445114136, 0.7848457098007202, 0.6387037634849548, 0.7190555930137634, 1.19056236743927, 
503, 1934692249, 71.9557876586914, -76.47503662109375, -119.59005737304688, 9.838468551635742, 1.4818881750106812, 0.10822945833206177, 1.8667526245117188, 0.8651079535484314, 0.5270000696182251, 
504, 1934700582, 71.98381042480469, -76.46688079833984, -119.60906982421875, 9.822336196899414, 2.1473097801208496, 0.6262522339820862, 2.7414534091949463, 0.8072966933250427, -0.49263855814933777, 
505, 1934708915, 71.98616790771484, -76.46248626708984, -119.60932922363281, 9.67917537689209, 2.9351634979248047, 1.256400227546692, 1.785683512687683, 1.2335686683654785, 0.04301910474896431, 
506, 1934717248, 71.95353698730469, -76.4664535522461, -119.57862091064453, 9.297212600708008, 2.9886105060577393, 1.1639686822891235, 1.0952262878417969, 1.640297293663025, 1.3151501417160034, 
507, 1934725581, 71.94374084472656, -76.4731216430664, -119.57511138916016, 9.307415008544922, 2.245999813079834, 1.1087263822555542, 0.5025896430015564, 0.779069721698761, 1.3750616312026978, 
508, 1934733914, 71.94139862060547, -76.4765853881836, -119.57417297363281, 9.714232444763184, 1.416165828704834, 0.07333621382713318, 1.3587454557418823, 0.9743013978004456, 0.9521451592445374, 
509, 1934742247, 71.9697036743164, -76.47074127197266, -119.59510040283203, 9.761527061462402, 1.7959778308868408, 0.7257266044616699, 2.4847216606140137, 0.7355768084526062, -0.30050620436668396, 
510, 1934750580, 71.98793029785156, -76.4634780883789, -119.60975646972656, 9.817124366760254, 2.6316144466400146, 0.8430119752883911, 2.0725884437561035, 0.888109564781189, -0.34635570645332336, 
511, 1934758913, 71.96239471435547, -76.4648666381836, -119.58445739746094, 9.447885513305664, 3.111717462539673, 1.4348585605621338, 1.4197330474853516, 1.7018483877182007, 0.9270944595336914, 
512, 1934767246, 71.95157623291016, -76.47113037109375, -119.5778579711914, 9.129076957702637, 2.593492269515991, 1.113427758216858, 0.8319631218910217, 0.8945387005805969, 1.357131838798523, 
513, 1934775579, 71.94210052490234, -76.47525787353516, -119.57213592529297, 9.572027206420898, 1.5429496765136719, 0.47844013571739197, 1.1390011310577393, 1.012466549873352, 1.132392406463623, 
514, 1934783912, 71.96089172363281, -76.47262573242188, -119.58677673339844, 9.774419784545898, 1.527561902999878, 0.4056164026260376, 2.077711343765259, 0.7841413617134094, 0.12073269486427307, 
515, 1934792245, 71.9831771850586, -76.46336364746094, -119.60308837890625, 9.934564590454102, 2.501683235168457, 0.5758584141731262, 2.3006317615509033, 0.9861096143722534, -0.6503453254699707, 
516, 1934800578, 71.97138214111328, -76.4614028930664, -119.59717559814453, 9.52596378326416, 3.1022109985351562, 1.3854368925094604, 1.4151992797851562, 1.3596932888031006, 0.4731590151786804, 
517, 1934808911, 71.9455795288086, -76.46823120117188, -119.57600402832031, 9.188082695007324, 2.7454934120178223, 1.2949782609939575, 0.9073715209960938, 1.3895595073699951, 1.511406421661377, 
518, 1934817244, 71.93949890136719, -76.47444152832031, -119.57711791992188, 9.41115951538086, 1.8141684532165527, 0.8005032539367676, 0.6955161094665527, 0.7386504411697388, 1.3033161163330078, 
519, 1934825577, 71.94800567626953, -76.4744644165039, -119.5828857421875, 9.76298999786377, 1.4532443284988403, 0.06096291542053223, 1.8762043714523315, 0.8368298411369324, 0.5522556900978088, 
520, 1934833910, 71.97074890136719, -76.46723937988281, -119.5973892211914, 9.881256103515625, 2.1565027236938477, 0.7018033266067505, 2.5702219009399414, 0.9585487842559814, -0.39988943934440613, 
521, 1934842243, 71.98326873779297, -76.46321868896484, -119.60759735107422, 9.637882232666016, 2.900921106338501, 1.2666852474212646, 1.8409078121185303, 0.9538099765777588, 0.0008580767898820341, 
522, 1934850576, 71.95841217041016, -76.46682739257812, -119.5844955444336, 9.386395454406738, 2.9208874702453613, 1.2501710653305054, 1.1508859395980835, 1.4525703191757202, 1.202396273612976, 
523, 1934858909, 71.95658874511719, -76.4742202758789, -119.58960723876953, 9.288989067077637, 2.21416974067688, 1.083577036857605, 0.7115762233734131, 0.6663414835929871, 1.350728154182434, 
524, 1934867242, 71.95269775390625, -76.47562408447266, -119.58724212646484, 9.757643699645996, 1.4880542755126953, 0.061848852783441544, 1.3853585720062256, 1.0155658721923828, 0.7906986474990845, 
525, 1934875575, 71.97766876220703, -76.46934509277344, -119.60408782958984, 9.702031135559082, 1.7714920043945312, 0.5530590415000916, 2.5955801010131836, 0.7831168174743652, -0.2610858976840973, 
526, 1934883908, 72.00150299072266, -76.46216583251953, -119.62411499023438, 9.844864845275879, 2.6949756145477295, 0.8358835577964783, 2.049920082092285, 0.8059647679328918, -0.44220420718193054, 
527, 1934892241, 71.974853515625, -76.46273040771484, -119.597900390625, 9.400247573852539, 3.0762157440185547, 1.3362104892730713, 1.393760323524475, 1.7583789825439453, 0.8368043303489685, 
528, 1934900574, 71.96159362792969, -76.46994018554688, -119.58859252929688, 9.216041564941406, 2.6529159545898438, 1.249137043952942, 0.9833688139915466, 0.9612637758255005, 1.5062834024429321, 
529, 1934908907, 71.95549774169922, -76.47547149658203, -119.58624267578125, 9.527107238769531, 1.6059008836746216, 0.511839747428894, 1.07440185546875, 0.9359569549560547, 1.203395128250122, 
530, 1934917240, 71.96642303466797, -76.47342681884766, -119.5993881225586, 9.754161834716797, 1.527833104133606, 0.4194795489311218, 1.9528419971466064, 0.8647749423980713, 0.30028846859931946, 
531, 1934925573, 71.99173736572266, -76.46480560302734, -119.6176528930664, 9.947280883789062, 2.320495128631592, 0.4991678297519684, 2.437591552734375, 0.8222296833992004, -0.5419715642929077, 
532, 1934933906, 71.98877716064453, -76.4627456665039, -119.61304473876953, 9.523200035095215, 3.0218305587768555, 1.434749722480774, 1.7111204862594604, 1.277599573135376, 0.35510292649269104, 
533, 1934942239, 71.96062469482422, -76.46842193603516, -119.58743286132812, 9.178406715393066, 2.869209051132202, 1.1380970478057861, 1.1374897956848145, 1.5521074533462524, 1.4176583290100098, 
534, 1934950572, 71.95664978027344, -76.47457122802734, -119.59406280517578, 9.330683708190918, 1.9206312894821167, 1.0951932668685913, 0.7876761555671692, 0.695003867149353, 1.2808270454406738, 
535, 1934958905, 71.96794128417969, -76.4765853881836, -119.60423278808594, 9.790337562561035, 1.4269479513168335, -0.1052752435207367, 1.694624900817871, 0.7314016222953796, 0.6888307929039001, 
536, 1934967238, 71.99054718017578, -76.46803283691406, -119.61748504638672, 9.821839332580566, 2.0859124660491943, 0.619440495967865, 2.736355781555176, 0.9620833992958069, -0.48059985041618347, 
537, 1934975571, 72.00283813476562, -76.46309661865234, -119.62733459472656, 9.741518020629883, 2.962257146835327, 1.1946015357971191, 1.8707741498947144, 0.916823148727417, -0.05102355778217316, 
538, 1934983904, 71.97506713867188, -76.46643829345703, -119.60234069824219, 9.31770133972168, 2.9321138858795166, 1.2996180057525635, 1.1165117025375366, 1.6196266412734985, 1.148171067237854, 
539, 1934992237, 71.96720886230469, -76.47505187988281, -119.6012191772461, 9.337946891784668, 2.2604384422302246, 1.140140414237976, 0.7186713814735413, 0.7886750102043152, 1.5379170179367065, 
540, 1935000570, 71.96138763427734, -76.47840881347656, -119.59786987304688, 9.649346351623535, 1.4054944515228271, 0.11413252353668213, 1.3053653240203857, 0.9741989374160767, 1.0218414068222046, 
541, 1935008903, 71.98969268798828, -76.47344207763672, -119.6193618774414, 9.744572639465332, 1.7730916738510132, 0.6556427478790283, 2.4169976711273193, 0.6882160305976868, -0.20483702421188354, 
542, 1935017236, 72.00703430175781, -76.46688842773438, -119.6329116821289, 9.811495780944824, 2.6692116260528564, 0.8013535141944885, 2.035447835922241, 0.8707687854766846, -0.2665673494338989, 
543, 1935025569, 71.98316192626953, -76.46709442138672, -119.60945129394531, 9.480634689331055, 3.095078468322754, 1.3991163969039917, 1.3431719541549683, 1.5980335474014282, 0.8291966915130615, 
544, 1935033902, 71.96986389160156, -76.47459411621094, -119.60084533691406, 9.177273750305176, 2.5755984783172607, 1.1369335651397705, 0.9390818476676941, 1.0279887914657593, 1.478158950805664, 
545, 1935042235, 71.96687316894531, -76.4801254272461, -119.60135650634766, 9.606083869934082, 1.581604242324829, 0.5765289664268494, 1.11174738407135, 0.8609840273857117, 1.1709418296813965, 
546, 1935050568, 71.97496032714844, -76.47795867919922, -119.6100845336914, 9.68564224243164, 1.4787006378173828, 0.24713599681854248, 1.9839633703231812, 0.9513766169548035, 0.3262612819671631, 
547, 1935058901, 71.99799346923828, -76.46846771240234, -119.62633514404297, 9.963188171386719, 2.379024028778076, 0.5203230977058411, 2.395993947982788, 0.9936657547950745, -0.6725529432296753, 
548, 1935067234, 71.99266815185547, -76.4657211303711, -119.62059783935547, 9.530571937561035, 3.0119266510009766, 1.5276763439178467, 1.6314090490341187, 1.2597464323043823, 0.340861439704895, 
549, 1935075567, 71.96003723144531, -76.46925354003906, -119.59213256835938, 9.219386100769043, 2.8287346363067627, 1.1781965494155884, 0.9671294093132019, 1.6241601705551147, 1.254802942276001, 
550, 1935083900, 71.95868682861328, -76.47637939453125, -119.59778594970703, 9.377955436706543, 2.009626865386963, 1.0764174461364746, 0.7097319960594177, 0.6621151566505432, 1.3099247217178345, 
551, 1935092233, 71.9676513671875, -76.4786148071289, -119.60604095458984, 9.799067497253418, 1.459167718887329, -0.09852603822946548, 1.6417827606201172, 0.7739468812942505, 0.731965184211731, 
552, 1935100566, 71.99059295654297, -76.4701919555664, -119.61881256103516, 9.802021980285645, 2.0011799335479736, 0.6063110828399658, 2.7638142108917236, 0.9551419615745544, -0.4701235890388489, 
553, 1935108899, 72.0011215209961, -76.46432495117188, -119.6263656616211, 9.661622047424316, 2.8520705699920654, 1.1680585145950317, 1.913882851600647, 1.0947908163070679, -0.1883670836687088, 
554, 1935117232, 71.97019958496094, -76.46697998046875, -119.5980453491211, 9.318816184997559, 2.982358932495117, 1.193812370300293, 1.1375921964645386, 1.649646282196045, 1.1537290811538696, 
555, 1935125565, 71.9651107788086, -76.47425079345703, -119.60509490966797, 9.233990669250488, 2.3925015926361084, 1.2386702299118042, 0.7270985841751099, 0.6734623312950134, 1.4181705713272095, 
556, 1935133898, 71.96243286132812, -76.47791290283203, -119.6042251586914, 9.681736946105957, 1.4336613416671753, 0.15970970690250397, 1.3102065324783325, 0.9653107523918152, 0.9703825116157532, 
557, 1935142231, 71.98721313476562, -76.47282409667969, -119.62266540527344, 9.699019432067871, 1.6729398965835571, 0.7053775787353516, 2.355062246322632, 0.7728710770606995, -0.19144079089164734, 
558, 1935150564, 72.00690460205078, -76.46467590332031, -119.63685607910156, 9.936491966247559, 2.6067416667938232, 0.704845666885376, 2.1747639179229736, 0.8994055390357971, -0.45431965589523315, 
559, 1935158897, 71.98832702636719, -76.46373748779297, -119.61811828613281, 9.451385498046875, 3.1147961616516113, 1.4141920804977417, 1.4854846000671387, 1.613274097442627, 0.6076592803001404, 
560, 1935167230, 71.97286224365234, -76.46989440917969, -119.60599517822266, 9.22019100189209, 2.686621904373169, 1.0993129014968872, 0.9432825446128845, 1.0501962900161743, 1.395220160484314, 
561, 1935175563, 71.96810150146484, -76.47395324707031, -119.60598754882812, 9.458417892456055, 1.6250088214874268, 0.6340813636779785, 1.1085712909698486, 0.8741242289543152, 1.0776549577713013, 
562, 1935183896, 71.97958374023438, -76.47220611572266, -119.61373138427734, 9.73393440246582, 1.5172832012176514, 0.33368515968322754, 2.0083224773406982, 0.9368277788162231, 0.2828451693058014, 
563, 1935192229, 72.00418090820312, -76.46375274658203, -119.63184356689453, 9.868422508239746, 2.377795457839966, 0.6666963696479797, 2.3664863109588623, 0.9069104790687561, -0.5762690901756287, 
564, 1935200562, 72.0012435913086, -76.46114349365234, -119.62834930419922, 9.605595588684082, 3.088426351547241, 1.4554648399353027, 1.6523358821868896, 1.1972734928131104, 0.34393513202667236, 
565, 1935208895, 71.974853515625, -76.46730041503906, -119.6054916381836, 9.220767974853516, 2.7589073181152344, 1.2048752307891846, 1.029807448387146, 1.4599984884262085, 1.4482159614562988, 
566, 1935217228, 71.97410583496094, -76.47315216064453, -119.6116943359375, 9.458355903625488, 2.00412654876709, 0.9546967148780823, 0.6937999129295349, 0.5986686944961548, 1.2167657613754272, 
567, 1935225561, 71.97496795654297, -76.4749526977539, -119.61190032958984, 9.777788162231445, 1.428669810295105, -0.08804910629987717, 1.613530158996582, 0.9198455810546875, 0.8092945218086243, 
568, 1935233894, 71.99810028076172, -76.4670181274414, -119.62464141845703, 9.833230972290039, 1.97920823097229, 0.6315295100212097, 2.820293664932251, 1.0326507091522217, -0.46940645575523376, 
569, 1935242227, 72.01583862304688, -76.4607925415039, -119.63975524902344, 9.712145805358887, 2.7700631618499756, 1.0827585458755493, 1.9003840684890747, 0.9036061763763428, -0.2946149408817291, 
570, 1935250560, 71.9913101196289, -76.46257781982422, -119.6136474609375, 9.381742477416992, 3.0233216285705566, 1.2893579006195068, 1.375573992729187, 1.5628142356872559, 1.0170773267745972, 
571, 1935258893, 71.98104095458984, -76.47102355957031, -119.60960388183594, 9.226369857788086, 2.522693395614624, 1.2847471237182617, 0.7708988189697266, 0.8731253147125244, 1.5454988479614258, 
572, 1935267226, 71.96980285644531, -76.47567749023438, -119.6030502319336, 9.582101821899414, 1.5228787660598755, 0.30178526043891907, 1.1015018224716187, 1.026759386062622, 1.2024730443954468, 
573, 1935275559, 71.9910888671875, -76.47195434570312, -119.62104034423828, 9.669183731079102, 1.6561332941055298, 0.5686476826667786, 2.048229694366455, 0.6651119589805603, 0.02872636169195175, 
574, 1935283892, 72.01671600341797, -76.46553039550781, -119.64153289794922, 9.987187385559082, 2.491129159927368, 0.5803441405296326, 2.2181289196014404, 0.7681838274002075, -0.36600181460380554, 
575, 1935292225, 72.0050048828125, -76.46479034423828, -119.62894439697266, 9.505122184753418, 3.0633299350738525, 1.3709163665771484, 1.5927314758300781, 1.441530704498291, 0.569980800151825, 
576, 1935300558, 71.9850082397461, -76.47158813476562, -119.6093978881836, 9.176905632019043, 2.706450939178467, 1.1458925008773804, 0.9159009456634521, 1.1434321403503418, 1.520755410194397, 
577, 1935308891, 71.98761749267578, -76.47775268554688, -119.61692810058594, 9.419995307922363, 1.7167037725448608, 0.8227267265319824, 0.9638764262199402, 0.6478992700576782, 1.1866947412490845, 
578, 1935317224, 72.0013198852539, -76.4765396118164, -119.62598419189453, 9.782275199890137, 1.45747709274292, 0.19504784047603607, 1.7960315942764282, 0.7210022807121277, 0.3614296615123749, 
579, 1935325557, 72.023681640625, -76.46709442138672, -119.6393051147461, 9.933354377746582, 2.2351815700531006, 0.5570305585861206, 2.652571678161621, 0.9851874709129333, -0.5935587286949158, 
580, 1935333890, 72.02679443359375, -76.46463012695312, -119.64032745361328, 9.568634986877441, 3.09513521194458, 1.3561290502548218, 1.7841722965240479, 1.1422539949417114, 0.2614060640335083, 
581, 1935342223, 72.00432586669922, -76.46979522705078, -119.62024688720703, 9.256209373474121, 2.8724400997161865, 1.1796989440917969, 1.1795740127563477, 1.422627568244934, 1.3087977170944214, 
582, 1935350556, 71.99797821044922, -76.4762191772461, -119.62367248535156, 9.332972526550293, 2.074453115463257, 0.9315576553344727, 0.6599123477935791, 0.7246139049530029, 1.3299806118011475, 
583, 1935358889, 72.00407409667969, -76.47962188720703, -119.62920379638672, 9.77104377746582, 1.3884632587432861, 0.01624796912074089, 1.614836573600769, 0.803377628326416, 0.8867520093917847, 
584, 1935367222, 72.03166961669922, -76.47124481201172, -119.64732360839844, 9.763158798217773, 1.9333264827728271, 0.7241010665893555, 2.7145326137542725, 0.8134697079658508, -0.5074435472488403, 
585, 1935375555, 72.04087829589844, -76.46485137939453, -119.65292358398438, 9.816153526306152, 2.783742666244507, 1.097540259361267, 1.8422653675079346, 1.0462006330490112, -0.1871119737625122, 
586, 1935383888, 72.0149154663086, -76.46825408935547, -119.62855529785156, 9.34752082824707, 3.075223922729492, 1.4383543729782104, 1.2563399076461792, 1.6012866497039795, 1.1486830711364746, 
587, 1935392221, 72.0079574584961, -76.47647857666016, -119.6274185180664, 9.272125244140625, 2.4554781913757324, 1.145652174949646, 0.8318606615066528, 0.802737295627594, 1.498855471611023, 
588, 1935400554, 71.99803924560547, -76.48046875, -119.62102508544922, 9.607229232788086, 1.4385970830917358, 0.26661941409111023, 1.333925485610962, 1.0681778192520142, 1.1346211433410645, 
589, 1935408887, 72.02232360839844, -76.4760971069336, -119.64006805419922, 9.732756614685059, 1.569778561592102, 0.45965299010276794, 2.226632595062256, 0.7300440669059753, -0.11370158940553665, 
590, 1935417220, 72.04426574707031, -76.46813201904297, -119.65894317626953, 9.888294219970703, 2.578066349029541, 0.5269634127616882, 2.340257406234741, 0.8700259923934937, -0.44755756855010986, 
591, 1935425553, 72.02725982666016, -76.46665954589844, -119.64122772216797, 9.53541374206543, 3.084702491760254, 1.4079596996307373, 1.4763661623001099, 1.4999568462371826, 0.5805850028991699, 
592, 1935433886, 72.0072021484375, -76.47386932373047, -119.62503051757812, 9.126463890075684, 2.74772310256958, 1.1459827423095703, 1.0167187452316284, 1.243122935295105, 1.513865351676941, 
593, 1935442219, 72.00733947753906, -76.48035430908203, -119.63227081298828, 9.43410587310791, 1.8390817642211914, 0.9842526316642761, 0.702893078327179, 0.6440571546554565, 1.2260382175445557, 
594, 1935450552, 72.0174331665039, -76.48078155517578, -119.64105224609375, 9.729771614074707, 1.448190450668335, 0.1836807131767273, 1.7320986986160278, 0.7414681315422058, 0.578997015953064, 
595, 1935458885, 72.03937530517578, -76.47274780273438, -119.65420532226562, 9.865178108215332, 2.193631887435913, 0.6826542615890503, 2.6316707134246826, 1.0235576629638672, -0.4816244840621948, 
596, 1935467218, 72.04705047607422, -76.46885681152344, -119.66002655029297, 9.588290214538574, 2.9357759952545166, 1.318665862083435, 1.7831220626831055, 0.9804744124412537, 0.11046138405799866, 
597, 1935475551, 72.01359558105469, -76.47246551513672, -119.6322250366211, 9.283578872680664, 2.8830854892730713, 0.9804354906082153, 1.1943533420562744, 1.6970326900482178, 1.2860267162322998, 
598, 1935483884, 72.01022338867188, -76.48014831542969, -119.63661193847656, 9.329889297485352, 2.20778226852417, 1.0959800481796265, 0.6131663918495178, 0.675255298614502, 1.3921723365783691, 
599, 1935492217, 72.01214599609375, -76.48332214355469, -119.6388931274414, 9.680126190185547, 1.4337260723114014, 0.03259334713220596, 1.4982917308807373, 0.8987137675285339, 0.8893646001815796, 
600, 1935500550, 72.03631591796875, -76.47725677490234, -119.6471176147461, 9.782197952270508, 1.8363388776779175, 0.7033811211585999, 2.6463985443115234, 0.8115229606628418, -0.21579992771148682, 
601, 1935508883, 72.05036926269531, -76.47171020507812, -119.65827941894531, 9.81897258758545, 2.714154005050659, 0.9818254709243774, 1.916290283203125, 0.9838043451309204, -0.18283440172672272, 
602, 1935517216, 72.02391052246094, -76.47313690185547, -119.6334457397461, 9.487129211425781, 3.1138298511505127, 1.3833942413330078, 1.2212482690811157, 1.5946781635284424, 0.9822930693626404, 
603, 1935525549, 72.00798034667969, -76.47998809814453, -119.62273406982422, 9.20677661895752, 2.4735286235809326, 1.1437535285949707, 0.7217450737953186, 0.9855460524559021, 1.4632513523101807, 
604, 1935533882, 72.00684356689453, -76.48368835449219, -119.62451934814453, 9.597034454345703, 1.5195837020874023, 0.3483498990535736, 1.1828012466430664, 0.8935397863388062, 0.954911470413208, 
605, 1935542215, 72.02556610107422, -76.47997283935547, -119.63878631591797, 9.643359184265137, 1.5539847612380981, 0.5032855868339539, 2.1150314807891846, 0.8327571749687195, 0.00610899506136775, 
606, 1935550548, 72.05123901367188, -76.47224426269531, -119.65868377685547, 9.962501525878906, 2.580747365951538, 0.6328259110450745, 2.3508358001708984, 0.7630608677864075, -0.45011892914772034, 
607, 1935558881, 72.03853607177734, -76.47171020507812, -119.64556884765625, 9.494504928588867, 3.110502243041992, 1.3543740510940552, 1.5346897840499878, 1.4468071460723877, 0.605328381061554, 
608, 1935567214, 72.01326751708984, -76.47854614257812, -119.62510681152344, 9.223937034606934, 2.728869676589966, 1.2320730686187744, 0.8954352736473083, 1.2869486808776855, 1.559868335723877, 
609, 1935575547, 72.00752258300781, -76.4837417602539, -119.62554931640625, 9.44514274597168, 1.762317419052124, 0.7977350950241089, 0.8352674245834351, 0.7959751486778259, 1.197375774383545, 
610, 1935583880, 72.01847839355469, -76.48511505126953, -119.63445281982422, 9.788576126098633, 1.4669604301452637, 0.08566945791244507, 1.804330825805664, 0.7879066467285156, 0.6269212365150452, 
611, 1935592213, 72.042236328125, -76.47567749023438, -119.6488265991211, 9.836402893066406, 2.0976247787475586, 0.5533966422080994, 2.7067458629608154, 1.0427172183990479, -0.6513187885284424, 
612, 1935600546, 72.04777526855469, -76.47086334228516, -119.65221405029297, 9.692286491394043, 2.970781087875366, 1.4041463136672974, 1.7899354696273804, 1.0748629570007324, 0.01825014315545559, 
