sep=,
PacketCounter,SampleTimeFine,Euler_X,Euler_Y,Euler_Z,Acc_X,Acc_Y,Acc_Z,Gyr_X,Gyr_Y,Gyr_Z,
0, 715432688, -84.259033203125, -42.10929870605469, -47.84157943725586, 0, 0, 0, 0, 0, 0, 
1, 715441021, -84.26274108886719, -42.10187911987305, -47.84695816040039, 6.6422343254089355, -7.250982284545898, 1.2334595918655396, -0.9964834451675415, 0.3385433256626129, 2.205974578857422, 
2, 715449354, -84.26663970947266, -42.098941802978516, -47.847965240478516, 5.819221019744873, -8.243327140808105, 0.3751300871372223, -0.6505118608474731, -0.0925058051943779, 1.7162305116653442, 
3, 715457687, -84.26863861083984, -42.106170654296875, -47.84135437011719, 6.110459327697754, -8.221463203430176, 0.535554826259613, 0.1701553761959076, -0.9011984467506409, 0.5623605251312256, 
4, 715466020, -84.26810455322266, -42.11377716064453, -47.83555221557617, 6.962098121643066, -6.970760345458984, 0.5505042672157288, 0.4343917965888977, -0.8210514187812805, 0.5188419222831726, 
5, 715474353, -84.25955200195312, -42.11152648925781, -47.84348678588867, 7.51609992980957, -6.417072772979736, 1.0550514459609985, 0.27015331387519836, 0.49952882528305054, 1.562750220298767, 
6, 715482686, -84.26071166992188, -42.10239791870117, -47.847408294677734, 6.9736151695251465, -6.855772495269775, 1.2686668634414673, -0.5584287643432617, 0.24113240838050842, 2.4304068088531494, 
7, 715491019, -84.26008605957031, -42.097816467285156, -47.85508346557617, 5.9493255615234375, -7.849289417266846, 0.5351662039756775, -0.6604759097099304, 0.5063165426254272, 1.846760630607605, 
8, 715499352, -84.26573944091797, -42.10200881958008, -47.84781265258789, 5.773796081542969, -8.339313507080078, 0.5903956294059753, -0.19583362340927124, -0.9100608229637146, 0.938018798828125, 
9, 715507685, -84.2656021118164, -42.11243438720703, -47.83946228027344, 6.679911136627197, -7.547143459320068, 0.1472412794828415, 0.572990357875824, -1.0938429832458496, 0.19456569850444794, 
10, 715516018, -84.261962890625, -42.1142578125, -47.83971405029297, 7.495241641998291, -6.458808898925781, 1.018500804901123, 0.3130827844142914, -0.2159920185804367, 1.1547921895980835, 
11, 715524351, -84.2593994140625, -42.10788345336914, -47.846221923828125, 7.146102428436279, -6.503368854522705, 1.2392866611480713, -0.3322806656360626, 0.42417171597480774, 2.067657947540283, 
12, 715532684, -84.26150512695312, -42.100791931152344, -47.85363006591797, 6.402556419372559, -7.502384662628174, 1.044815182685852, -0.9497373700141907, 0.523862361907959, 2.1566929817199707, 
13, 715541017, -84.26556396484375, -42.09931182861328, -47.850547790527344, 5.787538051605225, -8.350102424621582, 0.3422752916812897, -0.3594830334186554, -0.4851208031177521, 1.572176218032837, 
14, 715549350, -84.2649917602539, -42.10904312133789, -47.845211029052734, 6.343935012817383, -7.883977890014648, 0.21773238480091095, 0.39750736951828003, -0.8049402236938477, 0.260778546333313, 
15, 715557683, -84.26521301269531, -42.11558532714844, -47.83893966674805, 7.18401575088501, -6.727248668670654, 0.8535056114196777, 0.36318424344062805, -0.8639041781425476, 0.6403047442436218, 
16, 715566016, -84.2574462890625, -42.11048126220703, -47.84772491455078, 7.377459526062012, -6.344456195831299, 1.1364256143569946, 0.12453640252351761, 0.6226820349693298, 1.9054430723190308, 
17, 715574349, -84.26028442382812, -42.10207748413086, -47.85260009765625, 6.684142112731934, -7.211252212524414, 1.244961142539978, -0.8524546027183533, 0.3042971193790436, 2.3270277976989746, 
18, 715582682, -84.26277923583984, -42.09877395629883, -47.85654830932617, 5.836631774902344, -8.101089477539062, 0.3411070704460144, -0.7191581726074219, 0.17189712822437286, 1.7350316047668457, 
19, 715591015, -84.26729583740234, -42.10567855834961, -47.84838104248047, 6.060874938964844, -8.27797794342041, 0.5950738787651062, 0.0006659700884483755, -1.034751057624817, 0.6140756607055664, 
20, 715599348, -84.26564025878906, -42.114105224609375, -47.8432731628418, 6.8552350997924805, -7.087859630584717, 0.3410334885120392, 0.5117211937904358, -0.7721282839775085, 0.41320881247520447, 
21, 715607681, -84.25759887695312, -42.11241149902344, -47.848636627197266, 7.480865001678467, -6.394026279449463, 0.9784016013145447, 0.4150274097919464, 0.2681810259819031, 1.5193849802017212, 
22, 715616014, -84.25946044921875, -42.10416030883789, -47.85074996948242, 6.988199234008789, -6.668046474456787, 1.3507065773010254, -0.49347108602523804, 0.06890229880809784, 2.342268228530884, 
23, 715624347, -84.25982666015625, -42.09731674194336, -47.85906982421875, 6.152350902557373, -7.773027420043945, 0.7588677406311035, -0.8369579911231995, 0.5915864109992981, 2.1126623153686523, 
24, 715632680, -84.26663970947266, -42.099769592285156, -47.852813720703125, 5.8148322105407715, -8.37155818939209, 0.509947657585144, -0.4158342480659485, -0.8007649779319763, 1.1380404233932495, 
25, 715641013, -84.26573944091797, -42.10947036743164, -47.84635925292969, 6.614698886871338, -7.663813591003418, 0.08770100772380829, 0.5090572834014893, -0.9171304702758789, 0.26577329635620117, 
26, 715649346, -84.26335144042969, -42.11240005493164, -47.84394454956055, 7.385002613067627, -6.515424728393555, 1.008765459060669, 0.3800896406173706, -0.465167373418808, 1.0449583530426025, 
27, 715657679, -84.25857543945312, -42.104644775390625, -47.8516845703125, 7.1456522941589355, -6.385013580322266, 1.1354165077209473, -0.16307300329208374, 0.548964262008667, 2.22062611579895, 
28, 715666012, -84.25981140136719, -42.09825134277344, -47.858970642089844, 6.433879852294922, -7.448930740356445, 1.0962706804275513, -0.8368810415267944, 0.5072386860847473, 2.0739846229553223, 
29, 715674345, -84.26426696777344, -42.09722137451172, -47.856468200683594, 5.816770553588867, -8.348441123962402, 0.33061155676841736, -0.45668891072273254, -0.4380674362182617, 1.5126484632492065, 
30, 715682678, -84.26466369628906, -42.10628128051758, -47.849754333496094, 6.278694152832031, -8.027778625488281, 0.34592577815055847, 0.3919745981693268, -0.9201017022132874, 0.35375815629959106, 
31, 715691011, -84.26400756835938, -42.11248016357422, -47.84242248535156, 7.099704265594482, -6.776195526123047, 0.7922417521476746, 0.5516025424003601, -0.9514022469520569, 0.6897144913673401, 
32, 715699344, -84.2566909790039, -42.10795974731445, -47.8497428894043, 7.389091968536377, -6.3633246421813965, 1.159143328666687, 0.19044183194637299, 0.4856458902359009, 1.8491426706314087, 
33, 715707677, -84.25907897949219, -42.10019302368164, -47.85458755493164, 6.7958455085754395, -7.0708794593811035, 1.2223505973815918, -0.795642077922821, 0.2941282391548157, 2.253002405166626, 
34, 715716010, -84.26018524169922, -42.09607696533203, -47.859500885009766, 5.8366618156433105, -8.067404747009277, 0.407711386680603, -0.6280738115310669, 0.2670283615589142, 1.8221197128295898, 
35, 715724343, -84.26588439941406, -42.1035270690918, -47.8504638671875, 5.995205402374268, -8.239173889160156, 0.6437200903892517, -0.07844357937574387, -1.1148467063903809, 0.5570839643478394, 
36, 715732676, -84.26504516601562, -42.11210632324219, -47.84572982788086, 6.826723098754883, -7.185310363769531, 0.25925517082214355, 0.38034576177597046, -0.7382405996322632, 0.39005357027053833, 
37, 715741009, -84.25751495361328, -42.110870361328125, -47.849937438964844, 7.498497009277344, -6.360594272613525, 0.9842097163200378, 0.45560041069984436, 0.14743554592132568, 1.4771984815597534, 
38, 715749342, -84.25960540771484, -42.10367202758789, -47.85272216796875, 6.957818031311035, -6.711312294006348, 1.3521140813827515, -0.574155867099762, 0.11756932735443115, 2.209995985031128, 
39, 715757675, -84.25959777832031, -42.09778594970703, -47.860595703125, 6.20386266708374, -7.773411750793457, 0.7510080337524414, -0.7462834715843201, 0.5313416719436646, 2.001624345779419, 
40, 715766008, -84.26544189453125, -42.100250244140625, -47.8531379699707, 5.806556224822998, -8.42153549194336, 0.5090034604072571, -0.20410701632499695, -0.9048612117767334, 1.1468005180358887, 
41, 715774341, -84.26466369628906, -42.1109504699707, -47.84727096557617, 6.622337818145752, -7.693762302398682, 0.04391130432486534, 0.4484027922153473, -0.8756097555160522, 0.1405452936887741, 
42, 715782674, -84.26207733154297, -42.1148681640625, -47.84355926513672, 7.3704681396484375, -6.4962334632873535, 0.9700757265090942, 0.5066751837730408, -0.5932896733283997, 0.9398117065429688, 
43, 715791007, -84.25692749023438, -42.107364654541016, -47.8509407043457, 7.096092700958252, -6.318648815155029, 1.187147617340088, -0.08469347655773163, 0.5082632899284363, 2.1950631141662598, 
44, 715799340, -84.26026916503906, -42.10118865966797, -47.85698318481445, 6.544503688812256, -7.410457134246826, 1.1442134380340576, -0.9887734055519104, 0.3930248022079468, 2.059563636779785, 
45, 715807673, -84.26439666748047, -42.10000991821289, -47.856109619140625, 5.796149730682373, -8.315431594848633, 0.29943233728408813, -0.538334310054779, -0.298226535320282, 1.51901376247406, 
46, 715816006, -84.26465606689453, -42.109283447265625, -47.85083770751953, 6.327354907989502, -8.088398933410645, 0.3045680522918701, 0.29192543029785156, -0.7940028309822083, 0.3122631311416626, 
47, 715824339, -84.26471710205078, -42.115150451660156, -47.84430694580078, 7.0284905433654785, -6.771174430847168, 0.7600324749946594, 0.4065491557121277, -0.8817829489707947, 0.7228849530220032, 
48, 715832672, -84.2566909790039, -42.110111236572266, -47.852386474609375, 7.382560729980469, -6.339013576507568, 1.096369743347168, 0.21075394749641418, 0.5581341981887817, 1.9045978784561157, 
49, 715841005, -84.259033203125, -42.10295867919922, -47.856685638427734, 6.80934476852417, -7.032810688018799, 1.200923204421997, -0.7450540661811829, 0.23939065635204315, 2.1827170848846436, 
50, 715849338, -84.25891876220703, -42.09837341308594, -47.862701416015625, 5.897473335266113, -8.07796573638916, 0.438383549451828, -0.5682902336120605, 0.36999762058258057, 1.8676363229751587, 
51, 715857671, -84.26387786865234, -42.105751037597656, -47.85535430908203, 6.001284599304199, -8.298227310180664, 0.6750998497009277, -0.12424185127019882, -0.9692555069923401, 0.5510134696960449, 
52, 715866004, -84.26152038574219, -42.11470413208008, -47.85047149658203, 6.819999694824219, -7.196518421173096, 0.20502908527851105, 0.5779595971107483, -0.7576050162315369, 0.3484559953212738, 
53, 715874337, -84.2540283203125, -42.11403274536133, -47.85475158691406, 7.480986595153809, -6.365508079528809, 1.0188580751419067, 0.43462231755256653, 0.15868017077445984, 1.4079375267028809, 
54, 715882670, -84.25528717041016, -42.10615539550781, -47.85871887207031, 7.0179619789123535, -6.6574296951293945, 1.2800191640853882, -0.5711333751678467, 0.22999021410942078, 2.278744697570801, 
55, 715891003, -84.25541687011719, -42.100948333740234, -47.86695861816406, 6.1811113357543945, -7.744381427764893, 0.8031913638114929, -0.795590877532959, 0.5635387897491455, 1.9163801670074463, 
56, 715899336, -84.26249694824219, -42.10273361206055, -47.85880661010742, 5.848701000213623, -8.356680870056152, 0.5023369789123535, -0.2963694930076599, -0.9593682885169983, 1.2349904775619507, 
57, 715907669, -84.26058197021484, -42.112403869628906, -47.854740142822266, 6.579599857330322, -7.702667713165283, 0.0652768462896347, 0.4394378066062927, -0.7048909068107605, 0.2470492720603943, 
58, 715916002, -84.2596206665039, -42.1148567199707, -47.85011672973633, 7.356248378753662, -6.542154788970947, 0.9554195404052734, 0.38682615756988525, -0.6557884216308594, 1.121852159500122, 
59, 715924335, -84.25326538085938, -42.10880661010742, -47.858985900878906, 7.077611923217773, -6.38515567779541, 1.2341421842575073, -0.06901755928993225, 0.6278305053710938, 2.00935959815979, 
60, 715932668, -84.25697326660156, -42.101470947265625, -47.863037109375, 6.505183696746826, -7.406068801879883, 1.1437774896621704, -0.8757890462875366, 0.23278215527534485, 2.2158875465393066, 
61, 715941001, -84.26022338867188, -42.10028839111328, -47.86174392700195, 5.853993892669678, -8.330865859985352, 0.277687668800354, -0.3983653485774994, -0.33094868063926697, 1.5168747901916504, 
62, 715949334, -84.26300811767578, -42.10870361328125, -47.8539924621582, 6.388082504272461, -8.038351058959961, 0.3806242346763611, 0.18882812559604645, -1.0039114952087402, 0.4401293992996216, 
63, 715957667, -84.26172637939453, -42.114593505859375, -47.8492431640625, 7.014664649963379, -6.7344231605529785, 0.7245826125144958, 0.4189720153808594, -0.720490038394928, 0.7049293518066406, 
64, 715966000, -84.25247192382812, -42.110595703125, -47.85797882080078, 7.336459636688232, -6.250503063201904, 1.0832269191741943, 0.30675607919692993, 0.6043166518211365, 1.7725305557250977, 
65, 715974333, -84.25605010986328, -42.10262680053711, -47.86244201660156, 6.78471565246582, -7.0244340896606445, 1.3265646696090698, -0.908242404460907, 0.26333996653556824, 2.279590368270874, 
66, 715982666, -84.25703430175781, -42.09722900390625, -47.867088317871094, 5.930818557739258, -8.099858283996582, 0.4865075945854187, -0.5916246771812439, 0.25947216153144836, 1.9786484241485596, 
67, 715990999, -84.26337432861328, -42.103878021240234, -47.85783386230469, 6.019274711608887, -8.379012107849121, 0.7128022313117981, -0.13497421145439148, -1.1272952556610107, 0.6552633047103882, 
68, 715999332, -84.26097106933594, -42.11349105834961, -47.8529167175293, 6.7812886238098145, -7.259592056274414, 0.2419377565383911, 0.5844144225120544, -0.7690545320510864, 0.26887261867523193, 
69, 716007665, -84.25383758544922, -42.11283874511719, -47.85654067993164, 7.41060209274292, -6.40129280090332, 1.029766321182251, 0.4475831389427185, 0.1018165722489357, 1.4121894836425781, 
70, 716015998, -84.2550277709961, -42.10594177246094, -47.86007308959961, 6.965961933135986, -6.619594097137451, 1.257235050201416, -0.528818666934967, 0.17899227142333984, 2.165888547897339, 
71, 716024331, -84.25507354736328, -42.1002082824707, -47.86869812011719, 6.253823757171631, -7.689035415649414, 0.8173843622207642, -0.8167738914489746, 0.6050593852996826, 1.9765479564666748, 
72, 716032664, -84.26094055175781, -42.103179931640625, -47.862815856933594, 5.813094139099121, -8.384634017944336, 0.4438267648220062, -0.33484208583831787, -0.7734602093696594, 1.070623755455017, 
73, 716040997, -84.25981903076172, -42.11328125, -47.85798645019531, 6.543213844299316, -7.700228214263916, 0.13219861686229706, 0.4094947576522827, -0.7793514728546143, 0.20201946794986725, 
74, 716049330, -84.25909423828125, -42.11736297607422, -47.852779388427734, 7.3350043296813965, -6.488336563110352, 1.0136364698410034, 0.4035010039806366, -0.7266373634338379, 0.932998538017273, 
75, 716057663, -84.25287628173828, -42.111366271972656, -47.86213302612305, 7.170984268188477, -6.337640762329102, 1.1845735311508179, -0.12355025112628937, 0.6711697578430176, 1.9993700981140137, 
76, 716065996, -84.25574493408203, -42.104740142822266, -47.86796569824219, 6.533937931060791, -7.440819263458252, 1.1588927507400513, -0.9179245233535767, 0.3816264867782593, 2.1129441261291504, 
77, 716074329, -84.2602310180664, -42.10338592529297, -47.86680603027344, 5.837399959564209, -8.368783950805664, 0.33614787459373474, -0.5593509078025818, -0.3156314194202423, 1.5392106771469116, 
78, 716082662, -84.2624740600586, -42.112850189208984, -47.85964584350586, 6.321839809417725, -8.078134536743164, 0.4326897859573364, 0.20550300180912018, -0.9654132127761841, 0.30783185362815857, 
79, 716090995, -84.26199340820312, -42.11900329589844, -47.854373931884766, 7.027724742889404, -6.720618724822998, 0.7177524566650391, 0.3641831874847412, -0.7702584266662598, 0.6780343651771545, 
80, 716099328, -84.25433349609375, -42.11418151855469, -47.86250305175781, 7.354490280151367, -6.2602691650390625, 1.1625844240188599, 0.16559603810310364, 0.560362696647644, 1.8755512237548828, 
81, 716107661, -84.25983428955078, -42.106388092041016, -47.86395263671875, 6.759705543518066, -7.06217098236084, 1.230607509613037, -0.8943082690238953, -0.005571096204221249, 2.284149646759033, 
82, 716115994, -84.25994110107422, -42.10080337524414, -47.870662689208984, 5.945247173309326, -8.112607955932617, 0.3906281888484955, -0.6540210247039795, 0.4457132816314697, 1.9823111295700073, 
83, 716124327, -84.26567077636719, -42.10795211791992, -47.86098861694336, 6.004031658172607, -8.342225074768066, 0.6791126132011414, -0.02460247278213501, -1.1721200942993164, 0.6003464460372925, 
84, 716132660, -84.26426696777344, -42.117069244384766, -47.85606384277344, 6.84693717956543, -7.232282638549805, 0.1900440752506256, 0.46205514669418335, -0.7628046870231628, 0.3273242712020874, 
85, 716140993, -84.25735473632812, -42.11573791503906, -47.85930252075195, 7.411940574645996, -6.319736957550049, 1.0377702713012695, 0.4508105218410492, 0.0737689957022667, 1.4974849224090576, 
86, 716149326, -84.25819396972656, -42.107364654541016, -47.861907958984375, 6.9904022216796875, -6.550134181976318, 1.3405938148498535, -0.4101991653442383, 0.11477737873792648, 2.351412296295166, 
87, 716157659, -84.25972747802734, -42.10203170776367, -47.86980438232422, 6.246737957000732, -7.714795112609863, 0.8755684494972229, -0.9402344822883606, 0.5370280146598816, 1.933208703994751, 
88, 716165992, -84.26595306396484, -42.10373306274414, -47.86314010620117, 5.861876487731934, -8.441606521606445, 0.4125831425189972, -0.31155872344970703, -0.8280953764915466, 1.231967806816101, 
89, 716174325, -84.26439666748047, -42.11320114135742, -47.85826873779297, 6.536396503448486, -7.813887119293213, 0.07218649238348007, 0.46669134497642517, -0.7772766947746277, 0.2760702073574066, 
90, 716182658, -84.26393127441406, -42.1167106628418, -47.852134704589844, 7.2801923751831055, -6.486720085144043, 0.9891809821128845, 0.44745510816574097, -0.8021994829177856, 1.0113012790679932, 
91, 716190991, -84.25664520263672, -42.110389709472656, -47.8614501953125, 7.136801719665527, -6.318018913269043, 1.136811375617981, 0.007146371528506279, 0.6740898489952087, 2.0376124382019043, 
92, 716199324, -84.26082611083984, -42.10338592529297, -47.86592483520508, 6.551401615142822, -7.403343677520752, 1.1918264627456665, -0.9647216200828552, 0.26428765058517456, 2.1717028617858887, 
93, 716207657, -84.26397705078125, -42.1016845703125, -47.86539077758789, 5.856968879699707, -8.36810302734375, 0.30034783482551575, -0.45264193415641785, -0.25630882382392883, 1.5762231349945068, 
94, 716215990, -84.26483154296875, -42.11084747314453, -47.86009216308594, 6.2630720138549805, -8.071045875549316, 0.44643038511276245, 0.22484177350997925, -0.7977425456047058, 0.3244042992591858, 
95, 716224323, -84.26435089111328, -42.116920471191406, -47.85410690307617, 7.0306501388549805, -6.703672885894775, 0.7340250611305237, 0.4176657199859619, -0.8289406299591064, 0.6945043802261353, 
96, 716232656, -84.2563247680664, -42.112667083740234, -47.862449645996094, 7.356457710266113, -6.291006088256836, 1.1572686433792114, 0.19092848896980286, 0.5735794901847839, 1.8082880973815918, 
97, 716240989, -84.25942993164062, -42.10492706298828, -47.865821838378906, 6.858030319213867, -7.068138122558594, 1.207110047340393, -0.7557352781295776, 0.16029389202594757, 2.2618908882141113, 
98, 716249322, -84.2607421875, -42.10129928588867, -47.87132263183594, 5.895445346832275, -8.146928787231445, 0.4961559772491455, -0.7045580148696899, 0.3164382576942444, 1.7582637071609497, 
99, 716257655, -84.26785278320312, -42.107765197753906, -47.860965728759766, 6.0180158615112305, -8.298527717590332, 0.6660155057907104, -0.13569140434265137, -1.2243732213974, 0.6840794086456299, 
100, 716265988, -84.26455688476562, -42.116905212402344, -47.85702133178711, 6.8315300941467285, -7.176790714263916, 0.21838326752185822, 0.6100029945373535, -0.6769970059394836, 0.317488431930542, 
101, 716274321, -84.25640869140625, -42.116424560546875, -47.86112594604492, 7.475399494171143, -6.283285140991211, 1.0078858137130737, 0.5262444019317627, 0.1426200568675995, 1.389418601989746, 
102, 716282654, -84.25696563720703, -42.108642578125, -47.866580963134766, 6.9341301918029785, -6.64838981628418, 1.366861343383789, -0.6032024621963501, 0.359956830739975, 2.254103899002075, 
103, 716290987, -84.2571792602539, -42.102455139160156, -47.874420166015625, 6.246143817901611, -7.805087089538574, 0.8008366823196411, -0.7746129035949707, 0.5399993062019348, 2.0367162227630615, 
104, 716299320, -84.26316833496094, -42.10536575317383, -47.8674430847168, 5.844709396362305, -8.451648712158203, 0.5052839517593384, -0.25992047786712646, -0.8708455562591553, 1.088861107826233, 
105, 716307653, -84.26114654541016, -42.1151123046875, -47.86283874511719, 6.574714660644531, -7.722466945648193, 0.01833273656666279, 0.49827373027801514, -0.7551717758178711, 0.24266928434371948, 
106, 716315986, -84.2595443725586, -42.11842346191406, -47.85849380493164, 7.284870147705078, -6.470540523529053, 0.9513209462165833, 0.4379521608352661, -0.6389342546463013, 1.0186525583267212, 
107, 716324319, -84.25318145751953, -42.11174774169922, -47.867000579833984, 7.090882778167725, -6.302114963531494, 1.1802843809127808, -0.03577028214931488, 0.6020370125770569, 2.0861001014709473, 
108, 716332652, -84.25696563720703, -42.10518264770508, -47.872196197509766, 6.5831074714660645, -7.40861177444458, 1.2064433097839355, -0.9738659858703613, 0.3246091902256012, 2.112738847732544, 
109, 716340985, -84.2601318359375, -42.103118896484375, -47.87128448486328, 5.87787389755249, -8.35184097290039, 0.3265162706375122, -0.4251578450202942, -0.2858164310455322, 1.622380018234253, 
110, 716349318, -84.25965118408203, -42.11123275756836, -47.86579513549805, 6.354606628417969, -8.095952987670898, 0.3652387857437134, 0.39983823895454407, -0.7990489602088928, 0.4541660249233246, 
111, 716357651, -84.25936889648438, -42.11783218383789, -47.85921096801758, 6.978549480438232, -6.771803855895996, 0.7235386967658997, 0.4461231827735901, -0.8936934471130371, 0.6358477473258972, 
112, 716365984, -84.25015258789062, -42.113834381103516, -47.867977142333984, 7.35167932510376, -6.3036723136901855, 1.074858546257019, 0.3009672462940216, 0.6081587076187134, 1.7742979526519775, 
113, 716374317, -84.25359344482422, -42.107154846191406, -47.87084197998047, 6.824541091918945, -7.066016674041748, 1.2473511695861816, -0.7604225873947144, 0.1049671322107315, 2.1405045986175537, 
114, 716382650, -84.25444030761719, -42.10319900512695, -47.87641143798828, 5.953774929046631, -8.104391098022461, 0.457065612077713, -0.6522281169891357, 0.3244042992591858, 1.7963519096374512, 
115, 716390983, -84.25989532470703, -42.110137939453125, -47.86799621582031, 5.995169639587402, -8.308162689208984, 0.6834613084793091, -0.09450371563434601, -1.0564719438552856, 0.6120777726173401, 
116, 716399316, -84.25727844238281, -42.119441986083984, -47.86366271972656, 6.7942280769348145, -7.156505107879639, 0.18495087325572968, 0.5617969632148743, -0.7126007676124573, 0.30122336745262146, 
117, 716407649, -84.25066375732422, -42.118247985839844, -47.86701965332031, 7.4578962326049805, -6.295194625854492, 1.0188868045806885, 0.40808597207069397, 0.08112027496099472, 1.4798624515533447, 
118, 716415982, -84.25315856933594, -42.1105842590332, -47.870548248291016, 6.925586700439453, -6.65886116027832, 1.3117213249206543, -0.685398519039154, 0.18841831386089325, 2.2568705081939697, 
119, 716424315, -84.25324249267578, -42.105342864990234, -47.87787628173828, 6.218290328979492, -7.8539628982543945, 0.8243029117584229, -0.7136766314506531, 0.47988268733024597, 1.9280343055725098, 
120, 716432648, -84.25918579101562, -42.10777282714844, -47.870445251464844, 5.87905740737915, -8.406471252441406, 0.5289312601089478, -0.21635062992572784, -0.9032474756240845, 1.149720549583435, 
121, 716440981, -84.25630950927734, -42.1178092956543, -47.86753463745117, 6.6204352378845215, -7.6454877853393555, 0.06508371978998184, 0.4664352238178253, -0.6101694107055664, 0.19156883656978607, 
122, 716449314, -84.25413513183594, -42.11967086791992, -47.86408615112305, 7.309954643249512, -6.432938098907471, 1.006455421447754, 0.4354420304298401, -0.5460826754570007, 1.1836851835250854, 
123, 716457647, -84.2474136352539, -42.11208724975586, -47.873313903808594, 7.0561652183532715, -6.342339038848877, 1.207153081893921, -0.05613359808921814, 0.6824144124984741, 2.190657377243042, 
124, 716465980, -84.25201416015625, -42.1045036315918, -47.87689971923828, 6.540343284606934, -7.4903788566589355, 1.1338499784469604, -0.9440895915031433, 0.19281116127967834, 2.2487633228302, 
125, 716474313, -84.25566864013672, -42.102928161621094, -47.876285552978516, 5.875774383544922, -8.420376777648926, 0.32251453399658203, -0.4929715096950531, -0.2762751281261444, 1.562019944190979, 
126, 716482646, -84.25752258300781, -42.112060546875, -47.86864471435547, 6.347210884094238, -8.039667129516602, 0.37529537081718445, 0.2942691445350647, -1.0048208236694336, 0.3507741689682007, 
127, 716490979, -84.25729370117188, -42.11902618408203, -47.863643646240234, 6.984572410583496, -6.711562633514404, 0.7003992199897766, 0.3183337152004242, -0.7635474801063538, 0.5788048505783081, 
128, 716499312, -84.2479476928711, -42.114158630371094, -47.87301254272461, 7.289514541625977, -6.218425273895264, 1.0630075931549072, 0.2668491303920746, 0.672501802444458, 1.8724007606506348, 
129, 716507645, -84.25312042236328, -42.10689163208008, -47.87567138671875, 6.8262200355529785, -6.9855732917785645, 1.3041123151779175, -0.9573704600334167, 0.0994088351726532, 2.211916923522949, 
130, 716515978, -84.25422668457031, -42.10132598876953, -47.88224792480469, 5.958855628967285, -8.124687194824219, 0.4439825415611267, -0.7631248235702515, 0.433328777551651, 1.979378342628479, 
131, 716524311, -84.25911712646484, -42.10727310180664, -47.87401580810547, 6.0486369132995605, -8.395849227905273, 0.7125447392463684, -0.033682722598314285, -1.0365824699401855, 0.7288147211074829, 
132, 716532644, -84.25755310058594, -42.116355895996094, -47.869163513183594, 6.782082557678223, -7.241194725036621, 0.24954859912395477, 0.4761430621147156, -0.7558121085166931, 0.33201175928115845, 
133, 716540977, -84.25054931640625, -42.116737365722656, -47.8725471496582, 7.422348499298096, -6.377082347869873, 0.9564494490623474, 0.46751096844673157, 0.04707896336913109, 1.2943384647369385, 
134, 716549310, -84.25249481201172, -42.1091423034668, -47.875144958496094, 6.98313045501709, -6.65648078918457, 1.2523794174194336, -0.5459033846855164, 0.10578678548336029, 2.2582788467407227, 
135, 716557643, -84.25395965576172, -42.10373306274414, -47.88250732421875, 6.268778324127197, -7.72680139541626, 0.7989731431007385, -0.8681048154830933, 0.4737096428871155, 1.9468357563018799, 
136, 716565976, -84.26069641113281, -42.105133056640625, -47.874305725097656, 5.833064556121826, -8.392373085021973, 0.42446401715278625, -0.2524154782295227, -0.9594196081161499, 1.2807629108428955, 
137, 716574309, -84.25911712646484, -42.114688873291016, -47.870052337646484, 6.521826267242432, -7.718475341796875, 0.10734271258115768, 0.44156378507614136, -0.7495108842849731, 0.2641339898109436, 
138, 716582642, -84.25800323486328, -42.11774826049805, -47.86613845825195, 7.323409557342529, -6.487771511077881, 1.0147809982299805, 0.34676551818847656, -0.5992066264152527, 1.0459060668945312, 
139, 716590975, -84.25260925292969, -42.11078643798828, -47.87445068359375, 7.187674522399902, -6.357975006103516, 1.1824332475662231, -0.1242162212729454, 0.5759616494178772, 2.1227285861968994, 
140, 716599308, -84.2561264038086, -42.10333251953125, -47.87942886352539, 6.577025413513184, -7.455329895019531, 1.208959698677063, -0.9249172210693359, 0.31577226519584656, 2.219806432723999, 
141, 716607641, -84.25921630859375, -42.10166549682617, -47.8792839050293, 5.858271598815918, -8.344656944274902, 0.344688355922699, -0.4982353150844574, -0.19762665033340454, 1.5636723041534424, 
142, 716615974, -84.25956726074219, -42.111297607421875, -47.874183654785156, 6.304673194885254, -8.070430755615234, 0.43934908509254456, 0.2668234705924988, -0.7848584651947021, 0.2705119252204895, 
143, 716624307, -84.25924682617188, -42.1175422668457, -47.86957550048828, 6.9791789054870605, -6.739522933959961, 0.6533550024032593, 0.3400033712387085, -0.7612678408622742, 0.6669178009033203, 
144, 716632640, -84.25100708007812, -42.11325454711914, -47.878543853759766, 7.374289512634277, -6.260542869567871, 1.1186556816101074, 0.16603146493434906, 0.6275487542152405, 1.8059314489364624, 
145, 716640973, -84.25540924072266, -42.105133056640625, -47.8812370300293, 6.848571300506592, -7.02716588973999, 1.241164207458496, -0.8675668835639954, 0.11769741028547287, 2.3108139038085938, 
146, 716649306, -84.25592803955078, -42.10084915161133, -47.88737487792969, 5.965448379516602, -8.09273910522461, 0.38367918133735657, -0.6594000458717346, 0.37814295291900635, 1.831904411315918, 
147, 716657639, -84.26171875, -42.10699462890625, -47.877559661865234, 5.948740482330322, -8.37781047821045, 0.7141183614730835, -0.008465505205094814, -1.1879754066467285, 0.7209126353263855, 
148, 716665972, -84.26073455810547, -42.11578369140625, -47.87161636352539, 6.773577690124512, -7.224586009979248, 0.18837012350559235, 0.49292030930519104, -0.847690224647522, 0.3770159184932709, 
149, 716674305, -84.25379943847656, -42.115962982177734, -47.87306594848633, 7.432712078094482, -6.285832405090332, 1.0388431549072266, 0.5333396792411804, -0.03192814812064171, 1.3231803178787231, 
150, 716682638, -84.25387573242188, -42.107181549072266, -47.877601623535156, 7.035123825073242, -6.537614822387695, 1.3211654424667358, -0.4722881019115448, 0.2893384099006653, 2.3845059871673584, 
151, 716690971, -84.25470733642578, -42.099674224853516, -47.88710403442383, 6.271916389465332, -7.679784297943115, 0.8574959635734558, -0.9373145699501038, 0.6551353335380554, 2.1821792125701904, 
152, 716699304, -84.26201629638672, -42.10189437866211, -47.87939453125, 5.805733680725098, -8.470239639282227, 0.4146145284175873, -0.35889384150505066, -0.9263003468513489, 1.1793818473815918, 
153, 716707637, -84.26090240478516, -42.112823486328125, -47.87446212768555, 6.442722797393799, -7.797857761383057, 0.030006175860762596, 0.4004017114639282, -0.7839364409446716, 0.1027643010020256, 
154, 716715970, -84.25941467285156, -42.11684036254883, -47.869384765625, 7.282824516296387, -6.508464813232422, 0.913654088973999, 0.4840065836906433, -0.713983952999115, 0.9400167465209961, 
155, 716724303, -84.25225830078125, -42.11094284057617, -47.878177642822266, 7.224355697631836, -6.286353588104248, 1.0782185792922974, 0.06872298568487167, 0.5873599648475647, 1.9953488111495972, 
156, 716732636, -84.2557144165039, -42.10383605957031, -47.88422393798828, 6.603989601135254, -7.343597888946533, 1.2046184539794922, -1.0035400390625, 0.4043591022491455, 2.169179677963257, 
157, 716740969, -84.25956726074219, -42.1013069152832, -47.884151458740234, 5.843227863311768, -8.308404922485352, 0.32660382986068726, -0.544853150844574, -0.23679079115390778, 1.6742486953735352, 
158, 716749302, -84.26129913330078, -42.10978698730469, -47.87774658203125, 6.197516441345215, -8.09447193145752, 0.5577858686447144, 0.20747528970241547, -0.8884168863296509, 0.41661548614501953, 
159, 716757635, -84.26029968261719, -42.1167106628418, -47.870967864990234, 6.958721160888672, -6.858403205871582, 0.6696136593818665, 0.4819830358028412, -0.8372139930725098, 0.5910996794700623, 
160, 716765968, -84.25276184082031, -42.11372375488281, -47.87879180908203, 7.42092752456665, -6.329143047332764, 1.0529333353042603, 0.17179468274116516, 0.5130018591880798, 1.6611855030059814, 
161, 716774301, -84.25712585449219, -42.10601806640625, -47.879371643066406, 6.973048686981201, -6.981751918792725, 1.2730714082717896, -0.7136510610580444, -0.05434060096740723, 2.278975486755371, 
162, 716782634, -84.25757598876953, -42.101806640625, -47.88654708862305, 5.987521171569824, -7.961511611938477, 0.5253932476043701, -0.729506254196167, 0.4682025909423828, 1.8129243850708008, 
163, 716790967, -84.26197052001953, -42.10739517211914, -47.88028335571289, 5.91635274887085, -8.291060447692871, 0.6199222207069397, -0.10856593400239944, -0.8867008090019226, 0.7571824789047241, 
164, 716799300, -84.26123046875, -42.11659240722656, -47.87371826171875, 6.718629837036133, -7.341470718383789, 0.15789185464382172, 0.5164341926574707, -0.9092156887054443, 0.33636611700057983, 
165, 716807633, -84.25556182861328, -42.11683654785156, -47.87538528442383, 7.4509806632995605, -6.439983367919922, 0.9868705868721008, 0.39632904529571533, -0.04829563945531845, 1.3199270963668823, 
166, 716815966, -84.25393676757812, -42.109375, -47.88126754760742, 6.976937294006348, -6.578002452850342, 1.303348183631897, -0.3762347102165222, 0.3941262364387512, 2.2118146419525146, 
167, 716824299, -84.25533294677734, -42.103519439697266, -47.88706588745117, 6.39012336730957, -7.673004627227783, 1.0000337362289429, -0.8066051006317139, 0.4149506390094757, 2.0086426734924316, 
168, 716832632, -84.25989532470703, -42.10365676879883, -47.88423156738281, 5.844444751739502, -8.388947486877441, 0.44661635160446167, -0.41967642307281494, -0.46959856152534485, 1.38237464427948, 
169, 716840965, -84.25922393798828, -42.11311721801758, -47.87986755371094, 6.4405131340026855, -7.852420330047607, 0.13832899928092957, 0.3925125300884247, -0.8137258291244507, 0.282781183719635, 
170, 716849298, -84.25810241699219, -42.11771011352539, -47.87506866455078, 7.184802055358887, -6.561245441436768, 0.9570861458778381, 0.42209696769714355, -0.6974371671676636, 0.8691933751106262, 
171, 716857631, -84.25004577636719, -42.11244583129883, -47.88396453857422, 7.2559027671813965, -6.278680324554443, 1.1356927156448364, 0.16582654416561127, 0.5877185463905334, 1.918019413948059, 
172, 716865964, -84.25428771972656, -42.104209899902344, -47.88901138305664, 6.6747517585754395, -7.2007646560668945, 1.2704999446868896, -1.0195105075836182, 0.32824641466140747, 2.3143229484558105, 
173, 716874297, -84.25778198242188, -42.10093688964844, -47.89141082763672, 5.87660026550293, -8.23276138305664, 0.3491148054599762, -0.5601961016654968, -0.15818069875240326, 1.751936674118042, 
174, 716882630, -84.26261138916016, -42.10848617553711, -47.88252639770508, 6.128133773803711, -8.272706031799316, 0.5950879454612732, 0.031377434730529785, -1.093151569366455, 0.5555214881896973, 
175, 716890963, -84.26228332519531, -42.117191314697266, -47.87566375732422, 6.863152980804443, -7.052180767059326, 0.47872546315193176, 0.41725587844848633, -0.8794776201248169, 0.3808068335056305, 
176, 716899296, -84.25487518310547, -42.11564636230469, -47.88125228881836, 7.448484420776367, -6.337812423706055, 0.9926000237464905, 0.3398752808570862, 0.2976374328136444, 1.506603717803955, 
177, 716907629, -84.25782775878906, -42.10684585571289, -47.8841438293457, 7.032382965087891, -6.795090198516846, 1.3749407529830933, -0.6578888297080994, 0.08201678842306137, 2.398209571838379, 
178, 716915962, -84.2586441040039, -42.101356506347656, -47.8918342590332, 6.078552722930908, -7.82627534866333, 0.6574548482894897, -0.8165690302848816, 0.5310342907905579, 1.960180401802063, 
179, 716924295, -84.2639389038086, -42.10475540161133, -47.88441467285156, 5.799689769744873, -8.377559661865234, 0.5259771347045898, -0.21314884722232819, -0.8615219593048096, 1.0223921537399292, 
180, 716932628, -84.26422882080078, -42.11484146118164, -47.8770637512207, 6.574863910675049, -7.583293914794922, 0.12031097710132599, 0.454985648393631, -0.990694522857666, 0.23421655595302582, 
181, 716940961, -84.25996398925781, -42.118167877197266, -47.875240325927734, 7.424272060394287, -6.460347652435303, 0.9721214175224304, 0.4883098006248474, -0.37300729751586914, 0.977644145488739, 
182, 716949294, -84.25635528564453, -42.111080169677734, -47.88211441040039, 7.189655303955078, -6.385844707489014, 1.1970237493515015, -0.22139666974544525, 0.47719326615333557, 2.1604840755462646, 
183, 716957627, -84.25968170166016, -42.10377883911133, -47.88849639892578, 6.506414413452148, -7.470447063446045, 1.095190405845642, -1.0049617290496826, 0.3985830843448639, 2.185739517211914, 
184, 716965960, -84.26488494873047, -42.10323715209961, -47.88576126098633, 5.828144550323486, -8.369993209838867, 0.34732770919799805, -0.5047156810760498, -0.45307740569114685, 1.4628289937973022, 
185, 716974293, -84.26360321044922, -42.11237716674805, -47.881248474121094, 6.250519275665283, -7.973760604858398, 0.31477487087249756, 0.3387482762336731, -0.6755626797676086, 0.3100603222846985, 
186, 716982626, -84.26460266113281, -42.11878204345703, -47.873748779296875, 7.068897247314453, -6.744387149810791, 0.7998809814453125, 0.3850843906402588, -0.9593682885169983, 0.6748582124710083, 
187, 716990959, -84.2577896118164, -42.11463165283203, -47.881954193115234, 7.368316173553467, -6.285069942474365, 1.1679078340530396, 0.086857870221138, 0.49950316548347473, 1.7917413711547852, 
188, 716999292, -84.2603530883789, -42.10734558105469, -47.8863410949707, 6.802122592926025, -7.104884147644043, 1.276868462562561, -0.7618569135665894, 0.2587037682533264, 2.205334186553955, 
189, 717007625, -84.26119995117188, -42.10308837890625, -47.89274215698242, 5.903919696807861, -8.120842933654785, 0.3898334205150604, -0.6837591528892517, 0.33347174525260925, 1.8252190351486206, 
190, 717015958, -84.26641845703125, -42.110504150390625, -47.88429260253906, 5.923562526702881, -8.384241104125977, 0.6677822470664978, -0.04798826575279236, -1.053475022315979, 0.5644865036010742, 
191, 717024291, -84.2662124633789, -42.120853424072266, -47.87629699707031, 6.834935188293457, -7.187040328979492, 0.21787548065185547, 0.5245795249938965, -1.0304478406906128, 0.1971527636051178, 
192, 717032624, -84.25999450683594, -42.120723724365234, -47.88020706176758, 7.4675822257995605, -6.3076629638671875, 1.0261540412902832, 0.3292197287082672, 0.13201577961444855, 1.3545063734054565, 
193, 717040957, -84.26119995117188, -42.112220764160156, -47.88112258911133, 7.1012444496154785, -6.563284397125244, 1.3379993438720703, -0.5157554149627686, 0.15260961651802063, 2.354614019393921, 
194, 717049290, -84.26164245605469, -42.1062126159668, -47.89078140258789, 6.219191551208496, -7.696466445922852, 0.8544200658798218, -0.9293227791786194, 0.7102058529853821, 2.0031354427337646, 
195, 717057623, -84.26624298095703, -42.107269287109375, -47.885833740234375, 5.760005474090576, -8.466383934020996, 0.4137275815010071, -0.3309231102466583, -0.6158045530319214, 1.2788931131362915, 
196, 717065956, -84.264404296875, -42.117889404296875, -47.88101577758789, 6.428023815155029, -7.855488300323486, 0.08451084047555923, 0.5081095099449158, -0.7708988189697266, 0.1499457210302353, 
197, 717074289, -84.2620849609375, -42.12324905395508, -47.87790298461914, 7.353523254394531, -6.588748455047607, 0.9086113572120667, 0.4800363779067993, -0.6417518258094788, 0.759154736995697, 
198, 717082622, -84.25443267822266, -42.1172981262207, -47.88622283935547, 7.245241165161133, -6.348390102386475, 1.143507957458496, 0.1455657035112381, 0.5924316644668579, 2.0120749473571777, 
199, 717090955, -84.25695037841797, -42.110225677490234, -47.89248275756836, 6.632045269012451, -7.280799865722656, 1.1939283609390259, -0.9188979268074036, 0.4074200689792633, 2.15602707862854, 
200, 717099288, -84.26069641113281, -42.10744857788086, -47.89188003540039, 5.794551372528076, -8.252195358276367, 0.31339597702026367, -0.5028842687606812, -0.23841728270053864, 1.7117096185684204, 
201, 717107621, -84.26203918457031, -42.115150451660156, -47.88674545288086, 6.114264488220215, -8.118927001953125, 0.562406599521637, 0.2083461731672287, -0.8528386950492859, 0.49817121028900146, 
202, 717115954, -84.26185607910156, -42.123435974121094, -47.8804817199707, 6.930138111114502, -6.939845561981201, 0.5890582799911499, 0.422762930393219, -0.8700259923934937, 0.4406416416168213, 
203, 717124287, -84.25424194335938, -42.12105941772461, -47.88752365112305, 7.5075883865356445, -6.330580711364746, 1.090880036354065, 0.34130966663360596, 0.30270901322364807, 1.5979185104370117, 
204, 717132620, -84.2571792602539, -42.11272048950195, -47.89139175415039, 6.984474182128906, -6.953373432159424, 1.3573517799377441, -0.7634707093238831, 0.22694213688373566, 2.3350961208343506, 
205, 717140953, -84.25774383544922, -42.10673522949219, -47.8989143371582, 5.993559837341309, -7.93307638168335, 0.5522603988647461, -0.8177984356880188, 0.5355167984962463, 2.013765335083008, 
206, 717149286, -84.2625732421875, -42.11143112182617, -47.89250183105469, 5.824924945831299, -8.337103843688965, 0.5388451218605042, -0.1630474030971527, -0.8424137234687805, 0.8705253601074219, 
207, 717157619, -84.2618637084961, -42.121307373046875, -47.88479232788086, 6.674804210662842, -7.422333240509033, 0.10404525697231293, 0.4897442162036896, -0.9213056564331055, 0.242592453956604, 
208, 717165952, -84.25827026367188, -42.12330627441406, -47.88397216796875, 7.43377161026001, -6.470355033874512, 0.9119012355804443, 0.3973792493343353, -0.31501665711402893, 1.143701195716858, 
209, 717174285, -84.2557144165039, -42.1157112121582, -47.889854431152344, 7.053775310516357, -6.454756736755371, 1.247406244277954, -0.30059584975242615, 0.40388524532318115, 2.2184488773345947, 
210, 717182618, -84.25723266601562, -42.10823440551758, -47.89645767211914, 6.452298641204834, -7.571285724639893, 1.045365810394287, -0.8158006072044373, 0.4579569399356842, 2.2101242542266846, 
211, 717190951, -84.26148223876953, -42.107574462890625, -47.89091873168945, 5.792537689208984, -8.334930419921875, 0.3339661657810211, -0.4410514831542969, -0.4272197484970093, 1.4661202430725098, 
212, 717199284, -84.26012420654297, -42.117923736572266, -47.8859748840332, 6.287549018859863, -7.9827446937561035, 0.2688398063182831, 0.4607488811016083, -0.7797101140022278, 0.18045230209827423, 
213, 717207617, -84.26004791259766, -42.124481201171875, -47.87933349609375, 7.127936840057373, -6.684582233428955, 0.8920882940292358, 0.42263489961624146, -0.8903124332427979, 0.6415086388587952, 
214, 717215950, -84.25325012207031, -42.12105178833008, -47.88623046875, 7.419529914855957, -6.33402681350708, 1.0928659439086914, 0.16208690404891968, 0.43559572100639343, 1.72268545627594, 
215, 717224283, -84.25688171386719, -42.11201095581055, -47.89323425292969, 6.831531047821045, -7.0261359214782715, 1.2538938522338867, -0.9014545679092407, 0.2625459134578705, 2.4080965518951416, 
216, 717232616, -84.25991821289062, -42.1068229675293, -47.89698791503906, 5.872090816497803, -8.06668472290039, 0.42676571011543274, -0.7670566439628601, 0.17609785497188568, 1.959181547164917, 
217, 717240949, -84.2640609741211, -42.113563537597656, -47.891700744628906, 5.9495415687561035, -8.35338306427002, 0.6551074385643005, -0.03210744261741638, -0.9460488557815552, 0.6269339919090271, 
218, 717249282, -84.26441192626953, -42.12297058105469, -47.883583068847656, 6.796116352081299, -7.238605499267578, 0.3286731243133545, 0.5108758807182312, -1.0504013299942017, 0.3225856423377991, 
219, 717257615, -84.2584457397461, -42.12245559692383, -47.8857307434082, 7.543567180633545, -6.397946357727051, 1.0115050077438354, 0.4234801232814789, -0.02826530672609806, 1.4077839851379395, 
220, 717265948, -84.25939178466797, -42.11430740356445, -47.88948440551758, 7.111509799957275, -6.690781116485596, 1.3573405742645264, -0.5149614214897156, 0.21216270327568054, 2.312427282333374, 
221, 717274281, -84.25959014892578, -42.107666015625, -47.89905548095703, 6.19283390045166, -7.684055328369141, 0.7663869261741638, -0.843720018863678, 0.6235017776489258, 2.08074688911438, 
222, 717282614, -84.26591491699219, -42.110435485839844, -47.89300537109375, 5.7005510330200195, -8.382861137390137, 0.48896855115890503, -0.3722388744354248, -0.7842694520950317, 1.098799467086792, 
223, 717290947, -84.2664794921875, -42.121212005615234, -47.884098052978516, 6.517284393310547, -7.7266011238098145, 0.1036589965224266, 0.39865994453430176, -0.9989678859710693, 0.1428249627351761, 
224, 717299280, -84.26289367675781, -42.12499237060547, -47.88130569458008, 7.405910491943359, -6.539551258087158, 0.9844028353691101, 0.5541383624076843, -0.5114266276359558, 0.9467278122901917, 
225, 717307613, -84.25656127929688, -42.11848449707031, -47.88913345336914, 7.3106794357299805, -6.380404472351074, 1.1559405326843262, -0.02969970740377903, 0.58751380443573, 2.0710647106170654, 
226, 717315946, -84.2602767944336, -42.110801696777344, -47.89551544189453, 6.512639045715332, -7.3992018699646, 1.1366934776306152, -1.061287522315979, 0.44243472814559937, 2.233638048171997, 
227, 717324279, -84.26329803466797, -42.10874557495117, -47.89622116088867, 5.749448776245117, -8.266305923461914, 0.31761837005615234, -0.5021798610687256, -0.1827191412448883, 1.6106231212615967, 
228, 717332612, -84.26502227783203, -42.1180419921875, -47.89017868041992, 6.201779365539551, -8.045689582824707, 0.45967745780944824, 0.17691750824451447, -0.8604461550712585, 0.31838491559028625, 
229, 717340945, -84.26512145996094, -42.12498092651367, -47.8863525390625, 7.007089614868164, -6.792890548706055, 0.6391351222991943, 0.3723284900188446, -0.8609071969985962, 0.5906386375427246, 
230, 717349278, -84.25728607177734, -42.12089920043945, -47.8940315246582, 7.486834526062012, -6.336399078369141, 1.082189917564392, 0.22161434590816498, 0.5117980241775513, 1.7930988073349, 
231, 717357611, -84.25977325439453, -42.11313247680664, -47.903350830078125, 6.822115898132324, -7.0387139320373535, 1.2938578128814697, -0.7535324096679688, 0.23895518481731415, 2.256486177444458, 
232, 717365944, -84.259521484375, -42.108821868896484, -47.91092300415039, 5.939866065979004, -8.05787181854248, 0.435822457075119, -0.6784570813179016, 0.5056506395339966, 1.8200193643569946, 
233, 717374277, -84.26655578613281, -42.11422348022461, -47.90439224243164, 5.8874406814575195, -8.349778175354004, 0.7079168558120728, -0.16916920244693756, -1.1643333435058594, 0.809307336807251, 
234, 717382610, -84.2642593383789, -42.123130798339844, -47.899192810058594, 6.8411865234375, -7.273575782775879, 0.10433851927518845, 0.5941734313964844, -0.7835522294044495, 0.35731858015060425, 
235, 717390943, -84.25940704345703, -42.12378692626953, -47.900997161865234, 7.4736552238464355, -6.392030715942383, 0.9901894927024841, 0.30834415555000305, -0.06327996402978897, 1.2655223608016968, 
236, 717399276, -84.25901794433594, -42.11556625366211, -47.905303955078125, 7.046819686889648, -6.5035600662231445, 1.295647144317627, -0.4004914164543152, 0.26354488730430603, 2.3186519145965576, 
237, 717407609, -84.26051330566406, -42.10944366455078, -47.91008377075195, 6.288519382476807, -7.63217830657959, 1.0323115587234497, -0.9288105368614197, 0.5404859781265259, 2.0274434089660645, 
238, 717415942, -84.2667465209961, -42.1107177734375, -47.90375900268555, 5.790741443634033, -8.382895469665527, 0.3872620761394501, -0.34024667739868164, -0.7931831479072571, 1.2786113023757935, 
239, 717424275, -84.2649917602539, -42.120513916015625, -47.89837646484375, 6.447587013244629, -7.8663105964660645, 0.14044606685638428, 0.39092445373535156, -0.6784570217132568, 0.230861097574234, 
240, 717432608, -84.26526641845703, -42.12502670288086, -47.89101028442383, 7.275285720825195, -6.661843299865723, 0.9571287631988525, 0.45921197533607483, -0.9227399826049805, 0.9026967883110046, 
241, 717440941, -84.2569580078125, -42.119361877441406, -47.90166091918945, 7.271440029144287, -6.401951313018799, 1.0913594961166382, 0.12627817690372467, 0.6734750866889954, 1.9573373794555664, 
242, 717449274, -84.26077270507812, -42.11214065551758, -47.9062385559082, 6.6314496994018555, -7.2531938552856445, 1.2371350526809692, -0.9252759218215942, 0.2730221450328827, 2.193833827972412, 
243, 717457607, -84.26321411132812, -42.109283447265625, -47.90972900390625, 5.834290504455566, -8.157185554504395, 0.37925025820732117, -0.5433420538902283, -0.046272121369838715, 1.6937670707702637, 
244, 717465940, -84.26600646972656, -42.11820983886719, -47.90222930908203, 6.176858901977539, -8.103291511535645, 0.6172974705696106, 0.16828550398349762, -0.9902591109275818, 0.37455689907073975, 
245, 717474273, -84.26470947265625, -42.12625503540039, -47.895931243896484, 6.929323673248291, -6.938794136047363, 0.5396247506141663, 0.5205836892127991, -0.8567577004432678, 0.45951929688453674, 
246, 717482606, -84.25680541992188, -42.12282180786133, -47.902801513671875, 7.458186149597168, -6.354568958282471, 1.0653451681137085, 0.2923736870288849, 0.43402040004730225, 1.7223395109176636, 
247, 717490939, -84.26039123535156, -42.11491394042969, -47.90785217285156, 6.927112102508545, -6.951425075531006, 1.2511695623397827, -0.7084513902664185, 0.04695089906454086, 2.291116714477539, 
248, 717499272, -84.25921630859375, -42.10969161987305, -47.917022705078125, 5.9926652908325195, -7.921962738037109, 0.5652422904968262, -0.6954137086868286, 0.6573125123977661, 1.9168411493301392, 
249, 717507605, -84.26661682128906, -42.114559173583984, -47.904640197753906, 5.878885269165039, -8.330544471740723, 0.6499719023704529, -0.11917023360729218, -1.266047477722168, 0.8810015916824341, 
250, 717515938, -84.26524353027344, -42.1237678527832, -47.899654388427734, 6.743307113647461, -7.39304256439209, 0.06660012155771255, 0.4633871018886566, -0.7671847343444824, 0.32140740752220154, 
251, 717524271, -84.25959014892578, -42.124534606933594, -47.89689254760742, 7.488460540771484, -6.393510818481445, 0.9556843638420105, 0.48182934522628784, -0.14947187900543213, 1.2646005153656006, 
252, 717532604, -84.25859069824219, -42.11634826660156, -47.90232849121094, 6.981253623962402, -6.520026683807373, 1.2800215482711792, -0.4213925898075104, 0.3636196255683899, 2.304333448410034, 
253, 717540937, -84.25872039794922, -42.11050033569336, -47.91099166870117, 6.340316295623779, -7.640189170837402, 0.9507764577865601, -0.8560405969619751, 0.638588547706604, 1.9836690425872803, 
254, 717549270, -84.2652816772461, -42.11105728149414, -47.90486526489258, 5.790090560913086, -8.402766227722168, 0.3637077510356903, -0.3967517018318176, -0.7674921154975891, 1.3644447326660156, 
255, 717557603, -84.26419067382812, -42.12118911743164, -47.89870834350586, 6.459418296813965, -7.9081621170043945, 0.08384575694799423, 0.44607189297676086, -0.823279857635498, 0.2013535052537918, 
256, 717565936, -84.26426696777344, -42.12588882446289, -47.892425537109375, 7.187455654144287, -6.566653251647949, 0.9257709980010986, 0.3933834433555603, -0.8290942907333374, 0.8701924681663513, 
257, 717574269, -84.25482177734375, -42.12068557739258, -47.90378189086914, 7.274990558624268, -6.26120138168335, 1.1296088695526123, 0.19845908880233765, 0.7348724007606506, 1.8958630561828613, 
258, 717582602, -84.25880432128906, -42.112606048583984, -47.909156799316406, 6.705618858337402, -7.198399543762207, 1.2592740058898926, -1.0095211267471313, 0.35680630803108215, 2.2898359298706055, 
259, 717590935, -84.26158905029297, -42.10821533203125, -47.91722106933594, 5.873987197875977, -8.235383987426758, 0.36329424381256104, -0.6097085475921631, 0.0054558319970965385, 1.8708637952804565, 
260, 717599268, -84.26559448242188, -42.11631774902344, -47.90964126586914, 6.153841018676758, -8.240553855895996, 0.5680286884307861, 0.027381617575883865, -0.9861865043640137, 0.47493913769721985, 
261, 717607601, -84.26498413085938, -42.12366485595703, -47.90312194824219, 6.932642459869385, -7.026158809661865, 0.5223864316940308, 0.5432266592979431, -0.9610844850540161, 0.5526782870292664, 
262, 717615934, -84.25666809082031, -42.1212272644043, -47.911094665527344, 7.4366374015808105, -6.346325397491455, 1.0072944164276123, 0.2565777897834778, 0.5178685784339905, 1.592795491218567, 
263, 717624267, -84.25872039794922, -42.11365509033203, -47.91393280029297, 6.926709175109863, -6.838211536407471, 1.2734512090682983, -0.5835306644439697, 0.10404501855373383, 2.245266914367676, 
264, 717632600, -84.25750732421875, -42.10905075073242, -47.923011779785156, 6.004306316375732, -7.8995513916015625, 0.5620722770690918, -0.6856546998023987, 0.6438906192779541, 1.8432260751724243, 
265, 717640933, -84.2624740600586, -42.11334228515625, -47.915340423583984, 5.844273567199707, -8.373897552490234, 0.6421962976455688, -0.1195032075047493, -0.9352140426635742, 0.9210366010665894, 
266, 717649266, -84.26075744628906, -42.12303161621094, -47.910499572753906, 6.733243465423584, -7.499813556671143, 0.05770929902791977, 0.4975820481777191, -0.7638548612594604, 0.25895988941192627, 
267, 717657599, -84.2557373046875, -42.12401580810547, -47.91099166870117, 7.441531658172607, -6.415077209472656, 1.072475790977478, 0.43528828024864197, -0.18351317942142487, 1.2423160076141357, 
268, 717665932, -84.25260925292969, -42.116172790527344, -47.91786193847656, 7.034785270690918, -6.4878621101379395, 1.2708877325057983, -0.2807448208332062, 0.48364800214767456, 2.2499799728393555, 
269, 717674265, -84.25428771972656, -42.11021423339844, -47.92189025878906, 6.388758182525635, -7.5533061027526855, 1.0458076000213623, -0.8490478992462158, 0.4275015592575073, 2.0196311473846436, 
270, 717682598, -84.26004028320312, -42.10977554321289, -47.91658020019531, 5.842477321624756, -8.389453887939453, 0.36675503849983215, -0.3667062222957611, -0.6812746524810791, 1.4739199876785278, 
271, 717690931, -84.25807189941406, -42.1196174621582, -47.91523742675781, 6.426850318908691, -7.881832599639893, 0.17865677177906036, 0.41077545285224915, -0.6676222085952759, 0.22161434590816498, 
272, 717699264, -84.25826263427734, -42.124698638916016, -47.90866470336914, 7.161076068878174, -6.6143412590026855, 0.8638703227043152, 0.4061393141746521, -0.8588836789131165, 0.8275702595710754, 
273, 717707597, -84.25, -42.1190185546875, -47.9205207824707, 7.265873432159424, -6.3168044090271, 1.122215747833252, 0.16510935127735138, 0.6237834095954895, 1.9622808694839478, 
274, 717715930, -84.25457000732422, -42.1107177734375, -47.924808502197266, 6.667226791381836, -7.205626964569092, 1.2619409561157227, -0.9946392774581909, 0.26282769441604614, 2.327155590057373, 
275, 717724263, -84.25589752197266, -42.106903076171875, -47.928802490234375, 5.890909194946289, -8.195971488952637, 0.3077596426010132, -0.4892446994781494, 0.053815506398677826, 1.7993487119674683, 
276, 717732596, -84.26058197021484, -42.11418151855469, -47.919883728027344, 6.137217998504639, -8.252291679382324, 0.6219540238380432, 0.05250918120145798, -1.0936894416809082, 0.5845168232917786, 
277, 717740929, -84.25946807861328, -42.12215805053711, -47.91732406616211, 6.8380608558654785, -7.057023525238037, 0.4097577631473541, 0.469662606716156, -0.8201037645339966, 0.4625930190086365, 
278, 717749262, -84.25100708007812, -42.12002944946289, -47.923858642578125, 7.418735504150391, -6.309679985046387, 1.0025782585144043, 0.39015600085258484, 0.38646751642227173, 1.570408582687378, 
279, 717757595, -84.25435638427734, -42.11228942871094, -47.921661376953125, 6.911343097686768, -6.76003885269165, 1.3598767518997192, -0.6214654445648193, -0.027138281613588333, 2.279820442199707, 
280, 717765928, -84.25382995605469, -42.10626983642578, -47.93086624145508, 6.136603832244873, -7.821667671203613, 0.6985955834388733, -0.7786343097686768, 0.6708111763000488, 2.012023687362671, 
281, 717774261, -84.25958251953125, -42.11054229736328, -47.9282341003418, 5.862355709075928, -8.4213285446167, 0.5882712602615356, -0.22103804349899292, -0.9201017022132874, 0.9186800122261047, 
282, 717782594, -84.257080078125, -42.12088394165039, -47.924381256103516, 6.652651786804199, -7.592270851135254, 0.06810221821069717, 0.510440468788147, -0.6820430755615234, 0.1729729324579239, 
283, 717790927, -84.25344848632812, -42.12316131591797, -47.92293167114258, 7.364552974700928, -6.455039978027344, 1.0298305749893188, 0.43820831179618835, -0.3884526193141937, 1.1062787771224976, 
284, 717799260, -84.25011444091797, -42.11528778076172, -47.92961502075195, 7.102611064910889, -6.37640380859375, 1.1930750608444214, -0.23971077799797058, 0.46961137652397156, 2.2542061805725098, 
285, 717807593, -84.25318145751953, -42.10979461669922, -47.93710708618164, 6.428643703460693, -7.521320819854736, 1.122868299484253, -1.0400021076202393, 0.4514252841472626, 1.962127447128296, 
286, 717815926, -84.25826263427734, -42.10882568359375, -47.93388748168945, 5.81736421585083, -8.40533447265625, 0.35291412472724915, -0.45261630415916443, -0.49001309275627136, 1.5182068347930908, 
287, 717824259, -84.2572250366211, -42.118614196777344, -47.92646026611328, 6.311367988586426, -8.009346008300781, 0.24902647733688354, 0.38472580909729004, -0.7588601112365723, 0.23626568913459778, 
288, 717832592, -84.25655364990234, -42.12424850463867, -47.92095947265625, 7.111470699310303, -6.669425010681152, 0.8595213890075684, 0.422148197889328, -0.7721539735794067, 0.7503946423530579, 
289, 717840925, -84.24818420410156, -42.12008285522461, -47.93861389160156, 7.363884449005127, -6.322508335113525, 1.1263893842697144, 0.19574396312236786, 0.5886919498443604, 1.785593867301941, 
290, 717849258, -84.25037384033203, -42.11143112182617, -47.943946838378906, 6.79063081741333, -7.110633373260498, 1.2055338621139526, -0.7915950417518616, 0.3596750795841217, 2.358942747116089, 
291, 717857591, -84.25074768066406, -42.10737991333008, -47.94655227661133, 5.87970495223999, -8.113807678222656, 0.43633610010147095, -0.5235164761543274, 0.21854063868522644, 1.8090052604675293, 
292, 717865924, -84.25638580322266, -42.113304138183594, -47.938716888427734, 6.056297779083252, -8.21511173248291, 0.6715589761734009, -0.1490364372730255, -0.9825235605239868, 0.7377155423164368, 
293, 717874257, -84.2549819946289, -42.12166213989258, -47.932621002197266, 6.829284191131592, -7.151433944702148, 0.2888818681240082, 0.5654598474502563, -0.8904916048049927, 0.42258360981941223, 
294, 717882590, -84.24749755859375, -42.119407653808594, -47.93777084350586, 7.429650783538818, -6.347511291503906, 0.9768208265304565, 0.3815496265888214, 0.2666698098182678, 1.598533034324646, 
295, 717890923, -84.25068664550781, -42.11191940307617, -47.9398193359375, 6.917321681976318, -6.758527755737305, 1.37811279296875, -0.6825040578842163, 0.06406120210886002, 2.2384533882141113, 
296, 717899256, -84.25114440917969, -42.10650634765625, -47.94783401489258, 6.190909385681152, -7.781000137329102, 0.6873714327812195, -0.799202561378479, 0.5582365989685059, 1.9483723640441895, 
297, 717907589, -84.2562484741211, -42.10993194580078, -47.94147491455078, 5.825110912322998, -8.439996719360352, 0.5360340476036072, -0.23635533452033997, -0.8151858448982239, 1.0137345790863037, 
298, 717915922, -84.25554656982422, -42.12018966674805, -47.93488693237305, 6.6053290367126465, -7.633578300476074, 0.06151430681347847, 0.5152559876441956, -0.9239439368247986, 0.20624583959579468, 
299, 717924255, -84.2524642944336, -42.123077392578125, -47.93278121948242, 7.356827735900879, -6.466134071350098, 0.9613492488861084, 0.4186902940273285, -0.4475703239440918, 1.0386828184127808, 
300, 717932588, -84.24734497070312, -42.11601257324219, -47.940372467041016, 7.112837791442871, -6.2537760734558105, 1.1765918731689453, -0.0926082655787468, 0.5390003323554993, 2.149674654006958, 
301, 717940921, -84.25042724609375, -42.108150482177734, -47.94710159301758, 6.519129276275635, -7.426329612731934, 1.1980504989624023, -1.0163856744766235, 0.44940173625946045, 2.2476487159729004, 
302, 717949254, -84.25584411621094, -42.10578918457031, -47.9453010559082, 5.808684825897217, -8.355827331542969, 0.3133051097393036, -0.6076592803001404, -0.347751647233963, 1.6739413738250732, 
303, 717957587, -84.25547790527344, -42.1153564453125, -47.9416389465332, 6.281676769256592, -8.105143547058105, 0.3326501250267029, 0.37068918347358704, -0.8288381695747375, 0.2695385813713074, 
304, 717965920, -84.25534057617188, -42.1225700378418, -47.93532943725586, 6.971139430999756, -6.78489351272583, 0.7401690483093262, 0.42178958654403687, -0.8631356358528137, 0.5689690113067627, 
305, 717974253, -84.24747467041016, -42.11891555786133, -47.94418716430664, 7.377241611480713, -6.3580322265625, 1.0953359603881836, 0.24830438196659088, 0.45437091588974, 1.7375671863555908, 
306, 717982586, -84.25007629394531, -42.11188888549805, -47.9485969543457, 6.887231349945068, -7.014096736907959, 1.2508156299591064, -0.768593430519104, 0.26049673557281494, 2.1733932495117188, 
307, 717990919, -84.2526626586914, -42.10765075683594, -47.951385498046875, 5.919305324554443, -8.017210006713867, 0.4738880395889282, -0.8222554326057434, 0.2540163993835449, 1.8294200897216797, 
308, 717999252, -84.25774383544922, -42.11368942260742, -47.94435119628906, 5.939864635467529, -8.320551872253418, 0.6250509023666382, -0.14434902369976044, -0.9133139252662659, 0.7154824137687683, 
309, 718007585, -84.25668334960938, -42.12230682373047, -47.937538146972656, 6.764228343963623, -7.258976936340332, 0.24048596620559692, 0.5105172991752625, -0.8824743628501892, 0.3915904462337494, 
310, 718015918, -84.24991607666016, -42.12228775024414, -47.941410064697266, 7.4663591384887695, -6.3592848777771, 1.024237036705017, 0.4019385576248169, 0.12443394958972931, 1.3401111364364624, 
311, 718024251, -84.24925231933594, -42.114253997802734, -47.94057846069336, 7.058036804199219, -6.648339748382568, 1.27791428565979, -0.3863523006439209, 0.24587105214595795, 2.2884013652801514, 
312, 718032584, -84.24988555908203, -42.10974884033203, -47.94782257080078, 6.236856937408447, -7.743592739105225, 0.8705340623855591, -0.7590394616127014, 0.477603018283844, 1.8478107452392578, 
313, 718040917, -84.2542953491211, -42.11140441894531, -47.9427375793457, 5.807163715362549, -8.389312744140625, 0.47307494282722473, -0.2526460289955139, -0.681146502494812, 1.212091088294983, 
314, 718049250, -84.2523193359375, -42.12105178833008, -47.93819808959961, 6.478558540344238, -7.7418437004089355, 0.07862404733896255, 0.5003484487533569, -0.7354230880737305, 0.26293012499809265, 
315, 718057583, -84.25027465820312, -42.12443542480469, -47.93357849121094, 7.345268726348877, -6.517591953277588, 0.927873969078064, 0.5096207857131958, -0.684322714805603, 1.0023362636566162, 
316, 718065916, -84.24285888671875, -42.11736297607422, -47.9432487487793, 7.1447954177856445, -6.384542465209961, 1.2411142587661743, 0.01270466111600399, 0.7231411337852478, 2.1302080154418945, 
317, 718074249, -84.2450942993164, -42.11109924316406, -47.94512939453125, 6.564309597015381, -7.409346580505371, 1.1217241287231445, -0.8375726342201233, 0.33836403489112854, 2.0669405460357666, 
318, 718082582, -84.24854278564453, -42.10930633544922, -47.9449577331543, 5.803778648376465, -8.328506469726562, 0.36772456765174866, -0.500182032585144, -0.2105618119239807, 1.5894402265548706, 
319, 718090915, -84.25013732910156, -42.117740631103516, -47.93745803833008, 6.271820068359375, -8.079458236694336, 0.40502259135246277, 0.30214551091194153, -0.9983275532722473, 0.4245302975177765, 
320, 718099248, -84.24772644042969, -42.12514877319336, -47.93329620361328, 6.988570690155029, -6.764972686767578, 0.6565949320793152, 0.5205581188201904, -0.6727963089942932, 0.526756763458252, 
321, 718107581, -84.23807525634766, -42.12018966674805, -47.941131591796875, 7.38260555267334, -6.258798122406006, 1.0469313859939575, 0.3944080173969269, 0.542048454284668, 1.8831075429916382, 
322, 718115914, -84.240966796875, -42.1120491027832, -47.94470977783203, 6.901854038238525, -6.984311103820801, 1.3119219541549683, -0.7368831038475037, 0.19973982870578766, 2.3148610591888428, 
323, 718124247, -84.24102020263672, -42.10734558105469, -47.95388412475586, 5.924746990203857, -8.046345710754395, 0.5237277746200562, -0.7603969573974609, 0.5317258834838867, 1.8567758798599243, 
324, 718132580, -84.24717712402344, -42.11318588256836, -47.945457458496094, 5.938718795776367, -8.372982025146484, 0.6619458794593811, -0.16258634626865387, -1.0340337753295898, 0.753878116607666, 
325, 718140913, -84.24478912353516, -42.12236404418945, -47.93984603881836, 6.7739787101745605, -7.31926155090332, 0.1479567438364029, 0.5287290811538696, -0.7304795980453491, 0.30352869629859924, 
326, 718149246, -84.23950958251953, -42.122257232666016, -47.941192626953125, 7.471674919128418, -6.352962970733643, 0.938388466835022, 0.42386433482170105, -0.09565635025501251, 1.376739501953125, 
327, 718157579, -84.23942565917969, -42.11540985107422, -47.94658660888672, 6.991944313049316, -6.607686519622803, 1.2901328802108765, -0.42023998498916626, 0.19771629571914673, 2.1477537155151367, 
328, 718165912, -84.24037170410156, -42.10957717895508, -47.95515441894531, 6.288121223449707, -7.681524276733398, 0.9169133901596069, -0.9041696786880493, 0.6126155853271484, 1.9942219257354736, 
329, 718174245, -84.24666595458984, -42.11101150512695, -47.94896697998047, 5.813909530639648, -8.396657943725586, 0.43639495968818665, -0.23031041026115417, -0.9487127661705017, 1.2658298015594482, 
330, 718182578, -84.24490356445312, -42.12008285522461, -47.94373321533203, 6.511025905609131, -7.713361740112305, 0.14274950325489044, 0.5313929319381714, -0.7900071144104004, 0.3379030227661133, 
331, 718190911, -84.24400329589844, -42.12434387207031, -47.9389533996582, 7.306779384613037, -6.539987564086914, 1.0295945405960083, 0.36108386516571045, -0.6841690540313721, 0.8951406478881836, 
332, 718199244, -84.2371597290039, -42.11771774291992, -47.947017669677734, 7.193098545074463, -6.326037406921387, 1.1888879537582397, 0.0710538849234581, 0.5779595971107483, 2.0926060676574707, 
333, 718207577, -84.24089813232422, -42.11079406738281, -47.950809478759766, 6.580766677856445, -7.4332733154296875, 1.195224642753601, -0.9651572704315186, 0.2949223220348358, 2.1501359939575195, 
334, 718215910, -84.24539947509766, -42.10853576660156, -47.94940185546875, 5.845315933227539, -8.257783889770508, 0.36828529834747314, -0.5269488096237183, -0.3149910271167755, 1.6535781621932983, 
335, 718224243, -84.24654388427734, -42.117431640625, -47.943546295166016, 6.246742248535156, -8.103320121765137, 0.4766368567943573, 0.21403254568576813, -0.854247510433197, 0.3564988970756531, 
336, 718232576, -84.24656677246094, -42.124568939208984, -47.93656921386719, 6.961854934692383, -6.780923843383789, 0.6196150183677673, 0.4583666920661926, -0.9186672568321228, 0.5846448540687561, 
337, 718240909, -84.23854064941406, -42.12067794799805, -47.94432067871094, 7.361289024353027, -6.341835021972656, 1.078616738319397, 0.22598159313201904, 0.5017956495285034, 1.7584812641143799, 
338, 718249242, -84.24180603027344, -42.11312484741211, -47.947322845458984, 6.841224670410156, -7.021944046020508, 1.1900831460952759, -0.7370495796203613, 0.140122652053833, 2.249685287475586, 
339, 718257575, -84.24114227294922, -42.10829162597656, -47.95556640625, 5.989637851715088, -8.08328628540039, 0.4474025070667267, -0.6094266772270203, 0.4617733955383301, 1.87964928150177, 
340, 718265908, -84.24769592285156, -42.11516571044922, -47.946067810058594, 5.995204925537109, -8.297119140625, 0.6708939671516418, -0.12685449421405792, -1.139743685722351, 0.6395362019538879, 
341, 718274241, -84.2454605102539, -42.123817443847656, -47.943199157714844, 6.795894622802734, -7.243762969970703, 0.18402118980884552, 0.42734792828559875, -0.6338626742362976, 0.35998252034187317, 
342, 718282574, -84.24073791503906, -42.12248229980469, -47.9443473815918, 7.414113998413086, -6.345064640045166, 1.0335001945495605, 0.3714064359664917, -0.09873007982969284, 1.523073673248291, 
343, 718290907, -84.24103546142578, -42.11452102661133, -47.94825744628906, 6.945052623748779, -6.568435192108154, 1.3510801792144775, -0.5831465125083923, 0.34238550066947937, 2.2690627574920654, 
344, 718299240, -84.24268341064453, -42.110084533691406, -47.95537185668945, 6.2531585693359375, -7.736809730529785, 0.8827072978019714, -0.8746107816696167, 0.46523135900497437, 1.841407299041748, 
345, 718307573, -84.24942779541016, -42.111202239990234, -47.949241638183594, 5.848135948181152, -8.443272590637207, 0.4213954508304596, -0.28661048412323, -0.9430264234542847, 1.3013311624526978, 
346, 718315906, -84.24783325195312, -42.12057876586914, -47.94515609741211, 6.500875473022461, -7.798000812530518, 0.08428195118904114, 0.4215334951877594, -0.6929547190666199, 0.28964582085609436, 
347, 718324239, -84.24667358398438, -42.12479019165039, -47.9419059753418, 7.24088716506958, -6.491534233093262, 0.9537457823753357, 0.41077545285224915, -0.704327404499054, 0.9039007425308228, 
348, 718332572, -84.23992156982422, -42.118309020996094, -47.95046615600586, 7.1649603843688965, -6.354060173034668, 1.1511847972869873, 0.02020963281393051, 0.6194289922714233, 2.073190450668335, 
349, 718340905, -84.2435531616211, -42.11161804199219, -47.952728271484375, 6.5988664627075195, -7.384998798370361, 1.1864855289459229, -0.9775031805038452, 0.3172835409641266, 2.1194753646850586, 
350, 718349238, -84.24752807617188, -42.10970687866211, -47.95210647583008, 5.8745436668396, -8.358701705932617, 0.31885990500450134, -0.5251558423042297, -0.24972599744796753, 1.6066784858703613, 
351, 718357571, -84.24905395507812, -42.119728088378906, -47.944637298583984, 6.28551721572876, -8.062284469604492, 0.45886215567588806, 0.3213818073272705, -1.0333678722381592, 0.23662430047988892, 
352, 718365904, -84.24860382080078, -42.125789642333984, -47.93846893310547, 7.007061004638672, -6.762526512145996, 0.6988255977630615, 0.4480954110622406, -0.8350113034248352, 0.7073115110397339, 
353, 718374237, -84.2402114868164, -42.12186813354492, -47.94594192504883, 7.363669395446777, -6.294771194458008, 1.1200650930404663, 0.26574769616127014, 0.5069569945335388, 1.7624900341033936, 
354, 718382570, -84.245361328125, -42.11467361450195, -47.94853591918945, 6.833132743835449, -7.064992904663086, 1.2583892345428467, -0.9247891902923584, 0.09876849502325058, 2.2084596157073975, 
355, 718390903, -84.24470520019531, -42.11030960083008, -47.951358795166016, 5.911826133728027, -8.122684478759766, 0.48183706402778625, -0.6962077021598816, 0.5474017262458801, 1.8160490989685059, 
356, 718399236, -84.2511215209961, -42.11708068847656, -47.94161605834961, 6.01094913482666, -8.268228530883789, 0.6559798717498779, -0.08938086777925491, -1.159825325012207, 0.6508321166038513, 
357, 718407569, -84.25077819824219, -42.12569808959961, -47.934425354003906, 6.800930023193359, -7.206431865692139, 0.19957862794399261, 0.4800363779067993, -0.9449219107627869, 0.39791712164878845, 
358, 718415902, -84.24441528320312, -42.12464904785156, -47.937259674072266, 7.4352803230285645, -6.313507080078125, 0.9994238018989563, 0.43567249178886414, 0.045747023075819016, 1.4734331369400024, 
359, 718424235, -84.24604034423828, -42.11713790893555, -47.93687057495117, 6.898344993591309, -6.662542819976807, 1.3447794914245605, -0.5982844233512878, 0.17379257082939148, 2.2338430881500244, 
360, 718432568, -84.24613952636719, -42.1114616394043, -47.9448356628418, 6.2432355880737305, -7.774475574493408, 0.8236396312713623, -0.7533274292945862, 0.5567253828048706, 1.9801340103149414, 
361, 718440901, -84.25262451171875, -42.11381149291992, -47.936363220214844, 5.8523054122924805, -8.445877075195312, 0.5175442099571228, -0.30687132477760315, -0.906193196773529, 1.1483628749847412, 
362, 718449234, -84.25200653076172, -42.12472915649414, -47.93037414550781, 6.609219551086426, -7.688390731811523, 0.008297212421894073, 0.4546782672405243, -0.8793238401412964, 0.1252536028623581, 
363, 718457567, -84.24949645996094, -42.12843322753906, -47.92745590209961, 7.285672187805176, -6.429805755615234, 0.9562560319900513, 0.42888474464416504, -0.5416514277458191, 0.9486231207847595, 
364, 718465900, -84.2437515258789, -42.12099838256836, -47.9354362487793, 7.090731620788574, -6.257943153381348, 1.1382912397384644, -0.05090828612446785, 0.5793683528900146, 2.1890690326690674, 
365, 718474233, -84.24717712402344, -42.11368942260742, -47.9420280456543, 6.562636852264404, -7.353660583496094, 1.1828616857528687, -1.0188959836959839, 0.4012469947338104, 2.1852781772613525, 
366, 718482566, -84.25141906738281, -42.11064529418945, -47.940673828125, 5.896149158477783, -8.34589672088623, 0.30789241194725037, -0.5007454752922058, -0.3002628684043884, 1.7492728233337402, 
367, 718490899, -84.25088500976562, -42.118934631347656, -47.93272399902344, 6.2988715171813965, -8.127617835998535, 0.4330334961414337, 0.28764787316322327, -0.707939088344574, 0.41438713669776917, 
368, 718499232, -84.25102233886719, -42.12595748901367, -47.92558288574219, 6.9455180168151855, -6.8335041999816895, 0.6711941957473755, 0.461875855922699, -0.9340870976448059, 0.5983484983444214, 
369, 718507565, -84.24209594726562, -42.121517181396484, -47.932186126708984, 7.34155797958374, -6.335644245147705, 1.0813173055648804, 0.3136207163333893, 0.5300609469413757, 1.8217098712921143, 
370, 718515898, -84.24600982666016, -42.11394119262695, -47.935585021972656, 6.851802349090576, -7.0218400955200195, 1.215541958808899, -0.8454874753952026, 0.1749708205461502, 2.251004457473755, 
371, 718524231, -84.24622344970703, -42.10860061645508, -47.941856384277344, 5.982049942016602, -8.036614418029785, 0.42714980244636536, -0.6828371286392212, 0.4316767454147339, 1.9443254470825195, 
372, 718532564, -84.2516098022461, -42.11381149291992, -47.93265914916992, 5.9659647941589355, -8.319857597351074, 0.6465526223182678, -0.009310773573815823, -1.0964045524597168, 0.8337176442146301, 
373, 718540897, -84.250244140625, -42.12290573120117, -47.92638397216797, 6.768278121948242, -7.236180305480957, 0.20998577773571014, 0.5841838717460632, -0.9287593960762024, 0.33846649527549744, 
374, 718549230, -84.24451446533203, -42.12215805053711, -47.9288215637207, 7.419557094573975, -6.337732791900635, 1.0151101350784302, 0.3885423243045807, 0.007966027595102787, 1.4426193237304688, 
375, 718557563, -84.24519348144531, -42.11470031738281, -47.93376922607422, 7.038471698760986, -6.627957344055176, 1.2931113243103027, -0.5636283755302429, 0.2661319077014923, 2.214914083480835, 
376, 718565896, -84.24647521972656, -42.10940933227539, -47.94154739379883, 6.277034759521484, -7.775893211364746, 0.9073266983032227, -0.8816803693771362, 0.5356191992759705, 1.9358726739883423, 
377, 718574229, -84.25144958496094, -42.110870361328125, -47.94111633300781, 5.868099212646484, -8.43022632598877, 0.4693051874637604, -0.2766721546649933, -0.7239223122596741, 1.239805817604065, 
378, 718582562, -84.24931335449219, -42.1204948425293, -47.93718338012695, 6.498600959777832, -7.747852325439453, 0.11048996448516846, 0.4720703363418579, -0.6811208724975586, 0.2597283124923706, 
379, 718590895, -84.24757385253906, -42.12371826171875, -47.93331527709961, 7.293625354766846, -6.482421398162842, 0.9612562656402588, 0.40198981761932373, -0.6069677472114563, 1.0137858390808105, 
380, 718599228, -84.24091339111328, -42.116424560546875, -47.94240951538086, 7.12510347366333, -6.344417572021484, 1.1904374361038208, -0.03162077069282532, 0.6759340167045593, 2.1613550186157227, 
381, 718607561, -84.24481964111328, -42.10940933227539, -47.9466438293457, 6.593149662017822, -7.397851943969727, 1.1595796346664429, -0.9220227003097534, 0.22732630372047424, 2.165888547897339, 
382, 718615894, -84.24756622314453, -42.10742950439453, -47.94645309448242, 5.843801021575928, -8.349506378173828, 0.3093389868736267, -0.41693568229675293, -0.20943479239940643, 1.6120061874389648, 
383, 718624227, -84.2490463256836, -42.115474700927734, -47.938819885253906, 6.256148338317871, -8.098076820373535, 0.4157017767429352, 0.31157156825065613, -0.990131139755249, 0.4711226522922516, 
384, 718632560, -84.247314453125, -42.12300109863281, -47.933834075927734, 6.942841529846191, -6.793376922607422, 0.6211745738983154, 0.5090572834014893, -0.7493316531181335, 0.5195847153663635, 
385, 718640893, -84.23889923095703, -42.12035369873047, -47.94150924682617, 7.369079113006592, -6.242887020111084, 1.0798149108886719, 0.3305516839027405, 0.4222506582736969, 1.6181279420852661, 
386, 718649226, -84.24254608154297, -42.112327575683594, -47.945213317871094, 6.905785083770752, -6.9588446617126465, 1.2912977933883667, -0.8355491757392883, 0.2077314555644989, 2.29833984375, 
387, 718657559, -84.24349975585938, -42.10614013671875, -47.95502471923828, 5.988929271697998, -8.026939392089844, 0.5607823133468628, -0.8135721683502197, 0.4843139350414276, 2.041172504425049, 
388, 718665892, -84.2506332397461, -42.111663818359375, -47.94639587402344, 5.917983531951904, -8.432408332824707, 0.6574535369873047, -0.26271238923072815, -1.047583818435669, 0.791915237903595, 
389, 718674225, -84.24952697753906, -42.1219596862793, -47.93995666503906, 6.7024641036987305, -7.366949081420898, 0.16214779019355774, 0.48603013157844543, -0.8714603781700134, 0.18685585260391235, 
390, 718682558, -84.24333190917969, -42.1239128112793, -47.94215393066406, 7.422575950622559, -6.399998188018799, 0.9821428656578064, 0.4669218361377716, -0.046195268630981445, 1.1214423179626465, 
391, 718690891, -84.24176025390625, -42.11711120605469, -47.94889450073242, 7.032600402832031, -6.499162197113037, 1.2389028072357178, -0.38464897871017456, 0.3585352301597595, 2.1243293285369873, 
392, 718699224, -84.24356842041016, -42.11103820800781, -47.95542526245117, 6.356837749481201, -7.606212615966797, 0.986975371837616, -0.8453337550163269, 0.4347247779369354, 2.042299747467041, 
393, 718707557, -84.24718475341797, -42.11182403564453, -47.95254898071289, 5.837934970855713, -8.342867851257324, 0.3603961169719696, -0.2869178354740143, -0.5269744396209717, 1.301408052444458, 
394, 718715890, -84.24592590332031, -42.12198257446289, -47.94715881347656, 6.3811726570129395, -7.862762451171875, 0.2396273910999298, 0.48372483253479004, -0.8179778456687927, 0.20801320672035217, 
395, 718724223, -84.24539184570312, -42.12757110595703, -47.943016052246094, 7.1775407791137695, -6.603976726531982, 0.9608203172683716, 0.4456877112388611, -0.8388022184371948, 0.7502665519714355, 
396, 718732556, -84.23773956298828, -42.12153625488281, -47.95083236694336, 7.3204545974731445, -6.349146842956543, 1.1527174711227417, 0.1860746145248413, 0.5493869781494141, 2.0257914066314697, 
397, 718740889, -84.2410888671875, -42.1136474609375, -47.9583625793457, 6.73248291015625, -7.23099422454834, 1.2008767127990723, -0.935675323009491, 0.32604363560676575, 2.2597134113311768, 
398, 718749222, -84.24320220947266, -42.109195709228516, -47.96044158935547, 5.894638538360596, -8.18685245513916, 0.39214083552360535, -0.5234396457672119, 0.02259175479412079, 1.8887168169021606, 
399, 718757555, -84.24714660644531, -42.11674880981445, -47.95286178588867, 6.063565254211426, -8.187623023986816, 0.6069831252098083, -0.01307606603950262, -0.9503008723258972, 0.5261419415473938, 
400, 718765888, -84.2470474243164, -42.125125885009766, -47.94602584838867, 6.850555896759033, -6.968571186065674, 0.44542208313941956, 0.4596986770629883, -0.9253270626068115, 0.4344942569732666, 
401, 718774221, -84.24063873291016, -42.12248229980469, -47.95156478881836, 7.448849201202393, -6.3391571044921875, 1.045295000076294, 0.23119409382343292, 0.27181822061538696, 1.633137822151184, 
402, 718782554, -84.2420654296875, -42.1134147644043, -47.95492935180664, 6.989478588104248, -6.843294143676758, 1.2974319458007812, -0.5454424023628235, 0.19008325040340424, 2.4278454780578613, 
403, 718790887, -84.24280548095703, -42.107818603515625, -47.96379470825195, 6.121171951293945, -7.891900062561035, 0.654313325881958, -0.8267122507095337, 0.5295742750167847, 1.9626139402389526, 
404, 718799220, -84.24874114990234, -42.110843658447266, -47.95583724975586, 5.778195858001709, -8.396114349365234, 0.570074200630188, -0.17293450236320496, -0.9605721831321716, 1.0844298601150513, 
405, 718807553, -84.248291015625, -42.12115478515625, -47.948638916015625, 6.6064581871032715, -7.572957992553711, 0.08079865574836731, 0.5004765391349792, -0.9720985889434814, 0.19592328369617462, 
406, 718815886, -84.245849609375, -42.123592376708984, -47.94643783569336, 7.394344329833984, -6.435112476348877, 1.0288435220718384, 0.3683326840400696, -0.44091060757637024, 1.101258397102356, 
407, 718824219, -84.24160766601562, -42.1162223815918, -47.95711135864258, 7.139266490936279, -6.341091632843018, 1.1747087240219116, -0.2172471284866333, 0.5354655385017395, 2.1764159202575684, 
408, 718832552, -84.24481201171875, -42.10866165161133, -47.963890075683594, 6.492698669433594, -7.490761756896973, 1.1151138544082642, -1.0324970483779907, 0.4739402234554291, 2.216322898864746, 
409, 718840885, -84.24946594238281, -42.10595703125, -47.96231460571289, 5.80979585647583, -8.362932205200195, 0.3166084885597229, -0.42751437425613403, -0.46772873401641846, 1.7165122032165527, 
410, 718849218, -84.24922180175781, -42.11621856689453, -47.95729446411133, 6.275310516357422, -8.033265113830566, 0.28350314497947693, 0.3342914283275604, -0.7843464016914368, 0.19313134253025055, 
411, 718857551, -84.24954223632812, -42.1219482421875, -47.95073699951172, 7.064999103546143, -6.731082916259766, 0.7926351428031921, 0.42573419213294983, -0.9370070695877075, 0.7445033192634583, 
412, 718865884, -84.2422866821289, -42.11758804321289, -47.957637786865234, 7.453511714935303, -6.329652786254883, 1.0870829820632935, 0.21080514788627625, 0.44763436913490295, 1.8341072797775269, 
413, 718874217, -84.24552917480469, -42.108314514160156, -47.96234893798828, 6.7891130447387695, -7.082312107086182, 1.281947374343872, -0.9259417653083801, 0.3498392105102539, 2.425591230392456, 
414, 718882550, -84.24864959716797, -42.1042366027832, -47.9657096862793, 5.881393909454346, -8.073485374450684, 0.43031662702560425, -0.7462066411972046, 0.12942872941493988, 1.8311103582382202, 
415, 718890883, -84.25404357910156, -42.11003875732422, -47.957584381103516, 5.918119430541992, -8.298306465148926, 0.7239463925361633, -0.1374075561761856, -0.9899260997772217, 0.7429920434951782, 
416, 718899216, -84.25358581542969, -42.12010192871094, -47.95103454589844, 6.817733287811279, -7.208907127380371, 0.26837456226348877, 0.48026689887046814, -0.9173353910446167, 0.22975969314575195, 
417, 718907549, -84.2477035522461, -42.120094299316406, -47.953392028808594, 7.494856357574463, -6.41123628616333, 1.0330207347869873, 0.28408747911453247, 0.11344543844461441, 1.3294557332992554, 
418, 718915882, -84.24801635742188, -42.11243438720703, -47.95854187011719, 7.072945594787598, -6.715792179107666, 1.298952341079712, -0.5548170804977417, 0.3316274881362915, 2.243114948272705, 
419, 718924215, -84.24726867675781, -42.1061897277832, -47.96674728393555, 6.227287292480469, -7.728450775146484, 0.8232904672622681, -0.7442087531089783, 0.6353354454040527, 2.0303120613098145, 
420, 718932548, -84.25387573242188, -42.10762405395508, -47.95958709716797, 5.796985626220703, -8.294679641723633, 0.4558649957180023, -0.3173731863498688, -0.8683609366416931, 1.2653430700302124, 
421, 718940881, -84.252197265625, -42.11774826049805, -47.95334243774414, 6.484252452850342, -7.701294422149658, 0.11483173817396164, 0.4384900629520416, -0.7387529611587524, 0.19612817466259003, 
422, 718949214, -84.25102233886719, -42.12189483642578, -47.94892501831055, 7.334689617156982, -6.596358776092529, 1.007628083229065, 0.39550942182540894, -0.658298671245575, 0.9164004921913147, 
423, 718957547, -84.24390411376953, -42.115692138671875, -47.95484924316406, 7.203595161437988, -6.355508804321289, 1.1615910530090332, 0.016495566815137863, 0.6392544507980347, 2.0277764797210693, 
424, 718965880, -84.24637603759766, -42.10856628417969, -47.9609260559082, 6.60634708404541, -7.4250359535217285, 1.1992779970169067, -0.8903892636299133, 0.4083421528339386, 2.1708834171295166, 
425, 718974213, -84.24992370605469, -42.10650634765625, -47.966129302978516, 5.832879066467285, -8.229588508605957, 0.31032994389533997, -0.5545097589492798, -0.1847170740365982, 1.6076006889343262, 
426, 718982546, -84.25178527832031, -42.11613082885742, -47.9593391418457, 6.1275248527526855, -8.146995544433594, 0.45131590962409973, 0.2240477055311203, -0.935495913028717, 0.28552189469337463, 
427, 718990879, -84.25077056884766, -42.124568939208984, -47.953590393066406, 6.917242527008057, -6.882637023925781, 0.5332587361335754, 0.45875099301338196, -0.8273526430130005, 0.4078298807144165, 
428, 718999212, -84.24444580078125, -42.12220001220703, -47.95853042602539, 7.445745468139648, -6.317170143127441, 1.0159540176391602, 0.2588830590248108, 0.24973875284194946, 1.6122623682022095, 
429, 719007545, -84.2455062866211, -42.113311767578125, -47.964576721191406, 6.988954067230225, -6.8397674560546875, 1.2949438095092773, -0.6189808249473572, 0.29891812801361084, 2.3832509517669678, 
430, 719015878, -84.24627685546875, -42.107696533203125, -47.971744537353516, 6.02069091796875, -7.893616199493408, 0.6134187579154968, -0.7720771431922913, 0.4849030375480652, 1.9806718826293945, 
431, 719024211, -84.25142669677734, -42.1115608215332, -47.9654541015625, 5.842113018035889, -8.336345672607422, 0.6472750902175903, -0.1942199170589447, -0.8706917762756348, 0.962967038154602, 
432, 719032544, -84.25116729736328, -42.122379302978516, -47.95938491821289, 6.685004234313965, -7.523918151855469, 0.19272619485855103, 0.41761448979377747, -0.8841394186019897, 0.13724108040332794, 
433, 719040877, -84.24590301513672, -42.123775482177734, -47.960445404052734, 7.4363532066345215, -6.475704669952393, 1.0092947483062744, 0.4451497793197632, -0.16525022685527802, 1.1884236335754395, 
434, 719049210, -84.2421646118164, -42.116939544677734, -47.96747589111328, 7.117486476898193, -6.515247344970703, 1.1981831789016724, -0.21806678175926208, 0.4891038239002228, 2.128901481628418, 
435, 719057543, -84.24291229248047, -42.11075210571289, -47.973880767822266, 6.370861053466797, -7.510751247406006, 0.9834631085395813, -0.757579505443573, 0.45393550395965576, 2.042300224304199, 
436, 719065876, -84.24651336669922, -42.110843658447266, -47.97081756591797, 5.788960933685303, -8.346282005310059, 0.3534146845340729, -0.2885059118270874, -0.4906022548675537, 1.3917750120162964, 
437, 719074209, -84.24466705322266, -42.12052536010742, -47.96754837036133, 6.30759859085083, -7.871696472167969, 0.1712462157011032, 0.471942275762558, -0.7442343235015869, 0.24891912937164307, 
438, 719082542, -84.24418640136719, -42.1265983581543, -47.9612922668457, 7.200960159301758, -6.686656475067139, 0.8799284100532532, 0.4560358226299286, -0.8442835807800293, 0.7044170498847961, 
439, 719090875, -84.2359848022461, -42.1208610534668, -47.97018051147461, 7.3896050453186035, -6.329929828643799, 1.1296634674072266, 0.2163121998310089, 0.5604138374328613, 1.9749343395233154, 
440, 719099208, -84.23912048339844, -42.11210632324219, -47.975425720214844, 6.7575273513793945, -7.188150882720947, 1.287786602973938, -0.8966135382652283, 0.35147857666015625, 2.3726723194122314, 
441, 719107541, -84.2411880493164, -42.10784912109375, -47.98100280761719, 5.8000102043151855, -8.123384475708008, 0.35003963112831116, -0.663703203201294, 0.1536085605621338, 1.842150092124939, 
442, 719115874, -84.24420166015625, -42.11545944213867, -47.97521209716797, 6.027050018310547, -8.288042068481445, 0.6871376037597656, 0.003176165046170354, -0.8208466172218323, 0.515332818031311, 
443, 719124207, -84.2439193725586, -42.123775482177734, -47.968936920166016, 6.836552143096924, -7.078024387359619, 0.33448100090026855, 0.4608512818813324, -0.9265308380126953, 0.43067774176597595, 
444, 719132540, -84.2353744506836, -42.12297821044922, -47.975975036621094, 7.500936031341553, -6.351574420928955, 0.9690385460853577, 0.3578820824623108, 0.41666674613952637, 1.4075533151626587, 
445, 719140873, -84.23494720458984, -42.113800048828125, -47.98347473144531, 7.003777503967285, -6.680827617645264, 1.3198351860046387, -0.42584937810897827, 0.284036248922348, 2.4178555011749268, 
446, 719149206, -84.23343658447266, -42.1071662902832, -47.99302291870117, 6.183131217956543, -7.74675178527832, 0.7003968358039856, -0.69059818983078, 0.7095912098884583, 2.0813615322113037, 
447, 719157539, -84.23898315429688, -42.110137939453125, -47.98548126220703, 5.775691986083984, -8.370299339294434, 0.5377006530761719, -0.22431664168834686, -0.8796312212944031, 1.0733131170272827, 
448, 719165872, -84.23841857910156, -42.1204719543457, -47.97886657714844, 6.553263187408447, -7.7170233726501465, 0.06701485067605972, 0.4986579120159149, -0.926991879940033, 0.19989347457885742, 
449, 719174205, -84.2349853515625, -42.12392807006836, -47.97724533081055, 7.342171669006348, -6.52294921875, 1.0550299882888794, 0.4322145879268646, -0.41655150055885315, 0.9646832346916199, 
450, 719182538, -84.22949981689453, -42.1169319152832, -47.98479461669922, 7.207312107086182, -6.307814598083496, 1.1751805543899536, -0.0520097017288208, 0.5366950631141663, 2.1419901847839355, 
451, 719190871, -84.23221588134766, -42.10848617553711, -47.99430465698242, 6.586078643798828, -7.3330583572387695, 1.2345627546310425, -1.0263495445251465, 0.5163829922676086, 2.309507369995117, 
452, 719199204, -84.23738861083984, -42.106197357177734, -47.99293899536133, 5.842989921569824, -8.296140670776367, 0.35127952694892883, -0.6137297749519348, -0.3096632659435272, 1.6595975160598755, 
453, 719207537, -84.23761749267578, -42.11614990234375, -47.989864349365234, 6.15553617477417, -8.181900978088379, 0.44269680976867676, 0.29968658089637756, -0.8284285068511963, 0.22261333465576172, 
454, 719215870, -84.23827362060547, -42.12460708618164, -47.98186111450195, 7.009284496307373, -6.8654561042785645, 0.7072804570198059, 0.4592888057231903, -1.02763032913208, 0.43715813755989075, 
455, 719224203, -84.23101043701172, -42.12272262573242, -47.989139556884766, 7.460965156555176, -6.358211517333984, 1.0584849119186401, 0.23644497990608215, 0.37312254309654236, 1.5306553840637207, 
456, 719232536, -84.23180389404297, -42.114200592041016, -47.994354248046875, 6.905650615692139, -6.902678966522217, 1.2403384447097778, -0.6199797987937927, 0.3462020456790924, 2.3444197177886963, 
457, 719240869, -84.2323226928711, -42.10927963256836, -48.00052261352539, 5.883999824523926, -7.9421820640563965, 0.5033957362174988, -0.6989740133285522, 0.4025532901287079, 1.8960679769515991, 
458, 719249202, -84.23746490478516, -42.114173889160156, -47.993648529052734, 5.846125602722168, -8.367474555969238, 0.6981461048126221, -0.16322672367095947, -0.88421630859375, 0.8513404130935669, 
459, 719257535, -84.23645782470703, -42.124542236328125, -47.98533248901367, 6.76662540435791, -7.43193244934082, 0.2201072871685028, 0.5686872005462646, -0.9757358431816101, 0.18800848722457886, 
460, 719265868, -84.2317123413086, -42.12498092651367, -47.98677444458008, 7.4966301918029785, -6.45197868347168, 1.0733197927474976, 0.35460346937179565, -0.09432441741228104, 1.3092204332351685, 
461, 719274201, -84.22975158691406, -42.11690139770508, -47.993221282958984, 7.109364032745361, -6.583601951599121, 1.2826398611068726, -0.3905530571937561, 0.4275527894496918, 2.272930383682251, 
462, 719282534, -84.2301254272461, -42.11034393310547, -48.00189208984375, 6.331349849700928, -7.5838165283203125, 0.9215563535690308, -0.8427467942237854, 0.631877601146698, 2.0785698890686035, 
463, 719290867, -84.23574829101562, -42.11064910888672, -47.99451446533203, 5.795726776123047, -8.308642387390137, 0.3826341927051544, -0.3939085006713867, -0.6701580286026001, 1.373153567314148, 
464, 719299200, -84.23505401611328, -42.120819091796875, -47.989051818847656, 6.347597599029541, -7.83762788772583, 0.14905822277069092, 0.42125168442726135, -0.8248423337936401, 0.2077314406633377, 
465, 719307533, -84.23500061035156, -42.12514877319336, -47.98310852050781, 7.2566237449646, -6.67085599899292, 0.8460525870323181, 0.41525799036026, -0.8572699427604675, 0.9068463444709778, 
466, 719315866, -84.22714233398438, -42.119049072265625, -47.99173355102539, 7.282439708709717, -6.329161167144775, 1.1400667428970337, 0.1488955318927765, 0.6208633780479431, 2.0241646766662598, 
467, 719324199, -84.23068237304688, -42.11100387573242, -47.99694061279297, 6.6544318199157715, -7.2167534828186035, 1.2782816886901855, -0.9607259035110474, 0.3320629298686981, 2.27933406829834, 
468, 719332532, -84.23431396484375, -42.1071662902832, -47.998077392578125, 5.869171619415283, -8.137224197387695, 0.32888609170913696, -0.6281762719154358, -0.07070809602737427, 1.82094144821167, 
469, 719340865, -84.23785400390625, -42.11544418334961, -47.99058151245117, 6.104557991027832, -8.23399543762207, 0.604107677936554, 0.0689535140991211, -0.9962015748023987, 0.44363853335380554, 
470, 719349198, -84.23857879638672, -42.124290466308594, -47.983055114746094, 6.844334602355957, -7.010851860046387, 0.4676383435726166, 0.41259410977363586, -0.9899005889892578, 0.38613462448120117, 
471, 719357531, -84.23075866699219, -42.122379302978516, -47.988033294677734, 7.481487274169922, -6.335244178771973, 1.0060044527053833, 0.3519139587879181, 0.3149782121181488, 1.5403119325637817, 
472, 719365864, -84.23269653320312, -42.11418151855469, -47.99134063720703, 7.011940002441406, -6.714527606964111, 1.3590842485427856, -0.5998469591140747, 0.1741255819797516, 2.3210339546203613, 
473, 719374197, -84.2328109741211, -42.10764694213867, -48.00091552734375, 6.079106330871582, -7.781655788421631, 0.680081844329834, -0.8687708973884583, 0.665944516658783, 2.064302682876587, 
474, 719382530, -84.239501953125, -42.11076354980469, -47.9937629699707, 5.783080577850342, -8.406256675720215, 0.5630789399147034, -0.3289251923561096, -0.8895183205604553, 1.064886212348938, 
475, 719390863, -84.23876953125, -42.120826721191406, -47.98643112182617, 6.64293098449707, -7.623864650726318, 0.12166270613670349, 0.5013217926025391, -0.9332162141799927, 0.22156311571598053, 
476, 719399196, -84.2353744506836, -42.121307373046875, -47.985008239746094, 7.454750061035156, -6.492185115814209, 1.0665675401687622, 0.4208931028842926, -0.34864816069602966, 1.330864429473877, 
477, 719407529, -84.23149108886719, -42.114646911621094, -47.99021530151367, 7.1791558265686035, -6.418671131134033, 1.1995114088058472, -0.16927167773246765, 0.4228653907775879, 2.1021602153778076, 
478, 719415862, -84.23335266113281, -42.108192443847656, -47.99653244018555, 6.427534103393555, -7.500571250915527, 1.1058173179626465, -0.8333975672721863, 0.42186641693115234, 2.0900192260742188, 
479, 719424195, -84.23707580566406, -42.10655975341797, -47.994258880615234, 5.787229537963867, -8.369820594787598, 0.38519489765167236, -0.3962906301021576, -0.39521482586860657, 1.5765304565429688, 
480, 719432528, -84.23714447021484, -42.116146087646484, -47.987667083740234, 6.293149948120117, -7.988924503326416, 0.2398562878370285, 0.4219176471233368, -0.9149276614189148, 0.2894408404827118, 
481, 719440861, -84.2357177734375, -42.12113952636719, -47.97956466674805, 7.173886775970459, -6.663488388061523, 0.8516961932182312, 0.5431498289108276, -0.8264304995536804, 0.8225755095481873, 
482, 719449194, -84.22772216796875, -42.115962982177734, -47.98777770996094, 7.37723445892334, -6.347885608673096, 1.1110538244247437, 0.19630751013755798, 0.5732466578483582, 1.920222520828247, 
483, 719457527, -84.23063659667969, -42.10846710205078, -47.99491500854492, 6.697299003601074, -7.17685604095459, 1.1984738111495972, -0.9269663691520691, 0.36840957403182983, 2.20774245262146, 
484, 719465860, -84.2329330444336, -42.10551071166992, -47.997501373291016, 5.815642833709717, -8.195320129394531, 0.3891250789165497, -0.5839661955833435, 0.04794985055923462, 1.703449010848999, 
485, 719474193, -84.23658752441406, -42.11294174194336, -47.990753173828125, 6.068436145782471, -8.24432373046875, 0.6113248467445374, 0.035270802676677704, -0.9698958396911621, 0.5425094962120056, 
486, 719482526, -84.23570251464844, -42.12140655517578, -47.984596252441406, 6.901821136474609, -7.033247470855713, 0.35095423460006714, 0.5033965110778809, -0.8639296889305115, 0.4182804226875305, 
487, 719490859, -84.2288589477539, -42.120059967041016, -47.989891052246094, 7.453442096710205, -6.347147464752197, 1.0566680431365967, 0.26428765058517456, 0.2726123034954071, 1.4757128953933716, 
488, 719499192, -84.23069763183594, -42.11198425292969, -47.99337387084961, 6.900487422943115, -6.820419788360596, 1.3551337718963623, -0.599923849105835, 0.1874193698167801, 2.304717779159546, 
489, 719507525, -84.23069763183594, -42.10684585571289, -48.00300216674805, 6.044288635253906, -7.88323450088501, 0.6416872143745422, -0.7531225085258484, 0.5373610258102417, 1.9099509716033936, 
490, 719515858, -84.23726654052734, -42.11177062988281, -47.99517822265625, 5.830196857452393, -8.3750638961792, 0.5505183935165405, -0.2615085244178772, -0.9701775908470154, 0.8558483719825745, 
491, 719524191, -84.2369155883789, -42.121665954589844, -47.98793411254883, 6.708680152893066, -7.531793594360352, -0.019505802541971207, 0.4192281663417816, -0.8907990455627441, 0.23629130423069, 
492, 719532524, -84.23384094238281, -42.12424850463867, -47.98690414428711, 7.376247882843018, -6.425427436828613, 1.0162544250488281, 0.34914758801460266, -0.3385049104690552, 1.075669765472412, 
493, 719540857, -84.22996520996094, -42.117332458496094, -47.992496490478516, 7.029598236083984, -6.370223522186279, 1.2044718265533447, -0.23038724064826965, 0.4914347231388092, 2.125699758529663, 
494, 719549190, -84.23171997070312, -42.11117172241211, -48.000240325927734, 6.445252895355225, -7.505971908569336, 1.1689757108688354, -0.9368534088134766, 0.5440719723701477, 2.039354085922241, 
495, 719557523, -84.2371597290039, -42.11083221435547, -47.994258880615234, 5.870789051055908, -8.3099365234375, 0.3611184358596802, -0.4835582971572876, -0.5413952469825745, 1.4382904767990112, 
496, 719565856, -84.23701477050781, -42.120059967041016, -47.98902130126953, 6.3572468757629395, -7.958925247192383, 0.2703198790550232, 0.33754438161849976, -0.7929782867431641, 0.3186410963535309, 
497, 719574189, -84.23714447021484, -42.12604522705078, -47.98115158081055, 7.0828166007995605, -6.732248783111572, 0.8388925790786743, 0.4533463418483734, -0.9427958726882935, 0.7147907614707947, 
498, 719582522, -84.2294692993164, -42.12218475341797, -47.98834228515625, 7.3065595626831055, -6.403419494628906, 1.0585774183273315, 0.24056892096996307, 0.464795857667923, 1.7709426879882812, 
499, 719590855, -84.23075103759766, -42.116050720214844, -47.99367141723633, 6.798943519592285, -7.143078804016113, 1.2071915864944458, -0.6812233924865723, 0.29935359954833984, 2.0493435859680176, 
500, 719599188, -84.23270416259766, -42.1129264831543, -47.99698257446289, 5.933945178985596, -8.074543952941895, 0.4153502881526947, -0.6028181910514832, 0.11367597430944443, 1.7181771993637085, 
501, 719607521, -84.23847961425781, -42.11915969848633, -47.985816955566406, 6.089980125427246, -8.209726333618164, 0.661430835723877, -0.03874152526259422, -1.1536521911621094, 0.7052367329597473, 
502, 719615854, -84.23680877685547, -42.12825393676758, -47.98084259033203, 6.820507526397705, -7.082995414733887, 0.40390655398368835, 0.4988628327846527, -0.7652380466461182, 0.3331899642944336, 
503, 719624187, -84.2291259765625, -42.1258544921875, -47.987918853759766, 7.459899425506592, -6.3517165184021, 0.9861553907394409, 0.3487890362739563, 0.30614131689071655, 1.5978161096572876, 
504, 719632520, -84.2302474975586, -42.11824035644531, -47.99226760864258, 6.973578929901123, -6.799256324768066, 1.3434115648269653, -0.5867068767547607, 0.2585757076740265, 2.244882822036743, 
505, 719640853, -84.22896575927734, -42.112335205078125, -48.000457763671875, 6.1705241203308105, -7.844143390655518, 0.7212389707565308, -0.6465673446655273, 0.5998854041099548, 1.9945038557052612, 
506, 719649186, -84.23583984375, -42.115474700927734, -47.99280548095703, 5.837900161743164, -8.357688903808594, 0.5894657969474792, -0.3122503161430359, -0.9331650137901306, 1.0678061246871948, 
507, 719657519, -84.23479461669922, -42.12476348876953, -47.98496627807617, 6.6069159507751465, -7.557829856872559, 0.05248062685132027, 0.5252199172973633, -0.9057577848434448, 0.31149473786354065, 
508, 719665852, -84.23230743408203, -42.12574005126953, -47.981327056884766, 7.380260467529297, -6.438059329986572, 0.9323086738586426, 0.4891294240951538, -0.5520251989364624, 1.2893948554992676, 
509, 719674185, -84.22728729248047, -42.117549896240234, -47.98853302001953, 7.086742877960205, -6.427233695983887, 1.2235701084136963, -0.10418590158224106, 0.5206348896026611, 2.276311159133911, 
510, 719682518, -84.22919464111328, -42.110782623291016, -47.99569320678711, 6.464437484741211, -7.4889936447143555, 1.0796871185302734, -0.9058858752250671, 0.49745410680770874, 2.1171700954437256, 
511, 719690851, -84.23412322998047, -42.10921859741211, -47.9931526184082, 5.8056488037109375, -8.395620346069336, 0.39027073979377747, -0.3964698910713196, -0.5514616370201111, 1.5883898735046387, 
512, 719699184, -84.23368835449219, -42.118499755859375, -47.98688507080078, 6.394963264465332, -7.943925857543945, 0.24675162136554718, 0.4534488022327423, -0.8844723105430603, 0.32245758175849915, 
513, 719707517, -84.23222351074219, -42.123809814453125, -47.98249435424805, 7.086887359619141, -6.634427070617676, 0.8511592745780945, 0.4636688232421875, -0.7328104376792908, 0.774164617061615, 
514, 719715850, -84.22351837158203, -42.11817932128906, -47.9904899597168, 7.331227779388428, -6.26490592956543, 1.105918049812317, 0.29694581031799316, 0.559696614742279, 1.9756258726119995, 
515, 719724183, -84.22762298583984, -42.110328674316406, -47.995506286621094, 6.733757019042969, -7.136457443237305, 1.304168701171875, -0.9489691257476807, 0.24500016868114471, 2.262556791305542, 
516, 719732516, -84.22932434082031, -42.10668182373047, -47.99965286254883, 5.882567405700684, -8.175509452819824, 0.38843274116516113, -0.6409834027290344, 0.19405344128608704, 1.7736833095550537, 
517, 719740849, -84.23418426513672, -42.11405563354492, -47.99055099487305, 6.0376362800598145, -8.329986572265625, 0.6910576224327087, -0.023501062765717506, -1.0585980415344238, 0.5568534731864929, 
518, 719749182, -84.2339859008789, -42.1225471496582, -47.98346710205078, 6.8141560554504395, -7.138680458068848, 0.33390185236930847, 0.49179330468177795, -0.9463050961494446, 0.4252987205982208, 
519, 719757515, -84.22699737548828, -42.12105178833008, -47.989498138427734, 7.428884506225586, -6.347560882568359, 0.9654335379600525, 0.28198713064193726, 0.2741747796535492, 1.4921574592590332, 
520, 719765848, -84.22907257080078, -42.11238479614258, -47.9918098449707, 7.001924514770508, -6.710362911224365, 1.3048274517059326, -0.5369896292686462, 0.09267231076955795, 2.3893985748291016, 
521, 719774181, -84.22942352294922, -42.107154846191406, -48.00143051147461, 6.17185115814209, -7.790609359741211, 0.831572413444519, -0.8202061653137207, 0.5689689517021179, 1.9140493869781494, 
522, 719782514, -84.23641967773438, -42.109764099121094, -47.993064880371094, 5.842642307281494, -8.3544921875, 0.51883864402771, -0.26932090520858765, -0.9898237586021423, 1.1375025510787964, 
523, 719790847, -84.23406982421875, -42.12001419067383, -47.99208450317383, 6.577232360839844, -7.638256549835205, 0.08001885563135147, 0.48697781562805176, -0.704173743724823, 0.17555996775627136, 
524, 719799180, -84.231201171875, -42.12303924560547, -47.99094009399414, 7.380202293395996, -6.477950096130371, 1.0694862604141235, 0.33682721853256226, -0.3557688891887665, 1.0221872329711914, 
525, 719807513, -84.22606658935547, -42.11639404296875, -48.0000114440918, 7.093988418579102, -6.483391284942627, 1.1706160306930542, -0.20023925602436066, 0.621606171131134, 2.0816943645477295, 
526, 719815846, -84.22864532470703, -42.11030960083008, -48.0062370300293, 6.524358749389648, -7.5086469650268555, 1.124746561050415, -0.9110342264175415, 0.4069845378398895, 2.045142889022827, 
527, 719824179, -84.23290252685547, -42.10985565185547, -48.00395202636719, 5.846834182739258, -8.346988677978516, 0.37450140714645386, -0.3971358835697174, -0.4749007225036621, 1.4455138444900513, 
528, 719832512, -84.232421875, -42.11915588378906, -47.9988899230957, 6.33608865737915, -7.964046955108643, 0.3379789888858795, 0.36379894614219666, -0.7771998643875122, 0.30729398131370544, 
529, 719840845, -84.23168182373047, -42.12405014038086, -47.996253967285156, 7.045256614685059, -6.678215503692627, 0.7388677000999451, 0.46897098422050476, -0.8314763903617859, 0.8322833180427551, 
530, 719849178, -84.22215270996094, -42.12013626098633, -48.006229400634766, 7.3060197830200195, -6.334153175354004, 1.1129318475723267, 0.2362656593322754, 0.7161740064620972, 1.7522953748703003, 
531, 719857511, -84.22430419921875, -42.11208724975586, -48.01285171508789, 6.722198486328125, -7.12593412399292, 1.2767924070358276, -0.7641111016273499, 0.29661285877227783, 2.2825357913970947, 
532, 719865844, -84.2248764038086, -42.10866928100586, -48.01809310913086, 5.964559555053711, -8.143477439880371, 0.31749066710472107, -0.590523362159729, 0.2873660922050476, 1.737669587135315, 
533, 719874177, -84.2309341430664, -42.114654541015625, -48.00948715209961, 6.068644046783447, -8.267999649047852, 0.6668235659599304, -0.09944726526737213, -1.1197134256362915, 0.7308509349822998, 
534, 719882510, -84.23119354248047, -42.1234245300293, -48.002559661865234, 6.795336723327637, -7.16616153717041, 0.24256721138954163, 0.4248376786708832, -0.9367509484291077, 0.38913145661354065, 
535, 719890843, -84.2239990234375, -42.12244415283203, -48.006099700927734, 7.407405376434326, -6.334629058837891, 0.9797606468200684, 0.4326243996620178, 0.1315290927886963, 1.4453600645065308, 
536, 719899176, -84.22652435302734, -42.11420440673828, -48.00742721557617, 6.971366882324219, -6.619937419891357, 1.309774398803711, -0.510299563407898, -0.00024333520559594035, 2.3460333347320557, 
537, 719907509, -84.22672271728516, -42.10886764526367, -48.01594543457031, 6.248120307922363, -7.773786544799805, 0.7886600494384766, -0.8678743839263916, 0.6364625692367554, 1.9229117631912231, 
538, 719915842, -84.23257446289062, -42.11189270019531, -48.008792877197266, 5.853679180145264, -8.419246673583984, 0.4910784363746643, -0.22877353429794312, -0.8865726590156555, 1.0754903554916382, 
539, 719924175, -84.2303237915039, -42.12147521972656, -48.004615783691406, 6.556417465209961, -7.68485689163208, 0.07779432088136673, 0.4964294731616974, -0.7207717299461365, 0.258063405752182, 
540, 719932508, -84.2276611328125, -42.12388610839844, -48.00246810913086, 7.340506076812744, -6.478130340576172, 0.991948664188385, 0.39082199335098267, -0.4369148015975952, 1.1058945655822754, 
541, 719940841, -84.2221450805664, -42.11574935913086, -48.01082992553711, 7.142032146453857, -6.400528430938721, 1.180470585823059, -0.11993865668773651, 0.6060840487480164, 2.2600979804992676, 
542, 719949174, -84.22468566894531, -42.10940933227539, -48.016143798828125, 6.543356895446777, -7.490782737731934, 1.1659740209579468, -0.8348320126533508, 0.33034682273864746, 2.08420467376709, 
543, 719957507, -84.22913360595703, -42.10832214355469, -48.0161247253418, 5.837205410003662, -8.421491622924805, 0.3074578046798706, -0.5062268972396851, -0.37467220425605774, 1.5082173347473145, 
544, 719965840, -84.23059844970703, -42.11832046508789, -48.00829315185547, 6.283365726470947, -8.031183242797852, 0.33251407742500305, 0.3533739745616913, -1.0313186645507812, 0.2516598403453827, 
545, 719974173, -84.2293930053711, -42.124568939208984, -48.003360748291016, 7.086378574371338, -6.617223739624023, 0.7799030542373657, 0.4312156140804291, -0.7466933131217957, 0.6633061766624451, 
546, 719982506, -84.22240447998047, -42.120155334472656, -48.0103759765625, 7.408032417297363, -6.257277011871338, 1.114692211151123, 0.17609785497188568, 0.45567724108695984, 1.8363869190216064, 
547, 719990839, -84.22516632080078, -42.112056732177734, -48.015655517578125, 6.835912227630615, -7.143350124359131, 1.2132140398025513, -0.8474342226982117, 0.31149473786354065, 2.2885806560516357, 
548, 719999172, -84.22521209716797, -42.1075553894043, -48.022422790527344, 5.873358726501465, -8.177814483642578, 0.4997032582759857, -0.6508961319923401, 0.4354163706302643, 1.85239577293396, 
549, 720007505, -84.2320785522461, -42.11298370361328, -48.00950622558594, 6.034116268157959, -8.285446166992188, 0.6744490265846252, -0.09762866050004959, -1.2219911813735962, 0.8102807998657227, 
550, 720015838, -84.23106384277344, -42.121517181396484, -48.003360748291016, 6.817424774169922, -7.100033283233643, 0.28956854343414307, 0.5137190818786621, -0.8636735081672668, 0.4094947576522827, 
551, 720024171, -84.223876953125, -42.11853790283203, -48.00596618652344, 7.459564685821533, -6.318925857543945, 1.0223747491836548, 0.3483791947364807, 0.247587189078331, 1.675017237663269, 
552, 720032504, -84.2256851196289, -42.111026763916016, -48.009559631347656, 6.924445152282715, -6.7719292640686035, 1.3164478540420532, -0.6091961860656738, 0.19208115339279175, 2.23653244972229, 
553, 720040837, -84.22502899169922, -42.1050910949707, -48.01836013793945, 6.196140289306641, -7.860641956329346, 0.7236660122871399, -0.768030047416687, 0.6477839350700378, 1.9941962957382202, 
554, 720049170, -84.23106384277344, -42.10838317871094, -48.01063919067383, 5.822478294372559, -8.39657974243164, 0.5631650686264038, -0.2042607218027115, -0.9410541653633118, 1.0505423545837402, 
555, 720057503, -84.2282943725586, -42.11787033081055, -48.005348205566406, 6.6155219078063965, -7.595252990722656, -0.016945404931902885, 0.5273970365524292, -0.6825809478759766, 0.2636728882789612, 
556, 720065836, -84.22672271728516, -42.11952590942383, -48.00181198120117, 7.35429573059082, -6.3948774337768555, 0.97316575050354, 0.3702281713485718, -0.5500016808509827, 1.207455039024353, 
557, 720074169, -84.22159576416016, -42.111061096191406, -48.01124954223633, 7.047774314880371, -6.346904277801514, 1.2299866676330566, -0.09265949577093124, 0.525143027305603, 2.3097891807556152, 
558, 720082502, -84.2257308959961, -42.10490417480469, -48.01604461669922, 6.495115756988525, -7.472130298614502, 1.2290626764297485, -0.9817039370536804, 0.28111621737480164, 2.0658135414123535, 
559, 720090835, -84.22880554199219, -42.10340881347656, -48.01588821411133, 5.87532377243042, -8.410778045654297, 0.33374449610710144, -0.43568530678749084, -0.266323983669281, 1.548867106437683, 
560, 720099168, -84.2294921875, -42.1126823425293, -48.0108642578125, 6.392989158630371, -8.03573989868164, 0.2950046956539154, 0.2237403392791748, -0.7760729193687439, 0.31210944056510925, 
561, 720107501, -84.22874450683594, -42.118995666503906, -48.00578308105469, 7.001473426818848, -6.695032596588135, 0.804630696773529, 0.4160776734352112, -0.7934137582778931, 0.661769449710846, 
562, 720115834, -84.22156524658203, -42.11423110961914, -48.013797760009766, 7.326327323913574, -6.33506441116333, 1.0926378965377808, 0.11874759942293167, 0.5492973923683167, 1.8702746629714966, 
563, 720124167, -84.22618865966797, -42.10639572143555, -48.01760482788086, 6.775221824645996, -7.106429576873779, 1.245241403579712, -0.9434619545936584, 0.16654375195503235, 2.2712655067443848, 
564, 720132500, -84.2266845703125, -42.10288619995117, -48.023616790771484, 5.909503936767578, -8.08105754852295, 0.4174928367137909, -0.641598105430603, 0.3567550480365753, 1.7367987632751465, 
565, 720140833, -84.2314453125, -42.10883712768555, -48.01560974121094, 6.03679895401001, -8.2437162399292, 0.6139141917228699, -0.09445249289274216, -0.9525293111801147, 0.7211174964904785, 
566, 720149166, -84.2310562133789, -42.11837387084961, -48.007652282714844, 6.743621826171875, -7.139846324920654, 0.30021196603775024, 0.5872831344604492, -1.037491798400879, 0.30634623765945435, 
567, 720157499, -84.22449493408203, -42.11764907836914, -48.01200866699219, 7.4419097900390625, -6.364198207855225, 1.038986325263977, 0.4021435081958771, 0.07743183523416519, 1.4211289882659912, 
568, 720165832, -84.22605895996094, -42.1105842590332, -48.01521301269531, 7.011137008666992, -6.765839576721191, 1.2907830476760864, -0.5469278693199158, 0.1506885290145874, 2.186943292617798, 
569, 720174165, -84.22655487060547, -42.105438232421875, -48.021209716796875, 6.23217248916626, -7.815617561340332, 0.8171484470367432, -0.7874200940132141, 0.5049334168434143, 1.9136908054351807, 
570, 720182498, -84.23242950439453, -42.10857391357422, -48.014678955078125, 5.85935115814209, -8.369548797607422, 0.5400970578193665, -0.2811034023761749, -0.8321167826652527, 1.0574836730957031, 
571, 720190831, -84.23056030273438, -42.11749267578125, -48.0132942199707, 6.599506378173828, -7.567343235015869, 0.041479337960481644, 0.4579312205314636, -0.7206180691719055, 0.3372882306575775, 
572, 720199164, -84.22821807861328, -42.11921691894531, -48.011329650878906, 7.333008766174316, -6.4280595779418945, 1.0056110620498657, 0.3391836881637573, -0.41204342246055603, 1.185503602027893, 
573, 720207497, -84.2240982055664, -42.111846923828125, -48.021400451660156, 7.024186611175537, -6.4088945388793945, 1.2100168466567993, -0.2623794376850128, 0.5681237578392029, 2.173086166381836, 
574, 720215830, -84.2286376953125, -42.10556411743164, -48.0252685546875, 6.498208045959473, -7.54955530166626, 1.0792231559753418, -0.9593170285224915, 0.20309525728225708, 2.0895323753356934, 
575, 720224163, -84.23332214355469, -42.10519027709961, -48.02500534057617, 5.804553508758545, -8.423288345336914, 0.32963162660598755, -0.47630947828292847, -0.44208887219429016, 1.431451439857483, 
576, 720232496, -84.2342529296875, -42.115386962890625, -48.01799392700195, 6.369942665100098, -7.997064590454102, 0.27170073986053467, 0.3507613241672516, -0.9613662362098694, 0.2201799601316452, 
577, 720240829, -84.2336196899414, -42.122413635253906, -48.01193618774414, 7.027145862579346, -6.604212760925293, 0.819930374622345, 0.3863395154476166, -0.783962070941925, 0.5702753067016602, 
578, 720249162, -84.22338104248047, -42.1178092956543, -48.022274017333984, 7.351349353790283, -6.270975589752197, 1.1079806089401245, 0.29346224665641785, 0.7552613019943237, 1.830264925956726, 
579, 720257495, -84.22835540771484, -42.10993194580078, -48.02889633178711, 6.7990193367004395, -7.0739264488220215, 1.2795014381408691, -0.9360082745552063, 0.11528968811035156, 2.2814342975616455, 
580, 720265828, -84.2293472290039, -42.105438232421875, -48.03429412841797, 5.900695323944092, -8.190134048461914, 0.4371437132358551, -0.6530733108520508, 0.3129291236400604, 1.861053705215454, 
581, 720274161, -84.23518371582031, -42.11226272583008, -48.026222229003906, 6.047577857971191, -8.340500831604004, 0.6732687950134277, -0.12050217390060425, -1.073095679283142, 0.6262937188148499, 
582, 720282494, -84.23417663574219, -42.12088394165039, -48.0202522277832, 6.797096252441406, -7.127064228057861, 0.2668868899345398, 0.500194787979126, -0.8499442934989929, 0.3984038233757019, 
583, 720290827, -84.22723388671875, -42.11942672729492, -48.02511978149414, 7.438748359680176, -6.318098068237305, 0.9485385417938232, 0.3374163508415222, 0.20739847421646118, 1.494180679321289, 
584, 720299160, -84.22986602783203, -42.11112594604492, -48.02698516845703, 6.9569926261901855, -6.732215881347656, 1.288332223892212, -0.5685719847679138, 0.04810353368520737, 2.3481595516204834, 
585, 720307493, -84.23075866699219, -42.10496520996094, -48.039363861083984, 6.1959662437438965, -7.848573684692383, 0.7562126517295837, -0.8679255843162537, 0.559209942817688, 2.0280072689056396, 
586, 720315826, -84.23614501953125, -42.1079216003418, -48.03207778930664, 5.863235950469971, -8.380778312683105, 0.48411133885383606, -0.15949983894824982, -0.8999561071395874, 1.0853391885757446, 
587, 720324159, -84.23551177978516, -42.117462158203125, -48.02687072753906, 6.59002161026001, -7.6109538078308105, 0.13289251923561096, 0.38400861620903015, -0.8131110072135925, 0.2713315486907959, 
588, 720332492, -84.23291778564453, -42.11910629272461, -48.02381896972656, 7.382384777069092, -6.451570987701416, 1.0478557348251343, 0.45642003417015076, -0.507891833782196, 1.2046631574630737, 
589, 720340825, -84.22758483886719, -42.112213134765625, -48.03438186645508, 7.126120567321777, -6.456360816955566, 1.1815835237503052, -0.11263860017061234, 0.5574426054954529, 2.1154026985168457, 
590, 720349158, -84.23090362548828, -42.10585403442383, -48.04098129272461, 6.566326141357422, -7.559615135192871, 1.1471707820892334, -1.0301403999328613, 0.44228097796440125, 2.074958086013794, 
591, 720357491, -84.23484802246094, -42.10547637939453, -48.040401458740234, 5.863349914550781, -8.34150218963623, 0.38586726784706116, -0.4441380202770233, -0.38138315081596375, 1.4239721298217773, 
592, 720365824, -84.23463439941406, -42.11514663696289, -48.03571319580078, 6.348055362701416, -7.941222190856934, 0.31450334191322327, 0.29871323704719543, -0.7478715777397156, 0.263109415769577, 
593, 720374157, -84.23422241210938, -42.12139129638672, -48.02997589111328, 7.001023769378662, -6.641643524169922, 0.7608264684677124, 0.38639071583747864, -0.801712691783905, 0.6672508120536804, 
594, 720382490, -84.2269058227539, -42.11734390258789, -48.038047790527344, 7.339423656463623, -6.323843479156494, 1.0802359580993652, 0.12632940709590912, 0.5484776496887207, 1.7852352857589722, 
595, 720390823, -84.23101043701172, -42.107967376708984, -48.0393180847168, 6.80363655090332, -7.128451824188232, 1.2363470792770386, -0.8106776475906372, 0.10650398582220078, 2.4623730182647705, 
596, 720399156, -84.23185729980469, -42.1031494140625, -48.04452896118164, 5.991049766540527, -8.169296264648438, 0.38672009110450745, -0.6223233342170715, 0.30238884687423706, 1.9019464254379272, 
597, 720407489, -84.23782348632812, -42.10932922363281, -48.033695220947266, 6.005319595336914, -8.333748817443848, 0.6945338845252991, -0.04330086335539818, -1.1673815250396729, 0.7121269702911377, 
598, 720415822, -84.23619079589844, -42.11811447143555, -48.02747344970703, 6.767018795013428, -7.1362128257751465, 0.20633091032505035, 0.588948130607605, -0.8712553381919861, 0.38152405619621277, 
599, 720424155, -84.22955322265625, -42.117164611816406, -48.032779693603516, 7.400202751159668, -6.2974700927734375, 1.004201889038086, 0.4507336914539337, 0.03890801966190338, 1.4511488676071167, 
600, 720432488, -84.23088073730469, -42.10981750488281, -48.035701751708984, 7.031580448150635, -6.59262752532959, 1.2953811883926392, -0.49462369084358215, 0.1298641562461853, 2.223597288131714, 
601, 720440821, -84.23198699951172, -42.102630615234375, -48.04515075683594, 6.260337829589844, -7.7616963386535645, 0.8551783561706543, -0.9452036619186401, 0.6282916069030762, 2.1446030139923096, 
602, 720449154, -84.23819732666016, -42.10397720336914, -48.03773498535156, 5.831018924713135, -8.435083389282227, 0.46321097016334534, -0.24959790706634521, -0.8900049924850464, 1.2792516946792603, 
603, 720457487, -84.23656463623047, -42.113914489746094, -48.034427642822266, 6.486792087554932, -7.733947277069092, 0.08130614459514618, 0.3843415379524231, -0.6823503375053406, 0.21162480115890503, 
604, 720465820, -84.23441314697266, -42.116817474365234, -48.031105041503906, 7.290055751800537, -6.496655464172363, 0.9646180868148804, 0.4276040196418762, -0.5470048189163208, 1.0567665100097656, 
605, 720474153, -84.22848510742188, -42.109222412109375, -48.04365539550781, 7.189852714538574, -6.372133731842041, 1.1474567651748657, -0.0780593752861023, 0.6067500114440918, 2.1946020126342773, 
606, 720482486, -84.2324447631836, -42.103111267089844, -48.048892974853516, 6.519062042236328, -7.424098014831543, 1.2574039697647095, -0.9974567294120789, 0.31943511962890625, 2.057847738265991, 
607, 720490819, -84.23596954345703, -42.10101318359375, -48.0487060546875, 5.84578800201416, -8.363893508911133, 0.293993204832077, -0.3805122375488281, -0.3750308156013489, 1.6321390867233276, 
