sep=,
PacketCounter,SampleTimeFine,Euler_X,Euler_Y,Euler_Z,Acc_X,Acc_Y,Acc_Z,Gyr_X,Gyr_Y,Gyr_Z,
0, 715407689, -86.62328338623047, 37.76853561401367, -2.195300340652466, 0, 0, 0, 0, 0, 0, 
1, 715416022, -86.62429809570312, 37.767051696777344, -2.1949453353881836, -5.641779899597168, -7.543285846710205, 0.6121927499771118, 1.9760228395462036, 0.37761783599853516, 1.0457907915115356, 
2, 715424355, -86.62606811523438, 37.76799774169922, -2.1965084075927734, -5.821408748626709, -7.900158882141113, 0.5331037044525146, 2.0148539543151855, 0.5741814374923706, 1.323654055595398, 
3, 715432688, -86.62661743164062, 37.769474029541016, -2.197618246078491, -6.165336608886719, -7.985036849975586, 0.351318359375, 2.1414525508880615, 0.5378988981246948, 1.3922618627548218, 
4, 715441021, -86.62577819824219, 37.77029800415039, -2.1978275775909424, -6.30733060836792, -7.802659511566162, 0.4363684058189392, 2.23653244972229, 0.4556003510951996, 1.316161870956421, 
5, 715449354, -86.62545776367188, 37.767826080322266, -2.1978232860565186, -6.0518012046813965, -7.510870456695557, 0.36268335580825806, 2.1622514724731445, 0.40473052859306335, 0.9243665337562561, 
6, 715457687, -86.62570190429688, 37.76566696166992, -2.197770595550537, -5.7025628089904785, -7.459323883056641, 0.6938794851303101, 2.0765843391418457, 0.3954453468322754, 0.963441014289856, 
7, 715466020, -86.62791442871094, 37.765907287597656, -2.199090003967285, -5.7528157234191895, -7.705345630645752, 0.37667906284332275, 1.9563512802124023, 0.5482342839241028, 1.2419956922531128, 
8, 715474353, -86.6296615600586, 37.76811218261719, -2.2001447677612305, -6.058587551116943, -7.993539333343506, 0.5468024611473083, 1.9972444772720337, 0.5543432831764221, 1.4777109622955322, 
9, 715482686, -86.6288833618164, 37.7701416015625, -2.200124502182007, -6.29999303817749, -7.989710807800293, 0.34884026646614075, 2.21524715423584, 0.43464797735214233, 1.4635205268859863, 
10, 715491019, -86.6272964477539, 37.770408630371094, -2.199239730834961, -6.221897125244141, -7.54793119430542, 0.5304037928581238, 2.254488229751587, 0.3591371774673462, 1.2548158168792725, 
11, 715499352, -86.62700653076172, 37.7677116394043, -2.1978235244750977, -5.864690780639648, -7.378543853759766, 0.45373398065567017, 2.052814483642578, 0.27034541964530945, 0.906731128692627, 
12, 715507685, -86.62823486328125, 37.765872955322266, -2.1957240104675293, -5.602653980255127, -7.633274078369141, 0.5634032487869263, 1.976944923400879, 0.42356979846954346, 0.9980202913284302, 
13, 715516018, -86.62947082519531, 37.767948150634766, -2.1962239742279053, -5.9053850173950195, -7.8659281730651855, 0.46673384308815, 2.0123183727264404, 0.4839938282966614, 1.4661716222763062, 
14, 715524351, -86.62974548339844, 37.77033996582031, -2.2009902000427246, -6.23745059967041, -7.984132289886475, 0.3010140657424927, 2.234419345855713, 0.6373206377029419, 1.4940400123596191, 
15, 715532684, -86.62863159179688, 37.77123260498047, -2.200629472732544, -6.272341251373291, -7.800777435302734, 0.5170865058898926, 2.2308335304260254, 0.3926790654659271, 1.330288052558899, 
16, 715541017, -86.62883758544922, 37.76848220825195, -2.199075222015381, -5.998764514923096, -7.438806533813477, 0.34842821955680847, 2.078812837600708, 0.3888881206512451, 0.8910807967185974, 
17, 715549350, -86.62956237792969, 37.76646041870117, -2.1990089416503906, -5.655435562133789, -7.517393589019775, 0.7549899220466614, 2.0318875312805176, 0.401541531085968, 0.9778873920440674, 
18, 715557683, -86.63166046142578, 37.767147064208984, -2.205561876296997, -5.75830602645874, -7.762803554534912, 0.44801875948905945, 1.9931845664978027, 0.5954925417900085, 1.291047215461731, 
19, 715566016, -86.63248443603516, 37.769676208496094, -2.207407236099243, -6.152929306030273, -7.910447120666504, 0.39566630125045776, 2.1586265563964844, 0.6137811541557312, 1.5146081447601318, 
20, 715574349, -86.62922668457031, 37.77108383178711, -2.20458722114563, -6.306677341461182, -7.899160861968994, 0.3743562400341034, 2.377269744873047, 0.26519694924354553, 1.3980889320373535, 
21, 715582682, -86.6271743774414, 37.77010726928711, -2.203481674194336, -6.123385429382324, -7.524786949157715, 0.4657112956047058, 2.29001522064209, 0.3114435374736786, 1.110505223274231, 
22, 715591015, -86.62788391113281, 37.768035888671875, -2.2022533416748047, -5.803051948547363, -7.381723880767822, 0.5927119255065918, 1.9669939279556274, 0.32614603638648987, 0.9757999181747437, 
23, 715599348, -86.63028717041016, 37.76762008666992, -2.2034380435943604, -5.651412487030029, -7.746253490447998, 0.5707870721817017, 1.9214519262313843, 0.5324943661689758, 1.1642439365386963, 
24, 715607681, -86.63043212890625, 37.76945877075195, -2.203603744506836, -5.966718673706055, -7.998785972595215, 0.4815085828304291, 2.116990804672241, 0.46126115322113037, 1.43923819065094, 
25, 715616014, -86.6292724609375, 37.77052307128906, -2.203758716583252, -6.296847343444824, -7.915972709655762, 0.2414247989654541, 2.2741472721099854, 0.44347208738327026, 1.347859501838684, 
26, 715624347, -86.62730407714844, 37.76927947998047, -2.202486276626587, -6.18632173538208, -7.60272741317749, 0.5061265230178833, 2.280012607574463, 0.3273371458053589, 1.0741969347000122, 
27, 715632680, -86.62715911865234, 37.76681900024414, -2.201772451400757, -5.819153785705566, -7.459907531738281, 0.49396759271621704, 2.091773748397827, 0.33678877353668213, 0.932037889957428, 
28, 715641013, -86.62970733642578, 37.765419006347656, -2.202012538909912, -5.642694473266602, -7.538311004638672, 0.6240286827087402, 1.845313549041748, 0.46529537439346313, 1.0462517738342285, 
29, 715649346, -86.63104248046875, 37.766815185546875, -2.2014312744140625, -5.91910982131958, -7.857158660888672, 0.5089731216430664, 1.9214775562286377, 0.3767085671424866, 1.3915958404541016, 
30, 715657679, -86.6313705444336, 37.769771575927734, -2.202136516571045, -6.21869421005249, -8.033051490783691, 0.3524101972579956, 2.1311557292938232, 0.5168440341949463, 1.56969153881073, 
31, 715666012, -86.62947845458984, 37.76972579956055, -2.201190233230591, -6.332536220550537, -7.778952121734619, 0.5175132155418396, 2.282125949859619, 0.33157625794410706, 1.2201083898544312, 
32, 715674345, -86.6297378540039, 37.76679611206055, -2.201758861541748, -6.034552097320557, -7.4258012771606445, 0.34335604310035706, 2.128568649291992, 0.4612099826335907, 0.8682202100753784, 
33, 715682678, -86.63072967529297, 37.76441192626953, -2.20139479637146, -5.631048202514648, -7.516329288482666, 0.7638711929321289, 1.9766629934310913, 0.37083005905151367, 0.9362130761146545, 
34, 715691011, -86.63446044921875, 37.765750885009766, -2.203679323196411, -5.754698753356934, -7.72558069229126, 0.3176768720149994, 1.8347091674804688, 0.6493080854415894, 1.366916537284851, 
35, 715699344, -86.63548278808594, 37.76903533935547, -2.2043192386627197, -6.121185779571533, -7.971871376037598, 0.5341065526008606, 2.0488569736480713, 0.5065470933914185, 1.6108793020248413, 
36, 715707677, -86.6338119506836, 37.77192306518555, -2.204723834991455, -6.315699577331543, -7.989800930023193, 0.3355529010295868, 2.347339630126953, 0.48508238792419434, 1.5631343126296997, 
37, 715716010, -86.63202667236328, 37.770286560058594, -2.2046000957489014, -6.189306259155273, -7.512293338775635, 0.4640960395336151, 2.3280906677246094, 0.39959490299224854, 1.0255299806594849, 
38, 715724343, -86.63047790527344, 37.767578125, -2.2016289234161377, -5.772582530975342, -7.4121785163879395, 0.5518306493759155, 2.084857940673828, 0.12657272815704346, 0.9113159775733948, 
39, 715732676, -86.6326675415039, 37.766998291015625, -2.2028067111968994, -5.59193754196167, -7.675550937652588, 0.5381332039833069, 1.9505366086959839, 0.5302273631095886, 1.1449947357177734, 
40, 715741009, -86.63290405273438, 37.76982116699219, -2.203540802001953, -5.995005130767822, -7.851696968078613, 0.4590429663658142, 2.1420414447784424, 0.5160499811172485, 1.552069067955017, 
41, 715749342, -86.63247680664062, 37.77272415161133, -2.2042815685272217, -6.3123345375061035, -7.967511177062988, 0.3018805682659149, 2.229194164276123, 0.5136038064956665, 1.5651705265045166, 
42, 715757675, -86.63111114501953, 37.772464752197266, -2.2046051025390625, -6.248240947723389, -7.716000556945801, 0.5137792825698853, 2.3067283630371094, 0.4538714587688446, 1.1852346658706665, 
43, 715766008, -86.63046264648438, 37.7697868347168, -2.2036168575286865, -5.932188510894775, -7.409748077392578, 0.3958060145378113, 2.128196954727173, 0.310457319021225, 0.9067566990852356, 
44, 715774341, -86.63170623779297, 37.767887115478516, -2.2035300731658936, -5.605807781219482, -7.562178611755371, 0.7200289368629456, 1.9601293802261353, 0.4034242331981659, 0.9911172389984131, 
45, 715782674, -86.63362884521484, 37.7698860168457, -2.2039613723754883, -5.822042465209961, -7.894408226013184, 0.46622517704963684, 1.9233345985412598, 0.4768730401992798, 1.4589229822158813, 
46, 715791007, -86.63404083251953, 37.77367401123047, -2.205031633377075, -6.223245143890381, -7.951932907104492, 0.34102243185043335, 2.1493546962738037, 0.5534083843231201, 1.6670384407043457, 
47, 715799340, -86.6314926147461, 37.77449035644531, -2.203418731689453, -6.299516677856445, -7.834023952484131, 0.42964041233062744, 2.308316230773926, 0.2762879431247711, 1.3263946771621704, 
48, 715807673, -86.63006591796875, 37.772430419921875, -2.201969623565674, -6.005924224853516, -7.48451566696167, 0.39545738697052, 2.1833958625793457, 0.2782346308231354, 0.9803464412689209, 
49, 715816006, -86.63003540039062, 37.77012634277344, -2.201154947280884, -5.665895462036133, -7.428654670715332, 0.7130476832389832, 2.0682852268218994, 0.3283873200416565, 0.9501472115516663, 
50, 715824339, -86.63298034667969, 37.77043533325195, -2.2032899856567383, -5.715723037719727, -7.773004531860352, 0.4261394143104553, 1.9216184616088867, 0.6298156976699829, 1.2441731691360474, 
51, 715832672, -86.63313293457031, 37.772701263427734, -2.203575611114502, -6.110661506652832, -8.011126518249512, 0.5270278453826904, 2.1263914108276367, 0.4652826189994812, 1.4899802207946777, 
52, 715841005, -86.63200378417969, 37.77421188354492, -2.203400135040283, -6.36913537979126, -7.937962532043457, 0.2946310043334961, 2.2397727966308594, 0.4213413596153259, 1.4030836820602417, 
53, 715849338, -86.6302261352539, 37.772789001464844, -2.202524423599243, -6.163423538208008, -7.536717414855957, 0.4562544524669647, 2.2723798751831055, 0.3295143246650696, 1.0550631284713745, 
54, 715857671, -86.62889099121094, 37.7699089050293, -2.200047731399536, -5.715083599090576, -7.446399688720703, 0.5957595705986023, 2.095334053039551, 0.17260150611400604, 0.8858042359352112, 
55, 715866004, -86.63146209716797, 37.76963806152344, -2.2012505531311035, -5.57420539855957, -7.606375694274902, 0.522365927696228, 1.9029967784881592, 0.5331987738609314, 1.1837234497070312, 
56, 715874337, -86.63312530517578, 37.77186584472656, -2.2026045322418213, -5.956063747406006, -7.870489597320557, 0.5222333073616028, 2.017620325088501, 0.5727470517158508, 1.476314663887024, 
57, 715882670, -86.63324737548828, 37.77431106567383, -2.2041590213775635, -6.2773566246032715, -8.033703804016113, 0.29155394434928894, 2.2238664627075195, 0.5857079029083252, 1.5063859224319458, 
58, 715891003, -86.63075256347656, 37.77495574951172, -2.2034671306610107, -6.326797008514404, -7.714355945587158, 0.5117716193199158, 2.3633615970611572, 0.36770516633987427, 1.2993205785751343, 
59, 715899336, -86.63053894042969, 37.772613525390625, -2.2024097442626953, -5.947305679321289, -7.413968086242676, 0.42856818437576294, 2.0746123790740967, 0.30561625957489014, 0.947124719619751, 
60, 715907669, -86.63279724121094, 37.77092742919922, -2.203442096710205, -5.582785606384277, -7.5300774574279785, 0.7259455323219299, 1.9241667985916138, 0.5122333765029907, 1.0134271383285522, 
61, 715916002, -86.63456726074219, 37.77179718017578, -2.2040998935699463, -5.815574645996094, -7.7669997215271, 0.3960569500923157, 1.9600651264190674, 0.4919085204601288, 1.3202728033065796, 
62, 715924335, -86.63542175292969, 37.77458190917969, -2.2055532932281494, -6.2084527015686035, -7.955629348754883, 0.34951624274253845, 2.123227834701538, 0.5855029821395874, 1.5445256233215332, 
63, 715932668, -86.63362884521484, 37.77446365356445, -2.2061874866485596, -6.323245525360107, -7.876151084899902, 0.48585981130599976, 2.3862478733062744, 0.48057425022125244, 1.2033824920654297, 
64, 715941001, -86.63269805908203, 37.77231216430664, -2.205465793609619, -6.070618629455566, -7.42395544052124, 0.34529173374176025, 2.177184820175171, 0.3435637354850769, 0.9652213454246521, 
65, 715949334, -86.63317108154297, 37.7699089050293, -2.2048020362854004, -5.663021564483643, -7.477782249450684, 0.7524559497833252, 2.0177483558654785, 0.3421677350997925, 0.9370838403701782, 
66, 715957667, -86.63473510742188, 37.770652770996094, -2.204331398010254, -5.644885063171387, -7.829438209533691, 0.4686735272407532, 1.8951845169067383, 0.3888625204563141, 1.3101040124893188, 
67, 715966000, -86.63585662841797, 37.77275848388672, -2.205610513687134, -6.131381988525391, -7.919682502746582, 0.4887055456638336, 2.082655191421509, 0.5579420924186707, 1.4644556045532227, 
68, 715974333, -86.63529205322266, 37.774166107177734, -2.205852508544922, -6.352962493896484, -7.903387069702148, 0.2930430769920349, 2.203413486480713, 0.4600317180156708, 1.386985421180725, 
69, 715982666, -86.63384246826172, 37.77302551269531, -2.2057554721832275, -6.112435817718506, -7.6128058433532715, 0.48124343156814575, 2.2947795391082764, 0.40421825647354126, 1.0862741470336914, 
70, 715990999, -86.6343994140625, 37.76927947998047, -2.2053275108337402, -5.814770698547363, -7.36406946182251, 0.5804797410964966, 2.0156612396240234, 0.3592396378517151, 0.7703737616539001, 
71, 715999332, -86.63723754882812, 37.76866912841797, -2.2071352005004883, -5.669191360473633, -7.589866638183594, 0.5657963156700134, 1.91559898853302, 0.5892170071601868, 1.1371310949325562, 
72, 716007665, -86.63812255859375, 37.770816802978516, -2.2064049243927, -5.960453510284424, -7.978062152862549, 0.5381765961647034, 1.9600396156311035, 0.3734683096408844, 1.4805923700332642, 
73, 716015998, -86.637939453125, 37.773048400878906, -2.206739664077759, -6.3175530433654785, -8.0237398147583, 0.24459730088710785, 2.1702427864074707, 0.47045665979385376, 1.4876492023468018, 
74, 716024331, -86.634521484375, 37.77311706542969, -2.204939603805542, -6.290893077850342, -7.681074619293213, 0.5286110043525696, 2.392420768737793, 0.2557837665081024, 1.2375774383544922, 
75, 716032664, -86.6332778930664, 37.769935607910156, -2.2025935649871826, -5.868764400482178, -7.414218425750732, 0.4321749806404114, 2.100149393081665, 0.17700716853141785, 0.8536328077316284, 
76, 716040997, -86.6354751586914, 37.76828384399414, -2.2031214237213135, -5.5364813804626465, -7.50899600982666, 0.6934019327163696, 1.8938524723052979, 0.46706274151802063, 1.0173588991165161, 
77, 716049330, -86.63737487792969, 37.77021026611328, -2.2049789428710938, -5.829339027404785, -7.798004150390625, 0.4138845205307007, 2.031567335128784, 0.6112324595451355, 1.4414665699005127, 
78, 716057663, -86.6384506225586, 37.774330139160156, -2.2069180011749268, -6.2287278175354, -8.0098876953125, 0.4433002471923828, 2.1322951316833496, 0.6423921585083008, 1.7017457485198975, 
79, 716065996, -86.63688659667969, 37.77540588378906, -2.2065093517303467, -6.398633003234863, -7.859054088592529, 0.41193950176239014, 2.2809860706329346, 0.39103975892066956, 1.3520859479904175, 
80, 716074329, -86.6364517211914, 37.772972106933594, -2.2069904804229736, -6.077375411987305, -7.481018543243408, 0.38005945086479187, 2.2041945457458496, 0.45125874876976013, 0.9264797568321228, 
81, 716082662, -86.63750457763672, 37.771602630615234, -2.2066688537597656, -5.629938125610352, -7.481164932250977, 0.7292323112487793, 1.9738200902938843, 0.38220280408859253, 1.0587515830993652, 
82, 716090995, -86.64077758789062, 37.77217102050781, -2.2082111835479736, -5.693750858306885, -7.68117094039917, 0.38629403710365295, 1.8404979705810547, 0.5833001136779785, 1.2767798900604248, 
83, 716099328, -86.64266967773438, 37.77548599243164, -2.209697723388672, -6.098362922668457, -7.888372898101807, 0.46956920623779297, 2.0050952434539795, 0.5862714648246765, 1.6082795858383179, 
84, 716107661, -86.64151763916016, 37.7774772644043, -2.209482192993164, -6.3211565017700195, -8.016219139099121, 0.28602439165115356, 2.239567995071411, 0.4226732850074768, 1.460024118423462, 
85, 716115994, -86.64097595214844, 37.77615737915039, -2.210683822631836, -6.180089950561523, -7.549299716949463, 0.4871826767921448, 2.2768876552581787, 0.5266671180725098, 1.057060956954956, 
86, 716124327, -86.641357421875, 37.77254867553711, -2.210629940032959, -5.849869728088379, -7.372222900390625, 0.5749858021736145, 2.0673632621765137, 0.39646992087364197, 0.7860880494117737, 
87, 716132660, -86.64408874511719, 37.77083206176758, -2.2113826274871826, -5.554781436920166, -7.697381019592285, 0.5966654419898987, 1.853074550628662, 0.4814836382865906, 1.0127227306365967, 
88, 716140993, -86.64556121826172, 37.77314758300781, -2.2126519680023193, -5.950451850891113, -7.907577991485596, 0.5103849768638611, 2.0249202251434326, 0.5517690181732178, 1.4888145923614502, 
89, 716149326, -86.64545440673828, 37.77613830566406, -2.214247941970825, -6.306901454925537, -7.946801662445068, 0.2530437409877777, 2.2556278705596924, 0.5947241187095642, 1.5712411403656006, 
90, 716157659, -86.64366149902344, 37.77509307861328, -2.2138025760650635, -6.241235256195068, -7.742125988006592, 0.5213814973831177, 2.2989161014556885, 0.3763115406036377, 1.0972754955291748, 
91, 716165992, -86.6431655883789, 37.77180099487305, -2.2129862308502197, -5.905149936676025, -7.410528659820557, 0.41184914112091064, 2.124098777770996, 0.32277777791023254, 0.830810546875, 
92, 716174325, -86.64527893066406, 37.7701416015625, -2.213960886001587, -5.60043478012085, -7.474274635314941, 0.7319266200065613, 1.926151990890503, 0.4949822723865509, 1.01451575756073, 
93, 716182658, -86.6480484008789, 37.7711181640625, -2.2151103019714355, -5.828502655029297, -7.850606918334961, 0.5049042105674744, 1.8754615783691406, 0.5383471846580505, 1.3325934410095215, 
94, 716190991, -86.6479263305664, 37.774574279785156, -2.216074228286743, -6.253900051116943, -8.01490306854248, 0.38084614276885986, 2.199737310409546, 0.5387313961982727, 1.628232717514038, 
95, 716199324, -86.64461517333984, 37.77497863769531, -2.213967800140381, -6.41774320602417, -7.840205192565918, 0.43658319115638733, 2.366640090942383, 0.22587913274765015, 1.2824662923812866, 
96, 716207657, -86.64437103271484, 37.77146530151367, -2.213235855102539, -6.025815963745117, -7.509571552276611, 0.38156658411026, 2.0951292514801025, 0.33491894602775574, 0.8011492490768433, 
97, 716215990, -86.64472961425781, 37.768409729003906, -2.2126271724700928, -5.642498970031738, -7.445533752441406, 0.729708194732666, 2.036370038986206, 0.34360218048095703, 0.8574492931365967, 
98, 716224323, -86.64730072021484, 37.768672943115234, -2.214289665222168, -5.667562007904053, -7.692782878875732, 0.3749871253967285, 1.9072744846343994, 0.5585312843322754, 1.2444292306900024, 
99, 716232656, -86.64830017089844, 37.77235794067383, -2.2154455184936523, -6.070359230041504, -7.997883319854736, 0.5428723692893982, 2.0858569145202637, 0.5566357970237732, 1.6546156406402588, 
100, 716240989, -86.64702606201172, 37.7746467590332, -2.2147207260131836, -6.384565353393555, -7.992841720581055, 0.2412949949502945, 2.267615556716919, 0.4365818500518799, 1.4952950477600098, 
101, 716249322, -86.6454849243164, 37.77285385131836, -2.2139837741851807, -6.2312912940979, -7.5626749992370605, 0.4618489742279053, 2.2542574405670166, 0.34025952219963074, 1.009456992149353, 
102, 716257655, -86.6447525024414, 37.76971435546875, -2.2131471633911133, -5.786695957183838, -7.493297576904297, 0.5509585738182068, 2.15388822555542, 0.3377108573913574, 0.8472548127174377, 
103, 716265988, -86.64851379394531, 37.76814651489258, -2.2160093784332275, -5.567832946777344, -7.607737064361572, 0.5800135135650635, 1.883401870727539, 0.6817100644111633, 1.018281102180481, 
104, 716274321, -86.65062713623047, 37.77045822143555, -2.217413902282715, -5.981016159057617, -7.8128662109375, 0.4473198652267456, 1.987869381904602, 0.6086710095405579, 1.4854463338851929, 
105, 716282654, -86.65120697021484, 37.77313232421875, -2.218613624572754, -6.287966728210449, -8.012042045593262, 0.28194406628608704, 2.142310380935669, 0.5537413954734802, 1.5356886386871338, 
106, 716290987, -86.64924621582031, 37.773048400878906, -2.2123138904571533, -6.316306114196777, -7.712157249450684, 0.4306497275829315, 2.3286283016204834, 0.395266056060791, 1.2099781036376953, 
107, 716299320, -86.6484603881836, 37.76959991455078, -2.211024522781372, -5.9832658767700195, -7.379509925842285, 0.42568570375442505, 2.1257123947143555, 0.2772100567817688, 0.8153651356697083, 
108, 716307653, -86.64961242675781, 37.76664733886719, -2.21006441116333, -5.572697639465332, -7.576931476593018, 0.7415497303009033, 1.9396121501922607, 0.35460343956947327, 0.8680920004844666, 
109, 716315986, -86.6512680053711, 37.767696380615234, -2.2107110023498535, -5.813712120056152, -7.822962284088135, 0.41737791895866394, 1.9733206033706665, 0.4917164146900177, 1.3431591987609863, 
110, 716324319, -86.6517333984375, 37.77077102661133, -2.208498477935791, -6.225110054016113, -7.945858955383301, 0.3704756796360016, 2.10593843460083, 0.5035374760627747, 1.5854060649871826, 
111, 716332652, -86.65003204345703, 37.77080535888672, -2.2077972888946533, -6.314741611480713, -7.869966506958008, 0.45398110151290894, 2.276554822921753, 0.35617879033088684, 1.228958249092102, 
112, 716340985, -86.64974975585938, 37.768558502197266, -2.2087578773498535, -6.035982131958008, -7.460116386413574, 0.3692362904548645, 2.19425630569458, 0.46885576844215393, 0.945050060749054, 
113, 716349318, -86.65010833740234, 37.76670837402344, -2.2077183723449707, -5.684542179107666, -7.395528793334961, 0.7317221164703369, 2.001150369644165, 0.31125137209892273, 1.0046029090881348, 
114, 716357651, -86.65219116210938, 37.766944885253906, -2.2072391510009766, -5.691067695617676, -7.7857441902160645, 0.48121994733810425, 1.9495635032653809, 0.5308166146278381, 1.2437888383865356, 
115, 716365984, -86.65279388427734, 37.77025604248047, -2.208824872970581, -6.150007724761963, -7.953466892242432, 0.491191029548645, 2.1687188148498535, 0.5962610244750977, 1.6092784404754639, 
116, 716374317, -86.65106964111328, 37.77225875854492, -2.2103841304779053, -6.435389995574951, -7.9221649169921875, 0.31032630801200867, 2.3532822132110596, 0.4807535409927368, 1.4536590576171875, 
117, 716382650, -86.6486587524414, 37.77086639404297, -2.2093660831451416, -6.158907413482666, -7.587735652923584, 0.5042263865470886, 2.3381829261779785, 0.31683531403541565, 1.061594843864441, 
118, 716390983, -86.64751434326172, 37.76701736450195, -2.210050582885742, -5.744349479675293, -7.426840782165527, 0.5705979466438293, 2.118720054626465, 0.22646823525428772, 0.7677738070487976, 
119, 716399316, -86.64946746826172, 37.76702880859375, -2.210366725921631, -5.581610679626465, -7.568842887878418, 0.558414876461029, 1.912294626235962, 0.4520528316497803, 1.2208895683288574, 
120, 716407649, -86.64965057373047, 37.769493103027344, -2.209667921066284, -5.947084903717041, -7.901942729949951, 0.5796580910682678, 2.0716922283172607, 0.41496342420578003, 1.5151461362838745, 
121, 716415982, -86.65019226074219, 37.772274017333984, -2.211071252822876, -6.3138813972473145, -8.027667045593262, 0.23913763463497162, 2.159984588623047, 0.5734387040138245, 1.5448843240737915, 
122, 716424315, -86.64879608154297, 37.771766662597656, -2.2107300758361816, -6.335224628448486, -7.712430477142334, 0.5429440140724182, 2.2473034858703613, 0.37503084540367126, 1.1612086296081543, 
123, 716432648, -86.6479721069336, 37.76900863647461, -2.2088661193847656, -5.923491477966309, -7.461507320404053, 0.4207540452480316, 2.0841405391693115, 0.2268780767917633, 0.9010191559791565, 
124, 716440981, -86.6486587524414, 37.7673454284668, -2.2071242332458496, -5.568300724029541, -7.513519763946533, 0.7772677540779114, 1.9910328388214111, 0.3579205274581909, 1.0231220722198486, 
125, 716449314, -86.64984130859375, 37.76969909667969, -2.2071971893310547, -5.830617904663086, -7.76537561416626, 0.38319018483161926, 1.987728476524353, 0.4451625645160675, 1.5042856931686401, 
126, 716457647, -86.65095520019531, 37.77313995361328, -2.2080910205841064, -6.173088073730469, -8.021806716918945, 0.3752857744693756, 2.032041549682617, 0.5165750980377197, 1.6271058320999146, 
127, 716465980, -86.64936828613281, 37.77412033081055, -2.2082149982452393, -6.363152503967285, -7.834561824798584, 0.4271719753742218, 2.325657367706299, 0.440014123916626, 1.3364611864089966, 
128, 716474313, -86.64846801757812, 37.77096176147461, -2.2099921703338623, -6.092508316040039, -7.401530742645264, 0.37673643231391907, 2.248609781265259, 0.43855413794517517, 0.8393145203590393, 
129, 716482646, -86.64897918701172, 37.769073486328125, -2.209014892578125, -5.661199569702148, -7.501132011413574, 0.7344656586647034, 1.9911352396011353, 0.31670719385147095, 1.0005816221237183, 
130, 716490979, -86.65135955810547, 37.769920349121094, -2.2088561058044434, -5.674641132354736, -7.803951263427734, 0.49052032828330994, 1.8657536506652832, 0.47536173462867737, 1.3167892694473267, 
131, 716499312, -86.65257263183594, 37.77398681640625, -2.2095096111297607, -6.133490085601807, -7.900024890899658, 0.45835617184638977, 2.0273027420043945, 0.513475775718689, 1.704460859298706, 
132, 716507645, -86.6519775390625, 37.77560043334961, -2.20894455909729, -6.353097915649414, -7.957061767578125, 0.33865752816200256, 2.224609136581421, 0.4842242896556854, 1.410332441329956, 
133, 716515978, -86.65130615234375, 37.7735481262207, -2.2092483043670654, -6.112226486206055, -7.59879207611084, 0.39705997705459595, 2.2281181812286377, 0.4372478127479553, 0.9738404750823975, 
134, 716524311, -86.65145111083984, 37.770355224609375, -2.208470344543457, -5.798157215118408, -7.3716230392456055, 0.5639217495918274, 2.021949291229248, 0.3056418299674988, 0.842644214630127, 
135, 716532644, -86.65461730957031, 37.76934814453125, -2.20973801612854, -5.605138778686523, -7.625556945800781, 0.5628206729888916, 1.8368862867355347, 0.5352990627288818, 1.0929466485977173, 
136, 716540977, -86.65558624267578, 37.77201843261719, -2.2123348712921143, -5.992916107177734, -7.922916889190674, 0.5331910848617554, 1.994708776473999, 0.4363129138946533, 1.5399278402328491, 
137, 716549310, -86.65458679199219, 37.774295806884766, -2.2126917839050293, -6.347124099731445, -7.994652271270752, 0.2837616205215454, 2.2713935375213623, 0.47201916575431824, 1.492592692375183, 
138, 716557643, -86.65255737304688, 37.774391174316406, -2.2131893634796143, -6.28849983215332, -7.7240777015686035, 0.5279008746147156, 2.3063571453094482, 0.35849687457084656, 1.2326595783233643, 
139, 716565976, -86.65155792236328, 37.772300720214844, -2.2114970684051514, -5.9223952293396, -7.41488790512085, 0.43483567237854004, 2.1192831993103027, 0.2469596266746521, 0.9822161197662354, 
140, 716574309, -86.65249633789062, 37.7711181640625, -2.2094690799713135, -5.560817718505859, -7.50184965133667, 0.6625704765319824, 1.9643174409866333, 0.36306896805763245, 1.0780646800994873, 
141, 716582642, -86.6543197631836, 37.772613525390625, -2.2105424404144287, -5.811142921447754, -7.8500566482543945, 0.49323025345802307, 1.9845526218414307, 0.5337366461753845, 1.3958861827850342, 
142, 716590975, -86.65491485595703, 37.77588653564453, -2.2106692790985107, -6.230898380279541, -8.016640663146973, 0.35187670588493347, 2.1398258209228516, 0.5759744644165039, 1.6009280681610107, 
143, 716599308, -86.65119934082031, 37.77684783935547, -2.2088019847869873, -6.441603660583496, -7.856933116912842, 0.408516526222229, 2.432981014251709, 0.25331199169158936, 1.346886157989502, 
144, 716607641, -86.65098571777344, 37.77505111694336, -2.208357095718384, -6.082211017608643, -7.544329643249512, 0.3832332491874695, 2.0856776237487793, 0.34142497181892395, 1.0076769590377808, 
145, 716615974, -86.65133666992188, 37.77312088012695, -2.2082936763763428, -5.656954288482666, -7.465174198150635, 0.7672550678253174, 2.077263355255127, 0.40327054262161255, 0.9909635782241821, 
146, 716624307, -86.65386199951172, 37.77372741699219, -2.2088797092437744, -5.674682140350342, -7.665045738220215, 0.3642262816429138, 1.8821083307266235, 0.5174331665039062, 1.285988211631775, 
147, 716632640, -86.65465545654297, 37.77703857421875, -2.209219217300415, -6.047035217285156, -7.923946857452393, 0.5286354422569275, 2.0532243251800537, 0.47723162174224854, 1.6172443628311157, 
148, 716640973, -86.65337371826172, 37.77983856201172, -2.20756459236145, -6.339555263519287, -8.005061149597168, 0.2977909445762634, 2.391383409500122, 0.6024596095085144, 1.5430911779403687, 
149, 716649306, -86.65036010742188, 37.77815628051758, -2.2061238288879395, -6.228085041046143, -7.554117202758789, 0.5038115382194519, 2.379601001739502, 0.27467426657676697, 1.0282450914382935, 
150, 716657639, -86.64990234375, 37.77577590942383, -2.2057247161865234, -5.837968826293945, -7.423624038696289, 0.5677791237831116, 2.1050288677215576, 0.3263509273529053, 0.9373528957366943, 
151, 716665972, -86.65269470214844, 37.77503204345703, -2.2069644927978516, -5.577824115753174, -7.682684421539307, 0.6160749793052673, 1.8794316053390503, 0.5349404811859131, 1.1252717971801758, 
152, 716674305, -86.65400695800781, 37.77771759033203, -2.210977077484131, -5.938263416290283, -7.861283302307129, 0.4369460344314575, 2.029735803604126, 0.5370920300483704, 1.5354323387145996, 
153, 716682638, -86.65290832519531, 37.78056335449219, -2.211318016052246, -6.264702796936035, -7.995851039886475, 0.3283174932003021, 2.2818825244903564, 0.47362005710601807, 1.5605344772338867, 
154, 716690971, -86.6526870727539, 37.781314849853516, -2.2107152938842773, -6.260124683380127, -7.687305450439453, 0.4531280994415283, 2.19366717338562, 0.4981072247028351, 1.3052375316619873, 
155, 716699304, -86.65241241455078, 37.778324127197266, -2.2105987071990967, -5.961069583892822, -7.363633632659912, 0.4093216061592102, 2.150378942489624, 0.3918081521987915, 0.8637503981590271, 
156, 716707637, -86.65419006347656, 37.77583694458008, -2.207021474838257, -5.596558570861816, -7.540842533111572, 0.7187127470970154, 1.950972318649292, 0.46911191940307617, 0.9165156483650208, 
157, 716715970, -86.6561508178711, 37.777400970458984, -2.2082762718200684, -5.8274736404418945, -7.846685409545898, 0.5009637475013733, 1.9813631772994995, 0.551628053188324, 1.4026609659194946, 
158, 716724303, -86.65602111816406, 37.78074264526367, -2.2045695781707764, -6.230186939239502, -7.9659013748168945, 0.3320555090904236, 2.2008132934570312, 0.5411391258239746, 1.6131973266601562, 
159, 716732636, -86.65379333496094, 37.78188705444336, -2.203582763671875, -6.332342624664307, -7.885620594024658, 0.5529932379722595, 2.319049119949341, 0.33553367853164673, 1.3641245365142822, 
160, 716740969, -86.6527328491211, 37.779823303222656, -2.2024900913238525, -6.0351996421813965, -7.484617233276367, 0.29357045888900757, 2.157320499420166, 0.296267032623291, 0.9766324162483215, 
161, 716749302, -86.65270233154297, 37.77727127075195, -2.201573371887207, -5.690169811248779, -7.387969017028809, 0.7267503142356873, 2.060600996017456, 0.3163742125034332, 0.9222789406776428, 
162, 716757635, -86.65465545654297, 37.7772102355957, -2.2026824951171875, -5.688296794891357, -7.744015693664551, 0.34724313020706177, 1.9071717262268066, 0.45871251821517944, 1.209875464439392, 
163, 716765968, -86.65602111816406, 37.77979278564453, -2.2035539150238037, -6.0700225830078125, -7.972545146942139, 0.6251941323280334, 2.025099992752075, 0.5220565795898438, 1.5249308347702026, 
164, 716774301, -86.65625, 37.78172302246094, -2.196749687194824, -6.364883899688721, -7.9351606369018555, 0.18506403267383575, 2.139646530151367, 0.5066880583763123, 1.4457314014434814, 
165, 716782634, -86.65306854248047, 37.780906677246094, -2.194993019104004, -6.143774509429932, -7.5885162353515625, 0.6113325953483582, 2.3783843517303467, 0.24991808831691742, 1.1330714225769043, 
166, 716790967, -86.6522445678711, 37.77911376953125, -2.1873364448547363, -5.809728145599365, -7.42747163772583, 0.3954761028289795, 2.068157434463501, 0.2256229966878891, 1.0128508806228638, 
167, 716799300, -86.65452575683594, 37.77961349487305, -2.1886937618255615, -5.625328063964844, -7.575021743774414, 0.7100741863250732, 1.9491792917251587, 0.553024172782898, 1.2732964754104614, 
168, 716807633, -86.65574645996094, 37.78230667114258, -2.1868040561676025, -5.920161247253418, -7.886812210083008, 0.3986877202987671, 1.9587844610214233, 0.43122848868370056, 1.5434497594833374, 
169, 716815966, -86.65620422363281, 37.784950256347656, -2.1876399517059326, -6.257869243621826, -8.001474380493164, 0.34867507219314575, 2.1317574977874756, 0.5200074315071106, 1.5333834886550903, 
170, 716824299, -86.65409088134766, 37.78553771972656, -2.187596082687378, -6.297347068786621, -7.679455757141113, 0.33425173163414, 2.3906409740448, 0.45989084243774414, 1.2857195138931274, 
171, 716832632, -86.65352630615234, 37.78312301635742, -2.1863880157470703, -5.974748611450195, -7.444678783416748, 0.5555474758148193, 2.1034021377563477, 0.2896329164505005, 0.9388769865036011, 
172, 716840965, -86.65455627441406, 37.78101348876953, -2.1871531009674072, -5.629122257232666, -7.5474162101745605, 0.658054530620575, 1.9979486465454102, 0.4179602563381195, 0.9646704196929932, 
173, 716849298, -86.65626525878906, 37.781349182128906, -2.188055992126465, -5.814361095428467, -7.790865421295166, 0.42109498381614685, 1.9863711595535278, 0.5092238187789917, 1.2572107315063477, 
174, 716857631, -86.65677642822266, 37.78331756591797, -2.188699722290039, -6.1277360916137695, -7.997754096984863, 0.36708828806877136, 2.119283437728882, 0.5240800976753235, 1.4491126537322998, 
175, 716865964, -86.65396881103516, 37.784751892089844, -2.1866705417633057, -6.308165073394775, -7.896475315093994, 0.4929238557815552, 2.311210870742798, 0.24063295125961304, 1.4049023389816284, 
176, 716874297, -86.65392303466797, 37.78384017944336, -2.189100742340088, -6.089326858520508, -7.427186965942383, 0.293708473443985, 2.185649871826172, 0.5024104118347168, 1.105702519416809, 
177, 716882630, -86.65435028076172, 37.781005859375, -2.188493490219116, -5.747326374053955, -7.438501834869385, 0.7968900799751282, 2.026918411254883, 0.3439607620239258, 0.8843186497688293, 
178, 716890963, -86.65717315673828, 37.78063201904297, -2.1860384941101074, -5.680745601654053, -7.7342376708984375, 0.4304363429546356, 1.8102989196777344, 0.4635024070739746, 1.1713262796401978, 
179, 716899296, -86.65843200683594, 37.78343200683594, -2.1862497329711914, -6.091464996337891, -7.9331536293029785, 0.552769660949707, 1.9895602464675903, 0.46092817187309265, 1.5560393333435059, 
180, 716907629, -86.65648651123047, 37.78589630126953, -2.1873433589935303, -6.342202186584473, -8.002915382385254, 0.29137668013572693, 2.2848410606384277, 0.3602898418903351, 1.5182325839996338, 
181, 716915962, -86.65335083007812, 37.78555679321289, -2.1853458881378174, -6.186190128326416, -7.6452555656433105, 0.5857769250869751, 2.354562997817993, 0.23165515065193176, 1.1915230751037598, 
182, 716924295, -86.65231323242188, 37.78276824951172, -2.1777455806732178, -5.8951096534729, -7.345678329467773, 0.4089595377445221, 2.189133405685425, 0.34132251143455505, 0.8898001909255981, 
183, 716932628, -86.65441131591797, 37.7809944152832, -2.1773650646209717, -5.57004451751709, -7.605708599090576, 0.6758870482444763, 1.8443914651870728, 0.3736732304096222, 1.0095977783203125, 
184, 716940961, -86.6554183959961, 37.783775329589844, -2.176062822341919, -5.863198280334473, -7.919094562530518, 0.5350486636161804, 2.0099875926971436, 0.4670628011226654, 1.5512365102767944, 
185, 716949294, -86.65648651123047, 37.78635025024414, -2.1787097454071045, -6.265697002410889, -7.9729838371276855, 0.28724005818367004, 2.18997859954834, 0.6903420090675354, 1.5145056247711182, 
186, 716957627, -86.65379333496094, 37.7866096496582, -2.177978515625, -6.306215763092041, -7.820207118988037, 0.5621397495269775, 2.349760055541992, 0.310918390750885, 1.2567752599716187, 
187, 716965960, -86.65296936035156, 37.784305572509766, -2.1771795749664307, -5.993387222290039, -7.4932427406311035, 0.32961854338645935, 2.162238836288452, 0.33158913254737854, 0.9504546523094177, 
188, 716974293, -86.65360260009766, 37.78263854980469, -2.1702070236206055, -5.690412521362305, -7.429749965667725, 0.728108823299408, 2.004659652709961, 0.3698311150074005, 1.021995186805725, 
189, 716982626, -86.65678405761719, 37.783241271972656, -2.171895742416382, -5.732362270355225, -7.733716011047363, 0.37829917669296265, 1.8651387691497803, 0.5862458348274231, 1.2835164070129395, 
190, 716990959, -86.6573486328125, 37.78627395629883, -2.174063205718994, -6.071535110473633, -7.9600090980529785, 0.4971091151237488, 2.0887255668640137, 0.5073027610778809, 1.5788486003875732, 
191, 716999292, -86.6544189453125, 37.78827667236328, -2.1729421615600586, -6.345462322235107, -7.887861251831055, 0.258412629365921, 2.396070718765259, 0.3299753963947296, 1.4686050415039062, 
192, 717007625, -86.65428924560547, 37.787353515625, -2.1696438789367676, -6.16233491897583, -7.524297714233398, 0.5314134955406189, 2.1898891925811768, 0.49371442198753357, 1.1033587455749512, 
193, 717015958, -86.65485382080078, 37.78438949584961, -2.168883800506592, -5.779070854187012, -7.441888332366943, 0.5512471199035645, 1.999626636505127, 0.32960399985313416, 0.8700898885726929, 
194, 717024291, -86.65594482421875, 37.78364944458008, -2.1748762130737305, -5.647953510284424, -7.67726469039917, 0.5478663444519043, 1.996578335762024, 0.43703004717826843, 1.127922773361206, 
195, 717032624, -86.65608978271484, 37.78588104248047, -2.1744110584259033, -5.951923847198486, -7.935914516448975, 0.442346453666687, 2.0727293491363525, 0.39425432682037354, 1.4911072254180908, 
196, 717040957, -86.65641021728516, 37.788021087646484, -2.1753079891204834, -6.251768589019775, -7.992668151855469, 0.35350218415260315, 2.1512627601623535, 0.5336982607841492, 1.4707180261611938, 
197, 717049290, -86.65463256835938, 37.78740692138672, -2.175175905227661, -6.267537593841553, -7.642466068267822, 0.4010857045650482, 2.3268353939056396, 0.4056910574436188, 1.148708701133728, 
198, 717057623, -86.65428161621094, 37.78483200073242, -2.1750328540802, -5.944833755493164, -7.409438610076904, 0.49512779712677, 2.0908772945404053, 0.3262101113796234, 0.9144923090934753, 
199, 717065956, -86.65641784667969, 37.78279495239258, -2.1759092807769775, -5.623697280883789, -7.578603267669678, 0.6269499659538269, 1.9323503971099854, 0.48947516083717346, 0.9733281135559082, 
200, 717074289, -86.6573715209961, 37.78330993652344, -2.175173759460449, -5.867316246032715, -7.806347846984863, 0.4740277826786041, 1.9847701787948608, 0.41425901651382446, 1.2799689769744873, 
201, 717082622, -86.65787506103516, 37.78623962402344, -2.1765453815460205, -6.178788661956787, -7.998469352722168, 0.3869168162345886, 2.1650562286376953, 0.5728238821029663, 1.566220760345459, 
202, 717090955, -86.65524291992188, 37.78684616088867, -2.1642067432403564, -6.3113813400268555, -7.89841890335083, 0.5209802389144897, 2.362516164779663, 0.3379926383495331, 1.2956063747406006, 
203, 717099288, -86.65480041503906, 37.78511047363281, -2.1642773151397705, -6.099127292633057, -7.4230451583862305, 0.34788092970848083, 2.180680751800537, 0.41706377267837524, 1.012364149093628, 
204, 717107621, -86.65414428710938, 37.783294677734375, -2.1636247634887695, -5.698978900909424, -7.432034492492676, 0.6755197644233704, 2.066722869873047, 0.24050483107566833, 1.011032223701477, 
205, 717115954, -86.65558624267578, 37.78334426879883, -2.164536237716675, -5.677361011505127, -7.783756732940674, 0.4603211283683777, 2.017428398132324, 0.5099538564682007, 1.2224905490875244, 
206, 717124287, -86.65675354003906, 37.78585433959961, -2.1659514904022217, -6.0710296630859375, -7.905580997467041, 0.4725988805294037, 2.0968453884124756, 0.5960561037063599, 1.5123029947280884, 
207, 717132620, -86.65491485595703, 37.78850173950195, -2.1656017303466797, -6.311549663543701, -7.9439873695373535, 0.30689021944999695, 2.320970058441162, 0.4083549380302429, 1.5403505563735962, 
208, 717140953, -86.65438079833984, 37.787506103515625, -2.1598446369171143, -6.18582010269165, -7.652524948120117, 0.5091930031776428, 2.2065892219543457, 0.45339757204055786, 1.0972113609313965, 
209, 717149286, -86.65447235107422, 37.78593444824219, -2.15910005569458, -5.882388114929199, -7.392602920532227, 0.46469512581825256, 2.0582833290100098, 0.3397984802722931, 1.0377095937728882, 
210, 717157619, -86.65608215332031, 37.785308837890625, -2.1599929332733154, -5.64150333404541, -7.597060680389404, 0.6092264652252197, 1.9337080717086792, 0.43945062160491943, 1.1416648626327515, 
211, 717165952, -86.65797424316406, 37.787025451660156, -2.1607165336608887, -5.871477127075195, -7.900196552276611, 0.48769769072532654, 1.9508954286575317, 0.5030251741409302, 1.4225505590438843, 
212, 717174285, -86.65824890136719, 37.78962707519531, -2.162724256515503, -6.227710723876953, -7.929217338562012, 0.2525824010372162, 2.171741485595703, 0.5559954643249512, 1.5262627601623535, 
213, 717182618, -86.65567016601562, 37.79032897949219, -2.16196870803833, -6.278199672698975, -7.728984355926514, 0.5461946725845337, 2.377244234085083, 0.35494929552078247, 1.3087722063064575, 
214, 717190951, -86.65486907958984, 37.78841781616211, -2.1608190536499023, -6.042125225067139, -7.442730903625488, 0.39772355556488037, 2.2089333534240723, 0.4113518297672272, 0.9903872609138489, 
215, 717199284, -86.65579986572266, 37.78634262084961, -2.16046404838562, -5.713847637176514, -7.482478618621826, 0.6664231419563293, 1.9831181764602661, 0.37459537386894226, 0.9721242785453796, 
216, 717207617, -86.6592788696289, 37.78675842285156, -2.1602563858032227, -5.76896858215332, -7.824963569641113, 0.42239904403686523, 1.8715553283691406, 0.6528299450874329, 1.2549437284469604, 
217, 717215950, -86.65979766845703, 37.790000915527344, -2.162219762802124, -6.073177814483643, -8.000699996948242, 0.46493667364120483, 2.2050397396087646, 0.6299437284469604, 1.5995193719863892, 
218, 717224283, -86.65716552734375, 37.79216766357422, -2.1604526042938232, -6.275501728057861, -7.846360683441162, 0.34574824571609497, 2.3890013694763184, 0.3840983211994171, 1.4835126399993896, 
219, 717232616, -86.65686798095703, 37.79182815551758, -2.160682439804077, -6.111632347106934, -7.495452404022217, 0.4758816659450531, 2.176659345626831, 0.44178155064582825, 1.1778833866119385, 
220, 717240949, -86.65714263916016, 37.789451599121094, -2.155905246734619, -5.784842014312744, -7.444023132324219, 0.634736955165863, 2.0075795650482178, 0.31358224153518677, 0.9395428895950317, 
221, 717249282, -86.65947723388672, 37.78953552246094, -2.156731605529785, -5.702272415161133, -7.6669230461120605, 0.4888613522052765, 1.9062498807907104, 0.5000539422035217, 1.22739577293396, 
222, 717257615, -86.66036224365234, 37.79143524169922, -2.158079147338867, -6.008391380310059, -7.915145397186279, 0.5328839421272278, 2.0515336990356445, 0.4906023144721985, 1.442683458328247, 
223, 717265948, -86.65983581542969, 37.792930603027344, -2.158149003982544, -6.282282829284668, -8.01284408569336, 0.36193275451660156, 2.1911826133728027, 0.4405776262283325, 1.3997538089752197, 
224, 717274281, -86.65711975097656, 37.79222106933594, -2.156742811203003, -6.242335796356201, -7.647964000701904, 0.5426933169364929, 2.328193187713623, 0.2665545344352722, 1.144277572631836, 
225, 717282614, -86.65621948242188, 37.78946304321289, -2.1557977199554443, -5.9339447021484375, -7.410262107849121, 0.4091956317424774, 2.1640825271606445, 0.3137103319168091, 0.8964853882789612, 
226, 717290947, -86.65764617919922, 37.788021087646484, -2.1630806922912598, -5.601130962371826, -7.585690021514893, 0.7010352611541748, 1.9296483993530273, 0.39727678894996643, 1.0463926792144775, 
227, 717299280, -86.65866088867188, 37.788490295410156, -2.1634409427642822, -5.84654426574707, -7.794726848602295, 0.41581955552101135, 2.0284554958343506, 0.4596090316772461, 1.273885726928711, 
228, 717307613, -86.65968322753906, 37.79220962524414, -2.1648523807525635, -6.173847198486328, -7.970257759094238, 0.3396172821521759, 2.0783259868621826, 0.5718249678611755, 1.6574842929840088, 
229, 717315946, -86.65773010253906, 37.793861389160156, -2.1641016006469727, -6.304505348205566, -7.875515937805176, 0.5194011330604553, 2.3052682876586914, 0.3620956540107727, 1.4246253967285156, 
230, 717324279, -86.6558837890625, 37.79228973388672, -2.1632843017578125, -6.073939323425293, -7.4512410163879395, 0.3018856644630432, 2.243051290512085, 0.29465335607528687, 1.0385162830352783, 
231, 717332612, -86.65581512451172, 37.7901611328125, -2.1619656085968018, -5.74552583694458, -7.449289798736572, 0.7290249466896057, 2.0350637435913086, 0.2833062410354614, 0.9732000231742859, 
232, 717340945, -86.65706634521484, 37.790985107421875, -2.162330389022827, -5.721253871917725, -7.781993389129639, 0.46255549788475037, 1.9893935918807983, 0.46665292978286743, 1.3141255378723145, 
233, 717349278, -86.65764617919922, 37.79352951049805, -2.1626169681549072, -6.092164993286133, -7.896571636199951, 0.4425273835659027, 2.0759057998657227, 0.46710121631622314, 1.5233553647994995, 
234, 717357611, -86.65621948242188, 37.79561233520508, -2.1632561683654785, -6.339343070983887, -7.896651744842529, 0.32108834385871887, 2.3931121826171875, 0.5757567286491394, 1.4615483283996582, 
235, 717365944, -86.65567779541016, 37.795047760009766, -2.162810802459717, -6.161980628967285, -7.588865280151367, 0.5104297399520874, 2.1549642086029053, 0.37533822655677795, 1.155394196510315, 
236, 717374277, -86.65470123291016, 37.791954040527344, -2.1605887413024902, -5.859757900238037, -7.4325337409973145, 0.5324690937995911, 2.1297850608825684, 0.27252262830734253, 0.8565272092819214, 
237, 717382610, -86.65666198730469, 37.791053771972656, -2.160510540008545, -5.643725872039795, -7.67305326461792, 0.5761145949363708, 1.8826080560684204, 0.4090721607208252, 1.1134123802185059, 
238, 717390943, -86.65739440917969, 37.792686462402344, -2.1613075733184814, -5.907680988311768, -7.935028076171875, 0.5386830568313599, 1.9974365234375, 0.40067070722579956, 1.4186829328536987, 
239, 717399276, -86.65702819824219, 37.79530334472656, -2.1619808673858643, -6.23215389251709, -7.9379963874816895, 0.1891590803861618, 2.215080499649048, 0.5049206018447876, 1.5289521217346191, 
240, 717407609, -86.65541076660156, 37.79512405395508, -2.1613118648529053, -6.226994037628174, -7.694290637969971, 0.5539854168891907, 2.3052940368652344, 0.4269509017467499, 1.197401523590088, 
241, 717415942, -86.65471649169922, 37.793182373046875, -2.1604769229888916, -5.936978340148926, -7.432116985321045, 0.4157780110836029, 2.146357536315918, 0.32936063408851624, 0.9930510520935059, 
242, 717424275, -86.65575408935547, 37.7913932800293, -2.1597530841827393, -5.683893203735352, -7.481282711029053, 0.7251442670822144, 1.9650346040725708, 0.37687504291534424, 1.0060118436813354, 
243, 717432608, -86.65673828125, 37.79226303100586, -2.158856153488159, -5.854223251342773, -7.831468105316162, 0.41876059770584106, 1.940982699394226, 0.34326913952827454, 1.330569863319397, 
244, 717440941, -86.65695190429688, 37.795166015625, -2.159289598464966, -6.174218654632568, -8.045449256896973, 0.45056822896003723, 2.1390321254730225, 0.5125792622566223, 1.563044786453247, 
245, 717449274, -86.6541976928711, 37.795719146728516, -2.158862352371216, -6.343725204467773, -7.861673355102539, 0.41301825642585754, 2.425283670425415, 0.38605770468711853, 1.288267970085144, 
246, 717457607, -86.65399932861328, 37.79372024536133, -2.159651279449463, -6.095077991485596, -7.437868118286133, 0.4424463212490082, 2.1573078632354736, 0.4398476183414459, 0.9763633608818054, 
247, 717465940, -86.65477752685547, 37.79051971435547, -2.1581521034240723, -5.658608436584473, -7.462225914001465, 0.6652772426605225, 1.9211572408676147, 0.25766637921333313, 0.8482025861740112, 
248, 717474273, -86.65692901611328, 37.79058837890625, -2.1618330478668213, -5.6484856605529785, -7.714550018310547, 0.46015286445617676, 1.8971822261810303, 0.476847380399704, 1.2246549129486084, 
249, 717482606, -86.6585464477539, 37.794132232666016, -2.1633150577545166, -6.081579208374023, -7.899290084838867, 0.4820236265659332, 2.0384833812713623, 0.5859769582748413, 1.6366472244262695, 
250, 717490939, -86.65772247314453, 37.7964973449707, -2.160515308380127, -6.348048686981201, -7.9810309410095215, 0.3566019833087921, 2.1781833171844482, 0.40050414204597473, 1.5054765939712524, 
251, 717499272, -86.65617370605469, 37.79502868652344, -2.159430742263794, -6.223394393920898, -7.642171382904053, 0.4338005483150482, 2.231166362762451, 0.3079471290111542, 1.0527321100234985, 
252, 717507605, -86.65479278564453, 37.792022705078125, -2.158135414123535, -5.857283115386963, -7.423425197601318, 0.5891947150230408, 2.125302791595459, 0.20515722036361694, 0.8699234127998352, 
253, 717515938, -86.65727996826172, 37.7908935546875, -2.1596686840057373, -5.582961559295654, -7.6054205894470215, 0.6042304635047913, 1.9387286901474, 0.5606060028076172, 1.077168345451355, 
254, 717524271, -86.659423828125, 37.792686462402344, -2.1657989025115967, -5.914395332336426, -7.827186584472656, 0.479036420583725, 1.9184166193008423, 0.5150895118713379, 1.4302092790603638, 
255, 717532604, -86.659423828125, 37.79438400268555, -2.1664624214172363, -6.260229110717773, -7.944373607635498, 0.2552785873413086, 2.1734061241149902, 0.49713388085365295, 1.4190926551818848, 
256, 717540937, -86.65796661376953, 37.79510498046875, -2.1665866374969482, -6.2668046951293945, -7.772055625915527, 0.5473830699920654, 2.317422389984131, 0.465077668428421, 1.3047891855239868, 
257, 717549270, -86.65778350830078, 37.79184341430664, -2.1660351753234863, -6.014538288116455, -7.395194053649902, 0.367400199174881, 2.1045420169830322, 0.3468935787677765, 0.8341274857521057, 
258, 717557603, -86.6580810546875, 37.7889289855957, -2.1685385704040527, -5.666655540466309, -7.484327793121338, 0.7703461050987244, 1.9681849479675293, 0.2642492353916168, 0.8763014078140259, 
259, 717565936, -86.66078186035156, 37.790122985839844, -2.169086456298828, -5.748201847076416, -7.872410297393799, 0.48384422063827515, 1.8385257720947266, 0.48330220580101013, 1.3614606857299805, 
260, 717574269, -86.66065216064453, 37.79262161254883, -2.171485424041748, -6.1481547355651855, -7.959957599639893, 0.41067758202552795, 2.168616533279419, 0.4933173954486847, 1.514710545539856, 
261, 717582602, -86.65845489501953, 37.793800354003906, -2.170884847640991, -6.350656986236572, -7.829918384552002, 0.37101200222969055, 2.345341920852661, 0.3721492290496826, 1.365674376487732, 
262, 717590935, -86.65750122070312, 37.79179382324219, -2.1720218658447266, -6.033515453338623, -7.5388970375061035, 0.4069487452507019, 2.2132749557495117, 0.3941006362438202, 0.980461597442627, 
263, 717599268, -86.657470703125, 37.78807067871094, -2.1701152324676514, -5.721697807312012, -7.439277648925781, 0.6608954668045044, 1.987715721130371, 0.21574869751930237, 0.7869204878807068, 
264, 717607601, -86.65988159179688, 37.788291931152344, -2.182119369506836, -5.690399646759033, -7.654046058654785, 0.478854775428772, 1.8782918453216553, 0.5038064122200012, 1.239088535308838, 
265, 717615934, -86.66121673583984, 37.79145812988281, -2.182844400405884, -6.077250957489014, -7.9587202072143555, 0.5933254361152649, 2.0178768634796143, 0.5134245157241821, 1.5985203981399536, 
266, 717624267, -86.66102600097656, 37.793983459472656, -2.1856086254119873, -6.341251850128174, -7.988435745239258, 0.2604917883872986, 2.2399778366088867, 0.573208212852478, 1.5145057439804077, 
267, 717632600, -86.65862274169922, 37.79317092895508, -2.1852598190307617, -6.248991012573242, -7.585665225982666, 0.5114688277244568, 2.3854663372039795, 0.3837140202522278, 1.1237605810165405, 
268, 717640933, -86.6583023071289, 37.789981842041016, -2.184077262878418, -5.848072052001953, -7.434201240539551, 0.4468225836753845, 2.0431580543518066, 0.26094502210617065, 0.8463840484619141, 
269, 717649266, -86.66036987304688, 37.78943634033203, -2.184267997741699, -5.567797660827637, -7.582278251647949, 0.6476591229438782, 1.8924694061279297, 0.43622320890426636, 1.1554453372955322, 
270, 717657599, -86.66230010986328, 37.792057037353516, -2.185239553451538, -5.91037130355835, -7.820675373077393, 0.4509533941745758, 1.9857308864593506, 0.5749755501747131, 1.5247515439987183, 
271, 717665932, -86.66327667236328, 37.795745849609375, -2.1877517700195312, -6.253211975097656, -8.026381492614746, 0.35941821336746216, 2.194960594177246, 0.6869481801986694, 1.6491724252700806, 
272, 717674265, -86.6617660522461, 37.79648208618164, -2.185515880584717, -6.371657848358154, -7.780695915222168, 0.47349414229393005, 2.3293330669403076, 0.47506725788116455, 1.304430603981018, 
273, 717682598, -86.66023254394531, 37.794864654541016, -2.1840851306915283, -6.037789821624756, -7.4299235343933105, 0.38823822140693665, 2.2005701065063477, 0.27650564908981323, 1.0339696407318115, 
274, 717690931, -86.6613540649414, 37.79220962524414, -2.192775249481201, -5.611966133117676, -7.513669013977051, 0.7149016261100769, 2.0227560997009277, 0.45905831456184387, 0.8983424305915833, 
275, 717699264, -86.662353515625, 37.79391098022461, -2.1931660175323486, -5.713905334472656, -7.75311803817749, 0.4184077978134155, 2.031080722808838, 0.47127634286880493, 1.4231013059616089, 
276, 717707597, -86.66193389892578, 37.797176361083984, -2.189614772796631, -6.129908084869385, -7.893909454345703, 0.3859536349773407, 2.188774585723877, 0.4780000150203705, 1.6093039512634277, 
277, 717715930, -86.65963745117188, 37.79943084716797, -2.1888232231140137, -6.356029510498047, -7.947835922241211, 0.40862688422203064, 2.340359926223755, 0.3646058142185211, 1.4954999685287476, 
278, 717724263, -86.65899658203125, 37.79728698730469, -2.185267448425293, -6.152990818023682, -7.543035507202148, 0.4093438386917114, 2.222841739654541, 0.4515661597251892, 0.9595990180969238, 
279, 717732596, -86.65892028808594, 37.79478454589844, -2.1842005252838135, -5.819339275360107, -7.406489372253418, 0.6378334760665894, 2.055030107498169, 0.3036823570728302, 0.9266717433929443, 
280, 717740929, -86.66146850585938, 37.7943115234375, -2.1848134994506836, -5.620413303375244, -7.721004486083984, 0.5381456613540649, 1.8844263553619385, 0.518726646900177, 1.1570847034454346, 
281, 717749262, -86.66195678710938, 37.79679489135742, -2.1854965686798096, -5.994910717010498, -7.9076337814331055, 0.5113134384155273, 2.115492582321167, 0.5027177929878235, 1.514377474784851, 
282, 717757595, -86.66078186035156, 37.79890441894531, -2.1865720748901367, -6.323322296142578, -7.9521684646606445, 0.21645863354206085, 2.248199939727783, 0.4359671175479889, 1.4726777076721191, 
283, 717765928, -86.65794372558594, 37.79811096191406, -2.1850130558013916, -6.191797733306885, -7.663026332855225, 0.5436240434646606, 2.3503494262695312, 0.26857805252075195, 1.1335452795028687, 
284, 717774261, -86.65794372558594, 37.79417037963867, -2.191955089569092, -5.870291233062744, -7.383621692657471, 0.4852635860443115, 2.123932361602783, 0.4129270613193512, 0.7460914254188538, 
285, 717782594, -86.6595687866211, 37.79362106323242, -2.191948175430298, -5.593207359313965, -7.572253704071045, 0.6444159150123596, 1.9286236763000488, 0.4181780219078064, 1.1571998596191406, 
286, 717790927, -86.59062194824219, 37.75605773925781, -2.1433231830596924, -5.877009391784668, -7.887827396392822, 0.5188808441162109, 2.0001258850097656, 0.33932459354400635, 1.4347172975540161, 
287, 717799260, -86.59127044677734, 37.759483337402344, -2.1447367668151855, -6.251694202423096, -7.9676642417907715, 0.3395621180534363, 2.1449360847473145, 0.5857207179069519, 1.6276565790176392, 
288, 717807593, -86.5887451171875, 37.760257720947266, -2.147372007369995, -6.372578144073486, -7.765594959259033, 0.4753289222717285, 2.3371965885162354, 0.3259924054145813, 1.3164948225021362, 
289, 717815926, -86.58759307861328, 37.75654602050781, -2.1460721492767334, -6.02656888961792, -7.4832444190979, 0.39326953887939453, 2.1675024032592773, 0.27309897541999817, 0.7868693470954895, 
290, 717824259, -86.58772277832031, 37.753944396972656, -2.145472288131714, -5.636605739593506, -7.448194980621338, 0.7244754433631897, 2.0495357513427734, 0.34926286339759827, 0.9091644883155823, 
291, 717832592, -86.59011840820312, 37.75460433959961, -2.146254777908325, -5.739341735839844, -7.714284896850586, 0.4423368275165558, 1.894108772277832, 0.5023335814476013, 1.29678475856781, 
292, 717840925, -86.59115600585938, 37.75773239135742, -2.147078514099121, -6.082596302032471, -8.013081550598145, 0.47753098607063293, 2.0706164836883545, 0.5471072793006897, 1.5867891311645508, 
293, 717849258, -86.59070587158203, 37.75989532470703, -2.1480345726013184, -6.339527606964111, -7.953706741333008, 0.30719053745269775, 2.2481231689453125, 0.5310983657836914, 1.4765454530715942, 
294, 717857591, -86.5899429321289, 37.758506774902344, -2.147899866104126, -6.176896095275879, -7.508218288421631, 0.4689291715621948, 2.207780599594116, 0.41778096556663513, 1.0484802722930908, 
295, 717865924, -86.58806610107422, 37.75576400756836, -2.1455647945404053, -5.773606300354004, -7.4459028244018555, 0.5904824137687683, 2.175813913345337, 0.1833338737487793, 0.9084215760231018, 
296, 717874257, -86.5897445678711, 37.755126953125, -2.1442806720733643, -5.594873428344727, -7.643093585968018, 0.5054728984832764, 1.9454649686813354, 0.45556187629699707, 1.1389496326446533, 
297, 717882590, -86.59049987792969, 37.75686264038086, -2.1449859142303467, -5.986213684082031, -7.847559928894043, 0.47510072588920593, 2.08229660987854, 0.5031276345252991, 1.4274941682815552, 
298, 717890923, -86.59001922607422, 37.75954818725586, -2.1440577507019043, -6.30972957611084, -8.003814697265625, 0.30680185556411743, 2.2301676273345947, 0.5125024318695068, 1.5350228548049927, 
299, 717899256, -86.5875473022461, 37.75904083251953, -2.1438324451446533, -6.2706146240234375, -7.635204792022705, 0.4891875088214874, 2.4012320041656494, 0.3992234766483307, 1.162706971168518, 
300, 717907589, -86.5859375, 37.75687026977539, -2.1423964500427246, -5.9447503089904785, -7.411137580871582, 0.42865267395973206, 2.1539011001586914, 0.2138020098209381, 0.9698060750961304, 
301, 717915922, -86.58806610107422, 37.75497055053711, -2.143446683883667, -5.5411787033081055, -7.622493743896484, 0.6817007064819336, 1.9451706409454346, 0.5102355480194092, 0.9898109436035156, 
302, 717924255, -86.58856964111328, 37.755950927734375, -2.1424832344055176, -5.836312770843506, -7.832680702209473, 0.49894002079963684, 2.0385217666625977, 0.4131704270839691, 1.3361282348632812, 
303, 717932588, -86.59049224853516, 37.75883865356445, -2.144195318222046, -6.23324728012085, -7.926076889038086, 0.2635730803012848, 2.019054889678955, 0.6074031591415405, 1.5608675479888916, 
304, 717940921, -86.58912658691406, 37.75984573364258, -2.138448715209961, -6.305601119995117, -7.889044284820557, 0.5447580814361572, 2.2715985774993896, 0.4221994876861572, 1.3375240564346313, 
305, 717949254, -86.58938598632812, 37.75740432739258, -2.1390576362609863, -6.088378429412842, -7.459557056427002, 0.3505617380142212, 2.136240005493164, 0.46475750207901, 0.927939772605896, 
306, 717957587, -86.58951568603516, 37.755104064941406, -2.137345790863037, -5.724771022796631, -7.38828706741333, 0.7043794989585876, 2.054581642150879, 0.34749549627304077, 0.9441022872924805, 
307, 717965920, -86.59293365478516, 37.755802154541016, -2.138845920562744, -5.750289440155029, -7.788469314575195, 0.472711980342865, 1.8208518028259277, 0.570390522480011, 1.2980140447616577, 
308, 717974253, -86.59382629394531, 37.759403228759766, -2.138882637023926, -6.059474945068359, -8.007939338684082, 0.4548267722129822, 2.0887513160705566, 0.5552270412445068, 1.6433967351913452, 
309, 717982586, -86.59208679199219, 37.761329650878906, -2.1384356021881104, -6.361455917358398, -7.921964168548584, 0.3563399612903595, 2.299069881439209, 0.39565032720565796, 1.4554649591445923, 
310, 717990919, -86.5914077758789, 37.759586334228516, -2.1387839317321777, -6.160954475402832, -7.579896450042725, 0.4905541241168976, 2.1711905002593994, 0.378603994846344, 1.009892463684082, 
311, 717999252, -86.59161376953125, 37.75672149658203, -2.1373445987701416, -5.754459381103516, -7.407454967498779, 0.5246591567993164, 1.9941450357437134, 0.2672845423221588, 0.8879942297935486, 
312, 718007585, -86.59300994873047, 37.75576400756836, -2.138239860534668, -5.594813823699951, -7.59920072555542, 0.538001298904419, 1.8880252838134766, 0.3424879312515259, 1.108712077140808, 
313, 718015918, -86.59371948242188, 37.758628845214844, -2.13790225982666, -5.946166038513184, -7.8911871910095215, 0.5425163507461548, 2.0129587650299072, 0.4124532639980316, 1.5681675672531128, 
314, 718024251, -86.59343719482422, 37.76232147216797, -2.140144109725952, -6.32295560836792, -8.002032279968262, 0.29735174775123596, 2.1413629055023193, 0.4417559504508972, 1.658176064491272, 
315, 718032584, -86.5912094116211, 37.761749267578125, -2.139925479888916, -6.323144435882568, -7.71659517288208, 0.4735180139541626, 2.3702516555786133, 0.39946678280830383, 1.1558040380477905, 
316, 718040917, -86.59160614013672, 37.75881576538086, -2.1393613815307617, -5.951887607574463, -7.485736846923828, 0.43519410490989685, 2.0359346866607666, 0.36055877804756165, 0.8704612851142883, 
317, 718049250, -86.59197998046875, 37.75682067871094, -2.138819456100464, -5.601088523864746, -7.502312660217285, 0.7273212671279907, 2.036651849746704, 0.3584839701652527, 0.9862632155418396, 
318, 718057583, -86.59383392333984, 37.75891876220703, -2.141371965408325, -5.818556785583496, -7.713257312774658, 0.3761644959449768, 2.0347821712493896, 0.6295595169067383, 1.4571810960769653, 
319, 718065916, -86.59557342529297, 37.76139831542969, -2.143575668334961, -6.149074554443359, -7.993462562561035, 0.3996223509311676, 2.0781469345092773, 0.6498715877532959, 1.5083072185516357, 
320, 718074249, -86.59217834472656, 37.762779235839844, -2.1425929069519043, -6.331324577331543, -7.853113174438477, 0.39684709906578064, 2.479470729827881, 0.38043543696403503, 1.385999083518982, 
321, 718082582, -86.59136962890625, 37.76072692871094, -2.142749071121216, -6.144113063812256, -7.440502166748047, 0.4601161777973175, 2.2290148735046387, 0.4232880175113678, 0.9762481451034546, 
322, 718090915, -86.59258270263672, 37.75860595703125, -2.1374971866607666, -5.701260566711426, -7.51123571395874, 0.689419150352478, 1.9124482870101929, 0.3432435393333435, 0.9669244885444641, 
323, 718099248, -86.59452056884766, 37.759273529052734, -2.1379690170288086, -5.641781806945801, -7.807521343231201, 0.4610861837863922, 1.9235522747039795, 0.47340235114097595, 1.3002041578292847, 
324, 718107581, -86.59486389160156, 37.76187515258789, -2.1361520290374756, -6.0714287757873535, -7.897730350494385, 0.4474620223045349, 2.175276041030884, 0.5746169090270996, 1.5239572525024414, 
325, 718115914, -86.59326934814453, 37.76443099975586, -2.135910749435425, -6.3333282470703125, -7.911430835723877, 0.33746424317359924, 2.2973792552948, 0.4200606644153595, 1.5293364524841309, 
326, 718124247, -86.59142303466797, 37.763153076171875, -2.133063316345215, -6.146773815155029, -7.622360706329346, 0.4162886440753937, 2.323723554611206, 0.4072663486003876, 1.0654242038726807, 
327, 718132580, -86.58949279785156, 37.7607421875, -2.130155563354492, -5.833322525024414, -7.399519443511963, 0.5815911293029785, 2.1394801139831543, 0.1315290927886963, 0.9493916034698486, 
328, 718140913, -86.59127044677734, 37.76021194458008, -2.1305761337280273, -5.633662223815918, -7.603315353393555, 0.6103965640068054, 1.940303921699524, 0.4625418484210968, 1.150309681892395, 
329, 718149246, -86.59261322021484, 37.76176834106445, -2.130617380142212, -5.95020055770874, -7.888917446136475, 0.5749972462654114, 1.9608210325241089, 0.4404624104499817, 1.4084500074386597, 
330, 718157579, -86.5930404663086, 37.7642936706543, -2.1317999362945557, -6.308460235595703, -7.961886405944824, 0.1872727870941162, 2.2307822704315186, 0.6572228670120239, 1.5068727731704712, 
331, 718165912, -86.59082794189453, 37.763484954833984, -2.131472587585449, -6.255363941192627, -7.744201183319092, 0.6124463081359863, 2.3655388355255127, 0.38663408160209656, 1.1297029256820679, 
332, 718174245, -86.5889663696289, 37.76198959350586, -2.126338005065918, -5.927221298217773, -7.423360347747803, 0.3725969195365906, 2.194679021835327, 0.22345860302448273, 1.0485444068908691, 
333, 718182578, -86.5894546508789, 37.76056671142578, -2.1255502700805664, -5.600188732147217, -7.480692386627197, 0.7166984677314758, 2.0068881511688232, 0.34029796719551086, 1.0577527284622192, 
334, 718190911, -86.59233093261719, 37.762149810791016, -2.120299816131592, -5.792580604553223, -7.848555088043213, 0.40259402990341187, 1.9458752870559692, 0.6595793962478638, 1.393068790435791, 
335, 718199244, -86.59319305419922, 37.766117095947266, -2.1217598915100098, -6.1692214012146, -8.004022598266602, 0.43987250328063965, 2.1255078315734863, 0.5910100936889648, 1.6896047592163086, 
336, 718207577, -86.59054565429688, 37.767215728759766, -2.1210415363311768, -6.361449718475342, -7.814434051513672, 0.35423940420150757, 2.2951765060424805, 0.25162145495414734, 1.361153244972229, 
337, 718215910, -86.58910369873047, 37.76524353027344, -2.12056565284729, -6.0634942054748535, -7.51380729675293, 0.44671669602394104, 2.259265184402466, 0.36539989709854126, 0.989644467830658, 
338, 718224243, -86.58821105957031, 37.762779235839844, -2.116931915283203, -5.664359092712402, -7.4626946449279785, 0.7056112885475159, 2.11889910697937, 0.27193352580070496, 0.9293740391731262, 
339, 718232576, -86.59027862548828, 37.76357650756836, -2.1180293560028076, -5.691773891448975, -7.637210845947266, 0.44787415862083435, 1.9552370309829712, 0.5339030623435974, 1.3119868040084839, 
340, 718240909, -86.59093475341797, 37.767181396484375, -2.1200244426727295, -6.074676513671875, -7.911300182342529, 0.5404209494590759, 2.068247079849243, 0.4858764410018921, 1.647507667541504, 
341, 718249242, -86.59088897705078, 37.76910400390625, -2.1218252182006836, -6.33298921585083, -7.97825813293457, 0.28149592876434326, 2.258151054382324, 0.6086710691452026, 1.442978024482727, 
342, 718257575, -86.58820343017578, 37.76732635498047, -2.118968963623047, -6.204551696777344, -7.569725036621094, 0.48139268159866333, 2.2920002937316895, 0.215044304728508, 1.0168722867965698, 
343, 718265908, -86.587646484375, 37.7637825012207, -2.1172094345092773, -5.802160739898682, -7.461261749267578, 0.5609921216964722, 2.058961868286133, 0.23276935517787933, 0.8090384006500244, 
344, 718274241, -86.59025573730469, 37.761680603027344, -2.115435838699341, -5.574611186981201, -7.644922733306885, 0.6170100569725037, 1.8600671291351318, 0.47443968057632446, 0.9618528485298157, 
345, 718282574, -86.59159851074219, 37.76390075683594, -2.1154890060424805, -5.968772888183594, -7.853228569030762, 0.4361918270587921, 1.9644452333450317, 0.44503456354141235, 1.4893782138824463, 
346, 718290907, -86.59058380126953, 37.765865325927734, -2.1248621940612793, -6.269880294799805, -7.987957000732422, 0.2852720022201538, 2.238415002822876, 0.4432927370071411, 1.4509822130203247, 
347, 718299240, -86.58787536621094, 37.76551055908203, -2.1232378482818604, -6.267809867858887, -7.723586559295654, 0.49678105115890503, 2.3280396461486816, 0.26765599846839905, 1.1895636320114136, 
348, 718307573, -86.58679962158203, 37.76183319091797, -2.124486207962036, -5.9700822830200195, -7.353963375091553, 0.41779881715774536, 2.182281732559204, 0.31610530614852905, 0.7832577228546143, 
349, 718315906, -86.58888244628906, 37.75970458984375, -2.1246602535247803, -5.639388561248779, -7.535923004150391, 0.7285443544387817, 1.88642418384552, 0.42502978444099426, 0.9678722620010376, 
350, 718324239, -86.59217834472656, 37.76039505004883, -2.1312475204467773, -5.807667255401611, -7.861671447753906, 0.4841773509979248, 1.8852331638336182, 0.6396898031234741, 1.286551594734192, 
351, 718332572, -86.59272003173828, 37.76329040527344, -2.1320993900299072, -6.258288860321045, -7.952955722808838, 0.3475615382194519, 2.1200132369995117, 0.5256040692329407, 1.5652602910995483, 
352, 718340905, -86.58992767333984, 37.76446533203125, -2.131903648376465, -6.380104064941406, -7.875445365905762, 0.5018448233604431, 2.368048906326294, 0.32769575715065, 1.3644319772720337, 
353, 718349238, -86.58992767333984, 37.76142501831055, -2.1326169967651367, -6.03909158706665, -7.518250942230225, 0.33253759145736694, 2.173175811767578, 0.4710329473018646, 0.8539146184921265, 
354, 718357571, -86.58991241455078, 37.75835037231445, -2.1316070556640625, -5.6601972579956055, -7.446169853210449, 0.7405150532722473, 2.0766611099243164, 0.3536941409111023, 0.8519166111946106, 
355, 718365904, -86.59292602539062, 37.75870132446289, -2.132664442062378, -5.6473612785339355, -7.7089409828186035, 0.4717823266983032, 1.8400883674621582, 0.5262829065322876, 1.2616933584213257, 
356, 718374237, -86.59503936767578, 37.76177978515625, -2.1423213481903076, -6.068733215332031, -7.95097541809082, 0.5670174360275269, 2.0111656188964844, 0.6324538588523865, 1.5732133388519287, 
357, 718382570, -86.59494018554688, 37.76386642456055, -2.1427719593048096, -6.411266803741455, -7.9465155601501465, 0.21914994716644287, 2.1681809425354004, 0.4816116392612457, 1.4712687730789185, 
358, 718390903, -86.59231567382812, 37.76267623901367, -2.152432441711426, -6.208825588226318, -7.608863830566406, 0.5174508690834045, 2.3821489810943604, 0.355397492647171, 1.07815420627594, 
359, 718399236, -86.592041015625, 37.75950622558594, -2.1517014503479004, -5.802149295806885, -7.439349174499512, 0.5397236943244934, 2.1012508869171143, 0.3312048316001892, 0.8474341034889221, 
360, 718407569, -86.59394836425781, 37.75883102416992, -2.1516449451446533, -5.617273330688477, -7.580231189727783, 0.6076018214225769, 1.8950564861297607, 0.4261312782764435, 1.135414958000183, 
361, 718415902, -86.59539031982422, 37.76156997680664, -2.152392625808716, -5.934940814971924, -7.8707122802734375, 0.5072664022445679, 2.0051722526550293, 0.5150638818740845, 1.545857548713684, 
362, 718424235, -86.59514617919922, 37.76337814331055, -2.154247999191284, -6.265498161315918, -8.012951850891113, 0.2806820571422577, 2.282625436782837, 0.6149337887763977, 1.4235751628875732, 
363, 718432568, -86.5932388305664, 37.76274108886719, -2.15419602394104, -6.320043087005615, -7.679646015167236, 0.47449931502342224, 2.3462257385253906, 0.4145023822784424, 1.1473768949508667, 
364, 718440901, -86.59272766113281, 37.75978088378906, -2.1529734134674072, -5.932124137878418, -7.4554901123046875, 0.4650743901729584, 2.088392972946167, 0.29004281759262085, 0.8702564835548401, 
365, 718449234, -86.59487915039062, 37.757442474365234, -2.1540286540985107, -5.540250301361084, -7.58291482925415, 0.7334827184677124, 1.9429165124893188, 0.5071362257003784, 0.9362770915031433, 
366, 718457567, -86.5969009399414, 37.75910186767578, -2.1552984714508057, -5.803925037384033, -7.797773361206055, 0.3705050051212311, 1.9652906656265259, 0.5599144101142883, 1.409103274345398, 
367, 718465900, -86.5973892211914, 37.76322937011719, -2.156322479248047, -6.191860675811768, -7.941356658935547, 0.41873228549957275, 2.1410043239593506, 0.5501553416252136, 1.711300015449524, 
368, 718474233, -86.5953598022461, 37.7647705078125, -2.155211925506592, -6.312287330627441, -7.898189544677734, 0.40403589606285095, 2.278578281402588, 0.33187082409858704, 1.4083858728408813, 
369, 718482566, -86.5947265625, 37.762752532958984, -2.1553595066070557, -6.095187187194824, -7.440185546875, 0.3437001705169678, 2.206960916519165, 0.423954039812088, 0.9809099435806274, 
370, 718490899, -86.5950698852539, 37.760799407958984, -2.161842107772827, -5.690004825592041, -7.429129123687744, 0.7216208577156067, 2.0252532958984375, 0.3502618670463562, 0.9867243766784668, 
371, 718499232, -86.59925079345703, 37.761085510253906, -2.1632192134857178, -5.687580108642578, -7.73835563659668, 0.46517330408096313, 1.7221089601516724, 0.5567381381988525, 1.2496031522750854, 
372, 718507565, -86.60110473632812, 37.76346969604492, -2.1658577919006348, -6.11907434463501, -7.929932117462158, 0.5062783360481262, 2.030094623565674, 0.6155741214752197, 1.4943217039108276, 
373, 718515898, -86.60070037841797, 37.765106201171875, -2.165849208831787, -6.376203536987305, -7.982438087463379, 0.31048017740249634, 2.1670284271240234, 0.43635132908821106, 1.4183242321014404, 
374, 718524231, -86.59940338134766, 37.7625732421875, -2.1642346382141113, -6.190643787384033, -7.597461700439453, 0.4675791561603546, 2.2573184967041016, 0.3910396993160248, 0.9145434498786926, 
375, 718532564, -86.59883117675781, 37.7585334777832, -2.1624975204467773, -5.78759241104126, -7.407939434051514, 0.505942702293396, 2.0616002082824707, 0.23161673545837402, 0.7488706111907959, 
376, 718540897, -86.60102844238281, 37.75818634033203, -2.1633832454681396, -5.542820453643799, -7.640616416931152, 0.5940230488777161, 1.9201585054397583, 0.5158323049545288, 1.1707115173339844, 
377, 718549230, -86.60176849365234, 37.7601432800293, -2.1641368865966797, -5.915091037750244, -7.870469093322754, 0.5332822799682617, 2.0888280868530273, 0.508429765701294, 1.4534670114517212, 
378, 718557563, -86.600830078125, 37.76264953613281, -2.1640467643737793, -6.349754810333252, -7.9563727378845215, 0.24812470376491547, 2.1990718841552734, 0.40558862686157227, 1.5195516347885132, 
379, 718565896, -86.59849548339844, 37.76129913330078, -2.162687063217163, -6.346333026885986, -7.777885437011719, 0.5279527306556702, 2.304243803024292, 0.28604695200920105, 1.0699706077575684, 
380, 718574229, -86.59741973876953, 37.75844955444336, -2.1688878536224365, -5.975107669830322, -7.505265712738037, 0.37564682960510254, 2.200864791870117, 0.34854570031166077, 0.8792726993560791, 
381, 718582562, -86.59780883789062, 37.757041931152344, -2.168926477432251, -5.62890625, -7.471341609954834, 0.7507392168045044, 2.0774295330047607, 0.4182932674884796, 1.0534495115280151, 
382, 718590895, -86.59918975830078, 37.75835037231445, -2.167515754699707, -5.764621734619141, -7.758465766906738, 0.4131450653076172, 1.977636694908142, 0.46706274151802063, 1.372244119644165, 
383, 718599228, -86.5997314453125, 37.76112365722656, -2.169370412826538, -6.124276638031006, -8.004402160644531, 0.45080116391181946, 2.191438913345337, 0.6194674968719482, 1.5432190895080566, 
384, 718607561, -86.59807586669922, 37.76244354248047, -2.1693263053894043, -6.394342422485352, -7.846412658691406, 0.3430819511413574, 2.3162825107574463, 0.43448150157928467, 1.3767011165618896, 
385, 718615894, -86.59721374511719, 37.75993728637695, -2.1688249111175537, -6.127648830413818, -7.477991580963135, 0.44172677397727966, 2.189978837966919, 0.3597647249698639, 0.9259930849075317, 
386, 718624227, -86.59773254394531, 37.75690841674805, -2.1656041145324707, -5.709310531616211, -7.5239577293396, 0.7331306338310242, 1.9681721925735474, 0.2939233183860779, 0.8613811135292053, 
387, 718632560, -86.60038757324219, 37.75731658935547, -2.1667320728302, -5.677301406860352, -7.728418827056885, 0.46729081869125366, 1.8860015869140625, 0.5346971750259399, 1.2666751146316528, 
388, 718640893, -86.60009002685547, 37.75978088378906, -2.1638224124908447, -6.067859649658203, -7.912996292114258, 0.4613364040851593, 2.0657753944396973, 0.3306926190853119, 1.5188344717025757, 
389, 718649226, -86.5992431640625, 37.76140594482422, -2.16445255279541, -6.314539909362793, -7.9634904861450195, 0.32591763138771057, 2.271329402923584, 0.49546897411346436, 1.413995385169983, 
390, 718657559, -86.59627532958984, 37.75957489013672, -2.163416862487793, -6.20250129699707, -7.573948860168457, 0.40065309405326843, 2.4105942249298096, 0.3298472762107849, 1.0027589797973633, 
391, 718665892, -86.59552001953125, 37.75752639770508, -2.1618359088897705, -5.845006942749023, -7.4029011726379395, 0.5887547135353088, 2.096461296081543, 0.25989484786987305, 0.9862633347511292, 
392, 718674225, -86.59724426269531, 37.75648498535156, -2.1609816551208496, -5.605796813964844, -7.621721267700195, 0.5907688736915588, 1.9101431369781494, 0.42195606231689453, 1.0930490493774414, 
393, 718682558, -86.598388671875, 37.75894546508789, -2.160954475402832, -5.9631853103637695, -7.861504077911377, 0.5267964005470276, 1.9821958541870117, 0.43978357315063477, 1.5181940793991089, 
394, 718690891, -86.59758758544922, 37.76172637939453, -2.1604645252227783, -6.28630256652832, -8.0269775390625, 0.2822975218296051, 2.232063055038452, 0.4734150767326355, 1.550673007965088, 
395, 718699224, -86.5953140258789, 37.7628059387207, -2.1593761444091797, -6.288324356079102, -7.7886857986450195, 0.5700041651725769, 2.3154759407043457, 0.3274524211883545, 1.357400894165039, 
396, 718707557, -86.59430694580078, 37.760398864746094, -2.158967971801758, -6.006398677825928, -7.363305568695068, 0.3358241021633148, 2.1942434310913086, 0.3498136103153229, 0.9324861168861389, 
397, 718715890, -86.59554290771484, 37.758094787597656, -2.1586482524871826, -5.619179725646973, -7.456274509429932, 0.7303469777107239, 1.9496145248413086, 0.37815573811531067, 0.9484567046165466, 
398, 718724223, -86.59793090820312, 37.75872802734375, -2.156684160232544, -5.736134052276611, -7.864666938781738, 0.4474089443683624, 1.8641399145126343, 0.4716476798057556, 1.2900992631912231, 
399, 718732556, -86.59886932373047, 37.762115478515625, -2.1589622497558594, -6.167919158935547, -7.940761089324951, 0.38830655813217163, 2.177299737930298, 0.6637544631958008, 1.615861177444458, 
400, 718740889, -86.59705352783203, 37.76388931274414, -2.161064624786377, -6.357112407684326, -7.883353233337402, 0.4448440372943878, 2.3551902770996094, 0.4552033543586731, 1.4289028644561768, 
401, 718749222, -86.59561157226562, 37.762943267822266, -2.1607906818389893, -6.089649677276611, -7.563185214996338, 0.4145171642303467, 2.27542781829834, 0.3916032612323761, 1.1108510494232178, 
402, 718757555, -86.59414672851562, 37.76061248779297, -2.1555092334747314, -5.722301483154297, -7.406378746032715, 0.6575953960418701, 2.149930715560913, 0.21851502358913422, 0.9497758150100708, 
403, 718765888, -86.59651184082031, 37.760963439941406, -2.1572554111480713, -5.62691068649292, -7.650188446044922, 0.46936213970184326, 1.9654828310012817, 0.5918937921524048, 1.254252314567566, 
404, 718774221, -86.59746551513672, 37.763816833496094, -2.153209686279297, -5.978273868560791, -7.904852867126465, 0.5679541826248169, 1.9977821111679077, 0.4451753795146942, 1.559164047241211, 
405, 718782554, -86.59618377685547, 37.76631546020508, -2.1542937755584717, -6.316279411315918, -7.936296463012695, 0.18388725817203522, 2.3538970947265625, 0.5444818139076233, 1.5168495178222656, 
406, 718790887, -86.59464263916016, 37.76518249511719, -2.153327465057373, -6.246103763580322, -7.640048027038574, 0.546643853187561, 2.29553484916687, 0.40312960743904114, 1.0829826593399048, 
407, 718799220, -86.5940170288086, 37.76203155517578, -2.151705026626587, -5.913918972015381, -7.44774866104126, 0.4798645079135895, 2.0762641429901123, 0.24720299243927002, 0.8543627858161926, 
408, 718807553, -86.59577941894531, 37.76054000854492, -2.1509077548980713, -5.64510440826416, -7.558537006378174, 0.6371870636940002, 1.9281114339828491, 0.4437922239303589, 1.0366334915161133, 
409, 718815886, -86.59648132324219, 37.76146697998047, -2.151050329208374, -5.854304790496826, -7.870614051818848, 0.47173431515693665, 2.0473458766937256, 0.4442789554595947, 1.3334516286849976, 
410, 718824219, -86.59698486328125, 37.763999938964844, -2.152886152267456, -6.148488998413086, -8.017120361328125, 0.3234468698501587, 2.2145943641662598, 0.6549176573753357, 1.5100488662719727, 
411, 718832552, -86.59381103515625, 37.76436233520508, -2.1510086059570312, -6.301206588745117, -7.720519065856934, 0.4376126527786255, 2.3661534786224365, 0.24888072907924652, 1.2772667407989502, 
412, 718840885, -86.59306335449219, 37.761234283447266, -2.1490581035614014, -6.040402889251709, -7.417280673980713, 0.4099566638469696, 2.160855293273926, 0.3491092324256897, 0.8463072180747986, 
413, 718849218, -86.59445190429688, 37.7587890625, -2.1486616134643555, -5.686077117919922, -7.54129695892334, 0.7340108156204224, 1.9296612739562988, 0.367602676153183, 0.9317817687988281, 
414, 718857551, -86.59587097167969, 37.75868606567383, -2.1456704139709473, -5.802398204803467, -7.771568298339844, 0.413164347410202, 1.9591302871704102, 0.44335678219795227, 1.202844500541687, 
415, 718865884, -86.5965805053711, 37.761680603027344, -2.146127700805664, -6.125753879547119, -7.9453229904174805, 0.45770883560180664, 2.0704755783081055, 0.4888477027416229, 1.580244541168213, 
416, 718874217, -86.59505462646484, 37.76339340209961, -2.1463022232055664, -6.316366195678711, -7.9542765617370605, 0.42119044065475464, 2.3015031814575195, 0.44134610891342163, 1.4213467836380005, 
417, 718882550, -86.59331512451172, 37.7618522644043, -2.146329164505005, -6.167762279510498, -7.52362585067749, 0.40568891167640686, 2.3349807262420654, 0.4163977801799774, 1.0393871068954468, 
418, 718890883, -86.5916519165039, 37.75897216796875, -2.1427457332611084, -5.829589366912842, -7.398894786834717, 0.6503403782844543, 2.1346006393432617, 0.1755983829498291, 0.8856505751609802, 
419, 718899216, -86.5939712524414, 37.75767517089844, -2.1439146995544434, -5.660599708557129, -7.717164993286133, 0.5087187886238098, 1.9283034801483154, 0.525796115398407, 1.060237169265747, 
420, 718907549, -86.59514617919922, 37.758670806884766, -2.1410341262817383, -5.95363712310791, -7.899374008178711, 0.4994237720966339, 2.0278022289276123, 0.5002716779708862, 1.332708716392517, 
421, 718915882, -86.59364318847656, 37.76150131225586, -2.140822172164917, -6.267163276672363, -7.992380619049072, 0.2617577016353607, 2.287018060684204, 0.42473524808883667, 1.5632880926132202, 
422, 718924215, -86.5909194946289, 37.762081146240234, -2.1393086910247803, -6.266213893890381, -7.749048709869385, 0.6011409759521484, 2.333930730819702, 0.2901964783668518, 1.2958881855010986, 
423, 718932548, -86.58946990966797, 37.760162353515625, -2.1376516819000244, -5.992927551269531, -7.410021781921387, 0.4161545932292938, 2.173278331756592, 0.25392675399780273, 1.001964807510376, 
424, 718940881, -86.59123229980469, 37.75882339477539, -2.1453351974487305, -5.651332378387451, -7.549912452697754, 0.68538898229599, 1.9526370763778687, 0.4836863577365875, 1.0532701015472412, 
425, 718949214, -86.59456634521484, 37.759605407714844, -2.147186756134033, -5.826765537261963, -7.866020202636719, 0.45404136180877686, 1.8589913845062256, 0.6051234602928162, 1.3055702447891235, 
426, 718957547, -86.5953140258789, 37.763004302978516, -2.1462090015411377, -6.180269718170166, -7.935637474060059, 0.34142619371414185, 2.1018402576446533, 0.5441616773605347, 1.620804786682129, 
427, 718965880, -86.59432220458984, 37.76469039916992, -2.1461100578308105, -6.340128421783447, -7.776313781738281, 0.4516421854496002, 2.233189821243286, 0.42659229040145874, 1.4253939390182495, 
428, 718974213, -86.5928955078125, 37.7629508972168, -2.1412112712860107, -6.062891006469727, -7.492629051208496, 0.4125608801841736, 2.2089591026306152, 0.3117637038230896, 1.013952374458313, 
429, 718982546, -86.59361267089844, 37.76023864746094, -2.1414294242858887, -5.758565425872803, -7.447086811065674, 0.6435384154319763, 2.05194354057312, 0.4244919419288635, 0.8973563313484192, 
430, 718990879, -86.59544372558594, 37.75961685180664, -2.1405553817749023, -5.700583457946777, -7.77839994430542, 0.41536250710487366, 1.9252299070358276, 0.45942968130111694, 1.1413319110870361, 
431, 718999212, -86.59647369384766, 37.76226806640625, -2.1417040824890137, -6.03632926940918, -7.969975471496582, 0.48929521441459656, 2.0827064514160156, 0.5517178177833557, 1.5336395502090454, 
432, 719007545, -86.59494018554688, 37.76401901245117, -2.140866756439209, -6.285179138183594, -7.904699802398682, 0.26582562923431396, 2.228374481201172, 0.349826455116272, 1.4339746236801147, 
433, 719015878, -86.59333038330078, 37.76346206665039, -2.1413257122039795, -6.146462440490723, -7.553426265716553, 0.47952497005462646, 2.349222421646118, 0.46475750207901, 1.1524741649627686, 
434, 719024211, -86.5921401977539, 37.76062774658203, -2.141036033630371, -5.850194931030273, -7.415431976318359, 0.5318253636360168, 2.1718952655792236, 0.2934494912624359, 0.8844466805458069, 
435, 719032544, -86.59416198730469, 37.759098052978516, -2.142347812652588, -5.695463180541992, -7.6065449714660645, 0.5383039116859436, 1.9769961833953857, 0.538142204284668, 1.0330860614776611, 
436, 719040877, -86.59477233886719, 37.76067352294922, -2.1392502784729004, -5.963593006134033, -7.8896026611328125, 0.5150704383850098, 2.065211772918701, 0.46475744247436523, 1.4030325412750244, 
437, 719049210, -86.59463500976562, 37.76261901855469, -2.139498233795166, -6.225886821746826, -8.02440071105957, 0.3850405216217041, 2.1557326316833496, 0.4622216522693634, 1.454850196838379, 
438, 719057543, -86.59293365478516, 37.76222610473633, -2.1410138607025146, -6.2842631340026855, -7.737705230712891, 0.5190896391868591, 2.3069074153900146, 0.40010717511177063, 1.1737338304519653, 
439, 719065876, -86.59207916259766, 37.75905990600586, -2.1399450302124023, -6.007331371307373, -7.3847198486328125, 0.33736035227775574, 2.147202730178833, 0.3008263409137726, 0.8481001257896423, 
440, 719074209, -86.59349822998047, 37.75761795043945, -2.137819528579712, -5.599910259246826, -7.554668426513672, 0.714816689491272, 1.933208703994751, 0.4040389358997345, 1.0452656745910645, 
441, 719082542, -86.59538269042969, 37.758522033691406, -2.1380903720855713, -5.771989345550537, -7.798012733459473, 0.43132922053337097, 1.9140880107879639, 0.4565865695476532, 1.3308005332946777, 
442, 719090875, -86.59566497802734, 37.76122283935547, -2.138969659805298, -6.184322357177734, -7.901247501373291, 0.38180264830589294, 2.0819122791290283, 0.44334399700164795, 1.5407347679138184, 
443, 719099208, -86.59297180175781, 37.76335906982422, -2.1370458602905273, -6.31263542175293, -7.948249340057373, 0.44549939036369324, 2.3056139945983887, 0.2586013078689575, 1.4892114400863647, 
444, 719107541, -86.59125518798828, 37.76117706298828, -2.1446166038513184, -6.124030590057373, -7.54874849319458, 0.36673858761787415, 2.3555235862731934, 0.45768800377845764, 0.953477144241333, 
445, 719115874, -86.5900650024414, 37.75886917114258, -2.143076181411743, -5.8116536140441895, -7.3607354164123535, 0.6776759624481201, 2.152146339416504, 0.26094499230384827, 0.95555180311203, 
446, 719124207, -86.59186553955078, 37.75831604003906, -2.145413875579834, -5.663185119628906, -7.717734336853027, 0.4605185389518738, 1.9844372272491455, 0.530624508857727, 1.1440086364746094, 
447, 719132540, -86.59252166748047, 37.76074981689453, -2.1458747386932373, -5.956521034240723, -7.933825492858887, 0.4910067617893219, 2.0738308429718018, 0.48474937677383423, 1.512571930885315, 
448, 719140873, -86.59219360351562, 37.76313781738281, -2.1477813720703125, -6.267868995666504, -7.938951015472412, 0.2355596423149109, 2.2323191165924072, 0.5393973588943481, 1.4976516962051392, 
449, 719149206, -86.5912094116211, 37.76321029663086, -2.148047924041748, -6.196753978729248, -7.6598358154296875, 0.5815112590789795, 2.258676052093506, 0.45097699761390686, 1.229854702949524, 
450, 719157539, -86.58976745605469, 37.76089859008789, -2.144740581512451, -5.938692092895508, -7.391875267028809, 0.4210042655467987, 2.1350104808807373, 0.2076161652803421, 0.9527854919433594, 
451, 719165872, -86.58993530273438, 37.759681701660156, -2.1444520950317383, -5.663974285125732, -7.577671527862549, 0.6190493702888489, 2.0805420875549316, 0.38631391525268555, 1.0783593654632568, 
452, 719174205, -86.59024047851562, 37.76008605957031, -2.136664628982544, -5.8418354988098145, -7.924950122833252, 0.5297170281410217, 2.0291852951049805, 0.3708428740501404, 1.2702867984771729, 
453, 719182538, -86.5897216796875, 37.76171112060547, -2.1367805004119873, -6.198849678039551, -7.959140777587891, 0.3438587188720703, 2.1915154457092285, 0.44675061106681824, 1.4152759313583374, 
454, 719190871, -86.58769989013672, 37.762779235839844, -2.133702516555786, -6.303483486175537, -7.766510009765625, 0.4190421402454376, 2.3084828853607178, 0.36361971497535706, 1.3501007556915283, 
455, 719199204, -86.58704376220703, 37.760337829589844, -2.1338305473327637, -6.0221123695373535, -7.457071304321289, 0.38399386405944824, 2.2072556018829346, 0.41843417286872864, 0.9302065968513489, 
456, 719207537, -86.5878677368164, 37.758506774902344, -2.1323108673095703, -5.678987503051758, -7.455754280090332, 0.6990504264831543, 2.060037851333618, 0.4681130051612854, 0.9943831562995911, 
457, 719215870, -86.59025573730469, 37.75791549682617, -2.1341612339019775, -5.7717790603637695, -7.724738597869873, 0.45175111293792725, 1.971553087234497, 0.5945063829421997, 1.1420875787734985, 
458, 719224203, -86.59088897705078, 37.76061248779297, -2.135338306427002, -6.072608947753906, -7.980855464935303, 0.54081130027771, 2.0702195167541504, 0.48574838042259216, 1.5380324125289917, 
459, 719232536, -86.58802032470703, 37.762813568115234, -2.134071111679077, -6.324939727783203, -7.9662041664123535, 0.3212219774723053, 2.3742473125457764, 0.32060056924819946, 1.4955509901046753, 
460, 719240869, -86.58740234375, 37.76107406616211, -2.139051914215088, -6.195107936859131, -7.546850681304932, 0.4977695345878601, 2.2778613567352295, 0.5261036157608032, 1.00037682056427, 
461, 719249202, -86.58738708496094, 37.75875473022461, -2.138242721557617, -5.826259613037109, -7.3991875648498535, 0.5719988942146301, 2.061241388320923, 0.33238309621810913, 0.9497886300086975, 
462, 719257535, -86.59003448486328, 37.758602142333984, -2.140559196472168, -5.6322102546691895, -7.6200103759765625, 0.5816669464111328, 1.8626800775527954, 0.49936234951019287, 1.196043848991394, 
463, 719265868, -86.59223937988281, 37.76124954223633, -2.1421921253204346, -5.929196834564209, -7.862885475158691, 0.4787541925907135, 1.9780336618423462, 0.5986302495002747, 1.5300661325454712, 
464, 719274201, -86.59315490722656, 37.76298522949219, -2.143327474594116, -6.252564907073975, -8.024955749511719, 0.36379244923591614, 2.106220006942749, 0.5700063705444336, 1.418298602104187, 
465, 719282534, -86.59200286865234, 37.762779235839844, -2.1433818340301514, -6.3075175285339355, -7.73292350769043, 0.5145021677017212, 2.263235569000244, 0.4286670386791229, 1.1985797882080078, 
466, 719290867, -86.59098052978516, 37.76055908203125, -2.142526865005493, -6.00972843170166, -7.38126277923584, 0.4141853153705597, 2.163109302520752, 0.30999627709388733, 0.9570375680923462, 
467, 719299200, -86.59296417236328, 37.75909423828125, -2.14277982711792, -5.616480350494385, -7.531936168670654, 0.6996102929115295, 1.9025228023529053, 0.4385412931442261, 1.044113039970398, 
468, 719307533, -86.59442901611328, 37.7598876953125, -2.1431548595428467, -5.753767013549805, -7.786104202270508, 0.4705779552459717, 2.016096591949463, 0.525578498840332, 1.3089643716812134, 
469, 719315866, -86.59466552734375, 37.762657165527344, -2.143394708633423, -6.1492533683776855, -7.890914440155029, 0.3487321734428406, 2.109421491622925, 0.46749812364578247, 1.554361343383789, 
470, 719324199, -86.5936279296875, 37.76351547241211, -2.1430959701538086, -6.308687686920166, -7.893519878387451, 0.473515123128891, 2.2304491996765137, 0.4171406626701355, 1.3186079263687134, 
471, 719332532, -86.59319305419922, 37.76145553588867, -2.1432156562805176, -6.125602722167969, -7.527240753173828, 0.389814168214798, 2.1803224086761475, 0.42000943422317505, 0.9757872223854065, 
472, 719340865, -86.59305572509766, 37.75782012939453, -2.142421007156372, -5.784876346588135, -7.421631813049316, 0.6436857581138611, 2.04067325592041, 0.28143641352653503, 0.7890336513519287, 
473, 719349198, -86.59561920166016, 37.75758743286133, -2.143246650695801, -5.667438983917236, -7.763643264770508, 0.48020246624946594, 1.8757305145263672, 0.501552402973175, 1.1907546520233154, 
474, 719357531, -86.59693145751953, 37.76029968261719, -2.141936779022217, -5.960423469543457, -7.928787708282471, 0.5102187991142273, 1.9820679426193237, 0.47825613617897034, 1.5397868156433105, 
475, 719365864, -86.5956802368164, 37.761905670166016, -2.1413052082061768, -6.2782158851623535, -7.913378715515137, 0.2194843590259552, 2.2267608642578125, 0.3757736384868622, 1.419451355934143, 
476, 719374197, -86.59418487548828, 37.76156234741211, -2.141050100326538, -6.165607929229736, -7.665780544281006, 0.5025113224983215, 2.2671544551849365, 0.3919362425804138, 1.176756501197815, 
477, 719382530, -86.59427642822266, 37.75959014892578, -2.1404778957366943, -5.915462493896484, -7.400856971740723, 0.4718254804611206, 2.071141242980957, 0.3561403155326843, 0.9905280470848083, 
478, 719390863, -86.59649658203125, 37.75873947143555, -2.1393532752990723, -5.7069854736328125, -7.58315896987915, 0.603920578956604, 1.9204784631729126, 0.5099537968635559, 1.1107356548309326, 
479, 719399196, -86.59777069091797, 37.75954818725586, -2.1403937339782715, -5.896613597869873, -7.933590888977051, 0.5873369574546814, 2.0440673828125, 0.5290876626968384, 1.3131394386291504, 
480, 719407529, -86.5984115600586, 37.762176513671875, -2.1415281295776367, -6.214810848236084, -8.011051177978516, 0.30874261260032654, 2.118476390838623, 0.5419459342956543, 1.5258655548095703, 
481, 719415862, -86.59571075439453, 37.76285934448242, -2.140207290649414, -6.34103536605835, -7.7335309982299805, 0.4994973838329315, 2.346545934677124, 0.30427151918411255, 1.3105010986328125, 
482, 719424195, -86.59564971923828, 37.76049041748047, -2.140458106994629, -6.0003252029418945, -7.4886980056762695, 0.3123628795146942, 2.123560905456543, 0.407791405916214, 0.937519371509552, 
483, 719432528, -86.5959701538086, 37.75790786743164, -2.1393415927886963, -5.6685991287231445, -7.534040927886963, 0.7511147260665894, 2.001227378845215, 0.2988796830177307, 0.919051468372345, 
484, 719440861, -86.5972671508789, 37.75837326049805, -2.137444257736206, -5.807673931121826, -7.721804141998291, 0.3497439920902252, 2.004992961883545, 0.4958019554615021, 1.2704789638519287, 
485, 719449194, -86.59739685058594, 37.761070251464844, -2.1380674839019775, -6.102188587188721, -7.959537029266357, 0.4908498525619507, 2.153581142425537, 0.501565158367157, 1.5414519309997559, 
486, 719457527, -86.59671020507812, 37.76319122314453, -2.1399240493774414, -6.306882858276367, -7.927440166473389, 0.3044227957725525, 2.2566654682159424, 0.5151278972625732, 1.4672091007232666, 
487, 719465860, -86.5953140258789, 37.762203216552734, -2.139798402786255, -6.16981840133667, -7.501951694488525, 0.4407021403312683, 2.279871940612793, 0.4050891399383545, 1.1037174463272095, 
488, 719474193, -86.5942153930664, 37.7606201171875, -2.135566234588623, -5.805802822113037, -7.479354381561279, 0.6580744385719299, 2.089942216873169, 0.21626099944114685, 1.0417821407318115, 
489, 719482526, -86.59580993652344, 37.76018524169922, -2.1357505321502686, -5.687132358551025, -7.693020343780518, 0.49282217025756836, 1.9426732063293457, 0.43811866641044617, 1.169481873512268, 
490, 719490859, -86.59636688232422, 37.76240921020508, -2.137557029724121, -6.023218631744385, -7.862696170806885, 0.4257235527038574, 2.0963847637176514, 0.49682652950286865, 1.4809768199920654, 
491, 719499192, -86.595947265625, 37.76432800292969, -2.1383023262023926, -6.283699035644531, -7.974486351013184, 0.2969438135623932, 2.226837635040283, 0.5082504153251648, 1.4472682476043701, 
492, 719507525, -86.5943832397461, 37.76301956176758, -2.1391263008117676, -6.225900173187256, -7.651611328125, 0.4807406961917877, 2.3181650638580322, 0.43697887659072876, 1.0590975284576416, 
493, 719515858, -86.59452056884766, 37.75988006591797, -2.1389763355255127, -5.928493022918701, -7.405068397521973, 0.4411103129386902, 2.0935280323028564, 0.38662123680114746, 0.8468322157859802, 
494, 719524191, -86.59573364257812, 37.75879669189453, -2.1401054859161377, -5.617532730102539, -7.6520915031433105, 0.6778096556663513, 1.963792324066162, 0.41090357303619385, 1.08840012550354, 
495, 719532524, -86.59735870361328, 37.7602653503418, -2.141840934753418, -5.897289752960205, -7.891664028167725, 0.4589008688926697, 2.054799795150757, 0.6003465056419373, 1.3896749019622803, 
496, 719540857, -86.5972900390625, 37.76339340209961, -2.136338233947754, -6.261180877685547, -7.926482677459717, 0.3067289888858795, 2.2119297981262207, 0.5595813989639282, 1.5859695672988892, 
497, 719549190, -86.59453582763672, 37.764076232910156, -2.13551926612854, -6.249759674072266, -7.821416854858398, 0.4575115740299225, 2.3918957710266113, 0.3507485091686249, 1.308746576309204, 
498, 719557523, -86.59272766113281, 37.761932373046875, -2.13659405708313, -5.972623348236084, -7.464792251586914, 0.36710044741630554, 2.2508254051208496, 0.2981753349304199, 0.9670397639274597, 
499, 719565856, -86.59321594238281, 37.760040283203125, -2.136141061782837, -5.689376354217529, -7.411023139953613, 0.7287265062332153, 2.028468132019043, 0.36769235134124756, 0.9983404874801636, 
500, 719574189, -86.5946044921875, 37.76109313964844, -2.134690523147583, -5.776281356811523, -7.799008369445801, 0.45485419034957886, 1.99787175655365, 0.4964422881603241, 1.3408666849136353, 
501, 719582522, -86.5939712524414, 37.76394271850586, -2.1352827548980713, -6.118470668792725, -8.036335945129395, 0.5199192762374878, 2.242462396621704, 0.5012834668159485, 1.5599710941314697, 
502, 719590855, -86.59265899658203, 37.76645278930664, -2.135106086730957, -6.36204719543457, -7.887573719024658, 0.3284865915775299, 2.266040086746216, 0.426118403673172, 1.5197436809539795, 
503, 719599188, -86.59117126464844, 37.76408386230469, -2.134740114212036, -6.117570877075195, -7.527760982513428, 0.49848371744155884, 2.2733914852142334, 0.3723541498184204, 0.9404010772705078, 
504, 719607521, -86.59056091308594, 37.76156234741211, -2.133456230163574, -5.666555881500244, -7.457817554473877, 0.6074945330619812, 2.074061632156372, 0.26031747460365295, 0.9245201945304871, 
505, 719615854, -86.59388732910156, 37.76234817504883, -2.135242223739624, -5.593907833099365, -7.603449821472168, 0.5201538801193237, 1.8533947467803955, 0.5987582802772522, 1.3069663047790527, 
506, 719624187, -86.59428405761719, 37.76552963256836, -2.12626314163208, -5.989123821258545, -7.89874792098999, 0.5578742027282715, 1.976599097251892, 0.3320629298686981, 1.6056795120239258, 
507, 719632520, -86.59385681152344, 37.768829345703125, -2.126744508743286, -6.292688846588135, -7.973550796508789, 0.31404292583465576, 2.2095863819122314, 0.4926898777484894, 1.61433744430542, 
508, 719640853, -86.59109497070312, 37.768795013427734, -2.12329363822937, -6.302206039428711, -7.667358875274658, 0.47498995065689087, 2.308073043823242, 0.23939065635204315, 1.2240787744522095, 
509, 719649186, -86.59085845947266, 37.765350341796875, -2.122865676879883, -5.9386677742004395, -7.468655109405518, 0.5095511674880981, 2.1194753646850586, 0.3596750795841217, 0.812099277973175, 
510, 719657519, -86.59159851074219, 37.76469039916992, -2.118723154067993, -5.583502292633057, -7.532331943511963, 0.7129037976264954, 2.0025975704193115, 0.39161601662635803, 1.141191005706787, 
511, 719665852, -86.59332275390625, 37.76695251464844, -2.1192269325256348, -5.825615882873535, -7.757818222045898, 0.41321510076522827, 1.9510490894317627, 0.4888092279434204, 1.490300178527832, 
512, 719674185, -86.5936279296875, 37.76969909667969, -2.1212353706359863, -6.135888576507568, -7.961886882781982, 0.32495877146720886, 2.2163102626800537, 0.6179050207138062, 1.5354325771331787, 
513, 719682518, -86.5913314819336, 37.770286560058594, -2.1208720207214355, -6.301807403564453, -7.823319911956787, 0.47283506393432617, 2.371122360229492, 0.39383164048194885, 1.2958625555038452, 
514, 719690851, -86.59122467041016, 37.76810073852539, -2.12106990814209, -6.09226131439209, -7.394845485687256, 0.3706331253051758, 2.1546568870544434, 0.43980926275253296, 0.9520940184593201, 
515, 719699184, -86.59114837646484, 37.76604080200195, -2.1193273067474365, -5.647494792938232, -7.540223121643066, 0.7142893671989441, 2.002943277359009, 0.24427011609077454, 0.9859814643859863, 
516, 719707517, -86.59378051757812, 37.76692581176758, -2.122878074645996, -5.6925578117370605, -7.841087818145752, 0.40417158603668213, 1.9460545778274536, 0.6195698976516724, 1.3130497932434082, 
517, 719715850, -86.59375, 37.76918029785156, -2.12347674369812, -6.15135383605957, -7.86041784286499, 0.44311729073524475, 2.1697561740875244, 0.4975309371948242, 1.488571286201477, 
518, 719724183, -86.59297180175781, 37.77140426635742, -2.1210553646087646, -6.349983215332031, -7.899537563323975, 0.31860774755477905, 2.1946020126342773, 0.4181780517101288, 1.4865734577178955, 
519, 719732516, -86.59170532226562, 37.7698860168457, -2.12078595161438, -6.146789073944092, -7.569414138793945, 0.4098238945007324, 2.252349376678467, 0.3875049352645874, 1.0410265922546387, 
520, 719740849, -86.5919189453125, 37.767086029052734, -2.1244544982910156, -5.834463596343994, -7.395460605621338, 0.5817580223083496, 2.009269952774048, 0.304181843996048, 0.8882632255554199, 
521, 719749182, -86.59455871582031, 37.764835357666016, -2.125643730163574, -5.670809268951416, -7.677835941314697, 0.5218477845191956, 1.8933658599853516, 0.5202634930610657, 0.9470735192298889, 
522, 719757515, -86.595703125, 37.76689147949219, -2.1331751346588135, -5.969891548156738, -7.966958045959473, 0.6005209684371948, 2.082104206085205, 0.5675089359283447, 1.4567583799362183, 
523, 719765848, -86.59420776367188, 37.76887893676758, -2.1327741146087646, -6.330233097076416, -7.999279499053955, 0.18387794494628906, 2.271470308303833, 0.401656836271286, 1.4636741876602173, 
524, 719774181, -86.59222412109375, 37.76841354370117, -2.133896589279175, -6.280617713928223, -7.685396194458008, 0.5705504417419434, 2.3612866401672363, 0.42920491099357605, 1.161285400390625, 
525, 719782514, -86.59103393554688, 37.76502990722656, -2.132178783416748, -5.8757147789001465, -7.4623122215271, 0.40932992100715637, 2.1367902755737305, 0.23708534240722656, 0.8260846138000488, 
526, 719790847, -86.59225463867188, 37.76335906982422, -2.1326100826263428, -5.619217395782471, -7.525010108947754, 0.679099440574646, 1.9966551065444946, 0.45045194029808044, 1.015066385269165, 
527, 719799180, -86.5936279296875, 37.76443862915039, -2.1332855224609375, -5.842103481292725, -7.839144229888916, 0.4693177342414856, 2.006849527359009, 0.49555855989456177, 1.3483076095581055, 
528, 719807513, -86.59291076660156, 37.76655578613281, -2.132392406463623, -6.176799297332764, -8.014225006103516, 0.4008976221084595, 2.2119300365448, 0.44293418526649475, 1.472882628440857, 
529, 719815846, -86.5908203125, 37.767669677734375, -2.1325559616088867, -6.3848557472229, -7.798901557922363, 0.4485458731651306, 2.3843395709991455, 0.44900473952293396, 1.354263186454773, 
530, 719824179, -86.59071350097656, 37.765377044677734, -2.133695125579834, -6.072004795074463, -7.500100612640381, 0.3700408637523651, 2.161137104034424, 0.44605907797813416, 0.9412592053413391, 
531, 719832512, -86.59153747558594, 37.76323699951172, -2.132915735244751, -5.634329319000244, -7.519775867462158, 0.7627508640289307, 1.9680569171905518, 0.33535435795783997, 0.9709715843200684, 
532, 719840845, -86.59332275390625, 37.763877868652344, -2.128551483154297, -5.699222564697266, -7.6785407066345215, 0.42443719506263733, 2.0236780643463135, 0.5797269940376282, 1.2850404977798462, 
533, 719849178, -86.5944595336914, 37.766807556152344, -2.1306004524230957, -6.077723979949951, -7.89558219909668, 0.4452807605266571, 2.1373796463012695, 0.6400997042655945, 1.5625708103179932, 
534, 719857511, -86.59295654296875, 37.769527435302734, -2.124406576156616, -6.312326908111572, -7.9534125328063965, 0.2957676947116852, 2.212493658065796, 0.3356104791164398, 1.550160527229309, 
535, 719865844, -86.5920639038086, 37.76799011230469, -2.125192165374756, -6.227124214172363, -7.558337211608887, 0.4404144287109375, 2.2881839275360107, 0.4870675206184387, 1.034443736076355, 
536, 719874177, -86.59120178222656, 37.76528549194336, -2.1235108375549316, -5.846653938293457, -7.407249450683594, 0.6130614876747131, 2.0728445053100586, 0.2109716385602951, 0.9049893021583557, 
537, 719882510, -86.59403228759766, 37.76358413696289, -2.124253511428833, -5.581475734710693, -7.69462776184082, 0.5266960263252258, 1.8355801105499268, 0.48150917887687683, 1.0147463083267212, 
538, 719890843, -86.59483337402344, 37.765621185302734, -2.128119468688965, -5.9397807121276855, -7.88122034072876, 0.438611775636673, 2.11257266998291, 0.5578396320343018, 1.453518271446228, 
539, 719899176, -86.59431457519531, 37.76881790161133, -2.1286370754241943, -6.26395320892334, -7.9434919357299805, 0.26471543312072754, 2.2209975719451904, 0.49577632546424866, 1.6039506196975708, 
540, 719907509, -86.59342956542969, 37.768211364746094, -2.126059055328369, -6.22839879989624, -7.68437385559082, 0.5033972263336182, 2.1895177364349365, 0.3823052644729614, 1.1484782695770264, 
541, 719915842, -86.59265899658203, 37.76485061645508, -2.1249706745147705, -5.936373710632324, -7.40488338470459, 0.3923485577106476, 2.1335630416870117, 0.2975861728191376, 0.8253418207168579, 
542, 719924175, -86.59400939941406, 37.763092041015625, -2.1243348121643066, -5.614865303039551, -7.545593738555908, 0.6872331500053406, 1.9600907564163208, 0.42249396443367004, 1.0071388483047485, 
543, 719932508, -86.59535217285156, 37.763999938964844, -2.1250576972961426, -5.840366840362549, -7.855708599090576, 0.5288297533988953, 2.0154430866241455, 0.4991829991340637, 1.328520655632019, 
544, 719940841, -86.59549713134766, 37.76617431640625, -2.1278083324432373, -6.2584357261657715, -7.933162689208984, 0.34609174728393555, 2.1845357418060303, 0.5612335205078125, 1.4699240922927856, 
545, 719949174, -86.59336853027344, 37.76652145385742, -2.126788377761841, -6.384493350982666, -7.802416801452637, 0.5065097808837891, 2.3028476238250732, 0.3293478488922119, 1.2708501815795898, 
546, 719957507, -86.5918960571289, 37.76329040527344, -2.125685930252075, -6.010880947113037, -7.5180182456970215, 0.3114025294780731, 2.2433457374572754, 0.3377749025821686, 0.8349727392196655, 
547, 719965840, -86.59121704101562, 37.76036834716797, -2.124404191970825, -5.667068958282471, -7.4431962966918945, 0.7644630670547485, 2.110010862350464, 0.28100094199180603, 0.8798105120658875, 
548, 719974173, -86.59434509277344, 37.760154724121094, -2.1272921562194824, -5.6947245597839355, -7.719509601593018, 0.41246935725212097, 1.8873977661132812, 0.6240780353546143, 1.1801629066467285, 
549, 719982506, -86.59599304199219, 37.76362228393555, -2.1290018558502197, -6.047938346862793, -7.965631008148193, 0.5207566022872925, 2.0503811836242676, 0.6108867526054382, 1.6288219690322876, 
550, 719990839, -86.59412384033203, 37.764923095703125, -2.1313414573669434, -6.373157978057861, -7.954598426818848, 0.2687406837940216, 2.3454055786132812, 0.43473759293556213, 1.3727563619613647, 
551, 719999172, -86.59307098388672, 37.762935638427734, -2.1315736770629883, -6.202064514160156, -7.577549934387207, 0.5126654505729675, 2.266514301300049, 0.43289342522621155, 0.9831896424293518, 
552, 720007505, -86.59284210205078, 37.760066986083984, -2.13046932220459, -5.81158447265625, -7.483717441558838, 0.6142371892929077, 2.018824338912964, 0.24836841225624084, 0.8844723105430603, 
553, 720015838, -86.59420013427734, 37.75973892211914, -2.13045334815979, -5.624835968017578, -7.6013054847717285, 0.5468447804450989, 1.958605170249939, 0.4215206503868103, 1.1836978197097778, 
554, 720024171, -86.59407043457031, 37.76191711425781, -2.1315512657165527, -5.955933094024658, -7.889245510101318, 0.46563318371772766, 2.0740232467651367, 0.3641960024833679, 1.4822062253952026, 
555, 720032504, -86.593505859375, 37.76423263549805, -2.1326117515563965, -6.270544528961182, -8.012859344482422, 0.28145989775657654, 2.266770362854004, 0.5416257977485657, 1.4946802854537964, 
556, 720040837, -86.59214782714844, 37.76438903808594, -2.1325480937957764, -6.319589614868164, -7.657357692718506, 0.44660788774490356, 2.2914493083953857, 0.4337770342826843, 1.2353745698928833, 
557, 720049170, -86.59147644042969, 37.761138916015625, -2.1321187019348145, -5.937918186187744, -7.43497896194458, 0.42859721183776855, 2.1687698364257812, 0.35971349477767944, 0.8362406492233276, 
558, 720057503, -86.59239959716797, 37.760154724121094, -2.126617193222046, -5.550064563751221, -7.61320161819458, 0.7274842262268066, 2.0252790451049805, 0.4483643174171448, 1.0950212478637695, 
559, 720065836, -86.59463500976562, 37.7625732421875, -2.1279335021972656, -5.856386661529541, -7.8079047203063965, 0.4251636564731598, 1.9512540102005005, 0.5654982328414917, 1.5062577724456787, 
560, 720074169, -86.59477996826172, 37.76564025878906, -2.1287765502929688, -6.237736225128174, -7.951924800872803, 0.36591535806655884, 2.1645822525024414, 0.5320588946342468, 1.580116629600525, 
561, 720082502, -86.5926742553711, 37.766422271728516, -2.1272850036621094, -6.3112664222717285, -7.881858825683594, 0.4070878326892853, 2.265169143676758, 0.2890566289424896, 1.325639009475708, 
562, 720090835, -86.59194946289062, 37.76409912109375, -2.128131151199341, -6.042910575866699, -7.478214263916016, 0.3077373206615448, 2.187455654144287, 0.38631391525268555, 0.9407852292060852, 
563, 720099168, -86.592529296875, 37.76152801513672, -2.1270055770874023, -5.677439212799072, -7.401268482208252, 0.7607985138893127, 1.969286322593689, 0.29987862706184387, 0.921792209148407, 
564, 720107501, -86.59571075439453, 37.76198196411133, -2.12739896774292, -5.703826427459717, -7.776345729827881, 0.4225332736968994, 1.8001042604446411, 0.5155249238014221, 1.2649974822998047, 
565, 720115834, -86.59647369384766, 37.76518249511719, -2.1282846927642822, -6.1446709632873535, -7.96023416519165, 0.49084341526031494, 2.096602201461792, 0.5311880111694336, 1.6022984981536865, 
566, 720124167, -86.59465789794922, 37.766719818115234, -2.129058837890625, -6.379263401031494, -7.914327621459961, 0.3006397485733032, 2.326540946960449, 0.42878228425979614, 1.402251124382019, 
567, 720132500, -86.59258270263672, 37.76551818847656, -2.1279821395874023, -6.156894683837891, -7.607516765594482, 0.5369865894317627, 2.2913341522216797, 0.312583327293396, 1.0837767124176025, 
568, 720140833, -86.59159851074219, 37.762699127197266, -2.126504421234131, -5.775317192077637, -7.357088088989258, 0.5558309555053711, 2.1365983486175537, 0.2806423604488373, 0.888109564781189, 
569, 720149166, -86.59378814697266, 37.763126373291016, -2.1274006366729736, -5.568294048309326, -7.586799621582031, 0.5203105211257935, 1.9211572408676147, 0.5124255418777466, 1.2687625885009766, 
570, 720157499, -86.59539794921875, 37.76613998413086, -2.1312601566314697, -5.941708564758301, -7.939404487609863, 0.5576139688491821, 2.0670816898345947, 0.6279201507568359, 1.567808747291565, 
571, 720165832, -86.59556579589844, 37.768829345703125, -2.1317155361175537, -6.34882926940918, -7.970363140106201, 0.2796357572078705, 2.135484457015991, 0.48549219965934753, 1.5414135456085205, 
572, 720174165, -86.59297943115234, 37.768558502197266, -2.131943464279175, -6.303774356842041, -7.7220306396484375, 0.5085350871086121, 2.363604784011841, 0.3426928222179413, 1.189243197441101, 
573, 720182498, -86.59117126464844, 37.76548767089844, -2.1306679248809814, -5.8993682861328125, -7.522299289703369, 0.4412718415260315, 2.245331287384033, 0.2815132737159729, 0.8619062900543213, 
574, 720190831, -86.59355926513672, 37.764034271240234, -2.132835626602173, -5.56514835357666, -7.4945387840271, 0.7036265134811401, 1.9255372285842896, 0.5382190942764282, 1.036569595336914, 
575, 720199164, -86.59584045410156, 37.76607894897461, -2.1334989070892334, -5.826814651489258, -7.720339775085449, 0.42657485604286194, 1.8953638076782227, 0.502487301826477, 1.4619197845458984, 
576, 720207497, -86.59661102294922, 37.76872634887695, -2.1360278129577637, -6.168310165405273, -8.005346298217773, 0.4032549560070038, 2.1072959899902344, 0.5507957339286804, 1.5314624309539795, 
577, 720215830, -86.59405517578125, 37.7698860168457, -2.134909152984619, -6.368987560272217, -7.784901142120361, 0.3743651807308197, 2.346712350845337, 0.32595396041870117, 1.3679667711257935, 
578, 720224163, -86.59436798095703, 37.766571044921875, -2.135215997695923, -6.130095481872559, -7.4267258644104, 0.4470798969268799, 2.1312708854675293, 0.46752384305000305, 0.8173374533653259, 
579, 720232496, -86.59494018554688, 37.76235580444336, -2.1342575550079346, -5.656264781951904, -7.541415214538574, 0.7726051211357117, 1.9843988418579102, 0.303592711687088, 0.7226415872573853, 
580, 720240829, -86.59735107421875, 37.761680603027344, -2.134310245513916, -5.701455593109131, -7.783841133117676, 0.4131000339984894, 1.8970286846160889, 0.5105814337730408, 1.129677414894104, 
581, 720249162, -86.59828186035156, 37.76441192626953, -2.1355528831481934, -6.098516464233398, -7.921558856964111, 0.43988916277885437, 2.10417103767395, 0.5615537166595459, 1.5439364910125732, 
582, 720257495, -86.59629821777344, 37.76555633544922, -2.137240171432495, -6.325381278991699, -7.949276447296143, 0.33593568205833435, 2.315488338470459, 0.386685311794281, 1.3573623895645142, 
583, 720265828, -86.5942611694336, 37.76323699951172, -2.1365251541137695, -6.151285648345947, -7.542404651641846, 0.4360453188419342, 2.3141822814941406, 0.3403491675853729, 0.949148416519165, 
584, 720274161, -86.59339141845703, 37.75965118408203, -2.1338093280792236, -5.794434547424316, -7.4286580085754395, 0.6222313046455383, 2.0977673530578613, 0.23768727481365204, 0.7978449463844299, 
585, 720282494, -86.59505462646484, 37.758995056152344, -2.1347784996032715, -5.605865955352783, -7.695870399475098, 0.5431312918663025, 1.9945164918899536, 0.5109655261039734, 1.1385399103164673, 
586, 720290827, -86.59593963623047, 37.761234283447266, -2.1358628273010254, -6.020452499389648, -7.871911525726318, 0.5265849828720093, 2.0515336990356445, 0.5024872422218323, 1.482692837715149, 
587, 720299160, -86.59510040283203, 37.76396560668945, -2.135856866836548, -6.327907085418701, -8.002763748168945, 0.2766853868961334, 2.2230467796325684, 0.443190336227417, 1.5498021841049194, 
588, 720307493, -86.5920181274414, 37.7631950378418, -2.1331393718719482, -6.2760114669799805, -7.756889343261719, 0.5491114854812622, 2.3233392238616943, 0.20673249661922455, 1.1375281810760498, 
589, 720315826, -86.59158325195312, 37.75978088378906, -2.132634401321411, -5.9398064613342285, -7.3897705078125, 0.3739619255065918, 2.136380672454834, 0.3513760566711426, 0.8171964287757874, 
590, 720324159, -86.59341430664062, 37.75778579711914, -2.132458209991455, -5.599082946777344, -7.501859188079834, 0.7273737192153931, 1.9126275777816772, 0.4343021512031555, 0.977912962436676, 
591, 720332492, -86.59490203857422, 37.758697509765625, -2.1321537494659424, -5.8090057373046875, -7.862204074859619, 0.42309102416038513, 1.9210035800933838, 0.4011829197406769, 1.3327471017837524, 
592, 720340825, -86.59485626220703, 37.7618293762207, -2.135664224624634, -6.218925952911377, -7.996634006500244, 0.36898183822631836, 2.2472267150878906, 0.6098621487617493, 1.5851755142211914, 
593, 720349158, -86.5930404663086, 37.762779235839844, -2.135648250579834, -6.370364189147949, -7.832502841949463, 0.4462522864341736, 2.340667247772217, 0.4285133183002472, 1.3347961902618408, 
594, 720357491, -86.59257507324219, 37.76036834716797, -2.136953353881836, -6.026123046875, -7.524460792541504, 0.425688773393631, 2.2041819095611572, 0.4501701891422272, 0.9276964664459229, 
595, 720365824, -86.59329223632812, 37.758235931396484, -2.1364245414733887, -5.648255825042725, -7.459521293640137, 0.7049398422241211, 1.9965654611587524, 0.3593549132347107, 0.9694091081619263, 
596, 720374157, -86.59503173828125, 37.75923538208008, -2.1366677284240723, -5.675650119781494, -7.706789493560791, 0.4130731225013733, 1.9332857131958008, 0.4636945128440857, 1.3351163864135742, 
597, 720382490, -86.59624481201172, 37.76256561279297, -2.137558937072754, -6.053109645843506, -7.943135738372803, 0.48743969202041626, 2.0423641204833984, 0.5329682230949402, 1.617193341255188, 
598, 720390823, -86.59514617919922, 37.7647590637207, -2.138014554977417, -6.378396987915039, -7.920045852661133, 0.25060853362083435, 2.3112878799438477, 0.5198025107383728, 1.476647973060608, 
599, 720399156, -86.59417724609375, 37.762794494628906, -2.138500213623047, -6.2114644050598145, -7.540371894836426, 0.4631902277469635, 2.2738397121429443, 0.4566633999347687, 0.9856230020523071, 
600, 720407489, -86.59278106689453, 37.75923538208008, -2.1355481147766113, -5.816511631011963, -7.458935737609863, 0.5964341759681702, 2.098599672317505, 0.15911562740802765, 0.8047736287117004, 
601, 720415822, -86.59513092041016, 37.758670806884766, -2.136871337890625, -5.575437545776367, -7.632940292358398, 0.5216023921966553, 1.9361672401428223, 0.5456728339195251, 1.1463779211044312, 
602, 720424155, -86.59661865234375, 37.761314392089844, -2.1413590908050537, -5.938727855682373, -7.885213375091553, 0.46481114625930786, 1.9917502403259277, 0.52162104845047, 1.5300278663635254, 
603, 720432488, -86.59651184082031, 37.763431549072266, -2.1424832344055176, -6.243358135223389, -8.011488914489746, 0.2871832549571991, 2.2157208919525146, 0.5455191731452942, 1.4699368476867676, 
604, 720440821, -86.5950698852539, 37.76285934448242, -2.142195224761963, -6.279598712921143, -7.674400806427002, 0.49381500482559204, 2.2937164306640625, 0.4237491190433502, 1.1486575603485107, 
605, 720449154, -86.59347534179688, 37.75984191894531, -2.1403820514678955, -5.974334716796875, -7.383910179138184, 0.41024696826934814, 2.1814873218536377, 0.231475830078125, 0.8719341158866882, 
606, 720457487, -86.59487915039062, 37.75840377807617, -2.143479585647583, -5.579593181610107, -7.581015110015869, 0.6992016434669495, 2.0139191150665283, 0.5017316937446594, 1.0398355722427368, 
607, 720465820, -86.59626770019531, 37.760414123535156, -2.1444144248962402, -5.85817813873291, -7.843888759613037, 0.4706474542617798, 2.024984359741211, 0.5264750123023987, 1.4600882530212402, 
608, 720474153, -86.59663391113281, 37.7629280090332, -2.145717144012451, -6.25660514831543, -7.944040298461914, 0.37332096695899963, 2.208024024963379, 0.6191473007202148, 1.5075514316558838, 
609, 720482486, -86.59440612792969, 37.76321029663086, -2.144784450531006, -6.355370998382568, -7.890932083129883, 0.48011061549186707, 2.320316791534424, 0.33764687180519104, 1.2611937522888184, 
610, 720490819, -86.59334564208984, 37.76099395751953, -2.1431655883789062, -6.062440872192383, -7.476681709289551, 0.3406386971473694, 2.2319347858428955, 0.3905530869960785, 0.9527855515480042, 
611, 720499152, -86.5926742553711, 37.75837326049805, -2.1413252353668213, -5.6580963134765625, -7.430540084838867, 0.7374116778373718, 2.068106174468994, 0.23097637295722961, 0.921280026435852, 
