Timestamp;PosX;PosY;PosZ;Roll;Pitch;Yaw;Q1;Q2;Q3;Q4;M1;M2;M3;M4;AccelX;AccelY;AccelZ;GyroX;GyroY;GyroZ
1753875303.928809;22.109;-5.804;-1.649;-2.49;-1.11;-134.09;0.0;0.0;0.0;0.0;-18.1;-36.0;-28.0;-79.0;-0.22;0.53;-10.61;0.76;0.44;0.93
1753875303.933809;22.109;-5.804;-1.649;-2.49;-1.11;-134.09;0.0;0.0;0.0;0.0;-18.3;-36.0;-28.0;-79.0;-0.24;0.53;-10.59;0.79;0.34;1.27
1753875303.938809;22.109;-5.804;-1.649;-2.49;-1.11;-134.09;0.0;0.0;0.0;0.0;-18.2;-36.0;-28.0;-79.0;-0.23;0.53;-10.6;0.77;0.41;1.07
1753875303.943809;22.109;-5.804;-1.649;-2.49;-1.11;-134.09;0.0;0.0;0.0;0.0;-18.3;-36.0;-28.0;-79.0;-0.23;0.53;-10.6;0.71;0.39;1.06
1753875303.948809;22.109;-5.804;-1.649;-2.49;-1.1;-134.09;0.0;0.0;0.0;0.0;-18.4;-36.0;-28.0;-79.0;-0.23;0.53;-10.6;0.89;0.31;1.14
1753875303.953809;22.109;-5.804;-1.649;-2.49;-1.11;-134.09;0.0;0.0;0.0;0.0;-18.2;-36.0;-28.0;-79.0;-0.24;0.53;-10.6;0.71;0.44;1.17
1753875303.95881;22.109;-5.804;-1.649;-2.49;-1.1;-134.09;0.0;0.0;0.0;0.0;-18.0;-36.0;-28.0;-79.0;-0.23;0.53;-10.61;0.76;0.31;1.0
1753875303.96381;22.109;-5.804;-1.649;-2.49;-1.1;-134.09;0.0;0.0;0.0;0.0;-18.0;-36.0;-28.0;-79.0;-0.23;0.53;-10.6;0.8;0.31;1.04
1753875303.96881;22.109;-5.804;-1.649;-2.49;-1.11;-134.09;0.0;0.0;0.0;0.0;-18.6;-36.0;-28.0;-79.0;-0.24;0.52;-10.6;0.81;0.29;0.98
1753875303.97381;22.109;-5.804;-1.649;-2.48;-1.11;-134.09;0.0;0.0;0.0;0.0;-18.1;-36.0;-28.0;-79.0;-0.23;0.53;-10.61;0.57;0.23;0.88
1753875303.97881;22.109;-5.804;-1.649;-2.48;-1.11;-134.09;0.0;0.0;0.0;0.0;-18.4;-36.0;-28.0;-79.0;-0.24;0.53;-10.61;0.7;0.31;1.08
1753875303.98381;22.109;-5.804;-1.649;-2.49;-1.11;-134.09;0.0;0.0;0.0;0.0;-18.4;-36.0;-28.0;-79.0;-0.21;0.53;-10.6;0.81;0.37;1.14
1753875303.98881;22.109;-5.804;-1.649;-2.48;-1.1;-134.09;0.0;0.0;0.0;0.0;-18.3;-36.0;-28.0;-79.0;-0.24;0.53;-10.6;0.69;0.29;1.13
1753875303.99381;22.109;-5.804;-1.649;-2.48;-1.1;-134.09;0.0;0.0;0.0;0.0;-18.8;-36.0;-28.0;-79.0;-0.23;0.53;-10.6;0.68;0.4;1.14
1753875303.99881;22.109;-5.804;-1.649;-2.49;-1.1;-134.09;0.0;0.0;0.0;0.0;-18.4;-36.0;-28.0;-79.0;-0.24;0.53;-10.61;0.63;0.3;1.18
1753875304.00381;22.109;-5.804;-1.649;-2.48;-1.11;-134.09;0.0;0.0;0.0;0.0;-18.3;-36.0;-28.0;-79.0;-0.23;0.53;-10.61;0.8;0.38;1.13
1753875304.00881;22.109;-5.804;-1.649;-2.48;-1.1;-134.09;0.0;0.0;0.0;0.0;-18.7;-36.0;-28.0;-79.0;-0.22;0.53;-10.6;0.87;0.33;1.06
1753875304.013811;22.109;-5.804;-1.649;-2.48;-1.11;-134.09;0.0;0.0;0.0;0.0;-19.0;-36.0;-28.0;-79.0;-0.24;0.52;-10.59;0.82;0.32;1.04
1753875304.018811;22.109;-5.804;-1.649;-2.48;-1.11;-134.09;0.0;0.0;0.0;0.0;-18.7;-36.0;-28.0;-79.0;-0.23;0.53;-10.6;0.77;0.28;0.92
1753875304.023811;22.109;-5.804;-1.649;-2.48;-1.11;-134.09;0.0;0.0;0.0;0.0;-18.7;-36.0;-28.0;-79.0;-0.24;0.53;-10.6;0.71;0.43;0.96
1753875304.028811;22.109;-5.804;-1.649;-2.48;-1.11;-134.09;0.0;0.0;0.0;0.0;-18.7;-36.0;-28.0;-79.0;-0.23;0.53;-10.6;0.8;0.33;1.05
1753875304.033811;22.109;-5.804;-1.649;-2.48;-1.1;-134.09;0.0;0.0;0.0;0.0;-18.7;-36.0;-28.0;-79.0;-0.23;0.53;-10.61;0.77;0.28;1.09
1753875304.038811;22.109;-5.804;-1.649;-2.48;-1.1;-134.09;0.0;0.0;0.0;0.0;-18.7;-36.0;-28.0;-79.0;-0.24;0.53;-10.6;0.69;0.37;1.09
1753875304.043811;22.109;-5.804;-1.649;-2.48;-1.1;-134.09;0.0;0.0;0.0;0.0;-19.0;-36.0;-28.0;-79.0;-0.25;0.53;-10.59;0.73;0.28;1.15
1753875304.048812;22.109;-5.804;-1.649;-2.48;-1.1;-134.09;0.0;0.0;0.0;0.0;-19.3;-36.0;-28.0;-79.0;-0.24;0.53;-10.59;0.68;0.2;1.13
1753875304.053812;22.109;-5.804;-1.649;-2.48;-1.1;-134.09;0.0;0.0;0.0;0.0;-19.2;-36.0;-28.0;-79.0;-0.24;0.53;-10.61;0.81;0.31;0.86
1753875304.058812;22.109;-5.804;-1.649;-2.49;-1.1;-134.09;0.0;0.0;0.0;0.0;-18.9;-36.0;-28.0;-79.0;-0.25;0.53;-10.6;0.82;0.29;1.14
1753875304.063812;22.109;-5.804;-1.649;-2.48;-1.1;-134.09;0.0;0.0;0.0;0.0;-19.2;-36.0;-28.0;-79.0;-0.25;0.53;-10.6;0.83;0.34;1.18
1753875304.068812;22.109;-5.804;-1.649;-2.48;-1.1;-134.09;0.0;0.0;0.0;0.0;-18.7;-36.0;-28.0;-79.0;-0.25;0.53;-10.6;0.82;0.34;1.17
1753875304.073812;22.109;-5.804;-1.649;-2.48;-1.1;-134.09;0.0;0.0;0.0;0.0;-18.7;-36.0;-28.0;-79.0;-0.24;0.53;-10.61;0.86;0.36;0.97
1753875304.078808;22.109;-5.804;-1.649;-2.48;-1.1;-134.09;0.0;0.0;0.0;0.0;-19.0;-36.0;-28.0;-79.0;-0.24;0.53;-10.6;0.77;0.31;1.06
1753875304.083808;22.109;-5.804;-1.649;-2.48;-1.1;-134.09;0.0;0.0;0.0;0.0;-19.0;-36.0;-28.0;-79.0;-0.23;0.53;-10.59;0.67;0.36;0.95
1753875304.088808;22.109;-5.804;-1.649;-2.48;-1.1;-134.09;0.0;0.0;0.0;0.0;-19.0;-36.0;-28.0;-79.0;-0.23;0.53;-10.6;0.78;0.32;0.9
1753875304.093808;22.109;-5.804;-1.649;-2.48;-1.1;-134.09;0.0;0.0;0.0;0.0;-19.0;-36.0;-28.0;-79.0;-0.23;0.53;-10.6;0.78;0.36;0.9
1753875304.098808;22.109;-5.804;-1.649;-2.48;-1.1;-134.09;0.0;0.0;0.0;0.0;-19.0;-36.0;-28.0;-79.0;-0.23;0.52;-10.59;0.76;0.39;0.96
1753875304.103808;22.109;-5.804;-1.649;-2.48;-1.1;-134.09;0.0;0.0;0.0;0.0;-19.0;-36.0;-28.0;-79.0;-0.23;0.52;-10.59;0.89;0.36;0.94
1753875304.108808;22.109;-5.804;-1.649;-2.48;-1.1;-134.09;0.0;0.0;0.0;0.0;-19.0;-36.0;-28.0;-79.0;-0.23;0.52;-10.6;0.8;0.35;0.99
1753875304.113808;22.109;-5.804;-1.649;-2.48;-1.1;-134.09;0.0;0.0;0.0;0.0;-19.0;-36.0;-28.0;-79.0;-0.24;0.52;-10.6;0.88;0.37;1.06
1753875304.118808;22.109;-5.804;-1.649;-2.48;-1.1;-134.09;0.0;0.0;0.0;0.0;-19.0;-36.0;-28.0;-79.0;-0.23;0.52;-10.6;0.76;0.36;0.94
1753875304.123808;22.109;-5.804;-1.649;-2.48;-1.1;-134.09;0.0;0.0;0.0;0.0;-19.0;-36.0;-28.0;-79.0;-0.24;0.52;-10.61;0.95;0.34;0.93
1753875304.128808;22.109;-5.804;-1.649;-2.48;-1.1;-134.09;0.0;0.0;0.0;0.0;-19.0;-36.0;-28.0;-79.0;-0.24;0.52;-10.61;0.83;0.39;1.09
1753875304.133808;22.109;-5.804;-1.649;-2.48;-1.1;-134.09;0.0;0.0;0.0;0.0;-19.0;-36.0;-28.0;-79.0;-0.23;0.53;-10.61;0.96;0.31;0.96
1753875304.138808;22.109;-5.804;-1.649;-2.48;-1.1;-134.09;0.0;0.0;0.0;0.0;-19.0;-36.0;-28.0;-79.0;-0.24;0.52;-10.61;0.77;0.28;0.99
1753875304.143808;22.109;-5.804;-1.649;-2.48;-1.1;-134.09;0.0;0.0;0.0;0.0;-19.0;-36.0;-28.0;-79.0;-0.24;0.52;-10.61;0.77;0.27;0.99
1753875304.148808;22.109;-5.804;-1.649;-2.48;-1.1;-134.09;0.0;0.0;0.0;0.0;-19.0;-36.0;-28.0;-79.0;-0.24;0.52;-10.6;0.86;0.24;0.96
1753875304.153808;22.109;-5.804;-1.649;-2.48;-1.1;-134.09;0.0;0.0;0.0;0.0;-19.0;-36.0;-28.0;-79.0;-0.24;0.53;-10.6;0.85;0.37;0.96
1753875304.158808;22.109;-5.804;-1.649;-2.48;-1.1;-134.09;0.0;0.0;0.0;0.0;-19.0;-36.0;-28.0;-79.0;-0.24;0.53;-10.59;0.83;0.3;0.9
1753875304.163808;22.109;-5.804;-1.649;-2.48;-1.1;-134.09;0.0;0.0;0.0;0.0;-19.0;-36.0;-28.0;-79.0;-0.24;0.54;-10.58;0.75;0.25;0.95
1753875304.168808;22.109;-5.804;-1.649;-2.48;-1.1;-134.09;0.0;0.0;0.0;0.0;-19.0;-36.0;-28.0;-79.0;-0.24;0.54;-10.58;0.67;0.51;0.96
1753875304.173808;22.109;-5.804;-1.649;-2.48;-1.1;-134.09;0.0;0.0;0.0;0.0;-19.0;-36.0;-28.0;-79.0;-0.24;0.54;-10.58;0.72;0.36;0.94
1753875304.178808;22.109;-5.804;-1.649;-2.48;-1.1;-134.09;0.0;0.0;0.0;0.0;-19.0;-36.0;-28.0;-79.0;-0.24;0.54;-10.58;0.81;0.32;0.93
1753875304.183808;22.109;-5.804;-1.649;-2.48;-1.1;-134.09;0.0;0.0;0.0;0.0;-19.0;-36.0;-28.0;-79.0;-0.25;0.54;-10.58;0.95;0.31;1.0
1753875304.188808;22.109;-5.804;-1.649;-2.48;-1.1;-134.09;0.0;0.0;0.0;0.0;-19.0;-36.0;-28.0;-79.0;-0.24;0.54;-10.58;0.8;0.27;0.89
1753875304.193808;22.109;-5.804;-1.649;-2.48;-1.1;-134.09;0.0;0.0;0.0;0.0;-19.0;-36.0;-28.0;-79.0;-0.24;0.54;-10.58;0.96;0.35;0.88
1753875304.198808;22.109;-5.804;-1.649;-2.48;-1.1;-134.09;0.0;0.0;0.0;0.0;-19.0;-36.0;-28.0;-79.0;-0.24;0.54;-10.59;0.7;0.32;0.96
1753875304.203808;22.109;-5.804;-1.649;-2.48;-1.1;-134.09;0.0;0.0;0.0;0.0;-19.0;-36.0;-28.0;-79.0;-0.24;0.54;-10.59;0.83;0.2;0.91
1753875304.208808;22.109;-5.804;-1.649;-2.48;-1.1;-134.09;0.0;0.0;0.0;0.0;-19.0;-36.0;-28.0;-79.0;-0.24;0.53;-10.6;0.87;0.28;0.94
1753875304.213808;22.109;-5.804;-1.649;-2.48;-1.1;-134.09;0.0;0.0;0.0;0.0;-19.0;-36.0;-28.0;-79.0;-0.24;0.54;-10.61;0.63;0.22;0.9
1753875304.218808;22.109;-5.804;-1.649;-2.48;-1.1;-134.09;0.0;0.0;0.0;0.0;-19.0;-36.0;-28.0;-79.0;-0.24;0.54;-10.62;0.83;0.27;1.08
1753875304.223808;22.109;-5.804;-1.649;-2.48;-1.1;-134.09;0.0;0.0;0.0;0.0;-19.0;-36.0;-28.0;-79.0;-0.24;0.54;-10.62;0.71;0.38;1.01
1753875304.228808;22.109;-5.804;-1.649;-2.48;-1.1;-134.09;0.0;0.0;0.0;0.0;-19.0;-36.0;-28.0;-79.0;-0.24;0.54;-10.62;0.8;0.46;0.89
1753875304.233808;22.109;-5.804;-1.649;-2.48;-1.1;-134.09;0.0;0.0;0.0;0.0;-19.0;-36.0;-28.0;-79.0;-0.24;0.53;-10.62;0.81;0.36;1.02
1753875304.238808;22.109;-5.804;-1.649;-2.48;-1.1;-134.09;0.0;0.0;0.0;0.0;-19.0;-36.0;-28.0;-79.0;-0.24;0.53;-10.63;0.71;0.25;0.96
1753875304.243808;22.109;-5.804;-1.649;-2.48;-1.1;-134.09;0.0;0.0;0.0;0.0;-19.0;-36.0;-28.0;-79.0;-0.24;0.53;-10.62;0.64;0.32;0.9
1753875304.248808;22.109;-5.804;-1.649;-2.48;-1.1;-134.09;0.0;0.0;0.0;0.0;-19.0;-36.0;-28.0;-79.0;-0.24;0.53;-10.61;0.78;0.22;0.97
1753875304.253808;22.109;-5.804;-1.649;-2.48;-1.1;-134.09;0.0;0.0;0.0;0.0;-19.0;-36.0;-28.0;-79.0;-0.24;0.53;-10.61;0.81;0.33;1.08
1753875304.258808;22.109;-5.804;-1.649;-2.48;-1.1;-134.09;0.0;0.0;0.0;0.0;-19.0;-36.0;-28.0;-79.0;-0.23;0.54;-10.62;0.72;0.35;0.93
1753875304.263808;22.109;-5.804;-1.649;-2.48;-1.1;-134.09;0.0;0.0;0.0;0.0;-19.0;-36.0;-28.0;-79.0;-0.23;0.54;-10.63;0.86;0.16;1.02
1753875304.268808;22.109;-5.804;-1.649;-2.48;-1.1;-134.09;0.0;0.0;0.0;0.0;-19.0;-36.0;-28.0;-79.0;-0.23;0.53;-10.63;0.78;0.32;1.07
1753875304.273808;22.109;-5.804;-1.649;-2.48;-1.1;-134.09;0.0;0.0;0.0;0.0;-19.0;-36.0;-28.0;-79.0;-0.23;0.53;-10.61;0.74;0.45;0.96
1753875304.278808;22.109;-5.804;-1.649;-2.48;-1.1;-134.09;0.0;0.0;0.0;0.0;-19.0;-36.0;-28.0;-79.0;-0.23;0.52;-10.61;0.74;0.38;1.05
1753875304.283808;22.109;-5.804;-1.649;-2.48;-1.1;-134.09;0.0;0.0;0.0;0.0;-19.0;-36.0;-28.0;-79.0;-0.22;0.53;-10.6;0.71;0.42;0.87
1753875304.288808;22.109;-5.804;-1.649;-2.48;-1.1;-134.09;0.0;0.0;0.0;0.0;-19.0;-36.0;-28.0;-79.0;-0.23;0.53;-10.6;0.92;0.38;0.9
1753875304.293808;22.109;-5.804;-1.649;-2.48;-1.1;-134.09;0.0;0.0;0.0;0.0;-19.0;-36.0;-28.0;-79.0;-0.23;0.53;-10.6;0.77;0.33;0.98
1753875304.298808;22.109;-5.804;-1.649;-2.48;-1.1;-134.09;0.0;0.0;0.0;0.0;-19.0;-36.0;-28.0;-79.0;-0.23;0.53;-10.6;0.74;0.28;0.96
1753875304.303808;22.109;-5.804;-1.649;-2.48;-1.1;-134.09;0.0;0.0;0.0;0.0;-19.0;-36.0;-28.0;-79.0;-0.23;0.53;-10.6;0.83;0.45;1.04
1753875304.308808;22.109;-5.804;-1.649;-2.48;-1.1;-134.09;0.0;0.0;0.0;0.0;-19.0;-36.0;-28.0;-79.0;-0.23;0.52;-10.6;0.82;0.39;0.86
1753875304.313808;22.109;-5.804;-1.649;-2.48;-1.1;-134.09;0.0;0.0;0.0;0.0;-19.0;-36.0;-28.0;-79.0;-0.24;0.53;-10.59;0.79;0.31;0.96
1753875304.318808;22.109;-5.804;-1.649;-2.48;-1.1;-134.09;0.0;0.0;0.0;0.0;-19.0;-36.0;-28.0;-79.0;-0.25;0.53;-10.59;0.78;0.45;0.91
1753875304.323808;22.109;-5.804;-1.649;-2.48;-1.1;-134.09;0.0;0.0;0.0;0.0;-19.0;-36.0;-28.0;-79.0;-0.25;0.53;-10.58;0.81;0.3;1.03
1753875304.328808;22.109;-5.804;-1.649;-2.48;-1.09;-134.09;0.0;0.0;0.0;0.0;-19.1;-36.1;-27.8;-79.5;-0.24;0.53;-10.57;0.81;0.26;0.99
1753875304.333808;22.109;-5.804;-1.649;-2.48;-1.1;-134.09;0.0;0.0;0.0;0.0;-18.5;-35.9;-28.3;-78.1;-0.25;0.53;-10.56;0.89;0.3;0.93
1753875304.338808;22.109;-5.804;-1.649;-2.48;-1.1;-134.09;0.0;0.0;0.0;0.0;-18.7;-36.3;-28.5;-79.1;-0.24;0.54;-10.57;0.82;0.36;0.95
1753875304.343808;22.109;-5.804;-1.649;-2.48;-1.1;-134.09;0.0;0.0;0.0;0.0;-19.3;-36.3;-28.8;-78.6;-0.24;0.53;-10.6;0.79;0.18;0.95
1753875304.348808;22.109;-5.804;-1.649;-2.48;-1.11;-134.09;0.0;0.0;0.0;0.0;-18.6;-36.4;-28.6;-78.9;-0.25;0.53;-10.59;0.78;0.15;1.1
1753875304.353809;22.109;-5.804;-1.649;-2.48;-1.11;-134.09;0.0;0.0;0.0;0.0;-19.0;-36.3;-28.1;-78.6;-0.24;0.53;-10.6;0.8;0.36;0.99
1753875304.358809;22.109;-5.804;-1.649;-2.48;-1.1;-134.09;0.0;0.0;0.0;0.0;-18.9;-36.4;-28.9;-78.3;-0.25;0.53;-10.59;0.85;0.26;0.89
1753875304.363809;22.109;-5.804;-1.649;-2.48;-1.11;-134.09;0.0;0.0;0.0;0.0;-18.5;-36.4;-29.4;-77.2;-0.26;0.53;-10.6;0.84;0.15;0.92
1753875304.368809;22.109;-5.804;-1.649;-2.48;-1.11;-134.09;0.0;0.0;0.0;0.0;-18.9;-36.8;-29.4;-78.5;-0.25;0.54;-10.6;0.77;0.24;0.87
1753875304.373809;22.109;-5.804;-1.649;-2.48;-1.11;-134.09;0.0;0.0;0.0;0.0;-18.7;-36.5;-28.4;-78.3;-0.24;0.54;-10.6;0.76;0.28;0.96
1753875304.378809;22.109;-5.804;-1.649;-2.48;-1.12;-134.09;0.0;0.0;0.0;0.0;-18.7;-36.5;-29.3;-77.7;-0.24;0.53;-10.58;0.75;0.25;1.11
1753875304.383809;22.109;-5.804;-1.649;-2.49;-1.11;-134.09;0.0;0.0;0.0;0.0;-18.2;-36.6;-29.8;-77.2;-0.25;0.53;-10.6;0.77;0.26;0.87
1753875304.38881;22.109;-5.804;-1.649;-2.49;-1.12;-134.09;0.0;0.0;0.0;0.0;-18.6;-36.5;-29.9;-77.9;-0.24;0.53;-10.58;0.8;0.38;0.93
1753875304.39381;22.109;-5.804;-1.649;-2.49;-1.12;-134.09;0.0;0.0;0.0;0.0;-18.3;-36.7;-30.0;-78.2;-0.24;0.53;-10.57;0.72;0.22;0.99
1753875304.39881;22.109;-5.804;-1.649;-2.49;-1.11;-134.09;0.0;0.0;0.0;0.0;-18.2;-36.3;-29.8;-77.5;-0.25;0.53;-10.58;0.71;0.4;0.96
1753875304.40381;22.109;-5.804;-1.649;-2.49;-1.12;-134.09;0.0;0.0;0.0;0.0;-18.0;-36.7;-29.0;-77.6;-0.25;0.53;-10.6;0.82;0.32;0.99
1753875304.40881;22.109;-5.804;-1.649;-2.49;-1.11;-134.09;0.0;0.0;0.0;0.0;-18.6;-36.9;-29.8;-76.9;-0.24;0.52;-10.58;0.77;0.33;1.05
1753875304.41381;22.109;-5.804;-1.649;-2.49;-1.12;-134.09;0.0;0.0;0.0;0.0;-18.1;-36.6;-29.5;-77.3;-0.24;0.52;-10.6;0.91;0.29;0.85
1753875304.41881;22.109;-5.804;-1.649;-2.49;-1.11;-134.09;0.0;0.0;0.0;0.0;-18.1;-37.2;-30.8;-76.9;-0.24;0.52;-10.57;0.74;0.3;0.9
1753875304.42381;22.109;-5.804;-1.649;-2.49;-1.11;-134.09;0.0;0.0;0.0;0.0;-18.1;-36.7;-31.6;-77.5;-0.23;0.53;-10.59;0.85;0.32;1.0
1753875304.42881;22.109;-5.804;-1.649;-2.49;-1.12;-134.09;0.0;0.0;0.0;0.0;-18.2;-37.3;-30.8;-77.2;-0.23;0.53;-10.58;0.81;0.25;0.99
1753875304.43381;22.109;-5.804;-1.649;-2.49;-1.13;-134.09;0.0;0.0;0.0;0.0;-17.9;-36.7;-31.0;-76.9;-0.23;0.53;-10.6;0.74;0.33;0.94
1753875304.43881;22.109;-5.804;-1.649;-2.49;-1.13;-134.09;0.0;0.0;0.0;0.0;-18.2;-37.1;-29.8;-76.5;-0.25;0.53;-10.59;0.77;0.4;0.89
1753875304.443808;22.109;-5.804;-1.649;-2.49;-1.12;-134.09;0.0;0.0;0.0;0.0;-18.0;-37.0;-31.0;-77.0;-0.24;0.53;-10.6;0.8;0.32;0.94
1753875304.448808;22.109;-5.804;-1.649;-2.49;-1.12;-134.09;0.0;0.0;0.0;0.0;-18.0;-37.0;-31.0;-77.0;-0.24;0.53;-10.61;0.79;0.37;0.84
1753875304.453808;22.109;-5.804;-1.649;-2.49;-1.12;-134.09;0.0;0.0;0.0;0.0;-18.0;-37.0;-31.0;-77.0;-0.24;0.53;-10.61;0.8;0.32;1.06
1753875304.458808;22.109;-5.804;-1.649;-2.49;-1.12;-134.09;0.0;0.0;0.0;0.0;-18.0;-37.0;-31.0;-77.0;-0.24;0.53;-10.62;0.81;0.32;1.06
1753875304.463808;22.109;-5.804;-1.649;-2.49;-1.12;-134.09;0.0;0.0;0.0;0.0;-18.0;-37.0;-31.0;-77.0;-0.23;0.52;-10.61;0.78;0.32;0.97
1753875304.468808;22.109;-5.804;-1.649;-2.49;-1.12;-134.09;0.0;0.0;0.0;0.0;-18.0;-37.0;-31.0;-77.0;-0.24;0.52;-10.61;0.75;0.23;0.89
1753875304.473808;22.109;-5.804;-1.649;-2.49;-1.12;-134.09;0.0;0.0;0.0;0.0;-18.0;-37.0;-31.0;-77.0;-0.24;0.51;-10.6;0.81;0.22;0.98
1753875304.478808;22.109;-5.804;-1.649;-2.49;-1.12;-134.09;0.0;0.0;0.0;0.0;-18.0;-37.0;-31.0;-77.0;-0.24;0.52;-10.61;0.77;0.27;0.83
1753875304.483808;22.109;-5.804;-1.649;-2.49;-1.12;-134.09;0.0;0.0;0.0;0.0;-18.0;-37.0;-31.0;-77.0;-0.24;0.52;-10.61;0.74;0.2;0.99
1753875304.488808;22.109;-5.804;-1.649;-2.49;-1.12;-134.09;0.0;0.0;0.0;0.0;-18.0;-37.0;-31.0;-77.0;-0.23;0.52;-10.6;0.7;0.36;0.98
1753875304.493808;22.109;-5.804;-1.649;-2.49;-1.12;-134.09;0.0;0.0;0.0;0.0;-18.0;-37.0;-31.0;-77.0;-0.24;0.52;-10.61;0.88;0.22;1.05
1753875304.498808;22.109;-5.804;-1.649;-2.49;-1.12;-134.09;0.0;0.0;0.0;0.0;-18.0;-37.0;-31.0;-77.0;-0.24;0.51;-10.62;0.83;0.27;1.03
1753875304.503808;22.109;-5.804;-1.649;-2.49;-1.12;-134.09;0.0;0.0;0.0;0.0;-18.0;-37.0;-31.0;-77.0;-0.23;0.51;-10.61;0.77;0.41;0.91
1753875304.508808;22.109;-5.804;-1.649;-2.49;-1.12;-134.09;0.0;0.0;0.0;0.0;-18.0;-37.0;-31.0;-77.0;-0.23;0.51;-10.62;0.84;0.26;0.99
1753875304.513808;22.109;-5.804;-1.649;-2.49;-1.12;-134.09;0.0;0.0;0.0;0.0;-18.0;-37.0;-31.0;-77.0;-0.23;0.52;-10.61;0.81;0.29;1.03
1753875304.518808;22.109;-5.804;-1.649;-2.49;-1.12;-134.09;0.0;0.0;0.0;0.0;-18.0;-37.0;-31.0;-77.0;-0.23;0.52;-10.62;0.83;0.26;1.05
1753875304.523808;22.109;-5.804;-1.649;-2.49;-1.12;-134.09;0.0;0.0;0.0;0.0;-18.0;-37.0;-31.0;-77.0;-0.23;0.53;-10.62;0.83;0.23;1.06
1753875304.528808;22.109;-5.804;-1.649;-2.49;-1.12;-134.09;0.0;0.0;0.0;0.0;-18.0;-37.0;-31.0;-77.0;-0.23;0.53;-10.62;0.72;0.34;0.92
1753875304.533808;22.109;-5.804;-1.649;-2.49;-1.12;-134.09;0.0;0.0;0.0;0.0;-18.0;-37.0;-31.0;-77.0;-0.22;0.53;-10.62;0.72;0.28;1.02
1753875304.538808;22.109;-5.804;-1.649;-2.49;-1.12;-134.09;0.0;0.0;0.0;0.0;-18.0;-37.0;-31.0;-77.0;-0.22;0.53;-10.62;0.79;0.27;0.99
1753875304.543808;22.109;-5.804;-1.649;-2.49;-1.12;-134.09;0.0;0.0;0.0;0.0;-18.0;-37.0;-31.0;-77.0;-0.22;0.53;-10.62;0.77;0.35;1.03
1753875304.548808;22.109;-5.804;-1.649;-2.49;-1.12;-134.09;0.0;0.0;0.0;0.0;-18.0;-37.0;-31.0;-77.0;-0.23;0.53;-10.62;0.77;0.45;1.0
1753875304.553808;22.109;-5.804;-1.649;-2.49;-1.12;-134.09;0.0;0.0;0.0;0.0;-18.0;-37.0;-31.0;-77.0;-0.22;0.53;-10.61;0.72;0.22;1.09
1753875304.558808;22.109;-5.804;-1.649;-2.49;-1.12;-134.09;0.0;0.0;0.0;0.0;-18.0;-37.0;-31.0;-77.0;-0.22;0.53;-10.6;0.8;0.37;0.94
1753875304.563808;22.109;-5.804;-1.649;-2.49;-1.12;-134.09;0.0;0.0;0.0;0.0;-18.0;-37.0;-31.0;-77.0;-0.23;0.53;-10.6;0.69;0.23;0.9
1753875304.568808;22.109;-5.804;-1.649;-2.49;-1.12;-134.09;0.0;0.0;0.0;0.0;-18.0;-37.0;-31.0;-77.0;-0.22;0.53;-10.6;0.72;0.26;1.06
1753875304.573808;22.109;-5.804;-1.649;-2.49;-1.12;-134.09;0.0;0.0;0.0;0.0;-18.0;-37.0;-31.0;-77.0;-0.22;0.54;-10.59;0.8;0.28;1.02
1753875304.578808;22.109;-5.804;-1.649;-2.49;-1.12;-134.09;0.0;0.0;0.0;0.0;-18.0;-37.0;-31.0;-77.0;-0.22;0.54;-10.59;0.74;0.16;0.97
1753875304.583808;22.109;-5.804;-1.649;-2.49;-1.12;-134.09;0.0;0.0;0.0;0.0;-18.0;-37.0;-31.0;-77.0;-0.22;0.54;-10.59;0.67;0.48;1.01
1753875304.588808;22.109;-5.804;-1.649;-2.49;-1.12;-134.09;0.0;0.0;0.0;0.0;-18.0;-37.0;-31.0;-77.0;-0.22;0.53;-10.59;0.83;0.19;0.96
1753875304.593808;22.109;-5.804;-1.649;-2.49;-1.12;-134.09;0.0;0.0;0.0;0.0;-18.0;-37.0;-31.0;-77.0;-0.22;0.54;-10.59;0.81;0.21;0.89
1753875304.598808;22.109;-5.804;-1.649;-2.49;-1.12;-134.09;0.0;0.0;0.0;0.0;-18.0;-37.0;-31.0;-77.0;-0.22;0.54;-10.58;0.72;0.25;0.9
1753875304.603808;22.109;-5.804;-1.649;-2.49;-1.12;-134.09;0.0;0.0;0.0;0.0;-18.0;-37.0;-31.0;-77.0;-0.22;0.54;-10.58;0.77;0.37;0.99
1753875304.608808;22.109;-5.804;-1.649;-2.49;-1.12;-134.09;0.0;0.0;0.0;0.0;-18.0;-37.0;-31.0;-77.0;-0.22;0.53;-10.59;0.8;0.38;0.99
1753875304.613808;22.109;-5.804;-1.649;-2.49;-1.12;-134.09;0.0;0.0;0.0;0.0;-18.0;-37.0;-31.0;-77.0;-0.23;0.54;-10.6;0.78;0.4;1.0
1753875304.618808;22.109;-5.804;-1.649;-2.49;-1.12;-134.09;0.0;0.0;0.0;0.0;-18.0;-37.0;-31.0;-77.0;-0.22;0.54;-10.6;0.95;0.39;1.05
1753875304.623808;22.109;-5.804;-1.649;-2.49;-1.12;-134.09;0.0;0.0;0.0;0.0;-18.0;-37.0;-31.0;-77.0;-0.22;0.54;-10.6;0.81;0.36;0.95
1753875304.628808;22.109;-5.804;-1.649;-2.49;-1.12;-134.09;0.0;0.0;0.0;0.0;-18.0;-37.0;-31.0;-77.0;-0.22;0.53;-10.61;0.74;0.34;1.06
1753875304.633808;22.109;-5.804;-1.649;-2.49;-1.12;-134.09;0.0;0.0;0.0;0.0;-18.0;-37.0;-31.0;-77.0;-0.22;0.54;-10.61;0.69;0.25;0.95
1753875304.638808;22.109;-5.804;-1.649;-2.49;-1.12;-134.09;0.0;0.0;0.0;0.0;-18.0;-37.0;-31.0;-77.0;-0.22;0.53;-10.61;0.88;0.19;0.87
1753875304.643808;22.109;-5.804;-1.649;-2.49;-1.12;-134.09;0.0;0.0;0.0;0.0;-18.0;-37.0;-31.0;-77.0;-0.23;0.53;-10.61;0.74;0.45;0.99
1753875304.648808;22.109;-5.804;-1.649;-2.49;-1.12;-134.09;0.0;0.0;0.0;0.0;-18.0;-37.0;-31.0;-77.0;-0.23;0.53;-10.61;0.86;0.45;0.9
1753875304.653808;22.109;-5.804;-1.649;-2.49;-1.12;-134.09;0.0;0.0;0.0;0.0;-18.9;-37.0;-29.5;-77.2;-0.22;0.53;-10.6;0.96;0.36;0.91
1753875304.658808;22.109;-5.804;-1.649;-2.49;-1.12;-134.09;0.0;0.0;0.0;0.0;-18.7;-36.1;-30.2;-77.6;-0.23;0.53;-10.61;0.78;0.36;0.74
1753875304.663808;22.109;-5.804;-1.649;-2.49;-1.12;-134.09;0.0;0.0;0.0;0.0;-16.5;-34.9;-30.1;-77.3;-0.23;0.54;-10.6;0.77;0.5;0.91
1753875304.668808;22.109;-5.804;-1.649;-2.49;-1.12;-134.09;0.0;0.0;0.0;0.0;-16.6;-35.9;-31.2;-77.0;-0.22;0.53;-10.61;0.96;0.49;0.94
1753875304.673808;22.109;-5.804;-1.649;-2.49;-1.11;-134.09;0.0;0.0;0.0;0.0;-17.1;-35.5;-31.0;-77.8;-0.22;0.53;-10.62;0.81;0.39;0.93
1753875304.678809;22.109;-5.804;-1.649;-2.49;-1.12;-134.09;0.0;0.0;0.0;0.0;-17.2;-34.9;-30.5;-76.4;-0.23;0.53;-10.6;0.87;0.38;0.86
1753875304.683809;22.109;-5.804;-1.649;-2.49;-1.12;-134.09;0.0;0.0;0.0;0.0;-17.6;-37.0;-30.4;-77.5;-0.24;0.54;-10.61;1.02;0.48;0.9
1753875304.688809;22.109;-5.804;-1.649;-2.49;-1.12;-134.09;0.0;0.0;0.0;0.0;-17.2;-35.0;-31.0;-77.2;-0.23;0.52;-10.59;0.9;0.42;0.89
1753875304.693809;22.109;-5.804;-1.649;-2.49;-1.12;-134.09;0.0;0.0;0.0;0.0;-18.0;-35.0;-30.0;-76.8;-0.24;0.53;-10.59;0.93;0.45;1.04
1753875304.698809;22.109;-5.804;-1.649;-2.49;-1.12;-134.09;0.0;0.0;0.0;0.0;-17.0;-37.3;-30.7;-77.8;-0.23;0.54;-10.6;0.76;0.52;0.86
1753875304.703809;22.109;-5.804;-1.649;-2.49;-1.12;-134.09;0.0;0.0;0.0;0.0;-17.5;-34.6;-29.8;-78.1;-0.22;0.54;-10.62;0.9;0.43;1.0
1753875304.70881;22.109;-5.804;-1.649;-2.49;-1.12;-134.09;0.0;0.0;0.0;0.0;-16.5;-34.6;-30.6;-78.0;-0.23;0.53;-10.6;0.85;0.38;0.94
1753875304.71381;22.109;-5.804;-1.649;-2.49;-1.12;-134.09;0.0;0.0;0.0;0.0;-16.3;-34.1;-30.5;-78.3;-0.24;0.53;-10.62;0.78;0.38;0.88
1753875304.71881;22.109;-5.804;-1.649;-2.49;-1.12;-134.09;0.0;0.0;0.0;0.0;-16.5;-36.7;-30.6;-77.7;-0.23;0.53;-10.6;0.85;0.46;0.77
1753875304.72381;22.109;-5.804;-1.649;-2.5;-1.12;-134.09;0.0;0.0;0.0;0.0;-17.2;-33.2;-29.9;-77.3;-0.23;0.54;-10.62;0.71;0.58;0.92
1753875304.72881;22.109;-5.804;-1.649;-2.5;-1.12;-134.09;0.0;0.0;0.0;0.0;-16.7;-34.0;-29.8;-78.1;-0.24;0.54;-10.6;0.78;0.41;0.84
1753875304.73381;22.109;-5.804;-1.649;-2.49;-1.12;-134.09;0.0;0.0;0.0;0.0;-16.9;-34.6;-30.1;-77.6;-0.25;0.54;-10.61;0.7;0.37;1.01
1753875304.73881;22.109;-5.804;-1.649;-2.49;-1.11;-134.09;0.0;0.0;0.0;0.0;-16.8;-35.6;-29.8;-77.8;-0.24;0.54;-10.62;0.83;0.31;0.97
1753875304.74381;22.109;-5.804;-1.649;-2.5;-1.11;-134.09;0.0;0.0;0.0;0.0;-16.9;-33.9;-29.7;-77.5;-0.22;0.53;-10.59;0.75;0.21;0.95
1753875304.74881;22.109;-5.804;-1.649;-2.5;-1.12;-134.09;0.0;0.0;0.0;0.0;-15.2;-35.5;-29.0;-77.5;-0.24;0.54;-10.6;0.86;0.3;0.84
1753875304.75381;22.109;-5.804;-1.649;-2.5;-1.11;-134.09;0.0;0.0;0.0;0.0;-16.5;-35.3;-29.9;-78.6;-0.23;0.54;-10.61;0.73;0.44;0.89
1753875304.75881;22.109;-5.804;-1.649;-2.5;-1.12;-134.09;0.0;0.0;0.0;0.0;-14.4;-33.3;-29.5;-79.2;-0.24;0.54;-10.62;0.76;0.3;0.87
1753875304.763811;22.109;-5.804;-1.649;-2.5;-1.11;-134.09;0.0;0.0;0.0;0.0;-15.9;-34.6;-29.4;-78.1;-0.24;0.54;-10.61;0.78;0.34;0.91
1753875304.768811;22.109;-5.804;-1.649;-2.5;-1.11;-134.09;0.0;0.0;0.0;0.0;-16.4;-33.0;-29.7;-78.1;-0.24;0.54;-10.61;0.91;0.55;0.87
1753875304.773811;22.109;-5.804;-1.649;-2.5;-1.11;-134.09;0.0;0.0;0.0;0.0;-16.2;-34.8;-29.5;-78.1;-0.23;0.53;-10.61;0.7;0.32;1.0
1753875304.778811;22.109;-5.804;-1.649;-2.5;-1.11;-134.09;0.0;0.0;0.0;0.0;-16.7;-34.3;-29.9;-79.1;-0.23;0.54;-10.61;0.78;0.45;0.96
1753875304.783811;22.109;-5.804;-1.649;-2.5;-1.11;-134.09;0.0;0.0;0.0;0.0;-15.3;-34.0;-30.0;-78.2;-0.24;0.53;-10.6;0.85;0.37;0.86
1753875304.788811;22.109;-5.804;-1.649;-2.5;-1.11;-134.09;0.0;0.0;0.0;0.0;-15.9;-32.9;-29.1;-78.6;-0.24;0.55;-10.6;0.82;0.18;0.99
1753875304.793811;22.109;-5.804;-1.649;-2.5;-1.11;-134.09;0.0;0.0;0.0;0.0;-15.2;-33.3;-28.8;-78.7;-0.24;0.54;-10.62;0.95;0.31;0.97
1753875304.798812;22.109;-5.804;-1.649;-2.5;-1.11;-134.09;0.0;0.0;0.0;0.0;-15.3;-34.3;-28.8;-78.3;-0.24;0.53;-10.6;0.81;0.2;0.83
1753875304.803812;22.109;-5.804;-1.649;-2.5;-1.11;-134.09;0.0;0.0;0.0;0.0;-15.2;-33.4;-29.2;-79.3;-0.24;0.54;-10.61;0.84;0.4;0.91
1753875304.808812;22.109;-5.804;-1.649;-2.5;-1.11;-134.09;0.0;0.0;0.0;0.0;-15.0;-32.7;-29.1;-79.0;-0.26;0.53;-10.62;0.86;0.25;0.93
1753875304.813808;22.109;-5.804;-1.649;-2.5;-1.11;-134.09;0.0;0.0;0.0;0.0;-15.0;-33.0;-29.0;-79.0;-0.24;0.54;-10.61;0.82;0.3;0.9
1753875304.818808;22.109;-5.804;-1.649;-2.5;-1.11;-134.09;0.0;0.0;0.0;0.0;-15.0;-33.0;-29.0;-79.0;-0.24;0.55;-10.6;0.78;0.35;1.1
1753875304.823808;22.109;-5.804;-1.649;-2.5;-1.11;-134.09;0.0;0.0;0.0;0.0;-15.0;-33.0;-29.0;-79.0;-0.24;0.55;-10.61;0.81;0.32;1.1
1753875304.828808;22.109;-5.804;-1.649;-2.5;-1.11;-134.09;0.0;0.0;0.0;0.0;-15.0;-33.0;-29.0;-79.0;-0.24;0.55;-10.61;0.73;0.4;0.94
1753875304.833808;22.109;-5.804;-1.649;-2.5;-1.11;-134.09;0.0;0.0;0.0;0.0;-15.0;-33.0;-29.0;-79.0;-0.24;0.54;-10.6;0.67;0.37;0.99
1753875304.838808;22.109;-5.804;-1.649;-2.5;-1.11;-134.09;0.0;0.0;0.0;0.0;-15.0;-33.0;-29.0;-79.0;-0.24;0.54;-10.6;0.69;0.29;1.02
1753875304.843808;22.109;-5.804;-1.649;-2.5;-1.11;-134.09;0.0;0.0;0.0;0.0;-15.0;-33.0;-29.0;-79.0;-0.25;0.54;-10.6;0.83;0.25;1.02
1753875304.848808;22.109;-5.804;-1.649;-2.5;-1.11;-134.09;0.0;0.0;0.0;0.0;-15.0;-33.0;-29.0;-79.0;-0.24;0.54;-10.6;0.82;0.23;0.89
1753875304.853808;22.109;-5.804;-1.649;-2.5;-1.11;-134.09;0.0;0.0;0.0;0.0;-15.0;-33.0;-29.0;-79.0;-0.24;0.53;-10.6;0.7;0.36;0.96
1753875304.858808;22.109;-5.804;-1.649;-2.5;-1.11;-134.09;0.0;0.0;0.0;0.0;-15.0;-33.0;-29.0;-79.0;-0.24;0.53;-10.6;0.82;0.23;0.99
1753875304.863808;22.109;-5.804;-1.649;-2.5;-1.11;-134.09;0.0;0.0;0.0;0.0;-15.0;-33.0;-29.0;-79.0;-0.24;0.53;-10.59;0.82;0.21;0.89
1753875304.868808;22.109;-5.804;-1.649;-2.5;-1.11;-134.09;0.0;0.0;0.0;0.0;-15.0;-33.0;-29.0;-79.0;-0.24;0.53;-10.58;0.86;0.16;1.03
1753875304.873808;22.109;-5.804;-1.649;-2.5;-1.12;-134.09;0.0;0.0;0.0;0.0;-13.1;-30.4;-28.8;-78.3;-0.24;0.53;-10.57;0.89;0.22;1.0
1753875304.878808;22.109;-5.804;-1.649;-2.5;-1.1;-134.09;0.0;0.0;0.0;0.0;-15.9;-34.0;-30.6;-78.9;-0.23;0.53;-10.58;0.85;0.12;0.95
1753875304.883808;22.109;-5.804;-1.649;-2.5;-1.12;-134.09;0.0;0.0;0.0;0.0;-18.5;-32.8;-28.9;-79.7;-0.24;0.52;-10.57;0.75;0.05;1.01
1753875304.888808;22.109;-5.804;-1.649;-2.5;-1.11;-134.09;0.0;0.0;0.0;0.0;-15.3;-36.0;-29.3;-79.3;-0.25;0.54;-10.58;0.95;0.06;0.91
1753875304.893808;22.109;-5.804;-1.649;-2.5;-1.11;-134.09;0.0;0.0;0.0;0.0;-13.8;-32.3;-28.5;-76.7;-0.24;0.54;-10.58;0.83;0.16;1.05
1753875304.898809;22.109;-5.804;-1.649;-2.5;-1.11;-134.09;0.0;0.0;0.0;0.0;-15.6;-33.6;-28.7;-78.1;-0.25;0.53;-10.58;0.82;0.1;0.91
1753875304.903809;22.109;-5.804;-1.649;-2.5;-1.1;-134.09;0.0;0.0;0.0;0.0;-16.4;-32.2;-28.6;-78.9;-0.23;0.53;-10.58;1.0;0.09;1.01
1753875304.908809;22.109;-5.804;-1.649;-2.49;-1.11;-134.09;0.0;0.0;0.0;0.0;-17.3;-35.5;-28.9;-79.1;-0.23;0.53;-10.59;1.02;0.14;0.84
1753875304.913809;22.109;-5.804;-1.649;-2.5;-1.11;-134.09;0.0;0.0;0.0;0.0;-15.3;-35.3;-29.2;-78.0;-0.24;0.53;-10.6;1.04;0.19;1.11
1753875304.918809;22.109;-5.804;-1.649;-2.49;-1.1;-134.09;0.0;0.0;0.0;0.0;-18.9;-37.8;-28.9;-79.3;-0.23;0.53;-10.59;0.88;0.19;1.02
1753875304.923809;22.109;-5.804;-1.649;-2.49;-1.11;-134.09;0.0;0.0;0.0;0.0;-16.4;-37.4;-28.8;-78.8;-0.23;0.53;-10.59;0.93;0.14;0.89
1753875304.92881;22.109;-5.804;-1.649;-2.5;-1.12;-134.09;0.0;0.0;0.0;0.0;-17.3;-35.6;-30.6;-77.5;-0.23;0.53;-10.6;0.88;0.24;0.88
1753875304.93381;22.109;-5.804;-1.649;-2.5;-1.11;-134.09;0.0;0.0;0.0;0.0;-14.2;-35.3;-28.6;-79.1;-0.24;0.54;-10.6;0.88;0.12;0.89
1753875304.93881;22.109;-5.804;-1.649;-2.5;-1.11;-134.09;0.0;0.0;0.0;0.0;-15.7;-35.3;-31.0;-78.6;-0.24;0.53;-10.6;0.89;0.11;0.86
1753875304.94381;22.109;-5.804;-1.649;-2.5;-1.11;-134.09;0.0;0.0;0.0;0.0;-18.2;-32.9;-29.1;-79.0;-0.24;0.52;-10.6;0.85;0.34;1.0
1753875304.94881;22.109;-5.804;-1.649;-2.5;-1.11;-134.09;0.0;0.0;0.0;0.0;-14.6;-32.2;-29.7;-78.5;-0.23;0.52;-10.59;0.86;0.11;0.95
1753875304.95381;22.109;-5.804;-1.649;-2.51;-1.1;-134.09;0.0;0.0;0.0;0.0;-16.5;-35.3;-30.2;-77.9;-0.23;0.53;-10.6;0.99;0.26;0.95
1753875304.95881;22.109;-5.804;-1.649;-2.5;-1.1;-134.09;0.0;0.0;0.0;0.0;-14.6;-34.1;-32.5;-79.0;-0.22;0.53;-10.61;0.98;0.25;1.05
1753875304.96381;22.109;-5.804;-1.649;-2.5;-1.12;-134.09;0.0;0.0;0.0;0.0;-17.7;-39.9;-29.5;-76.0;-0.24;0.52;-10.59;0.92;0.09;0.97
1753875304.96881;22.109;-5.804;-1.649;-2.5;-1.11;-134.09;0.0;0.0;0.0;0.0;-17.2;-37.6;-32.6;-75.7;-0.23;0.55;-10.6;0.92;0.11;0.9
1753875304.97381;22.109;-5.804;-1.649;-2.49;-1.1;-134.09;0.0;0.0;0.0;0.0;-15.8;-34.8;-32.3;-75.8;-0.23;0.53;-10.61;0.85;0.14;0.96
1753875304.97881;22.109;-5.804;-1.649;-2.5;-1.12;-134.09;0.0;0.0;0.0;0.0;-16.3;-37.7;-31.3;-75.6;-0.23;0.54;-10.61;0.92;0.1;0.92
1753875304.983811;22.109;-5.804;-1.649;-2.5;-1.11;-134.09;0.0;0.0;0.0;0.0;-17.2;-37.8;-32.0;-77.3;-0.23;0.52;-10.61;0.89;0.3;0.84
1753875304.988811;22.109;-5.804;-1.649;-2.5;-1.11;-134.09;0.0;0.0;0.0;0.0;-17.0;-35.7;-31.0;-77.9;-0.23;0.54;-10.6;0.87;0.17;0.88
1753875304.993811;22.109;-5.804;-1.649;-2.5;-1.11;-134.09;0.0;0.0;0.0;0.0;-16.2;-32.9;-30.9;-76.1;-0.22;0.54;-10.61;0.96;0.21;1.03
1753875304.998811;22.109;-5.804;-1.649;-2.5;-1.12;-134.09;0.0;0.0;0.0;0.0;-14.7;-38.1;-32.5;-76.9;-0.23;0.53;-10.61;0.97;0.08;1.01
1753875305.003811;22.109;-5.804;-1.649;-2.5;-1.11;-134.09;0.0;0.0;0.0;0.0;-16.1;-34.7;-31.7;-76.6;-0.23;0.54;-10.62;0.95;0.4;1.0
1753875305.008811;22.109;-5.804;-1.649;-2.5;-1.11;-134.09;0.0;0.0;0.0;0.0;-17.7;-37.1;-30.6;-77.9;-0.24;0.54;-10.6;1.1;0.36;1.01
1753875305.013808;22.109;-5.804;-1.649;-2.5;-1.11;-134.09;0.0;0.0;0.0;0.0;-17.0;-37.0;-32.0;-77.0;-0.23;0.54;-10.61;0.94;0.2;0.96
1753875305.018808;22.109;-5.804;-1.649;-2.5;-1.11;-134.09;0.0;0.0;0.0;0.0;-17.0;-37.0;-32.0;-77.0;-0.23;0.54;-10.6;0.8;0.41;1.0
1753875305.023808;22.109;-5.804;-1.649;-2.5;-1.11;-134.09;0.0;0.0;0.0;0.0;-17.0;-37.0;-32.0;-77.0;-0.23;0.54;-10.6;0.77;0.31;0.95
1753875305.028808;22.109;-5.804;-1.649;-2.5;-1.11;-134.09;0.0;0.0;0.0;0.0;-17.0;-37.0;-32.0;-77.0;-0.23;0.54;-10.61;0.82;0.25;1.09
1753875305.033808;22.109;-5.804;-1.649;-2.5;-1.11;-134.09;0.0;0.0;0.0;0.0;-17.0;-37.0;-32.0;-77.0;-0.24;0.54;-10.6;0.73;0.27;1.08
1753875305.038808;22.109;-5.804;-1.649;-2.5;-1.11;-134.09;0.0;0.0;0.0;0.0;-17.0;-37.0;-32.0;-77.0;-0.24;0.54;-10.6;0.86;0.24;0.96
1753875305.043808;22.109;-5.804;-1.649;-2.5;-1.11;-134.09;0.0;0.0;0.0;0.0;-17.0;-37.0;-32.0;-77.0;-0.24;0.54;-10.61;0.83;0.24;1.0
1753875305.048808;22.109;-5.804;-1.649;-2.5;-1.11;-134.09;0.0;0.0;0.0;0.0;-17.0;-37.0;-32.0;-77.0;-0.23;0.54;-10.61;0.72;0.27;0.83
1753875305.053808;22.109;-5.804;-1.649;-2.5;-1.11;-134.09;0.0;0.0;0.0;0.0;-17.0;-37.0;-32.0;-77.0;-0.23;0.54;-10.61;0.79;0.44;1.05
1753875305.058808;22.109;-5.804;-1.649;-2.5;-1.11;-134.09;0.0;0.0;0.0;0.0;-17.0;-37.0;-32.0;-77.0;-0.23;0.54;-10.61;0.88;0.33;1.02
1753875305.063808;22.109;-5.804;-1.649;-2.5;-1.11;-134.09;0.0;0.0;0.0;0.0;-17.0;-37.0;-32.0;-77.0;-0.24;0.54;-10.6;0.83;0.18;0.9
1753875305.068808;22.109;-5.804;-1.649;-2.5;-1.11;-134.09;0.0;0.0;0.0;0.0;-17.0;-37.0;-32.0;-77.0;-0.24;0.54;-10.6;0.69;0.31;0.83
1753875305.073808;22.109;-5.804;-1.649;-2.5;-1.11;-134.09;0.0;0.0;0.0;0.0;-17.0;-37.0;-32.0;-77.0;-0.24;0.54;-10.6;0.88;0.22;0.92
1753875305.078808;22.109;-5.804;-1.649;-2.5;-1.11;-134.09;0.0;0.0;0.0;0.0;-17.0;-37.0;-32.0;-77.0;-0.24;0.54;-10.6;0.85;0.29;0.82
1753875305.083808;22.109;-5.804;-1.649;-2.5;-1.11;-134.09;0.0;0.0;0.0;0.0;-17.0;-37.0;-32.0;-77.0;-0.24;0.54;-10.59;0.97;0.28;0.83
1753875305.088808;22.109;-5.804;-1.649;-2.5;-1.11;-134.09;0.0;0.0;0.0;0.0;-17.0;-37.0;-32.0;-77.0;-0.23;0.54;-10.59;0.75;0.29;0.94
1753875305.093808;22.109;-5.804;-1.649;-2.5;-1.11;-134.09;0.0;0.0;0.0;0.0;-17.0;-37.0;-32.0;-77.0;-0.24;0.53;-10.59;0.77;0.29;0.99
1753875305.098808;22.109;-5.804;-1.649;-2.5;-1.11;-134.09;0.0;0.0;0.0;0.0;-17.2;-38.6;-33.1;-77.1;-0.24;0.53;-10.6;0.69;0.3;0.87
1753875305.103808;22.109;-5.804;-1.649;-2.5;-1.11;-134.09;0.0;0.0;0.0;0.0;-16.8;-36.9;-33.3;-77.5;-0.24;0.53;-10.61;0.83;0.24;0.98
1753875305.108808;22.109;-5.804;-1.649;-2.5;-1.11;-134.09;0.0;0.0;0.0;0.0;-16.9;-37.1;-32.4;-78.8;-0.23;0.53;-10.59;0.73;0.32;1.13
1753875305.113808;22.109;-5.804;-1.649;-2.5;-1.11;-134.09;0.0;0.0;0.0;0.0;-16.9;-35.3;-28.5;-77.5;-0.24;0.53;-10.58;0.68;0.23;0.98
1753875305.118808;22.109;-5.804;-1.649;-2.5;-1.11;-134.09;0.0;0.0;0.0;0.0;-16.6;-37.8;-29.8;-76.7;-0.24;0.54;-10.59;0.7;0.18;0.86
1753875305.123808;22.109;-5.804;-1.649;-2.5;-1.11;-134.09;0.0;0.0;0.0;0.0;-18.6;-37.7;-31.4;-76.9;-0.24;0.53;-10.59;0.81;0.4;0.99
1753875305.128809;22.109;-5.804;-1.649;-2.5;-1.11;-134.09;0.0;0.0;0.0;0.0;-20.6;-37.2;-32.4;-76.3;-0.24;0.53;-10.59;0.86;0.26;0.93
1753875305.133809;22.109;-5.804;-1.649;-2.5;-1.11;-134.09;0.0;0.0;0.0;0.0;-17.0;-35.8;-30.9;-77.4;-0.24;0.53;-10.6;0.7;0.4;1.03
1753875305.138809;22.109;-5.804;-1.649;-2.5;-1.11;-134.09;0.0;0.0;0.0;0.0;-18.7;-36.0;-29.3;-77.1;-0.24;0.53;-10.59;0.61;0.23;0.94
1753875305.143809;22.109;-5.804;-1.649;-2.5;-1.11;-134.09;0.0;0.0;0.0;0.0;-18.9;-38.6;-30.5;-76.4;-0.24;0.53;-10.59;0.83;0.43;0.91
1753875305.148809;22.109;-5.804;-1.649;-2.5;-1.11;-134.09;0.0;0.0;0.0;0.0;-20.4;-37.8;-30.9;-77.2;-0.23;0.53;-10.59;0.77;0.26;0.98
1753875305.153809;22.109;-5.804;-1.649;-2.51;-1.11;-134.09;0.0;0.0;0.0;0.0;-21.9;-37.0;-29.3;-79.2;-0.23;0.54;-10.59;0.74;0.45;0.8
1753875305.15881;22.109;-5.804;-1.649;-2.51;-1.11;-134.09;0.0;0.0;0.0;0.0;-21.6;-36.7;-29.6;-78.1;-0.24;0.53;-10.57;0.78;0.22;1.01
1753875305.16381;22.109;-5.804;-1.649;-2.51;-1.11;-134.09;0.0;0.0;0.0;0.0;-17.7;-38.0;-30.1;-77.9;-0.23;0.54;-10.6;0.69;0.35;0.99
1753875305.16881;22.109;-5.804;-1.649;-2.5;-1.11;-134.09;0.0;0.0;0.0;0.0;-20.3;-37.8;-29.7;-78.5;-0.24;0.54;-10.57;0.87;0.46;0.96
1753875305.17381;22.109;-5.804;-1.649;-2.51;-1.11;-134.09;0.0;0.0;0.0;0.0;-22.0;-38.1;-27.9;-77.6;-0.24;0.53;-10.58;0.79;0.45;0.95
1753875305.17881;22.109;-5.804;-1.649;-2.51;-1.11;-134.09;0.0;0.0;0.0;0.0;-21.2;-37.2;-27.9;-77.5;-0.24;0.54;-10.6;0.74;0.34;0.77
1753875305.18381;22.109;-5.804;-1.649;-2.51;-1.11;-134.09;0.0;0.0;0.0;0.0;-21.1;-40.2;-28.4;-76.0;-0.24;0.54;-10.6;0.77;0.42;0.9
1753875305.18881;22.109;-5.804;-1.649;-2.51;-1.11;-134.09;0.0;0.0;0.0;0.0;-21.2;-37.3;-28.6;-77.8;-0.25;0.54;-10.6;0.73;0.35;0.89
1753875305.19381;22.109;-5.804;-1.649;-2.51;-1.11;-134.09;0.0;0.0;0.0;0.0;-20.6;-40.4;-29.3;-77.6;-0.23;0.54;-10.59;0.64;0.37;0.98
1753875305.19881;22.109;-5.804;-1.649;-2.51;-1.11;-134.09;0.0;0.0;0.0;0.0;-21.4;-38.9;-25.9;-79.6;-0.23;0.54;-10.6;0.83;0.56;0.91
1753875305.203808;22.109;-5.804;-1.649;-2.51;-1.11;-134.09;0.0;0.0;0.0;0.0;-22.0;-38.0;-28.0;-78.0;-0.24;0.54;-10.6;0.73;0.45;0.93
1753875305.208808;22.109;-5.804;-1.649;-2.51;-1.11;-134.09;0.0;0.0;0.0;0.0;-22.0;-38.0;-28.0;-78.0;-0.24;0.54;-10.61;0.76;0.28;0.98
1753875305.213808;22.109;-5.804;-1.649;-2.51;-1.11;-134.09;0.0;0.0;0.0;0.0;-22.0;-38.0;-28.0;-78.0;-0.24;0.54;-10.61;0.93;0.22;0.86
1753875305.218808;22.109;-5.804;-1.649;-2.51;-1.11;-134.09;0.0;0.0;0.0;0.0;-22.0;-38.0;-28.0;-78.0;-0.24;0.54;-10.6;0.97;0.28;0.86
1753875305.223808;22.109;-5.804;-1.649;-2.51;-1.11;-134.09;0.0;0.0;0.0;0.0;-22.0;-38.0;-28.0;-78.0;-0.24;0.54;-10.61;0.76;0.26;0.96
1753875305.228808;22.109;-5.804;-1.649;-2.51;-1.11;-134.09;0.0;0.0;0.0;0.0;-22.0;-38.0;-28.0;-78.0;-0.24;0.54;-10.6;0.89;0.28;1.06
1753875305.233808;22.109;-5.804;-1.649;-2.51;-1.11;-134.09;0.0;0.0;0.0;0.0;-22.0;-38.0;-28.0;-78.0;-0.24;0.54;-10.59;0.9;0.34;0.98
1753875305.238808;22.109;-5.804;-1.649;-2.51;-1.11;-134.09;0.0;0.0;0.0;0.0;-22.0;-38.0;-28.0;-78.0;-0.24;0.53;-10.59;0.78;0.31;0.97
1753875305.243808;22.109;-5.804;-1.649;-2.51;-1.11;-134.09;0.0;0.0;0.0;0.0;-22.0;-38.0;-28.0;-78.0;-0.24;0.53;-10.59;0.83;0.37;0.84
1753875305.248808;22.109;-5.804;-1.649;-2.51;-1.11;-134.09;0.0;0.0;0.0;0.0;-22.0;-38.0;-28.0;-78.0;-0.23;0.53;-10.59;0.8;0.29;1.04
1753875305.253808;22.109;-5.804;-1.649;-2.51;-1.11;-134.09;0.0;0.0;0.0;0.0;-22.0;-38.0;-28.0;-78.0;-0.23;0.53;-10.58;0.76;0.29;0.92
1753875305.258808;22.109;-5.804;-1.649;-2.51;-1.11;-134.09;0.0;0.0;0.0;0.0;-22.0;-38.0;-28.0;-78.0;-0.24;0.53;-10.59;0.88;0.34;0.99
1753875305.263808;22.109;-5.804;-1.649;-2.51;-1.11;-134.09;0.0;0.0;0.0;0.0;-22.0;-38.0;-28.0;-78.0;-0.24;0.53;-10.58;0.77;0.22;1.06
1753875305.268808;22.109;-5.804;-1.649;-2.52;-1.11;-134.09;0.0;0.0;0.0;0.0;-21.6;-38.5;-29.0;-77.5;-0.24;0.53;-10.59;0.78;0.2;0.99
1753875305.273808;22.109;-5.804;-1.649;-2.51;-1.11;-134.09;0.0;0.0;0.0;0.0;-20.7;-37.7;-28.1;-77.5;-0.24;0.54;-10.6;0.79;0.25;0.95
1753875305.278808;22.109;-5.804;-1.649;-2.51;-1.11;-134.09;0.0;0.0;0.0;0.0;-24.8;-38.1;-24.1;-77.5;-0.24;0.52;-10.6;0.84;0.14;1.14
1753875305.283808;22.109;-5.804;-1.649;-2.51;-1.11;-134.09;0.0;0.0;0.0;0.0;-24.5;-37.1;-25.9;-78.6;-0.24;0.54;-10.59;0.81;0.13;0.97
1753875305.288808;22.109;-5.804;-1.649;-2.5;-1.11;-134.09;0.0;0.0;0.0;0.0;-20.9;-36.0;-25.7;-78.0;-0.24;0.53;-10.61;0.89;0.2;0.97
1753875305.293809;22.109;-5.804;-1.649;-2.51;-1.11;-134.09;0.0;0.0;0.0;0.0;-19.4;-37.1;-27.4;-77.8;-0.23;0.53;-10.6;0.8;0.11;0.97
1753875305.298809;22.109;-5.804;-1.649;-2.5;-1.11;-134.09;0.0;0.0;0.0;0.0;-23.9;-37.6;-27.8;-76.8;-0.24;0.52;-10.58;0.78;0.27;0.91
1753875305.303809;22.109;-5.804;-1.649;-2.52;-1.11;-134.09;0.0;0.0;0.0;0.0;-21.4;-36.9;-26.1;-78.3;-0.23;0.54;-10.6;0.78;0.17;0.94
1753875305.308809;22.109;-5.804;-1.649;-2.52;-1.11;-134.09;0.0;0.0;0.0;0.0;-21.9;-37.7;-27.9;-77.7;-0.24;0.52;-10.58;0.7;0.18;0.89
1753875305.313809;22.109;-5.804;-1.649;-2.51;-1.11;-134.09;0.0;0.0;0.0;0.0;-20.7;-37.5;-32.7;-77.0;-0.23;0.53;-10.58;0.69;0.21;0.92
1753875305.318809;22.109;-5.804;-1.649;-2.51;-1.11;-134.09;0.0;0.0;0.0;0.0;-22.7;-38.5;-30.8;-77.3;-0.23;0.54;-10.59;0.84;0.29;1.02
1753875305.32381;22.109;-5.804;-1.649;-2.51;-1.11;-134.09;0.0;0.0;0.0;0.0;-19.1;-37.4;-27.6;-76.9;-0.24;0.53;-10.59;0.65;0.14;0.84
1753875305.32881;22.109;-5.804;-1.649;-2.5;-1.11;-134.09;0.0;0.0;0.0;0.0;-24.8;-37.5;-25.2;-77.3;-0.24;0.53;-10.6;0.66;0.28;1.01
1753875305.33381;22.109;-5.804;-1.649;-2.5;-1.11;-134.09;0.0;0.0;0.0;0.0;-22.2;-36.1;-27.3;-77.2;-0.23;0.53;-10.61;0.81;0.3;0.83
1753875305.33881;22.109;-5.804;-1.649;-2.51;-1.11;-134.09;0.0;0.0;0.0;0.0;-20.9;-37.0;-28.2;-77.2;-0.24;0.53;-10.59;0.66;0.19;0.85
1753875305.34381;22.109;-5.804;-1.649;-2.51;-1.11;-134.09;0.0;0.0;0.0;0.0;-15.9;-36.5;-27.1;-76.7;-0.24;0.53;-10.6;0.75;0.3;0.94
1753875305.34881;22.109;-5.804;-1.649;-2.51;-1.11;-134.09;0.0;0.0;0.0;0.0;-20.2;-35.2;-27.6;-77.3;-0.24;0.53;-10.6;0.67;0.17;0.79
1753875305.35381;22.109;-5.804;-1.649;-2.51;-1.11;-134.09;0.0;0.0;0.0;0.0;-24.6;-36.2;-27.4;-77.6;-0.24;0.53;-10.6;0.69;0.19;0.82
1753875305.35881;22.109;-5.804;-1.649;-2.51;-1.11;-134.09;0.0;0.0;0.0;0.0;-22.2;-36.7;-28.1;-77.5;-0.23;0.52;-10.61;0.64;0.25;0.86
1753875305.36381;22.109;-5.804;-1.649;-2.52;-1.11;-134.09;0.0;0.0;0.0;0.0;-19.6;-36.5;-23.6;-77.4;-0.23;0.53;-10.59;0.65;0.18;0.76
1753875305.36881;22.109;-5.804;-1.649;-2.51;-1.11;-134.09;0.0;0.0;0.0;0.0;-18.7;-36.9;-23.2;-78.0;-0.23;0.53;-10.59;0.63;0.12;0.74
1753875305.37381;22.109;-5.804;-1.649;-2.51;-1.11;-134.09;0.0;0.0;0.0;0.0;-19.6;-36.2;-31.6;-76.8;-0.23;0.53;-10.61;0.62;0.24;0.85
1753875305.378811;22.109;-5.804;-1.649;-2.51;-1.11;-134.09;0.0;0.0;0.0;0.0;-19.5;-36.2;-28.2;-77.2;-0.22;0.54;-10.61;0.6;0.28;0.81
1753875305.383808;22.109;-5.804;-1.649;-2.51;-1.11;-134.09;0.0;0.0;0.0;0.0;-20.0;-36.0;-27.0;-77.0;-0.23;0.53;-10.61;0.71;0.23;0.78
1753875305.388808;22.109;-5.804;-1.649;-2.51;-1.11;-134.09;0.0;0.0;0.0;0.0;-20.0;-36.0;-27.0;-77.0;-0.23;0.53;-10.61;0.77;0.28;0.96
1753875305.393808;22.109;-5.804;-1.649;-2.51;-1.11;-134.09;0.0;0.0;0.0;0.0;-20.0;-36.0;-27.0;-77.0;-0.24;0.53;-10.61;0.79;0.38;0.96
1753875305.398808;22.109;-5.804;-1.649;-2.51;-1.11;-134.09;0.0;0.0;0.0;0.0;-20.0;-36.0;-27.0;-77.0;-0.23;0.53;-10.61;0.74;0.18;0.86
1753875305.403808;22.109;-5.804;-1.649;-2.51;-1.11;-134.09;0.0;0.0;0.0;0.0;-20.0;-36.0;-27.0;-77.0;-0.23;0.54;-10.61;0.74;0.34;0.98
1753875305.408808;22.109;-5.804;-1.649;-2.51;-1.11;-134.09;0.0;0.0;0.0;0.0;-20.0;-36.0;-27.0;-77.0;-0.24;0.54;-10.61;0.83;0.25;0.98
1753875305.413808;22.109;-5.804;-1.649;-2.51;-1.11;-134.09;0.0;0.0;0.0;0.0;-20.0;-36.0;-27.0;-77.0;-0.23;0.54;-10.61;0.87;0.32;0.97
1753875305.418808;22.109;-5.804;-1.649;-2.51;-1.11;-134.09;0.0;0.0;0.0;0.0;-20.0;-36.0;-27.0;-77.0;-0.24;0.53;-10.61;0.77;0.3;0.9
1753875305.423808;22.109;-5.804;-1.649;-2.51;-1.11;-134.09;0.0;0.0;0.0;0.0;-20.0;-36.0;-27.0;-77.0;-0.24;0.54;-10.61;0.79;0.22;1.06
1753875305.428808;22.109;-5.804;-1.649;-2.51;-1.11;-134.09;0.0;0.0;0.0;0.0;-20.0;-36.0;-27.0;-77.0;-0.24;0.54;-10.6;0.74;0.25;0.91
1753875305.433808;22.109;-5.804;-1.649;-2.51;-1.11;-134.09;0.0;0.0;0.0;0.0;-20.0;-36.0;-27.0;-77.0;-0.24;0.54;-10.6;0.74;0.18;1.02
1753875305.438808;22.109;-5.804;-1.649;-2.51;-1.11;-134.09;0.0;0.0;0.0;0.0;-20.0;-36.0;-27.0;-77.0;-0.25;0.53;-10.6;0.81;0.2;0.99
1753875305.443808;22.109;-5.804;-1.649;-2.51;-1.11;-134.09;0.0;0.0;0.0;0.0;-20.0;-36.0;-27.0;-77.0;-0.24;0.54;-10.6;0.8;0.25;0.97
1753875305.448808;22.109;-5.804;-1.649;-2.51;-1.11;-134.09;0.0;0.0;0.0;0.0;-20.0;-36.0;-27.0;-77.0;-0.24;0.54;-10.6;0.93;0.16;0.9
1753875305.453808;22.109;-5.804;-1.649;-2.51;-1.11;-134.09;0.0;0.0;0.0;0.0;-20.0;-36.0;-27.0;-77.0;-0.24;0.54;-10.6;0.84;0.25;0.95
1753875305.458808;22.109;-5.804;-1.649;-2.51;-1.11;-134.09;0.0;0.0;0.0;0.0;-20.0;-36.0;-27.0;-77.0;-0.24;0.54;-10.61;0.78;0.23;0.95
1753875305.463808;22.109;-5.804;-1.649;-2.51;-1.11;-134.09;0.0;0.0;0.0;0.0;-20.0;-36.0;-27.0;-77.0;-0.24;0.53;-10.61;0.77;0.22;1.02
1753875305.468808;22.109;-5.804;-1.649;-2.51;-1.11;-134.09;0.0;0.0;0.0;0.0;-20.0;-36.0;-27.0;-77.0;-0.24;0.53;-10.61;0.77;0.2;1.09
1753875305.473808;22.109;-5.804;-1.649;-2.51;-1.11;-134.09;0.0;0.0;0.0;0.0;-20.0;-36.0;-27.0;-77.0;-0.24;0.53;-10.61;0.74;0.37;0.96
1753875305.478808;22.109;-5.804;-1.649;-2.51;-1.11;-134.09;0.0;0.0;0.0;0.0;-20.0;-36.0;-27.0;-77.0;-0.24;0.52;-10.61;0.75;0.31;1.03
1753875305.483808;22.109;-5.804;-1.649;-2.51;-1.11;-134.09;0.0;0.0;0.0;0.0;-20.0;-36.0;-27.0;-77.0;-0.23;0.52;-10.61;0.86;0.32;0.96
1753875305.488808;22.109;-5.804;-1.649;-2.51;-1.11;-134.09;0.0;0.0;0.0;0.0;-20.0;-36.0;-27.0;-77.0;-0.23;0.52;-10.6;0.75;0.27;1.06
1753875305.493808;22.109;-5.804;-1.649;-2.51;-1.11;-134.09;0.0;0.0;0.0;0.0;-20.0;-36.0;-27.0;-77.0;-0.24;0.52;-10.6;0.92;0.37;1.0
1753875305.498808;22.109;-5.804;-1.649;-2.51;-1.11;-134.09;0.0;0.0;0.0;0.0;-20.0;-36.0;-27.0;-77.0;-0.23;0.52;-10.6;0.77;0.21;0.96
1753875305.503808;22.109;-5.804;-1.649;-2.51;-1.11;-134.09;0.0;0.0;0.0;0.0;-20.0;-36.0;-27.0;-77.0;-0.23;0.52;-10.6;0.77;0.25;1.02
1753875305.508808;22.109;-5.804;-1.649;-2.51;-1.11;-134.09;0.0;0.0;0.0;0.0;-20.0;-36.0;-27.0;-77.0;-0.23;0.53;-10.59;0.73;0.19;1.02
1753875305.513808;22.109;-5.804;-1.649;-2.51;-1.11;-134.09;0.0;0.0;0.0;0.0;-20.0;-36.0;-27.0;-77.0;-0.23;0.53;-10.59;0.71;0.1;1.05
1753875305.518808;22.109;-5.804;-1.649;-2.51;-1.11;-134.09;0.0;0.0;0.0;0.0;-20.0;-36.0;-27.0;-77.0;-0.23;0.55;-10.6;0.86;0.23;1.15
1753875305.523808;22.109;-5.804;-1.649;-2.51;-1.11;-134.09;0.0;0.0;0.0;0.0;-20.0;-36.0;-27.0;-77.0;-0.23;0.53;-10.59;0.76;0.09;1.02
1753875305.528808;22.109;-5.804;-1.649;-2.51;-1.11;-134.09;0.0;0.0;0.0;0.0;-20.0;-36.0;-27.0;-77.0;-0.24;0.54;-10.6;0.76;0.15;1.01
1753875305.533808;22.109;-5.804;-1.649;-2.51;-1.11;-134.09;0.0;0.0;0.0;0.0;-20.0;-36.0;-27.0;-77.0;-0.24;0.52;-10.6;0.84;0.14;1.0
1753875305.538808;22.109;-5.804;-1.649;-2.51;-1.11;-134.09;0.0;0.0;0.0;0.0;-20.0;-36.0;-27.0;-77.0;-0.23;0.54;-10.6;0.7;0.28;0.97
1753875305.543809;22.109;-5.804;-1.649;-2.51;-1.11;-134.09;0.0;0.0;0.0;0.0;-20.0;-36.0;-27.0;-77.0;-0.23;0.53;-10.6;0.83;0.19;0.75
1753875305.548809;22.109;-5.804;-1.649;-2.51;-1.11;-134.09;0.0;0.0;0.0;0.0;-20.0;-36.0;-27.0;-77.0;-0.24;0.53;-10.61;0.75;0.15;1.01
1753875305.553809;22.109;-5.804;-1.649;-2.51;-1.11;-134.09;0.0;0.0;0.0;0.0;-20.0;-36.0;-27.0;-77.0;-0.23;0.53;-10.61;0.67;0.33;0.87
1753875305.558809;22.109;-5.804;-1.649;-2.51;-1.11;-134.09;0.0;0.0;0.0;0.0;-20.0;-36.0;-27.0;-77.0;-0.25;0.53;-10.62;0.73;0.22;0.85
1753875305.563809;22.109;-5.804;-1.649;-2.51;-1.11;-134.09;0.0;0.0;0.0;0.0;-20.0;-36.0;-27.0;-77.0;-0.25;0.51;-10.6;0.87;0.26;0.91
1753875305.568808;22.109;-5.804;-1.649;-2.51;-1.11;-134.09;0.0;0.0;0.0;0.0;-20.0;-36.0;-27.0;-77.0;-0.25;0.53;-10.61;0.77;0.24;0.86
1753875305.573808;22.109;-5.804;-1.649;-2.51;-1.11;-134.09;0.0;0.0;0.0;0.0;-20.0;-36.0;-27.0;-77.0;-0.24;0.53;-10.6;0.84;0.32;0.89
1753875305.578808;22.109;-5.804;-1.649;-2.51;-1.11;-134.09;0.0;0.0;0.0;0.0;-20.0;-36.0;-27.0;-77.0;-0.25;0.53;-10.61;0.87;0.43;0.81
1753875305.583808;22.109;-5.804;-1.649;-2.51;-1.11;-134.09;0.0;0.0;0.0;0.0;-20.0;-36.0;-27.0;-77.0;-0.24;0.53;-10.6;0.75;0.27;1.02
1753875305.588808;22.109;-5.804;-1.649;-2.51;-1.11;-134.09;0.0;0.0;0.0;0.0;-20.0;-36.0;-27.0;-77.0;-0.24;0.53;-10.6;0.84;0.34;0.96
1753875305.593808;22.109;-5.804;-1.649;-2.51;-1.11;-134.09;0.0;0.0;0.0;0.0;-21.3;-36.0;-27.0;-77.4;-0.24;0.52;-10.6;0.83;0.36;1.05
1753875305.598808;22.109;-5.804;-1.649;-2.51;-1.11;-134.09;0.0;0.0;0.0;0.0;-18.4;-36.0;-27.2;-77.5;-0.23;0.53;-10.59;0.86;0.39;1.02
1753875305.603808;22.109;-5.804;-1.649;-2.51;-1.11;-134.09;0.0;0.0;0.0;0.0;-18.2;-36.0;-27.2;-77.5;-0.24;0.52;-10.61;0.73;0.35;0.91
1753875305.608808;22.109;-5.804;-1.649;-2.5;-1.11;-134.09;0.0;0.0;0.0;0.0;-19.5;-36.0;-27.1;-77.2;-0.24;0.53;-10.61;0.86;0.21;0.94
1753875305.613808;22.109;-5.804;-1.649;-2.51;-1.11;-134.09;0.0;0.0;0.0;0.0;-18.6;-36.0;-27.0;-77.8;-0.23;0.52;-10.61;0.84;0.4;0.88
1753875305.618808;22.109;-5.804;-1.649;-2.51;-1.11;-134.09;0.0;0.0;0.0;0.0;-19.2;-36.0;-27.0;-77.3;-0.24;0.52;-10.6;0.93;0.49;0.99
1753875305.623808;22.109;-5.804;-1.649;-2.51;-1.12;-134.09;0.0;0.0;0.0;0.0;-20.3;-36.0;-27.2;-77.8;-0.24;0.52;-10.61;0.91;0.32;1.03
1753875305.628809;22.109;-5.804;-1.649;-2.51;-1.11;-134.09;0.0;0.0;0.0;0.0;-19.7;-36.0;-27.2;-77.9;-0.24;0.52;-10.6;0.73;0.32;1.0
1753875305.633809;22.109;-5.804;-1.649;-2.51;-1.11;-134.09;0.0;0.0;0.0;0.0;-19.2;-36.0;-26.9;-77.7;-0.24;0.51;-10.6;0.84;0.3;0.84
1753875305.638809;22.109;-5.804;-1.649;-2.5;-1.11;-134.09;0.0;0.0;0.0;0.0;-18.8;-36.0;-26.9;-77.3;-0.25;0.52;-10.6;0.81;0.4;0.9
1753875305.643809;22.109;-5.804;-1.649;-2.51;-1.11;-134.09;0.0;0.0;0.0;0.0;-19.0;-36.0;-27.1;-78.1;-0.24;0.53;-10.6;0.77;0.23;0.96
1753875305.648809;22.109;-5.804;-1.649;-2.51;-1.11;-134.09;0.0;0.0;0.0;0.0;-20.6;-36.0;-27.3;-77.9;-0.26;0.5;-10.59;0.8;0.25;0.83
1753875305.653809;22.109;-5.804;-1.649;-2.5;-1.11;-134.09;0.0;0.0;0.0;0.0;-17.5;-36.0;-27.5;-77.0;-0.25;0.52;-10.6;0.8;0.39;0.89
1753875305.65881;22.109;-5.804;-1.649;-2.51;-1.12;-134.09;0.0;0.0;0.0;0.0;-17.2;-36.0;-27.3;-78.1;-0.24;0.53;-10.61;0.71;0.34;1.07
1753875305.66381;22.109;-5.804;-1.649;-2.51;-1.11;-134.09;0.0;0.0;0.0;0.0;-18.4;-36.0;-27.5;-77.6;-0.24;0.52;-10.59;0.85;0.37;0.96
1753875305.66881;22.109;-5.804;-1.649;-2.5;-1.11;-134.09;0.0;0.0;0.0;0.0;-17.7;-36.0;-27.7;-77.4;-0.25;0.54;-10.6;0.77;0.36;1.01
1753875305.67381;22.109;-5.804;-1.649;-2.5;-1.12;-134.09;0.0;0.0;0.0;0.0;-17.4;-36.0;-27.5;-77.8;-0.23;0.52;-10.6;0.73;0.23;0.95
1753875305.67881;22.109;-5.804;-1.649;-2.5;-1.11;-134.09;0.0;0.0;0.0;0.0;-18.1;-36.0;-27.4;-78.2;-0.24;0.51;-10.6;0.82;0.38;0.79
1753875305.68381;22.109;-5.804;-1.649;-2.5;-1.12;-134.09;0.0;0.0;0.0;0.0;-17.9;-36.0;-27.2;-78.2;-0.24;0.52;-10.59;0.84;0.37;0.92
1753875305.68881;22.109;-5.804;-1.649;-2.5;-1.11;-134.09;0.0;0.0;0.0;0.0;-17.0;-36.0;-27.7;-77.9;-0.24;0.52;-10.61;0.79;0.27;1.06
1753875305.69381;22.109;-5.804;-1.649;-2.5;-1.11;-134.09;0.0;0.0;0.0;0.0;-17.7;-36.0;-27.5;-78.1;-0.23;0.53;-10.6;0.81;0.31;0.97
1753875305.69881;22.109;-5.804;-1.649;-2.5;-1.11;-134.09;0.0;0.0;0.0;0.0;-16.9;-36.0;-27.6;-79.0;-0.25;0.53;-10.59;0.81;0.38;1.01
1753875305.70381;22.109;-5.804;-1.649;-2.5;-1.12;-134.09;0.0;0.0;0.0;0.0;-17.6;-36.0;-28.4;-78.4;-0.24;0.51;-10.6;0.83;0.4;0.79
1753875305.70881;22.109;-5.804;-1.649;-2.5;-1.12;-134.09;0.0;0.0;0.0;0.0;-18.5;-36.0;-27.7;-79.5;-0.25;0.52;-10.59;0.75;0.37;1.0
1753875305.713811;22.109;-5.804;-1.649;-2.5;-1.12;-134.09;0.0;0.0;0.0;0.0;-16.8;-36.0;-27.8;-78.7;-0.24;0.5;-10.61;0.77;0.3;0.88
1753875305.718811;22.109;-5.804;-1.649;-2.5;-1.12;-134.09;0.0;0.0;0.0;0.0;-16.4;-36.0;-27.9;-78.6;-0.24;0.52;-10.59;0.69;0.36;0.87
1753875305.723811;22.109;-5.804;-1.649;-2.5;-1.12;-134.09;0.0;0.0;0.0;0.0;-16.0;-36.0;-27.5;-77.5;-0.25;0.51;-10.6;0.83;0.32;0.87
1753875305.728811;22.109;-5.804;-1.649;-2.5;-1.12;-134.09;0.0;0.0;0.0;0.0;-18.7;-36.0;-27.9;-79.0;-0.24;0.52;-10.6;0.77;0.23;0.98
1753875305.733811;22.109;-5.804;-1.649;-2.5;-1.12;-134.09;0.0;0.0;0.0;0.0;-15.6;-36.0;-28.4;-79.7;-0.24;0.51;-10.6;0.75;0.24;0.77
1753875305.738811;22.109;-5.804;-1.649;-2.5;-1.12;-134.09;0.0;0.0;0.0;0.0;-15.9;-36.0;-27.4;-79.4;-0.24;0.51;-10.6;0.77;0.34;0.86
1753875305.743811;22.109;-5.804;-1.649;-2.5;-1.12;-134.09;0.0;0.0;0.0;0.0;-16.4;-36.0;-27.8;-78.9;-0.23;0.52;-10.59;0.85;0.15;0.93
1753875305.748808;22.109;-5.804;-1.649;-2.5;-1.12;-134.09;0.0;0.0;0.0;0.0;-16.0;-36.0;-28.0;-79.0;-0.24;0.51;-10.6;0.74;0.33;0.9
1753875305.753808;22.109;-5.804;-1.649;-2.5;-1.12;-134.09;0.0;0.0;0.0;0.0;-16.0;-36.0;-28.0;-79.0;-0.23;0.51;-10.6;0.71;0.3;0.82
1753875305.758808;22.109;-5.804;-1.649;-2.5;-1.12;-134.09;0.0;0.0;0.0;0.0;-16.0;-36.0;-28.0;-79.0;-0.24;0.51;-10.61;0.73;0.25;0.81
1753875305.763808;22.109;-5.804;-1.649;-2.5;-1.12;-134.09;0.0;0.0;0.0;0.0;-16.0;-36.0;-28.0;-79.0;-0.25;0.51;-10.6;0.82;0.35;0.99
1753875305.768808;22.109;-5.804;-1.649;-2.5;-1.12;-134.09;0.0;0.0;0.0;0.0;-16.0;-36.0;-28.0;-79.0;-0.25;0.51;-10.6;0.75;0.22;1.01
1753875305.773808;22.109;-5.804;-1.649;-2.5;-1.12;-134.09;0.0;0.0;0.0;0.0;-16.0;-36.0;-28.0;-79.0;-0.24;0.52;-10.59;0.77;0.29;0.91
1753875305.778808;22.109;-5.804;-1.649;-2.5;-1.12;-134.09;0.0;0.0;0.0;0.0;-16.0;-36.0;-28.0;-79.0;-0.24;0.51;-10.58;0.86;0.23;1.02
1753875305.783808;22.109;-5.804;-1.649;-2.5;-1.12;-134.09;0.0;0.0;0.0;0.0;-16.0;-36.0;-28.0;-79.0;-0.24;0.51;-10.59;0.75;0.21;0.91
1753875305.788808;22.109;-5.804;-1.649;-2.5;-1.12;-134.09;0.0;0.0;0.0;0.0;-16.0;-36.0;-28.0;-79.0;-0.24;0.52;-10.6;0.77;0.23;0.94
1753875305.793808;22.109;-5.804;-1.649;-2.5;-1.12;-134.09;0.0;0.0;0.0;0.0;-16.0;-36.0;-28.0;-79.0;-0.23;0.52;-10.6;0.71;0.13;0.88
1753875305.798808;22.109;-5.804;-1.649;-2.51;-1.12;-134.09;0.0;0.0;0.0;0.0;-14.6;-35.8;-28.2;-78.8;-0.23;0.52;-10.6;0.76;0.09;0.78
1753875305.803808;22.109;-5.804;-1.649;-2.5;-1.12;-134.09;0.0;0.0;0.0;0.0;-18.4;-36.2;-28.3;-74.9;-0.23;0.52;-10.6;0.68;0.18;0.91
1753875305.808808;22.109;-5.804;-1.649;-2.49;-1.12;-134.09;0.0;0.0;0.0;0.0;-17.3;-35.8;-28.3;-78.6;-0.22;0.54;-10.6;0.65;0.19;0.92
1753875305.813808;22.109;-5.804;-1.649;-2.51;-1.11;-134.09;0.0;0.0;0.0;0.0;-18.6;-36.7;-28.2;-78.3;-0.23;0.52;-10.6;0.68;0.3;0.97
1753875305.818808;22.109;-5.804;-1.649;-2.49;-1.12;-134.09;0.0;0.0;0.0;0.0;-18.7;-36.4;-27.8;-78.3;-0.24;0.52;-10.6;0.67;0.15;0.94
1753875305.823809;22.109;-5.804;-1.649;-2.5;-1.13;-134.09;0.0;0.0;0.0;0.0;-17.0;-36.4;-28.3;-79.5;-0.23;0.52;-10.61;0.83;0.2;0.82
1753875305.828809;22.109;-5.804;-1.649;-2.49;-1.12;-134.09;0.0;0.0;0.0;0.0;-19.2;-36.2;-28.2;-77.3;-0.23;0.52;-10.59;0.71;0.19;0.83
1753875305.833809;22.109;-5.804;-1.649;-2.48;-1.12;-134.09;0.0;0.0;0.0;0.0;-19.5;-36.3;-27.2;-79.2;-0.24;0.53;-10.6;0.7;0.22;0.87
1753875305.838809;22.109;-5.804;-1.649;-2.49;-1.12;-134.09;0.0;0.0;0.0;0.0;-17.4;-36.6;-28.6;-77.8;-0.23;0.52;-10.58;0.7;0.17;0.85
1753875305.843809;22.109;-5.804;-1.649;-2.5;-1.13;-134.09;0.0;0.0;0.0;0.0;-15.6;-36.3;-28.1;-78.4;-0.23;0.51;-10.6;0.68;0.3;0.86
1753875305.848809;22.109;-5.804;-1.649;-2.49;-1.12;-134.09;0.0;0.0;0.0;0.0;-15.7;-36.3;-28.1;-76.8;-0.23;0.54;-10.6;0.7;0.28;0.96
1753875305.853809;22.109;-5.804;-1.649;-2.5;-1.12;-134.09;0.0;0.0;0.0;0.0;-19.5;-36.5;-28.2;-77.6;-0.24;0.55;-10.6;0.79;0.17;0.8
1753875305.85881;22.109;-5.804;-1.649;-2.5;-1.12;-134.09;0.0;0.0;0.0;0.0;-18.8;-36.5;-28.4;-78.7;-0.24;0.53;-10.6;0.75;0.24;0.98
1753875305.86381;22.109;-5.804;-1.649;-2.49;-1.13;-134.09;0.0;0.0;0.0;0.0;-16.4;-36.9;-27.6;-78.4;-0.24;0.54;-10.61;0.79;0.26;0.76
1753875305.86881;22.109;-5.804;-1.649;-2.49;-1.11;-134.09;0.0;0.0;0.0;0.0;-18.0;-36.4;-27.4;-78.5;-0.24;0.53;-10.6;0.72;0.27;0.9
1753875305.87381;22.109;-5.804;-1.649;-2.49;-1.12;-134.09;0.0;0.0;0.0;0.0;-18.1;-36.5;-27.8;-78.2;-0.23;0.52;-10.59;0.75;0.36;0.82
1753875305.87881;22.109;-5.804;-1.649;-2.48;-1.12;-134.09;0.0;0.0;0.0;0.0;-18.7;-36.3;-27.7;-77.5;-0.23;0.52;-10.6;0.68;0.26;0.93
1753875305.88381;22.109;-5.804;-1.649;-2.49;-1.12;-134.09;0.0;0.0;0.0;0.0;-19.6;-36.6;-29.0;-77.8;-0.23;0.54;-10.61;0.81;0.27;0.92
1753875305.88881;22.109;-5.804;-1.649;-2.49;-1.12;-134.09;0.0;0.0;0.0;0.0;-16.9;-36.5;-27.8;-79.3;-0.24;0.53;-10.61;0.77;0.29;0.78
1753875305.89381;22.109;-5.804;-1.649;-2.48;-1.12;-134.09;0.0;0.0;0.0;0.0;-16.1;-36.4;-27.1;-78.2;-0.24;0.52;-10.6;0.89;0.32;0.84
1753875305.89881;22.109;-5.804;-1.649;-2.47;-1.12;-134.09;0.0;0.0;0.0;0.0;-18.2;-36.6;-28.6;-79.0;-0.25;0.53;-10.6;0.76;0.3;0.83
1753875305.90381;22.109;-5.804;-1.649;-2.49;-1.11;-134.09;0.0;0.0;0.0;0.0;-16.7;-36.8;-28.6;-78.7;-0.23;0.52;-10.6;0.76;0.32;0.99
1753875305.90881;22.109;-5.804;-1.649;-2.47;-1.12;-134.09;0.0;0.0;0.0;0.0;-19.8;-37.1;-28.6;-78.1;-0.24;0.52;-10.61;0.88;0.26;0.94
1753875305.913811;22.109;-5.804;-1.649;-2.47;-1.12;-134.09;0.0;0.0;0.0;0.0;-21.0;-37.1;-27.9;-79.1;-0.23;0.53;-10.6;0.75;0.28;0.96
1753875305.918811;22.109;-5.804;-1.649;-2.47;-1.12;-134.09;0.0;0.0;0.0;0.0;-15.6;-37.1;-28.0;-77.5;-0.23;0.52;-10.6;0.86;0.38;0.89
1753875305.923811;22.109;-5.804;-1.649;-2.49;-1.12;-134.09;0.0;0.0;0.0;0.0;-15.6;-37.1;-28.6;-79.2;-0.24;0.54;-10.59;0.79;0.38;0.84
1753875305.928811;22.109;-5.804;-1.649;-2.48;-1.12;-134.09;0.0;0.0;0.0;0.0;-20.9;-36.9;-28.0;-78.6;-0.24;0.52;-10.6;0.74;0.46;0.78
1753875305.933808;22.109;-5.804;-1.649;-2.48;-1.12;-134.09;0.0;0.0;0.0;0.0;-18.0;-37.0;-28.0;-78.0;-0.24;0.53;-10.6;0.8;0.36;0.88
1753875305.938808;22.109;-5.804;-1.649;-2.48;-1.12;-134.09;0.0;0.0;0.0;0.0;-18.0;-37.0;-28.0;-78.0;-0.24;0.53;-10.6;0.66;0.28;0.96
1753875305.943808;22.109;-5.804;-1.649;-2.48;-1.12;-134.09;0.0;0.0;0.0;0.0;-18.0;-37.0;-28.0;-78.0;-0.24;0.52;-10.59;0.9;0.25;1.04
1753875305.948808;22.109;-5.804;-1.649;-2.48;-1.12;-134.09;0.0;0.0;0.0;0.0;-18.0;-37.0;-28.0;-78.0;-0.23;0.52;-10.59;0.84;0.34;0.93
1753875305.953808;22.109;-5.804;-1.649;-2.48;-1.12;-134.09;0.0;0.0;0.0;0.0;-19.9;-36.5;-27.4;-77.3;-0.24;0.51;-10.58;0.82;0.35;0.89
1753875305.958808;22.109;-5.804;-1.649;-2.48;-1.12;-134.09;0.0;0.0;0.0;0.0;-18.0;-37.0;-28.0;-78.0;-0.24;0.53;-10.59;0.86;0.29;1.02
1753875305.963808;22.109;-5.804;-1.649;-2.48;-1.12;-134.09;0.0;0.0;0.0;0.0;-18.0;-37.0;-28.0;-78.0;-0.23;0.52;-10.6;0.86;0.23;0.93
1753875305.968808;22.109;-5.804;-1.649;-2.48;-1.12;-134.09;0.0;0.0;0.0;0.0;-18.0;-37.0;-28.0;-78.0;-0.23;0.52;-10.6;0.93;0.24;1.05
1753875305.973808;22.109;-5.804;-1.649;-2.48;-1.12;-134.09;0.0;0.0;0.0;0.0;-18.0;-37.0;-28.0;-78.0;-0.24;0.52;-10.6;0.75;0.27;1.03
1753875305.978808;22.109;-5.804;-1.649;-2.48;-1.12;-134.09;0.0;0.0;0.0;0.0;-18.0;-37.0;-28.0;-78.0;-0.23;0.51;-10.6;0.8;0.35;1.03
1753875305.983808;22.109;-5.804;-1.649;-2.48;-1.12;-134.09;0.0;0.0;0.0;0.0;-18.0;-37.0;-28.0;-78.0;-0.23;0.52;-10.6;0.86;0.24;0.86
1753875305.988808;22.109;-5.804;-1.649;-2.48;-1.12;-134.09;0.0;0.0;0.0;0.0;-18.0;-37.0;-28.0;-78.0;-0.23;0.51;-10.61;0.81;0.28;1.06
1753875305.993808;22.109;-5.804;-1.649;-2.48;-1.12;-134.09;0.0;0.0;0.0;0.0;-18.0;-37.0;-28.0;-78.0;-0.24;0.52;-10.61;0.83;0.22;0.9
1753875305.998808;22.109;-5.804;-1.649;-2.48;-1.12;-134.09;0.0;0.0;0.0;0.0;-18.0;-37.0;-28.0;-78.0;-0.24;0.52;-10.61;0.76;0.37;0.89
1753875306.003808;22.109;-5.804;-1.649;-2.48;-1.12;-134.09;0.0;0.0;0.0;0.0;-18.0;-37.0;-28.0;-78.0;-0.24;0.52;-10.62;0.74;0.28;0.86
1753875306.008808;22.109;-5.804;-1.649;-2.48;-1.12;-134.09;0.0;0.0;0.0;0.0;-18.0;-37.0;-28.0;-78.0;-0.24;0.52;-10.61;0.75;0.31;0.99
1753875306.013808;22.109;-5.804;-1.649;-2.48;-1.12;-134.09;0.0;0.0;0.0;0.0;-18.0;-37.0;-28.0;-78.0;-0.23;0.52;-10.62;0.86;0.3;0.95
1753875306.018808;22.109;-5.804;-1.649;-2.48;-1.12;-134.09;0.0;0.0;0.0;0.0;-18.0;-37.0;-28.0;-78.0;-0.24;0.52;-10.61;0.76;0.29;0.89
1753875306.023808;22.109;-5.804;-1.649;-2.48;-1.12;-134.09;0.0;0.0;0.0;0.0;-18.0;-37.0;-28.0;-78.0;-0.24;0.52;-10.61;0.74;0.19;0.96
1753875306.028808;22.109;-5.804;-1.649;-2.48;-1.12;-134.09;0.0;0.0;0.0;0.0;-18.0;-37.0;-28.0;-78.0;-0.24;0.52;-10.61;0.78;0.39;0.89
1753875306.033808;22.109;-5.804;-1.649;-2.48;-1.12;-134.09;0.0;0.0;0.0;0.0;-18.0;-37.0;-28.0;-78.0;-0.24;0.53;-10.6;0.64;0.26;1.02
1753875306.038808;22.109;-5.804;-1.649;-2.48;-1.12;-134.09;0.0;0.0;0.0;0.0;-18.0;-37.0;-28.0;-78.0;-0.25;0.53;-10.6;0.7;0.41;0.89
1753875306.043808;22.109;-5.804;-1.649;-2.48;-1.12;-134.09;0.0;0.0;0.0;0.0;-18.0;-37.0;-28.0;-78.0;-0.25;0.53;-10.6;0.77;0.38;0.93
1753875306.048808;22.109;-5.804;-1.649;-2.48;-1.12;-134.09;0.0;0.0;0.0;0.0;-18.0;-37.0;-28.0;-78.0;-0.24;0.53;-10.6;0.86;0.24;0.97
1753875306.053808;22.109;-5.804;-1.649;-2.48;-1.12;-134.09;0.0;0.0;0.0;0.0;-18.0;-37.0;-28.0;-78.0;-0.24;0.53;-10.62;0.78;0.32;0.98
1753875306.058808;22.109;-5.804;-1.649;-2.48;-1.12;-134.09;0.0;0.0;0.0;0.0;-18.0;-37.0;-28.0;-78.0;-0.24;0.52;-10.61;0.76;0.25;1.02
1753875306.063808;22.109;-5.804;-1.649;-2.48;-1.12;-134.09;0.0;0.0;0.0;0.0;-18.0;-37.0;-28.0;-78.0;-0.23;0.52;-10.62;0.71;0.32;0.97
1753875306.068808;22.109;-5.804;-1.649;-2.48;-1.12;-134.09;0.0;0.0;0.0;0.0;-18.0;-37.0;-28.0;-78.0;-0.23;0.52;-10.61;0.85;0.19;1.06
1753875306.073808;22.109;-5.804;-1.649;-2.48;-1.12;-134.09;0.0;0.0;0.0;0.0;-18.0;-37.0;-28.0;-78.0;-0.24;0.52;-10.61;0.8;0.32;0.93
1753875306.078808;22.109;-5.804;-1.649;-2.48;-1.12;-134.09;0.0;0.0;0.0;0.0;-18.0;-37.0;-28.0;-78.0;-0.24;0.52;-10.62;0.91;0.38;0.86
1753875306.083808;22.109;-5.804;-1.649;-2.48;-1.12;-134.09;0.0;0.0;0.0;0.0;-18.0;-37.0;-28.0;-78.0;-0.24;0.52;-10.62;0.77;0.28;1.0
1753875306.088808;22.109;-5.804;-1.649;-2.48;-1.12;-134.09;0.0;0.0;0.0;0.0;-18.0;-37.0;-28.0;-78.0;-0.24;0.52;-10.61;0.86;0.2;0.89
1753875306.093808;22.109;-5.804;-1.649;-2.48;-1.12;-134.09;0.0;0.0;0.0;0.0;-18.0;-37.0;-28.0;-78.0;-0.24;0.52;-10.61;0.77;0.35;1.09
1753875306.098808;22.109;-5.804;-1.649;-2.48;-1.12;-134.09;0.0;0.0;0.0;0.0;-18.0;-37.0;-28.0;-78.0;-0.24;0.51;-10.6;0.83;0.4;1.11
1753875306.103808;22.109;-5.804;-1.649;-2.48;-1.12;-134.09;0.0;0.0;0.0;0.0;-18.0;-37.0;-28.0;-78.0;-0.23;0.51;-10.61;0.77;0.36;1.07
1753875306.108808;22.109;-5.804;-1.649;-2.48;-1.12;-134.09;0.0;0.0;0.0;0.0;-18.0;-37.0;-28.0;-78.0;-0.23;0.52;-10.6;0.73;0.18;0.95
1753875306.113808;22.109;-5.804;-1.649;-2.48;-1.12;-134.09;0.0;0.0;0.0;0.0;-18.0;-37.0;-28.0;-78.0;-0.23;0.51;-10.59;0.7;0.26;0.96
1753875306.118808;22.109;-5.804;-1.649;-2.48;-1.12;-134.09;0.0;0.0;0.0;0.0;-18.0;-37.0;-28.0;-78.0;-0.23;0.52;-10.58;0.78;0.51;0.97
1753875306.123808;22.109;-5.804;-1.649;-2.48;-1.12;-134.09;0.0;0.0;0.0;0.0;-18.0;-37.0;-28.0;-78.0;-0.23;0.52;-10.59;0.84;0.12;0.93
1753875306.128808;22.109;-5.804;-1.649;-2.48;-1.12;-134.09;0.0;0.0;0.0;0.0;-18.0;-37.0;-28.0;-78.0;-0.23;0.52;-10.59;0.74;0.16;0.95
1753875306.133808;22.109;-5.804;-1.649;-2.48;-1.12;-134.09;0.0;0.0;0.0;0.0;-18.0;-37.0;-28.0;-78.0;-0.23;0.53;-10.6;0.83;0.41;0.88
1753875306.138808;22.109;-5.804;-1.649;-2.48;-1.12;-134.09;0.0;0.0;0.0;0.0;-18.0;-37.0;-28.0;-78.0;-0.22;0.52;-10.59;0.77;0.26;0.98
1753875306.143808;22.109;-5.804;-1.649;-2.48;-1.12;-134.09;0.0;0.0;0.0;0.0;-18.0;-37.0;-28.0;-78.0;-0.22;0.53;-10.6;0.79;0.28;0.77
1753875306.148808;22.109;-5.804;-1.649;-2.48;-1.12;-134.09;0.0;0.0;0.0;0.0;-18.0;-37.0;-28.0;-78.0;-0.22;0.53;-10.6;0.95;0.36;0.91
1753875306.153808;22.109;-5.804;-1.649;-2.48;-1.12;-134.09;0.0;0.0;0.0;0.0;-18.0;-37.0;-28.0;-78.0;-0.22;0.53;-10.61;0.88;0.36;0.9
1753875306.158808;22.109;-5.804;-1.649;-2.48;-1.12;-134.09;0.0;0.0;0.0;0.0;-18.0;-37.0;-28.0;-78.0;-0.23;0.53;-10.6;0.87;0.37;0.98
1753875306.163808;22.109;-5.804;-1.649;-2.48;-1.12;-134.09;0.0;0.0;0.0;0.0;-18.0;-37.0;-28.0;-78.0;-0.23;0.53;-10.61;0.73;0.29;1.04
1753875306.168808;22.109;-5.804;-1.649;-2.48;-1.12;-134.09;0.0;0.0;0.0;0.0;-18.0;-37.0;-28.0;-78.0;-0.23;0.53;-10.6;0.84;0.32;0.99
1753875306.173808;22.109;-5.804;-1.649;-2.48;-1.12;-134.09;0.0;0.0;0.0;0.0;-18.0;-37.0;-28.0;-78.0;-0.23;0.53;-10.6;0.93;0.3;0.9
1753875306.178808;22.109;-5.804;-1.649;-2.48;-1.12;-134.09;0.0;0.0;0.0;0.0;-18.0;-37.0;-28.0;-78.0;-0.23;0.53;-10.6;0.66;0.28;0.93
1753875306.183808;22.109;-5.804;-1.649;-2.48;-1.12;-134.09;0.0;0.0;0.0;0.0;-18.0;-37.0;-28.0;-78.0;-0.23;0.53;-10.6;0.79;0.38;1.04
1753875306.188808;22.109;-5.804;-1.649;-2.48;-1.12;-134.09;0.0;0.0;0.0;0.0;-18.0;-37.0;-28.0;-78.0;-0.23;0.53;-10.59;0.87;0.48;0.96
1753875306.193808;22.109;-5.804;-1.649;-2.48;-1.12;-134.09;0.0;0.0;0.0;0.0;-18.0;-37.0;-28.0;-78.0;-0.24;0.53;-10.59;0.79;0.32;1.02
1753875306.198808;22.109;-5.804;-1.649;-2.48;-1.12;-134.09;0.0;0.0;0.0;0.0;-18.0;-37.0;-28.0;-78.0;-0.24;0.53;-10.59;0.72;0.3;1.04
1753875306.203808;22.109;-5.804;-1.649;-2.48;-1.12;-134.09;0.0;0.0;0.0;0.0;-18.0;-37.0;-28.0;-78.0;-0.23;0.54;-10.58;0.88;0.28;1.03
1753875306.208808;22.109;-5.804;-1.649;-2.48;-1.12;-134.09;0.0;0.0;0.0;0.0;-18.0;-37.0;-28.0;-78.0;-0.23;0.53;-10.58;0.87;0.35;0.83
1753875306.213808;22.109;-5.804;-1.649;-2.48;-1.12;-134.09;0.0;0.0;0.0;0.0;-18.0;-37.0;-28.0;-78.0;-0.23;0.53;-10.58;0.74;0.28;0.9
1753875306.218808;22.109;-5.804;-1.649;-2.48;-1.12;-134.09;0.0;0.0;0.0;0.0;-18.0;-37.0;-28.0;-78.0;-0.23;0.53;-10.58;0.87;0.22;0.9
1753875306.223808;22.109;-5.804;-1.649;-2.48;-1.12;-134.09;0.0;0.0;0.0;0.0;-18.0;-37.0;-28.0;-78.0;-0.23;0.53;-10.59;0.83;0.33;0.8
1753875306.228808;22.109;-5.804;-1.649;-2.48;-1.12;-134.09;0.0;0.0;0.0;0.0;-18.0;-37.0;-28.0;-78.0;-0.23;0.53;-10.59;0.83;0.38;0.89
1753875306.233808;22.109;-5.804;-1.649;-2.48;-1.12;-134.09;0.0;0.0;0.0;0.0;-18.0;-37.0;-28.0;-78.0;-0.24;0.53;-10.58;0.83;0.32;1.02
1753875306.238808;22.109;-5.804;-1.649;-2.48;-1.12;-134.09;0.0;0.0;0.0;0.0;-18.0;-37.0;-28.0;-78.0;-0.24;0.53;-10.59;0.87;0.29;1.05
1753875306.243808;22.109;-5.804;-1.649;-2.48;-1.12;-134.09;0.0;0.0;0.0;0.0;-18.0;-37.0;-28.0;-78.0;-0.24;0.53;-10.59;0.8;0.35;0.88
1753875306.248808;22.109;-5.804;-1.649;-2.48;-1.12;-134.09;0.0;0.0;0.0;0.0;-18.0;-37.0;-28.0;-78.0;-0.24;0.52;-10.59;0.68;0.38;0.85
1753875306.253808;22.109;-5.804;-1.649;-2.48;-1.12;-134.09;0.0;0.0;0.0;0.0;-18.0;-37.0;-28.0;-78.0;-0.23;0.52;-10.6;0.77;0.25;1.02
1753875306.258808;22.109;-5.804;-1.649;-2.48;-1.12;-134.09;0.0;0.0;0.0;0.0;-18.0;-37.0;-28.0;-78.0;-0.23;0.52;-10.6;0.74;0.27;0.96
1753875306.263808;22.109;-5.804;-1.649;-2.48;-1.12;-134.09;0.0;0.0;0.0;0.0;-18.0;-37.0;-28.0;-78.0;-0.23;0.53;-10.6;0.82;0.27;1.01
1753875306.268808;22.109;-5.804;-1.649;-2.48;-1.12;-134.09;0.0;0.0;0.0;0.0;-18.0;-37.0;-28.0;-78.0;-0.23;0.53;-10.6;0.84;0.3;1.06
1753875306.273808;22.109;-5.804;-1.649;-2.48;-1.12;-134.09;0.0;0.0;0.0;0.0;-18.0;-37.0;-28.0;-78.0;-0.23;0.53;-10.59;0.73;0.41;0.96
1753875306.278808;22.109;-5.804;-1.649;-2.48;-1.12;-134.09;0.0;0.0;0.0;0.0;-18.0;-37.0;-28.0;-78.0;-0.23;0.53;-10.59;0.83;0.3;1.04
1753875306.283808;22.109;-5.804;-1.649;-2.48;-1.12;-134.09;0.0;0.0;0.0;0.0;-18.0;-37.0;-28.0;-78.0;-0.23;0.54;-10.6;0.7;0.31;0.93
1753875306.288808;22.109;-5.804;-1.649;-2.48;-1.12;-134.09;0.0;0.0;0.0;0.0;-18.0;-37.0;-28.0;-78.0;-0.23;0.54;-10.6;0.73;0.42;1.02
1753875306.293808;22.109;-5.804;-1.649;-2.48;-1.12;-134.09;0.0;0.0;0.0;0.0;-18.0;-37.0;-28.0;-78.0;-0.23;0.54;-10.59;0.84;0.29;1.03
1753875306.298808;22.109;-5.804;-1.649;-2.48;-1.12;-134.09;0.0;0.0;0.0;0.0;-18.0;-37.0;-28.0;-78.0;-0.23;0.54;-10.6;0.87;0.25;1.02
1753875306.303808;22.109;-5.804;-1.649;-2.48;-1.12;-134.09;0.0;0.0;0.0;0.0;-18.0;-37.0;-28.0;-78.0;-0.23;0.55;-10.6;0.7;0.29;1.01
1753875306.308808;22.109;-5.804;-1.649;-2.48;-1.12;-134.09;0.0;0.0;0.0;0.0;-18.0;-37.0;-28.0;-78.0;-0.23;0.54;-10.6;0.82;0.27;1.04
1753875306.313808;22.109;-5.804;-1.649;-2.48;-1.12;-134.09;0.0;0.0;0.0;0.0;-18.0;-37.0;-28.0;-78.0;-0.23;0.55;-10.59;0.83;0.23;0.96
1753875306.318808;22.109;-5.804;-1.649;-2.48;-1.12;-134.09;0.0;0.0;0.0;0.0;-18.0;-37.0;-28.0;-78.0;-0.23;0.54;-10.6;0.85;0.25;0.83
1753875306.323808;22.109;-5.804;-1.649;-2.48;-1.12;-134.09;0.0;0.0;0.0;0.0;-18.0;-37.0;-28.0;-78.0;-0.23;0.55;-10.61;0.87;0.23;0.97
1753875306.328808;22.109;-5.804;-1.649;-2.48;-1.12;-134.09;0.0;0.0;0.0;0.0;-18.0;-37.0;-28.0;-78.0;-0.22;0.54;-10.61;0.8;0.34;0.81
1753875306.333808;22.109;-5.804;-1.649;-2.48;-1.12;-134.09;0.0;0.0;0.0;0.0;-18.0;-37.0;-28.0;-78.0;-0.23;0.54;-10.61;0.83;0.28;0.95
1753875306.338808;22.109;-5.804;-1.649;-2.48;-1.12;-134.09;0.0;0.0;0.0;0.0;-18.0;-37.0;-28.0;-78.0;-0.22;0.54;-10.62;0.77;0.38;1.08
1753875306.343808;22.109;-5.804;-1.649;-2.48;-1.12;-134.09;0.0;0.0;0.0;0.0;-18.0;-37.1;-28.0;-78.0;-0.22;0.52;-10.63;0.78;0.4;1.22
1753875306.348808;22.109;-5.804;-1.649;-2.48;-1.12;-134.09;0.0;0.0;0.0;0.0;-18.0;-36.9;-28.0;-78.0;-0.23;0.54;-10.62;0.69;0.42;0.99
1753875306.353808;22.109;-5.804;-1.649;-2.48;-1.12;-134.09;0.0;0.0;0.0;0.0;-18.0;-37.0;-28.0;-78.0;-0.22;0.53;-10.6;0.87;0.38;1.12
1753875306.358808;22.109;-5.804;-1.649;-2.48;-1.12;-134.09;0.0;0.0;0.0;0.0;-18.0;-37.0;-28.0;-78.0;-0.22;0.54;-10.62;0.84;0.43;1.13
1753875306.363808;22.109;-5.804;-1.649;-2.48;-1.12;-134.09;0.0;0.0;0.0;0.0;-18.0;-36.9;-28.0;-78.0;-0.23;0.54;-10.62;0.88;0.37;1.05
1753875306.368808;22.109;-5.804;-1.649;-2.48;-1.12;-134.09;0.0;0.0;0.0;0.0;-18.0;-37.2;-28.0;-78.0;-0.23;0.54;-10.61;0.65;0.28;1.07
1753875306.373808;22.109;-5.804;-1.649;-2.48;-1.11;-134.09;0.0;0.0;0.0;0.0;-18.0;-37.4;-28.0;-78.0;-0.22;0.54;-10.6;0.73;0.43;0.98
1753875306.378809;22.109;-5.804;-1.649;-2.48;-1.12;-134.09;0.0;0.0;0.0;0.0;-18.0;-37.1;-28.0;-78.0;-0.23;0.54;-10.6;0.8;0.39;1.16
1753875306.383809;22.109;-5.804;-1.649;-2.48;-1.12;-134.09;0.0;0.0;0.0;0.0;-18.0;-36.9;-28.0;-78.0;-0.23;0.53;-10.62;0.88;0.29;1.03
1753875306.388809;22.109;-5.804;-1.649;-2.48;-1.12;-134.09;0.0;0.0;0.0;0.0;-18.0;-37.0;-28.0;-78.0;-0.23;0.53;-10.61;0.7;0.36;0.9
1753875306.393809;22.109;-5.804;-1.649;-2.49;-1.12;-134.09;0.0;0.0;0.0;0.0;-18.0;-37.4;-28.0;-78.0;-0.22;0.54;-10.61;0.76;0.42;1.12
1753875306.398809;22.109;-5.804;-1.649;-2.48;-1.11;-134.09;0.0;0.0;0.0;0.0;-18.0;-37.3;-28.0;-78.0;-0.23;0.54;-10.61;0.61;0.37;1.01
1753875306.403809;22.109;-5.804;-1.649;-2.48;-1.11;-134.09;0.0;0.0;0.0;0.0;-18.0;-37.4;-28.0;-78.0;-0.24;0.55;-10.61;0.76;0.3;1.1
1753875306.40881;22.109;-5.804;-1.649;-2.48;-1.12;-134.09;0.0;0.0;0.0;0.0;-18.0;-37.5;-28.0;-78.0;-0.23;0.55;-10.59;0.85;0.4;1.07
1753875306.41381;22.109;-5.804;-1.649;-2.49;-1.12;-134.09;0.0;0.0;0.0;0.0;-18.0;-37.5;-28.0;-78.0;-0.23;0.53;-10.6;0.75;0.34;0.89
1753875306.41881;22.109;-5.804;-1.649;-2.48;-1.12;-134.09;0.0;0.0;0.0;0.0;-18.0;-37.6;-28.0;-78.0;-0.23;0.54;-10.59;0.74;0.28;1.05
1753875306.42381;22.109;-5.804;-1.649;-2.49;-1.12;-134.09;0.0;0.0;0.0;0.0;-18.0;-37.5;-28.0;-78.0;-0.24;0.53;-10.6;0.76;0.25;0.96
1753875306.42881;22.109;-5.804;-1.649;-2.49;-1.11;-134.09;0.0;0.0;0.0;0.0;-18.0;-37.7;-28.0;-78.0;-0.23;0.52;-10.62;0.74;0.37;0.99
1753875306.43381;22.109;-5.804;-1.649;-2.49;-1.11;-134.09;0.0;0.0;0.0;0.0;-18.0;-37.3;-28.0;-78.0;-0.23;0.54;-10.58;0.81;0.27;0.91
1753875306.43881;22.109;-5.804;-1.649;-2.49;-1.12;-134.09;0.0;0.0;0.0;0.0;-18.0;-37.6;-28.0;-78.0;-0.24;0.54;-10.6;0.87;0.37;0.98
1753875306.44381;22.109;-5.804;-1.649;-2.49;-1.11;-134.09;0.0;0.0;0.0;0.0;-18.0;-37.5;-28.0;-78.0;-0.23;0.55;-10.59;0.74;0.3;0.96
1753875306.44881;22.109;-5.804;-1.649;-2.49;-1.11;-134.09;0.0;0.0;0.0;0.0;-18.0;-37.4;-28.0;-78.0;-0.24;0.54;-10.59;0.78;0.3;0.94
1753875306.45381;22.109;-5.804;-1.649;-2.48;-1.11;-134.09;0.0;0.0;0.0;0.0;-18.0;-37.6;-28.0;-78.0;-0.24;0.53;-10.6;0.84;0.37;1.02
1753875306.45881;22.109;-5.804;-1.649;-2.48;-1.11;-134.09;0.0;0.0;0.0;0.0;-18.0;-38.1;-28.0;-78.0;-0.24;0.53;-10.58;0.71;0.31;0.98
1753875306.463811;22.109;-5.804;-1.649;-2.49;-1.12;-134.09;0.0;0.0;0.0;0.0;-18.0;-37.8;-28.0;-78.0;-0.23;0.53;-10.58;0.74;0.31;0.95
1753875306.468811;22.109;-5.804;-1.649;-2.49;-1.11;-134.09;0.0;0.0;0.0;0.0;-18.0;-37.6;-28.0;-78.0;-0.22;0.53;-10.6;0.73;0.37;0.9
1753875306.473811;22.109;-5.804;-1.649;-2.49;-1.12;-134.09;0.0;0.0;0.0;0.0;-18.0;-37.5;-28.0;-78.0;-0.24;0.55;-10.57;0.66;0.38;0.99
1753875306.478811;22.109;-5.804;-1.649;-2.49;-1.11;-134.09;0.0;0.0;0.0;0.0;-18.0;-37.6;-28.0;-78.0;-0.23;0.54;-10.58;0.73;0.32;0.98
1753875306.483811;22.109;-5.804;-1.649;-2.49;-1.11;-134.09;0.0;0.0;0.0;0.0;-18.0;-37.8;-28.0;-78.0;-0.24;0.53;-10.6;0.72;0.33;0.86
1753875306.488811;22.109;-5.804;-1.649;-2.49;-1.11;-134.09;0.0;0.0;0.0;0.0;-18.0;-37.9;-28.0;-78.0;-0.24;0.53;-10.59;0.76;0.48;1.01
1753875306.493811;22.109;-5.804;-1.649;-2.49;-1.11;-134.09;0.0;0.0;0.0;0.0;-18.0;-37.9;-28.0;-78.0;-0.24;0.52;-10.59;0.65;0.31;1.09
1753875306.498812;22.109;-5.804;-1.649;-2.49;-1.11;-134.09;0.0;0.0;0.0;0.0;-18.0;-38.0;-28.0;-78.0;-0.24;0.53;-10.58;0.71;0.38;1.11
1753875306.503812;22.109;-5.804;-1.649;-2.5;-1.11;-134.09;0.0;0.0;0.0;0.0;-18.0;-38.0;-28.0;-78.0;-0.24;0.54;-10.6;0.73;0.44;0.99
1753875306.508808;22.109;-5.804;-1.649;-2.49;-1.11;-134.09;0.0;0.0;0.0;0.0;-18.0;-38.0;-28.0;-78.0;-0.24;0.53;-10.58;0.74;0.33;0.96
1753875306.513808;22.109;-5.804;-1.649;-2.49;-1.11;-134.09;0.0;0.0;0.0;0.0;-18.0;-38.0;-28.0;-78.0;-0.24;0.53;-10.59;0.76;0.33;0.95
1753875306.518808;22.109;-5.804;-1.649;-2.49;-1.11;-134.09;0.0;0.0;0.0;0.0;-18.0;-38.0;-28.0;-78.0;-0.25;0.53;-10.59;0.76;0.28;0.86
1753875306.523808;22.109;-5.804;-1.649;-2.49;-1.11;-134.09;0.0;0.0;0.0;0.0;-18.0;-38.0;-28.0;-78.0;-0.24;0.54;-10.59;0.83;0.44;1.03
1753875306.528808;22.109;-5.804;-1.649;-2.49;-1.11;-134.09;0.0;0.0;0.0;0.0;-18.0;-38.0;-28.0;-78.0;-0.24;0.54;-10.59;0.72;0.42;0.84
1753875306.533808;22.109;-5.804;-1.649;-2.49;-1.11;-134.09;0.0;0.0;0.0;0.0;-18.0;-38.0;-28.0;-78.0;-0.24;0.54;-10.6;0.81;0.41;0.99
1753875306.538808;22.109;-5.804;-1.649;-2.49;-1.11;-134.09;0.0;0.0;0.0;0.0;-18.0;-38.0;-28.0;-78.0;-0.24;0.54;-10.6;0.92;0.28;1.07
1753875306.543808;22.109;-5.804;-1.649;-2.49;-1.11;-134.09;0.0;0.0;0.0;0.0;-18.0;-38.0;-28.0;-78.0;-0.23;0.54;-10.59;0.79;0.38;1.04
1753875306.548808;22.109;-5.804;-1.649;-2.49;-1.11;-134.09;0.0;0.0;0.0;0.0;-18.0;-38.0;-28.0;-78.0;-0.23;0.53;-10.6;0.81;0.2;1.12
1753875306.553808;22.109;-5.804;-1.649;-2.49;-1.11;-134.09;0.0;0.0;0.0;0.0;-18.0;-38.0;-28.0;-78.0;-0.24;0.53;-10.61;0.83;0.37;0.89
1753875306.558808;22.109;-5.804;-1.649;-2.49;-1.11;-134.09;0.0;0.0;0.0;0.0;-18.0;-38.0;-28.0;-78.0;-0.23;0.53;-10.6;0.77;0.35;0.97
1753875306.563808;22.109;-5.804;-1.649;-2.49;-1.11;-134.09;0.0;0.0;0.0;0.0;-18.0;-38.0;-28.0;-78.0;-0.23;0.53;-10.6;0.65;0.35;0.89
1753875306.568808;22.109;-5.804;-1.649;-2.49;-1.11;-134.09;0.0;0.0;0.0;0.0;-18.0;-38.0;-28.0;-78.0;-0.23;0.53;-10.6;0.79;0.3;0.98
1753875306.573808;22.109;-5.804;-1.649;-2.49;-1.11;-134.09;0.0;0.0;0.0;0.0;-18.0;-38.0;-28.0;-78.0;-0.23;0.52;-10.6;0.82;0.19;1.04
1753875306.578808;22.109;-5.804;-1.649;-2.49;-1.11;-134.09;0.0;0.0;0.0;0.0;-18.0;-38.0;-28.0;-78.0;-0.23;0.52;-10.6;0.77;0.52;0.93
1753875306.583808;22.109;-5.804;-1.649;-2.49;-1.11;-134.09;0.0;0.0;0.0;0.0;-18.0;-38.0;-28.0;-78.0;-0.24;0.53;-10.6;0.8;0.34;0.9
1753875306.588808;22.109;-5.804;-1.649;-2.49;-1.11;-134.09;0.0;0.0;0.0;0.0;-18.0;-38.0;-28.0;-78.0;-0.24;0.53;-10.59;0.98;0.3;0.83
1753875306.593808;22.109;-5.804;-1.649;-2.49;-1.11;-134.09;0.0;0.0;0.0;0.0;-18.0;-38.0;-28.0;-78.0;-0.24;0.53;-10.6;0.85;0.28;0.93
1753875306.598808;22.109;-5.804;-1.649;-2.49;-1.11;-134.09;0.0;0.0;0.0;0.0;-18.0;-38.0;-28.0;-78.0;-0.23;0.53;-10.61;0.8;0.38;1.07
1753875306.603808;22.109;-5.804;-1.649;-2.49;-1.11;-134.09;0.0;0.0;0.0;0.0;-18.0;-38.0;-28.0;-78.0;-0.24;0.53;-10.61;0.92;0.26;0.97
1753875306.608808;22.109;-5.804;-1.649;-2.49;-1.11;-134.09;0.0;0.0;0.0;0.0;-18.0;-38.0;-28.0;-78.0;-0.24;0.53;-10.61;0.72;0.33;0.86
1753875306.613808;22.109;-5.804;-1.649;-2.49;-1.11;-134.09;0.0;0.0;0.0;0.0;-18.0;-38.0;-28.0;-78.0;-0.24;0.54;-10.61;0.81;0.35;0.89
1753875306.618808;22.109;-5.804;-1.649;-2.49;-1.11;-134.09;0.0;0.0;0.0;0.0;-18.0;-38.0;-28.0;-78.0;-0.24;0.53;-10.61;0.81;0.19;0.99
1753875306.623808;22.109;-5.804;-1.649;-2.49;-1.11;-134.09;0.0;0.0;0.0;0.0;-18.0;-38.0;-28.0;-78.0;-0.24;0.53;-10.61;0.74;0.28;1.06
1753875306.628808;22.109;-5.804;-1.649;-2.49;-1.11;-134.09;0.0;0.0;0.0;0.0;-18.0;-38.0;-28.0;-78.0;-0.24;0.53;-10.61;0.83;0.34;0.99
1753875306.633808;22.109;-5.804;-1.649;-2.49;-1.11;-134.09;0.0;0.0;0.0;0.0;-18.0;-38.0;-28.0;-78.0;-0.24;0.53;-10.61;0.88;0.32;1.04
1753875306.638808;22.109;-5.804;-1.649;-2.49;-1.11;-134.09;0.0;0.0;0.0;0.0;-18.0;-38.0;-28.0;-78.0;-0.24;0.52;-10.6;0.83;0.36;0.96
1753875306.643808;22.109;-5.804;-1.649;-2.49;-1.11;-134.09;0.0;0.0;0.0;0.0;-18.0;-38.0;-28.0;-78.0;-0.24;0.52;-10.61;0.82;0.34;0.94
1753875306.648808;22.109;-5.804;-1.649;-2.49;-1.11;-134.09;0.0;0.0;0.0;0.0;-18.0;-38.0;-28.0;-78.0;-0.24;0.53;-10.6;0.86;0.25;0.99
1753875306.653808;22.109;-5.804;-1.649;-2.49;-1.11;-134.09;0.0;0.0;0.0;0.0;-18.0;-38.0;-28.0;-78.0;-0.24;0.52;-10.59;0.78;0.28;1.02
1753875306.658808;22.109;-5.804;-1.649;-2.49;-1.11;-134.09;0.0;0.0;0.0;0.0;-18.0;-38.0;-28.0;-78.0;-0.24;0.52;-10.59;0.84;0.26;1.11
1753875306.663808;22.109;-5.804;-1.649;-2.49;-1.11;-134.09;0.0;0.0;0.0;0.0;-18.0;-38.0;-28.0;-78.0;-0.24;0.52;-10.59;0.89;0.21;1.12
1753875306.668808;22.109;-5.804;-1.649;-2.49;-1.11;-134.09;0.0;0.0;0.0;0.0;-18.0;-38.0;-28.0;-78.0;-0.25;0.52;-10.6;0.75;0.38;0.97
1753875306.673808;22.109;-5.804;-1.649;-2.49;-1.11;-134.09;0.0;0.0;0.0;0.0;-18.0;-38.0;-28.0;-78.0;-0.24;0.52;-10.59;0.87;0.32;0.86
1753875306.678808;22.109;-5.804;-1.649;-2.49;-1.11;-134.09;0.0;0.0;0.0;0.0;-18.0;-38.0;-28.0;-78.0;-0.24;0.52;-10.6;0.74;0.35;0.9
1753875306.683808;22.109;-5.804;-1.649;-2.49;-1.11;-134.09;0.0;0.0;0.0;0.0;-18.0;-38.0;-28.0;-78.0;-0.23;0.52;-10.59;0.7;0.16;0.96
1753875306.688808;22.109;-5.804;-1.649;-2.49;-1.11;-134.09;0.0;0.0;0.0;0.0;-18.0;-38.0;-28.0;-78.0;-0.24;0.51;-10.59;0.72;0.26;0.89
1753875306.693808;22.109;-5.804;-1.649;-2.49;-1.11;-134.09;0.0;0.0;0.0;0.0;-18.0;-38.0;-28.0;-78.0;-0.24;0.52;-10.59;0.94;0.16;1.02
1753875306.698808;22.109;-5.804;-1.649;-2.49;-1.11;-134.09;0.0;0.0;0.0;0.0;-18.0;-38.0;-28.0;-78.0;-0.24;0.52;-10.59;0.85;0.32;1.04
1753875306.703808;22.109;-5.804;-1.649;-2.49;-1.11;-134.09;0.0;0.0;0.0;0.0;-18.0;-38.0;-28.0;-78.0;-0.24;0.52;-10.6;0.68;0.39;1.01
1753875306.708808;22.109;-5.804;-1.649;-2.49;-1.11;-134.09;0.0;0.0;0.0;0.0;-18.0;-38.0;-28.0;-78.0;-0.24;0.52;-10.6;0.85;0.37;1.02
1753875306.713808;22.109;-5.804;-1.649;-2.49;-1.11;-134.09;0.0;0.0;0.0;0.0;-18.0;-38.0;-28.0;-78.0;-0.25;0.52;-10.6;0.64;0.17;0.92
1753875306.718808;22.109;-5.804;-1.649;-2.49;-1.11;-134.09;0.0;0.0;0.0;0.0;-18.0;-38.0;-28.0;-78.0;-0.25;0.52;-10.6;0.81;0.2;1.07
1753875306.723808;22.109;-5.804;-1.649;-2.49;-1.11;-134.09;0.0;0.0;0.0;0.0;-18.0;-38.0;-28.0;-78.0;-0.24;0.52;-10.58;0.8;0.32;0.93
1753875306.728808;22.109;-5.804;-1.649;-2.49;-1.11;-134.09;0.0;0.0;0.0;0.0;-18.0;-38.0;-28.0;-78.0;-0.24;0.52;-10.59;0.71;0.26;0.88
1753875306.733808;22.109;-5.804;-1.649;-2.49;-1.11;-134.09;0.0;0.0;0.0;0.0;-18.0;-38.0;-28.0;-78.0;-0.24;0.52;-10.59;0.74;0.27;1.03
1753875306.738808;22.109;-5.804;-1.649;-2.49;-1.11;-134.09;0.0;0.0;0.0;0.0;-18.0;-38.0;-28.0;-78.0;-0.25;0.53;-10.59;0.69;0.41;0.88
1753875306.743808;22.109;-5.804;-1.649;-2.49;-1.11;-134.09;0.0;0.0;0.0;0.0;-17.0;-38.4;-28.0;-78.0;-0.25;0.53;-10.58;0.8;0.41;0.72
1753875306.748808;22.109;-5.804;-1.649;-2.49;-1.11;-134.09;0.0;0.0;0.0;0.0;-17.9;-38.1;-28.0;-78.0;-0.25;0.53;-10.6;0.62;0.44;0.72
1753875306.753808;22.109;-5.804;-1.649;-2.49;-1.11;-134.09;0.0;0.0;0.0;0.0;-17.7;-38.2;-28.0;-78.0;-0.26;0.53;-10.6;0.64;0.36;0.98
1753875306.758808;22.109;-5.804;-1.649;-2.49;-1.11;-134.09;0.0;0.0;0.0;0.0;-17.9;-37.2;-28.0;-78.0;-0.24;0.53;-10.59;0.77;0.37;0.84
1753875306.763808;22.109;-5.804;-1.649;-2.49;-1.11;-134.09;0.0;0.0;0.0;0.0;-18.6;-37.7;-28.0;-78.0;-0.26;0.53;-10.6;0.63;0.36;0.85
1753875306.768808;22.109;-5.804;-1.649;-2.49;-1.11;-134.09;0.0;0.0;0.0;0.0;-19.6;-38.0;-28.0;-78.0;-0.25;0.53;-10.61;0.66;0.43;0.85
1753875306.773809;22.109;-5.804;-1.649;-2.49;-1.12;-134.09;0.0;0.0;0.0;0.0;-20.9;-38.2;-28.0;-78.0;-0.25;0.53;-10.59;0.65;0.43;1.02
1753875306.778809;22.109;-5.804;-1.649;-2.49;-1.11;-134.09;0.0;0.0;0.0;0.0;-18.0;-37.1;-28.0;-78.0;-0.24;0.53;-10.6;0.77;0.34;0.93
1753875306.783809;22.109;-5.804;-1.649;-2.49;-1.11;-134.09;0.0;0.0;0.0;0.0;-18.6;-36.7;-28.0;-78.0;-0.23;0.53;-10.59;0.61;0.43;0.85
1753875306.788809;22.109;-5.804;-1.649;-2.49;-1.12;-134.09;0.0;0.0;0.0;0.0;-18.2;-37.5;-28.0;-78.0;-0.25;0.52;-10.62;0.52;0.46;0.83
1753875306.793809;22.109;-5.804;-1.649;-2.49;-1.12;-134.09;0.0;0.0;0.0;0.0;-19.8;-37.3;-28.0;-78.0;-0.23;0.53;-10.6;0.7;0.56;0.99
1753875306.798809;22.109;-5.804;-1.649;-2.48;-1.11;-134.09;0.0;0.0;0.0;0.0;-18.8;-37.6;-28.0;-78.0;-0.24;0.53;-10.59;0.55;0.43;0.89
1753875306.80381;22.109;-5.804;-1.649;-2.48;-1.12;-134.09;0.0;0.0;0.0;0.0;-20.2;-37.6;-28.0;-78.0;-0.24;0.53;-10.6;0.83;0.41;0.92
1753875306.80881;22.109;-5.804;-1.649;-2.49;-1.11;-134.09;0.0;0.0;0.0;0.0;-18.6;-36.3;-28.0;-78.0;-0.24;0.53;-10.6;0.75;0.36;0.74
1753875306.81381;22.109;-5.804;-1.649;-2.48;-1.11;-134.09;0.0;0.0;0.0;0.0;-20.1;-36.9;-28.0;-78.0;-0.24;0.52;-10.61;0.67;0.38;0.87
1753875306.81881;22.109;-5.804;-1.649;-2.49;-1.12;-134.09;0.0;0.0;0.0;0.0;-20.5;-36.5;-28.0;-78.0;-0.24;0.53;-10.61;0.61;0.56;0.79
1753875306.82381;22.109;-5.804;-1.649;-2.48;-1.11;-134.09;0.0;0.0;0.0;0.0;-20.5;-36.2;-28.0;-78.0;-0.24;0.53;-10.61;0.55;0.44;0.85
1753875306.82881;22.109;-5.804;-1.649;-2.48;-1.12;-134.09;0.0;0.0;0.0;0.0;-23.1;-36.8;-28.0;-78.0;-0.24;0.53;-10.62;0.73;0.36;0.92
1753875306.83381;22.109;-5.804;-1.649;-2.48;-1.11;-134.09;0.0;0.0;0.0;0.0;-20.6;-36.8;-28.0;-78.0;-0.24;0.54;-10.61;0.79;0.43;0.93
1753875306.83881;22.109;-5.804;-1.649;-2.48;-1.12;-134.09;0.0;0.0;0.0;0.0;-20.4;-36.9;-28.0;-78.0;-0.23;0.52;-10.62;0.58;0.33;0.85
1753875306.84381;22.109;-5.804;-1.649;-2.48;-1.12;-134.09;0.0;0.0;0.0;0.0;-21.4;-37.2;-28.0;-78.0;-0.23;0.54;-10.62;0.66;0.49;0.86
1753875306.84881;22.109;-5.804;-1.649;-2.48;-1.12;-134.09;0.0;0.0;0.0;0.0;-21.7;-36.5;-28.0;-78.0;-0.23;0.54;-10.61;0.64;0.39;0.97
1753875306.85381;22.109;-5.804;-1.649;-2.48;-1.12;-134.09;0.0;0.0;0.0;0.0;-20.1;-36.7;-28.0;-78.0;-0.24;0.53;-10.62;0.61;0.3;0.91
1753875306.858811;22.109;-5.804;-1.649;-2.48;-1.12;-134.09;0.0;0.0;0.0;0.0;-22.1;-35.6;-28.0;-78.0;-0.23;0.52;-10.62;0.72;0.38;0.94
1753875306.863811;22.109;-5.804;-1.649;-2.48;-1.12;-134.09;0.0;0.0;0.0;0.0;-21.9;-36.1;-28.0;-78.0;-0.23;0.52;-10.61;0.78;0.37;0.94
1753875306.868811;22.109;-5.804;-1.649;-2.48;-1.12;-134.09;0.0;0.0;0.0;0.0;-20.6;-36.5;-28.0;-78.0;-0.23;0.53;-10.63;0.66;0.46;0.81
1753875306.873811;22.109;-5.804;-1.649;-2.47;-1.13;-134.09;0.0;0.0;0.0;0.0;-21.2;-35.6;-28.0;-78.0;-0.23;0.53;-10.62;0.66;0.39;0.95
1753875306.878808;22.109;-5.804;-1.649;-2.48;-1.12;-134.09;0.0;0.0;0.0;0.0;-22.0;-36.0;-28.0;-78.0;-0.23;0.53;-10.62;0.71;0.38;0.89
1753875306.883808;22.109;-5.804;-1.649;-2.48;-1.12;-134.09;0.0;0.0;0.0;0.0;-22.0;-36.0;-28.0;-78.0;-0.23;0.54;-10.62;0.74;0.39;0.9
1753875306.888808;22.109;-5.804;-1.649;-2.48;-1.12;-134.09;0.0;0.0;0.0;0.0;-20.6;-36.4;-28.0;-78.0;-0.24;0.54;-10.63;0.72;0.4;0.86
1753875306.893808;22.109;-5.804;-1.649;-2.48;-1.12;-134.09;0.0;0.0;0.0;0.0;-20.9;-36.8;-28.0;-78.0;-0.22;0.53;-10.61;0.78;0.27;1.0
1753875306.898808;22.109;-5.804;-1.649;-2.48;-1.12;-134.09;0.0;0.0;0.0;0.0;-22.7;-36.7;-28.0;-78.0;-0.23;0.54;-10.62;0.71;0.5;0.76
1753875306.903808;22.109;-5.804;-1.649;-2.48;-1.12;-134.09;0.0;0.0;0.0;0.0;-18.7;-35.2;-28.0;-78.0;-0.24;0.54;-10.61;0.7;0.3;0.87
1753875306.908808;22.109;-5.804;-1.649;-2.48;-1.12;-134.09;0.0;0.0;0.0;0.0;-21.3;-36.0;-28.0;-78.0;-0.24;0.53;-10.61;0.76;0.19;0.79
1753875306.913808;22.109;-5.804;-1.649;-2.48;-1.12;-134.09;0.0;0.0;0.0;0.0;-19.5;-37.0;-28.0;-78.0;-0.23;0.54;-10.62;0.63;0.44;0.93
1753875306.918809;22.109;-5.804;-1.649;-2.49;-1.12;-134.09;0.0;0.0;0.0;0.0;-21.3;-35.4;-28.0;-78.0;-0.24;0.55;-10.62;0.79;0.33;0.88
1753875306.923809;22.109;-5.804;-1.649;-2.48;-1.12;-134.09;0.0;0.0;0.0;0.0;-20.4;-37.0;-28.0;-78.0;-0.23;0.54;-10.62;0.66;0.27;1.0
1753875306.928809;22.109;-5.804;-1.649;-2.48;-1.12;-134.09;0.0;0.0;0.0;0.0;-20.3;-36.5;-28.0;-78.0;-0.24;0.53;-10.62;0.84;0.39;0.99
1753875306.933809;22.109;-5.804;-1.649;-2.49;-1.12;-134.09;0.0;0.0;0.0;0.0;-21.0;-37.5;-28.0;-78.0;-0.23;0.54;-10.62;0.65;0.15;0.8
1753875306.938809;22.109;-5.804;-1.649;-2.48;-1.11;-134.09;0.0;0.0;0.0;0.0;-18.6;-36.8;-28.0;-78.0;-0.23;0.54;-10.61;0.79;0.5;0.82
1753875306.943809;22.109;-5.804;-1.649;-2.49;-1.11;-134.09;0.0;0.0;0.0;0.0;-20.7;-36.6;-28.0;-78.0;-0.24;0.54;-10.63;0.85;0.25;0.82
1753875306.94881;22.109;-5.804;-1.649;-2.48;-1.12;-134.09;0.0;0.0;0.0;0.0;-19.9;-37.4;-28.0;-78.0;-0.23;0.53;-10.61;0.83;0.39;0.97
1753875306.95381;22.109;-5.804;-1.649;-2.49;-1.11;-134.09;0.0;0.0;0.0;0.0;-20.3;-36.9;-28.0;-78.0;-0.23;0.55;-10.6;0.61;0.2;0.81
1753875306.95881;22.109;-5.804;-1.649;-2.48;-1.11;-134.09;0.0;0.0;0.0;0.0;-18.0;-38.0;-28.0;-78.0;-0.24;0.55;-10.62;0.92;0.22;0.88
1753875306.96381;22.109;-5.804;-1.649;-2.48;-1.12;-134.09;0.0;0.0;0.0;0.0;-18.5;-36.9;-28.0;-78.0;-0.23;0.53;-10.61;0.7;0.13;0.72
1753875306.96881;22.109;-5.804;-1.649;-2.49;-1.12;-134.09;0.0;0.0;0.0;0.0;-20.8;-36.0;-28.0;-78.0;-0.23;0.54;-10.62;0.74;0.17;0.92
1753875306.97381;22.109;-5.804;-1.649;-2.48;-1.12;-134.09;0.0;0.0;0.0;0.0;-17.5;-35.7;-28.0;-78.0;-0.24;0.53;-10.61;0.78;0.05;0.88
1753875306.97881;22.109;-5.804;-1.649;-2.48;-1.12;-134.09;0.0;0.0;0.0;0.0;-19.2;-36.7;-28.0;-78.0;-0.24;0.55;-10.61;0.87;0.33;1.01
1753875306.98381;22.109;-5.804;-1.649;-2.48;-1.11;-134.09;0.0;0.0;0.0;0.0;-18.1;-36.0;-28.0;-78.0;-0.25;0.55;-10.62;0.88;0.27;0.79
1753875306.98881;22.109;-5.804;-1.649;-2.49;-1.11;-134.09;0.0;0.0;0.0;0.0;-18.7;-36.9;-28.0;-78.0;-0.24;0.54;-10.59;0.65;0.32;0.98
1753875306.99381;22.109;-5.804;-1.649;-2.49;-1.11;-134.09;0.0;0.0;0.0;0.0;-18.6;-35.8;-28.0;-78.0;-0.24;0.53;-10.61;0.7;0.11;1.07
1753875306.99881;22.109;-5.804;-1.649;-2.49;-1.12;-134.09;0.0;0.0;0.0;0.0;-18.4;-37.0;-28.0;-78.0;-0.24;0.54;-10.59;0.82;0.37;0.91
1753875307.003811;22.109;-5.804;-1.649;-2.49;-1.11;-134.09;0.0;0.0;0.0;0.0;-20.4;-36.5;-28.0;-78.0;-0.23;0.54;-10.62;0.82;0.25;0.79
1753875307.008811;22.109;-5.804;-1.649;-2.49;-1.11;-134.09;0.0;0.0;0.0;0.0;-18.4;-37.2;-28.0;-78.0;-0.24;0.54;-10.57;0.83;0.32;0.85
1753875307.013811;22.109;-5.804;-1.649;-2.49;-1.12;-134.09;0.0;0.0;0.0;0.0;-17.0;-37.1;-28.0;-78.0;-0.24;0.53;-10.59;0.79;0.32;1.03
1753875307.018811;22.109;-5.804;-1.649;-2.49;-1.11;-134.09;0.0;0.0;0.0;0.0;-14.6;-36.6;-28.0;-78.0;-0.23;0.53;-10.59;0.83;0.24;0.88
1753875307.023811;22.109;-5.804;-1.649;-2.49;-1.11;-134.09;0.0;0.0;0.0;0.0;-18.3;-37.0;-28.0;-78.0;-0.23;0.54;-10.6;0.76;0.29;0.88
1753875307.028811;22.109;-5.804;-1.649;-2.49;-1.11;-134.09;0.0;0.0;0.0;0.0;-17.2;-37.2;-28.0;-78.0;-0.23;0.54;-10.59;0.81;0.28;0.98
1753875307.033811;22.109;-5.804;-1.649;-2.49;-1.11;-134.09;0.0;0.0;0.0;0.0;-16.3;-36.3;-28.0;-78.0;-0.24;0.55;-10.59;0.89;0.1;0.85
1753875307.038812;22.109;-5.804;-1.649;-2.49;-1.11;-134.09;0.0;0.0;0.0;0.0;-17.3;-37.5;-28.0;-78.0;-0.24;0.54;-10.6;0.81;0.07;0.71
1753875307.043812;22.109;-5.804;-1.649;-2.49;-1.11;-134.09;0.0;0.0;0.0;0.0;-15.0;-36.8;-28.0;-78.0;-0.24;0.53;-10.58;0.78;0.17;0.91
1753875307.048812;22.109;-5.804;-1.649;-2.5;-1.11;-134.09;0.0;0.0;0.0;0.0;-16.9;-37.5;-28.0;-78.0;-0.24;0.53;-10.59;0.91;0.08;0.93
1753875307.053812;22.109;-5.804;-1.649;-2.49;-1.11;-134.09;0.0;0.0;0.0;0.0;-15.0;-38.0;-28.0;-78.0;-0.25;0.54;-10.58;0.79;0.23;0.92
1753875307.058808;22.109;-5.804;-1.649;-2.49;-1.11;-134.09;0.0;0.0;0.0;0.0;-16.0;-37.0;-28.0;-78.0;-0.24;0.54;-10.59;0.79;0.16;0.9
1753875307.063808;22.109;-5.804;-1.649;-2.49;-1.11;-134.09;0.0;0.0;0.0;0.0;-16.0;-37.0;-28.0;-78.0;-0.24;0.54;-10.59;0.7;0.41;1.04
1753875307.068808;22.109;-5.804;-1.649;-2.49;-1.11;-134.09;0.0;0.0;0.0;0.0;-16.0;-37.0;-28.0;-78.0;-0.23;0.53;-10.6;0.88;0.41;1.0
1753875307.073808;22.109;-5.804;-1.649;-2.49;-1.11;-134.09;0.0;0.0;0.0;0.0;-16.0;-37.0;-28.0;-78.0;-0.23;0.53;-10.6;0.91;0.51;0.93
1753875307.078808;22.109;-5.804;-1.649;-2.49;-1.11;-134.09;0.0;0.0;0.0;0.0;-16.0;-37.0;-28.0;-78.0;-0.24;0.53;-10.6;0.74;0.43;0.81
1753875307.083808;22.109;-5.804;-1.649;-2.49;-1.11;-134.09;0.0;0.0;0.0;0.0;-16.0;-37.0;-28.0;-78.0;-0.23;0.53;-10.61;0.83;0.35;1.02
1753875307.088808;22.109;-5.804;-1.649;-2.49;-1.11;-134.09;0.0;0.0;0.0;0.0;-16.0;-37.0;-28.0;-78.0;-0.22;0.53;-10.6;0.85;0.28;0.8
1753875307.093808;22.109;-5.804;-1.649;-2.49;-1.11;-134.09;0.0;0.0;0.0;0.0;-17.5;-36.4;-27.8;-78.0;-0.23;0.53;-10.59;0.81;0.22;0.88
1753875307.098808;22.109;-5.804;-1.649;-2.49;-1.11;-134.09;0.0;0.0;0.0;0.0;-16.7;-37.8;-27.9;-78.0;-0.23;0.52;-10.6;0.91;0.26;0.87
1753875307.103808;22.109;-5.804;-1.649;-2.49;-1.11;-134.09;0.0;0.0;0.0;0.0;-16.4;-37.0;-27.7;-78.0;-0.23;0.52;-10.6;0.76;0.36;0.9
1753875307.108808;22.109;-5.804;-1.649;-2.48;-1.11;-134.09;0.0;0.0;0.0;0.0;-15.0;-38.1;-27.8;-78.0;-0.22;0.52;-10.59;0.86;0.09;0.91
1753875307.113808;22.109;-5.804;-1.649;-2.49;-1.11;-134.09;0.0;0.0;0.0;0.0;-19.0;-36.2;-27.7;-78.0;-0.21;0.53;-10.6;0.83;0.36;0.88
1753875307.118808;22.109;-5.804;-1.649;-2.49;-1.11;-134.09;0.0;0.0;0.0;0.0;-16.3;-37.6;-27.6;-78.0;-0.23;0.53;-10.59;0.82;0.19;0.84
1753875307.123808;22.109;-5.804;-1.649;-2.49;-1.12;-134.09;0.0;0.0;0.0;0.0;-16.2;-39.0;-27.7;-78.0;-0.2;0.53;-10.58;0.83;0.1;0.83
1753875307.128809;22.109;-5.804;-1.649;-2.49;-1.11;-134.09;0.0;0.0;0.0;0.0;-14.2;-37.9;-27.8;-78.0;-0.23;0.52;-10.6;0.96;0.31;0.93
1753875307.133809;22.109;-5.804;-1.649;-2.49;-1.11;-134.09;0.0;0.0;0.0;0.0;-17.1;-37.7;-27.5;-78.0;-0.23;0.52;-10.6;0.9;0.23;0.84
1753875307.138809;22.109;-5.804;-1.649;-2.49;-1.11;-134.09;0.0;0.0;0.0;0.0;-15.6;-38.5;-27.7;-78.0;-0.22;0.54;-10.58;0.91;0.39;0.94
1753875307.143809;22.109;-5.804;-1.649;-2.49;-1.1;-134.09;0.0;0.0;0.0;0.0;-13.4;-38.0;-27.8;-78.0;-0.23;0.53;-10.61;0.92;0.33;0.81
1753875307.148809;22.109;-5.804;-1.649;-2.49;-1.11;-134.09;0.0;0.0;0.0;0.0;-16.4;-37.8;-27.9;-78.0;-0.21;0.53;-10.59;0.98;0.23;0.86
1753875307.153809;22.109;-5.804;-1.649;-2.49;-1.1;-134.09;0.0;0.0;0.0;0.0;-17.6;-37.3;-27.5;-78.0;-0.22;0.53;-10.58;0.86;0.24;0.85
1753875307.15881;22.109;-5.804;-1.649;-2.49;-1.1;-134.09;0.0;0.0;0.0;0.0;-13.2;-36.9;-27.8;-78.0;-0.21;0.52;-10.6;0.92;0.26;0.86
1753875307.16381;22.109;-5.804;-1.649;-2.48;-1.11;-134.09;0.0;0.0;0.0;0.0;-11.3;-39.3;-27.4;-78.0;-0.21;0.53;-10.6;0.73;0.21;1.09
1753875307.16881;22.109;-5.804;-1.649;-2.49;-1.11;-134.09;0.0;0.0;0.0;0.0;-16.8;-38.5;-27.0;-78.0;-0.24;0.53;-10.6;1.03;0.44;0.9
1753875307.17381;22.109;-5.804;-1.649;-2.49;-1.1;-134.09;0.0;0.0;0.0;0.0;-14.4;-37.5;-27.6;-78.0;-0.23;0.52;-10.6;0.8;0.35;0.92
1753875307.17881;22.109;-5.804;-1.649;-2.49;-1.11;-134.09;0.0;0.0;0.0;0.0;-15.8;-38.7;-27.0;-78.0;-0.23;0.52;-10.6;0.93;0.08;1.04
1753875307.18381;22.109;-5.804;-1.649;-2.49;-1.11;-134.09;0.0;0.0;0.0;0.0;-14.5;-36.9;-27.4;-78.0;-0.22;0.53;-10.62;0.81;0.35;0.94
1753875307.18881;22.109;-5.804;-1.649;-2.48;-1.11;-134.09;0.0;0.0;0.0;0.0;-17.2;-38.7;-27.5;-78.0;-0.23;0.55;-10.6;0.9;0.38;0.86
1753875307.19381;22.109;-5.804;-1.649;-2.49;-1.11;-134.09;0.0;0.0;0.0;0.0;-13.3;-39.0;-27.0;-78.0;-0.21;0.52;-10.58;0.85;0.33;0.9
1753875307.19881;22.109;-5.804;-1.649;-2.48;-1.11;-134.09;0.0;0.0;0.0;0.0;-15.3;-38.8;-27.4;-78.0;-0.24;0.53;-10.59;1.02;0.08;0.97
1753875307.20381;22.109;-5.804;-1.649;-2.49;-1.11;-134.09;0.0;0.0;0.0;0.0;-16.2;-38.4;-27.0;-78.0;-0.24;0.52;-10.59;0.89;0.09;0.81
1753875307.20881;22.109;-5.804;-1.649;-2.49;-1.11;-134.09;0.0;0.0;0.0;0.0;-12.5;-39.6;-27.5;-78.0;-0.22;0.53;-10.61;0.78;0.21;0.89
1753875307.213811;22.109;-5.804;-1.649;-2.49;-1.11;-134.09;0.0;0.0;0.0;0.0;-18.2;-39.0;-27.5;-78.0;-0.23;0.54;-10.59;0.89;0.31;0.98
1753875307.218811;22.109;-5.804;-1.649;-2.49;-1.11;-134.09;0.0;0.0;0.0;0.0;-15.7;-38.8;-27.6;-78.0;-0.22;0.53;-10.59;1.07;0.31;1.11
1753875307.223811;22.109;-5.804;-1.649;-2.49;-1.11;-134.09;0.0;0.0;0.0;0.0;-13.7;-40.5;-27.0;-78.0;-0.22;0.52;-10.6;0.74;0.24;1.05
1753875307.228811;22.109;-5.804;-1.649;-2.49;-1.12;-134.09;0.0;0.0;0.0;0.0;-16.8;-38.3;-27.2;-78.0;-0.22;0.54;-10.61;0.86;0.17;0.86
1753875307.233811;22.109;-5.804;-1.649;-2.49;-1.11;-134.09;0.0;0.0;0.0;0.0;-16.3;-37.8;-27.1;-78.0;-0.25;0.53;-10.6;0.8;0.17;0.98
1753875307.238811;22.109;-5.804;-1.649;-2.49;-1.11;-134.09;0.0;0.0;0.0;0.0;-14.5;-39.1;-27.0;-78.0;-0.22;0.53;-10.6;0.88;0.06;0.99
1753875307.243808;22.109;-5.804;-1.649;-2.49;-1.11;-134.09;0.0;0.0;0.0;0.0;-15.0;-39.0;-27.0;-78.0;-0.23;0.53;-10.6;0.86;0.25;1.02
1753875307.248808;22.109;-5.804;-1.649;-2.49;-1.11;-134.09;0.0;0.0;0.0;0.0;-15.0;-39.0;-27.0;-78.0;-0.23;0.53;-10.6;0.96;0.22;1.02
1753875307.253808;22.109;-5.804;-1.649;-2.49;-1.11;-134.09;0.0;0.0;0.0;0.0;-15.0;-39.0;-27.0;-78.0;-0.23;0.53;-10.6;0.94;0.23;0.91
1753875307.258808;22.109;-5.804;-1.649;-2.49;-1.11;-134.09;0.0;0.0;0.0;0.0;-15.0;-39.0;-27.0;-78.0;-0.23;0.52;-10.6;0.95;0.28;1.06
1753875307.263808;22.109;-5.804;-1.649;-2.49;-1.11;-134.09;0.0;0.0;0.0;0.0;-15.0;-39.0;-27.0;-78.0;-0.24;0.52;-10.61;0.86;0.41;0.96
1753875307.268808;22.109;-5.804;-1.649;-2.49;-1.11;-134.09;0.0;0.0;0.0;0.0;-15.0;-39.0;-27.0;-78.0;-0.24;0.52;-10.61;0.72;0.26;1.0
1753875307.273808;22.109;-5.804;-1.649;-2.49;-1.11;-134.09;0.0;0.0;0.0;0.0;-15.0;-39.0;-27.0;-78.0;-0.24;0.53;-10.61;0.94;0.28;0.99
1753875307.278808;22.109;-5.804;-1.649;-2.49;-1.11;-134.09;0.0;0.0;0.0;0.0;-15.0;-39.0;-27.0;-78.0;-0.23;0.53;-10.61;0.8;0.25;0.93
1753875307.283808;22.109;-5.804;-1.649;-2.49;-1.11;-134.09;0.0;0.0;0.0;0.0;-15.0;-39.0;-27.0;-78.0;-0.23;0.53;-10.62;0.82;0.37;0.96
1753875307.288808;22.109;-5.804;-1.649;-2.49;-1.11;-134.09;0.0;0.0;0.0;0.0;-15.0;-39.0;-27.0;-78.0;-0.23;0.53;-10.62;0.89;0.38;1.15
1753875307.293808;22.109;-5.804;-1.649;-2.49;-1.11;-134.09;0.0;0.0;0.0;0.0;-15.0;-39.0;-27.0;-78.0;-0.23;0.53;-10.62;0.93;0.41;0.9
1753875307.298808;22.109;-5.804;-1.649;-2.49;-1.11;-134.09;0.0;0.0;0.0;0.0;-16.9;-39.5;-26.8;-78.0;-0.23;0.54;-10.62;1.03;0.31;0.98
1753875307.303808;22.109;-5.804;-1.649;-2.49;-1.11;-134.09;0.0;0.0;0.0;0.0;-16.4;-38.1;-27.0;-78.0;-0.23;0.54;-10.62;0.98;0.34;0.95
1753875307.308808;22.109;-5.804;-1.649;-2.49;-1.11;-134.09;0.0;0.0;0.0;0.0;-17.2;-39.1;-27.0;-78.0;-0.23;0.52;-10.61;0.97;0.28;1.03
1753875307.313808;22.109;-5.804;-1.649;-2.49;-1.11;-134.09;0.0;0.0;0.0;0.0;-14.2;-37.9;-27.2;-78.0;-0.23;0.53;-10.62;0.75;0.46;0.92
1753875307.318808;22.109;-5.804;-1.649;-2.5;-1.11;-134.09;0.0;0.0;0.0;0.0;-16.4;-39.2;-26.2;-78.0;-0.23;0.53;-10.61;0.76;0.28;0.96
1753875307.323809;22.109;-5.804;-1.649;-2.49;-1.11;-134.09;0.0;0.0;0.0;0.0;-13.6;-38.4;-27.1;-78.0;-0.23;0.53;-10.59;0.79;0.44;1.03
1753875307.328809;22.109;-5.804;-1.649;-2.49;-1.11;-134.09;0.0;0.0;0.0;0.0;-14.2;-38.1;-27.2;-78.0;-0.23;0.54;-10.6;0.98;0.35;0.98
1753875307.333809;22.109;-5.804;-1.649;-2.49;-1.11;-134.09;0.0;0.0;0.0;0.0;-13.9;-38.7;-26.7;-78.0;-0.23;0.52;-10.61;0.89;0.37;1.11
1753875307.338809;22.109;-5.804;-1.649;-2.49;-1.11;-134.09;0.0;0.0;0.0;0.0;-16.1;-39.4;-26.4;-78.0;-0.23;0.53;-10.61;0.83;0.56;1.01
1753875307.343809;22.109;-5.804;-1.649;-2.49;-1.11;-134.09;0.0;0.0;0.0;0.0;-14.6;-36.5;-26.3;-78.0;-0.23;0.53;-10.61;0.86;0.44;0.87
1753875307.348809;22.109;-5.804;-1.649;-2.49;-1.11;-134.09;0.0;0.0;0.0;0.0;-14.9;-37.5;-27.2;-78.0;-0.23;0.53;-10.63;0.73;0.4;0.96
1753875307.353809;22.109;-5.804;-1.649;-2.49;-1.11;-134.09;0.0;0.0;0.0;0.0;-16.0;-36.6;-27.3;-78.0;-0.23;0.53;-10.6;0.8;0.17;1.0
1753875307.35881;22.109;-5.804;-1.649;-2.49;-1.11;-134.09;0.0;0.0;0.0;0.0;-15.7;-39.1;-27.0;-78.0;-0.23;0.53;-10.61;0.91;0.31;0.97
1753875307.36381;22.109;-5.804;-1.649;-2.49;-1.11;-134.09;0.0;0.0;0.0;0.0;-15.8;-39.4;-27.2;-78.0;-0.23;0.53;-10.61;0.8;0.25;1.07
1753875307.36881;22.109;-5.804;-1.649;-2.49;-1.11;-134.09;0.0;0.0;0.0;0.0;-15.5;-38.5;-26.2;-78.0;-0.23;0.53;-10.62;0.74;0.26;1.02
1753875307.37381;22.109;-5.804;-1.649;-2.49;-1.11;-134.09;0.0;0.0;0.0;0.0;-14.9;-36.5;-26.6;-78.0;-0.23;0.53;-10.6;0.88;0.15;0.93
1753875307.37881;22.109;-5.804;-1.649;-2.49;-1.11;-134.09;0.0;0.0;0.0;0.0;-15.4;-37.5;-26.6;-78.0;-0.22;0.53;-10.61;0.82;0.19;1.0
1753875307.38381;22.109;-5.804;-1.649;-2.49;-1.11;-134.09;0.0;0.0;0.0;0.0;-15.8;-35.8;-26.4;-78.0;-0.22;0.53;-10.6;0.93;0.3;0.96
1753875307.38881;22.109;-5.804;-1.649;-2.49;-1.11;-134.09;0.0;0.0;0.0;0.0;-15.1;-37.6;-26.5;-78.0;-0.21;0.53;-10.59;0.84;0.43;1.03
1753875307.39381;22.109;-5.804;-1.649;-2.49;-1.11;-134.09;0.0;0.0;0.0;0.0;-15.3;-37.6;-25.8;-78.0;-0.23;0.53;-10.59;0.84;0.29;0.9
1753875307.39881;22.109;-5.804;-1.649;-2.49;-1.11;-134.09;0.0;0.0;0.0;0.0;-13.6;-38.2;-25.6;-78.0;-0.23;0.53;-10.6;0.85;0.26;1.15
1753875307.40381;22.109;-5.804;-1.649;-2.49;-1.11;-134.09;0.0;0.0;0.0;0.0;-16.2;-37.6;-26.7;-78.0;-0.21;0.53;-10.59;0.75;0.2;0.88
1753875307.40881;22.109;-5.804;-1.649;-2.49;-1.11;-134.09;0.0;0.0;0.0;0.0;-17.0;-36.6;-25.7;-78.0;-0.23;0.53;-10.6;0.8;0.39;0.95
1753875307.413811;22.109;-5.804;-1.649;-2.49;-1.11;-134.09;0.0;0.0;0.0;0.0;-17.2;-37.3;-26.3;-78.0;-0.23;0.53;-10.59;0.76;0.18;0.99
1753875307.418811;22.109;-5.804;-1.649;-2.49;-1.11;-134.09;0.0;0.0;0.0;0.0;-16.5;-37.2;-26.8;-78.0;-0.23;0.52;-10.6;0.79;0.31;0.9
1753875307.423808;22.109;-5.804;-1.649;-2.49;-1.11;-134.09;0.0;0.0;0.0;0.0;-16.0;-37.0;-26.0;-78.0;-0.23;0.53;-10.59;0.77;0.24;1.03
1753875307.428808;22.109;-5.804;-1.649;-2.49;-1.11;-134.09;0.0;0.0;0.0;0.0;-16.0;-37.0;-26.0;-78.0;-0.23;0.53;-10.6;0.92;0.16;0.98
1753875307.433808;22.109;-5.804;-1.649;-2.49;-1.11;-134.09;0.0;0.0;0.0;0.0;-16.0;-37.0;-26.0;-78.0;-0.23;0.53;-10.61;0.83;0.33;0.86
1753875307.438808;22.109;-5.804;-1.649;-2.49;-1.11;-134.09;0.0;0.0;0.0;0.0;-16.0;-37.0;-26.0;-78.0;-0.23;0.53;-10.61;0.91;0.32;0.89
1753875307.443808;22.109;-5.804;-1.649;-2.49;-1.11;-134.09;0.0;0.0;0.0;0.0;-16.0;-37.0;-26.0;-78.0;-0.23;0.53;-10.61;0.67;0.35;0.99
1753875307.448808;22.109;-5.804;-1.649;-2.49;-1.11;-134.09;0.0;0.0;0.0;0.0;-16.0;-37.0;-26.0;-78.0;-0.23;0.53;-10.62;0.88;0.32;0.89
1753875307.453808;22.109;-5.804;-1.649;-2.49;-1.11;-134.09;0.0;0.0;0.0;0.0;-16.0;-37.0;-26.0;-78.0;-0.23;0.53;-10.62;0.74;0.23;0.98
1753875307.458808;22.109;-5.804;-1.649;-2.49;-1.11;-134.09;0.0;0.0;0.0;0.0;-16.0;-37.0;-26.0;-78.0;-0.24;0.52;-10.61;0.76;0.35;0.83
1753875307.463808;22.109;-5.804;-1.649;-2.49;-1.11;-134.09;0.0;0.0;0.0;0.0;-16.0;-37.0;-26.0;-78.0;-0.23;0.52;-10.61;0.74;0.4;0.81
1753875307.468808;22.109;-5.804;-1.649;-2.49;-1.11;-134.09;0.0;0.0;0.0;0.0;-16.0;-37.0;-26.0;-78.0;-0.23;0.53;-10.61;0.86;0.17;0.92
1753875307.473808;22.109;-5.804;-1.649;-2.49;-1.11;-134.09;0.0;0.0;0.0;0.0;-16.0;-37.0;-26.0;-78.0;-0.22;0.53;-10.61;0.89;0.31;0.86
1753875307.478808;22.109;-5.804;-1.649;-2.49;-1.11;-134.09;0.0;0.0;0.0;0.0;-16.0;-37.0;-26.0;-78.0;-0.23;0.53;-10.61;0.8;0.32;0.9
1753875307.483808;22.109;-5.804;-1.649;-2.49;-1.11;-134.09;0.0;0.0;0.0;0.0;-16.0;-37.0;-26.0;-78.0;-0.23;0.53;-10.61;0.81;0.37;0.98
1753875307.488808;22.109;-5.804;-1.649;-2.49;-1.11;-134.09;0.0;0.0;0.0;0.0;-16.0;-37.0;-26.0;-78.0;-0.23;0.53;-10.61;0.83;0.29;0.99
1753875307.493808;22.109;-5.804;-1.649;-2.49;-1.11;-134.09;0.0;0.0;0.0;0.0;-16.0;-37.0;-26.0;-78.0;-0.23;0.54;-10.6;0.78;0.34;1.04
1753875307.498808;22.109;-5.804;-1.649;-2.49;-1.11;-134.09;0.0;0.0;0.0;0.0;-16.0;-37.0;-26.0;-78.0;-0.23;0.54;-10.61;0.86;0.27;1.06
1753875307.503808;22.109;-5.804;-1.649;-2.49;-1.11;-134.09;0.0;0.0;0.0;0.0;-16.0;-37.0;-26.0;-78.0;-0.22;0.54;-10.6;0.74;0.31;1.01
1753875307.508808;22.109;-5.804;-1.649;-2.49;-1.11;-134.09;0.0;0.0;0.0;0.0;-16.0;-37.0;-26.0;-78.0;-0.23;0.54;-10.6;0.77;0.22;1.0
1753875307.513808;22.109;-5.804;-1.649;-2.49;-1.11;-134.09;0.0;0.0;0.0;0.0;-16.0;-37.0;-26.0;-78.0;-0.23;0.54;-10.59;0.66;0.38;0.93
1753875307.518808;22.109;-5.804;-1.649;-2.49;-1.11;-134.09;0.0;0.0;0.0;0.0;-16.0;-37.0;-26.0;-78.0;-0.23;0.55;-10.6;0.84;0.3;1.06
1753875307.523808;22.109;-5.804;-1.649;-2.49;-1.11;-134.09;0.0;0.0;0.0;0.0;-16.0;-37.0;-26.0;-78.0;-0.24;0.55;-10.6;0.9;0.19;0.95
1753875307.528808;22.109;-5.804;-1.649;-2.49;-1.11;-134.09;0.0;0.0;0.0;0.0;-16.0;-37.0;-26.0;-78.0;-0.2;0.55;-10.6;0.93;0.12;0.96
1753875307.533808;22.109;-5.804;-1.649;-2.49;-1.11;-134.09;0.0;0.0;0.0;0.0;-16.0;-37.0;-26.0;-78.0;-0.21;0.52;-10.6;0.85;0.19;1.05
1753875307.538808;22.109;-5.804;-1.649;-2.49;-1.11;-134.09;0.0;0.0;0.0;0.0;-16.0;-37.0;-26.0;-78.0;-0.19;0.53;-10.61;1.0;0.3;0.91
1753875307.543808;22.109;-5.804;-1.649;-2.49;-1.11;-134.09;0.0;0.0;0.0;0.0;-16.0;-37.0;-26.0;-78.0;-0.22;0.54;-10.6;1.02;0.21;0.88
1753875307.548808;22.109;-5.804;-1.649;-2.49;-1.11;-134.09;0.0;0.0;0.0;0.0;-16.0;-37.0;-26.0;-78.0;-0.24;0.49;-10.61;0.82;0.29;0.97
1753875307.553809;22.109;-5.804;-1.649;-2.49;-1.11;-134.09;0.0;0.0;0.0;0.0;-16.0;-37.0;-26.0;-78.0;-0.19;0.51;-10.59;0.95;0.2;0.85
1753875307.558809;22.109;-5.804;-1.649;-2.49;-1.11;-134.09;0.0;0.0;0.0;0.0;-16.0;-37.0;-26.0;-78.0;-0.18;0.53;-10.58;0.86;0.23;1.0
1753875307.563809;22.109;-5.804;-1.649;-2.49;-1.11;-134.09;0.0;0.0;0.0;0.0;-16.0;-37.0;-26.0;-78.0;-0.17;0.51;-10.6;0.84;0.24;1.03
1753875307.568809;22.109;-5.804;-1.649;-2.49;-1.11;-134.09;0.0;0.0;0.0;0.0;-16.0;-37.0;-26.0;-78.0;-0.21;0.5;-10.57;0.83;0.35;0.87
1753875307.573809;22.109;-5.804;-1.649;-2.49;-1.11;-134.09;0.0;0.0;0.0;0.0;-16.0;-37.0;-26.0;-78.0;-0.2;0.5;-10.6;0.76;0.25;0.9
1753875307.578809;22.109;-5.804;-1.649;-2.49;-1.11;-134.09;0.0;0.0;0.0;0.0;-16.0;-37.0;-26.0;-78.0;-0.12;0.48;-10.59;1.1;0.36;1.04
1753875307.58381;22.109;-5.804;-1.649;-2.49;-1.11;-134.09;0.0;0.0;0.0;0.0;-16.0;-37.0;-26.0;-78.0;-0.15;0.45;-10.58;0.86;0.4;0.89
1753875307.58881;22.109;-5.804;-1.649;-2.49;-1.11;-134.09;0.0;0.0;0.0;0.0;-16.0;-37.0;-26.0;-78.0;-0.16;0.44;-10.59;0.86;0.28;1.01
1753875307.59381;22.109;-5.804;-1.649;-2.49;-1.11;-134.09;0.0;0.0;0.0;0.0;-16.0;-37.0;-26.0;-78.0;-0.16;0.45;-10.6;0.94;0.31;0.91
1753875307.59881;22.109;-5.804;-1.649;-2.49;-1.11;-134.09;0.0;0.0;0.0;0.0;-16.0;-37.0;-26.0;-78.0;-0.14;0.46;-10.6;0.84;0.17;1.1
1753875307.60381;22.109;-5.804;-1.649;-2.49;-1.11;-134.09;0.0;0.0;0.0;0.0;-16.0;-37.0;-26.0;-78.0;-0.16;0.39;-10.59;0.76;0.23;0.83
1753875307.60881;22.109;-5.804;-1.649;-2.49;-1.11;-134.09;0.0;0.0;0.0;0.0;-16.0;-37.0;-26.0;-78.0;-0.16;0.44;-10.59;0.74;0.36;0.94
1753875307.61381;22.109;-5.804;-1.649;-2.49;-1.11;-134.09;0.0;0.0;0.0;0.0;-16.0;-37.0;-26.0;-78.0;-0.14;0.42;-10.59;0.94;0.36;1.0
1753875307.618808;22.109;-5.804;-1.649;-2.49;-1.11;-134.09;0.0;0.0;0.0;0.0;-16.0;-37.0;-26.0;-78.0;-0.12;0.41;-10.58;0.85;0.38;0.98
1753875307.623808;22.109;-5.804;-1.649;-2.49;-1.11;-134.09;0.0;0.0;0.0;0.0;-16.0;-37.0;-26.0;-78.0;-0.09;0.42;-10.59;0.77;0.33;1.86
1753875307.628808;22.109;-5.804;-1.649;-2.49;-1.11;-134.09;0.0;0.0;0.0;0.0;-16.0;-37.0;-26.0;-78.0;-0.06;0.41;-10.61;0.86;0.36;1.53
1753875307.633808;22.109;-5.804;-1.649;-2.49;-1.11;-134.09;0.0;0.0;0.0;0.0;-16.0;-37.0;-26.0;-78.0;-0.04;0.41;-10.6;0.86;0.56;0.37
1753875307.638808;22.11;-5.804;-1.649;-2.49;-1.07;-134.09;5.4;94.0;47.9;68.1;-1.8;-58.3;-23.0;-74.9;0.01;0.59;-10.6;0.95;0.61;0.5
1753875307.643808;22.108;-5.804;-1.649;-2.49;-1.21;-134.09;102.9;16.4;-35.4;9.8;-24.4;-28.5;-3.7;-22.0;-0.13;0.47;-10.61;0.87;0.58;0.4
1753875307.648808;22.109;-5.804;-1.649;-2.49;-1.1;-134.09;60.4;47.8;98.2;-74.7;-15.3;-56.5;-12.8;-95.6;-0.02;0.4;-10.58;0.89;0.55;0.29
1753875307.653808;22.109;-5.804;-1.649;-2.49;-1.14;-134.09;24.7;-60.4;2.8;106.8;-18.5;-30.6;-7.5;-60.9;-0.09;0.37;-10.6;0.98;0.36;0.13
1753875307.658808;22.11;-5.804;-1.649;-2.48;-0.95;-134.09;155.1;94.2;98.3;144.8;-29.3;-39.7;-9.1;-68.1;-0.09;0.58;-10.59;0.99;0.31;0.46
1753875307.663808;22.108;-5.804;-1.649;-2.49;-1.09;-134.09;5.2;167.5;-155.5;138.4;-12.6;4.0;2.9;-55.4;-0.01;0.44;-10.59;0.76;0.42;0.8
1753875307.668809;22.108;-5.804;-1.649;-2.49;-1.12;-134.09;60.1;-72.7;242.1;43.3;-10.3;-38.9;3.9;-70.5;-0.04;0.48;-10.59;0.9;0.46;0.55
1753875307.673809;22.108;-5.804;-1.649;-2.48;-1.04;-134.09;128.6;158.4;-9.6;48.3;-0.1;-55.9;-7.2;-51.8;-0.03;0.71;-10.6;0.83;0.49;0.54
1753875307.678809;22.108;-5.804;-1.649;-2.48;-1.02;-134.09;120.4;67.8;252.0;103.6;-6.2;-31.9;-19.7;-19.4;-0.13;0.72;-10.57;0.93;0.43;-0.16
1753875307.683809;22.108;-5.804;-1.649;-2.48;-1.04;-134.09;208.6;99.1;177.7;148.1;7.9;-25.6;-11.4;-34.1;-0.09;0.61;-10.59;0.79;0.36;1.01
1753875307.688809;22.108;-5.804;-1.649;-2.48;-1.03;-134.09;139.3;127.5;129.6;249.1;6.4;-21.3;13.6;-18.9;-0.07;0.73;-10.59;0.88;0.37;-0.21
1753875307.693809;22.108;-5.805;-1.649;-2.48;-0.97;-134.09;91.7;27.2;41.3;170.7;3.6;9.5;-2.0;-43.6;-0.03;0.57;-10.61;0.91;0.53;0.82
1753875307.69881;22.108;-5.804;-1.649;-2.46;-1.0;-134.08;197.6;60.0;271.9;111.5;-9.8;5.8;16.3;-34.8;-0.12;0.44;-10.57;0.84;0.3;0.45
1753875307.70381;22.108;-5.804;-1.649;-2.47;-0.91;-134.09;324.4;-28.6;224.4;94.8;14.8;4.3;-26.8;-42.8;-0.04;0.83;-10.6;0.92;0.37;0.25
1753875307.70881;22.108;-5.805;-1.649;-2.48;-1.08;-134.09;187.9;160.8;113.2;84.9;15.6;18.7;-1.3;4.2;0.04;0.63;-10.6;0.89;0.39;0.56
1753875307.71381;22.108;-5.805;-1.649;-2.46;-0.96;-134.09;148.0;209.0;124.6;318.6;-0.5;-21.4;20.6;-22.1;-0.01;0.62;-10.59;0.8;0.44;0.52
1753875307.71881;22.108;-5.805;-1.649;-2.47;-1.05;-134.09;139.0;259.2;77.0;281.6;2.9;34.6;-9.8;-24.5;-0.12;0.62;-10.59;0.87;0.22;0.54
1753875307.72381;22.107;-5.805;-1.649;-2.47;-1.01;-134.08;277.6;90.8;432.1;258.2;21.9;0.5;-1.2;-68.6;-0.09;0.6;-10.57;0.87;0.35;-0.17
1753875307.72881;22.108;-5.805;-1.649;-2.47;-0.82;-134.08;35.9;247.8;134.4;252.2;-1.6;-10.2;4.6;29.0;-0.09;0.53;-10.55;0.9;0.38;0.24
1753875307.73381;22.108;-5.804;-1.649;-2.47;-1.01;-134.08;296.5;202.3;181.7;291.8;16.3;34.6;16.1;-6.3;-0.11;0.66;-10.59;0.85;0.42;1.03
1753875307.73881;22.108;-5.805;-1.649;-2.46;-0.99;-134.08;209.0;167.4;220.4;218.5;19.5;10.9;26.0;7.5;-0.13;0.73;-10.55;1.0;0.36;0.71
1753875307.74381;22.108;-5.804;-1.649;-2.48;-1.1;-134.08;88.1;234.0;268.7;332.4;9.1;15.0;41.7;-13.4;0.05;0.63;-10.59;0.81;0.25;0.9
1753875307.74881;22.108;-5.805;-1.649;-2.47;-0.99;-134.08;221.1;197.7;352.8;369.5;10.7;50.2;28.1;-17.9;-0.01;0.84;-10.6;0.97;0.3;0.67
1753875307.753811;22.107;-5.805;-1.649;-2.47;-0.88;-134.09;248.0;285.9;347.6;263.5;26.9;11.0;31.5;11.8;-0.12;0.75;-10.58;0.99;0.28;0.14
1753875307.758811;22.108;-5.805;-1.649;-2.47;-0.91;-134.08;281.9;231.4;531.0;260.7;26.8;27.4;-7.7;-14.1;-0.08;0.79;-10.58;1.0;0.16;0.37
1753875307.763811;22.108;-5.804;-1.649;-2.48;-0.89;-134.08;366.1;203.4;425.7;300.2;4.4;25.8;26.9;-33.7;-0.04;0.73;-10.59;0.82;0.15;0.73
1753875307.768811;22.108;-5.805;-1.649;-2.46;-0.91;-134.08;302.9;116.1;317.1;427.3;28.6;51.3;23.0;-14.5;-0.03;0.75;-10.57;0.99;0.15;-0.14
1753875307.773811;22.107;-5.805;-1.649;-2.47;-0.95;-134.09;254.2;390.3;371.5;380.0;22.6;6.0;48.0;35.2;-0.06;0.78;-10.59;1.0;0.43;0.53
1753875307.778811;22.107;-5.805;-1.649;-2.47;-0.92;-134.09;412.9;147.3;468.1;269.0;32.5;67.8;47.9;10.2;-0.08;0.82;-10.56;1.05;0.22;1.0
1753875307.783811;22.107;-5.805;-1.649;-2.45;-0.84;-134.08;448.7;286.5;377.8;314.3;11.3;27.5;22.2;-13.0;-0.16;0.86;-10.57;0.99;0.13;0.83
1753875307.788812;22.108;-5.805;-1.649;-2.45;-0.82;-134.08;375.4;311.8;180.4;390.8;15.1;19.9;50.6;18.3;-0.05;0.97;-10.55;0.93;0.22;0.26
1753875307.793812;22.107;-5.805;-1.649;-2.47;-0.97;-134.08;402.2;191.5;595.3;378.3;31.5;55.4;41.8;33.1;-0.14;0.91;-10.58;1.08;0.09;0.64
1753875307.798812;22.107;-5.805;-1.649;-2.45;-0.85;-134.08;392.4;296.8;157.1;405.2;32.4;53.3;37.9;45.2;-0.04;0.93;-10.56;0.93;0.3;-0.08
1753875307.803812;22.107;-5.805;-1.649;-2.47;-0.81;-134.08;222.1;334.6;367.7;473.3;26.1;31.1;54.5;8.4;-0.08;0.83;-10.57;0.9;0.1;0.28
1753875307.808812;22.108;-5.805;-1.649;-2.45;-0.77;-134.08;339.9;418.8;471.8;259.0;33.0;78.9;60.2;76.8;-0.08;0.97;-10.56;0.86;-0.09;0.19
1753875307.813808;22.107;-5.805;-1.649;-2.46;-0.82;-134.08;400.0;363.0;446.0;410.0;36.0;51.0;46.0;31.0;-0.09;0.96;-10.56;0.95;0.08;0.45
1753875307.818808;22.107;-5.805;-1.649;-2.46;-0.82;-134.08;400.0;363.0;446.0;410.0;36.0;51.0;46.0;31.0;-0.13;0.91;-10.6;1.0;0.45;-1.52
1753875307.823808;22.107;-5.805;-1.649;-2.46;-0.82;-134.08;400.0;363.0;446.0;410.0;36.0;51.0;46.0;31.0;-0.11;0.9;-10.57;0.98;0.65;-2.22
1753875307.828808;22.107;-5.805;-1.649;-2.46;-0.82;-134.08;400.0;363.0;446.0;410.0;36.0;51.0;46.0;31.0;-0.04;0.97;-10.55;0.9;0.08;-0.29
1753875307.833808;22.107;-5.805;-1.649;-2.46;-0.82;-134.08;400.0;363.0;446.0;410.0;36.0;51.0;46.0;31.0;-0.04;0.92;-10.58;1.12;0.22;-1.23
1753875307.838808;22.107;-5.805;-1.649;-2.46;-0.82;-134.08;400.0;363.0;446.0;410.0;36.0;51.0;46.0;31.0;-0.04;0.86;-10.61;1.06;0.64;-3.05
1753875307.843808;22.107;-5.805;-1.649;-2.46;-0.82;-134.08;400.0;363.0;446.0;410.0;36.0;51.0;46.0;31.0;0.01;0.94;-10.58;1.03;0.15;-1.13
1753875307.848808;22.107;-5.805;-1.649;-2.46;-0.82;-134.08;400.0;363.0;446.0;410.0;36.0;51.0;46.0;31.0;0.03;0.9;-10.57;1.26;0.09;-1.23
1753875307.853808;22.107;-5.805;-1.649;-2.46;-0.82;-134.08;400.0;363.0;446.0;410.0;36.0;51.0;46.0;31.0;0.01;0.85;-10.62;1.58;0.31;-2.46
1753875307.858808;22.107;-5.805;-1.649;-2.46;-0.82;-134.08;400.0;363.0;446.0;410.0;36.0;51.0;46.0;31.0;0.12;0.82;-10.58;1.64;0.16;-1.05
1753875307.863808;22.107;-5.805;-1.649;-2.46;-0.82;-134.08;400.0;363.0;446.0;410.0;36.0;51.0;46.0;31.0;0.12;0.73;-10.61;1.67;0.2;-0.66
1753875307.868808;22.107;-5.805;-1.649;-2.46;-0.82;-134.08;400.0;363.0;446.0;410.0;36.0;51.0;46.0;31.0;0.1;0.63;-10.65;1.9;0.42;-1.04
1753875307.873808;22.107;-5.805;-1.649;-2.46;-0.82;-134.08;400.0;363.0;446.0;410.0;36.0;51.0;46.0;31.0;0.18;0.61;-10.64;1.54;-0.12;-0.48
1753875307.878808;22.107;-5.805;-1.649;-2.46;-0.82;-134.08;400.0;363.0;446.0;410.0;36.0;51.0;46.0;31.0;0.14;0.61;-10.71;1.8;-0.16;0.12
1753875307.883808;22.107;-5.805;-1.649;-2.46;-0.82;-134.08;400.0;363.0;446.0;410.0;36.0;51.0;46.0;31.0;0.11;0.49;-10.76;1.88;0.26;0.22
1753875307.888808;22.107;-5.805;-1.649;-2.46;-0.82;-134.08;400.0;363.0;446.0;410.0;36.0;51.0;46.0;31.0;0.17;0.41;-10.75;1.96;-0.11;0.94
1753875307.893808;22.107;-5.805;-1.649;-2.46;-0.82;-134.08;400.0;363.0;446.0;410.0;36.0;51.0;46.0;31.0;0.29;0.34;-10.72;1.86;0.08;0.62
1753875307.898808;22.107;-5.805;-1.649;-2.46;-0.82;-134.08;400.0;363.0;446.0;410.0;36.0;51.0;46.0;31.0;0.26;0.22;-10.75;1.93;-0.12;1.24
1753875307.903808;22.107;-5.805;-1.649;-2.46;-0.82;-134.08;400.0;363.0;446.0;410.0;36.0;51.0;46.0;31.0;0.29;0.16;-10.76;2.04;-0.03;1.7
1753875307.908808;22.109;-5.804;-1.649;-2.41;-0.82;-134.08;375.9;261.3;356.7;421.0;32.6;43.5;48.2;35.5;0.3;-0.25;-10.75;1.96;-0.12;-0.0
1753875307.913808;22.112;-5.805;-1.649;-2.62;-0.84;-134.07;609.3;452.2;649.9;552.8;32.9;47.3;55.3;64.2;0.09;-0.04;-10.83;1.48;-0.26;2.45
1753875307.918808;22.107;-5.804;-1.649;-2.64;-0.81;-134.08;314.8;287.4;531.5;502.6;35.5;33.3;68.9;89.2;0.08;-0.47;-10.74;1.64;-0.24;6.57
1753875307.923808;22.106;-5.811;-1.649;-2.63;-0.89;-134.09;518.6;774.1;413.4;294.0;31.8;50.3;93.4;59.5;0.12;0.26;-10.64;2.03;-0.18;1.16
1753875307.928809;22.1;-5.81;-1.649;-2.59;-0.69;-134.08;470.1;784.9;460.6;624.9;23.8;46.3;98.5;77.8;0.14;0.04;-10.72;1.51;-0.06;0.19
1753875307.933809;22.105;-5.811;-1.649;-2.56;-0.69;-134.09;530.3;581.2;693.0;575.1;24.9;45.0;76.3;60.6;0.28;-0.27;-10.62;1.25;-0.11;-1.86
1753875307.938809;22.099;-5.808;-1.649;-2.52;-0.7;-134.1;725.8;711.6;554.9;571.4;31.6;37.5;128.4;110.1;0.36;0.65;-10.68;1.2;-0.68;4.81
1753875307.943809;22.104;-5.804;-1.649;-2.56;-0.59;-134.09;1128.9;667.7;536.7;357.0;29.6;26.1;80.8;84.2;0.12;-0.08;-10.66;2.32;-0.46;-0.29
1753875307.948809;22.104;-5.811;-1.649;-2.65;-0.69;-134.1;917.3;708.1;735.6;614.8;31.5;45.0;73.6;116.3;0.12;-0.16;-10.67;0.99;-0.04;4.38
1753875307.953809;22.101;-5.811;-1.649;-2.71;-0.72;-134.11;862.0;730.5;592.0;569.8;33.0;19.5;116.7;128.0;-0.13;-1.01;-10.57;0.98;-0.48;3.82
1753875307.95881;22.099;-5.809;-1.649;-2.59;-0.58;-134.1;1423.8;559.2;647.1;560.1;24.6;7.3;80.0;113.6;-0.07;-0.02;-10.73;1.54;-0.23;1.69
1753875307.96381;22.099;-5.81;-1.649;-2.72;-0.51;-134.11;962.7;992.9;897.8;698.0;29.9;17.2;87.7;120.4;0.25;0.65;-10.63;0.67;-0.14;4.61
1753875307.96881;22.1;-5.811;-1.649;-2.7;-0.53;-134.11;797.3;874.9;790.7;575.4;21.7;27.9;126.0;92.9;0.01;0.12;-10.65;0.89;-0.35;0.21
1753875307.97381;22.097;-5.814;-1.649;-2.5;-0.56;-134.11;1061.7;950.1;1084.1;738.7;25.3;20.4;126.1;162.7;-0.26;-0.39;-10.46;0.7;0.2;4.85
1753875307.97881;22.099;-5.811;-1.649;-2.93;-0.57;-134.13;880.6;828.9;888.4;843.6;27.9;31.2;113.7;186.2;-0.38;-0.74;-10.58;0.9;-0.71;6.37
1753875307.98381;22.102;-5.811;-1.649;-2.81;-0.57;-134.11;1105.9;770.8;746.2;722.9;24.4;26.1;147.8;126.5;-0.09;-0.08;-10.69;1.15;-0.39;2.84
1753875307.98881;22.101;-5.813;-1.649;-2.79;-0.69;-134.14;1135.0;1203.7;764.3;796.6;24.0;23.8;90.8;138.8;-0.31;-0.66;-10.53;0.4;-0.15;6.95
1753875307.99381;22.097;-5.812;-1.649;-2.86;-0.65;-134.12;1227.6;950.1;784.0;770.0;16.8;3.3;100.8;151.3;-0.23;-0.03;-10.49;0.45;-0.35;5.72
1753875307.998808;22.099;-5.814;-1.649;-2.8;-0.52;-134.12;1226.0;1133.0;913.0;803.0;20.0;9.0;145.0;150.0;-0.27;-0.1;-10.52;0.32;-0.22;5.22
1753875308.003808;22.099;-5.814;-1.649;-2.8;-0.52;-134.12;1226.0;1133.0;913.0;803.0;20.0;9.0;145.0;150.0;-0.25;-0.08;-10.51;0.13;-0.05;5.12
1753875308.008808;22.099;-5.814;-1.649;-2.8;-0.52;-134.12;1226.0;1133.0;913.0;803.0;20.0;9.0;145.0;150.0;-0.3;-0.1;-10.52;0.19;0.34;2.04
1753875308.013808;22.099;-5.814;-1.649;-2.8;-0.52;-134.12;1226.0;1133.0;913.0;803.0;20.0;9.0;145.0;150.0;-0.23;0.06;-10.51;0.05;-0.14;4.31
1753875308.018808;22.099;-5.814;-1.649;-2.8;-0.52;-134.12;1226.0;1133.0;913.0;803.0;20.0;9.0;145.0;150.0;-0.19;0.13;-10.56;-0.09;-0.23;4.66
1753875308.023808;22.099;-5.814;-1.649;-2.8;-0.52;-134.12;1226.0;1133.0;913.0;803.0;20.0;9.0;145.0;150.0;-0.19;0.14;-10.53;0.0;0.38;2.15
1753875308.028808;22.087;-5.818;-1.649;-2.92;-0.78;-134.14;1582.8;877.5;662.8;230.4;22.0;-0.4;179.0;212.0;-0.19;-0.1;-10.45;-1.3;0.38;4.25
1753875308.033808;22.107;-5.808;-1.649;-2.78;-0.57;-134.12;900.2;1965.3;319.7;938.2;16.2;-7.3;166.5;129.4;-0.04;0.26;-10.54;-0.18;0.7;1.31
1753875308.038808;22.099;-5.814;-1.649;-2.52;-0.75;-134.09;1690.5;1082.6;865.4;631.6;16.6;-8.4;166.8;27.7;0.07;0.32;-10.46;0.71;0.76;5.37
1753875308.043808;22.09;-5.81;-1.649;-2.72;-0.52;-134.09;823.1;1152.1;487.7;1170.6;30.9;-16.4;63.9;138.5;0.05;0.08;-10.54;-0.22;0.64;0.09
1753875308.048808;22.097;-5.821;-1.649;-2.69;-0.54;-134.09;1633.3;417.5;823.3;1013.2;16.5;19.9;7.4;79.3;-0.17;-0.19;-10.59;1.3;0.23;0.93
1753875308.053809;22.094;-5.813;-1.649;-2.51;-0.21;-134.08;1046.9;1505.3;728.8;1064.8;19.6;19.7;40.0;146.7;-0.31;0.36;-10.47;0.75;0.54;3.32
1753875308.058809;22.085;-5.817;-1.649;-2.35;-0.53;-134.13;1594.3;1193.7;1152.5;1174.0;2.5;-17.7;158.2;150.5;0.07;0.17;-10.47;0.59;0.07;-2.15
1753875308.063809;22.103;-5.817;-1.649;-2.49;-0.73;-134.11;2025.5;1451.6;1166.9;958.0;17.2;-1.3;95.1;132.2;-0.23;0.52;-10.51;0.83;0.43;-0.36
1753875308.068809;22.098;-5.824;-1.649;-2.57;-0.58;-134.12;1495.7;1637.2;1375.3;1156.9;21.3;15.9;122.5;88.5;0.12;-0.38;-10.49;0.85;0.28;3.75
1753875308.073809;22.094;-5.823;-1.649;-2.53;-0.22;-134.09;1960.9;1537.9;1128.5;1395.0;23.8;81.2;88.7;134.4;-0.36;-0.21;-10.47;1.18;0.65;-1.18
1753875308.078809;22.085;-5.831;-1.649;-2.53;-0.62;-134.13;1050.6;1125.0;769.0;924.8;17.8;-14.9;186.6;127.5;-0.08;0.16;-10.42;-0.83;0.06;3.45
1753875308.08381;22.09;-5.826;-1.649;-2.68;-0.32;-134.05;2159.0;1071.7;990.9;1044.5;19.5;32.5;72.3;75.4;-0.31;0.34;-10.47;-0.22;-0.24;2.44
1753875308.08881;22.096;-5.819;-1.649;-2.55;-0.37;-134.1;924.9;585.3;339.0;1337.0;23.2;7.7;94.2;19.2;-0.2;0.16;-10.52;0.07;0.12;-0.27
1753875308.09381;22.091;-5.832;-1.649;-2.44;-0.41;-134.07;2201.6;2072.3;1295.6;789.6;15.1;20.9;94.9;162.6;-0.04;1.1;-10.6;-0.45;0.29;3.23
1753875308.09881;22.095;-5.822;-1.649;-2.56;-0.19;-134.05;970.8;1356.4;1416.3;1112.8;22.4;14.1;80.7;138.3;-0.42;0.3;-10.55;-1.59;0.2;3.98
1753875308.10381;22.086;-5.827;-1.649;-2.45;-0.39;-134.07;867.1;1590.9;1142.0;1239.2;14.6;41.3;187.6;-32.0;-0.33;0.79;-10.65;0.41;1.05;-1.22
1753875308.10881;22.094;-5.822;-1.649;-2.27;-0.29;-134.1;1323.5;1910.5;756.9;1168.5;20.9;33.5;-7.1;117.5;0.05;0.29;-10.83;0.7;0.33;3.1
1753875308.11381;22.09;-5.831;-1.649;-2.09;-0.26;-134.04;1435.3;1996.3;1485.8;645.0;28.1;57.0;209.0;181.8;-0.43;-0.22;-10.73;0.94;0.89;4.17
1753875308.11881;22.086;-5.81;-1.649;-2.32;-0.26;-134.05;1737.1;1221.0;972.1;1171.8;21.5;22.6;119.4;149.8;-0.21;0.49;-10.57;0.27;0.31;3.05
1753875308.12381;22.082;-5.826;-1.649;-2.06;-0.22;-134.08;1543.3;1669.4;941.0;1459.7;24.6;46.0;134.0;117.7;-0.11;0.39;-10.49;2.44;0.57;-3.14
1753875308.12881;22.091;-5.82;-1.649;-2.76;0.02;-134.09;1779.9;1283.3;1286.5;573.5;22.8;32.2;70.9;61.1;0.03;0.29;-10.57;0.31;0.17;0.76
1753875308.13381;22.098;-5.831;-1.649;-2.32;-0.48;-134.03;1073.2;869.2;1047.3;974.0;24.8;75.0;-2.8;98.4;-0.11;-0.0;-10.58;0.78;0.25;3.61
1753875308.138811;22.094;-5.832;-1.649;-2.45;0.18;-134.08;1865.0;2108.2;1219.2;1346.0;18.1;36.2;85.5;168.9;0.04;0.48;-10.68;0.66;0.29;-0.25
1753875308.143811;22.083;-5.824;-1.649;-2.38;-0.17;-134.04;1941.7;899.2;1534.3;1384.3;15.7;50.6;31.7;98.1;-0.14;0.27;-10.79;1.77;0.36;-0.74
1753875308.148811;22.087;-5.82;-1.649;-2.24;-0.28;-134.04;1971.1;1071.3;1380.7;883.0;20.7;79.0;41.1;91.4;-0.33;0.41;-10.35;1.91;0.27;-1.39
1753875308.153811;22.087;-5.833;-1.649;-2.68;-0.16;-134.06;1241.3;1093.2;1534.3;1195.4;18.7;77.3;50.0;53.8;-0.09;0.47;-10.59;1.94;0.71;-0.4
1753875308.158811;22.083;-5.816;-1.649;-2.52;-0.25;-134.06;1365.4;1154.2;1372.2;947.1;24.6;99.3;69.9;10.4;-0.26;0.68;-10.65;-1.15;0.76;0.16
1753875308.163811;22.078;-5.824;-1.649;-2.3;-0.31;-134.0;1333.2;1352.0;1842.0;1061.4;30.1;56.5;60.1;38.9;-0.06;0.47;-10.57;-0.14;0.56;3.42
1753875308.168811;22.085;-5.829;-1.649;-1.99;-0.13;-134.06;1810.8;1031.8;1768.4;1472.9;10.3;69.2;24.2;60.4;-0.1;0.35;-10.39;1.25;-0.06;-0.66
1753875308.173812;22.093;-5.838;-1.649;-2.24;-0.32;-134.03;1896.2;1536.6;1527.2;1657.7;21.6;81.0;19.4;60.2;-0.02;0.54;-10.68;1.56;0.22;2.33
1753875308.178812;22.081;-5.827;-1.649;-2.3;-0.06;-134.04;1334.9;1721.7;1118.6;904.0;13.7;59.6;-5.9;153.2;-0.06;0.3;-10.68;0.46;0.43;3.47
1753875308.183808;22.081;-5.831;-1.649;-2.24;-0.24;-134.03;1620.0;1453.0;1490.0;1463.0;23.0;66.0;49.0;31.0;-0.04;0.48;-10.61;1.18;0.32;1.29
1753875308.188808;22.081;-5.831;-1.649;-2.24;-0.24;-134.03;1620.0;1453.0;1490.0;1463.0;23.0;66.0;49.0;31.0;-0.13;0.43;-10.59;1.23;0.35;1.93
1753875308.193808;22.081;-5.831;-1.649;-2.24;-0.24;-134.03;1620.0;1453.0;1490.0;1463.0;23.0;66.0;49.0;31.0;-0.17;0.33;-10.49;1.27;0.66;0.86
1753875308.198808;22.081;-5.831;-1.649;-2.24;-0.24;-134.03;1620.0;1453.0;1490.0;1463.0;23.0;66.0;49.0;31.0;-0.14;0.34;-10.48;1.06;0.41;1.13
1753875308.203808;22.081;-5.831;-1.649;-2.24;-0.24;-134.03;1620.0;1453.0;1490.0;1463.0;23.0;66.0;49.0;31.0;-0.16;0.35;-10.59;0.98;0.24;2.44
1753875308.208808;22.081;-5.831;-1.649;-2.24;-0.24;-134.03;1620.0;1453.0;1490.0;1463.0;23.0;66.0;49.0;31.0;-0.21;0.34;-10.57;1.02;0.89;0.82
1753875308.213808;22.081;-5.831;-1.649;-2.24;-0.24;-134.03;1620.0;1453.0;1490.0;1463.0;23.0;66.0;49.0;31.0;-0.26;0.39;-10.48;0.95;0.82;1.29
1753875308.218808;22.081;-5.831;-1.649;-2.24;-0.24;-134.03;1620.0;1453.0;1490.0;1463.0;23.0;66.0;49.0;31.0;-0.26;0.42;-10.54;1.0;0.45;2.36
1753875308.223808;22.081;-5.831;-1.649;-2.24;-0.24;-134.03;1620.0;1453.0;1490.0;1463.0;23.0;66.0;49.0;31.0;-0.25;0.41;-10.59;0.88;0.61;1.02
1753875308.228808;22.081;-5.831;-1.649;-2.24;-0.24;-134.03;1620.0;1453.0;1490.0;1463.0;23.0;66.0;49.0;31.0;-0.23;0.41;-10.52;0.85;0.77;1.02
1753875308.233808;22.081;-5.831;-1.649;-2.24;-0.24;-134.03;1620.0;1453.0;1490.0;1463.0;23.0;66.0;49.0;31.0;-0.21;0.48;-10.49;0.75;0.52;2.06
1753875308.238808;22.081;-5.831;-1.649;-2.24;-0.24;-134.03;1620.0;1453.0;1490.0;1463.0;23.0;66.0;49.0;31.0;-0.22;0.46;-10.52;0.8;0.54;1.08
1753875308.243808;22.081;-5.831;-1.649;-2.24;-0.24;-134.03;1620.0;1453.0;1490.0;1463.0;23.0;66.0;49.0;31.0;-0.22;0.47;-10.56;0.81;0.87;0.83
1753875308.248808;22.081;-5.831;-1.649;-2.24;-0.24;-134.03;1620.0;1453.0;1490.0;1463.0;23.0;66.0;49.0;31.0;-0.23;0.53;-10.56;0.76;0.54;2.33
1753875308.253808;22.081;-5.831;-1.649;-2.24;-0.24;-134.03;1620.0;1453.0;1490.0;1463.0;23.0;66.0;49.0;31.0;-0.23;0.53;-10.57;0.94;0.57;0.8
1753875308.258808;22.081;-5.831;-1.649;-2.24;-0.24;-134.03;1620.0;1453.0;1490.0;1463.0;23.0;66.0;49.0;31.0;-0.26;0.54;-10.58;0.9;0.7;-0.03
1753875308.263808;22.081;-5.831;-1.649;-2.24;-0.24;-134.03;1620.0;1453.0;1490.0;1463.0;23.0;66.0;49.0;31.0;-0.25;0.62;-10.58;0.78;0.5;1.54
1753875308.268808;22.079;-5.836;-1.649;-2.09;-0.38;-134.0;1674.1;1497.5;1346.5;1349.5;28.1;51.9;18.3;45.8;-0.37;0.76;-10.63;0.91;0.32;1.92
1753875308.273808;22.072;-5.851;-1.649;-2.33;-0.19;-134.04;1445.6;1449.9;1573.9;1628.4;18.0;43.3;-51.1;1.7;-0.35;0.69;-10.57;1.87;0.63;1.78
1753875308.278808;22.077;-5.833;-1.649;-2.58;-0.31;-134.02;1988.9;1277.1;1154.1;1094.8;18.7;56.1;45.6;18.1;-0.2;0.78;-10.6;1.7;0.17;0.05
1753875308.283808;22.078;-5.838;-1.649;-2.22;-0.29;-134.03;1596.5;1529.6;1665.1;1051.3;20.9;35.4;74.7;65.9;-0.08;0.35;-10.55;0.59;0.14;0.71
1753875308.288808;22.075;-5.835;-1.649;-2.25;-0.17;-134.03;1902.8;1493.2;1710.3;1422.3;15.6;33.7;52.9;19.1;-0.04;0.8;-10.66;0.54;-0.47;-0.78
1753875308.293809;22.066;-5.832;-1.649;-1.91;-0.33;-134.06;1709.7;1425.2;1330.8;1459.5;16.2;22.6;19.7;38.2;-0.16;0.33;-10.65;0.74;0.36;2.74
1753875308.298809;22.065;-5.829;-1.649;-2.48;-0.17;-133.97;1657.4;1527.2;1554.6;1487.7;16.1;63.0;57.3;72.4;-0.02;0.72;-10.6;0.9;0.76;-0.94
1753875308.303809;22.073;-5.841;-1.649;-2.16;-0.36;-133.99;1520.5;1452.8;1462.0;1274.0;10.9;38.2;53.5;104.3;-0.21;0.37;-10.65;0.56;0.21;0.76
1753875308.308809;22.068;-5.83;-1.649;-2.4;-0.17;-134.05;1634.9;1677.1;1371.4;1050.3;10.9;75.2;49.9;24.7;-0.13;0.43;-10.63;0.39;0.16;0.63
1753875308.313809;22.083;-5.836;-1.649;-2.39;-0.47;-134.06;1587.4;1441.9;1728.3;1351.7;13.3;15.5;21.1;7.6;-0.1;0.45;-10.65;0.91;-0.7;0.26
1753875308.318809;22.064;-5.846;-1.649;-2.45;-0.3;-134.01;1449.1;1440.4;1405.0;1427.9;2.8;3.6;12.1;25.7;0.04;0.52;-10.72;-0.38;-0.38;0.59
1753875308.32381;22.079;-5.837;-1.649;-2.34;-0.45;-134.07;1507.8;1387.5;1622.3;1490.9;7.3;43.1;84.7;114.4;-0.24;0.4;-10.71;0.6;-0.53;0.33
1753875308.32881;22.06;-5.854;-1.649;-2.18;-0.25;-134.06;1679.4;1647.4;1592.3;1504.0;7.0;-20.8;56.9;32.4;0.07;0.55;-10.59;1.06;-0.64;1.18
1753875308.33381;22.078;-5.85;-1.649;-2.44;-0.08;-134.05;1790.2;1555.2;1398.6;1564.3;6.9;10.8;46.4;80.8;-0.13;0.78;-10.7;1.0;-0.59;1.57
1753875308.33881;22.072;-5.848;-1.649;-2.36;-0.27;-134.02;1504.8;1654.0;1399.5;1573.6;7.4;9.0;51.8;27.0;0.11;0.37;-10.62;0.41;-0.91;2.26
1753875308.34381;22.065;-5.853;-1.649;-2.34;-0.39;-134.01;1729.1;1409.6;1379.6;1461.0;6.6;-57.2;37.8;55.7;-0.0;0.5;-10.62;0.3;0.08;0.18
1753875308.34881;22.065;-5.835;-1.649;-2.29;-0.36;-134.02;1854.8;1560.2;1526.4;1627.3;7.2;25.7;17.2;13.3;-0.02;0.44;-10.65;0.35;-0.52;1.62
1753875308.35381;22.074;-5.853;-1.649;-2.72;-0.26;-134.01;1784.7;1646.9;1912.0;1313.6;5.3;5.0;8.2;27.6;0.07;0.49;-10.7;-0.02;-0.65;0.87
1753875308.35881;22.051;-5.853;-1.649;-2.54;-0.39;-134.03;1642.4;1677.8;1316.3;1611.5;-2.8;-11.7;8.2;40.8;0.11;0.59;-10.74;-0.2;-0.89;2.06
1753875308.363808;22.061;-5.852;-1.649;-2.47;-0.33;-134.05;1683.0;1636.0;1480.0;1473.0;1.0;-4.0;30.0;16.0;0.06;0.43;-10.73;-0.07;-0.69;0.75
1753875308.368808;22.054;-5.86;-1.649;-2.34;-0.44;-134.07;1797.5;1577.7;1829.5;1772.1;0.7;11.9;16.2;36.9;-0.09;0.43;-10.77;-0.65;-0.55;0.88
1753875308.373808;22.066;-5.859;-1.649;-2.68;-0.37;-134.04;1706.2;1715.4;1559.5;1830.8;-0.8;-9.7;17.0;26.0;0.06;0.35;-10.82;0.08;-0.76;1.83
1753875308.378808;22.077;-5.862;-1.649;-2.55;-0.31;-134.02;1641.2;1601.0;1212.0;1519.2;3.0;18.5;-5.4;9.4;0.09;0.49;-10.75;0.51;-0.42;1.93
1753875308.383808;22.055;-5.862;-1.649;-2.41;-0.17;-134.04;1425.7;1781.0;1441.2;1810.4;6.1;-21.3;43.5;-5.1;-0.01;0.48;-10.66;0.49;-0.77;-0.04
1753875308.388808;22.039;-5.838;-1.649;-2.55;-0.37;-134.03;1752.9;1818.1;1281.7;1546.9;-8.1;-12.8;-0.9;56.2;0.15;0.37;-10.65;0.03;-0.82;-0.06
1753875308.393808;22.067;-5.852;-1.649;-2.46;-0.36;-134.08;1794.4;1728.9;1506.3;1657.6;1.7;9.2;34.0;-36.7;0.1;0.37;-10.66;-0.19;-0.37;1.12
1753875308.398809;22.048;-5.879;-1.649;-2.37;-0.37;-134.03;1754.4;1764.6;1426.8;1541.5;0.2;-39.5;29.6;21.8;0.01;0.48;-10.67;-0.01;-0.1;1.18
1753875308.403809;22.05;-5.828;-1.649;-2.46;-0.39;-134.06;1724.8;1722.3;1628.1;1256.6;10.4;-3.6;40.5;-1.1;-0.04;0.28;-10.55;-0.04;-0.27;0.04
1753875308.408809;22.056;-5.859;-1.649;-2.4;-0.34;-134.03;1642.8;1533.0;1359.9;1387.0;5.4;0.0;59.0;18.9;0.07;0.33;-10.73;0.16;-0.0;-0.61
1753875308.413809;22.051;-5.868;-1.649;-2.46;-0.47;-134.07;1841.6;1678.2;1496.5;1536.7;5.2;-4.1;12.5;54.7;0.11;0.57;-10.77;0.11;-0.06;0.08
1753875308.418809;22.038;-5.846;-1.649;-2.48;-0.5;-134.08;1944.0;1904.9;1405.2;1668.8;6.2;6.8;25.0;27.7;0.05;0.43;-10.68;0.58;-0.03;0.27
1753875308.423809;22.061;-5.843;-1.649;-2.56;-0.6;-134.05;1593.4;1707.1;1464.1;1584.6;16.5;-20.9;68.8;75.1;0.15;0.42;-10.62;0.06;-0.29;1.59
1753875308.42881;22.061;-5.851;-1.649;-2.32;-0.39;-134.04;1751.3;1895.3;1490.6;1518.8;18.0;-5.0;-11.3;13.4;0.07;0.24;-10.65;0.48;-0.59;1.31
1753875308.43381;22.051;-5.858;-1.649;-2.28;-0.46;-134.04;1738.9;1729.5;1635.1;1325.0;4.5;-3.5;82.9;-5.5;0.01;0.39;-10.6;0.48;-0.8;2.03
1753875308.43881;22.045;-5.849;-1.649;-2.2;-0.5;-134.03;1708.1;1753.5;1517.3;1781.6;7.3;0.4;39.6;16.4;0.03;0.43;-10.61;0.41;0.08;-1.05
1753875308.44381;22.05;-5.854;-1.649;-2.55;-0.67;-134.05;1832.4;1808.4;1679.2;1547.5;15.1;-40.3;43.1;8.7;-0.03;0.3;-10.68;0.73;0.01;0.36
1753875308.44881;22.051;-5.833;-1.649;-2.89;-0.54;-134.03;1768.6;1922.4;1437.0;1569.2;13.3;-3.6;65.4;11.6;0.02;0.52;-10.55;0.58;-0.39;-0.42
1753875308.45381;22.063;-5.87;-1.649;-2.41;-0.46;-134.03;1898.0;1844.0;1604.1;1404.0;13.3;-12.2;81.6;40.5;0.06;0.27;-10.56;0.74;0.26;0.28
1753875308.45881;22.052;-5.847;-1.649;-2.61;-0.59;-134.04;1706.2;1879.8;1654.0;1653.9;21.3;-27.0;50.4;38.3;-0.01;0.28;-10.69;1.44;-0.26;-0.44
