DeviceID;Timestamp;Temperature;GyroX;GyroY;GyroZ;AccelX;AccelY;AccelZ;Dist1;Dist2;Dist3;Err1;Err2;Err3
3.0;1753875095.73479;15.679688;0.77;-1.33;-0.28;0.187758;-1.007354;-0.005734;140.0;0.0;0.0;5.0;0.0;0.0
3.0;1753875095.740815;15.679688;0.77;-1.33;-0.21;0.189466;-1.006744;-0.006222;140.0;0.0;0.0;5.0;0.0;0.0
3.0;1753875095.744157;15.679688;0.7;-1.33;-0.28;0.188734;-1.006622;-0.005246;140.0;0.0;0.0;5.0;0.0;0.0
3.0;1753875095.74896;15.6875;0.7;-1.33;-0.21;0.189954;-1.006988;-0.005978;140.0;0.0;0.0;5.0;0.0;0.0
3.0;1753875095.753415;15.6875;0.77;-1.33;-0.21;0.189954;-1.006988;-0.005978;140.0;0.0;0.0;5.0;0.0;0.0
3.0;1753875095.758141;15.689454;1.52;-1.33;0.61;0.238703;-0.994306;-0.000919;140.2;0.0;0.1;5.2;0.0;0.0
3.0;1753875095.763477;15.6875;0.77;-1.4;-0.14;0.189222;-1.005524;-0.005856;140.0;0.0;0.0;5.0;0.0;0.0
3.0;1753875095.768113;15.632812;0.77;-1.4;-0.14;0.188978;-1.00772;-0.005246;140.0;0.0;0.0;5.0;0.0;0.0
3.0;1753875095.77472;15.632812;0.7;-1.26;-0.14;0.190442;-1.006622;-0.004392;142.0;0.0;0.0;4.0;0.0;0.0
3.0;1753875095.777082;15.632812;0.7;-1.26;-0.21;0.190442;-1.006622;-0.004392;142.0;0.0;0.0;4.0;0.0;0.0
3.0;1753875095.781591;15.632812;0.7;-1.33;-0.21;0.18849;-1.00772;-0.003904;142.0;0.0;0.0;4.0;0.0;0.0
3.0;1753875095.786266;15.667969;0.77;-1.33;-0.28;0.190442;-1.007232;-0.004514;142.0;0.0;0.0;4.0;0.0;0.0
3.0;1753875095.790953;15.667969;0.7;-1.33;-0.21;0.188612;-1.00772;-0.005368;142.0;0.0;0.0;4.0;0.0;0.0
3.0;1753875095.795628;15.667969;0.7;-1.33;-0.14;0.189344;-1.006744;-0.005612;142.0;0.0;0.0;4.0;0.0;0.0
3.0;1753875095.800306;15.667969;0.77;-1.47;-0.21;0.190808;-1.006378;-0.005124;142.0;0.0;0.0;4.0;0.0;0.0
3.0;1753875095.805032;15.645904;0.78;-1.49;-0.25;0.188841;-1.006759;-0.006313;141.9;0.0;0.0;4.5;0.0;0.0
3.0;1753875095.811579;15.679688;0.7;-1.4;-0.21;0.189344;-1.007232;-0.005978;142.0;0.0;0.0;4.0;0.0;0.0
3.0;1753875095.814441;15.679688;0.7;-1.26;-0.14;0.191418;-1.004792;-0.004514;142.0;0.0;0.0;4.0;0.0;0.0
3.0;1753875095.82249;15.679688;0.77;-1.33;-0.21;0.189222;-1.006988;-0.005124;141.0;0.0;0.0;4.0;0.0;0.0
3.0;1753875095.823654;15.652344;0.77;-1.26;-0.14;0.18971;-1.007232;-0.00549;141.0;0.0;0.0;4.0;0.0;0.0
3.0;1753875095.82854;15.652344;0.7;-1.33;-0.14;0.18971;-1.006622;-0.006466;141.0;0.0;0.0;4.0;0.0;0.0
3.0;1753875095.833065;15.652344;0.7;-1.4;-0.21;0.188246;-1.006134;-0.005856;141.0;0.0;0.0;4.0;0.0;0.0
3.0;1753875095.839396;15.652344;0.77;-1.26;-0.21;0.190686;-1.006256;-0.005368;141.0;0.0;0.0;4.0;0.0;0.0
3.0;1753875095.842638;15.640625;0.7;-1.33;-0.21;0.188246;-1.005646;-0.005246;141.0;0.0;0.0;4.0;0.0;0.0
3.0;1753875095.847113;15.640625;0.77;-1.33;-0.14;0.192028;-1.00589;-0.00488;141.0;0.0;0.0;4.0;0.0;0.0
3.0;1753875095.851839;15.66393;0.86;-1.32;-0.12;0.189631;-1.006218;-0.005191;139.6;0.0;0.0;3.5;0.0;0.0
3.0;1753875095.860197;15.640625;0.77;-1.33;-0.14;0.190808;-1.006988;-0.005368;141.0;0.0;0.0;4.0;0.0;0.0
3.0;1753875095.861083;15.640625;0.7;-1.26;-0.21;0.189954;-1.006866;-0.005246;141.0;0.0;0.0;4.0;0.0;0.0
3.0;1753875095.86582;15.640625;0.77;-1.33;-0.14;0.188612;-1.0065;-0.00488;141.0;0.0;0.0;4.0;0.0;0.0
3.0;1753875095.872923;15.640625;0.77;-1.33;-0.14;0.189588;-1.007598;-0.006344;141.0;0.0;0.0;4.0;0.0;0.0
3.0;1753875095.875262;15.640625;0.7;-1.33;-0.14;0.188612;-1.0065;-0.0061;141.0;0.0;0.0;4.0;0.0;0.0
3.0;1753875095.879856;15.625;0.63;-1.26;-0.14;0.189466;-1.00772;-0.005124;141.0;0.0;0.0;4.0;0.0;0.0
3.0;1753875095.88452;15.625;0.63;-1.33;-0.28;0.188368;-1.006256;-0.0061;141.0;0.0;0.0;4.0;0.0;0.0
3.0;1753875095.889212;15.625;0.77;-1.33;-0.21;0.190564;-1.006378;-0.00488;141.0;0.0;0.0;4.0;0.0;0.0
3.0;1753875095.893882;15.625;0.84;-1.26;-0.21;0.189222;-1.006378;-0.005856;141.0;0.0;0.0;4.0;0.0;0.0
3.0;1753875095.898573;15.65625;0.7;-1.33;-0.21;0.189466;-1.0065;-0.005734;141.0;0.0;0.0;4.0;0.0;0.0
3.0;1753875095.903299;15.682207;0.76;-1.33;-0.23;0.190655;-1.006573;-0.004866;140.9;0.0;0.0;4.0;0.0;0.0
3.0;1753875095.909959;15.65625;0.7;-1.33;-0.14;0.189954;-1.007476;-0.005002;141.0;0.0;0.0;4.0;0.0;0.0
3.0;1753875095.912772;15.65625;0.7;-1.33;-0.21;0.189344;-1.006988;-0.005368;141.0;0.0;0.0;4.0;0.0;0.0
3.0;1753875095.917498;15.629584;0.67;-1.32;-0.16;0.187178;-1.008157;-0.004642;142.3;0.0;0.0;5.5;0.0;0.0
3.0;1753875095.923074;15.640625;0.7;-1.26;-0.14;0.189832;-1.007964;-0.00488;145.0;0.0;0.0;6.0;0.0;0.0
3.0;1753875095.926807;15.640625;0.7;-1.33;-0.21;0.189466;-1.009306;-0.003782;145.0;0.0;0.0;6.0;0.0;0.0
3.0;1753875095.931858;15.640625;0.7;-1.33;-0.21;0.188856;-1.006744;-0.004148;145.0;0.0;0.0;6.0;0.0;0.0
3.0;1753875095.935954;15.636719;0.77;-1.26;-0.21;0.191296;-1.006866;-0.005368;145.0;0.0;0.0;6.0;0.0;0.0
3.0;1753875095.940714;15.636719;0.7;-1.33;-0.28;0.187026;-1.007476;-0.005246;145.0;0.0;0.0;6.0;0.0;0.0
3.0;1753875095.945933;15.636719;0.63;-1.33;-0.21;0.191662;-1.006622;-0.004758;145.0;0.0;0.0;6.0;0.0;0.0
3.0;1753875095.950659;15.637555;0.77;-1.37;-0.26;0.190077;-1.005574;-0.004971;143.1;0.0;0.0;5.7;0.0;0.0
3.0;1753875095.958343;15.640625;0.77;-1.33;-0.14;0.189954;-1.006866;-0.005368;145.0;0.0;0.0;6.0;0.0;0.0
3.0;1753875095.959286;15.640625;0.63;-1.26;-0.21;0.189954;-1.006866;-0.005368;145.0;0.0;0.0;6.0;0.0;0.0
3.0;1753875095.964089;15.640625;0.7;-1.26;-0.21;0.1891;-1.007354;-0.006222;145.0;0.0;0.0;6.0;0.0;0.0
3.0;1753875095.970934;15.640625;0.77;-1.33;-0.14;0.188856;-1.00833;-0.00427;137.0;0.0;0.0;4.0;0.0;0.0
3.0;1753875095.973706;15.664062;0.77;-1.33;-0.21;0.189222;-1.00772;-0.004758;137.0;0.0;0.0;4.0;0.0;0.0
3.0;1753875095.978119;15.664062;0.7;-1.33;-0.21;0.189832;-1.006012;-0.00488;137.0;0.0;0.0;4.0;0.0;0.0
3.0;1753875095.982799;15.664062;0.77;-1.4;-0.21;0.190076;-1.00711;-0.006954;137.0;0.0;0.0;4.0;0.0;0.0
3.0;1753875095.98811;15.664062;0.7;-1.33;-0.14;0.190076;-1.00711;-0.006954;137.0;0.0;0.0;4.0;0.0;0.0
3.0;1753875095.992145;15.664062;0.77;-1.26;-0.21;0.190198;-1.006134;-0.004758;137.0;0.0;0.0;4.0;0.0;0.0
3.0;1753875095.996781;15.664062;0.77;-1.26;-0.21;0.18727;-1.007598;-0.005978;137.0;0.0;0.0;4.0;0.0;0.0
3.0;1753875096.001507;15.657299;0.82;-1.2;-0.25;0.186031;-1.006446;-0.006972;136.9;0.0;0.0;3.5;0.0;0.0
3.0;1753875096.006233;15.6626;0.74;-1.24;-0.2;0.187132;-1.007476;-0.005751;140.2;0.0;0.0;5.0;0.0;0.0
3.0;1753875096.010959;15.665903;0.79;-1.29;-0.27;0.186637;-1.008619;-0.004585;138.6;0.0;0.0;4.3;0.0;0.0
3.0;1753875096.015685;15.660065;0.78;-1.24;-0.2;0.186997;-1.00764;-0.00571;141.5;0.0;0.0;3.7;0.0;0.0
3.0;1753875096.020411;15.678394;0.84;-1.23;-0.17;0.186864;-1.006355;-0.006789;135.6;0.0;0.0;3.5;0.0;0.0
3.0;1753875096.025137;15.675727;0.79;-1.28;-0.2;0.190549;-1.00705;-0.006229;139.5;0.0;0.0;3.8;0.0;0.0
3.0;1753875096.029863;15.668905;0.77;-1.28;-0.23;0.187649;-1.006349;-0.007037;139.6;0.0;0.0;3.7;0.0;0.0
3.0;1753875096.034588;15.642609;0.82;-1.26;-0.2;0.189041;-1.007709;-0.006211;137.0;0.0;0.0;6.3;0.0;0.0
3.0;1753875096.039314;15.66863;0.75;-1.21;-0.27;0.184983;-1.006829;-0.005933;135.3;0.0;0.0;2.2;0.0;0.0
3.0;1753875096.04404;15.681895;0.76;-1.26;-0.22;0.18956;-1.006057;-0.0055;129.1;0.0;0.0;3.0;0.0;0.0
3.0;1753875096.048766;15.678876;0.75;-1.26;-0.22;0.188894;-1.00514;-0.006324;138.9;0.0;0.0;4.2;0.0;0.0
3.0;1753875096.053492;15.66067;0.73;-1.25;-0.21;0.189686;-1.005591;-0.006289;134.1;0.0;0.0;3.7;0.0;0.0
3.0;1753875096.058218;15.660573;0.77;-1.21;-0.15;0.188342;-1.005739;-0.006793;137.6;0.0;0.0;4.7;0.0;0.0
3.0;1753875096.062944;15.671027;0.76;-1.28;-0.19;0.187376;-1.006598;-0.005428;144.2;0.0;0.0;4.6;0.0;0.0
3.0;1753875096.06767;15.674303;0.77;-1.26;-0.24;0.189054;-1.006964;-0.00646;135.9;0.0;0.0;4.4;0.0;0.0
3.0;1753875096.072396;15.675715;0.75;-1.24;-0.2;0.189141;-1.00677;-0.005709;135.1;0.0;0.0;4.4;0.0;0.0
3.0;1753875096.077122;15.665353;0.76;-1.32;-0.21;0.187504;-1.006046;-0.007207;129.6;0.0;0.0;3.5;0.0;0.0
3.0;1753875096.081848;15.656879;0.72;-1.23;-0.19;0.189297;-1.006111;-0.005759;136.3;0.0;0.0;4.8;0.0;0.0
3.0;1753875096.086574;15.664172;0.71;-1.24;-0.22;0.189548;-1.006767;-0.00542;138.3;0.0;0.0;4.5;0.0;0.0
3.0;1753875096.0913;15.651566;0.73;-1.28;-0.26;0.18874;-1.005561;-0.004571;138.3;0.0;0.0;4.4;0.0;0.0
3.0;1753875096.096026;15.671865;0.75;-1.2;-0.17;0.190428;-1.007367;-0.006098;147.0;0.0;0.0;4.3;0.0;0.0
3.0;1753875096.10293;15.664062;0.77;-1.26;-0.21;0.189344;-1.005768;-0.00549;137.0;0.0;0.0;4.0;0.0;0.0
3.0;1753875096.10814;15.652344;0.7;-1.33;-0.28;0.190564;-1.006744;-0.005612;137.0;0.0;0.0;4.0;0.0;0.0
3.0;1753875096.112866;15.653799;0.74;-1.31;-0.31;0.191032;-1.007397;-0.006399;133.3;0.0;0.0;3.1;0.0;0.0
3.0;1753875096.117592;15.664216;0.6;-1.28;-0.19;0.189849;-1.006092;-0.005875;140.2;0.0;0.0;4.3;0.0;0.0
3.0;1753875096.122318;15.65451;0.69;-1.3;-0.25;0.188379;-1.006232;-0.005907;136.2;0.0;0.0;3.5;0.0;0.0
3.0;1753875096.127044;15.65319;0.63;-1.33;-0.3;0.18864;-1.007108;-0.005908;134.7;0.0;0.0;3.4;0.0;0.0
3.0;1753875096.13177;15.662211;0.68;-1.38;-0.29;0.189975;-1.007234;-0.004923;136.9;0.0;0.0;3.8;0.0;0.0
3.0;1753875096.136496;15.660623;0.69;-1.31;-0.22;0.189623;-1.006631;-0.00495;140.8;0.0;0.0;2.1;0.0;0.0
3.0;1753875096.141222;15.648547;0.69;-1.3;-0.25;0.19226;-1.008024;-0.005103;139.3;0.0;0.0;3.1;0.0;0.0
3.0;1753875096.145948;15.635667;0.74;-1.39;-0.31;0.190766;-1.005122;-0.004819;139.8;0.0;0.0;5.1;0.0;0.0
3.0;1753875096.150674;15.631888;0.63;-1.3;-0.23;0.191742;-1.008323;-0.006063;141.5;0.0;0.0;4.7;0.0;0.0
3.0;1753875096.155399;15.644753;0.59;-1.35;-0.24;0.189966;-1.006872;-0.00565;140.7;0.0;0.0;3.9;0.0;0.0
3.0;1753875096.160125;15.679907;0.65;-1.38;-0.29;0.190689;-1.007535;-0.004638;140.3;0.0;0.0;5.7;0.0;0.0
3.0;1753875096.164851;15.668562;0.58;-1.33;-0.29;0.191058;-1.008105;-0.004745;144.4;0.0;0.0;3.2;0.0;0.0
3.0;1753875096.169577;15.65761;0.65;-1.33;-0.29;0.19068;-1.007741;-0.006158;137.7;0.0;0.0;5.4;0.0;0.0
3.0;1753875096.174303;15.638414;0.63;-1.36;-0.23;0.190594;-1.005847;-0.003652;140.9;0.0;0.0;2.6;0.0;0.0
3.0;1753875096.179029;15.666598;0.74;-1.26;-0.24;0.189403;-1.007083;-0.005905;135.8;0.0;0.0;3.3;0.0;0.0
3.0;1753875096.183755;15.634089;0.63;-1.35;-0.28;0.190302;-1.007898;-0.005452;133.5;0.0;0.0;4.5;0.0;0.0
3.0;1753875096.188481;15.649458;0.69;-1.27;-0.32;0.190438;-1.007499;-0.004014;139.1;0.0;0.0;2.8;0.0;0.0
3.0;1753875096.193207;15.652413;0.64;-1.34;-0.38;0.189354;-1.008685;-0.004083;147.5;0.0;0.0;4.2;0.0;0.0
3.0;1753875096.197933;15.647056;0.68;-1.34;-0.28;0.191674;-1.007376;-0.004012;142.2;0.0;0.0;3.6;0.0;0.0
3.0;1753875096.202659;15.681922;0.62;-1.39;-0.33;0.191264;-1.007948;-0.003941;140.4;0.0;0.0;3.5;0.0;0.0
3.0;1753875096.21139;15.652344;0.63;-1.33;-0.28;0.19032;-1.007842;-0.004392;141.0;0.0;0.0;4.0;0.0;0.0
3.0;1753875096.216116;15.663807;0.65;-1.28;-0.34;0.192257;-1.007356;-0.00558;150.9;0.0;0.0;5.2;0.0;0.0
3.0;1753875096.220842;15.663256;0.69;-1.3;-0.3;0.191987;-1.006899;-0.006152;142.6;0.0;0.0;2.0;0.0;0.0
3.0;1753875096.225568;15.642719;0.49;-1.4;-0.23;0.189481;-1.008535;-0.003602;144.1;0.0;0.0;4.8;0.0;0.0
3.0;1753875096.230294;15.661739;0.7;-1.36;-0.31;0.189354;-1.007117;-0.005523;137.8;0.0;0.0;3.4;0.0;0.0
3.0;1753875096.23502;15.665103;0.71;-1.39;-0.26;0.190583;-1.006398;-0.004034;139.0;0.0;0.0;4.9;0.0;0.0
3.0;1753875096.239746;15.635517;0.68;-1.34;-0.27;0.190622;-1.006264;-0.00632;137.7;0.0;0.0;3.6;0.0;0.0
3.0;1753875096.244472;15.663449;0.65;-1.37;-0.27;0.190107;-1.005961;-0.00395;140.7;0.0;0.0;3.0;0.0;0.0
3.0;1753875096.249198;15.687237;0.64;-1.38;-0.22;0.189452;-1.005369;-0.005511;139.8;0.0;0.0;4.5;0.0;0.0
3.0;1753875096.253924;15.640087;0.71;-1.33;-0.28;0.190364;-1.007512;-0.004617;140.7;0.0;0.0;5.2;0.0;0.0
3.0;1753875096.25875;15.652344;0.7;-1.4;-0.21;0.19032;-1.006378;-0.005368;141.0;0.0;0.0;4.0;0.0;0.0
3.0;1753875096.263476;15.637469;0.78;-1.34;-0.18;0.189909;-1.00561;-0.005803;145.1;0.0;0.0;3.7;0.0;0.0
3.0;1753875096.268202;15.640356;0.68;-1.42;-0.24;0.187979;-1.008062;-0.00472;138.6;0.0;0.0;3.4;0.0;0.0
3.0;1753875096.272928;15.640978;0.7;-1.39;-0.23;0.191997;-1.008229;-0.006867;144.7;0.0;0.0;5.9;0.0;0.0
3.0;1753875096.277654;15.641451;0.75;-1.36;-0.23;0.189155;-1.007533;-0.006095;136.3;0.0;0.0;4.5;0.0;0.0
3.0;1753875096.28238;15.656192;0.83;-1.35;-0.16;0.190666;-1.007703;-0.004248;145.0;0.0;0.0;1.4;0.0;0.0
3.0;1753875096.287106;15.646868;0.9;-1.29;-0.18;0.18948;-1.006852;-0.004468;140.3;0.0;0.0;4.6;0.0;0.0
3.0;1753875096.29563;15.652344;0.84;-1.33;-0.21;0.188734;-1.007354;-0.00488;141.0;0.0;0.0;4.0;0.0;0.0
3.0;1753875096.300356;15.6456;0.79;-1.28;-0.21;0.190617;-1.007555;-0.004775;138.6;0.0;0.0;4.2;0.0;0.0
3.0;1753875096.305082;15.649099;0.79;-1.31;-0.21;0.185234;-1.006746;-0.005381;140.3;0.0;0.0;3.7;0.0;0.0
3.0;1753875096.309808;15.6585;0.73;-1.34;-0.17;0.191508;-1.007142;-0.004203;146.3;0.0;0.0;2.6;0.0;0.0
3.0;1753875096.314534;15.6505;0.73;-1.39;-0.24;0.188409;-1.006212;-0.004619;150.8;0.0;0.0;2.0;0.0;0.0
3.0;1753875096.31926;15.640271;0.76;-1.32;-0.17;0.189846;-1.007747;-0.003414;138.4;0.0;0.0;5.1;0.0;0.0
3.0;1753875096.323986;15.64826;0.83;-1.33;-0.21;0.188743;-1.006827;-0.004908;136.2;0.0;0.0;2.7;0.0;0.0
3.0;1753875096.328712;15.638713;0.85;-1.33;-0.23;0.185347;-1.007212;-0.003782;138.3;0.0;0.0;3.9;0.0;0.0
3.0;1753875096.333438;15.649542;0.75;-1.35;-0.17;0.188039;-1.00706;-0.004606;134.4;0.0;0.0;4.8;0.0;0.0
3.0;1753875096.338164;15.659965;0.77;-1.26;-0.26;0.189864;-1.006767;-0.003049;133.1;0.0;0.0;4.8;0.0;0.0
3.0;1753875096.34267;15.652344;0.77;-1.33;-0.21;0.1891;-1.006622;-0.00427;141.0;0.0;0.0;4.0;0.0;0.0
3.0;1753875096.347396;15.681046;0.73;-1.31;-0.19;0.187611;-1.005397;-0.003495;140.1;0.0;0.0;4.4;0.0;0.0
3.0;1753875096.352122;15.649239;0.73;-1.31;-0.19;0.189184;-1.006317;-0.004518;140.7;0.0;0.0;5.3;0.0;0.0
3.0;1753875096.356848;15.640089;0.86;-1.4;-0.22;0.190427;-1.006081;-0.004606;138.4;0.0;0.0;3.2;0.0;0.0
3.0;1753875096.361574;15.64674;0.76;-1.29;-0.29;0.189755;-1.006495;-0.004684;144.3;0.0;0.0;5.0;0.0;0.0
3.0;1753875096.3663;15.627495;0.82;-1.31;-0.27;0.190268;-1.005731;-0.005574;139.0;0.0;0.0;3.5;0.0;0.0
3.0;1753875096.371026;15.654537;0.75;-1.36;-0.25;0.189619;-1.005762;-0.005211;140.4;0.0;0.0;5.2;0.0;0.0
3.0;1753875096.375752;15.662823;0.77;-1.34;-0.17;0.189242;-1.005261;-0.005478;137.5;0.0;0.0;4.1;0.0;0.0
3.0;1753875096.380478;15.667046;0.75;-1.39;-0.19;0.189382;-1.007752;-0.005387;144.3;0.0;0.0;6.0;0.0;0.0
3.0;1753875096.385203;15.641682;0.74;-1.28;-0.21;0.188402;-1.007321;-0.004441;142.5;0.0;0.0;4.7;0.0;0.0
3.0;1753875096.389929;15.652255;0.72;-1.32;-0.09;0.19048;-1.00692;-0.007019;139.6;0.0;0.0;4.5;0.0;0.0
3.0;1753875096.39813;15.652344;0.7;-1.33;-0.21;0.19032;-1.0065;-0.006954;141.0;0.0;0.0;4.0;0.0;0.0
3.0;1753875096.402856;15.635846;0.69;-1.34;-0.29;0.18862;-1.007333;-0.007193;139.8;0.0;0.0;4.1;0.0;0.0
3.0;1753875096.407582;15.650227;0.71;-1.34;-0.19;0.18967;-1.006381;-0.006776;138.2;0.0;0.0;3.9;0.0;0.0
3.0;1753875096.412308;15.661528;0.67;-1.32;-0.32;0.189498;-1.006402;-0.006271;140.6;0.0;0.0;4.1;0.0;0.0
3.0;1753875096.417034;15.659551;0.66;-1.37;-0.15;0.191216;-1.006307;-0.00584;151.2;0.0;0.0;3.8;0.0;0.0
3.0;1753875096.42176;15.658653;0.62;-1.4;-0.23;0.189488;-1.006287;-0.007438;144.1;0.0;0.0;5.1;0.0;0.0
3.0;1753875096.426486;15.658116;0.7;-1.37;-0.14;0.191297;-1.006229;-0.004426;137.6;0.0;0.0;1.7;0.0;0.0
3.0;1753875096.431212;15.6675;0.73;-1.33;-0.19;0.190376;-1.006573;-0.00555;138.6;0.0;0.0;4.1;0.0;0.0
3.0;1753875096.43605;15.652344;0.7;-1.33;-0.21;0.189466;-1.006866;-0.005734;141.0;0.0;0.0;4.0;0.0;0.0
3.0;1753875096.440776;15.652734;0.87;-1.29;-0.23;0.189459;-1.007831;-0.006719;144.2;0.0;0.0;3.7;0.0;0.0
3.0;1753875096.445502;15.654556;0.77;-1.25;-0.21;0.188606;-1.006203;-0.005979;139.7;0.0;0.0;5.0;0.0;0.0
3.0;1753875096.450228;15.639094;0.72;-1.35;-0.23;0.18972;-1.007137;-0.006197;136.1;0.0;0.0;4.6;0.0;0.0
3.0;1753875096.454954;15.625729;0.65;-1.34;-0.22;0.190136;-1.006659;-0.00707;139.2;0.0;0.0;3.8;0.0;0.0
3.0;1753875096.45968;15.654606;0.6;-1.31;-0.21;0.190396;-1.006228;-0.006653;142.8;0.0;0.0;3.4;0.0;0.0
3.0;1753875096.464406;15.634136;0.72;-1.32;-0.2;0.189477;-1.006557;-0.005183;140.3;0.0;0.0;4.0;0.0;0.0
3.0;1753875096.469132;15.653289;0.65;-1.39;-0.17;0.189798;-1.00655;-0.006655;140.1;0.0;0.0;4.4;0.0;0.0
3.0;1753875096.473858;15.637209;0.64;-1.31;-0.12;0.189257;-1.006692;-0.00559;138.1;0.0;0.0;4.5;0.0;0.0
3.0;1753875096.478583;15.657564;0.7;-1.3;-0.22;0.189138;-1.006449;-0.00443;138.5;0.0;0.0;5.2;0.0;0.0
3.0;1753875096.483309;15.661566;0.7;-1.37;-0.22;0.189549;-1.008092;-0.005579;139.8;0.0;0.0;4.0;0.0;0.0
3.0;1753875096.488035;15.645857;0.63;-1.34;-0.19;0.188891;-1.007223;-0.006873;138.8;0.0;0.0;4.3;0.0;0.0
3.0;1753875096.492761;15.659671;0.78;-1.35;-0.2;0.188605;-1.007212;-0.005264;139.0;0.0;0.0;2.9;0.0;0.0
3.0;1753875096.497487;15.652489;0.79;-1.28;-0.19;0.190298;-1.006933;-0.005588;144.6;0.0;0.0;2.6;0.0;0.0
3.0;1753875096.502213;15.641719;0.69;-1.38;-0.21;0.190745;-1.006481;-0.006287;140.3;0.0;0.0;5.2;0.0;0.0
3.0;1753875096.506939;15.646405;0.69;-1.27;-0.24;0.191805;-1.006818;-0.007115;139.9;0.0;0.0;3.8;0.0;0.0
3.0;1753875096.511665;15.644706;0.74;-1.31;-0.13;0.189341;-1.00683;-0.005598;143.2;0.0;0.0;4.6;0.0;0.0
3.0;1753875096.516391;15.637092;0.73;-1.35;-0.2;0.19101;-1.005832;-0.005529;139.1;0.0;0.0;5.0;0.0;0.0
3.0;1753875096.521117;15.646522;0.66;-1.18;-0.14;0.190635;-1.00628;-0.005704;137.1;0.0;0.0;4.4;0.0;0.0
3.0;1753875096.525843;15.63333;0.68;-1.26;-0.12;0.190267;-1.007665;-0.006705;141.3;0.0;0.0;3.3;0.0;0.0
3.0;1753875096.530568;15.653036;0.63;-1.26;-0.19;0.191031;-1.007617;-0.005993;140.2;0.0;0.0;3.9;0.0;0.0
3.0;1753875096.535294;15.644691;0.73;-1.29;-0.08;0.190549;-1.008845;-0.006986;144.9;0.0;0.0;3.9;0.0;0.0
3.0;1753875096.54002;15.671598;0.66;-1.26;-0.15;0.19122;-1.00718;-0.007437;142.0;0.0;0.0;5.8;0.0;0.0
3.0;1753875096.544746;15.65126;0.73;-1.29;-0.19;0.190319;-1.007735;-0.004998;145.5;0.0;0.0;4.5;0.0;0.0
3.0;1753875096.549472;15.653829;0.79;-1.33;-0.09;0.189477;-1.008566;-0.007221;140.4;0.0;0.0;2.1;0.0;0.0
3.0;1753875096.554198;15.642584;0.83;-1.32;-0.15;0.189135;-1.008193;-0.005156;143.0;0.0;0.0;4.4;0.0;0.0
3.0;1753875096.558924;15.635752;0.75;-1.26;-0.21;0.191176;-1.006292;-0.006985;137.0;0.0;0.0;4.1;0.0;0.0
3.0;1753875096.56365;15.641944;0.6;-1.31;-0.11;0.191529;-1.006804;-0.005202;135.5;0.0;0.0;2.4;0.0;0.0
3.0;1753875096.568376;15.641781;0.65;-1.2;-0.17;0.189727;-1.006721;-0.00536;139.9;0.0;0.0;4.6;0.0;0.0
3.0;1753875096.573102;15.647024;0.69;-1.26;-0.1;0.190329;-1.006153;-0.006515;137.0;0.0;0.0;4.3;0.0;0.0
3.0;1753875096.577828;15.648159;0.68;-1.27;-0.1;0.189351;-1.006074;-0.004904;144.1;0.0;0.0;2.9;0.0;0.0
3.0;1753875096.58388;15.640625;0.7;-1.26;-0.14;0.190686;-1.007232;-0.006344;141.0;0.0;0.0;4.0;0.0;0.0
3.0;1753875096.588606;15.622956;0.72;-1.21;-0.18;0.189078;-1.005712;-0.005317;143.5;0.0;0.0;4.8;0.0;0.0
3.0;1753875096.593332;15.639286;0.65;-1.27;-0.19;0.188936;-1.005165;-0.004833;135.4;0.0;0.0;4.0;0.0;0.0
3.0;1753875096.598058;15.641942;0.65;-1.24;-0.23;0.190685;-1.007347;-0.007158;138.1;0.0;0.0;3.4;0.0;0.0
3.0;1753875096.602784;15.623555;0.75;-1.22;-0.22;0.191008;-1.007233;-0.006393;140.7;0.0;0.0;4.9;0.0;0.0
3.0;1753875096.60751;15.642379;0.63;-1.31;-0.23;0.188123;-1.006678;-0.006195;145.8;0.0;0.0;4.0;0.0;0.0
3.0;1753875096.612236;15.625862;0.68;-1.23;-0.18;0.190183;-1.006395;-0.004209;139.1;0.0;0.0;3.5;0.0;0.0
3.0;1753875096.616962;15.63441;0.68;-1.31;-0.29;0.189573;-1.006378;-0.00604;138.6;0.0;0.0;4.0;0.0;0.0
3.0;1753875096.6257;15.640625;0.7;-1.26;-0.28;0.189588;-1.006256;-0.00427;141.0;0.0;0.0;4.0;0.0;0.0
3.0;1753875096.630426;15.636913;0.64;-1.19;-0.35;0.190043;-1.005813;-0.006197;139.2;0.0;0.0;3.7;0.0;0.0
3.0;1753875096.635152;15.630321;0.72;-1.25;-0.27;0.191295;-1.00728;-0.003921;139.4;0.0;0.0;3.7;0.0;0.0
3.0;1753875096.639878;15.621016;0.57;-1.27;-0.26;0.189069;-1.005506;-0.003469;148.8;0.0;0.0;4.4;0.0;0.0
3.0;1753875096.644604;15.645957;0.73;-1.26;-0.26;0.19036;-1.007119;-0.003248;140.5;0.0;0.0;3.2;0.0;0.0
3.0;1753875096.64933;15.652816;0.69;-1.24;-0.24;0.189857;-1.007626;-0.003451;137.0;0.0;0.0;4.4;0.0;0.0
3.0;1753875096.654056;15.625682;0.74;-1.18;-0.28;0.189238;-1.007172;-0.00511;139.1;0.0;0.0;4.3;0.0;0.0
3.0;1753875096.658782;15.636407;0.72;-1.22;-0.2;0.189535;-1.006734;-0.004959;141.8;0.0;0.0;4.1;0.0;0.0
3.0;1753875096.663508;15.647046;0.72;-1.23;-0.24;0.19043;-1.00595;-0.003834;142.3;0.0;0.0;3.7;0.0;0.0
3.0;1753875096.668234;15.632761;0.68;-1.22;-0.24;0.18991;-1.006516;-0.004951;135.8;0.0;0.0;3.5;0.0;0.0
3.0;1753875096.672959;15.635499;0.8;-1.25;-0.22;0.187763;-1.005713;-0.006327;137.1;0.0;0.0;4.0;0.0;0.0
3.0;1753875096.677685;15.633135;0.83;-1.26;-0.17;0.189867;-1.006584;-0.003778;138.2;0.0;0.0;3.8;0.0;0.0
3.0;1753875096.6825;15.636719;0.77;-1.26;-0.21;0.189466;-1.006256;-0.005612;138.0;0.0;0.0;4.0;0.0;0.0
3.0;1753875096.687226;15.650566;0.77;-1.25;-0.22;0.191082;-1.007247;-0.005566;136.2;0.0;0.0;4.2;0.0;0.0
3.0;1753875096.691952;15.648161;0.7;-1.24;-0.23;0.189567;-1.005438;-0.004329;138.5;0.0;0.0;4.4;0.0;0.0
3.0;1753875096.696678;15.653597;0.75;-1.33;-0.19;0.190013;-1.006231;-0.00381;140.7;0.0;0.0;3.7;0.0;0.0
3.0;1753875096.701404;15.631982;0.73;-1.31;-0.24;0.188844;-1.006538;-0.00417;139.2;0.0;0.0;3.5;0.0;0.0
3.0;1753875096.70613;15.645475;0.71;-1.31;-0.2;0.189283;-1.007061;-0.008654;136.0;0.0;0.0;3.4;0.0;0.0
3.0;1753875096.710856;15.639745;0.72;-1.26;-0.24;0.188413;-1.006952;-0.004302;134.5;0.0;0.0;3.8;0.0;0.0
3.0;1753875096.71657;15.636719;0.7;-1.33;-0.21;0.189344;-1.006622;-0.004392;138.0;0.0;0.0;4.0;0.0;0.0
3.0;1753875096.721296;15.623996;0.7;-1.38;-0.24;0.190427;-1.00718;-0.006046;136.0;0.0;0.0;4.0;0.0;0.0
3.0;1753875096.726022;15.633262;0.68;-1.31;-0.21;0.188522;-1.007637;-0.004367;139.8;0.0;0.0;4.0;0.0;0.0
3.0;1753875096.730748;15.628623;0.74;-1.22;-0.25;0.19118;-1.005945;-0.003077;140.6;0.0;0.0;4.0;0.0;0.0
3.0;1753875096.735474;15.648585;0.77;-1.4;-0.16;0.189331;-1.005225;-0.004691;138.8;0.0;0.0;4.0;0.0;0.0
3.0;1753875096.7402;15.650185;0.66;-1.35;-0.22;0.187006;-1.006304;-0.004469;137.7;0.0;0.0;4.0;0.0;0.0
3.0;1753875096.744926;15.619574;0.82;-1.29;-0.2;0.188553;-1.005467;-0.005465;136.4;0.0;0.0;4.0;0.0;0.0
3.0;1753875096.749652;15.634316;0.83;-1.28;-0.14;0.190009;-1.006699;-0.005031;137.5;0.0;0.0;4.0;0.0;0.0
3.0;1753875096.754377;15.621195;0.64;-1.32;-0.24;0.189819;-1.006319;-0.004972;137.7;0.0;0.0;4.0;0.0;0.0
3.0;1753875096.76327;15.636719;0.77;-1.33;-0.21;0.189588;-1.006012;-0.004636;138.0;0.0;0.0;4.0;0.0;0.0
3.0;1753875096.767996;15.648805;0.8;-1.31;-0.25;0.188717;-1.004988;-0.005656;137.6;0.0;0.0;4.0;0.0;0.0
3.0;1753875096.772722;15.617838;0.81;-1.41;-0.25;0.190872;-1.005748;-0.004797;141.5;0.0;0.0;4.0;0.0;0.0
3.0;1753875096.777448;15.622059;0.64;-1.31;-0.21;0.189794;-1.00498;-0.003065;137.3;0.0;0.0;4.0;0.0;0.0
3.0;1753875096.782174;15.632264;0.75;-1.39;-0.19;0.193482;-1.006817;-0.005371;139.4;0.0;0.0;4.0;0.0;0.0
3.0;1753875096.7869;15.66524;0.69;-1.29;-0.19;0.190295;-1.005502;-0.00524;137.8;0.0;0.0;4.0;0.0;0.0
3.0;1753875096.791626;15.6464;0.77;-1.34;-0.19;0.190167;-1.006715;-0.00382;139.3;0.0;0.0;4.0;0.0;0.0
3.0;1753875096.796352;15.630629;0.83;-1.38;-0.17;0.191262;-1.005944;-0.003751;139.1;0.0;0.0;4.0;0.0;0.0
3.0;1753875096.801077;15.619703;0.73;-1.3;-0.18;0.191622;-1.007193;-0.004435;138.4;0.0;0.0;4.0;0.0;0.0
3.0;1753875096.805803;15.633267;0.83;-1.3;-0.18;0.191384;-1.006782;-0.005211;136.2;0.0;0.0;4.0;0.0;0.0
3.0;1753875096.81016;15.636719;0.77;-1.33;-0.21;0.19276;-1.006622;-0.004514;138.0;0.0;0.0;4.0;0.0;0.0
3.0;1753875096.814886;15.658637;0.87;-1.41;-0.24;0.192084;-1.007468;-0.004123;140.3;0.0;0.0;4.0;0.0;0.0
3.0;1753875096.819612;15.638121;0.76;-1.34;-0.13;0.189835;-1.007209;-0.006314;139.2;0.0;0.0;4.0;0.0;0.0
3.0;1753875096.824338;15.639328;0.71;-1.34;-0.25;0.191696;-1.007703;-0.006063;136.0;0.0;0.0;4.0;0.0;0.0
3.0;1753875096.829064;15.645881;0.81;-1.28;-0.26;0.189461;-1.006227;-0.004532;138.6;0.0;0.0;4.0;0.0;0.0
3.0;1753875096.83379;15.655882;0.72;-1.33;-0.15;0.190121;-1.008174;-0.006742;138.8;0.0;0.0;4.0;0.0;0.0
3.0;1753875096.838516;15.642839;0.61;-1.29;-0.16;0.189377;-1.007266;-0.005587;137.2;0.0;0.0;4.0;0.0;0.0
3.0;1753875096.843242;15.629391;0.71;-1.32;-0.17;0.186956;-1.008074;-0.006391;140.2;0.0;0.0;4.0;0.0;0.0
3.0;1753875096.847968;15.662034;0.72;-1.37;-0.1;0.189726;-1.008603;-0.005938;139.2;0.0;0.0;4.0;0.0;0.0
3.0;1753875096.85687;15.648438;0.63;-1.33;-0.14;0.187514;-1.008452;-0.005856;138.0;0.0;0.0;4.0;0.0;0.0
3.0;1753875096.861596;15.642361;0.58;-1.32;-0.16;0.188177;-1.008391;-0.004939;138.1;0.0;0.0;4.0;0.0;0.0
3.0;1753875096.866322;15.650871;0.67;-1.24;-0.1;0.18868;-1.008142;-0.005939;139.3;0.0;0.0;4.0;0.0;0.0
3.0;1753875096.871048;15.650261;0.75;-1.29;-0.2;0.189979;-1.007566;-0.006899;137.3;0.0;0.0;4.0;0.0;0.0
3.0;1753875096.875774;15.638611;0.62;-1.39;-0.22;0.188292;-1.008757;-0.005711;140.3;0.0;0.0;4.0;0.0;0.0
3.0;1753875096.8805;15.652966;0.65;-1.31;-0.18;0.188184;-1.007368;-0.00694;139.0;0.0;0.0;4.0;0.0;0.0
3.0;1753875096.885226;15.643618;0.67;-1.3;-0.12;0.186923;-1.008858;-0.005553;137.8;0.0;0.0;4.0;0.0;0.0
3.0;1753875096.889952;15.653754;0.84;-1.33;-0.17;0.188054;-1.00619;-0.005196;137.9;0.0;0.0;4.0;0.0;0.0
3.0;1753875096.894678;15.66271;0.69;-1.28;-0.19;0.189999;-1.008604;-0.005288;140.1;0.0;0.0;4.0;0.0;0.0
3.0;1753875096.899403;15.647584;0.73;-1.36;-0.27;0.188721;-1.006743;-0.006378;140.1;0.0;0.0;4.0;0.0;0.0
3.0;1753875096.90368;15.648438;0.77;-1.33;-0.21;0.189588;-1.007354;-0.005368;138.0;0.0;0.0;4.0;0.0;0.0
3.0;1753875096.908406;15.646467;0.79;-1.37;-0.3;0.188784;-1.006352;-0.005003;139.1;0.0;0.0;4.0;0.0;0.0
3.0;1753875096.913132;15.647976;0.76;-1.36;-0.18;0.189588;-1.005627;-0.004527;141.3;0.0;0.0;4.0;0.0;0.0
3.0;1753875096.917858;15.645179;0.82;-1.36;-0.23;0.190428;-1.005903;-0.004431;140.7;0.0;0.0;4.0;0.0;0.0
3.0;1753875096.922584;15.660395;0.8;-1.27;-0.25;0.189492;-1.006956;-0.005118;138.5;0.0;0.0;4.0;0.0;0.0
3.0;1753875096.92731;15.651827;0.78;-1.23;-0.26;0.188099;-1.00737;-0.002419;141.9;0.0;0.0;4.0;0.0;0.0
3.0;1753875096.932036;15.649395;0.81;-1.23;-0.2;0.190865;-1.006961;-0.003506;140.3;0.0;0.0;4.0;0.0;0.0
3.0;1753875096.936762;15.653028;0.72;-1.24;-0.24;0.189519;-1.006475;-0.003996;138.1;0.0;0.0;4.0;0.0;0.0
3.0;1753875096.941488;15.64406;0.72;-1.31;-0.16;0.188641;-1.007143;-0.004494;137.4;0.0;0.0;4.0;0.0;0.0
3.0;1753875096.946214;15.655263;0.82;-1.28;-0.19;0.191264;-1.004912;-0.004188;137.6;0.0;0.0;4.0;0.0;0.0
3.0;1753875096.95059;15.648438;0.77;-1.26;-0.21;0.189954;-1.006012;-0.004026;138.0;0.0;0.0;4.0;0.0;0.0
3.0;1753875096.955575;15.550781;0.77;-1.26;-0.14;0.189466;-1.007354;-0.004392;139.0;0.0;0.0;4.0;0.0;0.0
3.0;1753875096.95602;15.550781;0.77;-1.33;-0.14;0.190808;-1.007964;-0.006222;139.0;0.0;0.0;4.0;0.0;0.0
3.0;1753875096.961457;15.550781;0.77;-1.33;-0.21;0.189588;-1.006988;-0.00549;139.0;0.0;0.0;4.0;0.0;0.0
3.0;1753875096.965375;15.542969;0.7;-1.33;-0.14;0.189954;-1.006744;-0.006344;139.0;0.0;0.0;4.0;0.0;0.0
3.0;1753875096.970112;15.542969;0.7;-1.33;-0.21;0.18849;-1.007232;-0.00549;139.0;0.0;0.0;4.0;0.0;0.0
3.0;1753875096.975735;15.542969;0.7;-1.19;-0.14;0.190686;-1.0065;-0.004758;139.0;0.0;0.0;4.0;0.0;0.0
3.0;1753875096.980461;15.53181;0.78;-1.24;-0.12;0.188812;-1.006614;-0.004633;141.7;0.0;0.0;4.6;0.0;0.0
3.0;1753875096.986224;15.558594;0.77;-1.33;-0.14;0.189344;-1.006744;-0.00549;139.0;0.0;0.0;4.0;0.0;0.0
3.0;1753875096.989061;15.558594;0.77;-1.33;-0.21;0.1891;-1.00711;-0.004758;139.0;0.0;0.0;4.0;0.0;0.0
3.0;1753875096.993506;15.558594;0.77;-1.33;-0.14;0.190198;-1.007354;-0.00427;139.0;0.0;0.0;4.0;0.0;0.0
3.0;1753875096.998232;15.534003;0.76;-1.3;-0.08;0.191455;-1.00496;-0.00397;139.3;0.0;0.0;5.1;0.0;0.0
3.0;1753875097.002958;15.553685;0.79;-1.28;-0.11;0.190011;-1.007176;-0.003796;138.4;0.0;0.0;4.2;0.0;0.0
3.0;1753875097.007684;15.526413;0.74;-1.31;-0.08;0.189762;-1.007009;-0.004223;137.6;0.0;0.0;4.6;0.0;0.0
3.0;1753875097.01241;15.563555;0.82;-1.39;-0.1;0.190426;-1.007035;-0.004138;138.3;0.0;0.0;4.1;0.0;0.0
3.0;1753875097.017136;15.576001;0.78;-1.32;-0.14;0.189496;-1.007622;-0.004176;141.4;0.0;0.0;4.4;0.0;0.0
3.0;1753875097.021862;15.559103;0.81;-1.31;-0.17;0.189706;-1.007796;-0.00403;137.3;0.0;0.0;3.8;0.0;0.0
3.0;1753875097.026588;15.557744;0.84;-1.39;-0.2;0.18872;-1.007997;-0.005242;140.0;0.0;0.0;4.5;0.0;0.0
3.0;1753875097.031314;15.576229;0.78;-1.31;-0.12;0.190378;-1.006942;-0.005031;136.8;0.0;0.0;4.5;0.0;0.0
3.0;1753875097.036039;15.577956;0.73;-1.32;-0.21;0.190473;-1.00809;-0.004471;140.8;0.0;0.0;4.6;0.0;0.0
3.0;1753875097.040765;15.541836;0.77;-1.26;-0.12;0.190001;-1.008152;-0.004227;142.7;0.0;0.0;4.4;0.0;0.0
3.0;1753875097.045491;15.554027;0.7;-1.3;-0.07;0.188722;-1.007617;-0.004254;145.1;0.0;0.0;3.6;0.0;0.0
3.0;1753875097.050217;15.572696;0.85;-1.31;-0.11;0.189436;-1.007627;-0.005329;142.8;0.0;0.0;3.6;0.0;0.0
3.0;1753875097.054943;15.575769;0.7;-1.33;-0.07;0.188569;-1.007484;-0.004903;141.7;0.0;0.0;5.7;0.0;0.0
3.0;1753875097.059669;15.606152;0.75;-1.28;-0.08;0.189113;-1.007817;-0.004191;139.6;0.0;0.0;3.9;0.0;0.0
3.0;1753875097.064395;15.559983;0.71;-1.23;-0.06;0.190474;-1.008272;-0.005142;145.6;0.0;0.0;4.4;0.0;0.0
3.0;1753875097.069121;15.559908;0.79;-1.4;-0.31;0.190444;-1.007008;-0.004381;135.8;0.0;0.0;4.7;0.0;0.0
3.0;1753875097.073847;15.535965;0.78;-1.26;-0.12;0.190564;-1.009463;-0.005246;144.0;0.0;0.0;3.9;0.0;0.0
3.0;1753875097.078573;15.563272;0.77;-1.22;-0.05;0.18729;-1.007166;-0.00404;140.6;0.0;0.0;5.7;0.0;0.0
3.0;1753875097.083299;15.545518;0.77;-1.42;-0.16;0.189965;-1.007395;-0.005168;135.9;0.0;0.0;5.0;0.0;0.0
3.0;1753875097.088024;15.562428;0.72;-1.37;-0.14;0.191133;-1.008365;-0.004346;142.7;0.0;0.0;4.1;0.0;0.0
3.0;1753875097.09275;15.532907;0.76;-1.36;-0.23;0.191377;-1.007179;-0.003928;139.9;0.0;0.0;5.3;0.0;0.0
3.0;1753875097.097476;15.552972;0.76;-1.28;-0.15;0.190456;-1.008185;-0.004539;139.7;0.0;0.0;5.0;0.0;0.0
3.0;1753875097.102202;15.549872;0.82;-1.24;-0.16;0.189797;-1.008054;-0.004432;139.6;0.0;0.0;6.1;0.0;0.0
3.0;1753875097.106928;15.543824;0.81;-1.26;-0.21;0.187966;-1.007378;-0.004429;142.1;0.0;0.0;4.4;0.0;0.0
3.0;1753875097.111654;15.559734;0.82;-1.3;-0.27;0.189974;-1.00713;-0.005082;136.1;0.0;0.0;4.1;0.0;0.0
3.0;1753875097.11638;15.556675;0.83;-1.37;-0.15;0.188499;-1.007258;-0.00549;143.9;0.0;0.0;4.5;0.0;0.0
3.0;1753875097.121106;15.510556;0.8;-1.33;-0.17;0.190185;-1.007046;-0.005145;143.4;0.0;0.0;5.2;0.0;0.0
3.0;1753875097.125832;15.56771;0.79;-1.36;-0.12;0.189418;-1.009224;-0.003806;135.5;0.0;0.0;4.6;0.0;0.0
3.0;1753875097.130558;15.55644;0.76;-1.25;-0.06;0.188024;-1.008419;-0.004238;145.4;0.0;0.0;3.9;0.0;0.0
3.0;1753875097.135284;15.541861;0.82;-1.33;-0.12;0.190737;-1.008508;-0.003333;138.0;0.0;0.0;4.2;0.0;0.0
3.0;1753875097.14001;15.523627;0.83;-1.41;-0.21;0.190178;-1.007314;-0.005229;142.1;0.0;0.0;4.9;0.0;0.0
3.0;1753875097.144736;15.548022;0.79;-1.42;-0.21;0.188624;-1.007872;-0.005154;138.8;0.0;0.0;5.3;0.0;0.0
3.0;1753875097.149462;15.583386;0.71;-1.35;-0.18;0.188785;-1.007939;-0.004131;135.1;0.0;0.0;5.1;0.0;0.0
3.0;1753875097.154188;15.579533;0.81;-1.27;-0.23;0.190452;-1.008241;-0.003653;143.7;0.0;0.0;4.2;0.0;0.0
3.0;1753875097.158914;15.579744;0.77;-1.33;-0.27;0.1898;-1.00627;-0.00434;139.8;0.0;0.0;5.1;0.0;0.0
3.0;1753875097.16364;15.570619;0.74;-1.33;-0.21;0.189274;-1.008558;-0.005614;148.2;0.0;0.0;5.7;0.0;0.0
3.0;1753875097.168366;15.539155;0.73;-1.25;-0.24;0.190192;-1.008652;-0.004885;140.1;0.0;0.0;5.4;0.0;0.0
3.0;1753875097.173092;15.578702;0.83;-1.31;-0.13;0.189234;-1.007972;-0.005202;140.8;0.0;0.0;5.7;0.0;0.0
3.0;1753875097.177817;15.557226;0.72;-1.46;-0.15;0.188958;-1.008923;-0.005141;145.0;0.0;0.0;5.2;0.0;0.0
3.0;1753875097.182543;15.545093;0.76;-1.43;-0.19;0.189077;-1.008984;-0.004623;142.6;0.0;0.0;5.5;0.0;0.0
3.0;1753875097.187269;15.550517;0.8;-1.34;-0.21;0.188312;-1.007024;-0.004745;144.5;0.0;0.0;5.7;0.0;0.0
3.0;1753875097.191995;15.562095;0.74;-1.33;-0.1;0.188457;-1.008643;-0.005733;146.9;0.0;0.0;5.1;0.0;0.0
3.0;1753875097.196721;15.583224;0.72;-1.25;-0.24;0.188701;-1.008044;-0.004088;143.9;0.0;0.0;5.4;0.0;0.0
3.0;1753875097.201447;15.565189;0.75;-1.27;-0.21;0.189245;-1.009548;-0.005393;141.4;0.0;0.0;6.0;0.0;0.0
3.0;1753875097.206173;15.585331;0.76;-1.24;-0.2;0.187688;-1.007763;-0.005144;139.1;0.0;0.0;6.2;0.0;0.0
3.0;1753875097.210899;15.571662;0.77;-1.33;-0.1;0.187794;-1.007308;-0.002841;143.8;0.0;0.0;6.1;0.0;0.0
3.0;1753875097.215625;15.585194;0.74;-1.27;-0.21;0.187671;-1.009488;-0.004874;139.4;0.0;0.0;6.2;0.0;0.0
3.0;1753875097.220351;15.541645;0.78;-1.42;-0.22;0.188882;-1.007067;-0.005296;145.4;0.0;0.0;6.8;0.0;0.0
3.0;1753875097.225077;15.555411;0.81;-1.32;-0.25;0.189694;-1.009144;-0.005366;145.3;0.0;0.0;5.4;0.0;0.0
3.0;1753875097.229802;15.584601;0.77;-1.32;-0.17;0.189098;-1.006884;-0.007064;136.2;0.0;0.0;6.8;0.0;0.0
3.0;1753875097.234528;15.556029;0.72;-1.38;-0.21;0.188625;-1.009267;-0.005521;131.2;0.0;0.0;6.1;0.0;0.0
3.0;1753875097.2419;15.558594;0.77;-1.33;-0.21;0.188978;-1.008208;-0.005124;142.0;0.0;0.0;6.0;0.0;0.0
3.0;1753875097.246626;15.559257;0.73;-1.29;-0.14;0.188038;-1.008505;-0.006271;143.3;0.0;0.0;5.6;0.0;0.0
3.0;1753875097.251352;15.515012;0.75;-1.26;-0.14;0.189639;-1.007581;-0.006059;147.0;0.0;0.0;6.1;0.0;0.0
3.0;1753875097.256078;15.541449;0.66;-1.29;-0.25;0.18946;-1.009527;-0.005288;140.6;0.0;0.0;6.6;0.0;0.0
3.0;1753875097.260804;15.568896;0.6;-1.3;-0.21;0.189842;-1.009741;-0.004409;138.8;0.0;0.0;5.6;0.0;0.0
3.0;1753875097.26553;15.554474;0.64;-1.15;-0.12;0.1901;-1.008508;-0.00526;141.1;0.0;0.0;5.7;0.0;0.0
3.0;1753875097.270256;15.598483;0.7;-1.32;-0.26;0.188613;-1.008887;-0.004901;140.5;0.0;0.0;5.3;0.0;0.0
3.0;1753875097.274982;15.604613;0.6;-1.23;-0.26;0.189663;-1.008981;-0.004731;143.9;0.0;0.0;5.7;0.0;0.0
3.0;1753875097.2809;15.582031;0.63;-1.19;-0.28;0.190076;-1.008574;-0.005368;142.0;0.0;0.0;6.0;0.0;0.0
3.0;1753875097.285626;15.550171;0.64;-1.21;-0.25;0.190106;-1.007968;-0.005343;142.6;0.0;0.0;4.6;0.0;0.0
3.0;1753875097.290352;15.571383;0.67;-1.14;-0.27;0.191034;-1.009396;-0.004686;141.8;0.0;0.0;6.9;0.0;0.0
3.0;1753875097.295078;15.615448;0.67;-1.18;-0.27;0.18903;-1.007467;-0.005746;138.7;0.0;0.0;5.6;0.0;0.0
3.0;1753875097.299804;15.555728;0.56;-1.13;-0.25;0.191048;-1.007547;-0.005148;145.2;0.0;0.0;7.2;0.0;0.0
3.0;1753875097.30453;15.570267;0.6;-1.25;-0.25;0.191022;-1.008584;-0.005273;139.3;0.0;0.0;6.2;0.0;0.0
3.0;1753875097.309256;15.558707;0.6;-1.19;-0.29;0.190096;-1.007619;-0.004932;142.3;0.0;0.0;6.2;0.0;0.0
3.0;1753875097.313982;15.593416;0.69;-1.34;-0.36;0.190543;-1.009614;-0.004922;144.9;0.0;0.0;6.1;0.0;0.0
3.0;1753875097.318708;15.577064;0.66;-1.17;-0.25;0.18828;-1.010201;-0.006206;140.7;0.0;0.0;6.4;0.0;0.0
3.0;1753875097.323434;15.540038;0.62;-1.23;-0.23;0.190064;-1.00954;-0.005012;145.4;0.0;0.0;5.6;0.0;0.0
3.0;1753875097.328159;15.600762;0.56;-1.21;-0.29;0.18852;-1.008776;-0.005171;136.7;0.0;0.0;5.4;0.0;0.0
3.0;1753875097.332885;15.587088;0.66;-1.25;-0.27;0.19014;-1.009159;-0.004483;136.3;0.0;0.0;6.0;0.0;0.0
3.0;1753875097.337611;15.581118;0.63;-1.25;-0.32;0.189504;-1.007723;-0.004801;148.8;0.0;0.0;5.7;0.0;0.0
3.0;1753875097.342337;15.571331;0.61;-1.14;-0.39;0.190003;-1.008491;-0.006292;142.6;0.0;0.0;6.0;0.0;0.0
3.0;1753875097.347063;15.584478;0.66;-1.27;-0.25;0.191302;-1.009441;-0.005574;145.5;0.0;0.0;6.8;0.0;0.0
3.0;1753875097.351789;15.612783;0.64;-1.07;-0.22;0.188763;-1.007423;-0.004874;143.8;0.0;0.0;5.1;0.0;0.0
3.0;1753875097.356515;15.57862;0.68;-1.2;-0.27;0.189829;-1.008712;-0.006462;152.1;0.0;0.0;6.4;0.0;0.0
3.0;1753875097.361241;15.570791;0.63;-1.23;-0.33;0.191002;-1.008556;-0.00526;145.0;0.0;0.0;6.5;0.0;0.0
3.0;1753875097.365967;15.624116;0.69;-1.23;-0.22;0.190226;-1.008372;-0.006697;139.4;0.0;0.0;6.2;0.0;0.0
3.0;1753875097.370693;15.576969;0.57;-1.17;-0.31;0.190112;-1.007652;-0.004279;141.9;0.0;0.0;5.3;0.0;0.0
3.0;1753875097.375419;15.551995;0.66;-1.24;-0.31;0.18825;-1.008016;-0.005467;140.4;0.0;0.0;6.2;0.0;0.0
3.0;1753875097.380144;15.552612;0.74;-1.17;-0.3;0.189487;-1.008255;-0.005147;140.8;0.0;0.0;6.4;0.0;0.0
3.0;1753875097.38487;15.54745;0.62;-1.25;-0.29;0.187989;-1.008905;-0.005375;146.4;0.0;0.0;6.1;0.0;0.0
3.0;1753875097.389596;15.56412;0.63;-1.28;-0.23;0.189667;-1.007683;-0.004203;143.5;0.0;0.0;6.1;0.0;0.0
3.0;1753875097.394322;15.614814;0.61;-1.14;-0.3;0.189771;-1.008323;-0.006112;147.6;0.0;0.0;3.7;0.0;0.0
3.0;1753875097.399048;15.571633;0.62;-1.33;-0.22;0.191127;-1.008056;-0.004687;141.1;0.0;0.0;5.7;0.0;0.0
3.0;1753875097.403774;15.601799;0.6;-1.14;-0.28;0.189251;-1.007854;-0.005601;143.2;0.0;0.0;7.5;0.0;0.0
3.0;1753875097.4085;15.582552;0.62;-1.23;-0.22;0.189298;-1.008769;-0.005261;146.4;0.0;0.0;6.6;0.0;0.0
3.0;1753875097.413226;15.575069;0.59;-1.29;-0.19;0.190706;-1.008486;-0.00523;138.9;0.0;0.0;6.6;0.0;0.0
3.0;1753875097.417952;15.597541;0.63;-1.28;-0.32;0.190856;-1.00852;-0.004379;146.4;0.0;0.0;7.0;0.0;0.0
3.0;1753875097.422678;15.577139;0.6;-1.24;-0.23;0.191529;-1.00711;-0.005714;135.6;0.0;0.0;6.5;0.0;0.0
3.0;1753875097.427404;15.596136;0.69;-1.15;-0.35;0.190508;-1.007887;-0.00505;146.5;0.0;0.0;4.4;0.0;0.0
3.0;1753875097.43213;15.544565;0.73;-1.23;-0.19;0.189035;-1.010447;-0.004487;143.6;0.0;0.0;4.5;0.0;0.0
3.0;1753875097.436856;15.572904;0.64;-1.22;-0.2;0.189406;-1.00713;-0.005899;141.8;0.0;0.0;5.9;0.0;0.0
3.0;1753875097.441582;15.611775;0.66;-1.22;-0.28;0.189132;-1.008511;-0.004937;141.4;0.0;0.0;5.5;0.0;0.0
3.0;1753875097.446308;15.603822;0.59;-1.19;-0.33;0.191401;-1.008076;-0.005283;149.5;0.0;0.0;8.0;0.0;0.0
3.0;1753875097.451034;15.609407;0.65;-1.2;-0.23;0.190183;-1.008145;-0.005563;142.9;0.0;0.0;4.3;0.0;0.0
3.0;1753875097.45576;15.61138;0.65;-1.14;-0.3;0.191402;-1.008685;-0.005145;142.9;0.0;0.0;6.4;0.0;0.0
3.0;1753875097.460486;15.621883;0.71;-1.13;-0.24;0.191026;-1.008037;-0.004816;142.1;0.0;0.0;6.6;0.0;0.0
3.0;1753875097.465212;15.57242;0.64;-1.25;-0.2;0.190252;-1.009177;-0.004317;141.0;0.0;0.0;5.9;0.0;0.0
3.0;1753875097.469937;15.611343;0.62;-1.22;-0.28;0.189981;-1.007044;-0.006172;136.4;0.0;0.0;5.0;0.0;0.0
3.0;1753875097.474663;15.57305;0.74;-1.15;-0.21;0.190647;-1.008987;-0.006469;138.8;0.0;0.0;6.4;0.0;0.0
3.0;1753875097.479389;15.576431;0.72;-1.31;-0.23;0.190703;-1.007853;-0.006089;140.4;0.0;0.0;6.9;0.0;0.0
3.0;1753875097.484115;15.563002;0.63;-1.18;-0.27;0.189955;-1.008153;-0.005574;143.7;0.0;0.0;5.5;0.0;0.0
3.0;1753875097.488841;15.576533;0.64;-1.13;-0.35;0.190676;-1.00985;-0.006218;142.1;0.0;0.0;6.2;0.0;0.0
3.0;1753875097.493567;15.567347;0.6;-1.25;-0.21;0.190241;-1.010166;-0.005385;142.5;0.0;0.0;5.8;0.0;0.0
3.0;1753875097.498293;15.615547;0.67;-1.21;-0.23;0.191236;-1.008947;-0.005652;139.2;0.0;0.0;7.3;0.0;0.0
3.0;1753875097.503019;15.607855;0.66;-1.21;-0.22;0.189556;-1.008598;-0.005151;140.2;0.0;0.0;6.9;0.0;0.0
3.0;1753875097.507745;15.610331;0.64;-1.26;-0.29;0.189447;-1.008079;-0.005383;139.4;0.0;0.0;5.9;0.0;0.0
3.0;1753875097.512471;15.586267;0.62;-1.23;-0.2;0.189192;-1.008842;-0.005909;146.7;0.0;0.0;6.7;0.0;0.0
3.0;1753875097.517197;15.577257;0.66;-1.21;-0.25;0.188705;-1.007604;-0.004897;146.1;0.0;0.0;6.0;0.0;0.0
3.0;1753875097.521922;15.592867;0.71;-1.21;-0.25;0.189899;-1.009188;-0.0039;144.6;0.0;0.0;6.1;0.0;0.0
3.0;1753875097.526648;15.588953;0.67;-1.26;-0.23;0.18991;-1.007682;-0.005613;147.0;0.0;0.0;5.8;0.0;0.0
3.0;1753875097.531374;15.571272;0.83;-1.21;-0.27;0.189197;-1.007459;-0.005771;140.8;0.0;0.0;7.0;0.0;0.0
3.0;1753875097.5361;15.544657;0.63;-1.24;-0.2;0.191946;-1.00847;-0.00533;143.1;0.0;0.0;6.8;0.0;0.0
3.0;1753875097.540826;15.606649;0.64;-1.17;-0.23;0.190715;-1.009742;-0.004364;138.6;0.0;0.0;5.5;0.0;0.0
3.0;1753875097.545552;15.588937;0.73;-1.2;-0.23;0.189936;-1.008979;-0.005365;148.3;0.0;0.0;4.8;0.0;0.0
3.0;1753875097.550278;15.55521;0.69;-1.31;-0.23;0.189288;-1.009214;-0.005867;141.2;0.0;0.0;6.9;0.0;0.0
3.0;1753875097.555004;15.591469;0.7;-1.15;-0.21;0.190226;-1.008182;-0.005406;139.8;0.0;0.0;5.8;0.0;0.0
3.0;1753875097.55973;15.57691;0.7;-1.13;-0.3;0.188742;-1.009413;-0.005257;142.1;0.0;0.0;5.9;0.0;0.0
3.0;1753875097.564456;15.604861;0.64;-1.24;-0.27;0.189221;-1.00901;-0.004758;141.1;0.0;0.0;5.8;0.0;0.0
3.0;1753875097.569182;15.556992;0.67;-1.26;-0.25;0.189766;-1.007292;-0.005065;142.1;0.0;0.0;5.0;0.0;0.0
3.0;1753875097.573908;15.604003;0.67;-1.32;-0.26;0.190466;-1.008232;-0.006564;145.9;0.0;0.0;6.7;0.0;0.0
3.0;1753875097.578634;15.560833;0.63;-1.17;-0.31;0.191686;-1.007725;-0.005542;137.8;0.0;0.0;6.5;0.0;0.0
3.0;1753875097.58336;15.593629;0.67;-1.27;-0.33;0.189658;-1.007436;-0.005563;138.5;0.0;0.0;7.0;0.0;0.0
3.0;1753875097.588086;15.617838;0.57;-1.29;-0.31;0.190234;-1.01014;-0.005006;140.0;0.0;0.0;5.9;0.0;0.0
3.0;1753875097.592812;15.603707;0.55;-1.25;-0.32;0.190309;-1.007786;-0.005061;143.4;0.0;0.0;6.7;0.0;0.0
3.0;1753875097.597538;15.590059;0.73;-1.17;-0.21;0.187589;-1.008132;-0.005503;142.5;0.0;0.0;6.2;0.0;0.0
3.0;1753875097.602264;15.598501;0.63;-1.3;-0.25;0.189281;-1.008967;-0.005599;137.0;0.0;0.0;6.2;0.0;0.0
3.0;1753875097.60699;15.577083;0.68;-1.23;-0.32;0.188655;-1.008336;-0.005136;141.4;0.0;0.0;6.0;0.0;0.0
3.0;1753875097.611715;15.565075;0.63;-1.28;-0.2;0.189534;-1.009323;-0.005494;149.7;0.0;0.0;5.8;0.0;0.0
3.0;1753875097.616441;15.597076;0.65;-1.34;-0.26;0.190421;-1.00763;-0.005299;141.8;0.0;0.0;6.0;0.0;0.0
3.0;1753875097.621167;15.599018;0.7;-1.13;-0.24;0.188716;-1.007966;-0.005559;140.2;0.0;0.0;6.5;0.0;0.0
3.0;1753875097.625893;15.590768;0.71;-1.2;-0.3;0.189927;-1.009494;-0.005045;145.1;0.0;0.0;6.5;0.0;0.0
3.0;1753875097.630619;15.600153;0.68;-1.19;-0.17;0.18907;-1.008452;-0.005367;142.6;0.0;0.0;5.3;0.0;0.0
3.0;1753875097.635345;15.562572;0.75;-1.26;-0.25;0.1905;-1.007688;-0.004447;140.8;0.0;0.0;5.6;0.0;0.0
3.0;1753875097.640071;15.574684;0.65;-1.28;-0.22;0.190703;-1.009257;-0.006216;141.0;0.0;0.0;5.4;0.0;0.0
3.0;1753875097.644797;15.544934;0.72;-1.14;-0.24;0.189052;-1.008781;-0.005523;142.4;0.0;0.0;6.7;0.0;0.0
3.0;1753875097.649523;15.575783;0.75;-1.32;-0.24;0.190075;-1.009027;-0.006018;140.0;0.0;0.0;5.1;0.0;0.0
3.0;1753875097.654249;15.566157;0.73;-1.22;-0.19;0.189386;-1.009061;-0.005626;142.3;0.0;0.0;5.4;0.0;0.0
3.0;1753875097.658975;15.579856;0.62;-1.25;-0.16;0.188624;-1.008619;-0.005826;140.8;0.0;0.0;5.7;0.0;0.0
3.0;1753875097.6637;15.59661;0.75;-1.24;-0.26;0.190754;-1.008446;-0.005444;144.2;0.0;0.0;6.7;0.0;0.0
3.0;1753875097.668426;15.586648;0.7;-1.39;-0.27;0.190091;-1.008308;-0.006087;143.7;0.0;0.0;5.5;0.0;0.0
3.0;1753875097.673152;15.534134;0.78;-1.2;-0.28;0.191071;-1.006525;-0.005675;144.3;0.0;0.0;6.6;0.0;0.0
3.0;1753875097.677878;15.588498;0.69;-1.26;-0.21;0.190515;-1.008302;-0.004996;143.4;0.0;0.0;6.4;0.0;0.0
3.0;1753875097.682604;15.585587;0.65;-1.3;-0.13;0.19009;-1.007507;-0.005354;139.5;0.0;0.0;5.0;0.0;0.0
3.0;1753875097.68733;15.579558;0.72;-1.16;-0.24;0.190829;-1.010652;-0.005082;146.3;0.0;0.0;6.8;0.0;0.0
3.0;1753875097.692056;15.620515;0.71;-1.32;-0.21;0.19091;-1.009332;-0.004643;140.8;0.0;0.0;5.8;0.0;0.0
3.0;1753875097.696782;15.660328;0.7;-1.29;-0.13;0.190836;-1.00771;-0.005687;145.4;0.0;0.0;4.9;0.0;0.0
3.0;1753875097.701508;15.604759;0.76;-1.24;-0.1;0.189611;-1.008211;-0.005239;145.6;0.0;0.0;5.7;0.0;0.0
3.0;1753875097.706234;15.589543;0.66;-1.27;-0.2;0.190475;-1.009358;-0.005345;142.8;0.0;0.0;5.7;0.0;0.0
3.0;1753875097.71096;15.589444;0.71;-1.21;-0.2;0.191481;-1.008038;-0.00425;140.0;0.0;0.0;5.5;0.0;0.0
3.0;1753875097.715686;15.593351;0.68;-1.29;-0.21;0.188779;-1.008646;-0.005006;138.1;0.0;0.0;6.0;0.0;0.0
3.0;1753875097.720412;15.580732;0.67;-1.22;-0.16;0.190313;-1.008102;-0.005319;143.2;0.0;0.0;6.9;0.0;0.0
3.0;1753875097.725138;15.538983;0.64;-1.25;-0.32;0.191344;-1.010713;-0.005439;140.9;0.0;0.0;5.3;0.0;0.0
3.0;1753875097.729864;15.554034;0.72;-1.18;-0.26;0.191221;-1.008258;-0.007114;144.6;0.0;0.0;7.2;0.0;0.0
3.0;1753875097.73459;15.592202;0.63;-1.2;-0.19;0.190873;-1.009088;-0.005435;140.6;0.0;0.0;5.5;0.0;0.0
3.0;1753875097.739316;15.59618;0.75;-1.25;-0.21;0.188952;-1.009282;-0.005311;143.5;0.0;0.0;6.9;0.0;0.0
3.0;1753875097.744042;15.594244;0.73;-1.38;-0.21;0.189306;-1.009705;-0.00626;140.4;0.0;0.0;7.2;0.0;0.0
3.0;1753875097.748768;15.546783;0.71;-1.39;-0.19;0.19029;-1.010731;-0.005858;142.2;0.0;0.0;6.2;0.0;0.0
3.0;1753875097.753493;15.578482;0.75;-1.23;-0.2;0.188693;-1.00774;-0.005789;138.6;0.0;0.0;6.3;0.0;0.0
3.0;1753875097.758219;15.613313;0.71;-1.39;-0.24;0.190333;-1.009337;-0.005505;141.8;0.0;0.0;4.7;0.0;0.0
3.0;1753875097.762945;15.603018;0.7;-1.26;-0.24;0.191067;-1.009011;-0.005719;140.4;0.0;0.0;5.5;0.0;0.0
3.0;1753875097.7707;15.582031;0.7;-1.26;-0.21;0.190076;-1.008574;-0.005368;142.0;0.0;0.0;6.0;0.0;0.0
3.0;1753875097.775426;15.567846;0.7;-1.28;-0.12;0.191087;-1.010342;-0.005069;142.4;0.0;0.0;6.8;0.0;0.0
3.0;1753875097.780152;15.60089;0.7;-1.24;-0.18;0.190587;-1.009264;-0.006584;142.8;0.0;0.0;5.6;0.0;0.0
3.0;1753875097.784878;15.577592;0.7;-1.3;-0.16;0.190127;-1.008748;-0.005411;139.9;0.0;0.0;5.2;0.0;0.0
3.0;1753875097.789604;15.55787;0.72;-1.21;-0.15;0.189422;-1.008548;-0.005019;139.6;0.0;0.0;4.5;0.0;0.0
3.0;1753875097.79433;15.569532;0.63;-1.33;-0.23;0.191125;-1.007917;-0.006078;139.9;0.0;0.0;5.3;0.0;0.0
3.0;1753875097.799056;15.579757;0.66;-1.37;-0.24;0.190638;-1.006688;-0.006034;138.9;0.0;0.0;4.1;0.0;0.0
3.0;1753875097.803782;15.593733;0.73;-1.3;-0.21;0.18755;-1.007221;-0.005315;140.6;0.0;0.0;3.9;0.0;0.0
3.0;1753875097.808508;15.591101;0.62;-1.25;-0.21;0.189237;-1.006463;-0.006168;140.8;0.0;0.0;5.0;0.0;0.0
3.0;1753875097.813234;15.583441;0.66;-1.29;-0.24;0.187458;-1.006626;-0.006025;138.0;0.0;0.0;2.8;0.0;0.0
3.0;1753875097.817959;15.571185;0.7;-1.33;-0.12;0.188669;-1.006803;-0.006129;133.7;0.0;0.0;5.5;0.0;0.0
3.0;1753875097.822685;15.56244;0.61;-1.31;-0.15;0.187294;-1.005279;-0.006294;135.0;0.0;0.0;5.0;0.0;0.0
3.0;1753875097.827411;15.589812;0.6;-1.29;-0.1;0.189226;-1.007539;-0.005616;139.7;0.0;0.0;6.7;0.0;0.0
3.0;1753875097.832137;15.574523;0.66;-1.37;-0.2;0.190779;-1.006622;-0.005195;139.7;0.0;0.0;3.5;0.0;0.0
3.0;1753875097.83947;15.574219;0.63;-1.33;-0.14;0.188612;-1.006134;-0.005978;137.0;0.0;0.0;4.0;0.0;0.0
3.0;1753875097.844196;15.581126;0.69;-1.31;-0.15;0.188789;-1.006921;-0.006651;138.8;0.0;0.0;3.4;0.0;0.0
3.0;1753875097.848922;15.588108;0.63;-1.34;-0.14;0.189688;-1.007662;-0.006473;139.1;0.0;0.0;2.5;0.0;0.0
3.0;1753875097.853648;15.639612;0.62;-1.33;-0.17;0.190608;-1.007361;-0.006577;139.6;0.0;0.0;3.0;0.0;0.0
3.0;1753875097.858374;15.552818;0.72;-1.32;-0.16;0.189791;-1.005508;-0.006056;141.1;0.0;0.0;3.8;0.0;0.0
3.0;1753875097.8631;15.55907;0.67;-1.4;-0.15;0.191693;-1.006929;-0.00493;138.8;0.0;0.0;4.4;0.0;0.0
3.0;1753875097.87085;15.574219;0.7;-1.33;-0.21;0.191784;-1.006256;-0.005612;137.0;0.0;0.0;4.0;0.0;0.0
3.0;1753875097.875576;15.570744;0.73;-1.39;-0.26;0.19057;-1.00556;-0.003597;137.5;0.0;0.0;5.0;0.0;0.0
3.0;1753875097.880302;15.556354;0.71;-1.31;-0.29;0.191602;-1.006393;-0.005948;137.6;0.0;0.0;6.5;0.0;0.0
3.0;1753875097.885028;15.544032;0.62;-1.29;-0.23;0.190994;-1.006067;-0.005975;139.3;0.0;0.0;1.9;0.0;0.0
3.0;1753875097.889754;15.588703;0.73;-1.2;-0.25;0.19111;-1.00648;-0.005246;138.4;0.0;0.0;4.4;0.0;0.0
3.0;1753875097.89448;15.596639;0.65;-1.3;-0.25;0.18977;-1.006286;-0.004775;134.8;0.0;0.0;4.6;0.0;0.0
3.0;1753875097.899206;15.572398;0.74;-1.27;-0.21;0.191503;-1.007475;-0.004897;137.7;0.0;0.0;3.2;0.0;0.0
3.0;1753875097.903932;15.555881;0.7;-1.28;-0.14;0.188476;-1.007407;-0.005209;134.9;0.0;0.0;3.9;0.0;0.0
3.0;1753875097.908658;15.575595;0.72;-1.22;-0.22;0.188563;-1.005061;-0.005877;132.3;0.0;0.0;3.4;0.0;0.0
3.0;1753875097.913384;15.570478;0.78;-1.3;-0.24;0.187968;-1.005181;-0.005631;142.9;0.0;0.0;4.9;0.0;0.0
3.0;1753875097.91768;15.574219;0.7;-1.26;-0.28;0.188856;-1.005524;-0.005002;137.0;0.0;0.0;4.0;0.0;0.0
3.0;1753875097.922406;15.565789;0.75;-1.28;-0.3;0.189571;-1.0057;-0.005348;137.6;0.0;0.0;2.6;0.0;0.0
3.0;1753875097.927132;15.527621;0.7;-1.26;-0.25;0.187636;-1.005591;-0.004922;141.7;0.0;0.0;4.1;0.0;0.0
3.0;1753875097.931858;15.564624;0.69;-1.24;-0.3;0.188252;-1.004025;-0.005332;137.3;0.0;0.0;3.4;0.0;0.0
3.0;1753875097.936584;15.557403;0.73;-1.28;-0.32;0.188942;-1.005989;-0.004777;139.2;0.0;0.0;4.6;0.0;0.0
3.0;1753875097.94131;15.550387;0.74;-1.3;-0.14;0.189134;-1.00536;-0.006217;138.0;0.0;0.0;3.1;0.0;0.0
3.0;1753875097.946036;15.527588;0.69;-1.35;-0.27;0.189422;-1.006057;-0.004357;141.6;0.0;0.0;2.9;0.0;0.0
3.0;1753875097.950762;15.5723;0.64;-1.3;-0.24;0.187138;-1.004706;-0.005243;137.4;0.0;0.0;4.6;0.0;0.0
3.0;1753875097.955488;15.548096;0.77;-1.29;-0.17;0.18983;-1.005267;-0.006346;136.4;0.0;0.0;2.4;0.0;0.0
3.0;1753875097.960214;15.544618;0.74;-1.22;-0.25;0.190345;-1.007631;-0.005689;135.5;0.0;0.0;3.3;0.0;0.0
3.0;1753875097.964939;15.551397;0.71;-1.22;-0.2;0.189458;-1.006906;-0.007003;140.4;0.0;0.0;2.1;0.0;0.0
3.0;1753875097.97284;15.542969;0.7;-1.26;-0.21;0.189588;-1.006622;-0.006832;137.0;0.0;0.0;4.0;0.0;0.0
3.0;1753875097.976122;15.542969;0.7;-1.33;-0.21;0.191174;-1.0065;-0.00427;140.0;0.0;0.0;5.0;0.0;0.0
3.0;1753875097.980812;15.542969;0.77;-1.33;-0.21;0.190076;-1.0065;-0.005978;140.0;0.0;0.0;5.0;0.0;0.0
3.0;1753875097.988419;15.542969;0.7;-1.33;-0.21;0.190686;-1.006134;-0.005124;138.0;0.0;0.0;6.0;0.0;0.0
3.0;1753875097.990145;15.542969;0.63;-1.33;-0.21;0.188368;-1.0065;-0.005612;138.0;0.0;0.0;6.0;0.0;0.0
3.0;1753875097.994846;15.503906;0.7;-1.26;-0.14;0.190442;-1.006622;-0.0061;138.0;0.0;0.0;6.0;0.0;0.0
3.0;1753875097.999525;15.503906;0.77;-1.4;-0.14;0.18971;-1.006866;-0.006466;138.0;0.0;0.0;6.0;0.0;0.0
3.0;1753875098.004251;15.480839;0.75;-1.4;-0.11;0.190076;-1.006793;-0.006692;138.4;0.0;0.0;5.7;0.0;0.0
3.0;1753875098.008977;15.506532;0.75;-1.36;-0.18;0.190679;-1.005097;-0.007082;137.2;0.0;0.0;5.9;0.0;0.0
3.0;1753875098.013703;15.504031;0.74;-1.44;-0.19;0.188242;-1.008548;-0.006534;138.2;0.0;0.0;6.2;0.0;0.0
3.0;1753875098.018429;15.495206;0.8;-1.41;-0.11;0.189414;-1.00835;-0.005687;138.0;0.0;0.0;6.7;0.0;0.0
3.0;1753875098.023155;15.499543;0.82;-1.4;-0.13;0.188579;-1.008459;-0.005943;138.4;0.0;0.0;5.6;0.0;0.0
3.0;1753875098.027881;15.510689;0.78;-1.51;-0.1;0.18841;-1.008045;-0.005208;137.2;0.0;0.0;5.0;0.0;0.0
3.0;1753875098.032606;15.508626;0.7;-1.34;-0.15;0.188883;-1.005478;-0.008114;136.5;0.0;0.0;5.2;0.0;0.0
3.0;1753875098.037332;15.497916;0.74;-1.47;-0.17;0.191608;-1.006604;-0.005573;139.1;0.0;0.0;5.4;0.0;0.0
3.0;1753875098.042058;15.504906;0.71;-1.34;-0.09;0.189737;-1.006556;-0.005467;138.3;0.0;0.0;6.1;0.0;0.0
3.0;1753875098.046784;15.506451;0.79;-1.48;-0.24;0.190102;-1.005777;-0.006276;137.5;0.0;0.0;6.0;0.0;0.0
3.0;1753875098.05151;15.49008;0.72;-1.34;-0.1;0.188963;-1.006232;-0.006863;137.2;0.0;0.0;5.7;0.0;0.0
3.0;1753875098.056236;15.490799;0.77;-1.37;-0.11;0.190378;-1.007227;-0.006455;136.6;0.0;0.0;7.0;0.0;0.0
3.0;1753875098.060962;15.51041;0.75;-1.39;-0.2;0.188341;-1.006271;-0.006255;135.8;0.0;0.0;6.3;0.0;0.0
3.0;1753875098.065688;15.486949;0.73;-1.42;-0.09;0.191636;-1.007742;-0.006402;138.8;0.0;0.0;6.1;0.0;0.0
3.0;1753875098.070414;15.515794;0.68;-1.34;-0.14;0.188702;-1.006992;-0.007372;136.5;0.0;0.0;5.7;0.0;0.0
3.0;1753875098.07514;15.512146;0.75;-1.31;-0.03;0.192581;-1.007892;-0.006331;138.4;0.0;0.0;6.8;0.0;0.0
3.0;1753875098.079866;15.504037;0.85;-1.36;-0.13;0.189449;-1.007108;-0.006158;139.1;0.0;0.0;6.3;0.0;0.0
3.0;1753875098.084592;15.497156;0.74;-1.44;-0.17;0.192178;-1.006691;-0.007369;134.3;0.0;0.0;4.9;0.0;0.0
3.0;1753875098.089318;15.51019;0.79;-1.41;-0.15;0.189127;-1.00734;-0.006353;140.9;0.0;0.0;6.5;0.0;0.0
3.0;1753875098.094044;15.523239;0.83;-1.45;-0.09;0.189473;-1.008544;-0.005963;139.7;0.0;0.0;6.6;0.0;0.0
3.0;1753875098.09877;15.514807;0.8;-1.34;-0.18;0.190614;-1.00557;-0.006092;138.9;0.0;0.0;6.2;0.0;0.0
3.0;1753875098.103496;15.512869;0.76;-1.33;-0.18;0.188414;-1.007469;-0.005943;139.7;0.0;0.0;5.5;0.0;0.0
3.0;1753875098.108222;15.505094;0.73;-1.46;-0.19;0.189325;-1.007875;-0.006192;139.9;0.0;0.0;5.6;0.0;0.0
3.0;1753875098.112948;15.526357;0.8;-1.44;-0.15;0.189372;-1.006526;-0.007714;137.8;0.0;0.0;6.0;0.0;0.0
3.0;1753875098.117674;15.50018;0.79;-1.4;-0.19;0.190109;-1.005578;-0.006815;137.3;0.0;0.0;6.2;0.0;0.0
3.0;1753875098.122399;15.499557;0.77;-1.39;-0.12;0.190524;-1.008471;-0.006149;141.4;0.0;0.0;6.0;0.0;0.0
3.0;1753875098.127125;15.501625;0.78;-1.45;-0.09;0.18992;-1.007861;-0.005764;137.1;0.0;0.0;6.7;0.0;0.0
3.0;1753875098.131851;15.50604;0.74;-1.39;-0.14;0.191675;-1.008186;-0.007391;138.4;0.0;0.0;5.8;0.0;0.0
3.0;1753875098.136577;15.524047;0.71;-1.36;-0.15;0.189425;-1.007215;-0.006126;135.3;0.0;0.0;6.0;0.0;0.0
3.0;1753875098.141303;15.523676;0.78;-1.37;-0.17;0.189737;-1.007525;-0.006254;137.6;0.0;0.0;4.8;0.0;0.0
3.0;1753875098.146029;15.490325;0.76;-1.35;-0.11;0.189961;-1.005807;-0.006267;140.6;0.0;0.0;6.1;0.0;0.0
3.0;1753875098.150755;15.521863;0.79;-1.29;-0.11;0.188226;-1.006097;-0.006403;136.7;0.0;0.0;5.7;0.0;0.0
3.0;1753875098.155481;15.493643;0.8;-1.38;-0.15;0.189419;-1.008096;-0.005716;138.9;0.0;0.0;6.5;0.0;0.0
3.0;1753875098.160207;15.515593;0.71;-1.41;-0.12;0.189654;-1.005642;-0.005471;138.4;0.0;0.0;6.7;0.0;0.0
3.0;1753875098.164933;15.501614;0.8;-1.4;-0.12;0.190201;-1.006815;-0.006217;139.5;0.0;0.0;6.3;0.0;0.0
3.0;1753875098.169659;15.50348;0.82;-1.46;-0.16;0.189388;-1.008117;-0.00599;137.1;0.0;0.0;6.5;0.0;0.0
3.0;1753875098.174384;15.486441;0.74;-1.46;-0.24;0.189436;-1.007914;-0.007079;138.0;0.0;0.0;5.9;0.0;0.0
3.0;1753875098.17911;15.483841;0.73;-1.43;-0.16;0.188968;-1.00803;-0.005741;138.0;0.0;0.0;5.5;0.0;0.0
3.0;1753875098.183836;15.489102;0.72;-1.39;-0.21;0.189859;-1.006577;-0.006522;137.9;0.0;0.0;6.9;0.0;0.0
3.0;1753875098.188562;15.500401;0.8;-1.37;-0.19;0.189665;-1.005856;-0.005134;137.8;0.0;0.0;6.2;0.0;0.0
3.0;1753875098.193288;15.502372;0.81;-1.38;-0.19;0.189581;-1.007052;-0.006729;136.4;0.0;0.0;6.2;0.0;0.0
3.0;1753875098.198014;15.49128;0.7;-1.42;-0.16;0.18929;-1.007332;-0.006624;137.0;0.0;0.0;5.0;0.0;0.0
3.0;1753875098.20274;15.516262;0.74;-1.42;-0.17;0.188787;-1.007153;-0.006289;138.6;0.0;0.0;5.5;0.0;0.0
3.0;1753875098.207466;15.494534;0.8;-1.38;-0.18;0.189483;-1.008141;-0.006294;137.0;0.0;0.0;6.7;0.0;0.0
3.0;1753875098.212192;15.509296;0.79;-1.35;-0.18;0.191277;-1.006973;-0.004952;138.6;0.0;0.0;6.8;0.0;0.0
3.0;1753875098.216918;15.499419;0.73;-1.43;-0.2;0.188018;-1.007194;-0.005898;139.3;0.0;0.0;5.9;0.0;0.0
3.0;1753875098.221644;15.503804;0.75;-1.4;-0.15;0.190207;-1.006578;-0.005712;140.7;0.0;0.0;5.7;0.0;0.0
3.0;1753875098.22637;15.50439;0.82;-1.39;-0.22;0.189202;-1.007238;-0.006671;136.9;0.0;0.0;6.5;0.0;0.0
3.0;1753875098.231096;15.508717;0.85;-1.39;-0.19;0.189522;-1.009443;-0.004621;139.5;0.0;0.0;6.1;0.0;0.0
3.0;1753875098.235822;15.472679;0.82;-1.4;-0.13;0.188195;-1.006221;-0.005862;139.7;0.0;0.0;5.2;0.0;0.0
3.0;1753875098.240548;15.502172;0.73;-1.41;-0.1;0.189036;-1.00692;-0.006695;137.7;0.0;0.0;5.4;0.0;0.0
3.0;1753875098.245274;15.516542;0.72;-1.39;-0.23;0.191763;-1.007783;-0.005909;139.0;0.0;0.0;5.0;0.0;0.0
3.0;1753875098.25;15.493202;0.79;-1.33;-0.2;0.188945;-1.006265;-0.007997;138.6;0.0;0.0;5.5;0.0;0.0
3.0;1753875098.254726;15.485494;0.84;-1.33;-0.15;0.18879;-1.009038;-0.005869;137.0;0.0;0.0;6.0;0.0;0.0
3.0;1753875098.259452;15.507343;0.83;-1.47;-0.14;0.189373;-1.008169;-0.005666;138.7;0.0;0.0;6.8;0.0;0.0
3.0;1753875098.264177;15.508143;0.75;-1.37;-0.19;0.191073;-1.005978;-0.005558;137.8;0.0;0.0;6.5;0.0;0.0
3.0;1753875098.268903;15.528406;0.78;-1.34;-0.17;0.18846;-1.006597;-0.005843;138.3;0.0;0.0;6.6;0.0;0.0
3.0;1753875098.273629;15.489757;0.8;-1.31;-0.18;0.191935;-1.006347;-0.006427;138.7;0.0;0.0;5.7;0.0;0.0
3.0;1753875098.278355;15.537402;0.86;-1.34;-0.13;0.188536;-1.006244;-0.006146;139.8;0.0;0.0;6.1;0.0;0.0
3.0;1753875098.283081;15.517816;0.73;-1.39;-0.17;0.190898;-1.006501;-0.006406;137.7;0.0;0.0;6.3;0.0;0.0
3.0;1753875098.287807;15.490054;0.71;-1.27;-0.13;0.188135;-1.007213;-0.004947;135.4;0.0;0.0;5.2;0.0;0.0
3.0;1753875098.292533;15.494729;0.75;-1.38;-0.27;0.188482;-1.008724;-0.006082;137.8;0.0;0.0;7.1;0.0;0.0
3.0;1753875098.297259;15.529651;0.72;-1.35;-0.16;0.190269;-1.007373;-0.006046;140.4;0.0;0.0;6.3;0.0;0.0
3.0;1753875098.301985;15.500123;0.75;-1.48;-0.14;0.189421;-1.006193;-0.006612;136.9;0.0;0.0;6.4;0.0;0.0
3.0;1753875098.306711;15.520899;0.71;-1.48;-0.16;0.187878;-1.006809;-0.007268;140.4;0.0;0.0;6.0;0.0;0.0
3.0;1753875098.311437;15.528969;0.76;-1.31;-0.13;0.19026;-1.006645;-0.006125;137.6;0.0;0.0;5.5;0.0;0.0
3.0;1753875098.316162;15.537139;0.82;-1.35;-0.23;0.190561;-1.008179;-0.005469;140.8;0.0;0.0;6.0;0.0;0.0
3.0;1753875098.320888;15.491012;0.76;-1.36;-0.21;0.191235;-1.008014;-0.004902;136.8;0.0;0.0;6.2;0.0;0.0
3.0;1753875098.325614;15.472429;0.75;-1.36;-0.19;0.190634;-1.006638;-0.005978;137.6;0.0;0.0;7.0;0.0;0.0
3.0;1753875098.33034;15.508833;0.78;-1.27;-0.19;0.191527;-1.007671;-0.005932;137.2;0.0;0.0;6.5;0.0;0.0
3.0;1753875098.335066;15.503453;0.87;-1.37;-0.18;0.189399;-1.007242;-0.006201;138.6;0.0;0.0;6.1;0.0;0.0
3.0;1753875098.339792;15.505532;0.79;-1.45;-0.21;0.189795;-1.004357;-0.005292;140.4;0.0;0.0;5.7;0.0;0.0
3.0;1753875098.344518;15.483242;0.79;-1.43;-0.17;0.189421;-1.007111;-0.006398;139.3;0.0;0.0;5.8;0.0;0.0
3.0;1753875098.349244;15.494758;0.78;-1.43;-0.21;0.189314;-1.007605;-0.004125;137.0;0.0;0.0;4.9;0.0;0.0
3.0;1753875098.35397;15.51767;0.77;-1.37;-0.1;0.191319;-1.008344;-0.005427;137.5;0.0;0.0;6.6;0.0;0.0
3.0;1753875098.358696;15.479877;0.74;-1.35;-0.23;0.189307;-1.006351;-0.006432;137.0;0.0;0.0;5.7;0.0;0.0
3.0;1753875098.363422;15.506009;0.81;-1.46;-0.15;0.189314;-1.007729;-0.006244;137.7;0.0;0.0;5.4;0.0;0.0
3.0;1753875098.368148;15.505747;0.89;-1.33;-0.17;0.188525;-1.005938;-0.005903;137.3;0.0;0.0;5.6;0.0;0.0
3.0;1753875098.372874;15.510803;0.78;-1.44;-0.12;0.19007;-1.007911;-0.00631;138.0;0.0;0.0;5.9;0.0;0.0
3.0;1753875098.3776;15.498521;0.81;-1.27;-0.19;0.187645;-1.007007;-0.004271;136.7;0.0;0.0;5.7;0.0;0.0
3.0;1753875098.382326;15.501841;0.79;-1.32;-0.11;0.187987;-1.007302;-0.005221;137.5;0.0;0.0;6.1;0.0;0.0
3.0;1753875098.387052;15.511018;0.8;-1.33;-0.14;0.190705;-1.007773;-0.006491;140.7;0.0;0.0;5.3;0.0;0.0
3.0;1753875098.391778;15.499323;0.76;-1.41;-0.19;0.188849;-1.008235;-0.005845;138.7;0.0;0.0;6.1;0.0;0.0
3.0;1753875098.396504;15.495689;0.73;-1.42;-0.21;0.18778;-1.006741;-0.005188;137.7;0.0;0.0;5.5;0.0;0.0
3.0;1753875098.40123;15.488;0.8;-1.36;-0.18;0.188349;-1.007025;-0.005095;137.3;0.0;0.0;7.5;0.0;0.0
3.0;1753875098.405955;15.499124;0.73;-1.35;-0.19;0.189226;-1.008035;-0.005748;138.1;0.0;0.0;5.8;0.0;0.0
3.0;1753875098.410681;15.519028;0.85;-1.45;-0.18;0.191855;-1.00755;-0.006268;139.3;0.0;0.0;7.5;0.0;0.0
3.0;1753875098.415407;15.52672;0.76;-1.3;-0.25;0.188525;-1.007863;-0.006411;135.9;0.0;0.0;6.2;0.0;0.0
3.0;1753875098.420133;15.511225;0.73;-1.32;-0.15;0.188974;-1.007612;-0.006352;138.8;0.0;0.0;5.8;0.0;0.0
3.0;1753875098.424859;15.516117;0.78;-1.41;-0.19;0.19093;-1.008082;-0.005642;137.0;0.0;0.0;4.9;0.0;0.0
3.0;1753875098.429585;15.497201;0.88;-1.42;-0.16;0.189852;-1.008527;-0.003975;136.7;0.0;0.0;6.0;0.0;0.0
3.0;1753875098.434311;15.537873;0.84;-1.4;-0.17;0.189007;-1.007902;-0.006237;136.5;0.0;0.0;6.1;0.0;0.0
3.0;1753875098.439037;15.506112;0.71;-1.31;-0.21;0.189814;-1.008187;-0.00628;137.1;0.0;0.0;6.1;0.0;0.0
3.0;1753875098.443763;15.493756;0.72;-1.39;-0.23;0.187275;-1.007373;-0.005386;137.9;0.0;0.0;6.1;0.0;0.0
3.0;1753875098.448489;15.508058;0.79;-1.38;-0.18;0.19019;-1.007235;-0.005885;139.2;0.0;0.0;5.5;0.0;0.0
3.0;1753875098.453215;15.520768;0.73;-1.36;-0.16;0.189513;-1.007353;-0.006071;139.1;0.0;0.0;6.0;0.0;0.0
3.0;1753875098.45794;15.505867;0.82;-1.36;-0.17;0.190671;-1.006868;-0.005277;140.3;0.0;0.0;5.4;0.0;0.0
3.0;1753875098.462666;15.518738;0.84;-1.43;-0.12;0.189442;-1.006674;-0.005499;139.4;0.0;0.0;6.3;0.0;0.0
3.0;1753875098.467392;15.525681;0.7;-1.41;-0.22;0.189313;-1.008126;-0.006912;137.5;0.0;0.0;6.4;0.0;0.0
3.0;1753875098.472118;15.465763;0.72;-1.36;-0.19;0.18808;-1.008051;-0.005662;137.4;0.0;0.0;6.0;0.0;0.0
3.0;1753875098.476844;15.48145;0.82;-1.31;-0.15;0.190118;-1.007746;-0.005178;137.4;0.0;0.0;5.8;0.0;0.0
3.0;1753875098.48157;15.499069;0.77;-1.4;-0.12;0.190106;-1.008354;-0.003938;137.5;0.0;0.0;6.5;0.0;0.0
3.0;1753875098.486296;15.505924;0.78;-1.37;-0.11;0.18918;-1.006561;-0.004943;139.6;0.0;0.0;5.8;0.0;0.0
3.0;1753875098.491022;15.510977;0.87;-1.38;-0.13;0.190526;-1.006679;-0.005242;138.5;0.0;0.0;6.4;0.0;0.0
3.0;1753875098.495748;15.504699;0.8;-1.32;-0.12;0.189117;-1.00827;-0.005218;138.9;0.0;0.0;5.7;0.0;0.0
3.0;1753875098.500474;15.526897;0.72;-1.37;-0.13;0.188355;-1.008614;-0.00537;137.0;0.0;0.0;6.2;0.0;0.0
3.0;1753875098.5052;15.507001;0.71;-1.27;-0.17;0.187902;-1.008237;-0.004792;136.5;0.0;0.0;5.4;0.0;0.0
3.0;1753875098.509926;15.489637;0.75;-1.27;-0.18;0.18956;-1.008357;-0.005344;138.2;0.0;0.0;6.1;0.0;0.0
3.0;1753875098.514652;15.501361;0.76;-1.38;-0.22;0.189168;-1.007315;-0.006568;137.4;0.0;0.0;6.7;0.0;0.0
3.0;1753875098.519378;15.493723;0.75;-1.37;-0.18;0.188487;-1.008402;-0.005868;136.4;0.0;0.0;5.5;0.0;0.0
3.0;1753875098.524104;15.538796;0.77;-1.31;-0.14;0.189395;-1.007778;-0.006524;138.2;0.0;0.0;5.5;0.0;0.0
3.0;1753875098.52883;15.497531;0.75;-1.31;-0.19;0.189642;-1.008551;-0.005279;137.9;0.0;0.0;5.5;0.0;0.0
3.0;1753875098.533556;15.494296;0.81;-1.29;-0.21;0.187924;-1.006667;-0.005443;137.3;0.0;0.0;6.2;0.0;0.0
3.0;1753875098.538282;15.470745;0.83;-1.44;-0.2;0.188958;-1.00863;-0.004275;137.4;0.0;0.0;6.1;0.0;0.0
3.0;1753875098.543007;15.504749;0.85;-1.39;-0.16;0.191385;-1.007504;-0.007417;136.0;0.0;0.0;6.1;0.0;0.0
3.0;1753875098.547733;15.502309;0.76;-1.38;-0.19;0.189892;-1.007952;-0.006158;136.8;0.0;0.0;5.7;0.0;0.0
3.0;1753875098.552459;15.512149;0.75;-1.43;-0.18;0.189236;-1.007303;-0.006317;138.8;0.0;0.0;5.9;0.0;0.0
3.0;1753875098.557185;15.534491;0.78;-1.38;-0.15;0.188604;-1.007903;-0.004701;136.9;0.0;0.0;5.3;0.0;0.0
3.0;1753875098.561911;15.505483;0.77;-1.34;-0.19;0.190294;-1.007292;-0.006138;138.6;0.0;0.0;5.9;0.0;0.0
3.0;1753875098.566637;15.488454;0.67;-1.31;-0.19;0.189432;-1.007552;-0.005091;138.6;0.0;0.0;4.9;0.0;0.0
3.0;1753875098.571363;15.508659;0.74;-1.35;-0.3;0.190004;-1.007228;-0.006511;137.4;0.0;0.0;5.6;0.0;0.0
3.0;1753875098.576089;15.500248;0.81;-1.35;-0.2;0.189769;-1.007402;-0.004847;138.1;0.0;0.0;6.5;0.0;0.0
3.0;1753875098.580815;15.510181;0.75;-1.33;-0.27;0.187711;-1.006416;-0.00614;135.7;0.0;0.0;6.0;0.0;0.0
3.0;1753875098.585541;15.499162;0.76;-1.32;-0.19;0.189458;-1.009726;-0.006655;137.7;0.0;0.0;6.1;0.0;0.0
3.0;1753875098.590267;15.513633;0.7;-1.38;-0.19;0.189221;-1.009237;-0.005489;137.8;0.0;0.0;7.1;0.0;0.0
3.0;1753875098.594993;15.510676;0.74;-1.32;-0.19;0.189065;-1.007812;-0.006352;138.8;0.0;0.0;6.1;0.0;0.0
3.0;1753875098.599718;15.524651;0.79;-1.36;-0.24;0.189895;-1.007917;-0.005834;138.2;0.0;0.0;6.7;0.0;0.0
3.0;1753875098.604444;15.521875;0.79;-1.36;-0.2;0.188512;-1.00751;-0.004692;138.6;0.0;0.0;5.4;0.0;0.0
3.0;1753875098.60917;15.476963;0.88;-1.35;-0.21;0.191829;-1.006802;-0.005999;139.4;0.0;0.0;6.6;0.0;0.0
3.0;1753875098.613896;15.498443;0.71;-1.41;-0.16;0.188114;-1.008203;-0.005443;139.0;0.0;0.0;5.6;0.0;0.0
3.0;1753875098.618622;15.532208;0.76;-1.29;-0.2;0.189143;-1.009759;-0.004906;140.0;0.0;0.0;5.8;0.0;0.0
3.0;1753875098.623348;15.501547;0.77;-1.33;-0.18;0.188707;-1.007426;-0.004817;138.6;0.0;0.0;5.8;0.0;0.0
3.0;1753875098.628074;15.513558;0.69;-1.39;-0.15;0.190419;-1.008684;-0.006721;136.0;0.0;0.0;6.2;0.0;0.0
3.0;1753875098.6328;15.49965;0.82;-1.31;-0.17;0.189081;-1.00686;-0.005177;136.3;0.0;0.0;5.1;0.0;0.0
3.0;1753875098.637526;15.488528;0.79;-1.41;-0.27;0.191755;-1.007529;-0.005426;138.5;0.0;0.0;6.8;0.0;0.0
3.0;1753875098.642252;15.504912;0.8;-1.45;-0.15;0.189806;-1.007463;-0.004885;138.9;0.0;0.0;6.0;0.0;0.0
3.0;1753875098.646978;15.491755;0.73;-1.4;-0.19;0.188277;-1.008599;-0.005861;138.8;0.0;0.0;6.4;0.0;0.0
3.0;1753875098.651704;15.503091;0.75;-1.27;-0.22;0.189425;-1.007325;-0.006473;136.6;0.0;0.0;6.0;0.0;0.0
3.0;1753875098.65643;15.5124;0.78;-1.37;-0.23;0.19165;-1.007612;-0.006206;138.7;0.0;0.0;5.0;0.0;0.0
3.0;1753875098.661156;15.527527;0.76;-1.4;-0.21;0.187963;-1.008977;-0.006158;140.3;0.0;0.0;6.2;0.0;0.0
3.0;1753875098.665882;15.511649;0.79;-1.33;-0.17;0.188104;-1.007847;-0.005749;139.0;0.0;0.0;6.3;0.0;0.0
3.0;1753875098.670608;15.503626;0.78;-1.32;-0.22;0.188871;-1.007363;-0.006239;136.4;0.0;0.0;6.1;0.0;0.0
3.0;1753875098.675334;15.519911;0.71;-1.42;-0.22;0.189352;-1.008584;-0.004608;139.2;0.0;0.0;5.4;0.0;0.0
3.0;1753875098.68006;15.502985;0.75;-1.26;-0.22;0.1925;-1.008163;-0.005766;137.6;0.0;0.0;6.2;0.0;0.0
3.0;1753875098.684785;15.486189;0.81;-1.41;-0.19;0.190116;-1.007091;-0.005558;138.2;0.0;0.0;5.7;0.0;0.0
3.0;1753875098.689511;15.497602;0.74;-1.41;-0.29;0.190103;-1.007022;-0.006169;136.9;0.0;0.0;6.1;0.0;0.0
3.0;1753875098.694237;15.508027;0.77;-1.3;-0.23;0.188931;-1.00742;-0.004391;137.0;0.0;0.0;5.5;0.0;0.0
3.0;1753875098.698963;15.49338;0.75;-1.35;-0.2;0.18922;-1.008161;-0.005731;136.0;0.0;0.0;5.8;0.0;0.0
3.0;1753875098.703689;15.486953;0.73;-1.33;-0.2;0.189617;-1.006234;-0.00519;139.5;0.0;0.0;5.8;0.0;0.0
3.0;1753875098.708415;15.496479;0.81;-1.37;-0.21;0.188696;-1.007312;-0.004156;138.9;0.0;0.0;6.6;0.0;0.0
3.0;1753875098.713141;15.504958;0.84;-1.29;-0.22;0.190704;-1.008195;-0.00465;137.5;0.0;0.0;6.4;0.0;0.0
3.0;1753875098.717867;15.515287;0.74;-1.43;-0.14;0.18898;-1.007984;-0.005548;138.0;0.0;0.0;6.1;0.0;0.0
3.0;1753875098.722593;15.490497;0.69;-1.36;-0.2;0.188257;-1.006531;-0.005126;137.7;0.0;0.0;6.3;0.0;0.0
3.0;1753875098.727319;15.51373;0.8;-1.39;-0.2;0.188465;-1.006982;-0.006055;138.9;0.0;0.0;6.0;0.0;0.0
3.0;1753875098.732045;15.49903;0.8;-1.4;-0.15;0.188936;-1.008071;-0.005104;135.9;0.0;0.0;5.9;0.0;0.0
3.0;1753875098.736771;15.490246;0.69;-1.31;-0.24;0.190564;-1.008457;-0.005968;140.1;0.0;0.0;6.0;0.0;0.0
3.0;1753875098.741496;15.507642;0.83;-1.39;-0.22;0.187771;-1.008586;-0.005423;137.7;0.0;0.0;6.3;0.0;0.0
3.0;1753875098.746222;15.494269;0.79;-1.38;-0.25;0.189864;-1.008168;-0.005456;135.5;0.0;0.0;5.6;0.0;0.0
3.0;1753875098.750948;15.52026;0.74;-1.31;-0.15;0.190651;-1.008109;-0.005616;139.3;0.0;0.0;6.1;0.0;0.0
3.0;1753875098.755674;15.491448;0.86;-1.24;-0.2;0.188105;-1.006648;-0.004259;137.4;0.0;0.0;6.4;0.0;0.0
3.0;1753875098.7604;15.472439;0.81;-1.33;-0.21;0.187586;-1.007043;-0.005323;138.3;0.0;0.0;6.8;0.0;0.0
3.0;1753875098.765126;15.518026;0.78;-1.36;-0.23;0.189349;-1.008425;-0.005982;135.3;0.0;0.0;6.2;0.0;0.0
3.0;1753875098.769852;15.509349;0.76;-1.31;-0.21;0.189164;-1.008065;-0.00554;137.4;0.0;0.0;6.5;0.0;0.0
3.0;1753875098.774578;15.51854;0.69;-1.29;-0.17;0.188291;-1.00882;-0.004806;136.4;0.0;0.0;6.4;0.0;0.0
3.0;1753875098.779304;15.491564;0.71;-1.36;-0.19;0.188962;-1.008733;-0.003811;141.5;0.0;0.0;5.3;0.0;0.0
3.0;1753875098.78403;15.496931;0.78;-1.36;-0.2;0.1895;-1.00856;-0.005779;139.8;0.0;0.0;6.1;0.0;0.0
3.0;1753875098.788756;15.514752;0.81;-1.29;-0.18;0.188872;-1.008229;-0.004213;138.6;0.0;0.0;5.4;0.0;0.0
3.0;1753875098.793482;15.508779;0.69;-1.25;-0.18;0.188977;-1.00913;-0.004905;139.5;0.0;0.0;7.0;0.0;0.0
3.0;1753875098.798208;15.508882;0.78;-1.31;-0.26;0.189006;-1.006652;-0.005082;136.7;0.0;0.0;5.7;0.0;0.0
3.0;1753875098.802934;15.512594;0.84;-1.37;-0.27;0.189883;-1.008569;-0.005187;138.6;0.0;0.0;6.2;0.0;0.0
3.0;1753875098.80766;15.485023;0.75;-1.35;-0.17;0.188866;-1.008578;-0.004751;137.7;0.0;0.0;5.8;0.0;0.0
3.0;1753875098.812386;15.517505;0.8;-1.36;-0.18;0.189174;-1.008224;-0.004906;139.6;0.0;0.0;5.6;0.0;0.0
3.0;1753875098.817112;15.51098;0.74;-1.38;-0.21;0.19007;-1.007961;-0.004927;136.9;0.0;0.0;6.5;0.0;0.0
3.0;1753875098.821838;15.491965;0.85;-1.3;-0.24;0.189552;-1.009311;-0.005811;138.4;0.0;0.0;5.3;0.0;0.0
3.0;1753875098.826563;15.499389;0.72;-1.34;-0.26;0.190063;-1.005738;-0.004297;139.5;0.0;0.0;5.5;0.0;0.0
3.0;1753875098.831289;15.485482;0.87;-1.33;-0.15;0.188951;-1.008099;-0.004893;137.4;0.0;0.0;5.6;0.0;0.0
3.0;1753875098.836015;15.497885;0.79;-1.41;-0.25;0.190613;-1.006382;-0.006414;138.5;0.0;0.0;6.5;0.0;0.0
3.0;1753875098.840741;15.507067;0.65;-1.31;-0.25;0.188278;-1.007734;-0.005777;140.7;0.0;0.0;5.5;0.0;0.0
3.0;1753875098.845467;15.473074;0.76;-1.26;-0.19;0.189411;-1.008688;-0.004787;138.4;0.0;0.0;6.2;0.0;0.0
3.0;1753875098.850193;15.491231;0.77;-1.34;-0.21;0.189925;-1.0074;-0.00472;136.9;0.0;0.0;6.2;0.0;0.0
3.0;1753875098.854919;15.502642;0.87;-1.28;-0.21;0.190285;-1.008727;-0.005404;137.5;0.0;0.0;6.0;0.0;0.0
3.0;1753875098.8612;15.503906;0.77;-1.33;-0.21;0.189222;-1.008086;-0.005002;138.0;0.0;0.0;6.0;0.0;0.0
3.0;1753875098.865926;15.509673;0.77;-1.31;-0.19;0.186577;-1.007715;-0.005073;139.1;0.0;0.0;6.2;0.0;0.0
3.0;1753875098.870652;15.549664;0.81;-1.28;-0.17;0.190523;-1.008328;-0.005129;139.0;0.0;0.0;6.4;0.0;0.0
3.0;1753875098.875378;15.492505;0.69;-1.3;-0.21;0.188291;-1.007778;-0.006243;138.6;0.0;0.0;5.1;0.0;0.0
3.0;1753875098.88403;15.542969;0.84;-1.33;-0.21;0.187514;-1.006988;-0.005734;140.0;0.0;0.0;5.0;0.0;0.0
3.0;1753875098.888756;15.523305;0.81;-1.41;-0.3;0.186777;-1.007593;-0.005531;140.4;0.0;0.0;4.0;0.0;0.0
3.0;1753875098.893482;15.541825;0.78;-1.37;-0.18;0.18941;-1.006793;-0.005557;140.0;0.0;0.0;5.1;0.0;0.0
3.0;1753875098.898208;15.546101;0.86;-1.39;-0.2;0.189102;-1.006265;-0.004495;140.0;0.0;0.0;4.6;0.0;0.0
3.0;1753875098.902934;15.578957;0.85;-1.34;-0.17;0.189805;-1.006024;-0.005333;139.8;0.0;0.0;5.1;0.0;0.0
3.0;1753875098.90766;15.564756;0.83;-1.38;-0.19;0.191067;-1.006387;-0.0051;140.5;0.0;0.0;5.8;0.0;0.0
3.0;1753875098.912386;15.566686;0.72;-1.3;-0.32;0.190995;-1.00601;-0.00633;140.2;0.0;0.0;4.8;0.0;0.0
3.0;1753875098.917112;15.535838;0.76;-1.34;-0.34;0.191644;-1.006223;-0.004082;140.1;0.0;0.0;5.0;0.0;0.0
3.0;1753875098.921838;15.576712;0.74;-1.32;-0.21;0.188756;-1.006537;-0.005326;140.8;0.0;0.0;4.1;0.0;0.0
3.0;1753875098.926564;15.531113;0.72;-1.38;-0.22;0.191528;-1.006213;-0.005612;140.3;0.0;0.0;5.1;0.0;0.0
3.0;1753875098.93192;15.542969;0.77;-1.33;-0.21;0.19032;-1.00589;-0.003904;140.0;0.0;0.0;5.0;0.0;0.0
3.0;1753875098.936646;15.527275;0.85;-1.25;-0.26;0.189557;-1.005261;-0.003077;138.7;0.0;0.0;5.1;0.0;0.0
3.0;1753875098.941372;15.576884;0.83;-1.33;-0.28;0.189657;-1.005802;-0.002715;139.0;0.0;0.0;4.7;0.0;0.0
3.0;1753875098.946098;15.574011;0.71;-1.29;-0.24;0.19053;-1.005857;-0.003756;140.9;0.0;0.0;4.6;0.0;0.0
3.0;1753875098.950824;15.534987;0.83;-1.42;-0.22;0.189155;-1.006443;-0.003906;141.8;0.0;0.0;5.5;0.0;0.0
3.0;1753875098.95555;15.529785;0.83;-1.33;-0.2;0.188615;-1.006008;-0.005157;139.6;0.0;0.0;5.3;0.0;0.0
3.0;1753875098.960276;15.564146;0.81;-1.36;-0.29;0.193288;-1.005835;-0.005809;140.1;0.0;0.0;5.5;0.0;0.0
3.0;1753875098.965002;15.596412;0.56;-1.2;-0.32;0.192971;-1.00651;-0.005963;140.5;0.0;0.0;5.8;0.0;0.0
3.0;1753875098.969728;15.554207;0.77;-1.34;-0.32;0.19121;-1.005907;-0.007874;141.6;0.0;0.0;5.2;0.0;0.0
3.0;1753875098.97746;15.542969;0.77;-1.33;-0.28;0.191052;-1.0065;-0.005978;140.0;0.0;0.0;5.0;0.0;0.0
3.0;1753875098.978297;15.503906;0.77;-1.26;-0.14;0.18971;-1.006378;-0.005856;140.0;0.0;0.0;6.0;0.0;0.0
3.0;1753875098.985756;15.503906;0.7;-1.33;-0.21;0.191052;-1.007232;-0.00488;140.0;0.0;0.0;6.0;0.0;0.0
3.0;1753875098.99215;15.5;0.77;-1.33;-0.21;0.191296;-1.008208;-0.00732;140.0;0.0;0.0;6.0;0.0;0.0
3.0;1753875098.996159;15.5;0.77;-1.33;-0.21;0.188978;-1.00711;-0.0061;140.0;0.0;0.0;6.0;0.0;0.0
3.0;1753875099.000885;15.494012;0.74;-1.43;-0.19;0.188273;-1.00628;-0.006095;141.1;0.0;0.0;6.1;0.0;0.0
3.0;1753875099.005611;15.476334;0.63;-1.31;-0.29;0.189704;-1.005892;-0.007504;139.5;0.0;0.0;5.9;0.0;0.0
3.0;1753875099.010337;15.50518;0.69;-1.26;-0.24;0.186779;-1.006222;-0.004992;139.9;0.0;0.0;4.9;0.0;0.0
3.0;1753875099.015063;15.516921;0.68;-1.35;-0.22;0.190093;-1.007349;-0.006956;142.3;0.0;0.0;6.3;0.0;0.0
3.0;1753875099.019789;15.501133;0.82;-1.24;-0.19;0.189722;-1.007886;-0.004894;138.6;0.0;0.0;5.3;0.0;0.0
3.0;1753875099.024515;15.488917;0.89;-1.34;-0.25;0.188966;-1.00734;-0.005984;140.4;0.0;0.0;6.0;0.0;0.0
3.0;1753875099.02924;15.519448;0.75;-1.44;-0.22;0.188901;-1.007269;-0.005836;139.6;0.0;0.0;7.1;0.0;0.0
3.0;1753875099.033966;15.500186;0.75;-1.33;-0.27;0.189698;-1.007921;-0.007277;138.2;0.0;0.0;5.4;0.0;0.0
3.0;1753875099.038692;15.503628;0.72;-1.38;-0.33;0.190406;-1.007182;-0.005405;137.3;0.0;0.0;6.1;0.0;0.0
3.0;1753875099.043418;15.517288;0.78;-1.3;-0.26;0.188814;-1.006422;-0.006059;137.7;0.0;0.0;6.2;0.0;0.0
3.0;1753875099.048144;15.500225;0.73;-1.24;-0.17;0.188555;-1.007126;-0.006459;137.6;0.0;0.0;6.2;0.0;0.0
3.0;1753875099.05287;15.511974;0.74;-1.28;-0.16;0.188357;-1.006609;-0.006294;140.2;0.0;0.0;6.9;0.0;0.0
3.0;1753875099.057596;15.470846;0.72;-1.32;-0.16;0.191668;-1.006812;-0.007085;140.5;0.0;0.0;5.7;0.0;0.0
3.0;1753875099.062322;15.499424;0.71;-1.32;-0.16;0.18826;-1.007558;-0.0059;138.4;0.0;0.0;5.3;0.0;0.0
3.0;1753875099.067048;15.508351;0.71;-1.29;-0.18;0.186871;-1.008343;-0.006134;138.4;0.0;0.0;6.4;0.0;0.0
3.0;1753875099.071774;15.502454;0.76;-1.32;-0.23;0.188698;-1.007902;-0.004848;141.6;0.0;0.0;5.9;0.0;0.0
3.0;1753875099.0765;15.505558;0.74;-1.27;-0.18;0.188801;-1.0065;-0.004155;142.0;0.0;0.0;6.6;0.0;0.0
3.0;1753875099.081226;15.512532;0.73;-1.37;-0.22;0.189469;-1.006966;-0.006179;136.8;0.0;0.0;6.1;0.0;0.0
3.0;1753875099.085952;15.510007;0.71;-1.3;-0.21;0.189172;-1.006787;-0.007309;140.7;0.0;0.0;6.7;0.0;0.0
3.0;1753875099.090678;15.516971;0.77;-1.28;-0.25;0.188992;-1.007193;-0.004909;140.9;0.0;0.0;4.8;0.0;0.0
3.0;1753875099.095404;15.504289;0.73;-1.28;-0.19;0.188691;-1.006859;-0.005643;139.7;0.0;0.0;6.0;0.0;0.0
3.0;1753875099.10013;15.508343;0.82;-1.34;-0.23;0.188864;-1.006684;-0.006724;140.8;0.0;0.0;5.7;0.0;0.0
3.0;1753875099.104856;15.492689;0.8;-1.35;-0.26;0.189937;-1.007431;-0.006436;140.0;0.0;0.0;5.9;0.0;0.0
3.0;1753875099.109582;15.497559;0.82;-1.38;-0.24;0.188786;-1.006867;-0.004398;138.8;0.0;0.0;5.8;0.0;0.0
3.0;1753875099.114308;15.512793;0.78;-1.34;-0.15;0.187949;-1.00701;-0.004977;139.2;0.0;0.0;6.3;0.0;0.0
3.0;1753875099.119033;15.493478;0.9;-1.47;-0.25;0.18968;-1.008176;-0.004696;138.7;0.0;0.0;5.6;0.0;0.0
3.0;1753875099.123759;15.511877;0.79;-1.37;-0.21;0.191339;-1.008184;-0.005327;140.3;0.0;0.0;6.1;0.0;0.0
3.0;1753875099.128485;15.496856;0.77;-1.32;-0.18;0.186994;-1.006779;-0.004779;142.4;0.0;0.0;6.5;0.0;0.0
3.0;1753875099.133211;15.491669;0.74;-1.37;-0.21;0.189173;-1.00713;-0.005107;143.7;0.0;0.0;6.4;0.0;0.0
3.0;1753875099.137937;15.502751;0.76;-1.35;-0.17;0.188431;-1.006684;-0.0048;138.1;0.0;0.0;5.6;0.0;0.0
3.0;1753875099.142663;15.506;0.69;-1.36;-0.21;0.186993;-1.006135;-0.005804;139.4;0.0;0.0;5.6;0.0;0.0
3.0;1753875099.147389;15.504436;0.79;-1.35;-0.27;0.189638;-1.008983;-0.005677;140.4;0.0;0.0;6.1;0.0;0.0
3.0;1753875099.152115;15.496665;0.75;-1.4;-0.27;0.189629;-1.007281;-0.0057;139.9;0.0;0.0;6.9;0.0;0.0
3.0;1753875099.156841;15.516413;0.66;-1.31;-0.18;0.187192;-1.006452;-0.00609;140.4;0.0;0.0;6.4;0.0;0.0
3.0;1753875099.161567;15.493811;0.69;-1.32;-0.21;0.188761;-1.008486;-0.006391;138.4;0.0;0.0;5.4;0.0;0.0
3.0;1753875099.166293;15.513926;0.79;-1.3;-0.2;0.188565;-1.006306;-0.005791;140.2;0.0;0.0;4.4;0.0;0.0
3.0;1753875099.171018;15.501951;0.75;-1.32;-0.17;0.189802;-1.00709;-0.006232;141.3;0.0;0.0;6.3;0.0;0.0
3.0;1753875099.175744;15.499942;0.78;-1.36;-0.28;0.188285;-1.007247;-0.005259;137.2;0.0;0.0;6.3;0.0;0.0
3.0;1753875099.18047;15.50104;0.86;-1.29;-0.25;0.190553;-1.007371;-0.006802;139.2;0.0;0.0;6.1;0.0;0.0
3.0;1753875099.185196;15.494525;0.72;-1.29;-0.25;0.189569;-1.006668;-0.005924;141.0;0.0;0.0;7.0;0.0;0.0
3.0;1753875099.189922;15.493879;0.82;-1.27;-0.17;0.189299;-1.007948;-0.006044;143.9;0.0;0.0;6.3;0.0;0.0
3.0;1753875099.194648;15.485573;0.73;-1.33;-0.23;0.188385;-1.006846;-0.006219;139.3;0.0;0.0;5.4;0.0;0.0
3.0;1753875099.199374;15.48438;0.8;-1.35;-0.31;0.188053;-1.007009;-0.006448;140.6;0.0;0.0;6.2;0.0;0.0
3.0;1753875099.2041;15.50704;0.77;-1.33;-0.23;0.188536;-1.007157;-0.006308;142.1;0.0;0.0;6.0;0.0;0.0
3.0;1753875099.208826;15.509161;0.71;-1.38;-0.21;0.189741;-1.006502;-0.006441;139.6;0.0;0.0;6.4;0.0;0.0
3.0;1753875099.213552;15.520463;0.75;-1.36;-0.22;0.190444;-1.007891;-0.004875;139.2;0.0;0.0;6.0;0.0;0.0
3.0;1753875099.218278;15.496208;0.7;-1.31;-0.24;0.189627;-1.007308;-0.005266;139.7;0.0;0.0;6.7;0.0;0.0
3.0;1753875099.223004;15.490486;0.66;-1.32;-0.21;0.187812;-1.007974;-0.00546;141.5;0.0;0.0;5.6;0.0;0.0
3.0;1753875099.22773;15.508407;0.79;-1.36;-0.16;0.189426;-1.006486;-0.006189;137.8;0.0;0.0;6.5;0.0;0.0
3.0;1753875099.232456;15.501457;0.87;-1.31;-0.19;0.189338;-1.005676;-0.00638;139.2;0.0;0.0;6.7;0.0;0.0
3.0;1753875099.237182;15.480688;0.82;-1.37;-0.17;0.188561;-1.006819;-0.005313;141.6;0.0;0.0;6.5;0.0;0.0
3.0;1753875099.241908;15.517553;0.72;-1.27;-0.23;0.189893;-1.00717;-0.007779;140.1;0.0;0.0;6.0;0.0;0.0
3.0;1753875099.246634;15.494709;0.71;-1.3;-0.19;0.189265;-1.00747;-0.005068;140.1;0.0;0.0;5.7;0.0;0.0
3.0;1753875099.25136;15.506972;0.67;-1.38;-0.24;0.190243;-1.007763;-0.004678;139.7;0.0;0.0;7.0;0.0;0.0
3.0;1753875099.256086;15.505278;0.77;-1.35;-0.14;0.189756;-1.008498;-0.006192;139.1;0.0;0.0;5.6;0.0;0.0
3.0;1753875099.260811;15.481685;0.69;-1.27;-0.24;0.191017;-1.00749;-0.006845;139.9;0.0;0.0;5.6;0.0;0.0
3.0;1753875099.265537;15.492197;0.69;-1.36;-0.22;0.19026;-1.007988;-0.005542;139.4;0.0;0.0;6.0;0.0;0.0
3.0;1753875099.270263;15.500738;0.79;-1.29;-0.22;0.189641;-1.007334;-0.006007;140.1;0.0;0.0;6.3;0.0;0.0
3.0;1753875099.274989;15.511941;0.73;-1.33;-0.15;0.189982;-1.007091;-0.006768;139.3;0.0;0.0;6.1;0.0;0.0
3.0;1753875099.279715;15.497416;0.66;-1.27;-0.26;0.189206;-1.00743;-0.005305;138.6;0.0;0.0;6.1;0.0;0.0
3.0;1753875099.284441;15.490755;0.74;-1.28;-0.22;0.189746;-1.007942;-0.006716;140.3;0.0;0.0;5.8;0.0;0.0
3.0;1753875099.289167;15.492383;0.79;-1.31;-0.28;0.188445;-1.007762;-0.005506;140.2;0.0;0.0;5.6;0.0;0.0
3.0;1753875099.293893;15.512771;0.8;-1.32;-0.24;0.189606;-1.00719;-0.005583;141.1;0.0;0.0;6.0;0.0;0.0
3.0;1753875099.298619;15.493477;0.67;-1.32;-0.24;0.190932;-1.007553;-0.006232;140.9;0.0;0.0;6.2;0.0;0.0
3.0;1753875099.303345;15.50488;0.69;-1.36;-0.19;0.190623;-1.007363;-0.006333;140.1;0.0;0.0;6.7;0.0;0.0
3.0;1753875099.308071;15.495274;0.7;-1.26;-0.14;0.190234;-1.007231;-0.004842;141.6;0.0;0.0;6.0;0.0;0.0
3.0;1753875099.312796;15.490625;0.69;-1.32;-0.25;0.187386;-1.006294;-0.006193;139.9;0.0;0.0;6.0;0.0;0.0
3.0;1753875099.317522;15.51399;0.71;-1.33;-0.21;0.189104;-1.006208;-0.005394;140.3;0.0;0.0;6.1;0.0;0.0
3.0;1753875099.322248;15.505453;0.69;-1.28;-0.21;0.190664;-1.007342;-0.004696;140.6;0.0;0.0;6.5;0.0;0.0
3.0;1753875099.326974;15.499195;0.77;-1.45;-0.21;0.188287;-1.007276;-0.006111;137.6;0.0;0.0;6.2;0.0;0.0
3.0;1753875099.3317;15.499662;0.75;-1.25;-0.14;0.190577;-1.007508;-0.007056;138.7;0.0;0.0;5.4;0.0;0.0
3.0;1753875099.336426;15.506456;0.74;-1.4;-0.19;0.187702;-1.00856;-0.005105;138.0;0.0;0.0;7.1;0.0;0.0
3.0;1753875099.341152;15.500752;0.74;-1.29;-0.14;0.189888;-1.007406;-0.004894;142.3;0.0;0.0;5.5;0.0;0.0
3.0;1753875099.345878;15.493397;0.75;-1.35;-0.21;0.190328;-1.007161;-0.005211;140.9;0.0;0.0;6.5;0.0;0.0
3.0;1753875099.350604;15.495428;0.77;-1.31;-0.17;0.188553;-1.007269;-0.005654;140.1;0.0;0.0;5.2;0.0;0.0
3.0;1753875099.35533;15.499066;0.7;-1.37;-0.24;0.19038;-1.006554;-0.005919;140.5;0.0;0.0;5.9;0.0;0.0
3.0;1753875099.360056;15.500022;0.68;-1.33;-0.13;0.189354;-1.006568;-0.005345;139.0;0.0;0.0;5.8;0.0;0.0
3.0;1753875099.364782;15.495267;0.61;-1.37;-0.19;0.18865;-1.008352;-0.004435;136.9;0.0;0.0;6.3;0.0;0.0
3.0;1753875099.369508;15.505424;0.82;-1.43;-0.17;0.189859;-1.005935;-0.005775;139.5;0.0;0.0;6.1;0.0;0.0
3.0;1753875099.374234;15.525629;0.73;-1.34;-0.28;0.190592;-1.006079;-0.005807;139.2;0.0;0.0;6.3;0.0;0.0
3.0;1753875099.37896;15.486144;0.74;-1.4;-0.21;0.188888;-1.006949;-0.005734;141.4;0.0;0.0;6.4;0.0;0.0
3.0;1753875099.383686;15.519547;0.62;-1.27;-0.18;0.190832;-1.007053;-0.005522;137.5;0.0;0.0;6.2;0.0;0.0
3.0;1753875099.388412;15.521139;0.75;-1.36;-0.36;0.188873;-1.00666;-0.005021;140.2;0.0;0.0;5.9;0.0;0.0
3.0;1753875099.393138;15.512053;0.73;-1.39;-0.19;0.189188;-1.006784;-0.004968;138.3;0.0;0.0;5.6;0.0;0.0
3.0;1753875099.397864;15.491284;0.83;-1.29;-0.18;0.190305;-1.007404;-0.006563;139.6;0.0;0.0;6.0;0.0;0.0
3.0;1753875099.402589;15.522785;0.69;-1.33;-0.16;0.19047;-1.007531;-0.005748;140.5;0.0;0.0;6.0;0.0;0.0
3.0;1753875099.407315;15.478073;0.74;-1.38;-0.17;0.189791;-1.007127;-0.003425;139.0;0.0;0.0;6.2;0.0;0.0
3.0;1753875099.412041;15.526772;0.76;-1.44;-0.2;0.188339;-1.007587;-0.005497;141.4;0.0;0.0;6.0;0.0;0.0
3.0;1753875099.416767;15.505145;0.86;-1.43;-0.16;0.190194;-1.006509;-0.004343;140.8;0.0;0.0;6.4;0.0;0.0
3.0;1753875099.421493;15.498496;0.8;-1.27;-0.21;0.19096;-1.007434;-0.005927;140.5;0.0;0.0;6.4;0.0;0.0
3.0;1753875099.426219;15.483894;0.68;-1.26;-0.14;0.188361;-1.006735;-0.005673;138.5;0.0;0.0;6.5;0.0;0.0
3.0;1753875099.430945;15.530553;0.71;-1.34;-0.21;0.189726;-1.006935;-0.00547;140.9;0.0;0.0;5.7;0.0;0.0
3.0;1753875099.435671;15.502987;0.66;-1.36;-0.23;0.190194;-1.006633;-0.005028;140.9;0.0;0.0;5.6;0.0;0.0
3.0;1753875099.440397;15.479047;0.68;-1.31;-0.25;0.18895;-1.007126;-0.004756;141.6;0.0;0.0;5.5;0.0;0.0
3.0;1753875099.445123;15.52867;0.75;-1.29;-0.25;0.189179;-1.008754;-0.005608;139.4;0.0;0.0;6.4;0.0;0.0
3.0;1753875099.449849;15.49125;0.67;-1.34;-0.21;0.189703;-1.006479;-0.006064;142.5;0.0;0.0;6.3;0.0;0.0
3.0;1753875099.454574;15.492703;0.72;-1.33;-0.19;0.189031;-1.007178;-0.005826;139.4;0.0;0.0;5.5;0.0;0.0
3.0;1753875099.4593;15.524813;0.79;-1.34;-0.19;0.189789;-1.007185;-0.005764;140.1;0.0;0.0;6.3;0.0;0.0
3.0;1753875099.464026;15.50344;0.73;-1.31;-0.21;0.189119;-1.007453;-0.005735;143.4;0.0;0.0;6.1;0.0;0.0
3.0;1753875099.468752;15.495589;0.79;-1.31;-0.17;0.188233;-1.006579;-0.00493;141.9;0.0;0.0;5.8;0.0;0.0
3.0;1753875099.473478;15.50068;0.72;-1.35;-0.22;0.189156;-1.007862;-0.005499;142.3;0.0;0.0;5.1;0.0;0.0
3.0;1753875099.478204;15.492253;0.68;-1.29;-0.12;0.190009;-1.007967;-0.006404;142.4;0.0;0.0;6.8;0.0;0.0
3.0;1753875099.48293;15.515765;0.76;-1.31;-0.24;0.191112;-1.006696;-0.004948;140.4;0.0;0.0;5.9;0.0;0.0
3.0;1753875099.487656;15.492061;0.66;-1.27;-0.2;0.189277;-1.006047;-0.006384;139.7;0.0;0.0;5.9;0.0;0.0
3.0;1753875099.492382;15.472735;0.77;-1.33;-0.23;0.190909;-1.008485;-0.006632;138.7;0.0;0.0;5.7;0.0;0.0
3.0;1753875099.497108;15.515896;0.79;-1.26;-0.26;0.190108;-1.007263;-0.005347;139.3;0.0;0.0;5.6;0.0;0.0
3.0;1753875099.501834;15.490557;0.79;-1.21;-0.21;0.189965;-1.006966;-0.004947;138.2;0.0;0.0;6.4;0.0;0.0
3.0;1753875099.50656;15.480745;0.77;-1.34;-0.19;0.189563;-1.006781;-0.005919;139.0;0.0;0.0;5.7;0.0;0.0
3.0;1753875099.511286;15.511122;0.72;-1.34;-0.14;0.189784;-1.007264;-0.006641;141.8;0.0;0.0;6.7;0.0;0.0
3.0;1753875099.516012;15.512605;0.74;-1.27;-0.16;0.190872;-1.006763;-0.005637;139.2;0.0;0.0;6.7;0.0;0.0
3.0;1753875099.520738;15.51583;0.77;-1.36;-0.22;0.188198;-1.006793;-0.005872;138.9;0.0;0.0;6.4;0.0;0.0
3.0;1753875099.525464;15.507409;0.81;-1.26;-0.32;0.191044;-1.00739;-0.004609;140.6;0.0;0.0;7.0;0.0;0.0
3.0;1753875099.53019;15.500429;0.71;-1.37;-0.23;0.190504;-1.007196;-0.004802;140.6;0.0;0.0;6.0;0.0;0.0
3.0;1753875099.534916;15.497036;0.77;-1.26;-0.25;0.189879;-1.006494;-0.005522;142.5;0.0;0.0;6.9;0.0;0.0
3.0;1753875099.539642;15.501534;0.63;-1.29;-0.18;0.1902;-1.006317;-0.005649;140.1;0.0;0.0;6.3;0.0;0.0
3.0;1753875099.544367;15.484349;0.7;-1.38;-0.26;0.188961;-1.006428;-0.007225;139.1;0.0;0.0;6.7;0.0;0.0
3.0;1753875099.549093;15.495242;0.83;-1.27;-0.23;0.188772;-1.009021;-0.006176;136.6;0.0;0.0;6.1;0.0;0.0
3.0;1753875099.553819;15.522676;0.69;-1.33;-0.28;0.189892;-1.006827;-0.004379;139.0;0.0;0.0;6.9;0.0;0.0
3.0;1753875099.558545;15.507265;0.67;-1.28;-0.27;0.190066;-1.007077;-0.006493;139.3;0.0;0.0;5.5;0.0;0.0
3.0;1753875099.563271;15.490111;0.62;-1.42;-0.14;0.189458;-1.006846;-0.005479;140.9;0.0;0.0;6.8;0.0;0.0
3.0;1753875099.567997;15.498488;0.84;-1.28;-0.21;0.190524;-1.007421;-0.004217;140.1;0.0;0.0;5.9;0.0;0.0
3.0;1753875099.572723;15.505993;0.71;-1.29;-0.2;0.190668;-1.008267;-0.006332;139.5;0.0;0.0;6.4;0.0;0.0
3.0;1753875099.577449;15.503117;0.68;-1.28;-0.13;0.189306;-1.006987;-0.004728;141.3;0.0;0.0;6.1;0.0;0.0
3.0;1753875099.582175;15.501785;0.76;-1.35;-0.26;0.191072;-1.00692;-0.005264;137.1;0.0;0.0;6.6;0.0;0.0
3.0;1753875099.586901;15.50661;0.62;-1.31;-0.13;0.189838;-1.00671;-0.005039;141.1;0.0;0.0;6.5;0.0;0.0
3.0;1753875099.591627;15.484368;0.7;-1.28;-0.24;0.190682;-1.008273;-0.004401;140.2;0.0;0.0;6.1;0.0;0.0
3.0;1753875099.596352;15.497874;0.71;-1.33;-0.11;0.189717;-1.007323;-0.004386;140.1;0.0;0.0;6.2;0.0;0.0
3.0;1753875099.601078;15.517816;0.74;-1.36;-0.21;0.188834;-1.008259;-0.004145;139.5;0.0;0.0;4.4;0.0;0.0
3.0;1753875099.605804;15.495316;0.73;-1.31;-0.23;0.189076;-1.007675;-0.007603;138.6;0.0;0.0;6.5;0.0;0.0
3.0;1753875099.61053;15.49752;0.67;-1.3;-0.16;0.189744;-1.00733;-0.004474;140.6;0.0;0.0;5.2;0.0;0.0
3.0;1753875099.615256;15.504445;0.66;-1.34;-0.2;0.190329;-1.006711;-0.007975;139.6;0.0;0.0;5.6;0.0;0.0
3.0;1753875099.619982;15.495139;0.62;-1.37;-0.19;0.189352;-1.007374;-0.005301;139.9;0.0;0.0;5.9;0.0;0.0
3.0;1753875099.624708;15.501848;0.69;-1.38;-0.24;0.189251;-1.008057;-0.00559;137.3;0.0;0.0;5.8;0.0;0.0
3.0;1753875099.629434;15.518296;0.73;-1.29;-0.24;0.191723;-1.007588;-0.005978;144.4;0.0;0.0;6.4;0.0;0.0
3.0;1753875099.63416;15.496751;0.69;-1.33;-0.19;0.191138;-1.007689;-0.007336;142.2;0.0;0.0;5.6;0.0;0.0
3.0;1753875099.638886;15.490344;0.84;-1.35;-0.14;0.189343;-1.007935;-0.004531;138.5;0.0;0.0;6.0;0.0;0.0
3.0;1753875099.643612;15.517181;0.8;-1.37;-0.23;0.191039;-1.007439;-0.006246;138.1;0.0;0.0;6.1;0.0;0.0
3.0;1753875099.648338;15.499167;0.79;-1.26;-0.19;0.18979;-1.00677;-0.004591;138.0;0.0;0.0;6.0;0.0;0.0
3.0;1753875099.653064;15.485678;0.63;-1.3;-0.24;0.191748;-1.0066;-0.005121;139.1;0.0;0.0;5.3;0.0;0.0
3.0;1753875099.65779;15.480663;0.81;-1.31;-0.27;0.191304;-1.006642;-0.004916;143.1;0.0;0.0;6.2;0.0;0.0
3.0;1753875099.662516;15.466322;0.66;-1.37;-0.22;0.189163;-1.006523;-0.005967;140.8;0.0;0.0;6.6;0.0;0.0
3.0;1753875099.667242;15.508763;0.7;-1.32;-0.26;0.190381;-1.007119;-0.006636;139.6;0.0;0.0;5.9;0.0;0.0
3.0;1753875099.671968;15.48906;0.75;-1.38;-0.21;0.189256;-1.007871;-0.00463;142.6;0.0;0.0;5.9;0.0;0.0
3.0;1753875099.676694;15.499893;0.61;-1.36;-0.18;0.189776;-1.006903;-0.005303;141.0;0.0;0.0;7.1;0.0;0.0
3.0;1753875099.681419;15.49869;0.69;-1.3;-0.25;0.189206;-1.007386;-0.004322;141.1;0.0;0.0;5.4;0.0;0.0
3.0;1753875099.686145;15.489089;0.75;-1.26;-0.17;0.188694;-1.007451;-0.006534;138.4;0.0;0.0;5.7;0.0;0.0
3.0;1753875099.690871;15.498975;0.72;-1.34;-0.16;0.190818;-1.007634;-0.006783;138.6;0.0;0.0;6.1;0.0;0.0
3.0;1753875099.695597;15.493635;0.67;-1.34;-0.24;0.18887;-1.007112;-0.00637;138.3;0.0;0.0;5.8;0.0;0.0
3.0;1753875099.700323;15.508479;0.67;-1.34;-0.23;0.189989;-1.00729;-0.005657;140.0;0.0;0.0;6.4;0.0;0.0
3.0;1753875099.705049;15.488783;0.69;-1.32;-0.24;0.190087;-1.007138;-0.006296;139.5;0.0;0.0;5.9;0.0;0.0
3.0;1753875099.709775;15.514513;0.71;-1.29;-0.24;0.189113;-1.007612;-0.006072;143.0;0.0;0.0;6.3;0.0;0.0
3.0;1753875099.714501;15.498041;0.59;-1.34;-0.15;0.191504;-1.007501;-0.004765;139.9;0.0;0.0;6.0;0.0;0.0
3.0;1753875099.719227;15.490696;0.67;-1.41;-0.21;0.190659;-1.007428;-0.006084;142.3;0.0;0.0;5.9;0.0;0.0
3.0;1753875099.723953;15.496069;0.7;-1.28;-0.23;0.189368;-1.006427;-0.00474;140.7;0.0;0.0;6.7;0.0;0.0
3.0;1753875099.728679;15.482985;0.73;-1.36;-0.22;0.191275;-1.007003;-0.004313;139.4;0.0;0.0;5.5;0.0;0.0
3.0;1753875099.733405;15.481686;0.6;-1.36;-0.13;0.189536;-1.008186;-0.005655;140.6;0.0;0.0;6.1;0.0;0.0
3.0;1753875099.73813;15.476584;0.74;-1.31;-0.23;0.18907;-1.006854;-0.00582;141.1;0.0;0.0;6.0;0.0;0.0
3.0;1753875099.742856;15.506555;0.65;-1.32;-0.28;0.189325;-1.007708;-0.006688;142.2;0.0;0.0;6.4;0.0;0.0
3.0;1753875099.747582;15.474665;0.62;-1.38;-0.12;0.189557;-1.007199;-0.004237;142.5;0.0;0.0;5.3;0.0;0.0
3.0;1753875099.752308;15.508663;0.67;-1.38;-0.22;0.19064;-1.006946;-0.003763;139.8;0.0;0.0;7.0;0.0;0.0
3.0;1753875099.757034;15.504121;0.72;-1.3;-0.22;0.189184;-1.007067;-0.005847;141.9;0.0;0.0;6.2;0.0;0.0
3.0;1753875099.76176;15.500732;0.65;-1.32;-0.2;0.190869;-1.006943;-0.005022;140.7;0.0;0.0;6.7;0.0;0.0
3.0;1753875099.766486;15.499689;0.74;-1.32;-0.13;0.189328;-1.006742;-0.005478;138.7;0.0;0.0;6.2;0.0;0.0
3.0;1753875099.771212;15.506953;0.7;-1.34;-0.27;0.190194;-1.00682;-0.005948;137.1;0.0;0.0;5.1;0.0;0.0
3.0;1753875099.775938;15.516756;0.75;-1.36;-0.21;0.188928;-1.008205;-0.004788;139.9;0.0;0.0;5.5;0.0;0.0
3.0;1753875099.780664;15.4957;0.63;-1.37;-0.21;0.187759;-1.006789;-0.004767;138.0;0.0;0.0;5.6;0.0;0.0
3.0;1753875099.78539;15.511166;0.54;-1.26;-0.17;0.190461;-1.006975;-0.004274;137.6;0.0;0.0;5.8;0.0;0.0
3.0;1753875099.790116;15.496693;0.71;-1.25;-0.27;0.190856;-1.007523;-0.003847;139.8;0.0;0.0;6.2;0.0;0.0
3.0;1753875099.794842;15.513241;0.62;-1.39;-0.17;0.190099;-1.007817;-0.005456;139.3;0.0;0.0;5.8;0.0;0.0
3.0;1753875099.799568;15.484959;0.58;-1.36;-0.18;0.19051;-1.007752;-0.005489;139.7;0.0;0.0;5.3;0.0;0.0
3.0;1753875099.804294;15.4948;0.68;-1.31;-0.18;0.189624;-1.007146;-0.006038;140.8;0.0;0.0;5.9;0.0;0.0
3.0;1753875099.80902;15.497102;0.76;-1.37;-0.18;0.192588;-1.006962;-0.00506;138.5;0.0;0.0;6.3;0.0;0.0
3.0;1753875099.813746;15.501897;0.64;-1.29;-0.16;0.18959;-1.007053;-0.00578;141.2;0.0;0.0;5.5;0.0;0.0
3.0;1753875099.82;15.5;0.7;-1.33;-0.21;0.190198;-1.007476;-0.005246;140.0;0.0;0.0;6.0;0.0;0.0
3.0;1753875099.82647;15.507812;0.63;-1.26;-0.21;0.19032;-1.00711;-0.005368;140.0;0.0;0.0;6.0;0.0;0.0
3.0;1753875099.831196;15.50761;0.59;-1.2;-0.25;0.192099;-1.00525;-0.005521;139.8;0.0;0.0;5.9;0.0;0.0
3.0;1753875099.835922;15.524872;0.66;-1.23;-0.15;0.189299;-1.006626;-0.005233;139.6;0.0;0.0;6.7;0.0;0.0
3.0;1753875099.840648;15.47999;0.64;-1.27;-0.17;0.188044;-1.007653;-0.005727;140.5;0.0;0.0;4.9;0.0;0.0
3.0;1753875099.845374;15.513336;0.67;-1.22;-0.2;0.189411;-1.00754;-0.005192;140.4;0.0;0.0;5.9;0.0;0.0
3.0;1753875099.8501;15.517424;0.63;-1.35;-0.26;0.192772;-1.006931;-0.005962;138.8;0.0;0.0;6.2;0.0;0.0
3.0;1753875099.854826;15.496337;0.6;-1.35;-0.17;0.190499;-1.00697;-0.004722;141.0;0.0;0.0;5.0;0.0;0.0
3.0;1753875099.859552;15.476144;0.66;-1.33;-0.21;0.190998;-1.007428;-0.003967;141.1;0.0;0.0;6.5;0.0;0.0
3.0;1753875099.864277;15.472266;0.63;-1.31;-0.24;0.190212;-1.007716;-0.004209;139.9;0.0;0.0;6.7;0.0;0.0
3.0;1753875099.869003;15.496831;0.55;-1.25;-0.19;0.190142;-1.007883;-0.005933;140.1;0.0;0.0;6.0;0.0;0.0
3.0;1753875099.873729;15.527337;0.56;-1.31;-0.21;0.192815;-1.006959;-0.006269;141.0;0.0;0.0;6.2;0.0;0.0
3.0;1753875099.878455;15.527848;0.65;-1.34;-0.21;0.190652;-1.007689;-0.004573;138.9;0.0;0.0;5.4;0.0;0.0
3.0;1753875099.883181;15.535116;0.66;-1.35;-0.13;0.191212;-1.006794;-0.004878;141.1;0.0;0.0;5.7;0.0;0.0
3.0;1753875099.887907;15.531037;0.67;-1.39;-0.19;0.189678;-1.007331;-0.004333;140.2;0.0;0.0;6.1;0.0;0.0
3.0;1753875099.892633;15.508378;0.61;-1.43;-0.19;0.191432;-1.006852;-0.00537;140.2;0.0;0.0;6.0;0.0;0.0
3.0;1753875099.897359;15.490234;0.55;-1.27;-0.14;0.189893;-1.007195;-0.004033;140.0;0.0;0.0;7.0;0.0;0.0
3.0;1753875099.902085;15.493791;0.66;-1.39;-0.32;0.18826;-1.006425;-0.004574;140.9;0.0;0.0;5.5;0.0;0.0
3.0;1753875099.90752;15.507812;0.63;-1.33;-0.21;0.191174;-1.00711;-0.005002;140.0;0.0;0.0;6.0;0.0;0.0
3.0;1753875099.912246;15.515223;0.68;-1.31;-0.18;0.192209;-1.008951;-0.006789;139.6;0.0;0.0;6.2;0.0;0.0
3.0;1753875099.916972;15.517076;0.67;-1.29;-0.22;0.191082;-1.00726;-0.004985;140.0;0.0;0.0;5.1;0.0;0.0
3.0;1753875099.921698;15.504594;0.72;-1.31;-0.23;0.187695;-1.006036;-0.004711;139.4;0.0;0.0;5.9;0.0;0.0
3.0;1753875099.926424;15.498973;0.6;-1.32;-0.14;0.191551;-1.007793;-0.006201;139.9;0.0;0.0;6.0;0.0;0.0
3.0;1753875099.93115;15.519941;0.7;-1.34;-0.13;0.189226;-1.006315;-0.005461;140.5;0.0;0.0;7.1;0.0;0.0
3.0;1753875099.935876;15.489478;0.62;-1.42;-0.15;0.187461;-1.006219;-0.005282;139.7;0.0;0.0;6.0;0.0;0.0
3.0;1753875099.94441;15.507812;0.7;-1.33;-0.14;0.188978;-1.006378;-0.005856;140.0;0.0;0.0;6.0;0.0;0.0
3.0;1753875099.94602;15.460938;0.77;-1.4;-0.21;0.191296;-1.005768;-0.00549;145.0;0.0;0.0;5.0;0.0;0.0
3.0;1753875099.950746;15.454951;0.79;-1.34;-0.23;0.190152;-1.007416;-0.005472;139.8;0.0;0.0;6.2;0.0;0.0
3.0;1753875099.955274;15.460938;0.77;-1.33;-0.21;0.186782;-1.007354;-0.004392;139.0;0.0;0.0;8.0;0.0;0.0
3.0;1753875099.96202;15.5;0.7;-1.33;-0.21;0.18971;-1.006988;-0.004636;139.0;0.0;0.0;8.0;0.0;0.0
3.0;1753875099.970966;15.5;0.7;-1.33;-0.21;0.19276;-1.007476;-0.005978;139.0;0.0;0.0;8.0;0.0;0.0
3.0;1753875099.974141;15.5;0.7;-1.4;-0.21;0.18971;-1.007476;-0.005368;139.0;0.0;0.0;8.0;0.0;0.0
3.0;1753875099.978818;15.476562;0.7;-1.33;-0.21;0.189466;-1.007232;-0.004758;139.0;0.0;0.0;8.0;0.0;0.0
3.0;1753875099.98349;15.476562;0.63;-1.19;-0.21;0.188978;-1.007232;-0.005368;139.0;0.0;0.0;8.0;0.0;0.0
3.0;1753875099.98998;15.476562;0.7;-1.19;-0.21;0.189588;-1.007598;-0.0061;139.0;0.0;0.0;8.0;0.0;0.0
3.0;1753875099.992808;15.476562;0.7;-1.33;-0.21;0.190686;-1.006622;-0.005246;139.0;0.0;0.0;8.0;0.0;0.0
3.0;1753875099.997596;15.476562;0.7;-1.33;-0.21;0.190686;-1.006988;-0.005246;139.0;0.0;0.0;8.0;0.0;0.0
3.0;1753875100.002322;15.467957;0.69;-1.39;-0.21;0.189601;-1.005396;-0.005242;141.4;0.0;0.0;8.9;0.0;0.0
3.0;1753875100.007048;15.471448;0.66;-1.31;-0.22;0.191946;-1.006584;-0.004579;136.1;0.0;0.0;8.8;0.0;0.0
3.0;1753875100.011774;15.471304;0.57;-1.4;-0.2;0.188714;-1.005976;-0.00451;141.1;0.0;0.0;7.5;0.0;0.0
3.0;1753875100.0165;15.482381;0.66;-1.37;-0.23;0.190307;-1.006696;-0.0058;135.1;0.0;0.0;7.3;0.0;0.0
3.0;1753875100.021226;15.482585;0.75;-1.35;-0.23;0.190059;-1.007189;-0.005621;137.8;0.0;0.0;6.8;0.0;0.0
3.0;1753875100.025952;15.483115;0.73;-1.27;-0.21;0.18877;-1.00562;-0.005704;139.8;0.0;0.0;7.0;0.0;0.0
3.0;1753875100.030678;15.474749;0.63;-1.19;-0.14;0.189796;-1.006181;-0.005409;142.8;0.0;0.0;9.7;0.0;0.0
3.0;1753875100.035404;15.482681;0.67;-1.4;-0.19;0.190287;-1.00706;-0.003916;143.1;0.0;0.0;8.0;0.0;0.0
3.0;1753875100.04013;15.479093;0.76;-1.28;-0.24;0.190635;-1.006979;-0.00444;138.6;0.0;0.0;8.1;0.0;0.0
3.0;1753875100.044855;15.478896;0.73;-1.37;-0.21;0.190006;-1.007237;-0.004296;138.8;0.0;0.0;6.7;0.0;0.0
3.0;1753875100.049581;15.491833;0.7;-1.31;-0.3;0.19183;-1.006396;-0.006198;141.5;0.0;0.0;6.4;0.0;0.0
3.0;1753875100.054307;15.489076;0.72;-1.29;-0.29;0.188929;-1.007208;-0.005346;141.5;0.0;0.0;7.1;0.0;0.0
3.0;1753875100.059033;15.449286;0.72;-1.31;-0.29;0.192063;-1.006183;-0.005737;141.4;0.0;0.0;7.7;0.0;0.0
3.0;1753875100.063759;15.476218;0.75;-1.34;-0.19;0.191453;-1.006842;-0.005023;139.6;0.0;0.0;7.4;0.0;0.0
3.0;1753875100.068485;15.481643;0.65;-1.3;-0.32;0.190073;-1.00704;-0.004659;141.9;0.0;0.0;5.6;0.0;0.0
3.0;1753875100.073211;15.481225;0.68;-1.35;-0.23;0.190504;-1.006627;-0.005167;139.9;0.0;0.0;8.9;0.0;0.0
3.0;1753875100.077937;15.477832;0.7;-1.42;-0.23;0.191072;-1.006898;-0.00595;146.7;0.0;0.0;5.9;0.0;0.0
3.0;1753875100.082663;15.524247;0.74;-1.37;-0.21;0.191515;-1.00743;-0.004664;139.6;0.0;0.0;8.2;0.0;0.0
3.0;1753875100.087389;15.474367;0.84;-1.27;-0.23;0.19107;-1.006649;-0.005703;141.4;0.0;0.0;5.2;0.0;0.0
3.0;1753875100.092115;15.450004;0.68;-1.33;-0.19;0.188625;-1.007278;-0.00554;136.8;0.0;0.0;5.7;0.0;0.0
3.0;1753875100.09684;15.494847;0.72;-1.26;-0.22;0.190554;-1.007286;-0.006113;143.2;0.0;0.0;8.7;0.0;0.0
3.0;1753875100.101566;15.485914;0.66;-1.39;-0.26;0.191278;-1.005689;-0.005563;142.0;0.0;0.0;7.2;0.0;0.0
3.0;1753875100.106292;15.470669;0.63;-1.41;-0.24;0.190117;-1.006254;-0.005256;140.6;0.0;0.0;6.7;0.0;0.0
3.0;1753875100.111018;15.464432;0.74;-1.31;-0.22;0.19017;-1.007494;-0.005902;136.8;0.0;0.0;8.3;0.0;0.0
3.0;1753875100.115744;15.502887;0.76;-1.4;-0.25;0.187023;-1.007434;-0.005003;139.1;0.0;0.0;8.7;0.0;0.0
3.0;1753875100.12047;15.46677;0.75;-1.4;-0.16;0.192156;-1.006312;-0.005559;138.8;0.0;0.0;7.6;0.0;0.0
3.0;1753875100.125196;15.462087;0.85;-1.43;-0.25;0.191322;-1.006099;-0.004865;141.8;0.0;0.0;4.8;0.0;0.0
3.0;1753875100.129922;15.487606;0.71;-1.4;-0.21;0.189707;-1.006454;-0.005989;141.2;0.0;0.0;5.5;0.0;0.0
3.0;1753875100.134648;15.451152;0.79;-1.48;-0.24;0.189287;-1.006976;-0.005116;137.9;0.0;0.0;6.9;0.0;0.0
3.0;1753875100.139374;15.462097;0.66;-1.45;-0.14;0.189933;-1.006595;-0.005914;136.9;0.0;0.0;7.3;0.0;0.0
3.0;1753875100.1441;15.484707;0.67;-1.36;-0.22;0.190573;-1.006895;-0.005792;145.6;0.0;0.0;7.6;0.0;0.0
3.0;1753875100.148826;15.491555;0.83;-1.28;-0.21;0.188727;-1.006887;-0.00555;140.9;0.0;0.0;7.0;0.0;0.0
3.0;1753875100.153552;15.495518;0.62;-1.47;-0.24;0.189272;-1.006728;-0.005242;138.5;0.0;0.0;7.5;0.0;0.0
3.0;1753875100.158278;15.507372;0.75;-1.36;-0.17;0.190143;-1.007306;-0.004636;147.7;0.0;0.0;8.2;0.0;0.0
3.0;1753875100.163004;15.494028;0.8;-1.47;-0.23;0.189149;-1.007166;-0.004818;144.6;0.0;0.0;8.6;0.0;0.0
3.0;1753875100.16773;15.494655;0.68;-1.4;-0.18;0.190653;-1.006684;-0.006123;138.7;0.0;0.0;4.8;0.0;0.0
3.0;1753875100.172456;15.488516;0.79;-1.34;-0.17;0.186259;-1.007446;-0.005283;142.2;0.0;0.0;7.9;0.0;0.0
3.0;1753875100.177182;15.453525;0.69;-1.38;-0.25;0.188794;-1.007072;-0.004192;142.7;0.0;0.0;4.3;0.0;0.0
3.0;1753875100.181908;15.493024;0.72;-1.4;-0.2;0.18738;-1.007506;-0.006785;135.5;0.0;0.0;5.9;0.0;0.0
3.0;1753875100.186633;15.470154;0.78;-1.37;-0.15;0.18997;-1.006425;-0.006141;143.4;0.0;0.0;6.4;0.0;0.0
3.0;1753875100.191359;15.472146;0.75;-1.35;-0.14;0.187427;-1.006018;-0.004298;139.2;0.0;0.0;5.5;0.0;0.0
3.0;1753875100.196085;15.472362;0.62;-1.38;-0.2;0.190348;-1.006296;-0.005643;138.2;0.0;0.0;5.3;0.0;0.0
3.0;1753875100.200811;15.461279;0.7;-1.36;-0.23;0.191179;-1.006488;-0.005475;149.6;0.0;0.0;8.5;0.0;0.0
3.0;1753875100.205537;15.482623;0.66;-1.43;-0.2;0.187742;-1.006734;-0.004978;146.8;0.0;0.0;4.4;0.0;0.0
3.0;1753875100.210263;15.460155;0.75;-1.37;-0.15;0.188191;-1.006599;-0.004818;144.2;0.0;0.0;7.6;0.0;0.0
3.0;1753875100.214989;15.499939;0.78;-1.32;-0.17;0.190552;-1.006426;-0.003924;143.8;0.0;0.0;5.5;0.0;0.0
3.0;1753875100.219715;15.491815;0.67;-1.45;-0.21;0.188965;-1.007066;-0.003399;143.5;0.0;0.0;7.4;0.0;0.0
3.0;1753875100.224441;15.481172;0.74;-1.47;-0.21;0.19072;-1.006775;-0.004616;140.8;0.0;0.0;7.5;0.0;0.0
3.0;1753875100.229167;15.500416;0.63;-1.42;-0.22;0.188828;-1.006048;-0.004278;139.5;0.0;0.0;5.6;0.0;0.0
3.0;1753875100.233893;15.48153;0.63;-1.43;-0.23;0.19043;-1.007129;-0.003926;140.3;0.0;0.0;5.3;0.0;0.0
3.0;1753875100.238618;15.462647;0.8;-1.37;-0.17;0.188657;-1.006513;-0.00489;141.8;0.0;0.0;6.8;0.0;0.0
3.0;1753875100.243344;15.479448;0.72;-1.35;-0.21;0.188525;-1.005721;-0.005544;141.6;0.0;0.0;7.8;0.0;0.0
3.0;1753875100.24807;15.47264;0.81;-1.27;-0.2;0.18722;-1.006268;-0.005833;137.2;0.0;0.0;4.9;0.0;0.0
3.0;1753875100.252796;15.480911;0.68;-1.33;-0.15;0.189339;-1.006337;-0.004703;142.8;0.0;0.0;6.9;0.0;0.0
3.0;1753875100.257522;15.487138;0.77;-1.39;-0.11;0.189561;-1.006119;-0.006164;140.3;0.0;0.0;4.2;0.0;0.0
3.0;1753875100.262248;15.478009;0.58;-1.46;-0.18;0.191398;-1.005385;-0.004801;148.0;0.0;0.0;5.5;0.0;0.0
3.0;1753875100.266974;15.47137;0.75;-1.4;-0.22;0.187131;-1.006113;-0.005958;139.5;0.0;0.0;9.2;0.0;0.0
3.0;1753875100.2717;15.43168;0.72;-1.35;-0.23;0.187363;-1.006622;-0.005293;143.5;0.0;0.0;8.6;0.0;0.0
3.0;1753875100.276426;15.475839;0.7;-1.44;-0.22;0.187752;-1.00599;-0.005819;146.1;0.0;0.0;6.4;0.0;0.0
3.0;1753875100.281152;15.488716;0.69;-1.32;-0.25;0.187754;-1.006898;-0.005003;144.5;0.0;0.0;5.3;0.0;0.0
3.0;1753875100.285878;15.477859;0.74;-1.46;-0.18;0.188629;-1.007105;-0.004834;143.9;0.0;0.0;5.3;0.0;0.0
3.0;1753875100.290604;15.469714;0.69;-1.33;-0.23;0.188925;-1.005678;-0.005782;144.7;0.0;0.0;5.7;0.0;0.0
3.0;1753875100.29533;15.468641;0.74;-1.45;-0.17;0.18984;-1.005841;-0.004281;145.1;0.0;0.0;5.5;0.0;0.0
3.0;1753875100.300056;15.476528;0.67;-1.42;-0.22;0.187301;-1.007041;-0.005258;141.7;0.0;0.0;7.5;0.0;0.0
3.0;1753875100.304782;15.46946;0.73;-1.46;-0.23;0.189094;-1.00692;-0.004629;141.5;0.0;0.0;3.2;0.0;0.0
3.0;1753875100.309508;15.470936;0.73;-1.29;-0.2;0.187859;-1.005981;-0.004212;145.7;0.0;0.0;9.2;0.0;0.0
3.0;1753875100.314234;15.487906;0.64;-1.42;-0.2;0.188106;-1.007321;-0.005105;144.5;0.0;0.0;4.1;0.0;0.0
3.0;1753875100.3211;15.476562;0.7;-1.4;-0.21;0.187758;-1.0065;-0.005246;143.0;0.0;0.0;5.0;0.0;0.0
3.0;1753875100.325826;15.459793;0.68;-1.33;-0.16;0.187789;-1.005616;-0.005351;144.3;0.0;0.0;5.3;0.0;0.0
3.0;1753875100.330552;15.488793;0.67;-1.31;-0.18;0.18764;-1.00699;-0.005404;138.5;0.0;0.0;3.1;0.0;0.0
3.0;1753875100.335278;15.502627;0.74;-1.27;-0.21;0.190355;-1.006913;-0.005823;139.5;0.0;0.0;4.7;0.0;0.0
3.0;1753875100.340004;15.460608;0.66;-1.35;-0.17;0.188482;-1.00564;-0.005089;147.0;0.0;0.0;3.4;0.0;0.0
3.0;1753875100.34473;15.485378;0.74;-1.3;-0.22;0.189143;-1.005526;-0.00548;138.3;0.0;0.0;4.8;0.0;0.0
3.0;1753875100.349456;15.488034;0.68;-1.39;-0.22;0.189354;-1.006787;-0.004657;145.3;0.0;0.0;4.1;0.0;0.0
3.0;1753875100.35636;15.476562;0.7;-1.26;-0.21;0.190564;-1.006134;-0.005124;143.0;0.0;0.0;5.0;0.0;0.0
3.0;1753875100.361086;15.472974;0.62;-1.3;-0.22;0.191319;-1.006272;-0.00416;144.7;0.0;0.0;2.7;0.0;0.0
3.0;1753875100.365812;15.472457;0.73;-1.36;-0.19;0.190499;-1.004909;-0.00547;140.6;0.0;0.0;3.6;0.0;0.0
3.0;1753875100.370538;15.469635;0.73;-1.25;-0.19;0.188676;-1.00701;-0.005239;143.2;0.0;0.0;6.2;0.0;0.0
3.0;1753875100.375264;15.476186;0.77;-1.23;-0.16;0.191833;-1.005375;-0.004257;142.5;0.0;0.0;3.6;0.0;0.0
3.0;1753875100.37999;15.496052;0.76;-1.33;-0.19;0.189863;-1.00527;-0.005339;143.3;0.0;0.0;5.9;0.0;0.0
3.0;1753875100.384716;15.485628;0.68;-1.36;-0.16;0.189851;-1.006721;-0.005334;143.3;0.0;0.0;4.7;0.0;0.0
3.0;1753875100.389442;15.455532;0.73;-1.35;-0.12;0.192871;-1.004887;-0.004163;146.1;0.0;0.0;5.2;0.0;0.0
3.0;1753875100.394168;15.461034;0.7;-1.35;-0.17;0.192671;-1.006165;-0.004802;145.5;0.0;0.0;5.4;0.0;0.0
3.0;1753875100.398893;15.485924;0.63;-1.23;-0.12;0.189548;-1.005701;-0.00483;141.0;0.0;0.0;4.8;0.0;0.0
3.0;1753875100.40567;15.476562;0.7;-1.33;-0.14;0.190564;-1.006134;-0.005124;143.0;0.0;0.0;5.0;0.0;0.0
3.0;1753875100.410396;15.478579;0.76;-1.27;-0.19;0.190577;-1.006484;-0.00496;137.7;0.0;0.0;4.0;0.0;0.0
3.0;1753875100.415122;15.469635;0.72;-1.41;-0.16;0.190559;-1.005829;-0.004872;146.4;0.0;0.0;3.7;0.0;0.0
3.0;1753875100.419848;15.502718;0.86;-1.29;-0.17;0.18955;-1.006906;-0.005061;140.0;0.0;0.0;5.2;0.0;0.0
3.0;1753875100.424574;15.500804;0.77;-1.34;-0.17;0.190332;-1.005593;-0.005196;139.8;0.0;0.0;4.4;0.0;0.0
3.0;1753875100.4293;15.483546;0.93;-1.26;-0.17;0.188816;-1.005979;-0.004869;139.8;0.0;0.0;3.8;0.0;0.0
3.0;1753875100.434026;15.476096;0.82;-1.19;-0.13;0.19083;-1.005954;-0.00516;144.1;0.0;0.0;5.5;0.0;0.0
3.0;1753875100.438752;15.486688;0.79;-1.25;-0.23;0.189065;-1.00613;-0.003852;144.8;0.0;0.0;5.1;0.0;0.0
3.0;1753875100.44327;15.476562;0.84;-1.19;-0.21;0.1891;-1.006256;-0.00488;143.0;0.0;0.0;5.0;0.0;0.0
3.0;1753875100.447996;15.472444;0.9;-1.07;-0.19;0.188907;-1.006206;-0.006008;143.2;0.0;0.0;6.9;0.0;0.0
3.0;1753875100.452722;15.459509;0.84;-1.24;-0.18;0.192087;-1.007304;-0.005059;142.6;0.0;0.0;4.4;0.0;0.0
3.0;1753875100.457448;15.480875;0.8;-1.22;-0.15;0.188935;-1.006754;-0.00456;146.8;0.0;0.0;3.3;0.0;0.0
3.0;1753875100.462174;15.476194;0.84;-1.2;-0.24;0.188179;-1.005864;-0.004818;137.4;0.0;0.0;5.4;0.0;0.0
3.0;1753875100.4669;15.489919;0.86;-1.16;-0.22;0.187922;-1.006514;-0.005112;140.0;0.0;0.0;5.8;0.0;0.0
3.0;1753875100.471626;15.468071;0.85;-1.31;-0.19;0.18866;-1.006432;-0.004782;142.9;0.0;0.0;4.1;0.0;0.0
3.0;1753875100.476352;15.482452;0.8;-1.29;-0.2;0.18753;-1.005653;-0.003727;141.9;0.0;0.0;4.4;0.0;0.0
3.0;1753875100.481078;15.460088;0.65;-1.11;-0.2;0.186304;-1.006145;-0.004791;137.1;0.0;0.0;4.8;0.0;0.0
3.0;1753875100.485803;15.486556;0.71;-1.31;-0.25;0.187863;-1.006625;-0.004898;135.2;0.0;0.0;8.5;0.0;0.0
3.0;1753875100.490529;15.486502;0.78;-1.35;-0.24;0.190752;-1.006166;-0.006063;135.7;0.0;0.0;4.8;0.0;0.0
3.0;1753875100.495255;15.470233;0.72;-1.22;-0.22;0.188223;-1.007277;-0.005268;138.0;0.0;0.0;4.0;0.0;0.0
3.0;1753875100.499981;15.488151;0.72;-1.18;-0.23;0.188241;-1.006427;-0.005549;134.5;0.0;0.0;5.0;0.0;0.0
3.0;1753875100.504707;15.457296;0.72;-1.23;-0.19;0.18789;-1.005616;-0.006055;131.1;0.0;0.0;6.1;0.0;0.0
3.0;1753875100.509433;15.454969;0.66;-1.33;-0.22;0.187845;-1.005883;-0.005078;137.1;0.0;0.0;4.2;0.0;0.0
3.0;1753875100.514159;15.472235;0.8;-1.18;-0.19;0.18769;-1.006995;-0.005634;133.3;0.0;0.0;7.2;0.0;0.0
3.0;1753875100.518885;15.462056;0.63;-1.28;-0.24;0.186673;-1.005972;-0.005383;133.1;0.0;0.0;6.2;0.0;0.0
3.0;1753875100.523611;15.455928;0.77;-1.23;-0.22;0.188654;-1.007361;-0.005153;134.0;0.0;0.0;5.7;0.0;0.0
3.0;1753875100.528337;15.481344;0.67;-1.22;-0.21;0.187394;-1.007827;-0.004993;131.8;0.0;0.0;6.9;0.0;0.0
3.0;1753875100.533063;15.468998;0.72;-1.32;-0.22;0.189278;-1.006778;-0.005696;134.4;0.0;0.0;5.3;0.0;0.0
3.0;1753875100.53811;15.46875;0.7;-1.26;-0.21;0.187636;-1.006744;-0.00549;132.0;0.0;0.0;6.0;0.0;0.0
3.0;1753875100.542836;15.476945;0.77;-1.26;-0.18;0.187217;-1.006366;-0.005883;131.7;0.0;0.0;7.9;0.0;0.0
3.0;1753875100.547562;15.466308;0.68;-1.15;-0.25;0.187834;-1.007136;-0.004785;132.1;0.0;0.0;5.1;0.0;0.0
3.0;1753875100.552288;15.489322;0.66;-1.28;-0.19;0.18654;-1.00684;-0.006169;132.3;0.0;0.0;5.9;0.0;0.0
3.0;1753875100.557014;15.471092;0.75;-1.32;-0.22;0.187585;-1.006796;-0.006218;128.8;0.0;0.0;5.4;0.0;0.0
3.0;1753875100.56174;15.45039;0.78;-1.39;-0.23;0.190015;-1.006852;-0.005491;132.1;0.0;0.0;4.7;0.0;0.0
3.0;1753875100.566466;15.465822;0.72;-1.26;-0.21;0.19023;-1.006634;-0.00552;124.5;0.0;0.0;6.3;0.0;0.0
3.0;1753875100.571192;15.458042;0.7;-1.31;-0.21;0.187265;-1.006531;-0.005405;130.5;0.0;0.0;10.5;0.0;0.0
3.0;1753875100.575918;15.471241;0.73;-1.1;-0.3;0.19045;-1.007681;-0.005456;133.0;0.0;0.0;4.7;0.0;0.0
3.0;1753875100.580644;15.44962;0.69;-1.26;-0.2;0.190627;-1.007152;-0.00554;135.8;0.0;0.0;4.7;0.0;0.0
3.0;1753875100.585369;15.460114;0.67;-1.25;-0.24;0.189576;-1.006667;-0.006567;125.9;0.0;0.0;5.6;0.0;0.0
3.0;1753875100.590095;15.450075;0.76;-1.4;-0.17;0.188192;-1.006103;-0.006377;136.5;0.0;0.0;5.0;0.0;0.0
3.0;1753875100.594821;15.462218;0.74;-1.28;-0.22;0.191346;-1.007235;-0.006091;131.0;0.0;0.0;4.6;0.0;0.0
3.0;1753875100.599547;15.48679;0.81;-1.32;-0.23;0.187717;-1.007321;-0.005212;130.0;0.0;0.0;7.2;0.0;0.0
3.0;1753875100.604273;15.465402;0.78;-1.27;-0.13;0.190734;-1.007543;-0.006718;128.9;0.0;0.0;4.7;0.0;0.0
3.0;1753875100.61099;15.46875;0.77;-1.26;-0.21;0.19093;-1.006988;-0.005734;132.0;0.0;0.0;6.0;0.0;0.0
3.0;1753875100.615716;15.475902;0.74;-1.16;-0.18;0.192452;-1.006637;-0.005873;134.5;0.0;0.0;6.3;0.0;0.0
3.0;1753875100.620442;15.462387;0.75;-1.21;-0.2;0.192933;-1.007372;-0.005904;126.3;0.0;0.0;4.9;0.0;0.0
3.0;1753875100.625168;15.465852;0.83;-1.27;-0.21;0.189391;-1.006999;-0.005205;134.1;0.0;0.0;6.2;0.0;0.0
3.0;1753875100.629894;15.462478;0.77;-1.24;-0.23;0.192029;-1.008007;-0.005679;132.8;0.0;0.0;2.5;0.0;0.0
3.0;1753875100.63462;15.449624;0.75;-1.3;-0.2;0.191858;-1.007408;-0.005247;133.4;0.0;0.0;5.5;0.0;0.0
3.0;1753875100.639346;15.472119;0.82;-1.38;-0.22;0.190549;-1.007234;-0.004273;128.0;0.0;0.0;5.6;0.0;0.0
3.0;1753875100.644072;15.481313;0.74;-1.27;-0.2;0.190699;-1.006804;-0.005268;129.5;0.0;0.0;4.1;0.0;0.0
3.0;1753875100.648798;15.444361;0.8;-1.27;-0.25;0.190365;-1.007287;-0.005258;133.1;0.0;0.0;5.7;0.0;0.0
3.0;1753875100.653524;15.486511;0.73;-1.19;-0.25;0.19008;-1.007548;-0.004499;136.7;0.0;0.0;7.8;0.0;0.0
3.0;1753875100.65825;15.446355;0.81;-1.44;-0.17;0.189022;-1.00693;-0.005537;136.0;0.0;0.0;6.4;0.0;0.0
3.0;1753875100.662975;15.44538;0.81;-1.32;-0.19;0.190952;-1.007458;-0.005042;138.8;0.0;0.0;7.5;0.0;0.0
3.0;1753875100.667701;15.485889;0.76;-1.35;-0.25;0.193155;-1.007083;-0.005901;126.9;0.0;0.0;8.5;0.0;0.0
3.0;1753875100.672427;15.465618;0.73;-1.17;-0.25;0.190071;-1.008168;-0.004747;134.0;0.0;0.0;4.2;0.0;0.0
3.0;1753875100.677153;15.46756;0.78;-1.3;-0.19;0.19008;-1.006453;-0.005259;123.9;0.0;0.0;5.0;0.0;0.0
3.0;1753875100.68318;15.46875;0.77;-1.33;-0.21;0.19032;-1.007476;-0.00488;132.0;0.0;0.0;6.0;0.0;0.0
3.0;1753875100.687906;15.47561;0.74;-1.17;-0.17;0.188685;-1.008126;-0.005394;129.7;0.0;0.0;7.4;0.0;0.0
3.0;1753875100.692632;15.475579;0.82;-1.34;-0.25;0.192261;-1.007057;-0.00547;138.2;0.0;0.0;6.5;0.0;0.0
3.0;1753875100.697358;15.473048;0.77;-1.3;-0.19;0.188993;-1.007256;-0.005795;135.6;0.0;0.0;3.3;0.0;0.0
3.0;1753875100.702084;15.487663;0.78;-1.22;-0.17;0.189026;-1.007912;-0.005102;139.2;0.0;0.0;6.4;0.0;0.0
3.0;1753875100.70681;15.492365;0.79;-1.38;-0.22;0.191315;-1.007893;-0.005347;139.9;0.0;0.0;4.0;0.0;0.0
3.0;1753875100.711536;15.478718;0.78;-1.33;-0.2;0.190362;-1.008;-0.005325;132.8;0.0;0.0;4.9;0.0;0.0
3.0;1753875100.716262;15.502584;0.78;-1.23;-0.13;0.191026;-1.007778;-0.00626;134.8;0.0;0.0;8.0;0.0;0.0
3.0;1753875100.72512;15.5;0.77;-1.26;-0.14;0.189466;-1.007598;-0.005734;132.0;0.0;0.0;6.0;0.0;0.0
3.0;1753875100.729846;15.490256;0.72;-1.18;-0.17;0.189359;-1.007821;-0.005555;132.1;0.0;0.0;6.4;0.0;0.0
3.0;1753875100.734572;15.50074;0.82;-1.19;-0.18;0.190342;-1.007448;-0.005455;132.1;0.0;0.0;7.6;0.0;0.0
3.0;1753875100.739298;15.509678;0.75;-1.28;-0.12;0.190423;-1.007079;-0.005893;129.5;0.0;0.0;6.5;0.0;0.0
3.0;1753875100.744024;15.519148;0.75;-1.3;-0.11;0.190298;-1.007;-0.005427;130.7;0.0;0.0;6.6;0.0;0.0
3.0;1753875100.74875;15.514572;0.76;-1.26;-0.14;0.18858;-1.007584;-0.005707;135.2;0.0;0.0;6.1;0.0;0.0
3.0;1753875100.753476;15.49432;0.76;-1.24;-0.23;0.188727;-1.007862;-0.005053;126.7;0.0;0.0;7.0;0.0;0.0
3.0;1753875100.758202;15.506676;0.79;-1.35;-0.2;0.188357;-1.006585;-0.005623;140.5;0.0;0.0;5.8;0.0;0.0
3.0;1753875100.762928;15.514945;0.69;-1.2;-0.19;0.188591;-1.007406;-0.005478;137.2;0.0;0.0;5.8;0.0;0.0
3.0;1753875100.7709;15.5;0.7;-1.33;-0.21;0.188978;-1.00711;-0.005612;132.0;0.0;0.0;6.0;0.0;0.0
3.0;1753875100.775626;15.517934;0.73;-1.33;-0.2;0.18923;-1.008024;-0.006214;132.0;0.0;0.0;5.6;0.0;0.0
3.0;1753875100.780352;15.504377;0.72;-1.29;-0.21;0.188947;-1.007466;-0.004969;132.1;0.0;0.0;5.3;0.0;0.0
3.0;1753875100.785078;15.504451;0.75;-1.35;-0.23;0.189622;-1.006394;-0.005345;133.5;0.0;0.0;3.1;0.0;0.0
3.0;1753875100.789804;15.498988;0.68;-1.31;-0.3;0.189566;-1.005983;-0.006611;135.1;0.0;0.0;4.4;0.0;0.0
3.0;1753875100.79453;15.504081;0.64;-1.19;-0.23;0.191326;-1.006619;-0.006402;124.4;0.0;0.0;6.3;0.0;0.0
3.0;1753875100.799256;15.489786;0.68;-1.33;-0.22;0.191545;-1.007127;-0.005925;131.8;0.0;0.0;5.7;0.0;0.0
3.0;1753875100.803982;15.49339;0.7;-1.31;-0.2;0.190704;-1.00697;-0.005345;136.2;0.0;0.0;3.2;0.0;0.0
3.0;1753875100.808708;15.493583;0.78;-1.18;-0.25;0.191718;-1.007211;-0.005672;140.4;0.0;0.0;4.8;0.0;0.0
3.0;1753875100.81757;15.5;0.77;-1.26;-0.21;0.191296;-1.006378;-0.005978;132.0;0.0;0.0;6.0;0.0;0.0
3.0;1753875100.822296;15.49366;0.78;-1.28;-0.15;0.191896;-1.006994;-0.006119;131.7;0.0;0.0;5.3;0.0;0.0
3.0;1753875100.827022;15.494164;0.72;-1.32;-0.22;0.189976;-1.006495;-0.006288;135.5;0.0;0.0;4.8;0.0;0.0
3.0;1753875100.831748;15.49849;0.87;-1.33;-0.17;0.192104;-1.006215;-0.006332;125.3;0.0;0.0;7.4;0.0;0.0
3.0;1753875100.836474;15.491036;0.68;-1.36;-0.19;0.189754;-1.005671;-0.005648;134.5;0.0;0.0;4.9;0.0;0.0
3.0;1753875100.8412;15.509006;0.76;-1.19;-0.21;0.191151;-1.005993;-0.005704;126.6;0.0;0.0;4.5;0.0;0.0
3.0;1753875100.845926;15.507605;0.76;-1.28;-0.21;0.191041;-1.005529;-0.005992;132.5;0.0;0.0;4.6;0.0;0.0
3.0;1753875100.850652;15.491391;0.73;-1.26;-0.19;0.190154;-1.005362;-0.005677;126.9;0.0;0.0;6.3;0.0;0.0
3.0;1753875100.855378;15.510485;0.62;-1.23;-0.19;0.18975;-1.005725;-0.00544;129.6;0.0;0.0;6.7;0.0;0.0
3.0;1753875100.86433;15.5;0.7;-1.26;-0.21;0.189832;-1.006256;-0.005612;132.0;0.0;0.0;6.0;0.0;0.0
3.0;1753875100.869056;15.493391;0.66;-1.21;-0.21;0.18846;-1.005825;-0.005841;129.8;0.0;0.0;6.0;0.0;0.0
3.0;1753875100.873782;15.503976;0.69;-1.29;-0.19;0.191057;-1.006796;-0.005669;124.6;0.0;0.0;6.4;0.0;0.0
3.0;1753875100.878508;15.473923;0.77;-1.32;-0.21;0.190783;-1.006865;-0.005188;135.0;0.0;0.0;6.2;0.0;0.0
3.0;1753875100.883234;15.508453;0.66;-1.31;-0.17;0.191427;-1.006657;-0.006786;131.8;0.0;0.0;6.5;0.0;0.0
3.0;1753875100.88796;15.505393;0.72;-1.3;-0.19;0.188676;-1.008105;-0.005659;133.8;0.0;0.0;4.3;0.0;0.0
3.0;1753875100.892686;15.483377;0.68;-1.33;-0.2;0.190778;-1.006578;-0.006697;133.3;0.0;0.0;7.1;0.0;0.0
3.0;1753875100.897412;15.498878;0.83;-1.24;-0.14;0.189499;-1.009471;-0.007538;120.8;0.0;0.0;4.0;0.0;0.0
3.0;1753875100.902138;15.499836;0.74;-1.28;-0.14;0.191934;-1.005575;-0.006123;130.3;0.0;0.0;6.8;0.0;0.0
3.0;1753875100.91103;15.492188;0.7;-1.33;-0.14;0.190808;-1.007842;-0.006588;132.0;0.0;0.0;6.0;0.0;0.0
3.0;1753875100.915756;15.46753;0.71;-1.42;-0.12;0.189842;-1.006601;-0.006622;131.9;0.0;0.0;7.0;0.0;0.0
3.0;1753875100.920482;15.495322;0.67;-1.37;-0.19;0.190438;-1.007283;-0.005666;147.0;0.0;0.0;8.1;0.0;0.0
3.0;1753875100.925208;15.506102;0.68;-1.35;-0.13;0.191637;-1.007517;-0.005713;131.5;0.0;0.0;6.6;0.0;0.0
3.0;1753875100.929934;15.472293;0.69;-1.28;-0.2;0.189546;-1.006227;-0.00649;126.7;0.0;0.0;6.4;0.0;0.0
3.0;1753875100.93466;15.495788;0.71;-1.43;-0.18;0.190596;-1.007116;-0.005151;134.2;0.0;0.0;5.6;0.0;0.0
3.0;1753875100.939386;15.491726;0.69;-1.27;-0.19;0.192208;-1.006276;-0.005828;129.7;0.0;0.0;5.9;0.0;0.0
3.0;1753875100.944112;15.495226;0.76;-1.25;-0.2;0.190141;-1.005252;-0.005602;132.3;0.0;0.0;8.2;0.0;0.0
3.0;1753875100.948838;15.473062;0.63;-1.08;-0.22;0.19114;-1.006141;-0.005355;140.5;0.0;0.0;6.3;0.0;0.0
3.0;1753875100.953564;15.524484;0.69;-1.24;-0.21;0.192591;-1.005781;-0.00569;125.8;0.0;0.0;5.4;0.0;0.0
3.0;1753875100.95795;15.492188;0.7;-1.26;-0.21;0.191784;-1.006134;-0.005246;132.0;0.0;0.0;6.0;0.0;0.0
3.0;1753875100.961341;15.476562;0.7;-1.26;-0.21;0.189466;-1.005646;-0.005978;141.0;0.0;0.0;6.0;0.0;0.0
3.0;1753875100.966126;15.476562;0.77;-1.33;-0.21;0.188246;-1.007354;-0.005002;141.0;0.0;0.0;6.0;0.0;0.0
3.0;1753875100.970752;15.476562;0.63;-1.33;-0.21;0.191296;-1.007354;-0.0061;141.0;0.0;0.0;6.0;0.0;0.0
3.0;1753875100.975477;15.476562;0.7;-1.33;-0.21;0.188978;-1.006622;-0.005978;141.0;0.0;0.0;6.0;0.0;0.0
3.0;1753875100.980126;15.476562;0.77;-1.33;-0.07;0.189832;-1.006378;-0.005856;141.0;0.0;0.0;6.0;0.0;0.0
3.0;1753875100.984852;15.449299;0.74;-1.32;-0.16;0.192418;-1.008233;-0.007018;136.6;0.0;0.0;7.6;0.0;0.0
3.0;1753875100.989578;15.467183;0.73;-1.23;-0.14;0.18894;-1.005556;-0.005827;138.4;0.0;0.0;8.6;0.0;0.0
3.0;1753875100.997058;15.492188;0.7;-1.33;-0.28;0.189222;-1.007842;-0.006344;138.0;0.0;0.0;8.0;0.0;0.0
3.0;1753875100.99933;15.492188;0.7;-1.33;-0.21;0.188978;-1.006378;-0.0061;138.0;0.0;0.0;8.0;0.0;0.0
3.0;1753875101.004056;15.492671;0.76;-1.32;-0.21;0.188826;-1.007068;-0.005944;137.1;0.0;0.0;6.6;0.0;0.0
3.0;1753875101.008782;15.480045;0.65;-1.39;-0.32;0.188742;-1.005994;-0.0057;134.8;0.0;0.0;9.3;0.0;0.0
3.0;1753875101.013508;15.48074;0.7;-1.32;-0.19;0.190058;-1.005996;-0.005405;141.7;0.0;0.0;8.2;0.0;0.0
3.0;1753875101.018234;15.490004;0.66;-1.33;-0.17;0.189296;-1.005802;-0.006011;140.6;0.0;0.0;7.3;0.0;0.0
3.0;1753875101.02296;15.510244;0.75;-1.35;-0.18;0.191638;-1.007468;-0.006822;139.8;0.0;0.0;6.9;0.0;0.0
3.0;1753875101.027686;15.496641;0.79;-1.35;-0.19;0.188335;-1.00668;-0.007531;136.9;0.0;0.0;7.4;0.0;0.0
3.0;1753875101.032412;15.474515;0.66;-1.3;-0.29;0.188114;-1.005539;-0.005879;135.5;0.0;0.0;7.8;0.0;0.0
3.0;1753875101.037138;15.479041;0.69;-1.39;-0.23;0.188994;-1.006166;-0.006278;141.3;0.0;0.0;9.5;0.0;0.0
3.0;1753875101.041864;15.492152;0.65;-1.38;-0.19;0.190257;-1.005649;-0.006478;140.1;0.0;0.0;9.1;0.0;0.0
3.0;1753875101.046589;15.506951;0.71;-1.34;-0.26;0.187327;-1.005782;-0.005672;137.4;0.0;0.0;7.9;0.0;0.0
3.0;1753875101.051315;15.51455;0.73;-1.3;-0.12;0.187793;-1.005542;-0.005858;139.1;0.0;0.0;8.6;0.0;0.0
3.0;1753875101.056041;15.466292;0.6;-1.35;-0.22;0.188295;-1.006401;-0.006279;137.6;0.0;0.0;7.0;0.0;0.0
3.0;1753875101.060767;15.521242;0.79;-1.36;-0.22;0.187732;-1.005763;-0.00683;142.9;0.0;0.0;8.3;0.0;0.0
3.0;1753875101.065493;15.505994;0.7;-1.3;-0.19;0.189291;-1.005858;-0.006296;139.1;0.0;0.0;8.8;0.0;0.0
3.0;1753875101.070219;15.486652;0.63;-1.34;-0.15;0.188488;-1.006682;-0.005483;139.4;0.0;0.0;8.6;0.0;0.0
3.0;1753875101.074945;15.485566;0.68;-1.34;-0.32;0.187958;-1.00668;-0.005944;140.6;0.0;0.0;7.3;0.0;0.0
3.0;1753875101.079671;15.494359;0.65;-1.32;-0.23;0.189934;-1.006454;-0.006762;136.5;0.0;0.0;8.6;0.0;0.0
3.0;1753875101.084397;15.502173;0.68;-1.41;-0.29;0.186843;-1.005825;-0.005039;142.7;0.0;0.0;7.6;0.0;0.0
3.0;1753875101.089123;15.472205;0.68;-1.2;-0.16;0.190007;-1.00527;-0.005385;138.8;0.0;0.0;8.2;0.0;0.0
3.0;1753875101.093849;15.467773;0.54;-1.38;-0.14;0.187796;-1.006716;-0.005839;135.6;0.0;0.0;8.1;0.0;0.0
3.0;1753875101.098575;15.48814;0.64;-1.26;-0.13;0.188733;-1.006758;-0.005812;139.8;0.0;0.0;7.8;0.0;0.0
3.0;1753875101.1033;15.484556;0.69;-1.32;-0.27;0.189104;-1.0059;-0.006551;137.0;0.0;0.0;7.5;0.0;0.0
3.0;1753875101.108026;15.483925;0.74;-1.37;-0.22;0.187093;-1.005063;-0.005823;139.6;0.0;0.0;7.3;0.0;0.0
3.0;1753875101.112752;15.48681;0.69;-1.42;-0.34;0.190303;-1.00627;-0.006094;137.5;0.0;0.0;8.1;0.0;0.0
3.0;1753875101.117478;15.491683;0.69;-1.31;-0.21;0.190085;-1.006269;-0.005235;134.4;0.0;0.0;8.7;0.0;0.0
3.0;1753875101.122204;15.484991;0.67;-1.37;-0.16;0.187301;-1.006264;-0.005284;138.1;0.0;0.0;7.7;0.0;0.0
3.0;1753875101.12693;15.492563;0.66;-1.36;-0.26;0.1884;-1.006789;-0.006217;137.1;0.0;0.0;7.5;0.0;0.0
3.0;1753875101.131656;15.498473;0.65;-1.41;-0.26;0.189429;-1.006779;-0.006179;136.7;0.0;0.0;8.0;0.0;0.0
3.0;1753875101.136382;15.489206;0.71;-1.4;-0.12;0.189971;-1.006108;-0.005835;135.4;0.0;0.0;9.2;0.0;0.0
3.0;1753875101.141108;15.491621;0.69;-1.36;-0.17;0.189374;-1.007014;-0.005902;137.5;0.0;0.0;7.6;0.0;0.0
3.0;1753875101.145834;15.47748;0.65;-1.37;-0.24;0.189489;-1.00634;-0.004528;141.9;0.0;0.0;7.2;0.0;0.0
3.0;1753875101.15056;15.501293;0.59;-1.31;-0.28;0.190821;-1.007853;-0.005526;135.2;0.0;0.0;8.5;0.0;0.0
3.0;1753875101.155286;15.487736;0.63;-1.36;-0.29;0.190205;-1.006628;-0.004753;135.8;0.0;0.0;8.3;0.0;0.0
3.0;1753875101.160012;15.493314;0.7;-1.43;-0.25;0.189145;-1.006991;-0.006466;141.3;0.0;0.0;9.6;0.0;0.0
3.0;1753875101.164738;15.506771;0.74;-1.37;-0.24;0.188042;-1.005899;-0.005339;136.9;0.0;0.0;8.9;0.0;0.0
3.0;1753875101.169464;15.503718;0.58;-1.37;-0.22;0.189584;-1.007356;-0.007032;141.8;0.0;0.0;8.7;0.0;0.0
3.0;1753875101.17419;15.492324;0.67;-1.39;-0.23;0.190428;-1.005648;-0.006154;141.7;0.0;0.0;8.2;0.0;0.0
3.0;1753875101.178916;15.509035;0.54;-1.32;-0.32;0.190045;-1.006017;-0.005791;135.9;0.0;0.0;6.7;0.0;0.0
3.0;1753875101.183642;15.499166;0.66;-1.43;-0.31;0.188841;-1.006402;-0.005477;137.0;0.0;0.0;6.9;0.0;0.0
3.0;1753875101.188367;15.483265;0.7;-1.43;-0.24;0.190714;-1.006772;-0.005675;139.6;0.0;0.0;9.4;0.0;0.0
3.0;1753875101.193093;15.508615;0.72;-1.39;-0.28;0.190282;-1.007306;-0.006185;132.5;0.0;0.0;7.4;0.0;0.0
3.0;1753875101.197819;15.482207;0.67;-1.26;-0.25;0.190006;-1.005803;-0.005638;139.8;0.0;0.0;7.2;0.0;0.0
3.0;1753875101.202545;15.502627;0.59;-1.44;-0.37;0.191029;-1.005403;-0.00496;142.9;0.0;0.0;8.5;0.0;0.0
3.0;1753875101.207271;15.486416;0.55;-1.51;-0.25;0.189113;-1.005807;-0.005116;137.0;0.0;0.0;7.4;0.0;0.0
3.0;1753875101.211997;15.486906;0.64;-1.47;-0.23;0.190908;-1.007412;-0.005248;138.5;0.0;0.0;7.5;0.0;0.0
3.0;1753875101.216723;15.471375;0.55;-1.37;-0.23;0.187716;-1.006844;-0.005494;142.2;0.0;0.0;8.3;0.0;0.0
3.0;1753875101.221449;15.516342;0.72;-1.38;-0.2;0.187868;-1.006432;-0.005635;136.7;0.0;0.0;8.2;0.0;0.0
3.0;1753875101.226175;15.504355;0.61;-1.33;-0.25;0.189621;-1.007426;-0.005829;134.1;0.0;0.0;8.6;0.0;0.0
3.0;1753875101.230901;15.487354;0.64;-1.39;-0.16;0.191687;-1.00676;-0.005387;138.6;0.0;0.0;7.5;0.0;0.0
3.0;1753875101.235627;15.497868;0.57;-1.34;-0.25;0.189221;-1.006511;-0.004288;140.4;0.0;0.0;6.8;0.0;0.0
3.0;1753875101.240353;15.509075;0.7;-1.36;-0.35;0.189283;-1.006253;-0.005033;137.8;0.0;0.0;6.7;0.0;0.0
3.0;1753875101.245078;15.488052;0.7;-1.34;-0.29;0.192343;-1.006402;-0.006656;136.1;0.0;0.0;8.2;0.0;0.0
3.0;1753875101.249804;15.500408;0.63;-1.35;-0.26;0.190454;-1.0073;-0.006013;137.1;0.0;0.0;8.0;0.0;0.0
3.0;1753875101.25453;15.511871;0.53;-1.36;-0.23;0.189932;-1.005981;-0.005076;131.8;0.0;0.0;8.1;0.0;0.0
3.0;1753875101.259256;15.496024;0.69;-1.34;-0.21;0.18837;-1.007336;-0.005089;137.2;0.0;0.0;8.7;0.0;0.0
3.0;1753875101.263982;15.479651;0.63;-1.4;-0.21;0.188135;-1.006423;-0.005222;138.0;0.0;0.0;8.1;0.0;0.0
3.0;1753875101.268708;15.510024;0.58;-1.41;-0.21;0.189569;-1.005617;-0.004949;139.5;0.0;0.0;9.0;0.0;0.0
3.0;1753875101.273434;15.49309;0.64;-1.38;-0.23;0.190322;-1.006953;-0.004255;136.1;0.0;0.0;8.4;0.0;0.0
3.0;1753875101.27816;15.509919;0.64;-1.36;-0.16;0.188621;-1.007181;-0.004252;139.1;0.0;0.0;7.6;0.0;0.0
3.0;1753875101.282886;15.501222;0.59;-1.33;-0.35;0.188364;-1.007362;-0.00608;141.1;0.0;0.0;7.3;0.0;0.0
3.0;1753875101.287612;15.497457;0.59;-1.3;-0.3;0.192538;-1.006901;-0.00509;139.2;0.0;0.0;5.4;0.0;0.0
3.0;1753875101.292338;15.497219;0.57;-1.28;-0.33;0.192285;-1.006025;-0.005126;136.8;0.0;0.0;7.5;0.0;0.0
3.0;1753875101.297064;15.50219;0.61;-1.37;-0.22;0.190201;-1.006115;-0.005721;136.8;0.0;0.0;8.0;0.0;0.0
3.0;1753875101.30179;15.505998;0.53;-1.27;-0.32;0.188682;-1.005324;-0.005352;135.3;0.0;0.0;7.1;0.0;0.0
3.0;1753875101.306516;15.479043;0.64;-1.4;-0.24;0.190167;-1.00611;-0.00593;140.4;0.0;0.0;8.7;0.0;0.0
3.0;1753875101.311242;15.476078;0.54;-1.38;-0.3;0.189349;-1.006758;-0.003649;133.0;0.0;0.0;7.8;0.0;0.0
