DeviceID;Timestamp;Temperature;GyroX;GyroY;GyroZ;AccelX;AccelY;AccelZ;Dist1;Dist2;Dist3;Err1;Err2;Err3
2.0;1753875095.732333;17.3125;0.91;-1.61;-0.35;-0.042456;-1.021506;0.005734;0.0;166.0;166.0;0.0;5.0;5.0
2.0;1753875095.737314;17.292969;0.91;-1.61;-0.21;-0.04331;-1.022116;0.006344;0.0;166.0;166.0;0.0;5.0;5.0
2.0;1753875095.739905;17.292969;0.91;-1.68;-0.28;-0.0427;-1.021506;0.005246;0.0;166.0;166.0;0.0;5.0;5.0
2.0;1753875095.745324;17.292969;0.91;-1.68;-0.35;-0.043798;-1.02175;0.006222;0.0;166.0;166.0;0.0;5.0;5.0
2.0;1753875095.749265;17.292969;0.84;-1.61;-0.42;-0.041236;-1.020774;0.005612;0.0;166.0;166.0;0.0;5.0;5.0
2.0;1753875095.753451;17.296875;0.77;-1.68;-0.35;-0.044164;-1.021506;0.005856;0.0;166.0;166.0;0.0;5.0;5.0
2.0;1753875095.758028;17.296875;0.91;-1.61;-0.35;-0.04148;-1.020774;0.00488;0.0;166.0;166.0;0.0;5.0;5.0
2.0;1753875095.766579;17.296875;0.91;-1.68;-0.28;-0.045262;-1.02297;0.005612;0.0;166.0;166.0;0.0;5.0;5.0
2.0;1753875095.771316;17.316964;0.91;-1.67;-0.26;-0.043008;-1.022013;0.006303;0.0;166.2;165.7;0.0;3.9;5.4
2.0;1753875095.776689;17.296875;0.84;-1.68;-0.28;-0.040138;-1.020286;0.005856;0.0;166.0;166.0;0.0;5.0;5.0
2.0;1753875095.782096;17.296875;0.84;-1.68;-0.35;-0.04453;-1.021018;0.005368;0.0;166.0;166.0;0.0;5.0;5.0
2.0;1753875095.787701;17.296875;0.98;-1.68;-0.28;-0.041358;-1.020164;0.00488;0.0;166.0;166.0;0.0;5.0;5.0
2.0;1753875095.79009;17.300781;0.91;-1.68;-0.35;-0.045018;-1.023336;0.005124;0.0;166.0;166.0;0.0;5.0;5.0
2.0;1753875095.79464;17.300781;0.98;-1.61;-0.35;-0.04209;-1.021872;0.00549;0.0;166.0;166.0;0.0;5.0;5.0
2.0;1753875095.799178;17.300781;0.98;-1.61;-0.35;-0.046482;-1.02114;0.0061;0.0;166.0;166.0;0.0;5.0;5.0
2.0;1753875095.803774;17.300781;0.98;-1.68;-0.35;-0.041358;-1.022238;0.005368;0.0;166.0;166.0;0.0;5.0;5.0
2.0;1753875095.80863;17.3125;0.91;-1.61;-0.35;-0.041358;-1.022238;0.005368;0.0;166.0;166.0;0.0;5.0;5.0
2.0;1753875095.814818;17.3125;0.77;-1.61;-0.28;-0.044042;-1.022116;0.005978;0.0;166.0;166.0;0.0;5.0;5.0
2.0;1753875095.819555;17.314423;0.9;-1.59;-0.26;-0.042437;-1.021848;0.005555;0.0;165.9;164.0;0.0;4.9;5.3
2.0;1753875095.824675;17.3125;0.98;-1.61;-0.28;-0.042456;-1.021628;0.00488;0.0;164.0;164.0;0.0;5.0;5.0
2.0;1753875095.83029;17.3125;0.91;-1.68;-0.28;-0.043676;-1.02175;0.004514;0.0;164.0;164.0;0.0;5.0;5.0
2.0;1753875095.836023;17.3125;0.84;-1.54;-0.28;-0.043798;-1.022482;0.00549;0.0;164.0;164.0;0.0;5.0;5.0
2.0;1753875095.84034;17.3125;0.91;-1.68;-0.35;-0.04453;-1.022116;0.005124;0.0;164.0;164.0;0.0;5.0;5.0
2.0;1753875095.844935;17.304688;0.84;-1.61;-0.35;-0.042212;-1.02175;0.005734;0.0;164.0;164.0;0.0;5.0;5.0
2.0;1753875095.850229;17.304688;0.98;-1.75;-0.35;-0.045506;-1.022116;0.005246;0.0;164.0;164.0;0.0;5.0;5.0
2.0;1753875095.854245;17.304688;0.91;-1.75;-0.35;-0.041236;-1.020408;0.004636;0.0;164.0;164.0;0.0;5.0;5.0
2.0;1753875095.858982;17.302341;0.86;-1.73;-0.33;-0.044096;-1.021914;0.005275;0.0;163.9;161.9;0.0;5.0;5.0
2.0;1753875095.864692;17.292969;0.98;-1.68;-0.28;-0.04209;-1.021262;0.00549;0.0;164.0;164.0;0.0;5.0;5.0
2.0;1753875095.869429;17.285145;0.87;-1.6;-0.34;-0.039122;-1.020847;0.005679;0.0;165.5;166.1;0.0;4.4;4.6
2.0;1753875095.876501;17.292969;0.84;-1.68;-0.35;-0.042212;-1.021506;0.00549;0.0;168.0;168.0;0.0;4.0;4.0
2.0;1753875095.88206;17.308594;0.91;-1.68;-0.42;-0.043554;-1.021994;0.005978;0.0;168.0;168.0;0.0;4.0;4.0
2.0;1753875095.887602;17.308594;0.84;-1.68;-0.35;-0.042822;-1.022238;0.006222;0.0;168.0;168.0;0.0;4.0;4.0
2.0;1753875095.891743;17.308594;0.84;-1.68;-0.35;-0.044408;-1.022238;0.005002;0.0;168.0;168.0;0.0;4.0;4.0
2.0;1753875095.895232;17.308594;0.91;-1.68;-0.21;-0.041724;-1.021018;0.00549;0.0;168.0;168.0;0.0;4.0;4.0
2.0;1753875095.900566;17.328125;0.91;-1.68;-0.35;-0.044896;-1.022238;0.00488;0.0;168.0;168.0;0.0;4.0;4.0
2.0;1753875095.904433;17.328125;0.91;-1.61;-0.35;-0.044896;-1.022238;0.00488;0.0;168.0;168.0;0.0;4.0;4.0
2.0;1753875095.912942;17.328125;0.98;-1.61;-0.28;-0.045018;-1.021872;0.005734;0.0;168.0;168.0;0.0;4.0;4.0
2.0;1753875095.917679;17.329856;0.97;-1.78;-0.32;-0.045286;-1.021876;0.00544;0.0;162.3;169.3;0.0;3.9;3.8
2.0;1753875095.922625;17.3125;0.91;-1.68;-0.35;-0.045262;-1.02175;0.006466;0.0;163.0;163.0;0.0;4.0;4.0
2.0;1753875095.92814;17.3125;0.91;-1.68;-0.42;-0.04575;-1.02236;0.00671;0.0;163.0;163.0;0.0;4.0;4.0
2.0;1753875095.933883;17.3125;0.98;-1.61;-0.35;-0.041968;-1.02053;0.006222;0.0;163.0;163.0;0.0;4.0;4.0
2.0;1753875095.936394;17.328125;0.98;-1.61;-0.35;-0.044774;-1.021506;0.00488;0.0;163.0;163.0;0.0;4.0;4.0
2.0;1753875095.94089;17.328125;0.91;-1.68;-0.28;-0.044774;-1.021506;0.00488;0.0;163.0;163.0;0.0;4.0;4.0
2.0;1753875095.94556;17.328125;0.91;-1.68;-0.35;-0.044408;-1.022238;0.005856;0.0;163.0;163.0;0.0;4.0;4.0
2.0;1753875095.950145;17.328125;0.91;-1.68;-0.35;-0.04087;-1.021018;0.00549;0.0;163.0;163.0;0.0;4.0;4.0
2.0;1753875095.955384;17.304688;0.91;-1.68;-0.28;-0.044164;-1.020408;0.00549;0.0;163.0;163.0;0.0;4.0;4.0
2.0;1753875095.962763;17.304688;0.84;-1.68;-0.28;-0.042578;-1.020896;0.005246;0.0;163.0;163.0;0.0;4.0;4.0
2.0;1753875095.9675;17.319062;0.85;-1.76;-0.29;-0.046399;-1.020839;0.005546;0.0;163.9;166.1;0.0;5.1;4.6
2.0;1753875095.972962;17.296875;0.84;-1.68;-0.28;-0.042822;-1.021506;0.002928;0.0;170.0;170.0;0.0;5.0;5.0
2.0;1753875095.977699;17.283091;0.8;-1.69;-0.3;-0.044771;-1.021812;0.003986;0.0;172.1;171.0;0.0;5.5;5.3
2.0;1753875095.98434;17.296875;0.91;-1.61;-0.35;-0.043188;-1.021384;0.00427;0.0;170.0;170.0;0.0;5.0;5.0
2.0;1753875095.986718;17.296875;0.91;-1.68;-0.35;-0.045384;-1.021994;0.005124;0.0;170.0;170.0;0.0;5.0;5.0
2.0;1753875095.991204;17.3125;0.98;-1.68;-0.28;-0.045384;-1.021994;0.005124;0.0;170.0;170.0;0.0;5.0;5.0
2.0;1753875095.995826;17.3125;0.91;-1.68;-0.28;-0.042944;-1.021628;0.005368;0.0;170.0;170.0;0.0;5.0;5.0
2.0;1753875096.000563;17.293997;0.93;-1.69;-0.22;-0.042433;-1.021781;0.006269;0.0;162.5;162.7;0.0;4.9;5.2
2.0;1753875096.0053;17.32175;0.93;-1.64;-0.26;-0.041473;-1.019707;0.005965;0.0;177.3;167.2;0.0;5.3;4.3
2.0;1753875096.010038;17.294463;0.83;-1.71;-0.3;-0.041624;-1.021043;0.00509;0.0;167.6;171.6;0.0;5.2;4.6
2.0;1753875096.014774;17.304122;0.9;-1.7;-0.24;-0.040464;-1.021669;0.006545;0.0;170.9;176.6;0.0;5.0;4.4
2.0;1753875096.019512;17.314233;0.89;-1.67;-0.18;-0.041573;-1.022136;0.004784;0.0;171.9;173.0;0.0;4.9;4.2
2.0;1753875096.024249;17.31429;0.94;-1.67;-0.24;-0.041244;-1.022023;0.005194;0.0;169.7;173.4;0.0;5.0;5.0
2.0;1753875096.028986;17.319715;0.92;-1.65;-0.25;-0.043452;-1.022747;0.004813;0.0;165.6;170.1;0.0;4.6;5.2
2.0;1753875096.033723;17.309255;0.86;-1.7;-0.34;-0.04354;-1.021858;0.006787;0.0;168.6;171.0;0.0;4.7;5.6
2.0;1753875096.03846;17.320613;0.9;-1.68;-0.34;-0.042955;-1.021816;0.004482;0.0;168.8;173.2;0.0;5.5;5.1
2.0;1753875096.043198;17.308839;0.89;-1.67;-0.26;-0.043215;-1.021273;0.005297;0.0;168.8;173.5;0.0;4.9;4.5
2.0;1753875096.047934;17.304445;0.88;-1.72;-0.28;-0.041089;-1.021544;0.004626;0.0;167.8;173.7;0.0;4.1;4.2
2.0;1753875096.052672;17.323557;0.97;-1.66;-0.26;-0.042506;-1.022647;0.005278;0.0;171.4;177.7;0.0;5.1;4.4
2.0;1753875096.057409;17.342907;0.94;-1.68;-0.3;-0.043105;-1.022418;0.006747;0.0;171.8;166.4;0.0;5.6;5.4
2.0;1753875096.062146;17.294359;0.87;-1.72;-0.31;-0.043733;-1.022297;0.005335;0.0;170.1;170.0;0.0;4.5;4.9
2.0;1753875096.066883;17.329961;0.89;-1.68;-0.2;-0.042559;-1.022367;0.004326;0.0;172.2;175.6;0.0;4.8;5.8
2.0;1753875096.07162;17.30895;0.95;-1.71;-0.23;-0.041173;-1.022073;0.006309;0.0;169.6;174.9;0.0;4.6;5.2
2.0;1753875096.076357;17.319367;0.95;-1.62;-0.27;-0.041723;-1.021328;0.00636;0.0;160.6;169.2;0.0;4.4;5.1
2.0;1753875096.081094;17.320446;0.87;-1.72;-0.33;-0.042339;-1.021964;0.006008;0.0;165.6;169.3;0.0;4.9;5.0
2.0;1753875096.085832;17.305556;0.88;-1.68;-0.29;-0.041492;-1.02165;0.004107;0.0;171.6;169.1;0.0;4.7;3.8
2.0;1753875096.090569;17.325806;0.93;-1.69;-0.3;-0.04315;-1.021716;0.00639;0.0;172.7;169.9;0.0;5.1;5.5
2.0;1753875096.095306;17.295703;0.91;-1.75;-0.31;-0.04485;-1.021298;0.005148;0.0;171.1;168.3;0.0;4.8;5.0
2.0;1753875096.100043;17.328209;0.94;-1.68;-0.29;-0.044074;-1.022117;0.005705;0.0;170.2;171.3;0.0;4.6;5.0
2.0;1753875096.10478;17.324521;0.85;-1.7;-0.36;-0.04225;-1.021139;0.004991;0.0;173.1;165.0;0.0;5.0;5.3
2.0;1753875096.109517;17.303636;0.96;-1.67;-0.28;-0.042446;-1.021289;0.004012;0.0;167.3;173.0;0.0;5.0;5.5
2.0;1753875096.114254;17.331187;0.88;-1.69;-0.25;-0.039905;-1.022493;0.007224;0.0;168.8;167.1;0.0;5.1;5.0
2.0;1753875096.118992;17.305006;0.89;-1.68;-0.25;-0.044473;-1.022305;0.004542;0.0;166.2;169.9;0.0;5.3;5.8
2.0;1753875096.123729;17.286726;0.92;-1.68;-0.18;-0.04514;-1.021354;0.00477;0.0;167.7;163.5;0.0;4.1;4.2
2.0;1753875096.128466;17.289314;0.89;-1.69;-0.36;-0.042995;-1.0228;0.00509;0.0;167.5;169.4;0.0;3.8;5.1
2.0;1753875096.133203;17.308155;0.94;-1.71;-0.2;-0.043406;-1.021543;0.006165;0.0;167.3;174.3;0.0;4.4;4.3
2.0;1753875096.13794;17.308232;0.85;-1.69;-0.23;-0.042521;-1.021835;0.004435;0.0;173.4;166.7;0.0;4.9;5.2
2.0;1753875096.142677;17.32349;0.92;-1.69;-0.38;-0.043277;-1.021086;0.005723;0.0;171.0;172.6;0.0;4.5;3.9
2.0;1753875096.147414;17.304388;0.87;-1.68;-0.23;-0.042431;-1.021177;0.005519;0.0;166.5;171.7;0.0;5.3;6.2
2.0;1753875096.152152;17.297323;0.87;-1.69;-0.33;-0.041263;-1.023044;0.004658;0.0;164.5;165.6;0.0;5.2;4.8
2.0;1753875096.156889;17.305747;0.95;-1.65;-0.26;-0.045126;-1.022066;0.00536;0.0;170.2;164.0;0.0;4.6;6.3
2.0;1753875096.161626;17.300343;0.94;-1.71;-0.28;-0.043059;-1.022617;0.003947;0.0;168.7;170.0;0.0;6.1;5.3
2.0;1753875096.166363;17.317472;1.02;-1.67;-0.3;-0.044503;-1.021817;0.004879;0.0;177.6;167.5;0.0;5.1;4.9
2.0;1753875096.1711;17.315488;0.94;-1.71;-0.34;-0.042228;-1.021847;0.006288;0.0;172.7;166.2;0.0;4.4;5.1
2.0;1753875096.175837;17.331381;0.9;-1.67;-0.32;-0.042994;-1.022964;0.004701;0.0;168.4;172.3;0.0;4.9;5.1
2.0;1753875096.180574;17.311011;0.99;-1.65;-0.35;-0.042729;-1.021753;0.005199;0.0;168.2;169.3;0.0;5.1;5.5
2.0;1753875096.185312;17.317767;0.92;-1.66;-0.25;-0.044265;-1.022629;0.004312;0.0;173.5;171.7;0.0;5.4;5.6
2.0;1753875096.190049;17.297967;0.97;-1.7;-0.22;-0.043906;-1.021548;0.005894;0.0;170.0;172.5;0.0;4.6;5.8
2.0;1753875096.194786;17.297904;0.97;-1.69;-0.28;-0.043807;-1.022595;0.006236;0.0;170.1;171.7;0.0;5.6;5.3
2.0;1753875096.199523;17.290433;0.97;-1.67;-0.24;-0.04312;-1.022131;0.004253;0.0;172.2;170.1;0.0;4.9;4.9
2.0;1753875096.20426;17.319081;0.91;-1.69;-0.23;-0.04236;-1.022168;0.006165;0.0;169.0;171.6;0.0;3.9;5.0
2.0;1753875096.208997;17.316531;0.91;-1.63;-0.24;-0.042406;-1.021456;0.005101;0.0;173.5;168.5;0.0;5.3;4.7
2.0;1753875096.213734;17.314761;0.94;-1.63;-0.31;-0.043127;-1.022566;0.005247;0.0;170.4;168.8;0.0;4.2;4.5
2.0;1753875096.218472;17.275047;0.96;-1.67;-0.25;-0.046515;-1.023554;0.006607;0.0;166.8;174.0;0.0;4.9;5.3
2.0;1753875096.223209;17.320597;0.91;-1.71;-0.33;-0.041894;-1.021593;0.005015;0.0;169.4;169.1;0.0;4.6;5.1
2.0;1753875096.227946;17.308607;0.97;-1.69;-0.26;-0.04244;-1.022568;0.004508;0.0;164.9;169.8;0.0;4.7;4.0
2.0;1753875096.232683;17.300993;0.98;-1.68;-0.19;-0.042829;-1.022542;0.004951;0.0;164.8;172.3;0.0;5.3;4.3
2.0;1753875096.23742;17.297174;0.95;-1.65;-0.25;-0.043805;-1.023512;0.004008;0.0;167.5;171.1;0.0;4.8;5.0
2.0;1753875096.242157;17.305222;0.86;-1.64;-0.28;-0.042268;-1.021732;0.004824;0.0;173.5;164.9;0.0;5.3;5.1
2.0;1753875096.246894;17.291543;0.93;-1.68;-0.26;-0.043989;-1.022363;0.004866;0.0;165.0;174.2;0.0;5.1;4.7
2.0;1753875096.251632;17.318574;0.89;-1.69;-0.25;-0.039215;-1.021774;0.005849;0.0;169.0;165.9;0.0;4.9;5.9
2.0;1753875096.256369;17.322064;0.96;-1.62;-0.36;-0.043323;-1.022118;0.003617;0.0;168.4;171.7;0.0;4.7;4.6
2.0;1753875096.261106;17.291814;0.94;-1.71;-0.3;-0.041706;-1.022921;0.006439;0.0;170.1;171.6;0.0;5.5;4.2
2.0;1753875096.265843;17.301818;0.91;-1.68;-0.34;-0.041919;-1.021869;0.00405;0.0;170.2;170.2;0.0;5.3;4.9
2.0;1753875096.27058;17.311022;1.03;-1.66;-0.27;-0.040938;-1.022881;0.005674;0.0;176.0;172.8;0.0;4.8;4.8
2.0;1753875096.275317;17.289499;0.84;-1.72;-0.36;-0.04211;-1.02228;0.00467;0.0;171.6;171.5;0.0;5.3;4.5
2.0;1753875096.280054;17.325778;0.91;-1.71;-0.22;-0.042202;-1.023135;0.006382;0.0;168.7;169.6;0.0;5.0;5.5
2.0;1753875096.284792;17.321529;0.94;-1.65;-0.23;-0.039818;-1.022383;0.004933;0.0;172.0;170.2;0.0;5.5;4.9
2.0;1753875096.289528;17.30321;0.9;-1.68;-0.2;-0.041107;-1.022932;0.005406;0.0;174.0;168.1;0.0;5.4;5.1
2.0;1753875096.294266;17.306997;0.94;-1.69;-0.31;-0.043279;-1.023293;0.004707;0.0;167.8;167.4;0.0;5.6;5.4
2.0;1753875096.299003;17.311967;0.9;-1.66;-0.34;-0.042078;-1.022866;0.006749;0.0;168.4;169.6;0.0;4.6;5.0
2.0;1753875096.30374;17.320818;0.9;-1.71;-0.27;-0.043585;-1.022191;0.007226;0.0;169.4;169.6;0.0;4.8;4.3
2.0;1753875096.308477;17.303155;0.9;-1.65;-0.36;-0.041402;-1.021584;0.005098;0.0;171.1;170.1;0.0;4.6;4.4
2.0;1753875096.313214;17.326123;0.81;-1.68;-0.29;-0.044109;-1.023167;0.005063;0.0;166.9;165.6;0.0;4.9;5.5
2.0;1753875096.317952;17.326776;0.91;-1.68;-0.27;-0.042366;-1.022492;0.006102;0.0;167.5;168.5;0.0;4.4;5.2
2.0;1753875096.322688;17.33395;0.89;-1.7;-0.27;-0.04485;-1.021499;0.005913;0.0;169.3;164.9;0.0;4.8;5.5
2.0;1753875096.327426;17.323286;0.95;-1.7;-0.33;-0.040855;-1.02268;0.006187;0.0;173.6;169.5;0.0;4.0;4.5
2.0;1753875096.332163;17.321408;0.9;-1.67;-0.32;-0.042521;-1.022642;0.006284;0.0;169.1;170.7;0.0;4.7;5.1
2.0;1753875096.3369;17.315353;0.88;-1.66;-0.17;-0.04549;-1.022093;0.004641;0.0;169.7;172.4;0.0;5.3;5.4
2.0;1753875096.341637;17.313266;0.93;-1.7;-0.35;-0.040935;-1.0218;0.006123;0.0;172.9;170.4;0.0;4.9;6.4
2.0;1753875096.346374;17.324885;0.93;-1.62;-0.31;-0.041845;-1.021897;0.007269;0.0;173.0;170.6;0.0;5.5;5.2
2.0;1753875096.351112;17.320876;0.97;-1.64;-0.21;-0.045268;-1.023691;0.005454;0.0;171.2;169.8;0.0;5.9;4.6
2.0;1753875096.355848;17.315062;0.94;-1.67;-0.25;-0.042695;-1.022977;0.006498;0.0;166.2;173.5;0.0;4.9;5.5
2.0;1753875096.360586;17.283279;0.93;-1.6;-0.24;-0.043573;-1.022763;0.004859;0.0;168.3;174.1;0.0;4.5;5.2
2.0;1753875096.365323;17.319838;0.92;-1.65;-0.31;-0.041561;-1.021656;0.005984;0.0;169.4;172.2;0.0;6.0;5.3
2.0;1753875096.37006;17.329377;0.9;-1.65;-0.28;-0.040795;-1.022475;0.005384;0.0;168.0;172.7;0.0;5.0;5.0
2.0;1753875096.374797;17.315072;0.89;-1.65;-0.26;-0.042611;-1.023122;0.007905;0.0;177.3;169.9;0.0;5.3;5.2
2.0;1753875096.379534;17.331253;0.94;-1.69;-0.34;-0.041813;-1.023195;0.004479;0.0;167.1;170.4;0.0;5.3;5.0
2.0;1753875096.384272;17.30813;0.84;-1.69;-0.26;-0.040318;-1.022656;0.005553;0.0;174.1;173.5;0.0;4.6;5.4
2.0;1753875096.389008;17.306415;0.89;-1.66;-0.29;-0.040516;-1.023077;0.005395;0.0;163.4;164.8;0.0;5.2;5.1
2.0;1753875096.393746;17.312491;0.93;-1.68;-0.24;-0.042359;-1.022988;0.006548;0.0;168.2;168.9;0.0;4.9;5.1
2.0;1753875096.401;17.3125;0.91;-1.68;-0.28;-0.042334;-1.022726;0.005734;0.0;170.0;170.0;0.0;5.0;5.0
2.0;1753875096.405737;17.30909;0.92;-1.72;-0.29;-0.042478;-1.022249;0.006745;0.0;176.9;172.0;0.0;5.4;5.4
2.0;1753875096.410474;17.307491;0.91;-1.61;-0.23;-0.042529;-1.022775;0.005597;0.0;173.5;167.9;0.0;5.0;4.3
2.0;1753875096.415212;17.331567;0.84;-1.66;-0.3;-0.043251;-1.022061;0.004745;0.0;164.8;171.9;0.0;5.4;5.2
2.0;1753875096.419948;17.325826;0.99;-1.69;-0.26;-0.044271;-1.021815;0.00611;0.0;170.4;169.7;0.0;5.6;5.0
2.0;1753875096.424686;17.313586;0.96;-1.68;-0.27;-0.042078;-1.021888;0.006186;0.0;168.0;169.8;0.0;5.0;5.8
2.0;1753875096.429423;17.312563;0.95;-1.72;-0.28;-0.04504;-1.021999;0.006226;0.0;172.7;168.6;0.0;5.3;5.5
2.0;1753875096.43416;17.305702;0.88;-1.68;-0.2;-0.044193;-1.023022;0.004563;0.0;163.5;171.5;0.0;4.8;4.9
2.0;1753875096.438897;17.312296;0.94;-1.65;-0.34;-0.043583;-1.021801;0.006065;0.0;170.4;167.8;0.0;4.9;4.7
2.0;1753875096.443634;17.294267;0.95;-1.61;-0.32;-0.042262;-1.022523;0.005259;0.0;166.0;169.6;0.0;5.6;4.9
2.0;1753875096.448372;17.322653;0.89;-1.71;-0.31;-0.041932;-1.022492;0.005281;0.0;172.5;168.3;0.0;5.0;4.8
2.0;1753875096.453108;17.313457;0.92;-1.67;-0.2;-0.041808;-1.021926;0.004417;0.0;167.4;166.0;0.0;5.5;4.6
2.0;1753875096.457846;17.324106;0.89;-1.66;-0.33;-0.042835;-1.021029;0.003919;0.0;169.6;166.9;0.0;4.9;4.9
2.0;1753875096.462583;17.315098;0.93;-1.68;-0.32;-0.03978;-1.021098;0.003946;0.0;167.5;165.1;0.0;5.0;4.7
2.0;1753875096.46732;17.315877;0.91;-1.7;-0.2;-0.041629;-1.021851;0.004979;0.0;173.2;166.5;0.0;5.6;4.4
2.0;1753875096.472057;17.317445;0.82;-1.7;-0.24;-0.04077;-1.022002;0.005337;0.0;170.6;166.5;0.0;5.3;4.3
2.0;1753875096.476794;17.315486;0.9;-1.72;-0.23;-0.040931;-1.021163;0.004638;0.0;169.7;174.7;0.0;4.7;4.4
2.0;1753875096.481532;17.318277;0.91;-1.74;-0.23;-0.045163;-1.021772;0.005855;0.0;170.7;168.1;0.0;4.8;5.2
2.0;1753875096.486268;17.304781;0.94;-1.64;-0.22;-0.041684;-1.0207;0.003922;0.0;166.2;169.9;0.0;4.6;5.5
2.0;1753875096.491006;17.352894;0.89;-1.69;-0.23;-0.041878;-1.021184;0.003921;0.0;168.9;174.6;0.0;4.8;4.8
2.0;1753875096.4972;17.3125;0.91;-1.68;-0.28;-0.0427;-1.020896;0.004514;0.0;170.0;170.0;0.0;5.0;5.0
2.0;1753875096.501937;17.310713;0.89;-1.68;-0.32;-0.043986;-1.022312;0.004711;0.0;168.4;168.5;0.0;5.1;5.6
2.0;1753875096.50717;17.296875;0.84;-1.75;-0.35;-0.044408;-1.022238;0.005002;0.0;166.0;166.0;0.0;6.0;6.0
2.0;1753875096.511907;17.312464;0.79;-1.77;-0.27;-0.041317;-1.021971;0.005883;0.0;165.4;168.0;0.0;6.4;5.6
2.0;1753875096.516644;17.29006;0.86;-1.71;-0.35;-0.042005;-1.021375;0.004906;0.0;171.0;166.2;0.0;5.3;5.9
2.0;1753875096.521382;17.300016;0.84;-1.7;-0.37;-0.047157;-1.021894;0.005257;0.0;166.4;168.1;0.0;6.3;5.3
2.0;1753875096.526118;17.297924;0.87;-1.67;-0.43;-0.044426;-1.021647;0.003579;0.0;168.3;165.4;0.0;6.0;4.3
2.0;1753875096.530856;17.312297;0.9;-1.68;-0.33;-0.044336;-1.021542;0.006093;0.0;168.8;167.6;0.0;5.3;6.7
2.0;1753875096.535593;17.291721;0.9;-1.71;-0.33;-0.041523;-1.020596;0.004982;0.0;169.6;167.5;0.0;5.7;5.5
2.0;1753875096.54033;17.289602;0.88;-1.75;-0.38;-0.042638;-1.021387;0.004115;0.0;165.7;164.2;0.0;7.3;5.9
2.0;1753875096.545067;17.28486;0.88;-1.69;-0.3;-0.040096;-1.021666;0.004901;0.0;165.6;168.0;0.0;5.3;5.6
2.0;1753875096.55294;17.296875;0.91;-1.68;-0.35;-0.041724;-1.02114;0.005124;0.0;166.0;166.0;0.0;6.0;6.0
2.0;1753875096.557677;17.296718;0.91;-1.63;-0.39;-0.041501;-1.020271;0.004935;0.0;159.5;165.5;0.0;6.7;5.5
2.0;1753875096.562414;17.288933;0.85;-1.67;-0.38;-0.044229;-1.020605;0.006382;0.0;161.7;167.8;0.0;5.6;7.2
2.0;1753875096.567151;17.285138;0.97;-1.68;-0.36;-0.042697;-1.022082;0.005313;0.0;167.7;165.2;0.0;5.2;5.5
2.0;1753875096.571888;17.297214;0.87;-1.59;-0.36;-0.042528;-1.021658;0.00465;0.0;157.7;170.1;0.0;5.6;6.0
2.0;1753875096.576626;17.315529;0.86;-1.7;-0.37;-0.043239;-1.0205;0.005355;0.0;164.0;173.3;0.0;6.2;5.3
2.0;1753875096.581363;17.281844;0.95;-1.61;-0.33;-0.041915;-1.021211;0.005031;0.0;163.4;161.2;0.0;5.6;6.3
2.0;1753875096.5861;17.308279;0.85;-1.71;-0.36;-0.041898;-1.021603;0.006415;0.0;163.7;162.7;0.0;6.1;5.6
2.0;1753875096.590837;17.303364;0.88;-1.61;-0.32;-0.042367;-1.021776;0.00502;0.0;163.9;163.2;0.0;6.0;6.4
2.0;1753875096.595574;17.311901;0.95;-1.73;-0.31;-0.041784;-1.020965;0.003793;0.0;163.5;162.0;0.0;4.2;5.4
2.0;1753875096.600311;17.314716;0.9;-1.63;-0.36;-0.04296;-1.021104;0.005354;0.0;161.9;162.2;0.0;5.2;5.5
2.0;1753875096.605048;17.299277;0.96;-1.68;-0.36;-0.042177;-1.021428;0.004999;0.0;164.1;164.9;0.0;4.6;6.4
2.0;1753875096.609786;17.305524;0.86;-1.7;-0.34;-0.042299;-1.021859;0.005848;0.0;164.4;164.9;0.0;5.3;4.5
2.0;1753875096.614523;17.313388;0.88;-1.69;-0.4;-0.042925;-1.021218;0.006856;0.0;164.4;160.3;0.0;5.1;5.9
2.0;1753875096.61926;17.303978;0.9;-1.7;-0.33;-0.041693;-1.020787;0.004827;0.0;162.2;159.0;0.0;3.7;5.7
2.0;1753875096.623997;17.308927;0.92;-1.65;-0.29;-0.042109;-1.020902;0.00328;0.0;161.5;168.7;0.0;5.5;6.1
2.0;1753875096.628734;17.311553;0.87;-1.64;-0.26;-0.043084;-1.020289;0.004759;0.0;161.2;161.0;0.0;5.7;5.7
2.0;1753875096.633471;17.307767;0.87;-1.61;-0.38;-0.04151;-1.022106;0.005227;0.0;166.3;163.2;0.0;6.2;5.1
2.0;1753875096.638208;17.29698;0.93;-1.68;-0.27;-0.043972;-1.021466;0.004194;0.0;165.2;161.4;0.0;4.6;5.1
2.0;1753875096.642946;17.320452;0.93;-1.66;-0.24;-0.041301;-1.021864;0.003861;0.0;161.3;160.8;0.0;5.3;5.5
2.0;1753875096.647683;17.301598;0.86;-1.67;-0.24;-0.043607;-1.021988;0.00475;0.0;160.6;166.6;0.0;4.9;6.6
2.0;1753875096.65242;17.321997;0.91;-1.62;-0.29;-0.043004;-1.022249;0.005823;0.0;164.7;156.0;0.0;6.2;6.3
2.0;1753875096.657157;17.337047;0.91;-1.75;-0.36;-0.042879;-1.020399;0.005436;0.0;162.8;158.1;0.0;4.9;5.6
2.0;1753875096.661894;17.318401;0.94;-1.66;-0.31;-0.04142;-1.020812;0.007172;0.0;160.8;166.1;0.0;4.7;5.3
2.0;1753875096.666631;17.316085;0.88;-1.67;-0.38;-0.044044;-1.020816;0.005645;0.0;160.3;165.5;0.0;5.0;5.0
2.0;1753875096.671368;17.335174;0.91;-1.71;-0.28;-0.044045;-1.020101;0.006369;0.0;164.1;162.6;0.0;5.1;4.9
2.0;1753875096.676106;17.322875;0.88;-1.66;-0.22;-0.043455;-1.022516;0.005574;0.0;158.6;164.6;0.0;5.1;5.5
2.0;1753875096.68346;17.324219;0.91;-1.68;-0.28;-0.042944;-1.02175;0.005246;0.0;161.0;161.0;0.0;5.0;5.0
2.0;1753875096.688197;17.323628;0.86;-1.66;-0.24;-0.043204;-1.021171;0.005671;0.0;157.8;160.9;0.0;4.6;4.1
2.0;1753875096.692934;17.33792;0.98;-1.7;-0.2;-0.042426;-1.021963;0.005306;0.0;164.4;166.7;0.0;4.9;5.5
2.0;1753875096.697672;17.3131;0.95;-1.61;-0.31;-0.04415;-1.021613;0.005677;0.0;158.6;158.4;0.0;5.4;5.1
2.0;1753875096.702408;17.336157;0.84;-1.65;-0.25;-0.042881;-1.022081;0.004451;0.0;159.3;160.8;0.0;5.0;5.0
2.0;1753875096.707146;17.327079;0.98;-1.66;-0.3;-0.041048;-1.021533;0.00552;0.0;160.2;163.5;0.0;4.8;5.4
2.0;1753875096.711883;17.328009;0.91;-1.69;-0.3;-0.043291;-1.021999;0.004886;0.0;163.9;158.6;0.0;5.2;4.5
2.0;1753875096.71662;17.34381;0.91;-1.64;-0.29;-0.044069;-1.022465;0.004895;0.0;162.4;162.9;0.0;5.1;6.3
2.0;1753875096.721357;17.31805;0.88;-1.69;-0.22;-0.041985;-1.022356;0.006878;0.0;160.2;161.1;0.0;4.2;4.6
2.0;1753875096.726094;17.31234;0.85;-1.64;-0.29;-0.040352;-1.022555;0.005869;0.0;160.9;162.2;0.0;3.9;5.1
2.0;1753875096.730832;17.31868;0.96;-1.56;-0.31;-0.04093;-1.0222;0.005672;0.0;163.4;155.8;0.0;4.2;4.3
2.0;1753875096.735568;17.322942;0.91;-1.62;-0.25;-0.039815;-1.023237;0.006235;0.0;164.1;162.0;0.0;4.7;5.8
2.0;1753875096.7441;17.324219;0.91;-1.61;-0.28;-0.041724;-1.022238;0.0061;0.0;161.0;161.0;0.0;5.0;5.0
2.0;1753875096.748837;17.313542;0.91;-1.6;-0.29;-0.042798;-1.021524;0.006368;0.0;163.6;154.0;0.0;4.6;5.4
2.0;1753875096.753574;17.341039;0.91;-1.62;-0.27;-0.04434;-1.021938;0.00446;0.0;166.0;159.5;0.0;5.3;4.4
2.0;1753875096.758312;17.320367;0.93;-1.59;-0.33;-0.041212;-1.022673;0.007859;0.0;161.7;165.6;0.0;4.3;4.7
2.0;1753875096.763049;17.333946;0.91;-1.64;-0.34;-0.042894;-1.021934;0.004368;0.0;158.7;153.2;0.0;5.4;5.3
2.0;1753875096.767786;17.33931;0.89;-1.64;-0.36;-0.044364;-1.022932;0.005343;0.0;160.1;163.2;0.0;5.4;4.6
2.0;1753875096.772523;17.299608;0.91;-1.65;-0.27;-0.043431;-1.02185;0.005843;0.0;164.1;159.5;0.0;3.8;5.4
2.0;1753875096.77726;17.330908;0.96;-1.69;-0.32;-0.043943;-1.021418;0.00475;0.0;151.6;162.3;0.0;5.9;5.4
2.0;1753875096.781997;17.326597;0.93;-1.71;-0.36;-0.041771;-1.021653;0.005974;0.0;162.7;160.2;0.0;5.6;5.0
2.0;1753875096.7897;17.324219;0.91;-1.68;-0.35;-0.044286;-1.02175;0.00488;0.0;161.0;161.0;0.0;5.0;5.0
2.0;1753875096.794437;17.331126;0.9;-1.67;-0.33;-0.045262;-1.021172;0.005037;0.0;159.7;161.5;0.0;3.8;4.8
2.0;1753875096.799174;17.327609;0.9;-1.69;-0.33;-0.043816;-1.022066;0.005035;0.0;157.0;162.3;0.0;5.6;5.8
2.0;1753875096.803912;17.302799;0.92;-1.7;-0.32;-0.043245;-1.021859;0.004274;0.0;162.8;162.2;0.0;5.4;4.5
2.0;1753875096.808648;17.280152;0.92;-1.65;-0.44;-0.043047;-1.021088;0.005269;0.0;164.9;156.5;0.0;5.8;5.1
2.0;1753875096.813386;17.291576;1.0;-1.66;-0.37;-0.041748;-1.021183;0.00625;0.0;158.7;158.5;0.0;5.2;4.9
2.0;1753875096.818123;17.29352;1.05;-1.66;-0.39;-0.041643;-1.020836;0.005907;0.0;154.2;159.5;0.0;4.5;5.8
2.0;1753875096.82286;17.296909;0.92;-1.58;-0.37;-0.042358;-1.020815;0.00405;0.0;161.7;163.1;0.0;4.5;4.5
2.0;1753875096.82786;17.285156;0.98;-1.61;-0.42;-0.0427;-1.021506;0.005124;0.0;161.0;161.0;0.0;5.0;5.0
2.0;1753875096.832597;17.313629;0.98;-1.56;-0.44;-0.041798;-1.022437;0.004644;0.0;163.6;157.9;0.0;5.1;5.8
2.0;1753875096.837334;17.288238;0.95;-1.56;-0.36;-0.043193;-1.021235;0.005784;0.0;157.1;161.0;0.0;4.6;4.5
2.0;1753875096.842072;17.274746;0.97;-1.56;-0.35;-0.043861;-1.021799;0.004421;0.0;163.5;157.5;0.0;5.2;5.6
2.0;1753875096.846809;17.297414;0.99;-1.6;-0.39;-0.041263;-1.021829;0.005163;0.0;162.2;161.7;0.0;4.7;4.6
2.0;1753875096.851546;17.280694;0.93;-1.58;-0.36;-0.041249;-1.021131;0.006024;0.0;158.9;158.3;0.0;5.1;4.7
2.0;1753875096.856283;17.291315;0.93;-1.59;-0.27;-0.043576;-1.021846;0.003147;0.0;164.4;161.9;0.0;4.8;4.5
2.0;1753875096.86102;17.279252;0.83;-1.56;-0.39;-0.041079;-1.021531;0.003296;0.0;159.4;154.4;0.0;5.6;5.0
2.0;1753875096.865757;17.300642;0.91;-1.61;-0.3;-0.042912;-1.020686;0.004779;0.0;157.6;160.1;0.0;5.4;4.4
2.0;1753875096.8731;17.285156;0.91;-1.61;-0.28;-0.042456;-1.021262;0.00427;0.0;161.0;161.0;0.0;5.0;5.0
2.0;1753875096.877837;17.282253;0.93;-1.59;-0.27;-0.041884;-1.021415;0.003905;0.0;158.8;163.9;0.0;4.5;4.5
2.0;1753875096.882574;17.304997;0.93;-1.59;-0.3;-0.042003;-1.021423;0.00478;0.0;155.6;156.3;0.0;4.5;4.5
2.0;1753875096.887312;17.294817;0.85;-1.62;-0.26;-0.042714;-1.020272;0.003864;0.0;162.7;166.7;0.0;5.8;5.0
2.0;1753875096.892048;17.277394;0.9;-1.57;-0.3;-0.042322;-1.021992;0.003821;0.0;163.8;162.7;0.0;5.0;5.3
2.0;1753875096.896786;17.26429;0.97;-1.61;-0.21;-0.042858;-1.021301;0.006578;0.0;158.8;159.0;0.0;5.1;5.2
2.0;1753875096.901523;17.274154;0.85;-1.69;-0.25;-0.044417;-1.021121;0.005824;0.0;160.9;156.8;0.0;5.1;5.3
2.0;1753875096.90626;17.275887;0.81;-1.64;-0.26;-0.044115;-1.020089;0.004201;0.0;161.6;167.0;0.0;4.8;4.9
2.0;1753875096.910997;17.312551;0.82;-1.66;-0.27;-0.042058;-1.021289;0.00569;0.0;163.8;160.0;0.0;5.8;4.8
2.0;1753875096.91881;17.285156;0.84;-1.68;-0.28;-0.042944;-1.021018;0.0061;0.0;161.0;161.0;0.0;5.0;5.0
2.0;1753875096.923547;17.307708;0.85;-1.66;-0.31;-0.042898;-1.02162;0.005735;0.0;164.1;161.1;0.0;4.4;5.0
2.0;1753875096.928284;17.288952;0.91;-1.64;-0.27;-0.042044;-1.020836;0.006151;0.0;154.2;165.9;0.0;4.8;5.1
2.0;1753875096.933021;17.282359;0.87;-1.7;-0.33;-0.044143;-1.020793;0.004608;0.0;155.7;159.0;0.0;6.1;5.6
2.0;1753875096.937758;17.279529;0.83;-1.72;-0.35;-0.044627;-1.019983;0.006156;0.0;164.3;166.7;0.0;5.0;4.7
2.0;1753875096.942496;17.278559;0.9;-1.66;-0.31;-0.042028;-1.019698;0.006385;0.0;162.5;156.9;0.0;4.6;5.0
2.0;1753875096.947233;17.284583;0.9;-1.68;-0.26;-0.041959;-1.020606;0.006168;0.0;159.2;167.9;0.0;5.0;4.7
2.0;1753875096.95197;17.281532;0.94;-1.66;-0.18;-0.041928;-1.020254;0.006254;0.0;161.7;162.1;0.0;6.1;4.7
2.0;1753875096.956707;17.2932;0.85;-1.74;-0.21;-0.041021;-1.020217;0.004852;0.0;164.1;162.2;0.0;5.3;4.4
2.0;1753875096.96454;17.285156;0.91;-1.68;-0.28;-0.042822;-1.01992;0.006222;0.0;161.0;161.0;0.0;5.0;5.0
2.0;1753875096.96555;17.3125;0.91;-1.68;-0.35;-0.04392;-1.022116;0.004514;0.0;164.0;164.0;0.0;4.0;4.0
2.0;1753875096.970125;17.3125;0.91;-1.61;-0.35;-0.042212;-1.020774;0.005612;0.0;164.0;164.0;0.0;4.0;4.0
2.0;1753875096.974721;17.3125;0.91;-1.61;-0.28;-0.04331;-1.021628;0.00549;0.0;164.0;164.0;0.0;4.0;4.0
2.0;1753875096.979282;17.296875;0.84;-1.75;-0.35;-0.044286;-1.020652;0.005002;0.0;164.0;164.0;0.0;4.0;4.0
2.0;1753875096.983859;17.296875;1.05;-1.54;-0.28;-0.041968;-1.022238;0.0061;0.0;164.0;164.0;0.0;4.0;4.0
2.0;1753875096.988417;17.296875;0.91;-1.68;-0.28;-0.043432;-1.020652;0.004758;0.0;164.0;164.0;0.0;4.0;4.0
2.0;1753875096.993672;17.296875;0.91;-1.61;-0.35;-0.042944;-1.022238;0.005368;0.0;164.0;164.0;0.0;4.0;4.0
2.0;1753875096.998409;17.283655;1.0;-1.7;-0.29;-0.04399;-1.022422;0.004651;0.0;162.9;164.4;0.0;5.6;6.3
2.0;1753875097.003146;17.299234;0.85;-1.63;-0.33;-0.042306;-1.022861;0.005907;0.0;163.0;166.4;0.0;2.3;4.2
2.0;1753875097.007883;17.332138;0.96;-1.56;-0.33;-0.044771;-1.023212;0.005759;0.0;165.3;162.7;0.0;4.4;2.7
2.0;1753875097.01262;17.284954;0.98;-1.7;-0.31;-0.042134;-1.021838;0.005791;0.0;164.9;163.0;0.0;4.9;5.3
2.0;1753875097.017358;17.292292;0.92;-1.61;-0.42;-0.043213;-1.021556;0.005057;0.0;163.2;162.4;0.0;7.6;4.7
2.0;1753875097.022095;17.300754;0.88;-1.6;-0.36;-0.044205;-1.020583;0.003766;0.0;162.6;162.1;0.0;2.7;5.9
2.0;1753875097.026832;17.29868;0.86;-1.53;-0.34;-0.042444;-1.021493;0.004203;0.0;164.2;167.1;0.0;2.9;6.3
2.0;1753875097.031569;17.298406;1.13;-1.66;-0.36;-0.041992;-1.022954;0.006309;0.0;163.5;162.0;0.0;1.8;7.0
2.0;1753875097.036306;17.290245;1.02;-1.72;-0.32;-0.042571;-1.023532;0.004328;0.0;164.5;163.6;0.0;3.7;3.5
2.0;1753875097.041043;17.289196;0.94;-1.63;-0.42;-0.042927;-1.021485;0.006108;0.0;164.2;164.3;0.0;5.4;4.4
2.0;1753875097.04578;17.28141;0.9;-1.65;-0.36;-0.042482;-1.022094;0.005192;0.0;164.0;165.6;0.0;3.4;4.5
2.0;1753875097.050518;17.287531;0.8;-1.63;-0.31;-0.04387;-1.020266;0.005063;0.0;165.5;167.0;0.0;5.1;4.5
2.0;1753875097.055255;17.303329;0.94;-1.6;-0.36;-0.042867;-1.02195;0.004408;0.0;166.7;164.9;0.0;4.9;2.1
2.0;1753875097.059992;17.308762;0.86;-1.66;-0.4;-0.041265;-1.023459;0.004854;0.0;161.7;166.4;0.0;3.2;4.5
2.0;1753875097.064729;17.296071;1.0;-1.58;-0.37;-0.043142;-1.021899;0.006121;0.0;166.8;163.1;0.0;4.3;2.8
2.0;1753875097.069466;17.33241;0.94;-1.61;-0.36;-0.044327;-1.021771;0.004974;0.0;164.2;165.5;0.0;5.1;4.7
2.0;1753875097.074203;17.294002;0.97;-1.7;-0.34;-0.042718;-1.021748;0.006538;0.0;163.7;165.7;0.0;4.4;1.9
2.0;1753875097.07894;17.286397;0.88;-1.6;-0.41;-0.042137;-1.023574;0.006078;0.0;166.9;165.0;0.0;4.6;3.4
2.0;1753875097.083678;17.298421;0.89;-1.66;-0.39;-0.043814;-1.020281;0.006812;0.0;164.6;163.7;0.0;1.5;4.4
2.0;1753875097.088415;17.306334;0.9;-1.56;-0.42;-0.043452;-1.022661;0.005711;0.0;166.7;164.5;0.0;3.3;6.8
2.0;1753875097.093152;17.2986;0.93;-1.65;-0.36;-0.042194;-1.02103;0.006216;0.0;166.5;164.9;0.0;1.7;2.0
2.0;1753875097.097889;17.289285;0.89;-1.61;-0.42;-0.043636;-1.021786;0.004447;0.0;167.5;164.2;0.0;4.2;5.5
2.0;1753875097.102626;17.299564;0.95;-1.68;-0.36;-0.042492;-1.022269;0.005817;0.0;163.5;165.2;0.0;4.8;5.3
2.0;1753875097.107363;17.318361;0.95;-1.63;-0.33;-0.042569;-1.022983;0.006165;0.0;164.6;164.8;0.0;2.5;4.2
2.0;1753875097.1121;17.288277;0.91;-1.55;-0.37;-0.040998;-1.022409;0.005937;0.0;164.8;166.4;0.0;4.4;4.5
2.0;1753875097.116838;17.292091;1.04;-1.68;-0.36;-0.042974;-1.021957;0.005344;0.0;166.0;164.7;0.0;2.9;4.1
2.0;1753875097.121575;17.289868;0.95;-1.68;-0.32;-0.042274;-1.020403;0.005536;0.0;162.9;166.2;0.0;2.3;3.0
2.0;1753875097.126312;17.308246;0.93;-1.59;-0.41;-0.042279;-1.021767;0.006275;0.0;165.1;165.9;0.0;7.0;5.6
2.0;1753875097.131049;17.266782;0.89;-1.68;-0.33;-0.043613;-1.021352;0.004925;0.0;165.6;166.0;0.0;3.5;7.5
2.0;1753875097.135786;17.305546;0.95;-1.57;-0.35;-0.04207;-1.022168;0.004903;0.0;168.3;164.2;0.0;4.8;6.9
2.0;1753875097.140523;17.311933;0.86;-1.6;-0.36;-0.0412;-1.021141;0.005039;0.0;164.0;162.3;0.0;6.4;0.7
2.0;1753875097.14526;17.314291;0.79;-1.65;-0.35;-0.041312;-1.020568;0.005588;0.0;166.8;166.6;0.0;4.7;4.6
2.0;1753875097.149998;17.299408;0.87;-1.75;-0.35;-0.042423;-1.021492;0.005269;0.0;164.7;165.4;0.0;4.1;3.1
2.0;1753875097.154734;17.306122;0.94;-1.64;-0.22;-0.041912;-1.021418;0.005628;0.0;164.5;165.8;0.0;3.0;5.6
2.0;1753875097.159472;17.315657;0.99;-1.76;-0.35;-0.044077;-1.021328;0.006525;0.0;166.1;164.0;0.0;3.2;3.6
2.0;1753875097.164209;17.30336;0.86;-1.6;-0.22;-0.041992;-1.02111;0.005639;0.0;162.9;165.8;0.0;5.3;5.0
2.0;1753875097.168946;17.322081;0.89;-1.59;-0.35;-0.043684;-1.021684;0.005786;0.0;164.7;168.2;0.0;5.1;5.1
2.0;1753875097.173683;17.281098;0.77;-1.7;-0.4;-0.041697;-1.020829;0.005546;0.0;166.1;168.7;0.0;3.6;3.0
2.0;1753875097.17842;17.275145;0.89;-1.63;-0.33;-0.043015;-1.022311;0.004356;0.0;167.0;164.2;0.0;5.1;4.5
2.0;1753875097.183158;17.289917;0.92;-1.67;-0.29;-0.043344;-1.021091;0.006853;0.0;167.0;164.3;0.0;3.9;6.4
2.0;1753875097.187894;17.291886;1.03;-1.61;-0.28;-0.042057;-1.020999;0.005711;0.0;169.1;167.1;0.0;4.6;3.5
2.0;1753875097.192632;17.290113;0.9;-1.58;-0.26;-0.041387;-1.022601;0.006355;0.0;164.6;165.6;0.0;5.2;1.5
2.0;1753875097.197369;17.267365;0.92;-1.63;-0.39;-0.044108;-1.022128;0.005112;0.0;166.4;165.5;0.0;3.3;4.1
2.0;1753875097.202106;17.288459;0.92;-1.57;-0.33;-0.042318;-1.019749;0.004096;0.0;164.3;163.4;0.0;4.3;2.6
2.0;1753875097.206843;17.327379;1.02;-1.65;-0.37;-0.042764;-1.021918;0.006201;0.0;167.4;162.7;0.0;4.2;2.1
2.0;1753875097.21158;17.284738;0.99;-1.68;-0.28;-0.042227;-1.022549;0.005319;0.0;168.1;165.3;0.0;3.9;3.6
2.0;1753875097.216318;17.316899;0.91;-1.63;-0.38;-0.041963;-1.020657;0.004548;0.0;165.3;167.5;0.0;3.8;4.7
2.0;1753875097.221054;17.285055;0.83;-1.58;-0.33;-0.042442;-1.021338;0.005901;0.0;166.2;168.1;0.0;4.3;2.3
2.0;1753875097.225792;17.29332;0.91;-1.62;-0.26;-0.043837;-1.022138;0.005369;0.0;168.7;165.4;0.0;3.8;6.2
2.0;1753875097.230529;17.294947;0.98;-1.65;-0.39;-0.0428;-1.021423;0.004284;0.0;166.2;167.2;0.0;5.3;3.1
2.0;1753875097.235266;17.301183;0.92;-1.58;-0.32;-0.042149;-1.020579;0.005459;0.0;163.5;165.0;0.0;4.4;7.9
2.0;1753875097.240003;17.286213;0.92;-1.67;-0.31;-0.040755;-1.021098;0.005107;0.0;166.8;165.9;0.0;5.8;2.8
2.0;1753875097.24474;17.27861;0.92;-1.58;-0.32;-0.042728;-1.020392;0.004895;0.0;164.5;166.1;0.0;6.5;2.8
2.0;1753875097.249478;17.286291;0.9;-1.74;-0.25;-0.040768;-1.022192;0.004415;0.0;166.8;167.1;0.0;6.7;6.7
2.0;1753875097.254214;17.289705;0.86;-1.59;-0.39;-0.04196;-1.02212;0.00502;0.0;168.2;169.7;0.0;4.0;2.9
2.0;1753875097.258952;17.3039;0.91;-1.57;-0.38;-0.043036;-1.021664;0.006622;0.0;166.6;166.7;0.0;5.6;4.6
2.0;1753875097.263689;17.290988;1.06;-1.67;-0.33;-0.044626;-1.021576;0.004378;0.0;166.6;167.3;0.0;6.1;4.1
2.0;1753875097.268426;17.280178;0.92;-1.58;-0.3;-0.044289;-1.020666;0.006061;0.0;168.2;164.9;0.0;4.0;5.9
2.0;1753875097.273163;17.281429;0.99;-1.58;-0.34;-0.041524;-1.021254;0.005041;0.0;166.1;167.5;0.0;6.3;5.6
2.0;1753875097.2779;17.282473;0.96;-1.64;-0.28;-0.042707;-1.020153;0.00406;0.0;165.7;166.4;0.0;5.7;5.0
2.0;1753875097.282637;17.310862;0.92;-1.54;-0.27;-0.043239;-1.021985;0.005301;0.0;166.5;166.2;0.0;7.0;3.6
2.0;1753875097.287374;17.301951;0.95;-1.67;-0.33;-0.043457;-1.02127;0.005302;0.0;165.6;167.5;0.0;6.4;4.0
2.0;1753875097.292112;17.306048;0.87;-1.66;-0.33;-0.04109;-1.020967;0.005689;0.0;165.6;165.7;0.0;2.8;4.9
2.0;1753875097.296849;17.27274;0.92;-1.72;-0.35;-0.04252;-1.020822;0.005075;0.0;166.8;166.4;0.0;4.5;5.4
2.0;1753875097.301586;17.282116;0.96;-1.64;-0.32;-0.041561;-1.021367;0.005871;0.0;166.0;167.4;0.0;4.4;4.5
2.0;1753875097.306323;17.284771;0.95;-1.77;-0.3;-0.045159;-1.02213;0.005193;0.0;167.4;168.2;0.0;3.3;3.5
2.0;1753875097.31106;17.295661;0.93;-1.66;-0.32;-0.042374;-1.022051;0.005457;0.0;169.0;166.8;0.0;5.0;4.0
2.0;1753875097.315797;17.30729;0.94;-1.66;-0.29;-0.041329;-1.021117;0.004584;0.0;165.4;168.3;0.0;4.3;4.4
2.0;1753875097.320534;17.300989;0.94;-1.63;-0.35;-0.042332;-1.021242;0.004424;0.0;166.9;165.9;0.0;5.2;3.9
2.0;1753875097.325272;17.311541;0.96;-1.75;-0.28;-0.042204;-1.021009;0.005533;0.0;164.8;164.6;0.0;4.1;6.8
2.0;1753875097.330009;17.2874;0.91;-1.68;-0.26;-0.041729;-1.020175;0.006144;0.0;164.8;168.5;0.0;3.3;5.4
2.0;1753875097.334746;17.293151;0.96;-1.68;-0.27;-0.042707;-1.021645;0.006232;0.0;167.1;165.7;0.0;5.4;6.1
2.0;1753875097.339483;17.3245;1.0;-1.57;-0.33;-0.042685;-1.021748;0.006259;0.0;168.2;169.2;0.0;3.1;3.6
2.0;1753875097.34422;17.278803;0.87;-1.7;-0.37;-0.042329;-1.021708;0.006221;0.0;167.5;167.2;0.0;6.8;4.9
2.0;1753875097.348957;17.315786;0.98;-1.74;-0.26;-0.0418;-1.021648;0.005753;0.0;167.3;169.9;0.0;6.0;6.6
2.0;1753875097.353694;17.297041;1.0;-1.71;-0.29;-0.04378;-1.019903;0.005898;0.0;169.7;168.5;0.0;5.8;3.4
2.0;1753875097.358432;17.276035;1.02;-1.63;-0.34;-0.04209;-1.021529;0.004604;0.0;168.1;168.4;0.0;8.4;6.0
2.0;1753875097.363169;17.278819;0.9;-1.61;-0.3;-0.042963;-1.022307;0.005704;0.0;166.4;166.2;0.0;4.6;3.5
2.0;1753875097.367906;17.298169;0.97;-1.62;-0.31;-0.042991;-1.019795;0.005184;0.0;166.9;165.7;0.0;7.3;5.8
2.0;1753875097.372643;17.309458;0.88;-1.67;-0.18;-0.041388;-1.021116;0.00569;0.0;168.8;168.9;0.0;7.1;7.0
2.0;1753875097.37738;17.29839;0.96;-1.61;-0.23;-0.041471;-1.021191;0.005442;0.0;172.5;167.5;0.0;2.9;3.9
2.0;1753875097.382117;17.298907;0.96;-1.66;-0.29;-0.043847;-1.020486;0.005954;0.0;169.8;168.5;0.0;6.8;2.7
2.0;1753875097.386854;17.292312;0.97;-1.66;-0.27;-0.042882;-1.021582;0.004555;0.0;165.4;166.5;0.0;3.7;1.4
2.0;1753875097.391592;17.310915;1.0;-1.64;-0.25;-0.044115;-1.020419;0.004561;0.0;169.2;167.8;0.0;3.0;6.2
2.0;1753875097.396329;17.304527;0.97;-1.74;-0.35;-0.042877;-1.021371;0.006665;0.0;167.8;167.8;0.0;5.2;3.7
2.0;1753875097.401066;17.307182;1.01;-1.6;-0.34;-0.042261;-1.020791;0.005498;0.0;169.9;166.8;0.0;6.3;5.3
2.0;1753875097.405803;17.28836;0.99;-1.65;-0.27;-0.042097;-1.020397;0.004973;0.0;168.1;168.7;0.0;6.6;6.1
2.0;1753875097.41054;17.322244;0.94;-1.69;-0.29;-0.042167;-1.021969;0.00567;0.0;167.6;167.2;0.0;6.2;5.2
2.0;1753875097.415277;17.275157;0.86;-1.71;-0.33;-0.043055;-1.019585;0.005339;0.0;169.7;170.0;0.0;5.8;3.5
2.0;1753875097.420014;17.30572;1.06;-1.73;-0.28;-0.043195;-1.020865;0.005575;0.0;168.7;167.1;0.0;6.0;4.5
2.0;1753875097.424752;17.290596;0.97;-1.68;-0.33;-0.042543;-1.02075;0.004014;0.0;165.3;168.1;0.0;2.8;5.4
2.0;1753875097.429489;17.296219;0.97;-1.71;-0.26;-0.041372;-1.020571;0.004362;0.0;169.4;168.0;0.0;4.6;5.7
2.0;1753875097.434226;17.275282;1.02;-1.66;-0.27;-0.040358;-1.020574;0.004887;0.0;166.5;170.7;0.0;6.0;4.0
2.0;1753875097.438963;17.286014;0.92;-1.76;-0.26;-0.043098;-1.021338;0.006045;0.0;168.4;167.4;0.0;3.6;3.3
2.0;1753875097.4437;17.27307;1.06;-1.61;-0.37;-0.042577;-1.020423;0.004826;0.0;168.9;168.4;0.0;4.1;6.7
2.0;1753875097.448437;17.305052;0.9;-1.64;-0.28;-0.042639;-1.022301;0.004763;0.0;169.6;169.1;0.0;2.9;4.7
2.0;1753875097.453174;17.325112;0.96;-1.66;-0.22;-0.04099;-1.021001;0.005122;0.0;169.3;168.9;0.0;6.3;4.8
2.0;1753875097.457912;17.279101;1.02;-1.64;-0.27;-0.042018;-1.020834;0.005718;0.0;166.1;167.8;0.0;6.6;5.8
2.0;1753875097.462649;17.291782;1.02;-1.6;-0.31;-0.043843;-1.020047;0.006542;0.0;168.3;166.1;0.0;6.0;7.0
2.0;1753875097.467386;17.301811;0.96;-1.58;-0.28;-0.042636;-1.020717;0.006536;0.0;165.1;167.0;0.0;5.6;4.8
2.0;1753875097.472123;17.284897;0.99;-1.7;-0.24;-0.042501;-1.020935;0.004156;0.0;169.2;168.1;0.0;5.5;5.5
2.0;1753875097.47686;17.301265;0.83;-1.59;-0.29;-0.040831;-1.020296;0.006461;0.0;168.7;168.2;0.0;2.4;3.3
2.0;1753875097.481597;17.30024;0.98;-1.61;-0.23;-0.041217;-1.021231;0.005686;0.0;167.9;167.8;0.0;7.4;1.4
2.0;1753875097.486334;17.328743;0.94;-1.6;-0.3;-0.043346;-1.019313;0.007522;0.0;169.6;168.9;0.0;6.7;3.1
2.0;1753875097.491072;17.297042;0.91;-1.62;-0.29;-0.040639;-1.020569;0.006073;0.0;167.9;164.1;0.0;2.5;4.1
2.0;1753875097.495808;17.308586;0.97;-1.68;-0.25;-0.041113;-1.019859;0.005711;0.0;169.7;165.6;0.0;5.7;6.1
2.0;1753875097.500546;17.277352;0.92;-1.66;-0.28;-0.04113;-1.020522;0.004603;0.0;170.4;170.7;0.0;4.1;4.4
2.0;1753875097.505283;17.286926;0.97;-1.69;-0.3;-0.04215;-1.01963;0.005332;0.0;167.9;169.0;0.0;2.8;5.2
2.0;1753875097.51002;17.330701;0.86;-1.72;-0.18;-0.043093;-1.021424;0.005506;0.0;168.5;170.0;0.0;3.0;3.6
2.0;1753875097.5149;17.296875;0.98;-1.68;-0.28;-0.041968;-1.020652;0.005368;0.0;169.0;169.0;0.0;5.0;5.0
2.0;1753875097.52136;17.289062;0.98;-1.68;-0.28;-0.04514;-1.021262;0.004758;0.0;165.0;165.0;0.0;5.0;4.0
2.0;1753875097.526097;17.29266;0.95;-1.71;-0.38;-0.044795;-1.021406;0.005664;0.0;164.8;164.5;0.0;4.5;4.6
2.0;1753875097.530834;17.285222;0.94;-1.77;-0.33;-0.042941;-1.02116;0.005035;0.0;166.9;165.3;0.0;4.9;4.8
2.0;1753875097.535571;17.310646;1.0;-1.64;-0.25;-0.043145;-1.022116;0.005146;0.0;165.8;163.1;0.0;4.8;4.5
2.0;1753875097.540308;17.288252;0.86;-1.61;-0.24;-0.042992;-1.021959;0.004358;0.0;166.0;164.9;0.0;5.7;4.9
2.0;1753875097.545046;17.288082;0.95;-1.59;-0.26;-0.041568;-1.021438;0.00394;0.0;165.8;164.0;0.0;5.6;3.7
2.0;1753875097.549783;17.278353;0.89;-1.76;-0.26;-0.041672;-1.021913;0.002622;0.0;163.8;171.4;0.0;3.9;3.5
2.0;1753875097.55452;17.297433;0.94;-1.7;-0.18;-0.041127;-1.022311;0.005068;0.0;166.9;167.2;0.0;3.7;4.4
2.0;1753875097.559257;17.29278;0.81;-1.7;-0.24;-0.040275;-1.022504;0.00574;0.0;163.5;166.6;0.0;4.0;3.2
2.0;1753875097.56599;17.289062;0.84;-1.68;-0.21;-0.040992;-1.021994;0.00549;0.0;165.0;165.0;0.0;4.0;4.0
2.0;1753875097.570727;17.296337;0.8;-1.63;-0.3;-0.04274;-1.021988;0.0063;0.0;164.3;163.8;0.0;3.9;4.7
2.0;1753875097.575464;17.262925;0.93;-1.74;-0.3;-0.04262;-1.02186;0.006094;0.0;170.7;166.3;0.0;4.2;4.4
2.0;1753875097.580202;17.280618;0.94;-1.73;-0.17;-0.041703;-1.021906;0.004662;0.0;164.1;161.9;0.0;4.4;3.9
2.0;1753875097.584938;17.287325;0.81;-1.72;-0.26;-0.04188;-1.021128;0.005015;0.0;168.3;164.7;0.0;4.1;4.2
2.0;1753875097.589676;17.29742;0.8;-1.59;-0.12;-0.041559;-1.02157;0.005618;0.0;166.4;162.9;0.0;4.9;4.5
2.0;1753875097.594413;17.279476;0.88;-1.71;-0.2;-0.040332;-1.020291;0.006317;0.0;166.8;165.0;0.0;5.2;4.1
2.0;1753875097.59915;17.306346;0.92;-1.67;-0.25;-0.03918;-1.020909;0.00601;0.0;164.3;163.7;0.0;4.7;3.8
2.0;1753875097.603887;17.293985;0.84;-1.66;-0.24;-0.04043;-1.020989;0.004911;0.0;165.5;165.7;0.0;4.5;4.5
2.0;1753875097.608624;17.298154;0.85;-1.69;-0.32;-0.042033;-1.019825;0.005103;0.0;163.7;162.1;0.0;3.9;4.3
2.0;1753875097.613361;17.279325;0.96;-1.66;-0.43;-0.041603;-1.02095;0.006036;0.0;164.7;166.4;0.0;3.5;4.2
2.0;1753875097.618098;17.289434;0.89;-1.78;-0.27;-0.041173;-1.02133;0.00592;0.0;162.7;167.2;0.0;3.4;3.9
2.0;1753875097.62575;17.289062;0.91;-1.75;-0.28;-0.041358;-1.020408;0.005856;0.0;165.0;165.0;0.0;4.0;4.0
2.0;1753875097.630487;17.304157;0.88;-1.72;-0.23;-0.041382;-1.01852;0.006316;0.0;162.8;164.6;0.0;4.2;4.5
2.0;1753875097.635224;17.297044;0.84;-1.72;-0.26;-0.042256;-1.021668;0.005055;0.0;162.2;164.6;0.0;3.5;3.1
2.0;1753875097.639962;17.302162;0.98;-1.79;-0.17;-0.04159;-1.020641;0.006311;0.0;165.8;168.3;0.0;4.1;4.2
2.0;1753875097.644698;17.288267;0.91;-1.78;-0.13;-0.041174;-1.020345;0.006437;0.0;160.6;165.7;0.0;4.2;3.8
2.0;1753875097.649436;17.280423;0.97;-1.73;-0.24;-0.042374;-1.020478;0.00581;0.0;165.4;164.8;0.0;4.9;3.6
2.0;1753875097.654173;17.287723;0.94;-1.79;-0.2;-0.040803;-1.020029;0.007163;0.0;166.7;164.2;0.0;4.8;4.6
2.0;1753875097.65891;17.30069;0.92;-1.68;-0.31;-0.041989;-1.021001;0.007125;0.0;167.4;161.9;0.0;4.1;3.9
2.0;1753875097.663647;17.296107;1.01;-1.77;-0.27;-0.045595;-1.021422;0.006276;0.0;163.4;163.1;0.0;4.3;3.3
2.0;1753875097.668384;17.277957;0.95;-1.84;-0.4;-0.045412;-1.021365;0.005781;0.0;162.9;166.1;0.0;3.3;2.7
2.0;1753875097.673122;17.289387;1.0;-1.78;-0.35;-0.04557;-1.019664;0.003799;0.0;166.1;169.9;0.0;4.2;3.4
2.0;1753875097.67857;17.289062;0.98;-1.75;-0.28;-0.04392;-1.021018;0.005856;0.0;165.0;165.0;0.0;4.0;4.0
2.0;1753875097.683307;17.292047;0.95;-1.85;-0.29;-0.042443;-1.020301;0.006473;0.0;162.4;164.5;0.0;2.9;4.9
2.0;1753875097.688044;17.287547;0.98;-1.71;-0.25;-0.043036;-1.020864;0.004936;0.0;165.1;163.2;0.0;4.1;4.0
2.0;1753875097.692782;17.281216;0.93;-1.85;-0.21;-0.044266;-1.02147;0.005795;0.0;168.2;169.8;0.0;3.9;3.9
2.0;1753875097.697518;17.29585;0.85;-1.78;-0.29;-0.043088;-1.022417;0.005463;0.0;160.7;165.0;0.0;3.3;2.9
2.0;1753875097.702256;17.308482;1.01;-1.82;-0.14;-0.043912;-1.022074;0.005242;0.0;166.7;164.3;0.0;3.7;4.3
2.0;1753875097.70769;17.296875;0.91;-1.82;-0.28;-0.044042;-1.021506;0.004758;0.0;165.0;165.0;0.0;4.0;4.0
2.0;1753875097.712427;17.312442;0.91;-1.76;-0.3;-0.041602;-1.021764;0.004147;0.0;162.3;164.2;0.0;4.0;4.2
2.0;1753875097.717164;17.299841;0.94;-1.79;-0.18;-0.043912;-1.021464;0.006572;0.0;163.6;165.2;0.0;4.0;4.3
2.0;1753875097.721902;17.277013;0.93;-1.8;-0.32;-0.042149;-1.021549;0.004703;0.0;164.7;164.5;0.0;4.6;3.9
2.0;1753875097.726638;17.297377;0.95;-1.75;-0.25;-0.042812;-1.022021;0.005356;0.0;164.2;165.5;0.0;3.2;4.4
2.0;1753875097.731376;17.281168;0.95;-1.71;-0.3;-0.042263;-1.02059;0.005058;0.0;169.0;164.2;0.0;3.7;4.1
2.0;1753875097.736113;17.286254;0.96;-1.68;-0.21;-0.042854;-1.021474;0.0057;0.0;164.5;168.2;0.0;4.2;4.1
2.0;1753875097.74085;17.299288;0.92;-1.74;-0.26;-0.043965;-1.020896;0.005309;0.0;166.5;163.6;0.0;3.9;5.1
2.0;1753875097.745587;17.295186;0.98;-1.6;-0.29;-0.043183;-1.023151;0.005695;0.0;159.9;162.4;0.0;4.1;4.0
2.0;1753875097.750324;17.301185;0.86;-1.77;-0.27;-0.042006;-1.021485;0.004905;0.0;161.1;166.6;0.0;4.3;3.9
2.0;1753875097.755062;17.290742;1.0;-1.72;-0.35;-0.042877;-1.021312;0.006583;0.0;166.9;166.6;0.0;4.4;3.2
2.0;1753875097.76048;17.296875;0.91;-1.68;-0.28;-0.04209;-1.021628;0.005856;0.0;165.0;165.0;0.0;4.0;4.0
2.0;1753875097.765217;17.291687;0.81;-1.71;-0.26;-0.041476;-1.021929;0.005637;0.0;164.6;164.0;0.0;3.4;3.4
2.0;1753875097.769954;17.287944;0.92;-1.73;-0.45;-0.042098;-1.021087;0.005892;0.0;167.7;164.1;0.0;3.6;3.2
2.0;1753875097.774691;17.291289;0.89;-1.68;-0.33;-0.045204;-1.021937;0.005302;0.0;166.3;164.0;0.0;4.6;3.2
2.0;1753875097.779428;17.294721;0.83;-1.61;-0.32;-0.041325;-1.021887;0.005831;0.0;164.9;163.9;0.0;4.4;4.4
2.0;1753875097.784166;17.28936;0.96;-1.74;-0.36;-0.041825;-1.022329;0.005717;0.0;165.4;163.3;0.0;4.2;4.0
2.0;1753875097.788903;17.300739;0.88;-1.69;-0.36;-0.042967;-1.022333;0.004933;0.0;162.3;165.1;0.0;4.7;4.3
2.0;1753875097.79364;17.286687;0.82;-1.46;-0.35;-0.041815;-1.022544;0.004953;0.0;164.3;164.0;0.0;3.4;4.6
2.0;1753875097.80117;17.296875;0.84;-1.61;-0.42;-0.044042;-1.022482;0.00488;0.0;165.0;165.0;0.0;4.0;4.0
2.0;1753875097.805907;17.294689;1.0;-1.71;-0.34;-0.041755;-1.021891;0.004589;0.0;163.8;166.7;0.0;4.6;3.7
2.0;1753875097.810644;17.294625;0.83;-1.66;-0.51;-0.04115;-1.02244;0.004533;0.0;167.6;159.6;0.0;5.1;3.9
2.0;1753875097.815382;17.299073;0.82;-1.49;-0.49;-0.04449;-1.02347;0.005222;0.0;165.1;165.0;0.0;3.1;4.1
2.0;1753875097.820119;17.306536;0.88;-1.64;-0.39;-0.042171;-1.021615;0.004754;0.0;162.7;164.9;0.0;4.2;4.5
2.0;1753875097.824856;17.303284;1.01;-1.53;-0.24;-0.043421;-1.022058;0.003518;0.0;166.4;166.4;0.0;4.4;4.1
2.0;1753875097.829593;17.291588;0.84;-1.53;-0.31;-0.038828;-1.021949;0.006026;0.0;166.8;166.6;0.0;4.9;3.6
2.0;1753875097.83433;17.287959;1.0;-1.62;-0.49;-0.041018;-1.022249;0.006047;0.0;169.0;165.5;0.0;3.9;3.9
2.0;1753875097.839067;17.291456;1.0;-1.61;-0.32;-0.041681;-1.02128;0.005047;0.0;162.8;161.5;0.0;3.9;4.1
2.0;1753875097.84486;17.296875;0.98;-1.54;-0.35;-0.041114;-1.021506;0.005368;0.0;165.0;165.0;0.0;4.0;4.0
2.0;1753875097.849597;17.301447;0.89;-1.58;-0.37;-0.042207;-1.020756;0.004253;0.0;163.6;166.7;0.0;4.4;3.7
2.0;1753875097.854334;17.302322;1.01;-1.49;-0.28;-0.040288;-1.021757;0.004695;0.0;164.4;165.2;0.0;4.1;3.7
2.0;1753875097.859072;17.290113;1.04;-1.56;-0.31;-0.042479;-1.021087;0.004209;0.0;166.3;165.4;0.0;3.3;3.6
2.0;1753875097.863809;17.285226;1.02;-1.52;-0.38;-0.04199;-1.021646;0.00349;0.0;162.8;166.7;0.0;4.7;4.4
2.0;1753875097.868546;17.284828;0.92;-1.61;-0.3;-0.040002;-1.020695;0.00445;0.0;165.2;165.3;0.0;4.3;4.2
2.0;1753875097.873283;17.300254;1.04;-1.54;-0.24;-0.042823;-1.021889;0.003265;0.0;165.8;167.3;0.0;3.9;3.1
2.0;1753875097.87802;17.286766;1.11;-1.63;-0.37;-0.042022;-1.021962;0.003082;0.0;164.2;166.2;0.0;3.3;4.0
2.0;1753875097.882757;17.295305;0.91;-1.48;-0.33;-0.042794;-1.021922;0.003543;0.0;167.4;166.8;0.0;4.3;3.6
2.0;1753875097.887494;17.292076;0.96;-1.7;-0.36;-0.042304;-1.021419;0.00582;0.0;165.7;165.4;0.0;4.4;3.8
2.0;1753875097.892232;17.292578;0.97;-1.53;-0.39;-0.042437;-1.020899;0.004975;0.0;162.8;165.9;0.0;4.3;3.9
2.0;1753875097.896968;17.288444;1.01;-1.57;-0.39;-0.041244;-1.022091;0.004996;0.0;163.7;165.0;0.0;4.3;4.1
2.0;1753875097.901706;17.295163;1.03;-1.73;-0.3;-0.044782;-1.021424;0.003609;0.0;166.9;164.6;0.0;4.6;3.5
2.0;1753875097.906443;17.290228;0.97;-1.72;-0.35;-0.042795;-1.021938;0.003629;0.0;166.2;165.2;0.0;4.4;3.9
2.0;1753875097.91118;17.303286;0.94;-1.62;-0.4;-0.044202;-1.021728;0.005889;0.0;169.4;166.6;0.0;3.5;3.3
2.0;1753875097.915917;17.280911;1.06;-1.74;-0.28;-0.041218;-1.021931;0.005098;0.0;159.4;167.3;0.0;4.3;3.4
2.0;1753875097.920654;17.279526;0.93;-1.58;-0.33;-0.044112;-1.022452;0.003947;0.0;167.3;164.1;0.0;4.3;4.3
2.0;1753875097.92723;17.28125;0.98;-1.68;-0.35;-0.044164;-1.021994;0.00366;0.0;165.0;165.0;0.0;4.0;4.0
2.0;1753875097.927276;17.296875;0.77;-1.68;-0.35;-0.041358;-1.021628;0.00549;0.0;168.0;168.0;0.0;7.0;7.0
2.0;1753875097.933224;17.273438;0.84;-1.61;-0.35;-0.04331;-1.022116;0.003904;0.0;168.0;168.0;0.0;7.0;7.0
2.0;1753875097.937961;17.269335;0.86;-1.69;-0.28;-0.042788;-1.021425;0.004471;0.0;160.0;161.0;0.0;6.3;6.8
2.0;1753875097.943028;17.273438;0.84;-1.68;-0.35;-0.042334;-1.02053;0.005124;0.0;162.0;162.0;0.0;5.0;5.0
2.0;1753875097.948789;17.300781;0.91;-1.75;-0.35;-0.042212;-1.02114;0.005856;0.0;162.0;162.0;0.0;5.0;5.0
2.0;1753875097.94898;17.300781;0.98;-1.68;-0.28;-0.046116;-1.022726;0.005368;0.0;162.0;162.0;0.0;5.0;5.0
2.0;1753875097.953934;17.300781;0.91;-1.61;-0.28;-0.040626;-1.01992;0.005368;0.0;162.0;162.0;0.0;5.0;5.0
2.0;1753875097.958114;17.300781;0.91;-1.61;-0.28;-0.045872;-1.02297;0.005246;0.0;162.0;162.0;0.0;5.0;5.0
2.0;1753875097.962715;17.300781;0.91;-1.68;-0.28;-0.041358;-1.022604;0.004148;0.0;162.0;162.0;0.0;5.0;5.0
2.0;1753875097.967646;17.304688;0.91;-1.68;-0.35;-0.044774;-1.02236;0.005368;0.0;162.0;162.0;0.0;5.0;5.0
2.0;1753875097.975951;17.304688;0.91;-1.61;-0.28;-0.040382;-1.022116;0.005002;0.0;162.0;162.0;0.0;5.0;5.0
2.0;1753875097.980978;17.304688;0.84;-1.68;-0.42;-0.041602;-1.021628;0.006466;0.0;162.0;162.0;0.0;5.0;5.0
2.0;1753875097.985715;17.305113;0.82;-1.71;-0.36;-0.045583;-1.022287;0.004802;0.0;162.1;163.2;0.0;6.6;5.1
2.0;1753875097.990082;17.3125;0.84;-1.68;-0.28;-0.0427;-1.021262;0.004392;0.0;166.0;166.0;0.0;7.0;7.0
2.0;1753875097.995635;17.3125;0.77;-1.61;-0.42;-0.042212;-1.020896;0.00488;0.0;166.0;166.0;0.0;7.0;7.0
2.0;1753875097.999275;17.3125;0.84;-1.68;-0.35;-0.0427;-1.021872;0.006344;0.0;166.0;166.0;0.0;7.0;7.0
2.0;1753875098.004012;17.309105;0.86;-1.71;-0.29;-0.040669;-1.02136;0.006533;0.0;167.9;164.5;0.0;8.2;6.0
2.0;1753875098.008749;17.301335;0.77;-1.69;-0.45;-0.040152;-1.021732;0.007646;0.0;163.7;161.8;0.0;6.1;6.6
2.0;1753875098.013486;17.312736;0.8;-1.66;-0.33;-0.042125;-1.021698;0.005964;0.0;163.5;164.7;0.0;6.9;7.9
2.0;1753875098.018224;17.307662;0.87;-1.73;-0.36;-0.044576;-1.021029;0.006813;0.0;162.8;165.8;0.0;5.5;7.0
2.0;1753875098.022961;17.303226;0.77;-1.65;-0.24;-0.040613;-1.02154;0.005778;0.0;169.9;165.7;0.0;7.9;9.2
2.0;1753875098.027698;17.326389;0.83;-1.66;-0.34;-0.042188;-1.021583;0.006156;0.0;164.8;162.7;0.0;6.1;8.2
2.0;1753875098.032435;17.313527;0.83;-1.69;-0.4;-0.041261;-1.022585;0.005952;0.0;169.2;168.6;0.0;9.5;8.1
2.0;1753875098.037172;17.32922;0.83;-1.67;-0.34;-0.041992;-1.022332;0.006257;0.0;166.8;165.0;0.0;7.1;6.1
2.0;1753875098.041909;17.301595;0.77;-1.73;-0.32;-0.04098;-1.020917;0.005968;0.0;169.3;166.0;0.0;4.9;7.5
2.0;1753875098.046646;17.296133;0.76;-1.69;-0.32;-0.038876;-1.021954;0.005828;0.0;171.1;162.0;0.0;6.6;7.6
2.0;1753875098.051384;17.290857;0.83;-1.68;-0.35;-0.042046;-1.023331;0.005846;0.0;168.7;167.3;0.0;7.7;5.8
2.0;1753875098.056121;17.308503;0.84;-1.73;-0.32;-0.042275;-1.020301;0.0064;0.0;167.1;168.6;0.0;9.6;7.6
2.0;1753875098.060858;17.303829;0.8;-1.65;-0.33;-0.043359;-1.021265;0.004743;0.0;165.6;166.3;0.0;6.4;7.1
2.0;1753875098.065595;17.321947;0.87;-1.71;-0.37;-0.043421;-1.022026;0.005776;0.0;164.1;163.7;0.0;7.4;6.0
2.0;1753875098.070332;17.302448;0.91;-1.64;-0.39;-0.043408;-1.020533;0.005467;0.0;166.0;163.5;0.0;7.1;6.7
2.0;1753875098.075069;17.32604;0.92;-1.7;-0.37;-0.041072;-1.021652;0.005439;0.0;166.0;172.1;0.0;8.7;5.3
2.0;1753875098.079806;17.319603;0.9;-1.71;-0.25;-0.044415;-1.022005;0.005929;0.0;167.4;163.9;0.0;7.3;6.0
2.0;1753875098.084544;17.32387;0.95;-1.72;-0.41;-0.041206;-1.022223;0.006953;0.0;165.2;161.3;0.0;7.9;7.6
2.0;1753875098.08928;17.332501;0.87;-1.73;-0.36;-0.043421;-1.021457;0.005678;0.0;164.3;162.7;0.0;8.1;6.4
2.0;1753875098.094018;17.332416;0.89;-1.64;-0.33;-0.041281;-1.020994;0.006272;0.0;164.6;166.1;0.0;5.6;7.0
2.0;1753875098.098755;17.294295;0.91;-1.73;-0.28;-0.042515;-1.021641;0.005678;0.0;162.9;168.0;0.0;5.1;8.3
2.0;1753875098.103492;17.306804;0.87;-1.64;-0.31;-0.043022;-1.022563;0.007286;0.0;164.9;163.3;0.0;7.1;7.4
2.0;1753875098.108229;17.280995;0.93;-1.64;-0.4;-0.04322;-1.022278;0.00514;0.0;167.3;166.9;0.0;8.1;8.5
2.0;1753875098.112966;17.292165;0.89;-1.72;-0.34;-0.041997;-1.021021;0.00706;0.0;168.3;161.3;0.0;7.5;5.1
2.0;1753875098.117704;17.320028;0.82;-1.68;-0.31;-0.041702;-1.022094;0.006134;0.0;167.3;162.9;0.0;6.3;7.0
2.0;1753875098.12244;17.316807;0.68;-1.74;-0.43;-0.042257;-1.022565;0.005123;0.0;164.6;167.9;0.0;5.9;6.2
2.0;1753875098.127178;17.31023;0.77;-1.68;-0.33;-0.03869;-1.021785;0.006735;0.0;168.3;166.9;0.0;5.7;8.0
2.0;1753875098.131915;17.280805;0.76;-1.7;-0.45;-0.040602;-1.02244;0.006092;0.0;163.3;165.7;0.0;5.6;8.7
2.0;1753875098.136652;17.29996;0.84;-1.64;-0.38;-0.044077;-1.02264;0.005896;0.0;165.2;164.4;0.0;6.8;7.1
2.0;1753875098.141389;17.327246;0.82;-1.74;-0.36;-0.036693;-1.022196;0.005437;0.0;171.1;160.2;0.0;8.6;6.9
2.0;1753875098.146126;17.318401;0.92;-1.69;-0.27;-0.044161;-1.021341;0.006916;0.0;167.3;167.5;0.0;6.8;6.5
2.0;1753875098.150864;17.31765;0.85;-1.68;-0.31;-0.039829;-1.021893;0.00708;0.0;165.1;164.4;0.0;7.5;4.7
2.0;1753875098.1556;17.314421;0.83;-1.78;-0.32;-0.040833;-1.020263;0.004781;0.0;165.7;167.0;0.0;8.1;7.3
2.0;1753875098.160338;17.324787;0.75;-1.66;-0.3;-0.045567;-1.022028;0.004691;0.0;164.9;163.6;0.0;7.4;6.9
2.0;1753875098.165075;17.300348;0.88;-1.71;-0.31;-0.042533;-1.020945;0.005809;0.0;164.0;171.3;0.0;8.6;6.0
2.0;1753875098.169812;17.304291;0.82;-1.68;-0.36;-0.040203;-1.021398;0.006999;0.0;165.5;165.7;0.0;5.8;6.1
2.0;1753875098.174549;17.318444;0.87;-1.64;-0.39;-0.041803;-1.022532;0.005768;0.0;167.2;163.8;0.0;7.3;7.4
2.0;1753875098.179286;17.291815;0.84;-1.69;-0.36;-0.040892;-1.021072;0.005514;0.0;165.7;169.7;0.0;5.4;7.2
2.0;1753875098.184024;17.320118;0.89;-1.65;-0.39;-0.040779;-1.021312;0.006745;0.0;165.9;163.6;0.0;5.4;5.7
2.0;1753875098.18876;17.310539;0.83;-1.72;-0.31;-0.04097;-1.020322;0.006579;0.0;165.5;161.6;0.0;7.1;5.3
2.0;1753875098.193498;17.287264;0.78;-1.7;-0.32;-0.043265;-1.019954;0.006248;0.0;163.0;169.2;0.0;8.0;5.3
2.0;1753875098.198235;17.298602;0.76;-1.65;-0.42;-0.042113;-1.020418;0.007053;0.0;169.4;166.2;0.0;7.4;6.8
2.0;1753875098.202972;17.310149;0.9;-1.72;-0.36;-0.042438;-1.022092;0.006011;0.0;167.4;169.4;0.0;8.1;6.1
2.0;1753875098.207709;17.293873;0.84;-1.64;-0.32;-0.043122;-1.021279;0.005581;0.0;168.3;169.1;0.0;4.8;7.8
2.0;1753875098.212446;17.312195;0.86;-1.72;-0.47;-0.041721;-1.021847;0.004253;0.0;171.0;165.8;0.0;7.9;7.0
2.0;1753875098.217183;17.275754;0.89;-1.64;-0.34;-0.044128;-1.021585;0.006112;0.0;164.0;168.6;0.0;7.5;6.7
2.0;1753875098.22192;17.271523;0.77;-1.68;-0.39;-0.041235;-1.021454;0.005078;0.0;163.7;172.7;0.0;8.6;6.3
2.0;1753875098.226658;17.300096;0.97;-1.66;-0.37;-0.038421;-1.021415;0.006184;0.0;165.0;168.2;0.0;7.0;5.8
2.0;1753875098.231395;17.320402;0.84;-1.63;-0.42;-0.03851;-1.020761;0.006701;0.0;170.2;167.8;0.0;7.2;7.1
2.0;1753875098.236132;17.285162;0.87;-1.74;-0.28;-0.038593;-1.021451;0.004833;0.0;165.9;166.9;0.0;7.6;7.3
2.0;1753875098.240869;17.288539;0.9;-1.69;-0.32;-0.041909;-1.021612;0.005769;0.0;166.5;166.3;0.0;8.1;7.0
2.0;1753875098.245606;17.311678;0.82;-1.66;-0.32;-0.040887;-1.020719;0.006618;0.0;168.2;163.1;0.0;5.8;7.4
2.0;1753875098.250343;17.296546;0.85;-1.69;-0.35;-0.040388;-1.021307;0.006528;0.0;161.4;169.3;0.0;5.0;5.7
2.0;1753875098.25508;17.291142;0.91;-1.63;-0.39;-0.040102;-1.020545;0.004403;0.0;161.8;161.9;0.0;7.1;9.0
2.0;1753875098.259818;17.288613;0.82;-1.68;-0.38;-0.040795;-1.019674;0.005424;0.0;168.7;164.9;0.0;7.9;6.9
2.0;1753875098.264555;17.300916;0.85;-1.67;-0.29;-0.041587;-1.021643;0.005196;0.0;169.8;164.3;0.0;8.1;5.8
2.0;1753875098.269292;17.311172;0.93;-1.69;-0.38;-0.040477;-1.022112;0.005183;0.0;164.7;168.7;0.0;6.7;7.7
2.0;1753875098.274029;17.301246;0.83;-1.66;-0.26;-0.0426;-1.021262;0.005015;0.0;167.4;164.6;0.0;7.0;6.7
2.0;1753875098.278766;17.282952;0.86;-1.63;-0.4;-0.039121;-1.021013;0.006276;0.0;160.6;168.8;0.0;7.6;6.4
2.0;1753875098.283503;17.290838;0.86;-1.62;-0.36;-0.041629;-1.020776;0.006446;0.0;169.0;167.4;0.0;5.9;8.5
2.0;1753875098.28824;17.305169;0.8;-1.71;-0.25;-0.040972;-1.021729;0.006168;0.0;171.5;167.7;0.0;6.7;5.8
2.0;1753875098.292978;17.264784;0.83;-1.73;-0.26;-0.041574;-1.02036;0.004483;0.0;171.4;168.0;0.0;5.4;7.8
2.0;1753875098.297715;17.290217;0.79;-1.77;-0.3;-0.043388;-1.021629;0.004863;0.0;165.6;167.4;0.0;8.6;6.6
2.0;1753875098.302452;17.307255;0.8;-1.69;-0.25;-0.045227;-1.022052;0.005169;0.0;167.1;169.4;0.0;5.3;6.0
2.0;1753875098.307189;17.282888;0.81;-1.64;-0.36;-0.041621;-1.019904;0.004989;0.0;168.7;163.9;0.0;7.9;6.4
2.0;1753875098.311926;17.303794;0.91;-1.68;-0.33;-0.043036;-1.021977;0.005638;0.0;165.7;166.9;0.0;9.1;6.7
2.0;1753875098.316663;17.282994;0.89;-1.66;-0.35;-0.039209;-1.021701;0.005037;0.0;164.9;165.3;0.0;7.1;7.9
2.0;1753875098.3214;17.309238;0.97;-1.7;-0.36;-0.041207;-1.021346;0.006402;0.0;170.9;168.5;0.0;9.0;5.5
2.0;1753875098.326138;17.2977;0.81;-1.67;-0.35;-0.04474;-1.021442;0.00484;0.0;166.7;167.8;0.0;7.6;6.1
2.0;1753875098.330875;17.28704;0.86;-1.7;-0.34;-0.042672;-1.020587;0.004284;0.0;166.5;164.2;0.0;5.9;8.3
2.0;1753875098.335612;17.287034;0.8;-1.69;-0.31;-0.040928;-1.021204;0.005084;0.0;164.4;167.4;0.0;7.6;7.4
2.0;1753875098.340349;17.312425;0.84;-1.68;-0.36;-0.041753;-1.020968;0.006245;0.0;168.5;164.9;0.0;5.2;6.2
2.0;1753875098.345086;17.292819;0.78;-1.69;-0.42;-0.03933;-1.020904;0.004686;0.0;172.7;161.9;0.0;8.4;9.4
2.0;1753875098.349823;17.315347;0.81;-1.73;-0.37;-0.041194;-1.021223;0.004783;0.0;168.0;166.1;0.0;5.2;9.7
2.0;1753875098.35456;17.31763;0.8;-1.66;-0.32;-0.040374;-1.021424;0.004346;0.0;167.7;167.5;0.0;7.2;7.5
2.0;1753875098.359298;17.304873;0.88;-1.71;-0.33;-0.041896;-1.021142;0.004009;0.0;168.0;164.7;0.0;9.5;7.3
2.0;1753875098.364035;17.297567;0.78;-1.71;-0.38;-0.038108;-1.019808;0.006255;0.0;163.2;165.5;0.0;6.1;7.7
2.0;1753875098.368772;17.287187;0.72;-1.63;-0.43;-0.043204;-1.021835;0.005471;0.0;164.7;165.8;0.0;9.6;6.6
2.0;1753875098.373509;17.294217;0.84;-1.69;-0.41;-0.041753;-1.021071;0.004384;0.0;167.5;168.9;0.0;7.3;8.2
2.0;1753875098.378246;17.310782;0.84;-1.64;-0.37;-0.042119;-1.021086;0.004798;0.0;159.7;168.5;0.0;7.9;6.7
2.0;1753875098.382983;17.309804;0.86;-1.77;-0.36;-0.040177;-1.02178;0.005348;0.0;166.2;165.0;0.0;9.0;6.1
2.0;1753875098.38772;17.270305;0.8;-1.68;-0.36;-0.040809;-1.021474;0.006048;0.0;167.7;164.4;0.0;9.0;5.4
2.0;1753875098.392458;17.263662;0.87;-1.64;-0.39;-0.039659;-1.021639;0.00517;0.0;164.3;164.7;0.0;5.9;6.9
2.0;1753875098.397194;17.300874;0.84;-1.72;-0.44;-0.04319;-1.021345;0.005034;0.0;168.5;166.6;0.0;6.8;5.6
2.0;1753875098.401932;17.298989;0.78;-1.72;-0.3;-0.044697;-1.019746;0.004808;0.0;167.0;162.5;0.0;7.2;8.7
2.0;1753875098.406669;17.2928;0.81;-1.67;-0.3;-0.040117;-1.018998;0.003498;0.0;164.7;168.1;0.0;5.0;5.7
2.0;1753875098.411406;17.300931;0.79;-1.64;-0.31;-0.037755;-1.020494;0.006083;0.0;171.1;163.8;0.0;5.5;8.5
2.0;1753875098.416143;17.291339;0.83;-1.7;-0.28;-0.038921;-1.02084;0.005089;0.0;163.5;160.7;0.0;5.8;4.4
2.0;1753875098.42088;17.303109;0.88;-1.62;-0.34;-0.041384;-1.020412;0.004703;0.0;162.9;168.2;0.0;6.8;7.4
2.0;1753875098.4292;17.292969;0.84;-1.68;-0.35;-0.040626;-1.021018;0.005002;0.0;166.0;166.0;0.0;7.0;7.0
2.0;1753875098.433937;17.253146;0.89;-1.59;-0.34;-0.039329;-1.022185;0.005315;0.0;166.7;162.5;0.0;8.1;8.4
2.0;1753875098.438674;17.29282;0.81;-1.65;-0.45;-0.041356;-1.020225;0.005934;0.0;164.9;164.1;0.0;9.6;7.4
2.0;1753875098.443411;17.316149;0.8;-1.74;-0.4;-0.040169;-1.020125;0.005067;0.0;165.8;162.2;0.0;6.5;8.4
2.0;1753875098.448148;17.285794;0.81;-1.6;-0.46;-0.04318;-1.020754;0.004959;0.0;163.5;169.8;0.0;7.0;6.7
2.0;1753875098.452886;17.284191;0.89;-1.67;-0.39;-0.039343;-1.020878;0.00411;0.0;161.5;167.3;0.0;6.6;6.7
2.0;1753875098.457623;17.267619;0.83;-1.61;-0.35;-0.041417;-1.021412;0.005138;0.0;162.4;163.1;0.0;8.8;6.2
2.0;1753875098.46236;17.30677;0.79;-1.65;-0.42;-0.040156;-1.020346;0.003929;0.0;161.5;166.8;0.0;7.2;7.4
2.0;1753875098.467097;17.285418;0.87;-1.7;-0.35;-0.038175;-1.0215;0.005554;0.0;165.9;164.0;0.0;5.5;8.9
2.0;1753875098.471834;17.29998;0.83;-1.7;-0.4;-0.038354;-1.019776;0.005919;0.0;160.8;166.9;0.0;8.0;6.8
2.0;1753875098.476571;17.288626;0.88;-1.62;-0.34;-0.041074;-1.02002;0.005573;0.0;167.7;168.8;0.0;7.1;5.8
2.0;1753875098.481308;17.306778;0.91;-1.66;-0.37;-0.041834;-1.020616;0.0056;0.0;168.2;164.9;0.0;8.2;7.9
2.0;1753875098.486046;17.247796;0.84;-1.69;-0.3;-0.041664;-1.020401;0.004075;0.0;165.6;163.3;0.0;8.6;6.0
2.0;1753875098.490783;17.311989;0.87;-1.65;-0.29;-0.041528;-1.02272;0.005221;0.0;166.4;166.3;0.0;6.9;7.4
2.0;1753875098.49552;17.300877;0.81;-1.71;-0.46;-0.041456;-1.021877;0.004839;0.0;169.3;162.5;0.0;8.0;7.6
2.0;1753875098.500257;17.295981;0.84;-1.75;-0.33;-0.042859;-1.022943;0.005309;0.0;169.9;162.9;0.0;6.4;8.1
2.0;1753875098.504994;17.306798;0.89;-1.66;-0.36;-0.041336;-1.02133;0.003936;0.0;165.9;163.1;0.0;5.7;5.9
2.0;1753875098.509731;17.254923;0.89;-1.69;-0.31;-0.041462;-1.021776;0.005584;0.0;165.1;169.5;0.0;8.8;8.3
2.0;1753875098.514468;17.28993;0.75;-1.62;-0.32;-0.040993;-1.022303;0.004481;0.0;166.8;165.9;0.0;8.0;8.5
2.0;1753875098.519206;17.288414;0.78;-1.66;-0.27;-0.041881;-1.021481;0.005217;0.0;167.9;166.9;0.0;5.0;7.0
2.0;1753875098.523943;17.274953;0.88;-1.67;-0.33;-0.039017;-1.020177;0.005793;0.0;169.3;163.5;0.0;6.9;7.3
2.0;1753875098.52868;17.289826;0.91;-1.57;-0.33;-0.043416;-1.022222;0.005438;0.0;166.1;167.0;0.0;6.3;8.0
2.0;1753875098.533417;17.262593;0.83;-1.68;-0.32;-0.043503;-1.021877;0.004878;0.0;168.4;165.6;0.0;7.1;5.9
2.0;1753875098.538154;17.307528;0.83;-1.66;-0.3;-0.038999;-1.020445;0.005005;0.0;168.8;164.4;0.0;7.8;8.1
2.0;1753875098.542891;17.300806;0.84;-1.72;-0.31;-0.039872;-1.021365;0.006131;0.0;168.4;162.4;0.0;5.6;6.9
2.0;1753875098.547628;17.283785;0.89;-1.63;-0.42;-0.04092;-1.021336;0.005856;0.0;164.3;166.6;0.0;8.0;8.7
2.0;1753875098.552366;17.276285;0.83;-1.66;-0.34;-0.041182;-1.020765;0.005127;0.0;162.7;164.5;0.0;4.8;5.9
2.0;1753875098.557103;17.282686;0.91;-1.65;-0.32;-0.041906;-1.019948;0.005137;0.0;171.0;168.3;0.0;8.0;5.8
2.0;1753875098.56184;17.286601;0.96;-1.55;-0.36;-0.039957;-1.020534;0.006388;0.0;165.5;162.9;0.0;9.0;7.1
2.0;1753875098.566577;17.281863;0.89;-1.68;-0.34;-0.042433;-1.020068;0.005572;0.0;167.4;164.2;0.0;6.9;6.7
2.0;1753875098.571314;17.302366;0.9;-1.63;-0.36;-0.040151;-1.019593;0.00498;0.0;165.1;168.3;0.0;9.2;7.1
2.0;1753875098.576051;17.286083;0.9;-1.66;-0.35;-0.036606;-1.020435;0.005053;0.0;165.8;166.8;0.0;5.3;8.9
2.0;1753875098.580788;17.284746;0.84;-1.65;-0.34;-0.041143;-1.022145;0.005029;0.0;163.0;168.9;0.0;7.2;6.8
2.0;1753875098.585526;17.276574;0.89;-1.63;-0.34;-0.041561;-1.022477;0.00349;0.0;164.8;162.6;0.0;5.2;7.8
2.0;1753875098.590263;17.310179;0.92;-1.67;-0.37;-0.040289;-1.02087;0.004682;0.0;168.3;163.6;0.0;8.6;6.8
2.0;1753875098.595;17.294849;0.87;-1.69;-0.38;-0.042312;-1.019943;0.004934;0.0;168.6;161.6;0.0;6.2;5.4
2.0;1753875098.599737;17.293733;0.88;-1.62;-0.38;-0.04132;-1.019592;0.005457;0.0;164.7;162.5;0.0;5.9;7.3
2.0;1753875098.604474;17.295429;0.84;-1.66;-0.37;-0.043469;-1.021757;0.004412;0.0;164.0;165.9;0.0;6.5;5.9
2.0;1753875098.609211;17.300925;0.94;-1.62;-0.31;-0.041773;-1.021109;0.003404;0.0;164.5;163.1;0.0;4.7;7.1
2.0;1753875098.613948;17.308697;0.9;-1.56;-0.3;-0.043246;-1.020435;0.005468;0.0;169.1;165.9;0.0;8.8;8.1
2.0;1753875098.618686;17.285637;0.78;-1.67;-0.31;-0.043187;-1.02263;0.004796;0.0;165.0;163.1;0.0;6.0;6.3
2.0;1753875098.623422;17.308939;0.94;-1.63;-0.3;-0.039049;-1.021832;0.0053;0.0;164.8;165.3;0.0;8.4;6.9
2.0;1753875098.62816;17.283055;0.91;-1.67;-0.38;-0.041329;-1.021038;0.005422;0.0;165.2;163.6;0.0;6.6;8.6
2.0;1753875098.632897;17.280618;0.89;-1.68;-0.37;-0.042453;-1.021989;0.005639;0.0;167.1;167.3;0.0;5.8;7.8
2.0;1753875098.637634;17.283252;0.81;-1.64;-0.31;-0.042383;-1.021562;0.004924;0.0;166.1;162.6;0.0;7.8;7.0
2.0;1753875098.642371;17.281801;0.84;-1.66;-0.38;-0.03864;-1.02251;0.004481;0.0;168.7;163.1;0.0;5.5;7.9
2.0;1753875098.647108;17.311007;0.88;-1.69;-0.33;-0.039473;-1.0227;0.00502;0.0;164.1;167.2;0.0;9.5;6.6
2.0;1753875098.651846;17.282054;0.85;-1.64;-0.28;-0.043066;-1.022109;0.004681;0.0;160.6;166.7;0.0;5.7;8.2
2.0;1753875098.656582;17.299277;0.88;-1.62;-0.34;-0.041688;-1.021438;0.004247;0.0;171.5;168.9;0.0;5.5;6.8
2.0;1753875098.66132;17.30405;0.82;-1.63;-0.34;-0.041546;-1.019967;0.005163;0.0;166.7;164.8;0.0;5.9;5.4
2.0;1753875098.666057;17.291019;0.83;-1.66;-0.4;-0.040962;-1.020924;0.005862;0.0;164.3;167.9;0.0;7.2;7.3
2.0;1753875098.670794;17.300298;0.95;-1.68;-0.35;-0.039802;-1.020578;0.00403;0.0;172.8;165.2;0.0;6.5;6.9
2.0;1753875098.675531;17.286715;0.89;-1.64;-0.35;-0.040388;-1.02148;0.005647;0.0;165.5;162.9;0.0;7.8;6.6
2.0;1753875098.680268;17.28877;0.93;-1.68;-0.38;-0.041378;-1.02086;0.005251;0.0;165.8;167.4;0.0;4.6;7.1
2.0;1753875098.685006;17.30829;0.91;-1.64;-0.34;-0.037648;-1.020413;0.004947;0.0;162.1;168.2;0.0;7.4;8.3
2.0;1753875098.689742;17.303637;0.86;-1.68;-0.38;-0.041837;-1.019821;0.004947;0.0;165.1;165.7;0.0;8.5;6.7
2.0;1753875098.69448;17.280494;0.9;-1.58;-0.27;-0.040757;-1.021806;0.005525;0.0;169.2;167.2;0.0;8.5;5.4
2.0;1753875098.699217;17.276317;0.82;-1.62;-0.27;-0.041523;-1.021822;0.005074;0.0;167.0;168.7;0.0;10.2;7.6
2.0;1753875098.703954;17.298454;0.85;-1.69;-0.23;-0.043055;-1.020763;0.005103;0.0;165.2;162.7;0.0;7.9;6.5
2.0;1753875098.708691;17.290176;0.85;-1.68;-0.32;-0.037462;-1.021695;0.004779;0.0;166.0;165.4;0.0;8.5;5.6
2.0;1753875098.713428;17.275689;0.9;-1.64;-0.36;-0.039556;-1.020136;0.005799;0.0;164.9;171.6;0.0;6.2;6.6
2.0;1753875098.718166;17.280449;0.98;-1.68;-0.37;-0.040879;-1.021446;0.004816;0.0;168.1;166.4;0.0;7.8;5.2
2.0;1753875098.722902;17.279898;0.95;-1.66;-0.34;-0.04175;-1.021584;0.004483;0.0;167.0;165.8;0.0;6.5;8.4
2.0;1753875098.72764;17.321504;0.93;-1.63;-0.31;-0.038391;-1.020955;0.005416;0.0;170.4;166.8;0.0;6.5;6.8
2.0;1753875098.732377;17.292474;0.96;-1.66;-0.36;-0.03991;-1.020805;0.00553;0.0;169.7;168.0;0.0;8.4;7.1
2.0;1753875098.737114;17.3138;0.84;-1.66;-0.27;-0.039531;-1.020224;0.004886;0.0;165.9;167.1;0.0;5.9;6.3
2.0;1753875098.741851;17.275658;0.91;-1.62;-0.32;-0.038971;-1.021358;0.004094;0.0;166.6;164.4;0.0;6.9;5.8
2.0;1753875098.746588;17.303758;0.84;-1.65;-0.34;-0.039948;-1.020335;0.004956;0.0;165.5;170.2;0.0;8.0;8.1
2.0;1753875098.751325;17.291615;0.92;-1.65;-0.3;-0.042056;-1.020645;0.005667;0.0;166.3;169.6;0.0;5.3;8.2
2.0;1753875098.756062;17.288191;0.95;-1.66;-0.33;-0.038817;-1.020346;0.005034;0.0;171.6;169.9;0.0;4.6;7.7
2.0;1753875098.7608;17.287989;0.88;-1.59;-0.32;-0.0401;-1.02056;0.005119;0.0;167.9;160.8;0.0;7.0;7.4
2.0;1753875098.765537;17.271564;0.84;-1.7;-0.31;-0.043899;-1.020749;0.005515;0.0;167.8;165.5;0.0;5.5;7.5
2.0;1753875098.770274;17.276356;0.91;-1.56;-0.32;-0.039123;-1.021445;0.004359;0.0;169.1;164.8;0.0;8.1;7.5
2.0;1753875098.775011;17.294143;0.96;-1.58;-0.33;-0.041772;-1.021529;0.004899;0.0;166.2;166.1;0.0;5.8;5.4
2.0;1753875098.779748;17.289845;0.86;-1.56;-0.39;-0.042887;-1.020876;0.005605;0.0;167.2;165.5;0.0;4.3;5.9
2.0;1753875098.784485;17.287213;0.84;-1.63;-0.39;-0.040292;-1.022064;0.004469;0.0;166.4;169.8;0.0;6.8;8.5
2.0;1753875098.789222;17.301443;0.94;-1.56;-0.32;-0.042195;-1.020743;0.004929;0.0;169.4;165.8;0.0;8.5;4.9
2.0;1753875098.79396;17.300131;0.77;-1.61;-0.35;-0.044526;-1.020737;0.00493;0.0;166.6;162.7;0.0;6.1;8.5
2.0;1753875098.798697;17.298781;0.94;-1.6;-0.32;-0.040069;-1.021307;0.006051;0.0;170.2;161.0;0.0;7.4;7.6
2.0;1753875098.803434;17.308972;0.88;-1.58;-0.32;-0.041131;-1.021745;0.005111;0.0;169.6;162.0;0.0;7.0;7.4
2.0;1753875098.808171;17.290805;0.94;-1.6;-0.36;-0.03927;-1.019624;0.004624;0.0;159.5;170.5;0.0;7.5;5.5
2.0;1753875098.812908;17.309111;0.93;-1.63;-0.45;-0.041697;-1.021443;0.007167;0.0;165.3;172.9;0.0;8.6;7.8
2.0;1753875098.817645;17.30384;0.93;-1.56;-0.27;-0.044141;-1.020134;0.00564;0.0;169.4;168.4;0.0;7.0;7.9
2.0;1753875098.822382;17.279769;0.9;-1.59;-0.34;-0.041765;-1.022011;0.004721;0.0;164.7;165.5;0.0;6.3;7.9
2.0;1753875098.82712;17.291975;0.92;-1.58;-0.37;-0.042204;-1.020765;0.005683;0.0;163.2;160.6;0.0;7.2;6.1
2.0;1753875098.8337;17.292969;0.91;-1.61;-0.35;-0.040626;-1.021018;0.005002;0.0;166.0;166.0;0.0;7.0;7.0
2.0;1753875098.838437;17.287613;0.85;-1.58;-0.45;-0.040899;-1.021541;0.006474;0.0;162.9;164.2;0.0;5.7;5.9
2.0;1753875098.843174;17.273892;0.78;-1.61;-0.36;-0.041978;-1.021461;0.005173;0.0;163.5;167.6;0.0;6.4;6.0
2.0;1753875098.847911;17.305254;0.97;-1.71;-0.42;-0.040903;-1.020636;0.005304;0.0;157.9;164.1;0.0;5.3;7.2
2.0;1753875098.852648;17.283027;0.9;-1.68;-0.36;-0.042855;-1.021129;0.004941;0.0;160.9;158.5;0.0;5.9;4.9
2.0;1753875098.857386;17.257881;0.87;-1.68;-0.33;-0.043132;-1.022005;0.006449;0.0;158.6;157.6;0.0;5.9;7.0
2.0;1753875098.862123;17.282824;0.9;-1.58;-0.39;-0.044364;-1.022184;0.005275;0.0;153.3;148.2;0.0;5.8;5.5
2.0;1753875098.86776;17.273438;0.84;-1.68;-0.35;-0.04331;-1.021506;0.005002;0.0;154.0;154.0;0.0;5.0;5.0
2.0;1753875098.872497;17.285202;0.76;-1.73;-0.38;-0.043505;-1.022142;0.005017;0.0;151.6;155.6;0.0;4.0;3.4
2.0;1753875098.877234;17.260033;0.83;-1.7;-0.35;-0.042693;-1.02142;0.006231;0.0;157.1;159.9;0.0;5.6;4.6
2.0;1753875098.881971;17.282238;0.81;-1.61;-0.38;-0.04408;-1.020595;0.006267;0.0;156.7;151.1;0.0;5.8;6.8
2.0;1753875098.886708;17.263542;0.76;-1.63;-0.44;-0.043549;-1.021482;0.003981;0.0;157.3;160.8;0.0;3.9;6.3
2.0;1753875098.891446;17.29193;0.88;-1.57;-0.38;-0.044343;-1.022862;0.006116;0.0;157.4;154.4;0.0;7.3;6.7
2.0;1753875098.896183;17.235813;0.84;-1.64;-0.29;-0.044834;-1.022199;0.005978;0.0;161.8;158.9;0.0;6.5;5.1
2.0;1753875098.90092;17.250425;0.82;-1.66;-0.34;-0.045044;-1.021305;0.004326;0.0;155.1;148.1;0.0;3.7;4.8
2.0;1753875098.905657;17.264994;0.81;-1.59;-0.31;-0.042887;-1.021832;0.005756;0.0;152.4;149.0;0.0;6.0;4.2
2.0;1753875098.910394;17.265833;0.84;-1.58;-0.32;-0.04222;-1.0217;0.005585;0.0;153.4;156.5;0.0;5.4;5.5
2.0;1753875098.915131;17.278417;0.86;-1.64;-0.41;-0.042226;-1.021997;0.006249;0.0;153.7;153.1;0.0;4.9;5.5
2.0;1753875098.92296;17.273438;0.77;-1.61;-0.35;-0.04331;-1.021872;0.005246;0.0;154.0;154.0;0.0;5.0;5.0
2.0;1753875098.927697;17.255247;0.77;-1.67;-0.35;-0.043173;-1.02334;0.005518;0.0;150.8;150.8;0.0;4.8;2.7
2.0;1753875098.932434;17.264466;0.74;-1.62;-0.36;-0.042598;-1.02126;0.005506;0.0;155.7;158.7;0.0;4.9;5.8
2.0;1753875098.937172;17.2766;0.86;-1.73;-0.45;-0.0429;-1.02092;0.006193;0.0;153.4;157.9;0.0;4.2;3.2
2.0;1753875098.941908;17.260322;0.86;-1.61;-0.38;-0.041729;-1.021767;0.004013;0.0;152.3;160.2;0.0;5.8;6.8
2.0;1753875098.946646;17.287528;0.86;-1.69;-0.43;-0.041246;-1.021877;0.006366;0.0;150.9;156.1;0.0;5.9;6.1
2.0;1753875098.95321;17.28125;0.84;-1.68;-0.42;-0.041968;-1.021262;0.00488;0.0;154.0;154.0;0.0;5.0;5.0
2.0;1753875098.957947;17.273307;0.76;-1.65;-0.45;-0.040581;-1.020972;0.004562;0.0;155.1;158.7;0.0;5.3;5.7
2.0;1753875098.962684;17.278865;0.82;-1.74;-0.44;-0.043302;-1.020887;0.003919;0.0;155.0;153.4;0.0;3.6;6.1
2.0;1753875098.967422;17.293318;0.86;-1.62;-0.39;-0.041496;-1.021363;0.003806;0.0;151.8;149.9;0.0;5.5;2.0
2.0;1753875098.972159;17.285947;0.79;-1.73;-0.33;-0.04357;-1.021533;0.003861;0.0;167.4;151.7;0.0;3.9;5.1
2.0;1753875098.976896;17.276137;0.88;-1.65;-0.39;-0.043644;-1.020618;0.004874;0.0;153.4;151.8;0.0;3.6;4.5
2.0;1753875098.981633;17.26647;0.82;-1.73;-0.35;-0.04425;-1.021142;0.003134;0.0;144.1;160.0;0.0;4.5;4.4
2.0;1753875098.98637;17.290568;0.76;-1.69;-0.35;-0.044707;-1.019986;0.002902;0.0;147.1;160.8;0.0;5.5;4.7
2.0;1753875098.991107;17.285311;0.75;-1.62;-0.39;-0.043703;-1.021551;0.003607;0.0;156.8;153.9;0.0;4.3;7.2
2.0;1753875098.99914;17.28125;0.84;-1.68;-0.35;-0.04392;-1.020896;0.003538;0.0;154.0;154.0;0.0;5.0;5.0
2.0;1753875099.003877;17.292842;0.79;-1.69;-0.35;-0.043126;-1.020834;0.004434;0.0;153.0;151.5;0.0;4.7;5.2
2.0;1753875099.008614;17.274579;0.89;-1.63;-0.29;-0.043991;-1.020398;0.002169;0.0;152.6;153.7;0.0;4.8;5.3
2.0;1753875099.013352;17.277452;0.82;-1.64;-0.37;-0.043751;-1.020456;0.004125;0.0;150.2;152.5;0.0;4.9;3.9
2.0;1753875099.018088;17.279752;0.65;-1.66;-0.27;-0.043676;-1.020828;0.003177;0.0;156.8;149.8;0.0;4.9;5.6
2.0;1753875099.022826;17.293584;0.83;-1.71;-0.38;-0.042537;-1.021786;0.004085;0.0;156.8;153.5;0.0;4.9;4.4
2.0;1753875099.027563;17.275797;0.8;-1.72;-0.37;-0.044596;-1.02018;0.004526;0.0;153.2;155.2;0.0;4.6;5.1
2.0;1753875099.0323;17.278798;0.63;-1.71;-0.35;-0.043674;-1.020749;0.002228;0.0;152.5;155.2;0.0;4.6;4.8
2.0;1753875099.037037;17.282346;0.85;-1.7;-0.34;-0.044091;-1.021409;0.003242;0.0;154.3;152.8;0.0;4.7;5.2
2.0;1753875099.041774;17.27881;0.76;-1.69;-0.4;-0.044165;-1.021713;0.004158;0.0;157.1;156.4;0.0;5.3;4.5
2.0;1753875099.046512;17.297604;0.84;-1.71;-0.32;-0.042118;-1.020587;0.002612;0.0;155.6;154.3;0.0;5.0;4.5
2.0;1753875099.051248;17.292838;0.83;-1.68;-0.35;-0.043321;-1.021625;0.002771;0.0;152.6;154.4;0.0;5.0;4.7
2.0;1753875099.055986;17.275624;0.86;-1.76;-0.36;-0.044631;-1.021732;0.002908;0.0;154.5;156.4;0.0;5.1;5.1
2.0;1753875099.060723;17.278538;0.8;-1.66;-0.45;-0.044159;-1.021777;0.003032;0.0;156.1;154.4;0.0;4.6;4.5
2.0;1753875099.06546;17.283907;0.86;-1.69;-0.3;-0.043654;-1.021272;0.004173;0.0;150.9;154.7;0.0;4.5;5.1
2.0;1753875099.070197;17.266387;0.82;-1.7;-0.37;-0.043246;-1.020308;0.003198;0.0;154.4;154.1;0.0;4.6;4.2
2.0;1753875099.074934;17.274595;0.83;-1.73;-0.41;-0.045006;-1.020559;0.003102;0.0;155.4;155.1;0.0;4.8;4.4
2.0;1753875099.079672;17.275251;0.9;-1.68;-0.28;-0.04568;-1.021197;0.003152;0.0;157.4;151.6;0.0;5.9;5.8
2.0;1753875099.084408;17.29405;0.8;-1.64;-0.3;-0.042457;-1.022186;0.002653;0.0;156.5;153.4;0.0;4.1;5.5
2.0;1753875099.089146;17.285963;0.82;-1.65;-0.25;-0.044357;-1.020281;0.003309;0.0;158.0;152.5;0.0;4.9;4.9
2.0;1753875099.093883;17.279189;0.77;-1.71;-0.27;-0.044148;-1.020285;0.003147;0.0;151.4;156.9;0.0;4.5;3.6
2.0;1753875099.09862;17.28194;0.83;-1.65;-0.31;-0.04285;-1.021311;0.004582;0.0;153.0;153.9;0.0;4.3;5.1
2.0;1753875099.103357;17.283072;0.99;-1.66;-0.27;-0.044381;-1.022034;0.003702;0.0;153.1;157.4;0.0;4.5;4.6
2.0;1753875099.108094;17.282018;0.76;-1.68;-0.29;-0.04368;-1.020109;0.003529;0.0;154.8;153.4;0.0;5.0;4.7
2.0;1753875099.112831;17.276449;0.81;-1.66;-0.33;-0.043446;-1.0222;0.002188;0.0;152.8;157.1;0.0;5.1;5.5
2.0;1753875099.117568;17.274712;0.76;-1.7;-0.38;-0.044087;-1.020879;0.004499;0.0;153.7;154.2;0.0;4.4;5.1
2.0;1753875099.122306;17.278445;0.76;-1.65;-0.38;-0.042698;-1.02178;0.003234;0.0;156.5;159.3;0.0;4.0;5.7
2.0;1753875099.127043;17.278263;0.84;-1.71;-0.32;-0.04402;-1.021423;0.004114;0.0;157.2;154.9;0.0;5.1;5.1
2.0;1753875099.13178;17.26486;0.7;-1.7;-0.3;-0.042378;-1.021669;0.004478;0.0;152.9;156.8;0.0;4.6;5.1
2.0;1753875099.136517;17.295215;0.76;-1.66;-0.35;-0.044422;-1.020578;0.005096;0.0;157.1;160.1;0.0;4.7;5.0
2.0;1753875099.141254;17.285374;0.73;-1.64;-0.39;-0.0432;-1.020943;0.00324;0.0;154.1;156.3;0.0;4.7;5.4
2.0;1753875099.145991;17.271445;0.69;-1.68;-0.33;-0.044506;-1.020373;0.003291;0.0;150.4;157.5;0.0;4.9;5.4
2.0;1753875099.150728;17.283217;0.73;-1.66;-0.38;-0.04383;-1.020582;0.003617;0.0;154.5;154.8;0.0;4.7;5.9
2.0;1753875099.155466;17.270192;0.82;-1.7;-0.29;-0.042133;-1.02074;0.003914;0.0;155.2;156.8;0.0;4.8;4.2
2.0;1753875099.160203;17.26284;0.85;-1.68;-0.37;-0.044014;-1.020975;0.003524;0.0;157.9;159.4;0.0;5.5;5.2
2.0;1753875099.16494;17.291126;0.77;-1.7;-0.32;-0.044082;-1.019683;0.004609;0.0;153.0;158.1;0.0;5.1;5.5
2.0;1753875099.169677;17.279588;0.9;-1.69;-0.31;-0.043096;-1.019989;0.004802;0.0;152.2;154.7;0.0;5.6;5.4
2.0;1753875099.174414;17.274288;0.84;-1.7;-0.36;-0.044237;-1.019996;0.004542;0.0;156.0;150.7;0.0;5.1;4.2
2.0;1753875099.179151;17.286146;0.75;-1.64;-0.37;-0.042736;-1.021177;0.003517;0.0;156.6;158.5;0.0;5.6;5.2
2.0;1753875099.183888;17.281401;0.77;-1.62;-0.27;-0.043178;-1.021341;0.003755;0.0;154.6;153.2;0.0;4.9;4.8
2.0;1753875099.188626;17.272049;0.84;-1.69;-0.26;-0.04274;-1.021842;0.003322;0.0;150.9;156.3;0.0;4.8;5.3
2.0;1753875099.193363;17.279592;0.89;-1.67;-0.35;-0.041657;-1.020334;0.004047;0.0;155.7;156.5;0.0;5.2;5.0
2.0;1753875099.1981;17.272393;0.77;-1.73;-0.34;-0.043405;-1.020909;0.003482;0.0;154.6;155.6;0.0;4.5;5.0
2.0;1753875099.202837;17.292683;0.85;-1.68;-0.36;-0.043248;-1.022971;0.003036;0.0;156.3;158.6;0.0;4.8;4.5
2.0;1753875099.207574;17.289059;0.91;-1.67;-0.32;-0.042793;-1.021049;0.004268;0.0;153.4;152.1;0.0;5.2;4.7
2.0;1753875099.212311;17.293955;0.87;-1.68;-0.38;-0.044732;-1.021249;0.00435;0.0;154.6;150.7;0.0;5.4;4.9
2.0;1753875099.217048;17.277032;0.78;-1.62;-0.37;-0.043881;-1.020463;0.003863;0.0;154.6;156.1;0.0;4.8;5.3
2.0;1753875099.221786;17.292542;0.74;-1.7;-0.33;-0.042729;-1.021187;0.004192;0.0;153.2;156.4;0.0;5.0;5.2
2.0;1753875099.226523;17.269124;0.87;-1.64;-0.29;-0.042478;-1.020663;0.002543;0.0;155.3;153.4;0.0;4.9;5.7
2.0;1753875099.23126;17.263648;0.8;-1.69;-0.26;-0.043436;-1.021218;0.003727;0.0;155.0;152.4;0.0;5.0;4.8
2.0;1753875099.235997;17.267013;0.74;-1.7;-0.31;-0.04246;-1.021027;0.002954;0.0;158.2;159.8;0.0;5.7;5.4
2.0;1753875099.240734;17.274272;0.85;-1.69;-0.3;-0.042596;-1.021059;0.002456;0.0;156.5;151.6;0.0;4.9;5.5
2.0;1753875099.245471;17.288523;0.89;-1.61;-0.35;-0.041566;-1.021821;0.004872;0.0;154.1;156.3;0.0;5.3;4.7
2.0;1753875099.250208;17.280585;0.88;-1.64;-0.28;-0.042562;-1.0208;0.004167;0.0;154.6;155.1;0.0;4.6;5.0
2.0;1753875099.254946;17.272455;0.75;-1.68;-0.43;-0.042888;-1.021324;0.003541;0.0;150.4;155.4;0.0;5.2;4.7
2.0;1753875099.259683;17.280191;0.83;-1.64;-0.44;-0.043402;-1.020953;0.00379;0.0;156.9;150.3;0.0;5.0;4.9
2.0;1753875099.26442;17.28909;0.75;-1.69;-0.28;-0.041764;-1.020199;0.005458;0.0;157.9;156.1;0.0;5.1;5.5
2.0;1753875099.269157;17.275487;0.82;-1.62;-0.35;-0.042064;-1.020383;0.003728;0.0;154.4;158.0;0.0;5.1;4.8
2.0;1753875099.273894;17.268464;0.87;-1.78;-0.43;-0.041467;-1.020858;0.005067;0.0;155.0;153.0;0.0;6.0;4.5
2.0;1753875099.278631;17.268602;0.92;-1.62;-0.31;-0.0427;-1.021801;0.002676;0.0;156.4;152.5;0.0;5.0;5.3
2.0;1753875099.283368;17.292494;0.78;-1.55;-0.33;-0.042459;-1.021231;0.003332;0.0;157.9;154.0;0.0;4.8;4.8
2.0;1753875099.288106;17.278645;0.82;-1.74;-0.32;-0.042471;-1.020297;0.003787;0.0;158.2;153.9;0.0;5.5;4.9
2.0;1753875099.292843;17.274662;0.8;-1.6;-0.36;-0.04189;-1.020843;0.0022;0.0;158.3;151.9;0.0;4.8;5.1
2.0;1753875099.29758;17.278732;0.77;-1.66;-0.45;-0.044321;-1.020838;0.003172;0.0;156.6;148.7;0.0;5.0;4.5
2.0;1753875099.302317;17.277122;0.85;-1.71;-0.35;-0.043688;-1.020873;0.004095;0.0;157.5;153.7;0.0;4.2;5.0
2.0;1753875099.307054;17.279028;0.75;-1.58;-0.34;-0.043756;-1.019824;0.003205;0.0;155.3;156.4;0.0;4.3;4.9
2.0;1753875099.311791;17.27025;0.82;-1.67;-0.31;-0.041827;-1.021825;0.003333;0.0;154.4;158.1;0.0;4.9;4.4
2.0;1753875099.316528;17.275101;0.78;-1.69;-0.32;-0.043979;-1.020957;0.003972;0.0;154.5;154.1;0.0;5.0;4.8
2.0;1753875099.321266;17.289073;0.72;-1.74;-0.34;-0.042149;-1.021918;0.004273;0.0;153.7;154.1;0.0;5.1;4.6
2.0;1753875099.326002;17.278942;0.9;-1.68;-0.4;-0.043199;-1.020984;0.004168;0.0;150.1;157.4;0.0;5.3;5.3
2.0;1753875099.33074;17.283918;0.86;-1.65;-0.26;-0.042626;-1.021666;0.00389;0.0;155.4;153.5;0.0;5.7;4.3
2.0;1753875099.335477;17.272983;0.85;-1.73;-0.31;-0.042421;-1.020515;0.00335;0.0;158.6;152.8;0.0;4.9;5.0
2.0;1753875099.340214;17.29607;0.78;-1.65;-0.3;-0.041774;-1.021009;0.004054;0.0;157.4;158.3;0.0;5.8;4.4
2.0;1753875099.344951;17.272578;0.81;-1.65;-0.35;-0.044234;-1.021291;0.00377;0.0;158.9;155.9;0.0;5.0;5.5
2.0;1753875099.349688;17.272744;0.79;-1.72;-0.37;-0.042086;-1.021324;0.004604;0.0;151.4;155.6;0.0;5.5;4.6
2.0;1753875099.354426;17.274193;0.82;-1.67;-0.28;-0.042585;-1.020799;0.003995;0.0;159.3;154.7;0.0;5.2;5.0
2.0;1753875099.359162;17.261262;0.75;-1.67;-0.3;-0.042479;-1.021292;0.003812;0.0;159.4;154.6;0.0;4.8;4.7
2.0;1753875099.3639;17.281657;0.77;-1.64;-0.31;-0.043777;-1.020196;0.004313;0.0;155.7;158.3;0.0;5.7;5.3
2.0;1753875099.368637;17.283099;0.74;-1.62;-0.25;-0.042692;-1.021406;0.002987;0.0;157.0;157.4;0.0;4.7;4.9
2.0;1753875099.373374;17.286791;0.72;-1.64;-0.34;-0.043994;-1.021431;0.002974;0.0;156.1;157.4;0.0;5.5;5.5
2.0;1753875099.378111;17.282271;0.8;-1.68;-0.47;-0.042283;-1.020412;0.004392;0.0;161.5;159.2;0.0;4.6;5.6
2.0;1753875099.382848;17.263366;0.75;-1.66;-0.41;-0.043057;-1.021766;0.003673;0.0;154.8;152.6;0.0;4.9;4.9
2.0;1753875099.387586;17.276245;0.75;-1.65;-0.37;-0.043143;-1.022104;0.003567;0.0;155.7;158.6;0.0;4.8;4.9
2.0;1753875099.392322;17.278762;0.79;-1.66;-0.42;-0.043424;-1.021549;0.003118;0.0;153.8;157.5;0.0;4.4;4.9
2.0;1753875099.39706;17.28243;0.74;-1.69;-0.36;-0.042433;-1.021005;0.003293;0.0;156.9;160.0;0.0;5.2;5.8
2.0;1753875099.401797;17.282245;0.88;-1.65;-0.33;-0.042341;-1.020739;0.003834;0.0;154.7;158.6;0.0;5.1;4.5
2.0;1753875099.406534;17.278792;0.79;-1.65;-0.31;-0.043349;-1.02086;0.004169;0.0;155.3;156.4;0.0;5.4;5.0
2.0;1753875099.411271;17.300104;0.79;-1.66;-0.27;-0.042411;-1.022657;0.00278;0.0;156.3;159.3;0.0;5.4;4.9
2.0;1753875099.416008;17.287692;0.78;-1.57;-0.38;-0.041626;-1.021002;0.004382;0.0;158.3;150.8;0.0;5.1;4.9
2.0;1753875099.420745;17.283017;0.78;-1.65;-0.3;-0.043915;-1.019754;0.003188;0.0;153.4;156.7;0.0;5.0;4.6
2.0;1753875099.425482;17.294806;0.72;-1.62;-0.31;-0.043152;-1.020633;0.003193;0.0;158.5;152.8;0.0;4.7;5.0
2.0;1753875099.43022;17.288951;0.76;-1.63;-0.28;-0.042137;-1.022059;0.004325;0.0;155.2;156.8;0.0;5.0;5.1
2.0;1753875099.434957;17.286018;0.79;-1.6;-0.37;-0.043006;-1.021737;0.003941;0.0;158.9;158.0;0.0;4.8;4.5
2.0;1753875099.439694;17.285224;0.91;-1.65;-0.34;-0.04214;-1.020227;0.005141;0.0;156.3;155.4;0.0;5.2;5.7
2.0;1753875099.444431;17.260979;0.68;-1.64;-0.32;-0.043302;-1.020515;0.003734;0.0;157.2;155.0;0.0;5.2;4.3
2.0;1753875099.449168;17.283232;0.75;-1.66;-0.33;-0.042496;-1.020887;0.00499;0.0;153.4;159.6;0.0;4.8;5.1
2.0;1753875099.453905;17.280482;0.81;-1.68;-0.36;-0.042819;-1.021402;0.004138;0.0;155.3;153.3;0.0;5.1;5.0
2.0;1753875099.458642;17.292899;0.72;-1.67;-0.35;-0.04234;-1.021964;0.003335;0.0;153.8;157.9;0.0;5.5;4.8
2.0;1753875099.46338;17.282009;0.83;-1.61;-0.38;-0.041731;-1.020817;0.004007;0.0;153.2;157.1;0.0;4.7;5.0
2.0;1753875099.468117;17.295322;0.75;-1.67;-0.36;-0.04433;-1.019966;0.003123;0.0;156.2;155.5;0.0;5.3;4.7
2.0;1753875099.472854;17.278956;0.85;-1.65;-0.45;-0.04091;-1.020812;0.002641;0.0;152.7;157.6;0.0;5.2;5.0
2.0;1753875099.477591;17.276374;0.77;-1.64;-0.41;-0.041304;-1.021816;0.003734;0.0;156.3;158.0;0.0;4.8;4.6
2.0;1753875099.482328;17.289466;0.74;-1.57;-0.29;-0.044715;-1.020973;0.002528;0.0;157.1;156.1;0.0;5.2;5.5
2.0;1753875099.487065;17.279232;0.93;-1.71;-0.31;-0.041702;-1.020317;0.005621;0.0;160.5;155.7;0.0;4.6;5.0
2.0;1753875099.491802;17.298252;0.78;-1.66;-0.35;-0.042068;-1.020701;0.00306;0.0;156.3;154.6;0.0;5.2;5.0
2.0;1753875099.49654;17.259621;0.88;-1.64;-0.26;-0.043777;-1.022812;0.004049;0.0;157.6;154.9;0.0;4.8;4.8
2.0;1753875099.501277;17.260614;0.75;-1.58;-0.37;-0.042458;-1.022187;0.004691;0.0;160.3;160.1;0.0;5.1;4.7
2.0;1753875099.506014;17.270195;0.77;-1.68;-0.42;-0.041676;-1.020507;0.004075;0.0;156.0;160.2;0.0;4.5;5.0
2.0;1753875099.510751;17.262239;0.73;-1.65;-0.39;-0.043645;-1.021497;0.004354;0.0;157.0;157.5;0.0;4.8;5.7
2.0;1753875099.515488;17.291432;0.85;-1.61;-0.21;-0.042626;-1.021003;0.003297;0.0;159.5;156.6;0.0;5.1;4.5
2.0;1753875099.520225;17.284827;0.88;-1.61;-0.38;-0.043337;-1.021134;0.004141;0.0;158.3;158.1;0.0;5.1;5.2
2.0;1753875099.524962;17.291156;0.69;-1.57;-0.33;-0.041768;-1.021076;0.003106;0.0;154.7;157.5;0.0;5.5;5.0
2.0;1753875099.5297;17.275383;0.73;-1.69;-0.36;-0.041704;-1.02211;0.00317;0.0;159.3;157.3;0.0;4.9;5.3
2.0;1753875099.534437;17.278782;0.77;-1.66;-0.33;-0.041869;-1.021449;0.004032;0.0;155.7;158.1;0.0;4.8;5.7
2.0;1753875099.539174;17.270052;0.7;-1.59;-0.42;-0.041816;-1.020644;0.00362;0.0;159.1;151.1;0.0;5.7;5.4
2.0;1753875099.543911;17.279777;0.59;-1.59;-0.43;-0.042034;-1.021609;0.005062;0.0;154.6;162.1;0.0;5.0;4.8
2.0;1753875099.548648;17.276526;0.82;-1.69;-0.29;-0.043559;-1.020165;0.003777;0.0;158.6;158.0;0.0;4.8;5.0
2.0;1753875099.553385;17.291585;0.92;-1.6;-0.28;-0.042306;-1.02166;0.003966;0.0;156.1;157.6;0.0;4.6;5.1
2.0;1753875099.558122;17.278486;0.76;-1.63;-0.37;-0.043271;-1.020689;0.003806;0.0;160.3;159.6;0.0;5.3;4.3
2.0;1753875099.56286;17.276234;0.8;-1.63;-0.28;-0.043869;-1.021724;0.004443;0.0;158.9;157.6;0.0;4.8;5.1
2.0;1753875099.567597;17.277693;0.81;-1.66;-0.35;-0.042198;-1.021138;0.003018;0.0;160.7;156.6;0.0;5.2;4.9
2.0;1753875099.572334;17.277076;0.64;-1.63;-0.34;-0.042476;-1.021382;0.003895;0.0;156.7;159.4;0.0;4.5;5.0
2.0;1753875099.577071;17.276327;0.79;-1.61;-0.36;-0.04321;-1.020921;0.003669;0.0;161.3;158.3;0.0;5.0;5.5
2.0;1753875099.581808;17.28209;0.77;-1.69;-0.31;-0.042845;-1.021198;0.003755;0.0;155.4;155.8;0.0;5.6;4.7
2.0;1753875099.586545;17.279281;0.7;-1.62;-0.33;-0.042689;-1.020859;0.0041;0.0;154.0;158.2;0.0;5.5;4.4
2.0;1753875099.591282;17.277663;0.89;-1.62;-0.36;-0.043092;-1.021058;0.00518;0.0;156.0;156.9;0.0;6.0;5.1
2.0;1753875099.59602;17.295472;0.74;-1.64;-0.4;-0.041972;-1.021788;0.004973;0.0;155.5;153.4;0.0;4.2;4.8
2.0;1753875099.600757;17.2742;0.7;-1.67;-0.34;-0.041794;-1.020315;0.004509;0.0;156.5;160.0;0.0;4.9;4.6
2.0;1753875099.605494;17.292529;0.74;-1.65;-0.35;-0.042476;-1.021856;0.003801;0.0;157.1;153.6;0.0;4.3;5.1
2.0;1753875099.610231;17.289853;0.74;-1.65;-0.33;-0.042535;-1.021495;0.003776;0.0;156.1;157.8;0.0;5.0;5.3
2.0;1753875099.614968;17.288548;0.79;-1.62;-0.41;-0.040929;-1.020876;0.003793;0.0;154.2;156.7;0.0;4.6;5.0
2.0;1753875099.619705;17.292371;0.73;-1.62;-0.4;-0.040773;-1.021928;0.003697;0.0;156.9;157.2;0.0;4.9;5.0
2.0;1753875099.624442;17.289895;0.64;-1.67;-0.35;-0.042294;-1.021169;0.004659;0.0;159.2;156.5;0.0;5.1;5.5
2.0;1753875099.62918;17.278078;0.73;-1.65;-0.31;-0.041934;-1.021146;0.004035;0.0;156.0;158.6;0.0;4.7;5.4
2.0;1753875099.633916;17.281914;0.78;-1.68;-0.33;-0.040871;-1.021125;0.005174;0.0;158.8;159.8;0.0;5.4;5.0
2.0;1753875099.638654;17.284162;0.92;-1.64;-0.45;-0.043238;-1.021109;0.005228;0.0;158.1;155.8;0.0;4.5;5.3
2.0;1753875099.643391;17.284153;0.82;-1.62;-0.4;-0.043002;-1.020102;0.005226;0.0;156.9;162.4;0.0;5.2;4.1
2.0;1753875099.648128;17.274026;0.82;-1.66;-0.39;-0.040612;-1.021067;0.003679;0.0;160.2;158.5;0.0;5.3;5.6
2.0;1753875099.652865;17.286853;0.83;-1.6;-0.3;-0.041918;-1.020575;0.004796;0.0;161.8;155.5;0.0;5.1;4.2
2.0;1753875099.657602;17.29434;0.7;-1.63;-0.25;-0.042455;-1.021563;0.003805;0.0;160.5;158.2;0.0;4.9;4.8
2.0;1753875099.66234;17.296056;0.77;-1.56;-0.37;-0.042117;-1.021098;0.003635;0.0;153.9;159.8;0.0;4.9;4.9
2.0;1753875099.667076;17.26649;0.77;-1.56;-0.32;-0.043107;-1.022082;0.004552;0.0;160.6;156.7;0.0;5.3;5.0
2.0;1753875099.671814;17.280397;0.7;-1.6;-0.35;-0.042258;-1.020351;0.004508;0.0;160.1;163.9;0.0;5.2;4.8
2.0;1753875099.676551;17.268735;0.72;-1.66;-0.28;-0.042085;-1.020965;0.003868;0.0;155.3;155.4;0.0;5.7;5.2
2.0;1753875099.681288;17.274823;0.72;-1.63;-0.29;-0.042166;-1.021052;0.004249;0.0;156.0;156.7;0.0;4.7;4.8
2.0;1753875099.686025;17.258025;0.75;-1.59;-0.27;-0.041312;-1.02143;0.004064;0.0;158.2;158.6;0.0;5.3;5.8
2.0;1753875099.690762;17.296747;0.73;-1.66;-0.3;-0.042195;-1.021832;0.004256;0.0;159.2;153.6;0.0;4.9;4.6
2.0;1753875099.6955;17.268647;0.85;-1.69;-0.31;-0.041973;-1.021224;0.003264;0.0;160.0;154.6;0.0;5.7;5.8
2.0;1753875099.700236;17.27122;0.74;-1.63;-0.38;-0.043359;-1.021361;0.00438;0.0;152.9;156.9;0.0;5.1;4.3
2.0;1753875099.704974;17.26482;0.8;-1.68;-0.34;-0.041708;-1.021063;0.005254;0.0;153.9;155.1;0.0;5.3;4.7
2.0;1753875099.709711;17.292179;0.79;-1.61;-0.37;-0.041322;-1.020059;0.004326;0.0;155.7;155.4;0.0;4.5;5.3
2.0;1753875099.714448;17.269224;0.71;-1.56;-0.35;-0.041358;-1.02087;0.003556;0.0;155.8;157.5;0.0;5.2;5.5
2.0;1753875099.719185;17.290888;0.8;-1.66;-0.36;-0.041862;-1.020871;0.00405;0.0;153.5;155.7;0.0;4.8;5.0
2.0;1753875099.723922;17.278617;0.79;-1.66;-0.39;-0.040514;-1.02135;0.004824;0.0;157.8;158.8;0.0;4.6;5.1
2.0;1753875099.72866;17.274778;0.63;-1.63;-0.4;-0.042344;-1.02115;0.00528;0.0;162.5;157.0;0.0;4.6;4.9
2.0;1753875099.733396;17.289287;0.65;-1.66;-0.4;-0.042552;-1.020188;0.004206;0.0;158.2;156.1;0.0;4.9;5.1
2.0;1753875099.738134;17.293746;0.72;-1.65;-0.37;-0.040966;-1.020768;0.004529;0.0;159.1;160.6;0.0;5.0;5.3
2.0;1753875099.742871;17.27205;0.76;-1.63;-0.31;-0.042837;-1.021318;0.00289;0.0;158.1;157.2;0.0;5.9;5.2
2.0;1753875099.747608;17.287009;0.81;-1.64;-0.37;-0.041133;-1.020668;0.003257;0.0;154.4;158.9;0.0;5.6;4.6
2.0;1753875099.752345;17.288063;0.66;-1.61;-0.35;-0.04113;-1.022492;0.00545;0.0;162.3;158.4;0.0;5.1;4.5
2.0;1753875099.757082;17.279005;0.63;-1.57;-0.32;-0.042149;-1.020706;0.00399;0.0;159.4;159.6;0.0;4.5;5.0
2.0;1753875099.761819;17.277708;0.71;-1.66;-0.34;-0.041916;-1.021553;0.005184;0.0;157.6;159.8;0.0;4.6;4.2
2.0;1753875099.766556;17.277384;0.72;-1.64;-0.33;-0.04213;-1.02089;0.003922;0.0;159.0;160.8;0.0;5.0;4.6
2.0;1753875099.771294;17.295308;0.81;-1.59;-0.42;-0.040523;-1.020906;0.004181;0.0;162.6;158.4;0.0;5.6;5.1
2.0;1753875099.776031;17.277987;0.72;-1.65;-0.38;-0.040251;-1.021405;0.00467;0.0;159.8;157.7;0.0;5.8;5.2
2.0;1753875099.780768;17.264655;0.75;-1.59;-0.31;-0.042529;-1.020324;0.003779;0.0;155.6;160.5;0.0;4.5;4.7
2.0;1753875099.785505;17.279347;0.77;-1.66;-0.39;-0.040613;-1.020416;0.004082;0.0;158.8;158.7;0.0;4.9;4.3
2.0;1753875099.790242;17.290988;0.76;-1.59;-0.33;-0.040908;-1.021561;0.004167;0.0;161.0;159.2;0.0;5.2;4.8
2.0;1753875099.794979;17.276741;0.74;-1.67;-0.31;-0.04165;-1.021237;0.005603;0.0;155.3;157.5;0.0;4.8;6.0
2.0;1753875099.799716;17.271472;0.71;-1.6;-0.45;-0.041571;-1.020956;0.003741;0.0;158.4;155.9;0.0;5.7;5.4
2.0;1753875099.804454;17.27494;0.74;-1.67;-0.32;-0.042369;-1.021034;0.00434;0.0;155.7;161.5;0.0;5.1;5.3
2.0;1753875099.809191;17.259257;0.78;-1.56;-0.31;-0.041676;-1.021302;0.004304;0.0;162.0;156.2;0.0;5.0;4.9
2.0;1753875099.813928;17.276658;0.73;-1.59;-0.39;-0.041836;-1.020946;0.005076;0.0;158.4;161.2;0.0;5.5;4.7
2.0;1753875099.818665;17.281163;0.82;-1.62;-0.36;-0.040076;-1.021649;0.003991;0.0;161.6;159.0;0.0;4.8;5.2
2.0;1753875099.823402;17.283864;0.85;-1.61;-0.25;-0.041091;-1.022145;0.005013;0.0;157.3;158.8;0.0;5.4;4.7
2.0;1753875099.828139;17.270125;0.78;-1.6;-0.35;-0.041976;-1.022368;0.005159;0.0;159.7;158.1;0.0;4.9;5.3
2.0;1753875099.832876;17.273618;0.8;-1.64;-0.31;-0.041092;-1.021213;0.003543;0.0;162.9;158.5;0.0;5.1;4.6
2.0;1753875099.837614;17.275008;0.77;-1.63;-0.32;-0.041857;-1.021344;0.003647;0.0;156.8;161.5;0.0;5.0;5.0
2.0;1753875099.842351;17.280189;0.83;-1.55;-0.27;-0.042214;-1.021112;0.004202;0.0;159.3;159.7;0.0;5.2;5.7
2.0;1753875099.847088;17.29179;0.67;-1.6;-0.36;-0.040928;-1.020674;0.003282;0.0;156.1;156.5;0.0;4.9;4.4
2.0;1753875099.851825;17.275609;0.69;-1.59;-0.33;-0.040034;-1.02108;0.005209;0.0;158.2;160.5;0.0;4.9;4.9
2.0;1753875099.856562;17.294197;0.76;-1.62;-0.31;-0.041333;-1.020784;0.004027;0.0;158.1;160.0;0.0;4.7;5.0
2.0;1753875099.861299;17.284391;0.47;-1.58;-0.38;-0.042732;-1.020622;0.004013;0.0;158.1;156.9;0.0;4.1;5.3
2.0;1753875099.866036;17.288497;0.66;-1.68;-0.34;-0.040446;-1.021191;0.004092;0.0;157.3;159.6;0.0;4.5;5.0
2.0;1753875099.870774;17.275429;0.69;-1.6;-0.34;-0.041721;-1.020557;0.003724;0.0;161.5;162.3;0.0;4.7;4.3
2.0;1753875099.875511;17.295683;0.67;-1.7;-0.31;-0.041594;-1.019998;0.002971;0.0;159.5;157.7;0.0;4.2;4.8
2.0;1753875099.880248;17.285507;0.66;-1.64;-0.33;-0.042106;-1.021577;0.003565;0.0;161.2;155.4;0.0;5.0;4.7
2.0;1753875099.884985;17.274312;0.84;-1.64;-0.32;-0.04028;-1.021003;0.005011;0.0;158.2;157.1;0.0;4.1;5.3
2.0;1753875099.889722;17.287544;0.68;-1.67;-0.34;-0.040996;-1.020913;0.002508;0.0;161.2;159.0;0.0;4.9;5.3
2.0;1753875099.894459;17.280006;0.69;-1.61;-0.34;-0.041645;-1.020625;0.004033;0.0;160.0;157.7;0.0;5.1;5.6
2.0;1753875099.899196;17.28149;0.75;-1.64;-0.36;-0.040984;-1.021556;0.004247;0.0;159.7;160.8;0.0;5.4;4.9
2.0;1753875099.903934;17.29379;0.64;-1.65;-0.36;-0.03959;-1.022177;0.004437;0.0;158.0;156.9;0.0;4.3;4.8
2.0;1753875099.908671;17.284656;0.77;-1.66;-0.33;-0.042052;-1.020749;0.00325;0.0;162.1;161.3;0.0;5.4;5.1
2.0;1753875099.913408;17.265283;0.67;-1.56;-0.42;-0.040421;-1.021368;0.004068;0.0;161.9;159.2;0.0;4.6;4.4
2.0;1753875099.918145;17.273021;0.63;-1.59;-0.4;-0.040455;-1.021903;0.003403;0.0;157.9;157.3;0.0;5.3;4.8
2.0;1753875099.922882;17.295281;0.71;-1.59;-0.44;-0.041337;-1.022119;0.004161;0.0;163.2;159.0;0.0;4.6;5.2
2.0;1753875099.927619;17.282801;0.63;-1.6;-0.37;-0.041278;-1.021323;0.004223;0.0;157.5;161.5;0.0;5.8;4.2
2.0;1753875099.932356;17.294758;0.67;-1.6;-0.33;-0.041379;-1.020484;0.004706;0.0;161.6;155.6;0.0;4.8;4.6
2.0;1753875099.937094;17.286641;0.77;-1.61;-0.37;-0.040978;-1.022041;0.003263;0.0;163.9;162.3;0.0;4.8;5.2
2.0;1753875099.941831;17.296244;0.66;-1.58;-0.39;-0.042532;-1.020722;0.003374;0.0;160.5;163.0;0.0;5.4;4.8
2.0;1753875099.946568;17.291076;0.62;-1.62;-0.41;-0.040096;-1.021698;0.003689;0.0;158.8;159.9;0.0;4.9;5.5
2.0;1753875099.951305;17.277421;0.81;-1.63;-0.28;-0.039142;-1.02118;0.003333;0.0;155.1;162.9;0.0;5.2;4.9
2.0;1753875099.956042;17.276671;0.68;-1.62;-0.37;-0.039582;-1.020865;0.004001;0.0;159.4;160.7;0.0;4.9;5.3
2.0;1753875099.960779;17.282373;0.74;-1.61;-0.36;-0.041126;-1.021675;0.004499;0.0;159.2;159.9;0.0;4.8;5.6
2.0;1753875099.965516;17.287015;0.63;-1.56;-0.34;-0.041732;-1.021487;0.004167;0.0;160.5;157.2;0.0;4.2;5.2
2.0;1753875099.970254;17.268399;0.69;-1.63;-0.41;-0.04137;-1.021538;0.004277;0.0;162.6;159.6;0.0;5.6;5.9
2.0;1753875099.97499;17.279242;0.83;-1.62;-0.23;-0.040332;-1.021231;0.006073;0.0;158.5;159.9;0.0;5.1;5.4
2.0;1753875099.979728;17.278668;0.71;-1.56;-0.3;-0.040154;-1.022301;0.003824;0.0;161.6;157.3;0.0;4.7;5.1
2.0;1753875099.985;17.28125;0.7;-1.61;-0.35;-0.040992;-1.021384;0.00427;0.0;160.0;160.0;0.0;5.0;5.0
2.0;1753875099.991408;17.289062;0.91;-1.68;-0.35;-0.044042;-1.022726;0.005368;0.0;166.0;166.0;0.0;6.0;6.0
2.0;1753875099.997748;17.289062;0.98;-1.68;-0.28;-0.04026;-1.021506;0.004758;0.0;166.0;166.0;0.0;6.0;6.0
2.0;1753875100.002485;17.281103;0.95;-1.74;-0.32;-0.040748;-1.020591;0.003985;0.0;166.4;162.1;0.0;5.2;6.2
2.0;1753875100.007222;17.293607;0.95;-1.71;-0.3;-0.040975;-1.021721;0.004558;0.0;166.8;164.1;0.0;4.9;5.7
2.0;1753875100.011959;17.277233;0.97;-1.6;-0.24;-0.04019;-1.021723;0.002892;0.0;169.8;164.2;0.0;5.9;6.2
2.0;1753875100.016696;17.309865;1.03;-1.69;-0.24;-0.035185;-1.021576;0.005217;0.0;164.4;164.2;0.0;4.9;5.3
2.0;1753875100.021434;17.305145;0.95;-1.61;-0.36;-0.039439;-1.021933;0.004445;0.0;164.6;162.2;0.0;6.6;6.1
2.0;1753875100.026171;17.28405;1.09;-1.62;-0.35;-0.039716;-1.021291;0.004839;0.0;167.8;170.1;0.0;6.0;5.9
2.0;1753875100.030908;17.292712;1.02;-1.71;-0.19;-0.039163;-1.022235;0.003549;0.0;166.0;165.1;0.0;6.3;6.5
2.0;1753875100.035645;17.285198;0.96;-1.68;-0.3;-0.040852;-1.020989;0.004633;0.0;168.6;168.1;0.0;5.4;7.1
2.0;1753875100.040382;17.276977;0.97;-1.68;-0.29;-0.03933;-1.021655;0.004306;0.0;167.6;164.7;0.0;5.8;5.8
2.0;1753875100.045119;17.291679;1.12;-1.6;-0.23;-0.039758;-1.022045;0.00449;0.0;166.9;164.4;0.0;6.6;5.9
2.0;1753875100.049856;17.266574;0.95;-1.64;-0.28;-0.038789;-1.022781;0.005679;0.0;164.5;164.6;0.0;6.3;6.3
2.0;1753875100.054594;17.267809;1.0;-1.74;-0.34;-0.04317;-1.020922;0.004098;0.0;166.0;164.8;0.0;6.0;5.9
2.0;1753875100.059331;17.280107;1.0;-1.67;-0.35;-0.042134;-1.021571;0.005038;0.0;166.6;167.9;0.0;6.0;7.0
2.0;1753875100.064068;17.265966;1.06;-1.69;-0.28;-0.043449;-1.022206;0.00413;0.0;165.7;162.4;0.0;5.7;6.3
2.0;1753875100.068805;17.295712;0.98;-1.57;-0.27;-0.04148;-1.021102;0.004447;0.0;167.1;164.3;0.0;6.0;6.2
2.0;1753875100.073542;17.283499;0.9;-1.64;-0.31;-0.042868;-1.020247;0.00516;0.0;163.6;165.9;0.0;6.4;6.7
2.0;1753875100.078279;17.273071;1.0;-1.73;-0.32;-0.041145;-1.021333;0.003766;0.0;166.8;170.1;0.0;7.0;6.1
2.0;1753875100.083016;17.277073;0.9;-1.66;-0.28;-0.039096;-1.020925;0.005124;0.0;165.1;162.8;0.0;7.1;5.4
2.0;1753875100.087754;17.280731;1.02;-1.63;-0.26;-0.039675;-1.022001;0.003639;0.0;162.6;169.6;0.0;5.7;5.2
2.0;1753875100.092491;17.307276;1.05;-1.69;-0.28;-0.041873;-1.021092;0.004381;0.0;164.5;164.0;0.0;6.3;6.0
2.0;1753875100.097228;17.279968;0.97;-1.67;-0.28;-0.039924;-1.021795;0.004061;0.0;162.7;167.5;0.0;5.8;5.6
2.0;1753875100.101965;17.289958;1.01;-1.71;-0.26;-0.040831;-1.023173;0.004338;0.0;162.0;165.2;0.0;6.7;6.5
2.0;1753875100.106702;17.277608;0.88;-1.65;-0.23;-0.040754;-1.021941;0.005508;0.0;166.5;166.6;0.0;5.6;6.0
2.0;1753875100.111439;17.295698;0.98;-1.69;-0.24;-0.039459;-1.022163;0.004208;0.0;164.4;163.1;0.0;6.3;5.8
2.0;1753875100.116176;17.289793;0.92;-1.61;-0.25;-0.040401;-1.022127;0.004505;0.0;166.8;167.3;0.0;5.4;6.6
2.0;1753875100.120914;17.287546;0.89;-1.68;-0.26;-0.041498;-1.021929;0.004465;0.0;167.4;168.6;0.0;6.2;6.9
2.0;1753875100.125651;17.281948;1.04;-1.67;-0.32;-0.041512;-1.022975;0.004156;0.0;167.8;164.1;0.0;5.8;5.9
2.0;1753875100.130388;17.27337;0.92;-1.74;-0.36;-0.040477;-1.022025;0.004357;0.0;168.0;167.4;0.0;6.1;5.9
2.0;1753875100.135125;17.294794;1.06;-1.62;-0.2;-0.039504;-1.021644;0.004136;0.0;167.4;164.0;0.0;5.8;6.6
2.0;1753875100.139862;17.30274;0.92;-1.65;-0.27;-0.037832;-1.021298;0.003681;0.0;165.0;168.0;0.0;6.4;6.2
2.0;1753875100.144599;17.301365;1.08;-1.73;-0.27;-0.040989;-1.021411;0.004113;0.0;162.8;167.8;0.0;5.8;5.8
2.0;1753875100.149336;17.306436;1.03;-1.66;-0.35;-0.040476;-1.023595;0.004089;0.0;169.0;162.8;0.0;6.0;6.1
2.0;1753875100.154074;17.303025;0.93;-1.65;-0.29;-0.042272;-1.020561;0.004005;0.0;165.0;162.4;0.0;6.0;6.3
2.0;1753875100.15881;17.282073;0.92;-1.61;-0.27;-0.039676;-1.022425;0.003409;0.0;165.6;166.9;0.0;6.6;4.8
2.0;1753875100.163548;17.277987;0.99;-1.67;-0.3;-0.040334;-1.019928;0.003646;0.0;167.0;164.5;0.0;5.3;6.9
2.0;1753875100.168285;17.289179;1.06;-1.57;-0.27;-0.039729;-1.023441;0.004738;0.0;165.8;165.0;0.0;6.4;5.6
2.0;1753875100.173022;17.287402;1.09;-1.6;-0.26;-0.043492;-1.022791;0.004629;0.0;166.3;168.3;0.0;5.8;6.2
2.0;1753875100.177759;17.295763;1.05;-1.59;-0.32;-0.040894;-1.021087;0.004905;0.0;165.8;162.6;0.0;5.5;5.7
2.0;1753875100.182496;17.256541;0.93;-1.66;-0.25;-0.042301;-1.021285;0.004095;0.0;167.1;164.5;0.0;6.1;5.2
2.0;1753875100.187234;17.283905;0.99;-1.76;-0.32;-0.042523;-1.021852;0.004748;0.0;167.7;165.8;0.0;6.4;4.6
2.0;1753875100.19197;17.274129;1.05;-1.67;-0.26;-0.041759;-1.020417;0.005165;0.0;168.0;169.8;0.0;6.7;6.0
2.0;1753875100.196708;17.282869;1.1;-1.55;-0.24;-0.042147;-1.022251;0.003972;0.0;166.1;167.7;0.0;6.5;5.8
2.0;1753875100.201445;17.293459;1.07;-1.76;-0.29;-0.041043;-1.022035;0.003957;0.0;165.2;166.0;0.0;6.1;5.7
2.0;1753875100.206182;17.26331;1.05;-1.73;-0.3;-0.040059;-1.021813;0.003606;0.0;168.8;165.3;0.0;6.3;6.0
2.0;1753875100.210919;17.267658;0.93;-1.71;-0.27;-0.038437;-1.022709;0.004963;0.0;165.8;166.3;0.0;6.0;5.8
2.0;1753875100.215656;17.274297;0.9;-1.77;-0.28;-0.041197;-1.021987;0.004637;0.0;166.8;168.8;0.0;5.7;6.6
2.0;1753875100.220394;17.294142;0.95;-1.75;-0.21;-0.043178;-1.022115;0.003505;0.0;166.8;164.7;0.0;5.8;6.0
2.0;1753875100.22513;17.264547;0.91;-1.76;-0.31;-0.042996;-1.022859;0.004191;0.0;168.3;163.8;0.0;6.7;6.7
2.0;1753875100.229868;17.267071;0.88;-1.68;-0.34;-0.041142;-1.021833;0.004352;0.0;168.2;161.2;0.0;6.0;6.3
2.0;1753875100.234605;17.268388;1.06;-1.62;-0.22;-0.037039;-1.020866;0.004304;0.0;165.5;166.5;0.0;5.7;6.4
2.0;1753875100.239342;17.274968;1.07;-1.63;-0.21;-0.038941;-1.022201;0.005002;0.0;168.1;162.9;0.0;6.2;5.7
2.0;1753875100.244079;17.274548;0.85;-1.73;-0.28;-0.042883;-1.022628;0.003325;0.0;164.3;168.0;0.0;5.4;5.8
2.0;1753875100.248816;17.279621;0.88;-1.67;-0.35;-0.04183;-1.021879;0.005155;0.0;169.7;165.2;0.0;5.7;6.2
2.0;1753875100.253554;17.296141;0.89;-1.65;-0.37;-0.038607;-1.022754;0.003881;0.0;164.1;163.5;0.0;7.0;5.8
2.0;1753875100.25829;17.290493;1.09;-1.75;-0.29;-0.040457;-1.023294;0.004101;0.0;165.5;165.4;0.0;6.0;6.6
2.0;1753875100.2657;17.273438;0.98;-1.68;-0.28;-0.041236;-1.022238;0.003904;0.0;166.0;166.0;0.0;6.0;6.0
2.0;1753875100.270437;17.23691;1.02;-1.71;-0.3;-0.040825;-1.022007;0.00395;0.0;167.6;164.5;0.0;6.1;5.7
2.0;1753875100.275174;17.265083;0.96;-1.7;-0.31;-0.0414;-1.02305;0.002403;0.0;168.7;168.0;0.0;5.9;6.4
2.0;1753875100.279912;17.260519;0.9;-1.71;-0.29;-0.038432;-1.022511;0.00364;0.0;165.7;167.6;0.0;6.0;6.3
2.0;1753875100.284649;17.252122;1.14;-1.7;-0.15;-0.040454;-1.022792;0.004701;0.0;167.3;167.4;0.0;4.8;6.5
2.0;1753875100.289386;17.25203;0.99;-1.7;-0.28;-0.044443;-1.020491;0.003763;0.0;165.2;164.3;0.0;6.1;5.4
2.0;1753875100.294123;17.278357;0.89;-1.73;-0.31;-0.040351;-1.022168;0.004333;0.0;168.5;166.4;0.0;6.0;5.8
2.0;1753875100.29886;17.285833;1.03;-1.64;-0.23;-0.044121;-1.022872;0.004479;0.0;165.9;164.5;0.0;6.0;5.9
2.0;1753875100.303597;17.25665;0.99;-1.61;-0.34;-0.038888;-1.022873;0.00348;0.0;167.5;160.9;0.0;5.4;6.1
2.0;1753875100.308334;17.278948;0.92;-1.67;-0.21;-0.045107;-1.022604;0.004082;0.0;164.8;169.6;0.0;6.2;6.5
2.0;1753875100.313072;17.241367;1.04;-1.75;-0.32;-0.040191;-1.021831;0.003671;0.0;165.2;166.7;0.0;5.6;7.1
2.0;1753875100.317809;17.276212;1.01;-1.63;-0.34;-0.043645;-1.023341;0.004941;0.0;167.3;168.6;0.0;5.0;6.5
2.0;1753875100.322546;17.28337;1.05;-1.68;-0.34;-0.038666;-1.021301;0.004625;0.0;165.7;163.5;0.0;5.2;6.3
2.0;1753875100.327283;17.272822;1.0;-1.85;-0.25;-0.038857;-1.021426;0.004699;0.0;164.3;172.2;0.0;5.4;5.7
2.0;1753875100.33202;17.252594;1.0;-1.63;-0.26;-0.041371;-1.022203;0.00417;0.0;165.2;170.0;0.0;5.9;6.0
2.0;1753875100.336757;17.288464;0.95;-1.65;-0.36;-0.042711;-1.021545;0.004229;0.0;167.1;166.8;0.0;5.9;5.2
2.0;1753875100.341494;17.274667;1.09;-1.72;-0.26;-0.042604;-1.022534;0.0044;0.0;164.0;166.9;0.0;7.1;5.5
2.0;1753875100.346232;17.288169;0.89;-1.73;-0.25;-0.041995;-1.021535;0.003865;0.0;165.4;167.3;0.0;6.2;6.8
2.0;1753875100.350968;17.272337;1.05;-1.76;-0.31;-0.042245;-1.021208;0.004656;0.0;165.3;168.5;0.0;6.1;5.8
2.0;1753875100.355706;17.2787;1.01;-1.66;-0.26;-0.043968;-1.022534;0.003159;0.0;166.2;166.5;0.0;6.0;5.9
2.0;1753875100.360443;17.278382;0.87;-1.74;-0.27;-0.037902;-1.022311;0.004102;0.0;164.4;162.2;0.0;6.5;5.4
2.0;1753875100.36518;17.251299;0.93;-1.62;-0.23;-0.043764;-1.023062;0.003361;0.0;166.1;169.0;0.0;6.0;5.9
2.0;1753875100.369917;17.28982;0.87;-1.73;-0.22;-0.041947;-1.022907;0.004746;0.0;162.9;164.3;0.0;6.1;6.4
2.0;1753875100.374654;17.275201;0.98;-1.7;-0.29;-0.04184;-1.022569;0.004095;0.0;167.2;165.6;0.0;6.0;5.2
2.0;1753875100.379392;17.249512;0.88;-1.75;-0.15;-0.04357;-1.022223;0.003791;0.0;167.1;165.8;0.0;6.1;5.6
2.0;1753875100.384128;17.285834;1.01;-1.69;-0.23;-0.040133;-1.021656;0.003311;0.0;164.9;167.9;0.0;5.7;6.9
2.0;1753875100.388866;17.271261;0.85;-1.68;-0.35;-0.041743;-1.022679;0.003856;0.0;166.1;168.0;0.0;5.9;5.7
2.0;1753875100.393603;17.286882;1.01;-1.62;-0.28;-0.044304;-1.020344;0.004352;0.0;165.4;166.1;0.0;5.8;5.9
2.0;1753875100.39834;17.278371;0.94;-1.71;-0.37;-0.042366;-1.023174;0.004405;0.0;163.3;170.4;0.0;5.8;5.4
2.0;1753875100.403077;17.299625;0.93;-1.68;-0.28;-0.043663;-1.021643;0.003329;0.0;164.6;165.7;0.0;5.6;5.7
2.0;1753875100.407814;17.278343;1.03;-1.82;-0.28;-0.041897;-1.023003;0.004467;0.0;163.4;163.2;0.0;6.0;6.2
2.0;1753875100.412552;17.274181;1.01;-1.65;-0.26;-0.041719;-1.022579;0.002739;0.0;162.8;167.2;0.0;5.8;5.0
2.0;1753875100.417288;17.283992;0.79;-1.67;-0.29;-0.042006;-1.021357;0.003611;0.0;163.9;164.2;0.0;6.5;5.4
2.0;1753875100.422026;17.277472;0.89;-1.68;-0.28;-0.042843;-1.021036;0.003535;0.0;162.8;167.5;0.0;5.5;5.5
2.0;1753875100.426763;17.27256;0.97;-1.66;-0.3;-0.042837;-1.022032;0.003868;0.0;167.4;166.0;0.0;5.5;5.9
2.0;1753875100.4315;17.279492;0.85;-1.81;-0.31;-0.040157;-1.022114;0.004108;0.0;167.5;168.2;0.0;5.9;5.7
2.0;1753875100.436237;17.30003;1.07;-1.67;-0.29;-0.043022;-1.022828;0.003919;0.0;167.1;164.2;0.0;6.6;6.5
2.0;1753875100.440974;17.275715;1.11;-1.7;-0.36;-0.041332;-1.022681;0.003735;0.0;163.1;165.7;0.0;6.3;6.0
2.0;1753875100.445711;17.270378;1.07;-1.77;-0.28;-0.038331;-1.023713;0.003557;0.0;165.9;165.2;0.0;5.9;5.4
2.0;1753875100.450448;17.273532;0.99;-1.74;-0.22;-0.041542;-1.021117;0.00515;0.0;165.0;167.2;0.0;5.2;5.7
2.0;1753875100.455186;17.256298;1.01;-1.69;-0.21;-0.04629;-1.022179;0.003939;0.0;168.9;163.9;0.0;6.1;5.7
2.0;1753875100.459923;17.261271;0.91;-1.67;-0.19;-0.04383;-1.021055;0.005239;0.0;164.6;168.1;0.0;5.7;5.6
2.0;1753875100.46466;17.251226;0.99;-1.77;-0.29;-0.04219;-1.021203;0.004075;0.0;164.1;164.8;0.0;5.2;5.3
2.0;1753875100.469397;17.277717;1.07;-1.73;-0.22;-0.041862;-1.021377;0.003825;0.0;167.2;168.2;0.0;6.5;6.1
2.0;1753875100.474134;17.304864;1.0;-1.66;-0.17;-0.042347;-1.022015;0.00418;0.0;162.5;162.3;0.0;6.2;5.0
2.0;1753875100.478871;17.263879;1.03;-1.71;-0.23;-0.038157;-1.021277;0.003531;0.0;167.4;169.3;0.0;5.4;5.7
2.0;1753875100.483608;17.253803;1.03;-1.68;-0.18;-0.041885;-1.022567;0.003498;0.0;166.0;168.3;0.0;6.0;5.2
2.0;1753875100.488346;17.282499;1.01;-1.75;-0.26;-0.038016;-1.022007;0.004176;0.0;163.9;159.4;0.0;5.6;5.6
2.0;1753875100.493083;17.301097;0.99;-1.72;-0.24;-0.042001;-1.021586;0.004757;0.0;166.2;163.6;0.0;6.9;5.7
2.0;1753875100.49782;17.261181;0.98;-1.77;-0.24;-0.042199;-1.023005;0.004224;0.0;166.1;167.3;0.0;6.1;5.7
2.0;1753875100.502557;17.255544;1.04;-1.63;-0.31;-0.044696;-1.022116;0.003684;0.0;165.4;166.1;0.0;6.5;5.7
2.0;1753875100.507294;17.268696;1.01;-1.74;-0.26;-0.040424;-1.020785;0.004316;0.0;162.8;162.5;0.0;5.4;6.1
2.0;1753875100.512031;17.274987;0.95;-1.76;-0.32;-0.041233;-1.022139;0.005936;0.0;166.7;160.3;0.0;5.9;5.4
2.0;1753875100.516768;17.274958;0.95;-1.7;-0.18;-0.041146;-1.022222;0.003884;0.0;164.3;170.8;0.0;5.7;6.2
2.0;1753875100.521506;17.296532;1.04;-1.68;-0.19;-0.044653;-1.023338;0.004268;0.0;164.1;165.3;0.0;6.5;5.5
2.0;1753875100.526243;17.281326;0.98;-1.81;-0.17;-0.040362;-1.020993;0.004524;0.0;163.4;164.8;0.0;6.0;5.8
2.0;1753875100.53098;17.281;1.0;-1.67;-0.37;-0.043929;-1.02285;0.005221;0.0;163.4;164.7;0.0;6.5;5.1
2.0;1753875100.535717;17.287094;1.0;-1.62;-0.21;-0.042417;-1.022581;0.003576;0.0;168.8;159.8;0.0;5.7;5.4
2.0;1753875100.540454;17.268032;1.0;-1.72;-0.26;-0.043258;-1.021478;0.004364;0.0;164.0;162.7;0.0;5.5;5.6
2.0;1753875100.545191;17.243722;1.03;-1.74;-0.14;-0.039399;-1.022354;0.00426;0.0;162.2;165.5;0.0;6.2;5.3
2.0;1753875100.549928;17.283543;0.91;-1.7;-0.19;-0.044124;-1.022252;0.003388;0.0;165.0;163.6;0.0;5.3;4.7
2.0;1753875100.554666;17.283127;1.07;-1.64;-0.22;-0.042131;-1.021026;0.003362;0.0;165.0;166.5;0.0;6.3;6.0
2.0;1753875100.559403;17.273604;0.96;-1.72;-0.21;-0.042335;-1.020886;0.004601;0.0;164.6;169.2;0.0;6.7;5.5
2.0;1753875100.56414;17.291294;0.98;-1.73;-0.25;-0.044353;-1.021117;0.003538;0.0;163.8;167.0;0.0;6.5;5.9
2.0;1753875100.568877;17.29552;0.98;-1.85;-0.25;-0.043214;-1.021977;0.003995;0.0;164.4;163.2;0.0;5.4;5.5
2.0;1753875100.573614;17.264521;0.95;-1.77;-0.2;-0.042139;-1.023088;0.003494;0.0;163.3;165.2;0.0;5.7;6.3
2.0;1753875100.578351;17.263717;1.0;-1.68;-0.18;-0.04176;-1.020545;0.004788;0.0;166.2;167.8;0.0;5.8;4.7
2.0;1753875100.583088;17.294931;1.05;-1.8;-0.27;-0.044621;-1.022686;0.00438;0.0;168.6;167.3;0.0;5.8;5.4
2.0;1753875100.587826;17.281347;1.06;-1.71;-0.15;-0.046417;-1.020745;0.003589;0.0;167.3;163.6;0.0;5.8;4.9
2.0;1753875100.592563;17.256866;1.09;-1.66;-0.22;-0.045303;-1.022021;0.004823;0.0;163.0;166.4;0.0;6.3;5.2
2.0;1753875100.5973;17.261721;0.94;-1.8;-0.22;-0.044375;-1.022877;0.004732;0.0;164.8;167.2;0.0;6.1;5.2
2.0;1753875100.602037;17.272085;0.97;-1.75;-0.14;-0.042004;-1.021842;0.003274;0.0;166.2;162.9;0.0;5.7;4.9
2.0;1753875100.606774;17.26063;1.03;-1.74;-0.21;-0.042486;-1.023259;0.004398;0.0;164.9;166.2;0.0;5.9;5.7
2.0;1753875100.611511;17.264029;0.92;-1.68;-0.23;-0.042502;-1.022323;0.003648;0.0;163.6;167.1;0.0;5.9;5.2
2.0;1753875100.616248;17.272109;1.04;-1.62;-0.28;-0.042474;-1.020672;0.003427;0.0;167.7;164.5;0.0;4.8;6.1
2.0;1753875100.620986;17.295765;0.96;-1.77;-0.19;-0.042868;-1.021027;0.004659;0.0;168.8;165.3;0.0;5.8;5.7
2.0;1753875100.625723;17.28384;1.08;-1.71;-0.2;-0.042727;-1.021511;0.005084;0.0;163.8;165.6;0.0;6.1;5.7
2.0;1753875100.63046;17.27092;1.0;-1.7;-0.21;-0.040895;-1.022133;0.004886;0.0;166.4;164.8;0.0;6.0;4.7
2.0;1753875100.635197;17.301638;1.03;-1.68;-0.21;-0.044461;-1.021262;0.003192;0.0;162.2;166.9;0.0;5.0;4.6
2.0;1753875100.639934;17.245656;1.06;-1.77;-0.3;-0.042675;-1.022514;0.003852;0.0;166.1;163.7;0.0;5.4;4.9
2.0;1753875100.644671;17.282053;0.93;-1.7;-0.25;-0.042553;-1.022355;0.004313;0.0;171.4;168.4;0.0;5.9;5.7
2.0;1753875100.649408;17.264899;0.94;-1.67;-0.29;-0.041902;-1.021329;0.00473;0.0;165.6;162.5;0.0;5.8;5.7
2.0;1753875100.654146;17.271618;1.07;-1.76;-0.21;-0.042645;-1.022461;0.004376;0.0;166.0;163.4;0.0;6.5;5.4
2.0;1753875100.658882;17.266304;0.97;-1.79;-0.26;-0.042384;-1.021487;0.005666;0.0;163.5;166.1;0.0;4.9;5.0
2.0;1753875100.66362;17.289317;1.0;-1.74;-0.21;-0.041431;-1.021781;0.004441;0.0;165.1;167.0;0.0;5.6;5.3
2.0;1753875100.668357;17.293322;0.99;-1.78;-0.18;-0.043754;-1.021321;0.004669;0.0;167.1;162.0;0.0;5.8;4.5
2.0;1753875100.673094;17.281552;0.92;-1.77;-0.28;-0.041589;-1.022798;0.005561;0.0;166.8;168.3;0.0;6.3;5.3
2.0;1753875100.677831;17.272171;0.88;-1.71;-0.24;-0.043095;-1.021514;0.003228;0.0;166.1;166.1;0.0;5.7;5.5
2.0;1753875100.682568;17.282346;1.02;-1.75;-0.26;-0.045495;-1.021246;0.005009;0.0;166.3;163.6;0.0;5.7;4.7
2.0;1753875100.687306;17.29043;0.84;-1.74;-0.09;-0.043431;-1.022742;0.004691;0.0;167.3;168.5;0.0;6.6;4.5
2.0;1753875100.692042;17.268411;0.92;-1.8;-0.23;-0.045487;-1.022578;0.003863;0.0;165.3;161.5;0.0;6.0;4.9
2.0;1753875100.69678;17.28123;0.99;-1.75;-0.21;-0.042168;-1.022297;0.004626;0.0;167.5;166.8;0.0;5.8;4.7
2.0;1753875100.701517;17.279473;0.99;-1.69;-0.18;-0.042465;-1.022403;0.00466;0.0;166.7;172.7;0.0;5.8;4.7
2.0;1753875100.706254;17.254465;1.03;-1.76;-0.25;-0.044403;-1.021542;0.004616;0.0;169.2;167.2;0.0;5.8;4.7
2.0;1753875100.710991;17.296434;0.99;-1.71;-0.29;-0.041973;-1.021353;0.004226;0.0;165.5;164.8;0.0;6.4;5.8
2.0;1753875100.715728;17.269708;1.06;-1.72;-0.22;-0.045054;-1.020504;0.003981;0.0;169.2;163.4;0.0;5.6;4.8
2.0;1753875100.720466;17.267816;1.13;-1.67;-0.16;-0.041625;-1.020122;0.004318;0.0;163.4;164.3;0.0;5.2;5.5
2.0;1753875100.725202;17.26554;1.02;-1.7;-0.2;-0.043916;-1.022173;0.004223;0.0;165.6;162.1;0.0;6.6;4.5
2.0;1753875100.72994;17.2749;0.94;-1.76;-0.25;-0.041332;-1.021606;0.004535;0.0;165.2;163.6;0.0;5.7;6.3
2.0;1753875100.734677;17.272316;0.98;-1.77;-0.14;-0.040456;-1.020947;0.004439;0.0;167.2;165.1;0.0;5.6;5.1
2.0;1753875100.739414;17.251763;0.99;-1.75;-0.22;-0.046338;-1.022449;0.005424;0.0;166.4;165.6;0.0;6.7;3.8
2.0;1753875100.744151;17.281033;0.93;-1.78;-0.18;-0.045302;-1.020875;0.004869;0.0;167.1;164.7;0.0;6.4;4.9
2.0;1753875100.748888;17.255114;0.96;-1.77;-0.17;-0.044041;-1.021335;0.004381;0.0;167.4;165.8;0.0;6.7;4.8
2.0;1753875100.753626;17.266374;1.06;-1.69;-0.18;-0.045007;-1.0212;0.004656;0.0;166.9;168.7;0.0;6.0;5.0
2.0;1753875100.758362;17.28499;0.87;-1.69;-0.17;-0.041355;-1.020775;0.004459;0.0;166.9;163.8;0.0;6.1;5.6
2.0;1753875100.7631;17.283098;1.0;-1.69;-0.3;-0.045782;-1.020838;0.004221;0.0;167.3;167.7;0.0;5.8;5.3
2.0;1753875100.767837;17.264601;1.01;-1.71;-0.2;-0.045928;-1.022124;0.0051;0.0;164.5;164.2;0.0;6.0;5.4
2.0;1753875100.772574;17.272401;0.84;-1.78;-0.14;-0.043675;-1.021008;0.004338;0.0;165.7;163.7;0.0;6.7;5.5
2.0;1753875100.777311;17.2862;0.93;-1.77;-0.24;-0.041379;-1.020793;0.005106;0.0;164.6;165.6;0.0;6.2;5.3
2.0;1753875100.782048;17.255009;0.92;-1.79;-0.24;-0.045241;-1.021462;0.005109;0.0;166.8;162.4;0.0;6.2;4.7
2.0;1753875100.786785;17.261833;0.95;-1.83;-0.17;-0.04559;-1.021597;0.004197;0.0;167.1;164.1;0.0;6.8;3.6
2.0;1753875100.7932;17.273438;0.98;-1.75;-0.21;-0.043188;-1.021384;0.004636;0.0;166.0;165.0;0.0;6.0;5.0
2.0;1753875100.797937;17.305873;0.99;-1.74;-0.26;-0.042635;-1.020823;0.003672;0.0;167.0;164.9;0.0;6.3;5.6
2.0;1753875100.802674;17.296132;0.95;-1.65;-0.2;-0.043342;-1.021015;0.004548;0.0;166.0;165.4;0.0;5.3;5.6
2.0;1753875100.807412;17.306382;0.89;-1.67;-0.28;-0.044281;-1.021836;0.00291;0.0;166.0;163.6;0.0;5.3;5.9
2.0;1753875100.81281;17.324219;0.91;-1.75;-0.28;-0.045506;-1.021628;0.002928;0.0;165.0;164.0;0.0;5.0;7.0
2.0;1753875100.817547;17.29662;0.94;-1.68;-0.28;-0.046393;-1.021291;0.002479;0.0;165.6;162.7;0.0;4.6;8.1
2.0;1753875100.822284;17.327639;0.85;-1.71;-0.24;-0.044332;-1.021518;0.003368;0.0;165.5;164.7;0.0;4.8;8.0
2.0;1753875100.827021;17.333093;0.85;-1.68;-0.27;-0.047157;-1.022255;0.003562;0.0;165.1;164.0;0.0;5.8;7.4
2.0;1753875100.831758;17.351404;0.98;-1.69;-0.23;-0.045936;-1.020264;0.003208;0.0;164.7;163.6;0.0;5.4;6.1
2.0;1753875100.836496;17.311267;0.83;-1.58;-0.31;-0.042854;-1.020567;0.002353;0.0;164.7;163.6;0.0;5.3;7.6
2.0;1753875100.841233;17.36645;0.9;-1.78;-0.34;-0.044185;-1.021478;0.003896;0.0;164.7;164.3;0.0;4.3;8.3
2.0;1753875100.84597;17.332255;0.99;-1.68;-0.34;-0.044548;-1.022305;0.004439;0.0;164.1;164.2;0.0;5.7;7.3
2.0;1753875100.850707;17.333402;0.91;-1.65;-0.28;-0.044978;-1.021982;0.003685;0.0;164.8;164.0;0.0;5.3;6.9
2.0;1753875100.855444;17.3441;0.98;-1.69;-0.3;-0.040726;-1.021769;0.004642;0.0;163.7;163.8;0.0;6.2;8.7
2.0;1753875100.860181;17.306624;0.88;-1.6;-0.36;-0.044159;-1.023022;0.003465;0.0;164.3;164.6;0.0;6.6;7.1
2.0;1753875100.864918;17.319222;0.82;-1.66;-0.31;-0.043123;-1.022368;0.004874;0.0;165.2;163.9;0.0;6.7;7.0
2.0;1753875100.869656;17.320995;0.94;-1.62;-0.26;-0.042881;-1.021004;0.004189;0.0;164.3;163.6;0.0;6.5;8.4
2.0;1753875100.874393;17.312775;0.97;-1.61;-0.3;-0.042322;-1.02336;0.004907;0.0;164.2;162.9;0.0;6.1;7.2
2.0;1753875100.87913;17.341531;0.95;-1.58;-0.36;-0.040129;-1.022392;0.004845;0.0;164.5;163.1;0.0;8.1;7.3
2.0;1753875100.883867;17.311389;0.88;-1.62;-0.38;-0.041028;-1.021398;0.004387;0.0;164.4;164.9;0.0;7.2;7.7
2.0;1753875100.89162;17.324219;0.91;-1.61;-0.35;-0.041114;-1.022116;0.00488;0.0;164.0;164.0;0.0;7.0;7.0
2.0;1753875100.896357;17.322339;0.84;-1.67;-0.37;-0.040377;-1.02308;0.003421;0.0;163.5;164.1;0.0;6.9;7.5
2.0;1753875100.901094;17.319261;0.95;-1.48;-0.31;-0.04191;-1.022493;0.006269;0.0;163.3;164.3;0.0;7.0;7.8
2.0;1753875100.905831;17.33558;0.87;-1.57;-0.32;-0.040791;-1.021603;0.002821;0.0;163.8;165.2;0.0;7.9;7.9
2.0;1753875100.910568;17.291424;0.89;-1.62;-0.37;-0.041394;-1.021774;0.004767;0.0;164.2;163.2;0.0;6.5;7.6
2.0;1753875100.915306;17.307684;0.89;-1.54;-0.28;-0.038886;-1.021133;0.004963;0.0;163.3;164.0;0.0;5.4;7.6
2.0;1753875100.920043;17.299253;0.9;-1.58;-0.25;-0.042992;-1.019772;0.003386;0.0;164.4;165.1;0.0;6.2;7.2
2.0;1753875100.92478;17.283589;0.92;-1.46;-0.26;-0.040878;-1.019426;0.004408;0.0;164.1;164.2;0.0;6.3;7.0
2.0;1753875100.929517;17.311504;0.88;-1.46;-0.32;-0.04406;-1.019394;0.001479;0.0;163.6;164.2;0.0;7.9;7.0
2.0;1753875100.934254;17.307492;0.92;-1.57;-0.25;-0.041216;-1.02025;0.003987;0.0;162.5;164.0;0.0;6.7;6.8
2.0;1753875100.938991;17.28652;0.87;-1.55;-0.24;-0.040948;-1.019127;0.003626;0.0;163.6;164.5;0.0;7.7;7.2
2.0;1753875100.94682;17.296875;0.91;-1.54;-0.21;-0.041968;-1.020042;0.002928;0.0;164.0;164.0;0.0;7.0;7.0
2.0;1753875100.951557;17.293741;0.9;-1.63;-0.28;-0.042227;-1.020798;0.003681;0.0;163.7;163.6;0.0;7.6;6.1
2.0;1753875100.956294;17.2907;0.89;-1.63;-0.27;-0.042549;-1.020815;0.004094;0.0;163.7;164.6;0.0;6.1;6.4
2.0;1753875100.961032;17.310758;0.83;-1.57;-0.21;-0.043824;-1.020545;0.002174;0.0;163.7;164.3;0.0;7.3;7.5
2.0;1753875100.965768;17.295034;0.93;-1.58;-0.23;-0.046824;-1.020948;0.00353;0.0;163.8;163.5;0.0;7.3;5.3
2.0;1753875100.970506;17.322122;0.89;-1.6;-0.21;-0.043454;-1.023234;0.002984;0.0;163.9;164.8;0.0;7.4;6.3
2.0;1753875100.975243;17.288559;0.84;-1.53;-0.24;-0.044609;-1.02156;0.003125;0.0;165.3;165.1;0.0;8.5;8.1
2.0;1753875100.97998;17.277642;0.88;-1.53;-0.25;-0.044598;-1.022524;0.00438;0.0;164.8;163.5;0.0;6.9;6.7
2.0;1753875100.984717;17.292701;0.89;-1.61;-0.31;-0.044413;-1.022988;0.004385;0.0;164.4;163.7;0.0;5.8;6.2
2.0;1753875100.989454;17.298007;0.8;-1.59;-0.25;-0.044999;-1.023468;0.004508;0.0;164.4;164.3;0.0;7.8;6.6
2.0;1753875100.99717;17.296875;0.84;-1.68;-0.28;-0.044896;-1.02297;0.00488;0.0;164.0;164.0;0.0;7.0;7.0
2.0;1753875101.001907;17.314376;0.89;-1.7;-0.29;-0.044925;-1.023346;0.005099;0.0;162.8;163.9;0.0;7.4;6.7
2.0;1753875101.006644;17.289487;0.83;-1.67;-0.33;-0.04483;-1.023744;0.005118;0.0;164.0;163.5;0.0;6.6;8.4
2.0;1753875101.011382;17.294121;0.93;-1.66;-0.22;-0.043671;-1.022955;0.005444;0.0;162.5;162.9;0.0;6.7;6.6
2.0;1753875101.016118;17.289915;0.87;-1.71;-0.19;-0.045025;-1.023202;0.004353;0.0;162.7;162.9;0.0;6.4;7.1
2.0;1753875101.020856;17.31462;0.83;-1.67;-0.32;-0.045583;-1.022506;0.006672;0.0;162.7;163.1;0.0;6.4;7.0
2.0;1753875101.025593;17.295075;0.85;-1.71;-0.22;-0.045043;-1.021231;0.004078;0.0;161.6;163.3;0.0;7.0;6.1
2.0;1753875101.03033;17.275905;0.81;-1.61;-0.28;-0.043198;-1.022601;0.004837;0.0;162.5;162.5;0.0;6.7;6.2
2.0;1753875101.035067;17.30276;0.77;-1.71;-0.25;-0.043793;-1.022577;0.005075;0.0;163.5;162.1;0.0;6.3;6.4
2.0;1753875101.039804;17.310683;0.95;-1.64;-0.2;-0.045255;-1.022672;0.00459;0.0;162.7;164.3;0.0;6.1;6.1
2.0;1753875101.044541;17.285705;0.83;-1.63;-0.25;-0.047347;-1.023257;0.004206;0.0;163.7;162.0;0.0;6.3;5.3
2.0;1753875101.049278;17.321547;0.85;-1.65;-0.26;-0.046641;-1.022904;0.004827;0.0;161.5;163.5;0.0;6.7;6.3
2.0;1753875101.054016;17.281249;0.82;-1.63;-0.25;-0.043179;-1.022262;0.005601;0.0;164.9;162.9;0.0;6.2;6.2
2.0;1753875101.058753;17.34359;0.8;-1.65;-0.24;-0.045939;-1.021628;0.003657;0.0;162.6;162.5;0.0;6.8;6.0
2.0;1753875101.06349;17.323813;0.88;-1.69;-0.24;-0.044343;-1.02195;0.005128;0.0;162.6;162.2;0.0;5.8;6.1
2.0;1753875101.068227;17.325433;0.86;-1.64;-0.21;-0.046242;-1.021267;0.004841;0.0;163.5;161.5;0.0;7.1;6.3
2.0;1753875101.072964;17.319301;0.82;-1.68;-0.16;-0.045937;-1.02242;0.004517;0.0;161.7;162.2;0.0;6.3;5.7
2.0;1753875101.077701;17.344559;0.95;-1.58;-0.23;-0.045179;-1.021868;0.00487;0.0;162.7;162.3;0.0;5.5;5.4
2.0;1753875101.082438;17.316302;0.8;-1.59;-0.21;-0.045179;-1.021315;0.003798;0.0;162.2;161.4;0.0;6.6;5.7
2.0;1753875101.087176;17.290006;0.88;-1.65;-0.29;-0.043518;-1.022727;0.004124;0.0;164.4;161.7;0.0;5.7;5.0
2.0;1753875101.091913;17.317582;0.87;-1.63;-0.26;-0.042696;-1.021945;0.005024;0.0;162.4;162.1;0.0;6.0;5.5
2.0;1753875101.09665;17.301174;0.83;-1.62;-0.24;-0.045572;-1.021677;0.004681;0.0;163.5;161.0;0.0;6.7;5.8
2.0;1753875101.101387;17.339522;0.83;-1.64;-0.27;-0.046607;-1.022688;0.005221;0.0;161.7;162.5;0.0;5.9;4.8
2.0;1753875101.11;17.324219;0.84;-1.61;-0.21;-0.044774;-1.021872;0.00488;0.0;163.0;161.0;0.0;6.0;5.0
2.0;1753875101.114737;17.328025;0.87;-1.6;-0.24;-0.043246;-1.022583;0.005496;0.0;163.1;161.4;0.0;6.1;4.8
2.0;1753875101.119474;17.338737;0.86;-1.62;-0.23;-0.042729;-1.021078;0.00442;0.0;163.2;161.4;0.0;5.6;5.0
2.0;1753875101.124211;17.339603;0.84;-1.61;-0.25;-0.046025;-1.022593;0.004891;0.0;165.5;160.5;0.0;5.8;5.0
2.0;1753875101.128948;17.333384;0.89;-1.59;-0.18;-0.043277;-1.022621;0.00372;0.0;163.4;161.2;0.0;6.5;4.4
2.0;1753875101.133686;17.303555;0.84;-1.67;-0.18;-0.044459;-1.021861;0.003818;0.0;162.7;160.9;0.0;6.2;4.7
2.0;1753875101.138423;17.310331;0.9;-1.66;-0.23;-0.045307;-1.021328;0.004941;0.0;163.2;159.3;0.0;5.4;4.9
2.0;1753875101.14316;17.322493;0.9;-1.59;-0.27;-0.045781;-1.021649;0.00552;0.0;160.8;162.5;0.0;5.8;3.9
2.0;1753875101.147897;17.31773;0.85;-1.66;-0.27;-0.044593;-1.021971;0.004393;0.0;163.5;161.1;0.0;5.8;4.5
2.0;1753875101.152634;17.323576;0.87;-1.59;-0.23;-0.045102;-1.022168;0.005308;0.0;163.2;159.8;0.0;6.9;4.4
2.0;1753875101.157371;17.349657;0.84;-1.65;-0.29;-0.045118;-1.021417;0.005004;0.0;163.4;161.5;0.0;6.6;5.0
2.0;1753875101.162108;17.316798;0.86;-1.59;-0.31;-0.044489;-1.022398;0.005515;0.0;164.2;161.9;0.0;5.6;5.1
2.0;1753875101.166846;17.330911;0.85;-1.66;-0.17;-0.045421;-1.021025;0.005296;0.0;162.1;160.3;0.0;6.3;5.4
2.0;1753875101.171583;17.302479;0.8;-1.64;-0.09;-0.045974;-1.021957;0.005188;0.0;161.3;161.7;0.0;5.6;4.6
2.0;1753875101.17632;17.327742;0.78;-1.65;-0.28;-0.043657;-1.021963;0.005042;0.0;164.8;161.1;0.0;6.6;4.5
2.0;1753875101.181057;17.323741;0.89;-1.59;-0.26;-0.044852;-1.022764;0.005597;0.0;165.4;160.5;0.0;6.3;4.8
2.0;1753875101.185794;17.335081;0.84;-1.62;-0.19;-0.043797;-1.021163;0.004306;0.0;161.9;162.3;0.0;5.4;5.0
2.0;1753875101.190531;17.304343;0.88;-1.6;-0.2;-0.042089;-1.021612;0.005455;0.0;161.9;161.6;0.0;6.3;5.0
2.0;1753875101.195268;17.324119;0.82;-1.62;-0.32;-0.044304;-1.022074;0.005058;0.0;164.0;159.8;0.0;5.7;4.4
2.0;1753875101.200006;17.301603;0.81;-1.53;-0.23;-0.042261;-1.022874;0.005281;0.0;163.0;162.4;0.0;7.2;5.2
2.0;1753875101.204743;17.338723;0.92;-1.56;-0.16;-0.045554;-1.021521;0.004367;0.0;162.2;161.5;0.0;6.4;5.2
2.0;1753875101.20948;17.314574;0.87;-1.6;-0.26;-0.045342;-1.021379;0.00492;0.0;163.0;160.2;0.0;6.0;4.9
2.0;1753875101.214217;17.32867;0.91;-1.63;-0.18;-0.042571;-1.021415;0.003744;0.0;161.6;161.0;0.0;7.3;4.6
