Timestamp;PosX;PosY;PosZ;Roll;Pitch;Yaw;Q1;Q2;Q3;Q4;M1;M2;M3;M4;AccelX;AccelY;AccelZ;GyroX;GyroY;GyroZ
1753873616.371065;7.332;0.005;-0.062;-0.5;0.25;-0.18;0.0;0.0;0.0;0.0;-17.0;-27.0;-31.0;-25.0;0.01;0.16;-10.53;0.9;0.35;0.97
1753873616.376065;7.332;0.005;-0.062;-0.5;0.25;-0.18;0.0;0.0;0.0;0.0;-17.0;-27.0;-31.0;-25.0;0.01;0.17;-10.54;0.9;0.36;0.92
1753873616.381065;7.332;0.005;-0.062;-0.5;0.25;-0.18;0.0;0.0;0.0;0.0;-17.0;-27.0;-31.0;-25.0;0.01;0.16;-10.53;0.8;0.32;0.99
1753873616.386065;7.332;0.005;-0.062;-0.5;0.25;-0.18;0.0;0.0;0.0;0.0;-17.0;-27.0;-31.0;-25.0;0.01;0.17;-10.53;1.03;0.33;1.16
1753873616.391065;7.332;0.005;-0.062;-0.5;0.25;-0.18;0.0;0.0;0.0;0.0;-17.0;-27.0;-31.0;-25.0;0.01;0.18;-10.53;0.86;0.32;0.96
1753873616.396065;7.332;0.005;-0.062;-0.5;0.25;-0.18;0.0;0.0;0.0;0.0;-17.0;-27.0;-31.0;-25.0;0.01;0.17;-10.53;0.8;0.27;0.98
1753873616.401065;7.332;0.005;-0.062;-0.5;0.25;-0.18;0.0;0.0;0.0;0.0;-17.0;-27.0;-31.0;-25.0;0.01;0.18;-10.52;0.9;0.31;1.04
1753873616.406065;7.332;0.005;-0.062;-0.5;0.25;-0.18;0.0;0.0;0.0;0.0;-17.0;-27.0;-31.0;-25.0;0.01;0.18;-10.53;0.87;0.21;1.15
1753873616.411065;7.332;0.005;-0.062;-0.5;0.25;-0.18;0.0;0.0;0.0;0.0;-17.0;-27.0;-31.0;-25.0;0.01;0.18;-10.53;0.85;0.25;1.02
1753873616.416065;7.332;0.005;-0.062;-0.5;0.25;-0.18;0.0;0.0;0.0;0.0;-17.0;-27.0;-31.0;-25.0;0.0;0.17;-10.54;0.99;0.2;0.87
1753873616.421065;7.332;0.005;-0.062;-0.5;0.25;-0.18;0.0;0.0;0.0;0.0;-17.0;-27.0;-31.0;-25.0;0.0;0.18;-10.55;0.96;0.32;0.98
1753873616.426065;7.332;0.005;-0.062;-0.5;0.25;-0.18;0.0;0.0;0.0;0.0;-17.0;-27.0;-31.0;-25.0;0.0;0.18;-10.55;0.87;0.38;0.98
1753873616.431065;7.332;0.005;-0.062;-0.5;0.25;-0.18;0.0;0.0;0.0;0.0;-17.0;-27.0;-31.0;-25.0;0.0;0.18;-10.56;0.88;0.42;0.82
1753873616.436065;7.332;0.005;-0.062;-0.5;0.25;-0.18;0.0;0.0;0.0;0.0;-17.0;-27.0;-31.0;-25.0;0.01;0.17;-10.56;0.86;0.28;0.91
1753873616.441064;7.332;0.005;-0.062;-0.5;0.25;-0.18;0.0;0.0;0.0;0.0;-17.0;-27.0;-31.0;-25.0;0.01;0.17;-10.57;0.92;0.44;1.1
1753873616.446065;7.332;0.005;-0.062;-0.5;0.25;-0.18;0.0;0.0;0.0;0.0;-17.0;-27.0;-31.0;-25.0;0.0;0.17;-10.57;0.77;0.43;1.09
1753873616.451064;7.332;0.005;-0.062;-0.5;0.25;-0.18;0.0;0.0;0.0;0.0;-17.0;-27.0;-31.0;-25.0;0.01;0.17;-10.57;1.09;0.24;0.99
1753873616.456065;7.332;0.005;-0.062;-0.5;0.25;-0.18;0.0;0.0;0.0;0.0;-17.0;-27.0;-31.0;-25.0;0.01;0.16;-10.58;0.95;0.32;0.99
1753873616.461064;7.332;0.005;-0.062;-0.5;0.25;-0.18;0.0;0.0;0.0;0.0;-17.0;-27.0;-31.0;-25.0;0.01;0.17;-10.58;0.88;0.28;1.0
1753873616.466065;7.332;0.005;-0.062;-0.5;0.25;-0.18;0.0;0.0;0.0;0.0;-17.0;-27.0;-31.0;-25.0;0.01;0.16;-10.57;0.86;0.35;1.02
1753873616.471065;7.332;0.005;-0.062;-0.5;0.25;-0.18;0.0;0.0;0.0;0.0;-17.0;-27.0;-31.0;-25.0;0.02;0.16;-10.57;0.83;0.37;0.92
1753873616.476065;7.332;0.005;-0.062;-0.5;0.25;-0.18;0.0;0.0;0.0;0.0;-17.0;-27.0;-31.0;-25.0;0.01;0.16;-10.57;0.88;0.38;1.09
1753873616.481065;7.332;0.005;-0.062;-0.5;0.25;-0.18;0.0;0.0;0.0;0.0;-17.0;-27.0;-31.0;-25.0;0.01;0.16;-10.57;0.91;0.23;0.87
1753873616.486065;7.332;0.005;-0.062;-0.5;0.25;-0.18;0.0;0.0;0.0;0.0;-17.0;-27.0;-31.0;-25.0;0.02;0.17;-10.51;0.89;0.33;0.94
1753873616.491065;7.332;0.005;-0.062;-0.5;0.25;-0.18;0.0;0.0;0.0;0.0;-17.0;-27.0;-31.0;-25.0;0.01;0.16;-10.56;0.89;0.45;0.92
1753873616.496066;7.332;0.005;-0.062;-0.5;0.25;-0.18;0.0;0.0;0.0;0.0;-17.0;-27.0;-31.0;-25.0;-0.0;0.17;-10.56;0.74;0.4;0.94
1753873616.501066;7.332;0.005;-0.062;-0.5;0.25;-0.18;0.0;0.0;0.0;0.0;-17.0;-27.0;-31.0;-25.0;0.01;0.17;-10.58;0.9;0.24;0.87
1753873616.506066;7.332;0.005;-0.062;-0.5;0.25;-0.18;0.0;0.0;0.0;0.0;-17.0;-27.0;-31.0;-25.0;0.01;0.18;-10.54;0.87;0.4;0.9
1753873616.511066;7.332;0.005;-0.062;-0.5;0.25;-0.18;0.0;0.0;0.0;0.0;-17.0;-27.0;-31.0;-25.0;-0.0;0.17;-10.53;0.86;0.43;0.97
1753873616.516065;7.332;0.005;-0.062;-0.5;0.25;-0.18;0.0;0.0;0.0;0.0;-17.0;-27.0;-31.0;-25.0;0.0;0.18;-10.54;0.83;0.41;0.97
1753873616.521065;7.332;0.005;-0.062;-0.5;0.25;-0.18;0.0;0.0;0.0;0.0;-17.0;-27.0;-31.0;-25.0;0.0;0.18;-10.55;0.9;0.32;1.06
1753873616.526065;7.332;0.005;-0.062;-0.5;0.25;-0.18;0.0;0.0;0.0;0.0;-17.0;-27.0;-31.0;-25.0;0.0;0.18;-10.55;0.99;0.35;0.94
1753873616.531065;7.332;0.005;-0.062;-0.5;0.25;-0.18;0.0;0.0;0.0;0.0;-17.0;-27.0;-31.0;-25.0;0.0;0.17;-10.55;0.9;0.28;0.92
1753873616.536065;7.332;0.005;-0.062;-0.5;0.25;-0.18;0.0;0.0;0.0;0.0;-17.0;-27.0;-31.0;-25.0;0.0;0.18;-10.55;0.96;0.35;0.99
1753873616.541065;7.332;0.005;-0.062;-0.5;0.25;-0.18;0.0;0.0;0.0;0.0;-17.0;-27.0;-31.0;-25.0;0.0;0.18;-10.55;0.95;0.3;0.99
1753873616.546065;7.332;0.005;-0.062;-0.5;0.25;-0.18;0.0;0.0;0.0;0.0;-17.0;-27.0;-31.0;-25.0;0.0;0.18;-10.55;0.89;0.35;1.09
1753873616.551065;7.332;0.005;-0.062;-0.5;0.25;-0.18;0.0;0.0;0.0;0.0;-17.0;-27.0;-31.0;-25.0;0.0;0.18;-10.55;0.86;0.52;1.07
1753873616.556065;7.332;0.005;-0.062;-0.5;0.25;-0.18;0.0;0.0;0.0;0.0;-17.0;-27.0;-31.0;-25.0;0.0;0.18;-10.55;0.95;0.37;1.03
1753873616.561065;7.332;0.005;-0.062;-0.5;0.25;-0.18;0.0;0.0;0.0;0.0;-17.0;-27.0;-31.0;-25.0;0.0;0.18;-10.56;0.88;0.39;0.8
1753873616.566064;7.332;0.005;-0.062;-0.5;0.25;-0.18;0.0;0.0;0.0;0.0;-17.0;-27.0;-31.0;-25.0;0.0;0.18;-10.56;0.9;0.27;1.09
1753873616.571065;7.332;0.005;-0.062;-0.5;0.25;-0.18;0.0;0.0;0.0;0.0;-17.0;-27.0;-31.0;-25.0;0.0;0.18;-10.55;0.96;0.32;0.9
1753873616.576064;7.332;0.005;-0.062;-0.5;0.25;-0.18;0.0;0.0;0.0;0.0;-17.0;-27.0;-31.0;-25.0;0.0;0.18;-10.55;1.02;0.34;1.18
1753873616.581065;7.332;0.005;-0.062;-0.5;0.25;-0.18;0.0;0.0;0.0;0.0;-17.0;-27.0;-31.0;-25.0;0.01;0.18;-10.56;0.99;0.35;1.12
1753873616.586064;7.332;0.005;-0.062;-0.5;0.25;-0.18;0.0;0.0;0.0;0.0;-17.0;-27.0;-31.0;-25.0;0.01;0.18;-10.55;0.9;0.32;1.09
1753873616.591065;7.332;0.005;-0.062;-0.5;0.25;-0.18;0.0;0.0;0.0;0.0;-17.0;-27.0;-31.0;-25.0;0.01;0.18;-10.56;0.93;0.44;0.88
1753873616.596065;7.332;0.005;-0.062;-0.5;0.25;-0.18;0.0;0.0;0.0;0.0;-17.0;-27.0;-31.0;-25.0;0.01;0.18;-10.56;0.95;0.45;1.03
1753873616.601065;7.332;0.005;-0.062;-0.5;0.25;-0.18;0.0;0.0;0.0;0.0;-17.0;-27.0;-31.0;-25.0;0.01;0.17;-10.56;1.0;0.41;1.0
1753873616.606065;7.332;0.005;-0.062;-0.5;0.25;-0.18;0.0;0.0;0.0;0.0;-17.0;-27.0;-31.0;-25.0;0.01;0.17;-10.56;0.83;0.41;0.95
1753873616.611065;7.332;0.005;-0.062;-0.5;0.25;-0.18;0.0;0.0;0.0;0.0;-17.0;-27.0;-31.0;-25.0;0.01;0.17;-10.56;0.86;0.35;1.07
1753873616.616065;7.332;0.005;-0.062;-0.5;0.25;-0.18;0.0;0.0;0.0;0.0;-17.0;-27.0;-31.0;-25.0;0.01;0.17;-10.55;0.8;0.23;1.05
1753873616.621065;7.332;0.005;-0.062;-0.5;0.25;-0.18;0.0;0.0;0.0;0.0;-17.0;-27.0;-31.0;-25.0;0.02;0.17;-10.55;1.05;0.41;1.08
1753873616.626065;7.332;0.005;-0.062;-0.5;0.25;-0.18;0.0;0.0;0.0;0.0;-17.0;-27.0;-31.0;-25.0;0.03;0.16;-10.55;1.02;0.45;1.26
1753873616.631065;7.332;0.005;-0.062;-0.5;0.25;-0.18;0.0;0.0;0.0;0.0;-17.0;-27.0;-31.0;-25.0;-0.0;0.17;-10.55;1.15;0.35;1.05
1753873616.636065;7.332;0.005;-0.062;-0.5;0.25;-0.18;0.0;0.0;0.0;0.0;-17.0;-27.0;-31.0;-25.0;0.02;0.17;-10.55;1.04;0.25;1.12
1753873616.641065;7.332;0.005;-0.062;-0.5;0.25;-0.18;0.0;0.0;0.0;0.0;-17.0;-27.0;-31.0;-25.0;0.02;0.17;-10.55;1.02;0.45;1.02
1753873616.646066;7.332;0.005;-0.062;-0.5;0.25;-0.18;0.0;0.0;0.0;0.0;-17.0;-27.0;-31.0;-25.0;0.03;0.17;-10.55;0.97;0.34;1.12
1753873616.651066;7.332;0.005;-0.062;-0.5;0.25;-0.18;0.0;0.0;0.0;0.0;-17.0;-27.0;-31.0;-25.0;0.01;0.16;-10.54;0.96;0.37;1.11
1753873616.656066;7.332;0.005;-0.062;-0.5;0.25;-0.18;0.0;0.0;0.0;0.0;-17.0;-27.0;-31.0;-25.0;0.02;0.17;-10.56;1.02;0.56;1.14
1753873616.661066;7.332;0.005;-0.062;-0.5;0.25;-0.18;0.0;0.0;0.0;0.0;-17.0;-27.0;-31.0;-25.0;0.02;0.17;-10.56;1.03;0.26;1.07
1753873616.666066;7.332;0.005;-0.062;-0.5;0.25;-0.18;0.0;0.0;0.0;0.0;-17.0;-27.0;-31.0;-25.0;0.01;0.17;-10.56;0.91;0.35;0.96
1753873616.671066;7.332;0.005;-0.062;-0.5;0.25;-0.18;0.0;0.0;0.0;0.0;-17.0;-27.0;-31.0;-25.0;0.0;0.16;-10.56;0.94;0.34;1.19
1753873616.676066;7.332;0.005;-0.062;-0.5;0.25;-0.18;0.0;0.0;0.0;0.0;-17.0;-27.0;-31.0;-25.0;0.02;0.17;-10.57;1.03;0.29;0.99
1753873616.681066;7.332;0.005;-0.062;-0.5;0.25;-0.18;0.0;0.0;0.0;0.0;-17.0;-27.0;-31.0;-25.0;0.02;0.18;-10.54;0.87;0.35;1.03
1753873616.686066;7.332;0.005;-0.062;-0.5;0.25;-0.18;0.0;0.0;0.0;0.0;-17.0;-27.0;-31.0;-25.0;0.02;0.17;-10.56;0.97;0.44;0.96
1753873616.691066;7.332;0.005;-0.062;-0.5;0.25;-0.18;0.0;0.0;0.0;0.0;-17.0;-27.0;-31.0;-25.0;0.02;0.16;-10.57;0.98;0.44;0.97
1753873616.696066;7.332;0.005;-0.062;-0.5;0.25;-0.18;0.0;0.0;0.0;0.0;-17.0;-27.0;-31.0;-25.0;0.02;0.17;-10.56;0.94;0.44;1.07
1753873616.701067;7.332;0.005;-0.062;-0.5;0.25;-0.18;0.0;0.0;0.0;0.0;-17.0;-27.0;-31.0;-25.0;0.02;0.18;-10.56;1.03;0.35;0.84
1753873616.706067;7.332;0.005;-0.062;-0.5;0.25;-0.18;0.0;0.0;0.0;0.0;-17.0;-27.0;-31.0;-25.0;0.01;0.17;-10.55;0.91;0.33;0.91
1753873616.711067;7.332;0.005;-0.062;-0.5;0.25;-0.18;0.0;0.0;0.0;0.0;-17.0;-27.0;-31.0;-25.0;0.01;0.17;-10.56;0.9;0.36;0.92
1753873616.716065;7.332;0.005;-0.062;-0.5;0.25;-0.18;0.0;0.0;0.0;0.0;-17.0;-27.0;-31.0;-25.0;0.01;0.17;-10.56;0.9;0.34;0.97
1753873616.721065;7.332;0.005;-0.062;-0.5;0.25;-0.18;0.0;0.0;0.0;0.0;-17.0;-28.3;-30.1;-25.0;0.01;0.16;-10.57;0.86;0.26;0.9
1753873616.726065;7.332;0.005;-0.062;-0.5;0.25;-0.18;0.0;0.0;0.0;0.0;-17.1;-28.3;-29.4;-25.7;0.01;0.18;-10.55;0.89;0.32;1.02
1753873616.731065;7.332;0.005;-0.062;-0.5;0.25;-0.18;0.0;0.0;0.0;0.0;-16.7;-27.1;-30.6;-24.6;0.0;0.17;-10.56;0.87;0.33;1.0
1753873616.736066;7.332;0.005;-0.062;-0.5;0.25;-0.18;0.0;0.0;0.0;0.0;-17.0;-27.0;-31.6;-27.0;0.01;0.18;-10.56;0.79;0.4;0.98
1753873616.741066;7.332;0.005;-0.062;-0.5;0.25;-0.18;0.0;0.0;0.0;0.0;-17.0;-26.8;-30.9;-22.6;0.01;0.18;-10.56;0.97;0.32;0.96
1753873616.746066;7.332;0.005;-0.062;-0.5;0.25;-0.18;0.0;0.0;0.0;0.0;-17.2;-28.8;-29.3;-23.8;0.0;0.17;-10.57;0.9;0.21;0.93
1753873616.751066;7.332;0.005;-0.062;-0.5;0.25;-0.18;0.0;0.0;0.0;0.0;-17.4;-27.9;-29.3;-23.9;0.01;0.17;-10.57;0.86;0.32;0.87
1753873616.756066;7.332;0.005;-0.062;-0.5;0.25;-0.18;0.0;0.0;0.0;0.0;-16.9;-26.9;-29.7;-25.6;0.01;0.18;-10.56;1.04;0.32;1.01
1753873616.761066;7.332;0.005;-0.062;-0.5;0.25;-0.18;0.0;0.0;0.0;0.0;-16.8;-29.6;-30.1;-23.4;0.01;0.18;-10.55;0.83;0.28;0.95
1753873616.766066;7.332;0.005;-0.062;-0.5;0.25;-0.18;0.0;0.0;0.0;0.0;-17.8;-28.7;-30.7;-24.5;0.01;0.18;-10.55;0.71;0.34;0.87
1753873616.771066;7.332;0.005;-0.062;-0.5;0.25;-0.18;0.0;0.0;0.0;0.0;-17.3;-27.8;-28.4;-24.9;0.01;0.17;-10.56;0.94;0.33;1.13
1753873616.776066;7.332;0.005;-0.062;-0.5;0.25;-0.18;0.0;0.0;0.0;0.0;-17.2;-29.4;-29.3;-23.1;0.02;0.17;-10.56;0.87;0.39;0.85
1753873616.781066;7.332;0.005;-0.062;-0.5;0.25;-0.18;0.0;0.0;0.0;0.0;-17.3;-30.1;-30.0;-22.5;-0.0;0.16;-10.56;0.95;0.29;1.04
1753873616.786066;7.332;0.005;-0.062;-0.5;0.25;-0.18;0.0;0.0;0.0;0.0;-17.5;-29.7;-30.2;-23.4;0.01;0.17;-10.55;0.94;0.38;0.97
1753873616.791067;7.332;0.005;-0.062;-0.5;0.25;-0.18;0.0;0.0;0.0;0.0;-17.4;-30.5;-30.1;-22.6;0.01;0.17;-10.57;0.89;0.27;0.92
1753873616.796067;7.332;0.005;-0.062;-0.5;0.25;-0.18;0.0;0.0;0.0;0.0;-17.6;-29.6;-30.0;-22.4;0.0;0.17;-10.56;1.01;0.26;0.78
1753873616.801067;7.332;0.005;-0.062;-0.5;0.25;-0.18;0.0;0.0;0.0;0.0;-17.5;-29.9;-29.3;-22.6;0.01;0.17;-10.54;0.79;0.27;0.99
1753873616.806067;7.332;0.005;-0.062;-0.5;0.25;-0.18;0.0;0.0;0.0;0.0;-17.8;-30.1;-30.2;-22.6;0.01;0.17;-10.56;0.82;0.35;1.13
1753873616.811067;7.332;0.005;-0.062;-0.5;0.25;-0.18;0.0;0.0;0.0;0.0;-17.1;-28.7;-28.7;-22.6;-0.0;0.17;-10.55;0.89;0.34;0.87
1753873616.816067;7.332;0.005;-0.062;-0.5;0.25;-0.18;0.0;0.0;0.0;0.0;-17.4;-27.9;-29.9;-23.4;0.01;0.17;-10.56;0.78;0.34;1.11
1753873616.821067;7.332;0.005;-0.062;-0.5;0.25;-0.18;0.0;0.0;0.0;0.0;-18.0;-30.1;-28.3;-22.7;0.0;0.17;-10.56;0.85;0.29;1.0
1753873616.826068;7.332;0.005;-0.062;-0.5;0.25;-0.18;0.0;0.0;0.0;0.0;-17.6;-30.5;-29.8;-22.7;0.01;0.17;-10.56;0.84;0.34;1.02
1753873616.831068;7.332;0.005;-0.062;-0.5;0.25;-0.18;0.0;0.0;0.0;0.0;-17.6;-29.6;-27.4;-21.1;0.02;0.18;-10.55;0.8;0.22;0.94
1753873616.836068;7.332;0.005;-0.062;-0.5;0.25;-0.18;0.0;0.0;0.0;0.0;-17.8;-29.9;-28.2;-21.7;0.01;0.17;-10.56;0.72;0.27;1.06
1753873616.841068;7.332;0.005;-0.062;-0.5;0.25;-0.18;0.0;0.0;0.0;0.0;-17.7;-32.0;-27.8;-22.6;0.01;0.18;-10.55;0.85;0.23;0.94
1753873616.846068;7.332;0.005;-0.062;-0.5;0.25;-0.18;0.0;0.0;0.0;0.0;-17.6;-30.1;-28.4;-21.1;0.01;0.16;-10.55;0.86;0.34;0.81
1753873616.851068;7.332;0.005;-0.062;-0.5;0.25;-0.18;0.0;0.0;0.0;0.0;-17.5;-29.2;-26.2;-20.9;0.0;0.18;-10.55;0.86;0.32;0.86
1753873616.856068;7.332;0.005;-0.062;-0.5;0.25;-0.18;0.0;0.0;0.0;0.0;-17.5;-29.4;-27.7;-19.9;-0.0;0.18;-10.55;0.83;0.25;1.05
1753873616.861068;7.332;0.005;-0.062;-0.5;0.25;-0.18;0.0;0.0;0.0;0.0;-17.4;-29.2;-27.8;-22.1;0.01;0.17;-10.54;0.92;0.47;0.84
1753873616.866068;7.332;0.005;-0.062;-0.5;0.25;-0.18;0.0;0.0;0.0;0.0;-17.8;-30.1;-26.9;-21.0;0.01;0.17;-10.55;0.82;0.31;1.01
1753873616.871068;7.332;0.005;-0.062;-0.5;0.25;-0.18;0.0;0.0;0.0;0.0;-17.6;-30.3;-28.8;-21.1;0.01;0.17;-10.55;0.74;0.31;0.9
1753873616.876068;7.332;0.005;-0.062;-0.5;0.25;-0.18;0.0;0.0;0.0;0.0;-17.6;-30.5;-27.3;-21.1;0.01;0.17;-10.54;0.78;0.27;0.91
1753873616.881069;7.332;0.005;-0.062;-0.5;0.25;-0.18;0.0;0.0;0.0;0.0;-18.0;-31.0;-28.5;-20.7;0.01;0.17;-10.55;0.79;0.31;1.12
1753873616.886069;7.332;0.005;-0.062;-0.5;0.25;-0.18;0.0;0.0;0.0;0.0;-18.1;-33.5;-27.3;-21.6;0.01;0.17;-10.56;0.84;0.37;0.94
1753873616.891069;7.332;0.005;-0.062;-0.5;0.25;-0.18;0.0;0.0;0.0;0.0;-18.1;-31.5;-27.6;-21.3;0.01;0.18;-10.54;0.78;0.42;0.92
1753873616.896069;7.332;0.005;-0.062;-0.5;0.25;-0.18;0.0;0.0;0.0;0.0;-18.2;-29.7;-26.4;-22.3;0.0;0.17;-10.55;0.83;0.28;0.91
1753873616.901069;7.332;0.005;-0.062;-0.5;0.25;-0.18;0.0;0.0;0.0;0.0;-18.2;-31.9;-27.4;-20.3;0.01;0.17;-10.55;0.88;0.31;1.02
1753873616.906065;7.332;0.005;-0.062;-0.5;0.25;-0.18;0.0;0.0;0.0;0.0;-18.0;-32.0;-27.0;-20.0;0.01;0.17;-10.55;0.83;0.32;0.99
1753873616.911065;7.332;0.005;-0.062;-0.5;0.25;-0.18;0.0;0.0;0.0;0.0;-18.0;-32.0;-27.0;-20.0;0.02;0.18;-10.56;0.99;0.22;1.01
1753873616.916065;7.332;0.005;-0.062;-0.5;0.25;-0.18;0.0;0.0;0.0;0.0;-18.0;-32.0;-27.0;-20.0;0.01;0.18;-10.55;1.02;0.35;1.13
1753873616.921065;7.332;0.005;-0.062;-0.5;0.25;-0.18;0.0;0.0;0.0;0.0;-18.0;-32.0;-27.0;-20.0;0.01;0.17;-10.55;0.83;0.48;1.06
1753873616.926065;7.332;0.005;-0.062;-0.5;0.25;-0.18;0.0;0.0;0.0;0.0;-18.0;-32.0;-27.0;-20.0;0.02;0.17;-10.55;0.95;0.22;0.86
1753873616.931065;7.332;0.005;-0.062;-0.5;0.25;-0.18;0.0;0.0;0.0;0.0;-18.0;-32.0;-27.0;-20.0;0.02;0.17;-10.55;1.01;0.47;1.05
1753873616.936065;7.332;0.005;-0.062;-0.5;0.25;-0.18;0.0;0.0;0.0;0.0;-18.0;-32.0;-27.0;-20.0;0.02;0.17;-10.55;0.93;0.39;0.99
1753873616.941064;7.332;0.005;-0.062;-0.5;0.25;-0.18;0.0;0.0;0.0;0.0;-18.0;-32.0;-27.0;-20.0;0.02;0.17;-10.55;0.93;0.51;0.98
1753873616.946065;7.332;0.005;-0.062;-0.5;0.25;-0.18;0.0;0.0;0.0;0.0;-18.0;-32.0;-27.0;-20.0;0.01;0.17;-10.55;0.9;0.51;1.12
1753873616.951064;7.332;0.005;-0.062;-0.5;0.25;-0.18;0.0;0.0;0.0;0.0;-18.0;-32.0;-27.0;-20.0;0.01;0.17;-10.55;0.94;0.25;0.99
1753873616.956065;7.332;0.005;-0.062;-0.5;0.25;-0.18;0.0;0.0;0.0;0.0;-18.0;-32.0;-27.0;-20.0;0.01;0.17;-10.55;0.92;0.3;1.07
1753873616.961064;7.332;0.005;-0.062;-0.5;0.25;-0.18;0.0;0.0;0.0;0.0;-18.0;-32.0;-27.0;-20.0;0.01;0.17;-10.55;0.92;0.24;1.09
1753873616.966065;7.332;0.005;-0.062;-0.5;0.25;-0.18;0.0;0.0;0.0;0.0;-18.0;-32.0;-27.0;-20.0;0.0;0.17;-10.55;1.0;0.33;0.97
1753873616.971065;7.332;0.005;-0.062;-0.5;0.25;-0.18;0.0;0.0;0.0;0.0;-18.0;-32.0;-27.0;-20.0;0.0;0.17;-10.55;1.0;0.29;1.05
1753873616.976065;7.332;0.005;-0.062;-0.5;0.25;-0.18;0.0;0.0;0.0;0.0;-18.3;-33.0;-24.9;-19.9;-0.01;0.17;-10.55;1.04;0.4;1.06
1753873616.981065;7.332;0.005;-0.062;-0.5;0.25;-0.18;0.0;0.0;0.0;0.0;-17.9;-34.2;-26.4;-22.8;0.02;0.17;-10.55;0.93;0.36;1.14
1753873616.986066;7.332;0.005;-0.062;-0.5;0.25;-0.18;0.0;0.0;0.0;0.0;-18.1;-33.8;-24.6;-20.0;0.01;0.17;-10.55;1.11;0.46;1.1
1753873616.991066;7.332;0.005;-0.062;-0.5;0.25;-0.18;0.0;0.0;0.0;0.0;-17.6;-30.1;-29.6;-16.8;-0.0;0.16;-10.55;0.92;0.14;1.04
1753873616.996066;7.332;0.005;-0.062;-0.5;0.25;-0.18;0.0;0.0;0.0;0.0;-18.1;-35.0;-28.4;-19.3;0.01;0.16;-10.55;0.89;0.35;1.06
1753873617.001066;7.332;0.005;-0.062;-0.5;0.25;-0.18;0.0;0.0;0.0;0.0;-18.8;-33.1;-26.7;-21.5;0.0;0.18;-10.55;0.97;0.32;1.05
1753873617.006066;7.332;0.005;-0.062;-0.5;0.25;-0.18;0.0;0.0;0.0;0.0;-17.6;-34.1;-23.6;-21.3;0.0;0.17;-10.54;0.96;0.4;1.1
1753873617.011066;7.332;0.005;-0.062;-0.5;0.25;-0.18;0.0;0.0;0.0;0.0;-17.5;-33.5;-28.5;-21.8;-0.01;0.17;-10.55;0.92;0.28;1.08
1753873617.016066;7.332;0.005;-0.062;-0.5;0.25;-0.18;0.0;0.0;0.0;0.0;-18.1;-32.6;-26.9;-17.3;0.01;0.17;-10.55;0.96;0.23;1.02
1753873617.021066;7.332;0.005;-0.062;-0.5;0.25;-0.18;0.0;0.0;0.0;0.0;-17.6;-30.6;-29.1;-21.7;0.0;0.17;-10.55;0.97;0.32;1.13
1753873617.026066;7.332;0.005;-0.062;-0.5;0.25;-0.18;0.0;0.0;0.0;0.0;-17.4;-32.7;-25.0;-25.1;0.0;0.18;-10.55;0.95;0.22;1.01
1753873617.031066;7.332;0.005;-0.062;-0.5;0.25;-0.18;0.0;0.0;0.0;0.0;-17.7;-32.2;-27.1;-20.8;0.0;0.17;-10.55;0.98;0.33;0.97
1753873617.036066;7.332;0.005;-0.062;-0.5;0.25;-0.18;0.0;0.0;0.0;0.0;-18.0;-30.1;-28.2;-16.5;-0.0;0.16;-10.55;1.09;0.38;0.88
1753873617.041067;7.332;0.005;-0.062;-0.5;0.25;-0.18;0.0;0.0;0.0;0.0;-18.3;-29.1;-26.2;-17.2;0.01;0.17;-10.55;0.81;0.32;0.89
1753873617.046067;7.332;0.005;-0.062;-0.5;0.25;-0.18;0.0;0.0;0.0;0.0;-17.8;-28.3;-27.1;-23.1;-0.0;0.17;-10.55;1.04;0.38;0.94
1753873617.051067;7.332;0.005;-0.062;-0.5;0.25;-0.18;0.0;0.0;0.0;0.0;-18.0;-31.6;-28.3;-18.1;-0.0;0.17;-10.55;0.79;0.41;0.97
1753873617.056067;7.332;0.005;-0.062;-0.5;0.25;-0.18;0.0;0.0;0.0;0.0;-18.0;-33.4;-29.3;-16.2;0.0;0.16;-10.55;0.83;0.21;1.07
1753873617.061067;7.332;0.005;-0.062;-0.5;0.25;-0.18;0.0;0.0;0.0;0.0;-18.0;-29.3;-25.4;-16.9;-0.01;0.16;-10.55;0.83;0.27;1.0
1753873617.066067;7.332;0.005;-0.062;-0.5;0.25;-0.18;0.0;0.0;0.0;0.0;-18.0;-31.3;-28.0;-16.8;0.0;0.16;-10.55;1.01;0.28;1.03
1753873617.071067;7.332;0.005;-0.062;-0.5;0.25;-0.18;0.0;0.0;0.0;0.0;-17.6;-33.0;-26.3;-17.4;0.0;0.17;-10.55;0.92;0.27;1.0
1753873617.076068;7.332;0.005;-0.062;-0.5;0.25;-0.18;0.0;0.0;0.0;0.0;-17.6;-31.2;-27.6;-20.2;-0.0;0.16;-10.55;0.95;0.21;0.93
1753873617.081068;7.332;0.005;-0.062;-0.5;0.25;-0.18;0.0;0.0;0.0;0.0;-18.3;-31.2;-28.7;-17.7;0.0;0.16;-10.55;0.88;0.38;0.87
1753873617.086068;7.332;0.005;-0.062;-0.5;0.25;-0.18;0.0;0.0;0.0;0.0;-17.4;-35.4;-27.7;-19.3;-0.01;0.17;-10.56;1.0;0.52;1.02
1753873617.091065;7.332;0.005;-0.062;-0.5;0.25;-0.18;0.0;0.0;0.0;0.0;-18.0;-32.0;-28.0;-19.0;0.0;0.16;-10.55;0.92;0.31;0.94
1753873617.096065;7.332;0.005;-0.062;-0.5;0.25;-0.18;0.0;0.0;0.0;0.0;-18.0;-32.0;-28.0;-19.0;0.01;0.16;-10.55;0.86;0.3;0.97
1753873617.101065;7.332;0.005;-0.062;-0.5;0.25;-0.18;0.0;0.0;0.0;0.0;-18.0;-32.0;-28.0;-19.0;0.01;0.17;-10.55;0.99;0.33;0.96
1753873617.106065;7.332;0.005;-0.062;-0.5;0.25;-0.18;0.0;0.0;0.0;0.0;-18.8;-31.4;-31.8;-18.6;0.01;0.17;-10.55;1.01;0.14;0.86
1753873617.111065;7.332;0.005;-0.062;-0.5;0.24;-0.18;0.0;0.0;0.0;0.0;-17.6;-32.0;-27.3;-19.2;-0.0;0.17;-10.55;1.06;0.14;0.83
1753873617.116065;7.332;0.005;-0.062;-0.5;0.25;-0.18;0.0;0.0;0.0;0.0;-17.7;-27.5;-25.9;-18.8;0.01;0.16;-10.55;1.04;0.46;1.01
1753873617.121066;7.332;0.005;-0.062;-0.5;0.24;-0.18;0.0;0.0;0.0;0.0;-18.3;-30.6;-26.4;-19.4;0.02;0.17;-10.55;0.93;0.5;0.9
1753873617.126066;7.332;0.005;-0.062;-0.5;0.25;-0.18;0.0;0.0;0.0;0.0;-18.0;-30.4;-29.2;-18.9;0.01;0.17;-10.54;0.9;0.26;0.99
1753873617.131066;7.332;0.005;-0.062;-0.5;0.24;-0.18;0.0;0.0;0.0;0.0;-18.5;-28.5;-28.2;-19.2;0.01;0.17;-10.55;1.02;0.27;0.95
1753873617.136066;7.332;0.005;-0.062;-0.5;0.24;-0.18;0.0;0.0;0.0;0.0;-18.4;-34.5;-25.7;-20.6;0.01;0.17;-10.54;0.91;0.21;1.05
1753873617.141066;7.332;0.005;-0.062;-0.5;0.24;-0.18;0.0;0.0;0.0;0.0;-18.4;-27.2;-25.2;-19.3;0.01;0.17;-10.55;0.98;0.35;0.94
1753873617.146066;7.332;0.005;-0.062;-0.5;0.25;-0.18;0.0;0.0;0.0;0.0;-17.8;-30.1;-23.8;-22.8;0.01;0.17;-10.54;1.08;0.4;1.0
1753873617.151066;7.332;0.005;-0.062;-0.5;0.24;-0.18;0.0;0.0;0.0;0.0;-17.8;-30.3;-29.2;-20.1;0.02;0.17;-10.55;0.98;0.28;0.91
1753873617.156066;7.332;0.005;-0.062;-0.5;0.24;-0.18;0.0;0.0;0.0;0.0;-18.6;-32.8;-23.7;-24.8;0.01;0.17;-10.55;1.08;0.3;0.87
1753873617.161066;7.332;0.005;-0.062;-0.5;0.24;-0.18;0.0;0.0;0.0;0.0;-18.3;-31.1;-25.0;-17.6;0.01;0.17;-10.55;0.94;0.23;0.9
1753873617.166066;7.332;0.005;-0.062;-0.5;0.24;-0.18;0.0;0.0;0.0;0.0;-17.8;-29.2;-27.5;-22.9;0.01;0.17;-10.55;0.99;0.32;0.97
1753873617.171066;7.332;0.005;-0.062;-0.5;0.24;-0.18;0.0;0.0;0.0;0.0;-18.0;-32.7;-20.5;-21.4;0.01;0.17;-10.55;1.03;0.27;0.99
1753873617.176067;7.332;0.005;-0.062;-0.5;0.24;-0.18;0.0;0.0;0.0;0.0;-19.0;-35.0;-23.8;-19.8;0.02;0.17;-10.55;1.06;0.19;0.91
1753873617.181067;7.332;0.005;-0.062;-0.5;0.24;-0.18;0.0;0.0;0.0;0.0;-18.6;-32.7;-25.6;-19.7;0.0;0.18;-10.55;0.82;0.18;1.07
1753873617.186067;7.332;0.005;-0.062;-0.5;0.24;-0.18;0.0;0.0;0.0;0.0;-18.2;-28.9;-25.9;-21.3;0.01;0.18;-10.54;1.01;0.22;1.0
1753873617.191067;7.332;0.005;-0.062;-0.5;0.24;-0.18;0.0;0.0;0.0;0.0;-19.2;-28.6;-29.5;-19.8;0.01;0.18;-10.54;1.06;0.43;1.03
1753873617.196067;7.332;0.005;-0.062;-0.5;0.23;-0.18;0.0;0.0;0.0;0.0;-18.6;-29.5;-25.2;-21.2;0.0;0.18;-10.54;1.11;0.39;0.87
1753873617.201067;7.332;0.005;-0.062;-0.5;0.24;-0.18;0.0;0.0;0.0;0.0;-18.5;-32.7;-27.2;-19.2;0.01;0.18;-10.54;0.98;0.15;0.93
1753873617.206067;7.332;0.005;-0.062;-0.5;0.23;-0.18;0.0;0.0;0.0;0.0;-18.6;-29.6;-27.6;-21.8;0.01;0.18;-10.55;0.95;0.25;1.07
1753873617.211068;7.332;0.005;-0.062;-0.5;0.23;-0.18;0.0;0.0;0.0;0.0;-18.9;-29.7;-23.6;-20.1;0.01;0.18;-10.54;0.97;0.18;1.09
1753873617.216068;7.332;0.005;-0.062;-0.5;0.23;-0.18;0.0;0.0;0.0;0.0;-18.3;-32.0;-21.3;-21.0;0.01;0.17;-10.55;1.03;0.02;1.03
1753873617.221068;7.332;0.005;-0.062;-0.5;0.23;-0.18;0.0;0.0;0.0;0.0;-19.0;-28.9;-23.4;-18.9;0.0;0.18;-10.55;1.05;0.33;1.04
1753873617.226068;7.332;0.005;-0.062;-0.5;0.24;-0.18;0.0;0.0;0.0;0.0;-18.8;-30.0;-21.6;-19.0;0.02;0.18;-10.55;0.97;0.15;0.88
1753873617.231068;7.332;0.005;-0.062;-0.5;0.24;-0.18;0.0;0.0;0.0;0.0;-18.7;-31.0;-23.9;-22.1;0.01;0.17;-10.54;1.08;0.2;0.98
1753873617.236068;7.332;0.005;-0.062;-0.5;0.24;-0.18;0.0;0.0;0.0;0.0;-18.2;-26.5;-22.1;-22.1;0.01;0.18;-10.54;0.95;0.17;0.94
1753873617.241068;7.332;0.005;-0.062;-0.5;0.24;-0.18;0.0;0.0;0.0;0.0;-18.9;-30.1;-21.9;-18.6;0.01;0.18;-10.54;1.0;0.14;1.0
1753873617.246068;7.332;0.005;-0.062;-0.5;0.23;-0.18;0.0;0.0;0.0;0.0;-19.1;-27.6;-19.3;-20.1;0.01;0.17;-10.54;0.78;0.15;1.1
1753873617.251068;7.332;0.005;-0.062;-0.5;0.23;-0.18;0.0;0.0;0.0;0.0;-19.6;-29.4;-23.7;-20.2;0.01;0.17;-10.54;0.94;0.36;1.04
1753873617.256068;7.332;0.005;-0.062;-0.5;0.23;-0.18;0.0;0.0;0.0;0.0;-19.3;-26.3;-15.5;-22.5;0.0;0.17;-10.55;0.99;0.31;1.13
1753873617.261068;7.332;0.005;-0.062;-0.5;0.23;-0.18;0.0;0.0;0.0;0.0;-19.3;-27.0;-19.6;-21.9;0.01;0.18;-10.54;1.02;0.12;1.08
1753873617.266069;7.332;0.005;-0.062;-0.5;0.23;-0.18;0.0;0.0;0.0;0.0;-18.5;-28.7;-16.1;-20.0;0.0;0.18;-10.54;0.89;0.2;1.12
1753873617.271065;7.332;0.005;-0.062;-0.5;0.23;-0.18;0.0;0.0;0.0;0.0;-19.0;-28.0;-20.0;-22.0;0.01;0.18;-10.54;0.99;0.22;1.05
1753873617.276065;7.332;0.005;-0.062;-0.5;0.23;-0.18;0.0;0.0;0.0;0.0;-19.0;-28.0;-20.0;-22.0;0.01;0.18;-10.54;0.84;0.39;0.89
1753873617.281065;7.332;0.005;-0.062;-0.5;0.23;-0.18;0.0;0.0;0.0;0.0;-19.0;-28.0;-20.0;-22.0;0.01;0.19;-10.54;0.77;0.31;1.06
1753873617.286065;7.332;0.005;-0.062;-0.5;0.23;-0.18;0.0;0.0;0.0;0.0;-19.0;-28.0;-20.0;-22.0;0.01;0.19;-10.54;0.92;0.28;1.06
1753873617.291065;7.332;0.005;-0.062;-0.5;0.23;-0.18;0.0;0.0;0.0;0.0;-19.0;-28.0;-20.0;-22.0;0.01;0.19;-10.54;0.88;0.28;0.98
1753873617.296065;7.332;0.005;-0.062;-0.5;0.23;-0.18;0.0;0.0;0.0;0.0;-19.0;-28.0;-20.0;-22.0;0.01;0.18;-10.55;0.79;0.19;1.01
1753873617.301065;7.332;0.005;-0.062;-0.5;0.23;-0.18;0.0;0.0;0.0;0.0;-19.0;-28.0;-20.0;-22.0;0.01;0.18;-10.55;0.96;0.32;0.99
1753873617.306065;7.332;0.005;-0.062;-0.5;0.23;-0.18;0.0;0.0;0.0;0.0;-19.0;-28.0;-20.0;-22.0;0.01;0.18;-10.55;0.83;0.33;0.94
1753873617.311065;7.332;0.005;-0.062;-0.5;0.23;-0.18;0.0;0.0;0.0;0.0;-19.0;-28.0;-20.0;-22.0;0.0;0.18;-10.55;0.85;0.45;0.98
1753873617.316064;7.332;0.005;-0.062;-0.5;0.23;-0.18;0.0;0.0;0.0;0.0;-19.0;-28.0;-20.0;-22.0;0.01;0.18;-10.55;0.93;0.45;0.98
1753873617.321065;7.332;0.005;-0.062;-0.5;0.23;-0.18;0.0;0.0;0.0;0.0;-19.0;-28.0;-20.0;-22.0;0.01;0.18;-10.56;0.86;0.37;1.0
1753873617.326064;7.332;0.005;-0.062;-0.5;0.23;-0.18;0.0;0.0;0.0;0.0;-19.0;-28.0;-20.0;-22.0;0.01;0.18;-10.55;0.94;0.23;1.01
1753873617.331065;7.332;0.005;-0.062;-0.5;0.23;-0.18;0.0;0.0;0.0;0.0;-19.0;-28.0;-20.0;-22.0;0.01;0.17;-10.55;1.02;0.19;0.99
1753873617.336064;7.332;0.005;-0.062;-0.5;0.23;-0.18;0.0;0.0;0.0;0.0;-19.0;-28.0;-20.0;-22.0;0.0;0.17;-10.55;0.98;0.32;0.98
1753873617.341065;7.332;0.005;-0.062;-0.5;0.23;-0.18;0.0;0.0;0.0;0.0;-19.0;-28.0;-20.0;-22.0;0.0;0.17;-10.56;0.97;0.31;1.07
1753873617.346065;7.332;0.005;-0.062;-0.5;0.23;-0.18;0.0;0.0;0.0;0.0;-19.0;-28.0;-20.0;-22.0;0.0;0.16;-10.56;0.96;0.29;0.93
1753873617.351065;7.332;0.005;-0.062;-0.5;0.23;-0.18;0.0;0.0;0.0;0.0;-19.0;-28.0;-20.0;-22.0;0.0;0.16;-10.56;0.95;0.39;0.99
1753873617.356065;7.332;0.005;-0.062;-0.5;0.23;-0.18;0.0;0.0;0.0;0.0;-19.0;-28.0;-20.0;-22.0;0.0;0.16;-10.56;0.91;0.3;1.08
1753873617.361065;7.332;0.005;-0.062;-0.5;0.23;-0.18;0.0;0.0;0.0;0.0;-19.0;-28.0;-20.0;-22.0;0.01;0.16;-10.56;0.96;0.21;1.12
1753873617.366065;7.332;0.005;-0.062;-0.5;0.23;-0.18;0.0;0.0;0.0;0.0;-19.0;-28.0;-20.0;-22.0;0.01;0.16;-10.55;0.93;0.26;1.03
1753873617.371065;7.332;0.005;-0.062;-0.5;0.23;-0.18;0.0;0.0;0.0;0.0;-19.0;-28.0;-20.0;-22.0;0.01;0.16;-10.55;0.96;0.3;1.02
1753873617.376065;7.332;0.005;-0.062;-0.5;0.23;-0.18;0.0;0.0;0.0;0.0;-19.0;-28.0;-20.0;-22.0;0.01;0.16;-10.56;0.88;0.35;1.08
1753873617.381065;7.332;0.005;-0.062;-0.5;0.23;-0.18;0.0;0.0;0.0;0.0;-19.0;-28.0;-20.7;-20.5;0.01;0.17;-10.56;0.84;0.33;1.1
1753873617.386065;7.332;0.005;-0.062;-0.5;0.23;-0.18;0.0;0.0;0.0;0.0;-19.0;-28.2;-20.8;-21.5;0.01;0.15;-10.57;0.94;0.27;1.05
1753873617.391065;7.332;0.005;-0.062;-0.5;0.23;-0.18;0.0;0.0;0.0;0.0;-19.0;-28.2;-19.3;-21.5;0.01;0.17;-10.56;0.92;0.37;1.05
1753873617.396066;7.332;0.005;-0.062;-0.5;0.23;-0.18;0.0;0.0;0.0;0.0;-19.0;-28.1;-21.2;-20.7;0.01;0.16;-10.55;0.89;0.45;1.04
1753873617.401066;7.332;0.005;-0.062;-0.5;0.23;-0.18;0.0;0.0;0.0;0.0;-19.0;-28.5;-20.6;-21.0;0.02;0.16;-10.55;0.95;0.29;1.06
1753873617.406066;7.332;0.005;-0.062;-0.5;0.24;-0.18;0.0;0.0;0.0;0.0;-19.0;-28.2;-21.4;-21.3;0.01;0.17;-10.56;0.94;0.19;1.06
1753873617.411066;7.332;0.005;-0.062;-0.5;0.24;-0.18;0.0;0.0;0.0;0.0;-19.0;-28.2;-21.2;-21.0;0.0;0.16;-10.56;0.9;0.31;1.04
1753873617.416066;7.332;0.005;-0.062;-0.5;0.23;-0.18;0.0;0.0;0.0;0.0;-19.0;-28.5;-21.7;-20.4;0.01;0.16;-10.54;1.0;0.42;1.12
1753873617.421066;7.332;0.005;-0.062;-0.5;0.24;-0.18;0.0;0.0;0.0;0.0;-19.0;-28.6;-24.0;-18.6;0.02;0.15;-10.54;0.89;0.29;1.03
1753873617.426066;7.332;0.005;-0.062;-0.5;0.24;-0.18;0.0;0.0;0.0;0.0;-19.0;-28.4;-25.4;-19.7;0.01;0.16;-10.55;0.97;0.29;1.11
1753873617.431066;7.332;0.005;-0.062;-0.5;0.24;-0.18;0.0;0.0;0.0;0.0;-19.0;-28.6;-26.9;-20.1;0.0;0.17;-10.55;1.01;0.36;0.99
1753873617.436066;7.332;0.005;-0.062;-0.5;0.24;-0.18;0.0;0.0;0.0;0.0;-19.0;-28.9;-22.4;-20.0;0.0;0.15;-10.54;0.87;0.32;0.95
1753873617.441066;7.332;0.005;-0.062;-0.5;0.24;-0.18;0.0;0.0;0.0;0.0;-19.0;-29.0;-24.4;-18.8;0.01;0.16;-10.55;1.06;0.22;1.0
1753873617.446066;7.332;0.005;-0.062;-0.5;0.24;-0.18;0.0;0.0;0.0;0.0;-19.0;-28.9;-26.7;-20.2;0.01;0.17;-10.54;0.88;0.25;1.01
1753873617.451067;7.332;0.005;-0.062;-0.5;0.24;-0.18;0.0;0.0;0.0;0.0;-19.0;-28.7;-27.0;-20.2;0.01;0.17;-10.53;1.03;0.31;1.04
1753873617.456065;7.332;0.005;-0.062;-0.5;0.24;-0.18;0.0;0.0;0.0;0.0;-19.0;-29.0;-26.0;-19.0;0.01;0.16;-10.54;0.99;0.28;1.02
1753873617.461064;7.332;0.005;-0.062;-0.5;0.24;-0.18;0.0;0.0;0.0;0.0;-19.0;-29.0;-26.0;-19.0;0.01;0.16;-10.55;0.9;0.28;1.15
1753873617.466065;7.332;0.005;-0.062;-0.5;0.24;-0.18;0.0;0.0;0.0;0.0;-19.0;-29.2;-24.1;-19.6;0.01;0.19;-10.55;0.97;0.32;1.17
1753873617.471065;7.332;0.005;-0.062;-0.5;0.24;-0.18;0.0;0.0;0.0;0.0;-19.0;-29.0;-26.0;-19.0;0.02;0.18;-10.56;0.98;0.33;1.22
1753873617.476065;7.332;0.005;-0.062;-0.5;0.24;-0.18;0.0;0.0;0.0;0.0;-19.0;-29.0;-26.0;-19.0;0.02;0.18;-10.56;1.04;0.42;1.03
1753873617.481065;7.332;0.005;-0.062;-0.5;0.24;-0.18;0.0;0.0;0.0;0.0;-19.0;-29.0;-26.0;-19.0;0.02;0.17;-10.56;0.89;0.41;0.8
1753873617.486065;7.332;0.005;-0.062;-0.5;0.25;-0.18;0.0;0.0;0.0;0.0;-19.0;-29.1;-24.6;-16.3;0.03;0.16;-10.57;0.88;0.49;0.83
1753873617.491065;7.332;0.005;-0.062;-0.5;0.24;-0.18;0.0;0.0;0.0;0.0;-19.0;-29.4;-22.3;-18.3;0.03;0.17;-10.57;0.93;0.42;0.8
1753873617.496066;7.332;0.005;-0.062;-0.5;0.24;-0.18;0.0;0.0;0.0;0.0;-19.0;-30.1;-21.9;-20.4;0.01;0.17;-10.56;0.78;0.35;0.85
1753873617.501066;7.332;0.005;-0.062;-0.5;0.24;-0.18;0.0;0.0;0.0;0.0;-19.0;-28.5;-31.4;-16.8;0.02;0.19;-10.57;0.86;0.33;0.63
1753873617.506066;7.332;0.005;-0.062;-0.5;0.25;-0.18;0.0;0.0;0.0;0.0;-19.0;-29.3;-34.0;-21.4;0.02;0.17;-10.57;0.87;0.42;0.88
1753873617.511066;7.332;0.005;-0.062;-0.5;0.25;-0.18;0.0;0.0;0.0;0.0;-19.0;-27.5;-26.6;-20.6;0.03;0.16;-10.56;0.94;0.47;0.89
1753873617.516066;7.332;0.005;-0.062;-0.5;0.25;-0.18;0.0;0.0;0.0;0.0;-19.0;-30.8;-25.4;-18.0;0.02;0.18;-10.56;0.88;0.33;1.08
1753873617.521066;7.332;0.005;-0.062;-0.5;0.23;-0.18;0.0;0.0;0.0;0.0;-19.0;-29.8;-27.4;-20.9;0.0;0.16;-10.55;0.83;0.24;0.91
1753873617.526066;7.332;0.005;-0.062;-0.5;0.25;-0.18;0.0;0.0;0.0;0.0;-19.0;-28.4;-31.9;-18.2;0.02;0.17;-10.55;0.88;0.32;0.83
1753873617.531066;7.332;0.005;-0.062;-0.5;0.25;-0.18;0.0;0.0;0.0;0.0;-19.0;-29.9;-31.4;-19.9;0.01;0.17;-10.56;0.85;0.28;1.03
1753873617.536066;7.332;0.005;-0.062;-0.5;0.24;-0.18;0.0;0.0;0.0;0.0;-19.0;-29.7;-29.9;-20.0;0.0;0.17;-10.55;0.96;0.39;0.89
1753873617.541066;7.332;0.005;-0.062;-0.5;0.24;-0.18;0.0;0.0;0.0;0.0;-19.0;-29.2;-24.2;-17.1;0.01;0.16;-10.57;0.98;0.29;0.8
1753873617.546066;7.332;0.005;-0.062;-0.5;0.24;-0.18;0.0;0.0;0.0;0.0;-19.0;-30.0;-34.9;-17.0;0.02;0.16;-10.55;0.96;0.24;0.87
1753873617.551067;7.332;0.005;-0.062;-0.5;0.24;-0.18;0.0;0.0;0.0;0.0;-19.0;-30.2;-31.8;-19.2;0.01;0.17;-10.56;0.97;0.22;0.97
1753873617.556067;7.332;0.005;-0.062;-0.5;0.24;-0.18;0.0;0.0;0.0;0.0;-19.0;-29.5;-25.6;-20.4;0.02;0.17;-10.56;0.85;0.32;0.82
1753873617.561067;7.332;0.005;-0.062;-0.5;0.25;-0.18;0.0;0.0;0.0;0.0;-19.0;-30.4;-28.0;-18.7;0.01;0.17;-10.56;0.92;0.46;0.99
1753873617.566067;7.332;0.005;-0.062;-0.5;0.24;-0.18;0.0;0.0;0.0;0.0;-19.0;-29.7;-31.1;-17.0;0.02;0.17;-10.56;0.97;0.22;1.08
1753873617.571067;7.332;0.005;-0.062;-0.5;0.24;-0.18;0.0;0.0;0.0;0.0;-19.0;-30.4;-29.0;-17.3;0.01;0.17;-10.56;0.93;0.2;0.8
1753873617.576067;7.332;0.005;-0.062;-0.5;0.25;-0.18;0.0;0.0;0.0;0.0;-19.0;-29.6;-29.5;-19.7;-0.0;0.17;-10.57;0.93;0.39;0.84
1753873617.581067;7.332;0.005;-0.062;-0.5;0.24;-0.18;0.0;0.0;0.0;0.0;-19.0;-31.0;-26.5;-18.1;0.01;0.16;-10.56;1.02;0.24;0.91
1753873617.586068;7.332;0.005;-0.062;-0.5;0.25;-0.18;0.0;0.0;0.0;0.0;-19.0;-30.8;-26.5;-17.9;0.02;0.17;-10.56;0.87;0.08;0.94
1753873617.591068;7.332;0.005;-0.062;-0.5;0.25;-0.18;0.0;0.0;0.0;0.0;-19.0;-31.3;-28.9;-17.6;0.01;0.17;-10.56;1.03;0.11;0.92
1753873617.596068;7.332;0.005;-0.062;-0.5;0.24;-0.18;0.0;0.0;0.0;0.0;-19.0;-30.9;-33.3;-18.4;-0.0;0.17;-10.56;0.98;0.2;0.85
1753873617.601068;7.332;0.005;-0.062;-0.5;0.25;-0.18;0.0;0.0;0.0;0.0;-19.0;-29.8;-26.4;-17.3;0.01;0.15;-10.56;0.95;0.24;1.11
1753873617.606068;7.332;0.005;-0.062;-0.5;0.23;-0.18;0.0;0.0;0.0;0.0;-19.0;-31.1;-24.9;-17.2;-0.0;0.16;-10.56;0.94;0.39;1.02
1753873617.611068;7.332;0.005;-0.062;-0.5;0.24;-0.18;0.0;0.0;0.0;0.0;-19.0;-31.4;-29.1;-17.1;-0.01;0.18;-10.56;0.89;0.12;0.91
1753873617.616068;7.332;0.005;-0.062;-0.5;0.25;-0.18;0.0;0.0;0.0;0.0;-19.0;-32.3;-33.9;-17.9;-0.01;0.17;-10.56;0.99;0.14;1.06
1753873617.621068;7.332;0.005;-0.062;-0.5;0.25;-0.18;0.0;0.0;0.0;0.0;-19.0;-31.0;-30.0;-18.2;0.0;0.17;-10.54;0.95;0.18;0.99
1753873617.626068;7.332;0.005;-0.062;-0.5;0.24;-0.18;0.0;0.0;0.0;0.0;-19.0;-31.5;-27.2;-20.1;0.01;0.17;-10.56;0.96;0.2;1.04
1753873617.631068;7.332;0.005;-0.062;-0.5;0.25;-0.18;0.0;0.0;0.0;0.0;-19.0;-31.5;-30.4;-18.8;-0.01;0.17;-10.56;0.95;0.15;1.11
1753873617.636065;7.332;0.005;-0.062;-0.5;0.25;-0.18;0.0;0.0;0.0;0.0;-19.0;-31.0;-32.0;-18.0;0.0;0.17;-10.56;0.96;0.18;1.04
1753873617.641065;7.332;0.005;-0.062;-0.5;0.25;-0.18;0.0;0.0;0.0;0.0;-19.0;-31.0;-32.0;-18.0;0.0;0.17;-10.56;1.04;0.35;0.9
1753873617.646065;7.332;0.005;-0.062;-0.5;0.25;-0.18;0.0;0.0;0.0;0.0;-19.0;-31.0;-32.0;-18.0;0.0;0.16;-10.55;0.93;0.23;1.01
1753873617.651065;7.332;0.005;-0.062;-0.5;0.25;-0.18;0.0;0.0;0.0;0.0;-19.0;-31.0;-32.0;-18.0;0.01;0.16;-10.55;0.86;0.31;0.92
1753873617.656065;7.332;0.005;-0.062;-0.5;0.25;-0.18;0.0;0.0;0.0;0.0;-18.7;-30.2;-34.5;-17.4;0.0;0.17;-10.56;0.86;0.25;0.91
1753873617.661065;7.332;0.005;-0.062;-0.5;0.25;-0.18;0.0;0.0;0.0;0.0;-19.0;-31.9;-27.3;-19.6;0.01;0.17;-10.56;0.9;0.25;0.92
1753873617.666065;7.332;0.005;-0.062;-0.5;0.25;-0.18;0.0;0.0;0.0;0.0;-17.7;-32.5;-24.7;-15.9;0.01;0.18;-10.56;0.9;0.39;0.69
1753873617.671065;7.332;0.005;-0.062;-0.5;0.25;-0.18;0.0;0.0;0.0;0.0;-18.7;-29.5;-35.8;-19.3;0.01;0.17;-10.55;0.82;0.39;1.04
1753873617.676066;7.332;0.005;-0.062;-0.5;0.26;-0.18;0.0;0.0;0.0;0.0;-18.5;-30.7;-20.0;-21.3;0.01;0.17;-10.55;0.89;0.32;0.99
1753873617.681066;7.332;0.005;-0.062;-0.5;0.25;-0.18;0.0;0.0;0.0;0.0;-18.6;-34.7;-26.3;-17.5;0.0;0.15;-10.55;0.77;0.38;1.03
1753873617.686066;7.332;0.005;-0.062;-0.5;0.25;-0.18;0.0;0.0;0.0;0.0;-18.2;-30.2;-34.3;-20.3;0.02;0.17;-10.55;0.9;0.22;0.82
1753873617.691066;7.332;0.005;-0.062;-0.5;0.25;-0.18;0.0;0.0;0.0;0.0;-17.7;-33.8;-33.0;-17.7;0.03;0.17;-10.55;0.83;0.39;1.02
1753873617.696066;7.332;0.005;-0.062;-0.5;0.24;-0.18;0.0;0.0;0.0;0.0;-18.4;-29.7;-27.3;-15.7;0.02;0.16;-10.55;0.83;0.37;0.93
1753873617.701066;7.332;0.005;-0.062;-0.5;0.25;-0.18;0.0;0.0;0.0;0.0;-19.0;-30.8;-34.9;-18.3;0.02;0.16;-10.56;0.97;0.34;0.8
1753873617.706066;7.332;0.005;-0.062;-0.5;0.25;-0.18;0.0;0.0;0.0;0.0;-19.3;-30.4;-27.4;-19.7;0.02;0.15;-10.54;0.88;0.24;0.82
1753873617.711066;7.332;0.005;-0.062;-0.5;0.26;-0.18;0.0;0.0;0.0;0.0;-18.3;-29.8;-27.0;-20.6;0.01;0.17;-10.55;0.82;0.41;0.99
1753873617.716066;7.332;0.005;-0.062;-0.5;0.23;-0.18;0.0;0.0;0.0;0.0;-17.7;-32.8;-33.4;-22.3;0.02;0.17;-10.55;0.88;0.47;1.04
1753873617.721066;7.332;0.005;-0.062;-0.5;0.25;-0.18;0.0;0.0;0.0;0.0;-18.5;-32.4;-37.7;-22.6;0.0;0.16;-10.56;0.87;0.3;0.89
1753873617.726066;7.332;0.005;-0.062;-0.5;0.23;-0.18;0.0;0.0;0.0;0.0;-18.4;-32.5;-34.8;-19.3;0.01;0.16;-10.55;0.88;0.37;1.0
1753873617.731067;7.332;0.005;-0.062;-0.5;0.25;-0.18;0.0;0.0;0.0;0.0;-17.9;-32.9;-31.4;-20.0;0.03;0.15;-10.55;0.8;0.4;0.96
1753873617.736067;7.332;0.005;-0.062;-0.5;0.25;-0.18;0.0;0.0;0.0;0.0;-17.4;-30.3;-25.1;-18.1;0.02;0.16;-10.55;0.9;0.29;1.07
1753873617.741067;7.332;0.005;-0.062;-0.5;0.24;-0.18;0.0;0.0;0.0;0.0;-18.2;-33.5;-26.9;-19.3;0.03;0.16;-10.56;0.89;0.24;0.83
1753873617.746067;7.332;0.005;-0.062;-0.5;0.25;-0.18;0.0;0.0;0.0;0.0;-17.5;-30.8;-30.4;-20.1;0.02;0.17;-10.56;0.94;0.27;1.06
1753873617.751067;7.332;0.005;-0.062;-0.5;0.25;-0.18;0.0;0.0;0.0;0.0;-18.1;-31.6;-23.9;-19.2;0.02;0.17;-10.54;0.84;0.36;1.06
1753873617.756067;7.332;0.005;-0.062;-0.5;0.24;-0.18;0.0;0.0;0.0;0.0;-17.1;-31.8;-32.3;-22.5;0.03;0.17;-10.56;0.94;0.37;0.83
1753873617.761068;7.332;0.005;-0.062;-0.5;0.24;-0.18;0.0;0.0;0.0;0.0;-17.5;-31.4;-18.2;-20.1;0.01;0.16;-10.56;0.89;0.36;1.02
1753873617.766068;7.332;0.005;-0.062;-0.5;0.24;-0.18;0.0;0.0;0.0;0.0;-17.4;-32.3;-30.7;-21.9;0.02;0.18;-10.57;0.94;0.42;0.96
1753873617.771068;7.332;0.005;-0.062;-0.5;0.24;-0.18;0.0;0.0;0.0;0.0;-17.2;-29.9;-20.7;-19.0;0.03;0.16;-10.55;0.86;0.35;0.93
1753873617.776068;7.332;0.005;-0.062;-0.5;0.25;-0.18;0.0;0.0;0.0;0.0;-18.0;-31.9;-30.5;-18.9;0.04;0.18;-10.56;0.85;0.37;1.0
1753873617.781068;7.332;0.005;-0.062;-0.5;0.24;-0.18;0.0;0.0;0.0;0.0;-17.2;-34.0;-21.2;-21.5;0.02;0.17;-10.55;0.9;0.29;0.98
1753873617.786068;7.332;0.005;-0.062;-0.5;0.23;-0.18;0.0;0.0;0.0;0.0;-17.0;-34.3;-29.5;-20.0;0.03;0.16;-10.55;0.83;0.45;0.96
1753873617.791068;7.332;0.005;-0.062;-0.5;0.25;-0.18;0.0;0.0;0.0;0.0;-16.8;-32.3;-22.9;-20.9;0.03;0.16;-10.56;0.89;0.34;0.86
1753873617.796068;7.332;0.005;-0.062;-0.5;0.25;-0.18;0.0;0.0;0.0;0.0;-17.6;-33.7;-24.6;-22.3;0.03;0.18;-10.56;0.8;0.27;1.03
1753873617.801068;7.332;0.005;-0.062;-0.5;0.25;-0.18;0.0;0.0;0.0;0.0;-17.4;-32.3;-24.3;-21.6;0.02;0.17;-10.57;0.82;0.2;0.89
1753873617.806068;7.332;0.005;-0.062;-0.5;0.23;-0.18;0.0;0.0;0.0;0.0;-17.2;-34.5;-24.1;-21.8;0.03;0.16;-10.55;0.9;0.23;0.88
1753873617.811068;7.332;0.005;-0.062;-0.5;0.24;-0.18;0.0;0.0;0.0;0.0;-17.6;-32.4;-29.6;-18.9;0.04;0.16;-10.55;0.89;0.32;0.98
1753873617.816064;7.332;0.005;-0.062;-0.5;0.24;-0.18;0.0;0.0;0.0;0.0;-17.0;-34.0;-26.0;-21.0;0.03;0.17;-10.56;0.89;0.35;0.94
1753873617.821065;7.332;0.005;-0.062;-0.5;0.24;-0.18;0.0;0.0;0.0;0.0;-17.0;-34.0;-26.0;-21.0;0.02;0.17;-10.56;0.84;0.45;1.13
1753873617.826065;7.332;0.005;-0.062;-0.5;0.25;-0.18;0.0;0.0;0.0;0.0;-17.9;-37.8;-29.2;-23.7;0.02;0.16;-10.56;0.7;0.43;1.13
1753873617.831066;7.332;0.005;-0.062;-0.5;0.23;-0.18;0.0;0.0;0.0;0.0;-16.6;-33.6;-16.5;-17.1;0.01;0.17;-10.56;0.87;0.37;1.1
1753873617.836066;7.332;0.005;-0.062;-0.5;0.24;-0.18;0.0;0.0;0.0;0.0;-17.9;-37.2;-29.3;-21.5;0.03;0.17;-10.56;0.79;0.47;1.14
1753873617.841066;7.332;0.005;-0.062;-0.5;0.23;-0.18;0.0;0.0;0.0;0.0;-17.5;-33.7;-29.0;-23.7;0.02;0.17;-10.57;0.83;0.42;1.29
1753873617.846066;7.332;0.005;-0.062;-0.5;0.24;-0.18;0.0;0.0;0.0;0.0;-17.6;-31.8;-23.8;-24.4;0.02;0.17;-10.56;0.8;0.39;1.08
1753873617.851066;7.332;0.005;-0.062;-0.5;0.24;-0.18;0.0;0.0;0.0;0.0;-16.7;-30.5;-28.1;-21.7;0.01;0.17;-10.55;0.8;0.5;1.18
1753873617.856066;7.332;0.005;-0.062;-0.5;0.24;-0.18;0.0;0.0;0.0;0.0;-17.7;-34.9;-19.3;-20.5;0.01;0.17;-10.56;0.92;0.39;1.37
1753873617.861066;7.332;0.005;-0.062;-0.5;0.25;-0.18;0.0;0.0;0.0;0.0;-17.9;-33.8;-24.4;-20.2;0.02;0.18;-10.56;0.84;0.4;1.19
1753873617.866066;7.332;0.005;-0.062;-0.5;0.25;-0.18;0.0;0.0;0.0;0.0;-18.3;-33.6;-29.2;-19.7;0.02;0.17;-10.56;0.98;0.5;1.13
1753873617.871066;7.332;0.005;-0.062;-0.5;0.25;-0.18;0.0;0.0;0.0;0.0;-16.3;-33.9;-21.9;-18.2;0.03;0.18;-10.55;0.84;0.43;1.08
1753873617.876066;7.332;0.005;-0.062;-0.5;0.23;-0.18;0.0;0.0;0.0;0.0;-18.4;-31.4;-25.7;-21.0;0.01;0.17;-10.56;0.88;0.55;1.19
1753873617.881066;7.332;0.005;-0.062;-0.5;0.26;-0.18;0.0;0.0;0.0;0.0;-17.6;-33.7;-31.0;-20.9;0.03;0.17;-10.57;0.79;0.52;1.02
1753873617.886067;7.332;0.005;-0.062;-0.5;0.25;-0.18;0.0;0.0;0.0;0.0;-18.1;-31.4;-25.8;-20.6;0.01;0.16;-10.56;0.86;0.38;1.01
1753873617.891067;7.332;0.005;-0.062;-0.5;0.23;-0.18;0.0;0.0;0.0;0.0;-16.8;-33.5;-29.8;-23.2;0.01;0.17;-10.56;0.91;0.41;1.33
1753873617.896067;7.332;0.005;-0.062;-0.5;0.24;-0.18;0.0;0.0;0.0;0.0;-17.0;-37.2;-30.9;-21.6;0.02;0.17;-10.56;0.95;0.43;1.26
1753873617.901067;7.332;0.005;-0.062;-0.5;0.26;-0.18;0.0;0.0;0.0;0.0;-17.9;-35.3;-27.9;-20.1;0.02;0.17;-10.56;0.88;0.44;1.06
1753873617.906067;7.332;0.005;-0.062;-0.5;0.24;-0.18;0.0;0.0;0.0;0.0;-17.5;-33.2;-25.6;-23.3;0.01;0.16;-10.55;0.91;0.38;1.04
1753873617.911067;7.332;0.005;-0.062;-0.5;0.25;-0.18;0.0;0.0;0.0;0.0;-18.2;-32.0;-23.6;-21.1;0.01;0.17;-10.55;0.81;0.34;1.07
1753873617.916067;7.332;0.005;-0.062;-0.5;0.24;-0.18;0.0;0.0;0.0;0.0;-16.4;-35.1;-28.7;-20.3;0.01;0.18;-10.58;0.94;0.37;1.05
1753873617.921068;7.332;0.005;-0.062;-0.5;0.25;-0.18;0.0;0.0;0.0;0.0;-17.5;-32.3;-20.6;-22.2;0.01;0.18;-10.54;0.81;0.32;1.06
1753873617.926068;7.332;0.005;-0.062;-0.5;0.23;-0.18;0.0;0.0;0.0;0.0;-17.6;-35.7;-19.5;-24.6;0.03;0.19;-10.56;0.82;0.17;1.08
1753873617.931068;7.332;0.005;-0.062;-0.5;0.23;-0.18;0.0;0.0;0.0;0.0;-17.6;-31.9;-27.6;-22.6;0.02;0.15;-10.55;0.76;0.3;0.96
1753873617.936068;7.332;0.005;-0.062;-0.5;0.24;-0.18;0.0;0.0;0.0;0.0;-17.8;-34.2;-22.0;-22.8;0.01;0.17;-10.55;0.87;0.23;1.11
1753873617.941068;7.332;0.005;-0.062;-0.5;0.25;-0.18;0.0;0.0;0.0;0.0;-18.3;-32.5;-24.6;-21.5;0.02;0.17;-10.56;0.86;0.35;0.87
1753873617.946068;7.332;0.005;-0.062;-0.5;0.24;-0.18;0.0;0.0;0.0;0.0;-18.6;-29.8;-15.8;-24.5;0.03;0.18;-10.56;0.88;0.32;1.25
1753873617.951068;7.332;0.005;-0.062;-0.5;0.24;-0.18;0.0;0.0;0.0;0.0;-17.5;-27.6;-19.7;-23.9;0.03;0.18;-10.56;0.88;0.33;0.83
1753873617.956068;7.332;0.005;-0.062;-0.5;0.24;-0.18;0.0;0.0;0.0;0.0;-17.1;-31.9;-22.8;-19.8;0.02;0.17;-10.55;0.76;0.35;0.98
1753873617.961068;7.332;0.005;-0.062;-0.5;0.24;-0.18;0.0;0.0;0.0;0.0;-18.1;-35.1;-9.0;-22.2;0.03;0.18;-10.55;0.88;0.23;1.09
1753873617.966068;7.332;0.005;-0.062;-0.5;0.24;-0.18;0.0;0.0;0.0;0.0;-17.9;-31.1;-20.6;-24.3;0.01;0.17;-10.55;0.88;0.3;1.0
1753873617.971068;7.332;0.005;-0.062;-0.5;0.24;-0.18;0.0;0.0;0.0;0.0;-18.7;-29.6;-20.5;-21.0;0.04;0.18;-10.54;0.89;0.46;1.12
1753873617.976069;7.332;0.005;-0.062;-0.5;0.23;-0.18;0.0;0.0;0.0;0.0;-18.5;-33.6;-19.4;-24.6;0.02;0.16;-10.54;0.99;0.31;1.09
1753873617.981069;7.332;0.005;-0.062;-0.5;0.24;-0.18;0.0;0.0;0.0;0.0;-18.7;-30.6;-17.5;-20.4;0.02;0.17;-10.55;0.88;0.2;0.88
1753873617.986069;7.332;0.005;-0.062;-0.5;0.25;-0.18;0.0;0.0;0.0;0.0;-18.7;-29.5;-14.9;-21.4;0.03;0.17;-10.55;0.97;0.2;1.03
1753873617.991069;7.332;0.005;-0.062;-0.5;0.24;-0.18;0.0;0.0;0.0;0.0;-17.7;-32.6;-16.4;-23.8;0.02;0.17;-10.56;0.83;0.32;1.06
1753873617.996069;7.332;0.005;-0.062;-0.5;0.25;-0.18;0.0;0.0;0.0;0.0;-17.1;-33.5;-26.3;-21.2;0.03;0.17;-10.55;0.85;0.3;1.02
1753873618.001069;7.332;0.005;-0.062;-0.5;0.24;-0.18;0.0;0.0;0.0;0.0;-18.7;-31.3;-17.2;-22.7;0.02;0.17;-10.55;0.82;0.36;0.96
1753873618.00607;7.332;0.005;-0.062;-0.5;0.25;-0.18;0.0;0.0;0.0;0.0;-17.9;-30.5;-19.2;-22.0;0.02;0.18;-10.55;0.95;0.4;1.12
1753873618.01107;7.332;0.005;-0.062;-0.5;0.26;-0.18;0.0;0.0;0.0;0.0;-17.8;-31.0;-11.1;-23.2;0.02;0.18;-10.55;0.92;0.37;1.22
1753873618.016065;7.332;0.005;-0.062;-0.5;0.25;-0.18;0.0;0.0;0.0;0.0;-18.0;-31.0;-18.0;-23.0;0.02;0.17;-10.55;0.89;0.28;1.0
1753873618.021065;7.332;0.005;-0.062;-0.5;0.25;-0.18;0.0;0.0;0.0;0.0;-18.0;-31.0;-18.0;-23.0;0.01;0.17;-10.55;0.98;0.29;1.07
1753873618.026065;7.332;0.005;-0.062;-0.5;0.25;-0.18;0.0;0.0;0.0;0.0;-18.0;-31.0;-18.0;-23.0;0.01;0.16;-10.55;0.94;0.31;1.11
1753873618.031065;7.332;0.005;-0.062;-0.5;0.25;-0.18;0.0;0.0;0.0;0.0;-18.0;-31.0;-18.0;-23.0;0.01;0.16;-10.55;0.93;0.41;1.11
1753873618.036065;7.332;0.005;-0.062;-0.5;0.25;-0.18;0.0;0.0;0.0;0.0;-18.0;-31.0;-18.0;-23.0;0.01;0.16;-10.55;0.93;0.39;1.02
1753873618.041065;7.332;0.005;-0.062;-0.5;0.25;-0.18;0.0;0.0;0.0;0.0;-18.0;-31.0;-18.0;-23.0;0.01;0.17;-10.55;0.99;0.38;0.93
1753873618.046065;7.332;0.005;-0.062;-0.5;0.25;-0.18;0.0;0.0;0.0;0.0;-18.0;-31.0;-18.0;-23.0;0.01;0.17;-10.55;0.91;0.37;0.92
1753873618.051065;7.332;0.005;-0.062;-0.5;0.25;-0.18;0.0;0.0;0.0;0.0;-18.0;-31.0;-18.0;-23.0;0.01;0.17;-10.55;0.9;0.28;0.96
1753873618.056065;7.332;0.005;-0.062;-0.5;0.25;-0.18;0.0;0.0;0.0;0.0;-18.0;-31.0;-18.0;-23.0;0.01;0.17;-10.55;0.92;0.3;0.97
1753873618.061065;7.332;0.005;-0.062;-0.5;0.25;-0.18;0.0;0.0;0.0;0.0;-18.0;-31.0;-18.0;-23.0;0.01;0.17;-10.55;0.96;0.29;0.99
1753873618.066064;7.332;0.005;-0.062;-0.5;0.25;-0.18;0.0;0.0;0.0;0.0;-18.0;-31.0;-18.0;-23.0;0.0;0.17;-10.55;0.99;0.25;1.0
1753873618.071065;7.332;0.005;-0.062;-0.5;0.25;-0.18;0.0;0.0;0.0;0.0;-18.0;-31.0;-18.0;-23.0;0.01;0.17;-10.55;0.99;0.35;1.06
1753873618.076064;7.332;0.005;-0.062;-0.5;0.25;-0.18;0.0;0.0;0.0;0.0;-18.0;-31.0;-18.0;-23.0;0.01;0.17;-10.55;0.89;0.32;1.15
1753873618.081065;7.332;0.005;-0.062;-0.5;0.25;-0.18;0.0;0.0;0.0;0.0;-18.0;-31.0;-18.0;-23.0;0.01;0.18;-10.55;0.91;0.22;0.96
1753873618.086064;7.332;0.005;-0.062;-0.5;0.25;-0.18;0.0;0.0;0.0;0.0;-18.0;-31.0;-18.0;-23.0;0.0;0.17;-10.56;0.9;0.32;1.02
1753873618.091065;7.332;0.005;-0.062;-0.5;0.25;-0.18;0.0;0.0;0.0;0.0;-18.0;-31.0;-18.0;-23.0;0.01;0.17;-10.55;0.88;0.3;1.03
1753873618.096065;7.332;0.005;-0.062;-0.5;0.25;-0.18;0.0;0.0;0.0;0.0;-18.0;-31.0;-18.0;-23.0;0.01;0.16;-10.55;0.9;0.3;0.94
1753873618.101065;7.332;0.005;-0.062;-0.5;0.25;-0.18;0.0;0.0;0.0;0.0;-18.0;-31.0;-18.0;-23.0;0.0;0.17;-10.56;0.8;0.22;1.02
1753873618.106065;7.332;0.005;-0.062;-0.5;0.25;-0.18;0.0;0.0;0.0;0.0;-18.0;-31.0;-18.0;-23.0;0.0;0.17;-10.55;0.82;0.35;1.02
1753873618.111065;7.332;0.005;-0.062;-0.5;0.25;-0.18;0.0;0.0;0.0;0.0;-18.0;-31.0;-18.0;-23.0;0.0;0.17;-10.56;0.96;0.28;1.12
1753873618.116065;7.332;0.005;-0.062;-0.5;0.25;-0.18;0.0;0.0;0.0;0.0;-18.0;-31.0;-18.0;-23.0;0.01;0.17;-10.56;0.86;0.45;1.02
1753873618.121065;7.332;0.005;-0.062;-0.5;0.25;-0.18;0.0;0.0;0.0;0.0;-18.0;-31.0;-18.0;-23.0;0.02;0.17;-10.55;0.85;0.28;1.05
1753873618.126065;7.332;0.005;-0.062;-0.5;0.25;-0.18;0.0;0.0;0.0;0.0;-18.0;-31.0;-18.0;-23.0;0.01;0.17;-10.55;1.02;0.25;0.86
1753873618.131065;7.332;0.005;-0.062;-0.5;0.25;-0.18;0.0;0.0;0.0;0.0;-18.0;-31.0;-18.0;-23.0;0.01;0.17;-10.55;0.96;0.16;0.96
1753873618.136065;7.332;0.005;-0.062;-0.5;0.25;-0.18;0.0;0.0;0.0;0.0;-18.0;-31.0;-18.0;-23.0;0.01;0.17;-10.55;0.9;0.22;0.9
1753873618.141065;7.332;0.005;-0.062;-0.5;0.25;-0.18;0.0;0.0;0.0;0.0;-18.0;-31.0;-18.0;-23.0;0.02;0.18;-10.56;0.99;0.2;0.99
1753873618.146065;7.332;0.005;-0.062;-0.5;0.25;-0.18;0.0;0.0;0.0;0.0;-18.0;-31.0;-18.0;-23.0;0.02;0.18;-10.56;0.86;0.45;1.02
1753873618.151065;7.332;0.005;-0.062;-0.5;0.25;-0.18;0.0;0.0;0.0;0.0;-18.0;-31.0;-18.0;-23.0;0.02;0.18;-10.56;1.05;0.42;1.09
1753873618.156065;7.332;0.005;-0.062;-0.5;0.25;-0.18;0.0;0.0;0.0;0.0;-18.0;-31.0;-18.0;-23.0;0.03;0.17;-10.57;0.93;0.32;1.01
1753873618.161065;7.332;0.005;-0.062;-0.5;0.25;-0.18;0.0;0.0;0.0;0.0;-18.0;-31.0;-18.0;-23.0;0.02;0.18;-10.56;0.95;0.22;1.01
1753873618.166065;7.332;0.005;-0.062;-0.5;0.25;-0.18;0.0;0.0;0.0;0.0;-18.0;-31.0;-18.0;-23.0;0.02;0.17;-10.56;1.02;0.41;0.93
1753873618.171065;7.332;0.005;-0.062;-0.5;0.25;-0.18;0.0;0.0;0.0;0.0;-18.0;-31.0;-18.0;-23.0;0.01;0.17;-10.56;0.9;0.27;0.94
1753873618.176065;7.332;0.005;-0.062;-0.5;0.25;-0.18;0.0;0.0;0.0;0.0;-18.0;-31.0;-18.0;-23.0;0.0;0.17;-10.56;0.91;0.25;0.87
1753873618.181065;7.332;0.005;-0.062;-0.5;0.25;-0.18;0.0;0.0;0.0;0.0;-18.0;-31.0;-18.0;-23.0;0.01;0.17;-10.56;0.74;0.47;0.99
1753873618.186065;7.332;0.005;-0.062;-0.5;0.25;-0.18;0.0;0.0;0.0;0.0;-18.0;-31.0;-18.0;-23.0;0.01;0.17;-10.56;0.89;0.29;0.86
1753873618.191064;7.332;0.005;-0.062;-0.5;0.25;-0.18;0.0;0.0;0.0;0.0;-18.0;-31.0;-18.0;-23.0;0.01;0.17;-10.56;0.92;0.25;1.12
1753873618.196065;7.332;0.005;-0.062;-0.5;0.25;-0.18;0.0;0.0;0.0;0.0;-18.0;-31.0;-18.0;-23.0;0.0;0.17;-10.56;0.9;0.28;1.12
1753873618.201064;7.332;0.005;-0.062;-0.5;0.25;-0.18;0.0;0.0;0.0;0.0;-18.0;-31.0;-18.0;-23.0;0.0;0.18;-10.55;0.86;0.25;1.02
1753873618.206065;7.332;0.005;-0.062;-0.5;0.25;-0.18;0.0;0.0;0.0;0.0;-18.0;-31.0;-18.0;-23.0;0.0;0.18;-10.55;0.86;0.31;0.99
1753873618.211064;7.332;0.005;-0.062;-0.5;0.25;-0.18;0.0;0.0;0.0;0.0;-18.0;-31.0;-18.0;-23.0;0.0;0.18;-10.55;0.86;0.43;0.93
1753873618.216065;7.332;0.005;-0.062;-0.5;0.25;-0.18;0.0;0.0;0.0;0.0;-18.0;-31.0;-18.0;-23.0;0.0;0.17;-10.55;0.99;0.17;1.02
1753873618.221065;7.332;0.005;-0.062;-0.5;0.25;-0.18;0.0;0.0;0.0;0.0;-18.0;-31.0;-18.0;-23.0;0.0;0.18;-10.55;1.04;0.5;0.97
1753873618.226065;7.332;0.005;-0.062;-0.5;0.25;-0.18;0.0;0.0;0.0;0.0;-18.0;-31.0;-18.0;-23.0;0.0;0.18;-10.55;1.02;0.35;1.05
1753873618.231065;7.332;0.005;-0.062;-0.5;0.25;-0.18;0.0;0.0;0.0;0.0;-18.0;-31.0;-18.0;-23.0;0.0;0.18;-10.55;0.94;0.37;1.01
1753873618.236065;7.332;0.005;-0.062;-0.5;0.25;-0.18;0.0;0.0;0.0;0.0;-18.0;-31.0;-18.0;-23.0;0.0;0.18;-10.55;0.92;0.45;1.06
1753873618.241065;7.332;0.005;-0.062;-0.5;0.25;-0.18;0.0;0.0;0.0;0.0;-18.0;-31.0;-18.0;-23.0;0.0;0.18;-10.55;0.8;0.27;0.98
1753873618.246065;7.332;0.005;-0.062;-0.5;0.25;-0.18;0.0;0.0;0.0;0.0;-18.0;-31.0;-18.0;-23.0;0.0;0.17;-10.55;0.96;0.26;0.96
1753873618.251065;7.332;0.005;-0.062;-0.5;0.25;-0.18;0.0;0.0;0.0;0.0;-18.0;-31.0;-18.0;-23.0;0.0;0.17;-10.54;1.0;0.36;1.09
1753873618.256065;7.332;0.005;-0.062;-0.5;0.25;-0.18;0.0;0.0;0.0;0.0;-18.0;-31.0;-18.0;-23.0;0.0;0.17;-10.54;0.93;0.24;1.09
1753873618.261065;7.332;0.005;-0.062;-0.5;0.25;-0.18;0.0;0.0;0.0;0.0;-18.0;-31.0;-18.0;-23.0;0.0;0.17;-10.55;0.9;0.23;0.84
1753873618.266065;7.332;0.005;-0.062;-0.5;0.25;-0.18;0.0;0.0;0.0;0.0;-18.0;-31.0;-18.0;-23.0;0.0;0.17;-10.54;0.75;0.22;0.97
1753873618.271065;7.332;0.005;-0.062;-0.5;0.25;-0.18;0.0;0.0;0.0;0.0;-18.0;-31.0;-18.0;-23.0;0.0;0.17;-10.55;0.92;0.2;0.99
1753873618.276065;7.332;0.005;-0.062;-0.5;0.25;-0.18;0.0;0.0;0.0;0.0;-18.0;-31.0;-18.0;-23.0;0.0;0.17;-10.55;0.96;0.2;0.96
1753873618.281065;7.332;0.005;-0.062;-0.5;0.25;-0.18;0.0;0.0;0.0;0.0;-18.0;-31.0;-18.0;-23.0;0.0;0.17;-10.54;0.9;0.24;1.09
1753873618.286065;7.332;0.005;-0.062;-0.5;0.25;-0.18;0.0;0.0;0.0;0.0;-18.0;-31.0;-18.0;-23.0;0.0;0.17;-10.55;0.98;0.31;1.01
1753873618.291065;7.332;0.005;-0.062;-0.5;0.25;-0.18;0.0;0.0;0.0;0.0;-18.0;-31.0;-18.0;-23.0;0.0;0.17;-10.55;0.99;0.28;0.96
1753873618.296065;7.332;0.005;-0.062;-0.5;0.25;-0.18;0.0;0.0;0.0;0.0;-18.0;-31.0;-18.0;-23.0;0.01;0.17;-10.55;0.97;0.31;1.09
1753873618.301065;7.332;0.005;-0.062;-0.5;0.25;-0.18;0.0;0.0;0.0;0.0;-18.0;-31.0;-18.0;-23.0;0.01;0.17;-10.55;1.0;0.25;0.98
1753873618.306065;7.332;0.005;-0.062;-0.5;0.25;-0.18;0.0;0.0;0.0;0.0;-18.0;-31.0;-18.0;-23.0;0.02;0.17;-10.55;0.91;0.26;1.0
1753873618.311065;7.332;0.005;-0.062;-0.5;0.25;-0.18;0.0;0.0;0.0;0.0;-18.0;-31.0;-18.0;-23.0;0.02;0.17;-10.55;0.93;0.19;1.01
1753873618.316064;7.332;0.005;-0.062;-0.5;0.25;-0.18;0.0;0.0;0.0;0.0;-18.0;-31.0;-18.0;-23.0;0.01;0.17;-10.55;0.79;0.35;1.03
1753873618.321065;7.332;0.005;-0.062;-0.5;0.25;-0.18;0.0;0.0;0.0;0.0;-18.0;-31.0;-18.0;-23.0;0.01;0.17;-10.54;0.86;0.33;0.96
1753873618.326064;7.332;0.005;-0.062;-0.5;0.25;-0.18;0.0;0.0;0.0;0.0;-18.0;-31.0;-18.0;-23.0;0.01;0.17;-10.54;0.86;0.3;1.0
1753873618.331065;7.332;0.005;-0.062;-0.5;0.25;-0.18;0.0;0.0;0.0;0.0;-18.0;-31.0;-18.0;-23.0;0.01;0.17;-10.54;0.96;0.39;1.06
1753873618.336064;7.332;0.005;-0.062;-0.5;0.25;-0.18;0.0;0.0;0.0;0.0;-18.0;-31.0;-18.0;-23.0;0.01;0.17;-10.54;0.93;0.4;1.06
1753873618.341065;7.332;0.005;-0.062;-0.5;0.25;-0.18;0.0;0.0;0.0;0.0;-18.0;-31.0;-18.0;-23.0;0.01;0.17;-10.54;0.92;0.31;1.07
1753873618.346065;7.332;0.005;-0.062;-0.5;0.25;-0.18;0.0;0.0;0.0;0.0;-18.0;-31.0;-18.0;-23.0;0.01;0.16;-10.55;0.84;0.41;1.11
1753873618.351065;7.332;0.005;-0.062;-0.5;0.25;-0.18;0.0;0.0;0.0;0.0;-18.0;-31.0;-18.0;-23.0;0.01;0.17;-10.54;0.99;0.36;0.94
1753873618.356065;7.332;0.005;-0.062;-0.5;0.25;-0.18;0.0;0.0;0.0;0.0;-18.0;-31.0;-18.0;-23.0;0.01;0.18;-10.55;0.89;0.37;0.99
1753873618.361065;7.332;0.005;-0.062;-0.5;0.25;-0.18;0.0;0.0;0.0;0.0;-18.0;-31.0;-18.0;-23.0;0.01;0.18;-10.56;0.82;0.29;0.99
1753873618.366065;7.332;0.005;-0.062;-0.5;0.25;-0.18;0.0;0.0;0.0;0.0;-18.0;-31.0;-18.0;-23.0;0.01;0.18;-10.56;0.87;0.42;1.01
1753873618.371066;7.332;0.005;-0.062;-0.5;0.25;-0.18;0.0;0.0;0.0;0.0;-18.0;-31.0;-18.0;-23.0;0.02;0.18;-10.56;0.91;0.39;1.06
1753873618.376066;7.332;0.005;-0.062;-0.5;0.25;-0.18;0.0;0.0;0.0;0.0;-18.0;-31.0;-18.0;-23.0;0.01;0.19;-10.56;0.89;0.4;0.98
1753873618.381066;7.332;0.005;-0.062;-0.5;0.25;-0.18;0.0;0.0;0.0;0.0;-18.0;-31.0;-18.0;-23.0;0.02;0.18;-10.54;0.92;0.35;1.01
1753873618.386066;7.332;0.005;-0.062;-0.5;0.25;-0.18;0.0;0.0;0.0;0.0;-18.0;-31.0;-18.0;-23.0;-0.0;0.19;-10.54;0.8;0.25;0.99
1753873618.391066;7.332;0.005;-0.062;-0.5;0.25;-0.18;0.0;0.0;0.0;0.0;-18.0;-31.0;-18.0;-23.0;0.01;0.19;-10.55;0.9;0.17;1.02
1753873618.396065;7.332;0.005;-0.062;-0.5;0.25;-0.18;0.0;0.0;0.0;0.0;-18.0;-31.0;-18.0;-23.0;0.01;0.19;-10.55;0.86;0.28;1.0
1753873618.401065;7.332;0.005;-0.062;-0.5;0.25;-0.18;0.0;0.0;0.0;0.0;-18.0;-31.0;-18.0;-23.0;0.01;0.19;-10.55;0.87;0.25;0.97
1753873618.406065;7.332;0.005;-0.062;-0.5;0.25;-0.18;0.0;0.0;0.0;0.0;-18.0;-31.0;-18.0;-23.0;0.01;0.19;-10.55;0.86;0.32;1.03
1753873618.411065;7.332;0.005;-0.062;-0.5;0.25;-0.18;0.0;0.0;0.0;0.0;-18.0;-31.0;-18.0;-23.0;0.01;0.19;-10.55;0.86;0.38;0.99
1753873618.416065;7.332;0.005;-0.062;-0.5;0.25;-0.18;0.0;0.0;0.0;0.0;-18.0;-31.0;-18.0;-23.0;0.01;0.2;-10.55;0.94;0.31;1.07
1753873618.421065;7.332;0.005;-0.062;-0.5;0.25;-0.18;0.0;0.0;0.0;0.0;-18.0;-31.0;-18.0;-23.0;0.01;0.2;-10.55;0.91;0.19;1.08
1753873618.426065;7.332;0.005;-0.062;-0.5;0.25;-0.18;0.0;0.0;0.0;0.0;-18.0;-31.0;-18.0;-23.0;0.01;0.2;-10.55;0.92;0.33;1.02
1753873618.431065;7.332;0.005;-0.062;-0.5;0.25;-0.18;0.0;0.0;0.0;0.0;-18.0;-31.0;-18.0;-23.0;0.02;0.19;-10.56;0.96;0.4;1.01
1753873618.436065;7.332;0.005;-0.062;-0.5;0.25;-0.18;0.0;0.0;0.0;0.0;-18.0;-31.0;-18.0;-23.0;0.01;0.19;-10.56;0.86;0.24;1.09
1753873618.441064;7.332;0.005;-0.062;-0.5;0.25;-0.18;0.0;0.0;0.0;0.0;-18.0;-31.0;-18.0;-23.0;0.02;0.18;-10.56;0.93;0.32;0.96
1753873618.446065;7.332;0.005;-0.062;-0.5;0.25;-0.18;0.0;0.0;0.0;0.0;-18.0;-31.0;-18.0;-23.0;0.02;0.18;-10.57;0.96;0.39;1.09
1753873618.451064;7.332;0.005;-0.062;-0.5;0.25;-0.18;0.0;0.0;0.0;0.0;-18.0;-31.0;-18.0;-23.0;0.02;0.18;-10.56;0.86;0.35;1.08
1753873618.456065;7.332;0.005;-0.062;-0.5;0.25;-0.18;0.0;0.0;0.0;0.0;-18.0;-31.0;-18.0;-23.0;0.02;0.18;-10.56;0.89;0.32;0.96
1753873618.461064;7.332;0.005;-0.062;-0.5;0.25;-0.18;0.0;0.0;0.0;0.0;-18.0;-31.0;-18.0;-23.0;0.02;0.18;-10.56;1.04;0.35;1.01
1753873618.466065;7.332;0.005;-0.062;-0.5;0.25;-0.18;0.0;0.0;0.0;0.0;-18.0;-31.0;-18.0;-23.0;0.02;0.17;-10.57;1.02;0.35;1.08
1753873618.471065;7.332;0.005;-0.062;-0.5;0.25;-0.18;0.0;0.0;0.0;0.0;-18.0;-31.0;-18.0;-23.0;0.02;0.16;-10.57;1.0;0.5;1.07
1753873618.476065;7.332;0.005;-0.062;-0.5;0.25;-0.18;0.0;0.0;0.0;0.0;-18.0;-30.6;-20.1;-24.0;0.01;0.17;-10.57;1.04;0.55;1.13
1753873618.481065;7.332;0.005;-0.062;-0.5;0.25;-0.18;0.0;0.0;0.0;0.0;-17.8;-30.8;-18.8;-24.4;0.02;0.16;-10.57;1.03;0.5;1.13
1753873618.486066;7.332;0.005;-0.062;-0.5;0.25;-0.18;0.0;0.0;0.0;0.0;-17.8;-31.2;-19.0;-22.8;0.02;0.16;-10.56;0.95;0.43;1.07
1753873618.491066;7.332;0.005;-0.062;-0.5;0.25;-0.18;0.0;0.0;0.0;0.0;-18.1;-30.7;-23.2;-21.8;0.02;0.15;-10.55;1.02;0.51;1.1
1753873618.496066;7.332;0.005;-0.062;-0.5;0.25;-0.18;0.0;0.0;0.0;0.0;-17.7;-30.5;-23.0;-22.6;0.02;0.16;-10.56;0.97;0.53;1.14
1753873618.501066;7.332;0.005;-0.062;-0.5;0.25;-0.18;0.0;0.0;0.0;0.0;-17.6;-30.8;-21.7;-21.6;0.02;0.17;-10.55;1.02;0.54;1.12
1753873618.506066;7.332;0.005;-0.062;-0.5;0.24;-0.18;0.0;0.0;0.0;0.0;-17.8;-30.4;-19.9;-21.9;0.01;0.16;-10.56;0.95;0.41;1.1
1753873618.511066;7.332;0.005;-0.062;-0.5;0.25;-0.18;0.0;0.0;0.0;0.0;-17.7;-30.6;-19.7;-21.9;0.02;0.17;-10.56;1.07;0.39;1.02
1753873618.516066;7.332;0.005;-0.062;-0.5;0.25;-0.18;0.0;0.0;0.0;0.0;-17.7;-30.6;-21.9;-20.9;0.01;0.14;-10.54;1.01;0.41;0.93
1753873618.521066;7.332;0.005;-0.062;-0.5;0.24;-0.18;0.0;0.0;0.0;0.0;-18.1;-30.6;-19.8;-21.5;0.02;0.17;-10.55;0.89;0.36;1.08
1753873618.526066;7.332;0.005;-0.062;-0.5;0.25;-0.18;0.0;0.0;0.0;0.0;-17.6;-30.4;-19.4;-22.4;0.01;0.18;-10.57;0.81;0.42;1.01
1753873618.531066;7.332;0.005;-0.062;-0.5;0.25;-0.18;0.0;0.0;0.0;0.0;-17.4;-30.7;-20.5;-21.4;0.02;0.14;-10.55;1.02;0.33;1.08
1753873618.536066;7.332;0.005;-0.062;-0.5;0.25;-0.18;0.0;0.0;0.0;0.0;-17.2;-30.6;-18.9;-21.9;0.01;0.16;-10.55;1.0;0.3;1.06
1753873618.541067;7.332;0.005;-0.062;-0.5;0.24;-0.18;0.0;0.0;0.0;0.0;-17.3;-30.5;-22.1;-20.8;0.01;0.15;-10.55;0.98;0.45;1.15
1753873618.546067;7.332;0.005;-0.062;-0.5;0.24;-0.18;0.0;0.0;0.0;0.0;-17.5;-30.3;-21.0;-21.0;0.02;0.17;-10.55;0.99;0.38;1.1
1753873618.551067;7.332;0.005;-0.062;-0.5;0.24;-0.18;0.0;0.0;0.0;0.0;-18.1;-30.5;-22.7;-20.6;0.01;0.16;-10.54;0.93;0.37;1.07
1753873618.556067;7.332;0.005;-0.062;-0.5;0.24;-0.18;0.0;0.0;0.0;0.0;-17.5;-30.1;-22.3;-21.3;0.02;0.18;-10.55;0.87;0.25;0.98
1753873618.561067;7.332;0.005;-0.062;-0.5;0.24;-0.18;0.0;0.0;0.0;0.0;-17.5;-30.2;-23.7;-20.3;0.01;0.17;-10.55;0.95;0.35;1.16
1753873618.566067;7.332;0.005;-0.062;-0.5;0.24;-0.18;0.0;0.0;0.0;0.0;-17.2;-30.1;-25.1;-20.6;0.0;0.18;-10.55;0.9;0.29;1.07
1753873618.571067;7.332;0.005;-0.062;-0.5;0.24;-0.18;0.0;0.0;0.0;0.0;-17.1;-30.3;-24.9;-20.5;0.01;0.19;-10.54;0.93;0.39;0.99
1753873618.576068;7.332;0.005;-0.062;-0.5;0.24;-0.18;0.0;0.0;0.0;0.0;-16.6;-30.0;-26.5;-20.4;0.01;0.14;-10.55;0.88;0.42;1.04
1753873618.581065;7.332;0.005;-0.062;-0.5;0.24;-0.18;0.0;0.0;0.0;0.0;-17.0;-30.0;-24.0;-20.0;0.01;0.16;-10.54;0.9;0.3;1.06
1753873618.586064;7.332;0.005;-0.062;-0.5;0.24;-0.18;0.0;0.0;0.0;0.0;-17.0;-30.0;-24.0;-20.0;0.01;0.16;-10.53;0.96;0.21;1.1
1753873618.591065;7.332;0.005;-0.062;-0.5;0.24;-0.18;0.0;0.0;0.0;0.0;-17.0;-30.0;-24.0;-20.0;0.01;0.17;-10.53;0.89;0.35;1.04
1753873618.596065;7.332;0.005;-0.062;-0.5;0.24;-0.18;0.0;0.0;0.0;0.0;-17.0;-30.0;-24.0;-20.0;0.01;0.17;-10.53;0.87;0.34;0.91
1753873618.601065;7.332;0.005;-0.062;-0.5;0.24;-0.18;0.0;0.0;0.0;0.0;-17.0;-30.0;-24.0;-20.0;0.01;0.17;-10.53;0.9;0.43;1.06
1753873618.606065;7.332;0.005;-0.062;-0.5;0.24;-0.18;0.0;0.0;0.0;0.0;-17.0;-30.0;-24.0;-20.0;0.0;0.16;-10.53;0.89;0.35;1.04
1753873618.611065;7.332;0.005;-0.062;-0.5;0.24;-0.18;0.0;0.0;0.0;0.0;-17.0;-30.0;-24.0;-20.0;0.01;0.16;-10.53;0.96;0.29;1.06
1753873618.616065;7.332;0.005;-0.062;-0.5;0.24;-0.18;0.0;0.0;0.0;0.0;-17.0;-30.0;-24.0;-20.0;0.01;0.16;-10.53;0.99;0.28;0.96
1753873618.621065;7.332;0.005;-0.062;-0.5;0.24;-0.18;0.0;0.0;0.0;0.0;-17.0;-30.0;-24.0;-20.0;0.01;0.16;-10.54;0.96;0.31;1.12
1753873618.626065;7.332;0.005;-0.062;-0.5;0.24;-0.18;0.0;0.0;0.0;0.0;-17.0;-30.0;-24.0;-20.0;0.02;0.16;-10.55;0.89;0.34;0.9
1753873618.631065;7.332;0.005;-0.062;-0.5;0.24;-0.18;0.0;0.0;0.0;0.0;-17.0;-30.0;-24.0;-20.0;0.02;0.17;-10.55;0.99;0.36;0.99
1753873618.636065;7.332;0.005;-0.062;-0.5;0.24;-0.18;0.0;0.0;0.0;0.0;-17.0;-30.0;-24.0;-20.0;0.01;0.17;-10.55;0.94;0.39;1.11
1753873618.641065;7.332;0.005;-0.062;-0.5;0.24;-0.18;0.0;0.0;0.0;0.0;-17.0;-30.0;-24.0;-20.0;0.01;0.17;-10.55;1.04;0.41;0.96
1753873618.646065;7.332;0.005;-0.062;-0.5;0.24;-0.18;0.0;0.0;0.0;0.0;-17.0;-30.0;-24.0;-20.0;0.02;0.17;-10.56;0.92;0.2;0.96
1753873618.651065;7.332;0.005;-0.062;-0.5;0.24;-0.18;0.0;0.0;0.0;0.0;-17.0;-30.0;-24.0;-20.0;0.02;0.18;-10.55;0.89;0.29;0.92
1753873618.656065;7.332;0.005;-0.062;-0.5;0.24;-0.18;0.0;0.0;0.0;0.0;-17.0;-30.0;-24.0;-20.0;0.02;0.18;-10.56;0.9;0.4;0.9
1753873618.661065;7.332;0.005;-0.062;-0.5;0.24;-0.18;0.0;0.0;0.0;0.0;-17.0;-30.0;-24.0;-20.0;0.02;0.18;-10.55;1.06;0.34;0.95
1753873618.666065;7.332;0.005;-0.062;-0.5;0.24;-0.18;0.0;0.0;0.0;0.0;-17.0;-30.0;-24.0;-20.0;0.02;0.19;-10.55;0.96;0.4;1.06
1753873618.671065;7.332;0.005;-0.062;-0.5;0.24;-0.18;0.0;0.0;0.0;0.0;-17.0;-30.0;-24.0;-20.0;0.01;0.19;-10.56;0.98;0.43;0.9
1753873618.676065;7.332;0.005;-0.062;-0.5;0.24;-0.18;0.0;0.0;0.0;0.0;-17.0;-30.0;-24.0;-20.0;0.01;0.2;-10.56;0.8;0.26;1.02
1753873618.681065;7.332;0.005;-0.062;-0.5;0.24;-0.18;0.0;0.0;0.0;0.0;-17.0;-30.0;-24.0;-20.0;0.01;0.19;-10.56;1.0;0.25;0.96
1753873618.686065;7.332;0.005;-0.062;-0.5;0.24;-0.18;0.0;0.0;0.0;0.0;-17.0;-30.0;-24.0;-20.0;0.01;0.19;-10.57;1.09;0.23;1.08
1753873618.691064;7.332;0.005;-0.062;-0.5;0.24;-0.18;0.0;0.0;0.0;0.0;-17.0;-30.0;-24.0;-20.0;0.01;0.19;-10.57;0.88;0.42;0.88
1753873618.696065;7.332;0.005;-0.062;-0.5;0.24;-0.18;0.0;0.0;0.0;0.0;-17.0;-30.0;-24.0;-20.0;0.01;0.19;-10.57;0.88;0.26;0.99
1753873618.701064;7.332;0.005;-0.062;-0.5;0.24;-0.18;0.0;0.0;0.0;0.0;-17.0;-30.0;-24.0;-20.0;0.01;0.19;-10.57;0.97;0.43;1.06
1753873618.706065;7.332;0.005;-0.062;-0.5;0.24;-0.18;0.0;0.0;0.0;0.0;-17.0;-30.0;-24.0;-20.0;0.01;0.19;-10.57;0.8;0.23;0.96
1753873618.711064;7.332;0.005;-0.062;-0.5;0.24;-0.18;0.0;0.0;0.0;0.0;-17.0;-30.0;-24.0;-20.0;0.01;0.18;-10.58;0.94;0.32;0.94
1753873618.716065;7.332;0.005;-0.062;-0.5;0.24;-0.18;0.0;0.0;0.0;0.0;-17.0;-30.0;-24.0;-20.0;0.0;0.18;-10.58;0.93;0.29;0.96
1753873618.721065;7.332;0.005;-0.062;-0.5;0.24;-0.18;0.0;0.0;0.0;0.0;-17.0;-30.0;-24.0;-20.0;0.0;0.19;-10.58;0.83;0.33;1.08
1753873618.726065;7.332;0.005;-0.062;-0.5;0.24;-0.18;0.0;0.0;0.0;0.0;-17.0;-30.0;-24.0;-20.0;0.01;0.18;-10.57;0.88;0.15;1.04
1753873618.731065;7.332;0.005;-0.062;-0.5;0.24;-0.18;0.0;0.0;0.0;0.0;-17.0;-30.0;-24.0;-20.0;0.01;0.18;-10.57;0.89;0.28;1.04
1753873618.736065;7.332;0.005;-0.062;-0.5;0.24;-0.18;0.0;0.0;0.0;0.0;-17.0;-30.0;-24.0;-20.0;0.0;0.18;-10.56;0.99;0.45;0.99
1753873618.741065;7.332;0.005;-0.062;-0.5;0.24;-0.18;0.0;0.0;0.0;0.0;-17.0;-30.0;-24.0;-20.0;0.01;0.18;-10.56;0.97;0.41;1.06
1753873618.746065;7.332;0.005;-0.062;-0.5;0.24;-0.18;0.0;0.0;0.0;0.0;-17.0;-30.0;-24.0;-20.0;0.01;0.17;-10.55;1.02;0.33;1.06
1753873618.751065;7.332;0.005;-0.062;-0.5;0.24;-0.18;0.0;0.0;0.0;0.0;-17.0;-30.0;-24.0;-20.0;0.0;0.18;-10.55;0.98;0.42;1.09
1753873618.756065;7.332;0.005;-0.062;-0.5;0.24;-0.18;0.0;0.0;0.0;0.0;-17.0;-30.0;-24.0;-20.0;0.0;0.19;-10.55;0.96;0.28;0.99
1753873618.761065;7.332;0.005;-0.062;-0.5;0.24;-0.18;0.0;0.0;0.0;0.0;-17.0;-30.0;-24.0;-20.0;0.01;0.19;-10.55;0.8;0.41;1.05
1753873618.766065;7.332;0.005;-0.062;-0.5;0.24;-0.18;0.0;0.0;0.0;0.0;-17.0;-30.0;-24.0;-20.0;0.01;0.19;-10.56;0.88;0.38;0.92
1753873618.771065;7.332;0.005;-0.062;-0.5;0.24;-0.18;0.0;0.0;0.0;0.0;-17.0;-30.0;-24.0;-20.0;0.01;0.18;-10.56;0.88;0.42;1.0
1753873618.776065;7.332;0.005;-0.062;-0.5;0.24;-0.18;0.0;0.0;0.0;0.0;-17.0;-30.0;-24.0;-20.0;0.0;0.18;-10.57;0.93;0.41;0.99
1753873618.781065;7.332;0.005;-0.062;-0.5;0.24;-0.18;0.0;0.0;0.0;0.0;-17.0;-30.0;-24.0;-20.0;0.0;0.18;-10.57;1.07;0.39;0.99
1753873618.786065;7.332;0.005;-0.062;-0.5;0.24;-0.18;0.0;0.0;0.0;0.0;-17.0;-30.0;-24.0;-20.0;0.0;0.18;-10.57;0.99;0.41;1.1
1753873618.791065;7.332;0.005;-0.062;-0.5;0.24;-0.18;0.0;0.0;0.0;0.0;-17.0;-30.0;-24.0;-20.0;0.0;0.18;-10.57;0.99;0.27;1.04
1753873618.796065;7.332;0.005;-0.062;-0.5;0.24;-0.18;0.0;0.0;0.0;0.0;-17.0;-30.0;-24.0;-20.0;0.0;0.18;-10.57;0.96;0.39;0.99
1753873618.801065;7.332;0.005;-0.062;-0.5;0.24;-0.18;0.0;0.0;0.0;0.0;-17.0;-30.0;-24.0;-20.0;0.0;0.18;-10.58;1.02;0.39;1.03
1753873618.806065;7.332;0.005;-0.062;-0.5;0.24;-0.18;0.0;0.0;0.0;0.0;-17.0;-30.0;-24.0;-20.0;0.0;0.18;-10.58;0.99;0.25;0.92
1753873618.811065;7.332;0.005;-0.062;-0.5;0.24;-0.18;0.0;0.0;0.0;0.0;-17.0;-30.0;-24.0;-20.0;0.0;0.17;-10.58;1.0;0.41;0.97
1753873618.816064;7.332;0.005;-0.062;-0.5;0.24;-0.18;0.0;0.0;0.0;0.0;-17.0;-30.0;-24.0;-20.0;0.0;0.17;-10.57;1.06;0.28;1.06
1753873618.821065;7.332;0.005;-0.062;-0.5;0.24;-0.18;0.0;0.0;0.0;0.0;-17.0;-30.0;-24.0;-20.0;0.0;0.17;-10.57;0.86;0.31;0.9
1753873618.826064;7.332;0.005;-0.062;-0.5;0.24;-0.18;0.0;0.0;0.0;0.0;-17.0;-30.0;-24.0;-20.0;0.0;0.17;-10.57;0.96;0.38;0.91
1753873618.831065;7.332;0.005;-0.062;-0.5;0.24;-0.18;0.0;0.0;0.0;0.0;-17.0;-30.0;-24.0;-20.0;0.01;0.17;-10.56;0.98;0.29;1.09
1753873618.836065;7.332;0.005;-0.062;-0.5;0.24;-0.18;0.0;0.0;0.0;0.0;-17.0;-31.2;-23.7;-20.2;0.02;0.17;-10.56;0.91;0.23;1.05
1753873618.841065;7.332;0.005;-0.062;-0.5;0.24;-0.18;0.0;0.0;0.0;0.0;-17.1;-29.7;-24.8;-20.4;0.01;0.17;-10.56;0.8;0.31;1.02
1753873618.846065;7.332;0.005;-0.062;-0.5;0.24;-0.18;0.0;0.0;0.0;0.0;-17.5;-30.6;-24.5;-22.0;0.0;0.17;-10.57;1.09;0.26;1.18
1753873618.851066;7.332;0.005;-0.062;-0.5;0.24;-0.18;0.0;0.0;0.0;0.0;-17.4;-29.6;-24.8;-21.2;0.02;0.16;-10.57;0.94;0.33;1.15
1753873618.856066;7.332;0.005;-0.062;-0.5;0.24;-0.18;0.0;0.0;0.0;0.0;-17.7;-31.0;-23.3;-20.2;0.02;0.17;-10.55;1.0;0.27;1.12
1753873618.861066;7.332;0.005;-0.062;-0.5;0.24;-0.18;0.0;0.0;0.0;0.0;-18.2;-31.8;-24.8;-21.6;0.01;0.17;-10.57;1.09;0.35;1.1
1753873618.866066;7.332;0.005;-0.062;-0.5;0.24;-0.18;0.0;0.0;0.0;0.0;-17.4;-31.2;-24.6;-20.7;0.01;0.17;-10.55;0.88;0.3;0.98
1753873618.871066;7.332;0.005;-0.062;-0.5;0.24;-0.18;0.0;0.0;0.0;0.0;-18.5;-31.4;-25.5;-22.6;0.02;0.16;-10.56;1.04;0.29;1.2
1753873618.876066;7.332;0.005;-0.062;-0.5;0.24;-0.18;0.0;0.0;0.0;0.0;-17.1;-30.8;-24.4;-22.7;0.01;0.16;-10.55;0.99;0.27;1.07
1753873618.881066;7.332;0.005;-0.062;-0.5;0.24;-0.18;0.0;0.0;0.0;0.0;-17.7;-33.2;-24.4;-21.1;0.0;0.17;-10.55;0.96;0.25;1.04
1753873618.886066;7.332;0.005;-0.062;-0.5;0.24;-0.18;0.0;0.0;0.0;0.0;-17.9;-31.1;-24.7;-21.9;0.03;0.17;-10.56;0.96;0.35;0.97
1753873618.891066;7.332;0.005;-0.062;-0.5;0.24;-0.18;0.0;0.0;0.0;0.0;-18.2;-32.3;-23.8;-20.7;0.02;0.17;-10.55;1.02;0.32;1.1
1753873618.896066;7.332;0.005;-0.062;-0.5;0.24;-0.18;0.0;0.0;0.0;0.0;-18.5;-31.7;-24.9;-22.9;0.0;0.17;-10.55;1.01;0.19;1.04
1753873618.901066;7.332;0.005;-0.062;-0.5;0.24;-0.18;0.0;0.0;0.0;0.0;-17.6;-33.1;-25.7;-24.3;0.02;0.18;-10.56;1.02;0.22;1.13
1753873618.906067;7.332;0.005;-0.062;-0.5;0.24;-0.18;0.0;0.0;0.0;0.0;-18.6;-32.9;-25.7;-24.8;0.02;0.17;-10.55;0.88;0.07;1.0
1753873618.911067;7.332;0.005;-0.062;-0.5;0.24;-0.18;0.0;0.0;0.0;0.0;-18.4;-33.4;-26.4;-22.5;0.03;0.17;-10.56;0.93;0.27;1.07
1753873618.916067;7.332;0.005;-0.062;-0.5;0.24;-0.18;0.0;0.0;0.0;0.0;-18.6;-33.1;-26.7;-22.6;0.02;0.15;-10.55;0.93;0.25;1.08
1753873618.921067;7.332;0.005;-0.062;-0.5;0.24;-0.18;0.0;0.0;0.0;0.0;-18.4;-31.5;-27.6;-25.4;0.03;0.16;-10.55;0.99;0.22;1.12
1753873618.926067;7.332;0.005;-0.062;-0.5;0.24;-0.18;0.0;0.0;0.0;0.0;-18.6;-33.8;-25.1;-24.3;0.02;0.18;-10.56;0.95;0.3;1.14
1753873618.931067;7.332;0.005;-0.062;-0.5;0.24;-0.18;0.0;0.0;0.0;0.0;-18.7;-34.6;-26.3;-26.8;0.01;0.17;-10.54;0.99;0.22;1.08
1753873618.936067;7.332;0.005;-0.062;-0.5;0.24;-0.18;0.0;0.0;0.0;0.0;-19.3;-32.9;-28.3;-24.9;0.02;0.17;-10.55;1.02;0.41;1.0
1753873618.941068;7.332;0.005;-0.062;-0.5;0.24;-0.18;0.0;0.0;0.0;0.0;-19.5;-33.2;-25.8;-26.0;0.03;0.17;-10.55;0.96;0.27;1.04
1753873618.946065;7.332;0.005;-0.062;-0.5;0.24;-0.18;0.0;0.0;0.0;0.0;-19.0;-34.0;-27.0;-25.0;0.02;0.17;-10.55;1.0;0.25;1.09
1753873618.951064;7.332;0.005;-0.062;-0.5;0.24;-0.18;0.0;0.0;0.0;0.0;-19.0;-34.0;-27.0;-25.0;0.02;0.17;-10.55;0.86;0.45;1.11
1753873618.956065;7.332;0.005;-0.062;-0.5;0.24;-0.18;0.0;0.0;0.0;0.0;-19.0;-34.0;-27.0;-25.0;0.02;0.17;-10.56;0.8;0.23;1.02
1753873618.961064;7.332;0.005;-0.062;-0.5;0.24;-0.18;0.0;0.0;0.0;0.0;-19.0;-34.0;-27.0;-25.0;0.02;0.17;-10.56;0.99;0.3;0.91
1753873618.966065;7.332;0.005;-0.062;-0.5;0.24;-0.18;0.0;0.0;0.0;0.0;-19.0;-34.0;-27.0;-25.0;0.02;0.18;-10.56;0.9;0.28;0.88
1753873618.971065;7.332;0.005;-0.062;-0.5;0.24;-0.18;0.0;0.0;0.0;0.0;-19.0;-34.0;-27.0;-25.0;0.02;0.18;-10.56;0.95;0.35;0.99
1753873618.976065;7.332;0.005;-0.062;-0.5;0.24;-0.18;0.0;0.0;0.0;0.0;-19.0;-34.0;-27.0;-25.0;0.03;0.17;-10.56;0.9;0.17;1.06
1753873618.981065;7.332;0.005;-0.062;-0.5;0.24;-0.18;0.0;0.0;0.0;0.0;-19.0;-34.0;-27.0;-25.0;0.02;0.17;-10.57;0.83;0.39;1.15
1753873618.986065;7.332;0.005;-0.062;-0.5;0.24;-0.18;0.0;0.0;0.0;0.0;-19.0;-34.0;-27.0;-25.0;0.02;0.17;-10.56;0.98;0.3;0.96
1753873618.991065;7.332;0.005;-0.062;-0.5;0.24;-0.18;0.0;0.0;0.0;0.0;-19.0;-34.0;-27.0;-25.0;0.02;0.17;-10.56;1.01;0.26;0.99
1753873618.996065;7.332;0.005;-0.062;-0.5;0.24;-0.18;0.0;0.0;0.0;0.0;-19.0;-34.0;-27.0;-25.0;0.02;0.18;-10.56;1.02;0.32;0.91
1753873619.001065;7.332;0.005;-0.062;-0.5;0.24;-0.18;0.0;0.0;0.0;0.0;-19.0;-34.0;-27.0;-25.0;0.01;0.17;-10.56;0.9;0.36;0.91
1753873619.006065;7.332;0.005;-0.062;-0.5;0.24;-0.18;0.0;0.0;0.0;0.0;-19.0;-34.0;-27.0;-25.0;0.02;0.18;-10.56;0.94;0.4;1.09
1753873619.011065;7.332;0.005;-0.062;-0.5;0.24;-0.18;0.0;0.0;0.0;0.0;-19.0;-34.0;-27.0;-25.0;0.01;0.18;-10.56;0.88;0.34;0.91
1753873619.016065;7.332;0.005;-0.062;-0.5;0.24;-0.18;0.0;0.0;0.0;0.0;-19.0;-34.0;-27.0;-25.0;0.01;0.18;-10.56;1.02;0.37;1.06
1753873619.021065;7.332;0.005;-0.062;-0.5;0.24;-0.18;0.0;0.0;0.0;0.0;-19.0;-34.0;-27.0;-25.0;0.01;0.17;-10.56;0.89;0.44;1.03
1753873619.026065;7.332;0.005;-0.062;-0.5;0.24;-0.18;0.0;0.0;0.0;0.0;-19.0;-34.0;-27.0;-25.0;0.01;0.18;-10.56;0.83;0.22;0.95
1753873619.031065;7.332;0.005;-0.062;-0.5;0.24;-0.18;0.0;0.0;0.0;0.0;-19.0;-34.0;-27.0;-25.0;0.01;0.18;-10.56;0.99;0.36;0.98
1753873619.036065;7.332;0.005;-0.062;-0.5;0.24;-0.18;0.0;0.0;0.0;0.0;-19.0;-34.0;-27.0;-25.0;0.01;0.19;-10.56;0.93;0.33;1.11
1753873619.041065;7.332;0.005;-0.062;-0.5;0.24;-0.18;0.0;0.0;0.0;0.0;-19.0;-34.0;-27.0;-25.0;0.01;0.19;-10.57;1.01;0.38;1.0
1753873619.046065;7.332;0.005;-0.062;-0.5;0.24;-0.18;0.0;0.0;0.0;0.0;-19.0;-34.0;-27.0;-25.0;0.01;0.18;-10.56;0.87;0.33;0.93
1753873619.051065;7.332;0.005;-0.062;-0.5;0.24;-0.18;0.0;0.0;0.0;0.0;-19.0;-34.0;-27.0;-25.0;0.01;0.18;-10.56;0.95;0.44;1.09
1753873619.056065;7.332;0.005;-0.062;-0.5;0.24;-0.18;0.0;0.0;0.0;0.0;-19.0;-34.0;-27.0;-25.0;0.01;0.18;-10.56;0.93;0.35;0.86
1753873619.061065;7.332;0.005;-0.062;-0.5;0.24;-0.18;0.0;0.0;0.0;0.0;-19.0;-34.0;-27.0;-25.0;0.01;0.18;-10.56;0.96;0.35;0.99
1753873619.066064;7.332;0.005;-0.062;-0.5;0.24;-0.18;0.0;0.0;0.0;0.0;-19.0;-34.0;-27.0;-25.0;0.01;0.18;-10.56;0.85;0.48;0.9
1753873619.071065;7.332;0.005;-0.062;-0.5;0.24;-0.18;0.0;0.0;0.0;0.0;-19.0;-34.0;-27.0;-25.0;0.01;0.18;-10.56;0.88;0.28;0.99
1753873619.076064;7.332;0.005;-0.062;-0.5;0.24;-0.18;0.0;0.0;0.0;0.0;-19.0;-34.0;-27.0;-25.0;0.01;0.18;-10.57;0.85;0.32;0.98
1753873619.081065;7.332;0.005;-0.062;-0.5;0.24;-0.18;0.0;0.0;0.0;0.0;-19.0;-34.0;-27.0;-25.0;0.01;0.18;-10.56;1.03;0.37;1.09
1753873619.086064;7.332;0.005;-0.062;-0.5;0.24;-0.18;0.0;0.0;0.0;0.0;-19.0;-34.0;-27.0;-25.0;0.02;0.18;-10.56;1.03;0.25;0.95
1753873619.091065;7.332;0.005;-0.062;-0.5;0.24;-0.18;0.0;0.0;0.0;0.0;-19.0;-34.0;-27.0;-25.0;0.01;0.18;-10.57;0.99;0.24;1.03
1753873619.096065;7.332;0.005;-0.062;-0.5;0.24;-0.18;0.0;0.0;0.0;0.0;-19.0;-34.0;-27.0;-25.0;0.01;0.18;-10.56;0.93;0.3;1.03
1753873619.101065;7.332;0.005;-0.062;-0.5;0.24;-0.18;0.0;0.0;0.0;0.0;-19.0;-34.0;-27.0;-25.0;0.0;0.18;-10.57;0.95;0.36;1.06
1753873619.106065;7.332;0.005;-0.062;-0.5;0.24;-0.18;0.0;0.0;0.0;0.0;-19.0;-34.0;-27.0;-25.0;0.0;0.18;-10.57;0.83;0.44;0.96
1753873619.111065;7.332;0.005;-0.062;-0.5;0.24;-0.18;0.0;0.0;0.0;0.0;-19.0;-34.0;-27.0;-25.0;0.0;0.18;-10.57;0.98;0.16;1.04
1753873619.116065;7.332;0.005;-0.062;-0.5;0.24;-0.18;0.0;0.0;0.0;0.0;-19.0;-34.0;-27.0;-25.0;0.0;0.17;-10.57;0.99;0.16;1.05
1753873619.121065;7.332;0.005;-0.062;-0.5;0.24;-0.18;0.0;0.0;0.0;0.0;-19.0;-34.0;-27.0;-25.0;-0.0;0.19;-10.56;0.93;0.31;1.03
1753873619.126065;7.332;0.005;-0.062;-0.5;0.24;-0.18;0.0;0.0;0.0;0.0;-19.0;-34.0;-27.0;-25.0;0.0;0.18;-10.56;0.99;0.21;0.96
1753873619.131065;7.332;0.005;-0.062;-0.5;0.24;-0.18;0.0;0.0;0.0;0.0;-19.0;-34.0;-27.0;-25.0;0.0;0.19;-10.56;0.9;0.25;1.04
1753873619.136065;7.332;0.005;-0.062;-0.5;0.24;-0.18;0.0;0.0;0.0;0.0;-19.0;-34.0;-27.0;-25.0;0.0;0.19;-10.56;0.96;0.22;0.97
1753873619.141065;7.332;0.005;-0.062;-0.5;0.24;-0.18;0.0;0.0;0.0;0.0;-19.0;-34.0;-27.0;-25.0;0.0;0.19;-10.57;0.86;0.34;0.88
1753873619.146065;7.332;0.005;-0.062;-0.5;0.24;-0.18;0.0;0.0;0.0;0.0;-19.0;-34.0;-27.0;-25.0;0.0;0.18;-10.56;0.9;0.26;1.16
1753873619.151065;7.332;0.005;-0.062;-0.5;0.24;-0.18;0.0;0.0;0.0;0.0;-19.0;-34.0;-27.0;-25.0;0.0;0.18;-10.56;0.86;0.29;1.04
1753873619.156065;7.332;0.005;-0.062;-0.5;0.24;-0.18;0.0;0.0;0.0;0.0;-19.0;-34.0;-27.0;-25.0;0.01;0.18;-10.56;0.94;0.35;1.07
1753873619.161065;7.332;0.005;-0.062;-0.5;0.24;-0.18;0.0;0.0;0.0;0.0;-19.0;-34.0;-27.0;-25.0;0.01;0.18;-10.56;0.97;0.51;1.04
1753873619.166065;7.332;0.005;-0.062;-0.5;0.24;-0.18;0.0;0.0;0.0;0.0;-19.0;-33.9;-25.7;-25.1;0.01;0.18;-10.56;1.02;0.49;1.07
1753873619.171065;7.332;0.005;-0.062;-0.5;0.24;-0.18;0.0;0.0;0.0;0.0;-19.0;-33.5;-26.7;-24.1;0.02;0.18;-10.56;0.92;0.6;1.05
1753873619.176065;7.332;0.005;-0.062;-0.5;0.24;-0.18;0.0;0.0;0.0;0.0;-19.0;-33.3;-27.4;-26.9;0.02;0.17;-10.56;0.99;0.57;1.1
1753873619.181065;7.332;0.005;-0.062;-0.5;0.24;-0.18;0.0;0.0;0.0;0.0;-19.0;-34.7;-28.2;-24.5;0.0;0.18;-10.55;1.03;0.52;1.02
1753873619.186066;7.332;0.005;-0.062;-0.5;0.24;-0.18;0.0;0.0;0.0;0.0;-19.0;-33.6;-25.8;-25.7;0.0;0.18;-10.55;0.88;0.38;1.14
1753873619.191066;7.332;0.005;-0.062;-0.5;0.24;-0.18;0.0;0.0;0.0;0.0;-19.0;-33.8;-26.2;-23.8;0.0;0.18;-10.56;0.93;0.59;1.18
1753873619.196066;7.332;0.005;-0.062;-0.5;0.24;-0.18;0.0;0.0;0.0;0.0;-19.0;-33.5;-25.8;-24.2;0.01;0.18;-10.56;0.9;0.46;0.99
1753873619.201066;7.332;0.005;-0.062;-0.5;0.24;-0.18;0.0;0.0;0.0;0.0;-19.0;-32.6;-24.3;-23.4;0.01;0.17;-10.55;1.02;0.5;1.05
1753873619.206066;7.332;0.005;-0.062;-0.5;0.24;-0.18;0.0;0.0;0.0;0.0;-19.0;-34.7;-23.3;-22.9;0.01;0.17;-10.56;1.11;0.43;0.92
1753873619.211066;7.332;0.005;-0.062;-0.5;0.24;-0.18;0.0;0.0;0.0;0.0;-19.0;-31.9;-25.1;-22.7;0.0;0.17;-10.56;1.01;0.49;0.99
1753873619.216066;7.332;0.005;-0.062;-0.5;0.25;-0.18;0.0;0.0;0.0;0.0;-19.0;-33.6;-23.8;-23.3;0.01;0.18;-10.55;0.86;0.43;1.1
1753873619.221066;7.332;0.005;-0.062;-0.5;0.25;-0.18;0.0;0.0;0.0;0.0;-19.0;-33.8;-21.7;-21.8;0.01;0.18;-10.54;0.84;0.55;1.1
1753873619.226066;7.332;0.005;-0.062;-0.5;0.24;-0.18;0.0;0.0;0.0;0.0;-19.0;-33.6;-25.2;-25.2;-0.01;0.17;-10.55;1.0;0.47;1.16
1753873619.231066;7.332;0.005;-0.062;-0.5;0.25;-0.18;0.0;0.0;0.0;0.0;-19.0;-32.6;-27.2;-21.5;0.01;0.18;-10.56;0.8;0.54;1.12
1753873619.236066;7.332;0.005;-0.062;-0.5;0.24;-0.18;0.0;0.0;0.0;0.0;-19.0;-32.5;-24.1;-23.0;0.0;0.17;-10.55;0.97;0.5;1.08
1753873619.241067;7.332;0.005;-0.062;-0.5;0.25;-0.18;0.0;0.0;0.0;0.0;-19.0;-32.6;-23.4;-18.2;0.01;0.17;-10.55;0.82;0.5;1.13
1753873619.246067;7.332;0.005;-0.062;-0.5;0.24;-0.18;0.0;0.0;0.0;0.0;-19.0;-33.8;-23.3;-19.0;0.0;0.17;-10.56;0.82;0.4;1.1
1753873619.251067;7.332;0.005;-0.062;-0.5;0.24;-0.18;0.0;0.0;0.0;0.0;-19.0;-31.4;-24.7;-18.5;0.0;0.17;-10.55;1.03;0.32;1.07
1753873619.256067;7.332;0.005;-0.062;-0.5;0.25;-0.18;0.0;0.0;0.0;0.0;-19.0;-32.7;-22.0;-21.6;-0.0;0.18;-10.55;0.78;0.35;1.17
1753873619.261067;7.332;0.005;-0.062;-0.5;0.25;-0.18;0.0;0.0;0.0;0.0;-19.0;-31.7;-21.8;-20.2;0.01;0.17;-10.54;0.91;0.41;1.11
1753873619.266067;7.332;0.005;-0.062;-0.5;0.24;-0.18;0.0;0.0;0.0;0.0;-19.0;-31.9;-17.7;-20.0;-0.0;0.17;-10.56;0.94;0.33;0.97
1753873619.271068;7.332;0.005;-0.062;-0.5;0.25;-0.18;0.0;0.0;0.0;0.0;-19.0;-31.1;-18.8;-20.7;0.0;0.18;-10.55;0.93;0.34;1.17
1753873619.276068;7.332;0.005;-0.062;-0.5;0.25;-0.18;0.0;0.0;0.0;0.0;-19.0;-32.9;-24.0;-19.1;0.01;0.17;-10.56;0.84;0.1;1.12
1753873619.281068;7.332;0.005;-0.062;-0.5;0.25;-0.18;0.0;0.0;0.0;0.0;-19.0;-32.0;-20.9;-21.2;0.0;0.18;-10.54;0.84;0.27;1.18
1753873619.286068;7.332;0.005;-0.062;-0.5;0.25;-0.18;0.0;0.0;0.0;0.0;-19.0;-31.4;-19.7;-20.5;0.0;0.17;-10.54;0.82;0.26;1.17
1753873619.291068;7.332;0.005;-0.062;-0.5;0.25;-0.18;0.0;0.0;0.0;0.0;-19.0;-30.8;-20.3;-15.3;0.0;0.17;-10.55;0.76;0.1;1.15
1753873619.296068;7.332;0.005;-0.062;-0.5;0.25;-0.18;0.0;0.0;0.0;0.0;-19.0;-31.0;-19.3;-19.1;-0.0;0.17;-10.54;0.86;0.35;1.11
1753873619.301068;7.332;0.005;-0.062;-0.5;0.25;-0.18;0.0;0.0;0.0;0.0;-19.0;-30.4;-20.7;-17.8;0.01;0.17;-10.54;0.85;0.23;1.23
1753873619.306068;7.332;0.005;-0.062;-0.5;0.25;-0.18;0.0;0.0;0.0;0.0;-19.0;-31.9;-20.2;-18.5;0.0;0.17;-10.54;0.85;0.12;1.18
1753873619.311068;7.332;0.005;-0.062;-0.5;0.25;-0.18;0.0;0.0;0.0;0.0;-19.0;-30.8;-18.8;-17.3;0.0;0.17;-10.54;0.93;0.24;1.15
1753873619.316064;7.332;0.005;-0.062;-0.5;0.25;-0.18;0.0;0.0;0.0;0.0;-19.0;-31.0;-19.0;-18.0;0.0;0.17;-10.54;0.85;0.22;1.12
1753873619.321065;7.332;0.005;-0.062;-0.5;0.25;-0.18;0.0;0.0;0.0;0.0;-19.0;-31.0;-19.0;-18.0;0.0;0.18;-10.55;0.96;0.26;1.02
1753873619.326064;7.332;0.005;-0.062;-0.5;0.25;-0.18;0.0;0.0;0.0;0.0;-19.0;-31.0;-19.0;-18.0;0.0;0.17;-10.55;0.87;0.26;1.06
1753873619.331065;7.332;0.005;-0.062;-0.5;0.25;-0.18;0.0;0.0;0.0;0.0;-19.0;-31.0;-19.0;-18.0;0.0;0.17;-10.55;0.85;0.19;1.01
1753873619.336064;7.332;0.005;-0.062;-0.5;0.25;-0.18;0.0;0.0;0.0;0.0;-19.0;-31.0;-19.0;-18.0;0.0;0.17;-10.55;0.9;0.28;0.96
1753873619.341065;7.332;0.005;-0.062;-0.5;0.25;-0.18;0.0;0.0;0.0;0.0;-19.0;-31.0;-19.0;-18.0;0.0;0.16;-10.55;0.99;0.39;0.93
1753873619.346065;7.332;0.005;-0.062;-0.5;0.25;-0.18;0.0;0.0;0.0;0.0;-19.0;-31.0;-19.0;-18.0;0.0;0.16;-10.55;0.99;0.32;0.91
1753873619.351065;7.332;0.005;-0.062;-0.5;0.25;-0.18;0.0;0.0;0.0;0.0;-19.0;-31.0;-19.0;-18.0;0.0;0.17;-10.56;1.0;0.22;1.02
1753873619.356065;7.332;0.005;-0.062;-0.5;0.25;-0.18;0.0;0.0;0.0;0.0;-19.0;-31.0;-19.0;-18.0;0.0;0.17;-10.56;0.88;0.27;0.95
1753873619.361065;7.332;0.005;-0.062;-0.5;0.25;-0.18;0.0;0.0;0.0;0.0;-19.0;-31.0;-19.0;-18.0;0.0;0.17;-10.56;0.86;0.35;1.09
1753873619.366065;7.332;0.005;-0.062;-0.5;0.25;-0.18;0.0;0.0;0.0;0.0;-19.0;-31.0;-19.0;-18.0;0.0;0.17;-10.57;0.88;0.37;1.01
1753873619.371065;7.332;0.005;-0.062;-0.5;0.25;-0.18;0.0;0.0;0.0;0.0;-19.0;-31.0;-19.0;-18.0;0.01;0.16;-10.57;0.9;0.38;1.06
1753873619.376065;7.332;0.005;-0.062;-0.5;0.25;-0.18;0.0;0.0;0.0;0.0;-19.0;-31.0;-19.0;-18.0;0.0;0.17;-10.57;0.93;0.42;0.96
1753873619.381065;7.332;0.005;-0.062;-0.5;0.25;-0.18;0.0;0.0;0.0;0.0;-19.0;-31.0;-19.0;-18.0;0.0;0.17;-10.57;1.06;0.41;0.97
1753873619.386065;7.332;0.005;-0.062;-0.5;0.25;-0.18;0.0;0.0;0.0;0.0;-19.0;-31.0;-19.0;-18.0;0.0;0.17;-10.57;1.02;0.38;1.21
1753873619.391065;7.332;0.005;-0.062;-0.5;0.25;-0.18;0.0;0.0;0.0;0.0;-19.0;-31.0;-19.0;-18.0;0.0;0.17;-10.57;1.01;0.38;1.1
1753873619.396065;7.332;0.005;-0.062;-0.5;0.25;-0.18;0.0;0.0;0.0;0.0;-19.0;-31.0;-19.0;-18.0;0.0;0.17;-10.57;0.9;0.32;1.02
1753873619.401065;7.332;0.005;-0.062;-0.5;0.25;-0.18;0.0;0.0;0.0;0.0;-19.0;-31.0;-19.0;-18.0;0.0;0.17;-10.57;0.9;0.25;0.88
1753873619.406065;7.332;0.005;-0.062;-0.5;0.25;-0.18;0.0;0.0;0.0;0.0;-19.0;-31.0;-19.0;-18.0;0.0;0.16;-10.56;0.9;0.29;0.93
1753873619.411065;7.332;0.005;-0.062;-0.5;0.25;-0.18;0.0;0.0;0.0;0.0;-19.0;-31.0;-19.0;-18.0;0.0;0.16;-10.56;0.99;0.29;1.02
1753873619.416065;7.332;0.005;-0.062;-0.5;0.25;-0.18;0.0;0.0;0.0;0.0;-19.0;-31.0;-19.0;-18.0;0.0;0.16;-10.56;0.78;0.43;1.02
1753873619.421065;7.332;0.005;-0.062;-0.5;0.25;-0.18;0.0;0.0;0.0;0.0;-19.0;-31.0;-19.0;-18.0;0.0;0.16;-10.57;0.83;0.32;1.03
1753873619.426065;7.332;0.005;-0.062;-0.5;0.25;-0.18;0.0;0.0;0.0;0.0;-19.0;-31.0;-19.0;-18.0;0.0;0.17;-10.57;0.93;0.4;0.95
1753873619.431065;7.332;0.005;-0.062;-0.5;0.25;-0.18;0.0;0.0;0.0;0.0;-19.0;-31.0;-19.0;-18.0;0.0;0.17;-10.57;0.88;0.45;1.12
1753873619.436065;7.332;0.005;-0.062;-0.5;0.25;-0.18;0.0;0.0;0.0;0.0;-19.0;-31.0;-19.0;-18.0;0.0;0.17;-10.57;0.9;0.26;0.86
1753873619.441064;7.332;0.005;-0.062;-0.5;0.25;-0.18;0.0;0.0;0.0;0.0;-19.0;-31.0;-19.0;-18.0;0.0;0.17;-10.57;0.94;0.44;0.96
1753873619.446065;7.332;0.005;-0.062;-0.5;0.25;-0.18;0.0;0.0;0.0;0.0;-19.0;-31.0;-19.0;-18.0;0.0;0.17;-10.57;0.94;0.33;1.07
1753873619.451064;7.332;0.005;-0.062;-0.5;0.25;-0.18;0.0;0.0;0.0;0.0;-19.0;-31.0;-19.0;-18.0;0.0;0.17;-10.56;0.88;0.41;0.98
1753873619.456065;7.332;0.005;-0.062;-0.5;0.25;-0.18;0.0;0.0;0.0;0.0;-19.0;-31.0;-19.0;-18.0;-0.0;0.17;-10.56;0.82;0.44;0.93
1753873619.461065;7.332;0.005;-0.062;-0.5;0.25;-0.18;0.0;0.0;0.0;0.0;-19.0;-31.0;-19.0;-18.0;-0.0;0.19;-10.57;1.0;0.37;1.09
1753873619.466065;7.332;0.005;-0.062;-0.5;0.25;-0.18;0.0;0.0;0.0;0.0;-19.0;-31.0;-19.0;-18.0;-0.0;0.17;-10.56;0.96;0.36;1.02
1753873619.471065;7.332;0.005;-0.062;-0.5;0.25;-0.18;0.0;0.0;0.0;0.0;-19.0;-31.0;-19.0;-18.0;-0.0;0.18;-10.56;0.94;0.41;1.25
1753873619.476065;7.332;0.005;-0.062;-0.5;0.25;-0.18;0.0;0.0;0.0;0.0;-19.0;-31.0;-19.0;-18.0;-0.0;0.17;-10.56;0.91;0.45;0.86
1753873619.481065;7.332;0.005;-0.062;-0.5;0.25;-0.18;0.0;0.0;0.0;0.0;-19.0;-31.0;-19.0;-18.0;0.0;0.17;-10.57;0.85;0.45;0.92
1753873619.486066;7.332;0.005;-0.062;-0.5;0.25;-0.18;0.0;0.0;0.0;0.0;-19.0;-31.0;-19.0;-18.0;-0.0;0.18;-10.57;0.82;0.47;1.01
1753873619.491066;7.332;0.005;-0.062;-0.5;0.25;-0.18;0.0;0.0;0.0;0.0;-19.0;-31.0;-19.0;-18.0;0.0;0.19;-10.56;0.74;0.45;0.92
1753873619.496066;7.332;0.005;-0.062;-0.5;0.25;-0.18;0.0;0.0;0.0;0.0;-19.0;-31.0;-19.0;-18.0;-0.0;0.18;-10.56;0.79;0.43;1.0
1753873619.501066;7.332;0.005;-0.062;-0.5;0.25;-0.18;0.0;0.0;0.0;0.0;-19.0;-31.0;-19.0;-18.0;0.0;0.17;-10.57;0.83;0.52;0.93
1753873619.506066;7.332;0.005;-0.062;-0.5;0.25;-0.18;0.0;0.0;0.0;0.0;-19.0;-31.0;-19.0;-18.0;0.0;0.17;-10.56;0.83;0.4;1.02
1753873619.511066;7.332;0.005;-0.062;-0.5;0.25;-0.18;0.0;0.0;0.0;0.0;-19.0;-31.0;-19.0;-18.0;0.0;0.18;-10.57;0.85;0.42;0.89
1753873619.516065;7.332;0.005;-0.062;-0.5;0.25;-0.18;0.0;0.0;0.0;0.0;-19.0;-31.0;-19.0;-18.0;0.0;0.18;-10.57;0.87;0.49;0.98
1753873619.521065;7.332;0.005;-0.062;-0.5;0.25;-0.18;0.0;0.0;0.0;0.0;-19.0;-31.0;-19.0;-18.0;0.0;0.18;-10.57;0.8;0.34;1.02
1753873619.526065;7.332;0.005;-0.062;-0.5;0.25;-0.18;0.0;0.0;0.0;0.0;-19.4;-30.6;-19.6;-15.2;0.0;0.19;-10.56;0.82;0.32;1.07
1753873619.531065;7.332;0.005;-0.062;-0.5;0.26;-0.18;0.0;0.0;0.0;0.0;-18.7;-31.1;-17.9;-17.6;0.0;0.18;-10.57;0.81;0.36;0.98
1753873619.536065;7.332;0.005;-0.062;-0.5;0.25;-0.18;0.0;0.0;0.0;0.0;-18.7;-30.7;-19.1;-17.5;-0.0;0.18;-10.57;0.84;0.46;0.95
1753873619.541066;7.332;0.005;-0.062;-0.5;0.24;-0.18;0.0;0.0;0.0;0.0;-18.5;-31.0;-21.4;-17.5;0.0;0.18;-10.57;0.73;0.32;0.96
1753873619.546066;7.332;0.005;-0.062;-0.5;0.25;-0.18;0.0;0.0;0.0;0.0;-18.8;-30.8;-22.8;-22.4;0.0;0.17;-10.57;0.85;0.33;1.0
1753873619.551066;7.332;0.005;-0.062;-0.5;0.24;-0.18;0.0;0.0;0.0;0.0;-19.1;-30.7;-21.4;-20.9;0.0;0.18;-10.56;0.79;0.34;1.05
1753873619.556066;7.332;0.005;-0.062;-0.5;0.24;-0.18;0.0;0.0;0.0;0.0;-18.3;-30.8;-20.9;-18.7;-0.0;0.19;-10.56;0.81;0.41;1.04
1753873619.561066;7.332;0.005;-0.062;-0.5;0.24;-0.18;0.0;0.0;0.0;0.0;-18.9;-30.5;-18.9;-18.9;-0.0;0.18;-10.57;0.85;0.32;0.95
1753873619.566066;7.332;0.005;-0.062;-0.5;0.24;-0.18;0.0;0.0;0.0;0.0;-18.5;-30.5;-17.8;-23.4;-0.0;0.18;-10.56;0.87;0.3;1.01
1753873619.571066;7.332;0.005;-0.062;-0.5;0.25;-0.18;0.0;0.0;0.0;0.0;-19.0;-30.7;-25.0;-21.3;-0.0;0.18;-10.57;0.78;0.38;0.96
1753873619.576066;7.332;0.005;-0.062;-0.5;0.24;-0.18;0.0;0.0;0.0;0.0;-17.9;-30.5;-20.0;-18.8;-0.0;0.18;-10.55;1.0;0.32;1.12
1753873619.581066;7.332;0.005;-0.062;-0.5;0.24;-0.18;0.0;0.0;0.0;0.0;-18.2;-30.4;-22.7;-20.3;0.0;0.17;-10.55;0.84;0.36;0.9
1753873619.586066;7.332;0.005;-0.062;-0.5;0.24;-0.18;0.0;0.0;0.0;0.0;-19.0;-30.9;-24.3;-21.7;-0.0;0.18;-10.56;0.82;0.29;1.07
1753873619.591066;7.332;0.005;-0.062;-0.5;0.24;-0.18;0.0;0.0;0.0;0.0;-17.8;-30.2;-23.1;-19.3;-0.0;0.18;-10.56;0.86;0.4;1.02
1753873619.596067;7.332;0.005;-0.062;-0.5;0.24;-0.18;0.0;0.0;0.0;0.0;-18.5;-30.7;-22.9;-24.1;0.0;0.17;-10.57;0.86;0.42;1.16
1753873619.601067;7.332;0.005;-0.062;-0.5;0.24;-0.18;0.0;0.0;0.0;0.0;-17.3;-30.4;-22.9;-20.3;-0.0;0.18;-10.57;0.85;0.52;0.89
1753873619.606067;7.332;0.005;-0.062;-0.5;0.24;-0.18;0.0;0.0;0.0;0.0;-17.7;-30.6;-23.5;-17.7;-0.0;0.18;-10.56;0.73;0.47;0.93
1753873619.611067;7.332;0.005;-0.062;-0.5;0.24;-0.18;0.0;0.0;0.0;0.0;-18.8;-31.0;-23.7;-23.9;-0.0;0.17;-10.57;0.88;0.28;1.08
1753873619.616067;7.332;0.005;-0.062;-0.5;0.24;-0.18;0.0;0.0;0.0;0.0;-17.4;-30.5;-21.9;-23.6;-0.0;0.18;-10.55;0.68;0.4;0.95
1753873619.621067;7.332;0.005;-0.062;-0.5;0.24;-0.18;0.0;0.0;0.0;0.0;-18.0;-30.5;-21.9;-22.8;-0.0;0.17;-10.56;0.82;0.23;0.92
1753873619.626068;7.332;0.005;-0.062;-0.5;0.23;-0.18;0.0;0.0;0.0;0.0;-17.7;-30.5;-21.0;-24.3;-0.0;0.17;-10.56;0.87;0.35;1.02
1753873619.631068;7.332;0.005;-0.062;-0.5;0.24;-0.18;0.0;0.0;0.0;0.0;-18.4;-30.5;-21.2;-26.1;-0.0;0.17;-10.55;0.79;0.3;0.95
1753873619.636068;7.332;0.005;-0.062;-0.5;0.24;-0.18;0.0;0.0;0.0;0.0;-17.2;-30.7;-23.4;-26.7;0.0;0.17;-10.56;0.72;0.43;0.83
1753873619.641068;7.332;0.005;-0.062;-0.5;0.23;-0.18;0.0;0.0;0.0;0.0;-17.4;-30.0;-26.9;-22.0;0.0;0.16;-10.57;0.85;0.4;1.07
1753873619.646068;7.332;0.005;-0.062;-0.5;0.24;-0.18;0.0;0.0;0.0;0.0;-17.5;-30.5;-24.4;-26.5;0.0;0.17;-10.56;0.94;0.23;0.96
1753873619.651068;7.332;0.005;-0.062;-0.5;0.23;-0.18;0.0;0.0;0.0;0.0;-17.2;-30.3;-24.4;-24.4;0.0;0.17;-10.56;0.9;0.3;1.02
1753873619.656068;7.332;0.005;-0.062;-0.5;0.23;-0.18;0.0;0.0;0.0;0.0;-17.3;-30.5;-27.1;-25.0;-0.0;0.17;-10.55;0.79;0.3;1.07
1753873619.661068;7.332;0.005;-0.062;-0.5;0.23;-0.18;0.0;0.0;0.0;0.0;-18.0;-30.2;-24.1;-21.8;-0.0;0.17;-10.55;0.86;0.3;1.12
1753873619.666068;7.332;0.005;-0.062;-0.5;0.24;-0.18;0.0;0.0;0.0;0.0;-17.4;-30.2;-24.9;-25.2;0.01;0.17;-10.56;0.88;0.37;1.06
1753873619.671068;7.332;0.005;-0.062;-0.5;0.23;-0.18;0.0;0.0;0.0;0.0;-17.5;-30.0;-24.4;-25.0;0.0;0.17;-10.56;0.82;0.25;0.88
1753873619.676068;7.332;0.005;-0.062;-0.5;0.24;-0.18;0.0;0.0;0.0;0.0;-17.3;-30.4;-24.8;-24.2;0.0;0.17;-10.55;0.88;0.4;1.15
1753873619.681069;7.332;0.005;-0.062;-0.5;0.24;-0.18;0.0;0.0;0.0;0.0;-17.1;-30.4;-26.6;-25.8;0.0;0.18;-10.55;0.79;0.26;0.91
1753873619.686069;7.332;0.005;-0.062;-0.5;0.23;-0.18;0.0;0.0;0.0;0.0;-17.3;-30.2;-28.0;-25.5;0.0;0.16;-10.55;0.73;0.33;0.99
1753873619.691069;7.332;0.005;-0.062;-0.5;0.23;-0.18;0.0;0.0;0.0;0.0;-16.2;-29.3;-25.2;-28.1;-0.0;0.17;-10.55;0.8;0.25;1.0
1753873619.696069;7.332;0.005;-0.062;-0.5;0.22;-0.18;0.0;0.0;0.0;0.0;-17.1;-30.2;-25.2;-28.3;-0.0;0.17;-10.55;0.85;0.39;0.82
1753873619.701069;7.332;0.005;-0.062;-0.5;0.23;-0.18;0.0;0.0;0.0;0.0;-17.4;-29.5;-25.2;-23.5;-0.0;0.16;-10.55;0.88;0.46;1.03
1753873619.706069;7.332;0.005;-0.062;-0.5;0.24;-0.18;0.0;0.0;0.0;0.0;-17.7;-29.7;-28.6;-28.5;0.0;0.17;-10.55;0.86;0.31;1.03
1753873619.711064;7.332;0.005;-0.062;-0.5;0.23;-0.18;0.0;0.0;0.0;0.0;-17.0;-30.0;-27.0;-27.0;0.0;0.17;-10.55;0.86;0.36;0.98
1753873619.716065;7.332;0.005;-0.062;-0.5;0.23;-0.18;0.0;0.0;0.0;0.0;-17.0;-30.0;-27.0;-27.0;0.0;0.17;-10.55;1.02;0.41;1.1
1753873619.721065;7.332;0.005;-0.062;-0.5;0.23;-0.18;0.0;0.0;0.0;0.0;-17.0;-30.0;-27.0;-27.0;0.0;0.17;-10.56;0.85;0.48;1.04
1753873619.726065;7.332;0.005;-0.062;-0.5;0.23;-0.18;0.0;0.0;0.0;0.0;-17.0;-30.0;-27.0;-27.0;0.0;0.18;-10.55;1.02;0.39;0.99
1753873619.731065;7.332;0.005;-0.062;-0.5;0.23;-0.18;0.0;0.0;0.0;0.0;-17.0;-30.0;-27.0;-27.0;0.01;0.18;-10.56;0.99;0.28;0.99
1753873619.736065;7.332;0.005;-0.062;-0.5;0.23;-0.18;0.0;0.0;0.0;0.0;-17.0;-30.0;-27.0;-27.0;0.01;0.18;-10.56;0.98;0.27;0.99
1753873619.741065;7.332;0.005;-0.062;-0.5;0.23;-0.18;0.0;0.0;0.0;0.0;-17.0;-30.0;-27.0;-27.0;0.01;0.17;-10.56;0.85;0.38;0.94
1753873619.746065;7.332;0.005;-0.062;-0.5;0.23;-0.18;0.0;0.0;0.0;0.0;-17.0;-30.0;-27.0;-27.0;0.01;0.17;-10.55;1.02;0.35;0.98
1753873619.751065;7.332;0.005;-0.062;-0.5;0.23;-0.18;0.0;0.0;0.0;0.0;-17.0;-30.0;-27.0;-27.0;0.01;0.17;-10.55;0.93;0.22;1.01
1753873619.756065;7.332;0.005;-0.062;-0.5;0.23;-0.18;0.0;0.0;0.0;0.0;-17.0;-30.0;-27.0;-27.0;0.02;0.17;-10.56;0.97;0.35;0.95
1753873619.761065;7.332;0.005;-0.062;-0.5;0.23;-0.18;0.0;0.0;0.0;0.0;-17.0;-30.0;-27.0;-27.0;0.01;0.17;-10.55;0.83;0.45;0.98
1753873619.766065;7.332;0.005;-0.062;-0.5;0.23;-0.18;0.0;0.0;0.0;0.0;-17.0;-30.0;-27.0;-27.0;0.01;0.17;-10.55;0.87;0.26;1.02
1753873619.771065;7.332;0.005;-0.062;-0.5;0.23;-0.18;0.0;0.0;0.0;0.0;-17.0;-30.0;-27.0;-27.0;0.01;0.17;-10.54;0.91;0.45;0.93
1753873619.776065;7.332;0.005;-0.062;-0.5;0.23;-0.18;0.0;0.0;0.0;0.0;-17.0;-30.0;-27.0;-27.0;0.01;0.17;-10.54;0.91;0.37;0.99
1753873619.781065;7.332;0.005;-0.062;-0.5;0.23;-0.18;0.0;0.0;0.0;0.0;-17.0;-30.0;-27.0;-27.0;0.01;0.17;-10.54;0.83;0.29;0.88
1753873619.786065;7.332;0.005;-0.062;-0.5;0.23;-0.18;0.0;0.0;0.0;0.0;-17.0;-30.0;-27.0;-27.0;0.01;0.17;-10.55;0.92;0.39;1.07
1753873619.791065;7.332;0.005;-0.062;-0.5;0.23;-0.18;0.0;0.0;0.0;0.0;-17.0;-30.0;-27.0;-27.0;0.0;0.17;-10.54;0.93;0.37;1.04
1753873619.796065;7.332;0.005;-0.062;-0.5;0.23;-0.18;0.0;0.0;0.0;0.0;-17.0;-30.0;-27.0;-27.0;0.01;0.18;-10.55;0.79;0.28;1.03
1753873619.801065;7.332;0.005;-0.062;-0.5;0.23;-0.18;0.0;0.0;0.0;0.0;-17.0;-30.0;-27.0;-27.0;0.0;0.18;-10.55;0.94;0.33;1.0
1753873619.806065;7.332;0.005;-0.062;-0.5;0.23;-0.18;0.0;0.0;0.0;0.0;-17.0;-30.0;-27.0;-27.0;0.0;0.17;-10.55;0.86;0.22;0.93
1753873619.811065;7.332;0.005;-0.062;-0.5;0.23;-0.18;0.0;0.0;0.0;0.0;-17.0;-30.0;-27.0;-27.0;0.0;0.17;-10.55;0.99;0.22;1.01
1753873619.816064;7.332;0.005;-0.062;-0.5;0.23;-0.18;0.0;0.0;0.0;0.0;-17.0;-30.0;-27.0;-27.0;0.0;0.17;-10.55;0.98;0.48;0.98
1753873619.821065;7.332;0.005;-0.062;-0.5;0.23;-0.18;0.0;0.0;0.0;0.0;-17.0;-30.0;-27.0;-27.0;0.01;0.17;-10.55;0.83;0.32;0.9
1753873619.826064;7.332;0.005;-0.062;-0.5;0.23;-0.18;0.0;0.0;0.0;0.0;-17.0;-30.0;-27.0;-27.0;0.01;0.17;-10.56;1.02;0.4;0.9
1753873619.831065;7.332;0.005;-0.062;-0.5;0.23;-0.18;0.0;0.0;0.0;0.0;-17.0;-30.0;-27.0;-27.0;0.0;0.17;-10.56;0.94;0.34;0.99
1753873619.836064;7.332;0.005;-0.062;-0.5;0.23;-0.18;0.0;0.0;0.0;0.0;-17.0;-30.0;-27.0;-27.0;0.0;0.17;-10.55;0.93;0.3;0.96
1753873619.841065;7.332;0.005;-0.062;-0.5;0.23;-0.18;0.0;0.0;0.0;0.0;-17.0;-30.0;-27.0;-27.0;0.0;0.16;-10.55;0.99;0.38;0.99
1753873619.846065;7.332;0.005;-0.062;-0.5;0.23;-0.18;0.0;0.0;0.0;0.0;-17.0;-30.0;-27.0;-27.0;0.0;0.16;-10.55;0.9;0.35;0.95
1753873619.851065;7.332;0.005;-0.062;-0.5;0.23;-0.18;0.0;0.0;0.0;0.0;-17.0;-30.0;-27.0;-27.0;0.0;0.16;-10.55;0.82;0.4;1.0
1753873619.856065;7.332;0.005;-0.062;-0.5;0.23;-0.18;0.0;0.0;0.0;0.0;-17.0;-30.0;-27.0;-27.0;0.0;0.16;-10.55;0.98;0.25;0.99
1753873619.861065;7.332;0.005;-0.062;-0.5;0.23;-0.18;0.0;0.0;0.0;0.0;-17.0;-30.0;-27.0;-27.0;0.0;0.16;-10.56;0.88;0.31;1.07
1753873619.866065;7.332;0.005;-0.062;-0.5;0.23;-0.18;0.0;0.0;0.0;0.0;-17.0;-30.0;-27.0;-27.0;0.0;0.17;-10.56;0.9;0.19;1.02
1753873619.871065;7.332;0.005;-0.062;-0.5;0.23;-0.18;0.0;0.0;0.0;0.0;-17.0;-30.0;-27.0;-27.0;0.0;0.17;-10.56;0.85;0.24;0.94
1753873619.876065;7.332;0.005;-0.062;-0.5;0.23;-0.18;0.0;0.0;0.0;0.0;-17.0;-30.0;-27.0;-27.0;0.0;0.17;-10.56;0.87;0.35;0.99
1753873619.881065;7.332;0.005;-0.062;-0.5;0.23;-0.18;0.0;0.0;0.0;0.0;-17.0;-30.0;-27.0;-27.0;0.0;0.17;-10.56;0.96;0.25;0.95
1753873619.886065;7.332;0.005;-0.062;-0.5;0.23;-0.18;0.0;0.0;0.0;0.0;-17.0;-30.0;-27.0;-27.0;0.0;0.17;-10.56;0.91;0.09;0.96
1753873619.891065;7.332;0.005;-0.062;-0.5;0.23;-0.18;0.0;0.0;0.0;0.0;-17.0;-30.0;-27.0;-27.0;0.01;0.16;-10.55;0.94;0.24;0.98
1753873619.896065;7.332;0.005;-0.062;-0.5;0.23;-0.18;0.0;0.0;0.0;0.0;-17.0;-30.0;-27.0;-27.0;0.01;0.17;-10.55;0.96;0.45;1.04
1753873619.901065;7.332;0.005;-0.062;-0.5;0.23;-0.18;0.0;0.0;0.0;0.0;-17.0;-30.0;-27.0;-27.0;0.01;0.16;-10.55;0.77;0.32;0.96
1753873619.906065;7.332;0.005;-0.062;-0.5;0.23;-0.18;0.0;0.0;0.0;0.0;-17.0;-30.0;-27.0;-27.0;0.01;0.17;-10.55;0.83;0.41;0.82
1753873619.911065;7.332;0.005;-0.062;-0.5;0.23;-0.18;0.0;0.0;0.0;0.0;-17.0;-30.0;-27.0;-27.0;0.01;0.17;-10.55;0.93;0.33;0.83
1753873619.916065;7.332;0.005;-0.062;-0.5;0.23;-0.18;0.0;0.0;0.0;0.0;-17.0;-30.0;-27.0;-27.0;0.01;0.17;-10.55;0.84;0.28;1.02
1753873619.921065;7.332;0.005;-0.062;-0.5;0.23;-0.18;0.0;0.0;0.0;0.0;-17.0;-30.0;-27.0;-27.0;0.02;0.17;-10.56;0.84;0.34;1.07
1753873619.926065;7.332;0.005;-0.062;-0.5;0.23;-0.18;0.0;0.0;0.0;0.0;-17.0;-30.0;-27.0;-27.0;0.02;0.17;-10.56;0.93;0.23;1.02
1753873619.931065;7.332;0.005;-0.062;-0.5;0.23;-0.18;0.0;0.0;0.0;0.0;-17.0;-30.0;-27.0;-27.0;0.02;0.17;-10.55;0.92;0.43;0.89
1753873619.936065;7.332;0.005;-0.062;-0.5;0.23;-0.18;0.0;0.0;0.0;0.0;-17.0;-30.0;-27.0;-27.0;0.02;0.17;-10.55;0.9;0.41;0.89
1753873619.941064;7.332;0.005;-0.062;-0.5;0.23;-0.18;0.0;0.0;0.0;0.0;-17.0;-30.0;-27.0;-27.0;0.02;0.18;-10.56;1.01;0.27;0.96
1753873619.946065;7.332;0.005;-0.062;-0.5;0.23;-0.18;0.0;0.0;0.0;0.0;-17.0;-30.0;-27.0;-27.0;0.02;0.18;-10.56;0.9;0.25;1.0
1753873619.951064;7.332;0.005;-0.062;-0.5;0.23;-0.18;0.0;0.0;0.0;0.0;-17.0;-30.0;-27.0;-27.0;0.02;0.18;-10.56;0.98;0.22;0.93
1753873619.956065;7.332;0.005;-0.062;-0.5;0.23;-0.18;0.0;0.0;0.0;0.0;-17.0;-30.0;-27.0;-27.0;0.01;0.18;-10.56;0.88;0.34;1.02
1753873619.961064;7.332;0.005;-0.062;-0.5;0.23;-0.18;0.0;0.0;0.0;0.0;-17.0;-30.0;-27.0;-27.0;0.01;0.18;-10.56;0.88;0.38;1.05
1753873619.966065;7.332;0.005;-0.062;-0.5;0.23;-0.18;0.0;0.0;0.0;0.0;-17.0;-30.0;-27.0;-27.0;0.02;0.17;-10.55;1.0;0.34;0.9
1753873619.971065;7.332;0.005;-0.062;-0.5;0.23;-0.18;0.0;0.0;0.0;0.0;-17.0;-30.0;-27.0;-27.0;0.02;0.18;-10.54;0.95;0.26;0.98
1753873619.976065;7.332;0.005;-0.062;-0.5;0.23;-0.18;0.0;0.0;0.0;0.0;-17.0;-30.0;-27.0;-27.0;0.01;0.17;-10.54;0.82;0.44;1.0
1753873619.981065;7.332;0.005;-0.062;-0.5;0.23;-0.18;0.0;0.0;0.0;0.0;-17.0;-30.0;-27.0;-27.0;0.01;0.18;-10.54;0.85;0.38;0.99
1753873619.986065;7.332;0.005;-0.062;-0.5;0.23;-0.18;0.0;0.0;0.0;0.0;-17.0;-30.0;-27.0;-27.0;0.01;0.17;-10.54;0.86;0.35;0.9
1753873619.991065;7.332;0.005;-0.062;-0.5;0.23;-0.18;0.0;0.0;0.0;0.0;-17.0;-30.0;-27.0;-27.0;0.01;0.17;-10.54;0.99;0.35;1.04
1753873619.996065;7.332;0.005;-0.062;-0.5;0.23;-0.18;0.0;0.0;0.0;0.0;-17.0;-30.0;-27.0;-27.0;0.0;0.17;-10.54;0.9;0.2;0.88
1753873620.001065;7.332;0.005;-0.062;-0.5;0.23;-0.18;0.0;0.0;0.0;0.0;-17.0;-30.0;-27.0;-27.0;0.0;0.17;-10.54;0.87;0.3;1.05
1753873620.006065;7.332;0.005;-0.062;-0.5;0.23;-0.18;0.0;0.0;0.0;0.0;-17.0;-30.0;-27.0;-27.0;0.01;0.17;-10.54;0.95;0.27;0.93
1753873620.011065;7.332;0.005;-0.062;-0.5;0.23;-0.18;0.0;0.0;0.0;0.0;-17.0;-30.0;-27.0;-27.0;0.0;0.17;-10.55;0.86;0.42;1.02
1753873620.016065;7.332;0.005;-0.062;-0.5;0.23;-0.18;0.0;0.0;0.0;0.0;-17.0;-30.0;-27.0;-27.0;-0.0;0.17;-10.55;0.81;0.53;0.98
1753873620.021065;7.332;0.005;-0.062;-0.5;0.23;-0.18;0.0;0.0;0.0;0.0;-17.0;-30.0;-27.0;-27.0;0.01;0.17;-10.54;0.85;0.38;1.05
1753873620.026065;7.332;0.005;-0.062;-0.5;0.23;-0.18;0.0;0.0;0.0;0.0;-17.0;-30.0;-27.0;-27.0;-0.0;0.16;-10.55;0.84;0.36;1.0
1753873620.031066;7.332;0.005;-0.062;-0.5;0.23;-0.18;0.0;0.0;0.0;0.0;-17.0;-30.0;-27.0;-27.0;-0.01;0.17;-10.54;0.77;0.41;1.05
1753873620.036066;7.332;0.005;-0.062;-0.5;0.23;-0.18;0.0;0.0;0.0;0.0;-17.0;-30.0;-27.0;-27.0;-0.01;0.17;-10.56;0.85;0.46;0.93
1753873620.041066;7.332;0.005;-0.062;-0.5;0.23;-0.18;0.0;0.0;0.0;0.0;-17.0;-30.0;-27.0;-27.0;-0.02;0.17;-10.56;0.82;0.25;0.98
1753873620.046066;7.332;0.005;-0.062;-0.5;0.23;-0.18;0.0;0.0;0.0;0.0;-17.0;-30.0;-27.0;-27.0;-0.0;0.16;-10.55;0.79;0.45;1.08
1753873620.051066;7.332;0.005;-0.062;-0.5;0.23;-0.18;0.0;0.0;0.0;0.0;-17.0;-30.0;-27.0;-27.0;-0.01;0.17;-10.55;0.79;0.4;0.98
1753873620.056066;7.332;0.005;-0.062;-0.5;0.23;-0.18;0.0;0.0;0.0;0.0;-17.0;-30.0;-27.0;-27.0;-0.0;0.16;-10.53;0.68;0.31;0.96
1753873620.061066;7.332;0.005;-0.062;-0.5;0.23;-0.18;0.0;0.0;0.0;0.0;-17.0;-30.0;-27.0;-27.0;0.01;0.17;-10.55;0.81;0.28;1.09
1753873620.066066;7.332;0.005;-0.062;-0.5;0.23;-0.18;0.0;0.0;0.0;0.0;-17.0;-30.0;-27.0;-27.0;-0.01;0.17;-10.56;0.73;0.33;0.98
1753873620.071066;7.332;0.005;-0.062;-0.5;0.23;-0.18;0.0;0.0;0.0;0.0;-17.0;-30.0;-27.0;-27.0;0.01;0.18;-10.56;0.72;0.31;1.13
1753873620.076064;7.332;0.005;-0.062;-0.5;0.23;-0.18;0.0;0.0;0.0;0.0;-17.0;-30.0;-27.0;-27.0;0.0;0.17;-10.54;0.77;0.3;1.01
1753873620.081065;7.332;0.005;-0.062;-0.5;0.23;-0.18;0.0;0.0;0.0;0.0;-17.0;-30.0;-27.0;-27.0;0.0;0.17;-10.54;0.9;0.38;1.15
1753873620.086064;7.332;0.005;-0.062;-0.5;0.23;-0.18;0.0;0.0;0.0;0.0;-17.0;-30.0;-27.0;-27.0;0.0;0.17;-10.54;0.82;0.41;1.0
1753873620.091065;7.332;0.005;-0.062;-0.5;0.23;-0.18;0.0;0.0;0.0;0.0;-17.0;-30.0;-27.0;-27.0;0.01;0.16;-10.55;0.89;0.34;0.92
1753873620.096065;7.332;0.005;-0.062;-0.5;0.23;-0.18;0.0;0.0;0.0;0.0;-17.0;-30.0;-27.0;-27.0;0.01;0.17;-10.56;0.86;0.36;1.04
1753873620.101065;7.332;0.005;-0.062;-0.5;0.23;-0.18;0.0;0.0;0.0;0.0;-17.0;-30.0;-27.0;-27.0;0.01;0.17;-10.55;0.93;0.28;0.98
1753873620.106065;7.332;0.005;-0.062;-0.5;0.23;-0.18;0.0;0.0;0.0;0.0;-17.0;-30.0;-27.0;-27.0;0.02;0.16;-10.55;1.02;0.46;1.02
1753873620.111065;7.332;0.005;-0.062;-0.5;0.23;-0.18;0.0;0.0;0.0;0.0;-17.0;-30.0;-27.0;-27.0;0.01;0.16;-10.55;0.84;0.31;1.08
1753873620.116065;7.332;0.005;-0.062;-0.5;0.23;-0.18;0.0;0.0;0.0;0.0;-17.0;-30.0;-27.0;-27.0;0.02;0.16;-10.55;0.86;0.43;1.07
1753873620.121065;7.332;0.005;-0.062;-0.5;0.23;-0.18;0.0;0.0;0.0;0.0;-17.0;-30.0;-27.0;-27.0;0.01;0.17;-10.55;0.78;0.33;1.02
1753873620.126065;7.332;0.005;-0.062;-0.5;0.23;-0.18;0.0;0.0;0.0;0.0;-17.0;-30.0;-27.0;-27.0;0.02;0.16;-10.56;0.83;0.32;1.0
1753873620.131065;7.332;0.005;-0.062;-0.5;0.23;-0.18;0.0;0.0;0.0;0.0;-17.0;-30.0;-27.0;-27.0;0.02;0.17;-10.56;0.9;0.19;1.01
1753873620.136065;7.332;0.005;-0.062;-0.5;0.23;-0.18;0.0;0.0;0.0;0.0;-17.0;-30.0;-27.0;-27.0;0.02;0.17;-10.56;0.95;0.36;1.06
1753873620.141065;7.332;0.005;-0.062;-0.5;0.23;-0.18;0.0;0.0;0.0;0.0;-17.0;-30.0;-27.0;-27.0;0.02;0.17;-10.56;0.82;0.32;1.02
1753873620.146065;7.332;0.005;-0.062;-0.5;0.23;-0.18;0.0;0.0;0.0;0.0;-17.0;-30.0;-27.0;-27.0;0.02;0.17;-10.55;1.01;0.45;0.91
1753873620.151065;7.332;0.005;-0.062;-0.5;0.23;-0.18;0.0;0.0;0.0;0.0;-17.0;-30.0;-27.0;-27.0;0.02;0.17;-10.55;0.89;0.26;1.02
1753873620.156065;7.332;0.005;-0.062;-0.5;0.23;-0.18;0.0;0.0;0.0;0.0;-17.0;-30.0;-27.0;-27.0;0.01;0.17;-10.55;0.9;0.35;0.93
1753873620.161065;7.332;0.005;-0.062;-0.5;0.23;-0.18;0.0;0.0;0.0;0.0;-17.0;-30.0;-27.0;-27.0;0.01;0.17;-10.55;0.95;0.44;0.94
1753873620.166065;7.332;0.005;-0.062;-0.5;0.23;-0.18;0.0;0.0;0.0;0.0;-17.0;-30.0;-27.0;-27.0;0.02;0.16;-10.55;0.95;0.35;1.09
1753873620.171065;7.332;0.005;-0.062;-0.5;0.23;-0.18;0.0;0.0;0.0;0.0;-17.0;-30.0;-27.0;-27.0;0.02;0.17;-10.56;0.8;0.21;1.05
1753873620.176065;7.332;0.005;-0.062;-0.5;0.23;-0.18;0.0;0.0;0.0;0.0;-17.0;-30.0;-27.0;-27.0;0.02;0.16;-10.56;1.0;0.45;0.93
1753873620.181065;7.332;0.005;-0.062;-0.5;0.23;-0.18;0.0;0.0;0.0;0.0;-17.0;-30.0;-27.0;-27.0;0.01;0.16;-10.56;0.93;0.31;0.93
1753873620.186065;7.332;0.005;-0.062;-0.5;0.23;-0.18;0.0;0.0;0.0;0.0;-17.0;-30.0;-27.0;-27.0;0.01;0.17;-10.55;0.84;0.28;1.08
1753873620.191064;7.332;0.005;-0.062;-0.5;0.23;-0.18;0.0;0.0;0.0;0.0;-17.0;-30.0;-27.0;-27.0;0.01;0.16;-10.55;0.98;0.4;0.99
1753873620.196065;7.332;0.005;-0.062;-0.5;0.23;-0.18;0.0;0.0;0.0;0.0;-17.0;-30.0;-27.0;-27.0;0.02;0.17;-10.55;0.96;0.31;0.91
1753873620.201064;7.332;0.005;-0.062;-0.5;0.23;-0.18;0.0;0.0;0.0;0.0;-17.0;-30.0;-27.0;-27.0;0.02;0.17;-10.56;0.94;0.32;0.93
1753873620.206065;7.332;0.005;-0.062;-0.5;0.23;-0.18;0.0;0.0;0.0;0.0;-17.0;-30.0;-27.0;-27.0;0.01;0.17;-10.56;0.83;0.46;1.11
1753873620.211064;7.332;0.005;-0.062;-0.5;0.23;-0.18;0.0;0.0;0.0;0.0;-17.0;-30.0;-27.0;-27.0;0.01;0.18;-10.57;0.84;0.25;1.07
1753873620.216065;7.332;0.005;-0.062;-0.5;0.23;-0.18;0.0;0.0;0.0;0.0;-17.0;-30.0;-27.0;-27.0;0.02;0.18;-10.56;0.93;0.32;0.94
1753873620.221065;7.332;0.005;-0.062;-0.5;0.23;-0.18;0.0;0.0;0.0;0.0;-17.0;-30.0;-27.0;-27.0;0.01;0.18;-10.55;1.03;0.3;1.01
1753873620.226065;7.332;0.005;-0.062;-0.5;0.23;-0.18;0.0;0.0;0.0;0.0;-17.0;-30.0;-27.0;-27.0;0.01;0.18;-10.55;0.94;0.28;0.99
1753873620.231065;7.332;0.005;-0.062;-0.5;0.23;-0.18;0.0;0.0;0.0;0.0;-17.0;-30.0;-27.0;-27.0;0.01;0.18;-10.55;0.9;0.41;0.99
1753873620.236065;7.332;0.005;-0.062;-0.5;0.23;-0.18;0.0;0.0;0.0;0.0;-17.0;-30.0;-27.0;-27.0;0.01;0.18;-10.56;0.87;0.27;1.04
1753873620.241065;7.332;0.005;-0.062;-0.5;0.23;-0.18;0.0;0.0;0.0;0.0;-17.0;-30.0;-27.0;-27.0;0.01;0.19;-10.55;0.82;0.25;0.99
1753873620.246065;7.332;0.005;-0.062;-0.5;0.23;-0.18;0.0;0.0;0.0;0.0;-17.0;-30.0;-27.0;-27.0;0.0;0.19;-10.56;0.97;0.38;1.12
1753873620.251065;7.332;0.005;-0.062;-0.5;0.23;-0.18;0.0;0.0;0.0;0.0;-17.0;-30.0;-27.0;-27.0;0.0;0.18;-10.57;0.82;0.34;1.02
1753873620.256065;7.332;0.005;-0.062;-0.5;0.23;-0.18;0.0;0.0;0.0;0.0;-17.0;-30.0;-27.0;-27.0;0.01;0.18;-10.55;0.81;0.41;1.13
1753873620.261065;7.332;0.005;-0.062;-0.5;0.23;-0.18;0.0;0.0;0.0;0.0;-17.0;-30.0;-27.0;-27.0;0.0;0.18;-10.55;1.02;0.41;1.08
1753873620.266065;7.332;0.005;-0.062;-0.5;0.23;-0.18;0.0;0.0;0.0;0.0;-17.0;-30.0;-27.0;-27.0;0.0;0.18;-10.55;0.96;0.25;0.94
1753873620.271065;7.332;0.005;-0.062;-0.5;0.24;-0.18;0.0;0.0;0.0;0.0;-17.0;-30.4;-27.5;-22.5;-0.01;0.19;-10.54;0.98;0.28;0.92
1753873620.276065;7.332;0.005;-0.062;-0.5;0.24;-0.18;0.0;0.0;0.0;0.0;-17.0;-31.0;-29.0;-18.0;0.0;0.18;-10.55;1.0;0.4;0.93
1753873620.281065;7.332;0.005;-0.062;-0.5;0.24;-0.18;0.0;0.0;0.0;0.0;-17.0;-31.0;-29.0;-18.0;0.0;0.18;-10.55;0.95;0.28;1.06
1753873620.286065;7.332;0.005;-0.062;-0.5;0.23;-0.18;0.0;0.0;0.0;0.0;-17.0;-30.6;-28.7;-13.4;0.0;0.17;-10.56;0.82;0.4;0.87
1753873620.291065;7.332;0.005;-0.062;-0.5;0.24;-0.18;0.0;0.0;0.0;0.0;-16.8;-30.9;-28.6;-22.9;0.01;0.19;-10.54;1.01;0.41;1.15
1753873620.296065;7.332;0.005;-0.062;-0.5;0.24;-0.18;0.0;0.0;0.0;0.0;-17.5;-30.7;-29.3;-17.2;0.0;0.18;-10.55;0.94;0.14;0.95
1753873620.301066;7.332;0.005;-0.062;-0.5;0.24;-0.18;0.0;0.0;0.0;0.0;-18.1;-31.6;-29.0;-21.5;-0.01;0.18;-10.55;1.03;0.26;1.02
1753873620.306066;7.332;0.005;-0.062;-0.5;0.24;-0.18;0.0;0.0;0.0;0.0;-17.6;-31.3;-29.8;-20.5;0.0;0.17;-10.55;0.96;0.34;1.02
1753873620.311066;7.332;0.005;-0.062;-0.5;0.25;-0.18;0.0;0.0;0.0;0.0;-16.5;-31.0;-30.0;-18.5;0.0;0.18;-10.56;1.01;0.29;1.04
1753873620.316066;7.332;0.005;-0.062;-0.5;0.24;-0.18;0.0;0.0;0.0;0.0;-17.3;-31.1;-28.4;-18.3;0.0;0.19;-10.55;1.0;0.34;1.09
1753873620.321066;7.332;0.005;-0.062;-0.5;0.24;-0.18;0.0;0.0;0.0;0.0;-17.8;-30.9;-28.3;-23.7;0.01;0.16;-10.56;0.94;0.31;0.99
1753873620.326066;7.332;0.005;-0.062;-0.5;0.24;-0.18;0.0;0.0;0.0;0.0;-17.2;-31.1;-29.2;-18.5;0.01;0.16;-10.56;1.04;0.3;0.87
1753873620.331066;7.332;0.005;-0.062;-0.5;0.24;-0.18;0.0;0.0;0.0;0.0;-18.2;-30.6;-29.1;-20.6;-0.01;0.18;-10.56;0.91;0.26;1.03
1753873620.336066;7.332;0.005;-0.062;-0.5;0.24;-0.18;0.0;0.0;0.0;0.0;-17.5;-31.1;-29.1;-21.7;0.01;0.17;-10.56;0.88;0.19;0.84
1753873620.341066;7.332;0.005;-0.062;-0.5;0.24;-0.18;0.0;0.0;0.0;0.0;-18.5;-31.1;-27.8;-18.4;0.01;0.17;-10.56;0.98;0.3;0.94
1753873620.346066;7.332;0.005;-0.062;-0.5;0.24;-0.18;0.0;0.0;0.0;0.0;-18.3;-31.7;-29.8;-22.3;-0.0;0.17;-10.57;0.91;0.16;1.04
1753873620.351066;7.332;0.005;-0.062;-0.5;0.24;-0.18;0.0;0.0;0.0;0.0;-17.6;-30.5;-28.9;-19.6;0.01;0.17;-10.56;0.99;0.16;0.99
1753873620.356067;7.332;0.005;-0.062;-0.5;0.24;-0.18;0.0;0.0;0.0;0.0;-19.3;-31.6;-29.8;-23.4;0.01;0.17;-10.57;1.0;0.11;0.95
1753873620.361067;7.332;0.005;-0.062;-0.5;0.25;-0.18;0.0;0.0;0.0;0.0;-18.4;-30.4;-29.1;-25.0;0.01;0.18;-10.57;1.03;0.22;0.98
1753873620.366067;7.332;0.005;-0.062;-0.5;0.24;-0.18;0.0;0.0;0.0;0.0;-17.4;-31.1;-30.6;-19.9;0.02;0.17;-10.57;1.0;0.19;0.91
1753873620.371067;7.332;0.005;-0.062;-0.5;0.24;-0.18;0.0;0.0;0.0;0.0;-18.1;-30.7;-29.1;-23.6;0.01;0.18;-10.56;1.0;0.21;0.85
1753873620.376067;7.332;0.005;-0.062;-0.5;0.24;-0.18;0.0;0.0;0.0;0.0;-18.2;-31.0;-29.4;-26.1;0.02;0.17;-10.57;0.99;0.32;0.76
1753873620.381067;7.332;0.005;-0.062;-0.5;0.24;-0.18;0.0;0.0;0.0;0.0;-18.8;-30.7;-29.1;-21.4;0.0;0.17;-10.56;1.01;0.17;0.99
1753873620.386068;7.332;0.005;-0.062;-0.5;0.25;-0.18;0.0;0.0;0.0;0.0;-19.2;-30.9;-27.6;-22.0;0.02;0.16;-10.57;1.03;0.33;0.88
1753873620.391068;7.332;0.005;-0.062;-0.5;0.24;-0.18;0.0;0.0;0.0;0.0;-18.8;-31.5;-27.9;-20.7;0.02;0.18;-10.58;1.06;0.2;0.82
1753873620.396068;7.332;0.005;-0.062;-0.5;0.24;-0.18;0.0;0.0;0.0;0.0;-18.3;-30.9;-28.9;-22.1;0.02;0.18;-10.58;0.89;0.26;0.92
1753873620.401068;7.332;0.005;-0.062;-0.5;0.24;-0.18;0.0;0.0;0.0;0.0;-18.8;-31.2;-27.6;-23.4;0.01;0.17;-10.57;0.99;0.09;0.98
1753873620.406068;7.332;0.005;-0.062;-0.5;0.24;-0.18;0.0;0.0;0.0;0.0;-18.8;-31.8;-28.6;-22.5;0.02;0.19;-10.57;1.07;0.2;0.87
1753873620.411068;7.332;0.005;-0.062;-0.5;0.24;-0.18;0.0;0.0;0.0;0.0;-19.4;-31.0;-28.9;-29.3;0.02;0.17;-10.58;1.04;0.11;0.91
1753873620.416065;7.332;0.005;-0.062;-0.5;0.24;-0.18;0.0;0.0;0.0;0.0;-19.0;-31.0;-29.0;-24.0;0.02;0.17;-10.57;0.97;0.17;0.9
1753873620.421065;7.332;0.005;-0.062;-0.5;0.24;-0.18;0.0;0.0;0.0;0.0;-19.0;-31.0;-29.0;-24.0;0.02;0.17;-10.57;0.96;0.33;0.94
1753873620.426065;7.332;0.005;-0.062;-0.5;0.24;-0.18;0.0;0.0;0.0;0.0;-18.8;-30.8;-28.7;-16.7;0.01;0.16;-10.57;0.96;0.36;0.88
1753873620.431065;7.332;0.005;-0.062;-0.5;0.24;-0.18;0.0;0.0;0.0;0.0;-18.4;-30.9;-27.3;-27.3;0.03;0.17;-10.57;1.06;0.29;0.99
1753873620.436065;7.332;0.005;-0.062;-0.5;0.23;-0.18;0.0;0.0;0.0;0.0;-19.3;-31.4;-28.4;-26.4;0.02;0.17;-10.57;1.01;0.43;0.92
1753873620.441065;7.332;0.005;-0.062;-0.5;0.23;-0.18;0.0;0.0;0.0;0.0;-19.7;-31.1;-29.1;-22.5;0.02;0.17;-10.56;1.07;0.2;0.91
1753873620.446066;7.332;0.005;-0.062;-0.5;0.24;-0.18;0.0;0.0;0.0;0.0;-18.8;-31.1;-27.2;-26.1;0.02;0.17;-10.57;1.04;0.48;0.93
1753873620.451066;7.332;0.005;-0.062;-0.5;0.24;-0.18;0.0;0.0;0.0;0.0;-19.4;-30.1;-28.9;-22.7;0.03;0.17;-10.57;0.89;0.32;0.93
1753873620.456066;7.332;0.005;-0.062;-0.5;0.24;-0.18;0.0;0.0;0.0;0.0;-20.0;-30.5;-29.3;-21.3;0.02;0.17;-10.58;0.93;0.33;1.02
1753873620.461066;7.332;0.005;-0.062;-0.5;0.24;-0.18;0.0;0.0;0.0;0.0;-20.2;-30.9;-28.2;-26.1;0.02;0.18;-10.57;0.87;0.29;1.01
1753873620.466066;7.332;0.005;-0.062;-0.5;0.24;-0.18;0.0;0.0;0.0;0.0;-19.2;-31.0;-28.1;-25.8;0.01;0.16;-10.55;0.94;0.37;0.88
1753873620.471066;7.332;0.005;-0.062;-0.5;0.24;-0.18;0.0;0.0;0.0;0.0;-19.6;-31.2;-28.3;-17.8;0.01;0.17;-10.58;0.93;0.28;0.98
1753873620.476066;7.332;0.005;-0.062;-0.5;0.24;-0.18;0.0;0.0;0.0;0.0;-19.1;-30.0;-28.2;-18.5;0.02;0.17;-10.56;1.05;0.36;1.04
1753873620.481066;7.332;0.005;-0.062;-0.5;0.24;-0.18;0.0;0.0;0.0;0.0;-18.0;-30.4;-27.8;-23.0;0.02;0.18;-10.58;0.96;0.37;1.05
1753873620.486066;7.332;0.005;-0.062;-0.5;0.25;-0.18;0.0;0.0;0.0;0.0;-18.6;-30.7;-29.2;-26.8;0.03;0.17;-10.56;0.99;0.36;1.13
1753873620.491066;7.332;0.005;-0.062;-0.5;0.25;-0.18;0.0;0.0;0.0;0.0;-19.3;-31.1;-27.7;-24.0;0.01;0.17;-10.56;0.94;0.27;0.95
1753873620.496066;7.332;0.005;-0.062;-0.5;0.24;-0.18;0.0;0.0;0.0;0.0;-19.6;-31.0;-29.4;-21.5;0.01;0.17;-10.56;0.97;0.44;1.07
1753873620.501067;7.332;0.005;-0.062;-0.5;0.24;-0.18;0.0;0.0;0.0;0.0;-19.3;-30.9;-27.8;-25.9;0.02;0.19;-10.56;0.99;0.41;0.87
1753873620.506067;7.332;0.005;-0.062;-0.5;0.24;-0.18;0.0;0.0;0.0;0.0;-17.3;-30.8;-26.1;-16.5;0.02;0.18;-10.54;0.92;0.23;1.02
1753873620.511067;7.332;0.005;-0.062;-0.5;0.24;-0.18;0.0;0.0;0.0;0.0;-20.0;-30.7;-27.4;-24.6;0.01;0.17;-10.55;0.89;0.33;0.92
1753873620.516067;7.332;0.005;-0.062;-0.5;0.25;-0.18;0.0;0.0;0.0;0.0;-18.5;-30.8;-28.5;-23.7;0.01;0.16;-10.57;0.86;0.37;1.01
1753873620.521067;7.332;0.005;-0.062;-0.5;0.24;-0.18;0.0;0.0;0.0;0.0;-18.3;-30.6;-27.7;-22.0;0.0;0.18;-10.57;0.9;0.29;1.19
1753873620.526067;7.332;0.005;-0.062;-0.5;0.24;-0.18;0.0;0.0;0.0;0.0;-19.5;-31.0;-25.4;-23.4;0.01;0.17;-10.56;0.86;0.3;1.01
1753873620.531067;7.332;0.005;-0.062;-0.5;0.25;-0.18;0.0;0.0;0.0;0.0;-18.5;-30.5;-27.8;-17.6;0.01;0.18;-10.55;0.96;0.43;1.04
1753873620.536068;7.332;0.005;-0.062;-0.5;0.25;-0.18;0.0;0.0;0.0;0.0;-18.3;-31.3;-26.2;-23.3;0.02;0.17;-10.56;0.91;0.21;0.95
1753873620.541068;7.332;0.005;-0.062;-0.5;0.24;-0.18;0.0;0.0;0.0;0.0;-18.9;-30.9;-28.0;-21.6;0.01;0.17;-10.55;0.92;0.27;1.03
1753873620.546068;7.332;0.005;-0.062;-0.5;0.24;-0.18;0.0;0.0;0.0;0.0;-18.5;-30.5;-28.2;-23.4;0.03;0.18;-10.56;0.93;0.39;1.08
1753873620.551068;7.332;0.005;-0.062;-0.5;0.25;-0.18;0.0;0.0;0.0;0.0;-20.0;-32.2;-28.0;-21.0;0.02;0.16;-10.56;0.82;0.24;1.05
1753873620.556068;7.332;0.005;-0.062;-0.5;0.23;-0.18;0.0;0.0;0.0;0.0;-19.8;-31.1;-26.3;-20.0;0.02;0.16;-10.54;0.89;0.3;1.12
1753873620.561068;7.332;0.005;-0.062;-0.5;0.24;-0.18;0.0;0.0;0.0;0.0;-19.9;-31.0;-26.6;-18.2;0.03;0.18;-10.57;0.89;0.44;1.1
1753873620.566068;7.332;0.005;-0.062;-0.5;0.24;-0.18;0.0;0.0;0.0;0.0;-18.2;-31.2;-27.2;-11.5;0.01;0.17;-10.55;0.95;0.29;1.06
1753873620.571068;7.332;0.005;-0.062;-0.5;0.24;-0.18;0.0;0.0;0.0;0.0;-19.0;-31.2;-26.1;-25.3;0.01;0.18;-10.54;0.98;0.22;1.15
1753873620.576068;7.332;0.005;-0.062;-0.5;0.24;-0.18;0.0;0.0;0.0;0.0;-18.3;-31.2;-27.7;-19.7;0.01;0.19;-10.55;0.9;0.35;1.11
1753873620.581068;7.332;0.005;-0.062;-0.5;0.23;-0.18;0.0;0.0;0.0;0.0;-18.9;-30.5;-26.5;-16.6;0.0;0.17;-10.54;0.95;0.24;1.13
1753873620.586069;7.332;0.005;-0.062;-0.5;0.24;-0.18;0.0;0.0;0.0;0.0;-18.3;-30.8;-26.0;-22.1;0.01;0.16;-10.55;0.89;0.26;1.03
1753873620.591069;7.332;0.005;-0.062;-0.5;0.24;-0.18;0.0;0.0;0.0;0.0;-18.4;-31.1;-27.8;-18.5;0.01;0.19;-10.57;0.97;0.3;1.03
1753873620.596069;7.332;0.005;-0.062;-0.5;0.25;-0.18;0.0;0.0;0.0;0.0;-19.8;-31.5;-26.4;-16.5;0.01;0.17;-10.55;0.92;0.27;1.23
1753873620.601069;7.332;0.005;-0.062;-0.5;0.24;-0.18;0.0;0.0;0.0;0.0;-19.6;-30.7;-26.8;-17.7;0.01;0.17;-10.55;1.0;0.46;1.06
1753873620.606069;7.332;0.005;-0.062;-0.5;0.25;-0.18;0.0;0.0;0.0;0.0;-19.4;-31.3;-27.7;-23.5;0.01;0.18;-10.55;0.92;0.3;1.15
1753873620.611069;7.332;0.005;-0.062;-0.5;0.24;-0.18;0.0;0.0;0.0;0.0;-19.5;-30.5;-26.5;-17.1;0.01;0.17;-10.56;0.92;0.29;1.02
1753873620.616065;7.332;0.005;-0.062;-0.5;0.24;-0.18;0.0;0.0;0.0;0.0;-19.0;-31.0;-26.0;-20.0;0.01;0.17;-10.55;0.9;0.3;1.11
1753873620.621065;7.332;0.005;-0.062;-0.5;0.24;-0.18;0.0;0.0;0.0;0.0;-19.0;-31.0;-26.0;-20.0;0.0;0.17;-10.54;0.96;0.38;1.05
1753873620.626065;7.332;0.005;-0.062;-0.5;0.24;-0.18;0.0;0.0;0.0;0.0;-19.0;-31.0;-26.0;-20.0;0.01;0.18;-10.53;0.96;0.35;1.09
1753873620.631065;7.332;0.005;-0.062;-0.5;0.24;-0.18;0.0;0.0;0.0;0.0;-19.0;-31.0;-26.0;-20.0;0.0;0.18;-10.53;0.98;0.18;0.98
1753873620.636065;7.332;0.005;-0.062;-0.5;0.24;-0.18;0.0;0.0;0.0;0.0;-19.0;-31.0;-26.0;-20.0;0.01;0.18;-10.53;0.99;0.28;0.96
1753873620.641065;7.332;0.005;-0.062;-0.5;0.24;-0.18;0.0;0.0;0.0;0.0;-19.0;-31.0;-26.0;-20.0;0.01;0.18;-10.53;0.96;0.32;0.83
1753873620.646065;7.332;0.005;-0.062;-0.5;0.24;-0.18;0.0;0.0;0.0;0.0;-19.0;-31.0;-26.0;-20.0;0.01;0.18;-10.53;0.84;0.2;0.88
1753873620.651065;7.332;0.005;-0.062;-0.5;0.24;-0.18;0.0;0.0;0.0;0.0;-19.0;-31.0;-26.0;-20.0;0.01;0.18;-10.54;0.86;0.33;0.92
1753873620.656065;7.332;0.005;-0.062;-0.5;0.24;-0.18;0.0;0.0;0.0;0.0;-19.0;-31.0;-26.0;-20.0;0.01;0.17;-10.54;0.91;0.35;0.92
1753873620.661065;7.332;0.005;-0.062;-0.5;0.24;-0.18;0.0;0.0;0.0;0.0;-19.0;-31.0;-26.0;-20.0;0.01;0.18;-10.53;0.83;0.34;0.9
1753873620.666065;7.332;0.005;-0.062;-0.5;0.24;-0.18;0.0;0.0;0.0;0.0;-19.0;-31.0;-26.0;-20.0;0.01;0.18;-10.54;0.9;0.33;1.06
1753873620.671065;7.332;0.005;-0.062;-0.5;0.24;-0.18;0.0;0.0;0.0;0.0;-19.0;-31.0;-26.0;-20.0;0.01;0.18;-10.53;1.06;0.24;1.12
1753873620.676065;7.332;0.005;-0.062;-0.5;0.24;-0.18;0.0;0.0;0.0;0.0;-19.0;-31.0;-26.0;-20.0;0.0;0.17;-10.54;1.03;0.3;0.97
1753873620.681065;7.332;0.005;-0.062;-0.5;0.24;-0.18;0.0;0.0;0.0;0.0;-19.0;-31.0;-26.0;-20.0;0.0;0.17;-10.54;1.02;0.23;1.03
1753873620.686065;7.332;0.005;-0.062;-0.5;0.24;-0.18;0.0;0.0;0.0;0.0;-19.0;-31.0;-26.0;-20.0;0.0;0.17;-10.55;0.93;0.25;1.11
1753873620.691064;7.332;0.005;-0.062;-0.5;0.24;-0.18;0.0;0.0;0.0;0.0;-19.0;-31.0;-26.0;-20.0;0.0;0.17;-10.55;0.86;0.38;0.97
1753873620.696065;7.332;0.005;-0.062;-0.5;0.24;-0.18;0.0;0.0;0.0;0.0;-18.6;-30.4;-26.4;-24.2;-0.0;0.17;-10.54;0.87;0.44;0.94
1753873620.701065;7.332;0.005;-0.062;-0.5;0.24;-0.18;0.0;0.0;0.0;0.0;-18.2;-31.1;-25.8;-22.3;-0.0;0.17;-10.57;0.89;0.35;1.11
1753873620.706065;7.332;0.005;-0.062;-0.5;0.24;-0.18;0.0;0.0;0.0;0.0;-18.7;-31.4;-26.1;-17.7;-0.0;0.17;-10.52;0.88;0.4;0.91
1753873620.711065;7.332;0.005;-0.062;-0.5;0.24;-0.18;0.0;0.0;0.0;0.0;-18.1;-30.6;-27.4;-20.3;0.0;0.17;-10.54;0.9;0.31;1.04
1753873620.716065;7.332;0.005;-0.062;-0.5;0.23;-0.18;0.0;0.0;0.0;0.0;-18.1;-30.2;-26.1;-20.8;0.0;0.17;-10.58;0.79;0.43;0.97
1753873620.721065;7.332;0.005;-0.062;-0.5;0.24;-0.18;0.0;0.0;0.0;0.0;-18.0;-30.5;-29.3;-22.2;-0.0;0.18;-10.53;0.95;0.29;1.06
1753873620.726066;7.332;0.005;-0.062;-0.5;0.24;-0.18;0.0;0.0;0.0;0.0;-19.3;-31.0;-25.8;-22.3;0.01;0.17;-10.56;0.9;0.33;0.96
1753873620.731066;7.332;0.005;-0.062;-0.5;0.24;-0.18;0.0;0.0;0.0;0.0;-18.7;-30.3;-26.6;-19.8;0.0;0.16;-10.56;0.9;0.37;0.87
1753873620.736066;7.332;0.005;-0.062;-0.5;0.24;-0.18;0.0;0.0;0.0;0.0;-17.0;-30.6;-26.4;-21.5;0.0;0.18;-10.55;0.93;0.27;1.0
1753873620.741066;7.332;0.005;-0.062;-0.5;0.23;-0.18;0.0;0.0;0.0;0.0;-17.4;-29.7;-24.0;-17.6;0.01;0.18;-10.54;0.95;0.45;1.0
1753873620.746066;7.332;0.005;-0.062;-0.5;0.24;-0.18;0.0;0.0;0.0;0.0;-18.4;-30.9;-26.0;-20.7;0.0;0.18;-10.54;0.84;0.26;1.01
1753873620.751066;7.332;0.005;-0.062;-0.5;0.24;-0.18;0.0;0.0;0.0;0.0;-18.0;-29.5;-27.0;-22.7;0.0;0.18;-10.56;0.94;0.37;1.06
1753873620.756066;7.332;0.005;-0.062;-0.5;0.23;-0.18;0.0;0.0;0.0;0.0;-17.6;-29.7;-24.8;-21.9;-0.0;0.17;-10.55;0.93;0.31;1.04
1753873620.761066;7.332;0.005;-0.062;-0.5;0.23;-0.18;0.0;0.0;0.0;0.0;-17.8;-29.3;-27.1;-22.5;0.01;0.19;-10.54;0.95;0.35;0.95
1753873620.766066;7.332;0.005;-0.062;-0.5;0.23;-0.18;0.0;0.0;0.0;0.0;-18.5;-30.3;-24.4;-23.6;0.01;0.19;-10.56;0.94;0.38;0.99
1753873620.771066;7.332;0.005;-0.062;-0.5;0.23;-0.18;0.0;0.0;0.0;0.0;-17.7;-29.6;-27.2;-18.6;0.0;0.18;-10.55;1.02;0.44;1.13
1753873620.776066;7.332;0.005;-0.062;-0.5;0.23;-0.18;0.0;0.0;0.0;0.0;-17.4;-29.6;-26.9;-23.3;0.02;0.18;-10.56;0.85;0.36;1.0
1753873620.781067;7.332;0.005;-0.062;-0.5;0.23;-0.18;0.0;0.0;0.0;0.0;-16.8;-29.0;-27.6;-21.6;0.01;0.18;-10.54;1.01;0.37;1.02
1753873620.786067;7.332;0.005;-0.062;-0.5;0.23;-0.18;0.0;0.0;0.0;0.0;-16.7;-29.8;-26.2;-23.5;0.01;0.18;-10.55;0.95;0.42;1.0
1753873620.791067;7.332;0.005;-0.062;-0.5;0.23;-0.18;0.0;0.0;0.0;0.0;-17.3;-28.7;-25.2;-21.6;0.01;0.18;-10.55;1.02;0.39;0.98
1753873620.796067;7.332;0.005;-0.062;-0.5;0.23;-0.18;0.0;0.0;0.0;0.0;-16.9;-28.9;-26.0;-22.8;0.01;0.17;-10.54;0.94;0.4;0.97
1753873620.801067;7.332;0.005;-0.062;-0.5;0.23;-0.18;0.0;0.0;0.0;0.0;-17.6;-29.0;-27.7;-23.1;0.01;0.18;-10.54;1.02;0.28;0.87
1753873620.806065;7.332;0.005;-0.062;-0.5;0.23;-0.18;0.0;0.0;0.0;0.0;-17.0;-29.0;-26.0;-23.0;0.01;0.18;-10.55;0.94;0.4;0.99
1753873620.811065;7.332;0.005;-0.062;-0.5;0.23;-0.18;0.0;0.0;0.0;0.0;-17.0;-29.0;-26.0;-23.0;0.01;0.18;-10.54;1.05;0.38;1.08
1753873620.816064;7.332;0.005;-0.062;-0.5;0.23;-0.18;0.0;0.0;0.0;0.0;-17.0;-29.0;-26.0;-23.0;0.01;0.18;-10.54;0.96;0.29;0.97
1753873620.821065;7.332;0.005;-0.062;-0.5;0.23;-0.18;0.0;0.0;0.0;0.0;-17.0;-29.0;-26.0;-23.0;0.02;0.18;-10.55;0.99;0.36;1.04
1753873620.826064;7.332;0.005;-0.062;-0.5;0.23;-0.18;0.0;0.0;0.0;0.0;-17.0;-29.0;-26.0;-23.0;0.02;0.18;-10.55;1.02;0.21;0.96
1753873620.831065;7.332;0.005;-0.062;-0.5;0.23;-0.18;0.0;0.0;0.0;0.0;-17.0;-29.0;-26.0;-23.0;0.02;0.18;-10.54;0.99;0.28;1.01
1753873620.836064;7.332;0.005;-0.062;-0.5;0.23;-0.18;0.0;0.0;0.0;0.0;-17.0;-29.0;-26.0;-23.0;0.01;0.18;-10.54;0.9;0.27;0.89
1753873620.841065;7.332;0.005;-0.062;-0.5;0.23;-0.18;0.0;0.0;0.0;0.0;-17.0;-29.0;-26.0;-23.0;0.02;0.17;-10.54;0.81;0.38;0.87
1753873620.846065;7.332;0.005;-0.062;-0.5;0.23;-0.18;0.0;0.0;0.0;0.0;-17.0;-29.0;-26.0;-23.0;0.02;0.17;-10.55;0.87;0.24;1.02
1753873620.851065;7.332;0.005;-0.062;-0.5;0.23;-0.18;0.0;0.0;0.0;0.0;-17.0;-29.0;-26.0;-23.0;0.01;0.17;-10.56;0.88;0.26;0.99
1753873620.856065;7.332;0.005;-0.062;-0.5;0.23;-0.18;0.0;0.0;0.0;0.0;-17.0;-29.0;-26.0;-23.0;0.02;0.18;-10.55;0.84;0.23;0.98
1753873620.861065;7.332;0.005;-0.062;-0.5;0.23;-0.18;0.0;0.0;0.0;0.0;-17.0;-29.0;-26.0;-23.0;0.02;0.17;-10.55;0.8;0.19;0.99
1753873620.866065;7.332;0.005;-0.062;-0.5;0.23;-0.18;0.0;0.0;0.0;0.0;-17.0;-29.0;-26.0;-23.0;0.02;0.17;-10.55;0.84;0.36;0.98
1753873620.871065;7.332;0.005;-0.062;-0.5;0.23;-0.18;0.0;0.0;0.0;0.0;-17.0;-29.0;-26.0;-23.0;0.02;0.17;-10.55;0.9;0.25;0.98
1753873620.876065;7.332;0.005;-0.062;-0.5;0.23;-0.18;0.0;0.0;0.0;0.0;-17.0;-29.0;-26.0;-23.0;0.02;0.17;-10.54;0.9;0.24;0.99
1753873620.881065;7.332;0.005;-0.062;-0.5;0.23;-0.18;0.0;0.0;0.0;0.0;-17.0;-29.0;-26.0;-23.0;0.02;0.17;-10.54;0.99;0.38;0.9
1753873620.886065;7.332;0.005;-0.062;-0.5;0.23;-0.18;0.0;0.0;0.0;0.0;-17.0;-29.0;-26.0;-23.0;0.01;0.17;-10.54;0.93;0.32;0.97
1753873620.891065;7.332;0.005;-0.062;-0.5;0.23;-0.18;0.0;0.0;0.0;0.0;-17.0;-29.0;-26.0;-23.0;0.01;0.17;-10.55;0.9;0.48;0.85
1753873620.896065;7.332;0.005;-0.062;-0.5;0.23;-0.18;0.0;0.0;0.0;0.0;-17.0;-29.0;-26.0;-23.0;0.01;0.17;-10.55;0.95;0.37;0.98
1753873620.901065;7.332;0.005;-0.062;-0.5;0.23;-0.18;0.0;0.0;0.0;0.0;-17.0;-29.0;-26.0;-23.0;0.01;0.17;-10.55;1.0;0.35;0.96
1753873620.906065;7.332;0.005;-0.062;-0.5;0.23;-0.18;0.0;0.0;0.0;0.0;-17.0;-29.0;-26.0;-23.0;0.01;0.17;-10.53;0.89;0.35;1.0
1753873620.911065;7.332;0.005;-0.062;-0.5;0.23;-0.18;0.0;0.0;0.0;0.0;-17.0;-29.0;-26.0;-23.0;0.0;0.17;-10.54;1.01;0.34;0.92
1753873620.916065;7.332;0.005;-0.062;-0.5;0.23;-0.18;0.0;0.0;0.0;0.0;-17.0;-29.0;-26.0;-23.0;0.0;0.17;-10.54;0.9;0.45;1.02
1753873620.921065;7.332;0.005;-0.062;-0.5;0.23;-0.18;0.0;0.0;0.0;0.0;-17.0;-29.0;-26.0;-23.0;0.0;0.18;-10.53;1.01;0.3;0.92
1753873620.926065;7.332;0.005;-0.062;-0.5;0.23;-0.18;0.0;0.0;0.0;0.0;-17.0;-29.0;-26.0;-23.0;0.01;0.18;-10.52;0.93;0.39;1.02
1753873620.931065;7.332;0.005;-0.062;-0.5;0.23;-0.18;0.0;0.0;0.0;0.0;-17.0;-29.0;-26.0;-23.0;0.01;0.18;-10.53;0.85;0.38;0.99
1753873620.936065;7.332;0.005;-0.062;-0.5;0.23;-0.18;0.0;0.0;0.0;0.0;-17.0;-29.0;-26.0;-23.0;0.0;0.18;-10.54;0.92;0.32;0.98
1753873620.941064;7.332;0.005;-0.062;-0.5;0.23;-0.18;0.0;0.0;0.0;0.0;-17.0;-29.0;-26.0;-23.0;0.0;0.19;-10.53;0.92;0.19;0.99
1753873620.946065;7.332;0.005;-0.062;-0.5;0.23;-0.18;0.0;0.0;0.0;0.0;-17.0;-29.0;-26.0;-23.0;0.01;0.18;-10.53;0.84;0.37;1.13
1753873620.951064;7.332;0.005;-0.062;-0.5;0.23;-0.18;0.0;0.0;0.0;0.0;-17.0;-29.0;-26.0;-23.0;0.01;0.18;-10.53;0.82;0.39;0.94
1753873620.956065;7.332;0.005;-0.062;-0.5;0.23;-0.18;0.0;0.0;0.0;0.0;-17.0;-29.0;-26.0;-23.0;0.01;0.18;-10.52;1.01;0.4;1.0
1753873620.961064;7.332;0.005;-0.062;-0.5;0.23;-0.18;0.0;0.0;0.0;0.0;-17.0;-29.0;-26.0;-23.0;0.01;0.18;-10.53;0.94;0.38;1.06
1753873620.966065;7.332;0.005;-0.062;-0.5;0.23;-0.18;0.0;0.0;0.0;0.0;-17.0;-29.0;-26.0;-23.0;0.01;0.17;-10.53;0.81;0.38;1.08
1753873620.971065;7.332;0.005;-0.062;-0.5;0.23;-0.18;0.0;0.0;0.0;0.0;-17.0;-29.0;-26.0;-23.0;0.01;0.17;-10.54;0.8;0.44;1.08
1753873620.976065;7.332;0.005;-0.062;-0.5;0.23;-0.18;0.0;0.0;0.0;0.0;-17.0;-29.0;-26.0;-23.0;0.0;0.17;-10.54;0.9;0.35;0.99
1753873620.981065;7.332;0.005;-0.062;-0.5;0.23;-0.18;0.0;0.0;0.0;0.0;-17.0;-29.0;-26.0;-23.0;0.01;0.17;-10.54;0.98;0.42;1.02
1753873620.986065;7.332;0.005;-0.062;-0.5;0.23;-0.18;0.0;0.0;0.0;0.0;-17.0;-29.0;-26.0;-23.0;0.01;0.17;-10.53;0.96;0.36;0.96
1753873620.991065;7.332;0.005;-0.062;-0.5;0.23;-0.18;0.0;0.0;0.0;0.0;-17.0;-29.0;-26.0;-23.0;0.01;0.16;-10.53;0.94;0.2;1.04
1753873620.996065;7.332;0.005;-0.062;-0.5;0.23;-0.18;0.0;0.0;0.0;0.0;-17.0;-29.0;-26.0;-23.0;0.01;0.16;-10.54;1.12;0.25;1.06
1753873621.001065;7.332;0.005;-0.062;-0.5;0.23;-0.18;0.0;0.0;0.0;0.0;-17.0;-29.0;-26.0;-23.0;0.01;0.16;-10.54;1.02;0.35;0.99
1753873621.006065;7.332;0.005;-0.062;-0.5;0.23;-0.18;0.0;0.0;0.0;0.0;-17.0;-29.0;-26.0;-23.0;0.0;0.17;-10.55;0.9;0.51;0.97
1753873621.011065;7.332;0.005;-0.062;-0.5;0.23;-0.18;0.0;0.0;0.0;0.0;-17.0;-29.0;-26.0;-23.0;0.0;0.16;-10.55;0.83;0.24;1.05
1753873621.016065;7.332;0.005;-0.062;-0.5;0.23;-0.18;0.0;0.0;0.0;0.0;-17.0;-29.0;-26.0;-23.0;0.01;0.16;-10.55;0.98;0.31;0.96
1753873621.021065;7.332;0.005;-0.062;-0.5;0.23;-0.18;0.0;0.0;0.0;0.0;-17.0;-29.0;-26.0;-23.0;0.01;0.17;-10.56;0.85;0.13;0.96
1753873621.026065;7.332;0.005;-0.062;-0.5;0.23;-0.18;0.0;0.0;0.0;0.0;-17.0;-29.0;-26.0;-23.0;0.01;0.16;-10.56;0.94;0.36;0.89
1753873621.031065;7.332;0.005;-0.062;-0.5;0.23;-0.18;0.0;0.0;0.0;0.0;-17.0;-29.0;-26.0;-23.0;0.01;0.16;-10.56;0.89;0.41;1.05
1753873621.036065;7.332;0.005;-0.062;-0.5;0.23;-0.18;0.0;0.0;0.0;0.0;-17.0;-29.0;-26.0;-23.0;0.0;0.16;-10.56;0.94;0.38;0.98
1753873621.041065;7.332;0.005;-0.062;-0.5;0.23;-0.18;0.0;0.0;0.0;0.0;-17.0;-29.0;-26.0;-23.0;0.0;0.17;-10.57;0.87;0.3;1.09
1753873621.046065;7.332;0.005;-0.062;-0.5;0.23;-0.18;0.0;0.0;0.0;0.0;-17.0;-29.0;-26.0;-23.0;0.0;0.17;-10.56;1.01;0.2;1.03
1753873621.051065;7.332;0.005;-0.062;-0.5;0.23;-0.18;0.0;0.0;0.0;0.0;-17.0;-29.0;-26.0;-23.0;0.0;0.17;-10.56;0.92;0.48;1.07
1753873621.056065;7.332;0.005;-0.062;-0.5;0.23;-0.18;0.0;0.0;0.0;0.0;-17.0;-29.0;-26.0;-23.0;0.0;0.17;-10.55;0.9;0.35;1.09
1753873621.061065;7.332;0.005;-0.062;-0.5;0.23;-0.18;0.0;0.0;0.0;0.0;-17.0;-29.0;-26.0;-23.0;0.0;0.17;-10.54;0.91;0.44;0.86
1753873621.066064;7.332;0.005;-0.062;-0.5;0.23;-0.18;0.0;0.0;0.0;0.0;-17.0;-29.0;-26.0;-23.0;0.0;0.17;-10.54;0.85;0.29;1.06
1753873621.071065;7.332;0.005;-0.062;-0.5;0.23;-0.18;0.0;0.0;0.0;0.0;-17.0;-29.0;-26.0;-23.0;0.01;0.17;-10.54;0.86;0.47;1.02
1753873621.076064;7.332;0.005;-0.062;-0.5;0.23;-0.18;0.0;0.0;0.0;0.0;-17.0;-29.0;-26.0;-23.0;0.0;0.17;-10.53;0.88;0.4;1.01
1753873621.081065;7.332;0.005;-0.062;-0.5;0.23;-0.18;0.0;0.0;0.0;0.0;-17.0;-29.0;-26.0;-23.0;0.0;0.17;-10.54;0.94;0.25;0.93
1753873621.086064;7.332;0.005;-0.062;-0.5;0.23;-0.18;0.0;0.0;0.0;0.0;-17.0;-29.0;-26.0;-23.0;0.01;0.18;-10.54;0.86;0.32;1.03
1753873621.091065;7.332;0.005;-0.062;-0.5;0.23;-0.18;0.0;0.0;0.0;0.0;-17.0;-29.0;-26.0;-23.0;0.01;0.18;-10.54;0.8;0.45;1.06
1753873621.096065;7.332;0.005;-0.062;-0.5;0.23;-0.18;0.0;0.0;0.0;0.0;-17.0;-29.0;-26.0;-23.0;0.0;0.17;-10.54;0.89;0.35;1.05
1753873621.101065;7.332;0.005;-0.062;-0.5;0.23;-0.18;0.0;0.0;0.0;0.0;-17.0;-29.0;-26.0;-23.0;0.0;0.17;-10.53;0.96;0.32;0.95
1753873621.106065;7.332;0.005;-0.062;-0.5;0.23;-0.18;0.0;0.0;0.0;0.0;-17.0;-29.0;-26.0;-23.0;0.0;0.17;-10.54;0.91;0.4;0.98
1753873621.111065;7.332;0.005;-0.062;-0.5;0.23;-0.18;0.0;0.0;0.0;0.0;-17.0;-29.0;-26.0;-23.0;0.0;0.17;-10.54;0.96;0.31;1.13
1753873621.116065;7.332;0.005;-0.062;-0.5;0.23;-0.18;0.0;0.0;0.0;0.0;-17.0;-29.0;-26.0;-23.0;0.0;0.16;-10.54;0.87;0.26;0.95
1753873621.121065;7.332;0.005;-0.062;-0.5;0.23;-0.18;0.0;0.0;0.0;0.0;-17.0;-29.0;-26.0;-23.0;0.0;0.16;-10.54;0.9;0.28;0.9
1753873621.126065;7.332;0.005;-0.062;-0.5;0.23;-0.18;0.0;0.0;0.0;0.0;-17.0;-29.0;-26.0;-23.0;0.0;0.16;-10.54;0.83;0.19;0.93
1753873621.131065;7.332;0.005;-0.062;-0.5;0.23;-0.18;0.0;0.0;0.0;0.0;-17.0;-29.0;-26.0;-23.0;0.0;0.16;-10.54;1.07;0.35;0.87
1753873621.136065;7.332;0.005;-0.062;-0.5;0.23;-0.18;0.0;0.0;0.0;0.0;-17.0;-29.0;-26.0;-23.0;0.0;0.16;-10.54;0.94;0.32;0.96
1753873621.141065;7.332;0.005;-0.062;-0.5;0.23;-0.18;0.0;0.0;0.0;0.0;-17.0;-29.0;-26.0;-23.0;0.0;0.16;-10.54;1.01;0.35;1.02
1753873621.146065;7.332;0.005;-0.062;-0.5;0.23;-0.18;0.0;0.0;0.0;0.0;-17.0;-29.0;-26.0;-23.0;0.0;0.16;-10.54;0.83;0.32;0.93
1753873621.151065;7.332;0.005;-0.062;-0.5;0.23;-0.18;0.0;0.0;0.0;0.0;-17.0;-29.0;-26.0;-23.0;0.0;0.16;-10.54;0.98;0.35;0.95
1753873621.156065;7.332;0.005;-0.062;-0.5;0.23;-0.18;0.0;0.0;0.0;0.0;-17.0;-29.0;-26.0;-23.0;0.0;0.16;-10.54;0.93;0.47;0.99
1753873621.161065;7.332;0.005;-0.062;-0.5;0.23;-0.18;0.0;0.0;0.0;0.0;-17.0;-29.0;-26.0;-23.0;0.0;0.16;-10.54;0.88;0.31;0.89
1753873621.166065;7.332;0.005;-0.062;-0.5;0.23;-0.18;0.0;0.0;0.0;0.0;-17.0;-29.0;-26.0;-23.0;0.0;0.17;-10.54;0.95;0.34;0.96
1753873621.171065;7.332;0.005;-0.062;-0.5;0.23;-0.18;0.0;0.0;0.0;0.0;-17.0;-29.0;-26.0;-23.0;0.0;0.18;-10.54;0.99;0.32;0.96
1753873621.176065;7.332;0.005;-0.062;-0.5;0.23;-0.18;0.0;0.0;0.0;0.0;-17.0;-29.0;-26.0;-23.0;0.0;0.18;-10.54;1.0;0.41;1.05
1753873621.181065;7.332;0.005;-0.062;-0.5;0.23;-0.18;0.0;0.0;0.0;0.0;-17.0;-29.0;-26.0;-23.0;0.0;0.18;-10.53;0.87;0.32;0.92
