Timestamp;PosX;PosY;PosZ;Roll;Pitch;Yaw;Q1;Q2;Q3;Q4;M1;M2;M3;M4;AccelX;AccelY;AccelZ;GyroX;GyroY;GyroZ
1753880915.3532991;7.315;6.773000000000001;-0.644;-2.88;-1.0;-62.07;0.0;0.0;0.0;0.0;-55.0;-10.0;-29.0;4.0;-0.23;0.6;-10.64;0.63;0.36;0.95
1753880915.3582985;7.315;6.773000000000001;-0.644;-2.88;-1.0;-62.07;0.0;0.0;0.0;0.0;-55.0;-10.0;-29.0;4.0;-0.23;0.6;-10.64;0.65;0.32;0.91
1753880915.363299;7.315;6.773000000000001;-0.644;-2.88;-1.0;-62.07;0.0;0.0;0.0;0.0;-55.0;-10.0;-29.0;4.0;-0.22;0.6;-10.63;0.57;0.38;0.8
1753880915.3682985;7.315;6.773000000000001;-0.644;-2.88;-1.0;-62.07;0.0;0.0;0.0;0.0;-55.0;-10.0;-29.0;4.0;-0.22;0.59;-10.64;0.64;0.3;0.8
1753880915.373299;7.315;6.773000000000001;-0.644;-2.88;-1.0;-62.07;0.0;0.0;0.0;0.0;-55.0;-10.0;-29.0;4.0;-0.22;0.59;-10.64;0.58;0.26;0.89
1753880915.3782988;7.315;6.773000000000001;-0.644;-2.88;-1.0;-62.07;0.0;0.0;0.0;0.0;-55.0;-10.0;-29.0;4.0;-0.23;0.59;-10.64;0.61;0.25;0.82
1753880915.3832989;7.315;6.773000000000001;-0.644;-2.88;-1.0;-62.07;0.0;0.0;0.0;0.0;-55.0;-10.0;-29.0;4.0;-0.22;0.58;-10.63;0.7;0.31;0.81
1753880915.388299;7.315;6.773000000000001;-0.644;-2.89;-1.0;-62.07;0.0;0.0;0.0;0.0;-54.8;-18.5;-27.2;4.0;-0.21;0.58;-10.64;0.59;0.29;0.76
1753880915.3932989;7.315;6.773000000000001;-0.644;-2.88;-1.0;-62.07;0.0;0.0;0.0;0.0;-55.0;-10.0;-29.0;4.0;-0.21;0.58;-10.64;0.54;0.25;0.84
1753880915.3982987;7.315;6.773000000000001;-0.644;-2.88;-1.0;-62.07;0.0;0.0;0.0;0.0;-55.0;-10.0;-29.0;4.0;-0.21;0.59;-10.65;0.58;0.33;0.88
1753880915.4032989;7.315;6.773000000000001;-0.644;-2.88;-1.0;-62.07;0.0;0.0;0.0;0.0;-55.0;-10.0;-29.0;4.0;-0.21;0.59;-10.66;0.58;0.29;0.84
1753880915.408299;7.315;6.773000000000001;-0.644;-2.88;-1.0;-62.07;0.0;0.0;0.0;0.0;-55.0;-10.0;-29.0;4.0;-0.21;0.59;-10.65;0.64;0.22;0.77
1753880915.4132988;7.315;6.773000000000001;-0.644;-2.88;-1.0;-62.07;0.0;0.0;0.0;0.0;-55.0;-10.0;-29.0;4.0;-0.2;0.59;-10.66;0.5;0.28;1.06
1753880915.418299;7.315;6.773000000000001;-0.644;-2.88;-1.0;-62.07;0.0;0.0;0.0;0.0;-55.0;-10.0;-29.0;4.0;-0.21;0.59;-10.67;0.51;0.26;0.93
1753880915.4232988;7.315;6.773000000000001;-0.644;-2.88;-1.0;-62.07;0.0;0.0;0.0;0.0;-55.0;-10.0;-29.0;4.0;-0.21;0.59;-10.66;0.57;0.32;0.96
1753880915.428299;7.315;6.773000000000001;-0.644;-2.88;-1.0;-62.07;0.0;0.0;0.0;0.0;-55.0;-10.0;-29.0;4.0;-0.21;0.59;-10.67;0.54;0.3;1.0
1753880915.4332988;7.315;6.773000000000001;-0.644;-2.88;-1.0;-62.07;0.0;0.0;0.0;0.0;-55.0;-10.0;-29.0;4.0;-0.21;0.6;-10.68;0.56;0.43;0.96
1753880915.438299;7.315;6.773000000000001;-0.644;-2.88;-1.0;-62.07;0.0;0.0;0.0;0.0;-55.0;-10.0;-29.0;4.0;-0.21;0.6;-10.68;0.6;0.33;0.85
1753880915.4432988;7.315;6.773000000000001;-0.644;-2.88;-1.0;-62.07;0.0;0.0;0.0;0.0;-55.0;-10.0;-29.0;4.0;-0.21;0.59;-10.68;0.64;0.26;0.93
1753880915.448299;7.315;6.773000000000001;-0.644;-2.88;-1.0;-62.07;0.0;0.0;0.0;0.0;-55.0;-10.0;-29.0;4.0;-0.22;0.59;-10.68;0.64;0.44;0.99
1753880915.4532988;7.315;6.773000000000001;-0.644;-2.88;-1.0;-62.07;0.0;0.0;0.0;0.0;-55.0;-10.0;-29.0;4.0;-0.22;0.59;-10.67;0.61;0.32;0.9
1753880915.4582992;7.315;6.773000000000001;-0.644;-2.88;-1.0;-62.07;0.0;0.0;0.0;0.0;-55.0;-10.0;-29.0;4.0;-0.22;0.59;-10.66;0.49;0.32;0.91
1753880915.4632986;7.315;6.773000000000001;-0.644;-2.88;-1.0;-62.07;0.0;0.0;0.0;0.0;-55.0;-10.0;-29.0;4.0;-0.22;0.59;-10.66;0.49;0.4;0.78
1753880915.4682992;7.315;6.773000000000001;-0.644;-2.88;-1.0;-62.07;0.0;0.0;0.0;0.0;-55.0;-10.0;-29.0;4.0;-0.23;0.59;-10.65;0.53;0.42;1.0
1753880915.4732985;7.315;6.773000000000001;-0.644;-2.88;-1.0;-62.07;0.0;0.0;0.0;0.0;-55.0;-10.0;-29.0;4.0;-0.23;0.59;-10.65;0.57;0.36;0.9
1753880915.4782991;7.315;6.773000000000001;-0.644;-2.88;-1.0;-62.07;0.0;0.0;0.0;0.0;-55.0;-10.0;-29.0;4.0;-0.22;0.59;-10.66;0.62;0.28;0.86
1753880915.4832985;7.315;6.773000000000001;-0.644;-2.88;-1.0;-62.07;0.0;0.0;0.0;0.0;-55.0;-10.0;-29.0;4.0;-0.22;0.59;-10.65;0.52;0.35;0.83
1753880915.4882987;7.315;6.773000000000001;-0.644;-2.88;-1.0;-62.07;0.0;0.0;0.0;0.0;-55.0;-10.0;-29.0;4.0;-0.22;0.59;-10.63;0.6;0.35;0.82
1753880915.4932988;7.315;6.773000000000001;-0.644;-2.88;-1.0;-62.07;0.0;0.0;0.0;0.0;-55.0;-10.0;-29.0;4.0;-0.21;0.58;-10.65;0.55;0.32;0.74
1753880915.498299;7.315;6.773000000000001;-0.644;-2.88;-1.0;-62.07;0.0;0.0;0.0;0.0;-55.0;-10.0;-29.0;4.0;-0.23;0.59;-10.67;0.52;0.33;0.94
1753880915.503299;7.315;6.773000000000001;-0.644;-2.88;-1.0;-62.07;0.0;0.0;0.0;0.0;-55.0;-10.0;-29.0;4.0;-0.21;0.59;-10.66;0.54;0.39;0.8
1753880915.508299;7.315;6.773000000000001;-0.644;-2.88;-1.0;-62.07;0.0;0.0;0.0;0.0;-55.0;-10.0;-29.0;4.0;-0.21;0.59;-10.66;0.43;0.41;0.71
1753880915.5132992;7.315;6.773000000000001;-0.644;-2.88;-1.0;-62.07;0.0;0.0;0.0;0.0;-55.0;-10.0;-29.0;4.0;-0.23;0.59;-10.65;0.49;0.24;0.72
1753880915.5182993;7.315;6.773000000000001;-0.644;-2.88;-1.0;-62.07;0.0;0.0;0.0;0.0;-55.0;-10.0;-29.0;4.0;-0.22;0.58;-10.64;0.53;0.39;0.94
1753880915.5232995;7.315;6.773000000000001;-0.644;-2.88;-1.0;-62.07;0.0;0.0;0.0;0.0;-55.0;-10.0;-29.0;4.0;-0.22;0.59;-10.66;0.49;0.37;0.86
1753880915.5282996;7.315;6.773000000000001;-0.644;-2.88;-1.0;-62.07;0.0;0.0;0.0;0.0;-55.0;-10.0;-29.0;4.0;-0.22;0.59;-10.67;0.6;0.41;0.71
1753880915.533299;7.315;6.773000000000001;-0.644;-2.88;-1.0;-62.07;0.0;0.0;0.0;0.0;-55.0;-10.0;-29.0;4.0;-0.22;0.59;-10.67;0.49;0.36;0.81
1753880915.5382988;7.315;6.773000000000001;-0.644;-2.88;-1.0;-62.07;0.0;0.0;0.0;0.0;-55.0;-10.0;-29.0;4.0;-0.22;0.58;-10.66;0.51;0.32;0.93
1753880915.543299;7.315;6.773000000000001;-0.644;-2.88;-1.0;-62.07;0.0;0.0;0.0;0.0;-55.0;-10.0;-29.0;4.0;-0.23;0.59;-10.67;0.51;0.26;0.98
1753880915.5482988;7.315;6.773000000000001;-0.644;-2.88;-1.0;-62.07;0.0;0.0;0.0;0.0;-55.0;-10.0;-29.0;4.0;-0.23;0.58;-10.67;0.5;0.39;0.87
1753880915.553299;7.315;6.773000000000001;-0.644;-2.88;-1.0;-62.07;0.0;0.0;0.0;0.0;-55.0;-10.0;-29.0;4.0;-0.23;0.58;-10.67;0.51;0.47;0.79
1753880915.5582988;7.315;6.773000000000001;-0.644;-2.88;-1.0;-62.07;0.0;0.0;0.0;0.0;-55.0;-10.0;-29.0;4.0;-0.24;0.58;-10.66;0.5;0.32;0.77
1753880915.563299;7.315;6.773000000000001;-0.644;-2.88;-1.0;-62.07;0.0;0.0;0.0;0.0;-55.0;-10.0;-29.0;4.0;-0.24;0.58;-10.66;0.5;0.28;1.04
1753880915.5682988;7.315;6.773000000000001;-0.644;-2.88;-1.0;-62.07;0.0;0.0;0.0;0.0;-55.0;-10.0;-29.0;4.0;-0.24;0.58;-10.66;0.64;0.31;0.96
1753880915.573299;7.315;6.773000000000001;-0.644;-2.88;-1.0;-62.07;0.0;0.0;0.0;0.0;-55.0;-10.0;-29.0;4.0;-0.24;0.58;-10.66;0.5;0.38;0.93
1753880915.578299;7.315;6.773000000000001;-0.644;-2.88;-1.0;-62.07;0.0;0.0;0.0;0.0;-55.0;-10.0;-29.0;4.0;-0.23;0.58;-10.65;0.52;0.31;0.87
1753880915.5832992;7.315;6.773000000000001;-0.644;-2.88;-1.0;-62.07;0.0;0.0;0.0;0.0;-55.0;-10.0;-29.0;4.0;-0.24;0.58;-10.65;0.64;0.29;0.88
1753880915.5882986;7.315;6.773000000000001;-0.644;-2.88;-1.0;-62.07;0.0;0.0;0.0;0.0;-55.0;-10.0;-29.0;4.0;-0.24;0.58;-10.65;0.54;0.26;0.9
1753880915.5932992;7.315;6.773000000000001;-0.644;-2.88;-1.0;-62.07;0.0;0.0;0.0;0.0;-55.0;-10.0;-29.0;4.0;-0.23;0.58;-10.65;0.59;0.25;0.94
1753880915.5982985;7.315;6.773000000000001;-0.644;-2.88;-1.0;-62.07;0.0;0.0;0.0;0.0;-55.0;-10.0;-29.0;4.0;-0.24;0.58;-10.65;0.57;0.23;0.91
1753880915.6032987;7.315;6.773000000000001;-0.644;-2.88;-1.0;-62.07;0.0;0.0;0.0;0.0;-55.0;-3.7;-29.0;7.5;-0.24;0.57;-10.65;0.61;0.21;1.09
1753880915.6082988;7.315;6.773000000000001;-0.644;-2.88;-1.0;-62.07;0.0;0.0;0.0;0.0;-55.0;-10.5;-28.6;4.4;-0.23;0.59;-10.67;0.52;0.3;0.96
1753880915.613299;7.315;6.773000000000001;-0.644;-2.89;-1.0;-62.07;0.0;0.0;0.0;0.0;-55.0;-8.3;-29.0;6.6;-0.24;0.58;-10.67;0.49;0.3;0.82
1753880915.618299;7.315;6.773000000000001;-0.644;-2.88;-1.0;-62.07;0.0;0.0;0.0;0.0;-55.0;-0.8;-28.6;5.3;-0.23;0.58;-10.66;0.57;0.36;0.81
1753880915.6232991;7.315;6.773000000000001;-0.644;-2.88;-1.0;-62.07;0.0;0.0;0.0;0.0;-55.0;-13.0;-29.3;4.6;-0.23;0.58;-10.65;0.46;0.32;0.94
1753880915.6282992;7.315;6.773000000000001;-0.644;-2.88;-1.0;-62.07;0.0;0.0;0.0;0.0;-55.0;-5.3;-28.1;4.4;-0.24;0.58;-10.65;0.57;0.31;0.95
1753880915.6332994;7.315;6.773000000000001;-0.644;-2.89;-1.0;-62.07;0.0;0.0;0.0;0.0;-55.0;-7.0;-28.7;6.3;-0.23;0.58;-10.65;0.62;0.26;0.84
1753880915.6382995;7.315;6.773000000000001;-0.644;-2.88;-1.0;-62.07;0.0;0.0;0.0;0.0;-55.0;-3.1;-28.5;7.1;-0.24;0.58;-10.67;0.54;0.35;0.88
1753880915.6432996;7.315;6.773000000000001;-0.644;-2.88;-1.0;-62.07;0.0;0.0;0.0;0.0;-55.0;-0.4;-29.1;6.3;-0.24;0.58;-10.65;0.56;0.29;0.99
1753880915.6482997;7.315;6.773000000000001;-0.644;-2.88;-1.0;-62.07;0.0;0.0;0.0;0.0;-55.0;1.6;-28.1;4.2;-0.21;0.58;-10.65;0.55;0.33;0.93
1753880915.6532998;7.315;6.773000000000001;-0.644;-2.88;-1.0;-62.07;0.0;0.0;0.0;0.0;-55.0;-1.8;-27.8;4.7;-0.22;0.58;-10.65;0.46;0.35;0.92
1753880915.6583;7.315;6.773000000000001;-0.644;-2.89;-1.0;-62.07;0.0;0.0;0.0;0.0;-55.0;-2.8;-27.6;10.3;-0.24;0.58;-10.65;0.6;0.28;0.97
1753880915.6633;7.315;6.773000000000001;-0.644;-2.88;-1.0;-62.07;0.0;0.0;0.0;0.0;-55.0;5.2;-27.8;10.2;-0.23;0.58;-10.65;0.48;0.54;0.79
1753880915.6683002;7.315;6.773000000000001;-0.644;-2.88;-1.0;-62.07;0.0;0.0;0.0;0.0;-55.0;0.3;-27.6;9.8;-0.22;0.57;-10.66;0.62;0.43;0.94
1753880915.6733003;7.315;6.773000000000001;-0.644;-2.89;-1.0;-62.07;0.0;0.0;0.0;0.0;-55.0;3.7;-27.2;12.0;-0.23;0.59;-10.64;0.61;0.41;0.77
1753880915.6783004;7.315;6.773000000000001;-0.644;-2.89;-1.0;-62.07;0.0;0.0;0.0;0.0;-55.0;-4.1;-27.4;5.5;-0.22;0.59;-10.64;0.61;0.26;0.9
1753880915.6833005;7.315;6.773000000000001;-0.644;-2.89;-1.0;-62.07;0.0;0.0;0.0;0.0;-55.0;4.5;-28.3;8.0;-0.2;0.58;-10.64;0.57;0.33;0.95
1753880915.6883006;7.315;6.773000000000001;-0.644;-2.89;-1.0;-62.07;0.0;0.0;0.0;0.0;-55.0;8.3;-27.2;9.2;-0.22;0.58;-10.63;0.52;0.43;0.82
1753880915.6933007;7.315;6.773000000000001;-0.644;-2.89;-1.0;-62.07;0.0;0.0;0.0;0.0;-55.0;2.6;-26.8;8.6;-0.21;0.58;-10.64;0.56;0.34;0.74
1753880915.6983008;7.315;6.773000000000001;-0.644;-2.88;-1.0;-62.07;0.0;0.0;0.0;0.0;-55.0;7.8;-28.0;12.1;-0.22;0.57;-10.66;0.53;0.37;0.89
1753880915.703301;7.315;6.773000000000001;-0.644;-2.89;-1.0;-62.07;0.0;0.0;0.0;0.0;-55.0;15.5;-27.6;10.1;-0.24;0.58;-10.63;0.57;0.43;0.87
1753880915.708301;7.315;6.773000000000001;-0.644;-2.89;-1.0;-62.07;0.0;0.0;0.0;0.0;-55.0;8.8;-26.9;9.9;-0.21;0.58;-10.66;0.52;0.37;1.02
1753880915.7133012;7.315;6.773000000000001;-0.644;-2.88;-1.0;-62.07;0.0;0.0;0.0;0.0;-55.0;9.8;-26.9;11.6;-0.21;0.58;-10.63;0.46;0.39;0.88
1753880915.7182992;7.315;6.773000000000001;-0.644;-2.89;-1.0;-62.07;0.0;0.0;0.0;0.0;-55.0;9.0;-27.0;11.0;-0.21;0.58;-10.65;0.54;0.45;0.87
1753880915.7232985;7.315;6.773000000000001;-0.644;-2.89;-1.0;-62.07;0.0;0.0;0.0;0.0;-55.0;9.0;-27.0;11.0;-0.21;0.58;-10.65;0.74;0.25;0.85
1753880915.7282991;7.315;6.773000000000001;-0.644;-2.89;-1.0;-62.07;0.0;0.0;0.0;0.0;-55.0;9.0;-27.0;11.0;-0.21;0.58;-10.65;0.61;0.42;0.86
1753880915.7332985;7.315;6.773000000000001;-0.644;-2.89;-1.0;-62.07;0.0;0.0;0.0;0.0;-55.0;9.0;-27.0;11.0;-0.21;0.58;-10.65;0.6;0.45;0.88
1753880915.738299;7.315;6.773000000000001;-0.644;-2.89;-1.0;-62.07;0.0;0.0;0.0;0.0;-55.0;9.0;-27.0;11.0;-0.21;0.58;-10.65;0.55;0.39;0.83
1753880915.7432985;7.315;6.773000000000001;-0.644;-2.89;-1.0;-62.07;0.0;0.0;0.0;0.0;-55.0;9.0;-27.0;11.0;-0.21;0.58;-10.65;0.51;0.28;1.02
1753880915.748299;7.315;6.773000000000001;-0.644;-2.89;-1.0;-62.07;0.0;0.0;0.0;0.0;-55.0;9.0;-27.0;11.0;-0.22;0.58;-10.65;0.58;0.32;0.85
1753880915.7532988;7.315;6.773000000000001;-0.644;-2.89;-1.0;-62.07;0.0;0.0;0.0;0.0;-55.0;9.0;-27.0;11.0;-0.22;0.58;-10.65;0.45;0.23;0.83
1753880915.7582989;7.315;6.773000000000001;-0.644;-2.88;-1.0;-62.07;0.0;0.0;0.0;0.0;-55.0;11.4;-27.3;5.9;-0.22;0.58;-10.64;0.63;0.4;0.97
1753880915.7632987;7.315;6.773000000000001;-0.644;-2.89;-1.0;-62.07;0.0;0.0;0.0;0.0;-55.0;9.0;-27.0;11.0;-0.22;0.58;-10.64;0.64;0.26;0.99
1753880915.7682989;7.315;6.773000000000001;-0.644;-2.89;-1.0;-62.07;0.0;0.0;0.0;0.0;-55.0;9.0;-27.0;11.0;-0.22;0.58;-10.65;0.66;0.44;0.88
1753880915.773299;7.315;6.773000000000001;-0.644;-2.89;-1.0;-62.07;0.0;0.0;0.0;0.0;-55.0;20.2;-27.6;9.8;-0.21;0.58;-10.65;0.52;0.46;0.88
1753880915.7782989;7.315;6.773000000000001;-0.644;-2.89;-1.0;-62.07;0.0;0.0;0.0;0.0;-55.0;9.0;-27.0;11.0;-0.22;0.58;-10.65;0.44;0.28;0.87
1753880915.783299;7.315;6.773000000000001;-0.644;-2.89;-1.0;-62.07;0.0;0.0;0.0;0.0;-55.0;9.0;-27.0;11.0;-0.22;0.59;-10.65;0.46;0.24;0.91
1753880915.7882988;7.315;6.773000000000001;-0.644;-2.89;-1.0;-62.07;0.0;0.0;0.0;0.0;-55.0;9.0;-27.0;11.0;-0.22;0.59;-10.65;0.6;0.31;0.88
1753880915.793299;7.315;6.773000000000001;-0.644;-2.89;-1.0;-62.07;0.0;0.0;0.0;0.0;-55.0;9.0;-27.0;11.0;-0.22;0.59;-10.64;0.61;0.35;0.86
1753880915.7982988;7.315;6.773000000000001;-0.644;-2.89;-1.0;-62.07;0.0;0.0;0.0;0.0;-55.0;9.0;-27.0;11.0;-0.22;0.59;-10.65;0.57;0.41;0.96
1753880915.803299;7.315;6.773000000000001;-0.644;-2.89;-1.0;-62.07;0.0;0.0;0.0;0.0;-55.0;9.0;-27.0;11.0;-0.22;0.59;-10.64;0.58;0.25;0.96
1753880915.8082988;7.315;6.773000000000001;-0.644;-2.89;-1.0;-62.07;0.0;0.0;0.0;0.0;-55.0;9.0;-27.0;11.0;-0.22;0.59;-10.64;0.57;0.27;0.82
1753880915.813299;7.315;6.773000000000001;-0.644;-2.89;-1.0;-62.07;0.0;0.0;0.0;0.0;-55.0;9.0;-27.0;11.0;-0.21;0.59;-10.64;0.54;0.13;1.03
1753880915.8182988;7.315;6.773000000000001;-0.644;-2.89;-1.0;-62.07;0.0;0.0;0.0;0.0;-55.0;9.0;-27.0;11.0;-0.2;0.59;-10.65;0.54;0.36;0.84
1753880915.823299;7.315;6.773000000000001;-0.644;-2.89;-1.0;-62.07;0.0;0.0;0.0;0.0;-55.0;9.0;-27.0;11.0;-0.21;0.59;-10.64;0.61;0.26;0.92
1753880915.8282988;7.315;6.773000000000001;-0.644;-2.89;-1.0;-62.07;0.0;0.0;0.0;0.0;-55.0;9.0;-27.0;11.0;-0.21;0.58;-10.65;0.52;0.24;0.91
1753880915.8332992;7.315;6.773000000000001;-0.644;-2.89;-1.0;-62.07;0.0;0.0;0.0;0.0;-55.0;9.0;-27.0;11.0;-0.2;0.59;-10.64;0.54;0.3;0.91
1753880915.8382986;7.315;6.773000000000001;-0.644;-2.89;-1.0;-62.07;0.0;0.0;0.0;0.0;-55.0;9.0;-27.0;11.0;-0.2;0.58;-10.65;0.65;0.17;0.9
1753880915.8432987;7.315;6.773000000000001;-0.644;-2.89;-1.0;-62.07;0.0;0.0;0.0;0.0;-55.0;9.0;-27.0;11.0;-0.2;0.58;-10.65;0.6;0.31;0.91
1753880915.8482988;7.315;6.773000000000001;-0.644;-2.89;-1.0;-62.07;0.0;0.0;0.0;0.0;-55.0;9.0;-27.0;11.0;-0.2;0.59;-10.64;0.66;0.03;0.92
1753880915.853299;7.315;6.773000000000001;-0.644;-2.89;-1.0;-62.07;0.0;0.0;0.0;0.0;-55.0;9.0;-27.0;11.0;-0.22;0.58;-10.65;0.61;0.17;0.84
1753880915.858299;7.315;6.773000000000001;-0.644;-2.89;-1.0;-62.07;0.0;0.0;0.0;0.0;-55.0;9.0;-27.0;11.0;-0.2;0.58;-10.66;0.72;0.24;0.92
1753880915.8632991;7.315;6.773000000000001;-0.644;-2.89;-1.0;-62.07;0.0;0.0;0.0;0.0;-55.0;9.0;-27.0;11.0;-0.21;0.58;-10.65;0.62;0.29;0.96
1753880915.8682992;7.315;6.773000000000001;-0.644;-2.89;-1.0;-62.07;0.0;0.0;0.0;0.0;-55.0;9.0;-27.0;11.0;-0.2;0.59;-10.65;0.59;0.35;0.87
1753880915.8732994;7.315;6.773000000000001;-0.644;-2.89;-1.0;-62.07;0.0;0.0;0.0;0.0;-55.0;9.0;-27.0;11.0;-0.2;0.59;-10.65;0.74;0.29;0.85
1753880915.8782995;7.315;6.773000000000001;-0.644;-2.89;-1.0;-62.07;0.0;0.0;0.0;0.0;-55.0;9.0;-27.0;11.0;-0.2;0.59;-10.66;0.66;0.14;0.8
1753880915.8832996;7.315;6.773000000000001;-0.644;-2.89;-1.0;-62.07;0.0;0.0;0.0;0.0;-55.0;9.0;-27.0;11.0;-0.19;0.6;-10.66;0.72;0.35;0.87
1753880915.8882997;7.315;6.773000000000001;-0.644;-2.89;-1.0;-62.07;0.0;0.0;0.0;0.0;-55.0;9.0;-27.0;11.0;-0.2;0.59;-10.66;0.58;0.43;0.92
1753880915.8932998;7.315;6.773000000000001;-0.644;-2.89;-1.0;-62.07;0.0;0.0;0.0;0.0;-55.0;9.0;-27.0;11.0;-0.21;0.59;-10.66;0.58;0.36;0.81
1753880915.8983;7.315;6.773000000000001;-0.644;-2.89;-1.0;-62.07;0.0;0.0;0.0;0.0;-55.0;9.0;-27.0;11.0;-0.19;0.59;-10.66;0.54;0.42;0.91
1753880915.9032989;7.315;6.773000000000001;-0.644;-2.89;-1.0;-62.07;0.0;0.0;0.0;0.0;-55.0;9.0;-27.0;11.0;-0.2;0.59;-10.66;0.64;0.39;0.95
1753880915.908299;7.315;6.773000000000001;-0.644;-2.89;-1.0;-62.07;0.0;0.0;0.0;0.0;-55.0;9.0;-27.0;11.0;-0.2;0.59;-10.65;0.6;0.29;0.83
1753880915.9132988;7.315;6.773000000000001;-0.644;-2.89;-1.0;-62.07;0.0;0.0;0.0;0.0;-55.0;9.0;-27.0;11.0;-0.2;0.59;-10.65;0.7;0.33;0.83
1753880915.918299;7.315;6.773000000000001;-0.644;-2.89;-1.0;-62.07;0.0;0.0;0.0;0.0;-55.0;9.0;-27.0;11.0;-0.21;0.59;-10.65;0.67;0.32;0.84
1753880915.9232988;7.315;6.773000000000001;-0.644;-2.89;-1.0;-62.07;0.0;0.0;0.0;0.0;-55.0;9.0;-27.0;11.0;-0.21;0.58;-10.65;0.6;0.21;1.02
1753880915.928299;7.315;6.773000000000001;-0.644;-2.89;-1.0;-62.07;0.0;0.0;0.0;0.0;-55.0;9.0;-27.0;11.0;-0.21;0.58;-10.64;0.57;0.28;0.98
1753880915.933299;7.315;6.773000000000001;-0.644;-2.89;-1.0;-62.07;0.0;0.0;0.0;0.0;-55.0;9.0;-27.0;11.0;-0.21;0.58;-10.64;0.55;0.22;1.0
1753880915.9382992;7.315;6.773000000000001;-0.644;-2.89;-1.0;-62.07;0.0;0.0;0.0;0.0;-55.0;9.0;-27.0;11.0;-0.2;0.58;-10.64;0.69;0.35;0.99
1753880915.9432993;7.315;6.773000000000001;-0.644;-2.89;-1.0;-62.07;0.0;0.0;0.0;0.0;-55.0;9.0;-27.0;11.0;-0.22;0.59;-10.64;0.64;0.27;1.07
1753880915.9482994;7.315;6.773000000000001;-0.644;-2.89;-1.0;-62.07;0.0;0.0;0.0;0.0;-55.0;9.0;-27.0;11.0;-0.21;0.57;-10.65;0.49;0.12;1.03
1753880915.9532995;7.315;6.773000000000001;-0.644;-2.89;-1.0;-62.07;0.0;0.0;0.0;0.0;-55.0;9.0;-27.0;11.0;-0.22;0.59;-10.65;0.5;0.27;1.01
1753880915.9582996;7.315;6.773000000000001;-0.644;-2.89;-1.0;-62.07;0.0;0.0;0.0;0.0;-55.0;9.0;-27.0;11.0;-0.2;0.58;-10.64;0.49;0.34;1.11
1753880915.9632998;7.315;6.773000000000001;-0.644;-2.89;-1.0;-62.07;0.0;0.0;0.0;0.0;-55.0;9.0;-27.0;11.0;-0.21;0.58;-10.63;0.64;0.3;0.98
1753880915.9682999;7.315;6.773000000000001;-0.644;-2.89;-1.0;-62.07;0.0;0.0;0.0;0.0;-55.0;9.0;-27.0;11.0;-0.22;0.58;-10.65;0.62;0.16;0.9
1753880915.9733;7.315;6.773000000000001;-0.644;-2.89;-1.0;-62.07;0.0;0.0;0.0;0.0;-55.0;9.0;-27.0;11.0;-0.2;0.59;-10.64;0.61;0.23;0.92
1753880915.9783;7.315;6.773000000000001;-0.644;-2.89;-1.0;-62.07;0.0;0.0;0.0;0.0;-55.0;9.0;-27.0;11.0;-0.21;0.59;-10.63;0.58;0.32;0.93
1753880915.9833002;7.315;6.773000000000001;-0.644;-2.89;-1.0;-62.07;0.0;0.0;0.0;0.0;-55.0;9.0;-27.0;11.0;-0.21;0.58;-10.64;0.59;0.15;1.03
1753880915.9883003;7.315;6.773000000000001;-0.644;-2.89;-1.0;-62.07;0.0;0.0;0.0;0.0;-55.0;9.0;-27.0;11.0;-0.22;0.59;-10.65;0.58;0.24;1.03
1753880915.9933004;7.315;6.773000000000001;-0.644;-2.89;-1.0;-62.07;0.0;0.0;0.0;0.0;-55.0;9.0;-27.0;11.0;-0.21;0.59;-10.62;0.62;0.27;0.81
1753880915.9983006;7.315;6.773000000000001;-0.644;-2.89;-1.0;-62.07;0.0;0.0;0.0;0.0;-55.0;9.0;-27.0;11.0;-0.22;0.59;-10.64;0.57;0.16;0.99
1753880916.0033007;7.315;6.773000000000001;-0.644;-2.89;-1.0;-62.07;0.0;0.0;0.0;0.0;-55.0;9.0;-27.0;11.0;-0.2;0.58;-10.64;0.56;0.18;0.88
1753880916.0083008;7.315;6.773000000000001;-0.644;-2.89;-1.0;-62.07;0.0;0.0;0.0;0.0;-55.0;9.0;-27.0;11.0;-0.2;0.58;-10.64;0.61;0.3;1.0
1753880916.013301;7.315;6.773000000000001;-0.644;-2.89;-1.0;-62.07;0.0;0.0;0.0;0.0;-55.0;9.0;-27.0;11.0;-0.2;0.58;-10.64;0.56;0.23;0.87
1753880916.018301;7.315;6.773000000000001;-0.644;-2.89;-1.0;-62.07;0.0;0.0;0.0;0.0;-55.0;9.0;-27.0;11.0;-0.22;0.58;-10.63;0.58;0.4;0.9
1753880916.0233011;7.315;6.773000000000001;-0.644;-2.89;-1.0;-62.07;0.0;0.0;0.0;0.0;-55.0;9.0;-27.0;11.0;-0.2;0.59;-10.65;0.74;0.17;0.96
1753880916.0283012;7.315;6.773000000000001;-0.644;-2.89;-1.0;-62.07;0.0;0.0;0.0;0.0;-55.0;9.0;-27.0;11.0;-0.21;0.59;-10.64;0.69;0.17;0.97
1753880916.0333014;7.315;6.773000000000001;-0.644;-2.89;-1.0;-62.07;0.0;0.0;0.0;0.0;-55.0;9.0;-27.0;11.0;-0.21;0.59;-10.65;0.43;0.27;0.93
1753880916.0383015;7.315;6.773000000000001;-0.644;-2.89;-1.0;-62.07;0.0;0.0;0.0;0.0;-55.0;9.0;-27.0;11.0;-0.21;0.58;-10.63;0.73;0.26;0.98
1753880916.0433016;7.315;6.773000000000001;-0.644;-2.89;-1.0;-62.07;0.0;0.0;0.0;0.0;-55.0;9.0;-27.0;11.0;-0.22;0.58;-10.64;0.59;0.25;0.98
1753880916.0483017;7.315;6.773000000000001;-0.644;-2.89;-1.0;-62.07;0.0;0.0;0.0;0.0;-55.0;9.0;-27.0;11.0;-0.22;0.59;-10.65;0.64;0.27;0.96
1753880916.0533018;7.315;6.773000000000001;-0.644;-2.89;-1.0;-62.07;0.0;0.0;0.0;0.0;-55.0;9.0;-27.0;11.0;-0.21;0.6;-10.64;0.63;0.27;1.01
1753880916.058302;7.315;6.773000000000001;-0.644;-2.89;-1.0;-62.07;0.0;0.0;0.0;0.0;-55.0;9.0;-27.0;11.0;-0.21;0.58;-10.64;0.67;0.25;0.93
1753880916.063302;7.315;6.773000000000001;-0.644;-2.89;-1.0;-62.07;0.0;0.0;0.0;0.0;-55.0;9.0;-27.0;11.0;-0.2;0.59;-10.63;0.56;0.22;0.87
1753880916.0683022;7.315;6.773000000000001;-0.644;-2.89;-1.0;-62.07;0.0;0.0;0.0;0.0;-55.0;9.0;-27.0;11.0;-0.22;0.59;-10.63;0.68;0.4;0.93
1753880916.0733023;7.315;6.773000000000001;-0.644;-2.89;-1.0;-62.07;0.0;0.0;0.0;0.0;-55.0;9.0;-27.0;11.0;-0.21;0.59;-10.63;0.67;0.18;0.91
1753880916.0783024;7.315;6.773000000000001;-0.644;-2.89;-1.0;-62.07;0.0;0.0;0.0;0.0;-55.0;9.0;-27.0;11.0;-0.22;0.59;-10.64;0.75;0.28;0.9
1753880916.0833025;7.315;6.773000000000001;-0.644;-2.89;-1.0;-62.07;0.0;0.0;0.0;0.0;-55.0;9.0;-27.0;11.0;-0.21;0.59;-10.65;0.63;0.44;0.95
1753880916.0883026;7.315;6.773000000000001;-0.644;-2.89;-1.0;-62.07;0.0;0.0;0.0;0.0;-55.0;9.0;-27.0;11.0;-0.23;0.59;-10.65;0.6;0.29;0.9
1753880916.0933027;7.315;6.773000000000001;-0.644;-2.89;-1.0;-62.07;0.0;0.0;0.0;0.0;-55.0;9.0;-27.0;11.0;-0.2;0.59;-10.64;0.53;0.19;0.88
1753880916.0983028;7.315;6.773000000000001;-0.644;-2.89;-1.0;-62.07;0.0;0.0;0.0;0.0;-55.0;9.0;-27.0;11.0;-0.21;0.59;-10.63;0.51;0.27;0.86
1753880916.1032991;7.315;6.773000000000001;-0.644;-2.89;-1.0;-62.07;0.0;0.0;0.0;0.0;-55.0;9.0;-27.0;11.0;-0.21;0.59;-10.64;0.67;0.24;0.9
1753880916.1082985;7.315;6.773000000000001;-0.644;-2.89;-1.0;-62.07;0.0;0.0;0.0;0.0;-55.0;9.0;-27.0;11.0;-0.22;0.59;-10.64;0.62;0.19;0.8
1753880916.113299;7.315;6.773000000000001;-0.644;-2.89;-1.0;-62.07;0.0;0.0;0.0;0.0;-55.0;9.0;-27.0;11.0;-0.22;0.59;-10.65;0.58;0.34;0.88
1753880916.1182985;7.315;6.773000000000001;-0.644;-2.89;-1.0;-62.07;0.0;0.0;0.0;0.0;-55.0;9.0;-27.0;11.0;-0.22;0.59;-10.65;0.58;0.41;0.85
1753880916.1232986;7.315;6.773000000000001;-0.644;-2.89;-1.0;-62.07;0.0;0.0;0.0;0.0;-55.0;9.0;-27.0;11.0;-0.21;0.58;-10.66;0.5;0.47;0.92
1753880916.1282988;7.315;6.773000000000001;-0.644;-2.89;-1.0;-62.07;0.0;0.0;0.0;0.0;-55.0;9.0;-27.0;11.0;-0.22;0.59;-10.66;0.63;0.44;0.98
1753880916.1332989;7.315;6.773000000000001;-0.644;-2.89;-1.0;-62.07;0.0;0.0;0.0;0.0;-55.0;9.0;-27.0;11.0;-0.21;0.58;-10.65;0.56;0.48;1.02
1753880916.1382987;7.315;6.773000000000001;-0.644;-2.89;-1.0;-62.07;0.0;0.0;0.0;0.0;-55.0;9.0;-27.0;11.0;-0.22;0.58;-10.65;0.55;0.16;0.65
1753880916.1432989;7.315;6.773000000000001;-0.644;-2.89;-1.0;-62.07;0.0;0.0;0.0;0.0;-55.0;9.0;-27.0;11.0;-0.22;0.58;-10.65;0.66;0.3;0.99
1753880916.1482987;7.315;6.773000000000001;-0.644;-2.89;-1.0;-62.07;0.0;0.0;0.0;0.0;-55.0;9.0;-27.0;11.0;-0.22;0.58;-10.64;0.67;0.35;0.94
1753880916.1532989;7.315;6.773000000000001;-0.644;-2.89;-1.0;-62.07;0.0;0.0;0.0;0.0;-55.0;9.0;-27.0;11.0;-0.22;0.58;-10.64;0.7;0.32;0.99
1753880916.158299;7.315;6.773000000000001;-0.644;-2.89;-1.0;-62.07;0.0;0.0;0.0;0.0;-55.0;9.0;-27.0;11.0;-0.22;0.58;-10.64;0.69;0.34;0.93
1753880916.1632988;7.315;6.773000000000001;-0.644;-2.89;-1.0;-62.07;0.0;0.0;0.0;0.0;-55.0;9.0;-27.0;11.0;-0.22;0.58;-10.64;0.64;0.45;0.88
1753880916.168299;7.315;6.773000000000001;-0.644;-2.89;-1.0;-62.07;0.0;0.0;0.0;0.0;-55.0;9.0;-27.0;11.0;-0.22;0.58;-10.64;0.56;0.08;0.85
1753880916.1732988;7.315;6.773000000000001;-0.644;-2.89;-1.0;-62.07;0.0;0.0;0.0;0.0;-55.0;9.0;-27.0;11.0;-0.22;0.58;-10.64;0.66;0.28;0.91
1753880916.178299;7.315;6.773000000000001;-0.644;-2.89;-1.0;-62.07;0.0;0.0;0.0;0.0;-55.0;9.0;-27.0;11.0;-0.23;0.58;-10.64;0.67;0.19;0.89
1753880916.1832988;7.315;6.773000000000001;-0.644;-2.89;-1.0;-62.07;0.0;0.0;0.0;0.0;-55.0;9.0;-27.0;11.0;-0.23;0.58;-10.64;0.68;0.35;0.96
1753880916.188299;7.315;6.773000000000001;-0.644;-2.89;-1.0;-62.07;0.0;0.0;0.0;0.0;-55.0;9.0;-27.0;11.0;-0.22;0.58;-10.65;0.56;0.38;0.9
1753880916.1932988;7.315;6.773000000000001;-0.644;-2.89;-1.0;-62.07;0.0;0.0;0.0;0.0;-55.0;9.0;-27.0;11.0;-0.22;0.58;-10.65;0.53;0.35;0.87
1753880916.198299;7.315;6.773000000000001;-0.644;-2.89;-1.0;-62.07;0.0;0.0;0.0;0.0;-55.0;9.0;-27.0;11.0;-0.22;0.58;-10.65;0.7;0.37;0.83
1753880916.2032988;7.315;6.773000000000001;-0.644;-2.89;-1.0;-62.07;0.0;0.0;0.0;0.0;-55.0;9.0;-27.0;11.0;-0.22;0.58;-10.65;0.57;0.32;0.77
1753880916.2082992;7.315;6.773000000000001;-0.644;-2.89;-1.0;-62.07;0.0;0.0;0.0;0.0;-55.0;9.0;-27.0;11.0;-0.21;0.58;-10.65;0.65;0.23;0.83
1753880916.2132986;7.315;6.773000000000001;-0.644;-2.89;-1.0;-62.07;0.0;0.0;0.0;0.0;-55.0;9.0;-27.0;11.0;-0.22;0.58;-10.65;0.67;0.21;1.03
1753880916.2182992;7.315;6.773000000000001;-0.644;-2.89;-1.0;-62.07;0.0;0.0;0.0;0.0;-55.0;9.0;-27.0;11.0;-0.22;0.59;-10.65;0.63;0.27;0.96
1753880916.2232985;7.315;6.773000000000001;-0.644;-2.89;-1.0;-62.07;0.0;0.0;0.0;0.0;-55.0;9.0;-27.0;11.0;-0.21;0.59;-10.65;0.68;0.28;0.83
1753880916.2282991;7.315;6.773000000000001;-0.644;-2.89;-1.0;-62.07;0.0;0.0;0.0;0.0;-55.0;9.0;-27.0;11.0;-0.21;0.59;-10.64;0.49;0.35;0.88
1753880916.2332985;7.315;6.773000000000001;-0.644;-2.89;-1.0;-62.07;0.0;0.0;0.0;0.0;-55.0;9.0;-27.0;11.0;-0.22;0.59;-10.64;0.59;0.46;0.74
1753880916.238299;7.315;6.773000000000001;-0.644;-2.89;-1.0;-62.07;0.0;0.0;0.0;0.0;-55.0;9.0;-27.0;11.0;-0.21;0.59;-10.64;0.56;0.25;0.99
1753880916.2432985;7.315;6.773000000000001;-0.644;-2.89;-1.0;-62.07;0.0;0.0;0.0;0.0;-55.0;9.0;-27.0;11.0;-0.21;0.59;-10.63;0.55;0.35;0.94
1753880916.248299;7.315;6.773000000000001;-0.644;-2.89;-1.0;-62.07;0.0;0.0;0.0;0.0;-55.0;9.0;-27.0;11.0;-0.21;0.59;-10.63;0.59;0.35;0.93
1753880916.2532988;7.315;6.773000000000001;-0.644;-2.89;-1.0;-62.07;0.0;0.0;0.0;0.0;-55.0;9.0;-27.0;11.0;-0.21;0.59;-10.64;0.61;0.21;0.87
1753880916.2582989;7.315;6.773000000000001;-0.644;-2.89;-1.0;-62.07;0.0;0.0;0.0;0.0;-55.0;9.0;-27.0;11.0;-0.21;0.58;-10.64;0.64;0.41;0.95
1753880916.2632987;7.315;6.773000000000001;-0.644;-2.89;-1.0;-62.07;0.0;0.0;0.0;0.0;-55.0;9.0;-27.0;11.0;-0.22;0.58;-10.63;0.56;0.19;0.93
1753880916.2682989;7.315;6.773000000000001;-0.644;-2.89;-1.0;-62.07;0.0;0.0;0.0;0.0;-55.0;9.0;-27.0;11.0;-0.22;0.58;-10.63;0.6;0.46;1.17
1753880916.2732987;7.315;6.773000000000001;-0.644;-2.89;-1.0;-62.07;0.0;0.0;0.0;0.0;-55.0;9.0;-27.0;11.0;-0.22;0.58;-10.64;0.58;0.29;0.9
1753880916.2782989;7.315;6.773000000000001;-0.644;-2.89;-1.0;-62.07;0.0;0.0;0.0;0.0;-55.0;9.0;-27.0;11.0;-0.21;0.58;-10.64;0.61;0.29;0.93
1753880916.283299;7.315;6.773000000000001;-0.644;-2.89;-1.0;-62.07;0.0;0.0;0.0;0.0;-55.0;9.0;-27.0;11.0;-0.21;0.58;-10.64;0.61;0.33;1.02
1753880916.288299;7.315;6.773000000000001;-0.644;-2.89;-1.0;-62.07;0.0;0.0;0.0;0.0;-55.0;9.0;-27.0;11.0;-0.2;0.59;-10.63;0.59;0.39;0.93
1753880916.2932992;7.315;6.773000000000001;-0.644;-2.89;-1.0;-62.07;0.0;0.0;0.0;0.0;-55.0;9.0;-27.0;11.0;-0.21;0.6;-10.65;0.65;0.32;1.07
1753880916.2982988;7.315;6.773000000000001;-0.644;-2.89;-1.0;-62.07;0.0;0.0;0.0;0.0;-55.0;9.0;-27.0;11.0;-0.21;0.59;-10.65;0.61;0.4;0.95
1753880916.303299;7.315;6.773000000000001;-0.644;-2.89;-1.0;-62.07;0.0;0.0;0.0;0.0;-55.0;9.0;-27.0;11.0;-0.21;0.59;-10.66;0.61;0.34;0.81
1753880916.308299;7.315;6.773000000000001;-0.644;-2.89;-1.0;-62.07;0.0;0.0;0.0;0.0;-55.0;9.0;-27.0;11.0;-0.21;0.59;-10.65;0.58;0.44;1.1
1753880916.3132992;7.315;6.773000000000001;-0.644;-2.89;-1.0;-62.07;0.0;0.0;0.0;0.0;-55.0;9.0;-27.0;11.0;-0.21;0.58;-10.66;0.62;0.4;0.98
1753880916.3182993;7.315;6.773000000000001;-0.644;-2.89;-1.0;-62.07;0.0;0.0;0.0;0.0;-55.0;9.0;-27.0;11.0;-0.2;0.59;-10.66;0.58;0.42;0.8
1753880916.3232994;7.315;6.773000000000001;-0.644;-2.89;-1.0;-62.07;0.0;0.0;0.0;0.0;-55.0;9.0;-27.0;11.0;-0.21;0.59;-10.67;0.53;0.39;1.01
1753880916.3282995;7.315;6.773000000000001;-0.644;-2.89;-1.0;-62.07;0.0;0.0;0.0;0.0;-55.0;9.0;-27.0;11.0;-0.21;0.59;-10.66;0.62;0.37;0.95
1753880916.3332996;7.315;6.773000000000001;-0.644;-2.89;-1.0;-62.07;0.0;0.0;0.0;0.0;-55.0;9.0;-27.0;11.0;-0.22;0.59;-10.65;0.54;0.43;0.83
1753880916.3382998;7.315;6.773000000000001;-0.644;-2.89;-1.0;-62.07;0.0;0.0;0.0;0.0;-55.0;9.0;-27.0;11.0;-0.22;0.59;-10.64;0.6;0.57;0.97
1753880916.3432999;7.315;6.773000000000001;-0.644;-2.89;-1.0;-62.07;0.0;0.0;0.0;0.0;-55.0;9.0;-27.0;11.0;-0.22;0.59;-10.64;0.52;0.51;0.97
1753880916.3483;7.315;6.773000000000001;-0.644;-2.89;-1.0;-62.07;0.0;0.0;0.0;0.0;-55.0;9.0;-27.0;11.0;-0.22;0.59;-10.64;0.55;0.37;1.05
1753880916.3533;7.315;6.773000000000001;-0.644;-2.89;-1.0;-62.07;0.0;0.0;0.0;0.0;-55.0;9.0;-27.0;11.0;-0.21;0.59;-10.63;0.5;0.4;0.99
1753880916.3582985;7.315;6.773000000000001;-0.644;-2.89;-1.0;-62.07;0.0;0.0;0.0;0.0;-55.0;9.0;-27.0;11.0;-0.21;0.59;-10.64;0.51;0.39;0.95
1753880916.3632987;7.315;6.773000000000001;-0.644;-2.89;-1.0;-62.07;0.0;0.0;0.0;0.0;-55.1;11.1;-27.0;11.4;-0.21;0.59;-10.64;0.51;0.45;0.89
1753880916.3682988;7.315;6.773000000000001;-0.644;-2.89;-1.0;-62.07;0.0;0.0;0.0;0.0;-55.4;7.5;-27.2;10.9;-0.22;0.6;-10.64;0.45;0.38;0.83
1753880916.373299;7.315;6.773000000000001;-0.644;-2.89;-1.0;-62.07;0.0;0.0;0.0;0.0;-55.1;10.5;-27.1;11.0;-0.21;0.59;-10.65;0.44;0.41;1.11
1753880916.378299;7.315;6.773000000000001;-0.644;-2.89;-1.0;-62.07;0.0;0.0;0.0;0.0;-55.2;9.2;-26.8;9.7;-0.2;0.58;-10.62;0.53;0.42;0.98
1753880916.383299;7.315;6.773000000000001;-0.644;-2.88;-1.0;-62.07;0.0;0.0;0.0;0.0;-55.2;10.2;-26.6;8.2;-0.2;0.6;-10.64;0.53;0.4;0.72
1753880916.3882992;7.315;6.773000000000001;-0.644;-2.89;-1.0;-62.07;0.0;0.0;0.0;0.0;-55.3;8.3;-26.4;10.1;-0.2;0.58;-10.64;0.51;0.42;0.86
1753880916.3932993;7.315;6.773000000000001;-0.644;-2.89;-1.0;-62.07;0.0;0.0;0.0;0.0;-55.5;9.7;-27.0;9.0;-0.21;0.59;-10.63;0.61;0.37;0.68
1753880916.3982995;7.315;6.773000000000001;-0.644;-2.89;-1.0;-62.07;0.0;0.0;0.0;0.0;-55.9;10.0;-26.2;9.5;-0.21;0.59;-10.64;0.62;0.34;1.04
1753880916.4032996;7.315;6.773000000000001;-0.644;-2.89;-1.0;-62.07;0.0;0.0;0.0;0.0;-55.9;10.6;-26.3;9.2;-0.21;0.59;-10.63;0.52;0.35;0.83
1753880916.4082997;7.315;6.773000000000001;-0.644;-2.89;-1.0;-62.07;0.0;0.0;0.0;0.0;-55.4;13.1;-26.3;7.9;-0.21;0.58;-10.65;0.6;0.39;0.92
1753880916.4132998;7.315;6.773000000000001;-0.644;-2.89;-1.0;-62.07;0.0;0.0;0.0;0.0;-55.4;11.3;-26.4;6.6;-0.21;0.59;-10.65;0.64;0.38;0.99
1753880916.4183;7.315;6.773000000000001;-0.644;-2.88;-1.0;-62.07;0.0;0.0;0.0;0.0;-55.5;12.9;-26.6;9.5;-0.21;0.58;-10.65;0.61;0.43;0.83
1753880916.4233;7.315;6.773000000000001;-0.644;-2.88;-1.0;-62.07;0.0;0.0;0.0;0.0;-56.1;13.1;-26.7;5.1;-0.21;0.58;-10.61;0.56;0.46;1.01
1753880916.4283001;7.315;6.773000000000001;-0.644;-2.89;-1.0;-62.07;0.0;0.0;0.0;0.0;-56.0;13.7;-26.3;5.2;-0.21;0.59;-10.65;0.68;0.26;0.79
1753880916.4333003;7.315;6.773000000000001;-0.644;-2.88;-1.0;-62.07;0.0;0.0;0.0;0.0;-55.9;13.4;-26.1;9.2;-0.21;0.58;-10.63;0.58;0.4;0.85
1753880916.4383004;7.315;6.773000000000001;-0.644;-2.88;-1.0;-62.07;0.0;0.0;0.0;0.0;-55.7;12.8;-26.0;7.2;-0.21;0.58;-10.65;0.54;0.35;0.89
1753880916.4433005;7.315;6.773000000000001;-0.644;-2.88;-1.0;-62.07;0.0;0.0;0.0;0.0;-56.1;13.6;-26.4;3.2;-0.21;0.59;-10.64;0.66;0.36;0.97
1753880916.4483006;7.315;6.773000000000001;-0.644;-2.88;-1.0;-62.07;0.0;0.0;0.0;0.0;-56.0;12.6;-25.8;3.8;-0.21;0.58;-10.65;0.57;0.3;1.07
1753880916.4533007;7.315;6.773000000000001;-0.644;-2.88;-1.0;-62.07;0.0;0.0;0.0;0.0;-55.8;13.6;-26.0;4.4;-0.21;0.59;-10.65;0.65;0.37;0.98
1753880916.4582992;7.315;6.773000000000001;-0.644;-2.88;-1.0;-62.07;0.0;0.0;0.0;0.0;-56.0;14.0;-26.0;5.0;-0.21;0.58;-10.64;0.62;0.34;0.92
1753880916.4632986;7.315;6.773000000000001;-0.644;-2.88;-1.0;-62.07;0.0;0.0;0.0;0.0;-56.0;14.0;-26.0;5.0;-0.22;0.58;-10.64;0.74;0.22;0.97
1753880916.4682992;7.315;6.773000000000001;-0.644;-2.88;-1.0;-62.07;0.0;0.0;0.0;0.0;-56.0;14.0;-26.0;5.0;-0.22;0.58;-10.65;0.65;0.31;0.94
1753880916.4732985;7.315;6.773000000000001;-0.644;-2.88;-1.0;-62.07;0.0;0.0;0.0;0.0;-56.0;14.0;-26.0;5.0;-0.22;0.59;-10.64;0.48;0.45;0.78
1753880916.4782991;7.315;6.773000000000001;-0.644;-2.88;-1.0;-62.07;0.0;0.0;0.0;0.0;-56.0;14.0;-26.0;5.0;-0.22;0.58;-10.64;0.59;0.32;0.94
1753880916.4832985;7.315;6.773000000000001;-0.644;-2.88;-1.0;-62.07;0.0;0.0;0.0;0.0;-56.0;14.0;-26.0;5.0;-0.22;0.58;-10.64;0.67;0.18;0.93
1753880916.4882987;7.315;6.773000000000001;-0.644;-2.87;-1.0;-62.07;0.0;0.0;0.0;0.0;-56.1;7.9;-25.4;3.7;-0.21;0.59;-10.64;0.69;0.3;0.95
1753880916.4932985;7.315;6.773000000000001;-0.644;-2.88;-1.0;-62.07;0.0;0.0;0.0;0.0;-56.0;14.0;-26.0;5.0;-0.21;0.58;-10.64;0.68;0.38;0.77
1753880916.498299;7.315;6.773000000000001;-0.644;-2.88;-1.0;-62.07;0.0;0.0;0.0;0.0;-56.0;14.0;-26.0;5.0;-0.21;0.58;-10.64;0.49;0.32;0.79
1753880916.5032988;7.315;6.773000000000001;-0.644;-2.88;-1.0;-62.07;0.0;0.0;0.0;0.0;-56.0;14.0;-26.0;5.0;-0.21;0.58;-10.65;0.57;0.3;0.81
1753880916.5082989;7.315;6.773000000000001;-0.644;-2.88;-1.0;-62.07;0.0;0.0;0.0;0.0;-56.0;14.0;-26.0;5.0;-0.21;0.59;-10.64;0.56;0.29;0.9
1753880916.5132987;7.315;6.773000000000001;-0.644;-2.88;-1.0;-62.07;0.0;0.0;0.0;0.0;-56.0;14.0;-26.0;5.0;-0.21;0.59;-10.64;0.62;0.2;0.82
1753880916.5182989;7.315;6.773000000000001;-0.644;-2.88;-1.0;-62.07;0.0;0.0;0.0;0.0;-56.0;14.0;-26.0;5.0;-0.21;0.59;-10.64;0.7;0.33;1.03
1753880916.5232987;7.315;6.773000000000001;-0.644;-2.88;-1.0;-62.07;0.0;0.0;0.0;0.0;-56.0;14.0;-26.0;5.0;-0.22;0.59;-10.65;0.64;0.43;1.04
1753880916.5282989;7.315;6.773000000000001;-0.644;-2.88;-1.0;-62.07;0.0;0.0;0.0;0.0;-56.0;14.0;-26.0;5.0;-0.22;0.59;-10.66;0.52;0.28;0.94
1753880916.533299;7.315;6.773000000000001;-0.644;-2.88;-1.0;-62.07;0.0;0.0;0.0;0.0;-56.0;14.0;-26.0;5.0;-0.22;0.59;-10.66;0.56;0.29;0.9
1753880916.5382988;7.315;6.773000000000001;-0.644;-2.88;-1.0;-62.07;0.0;0.0;0.0;0.0;-56.0;14.0;-26.0;5.0;-0.21;0.59;-10.66;0.57;0.33;0.86
1753880916.543299;7.315;6.773000000000001;-0.644;-2.88;-1.0;-62.07;0.0;0.0;0.0;0.0;-56.0;14.0;-26.0;5.0;-0.22;0.59;-10.66;0.53;0.39;0.96
1753880916.5482988;7.315;6.773000000000001;-0.644;-2.88;-1.0;-62.07;0.0;0.0;0.0;0.0;-56.0;14.0;-26.0;5.0;-0.22;0.59;-10.66;0.46;0.25;1.02
1753880916.553299;7.315;6.773000000000001;-0.644;-2.88;-1.0;-62.07;0.0;0.0;0.0;0.0;-56.0;14.0;-26.0;5.0;-0.22;0.59;-10.66;0.62;0.22;0.88
1753880916.5582988;7.315;6.773000000000001;-0.644;-2.88;-1.0;-62.07;0.0;0.0;0.0;0.0;-56.0;14.0;-26.0;5.0;-0.22;0.59;-10.66;0.58;0.19;0.89
1753880916.563299;7.315;6.773000000000001;-0.644;-2.88;-1.0;-62.07;0.0;0.0;0.0;0.0;-56.0;14.0;-26.0;5.0;-0.22;0.58;-10.65;0.64;0.31;0.89
1753880916.5682988;7.315;6.773000000000001;-0.644;-2.88;-1.0;-62.07;0.0;0.0;0.0;0.0;-56.0;14.0;-26.0;5.0;-0.22;0.58;-10.65;0.7;0.27;0.9
1753880916.573299;7.315;6.773000000000001;-0.644;-2.88;-1.0;-62.07;0.0;0.0;0.0;0.0;-56.0;14.0;-26.0;5.0;-0.22;0.58;-10.65;0.8;0.28;0.94
1753880916.5782988;7.315;6.773000000000001;-0.644;-2.88;-1.0;-62.07;0.0;0.0;0.0;0.0;-56.0;14.0;-26.0;5.0;-0.22;0.58;-10.65;0.63;0.41;0.85
1753880916.5832992;7.315;6.773000000000001;-0.644;-2.88;-1.0;-62.07;0.0;0.0;0.0;0.0;-56.0;14.0;-26.0;5.0;-0.22;0.58;-10.64;0.62;0.28;0.91
1753880916.5882986;7.315;6.773000000000001;-0.644;-2.88;-1.0;-62.07;0.0;0.0;0.0;0.0;-56.0;14.0;-26.0;5.0;-0.22;0.58;-10.65;0.48;0.38;0.94
1753880916.5932992;7.315;6.773000000000001;-0.644;-2.88;-1.0;-62.07;0.0;0.0;0.0;0.0;-56.0;14.0;-26.0;5.0;-0.22;0.58;-10.65;0.71;0.31;0.93
1753880916.5982985;7.315;6.773000000000001;-0.644;-2.88;-1.0;-62.07;0.0;0.0;0.0;0.0;-56.0;14.0;-26.0;5.0;-0.22;0.58;-10.65;0.45;0.45;0.87
1753880916.6032991;7.315;6.773000000000001;-0.644;-2.88;-1.0;-62.07;0.0;0.0;0.0;0.0;-56.0;14.0;-26.0;5.0;-0.22;0.58;-10.65;0.68;0.36;0.88
1753880916.6082985;7.315;6.773000000000001;-0.644;-2.88;-1.0;-62.07;0.0;0.0;0.0;0.0;-56.0;14.0;-26.0;5.0;-0.22;0.58;-10.65;0.61;0.39;0.86
1753880916.613299;7.315;6.773000000000001;-0.644;-2.88;-1.0;-62.07;0.0;0.0;0.0;0.0;-56.0;14.0;-26.0;5.0;-0.22;0.57;-10.65;0.51;0.45;0.89
1753880916.618299;7.315;6.773000000000001;-0.644;-2.88;-1.0;-62.07;0.0;0.0;0.0;0.0;-56.0;14.0;-26.0;5.0;-0.23;0.58;-10.65;0.46;0.47;0.89
1753880916.6232991;7.315;6.773000000000001;-0.644;-2.88;-1.0;-62.07;0.0;0.0;0.0;0.0;-56.0;14.0;-26.0;5.0;-0.23;0.57;-10.65;0.55;0.37;0.82
1753880916.6282992;7.315;6.773000000000001;-0.644;-2.88;-1.0;-62.07;0.0;0.0;0.0;0.0;-56.0;14.0;-26.0;5.0;-0.22;0.57;-10.65;0.55;0.23;0.84
1753880916.6332989;7.315;6.773000000000001;-0.644;-2.88;-1.0;-62.07;0.0;0.0;0.0;0.0;-56.0;14.0;-26.0;5.0;-0.23;0.57;-10.65;0.57;0.26;0.9
1753880916.6382987;7.315;6.773000000000001;-0.644;-2.88;-1.0;-62.07;0.0;0.0;0.0;0.0;-56.0;14.0;-26.0;5.0;-0.23;0.57;-10.65;0.57;0.19;0.85
1753880916.6432989;7.315;6.773000000000001;-0.644;-2.88;-1.0;-62.07;0.0;0.0;0.0;0.0;-56.0;14.0;-26.0;5.0;-0.22;0.58;-10.64;0.63;0.31;0.89
1753880916.6482987;7.315;6.773000000000001;-0.644;-2.88;-1.0;-62.07;0.0;0.0;0.0;0.0;-56.0;14.0;-26.0;5.0;-0.23;0.58;-10.65;0.57;0.32;0.96
1753880916.6532989;7.315;6.773000000000001;-0.644;-2.88;-1.0;-62.07;0.0;0.0;0.0;0.0;-56.0;14.0;-26.0;5.0;-0.22;0.58;-10.66;0.57;0.16;0.78
1753880916.658299;7.315;6.773000000000001;-0.644;-2.88;-1.0;-62.07;0.0;0.0;0.0;0.0;-56.0;14.0;-26.0;5.0;-0.23;0.58;-10.68;0.53;0.32;0.9
1753880916.6632988;7.315;6.773000000000001;-0.644;-2.88;-1.0;-62.07;0.0;0.0;0.0;0.0;-56.0;14.0;-26.0;5.0;-0.22;0.58;-10.66;0.47;0.35;0.9
1753880916.668299;7.315;6.773000000000001;-0.644;-2.88;-1.0;-62.07;0.0;0.0;0.0;0.0;-56.0;14.0;-26.0;5.0;-0.22;0.59;-10.65;0.54;0.28;0.96
1753880916.6732988;7.315;6.773000000000001;-0.644;-2.88;-1.0;-62.07;0.0;0.0;0.0;0.0;-56.0;14.0;-26.0;5.0;-0.22;0.59;-10.66;0.67;0.48;0.99
1753880916.678299;7.315;6.773000000000001;-0.644;-2.88;-1.0;-62.07;0.0;0.0;0.0;0.0;-56.0;14.0;-26.0;5.0;-0.22;0.59;-10.65;0.66;0.32;0.93
1753880916.6832988;7.315;6.773000000000001;-0.644;-2.88;-1.0;-62.07;0.0;0.0;0.0;0.0;-56.0;14.0;-26.0;5.0;-0.22;0.59;-10.66;0.45;0.32;0.86
1753880916.688299;7.315;6.773000000000001;-0.644;-2.88;-1.0;-62.07;0.0;0.0;0.0;0.0;-56.0;14.0;-26.0;5.0;-0.22;0.59;-10.66;0.51;0.39;0.91
1753880916.6932988;7.315;6.773000000000001;-0.644;-2.88;-1.0;-62.07;0.0;0.0;0.0;0.0;-56.0;14.0;-26.0;5.0;-0.22;0.59;-10.65;0.67;0.39;0.83
1753880916.698299;7.315;6.773000000000001;-0.644;-2.88;-1.0;-62.07;0.0;0.0;0.0;0.0;-56.0;14.0;-26.0;5.0;-0.22;0.59;-10.65;0.54;0.32;1.0
1753880916.703299;7.315;6.773000000000001;-0.644;-2.88;-1.0;-62.07;0.0;0.0;0.0;0.0;-56.0;14.0;-26.0;5.0;-0.21;0.59;-10.65;0.59;0.44;0.99
1753880916.7082992;7.315;6.773000000000001;-0.644;-2.88;-1.0;-62.07;0.0;0.0;0.0;0.0;-56.0;14.0;-26.0;5.0;-0.22;0.59;-10.65;0.38;0.18;1.01
1753880916.7132993;7.315;6.773000000000001;-0.644;-2.88;-1.0;-62.07;0.0;0.0;0.0;0.0;-56.0;14.0;-26.0;5.0;-0.21;0.59;-10.65;0.49;0.29;0.92
1753880916.7182994;7.315;6.773000000000001;-0.644;-2.88;-1.0;-62.07;0.0;0.0;0.0;0.0;-56.0;14.0;-26.0;5.0;-0.21;0.6;-10.65;0.72;0.35;0.94
1753880916.7232995;7.315;6.773000000000001;-0.644;-2.88;-1.0;-62.07;0.0;0.0;0.0;0.0;-56.0;14.0;-26.0;5.0;-0.22;0.59;-10.66;0.5;0.2;1.04
1753880916.7282996;7.315;6.773000000000001;-0.644;-2.88;-1.0;-62.07;0.0;0.0;0.0;0.0;-56.0;14.0;-26.0;5.0;-0.22;0.59;-10.65;0.52;0.27;0.94
1753880916.7332997;7.315;6.773000000000001;-0.644;-2.88;-1.0;-62.07;0.0;0.0;0.0;0.0;-56.0;14.0;-26.0;5.0;-0.21;0.6;-10.65;0.56;0.31;0.95
1753880916.7382998;7.315;6.773000000000001;-0.644;-2.88;-1.0;-62.07;0.0;0.0;0.0;0.0;-56.0;14.0;-26.0;5.0;-0.22;0.59;-10.65;0.55;0.33;1.04
1753880916.7433;7.315;6.773000000000001;-0.644;-2.88;-1.0;-62.07;0.0;0.0;0.0;0.0;-56.0;14.0;-26.0;5.0;-0.22;0.57;-10.65;0.62;0.36;0.95
1753880916.7483;7.315;6.773000000000001;-0.644;-2.88;-1.0;-62.07;0.0;0.0;0.0;0.0;-56.0;14.0;-26.0;5.0;-0.22;0.57;-10.65;0.66;0.47;0.93
1753880916.7533002;7.315;6.773000000000001;-0.644;-2.88;-1.0;-62.07;0.0;0.0;0.0;0.0;-56.0;14.0;-26.0;5.0;-0.22;0.58;-10.66;0.51;0.29;0.85
1753880916.7583003;7.315;6.773000000000001;-0.644;-2.88;-1.0;-62.07;0.0;0.0;0.0;0.0;-56.0;14.0;-26.0;5.0;-0.22;0.57;-10.65;0.44;0.41;1.01
1753880916.7633004;7.315;6.773000000000001;-0.644;-2.88;-1.0;-62.07;0.0;0.0;0.0;0.0;-56.0;14.0;-26.0;5.0;-0.21;0.59;-10.65;0.39;0.26;0.97
1753880916.7683005;7.315;6.773000000000001;-0.644;-2.88;-1.0;-62.07;0.0;0.0;0.0;0.0;-56.0;14.0;-26.0;5.0;-0.22;0.59;-10.65;0.55;0.27;1.04
1753880916.7733006;7.315;6.773000000000001;-0.644;-2.88;-1.0;-62.07;0.0;0.0;0.0;0.0;-56.0;14.0;-26.0;5.0;-0.21;0.59;-10.65;0.68;0.52;0.97
1753880916.7783008;7.315;6.773000000000001;-0.644;-2.88;-1.0;-62.07;0.0;0.0;0.0;0.0;-56.0;14.0;-26.0;5.0;-0.21;0.58;-10.67;0.76;0.34;0.93
1753880916.7833009;7.315;6.773000000000001;-0.644;-2.88;-1.0;-62.07;0.0;0.0;0.0;0.0;-56.0;14.0;-26.0;5.0;-0.21;0.59;-10.65;0.59;0.39;0.95
1753880916.788301;7.315;6.773000000000001;-0.644;-2.88;-1.0;-62.07;0.0;0.0;0.0;0.0;-56.0;14.0;-26.0;5.0;-0.22;0.59;-10.65;0.53;0.31;1.0
1753880916.793301;7.315;6.773000000000001;-0.644;-2.88;-1.0;-62.07;0.0;0.0;0.0;0.0;-56.0;14.0;-26.0;5.0;-0.21;0.59;-10.64;0.62;0.17;0.95
1753880916.7983012;7.315;6.773000000000001;-0.644;-2.88;-1.0;-62.07;0.0;0.0;0.0;0.0;-56.0;14.0;-26.0;5.0;-0.22;0.59;-10.65;0.55;0.27;0.9
1753880916.8033013;7.315;6.773000000000001;-0.644;-2.88;-1.0;-62.07;0.0;0.0;0.0;0.0;-56.0;14.0;-26.0;5.0;-0.22;0.58;-10.65;0.65;0.25;0.97
1753880916.8083014;7.315;6.773000000000001;-0.644;-2.88;-1.0;-62.07;0.0;0.0;0.0;0.0;-56.0;14.0;-26.0;5.0;-0.22;0.58;-10.64;0.65;0.31;0.99
1753880916.8133016;7.315;6.773000000000001;-0.644;-2.88;-1.0;-62.07;0.0;0.0;0.0;0.0;-56.0;14.0;-26.0;5.0;-0.21;0.58;-10.65;0.71;0.25;0.85
1753880916.8183017;7.315;6.773000000000001;-0.644;-2.88;-1.0;-62.07;0.0;0.0;0.0;0.0;-56.0;14.0;-26.0;5.0;-0.21;0.58;-10.65;0.48;0.41;0.97
1753880916.823299;7.315;6.773000000000001;-0.644;-2.88;-1.0;-62.07;0.0;0.0;0.0;0.0;-56.0;14.0;-26.0;5.0;-0.21;0.58;-10.65;0.63;0.35;0.9
1753880916.8282988;7.315;6.773000000000001;-0.644;-2.88;-1.0;-62.07;0.0;0.0;0.0;0.0;-56.0;14.0;-26.0;5.0;-0.2;0.58;-10.65;0.55;0.25;0.83
1753880916.8332992;7.315;6.773000000000001;-0.644;-2.88;-1.0;-62.07;0.0;0.0;0.0;0.0;-56.0;14.0;-26.0;5.0;-0.2;0.59;-10.65;0.64;0.26;0.93
1753880916.8382986;7.315;6.773000000000001;-0.644;-2.88;-1.0;-62.07;0.0;0.0;0.0;0.0;-56.0;14.0;-26.0;5.0;-0.2;0.59;-10.66;0.67;0.34;0.9
1753880916.8432992;7.315;6.773000000000001;-0.644;-2.88;-1.0;-62.07;0.0;0.0;0.0;0.0;-56.0;14.0;-26.0;5.0;-0.2;0.58;-10.65;0.57;0.25;1.0
1753880916.8482985;7.315;6.773000000000001;-0.644;-2.88;-1.0;-62.07;0.0;0.0;0.0;0.0;-56.0;14.0;-26.0;5.0;-0.2;0.59;-10.65;0.51;0.31;0.82
1753880916.8532991;7.315;6.773000000000001;-0.644;-2.88;-1.0;-62.07;0.0;0.0;0.0;0.0;-56.0;14.0;-26.0;5.0;-0.2;0.58;-10.65;0.54;0.32;0.75
1753880916.8582985;7.315;6.773000000000001;-0.644;-2.88;-1.0;-62.07;0.0;0.0;0.0;0.0;-56.0;14.0;-26.0;5.0;-0.2;0.58;-10.65;0.61;0.32;0.86
1753880916.863299;7.315;6.773000000000001;-0.644;-2.88;-1.0;-62.07;0.0;0.0;0.0;0.0;-56.0;14.0;-26.0;5.0;-0.21;0.58;-10.65;0.58;0.25;0.84
1753880916.8682985;7.315;6.773000000000001;-0.644;-2.88;-1.0;-62.07;0.0;0.0;0.0;0.0;-56.0;14.0;-26.0;5.0;-0.22;0.58;-10.65;0.51;0.28;0.8
1753880916.873299;7.315;6.773000000000001;-0.644;-2.88;-1.0;-62.07;0.0;0.0;0.0;0.0;-56.0;14.0;-26.0;5.0;-0.22;0.58;-10.65;0.55;0.35;1.04
1753880916.8782988;7.315;6.773000000000001;-0.644;-2.88;-1.0;-62.07;0.0;0.0;0.0;0.0;-56.0;14.0;-26.0;5.0;-0.21;0.58;-10.64;0.63;0.32;0.99
1753880916.8832989;7.315;6.773000000000001;-0.644;-2.88;-1.0;-62.07;0.0;0.0;0.0;0.0;-56.0;14.0;-26.0;5.0;-0.21;0.58;-10.63;0.66;0.27;0.8
1753880916.8882987;7.315;6.773000000000001;-0.644;-2.88;-1.0;-62.07;0.0;0.0;0.0;0.0;-56.0;14.0;-26.0;5.0;-0.21;0.58;-10.63;0.64;0.35;0.91
1753880916.8932989;7.315;6.773000000000001;-0.644;-2.88;-1.0;-62.07;0.0;0.0;0.0;0.0;-56.0;14.0;-26.0;5.0;-0.21;0.58;-10.63;0.56;0.2;0.84
1753880916.898299;7.315;6.773000000000001;-0.644;-2.88;-1.0;-62.07;0.0;0.0;0.0;0.0;-56.0;14.0;-26.0;5.0;-0.21;0.58;-10.63;0.49;0.25;0.9
1753880916.903299;7.315;6.773000000000001;-0.644;-2.88;-1.0;-62.07;0.0;0.0;0.0;0.0;-56.0;14.0;-26.0;5.0;-0.22;0.59;-10.66;0.6;0.35;0.82
1753880916.908299;7.315;6.773000000000001;-0.644;-2.88;-1.0;-62.07;0.0;0.0;0.0;0.0;-56.0;14.0;-26.0;5.0;-0.21;0.59;-10.63;0.6;0.4;0.81
1753880916.9132988;7.315;6.773000000000001;-0.644;-2.88;-1.0;-62.07;0.0;0.0;0.0;0.0;-56.0;14.0;-26.0;5.0;-0.21;0.59;-10.63;0.57;0.32;0.96
1753880916.918299;7.315;6.773000000000001;-0.644;-2.88;-1.0;-62.07;0.0;0.0;0.0;0.0;-56.0;14.0;-26.0;5.0;-0.21;0.59;-10.63;0.69;0.39;0.92
1753880916.9232988;7.315;6.773000000000001;-0.644;-2.88;-1.0;-62.07;0.0;0.0;0.0;0.0;-56.0;14.0;-26.0;5.0;-0.21;0.59;-10.63;0.7;0.33;0.81
1753880916.928299;7.315;6.773000000000001;-0.644;-2.88;-1.0;-62.07;0.0;0.0;0.0;0.0;-56.0;14.0;-26.0;5.0;-0.21;0.59;-10.64;0.62;0.41;0.87
1753880916.9332988;7.315;6.773000000000001;-0.644;-2.88;-1.0;-62.07;0.0;0.0;0.0;0.0;-56.0;14.0;-26.0;5.0;-0.21;0.59;-10.65;0.66;0.26;0.86
1753880916.938299;7.315;6.773000000000001;-0.644;-2.88;-1.0;-62.07;0.0;0.0;0.0;0.0;-56.0;14.0;-26.0;5.0;-0.21;0.59;-10.65;0.55;0.28;0.87
1753880916.9432988;7.315;6.773000000000001;-0.644;-2.88;-1.0;-62.07;0.0;0.0;0.0;0.0;-56.0;14.0;-26.0;5.0;-0.21;0.58;-10.65;0.52;0.22;0.81
1753880916.948299;7.315;6.773000000000001;-0.644;-2.88;-1.0;-62.07;0.0;0.0;0.0;0.0;-56.0;14.0;-26.0;5.0;-0.21;0.58;-10.65;0.59;0.38;0.94
1753880916.9532988;7.315;6.773000000000001;-0.644;-2.88;-1.0;-62.07;0.0;0.0;0.0;0.0;-56.0;14.0;-26.0;5.0;-0.22;0.58;-10.65;0.56;0.35;0.9
1753880916.9582992;7.315;6.773000000000001;-0.644;-2.88;-1.0;-62.07;0.0;0.0;0.0;0.0;-56.0;14.0;-26.0;5.0;-0.22;0.58;-10.66;0.61;0.35;0.83
1753880916.9632986;7.315;6.773000000000001;-0.644;-2.88;-1.0;-62.07;0.0;0.0;0.0;0.0;-56.0;14.0;-26.0;5.0;-0.22;0.58;-10.66;0.65;0.26;0.9
1753880916.9682992;7.315;6.773000000000001;-0.644;-2.88;-1.0;-62.07;0.0;0.0;0.0;0.0;-56.0;14.0;-26.0;5.0;-0.22;0.58;-10.65;0.74;0.34;0.83
1753880916.9732985;7.315;6.773000000000001;-0.644;-2.88;-1.0;-62.07;0.0;0.0;0.0;0.0;-56.0;14.0;-26.0;5.0;-0.22;0.57;-10.65;0.6;0.16;0.85
1753880916.9782991;7.315;6.773000000000001;-0.644;-2.88;-1.0;-62.07;0.0;0.0;0.0;0.0;-56.0;14.0;-26.0;5.0;-0.21;0.57;-10.64;0.64;0.32;0.74
1753880916.9832985;7.315;6.773000000000001;-0.644;-2.88;-1.0;-62.07;0.0;0.0;0.0;0.0;-56.0;14.0;-26.0;5.0;-0.21;0.57;-10.64;0.64;0.19;0.8
1753880916.988299;7.315;6.773000000000001;-0.644;-2.88;-1.0;-62.07;0.0;0.0;0.0;0.0;-56.0;14.0;-26.0;5.0;-0.21;0.57;-10.63;0.64;0.32;1.04
1753880916.9932985;7.315;6.773000000000001;-0.644;-2.88;-1.0;-62.07;0.0;0.0;0.0;0.0;-56.0;14.0;-26.0;5.0;-0.22;0.57;-10.63;0.63;0.33;0.97
1753880916.9982986;7.315;6.773000000000001;-0.644;-2.88;-1.0;-62.07;0.0;0.0;0.0;0.0;-56.0;14.0;-26.0;5.0;-0.22;0.57;-10.62;0.4;0.3;0.96
1753880917.0032988;7.315;6.773000000000001;-0.644;-2.88;-1.0;-62.07;0.0;0.0;0.0;0.0;-56.0;14.0;-26.0;5.0;-0.22;0.58;-10.63;0.42;0.24;1.01
1753880917.0082989;7.315;6.773000000000001;-0.644;-2.88;-1.0;-62.07;0.0;0.0;0.0;0.0;-56.0;14.0;-26.0;5.0;-0.21;0.57;-10.64;0.64;0.38;0.85
1753880917.0132987;7.315;6.773000000000001;-0.644;-2.88;-1.0;-62.07;0.0;0.0;0.0;0.0;-56.0;14.0;-26.0;5.0;-0.22;0.58;-10.63;0.61;0.45;0.83
1753880917.0182989;7.315;6.773000000000001;-0.644;-2.88;-1.0;-62.07;0.0;0.0;0.0;0.0;-56.0;14.0;-26.0;5.0;-0.21;0.58;-10.64;0.57;0.33;1.03
1753880917.0232987;7.315;6.773000000000001;-0.644;-2.88;-1.0;-62.07;0.0;0.0;0.0;0.0;-56.0;14.0;-26.0;5.0;-0.21;0.58;-10.64;0.57;0.25;1.08
1753880917.0282989;7.315;6.773000000000001;-0.644;-2.88;-1.0;-62.07;0.0;0.0;0.0;0.0;-56.0;14.0;-26.0;5.0;-0.21;0.58;-10.64;0.54;0.41;0.92
1753880917.033299;7.315;6.773000000000001;-0.644;-2.88;-1.0;-62.07;0.0;0.0;0.0;0.0;-56.0;14.0;-26.0;5.0;-0.21;0.58;-10.66;0.54;0.29;1.02
1753880917.038299;7.315;6.773000000000001;-0.644;-2.88;-1.0;-62.07;0.0;0.0;0.0;0.0;-55.7;13.8;-26.0;5.0;-0.2;0.59;-10.67;0.67;0.25;1.09
1753880917.0432992;7.315;6.773000000000001;-0.644;-2.88;-1.0;-62.07;0.0;0.0;0.0;0.0;-55.8;13.6;-26.0;5.0;-0.21;0.59;-10.65;0.33;0.38;0.87
1753880917.0482993;7.315;6.773000000000001;-0.644;-2.88;-1.0;-62.07;0.0;0.0;0.0;0.0;-55.8;14.4;-26.0;5.0;-0.2;0.57;-10.66;0.52;0.16;1.1
1753880917.0532994;7.315;6.773000000000001;-0.644;-2.88;-1.0;-62.07;0.0;0.0;0.0;0.0;-55.3;14.2;-26.0;5.0;-0.21;0.57;-10.67;0.49;0.33;1.03
1753880917.0582995;7.315;6.773000000000001;-0.644;-2.88;-1.0;-62.07;0.0;0.0;0.0;0.0;-55.1;14.2;-26.0;5.0;-0.2;0.58;-10.66;0.55;0.29;1.05
1753880917.0632997;7.315;6.773000000000001;-0.644;-2.88;-1.0;-62.07;0.0;0.0;0.0;0.0;-55.8;13.3;-26.0;5.0;-0.22;0.58;-10.67;0.66;0.3;1.11
1753880917.0682998;7.315;6.773000000000001;-0.644;-2.88;-1.0;-62.07;0.0;0.0;0.0;0.0;-56.2;15.5;-26.0;5.0;-0.22;0.58;-10.68;0.73;0.27;0.92
1753880917.0733;7.315;6.773000000000001;-0.644;-2.88;-1.0;-62.07;0.0;0.0;0.0;0.0;-55.6;11.6;-26.0;5.0;-0.22;0.58;-10.68;0.44;0.31;1.02
1753880917.0783;7.315;6.773000000000001;-0.644;-2.88;-1.0;-62.07;0.0;0.0;0.0;0.0;-55.7;13.8;-26.0;5.0;-0.21;0.58;-10.64;0.62;0.44;1.05
1753880917.0833;7.315;6.773000000000001;-0.644;-2.88;-1.0;-62.07;0.0;0.0;0.0;0.0;-55.0;10.4;-26.0;5.0;-0.21;0.57;-10.66;0.76;0.28;0.97
1753880917.0883002;7.315;6.773000000000001;-0.644;-2.88;-1.0;-62.07;0.0;0.0;0.0;0.0;-55.2;11.0;-26.0;5.0;-0.22;0.58;-10.66;0.74;0.29;1.17
1753880917.0933003;7.315;6.773000000000001;-0.644;-2.88;-1.0;-62.07;0.0;0.0;0.0;0.0;-55.2;13.1;-26.0;5.0;-0.21;0.58;-10.67;0.61;0.23;0.96
1753880917.0983005;7.315;6.773000000000001;-0.644;-2.88;-1.0;-62.07;0.0;0.0;0.0;0.0;-55.2;11.3;-26.0;5.0;-0.21;0.58;-10.67;0.63;0.37;1.02
1753880917.1033006;7.315;6.773000000000001;-0.644;-2.88;-1.0;-62.07;0.0;0.0;0.0;0.0;-55.0;12.7;-26.0;5.0;-0.21;0.59;-10.66;0.66;0.27;0.73
1753880917.1083007;7.315;6.773000000000001;-0.644;-2.88;-1.0;-62.07;0.0;0.0;0.0;0.0;-55.1;12.5;-26.0;5.0;-0.22;0.58;-10.67;0.62;0.36;0.86
1753880917.1133008;7.315;6.773000000000001;-0.644;-2.87;-1.0;-62.07;0.0;0.0;0.0;0.0;-54.9;10.6;-26.0;5.0;-0.22;0.57;-10.68;0.64;0.09;1.07
1753880917.118301;7.315;6.773000000000001;-0.644;-2.88;-1.0;-62.07;0.0;0.0;0.0;0.0;-54.9;11.9;-26.0;5.0;-0.22;0.57;-10.65;0.57;0.41;0.82
1753880917.123301;7.315;6.773000000000001;-0.644;-2.87;-1.0;-62.07;0.0;0.0;0.0;0.0;-55.3;11.3;-26.0;5.0;-0.22;0.58;-10.66;0.66;0.3;0.82
1753880917.1283011;7.315;6.773000000000001;-0.644;-2.87;-1.0;-62.07;0.0;0.0;0.0;0.0;-54.5;12.5;-26.0;5.0;-0.22;0.6;-10.67;0.64;0.47;0.98
1753880917.1333013;7.315;6.773000000000001;-0.644;-2.87;-1.0;-62.07;0.0;0.0;0.0;0.0;-54.2;11.8;-26.0;5.0;-0.22;0.58;-10.67;0.77;0.41;0.78
1753880917.1383014;7.315;6.773000000000001;-0.644;-2.87;-1.0;-62.07;0.0;0.0;0.0;0.0;-55.0;11.7;-26.0;5.0;-0.22;0.58;-10.67;0.51;0.34;1.06
1753880917.1433015;7.315;6.773000000000001;-0.644;-2.87;-1.0;-62.07;0.0;0.0;0.0;0.0;-55.0;9.4;-26.0;5.0;-0.22;0.58;-10.68;0.67;0.4;0.76
1753880917.1483016;7.315;6.773000000000001;-0.644;-2.87;-1.0;-62.07;0.0;0.0;0.0;0.0;-54.5;11.3;-26.0;5.0;-0.22;0.58;-10.67;0.68;0.33;0.74
1753880917.1533017;7.315;6.773000000000001;-0.644;-2.87;-1.0;-62.07;0.0;0.0;0.0;0.0;-54.2;10.8;-26.0;5.0;-0.22;0.57;-10.67;0.56;0.43;1.08
1753880917.1583018;7.315;6.773000000000001;-0.644;-2.87;-1.0;-62.07;0.0;0.0;0.0;0.0;-53.3;10.6;-26.0;5.0;-0.22;0.59;-10.68;0.67;0.3;0.72
1753880917.163302;7.315;6.773000000000001;-0.644;-2.87;-1.0;-62.07;0.0;0.0;0.0;0.0;-53.8;10.0;-26.0;5.0;-0.21;0.58;-10.65;0.64;0.3;0.94
1753880917.168302;7.315;6.773000000000001;-0.644;-2.88;-1.0;-62.07;0.0;0.0;0.0;0.0;-54.7;11.0;-26.0;5.0;-0.21;0.58;-10.67;0.7;0.52;0.89
1753880917.1733022;7.315;6.773000000000001;-0.644;-2.87;-1.0;-62.07;0.0;0.0;0.0;0.0;-54.0;11.4;-26.0;5.0;-0.22;0.58;-10.65;0.63;0.33;0.84
1753880917.1783023;7.315;6.773000000000001;-0.644;-2.87;-1.0;-62.07;0.0;0.0;0.0;0.0;-53.7;9.7;-26.0;5.0;-0.23;0.58;-10.69;0.61;0.36;0.61
1753880917.1832988;7.315;6.773000000000001;-0.644;-2.87;-1.0;-62.07;0.0;0.0;0.0;0.0;-54.0;10.0;-26.0;5.0;-0.22;0.58;-10.67;0.66;0.36;0.8
1753880917.188299;7.315;6.773000000000001;-0.644;-2.87;-1.0;-62.07;0.0;0.0;0.0;0.0;-54.0;10.0;-26.0;5.0;-0.22;0.58;-10.66;0.66;0.31;0.91
1753880917.1932988;7.315;6.773000000000001;-0.644;-2.87;-1.0;-62.07;0.0;0.0;0.0;0.0;-54.0;10.0;-26.0;5.0;-0.22;0.58;-10.66;0.5;0.38;0.92
1753880917.198299;7.315;6.773000000000001;-0.644;-2.87;-1.0;-62.07;0.0;0.0;0.0;0.0;-54.0;10.0;-26.0;5.0;-0.22;0.59;-10.65;0.7;0.38;0.83
1753880917.2032988;7.315;6.773000000000001;-0.644;-2.87;-1.0;-62.07;0.0;0.0;0.0;0.0;-54.0;10.0;-26.0;5.0;-0.22;0.59;-10.66;0.55;0.29;0.99
1753880917.2082992;7.315;6.773000000000001;-0.644;-2.87;-1.0;-62.07;0.0;0.0;0.0;0.0;-54.0;10.0;-26.0;5.0;-0.22;0.59;-10.65;0.54;0.29;0.84
1753880917.2132993;7.315;6.773000000000001;-0.644;-2.88;-1.0;-62.07;0.0;0.0;0.0;0.0;-54.9;10.8;-26.0;5.0;-0.22;0.59;-10.64;0.51;0.12;0.81
1753880917.2182992;7.315;6.773000000000001;-0.644;-2.87;-1.0;-62.07;0.0;0.0;0.0;0.0;-54.0;10.0;-26.0;5.0;-0.21;0.58;-10.65;0.57;0.19;0.94
1753880917.2232985;7.315;6.773000000000001;-0.644;-2.87;-1.0;-62.07;0.0;0.0;0.0;0.0;-54.0;10.0;-26.0;5.0;-0.21;0.58;-10.65;0.48;0.32;0.92
1753880917.2282991;7.315;6.773000000000001;-0.644;-2.87;-1.0;-62.07;0.0;0.0;0.0;0.0;-54.0;10.0;-26.0;5.0;-0.21;0.59;-10.65;0.51;0.23;0.89
1753880917.2332985;7.315;6.773000000000001;-0.644;-2.87;-1.0;-62.07;0.0;0.0;0.0;0.0;-54.0;10.0;-26.0;5.0;-0.2;0.59;-10.65;0.57;0.21;0.96
1753880917.238299;7.315;6.773000000000001;-0.644;-2.87;-1.0;-62.07;0.0;0.0;0.0;0.0;-54.0;10.0;-26.0;5.0;-0.2;0.58;-10.64;0.67;0.31;0.9
1753880917.243299;7.315;6.773000000000001;-0.644;-2.87;-1.0;-62.07;0.0;0.0;0.0;0.0;-53.0;13.4;-26.0;5.0;-0.2;0.58;-10.65;0.72;0.29;0.8
1753880917.248299;7.315;6.773000000000001;-0.644;-2.87;-1.0;-62.07;0.0;0.0;0.0;0.0;-54.0;10.0;-26.0;5.0;-0.2;0.58;-10.65;0.67;0.22;0.97
1753880917.2532988;7.315;6.773000000000001;-0.644;-2.87;-1.0;-62.07;0.0;0.0;0.0;0.0;-54.0;10.0;-26.0;5.0;-0.2;0.58;-10.66;0.53;0.3;0.84
1753880917.2582989;7.315;6.773000000000001;-0.644;-2.87;-1.0;-62.07;0.0;0.0;0.0;0.0;-54.0;10.0;-26.0;5.0;-0.2;0.58;-10.66;0.65;0.22;0.82
1753880917.2632987;7.315;6.773000000000001;-0.644;-2.87;-1.0;-62.07;0.0;0.0;0.0;0.0;-54.0;10.0;-26.0;5.0;-0.2;0.58;-10.66;0.54;0.19;0.8
1753880917.2682989;7.315;6.773000000000001;-0.644;-2.87;-1.0;-62.07;0.0;0.0;0.0;0.0;-54.0;10.0;-26.0;5.0;-0.2;0.58;-10.67;0.54;0.32;0.84
1753880917.2732987;7.315;6.773000000000001;-0.644;-2.87;-1.0;-62.07;0.0;0.0;0.0;0.0;-54.0;10.0;-26.0;5.0;-0.2;0.58;-10.66;0.54;0.16;1.09
1753880917.2782989;7.315;6.773000000000001;-0.644;-2.87;-1.0;-62.07;0.0;0.0;0.0;0.0;-54.0;10.0;-26.0;5.0;-0.2;0.59;-10.66;0.64;0.18;0.85
1753880917.283299;7.315;6.773000000000001;-0.644;-2.87;-1.0;-62.07;0.0;0.0;0.0;0.0;-54.5;11.0;-26.0;5.0;-0.2;0.59;-10.68;0.6;0.22;0.84
1753880917.2882988;7.315;6.773000000000001;-0.644;-2.87;-1.0;-62.07;0.0;0.0;0.0;0.0;-54.0;10.0;-26.0;5.0;-0.21;0.58;-10.67;0.61;0.41;0.92
1753880917.293299;7.315;6.773000000000001;-0.644;-2.87;-1.0;-62.07;0.0;0.0;0.0;0.0;-54.0;10.0;-26.0;5.0;-0.21;0.58;-10.67;0.57;0.18;0.86
1753880917.2982988;7.315;6.773000000000001;-0.644;-2.87;-1.0;-62.07;0.0;0.0;0.0;0.0;-54.0;10.0;-26.0;5.0;-0.21;0.58;-10.67;0.61;0.21;0.91
1753880917.303299;7.315;6.773000000000001;-0.644;-2.87;-1.0;-62.07;0.0;0.0;0.0;0.0;-54.0;10.0;-26.0;5.0;-0.21;0.57;-10.67;0.54;0.23;0.9
1753880917.308299;7.315;6.773000000000001;-0.644;-2.87;-1.0;-62.07;0.0;0.0;0.0;0.0;-54.0;10.0;-26.0;5.0;-0.21;0.58;-10.67;0.64;0.15;0.93
1753880917.3132992;7.315;6.773000000000001;-0.644;-2.87;-1.0;-62.07;0.0;0.0;0.0;0.0;-54.0;10.0;-26.0;5.0;-0.19;0.58;-10.67;0.58;0.2;1.02
1753880917.3182993;7.315;6.773000000000001;-0.644;-2.87;-1.0;-62.07;0.0;0.0;0.0;0.0;-54.0;10.0;-26.0;5.0;-0.2;0.59;-10.67;0.58;0.37;0.94
1753880917.3232994;7.315;6.773000000000001;-0.644;-2.87;-1.0;-62.07;0.0;0.0;0.0;0.0;-54.0;10.0;-26.0;5.0;-0.2;0.58;-10.67;0.48;0.34;1.01
1753880917.3282995;7.315;6.773000000000001;-0.644;-2.87;-1.0;-62.07;0.0;0.0;0.0;0.0;-54.0;10.0;-26.0;5.0;-0.21;0.57;-10.66;0.52;0.29;1.06
1753880917.3332996;7.315;6.773000000000001;-0.644;-2.87;-1.0;-62.07;0.0;0.0;0.0;0.0;-54.0;10.0;-26.0;5.0;-0.21;0.58;-10.65;0.52;0.3;1.03
1753880917.3382998;7.315;6.773000000000001;-0.644;-2.87;-1.0;-62.07;0.0;0.0;0.0;0.0;-54.0;10.0;-26.0;5.0;-0.19;0.59;-10.66;0.58;0.21;0.94
1753880917.3432999;7.315;6.773000000000001;-0.644;-2.87;-1.0;-62.07;0.0;0.0;0.0;0.0;-54.0;10.0;-26.0;5.0;-0.2;0.59;-10.66;0.56;0.25;1.1
1753880917.3483;7.315;6.773000000000001;-0.644;-2.87;-1.0;-62.07;0.0;0.0;0.0;0.0;-54.0;10.0;-26.0;5.0;-0.2;0.59;-10.66;0.62;0.27;0.96
1753880917.3533;7.315;6.773000000000001;-0.644;-2.87;-1.0;-62.07;0.0;0.0;0.0;0.0;-54.0;10.0;-26.0;5.0;-0.21;0.6;-10.67;0.51;0.28;1.04
1753880917.3583002;7.315;6.773000000000001;-0.644;-2.87;-1.0;-62.07;0.0;0.0;0.0;0.0;-54.0;10.0;-26.0;5.0;-0.21;0.59;-10.68;0.59;0.31;0.92
1753880917.3633003;7.315;6.773000000000001;-0.644;-2.87;-1.0;-62.07;0.0;0.0;0.0;0.0;-54.0;10.0;-26.0;5.0;-0.2;0.59;-10.66;0.54;0.41;1.1
1753880917.3682985;7.315;6.773000000000001;-0.644;-2.87;-1.0;-62.07;0.0;0.0;0.0;0.0;-54.0;10.0;-26.0;5.0;-0.21;0.59;-10.66;0.58;0.36;0.98
1753880917.373299;7.315;6.773000000000001;-0.644;-2.87;-1.0;-62.07;0.0;0.0;0.0;0.0;-54.0;10.0;-26.0;5.0;-0.21;0.59;-10.65;0.61;0.35;0.91
1753880917.378299;7.315;6.773000000000001;-0.644;-2.87;-1.0;-62.07;0.0;0.0;0.0;0.0;-54.0;10.0;-26.0;5.0;-0.2;0.59;-10.64;0.64;0.36;0.9
1753880917.3832989;7.315;6.773000000000001;-0.644;-2.87;-1.0;-62.07;0.0;0.0;0.0;0.0;-54.0;10.0;-26.0;5.0;-0.21;0.59;-10.65;0.62;0.35;0.97
1753880917.3882987;7.315;6.773000000000001;-0.644;-2.87;-1.0;-62.07;0.0;0.0;0.0;0.0;-54.0;10.0;-26.0;5.0;-0.21;0.59;-10.64;0.56;0.31;0.95
1753880917.3932989;7.315;6.773000000000001;-0.644;-2.87;-1.0;-62.07;0.0;0.0;0.0;0.0;-54.0;10.0;-26.0;5.0;-0.21;0.59;-10.64;0.65;0.33;0.96
1753880917.3982987;7.315;6.773000000000001;-0.644;-2.87;-1.0;-62.07;0.0;0.0;0.0;0.0;-54.0;10.0;-26.0;5.0;-0.22;0.59;-10.64;0.63;0.28;1.06
1753880917.4032989;7.315;6.773000000000001;-0.644;-2.87;-1.0;-62.07;0.0;0.0;0.0;0.0;-54.0;10.0;-26.0;5.0;-0.21;0.59;-10.64;0.65;0.45;0.99
1753880917.408299;7.315;6.773000000000001;-0.644;-2.87;-1.0;-62.07;0.0;0.0;0.0;0.0;-54.0;10.0;-26.0;5.0;-0.21;0.59;-10.64;0.61;0.42;0.83
1753880917.4132988;7.315;6.773000000000001;-0.644;-2.87;-1.0;-62.07;0.0;0.0;0.0;0.0;-54.0;10.0;-26.0;5.0;-0.21;0.59;-10.65;0.61;0.16;0.94
1753880917.418299;7.315;6.773000000000001;-0.644;-2.87;-1.0;-62.07;0.0;0.0;0.0;0.0;-54.0;10.0;-26.0;5.0;-0.21;0.59;-10.64;0.55;0.23;0.9
1753880917.4232988;7.315;6.773000000000001;-0.644;-2.87;-1.0;-62.07;0.0;0.0;0.0;0.0;-54.0;10.0;-26.0;5.0;-0.21;0.59;-10.64;0.72;0.41;0.87
1753880917.428299;7.315;6.773000000000001;-0.644;-2.87;-1.0;-62.07;0.0;0.0;0.0;0.0;-54.0;10.0;-26.0;5.0;-0.21;0.6;-10.65;0.56;0.37;0.86
1753880917.4332988;7.315;6.773000000000001;-0.644;-2.87;-1.0;-62.07;0.0;0.0;0.0;0.0;-54.0;10.0;-26.0;5.0;-0.21;0.59;-10.65;0.54;0.24;0.97
1753880917.438299;7.315;6.773000000000001;-0.644;-2.87;-1.0;-62.07;0.0;0.0;0.0;0.0;-54.0;10.0;-26.0;5.0;-0.21;0.6;-10.65;0.6;0.41;0.83
1753880917.4432988;7.315;6.773000000000001;-0.644;-2.87;-1.0;-62.07;0.0;0.0;0.0;0.0;-54.0;10.0;-26.0;5.0;-0.21;0.59;-10.65;0.66;0.26;0.96
1753880917.448299;7.315;6.773000000000001;-0.644;-2.87;-1.0;-62.07;0.0;0.0;0.0;0.0;-54.0;10.0;-26.0;5.0;-0.2;0.59;-10.67;0.56;0.3;0.9
1753880917.4532988;7.315;6.773000000000001;-0.644;-2.87;-1.0;-62.07;0.0;0.0;0.0;0.0;-54.0;10.0;-26.0;5.0;-0.2;0.59;-10.67;0.62;0.41;0.88
1753880917.458299;7.315;6.773000000000001;-0.644;-2.87;-1.0;-62.07;0.0;0.0;0.0;0.0;-54.0;10.0;-26.0;5.0;-0.2;0.59;-10.68;0.64;0.38;0.86
1753880917.4632986;7.315;6.773000000000001;-0.644;-2.87;-1.0;-62.07;0.0;0.0;0.0;0.0;-54.0;10.0;-26.0;5.0;-0.21;0.59;-10.69;0.62;0.28;0.75
1753880917.4682992;7.315;6.773000000000001;-0.644;-2.87;-1.0;-62.07;0.0;0.0;0.0;0.0;-54.0;10.0;-26.0;5.0;-0.21;0.59;-10.68;0.68;0.32;0.99
1753880917.4732985;7.315;6.773000000000001;-0.644;-2.87;-1.0;-62.07;0.0;0.0;0.0;0.0;-54.0;10.0;-26.0;5.0;-0.21;0.59;-10.69;0.57;0.35;0.77
1753880917.4782991;7.315;6.773000000000001;-0.644;-2.87;-1.0;-62.07;0.0;0.0;0.0;0.0;-54.0;10.0;-26.0;5.0;-0.21;0.59;-10.68;0.5;0.31;0.75
1753880917.4832985;7.315;6.773000000000001;-0.644;-2.87;-1.0;-62.07;0.0;0.0;0.0;0.0;-54.0;10.0;-26.0;5.0;-0.21;0.59;-10.67;0.61;0.41;1.07
1753880917.488299;7.315;6.773000000000001;-0.644;-2.87;-1.0;-62.07;0.0;0.0;0.0;0.0;-54.0;10.0;-26.0;5.0;-0.2;0.58;-10.67;0.47;0.27;0.96
1753880917.4932985;7.315;6.773000000000001;-0.644;-2.87;-1.0;-62.07;0.0;0.0;0.0;0.0;-54.0;10.0;-26.0;5.0;-0.21;0.58;-10.67;0.44;0.36;0.77
1753880917.498299;7.315;6.773000000000001;-0.644;-2.87;-1.0;-62.07;0.0;0.0;0.0;0.0;-54.0;10.0;-26.0;5.0;-0.21;0.58;-10.67;0.61;0.37;0.86
1753880917.503299;7.315;6.773000000000001;-0.644;-2.87;-1.0;-62.07;0.0;0.0;0.0;0.0;-54.0;10.0;-26.0;5.0;-0.22;0.59;-10.66;0.58;0.36;0.75
1753880917.508299;7.315;6.773000000000001;-0.644;-2.87;-1.0;-62.07;0.0;0.0;0.0;0.0;-54.0;10.0;-26.0;5.0;-0.22;0.58;-10.68;0.53;0.31;0.94
1753880917.5132992;7.315;6.773000000000001;-0.644;-2.87;-1.0;-62.07;0.0;0.0;0.0;0.0;-54.0;10.0;-26.0;5.0;-0.22;0.58;-10.64;0.52;0.32;0.96
1753880917.5182993;7.315;6.773000000000001;-0.644;-2.87;-1.0;-62.07;0.0;0.0;0.0;0.0;-54.0;10.0;-26.0;5.0;-0.21;0.59;-10.67;0.71;0.33;0.9
1753880917.5232995;7.315;6.773000000000001;-0.644;-2.87;-1.0;-62.07;0.0;0.0;0.0;0.0;-54.0;10.0;-26.0;5.0;-0.2;0.59;-10.65;0.47;0.4;0.87
1753880917.5282996;7.315;6.773000000000001;-0.644;-2.87;-1.0;-62.07;0.0;0.0;0.0;0.0;-54.0;10.0;-26.0;5.0;-0.21;0.59;-10.68;0.63;0.32;0.87
1753880917.5332997;7.315;6.773000000000001;-0.644;-2.87;-1.0;-62.07;0.0;0.0;0.0;0.0;-54.0;10.0;-26.0;5.0;-0.22;0.59;-10.68;0.59;0.37;0.79
1753880917.5382998;7.315;6.773000000000001;-0.644;-2.87;-1.0;-62.07;0.0;0.0;0.0;0.0;-54.0;10.0;-26.0;5.0;-0.22;0.59;-10.67;0.48;0.33;0.84
1753880917.5433;7.315;6.773000000000001;-0.644;-2.87;-1.0;-62.07;0.0;0.0;0.0;0.0;-54.0;10.0;-26.0;5.0;-0.21;0.59;-10.68;0.47;0.33;1.01
1753880917.5483;7.315;6.773000000000001;-0.644;-2.87;-1.0;-62.07;0.0;0.0;0.0;0.0;-54.0;10.0;-26.0;5.0;-0.22;0.59;-10.65;0.43;0.48;0.87
1753880917.553299;7.315;6.773000000000001;-0.644;-2.87;-1.0;-62.07;0.0;0.0;0.0;0.0;-54.0;10.0;-26.0;5.0;-0.22;0.59;-10.65;0.46;0.38;0.91
1753880917.5582988;7.315;6.773000000000001;-0.644;-2.87;-1.0;-62.07;0.0;0.0;0.0;0.0;-54.0;10.0;-26.0;5.0;-0.22;0.59;-10.64;0.6;0.39;0.86
1753880917.563299;7.315;6.773000000000001;-0.644;-2.87;-1.0;-62.07;0.0;0.0;0.0;0.0;-54.2;10.0;-26.1;4.9;-0.22;0.6;-10.66;0.61;0.36;0.88
1753880917.568299;7.315;6.773000000000001;-0.644;-2.88;-1.0;-62.07;0.0;0.0;0.0;0.0;-54.2;10.0;-26.7;5.3;-0.22;0.59;-10.63;0.51;0.46;0.82
1753880917.5732992;7.315;6.773000000000001;-0.644;-2.87;-1.0;-62.07;0.0;0.0;0.0;0.0;-54.3;10.0;-25.4;7.4;-0.22;0.58;-10.65;0.6;0.42;0.95
1753880917.5782993;7.315;6.773000000000001;-0.644;-2.88;-1.0;-62.07;0.0;0.0;0.0;0.0;-54.2;10.0;-26.2;2.1;-0.22;0.59;-10.62;0.62;0.23;1.01
1753880917.5832994;7.315;6.773000000000001;-0.644;-2.87;-1.0;-62.07;0.0;0.0;0.0;0.0;-54.1;10.0;-26.6;4.8;-0.22;0.59;-10.66;0.55;0.35;0.76
1753880917.5882995;7.315;6.773000000000001;-0.644;-2.87;-1.0;-62.07;0.0;0.0;0.0;0.0;-54.2;10.0;-26.8;3.8;-0.22;0.59;-10.65;0.65;0.55;0.8
1753880917.5932996;7.315;6.773000000000001;-0.644;-2.87;-1.0;-62.07;0.0;0.0;0.0;0.0;-54.3;10.0;-27.3;5.1;-0.22;0.59;-10.63;0.65;0.26;0.79
1753880917.5982997;7.315;6.773000000000001;-0.644;-2.88;-1.0;-62.07;0.0;0.0;0.0;0.0;-54.0;10.0;-28.4;7.2;-0.21;0.58;-10.65;0.63;0.46;0.93
1753880917.6032999;7.315;6.773000000000001;-0.644;-2.87;-1.0;-62.07;0.0;0.0;0.0;0.0;-54.2;10.0;-25.9;7.2;-0.22;0.59;-10.65;0.61;0.44;0.93
1753880917.6083;7.315;6.773000000000001;-0.644;-2.87;-1.0;-62.07;0.0;0.0;0.0;0.0;-54.6;10.0;-28.3;6.9;-0.21;0.59;-10.63;0.45;0.41;0.88
1753880917.6133;7.315;6.773000000000001;-0.644;-2.88;-1.0;-62.07;0.0;0.0;0.0;0.0;-54.4;10.0;-27.0;9.4;-0.21;0.59;-10.66;0.61;0.45;0.94
1753880917.6183002;7.315;6.773000000000001;-0.644;-2.88;-1.0;-62.07;0.0;0.0;0.0;0.0;-54.2;10.0;-28.2;7.7;-0.21;0.6;-10.63;0.53;0.26;1.11
1753880917.6233003;7.315;6.773000000000001;-0.644;-2.89;-1.0;-62.07;0.0;0.0;0.0;0.0;-54.5;10.0;-26.5;8.2;-0.22;0.59;-10.67;0.62;0.24;0.92
1753880917.6283004;7.315;6.773000000000001;-0.644;-2.88;-1.0;-62.07;0.0;0.0;0.0;0.0;-54.6;10.0;-27.4;5.0;-0.22;0.59;-10.67;0.64;0.44;0.86
1753880917.6333005;7.315;6.773000000000001;-0.644;-2.88;-1.0;-62.07;0.0;0.0;0.0;0.0;-53.9;10.0;-27.4;10.9;-0.22;0.59;-10.64;0.56;0.28;0.85
1753880917.6383007;7.315;6.773000000000001;-0.644;-2.88;-1.0;-62.07;0.0;0.0;0.0;0.0;-54.6;10.0;-27.3;10.6;-0.22;0.58;-10.64;0.6;0.32;0.85
1753880917.6433008;7.315;6.773000000000001;-0.644;-2.88;-1.0;-62.07;0.0;0.0;0.0;0.0;-54.5;10.0;-28.4;8.6;-0.22;0.6;-10.66;0.62;0.37;0.83
1753880917.648301;7.315;6.773000000000001;-0.644;-2.88;-1.0;-62.07;0.0;0.0;0.0;0.0;-54.8;10.0;-30.2;10.2;-0.21;0.59;-10.65;0.61;0.32;0.94
1753880917.653301;7.315;6.773000000000001;-0.644;-2.88;-1.0;-62.07;0.0;0.0;0.0;0.0;-54.6;10.0;-27.4;10.8;-0.21;0.59;-10.62;0.61;0.39;0.93
1753880917.658301;7.315;6.773000000000001;-0.644;-2.88;-1.0;-62.07;0.0;0.0;0.0;0.0;-54.7;10.0;-27.1;10.7;-0.21;0.6;-10.65;0.49;0.41;0.79
1753880917.6633012;7.315;6.773000000000001;-0.644;-2.88;-1.0;-62.07;0.0;0.0;0.0;0.0;-54.4;10.0;-26.9;10.6;-0.21;0.6;-10.68;0.6;0.29;1.01
1753880917.6683013;7.315;6.773000000000001;-0.644;-2.88;-1.0;-62.07;0.0;0.0;0.0;0.0;-54.5;10.0;-26.8;9.9;-0.21;0.59;-10.63;0.69;0.21;0.86
1753880917.6733015;7.315;6.773000000000001;-0.644;-2.88;-1.0;-62.07;0.0;0.0;0.0;0.0;-54.6;10.0;-28.8;8.3;-0.21;0.59;-10.66;0.63;0.23;0.99
1753880917.6783016;7.315;6.773000000000001;-0.644;-2.88;-1.0;-62.07;0.0;0.0;0.0;0.0;-54.7;10.0;-28.9;10.2;-0.21;0.59;-10.62;0.65;0.29;0.95
1753880917.6833017;7.315;6.773000000000001;-0.644;-2.89;-1.0;-62.07;0.0;0.0;0.0;0.0;-55.0;10.0;-31.1;11.8;-0.21;0.59;-10.66;0.59;0.31;1.01
1753880917.6883018;7.315;6.773000000000001;-0.644;-2.88;-1.0;-62.07;0.0;0.0;0.0;0.0;-54.7;10.0;-30.3;11.8;-0.22;0.59;-10.65;0.71;0.36;0.92
1753880917.693302;7.315;6.773000000000001;-0.644;-2.89;-1.0;-62.07;0.0;0.0;0.0;0.0;-54.9;10.0;-28.3;9.2;-0.22;0.59;-10.67;0.44;0.12;0.93
1753880917.698302;7.315;6.773000000000001;-0.644;-2.88;-1.0;-62.07;0.0;0.0;0.0;0.0;-54.9;10.0;-30.5;12.4;-0.21;0.59;-10.64;0.63;0.34;0.9
1753880917.7033021;7.315;6.773000000000001;-0.644;-2.89;-1.0;-62.07;0.0;0.0;0.0;0.0;-54.8;10.0;-30.1;9.2;-0.22;0.59;-10.65;0.63;0.1;0.98
1753880917.7083023;7.315;6.773000000000001;-0.644;-2.88;-1.0;-62.07;0.0;0.0;0.0;0.0;-55.1;10.0;-30.5;11.4;-0.21;0.58;-10.66;0.53;0.29;1.1
1753880917.7133024;7.315;6.773000000000001;-0.644;-2.88;-1.0;-62.07;0.0;0.0;0.0;0.0;-55.2;10.0;-29.9;12.2;-0.23;0.6;-10.67;0.57;0.26;0.78
1753880917.7183025;7.315;6.773000000000001;-0.644;-2.89;-1.0;-62.07;0.0;0.0;0.0;0.0;-55.1;10.0;-28.7;16.8;-0.22;0.58;-10.64;0.68;0.21;0.93
1753880917.7233026;7.315;6.773000000000001;-0.644;-2.89;-1.0;-62.07;0.0;0.0;0.0;0.0;-54.7;10.0;-30.7;13.4;-0.22;0.58;-10.64;0.67;0.18;0.94
1753880917.7283027;7.315;6.773000000000001;-0.644;-2.89;-1.0;-62.07;0.0;0.0;0.0;0.0;-55.2;10.0;-30.2;8.0;-0.21;0.59;-10.67;0.64;0.19;0.8
1753880917.7332985;7.315;6.773000000000001;-0.644;-2.89;-1.0;-62.07;0.0;0.0;0.0;0.0;-55.0;10.0;-30.0;13.0;-0.21;0.59;-10.66;0.61;0.24;0.96
1753880917.738299;7.315;6.773000000000001;-0.644;-2.89;-1.0;-62.07;0.0;0.0;0.0;0.0;-55.0;10.0;-30.0;13.0;-0.21;0.59;-10.66;0.58;0.32;0.8
1753880917.7432985;7.315;6.773000000000001;-0.644;-2.89;-1.0;-62.07;0.0;0.0;0.0;0.0;-55.0;10.0;-30.0;13.0;-0.21;0.59;-10.65;0.63;0.32;0.89
1753880917.748299;7.315;6.773000000000001;-0.644;-2.89;-1.0;-62.07;0.0;0.0;0.0;0.0;-55.0;10.0;-30.0;13.0;-0.21;0.59;-10.65;0.57;0.35;0.93
1753880917.7532988;7.315;6.773000000000001;-0.644;-2.89;-1.0;-62.07;0.0;0.0;0.0;0.0;-55.0;10.0;-30.0;13.0;-0.21;0.59;-10.65;0.62;0.28;0.83
1753880917.7582989;7.315;6.773000000000001;-0.644;-2.89;-1.0;-62.07;0.0;0.0;0.0;0.0;-55.0;10.0;-30.0;13.0;-0.22;0.58;-10.65;0.6;0.28;0.92
1753880917.7632987;7.315;6.773000000000001;-0.644;-2.89;-1.0;-62.07;0.0;0.0;0.0;0.0;-55.0;10.0;-30.0;13.0;-0.21;0.59;-10.65;0.5;0.34;0.91
1753880917.7682989;7.315;6.773000000000001;-0.644;-2.89;-1.0;-62.07;0.0;0.0;0.0;0.0;-55.0;10.0;-30.0;13.0;-0.21;0.59;-10.65;0.54;0.19;0.87
1753880917.7732987;7.315;6.773000000000001;-0.644;-2.89;-1.0;-62.07;0.0;0.0;0.0;0.0;-55.0;10.0;-30.0;13.0;-0.21;0.59;-10.66;0.63;0.38;0.86
1753880917.7782989;7.315;6.773000000000001;-0.644;-2.89;-1.0;-62.07;0.0;0.0;0.0;0.0;-55.0;10.0;-30.0;13.0;-0.2;0.59;-10.67;0.66;0.29;0.93
1753880917.783299;7.315;6.773000000000001;-0.644;-2.88;-1.0;-62.07;0.0;0.0;0.0;0.0;-54.2;10.0;-32.4;11.0;-0.2;0.59;-10.65;0.71;0.37;0.93
1753880917.788299;7.315;6.773000000000001;-0.644;-2.89;-1.0;-62.07;0.0;0.0;0.0;0.0;-54.7;10.0;-32.5;8.3;-0.21;0.59;-10.69;0.58;0.27;0.93
1753880917.7932992;7.315;6.773000000000001;-0.644;-2.87;-1.0;-62.07;0.0;0.0;0.0;0.0;-54.9;10.0;-28.9;16.6;-0.19;0.59;-10.64;0.74;0.35;0.79
1753880917.7982993;7.315;6.773000000000001;-0.644;-2.91;-1.0;-62.07;0.0;0.0;0.0;0.0;-54.7;10.0;-30.1;3.6;-0.2;0.6;-10.69;0.66;0.33;0.87
1753880917.8032994;7.315;6.773000000000001;-0.644;-2.88;-1.0;-62.07;0.0;0.0;0.0;0.0;-54.3;10.0;-33.7;12.7;-0.21;0.59;-10.68;0.72;0.31;0.89
1753880917.8082995;7.315;6.773000000000001;-0.644;-2.88;-1.0;-62.07;0.0;0.0;0.0;0.0;-54.0;10.0;-30.4;6.1;-0.2;0.58;-10.66;0.54;0.29;1.05
1753880917.8132997;7.315;6.773000000000001;-0.644;-2.9;-1.0;-62.07;0.0;0.0;0.0;0.0;-55.8;10.0;-31.5;15.2;-0.2;0.59;-10.68;0.52;0.3;0.99
1753880917.8182998;7.315;6.773000000000001;-0.644;-2.9;-1.0;-62.07;0.0;0.0;0.0;0.0;-55.6;10.0;-34.8;6.6;-0.2;0.59;-10.68;0.63;0.27;0.88
1753880917.8233;7.315;6.773000000000001;-0.644;-2.91;-1.0;-62.07;0.0;0.0;0.0;0.0;-55.5;10.0;-31.0;6.0;-0.21;0.58;-10.66;0.56;0.3;0.83
1753880917.8283;7.315;6.773000000000001;-0.644;-2.89;-1.0;-62.07;0.0;0.0;0.0;0.0;-56.3;10.0;-31.0;10.5;-0.2;0.59;-10.67;0.69;0.2;0.89
1753880917.8333;7.315;6.773000000000001;-0.644;-2.89;-1.0;-62.07;0.0;0.0;0.0;0.0;-54.2;10.0;-32.0;4.8;-0.2;0.6;-10.67;0.68;0.34;0.81
1753880917.8383002;7.315;6.773000000000001;-0.644;-2.9;-1.0;-62.07;0.0;0.0;0.0;0.0;-54.8;10.0;-31.0;15.1;-0.2;0.59;-10.67;0.61;0.31;1.03
1753880917.8433003;7.315;6.773000000000001;-0.644;-2.89;-1.0;-62.07;0.0;0.0;0.0;0.0;-55.8;10.0;-33.6;12.8;-0.2;0.59;-10.68;0.72;0.17;0.75
1753880917.8483005;7.315;6.773000000000001;-0.644;-2.9;-1.0;-62.07;0.0;0.0;0.0;0.0;-55.8;10.0;-31.8;7.9;-0.2;0.59;-10.68;0.74;0.28;0.96
1753880917.8533006;7.315;6.773000000000001;-0.644;-2.9;-1.0;-62.07;0.0;0.0;0.0;0.0;-54.6;10.0;-32.7;0.7;-0.21;0.59;-10.67;0.5;0.29;0.94
1753880917.8583007;7.315;6.773000000000001;-0.644;-2.89;-1.0;-62.07;0.0;0.0;0.0;0.0;-55.7;10.0;-33.2;0.1;-0.2;0.59;-10.68;0.75;0.31;0.93
1753880917.8633008;7.315;6.773000000000001;-0.644;-2.88;-1.0;-62.07;0.0;0.0;0.0;0.0;-55.0;10.0;-29.5;-1.2;-0.21;0.59;-10.66;0.74;0.25;0.82
1753880917.868301;7.315;6.773000000000001;-0.644;-2.89;-1.0;-62.07;0.0;0.0;0.0;0.0;-54.4;10.0;-28.6;7.4;-0.2;0.59;-10.7;0.71;0.33;1.02
1753880917.873301;7.315;6.773000000000001;-0.644;-2.91;-1.0;-62.07;0.0;0.0;0.0;0.0;-54.2;10.0;-30.6;14.5;-0.21;0.59;-10.67;0.82;0.25;1.03
1753880917.8783011;7.315;6.773000000000001;-0.644;-2.91;-1.0;-62.07;0.0;0.0;0.0;0.0;-54.9;10.0;-33.7;-0.6;-0.21;0.58;-10.66;0.57;0.37;0.97
1753880917.8833013;7.315;6.773000000000001;-0.644;-2.89;-1.0;-62.07;0.0;0.0;0.0;0.0;-55.3;10.0;-35.7;7.6;-0.21;0.59;-10.68;0.7;0.38;0.99
1753880917.8883014;7.315;6.773000000000001;-0.644;-2.91;-1.0;-62.07;0.0;0.0;0.0;0.0;-55.5;10.0;-33.5;-0.3;-0.21;0.58;-10.71;0.71;0.2;0.86
1753880917.8933015;7.315;6.773000000000001;-0.644;-2.89;-1.0;-62.07;0.0;0.0;0.0;0.0;-54.6;10.0;-33.8;11.9;-0.2;0.6;-10.68;0.51;0.26;1.13
1753880917.8983016;7.315;6.773000000000001;-0.644;-2.9;-1.0;-62.07;0.0;0.0;0.0;0.0;-54.9;10.0;-32.4;10.2;-0.21;0.59;-10.7;0.69;0.27;1.1
1753880917.9033017;7.315;6.773000000000001;-0.644;-2.92;-1.0;-62.07;0.0;0.0;0.0;0.0;-54.6;10.0;-35.1;11.3;-0.21;0.58;-10.68;0.72;0.27;1.01
1753880917.9083018;7.315;6.773000000000001;-0.644;-2.88;-1.0;-62.07;0.0;0.0;0.0;0.0;-54.3;10.0;-28.5;3.0;-0.22;0.59;-10.67;0.74;0.31;0.95
1753880917.913302;7.315;6.773000000000001;-0.644;-2.88;-1.0;-62.07;0.0;0.0;0.0;0.0;-54.4;10.0;-30.8;5.0;-0.21;0.58;-10.67;0.68;0.26;0.86
1753880917.918299;7.315;6.773000000000001;-0.644;-2.9;-1.0;-62.07;0.0;0.0;0.0;0.0;-55.0;10.0;-33.0;4.0;-0.21;0.58;-10.68;0.7;0.29;0.92
1753880917.9232988;7.315;6.773000000000001;-0.644;-2.9;-1.0;-62.07;0.0;0.0;0.0;0.0;-55.0;10.0;-33.0;4.0;-0.21;0.58;-10.68;0.53;0.48;0.93
1753880917.928299;7.315;6.773000000000001;-0.644;-2.9;-1.0;-62.07;0.0;0.0;0.0;0.0;-55.0;10.0;-33.0;4.0;-0.21;0.58;-10.67;0.57;0.44;0.84
1753880917.933299;7.315;6.773000000000001;-0.644;-2.89;-1.0;-62.07;0.0;0.0;0.0;0.0;-54.9;10.0;-35.2;0.5;-0.21;0.57;-10.67;0.52;0.37;0.68
1753880917.9382992;7.315;6.773000000000001;-0.644;-2.89;-1.0;-62.07;0.0;0.0;0.0;0.0;-54.4;10.0;-33.1;-3.5;-0.21;0.57;-10.66;0.66;0.35;0.79
1753880917.9432988;7.315;6.773000000000001;-0.644;-2.9;-1.0;-62.07;0.0;0.0;0.0;0.0;-55.0;10.0;-33.0;4.0;-0.21;0.57;-10.67;0.63;0.38;0.78
1753880917.948299;7.315;6.773000000000001;-0.644;-2.9;-1.0;-62.07;0.0;0.0;0.0;0.0;-55.0;10.0;-33.0;4.0;-0.21;0.57;-10.67;0.5;0.22;0.92
1753880917.953299;7.315;6.773000000000001;-0.644;-2.9;-1.0;-62.07;0.0;0.0;0.0;0.0;-55.0;10.0;-34.0;-1.4;-0.22;0.58;-10.67;0.49;0.23;0.91
1753880917.9582992;7.315;6.773000000000001;-0.644;-2.9;-1.0;-62.07;0.0;0.0;0.0;0.0;-55.0;10.0;-33.0;4.0;-0.22;0.57;-10.66;0.56;0.25;0.94
1753880917.9632986;7.315;6.773000000000001;-0.644;-2.9;-1.0;-62.07;0.0;0.0;0.0;0.0;-55.0;10.0;-33.0;4.0;-0.21;0.57;-10.66;0.6;0.34;0.84
1753880917.9682992;7.315;6.773000000000001;-0.644;-2.9;-1.0;-62.07;0.0;0.0;0.0;0.0;-55.0;10.0;-33.0;4.0;-0.22;0.57;-10.65;0.61;0.23;0.92
1753880917.9732985;7.315;6.773000000000001;-0.644;-2.9;-1.0;-62.07;0.0;0.0;0.0;0.0;-55.0;10.0;-33.0;4.0;-0.21;0.57;-10.65;0.69;0.23;0.83
1753880917.9782991;7.315;6.773000000000001;-0.644;-2.9;-1.0;-62.07;0.0;0.0;0.0;0.0;-55.0;10.0;-33.0;4.0;-0.21;0.57;-10.65;0.58;0.32;0.99
1753880917.9832985;7.315;6.773000000000001;-0.644;-2.9;-1.0;-62.07;0.0;0.0;0.0;0.0;-55.0;10.0;-33.0;4.0;-0.21;0.57;-10.66;0.59;0.33;1.02
1753880917.988299;7.315;6.773000000000001;-0.644;-2.9;-1.0;-62.07;0.0;0.0;0.0;0.0;-55.0;10.0;-33.0;4.0;-0.22;0.58;-10.66;0.62;0.21;0.99
1753880917.9932985;7.315;6.773000000000001;-0.644;-2.9;-1.0;-62.07;0.0;0.0;0.0;0.0;-55.0;10.0;-33.0;4.0;-0.22;0.58;-10.65;0.63;0.22;0.8
1753880917.998299;7.315;6.773000000000001;-0.644;-2.9;-1.0;-62.07;0.0;0.0;0.0;0.0;-55.0;10.0;-33.0;4.0;-0.22;0.58;-10.66;0.64;0.37;0.94
1753880918.0032988;7.315;6.773000000000001;-0.644;-2.9;-1.0;-62.07;0.0;0.0;0.0;0.0;-55.0;10.0;-33.0;4.0;-0.22;0.58;-10.66;0.62;0.27;0.91
1753880918.0082989;7.315;6.773000000000001;-0.644;-2.9;-1.0;-62.07;0.0;0.0;0.0;0.0;-55.0;10.0;-33.0;4.0;-0.22;0.58;-10.67;0.6;0.21;0.95
1753880918.0132987;7.315;6.773000000000001;-0.644;-2.9;-1.0;-62.07;0.0;0.0;0.0;0.0;-55.0;10.0;-33.0;4.0;-0.21;0.58;-10.67;0.64;0.32;0.81
1753880918.0182989;7.315;6.773000000000001;-0.644;-2.9;-1.0;-62.07;0.0;0.0;0.0;0.0;-55.0;10.0;-33.0;4.0;-0.22;0.59;-10.67;0.59;0.16;0.9
1753880918.0232987;7.315;6.773000000000001;-0.644;-2.9;-1.0;-62.07;0.0;0.0;0.0;0.0;-55.0;10.0;-33.0;4.0;-0.22;0.59;-10.67;0.62;0.22;0.95
1753880918.0282989;7.315;6.773000000000001;-0.644;-2.9;-1.0;-62.07;0.0;0.0;0.0;0.0;-55.0;10.0;-33.0;4.0;-0.22;0.59;-10.67;0.7;0.32;0.86
1753880918.033299;7.315;6.773000000000001;-0.644;-2.9;-1.0;-62.07;0.0;0.0;0.0;0.0;-55.0;10.0;-33.0;4.0;-0.22;0.59;-10.65;0.61;0.28;0.92
1753880918.0382988;7.315;6.773000000000001;-0.644;-2.9;-1.0;-62.07;0.0;0.0;0.0;0.0;-55.0;10.0;-33.0;4.0;-0.22;0.59;-10.65;0.46;0.28;0.82
1753880918.043299;7.315;6.773000000000001;-0.644;-2.9;-1.0;-62.07;0.0;0.0;0.0;0.0;-55.0;10.0;-33.0;4.0;-0.21;0.59;-10.65;0.58;0.31;0.8
1753880918.0482988;7.315;6.773000000000001;-0.644;-2.9;-1.0;-62.07;0.0;0.0;0.0;0.0;-55.0;10.0;-33.0;4.0;-0.21;0.59;-10.65;0.59;0.32;1.01
1753880918.053299;7.315;6.773000000000001;-0.644;-2.9;-1.0;-62.07;0.0;0.0;0.0;0.0;-55.0;10.0;-33.0;4.0;-0.21;0.58;-10.64;0.61;0.41;0.8
1753880918.0582988;7.315;6.773000000000001;-0.644;-2.9;-1.0;-62.07;0.0;0.0;0.0;0.0;-55.0;10.0;-33.0;4.0;-0.22;0.58;-10.64;0.61;0.26;0.75
1753880918.063299;7.315;6.773000000000001;-0.644;-2.9;-1.0;-62.07;0.0;0.0;0.0;0.0;-55.0;10.0;-33.0;4.0;-0.22;0.57;-10.63;0.57;0.12;1.08
1753880918.0682988;7.315;6.773000000000001;-0.644;-2.9;-1.0;-62.07;0.0;0.0;0.0;0.0;-55.0;10.0;-33.0;4.0;-0.22;0.57;-10.63;0.51;0.31;0.96
1753880918.073299;7.315;6.773000000000001;-0.644;-2.9;-1.0;-62.07;0.0;0.0;0.0;0.0;-55.0;10.0;-33.0;4.0;-0.22;0.57;-10.63;0.53;0.22;0.88
1753880918.078299;7.315;6.773000000000001;-0.644;-2.9;-1.0;-62.07;0.0;0.0;0.0;0.0;-55.0;10.0;-33.0;4.0;-0.22;0.56;-10.63;0.55;0.24;0.81
1753880918.0832992;7.315;6.773000000000001;-0.644;-2.9;-1.0;-62.07;0.0;0.0;0.0;0.0;-55.0;10.0;-33.0;4.0;-0.22;0.58;-10.64;0.6;0.21;1.03
1753880918.0882993;7.315;6.773000000000001;-0.644;-2.9;-1.0;-62.07;0.0;0.0;0.0;0.0;-55.0;10.0;-33.0;4.0;-0.23;0.57;-10.65;0.63;0.21;0.79
1753880918.0932994;7.315;6.773000000000001;-0.644;-2.9;-1.0;-62.07;0.0;0.0;0.0;0.0;-55.0;10.0;-33.0;4.0;-0.22;0.57;-10.62;0.59;0.13;1.03
1753880918.0982995;7.315;6.773000000000001;-0.644;-2.9;-1.0;-62.07;0.0;0.0;0.0;0.0;-55.0;10.0;-33.0;4.0;-0.23;0.58;-10.66;0.53;0.31;0.83
1753880918.1032991;7.315;6.773000000000001;-0.644;-2.9;-1.0;-62.07;0.0;0.0;0.0;0.0;-55.0;10.0;-33.0;4.0;-0.23;0.57;-10.66;0.64;0.27;0.87
1753880918.1082985;7.315;6.773000000000001;-0.644;-2.9;-1.0;-62.07;0.0;0.0;0.0;0.0;-55.0;10.0;-33.0;4.0;-0.22;0.58;-10.66;0.7;0.25;0.9
1753880918.113299;7.315;6.773000000000001;-0.644;-2.9;-1.0;-62.07;0.0;0.0;0.0;0.0;-55.0;10.0;-33.0;4.0;-0.22;0.58;-10.66;0.64;0.27;0.79
1753880918.1182985;7.315;6.773000000000001;-0.644;-2.9;-1.0;-62.07;0.0;0.0;0.0;0.0;-55.0;10.0;-33.0;4.0;-0.22;0.58;-10.67;0.61;0.51;0.78
1753880918.123299;7.315;6.773000000000001;-0.644;-2.9;-1.0;-62.07;0.0;0.0;0.0;0.0;-55.0;10.0;-33.0;4.0;-0.22;0.58;-10.67;0.54;0.37;0.9
1753880918.1282988;7.315;6.773000000000001;-0.644;-2.9;-1.0;-62.07;0.0;0.0;0.0;0.0;-55.0;10.0;-33.0;4.0;-0.22;0.58;-10.67;0.73;0.38;1.03
1753880918.1332989;7.315;6.773000000000001;-0.644;-2.9;-1.0;-62.07;0.0;0.0;0.0;0.0;-55.0;10.0;-33.0;4.0;-0.21;0.58;-10.67;0.66;0.35;0.85
1753880918.1382987;7.315;6.773000000000001;-0.644;-2.9;-1.0;-62.07;0.0;0.0;0.0;0.0;-55.0;10.0;-33.0;4.0;-0.21;0.58;-10.67;0.48;0.28;0.87
1753880918.1432989;7.315;6.773000000000001;-0.644;-2.9;-1.0;-62.07;0.0;0.0;0.0;0.0;-55.0;10.0;-33.0;4.0;-0.21;0.58;-10.65;0.59;0.19;0.84
1753880918.1482987;7.315;6.773000000000001;-0.644;-2.9;-1.0;-62.07;0.0;0.0;0.0;0.0;-55.0;10.0;-33.0;4.0;-0.21;0.58;-10.65;0.64;0.41;0.77
1753880918.1532989;7.315;6.773000000000001;-0.644;-2.9;-1.0;-62.07;0.0;0.0;0.0;0.0;-55.0;10.0;-33.0;4.0;-0.22;0.58;-10.65;0.59;0.35;0.93
1753880918.158299;7.315;6.773000000000001;-0.644;-2.9;-1.0;-62.07;0.0;0.0;0.0;0.0;-55.0;10.0;-33.0;4.0;-0.22;0.58;-10.65;0.64;0.38;0.86
1753880918.1632988;7.315;6.773000000000001;-0.644;-2.9;-1.0;-62.07;0.0;0.0;0.0;0.0;-55.0;10.0;-33.0;4.0;-0.22;0.58;-10.64;0.59;0.39;0.96
1753880918.168299;7.315;6.773000000000001;-0.644;-2.9;-1.0;-62.07;0.0;0.0;0.0;0.0;-55.0;10.0;-33.0;4.0;-0.22;0.58;-10.64;0.53;0.31;0.89
1753880918.1732988;7.315;6.773000000000001;-0.644;-2.9;-1.0;-62.07;0.0;0.0;0.0;0.0;-55.0;10.0;-33.0;4.0;-0.22;0.58;-10.65;0.6;0.31;0.77
1753880918.178299;7.315;6.773000000000001;-0.644;-2.9;-1.0;-62.07;0.0;0.0;0.0;0.0;-55.0;10.0;-33.0;4.0;-0.22;0.58;-10.65;0.55;0.44;0.86
1753880918.1832988;7.315;6.773000000000001;-0.644;-2.9;-1.0;-62.07;0.0;0.0;0.0;0.0;-55.0;10.0;-33.0;4.0;-0.22;0.58;-10.64;0.69;0.32;0.83
1753880918.188299;7.315;6.773000000000001;-0.644;-2.9;-1.0;-62.07;0.0;0.0;0.0;0.0;-55.0;10.0;-33.0;4.0;-0.22;0.58;-10.64;0.47;0.21;0.9
1753880918.1932988;7.315;6.773000000000001;-0.644;-2.9;-1.0;-62.07;0.0;0.0;0.0;0.0;-55.0;10.0;-33.0;4.0;-0.22;0.58;-10.65;0.74;0.51;0.83
1753880918.198299;7.315;6.773000000000001;-0.644;-2.9;-1.0;-62.07;0.0;0.0;0.0;0.0;-55.0;10.0;-33.0;4.0;-0.22;0.59;-10.66;0.75;0.35;0.96
1753880918.2032988;7.315;6.773000000000001;-0.644;-2.9;-1.0;-62.07;0.0;0.0;0.0;0.0;-55.0;10.0;-33.0;4.0;-0.22;0.59;-10.66;0.54;0.36;0.95
1753880918.2082992;7.315;6.773000000000001;-0.644;-2.9;-1.0;-62.07;0.0;0.0;0.0;0.0;-55.0;10.0;-33.0;4.0;-0.21;0.59;-10.66;0.61;0.18;0.98
1753880918.2132986;7.315;6.773000000000001;-0.644;-2.9;-1.0;-62.07;0.0;0.0;0.0;0.0;-55.0;10.0;-33.0;4.0;-0.21;0.59;-10.66;0.55;0.29;0.84
1753880918.2182992;7.315;6.773000000000001;-0.644;-2.9;-1.0;-62.07;0.0;0.0;0.0;0.0;-55.0;10.0;-33.0;4.0;-0.21;0.59;-10.66;0.59;0.35;0.9
1753880918.2232985;7.315;6.773000000000001;-0.644;-2.9;-1.0;-62.07;0.0;0.0;0.0;0.0;-55.0;10.0;-33.0;4.0;-0.22;0.58;-10.66;0.57;0.25;0.97
1753880918.2282991;7.315;6.773000000000001;-0.644;-2.9;-1.0;-62.07;0.0;0.0;0.0;0.0;-55.0;10.0;-33.0;4.0;-0.21;0.58;-10.65;0.53;0.35;0.9
1753880918.2332985;7.315;6.773000000000001;-0.644;-2.9;-1.0;-62.07;0.0;0.0;0.0;0.0;-55.0;10.0;-33.0;4.0;-0.22;0.59;-10.65;0.72;0.28;0.9
1753880918.238299;7.315;6.773000000000001;-0.644;-2.9;-1.0;-62.07;0.0;0.0;0.0;0.0;-55.0;10.0;-33.0;4.0;-0.21;0.59;-10.66;0.74;0.48;1.02
1753880918.2432985;7.315;6.773000000000001;-0.644;-2.9;-1.0;-62.07;0.0;0.0;0.0;0.0;-55.0;10.0;-33.0;4.0;-0.22;0.58;-10.66;0.6;0.27;0.9
1753880918.248299;7.315;6.773000000000001;-0.644;-2.9;-1.0;-62.07;0.0;0.0;0.0;0.0;-55.0;10.0;-33.0;4.0;-0.22;0.58;-10.65;0.54;0.27;0.96
1753880918.2532988;7.315;6.773000000000001;-0.644;-2.9;-1.0;-62.07;0.0;0.0;0.0;0.0;-55.0;10.0;-33.0;4.0;-0.22;0.58;-10.65;0.54;0.28;0.96
1753880918.2582989;7.315;6.773000000000001;-0.644;-2.9;-1.0;-62.07;0.0;0.0;0.0;0.0;-55.0;10.0;-33.0;4.0;-0.21;0.58;-10.64;0.57;0.31;1.01
1753880918.2632987;7.315;6.773000000000001;-0.644;-2.9;-1.0;-62.07;0.0;0.0;0.0;0.0;-55.0;10.0;-33.0;4.0;-0.21;0.58;-10.64;0.61;0.28;0.9
1753880918.2682989;7.315;6.773000000000001;-0.644;-2.9;-1.0;-62.07;0.0;0.0;0.0;0.0;-55.0;10.0;-33.0;4.0;-0.21;0.57;-10.63;0.51;0.29;0.92
1753880918.273299;7.315;6.773000000000001;-0.644;-2.9;-1.0;-62.07;0.0;0.0;0.0;0.0;-55.0;10.0;-33.0;4.0;-0.2;0.59;-10.65;0.63;0.39;0.76
1753880918.278299;7.315;6.773000000000001;-0.644;-2.9;-1.0;-62.07;0.0;0.0;0.0;0.0;-55.0;10.0;-33.0;4.0;-0.22;0.58;-10.64;0.69;0.3;0.89
1753880918.2832992;7.315;6.773000000000001;-0.644;-2.9;-1.0;-62.07;0.0;0.0;0.0;0.0;-55.0;10.0;-33.0;4.0;-0.21;0.58;-10.64;0.7;0.27;0.85
1753880918.2882993;7.315;6.773000000000001;-0.644;-2.9;-1.0;-62.07;0.0;0.0;0.0;0.0;-55.0;10.0;-33.0;4.0;-0.21;0.58;-10.65;0.89;0.29;0.96
1753880918.2932994;7.315;6.773000000000001;-0.644;-2.9;-1.0;-62.07;0.0;0.0;0.0;0.0;-55.0;10.0;-33.0;4.0;-0.21;0.59;-10.63;0.94;0.31;0.85
1753880918.2982996;7.315;6.773000000000001;-0.644;-2.9;-1.0;-62.07;0.0;0.0;0.0;0.0;-55.0;10.0;-33.0;4.0;-0.22;0.6;-10.63;0.71;0.3;0.8
1753880918.3032997;7.315;6.773000000000001;-0.644;-2.9;-1.0;-62.07;0.0;0.0;0.0;0.0;-55.0;10.0;-33.0;4.0;-0.2;0.59;-10.63;0.83;0.35;0.82
1753880918.3082988;7.315;6.773000000000001;-0.644;-2.9;-1.0;-62.07;0.0;0.0;0.0;0.0;-55.0;10.0;-33.0;4.0;-0.21;0.59;-10.63;0.8;0.31;0.85
1753880918.313299;7.315;6.773000000000001;-0.644;-2.9;-1.0;-62.07;0.0;0.0;0.0;0.0;-55.0;10.0;-33.0;4.0;-0.22;0.59;-10.63;0.54;0.4;0.99
1753880918.3182988;7.315;6.773000000000001;-0.644;-2.9;-1.0;-62.07;0.0;0.0;0.0;0.0;-55.0;10.0;-33.0;4.0;-0.22;0.59;-10.64;0.57;0.32;0.78
1753880918.323299;7.315;6.773000000000001;-0.644;-2.9;-1.0;-62.07;0.0;0.0;0.0;0.0;-55.0;10.0;-33.0;4.0;-0.21;0.59;-10.64;0.5;0.41;0.93
1753880918.3282988;7.315;6.773000000000001;-0.644;-2.9;-1.0;-62.07;0.0;0.0;0.0;0.0;-55.0;10.0;-33.0;4.0;-0.22;0.59;-10.63;0.52;0.28;0.88
1753880918.3332992;7.315;6.773000000000001;-0.644;-2.9;-1.0;-62.07;0.0;0.0;0.0;0.0;-55.0;10.0;-33.0;4.0;-0.21;0.59;-10.64;0.59;0.35;0.95
1753880918.3382986;7.315;6.773000000000001;-0.644;-2.9;-1.0;-62.07;0.0;0.0;0.0;0.0;-55.0;10.0;-33.0;4.0;-0.2;0.59;-10.64;0.75;0.29;0.96
1753880918.3432992;7.315;6.773000000000001;-0.644;-2.9;-1.0;-62.07;0.0;0.0;0.0;0.0;-55.0;10.0;-33.0;4.0;-0.2;0.59;-10.63;0.48;0.48;0.98
1753880918.3482985;7.315;6.773000000000001;-0.644;-2.9;-1.0;-62.07;0.0;0.0;0.0;0.0;-55.0;10.0;-33.0;4.0;-0.2;0.58;-10.64;0.58;0.34;0.86
1753880918.3532991;7.315;6.773000000000001;-0.644;-2.9;-1.0;-62.07;0.0;0.0;0.0;0.0;-55.0;10.0;-33.0;4.0;-0.2;0.59;-10.64;0.58;0.17;0.8
1753880918.3582985;7.315;6.773000000000001;-0.644;-2.9;-1.0;-62.07;0.0;0.0;0.0;0.0;-55.0;10.0;-33.0;4.0;-0.21;0.59;-10.65;0.57;0.28;0.94
1753880918.363299;7.315;6.773000000000001;-0.644;-2.9;-1.0;-62.07;0.0;0.0;0.0;0.0;-55.0;10.0;-33.0;4.0;-0.21;0.59;-10.65;0.52;0.26;1.01
1753880918.3682985;7.315;6.773000000000001;-0.644;-2.9;-1.0;-62.07;0.0;0.0;0.0;0.0;-55.0;10.0;-33.0;4.0;-0.21;0.59;-10.65;0.58;0.19;1.04
1753880918.373299;7.315;6.773000000000001;-0.644;-2.9;-1.0;-62.07;0.0;0.0;0.0;0.0;-55.0;10.0;-33.0;4.0;-0.2;0.59;-10.66;0.63;0.3;0.86
1753880918.378299;7.315;6.773000000000001;-0.644;-2.9;-1.0;-62.07;0.0;0.0;0.0;0.0;-55.0;10.0;-33.0;4.0;-0.2;0.59;-10.65;0.57;0.33;0.7
1753880918.3832989;7.315;6.773000000000001;-0.644;-2.9;-1.0;-62.07;0.0;0.0;0.0;0.0;-55.0;10.0;-33.0;4.0;-0.2;0.59;-10.66;0.56;0.41;0.67
1753880918.3882987;7.315;6.773000000000001;-0.644;-2.9;-1.0;-62.07;0.0;0.0;0.0;0.0;-55.0;10.0;-33.0;4.0;-0.21;0.59;-10.67;0.64;0.32;0.96
1753880918.3932989;7.315;6.773000000000001;-0.644;-2.9;-1.0;-62.07;0.0;0.0;0.0;0.0;-55.0;10.0;-33.0;4.0;-0.21;0.59;-10.67;0.67;0.19;0.92
1753880918.3982987;7.315;6.773000000000001;-0.644;-2.9;-1.0;-62.07;0.0;0.0;0.0;0.0;-55.0;10.0;-33.0;4.0;-0.21;0.59;-10.67;0.67;0.29;0.94
1753880918.4032989;7.315;6.773000000000001;-0.644;-2.9;-1.0;-62.07;0.0;0.0;0.0;0.0;-55.0;10.0;-33.0;4.0;-0.21;0.58;-10.67;0.55;0.35;0.86
1753880918.408299;7.315;6.773000000000001;-0.644;-2.9;-1.0;-62.07;0.0;0.0;0.0;0.0;-55.0;10.0;-33.0;4.0;-0.21;0.58;-10.68;0.69;0.38;0.99
1753880918.4132988;7.315;6.773000000000001;-0.644;-2.9;-1.0;-62.07;0.0;0.0;0.0;0.0;-55.0;10.0;-33.0;4.0;-0.2;0.58;-10.67;0.58;0.29;0.86
1753880918.418299;7.315;6.773000000000001;-0.644;-2.9;-1.0;-62.07;0.0;0.0;0.0;0.0;-55.0;10.0;-33.0;4.0;-0.21;0.58;-10.67;0.61;0.3;0.94
1753880918.423299;7.315;6.773000000000001;-0.644;-2.9;-1.0;-62.07;0.0;0.0;0.0;0.0;-55.0;10.0;-33.0;4.0;-0.22;0.59;-10.66;0.58;0.24;0.92
1753880918.4282992;7.315;6.773000000000001;-0.644;-2.9;-1.0;-62.07;0.0;0.0;0.0;0.0;-55.0;10.0;-33.0;4.0;-0.19;0.57;-10.68;0.61;0.31;0.79
1753880918.4332988;7.315;6.773000000000001;-0.644;-2.9;-1.0;-62.07;0.0;0.0;0.0;0.0;-55.0;10.0;-33.0;4.0;-0.21;0.58;-10.66;0.61;0.35;0.81
1753880918.438299;7.315;6.773000000000001;-0.644;-2.9;-1.0;-62.07;0.0;0.0;0.0;0.0;-55.0;10.0;-33.0;4.0;-0.21;0.58;-10.66;0.64;0.36;0.97
1753880918.4432988;7.315;6.773000000000001;-0.644;-2.9;-1.0;-62.07;0.0;0.0;0.0;0.0;-55.0;10.0;-33.0;4.0;-0.21;0.58;-10.65;0.61;0.4;0.84
1753880918.448299;7.315;6.773000000000001;-0.644;-2.9;-1.0;-62.07;0.0;0.0;0.0;0.0;-55.0;10.0;-33.0;4.0;-0.21;0.58;-10.66;0.55;0.34;0.78
1753880918.4532988;7.315;6.773000000000001;-0.644;-2.9;-1.0;-62.07;0.0;0.0;0.0;0.0;-55.0;10.0;-33.0;4.0;-0.21;0.58;-10.65;0.62;0.33;0.94
1753880918.4582992;7.315;6.773000000000001;-0.644;-2.9;-1.0;-62.07;0.0;0.0;0.0;0.0;-55.0;10.0;-33.0;4.0;-0.21;0.58;-10.64;0.66;0.26;0.87
1753880918.4632986;7.315;6.773000000000001;-0.644;-2.9;-1.0;-62.07;0.0;0.0;0.0;0.0;-55.0;10.0;-33.0;4.0;-0.21;0.58;-10.64;0.54;0.31;0.81
1753880918.4682992;7.315;6.773000000000001;-0.644;-2.9;-1.0;-62.07;0.0;0.0;0.0;0.0;-55.0;10.0;-33.0;4.0;-0.21;0.59;-10.65;0.49;0.28;0.91
1753880918.4732985;7.315;6.773000000000001;-0.644;-2.9;-1.0;-62.07;0.0;0.0;0.0;0.0;-55.0;10.0;-33.0;4.0;-0.21;0.58;-10.65;0.59;0.44;0.92
1753880918.4782991;7.315;6.773000000000001;-0.644;-2.9;-1.0;-62.07;0.0;0.0;0.0;0.0;-55.0;10.0;-33.0;4.0;-0.21;0.59;-10.66;0.71;0.27;0.83
1753880918.4832985;7.315;6.773000000000001;-0.644;-2.9;-1.0;-62.07;0.0;0.0;0.0;0.0;-55.0;10.0;-33.0;4.0;-0.21;0.58;-10.66;0.53;0.28;0.98
1753880918.488299;7.315;6.773000000000001;-0.644;-2.9;-1.0;-62.07;0.0;0.0;0.0;0.0;-55.0;10.0;-33.0;4.0;-0.21;0.58;-10.65;0.57;0.32;0.95
1753880918.4932985;7.315;6.773000000000001;-0.644;-2.9;-1.0;-62.07;0.0;0.0;0.0;0.0;-55.0;10.0;-33.0;4.0;-0.2;0.58;-10.65;0.51;0.19;0.86
1753880918.498299;7.315;6.773000000000001;-0.644;-2.9;-1.0;-62.07;0.0;0.0;0.0;0.0;-55.0;10.0;-33.0;4.0;-0.2;0.58;-10.65;0.53;0.26;0.98
1753880918.5032988;7.315;6.773000000000001;-0.644;-2.9;-1.0;-62.07;0.0;0.0;0.0;0.0;-55.0;10.0;-33.0;4.0;-0.19;0.57;-10.65;0.67;0.28;0.83
1753880918.5082989;7.315;6.773000000000001;-0.644;-2.9;-1.0;-62.07;0.0;0.0;0.0;0.0;-55.0;10.0;-33.0;4.0;-0.2;0.58;-10.65;0.71;0.3;1.01
1753880918.5132987;7.315;6.773000000000001;-0.644;-2.9;-1.0;-62.07;0.0;0.0;0.0;0.0;-55.0;10.0;-33.0;4.0;-0.2;0.58;-10.66;0.56;0.21;0.96
1753880918.5182989;7.315;6.773000000000001;-0.644;-2.9;-1.0;-62.07;0.0;0.0;0.0;0.0;-55.0;10.0;-33.0;4.0;-0.2;0.58;-10.65;0.53;0.21;1.0
1753880918.523299;7.315;6.773000000000001;-0.644;-2.9;-1.0;-62.07;0.0;0.0;0.0;0.0;-55.0;10.0;-33.0;4.0;-0.2;0.58;-10.64;0.53;0.18;1.01
1753880918.528299;7.315;6.773000000000001;-0.644;-2.9;-1.0;-62.07;0.0;0.0;0.0;0.0;-55.0;10.0;-33.0;4.0;-0.2;0.58;-10.66;0.55;0.22;1.0
1753880918.5332992;7.315;6.773000000000001;-0.644;-2.9;-1.0;-62.07;0.0;0.0;0.0;0.0;-55.0;10.0;-33.0;4.0;-0.2;0.58;-10.67;0.56;0.19;0.96
1753880918.5382993;7.315;6.773000000000001;-0.644;-2.9;-1.0;-62.07;0.0;0.0;0.0;0.0;-55.0;10.0;-33.0;4.0;-0.21;0.59;-10.64;0.41;0.25;0.99
1753880918.5432994;7.315;6.773000000000001;-0.644;-2.9;-1.0;-62.07;0.0;0.0;0.0;0.0;-55.0;10.0;-33.0;4.0;-0.19;0.58;-10.66;0.52;0.14;1.03
1753880918.5482996;7.315;6.773000000000001;-0.644;-2.9;-1.0;-62.07;0.0;0.0;0.0;0.0;-55.0;10.0;-33.0;4.0;-0.2;0.58;-10.66;0.47;0.29;1.08
1753880918.5532997;7.315;6.773000000000001;-0.644;-2.9;-1.0;-62.07;0.0;0.0;0.0;0.0;-55.0;10.0;-33.0;4.0;-0.2;0.58;-10.66;0.53;0.11;0.92
1753880918.5582998;7.315;6.773000000000001;-0.644;-2.9;-1.0;-62.07;0.0;0.0;0.0;0.0;-55.0;10.0;-33.0;4.0;-0.2;0.58;-10.65;0.66;0.34;0.86
1753880918.5633;7.315;6.773000000000001;-0.644;-2.9;-1.0;-62.07;0.0;0.0;0.0;0.0;-55.0;10.0;-33.0;4.0;-0.21;0.58;-10.67;0.61;0.27;1.04
1753880918.5683;7.315;6.773000000000001;-0.644;-2.9;-1.0;-62.07;0.0;0.0;0.0;0.0;-55.0;10.0;-33.0;4.0;-0.2;0.57;-10.67;0.45;0.28;0.83
1753880918.5733001;7.315;6.773000000000001;-0.644;-2.9;-1.0;-62.07;0.0;0.0;0.0;0.0;-55.0;10.0;-33.0;4.0;-0.21;0.59;-10.67;0.47;0.22;0.96
1753880918.5783002;7.315;6.773000000000001;-0.644;-2.9;-1.0;-62.07;0.0;0.0;0.0;0.0;-55.0;10.0;-33.0;4.0;-0.22;0.58;-10.65;0.56;0.35;1.01
1753880918.5833004;7.315;6.773000000000001;-0.644;-2.9;-1.0;-62.07;0.0;0.0;0.0;0.0;-55.0;10.0;-33.0;4.0;-0.21;0.58;-10.67;0.63;0.22;0.82
1753880918.5883005;7.315;6.773000000000001;-0.644;-2.9;-1.0;-62.07;0.0;0.0;0.0;0.0;-55.0;10.0;-33.0;4.0;-0.22;0.57;-10.65;0.68;0.09;0.83
1753880918.5933006;7.315;6.773000000000001;-0.644;-2.9;-1.0;-62.07;0.0;0.0;0.0;0.0;-55.0;10.0;-33.0;4.0;-0.21;0.58;-10.66;0.46;0.21;0.94
1753880918.5983007;7.315;6.773000000000001;-0.644;-2.9;-1.0;-62.07;0.0;0.0;0.0;0.0;-55.0;10.0;-33.0;4.0;-0.21;0.58;-10.66;0.56;0.12;1.0
1753880918.6033008;7.315;6.773000000000001;-0.644;-2.9;-1.0;-62.07;0.0;0.0;0.0;0.0;-55.0;10.0;-33.0;4.0;-0.21;0.58;-10.66;0.51;0.22;0.83
1753880918.608301;7.315;6.773000000000001;-0.644;-2.9;-1.0;-62.07;0.0;0.0;0.0;0.0;-55.0;10.0;-33.0;4.0;-0.22;0.58;-10.65;0.52;0.24;0.89
1753880918.613301;7.315;6.773000000000001;-0.644;-2.9;-1.0;-62.07;0.0;0.0;0.0;0.0;-55.0;10.0;-33.0;4.0;-0.22;0.58;-10.65;0.51;0.28;1.0
1753880918.6183012;7.315;6.773000000000001;-0.644;-2.9;-1.0;-62.07;0.0;0.0;0.0;0.0;-55.0;10.0;-33.0;4.0;-0.23;0.58;-10.65;0.61;0.18;0.92
1753880918.6233013;7.315;6.773000000000001;-0.644;-2.9;-1.0;-62.07;0.0;0.0;0.0;0.0;-55.0;10.0;-33.0;4.0;-0.23;0.58;-10.66;0.61;0.28;0.9
1753880918.6283014;7.315;6.773000000000001;-0.644;-2.9;-1.0;-62.07;0.0;0.0;0.0;0.0;-55.0;10.0;-33.0;4.0;-0.22;0.58;-10.67;0.53;0.23;0.93
1753880918.6333015;7.315;6.773000000000001;-0.644;-2.9;-1.0;-62.07;0.0;0.0;0.0;0.0;-55.0;10.0;-33.0;4.0;-0.22;0.58;-10.66;0.51;0.17;0.93
1753880918.6383016;7.315;6.773000000000001;-0.644;-2.9;-1.0;-62.07;0.0;0.0;0.0;0.0;-55.0;10.0;-33.0;4.0;-0.23;0.58;-10.63;0.54;0.23;0.86
1753880918.6433017;7.315;6.773000000000001;-0.644;-2.9;-1.0;-62.07;0.0;0.0;0.0;0.0;-55.0;10.0;-33.0;4.0;-0.22;0.58;-10.66;0.6;0.26;0.98
1753880918.6483018;7.315;6.773000000000001;-0.644;-2.9;-1.0;-62.07;0.0;0.0;0.0;0.0;-55.0;10.0;-33.0;4.0;-0.22;0.58;-10.66;0.53;0.24;0.91
1753880918.653302;7.315;6.773000000000001;-0.644;-2.9;-1.0;-62.07;0.0;0.0;0.0;0.0;-55.0;10.0;-33.0;4.0;-0.24;0.57;-10.65;0.6;0.2;1.03
1753880918.658302;7.315;6.773000000000001;-0.644;-2.9;-1.0;-62.07;0.0;0.0;0.0;0.0;-55.0;10.0;-33.0;4.0;-0.23;0.58;-10.65;0.66;0.26;0.88
1753880918.6633022;7.315;6.773000000000001;-0.644;-2.9;-1.0;-62.07;0.0;0.0;0.0;0.0;-55.0;10.0;-33.0;4.0;-0.25;0.58;-10.66;0.48;0.23;0.91
1753880918.6683023;7.315;6.773000000000001;-0.644;-2.9;-1.0;-62.07;0.0;0.0;0.0;0.0;-55.0;10.0;-33.0;4.0;-0.22;0.58;-10.66;0.49;0.22;0.93
1753880918.6733024;7.315;6.773000000000001;-0.644;-2.9;-1.0;-62.07;0.0;0.0;0.0;0.0;-55.0;10.0;-33.0;4.0;-0.24;0.58;-10.64;0.52;0.26;0.88
1753880918.678299;7.315;6.773000000000001;-0.644;-2.9;-1.0;-62.07;0.0;0.0;0.0;0.0;-55.0;10.0;-33.0;4.0;-0.23;0.58;-10.65;0.56;0.25;0.93
1753880918.6832988;7.315;6.773000000000001;-0.644;-2.9;-1.0;-62.07;0.0;0.0;0.0;0.0;-55.0;10.0;-33.0;4.0;-0.22;0.58;-10.64;0.6;0.29;0.91
1753880918.688299;7.315;6.773000000000001;-0.644;-2.91;-1.0;-62.07;0.0;0.0;0.0;0.0;-54.8;12.5;-32.3;4.2;-0.21;0.58;-10.65;0.57;0.41;0.91
1753880918.693299;7.315;6.773000000000001;-0.644;-2.89;-1.0;-62.07;0.0;0.0;0.0;0.0;-55.4;8.8;-30.8;4.4;-0.23;0.58;-10.64;0.62;0.15;0.9
1753880918.6982992;7.315;6.773000000000001;-0.644;-2.89;-1.0;-62.07;0.0;0.0;0.0;0.0;-55.2;11.8;-33.0;4.5;-0.23;0.59;-10.65;0.73;0.3;0.8
1753880918.7032993;7.315;6.773000000000001;-0.644;-2.9;-1.0;-62.07;0.0;0.0;0.0;0.0;-54.8;11.8;-33.4;4.3;-0.21;0.58;-10.64;0.63;0.23;0.93
1753880918.7082994;7.315;6.773000000000001;-0.644;-2.9;-1.0;-62.07;0.0;0.0;0.0;0.0;-54.7;9.4;-31.0;4.0;-0.21;0.58;-10.63;0.57;0.25;0.97
1753880918.7132995;7.315;6.773000000000001;-0.644;-2.88;-1.0;-62.07;0.0;0.0;0.0;0.0;-54.8;10.8;-32.1;4.4;-0.2;0.58;-10.64;0.62;0.3;0.93
1753880918.7182996;7.315;6.773000000000001;-0.644;-2.88;-1.0;-62.07;0.0;0.0;0.0;0.0;-54.5;12.5;-32.3;4.4;-0.22;0.57;-10.65;0.45;0.36;0.87
1753880918.7232997;7.315;6.773000000000001;-0.644;-2.9;-1.0;-62.07;0.0;0.0;0.0;0.0;-54.7;13.0;-32.4;4.4;-0.23;0.58;-10.64;0.62;0.21;0.93
1753880918.7282999;7.315;6.773000000000001;-0.644;-2.89;-1.0;-62.07;0.0;0.0;0.0;0.0;-54.8;10.8;-33.1;4.6;-0.23;0.58;-10.64;0.61;0.2;0.84
1753880918.7333;7.315;6.773000000000001;-0.644;-2.87;-1.0;-62.07;0.0;0.0;0.0;0.0;-54.5;10.5;-30.2;4.6;-0.21;0.58;-10.64;0.47;0.38;0.98
1753880918.7383;7.315;6.773000000000001;-0.644;-2.88;-1.0;-62.07;0.0;0.0;0.0;0.0;-54.5;10.3;-32.0;4.6;-0.2;0.58;-10.63;0.51;0.24;0.95
1753880918.7433002;7.315;6.773000000000001;-0.644;-2.88;-1.0;-62.07;0.0;0.0;0.0;0.0;-54.7;11.0;-30.3;4.6;-0.2;0.58;-10.66;0.62;0.32;0.97
1753880918.7483003;7.315;6.773000000000001;-0.644;-2.89;-1.0;-62.07;0.0;0.0;0.0;0.0;-54.4;10.3;-32.9;4.5;-0.21;0.58;-10.64;0.53;0.25;0.84
1753880918.7533004;7.315;6.773000000000001;-0.644;-2.88;-1.0;-62.07;0.0;0.0;0.0;0.0;-54.5;11.1;-29.5;4.3;-0.21;0.58;-10.65;0.54;0.31;0.91
1753880918.7583005;7.315;6.773000000000001;-0.644;-2.88;-1.0;-62.07;0.0;0.0;0.0;0.0;-54.7;12.2;-31.0;4.5;-0.23;0.58;-10.65;0.58;0.24;0.93
1753880918.7633007;7.315;6.773000000000001;-0.644;-2.89;-1.0;-62.07;0.0;0.0;0.0;0.0;-54.2;12.3;-29.7;4.6;-0.2;0.58;-10.65;0.51;0.31;1.0
1753880918.7683008;7.315;6.773000000000001;-0.644;-2.87;-1.0;-62.07;0.0;0.0;0.0;0.0;-54.1;12.8;-29.6;4.7;-0.21;0.58;-10.65;0.49;0.21;0.95
1753880918.773301;7.315;6.773000000000001;-0.644;-2.89;-1.0;-62.07;0.0;0.0;0.0;0.0;-53.9;15.8;-30.7;4.8;-0.22;0.58;-10.63;0.65;0.13;0.87
1753880918.778301;7.315;6.773000000000001;-0.644;-2.87;-1.0;-62.07;0.0;0.0;0.0;0.0;-54.6;13.6;-28.0;4.6;-0.21;0.57;-10.63;0.54;0.19;0.97
1753880918.783301;7.315;6.773000000000001;-0.644;-2.88;-1.0;-62.07;0.0;0.0;0.0;0.0;-54.1;16.0;-28.0;4.6;-0.21;0.58;-10.64;0.52;0.25;0.83
1753880918.7883012;7.315;6.773000000000001;-0.644;-2.88;-1.0;-62.07;0.0;0.0;0.0;0.0;-54.3;13.5;-27.6;4.6;-0.21;0.58;-10.64;0.54;0.24;0.85
1753880918.7933013;7.315;6.773000000000001;-0.644;-2.87;-1.0;-62.07;0.0;0.0;0.0;0.0;-54.4;12.9;-26.8;4.7;-0.21;0.58;-10.65;0.53;0.21;0.94
1753880918.7983015;7.315;6.773000000000001;-0.644;-2.87;-1.0;-62.07;0.0;0.0;0.0;0.0;-54.1;15.0;-31.5;5.1;-0.19;0.58;-10.65;0.5;0.13;0.87
1753880918.8033016;7.315;6.773000000000001;-0.644;-2.87;-1.0;-62.07;0.0;0.0;0.0;0.0;-53.9;14.2;-26.6;4.4;-0.21;0.58;-10.65;0.54;0.21;0.99
1753880918.8083017;7.315;6.773000000000001;-0.644;-2.85;-1.0;-62.07;0.0;0.0;0.0;0.0;-54.2;15.8;-25.7;4.9;-0.21;0.58;-10.65;0.59;0.19;1.0
1753880918.8133018;7.315;6.773000000000001;-0.644;-2.85;-1.0;-62.07;0.0;0.0;0.0;0.0;-54.6;15.8;-28.5;4.9;-0.21;0.58;-10.65;0.53;0.23;0.87
1753880918.818302;7.315;6.773000000000001;-0.644;-2.88;-1.0;-62.07;0.0;0.0;0.0;0.0;-54.3;16.6;-25.6;4.4;-0.21;0.58;-10.66;0.63;0.07;0.85
1753880918.823302;7.315;6.773000000000001;-0.644;-2.85;-1.0;-62.07;0.0;0.0;0.0;0.0;-53.7;16.0;-29.6;4.5;-0.21;0.59;-10.66;0.54;0.12;0.87
1753880918.8283021;7.315;6.773000000000001;-0.644;-2.87;-1.0;-62.07;0.0;0.0;0.0;0.0;-54.1;17.5;-26.7;4.7;-0.21;0.57;-10.66;0.46;0.15;0.95
1753880918.8332992;7.315;6.773000000000001;-0.644;-2.86;-1.0;-62.07;0.0;0.0;0.0;0.0;-54.0;16.0;-26.0;5.0;-0.2;0.58;-10.65;0.51;0.16;0.94
1753880918.8382986;7.315;6.773000000000001;-0.644;-2.86;-1.0;-62.07;0.0;0.0;0.0;0.0;-54.0;16.0;-26.0;5.0;-0.2;0.58;-10.65;0.64;0.45;0.86
1753880918.8432992;7.315;6.773000000000001;-0.644;-2.86;-1.0;-62.07;0.0;0.0;0.0;0.0;-54.0;16.0;-26.0;5.0;-0.21;0.58;-10.66;0.66;0.31;1.0
1753880918.8482985;7.315;6.773000000000001;-0.644;-2.86;-1.0;-62.07;0.0;0.0;0.0;0.0;-54.0;16.0;-26.0;5.0;-0.21;0.58;-10.66;0.5;0.26;0.98
1753880918.8532991;7.315;6.773000000000001;-0.644;-2.86;-1.0;-62.07;0.0;0.0;0.0;0.0;-54.0;16.0;-26.0;5.0;-0.21;0.59;-10.66;0.59;0.32;0.88
1753880918.8582985;7.315;6.773000000000001;-0.644;-2.86;-1.0;-62.07;0.0;0.0;0.0;0.0;-54.0;16.0;-26.0;5.0;-0.21;0.59;-10.67;0.69;0.36;0.87
1753880918.863299;7.315;6.773000000000001;-0.644;-2.86;-1.0;-62.07;0.0;0.0;0.0;0.0;-54.0;16.0;-26.0;5.0;-0.22;0.59;-10.67;0.68;0.34;0.99
1753880918.8682985;7.315;6.773000000000001;-0.644;-2.86;-1.0;-62.07;0.0;0.0;0.0;0.0;-54.0;16.0;-26.0;5.0;-0.21;0.59;-10.66;0.54;0.35;0.96
1753880918.873299;7.315;6.773000000000001;-0.644;-2.86;-1.0;-62.07;0.0;0.0;0.0;0.0;-54.0;16.0;-26.0;5.0;-0.21;0.59;-10.66;0.56;0.36;1.0
1753880918.8782988;7.315;6.773000000000001;-0.644;-2.86;-1.0;-62.07;0.0;0.0;0.0;0.0;-54.0;16.0;-26.0;5.0;-0.22;0.59;-10.67;0.61;0.25;0.96
1753880918.8832989;7.315;6.773000000000001;-0.644;-2.86;-1.0;-62.07;0.0;0.0;0.0;0.0;-54.0;16.0;-26.0;5.0;-0.21;0.58;-10.67;0.57;0.33;1.0
1753880918.8882987;7.315;6.773000000000001;-0.644;-2.86;-1.0;-62.07;0.0;0.0;0.0;0.0;-54.0;16.0;-26.0;5.0;-0.21;0.58;-10.67;0.54;0.22;0.93
1753880918.8932989;7.315;6.773000000000001;-0.644;-2.85;-1.0;-62.07;0.0;0.0;0.0;0.0;-54.3;13.9;-32.8;5.2;-0.23;0.57;-10.64;0.49;0.04;1.06
1753880918.8982987;7.315;6.773000000000001;-0.644;-2.86;-1.0;-62.07;0.0;0.0;0.0;0.0;-54.0;16.0;-26.0;5.0;-0.21;0.57;-10.66;0.52;0.35;1.12
1753880918.9032989;7.315;6.773000000000001;-0.644;-2.86;-1.0;-62.07;0.0;0.0;0.0;0.0;-54.0;16.0;-26.0;5.0;-0.2;0.57;-10.66;0.57;0.25;0.91
1753880918.908299;7.315;6.773000000000001;-0.644;-2.86;-1.0;-62.07;0.0;0.0;0.0;0.0;-54.0;16.0;-26.0;5.0;-0.2;0.56;-10.66;0.57;0.38;1.04
1753880918.9132988;7.315;6.773000000000001;-0.644;-2.86;-1.0;-62.07;0.0;0.0;0.0;0.0;-54.0;16.0;-26.0;5.0;-0.2;0.55;-10.65;0.64;0.24;0.96
1753880918.918299;7.315;6.773000000000001;-0.644;-2.86;-1.0;-62.07;0.0;0.0;0.0;0.0;-54.0;16.0;-26.0;5.0;-0.2;0.55;-10.64;0.51;0.36;1.19
1753880918.9232988;7.315;6.773000000000001;-0.644;-2.86;-1.0;-62.07;0.0;0.0;0.0;0.0;-54.0;16.0;-26.0;5.0;-0.18;0.53;-10.63;0.5;0.45;1.56
1753880918.928299;7.315;6.773000000000001;-0.644;-2.86;-1.0;-62.07;0.0;0.0;0.0;0.0;-54.0;16.0;-26.0;5.0;-0.16;0.49;-10.65;0.77;0.23;0.94
1753880918.9332988;7.315;6.773000000000001;-0.644;-2.86;-1.0;-62.07;0.0;0.0;0.0;0.0;-54.0;16.0;-26.0;5.0;-0.14;0.48;-10.67;0.58;0.19;0.97
1753880918.938299;7.315;6.773000000000001;-0.644;-2.86;-1.0;-62.07;0.0;0.0;0.0;0.0;-54.0;16.0;-26.0;5.0;-0.11;0.49;-10.65;0.61;0.3;1.73
1753880918.9432988;7.315;6.773000000000001;-0.644;-2.86;-1.0;-62.07;0.0;0.0;0.0;0.0;-54.0;16.0;-26.0;5.0;-0.08;0.47;-10.62;0.68;0.29;1.51
1753880918.948299;7.315;6.773000000000001;-0.644;-2.86;-1.0;-62.07;0.0;0.0;0.0;0.0;-54.0;16.0;-26.0;5.0;-0.04;0.45;-10.63;0.74;0.32;0.9
1753880918.9532988;7.315;6.773000000000001;-0.644;-2.86;-1.0;-62.07;0.0;0.0;0.0;0.0;-54.0;16.0;-26.0;5.0;0.01;0.44;-10.63;0.57;0.17;1.75
1753880918.9582992;7.315;6.773000000000001;-0.644;-2.86;-1.0;-62.07;0.0;0.0;0.0;0.0;-54.0;16.0;-26.0;5.0;0.06;0.4;-10.63;0.67;0.18;1.99
1753880918.9632986;7.315;6.773000000000001;-0.644;-2.86;-1.0;-62.07;0.0;0.0;0.0;0.0;-54.0;16.0;-26.0;5.0;0.09;0.37;-10.67;0.7;0.49;1.22
1753880918.9682992;7.315;6.773000000000001;-0.644;-2.86;-1.0;-62.07;0.0;0.0;0.0;0.0;-54.0;16.0;-26.0;5.0;0.15;0.36;-10.64;0.68;0.43;1.9
1753880918.9732985;7.315;6.773000000000001;-0.644;-2.86;-1.0;-62.07;0.0;0.0;0.0;0.0;-54.0;16.0;-26.0;5.0;0.2;0.37;-10.63;0.77;0.19;2.1
1753880918.9782991;7.315;6.773000000000001;-0.644;-2.86;-1.0;-62.07;0.0;0.0;0.0;0.0;-54.0;16.0;-26.0;5.0;0.25;0.42;-10.68;0.68;0.38;2.28
1753880918.9832985;7.315;6.773000000000001;-0.644;-2.86;-1.0;-62.07;0.0;0.0;0.0;0.0;-54.0;16.0;-26.0;5.0;0.29;0.46;-10.69;0.51;0.19;1.99
1753880918.988299;7.315;6.773000000000001;-0.644;-2.86;-1.0;-62.07;0.0;0.0;0.0;0.0;-54.0;16.0;-26.0;5.0;0.34;0.48;-10.65;0.55;0.43;1.73
1753880918.9932985;7.315;6.773000000000001;-0.644;-2.86;-1.0;-62.07;0.0;0.0;0.0;0.0;-54.0;16.0;-26.0;5.0;0.37;0.49;-10.66;0.63;0.33;1.62
1753880918.998299;7.315;6.773000000000001;-0.644;-2.86;-1.0;-62.07;0.0;0.0;0.0;0.0;-54.0;16.0;-26.0;5.0;0.41;0.53;-10.68;0.68;0.0;1.9
1753880919.0032988;7.315;6.773000000000001;-0.644;-2.86;-1.0;-62.07;0.0;0.0;0.0;0.0;-54.0;16.0;-26.0;5.0;0.43;0.58;-10.67;0.72;0.34;1.29
1753880919.0082989;7.315;6.773000000000001;-0.644;-2.86;-1.0;-62.07;0.0;0.0;0.0;0.0;-54.0;16.0;-26.0;5.0;0.42;0.62;-10.67;0.56;0.45;1.07
1753880919.0132987;7.315;6.773000000000001;-0.644;-2.86;-1.0;-62.07;0.0;0.0;0.0;0.0;-54.0;16.0;-26.0;5.0;0.43;0.7;-10.68;0.59;0.16;1.73
1753880919.0182989;7.315;6.773000000000001;-0.644;-2.86;-1.0;-62.07;0.0;0.0;0.0;0.0;-54.0;16.0;-26.0;5.0;0.45;0.76;-10.65;0.7;0.16;0.8
1753880919.0232987;7.315;6.773000000000001;-0.644;-2.86;-1.0;-62.07;0.0;0.0;0.0;0.0;-54.0;16.0;-26.0;5.0;0.43;0.79;-10.66;0.77;0.43;0.58
1753880919.0282989;7.315;6.773000000000001;-0.644;-2.86;-1.0;-62.07;0.0;0.0;0.0;0.0;-54.0;16.0;-26.0;5.0;0.43;0.8;-10.67;0.81;0.33;1.31
1753880919.033299;7.315;6.773000000000001;-0.644;-2.86;-1.0;-62.07;0.0;0.0;0.0;0.0;-54.0;16.0;-26.0;5.0;0.41;0.78;-10.67;0.77;0.27;0.91
1753880919.0382988;7.315;6.773000000000001;-0.644;-2.86;-1.0;-62.07;0.0;0.0;0.0;0.0;-54.0;16.0;-26.0;5.0;0.38;0.76;-10.65;0.63;0.37;0.14
1753880919.043299;7.315;6.773000000000001;-0.644;-2.86;-1.0;-62.07;0.0;0.0;0.0;0.0;-54.0;16.0;-26.0;5.0;0.36;0.76;-10.64;0.57;0.34;1.17
1753880919.0482988;7.315;6.773000000000001;-0.644;-2.86;-1.0;-62.07;0.0;0.0;0.0;0.0;-54.0;16.0;-26.0;5.0;0.34;0.74;-10.64;0.68;0.24;1.45
1753880919.053299;7.315;6.773000000000001;-0.644;-2.86;-1.0;-62.07;0.0;0.0;0.0;0.0;-54.0;16.0;-26.0;5.0;0.29;0.67;-10.65;0.59;0.48;0.29
1753880919.0582988;7.315;6.773000000000001;-0.644;-2.86;-1.0;-62.07;0.0;0.0;0.0;0.0;-54.0;16.0;-26.0;5.0;0.25;0.66;-10.65;0.77;0.37;0.87
1753880919.063299;7.315;6.773000000000001;-0.644;-2.86;-1.0;-62.07;0.0;0.0;0.0;0.0;-54.0;16.0;-26.0;5.0;0.21;0.64;-10.66;0.61;0.33;1.28
1753880919.0682988;7.315;6.773000000000001;-0.644;-2.86;-1.0;-62.07;0.0;0.0;0.0;0.0;-54.0;16.0;-26.0;5.0;0.17;0.59;-10.67;0.56;0.25;0.24
1753880919.073299;7.315;6.773000000000001;-0.644;-2.86;-1.0;-62.07;0.0;0.0;0.0;0.0;-54.0;16.0;-26.0;5.0;0.12;0.59;-10.66;0.64;0.13;0.16
1753880919.0782988;7.315;6.773000000000001;-0.644;-2.86;-1.0;-62.07;0.0;0.0;0.0;0.0;-54.0;16.0;-26.0;5.0;0.08;0.59;-10.65;0.61;0.25;1.09
1753880919.0832992;7.315;6.773000000000001;-0.644;-2.86;-1.0;-62.07;0.0;0.0;0.0;0.0;-54.0;16.0;-26.0;5.0;0.03;0.56;-10.66;0.62;0.48;-0.03
1753880919.0882986;7.315;6.773000000000001;-0.644;-2.86;-1.0;-62.07;0.0;0.0;0.0;0.0;-54.0;16.0;-26.0;5.0;-0.01;0.57;-10.64;0.57;0.43;-0.59
1753880919.0932992;7.315;6.773000000000001;-0.644;-2.86;-1.0;-62.07;0.0;0.0;0.0;0.0;-54.0;16.0;-26.0;5.0;-0.03;0.6;-10.62;0.51;0.06;0.75
1753880919.0982985;7.315;6.773000000000001;-0.644;-2.86;-1.0;-62.07;0.0;0.0;0.0;0.0;-54.0;16.0;-26.0;5.0;-0.08;0.56;-10.65;0.48;0.35;0.04
1753880919.1032991;7.315;6.773000000000001;-0.644;-2.86;-1.0;-62.07;0.0;0.0;0.0;0.0;-54.0;16.0;-26.0;5.0;-0.14;0.54;-10.67;0.64;0.48;-1.07
1753880919.1082993;7.315;6.773000000000001;-0.644;-2.86;-1.0;-62.07;0.0;0.0;0.0;0.0;-54.0;16.0;-26.0;5.0;-0.3;0.5;-10.64;0.58;0.76;-1.52
1753880919.1132994;7.315;6.773000000000001;-0.644;-2.86;-1.0;-62.07;0.0;0.0;0.0;0.0;-54.0;16.0;-26.0;5.0;0.07;0.61;-10.68;0.72;0.5;-0.3
1753880919.1182995;7.315;6.773000000000001;-0.644;-2.86;-1.0;-62.07;0.0;0.0;0.0;0.0;-54.0;16.0;-26.0;5.0;-0.35;0.45;-10.67;0.42;0.39;-0.58
1753880919.1232996;7.315;6.773000000000001;-0.644;-2.86;-1.0;-62.07;0.0;0.0;0.0;0.0;-54.0;16.0;-26.0;5.0;-0.43;0.55;-10.66;0.53;0.35;-0.28
1753880919.1282997;7.315;6.773000000000001;-0.644;-2.86;-1.0;-62.07;0.0;0.0;0.0;0.0;-54.0;16.0;-26.0;5.0;-0.1;0.57;-10.66;0.73;0.16;-1.14
1753880919.1332998;7.315;6.773000000000001;-0.644;-2.86;-1.0;-62.07;0.0;0.0;0.0;0.0;-54.0;16.0;-26.0;5.0;0.17;0.49;-10.64;0.52;0.25;0.25
1753880919.1383;7.315;6.773000000000001;-0.644;-2.86;-1.0;-62.07;0.0;0.0;0.0;0.0;-54.0;16.0;-26.0;5.0;-0.23;0.84;-10.66;0.7;0.31;-0.36
1753880919.1433;7.315;6.773000000000001;-0.644;-2.86;-1.0;-62.07;0.0;0.0;0.0;0.0;-54.0;16.0;-26.0;5.0;-0.47;0.55;-10.68;0.61;0.55;0.88
1753880919.1483002;7.315;6.773000000000001;-0.644;-2.86;-1.0;-62.07;0.0;0.0;0.0;0.0;-54.0;16.0;-26.0;5.0;-0.36;0.59;-10.66;0.61;0.67;0.34
1753880919.1533003;7.315;6.773000000000001;-0.644;-2.86;-1.0;-62.07;0.0;0.0;0.0;0.0;-54.0;16.0;-26.0;5.0;-0.33;0.71;-10.65;0.5;0.29;-0.07
1753880919.1583004;7.315;6.773000000000001;-0.644;-2.86;-1.0;-62.07;0.0;0.0;0.0;0.0;-54.0;16.0;-26.0;5.0;0.01;0.63;-10.66;0.68;0.22;1.18
1753880919.1633005;7.315;6.773000000000001;-0.644;-2.86;-1.0;-62.07;0.0;0.0;0.0;0.0;-54.0;16.0;-26.0;5.0;-0.04;0.49;-10.64;0.68;0.31;0.92
1753880919.1683006;7.315;6.773000000000001;-0.644;-2.86;-1.0;-62.07;0.0;0.0;0.0;0.0;-54.0;16.0;-26.0;5.0;-0.42;0.67;-10.66;0.48;0.16;0.29
1753880919.1733007;7.315;6.773000000000001;-0.644;-2.86;-1.0;-62.07;0.0;0.0;0.0;0.0;-54.0;16.0;-26.0;5.0;-0.04;0.67;-10.68;0.65;0.26;0.41
1753880919.1783009;7.315;6.773000000000001;-0.644;-2.86;-1.0;-62.07;0.0;0.0;0.0;0.0;-54.0;16.0;-26.0;5.0;-0.32;0.62;-10.7;0.57;0.19;0.72
1753880919.183301;7.315;6.773000000000001;-0.644;-2.86;-1.0;-62.07;0.0;0.0;0.0;0.0;-54.0;16.0;-26.0;5.0;-0.51;0.88;-10.66;0.7;0.17;0.38
1753880919.188301;7.315;6.773000000000001;-0.644;-2.86;-1.0;-62.07;0.0;0.0;0.0;0.0;-54.0;16.0;-26.0;5.0;-0.24;0.8;-10.68;0.56;0.33;0.59
1753880919.1933012;7.315;6.773000000000001;-0.644;-2.86;-1.0;-62.07;0.0;0.0;0.0;0.0;-54.0;16.0;-26.0;5.0;-0.71;0.81;-10.69;0.64;0.21;0.71
1753880919.1983013;7.315;6.773000000000001;-0.644;-2.86;-1.0;-62.07;0.0;0.0;0.0;0.0;-54.0;16.0;-26.0;5.0;0.15;0.85;-10.69;0.47;0.34;0.22
1753880919.2032988;7.315;6.773000000000001;-0.644;-2.86;-1.0;-62.07;0.0;0.0;0.0;0.0;-54.0;16.0;-26.0;5.0;-0.49;0.78;-10.67;0.57;0.25;0.89
1753880919.2082992;7.315;6.773000000000001;-0.644;-2.86;-1.0;-62.07;0.0;0.0;0.0;0.0;-54.0;16.0;-26.0;5.0;-0.47;0.8;-10.66;0.7;0.41;0.67
1753880919.2132986;7.315;6.773000000000001;-0.644;-2.86;-1.0;-62.07;0.0;0.0;0.0;0.0;-54.0;16.0;-26.0;5.0;-0.47;0.78;-10.67;0.75;0.42;0.51
1753880919.2182992;7.315;6.773000000000001;-0.644;-2.86;-1.0;-62.07;0.0;0.0;0.0;0.0;-54.0;16.0;-26.0;5.0;-0.43;0.8;-10.67;0.63;0.41;0.83
1753880919.2232985;7.315;6.773000000000001;-0.644;-2.86;-1.0;-62.07;0.0;0.0;0.0;0.0;-54.0;16.0;-26.0;5.0;-0.39;0.83;-10.67;0.6;0.32;0.74
1753880919.2282991;7.315;6.773000000000001;-0.644;-2.86;-1.0;-62.07;0.0;0.0;0.0;0.0;-54.0;16.0;-26.0;5.0;-0.39;0.79;-10.67;0.64;0.38;0.65
1753880919.2332985;7.315;6.773000000000001;-0.644;-2.86;-1.0;-62.07;0.0;0.0;0.0;0.0;-54.0;16.0;-26.0;5.0;-0.36;0.76;-10.67;0.53;0.48;0.45
1753880919.238299;7.315;6.773000000000001;-0.644;-2.86;-1.0;-62.07;0.0;0.0;0.0;0.0;-54.0;16.0;-26.0;5.0;-0.32;0.75;-10.67;0.57;0.27;0.54
1753880919.2432985;7.315;6.773000000000001;-0.644;-2.86;-1.0;-62.07;0.0;0.0;0.0;0.0;-54.0;16.0;-26.0;5.0;-0.29;0.74;-10.66;0.57;0.38;0.57
1753880919.248299;7.315;6.773000000000001;-0.644;-2.86;-1.0;-62.07;0.0;0.0;0.0;0.0;-54.0;16.0;-26.0;5.0;-0.28;0.72;-10.66;0.7;0.33;0.48
1753880919.2532988;7.315;6.773000000000001;-0.644;-2.86;-1.0;-62.07;0.0;0.0;0.0;0.0;-54.0;16.0;-26.0;5.0;-0.25;0.7;-10.65;0.7;0.2;0.6
1753880919.2582989;7.315;6.773000000000001;-0.644;-2.86;-1.0;-62.07;0.0;0.0;0.0;0.0;-54.0;16.0;-26.0;5.0;-0.22;0.69;-10.65;0.61;0.44;0.64
1753880919.2632987;7.315;6.773000000000001;-0.644;-2.86;-1.0;-62.07;0.0;0.0;0.0;0.0;-54.0;16.0;-26.0;5.0;-0.2;0.67;-10.65;0.61;0.41;0.53
1753880919.2682989;7.315;6.773000000000001;-0.644;-2.86;-1.0;-62.07;0.0;0.0;0.0;0.0;-54.0;16.0;-26.0;5.0;-0.17;0.66;-10.65;0.65;0.32;0.51
1753880919.2732987;7.315;6.773000000000001;-0.644;-2.86;-1.0;-62.07;0.0;0.0;0.0;0.0;-54.0;16.0;-26.0;5.0;-0.16;0.63;-10.66;0.6;0.37;0.57
1753880919.2782989;7.315;6.773000000000001;-0.644;-2.86;-1.0;-62.07;0.0;0.0;0.0;0.0;-54.0;16.0;-26.0;5.0;-0.14;0.61;-10.65;0.53;0.41;0.58
1753880919.283299;7.315;6.773000000000001;-0.644;-2.86;-1.0;-62.07;0.0;0.0;0.0;0.0;-54.0;16.0;-26.0;5.0;-0.13;0.61;-10.66;0.65;0.55;0.47
1753880919.2882988;7.315;6.773000000000001;-0.644;-2.86;-1.0;-62.07;0.0;0.0;0.0;0.0;-54.0;16.0;-26.0;5.0;-0.12;0.61;-10.65;0.61;0.28;0.77
1753880919.293299;7.315;6.773000000000001;-0.644;-2.86;-1.0;-62.07;0.0;0.0;0.0;0.0;-54.0;16.0;-26.0;5.0;-0.12;0.59;-10.64;0.7;0.27;0.42
1753880919.2982988;7.315;6.773000000000001;-0.644;-2.86;-1.0;-62.07;0.0;0.0;0.0;0.0;-54.0;16.0;-26.0;5.0;-0.12;0.57;-10.63;0.61;0.45;0.67
1753880919.303299;7.315;6.773000000000001;-0.644;-2.86;-1.0;-62.07;0.0;0.0;0.0;0.0;-54.0;16.0;-26.0;5.0;-0.1;0.55;-10.65;0.71;0.24;0.67
1753880919.3082988;7.315;6.773000000000001;-0.644;-2.86;-1.0;-62.07;0.0;0.0;0.0;0.0;-54.0;16.0;-26.0;5.0;-0.08;0.53;-10.67;0.7;0.28;0.56
1753880919.313299;7.315;6.773000000000001;-0.644;-2.86;-1.0;-62.07;0.0;0.0;0.0;0.0;-54.0;16.0;-26.0;5.0;-0.08;0.51;-10.67;0.77;0.23;0.76
1753880919.3182988;7.315;6.773000000000001;-0.644;-2.86;-1.0;-62.07;0.0;0.0;0.0;0.0;-54.0;16.0;-26.0;5.0;-0.07;0.49;-10.66;0.73;0.29;0.92
1753880919.323299;7.315;6.773000000000001;-0.644;-2.86;-1.0;-62.07;0.0;0.0;0.0;0.0;-54.0;16.0;-26.0;5.0;-0.06;0.47;-10.66;0.6;0.36;0.8
1753880919.3282988;7.315;6.773000000000001;-0.644;-2.86;-1.0;-62.07;0.0;0.0;0.0;0.0;-54.0;16.0;-26.0;5.0;-0.06;0.47;-10.67;0.76;0.35;0.9
1753880919.3332992;7.315;6.773000000000001;-0.644;-2.86;-1.0;-62.07;0.0;0.0;0.0;0.0;-54.0;16.0;-26.0;5.0;-0.06;0.48;-10.67;0.8;0.24;0.96
1753880919.3382986;7.315;6.773000000000001;-0.644;-2.86;-1.0;-62.07;0.0;0.0;0.0;0.0;-54.0;16.0;-26.0;5.0;-0.06;0.49;-10.65;0.71;0.47;1.09
1753880919.3432992;7.315;6.773000000000001;-0.644;-2.86;-1.0;-62.07;0.0;0.0;0.0;0.0;-54.0;16.0;-26.0;5.0;-0.07;0.49;-10.65;0.75;0.24;1.01
1753880919.3482985;7.315;6.773000000000001;-0.644;-2.86;-1.0;-62.07;0.0;0.0;0.0;0.0;-54.0;16.0;-26.0;5.0;-0.06;0.5;-10.67;0.71;0.29;0.83
1753880919.3532991;7.315;6.773000000000001;-0.644;-2.86;-1.0;-62.07;0.0;0.0;0.0;0.0;-54.0;16.0;-26.0;5.0;-0.07;0.51;-10.67;0.78;0.44;0.78
1753880919.3582985;7.315;6.773000000000001;-0.644;-2.86;-1.0;-62.07;0.0;0.0;0.0;0.0;-54.0;16.0;-26.0;5.0;-0.09;0.52;-10.67;0.61;0.38;1.11
1753880919.363299;7.315;6.773000000000001;-0.644;-2.86;-1.0;-62.07;0.0;0.0;0.0;0.0;-54.0;16.0;-26.0;5.0;-0.11;0.52;-10.67;0.61;0.39;0.54
1753880919.3682985;7.315;6.773000000000001;-0.644;-2.86;-1.0;-62.07;0.0;0.0;0.0;0.0;-54.0;16.0;-26.0;5.0;-0.12;0.52;-10.68;0.66;0.13;0.7
1753880919.373299;7.315;6.773000000000001;-0.644;-2.86;-1.0;-62.07;0.0;0.0;0.0;0.0;-54.0;16.0;-26.0;5.0;-0.14;0.53;-10.67;0.7;0.22;0.93
1753880919.3782988;7.315;6.773000000000001;-0.644;-2.86;-1.0;-62.07;0.0;0.0;0.0;0.0;-54.0;16.0;-26.0;5.0;-0.16;0.54;-10.67;0.62;0.33;1.04
1753880919.3832989;7.315;6.773000000000001;-0.644;-2.86;-1.0;-62.07;0.0;0.0;0.0;0.0;-54.0;16.0;-26.0;5.0;-0.17;0.53;-10.67;0.59;0.38;0.8
1753880919.3882987;7.315;6.773000000000001;-0.644;-2.86;-1.0;-62.07;0.0;0.0;0.0;0.0;-54.0;16.0;-26.0;5.0;-0.18;0.51;-10.66;0.56;0.21;1.17
1753880919.3932989;7.315;6.773000000000001;-0.644;-2.86;-1.0;-62.07;0.0;0.0;0.0;0.0;-54.0;16.0;-26.0;5.0;-0.2;0.49;-10.66;0.52;0.23;1.31
1753880919.3982987;7.315;6.773000000000001;-0.644;-2.86;-1.0;-62.07;0.0;0.0;0.0;0.0;-54.0;16.0;-26.0;5.0;-0.21;0.47;-10.67;0.59;0.21;1.28
1753880919.4032989;7.315;6.773000000000001;-0.644;-2.86;-1.0;-62.07;0.0;0.0;0.0;0.0;-54.0;16.0;-26.0;5.0;-0.23;0.45;-10.67;0.58;0.28;1.11
1753880919.408299;7.315;6.773000000000001;-0.644;-2.86;-1.0;-62.07;0.0;0.0;0.0;0.0;-54.0;16.0;-26.0;5.0;-0.24;0.42;-10.68;0.38;0.29;1.41
1753880919.4132988;7.315;6.773000000000001;-0.644;-2.86;-1.0;-62.07;0.0;0.0;0.0;0.0;-54.0;16.0;-26.0;5.0;-0.26;0.45;-10.67;0.43;0.22;1.46
1753880919.418299;7.315;6.773000000000001;-0.644;-2.86;-1.0;-62.07;0.0;0.0;0.0;0.0;-54.0;16.0;-26.0;5.0;-0.27;0.46;-10.66;0.57;0.23;1.25
1753880919.4232988;7.315;6.773000000000001;-0.644;-2.86;-1.0;-62.07;0.0;0.0;0.0;0.0;-54.0;16.0;-26.0;5.0;-0.29;0.46;-10.64;0.65;0.34;1.31
1753880919.428299;7.315;6.773000000000001;-0.644;-2.86;-1.0;-62.07;0.0;0.0;0.0;0.0;-54.0;16.0;-26.0;5.0;-0.29;0.48;-10.64;0.64;0.18;1.49
1753880919.4332988;7.315;6.773000000000001;-0.644;-2.86;-1.0;-62.07;0.0;0.0;0.0;0.0;-54.0;16.0;-26.0;5.0;-0.3;0.5;-10.65;0.57;0.15;1.56
1753880919.438299;7.315;6.773000000000001;-0.644;-2.86;-1.0;-62.07;0.0;0.0;0.0;0.0;-54.0;16.0;-26.0;5.0;-0.31;0.5;-10.64;0.51;0.28;1.26
1753880919.4432988;7.315;6.773000000000001;-0.644;-2.86;-1.0;-62.07;0.0;0.0;0.0;0.0;-54.0;16.0;-26.0;5.0;-0.32;0.52;-10.65;0.6;0.15;1.33
1753880919.448299;7.315;6.773000000000001;-0.644;-2.86;-1.0;-62.07;0.0;0.0;0.0;0.0;-54.0;16.0;-26.0;5.0;-0.32;0.54;-10.65;0.54;0.28;1.77
1753880919.4532988;7.315;6.773000000000001;-0.644;-2.86;-1.0;-62.07;0.0;0.0;0.0;0.0;-54.0;16.0;-26.0;5.0;-0.33;0.56;-10.66;0.63;0.39;1.19
1753880919.4582992;7.315;6.773000000000001;-0.644;-2.86;-1.0;-62.07;0.0;0.0;0.0;0.0;-54.0;16.0;-26.0;5.0;-0.32;0.59;-10.64;0.59;0.38;1.12
1753880919.4632993;7.315;6.773000000000001;-0.644;-2.86;-1.0;-62.07;0.0;0.0;0.0;0.0;-54.0;16.0;-26.0;5.0;-0.22;0.67;-10.63;0.56;0.33;0.96
1753880919.4682994;7.315;6.773000000000001;-0.644;-2.86;-1.0;-62.07;0.0;0.0;0.0;0.0;-54.0;16.0;-26.0;5.0;-0.28;0.63;-10.66;0.54;0.38;1.14
1753880919.4732995;7.315;6.773000000000001;-0.644;-2.86;-1.0;-62.07;0.0;0.0;0.0;0.0;-54.0;16.0;-26.0;5.0;-0.32;0.72;-10.66;0.53;0.23;0.65
1753880919.4782996;7.315;6.773000000000001;-0.644;-2.86;-1.0;-62.07;0.0;0.0;0.0;0.0;-54.0;16.0;-26.0;5.0;-0.23;0.66;-10.67;0.62;0.21;0.81
1753880919.4832985;7.315;6.773000000000001;-0.644;-2.86;-1.0;-62.07;0.0;0.0;0.0;0.0;-54.0;16.0;-26.0;5.0;-0.29;0.69;-10.66;0.55;0.23;0.67
1753880919.4882987;7.314;6.774486763657205;-0.644;-2.85;-0.9;-62.07;-57.5;-222.6;31.2;-76.6;-55.1;8.3;1.0;7.4;-0.34;0.64;-10.66;0.53;0.24;0.66
1753880919.4932988;7.32;6.768939932663976;-0.644;-2.85;-0.9;-62.05;-138.8;155.0;126.0;14.7;-32.3;44.0;-21.5;6.6;-0.27;0.52;-10.67;0.57;0.3;0.43
1753880919.498299;7.316;6.770184167285678;-0.644;-2.84;-0.9;-62.06;156.4;47.9;161.5;183.8;-54.9;44.0;-25.2;10.5;-0.4;0.59;-10.67;0.54;0.25;0.62
1753880919.503299;7.311;6.7627005924769;-0.644;-2.87;-1.0;-62.07;20.5;147.2;345.8;140.3;-37.9;42.1;5.0;9.0;-0.19;0.77;-10.64;0.54;0.26;0.7
1753880919.508299;7.32;6.760069238440587;-0.644;-2.84;-0.9;-62.05;91.4;119.7;206.0;148.3;-51.1;35.9;0.6;12.2;-0.22;0.64;-10.67;0.53;0.14;0.6
1753880919.5132992;7.322;6.769873571852116;-0.644;-2.83;-0.9;-62.06;242.3;468.8;159.5;150.8;-53.2;41.4;-13.5;6.2;-0.19;0.73;-10.65;0.67;0.2;0.92
1753880919.5182993;7.322;6.761127808433724;-0.644;-2.81;-0.9;-62.07;270.6;256.8;385.2;232.1;-29.4;40.0;-23.4;14.0;-0.29;0.63;-10.67;0.53;0.33;0.76
1753880919.5232995;7.316;6.770078668233658;-0.644;-2.83;-1.0;-62.04;203.9;45.7;252.0;252.8;-31.2;49.9;11.7;12.8;-0.19;0.56;-10.64;0.59;0.23;0.83
1753880919.5282996;7.317;6.751823733171912;-0.644;-2.79;-0.9;-62.06;416.4;226.1;530.2;544.4;-37.6;40.3;23.5;14.5;-0.1;0.61;-10.68;0.56;0.35;0.86
1753880919.5332997;7.32;6.756001014882742;-0.644;-2.83;-0.8;-62.05;377.8;459.9;401.3;414.1;-32.5;46.7;3.1;14.6;-0.14;0.66;-10.66;0.53;0.35;0.11
1753880919.5382998;7.324;6.761589047116652;-0.644;-2.81;-0.8;-62.04;261.0;545.5;386.7;405.3;-24.5;55.2;34.6;16.3;-0.14;0.53;-10.64;0.62;0.21;1.14
1753880919.5433;7.321;6.755707086806028;-0.644;-2.79;-0.9;-62.03;451.9;129.9;324.3;403.7;-24.8;34.3;32.9;21.2;-0.11;0.62;-10.66;0.6;0.25;0.6
1753880919.5483;7.327;6.748408835279778;-0.644;-2.79;-0.9;-62.05;441.4;517.7;395.3;505.9;-32.1;73.6;46.9;6.9;-0.25;0.69;-10.64;0.53;0.15;0.69
1753880919.5533001;7.328;6.750754839557314;-0.644;-2.81;-0.9;-62.04;237.5;273.8;381.7;510.7;-18.4;73.6;18.8;18.6;-0.25;0.62;-10.68;0.5;0.27;0.83
1753880919.5583003;7.325;6.753238037609264;-0.644;-2.79;-0.9;-62.05;578.4;581.8;492.5;608.2;-17.7;79.5;38.2;17.9;-0.13;0.61;-10.67;0.45;0.19;0.82
1753880919.563299;7.327;6.749000000000001;-0.644;-2.78;-0.8;-62.03;503.0;540.0;510.0;540.0;-20.0;72.0;44.0;21.0;-0.12;0.59;-10.66;0.53;0.23;0.88
1753880919.5682988;7.327;6.749000000000001;-0.644;-2.78;-0.8;-62.03;503.0;540.0;510.0;540.0;-20.0;72.0;44.0;21.0;-0.11;0.58;-10.65;0.53;0.35;1.08
1753880919.573299;7.327;6.749000000000001;-0.644;-2.78;-0.8;-62.03;503.0;540.0;510.0;540.0;-20.0;72.0;44.0;21.0;-0.12;0.59;-10.64;0.61;0.45;1.07
1753880919.5782988;7.327;6.749000000000001;-0.644;-2.78;-0.8;-62.03;503.0;540.0;510.0;540.0;-20.0;72.0;44.0;21.0;-0.12;0.59;-10.65;0.63;0.35;0.81
1753880919.5832992;7.327;6.749000000000001;-0.644;-2.78;-0.8;-62.03;503.0;540.0;510.0;540.0;-20.0;72.0;44.0;21.0;-0.11;0.6;-10.65;0.58;0.24;1.0
1753880919.5882986;7.327;6.749000000000001;-0.644;-2.78;-0.8;-62.03;503.0;540.0;510.0;540.0;-20.0;72.0;44.0;21.0;-0.11;0.6;-10.66;0.57;0.34;0.96
1753880919.5932992;7.327;6.749000000000001;-0.644;-2.78;-0.8;-62.03;503.0;540.0;510.0;540.0;-20.0;72.0;44.0;21.0;-0.11;0.6;-10.64;0.61;0.55;0.51
1753880919.5982985;7.327;6.749000000000001;-0.644;-2.78;-0.8;-62.03;503.0;540.0;510.0;540.0;-20.0;72.0;44.0;21.0;-0.09;0.62;-10.65;0.45;0.42;0.96
1753880919.6032991;7.327;6.749000000000001;-0.644;-2.78;-0.8;-62.03;503.0;540.0;510.0;540.0;-20.0;72.0;44.0;21.0;-0.07;0.65;-10.66;0.64;0.21;0.75
1753880919.6082985;7.327;6.749000000000001;-0.644;-2.78;-0.8;-62.03;503.0;540.0;510.0;540.0;-20.0;72.0;44.0;21.0;-0.05;0.66;-10.68;0.45;0.49;0.0
1753880919.613299;7.327;6.749000000000001;-0.644;-2.78;-0.8;-62.03;503.0;540.0;510.0;540.0;-20.0;72.0;44.0;21.0;-0.04;0.69;-10.67;0.39;0.39;0.12
1753880919.6182985;7.327;6.749000000000001;-0.644;-2.78;-0.8;-62.03;503.0;540.0;510.0;540.0;-20.0;72.0;44.0;21.0;0.0;0.7;-10.66;0.51;0.34;1.07
1753880919.623299;7.327;6.749000000000001;-0.644;-2.78;-0.8;-62.03;503.0;540.0;510.0;540.0;-20.0;72.0;44.0;21.0;0.08;0.68;-10.64;0.66;0.41;0.19
1753880919.6282988;7.327;6.749000000000001;-0.644;-2.78;-0.8;-62.03;503.0;540.0;510.0;540.0;-20.0;72.0;44.0;21.0;0.14;0.66;-10.67;0.67;0.42;-0.02
1753880919.6332989;7.327;6.749000000000001;-0.644;-2.78;-0.8;-62.03;503.0;540.0;510.0;540.0;-20.0;72.0;44.0;21.0;0.23;0.64;-10.68;0.7;0.26;1.0
1753880919.6382987;7.327;6.749000000000001;-0.644;-2.78;-0.8;-62.03;503.0;540.0;510.0;540.0;-20.0;72.0;44.0;21.0;0.31;0.6;-10.68;0.8;0.54;0.43
1753880919.6432989;7.327;6.749000000000001;-0.644;-2.78;-0.8;-62.03;503.0;540.0;510.0;540.0;-20.0;72.0;44.0;21.0;0.42;0.58;-10.68;1.05;0.8;0.27
1753880919.6482987;7.327;6.749000000000001;-0.644;-2.78;-0.8;-62.03;503.0;540.0;510.0;540.0;-20.0;72.0;44.0;21.0;0.57;0.59;-10.71;1.17;0.25;1.55
1753880919.6532989;7.327;6.749000000000001;-0.644;-2.78;-0.8;-62.03;503.0;540.0;510.0;540.0;-20.0;72.0;44.0;21.0;0.7;0.57;-10.73;0.95;0.16;0.8
1753880919.658299;7.327;6.749000000000001;-0.644;-2.78;-0.8;-62.03;503.0;540.0;510.0;540.0;-20.0;72.0;44.0;21.0;0.82;0.6;-10.67;0.96;0.51;0.8
1753880919.6632988;7.327;6.749000000000001;-0.644;-2.78;-0.8;-62.03;503.0;540.0;510.0;540.0;-20.0;72.0;44.0;21.0;0.97;0.66;-10.67;1.09;0.44;1.61
1753880919.668299;7.327;6.749000000000001;-0.644;-2.78;-0.8;-62.03;503.0;540.0;510.0;540.0;-20.0;72.0;44.0;21.0;1.66;0.61;-10.74;0.91;0.46;0.9
1753880919.6732988;7.327;6.749000000000001;-0.644;-2.78;-0.8;-62.03;503.0;540.0;510.0;540.0;-20.0;72.0;44.0;21.0;1.28;0.65;-10.77;0.68;0.34;0.56
1753880919.678299;7.327;6.749000000000001;-0.644;-2.78;-0.8;-62.03;503.0;540.0;510.0;540.0;-20.0;72.0;44.0;21.0;1.39;0.7;-10.75;0.81;0.26;1.26
1753880919.6832988;7.327;6.749000000000001;-0.644;-2.78;-0.8;-62.03;503.0;540.0;510.0;540.0;-20.0;72.0;44.0;21.0;1.54;0.74;-10.66;0.9;0.38;1.03
1753880919.688299;7.33;6.751864306954082;-0.644;-2.83;-0.8;-62.03;527.8;630.2;487.8;433.5;9.1;188.8;18.5;39.0;0.87;0.65;-10.64;1.14;0.35;1.11
1753880919.693299;7.329;6.748430207341522;-0.644;-2.8;-0.6;-62.03;789.7;585.9;517.6;703.3;-15.0;102.2;40.3;124.7;3.4;0.75;-10.6;1.07;0.53;1.1
1753880919.6982992;7.327;6.750082779659413;-0.644;-2.84;-0.6;-62.03;1362.0;717.8;731.4;249.6;0.2;116.6;20.6;32.1;1.59;0.71;-10.64;1.14;0.42;1.35
1753880919.7032993;7.327;6.7455362517233;-0.644;-2.87;-0.7;-62.04;1665.4;629.6;1038.8;1059.3;-27.6;67.7;94.2;74.9;0.99;0.48;-10.62;0.74;0.51;1.31
1753880919.7082994;7.327;6.748523029522373;-0.644;-2.88;-0.6;-62.04;1553.4;1145.1;554.4;1160.4;-10.3;261.5;83.8;31.9;0.92;0.74;-10.63;0.96;0.5;1.2
