DeviceID;Timestamp;Temperature;GyroX;GyroY;GyroZ;AccelX;AccelY;AccelZ;Dist1;Dist2;Dist3;Err1;Err2;Err3
3.0;1753880915.35415;17.917969;0.77;-1.26;-0.21;0.971486;0.205692;0.02501;121.0;0.0;0.0;2.0;0.0;0.0
3.0;1753880915.358824;17.917969;0.77;-1.26;-0.21;0.970388;0.206302;0.022936;121.0;0.0;0.0;2.0;0.0;0.0
3.0;1753880915.364845;17.925781;0.84;-1.19;-0.21;0.970388;0.204106;0.023058;121.0;0.0;0.0;2.0;0.0;0.0
3.0;1753880915.369578;17.927315;0.8;-1.13;0.14;0.961693;0.203263;0.023922;120.0;-0.2;0.1;1.9;-0.0;0.0
3.0;1753880915.374647;17.925781;0.77;-1.26;-0.28;0.969656;0.20435;0.02379;121.0;0.0;0.0;2.0;0.0;0.0
3.0;1753880915.377451;17.925781;0.7;-1.33;-0.28;0.969656;0.20435;0.02379;121.0;0.0;0.0;2.0;0.0;0.0
3.0;1753880915.383154;17.933594;0.77;-1.19;-0.21;0.970632;0.203252;0.023546;121.0;0.0;0.0;2.0;0.0;0.0
3.0;1753880915.389786;17.933594;0.63;-1.26;-0.21;0.970022;0.204472;0.02318;119.0;0.0;0.0;1.0;0.0;0.0
3.0;1753880915.397631;17.933594;0.77;-1.4;-0.21;0.970144;0.204472;0.023546;119.0;0.0;0.0;1.0;0.0;0.0
3.0;1753880915.401099;17.941406;0.63;-1.26;-0.21;0.970998;0.206912;0.022326;119.0;0.0;0.0;1.0;0.0;0.0
3.0;1753880915.405591;17.941406;0.77;-1.33;-0.21;0.970022;0.204472;0.023546;119.0;0.0;0.0;1.0;0.0;0.0
3.0;1753880915.410298;17.941406;0.84;-1.4;-0.28;0.971242;0.204594;0.024278;119.0;0.0;0.0;1.0;0.0;0.0
3.0;1753880915.414972;17.941406;0.7;-1.33;-0.14;0.969412;0.204716;0.023058;119.0;0.0;0.0;1.0;0.0;0.0
3.0;1753880915.419705;17.904269;0.74;-1.46;-0.17;0.97474;0.203347;0.019611;119.3;0.3;0.2;0.9;0.0;-0.0
3.0;1753880915.424228;17.875;0.77;-1.33;-0.21;0.971608;0.205204;0.023302;119.0;0.0;0.0;1.0;0.0;0.0
3.0;1753880915.429985;17.875;0.77;-1.33;-0.21;0.970632;0.205326;0.023302;119.0;0.0;0.0;1.0;0.0;0.0
3.0;1753880915.438451;17.886719;0.7;-1.26;-0.21;0.969656;0.204472;0.023058;123.0;0.0;0.0;2.0;0.0;0.0
3.0;1753880915.444622;17.886719;0.77;-1.4;-0.28;0.970754;0.206058;0.023668;123.0;0.0;0.0;2.0;0.0;0.0
3.0;1753880915.448596;17.886719;0.84;-1.33;-0.21;0.970754;0.206058;0.023668;123.0;0.0;0.0;2.0;0.0;0.0
3.0;1753880915.452411;17.886719;0.77;-1.26;-0.14;0.970388;0.20557;0.023912;123.0;0.0;0.0;2.0;0.0;0.0
3.0;1753880915.457075;17.890625;0.77;-1.26;-0.28;0.970144;0.205936;0.023912;123.0;0.0;0.0;2.0;0.0;0.0
3.0;1753880915.461769;17.890625;0.77;-1.26;-0.21;0.969656;0.20496;0.024034;123.0;0.0;0.0;2.0;0.0;0.0
3.0;1753880915.466465;17.890625;0.7;-1.26;-0.21;0.970022;0.205326;0.02379;123.0;0.0;0.0;2.0;0.0;0.0
3.0;1753880915.472027;17.890625;0.7;-1.33;-0.28;0.970632;0.205692;0.022936;123.0;0.0;0.0;2.0;0.0;0.0
3.0;1753880915.476222;17.941406;0.77;-1.26;-0.28;0.9699;0.206302;0.023302;123.0;0.0;0.0;2.0;0.0;0.0
3.0;1753880915.48061;17.941406;0.7;-1.33;-0.28;0.969778;0.20618;0.021594;123.0;0.0;0.0;2.0;0.0;0.0
3.0;1753880915.487816;17.941406;0.77;-1.4;-0.21;0.969656;0.204106;0.023058;116.0;0.0;0.0;1.0;0.0;0.0
3.0;1753880915.493962;17.941406;0.77;-1.33;-0.21;0.970266;0.205814;0.023668;116.0;0.0;0.0;1.0;0.0;0.0
3.0;1753880915.494489;17.902344;0.84;-1.33;-0.14;0.970266;0.204838;0.0244;116.0;0.0;0.0;1.0;0.0;0.0
3.0;1753880915.499369;17.902344;0.77;-1.26;-0.14;0.97051;0.207644;0.022692;116.0;0.0;0.0;1.0;0.0;0.0
3.0;1753880915.505096;17.902344;0.77;-1.33;-0.21;0.968924;0.206302;0.023058;116.0;0.0;0.0;1.0;0.0;0.0
3.0;1753880915.508541;17.902344;0.7;-1.26;-0.21;0.970266;0.205448;0.023912;116.0;0.0;0.0;1.0;0.0;0.0
3.0;1753880915.513345;17.867188;0.7;-1.33;-0.21;0.97051;0.207156;0.024156;116.0;0.0;0.0;1.0;0.0;0.0
3.0;1753880915.520798;17.867188;0.84;-1.26;-0.14;0.970998;0.206058;0.023668;116.0;0.0;0.0;1.0;0.0;0.0
3.0;1753880915.522557;17.867188;0.77;-1.26;-0.14;0.970876;0.204594;0.024156;116.0;0.0;0.0;1.0;0.0;0.0
3.0;1753880915.527256;17.867188;0.84;-1.26;-0.28;0.96929;0.205448;0.022692;116.0;0.0;0.0;1.0;0.0;0.0
3.0;1753880915.531989;17.858111;0.88;-1.23;-0.17;0.969513;0.206564;0.022656;113.5;0.0;0.0;1.6;0.0;0.0
3.0;1753880915.536482;17.878906;0.77;-1.33;-0.14;0.970144;0.204228;0.022936;120.0;0.0;0.0;2.0;0.0;0.0
3.0;1753880915.542861;17.878906;0.7;-1.33;-0.28;0.970022;0.205326;0.022936;120.0;0.0;0.0;2.0;0.0;0.0
3.0;1753880915.546012;17.878906;0.77;-1.26;-0.21;0.968924;0.20618;0.02379;120.0;0.0;0.0;2.0;0.0;0.0
3.0;1753880915.55069;17.898438;0.77;-1.33;-0.14;0.97051;0.205692;0.023912;120.0;0.0;0.0;2.0;0.0;0.0
3.0;1753880915.555266;17.898438;0.7;-1.33;-0.21;0.97051;0.205692;0.023912;120.0;0.0;0.0;2.0;0.0;0.0
3.0;1753880915.560044;17.898438;0.7;-1.26;-0.21;0.970144;0.204594;0.02318;120.0;0.0;0.0;2.0;0.0;0.0
3.0;1753880915.568659;17.898438;0.77;-1.26;-0.28;0.970144;0.204838;0.022936;120.0;0.0;0.0;2.0;0.0;0.0
3.0;1753880915.56935;17.902344;0.7;-1.33;-0.21;0.970266;0.206424;0.024888;120.0;0.0;0.0;2.0;0.0;0.0
3.0;1753880915.574101;17.902344;0.77;-1.33;-0.14;0.970876;0.203618;0.02257;120.0;0.0;0.0;2.0;0.0;0.0
3.0;1753880915.57876;17.902344;0.63;-1.33;-0.21;0.9699;0.20618;0.024156;120.0;0.0;0.0;2.0;0.0;0.0
3.0;1753880915.585073;17.902344;0.63;-1.33;-0.21;0.970632;0.20557;0.02257;119.0;0.0;0.0;1.0;0.0;0.0
3.0;1753880915.591565;17.941406;0.7;-1.26;-0.21;0.971486;0.20618;0.023424;119.0;0.0;0.0;1.0;0.0;0.0
3.0;1753880915.592757;17.941406;0.63;-1.33;-0.21;0.97051;0.20496;0.02318;119.0;0.0;0.0;1.0;0.0;0.0
3.0;1753880915.597629;17.941406;0.77;-1.33;-0.21;0.970998;0.205204;0.02379;119.0;0.0;0.0;1.0;0.0;0.0
3.0;1753880915.602165;17.941406;0.77;-1.33;-0.21;0.970632;0.204594;0.023058;119.0;0.0;0.0;1.0;0.0;0.0
3.0;1753880915.606812;17.890625;0.7;-1.33;-0.21;0.970998;0.205082;0.022814;119.0;0.0;0.0;1.0;0.0;0.0
3.0;1753880915.611504;17.890625;0.7;-1.33;-0.21;0.969168;0.20618;0.024156;119.0;0.0;0.0;1.0;0.0;0.0
3.0;1753880915.620454;17.890625;0.7;-1.26;-0.21;0.970876;0.204472;0.024034;119.0;0.0;0.0;1.0;0.0;0.0
3.0;1753880915.620825;17.890625;0.63;-1.26;-0.21;0.969656;0.204716;0.023912;119.0;0.0;0.0;1.0;0.0;0.0
3.0;1753880915.625912;17.863281;0.7;-1.33;-0.21;0.969778;0.205936;0.023668;119.0;0.0;0.0;1.0;0.0;0.0
3.0;1753880915.633918;17.863281;0.77;-1.33;-0.35;0.970998;0.206302;0.023912;116.0;0.0;0.0;2.0;0.0;0.0
3.0;1753880915.641053;17.863281;0.7;-1.26;-0.21;0.970754;0.205448;0.024034;116.0;0.0;0.0;2.0;0.0;0.0
3.0;1753880915.64425;17.898438;0.63;-1.33;-0.14;0.971608;0.204594;0.02318;116.0;0.0;0.0;2.0;0.0;0.0
3.0;1753880915.650937;17.898438;0.7;-1.26;-0.28;0.97112;0.203984;0.024278;116.0;0.0;0.0;2.0;0.0;0.0
3.0;1753880915.654078;17.898438;0.77;-1.19;-0.28;0.971486;0.20496;0.025498;116.0;0.0;0.0;2.0;0.0;0.0
3.0;1753880915.658353;17.898438;0.63;-1.33;-0.14;0.971242;0.20496;0.024034;116.0;0.0;0.0;2.0;0.0;0.0
3.0;1753880915.667174;17.910156;0.7;-1.33;-0.21;0.971486;0.205936;0.024034;116.0;0.0;0.0;2.0;0.0;0.0
3.0;1753880915.667623;17.910156;0.84;-1.33;-0.21;0.971364;0.206058;0.024278;116.0;0.0;0.0;2.0;0.0;0.0
3.0;1753880915.673041;17.910156;0.7;-1.26;-0.21;0.971364;0.204594;0.024034;116.0;0.0;0.0;2.0;0.0;0.0
3.0;1753880915.676983;17.910156;0.77;-1.26;-0.21;0.971242;0.205936;0.024156;116.0;0.0;0.0;2.0;0.0;0.0
3.0;1753880915.681716;17.861145;0.73;-1.21;-0.24;0.970719;0.205017;0.023938;116.5;0.0;0.0;1.1;0.0;0.0
3.0;1753880915.690239;17.867188;0.77;-1.26;-0.21;0.97112;0.205814;0.021716;118.0;0.0;0.0;1.0;0.0;0.0
3.0;1753880915.691018;17.867188;0.7;-1.4;-0.21;0.970876;0.20557;0.023058;118.0;0.0;0.0;1.0;0.0;0.0
3.0;1753880915.695798;17.867188;0.63;-1.33;-0.21;0.970632;0.203496;0.022326;118.0;0.0;0.0;1.0;0.0;0.0
3.0;1753880915.70094;17.898438;0.63;-1.26;-0.21;0.970754;0.205936;0.024522;118.0;0.0;0.0;1.0;0.0;0.0
3.0;1753880915.705087;17.898438;0.63;-1.26;-0.14;0.970632;0.206058;0.024522;118.0;0.0;0.0;1.0;0.0;0.0
3.0;1753880915.709759;17.898438;0.7;-1.33;-0.14;0.970266;0.20496;0.025742;118.0;0.0;0.0;1.0;0.0;0.0
3.0;1753880915.718384;17.898438;0.7;-1.4;-0.21;0.970144;0.206058;0.023546;118.0;0.0;0.0;1.0;0.0;0.0
3.0;1753880915.719092;17.894531;0.7;-1.26;-0.21;0.970144;0.204594;0.02257;118.0;0.0;0.0;1.0;0.0;0.0
3.0;1753880915.72383;17.894531;0.7;-1.33;-0.21;0.97051;0.205814;0.023058;118.0;0.0;0.0;1.0;0.0;0.0
3.0;1753880915.728563;17.904268;0.7;-1.38;-0.16;0.9704;0.205868;0.023431;119.0;0.0;0.0;0.7;0.0;0.0
3.0;1753880915.732879;17.894531;0.77;-1.33;-0.14;0.970388;0.205204;0.02318;118.0;0.0;0.0;2.0;0.0;0.0
3.0;1753880915.738147;17.882812;0.7;-1.33;-0.21;0.970266;0.205326;0.02379;118.0;0.0;0.0;2.0;0.0;0.0
3.0;1753880915.743259;17.882812;0.7;-1.26;-0.21;0.97173;0.206058;0.023058;118.0;0.0;0.0;2.0;0.0;0.0
3.0;1753880915.747207;17.882812;0.77;-1.26;-0.21;0.97051;0.206546;0.023668;118.0;0.0;0.0;2.0;0.0;0.0
3.0;1753880915.753538;17.882812;0.77;-1.33;-0.14;0.97112;0.205082;0.024278;118.0;0.0;0.0;2.0;0.0;0.0
3.0;1753880915.757874;17.863281;0.77;-1.33;-0.14;0.970266;0.20496;0.022936;118.0;0.0;0.0;2.0;0.0;0.0
3.0;1753880915.765596;17.863281;0.7;-1.26;-0.21;0.969778;0.205326;0.024644;118.0;0.0;0.0;2.0;0.0;0.0
3.0;1753880915.765887;17.863281;0.63;-1.26;-0.21;0.96929;0.205082;0.022936;118.0;0.0;0.0;2.0;0.0;0.0
3.0;1753880915.770512;17.863281;0.7;-1.26;-0.21;0.96929;0.205082;0.022936;118.0;0.0;0.0;2.0;0.0;0.0
3.0;1753880915.775272;17.855469;0.63;-1.26;-0.07;0.970388;0.204716;0.023912;118.0;0.0;0.0;2.0;0.0;0.0
3.0;1753880915.780005;17.876728;0.78;-1.24;-0.09;0.970963;0.203967;0.023141;117.7;0.0;0.0;2.2;0.0;0.0
3.0;1753880915.788488;17.855469;0.84;-1.33;-0.21;0.970632;0.20557;0.024156;122.0;0.0;0.0;1.0;0.0;0.0
3.0;1753880915.789289;17.855469;0.84;-1.26;-0.21;0.970998;0.20618;0.02379;122.0;0.0;0.0;1.0;0.0;0.0
3.0;1753880915.794772;17.890625;0.77;-1.26;-0.21;0.97051;0.205692;0.023546;122.0;0.0;0.0;1.0;0.0;0.0
3.0;1753880915.798947;17.890625;0.77;-1.26;-0.21;0.971364;0.20435;0.023546;122.0;0.0;0.0;1.0;0.0;0.0
3.0;1753880915.803581;17.890625;0.77;-1.19;-0.21;0.970754;0.207156;0.022814;122.0;0.0;0.0;1.0;0.0;0.0
3.0;1753880915.808057;17.890625;0.7;-1.26;-0.14;0.97112;0.204472;0.024034;122.0;0.0;0.0;1.0;0.0;0.0
3.0;1753880915.815031;17.875;0.77;-1.26;-0.21;0.971974;0.206302;0.024644;122.0;0.0;0.0;1.0;0.0;0.0
3.0;1753880915.818209;17.875;0.84;-1.33;-0.21;0.9699;0.205326;0.02379;122.0;0.0;0.0;1.0;0.0;0.0
3.0;1753880915.822051;17.875;0.77;-1.26;-0.14;0.970388;0.20496;0.023424;122.0;0.0;0.0;1.0;0.0;0.0
3.0;1753880915.826784;17.879079;0.67;-1.3;-0.18;0.970294;0.20461;0.023733;122.7;0.0;0.0;1.6;0.0;0.0
3.0;1753880915.835685;17.886719;0.7;-1.33;-0.21;0.9699;0.205814;0.023912;118.0;0.0;0.0;2.0;0.0;0.0
3.0;1753880915.836083;17.886719;0.7;-1.33;-0.21;0.969168;0.205814;0.023912;118.0;0.0;0.0;2.0;0.0;0.0
3.0;1753880915.840797;17.886719;0.7;-1.4;-0.21;0.9699;0.20618;0.023668;118.0;0.0;0.0;2.0;0.0;0.0
3.0;1753880915.846859;17.886719;0.77;-1.26;-0.14;0.970754;0.20496;0.023912;118.0;0.0;0.0;2.0;0.0;0.0
3.0;1753880915.850125;17.863281;0.77;-1.19;-0.14;0.970632;0.20618;0.024278;118.0;0.0;0.0;2.0;0.0;0.0
3.0;1753880915.854857;17.863281;0.77;-1.26;-0.14;0.969778;0.205204;0.022814;118.0;0.0;0.0;2.0;0.0;0.0
3.0;1753880915.863586;17.863281;0.7;-1.33;-0.14;0.970022;0.20557;0.024156;118.0;0.0;0.0;2.0;0.0;0.0
3.0;1753880915.864098;17.863281;0.63;-1.33;-0.14;0.970022;0.20557;0.024156;118.0;0.0;0.0;2.0;0.0;0.0
3.0;1753880915.86888;17.8125;0.77;-1.33;-0.28;0.97112;0.206058;0.02318;118.0;0.0;0.0;2.0;0.0;0.0
3.0;1753880915.874522;17.8125;0.77;-1.26;-0.21;0.970754;0.205204;0.023424;118.0;0.0;0.0;2.0;0.0;0.0
3.0;1753880915.879255;17.854606;0.64;-1.3;-0.22;0.969881;0.20384;0.023748;111.1;0.0;0.0;1.6;0.0;0.0
3.0;1753880915.884817;17.8125;0.7;-1.26;-0.21;0.96929;0.205082;0.02379;117.0;0.0;0.0;1.0;0.0;0.0
3.0;1753880915.88759;17.878906;0.7;-1.33;-0.21;0.969534;0.205082;0.024766;117.0;0.0;0.0;1.0;0.0;0.0
3.0;1753880915.892244;17.878906;0.77;-1.26;-0.21;0.970632;0.206302;0.0244;117.0;0.0;0.0;1.0;0.0;0.0
3.0;1753880915.897251;17.878906;0.77;-1.33;-0.28;0.969534;0.20496;0.02379;117.0;0.0;0.0;1.0;0.0;0.0
3.0;1753880915.901849;17.878906;0.63;-1.19;-0.28;0.97234;0.205814;0.023668;117.0;0.0;0.0;1.0;0.0;0.0
3.0;1753880915.910617;17.886719;0.7;-1.33;-0.28;0.970388;0.203618;0.024034;117.0;0.0;0.0;1.0;0.0;0.0
3.0;1753880915.910955;17.886719;0.7;-1.26;-0.21;0.970876;0.20496;0.025498;117.0;0.0;0.0;1.0;0.0;0.0
3.0;1753880915.915587;17.886719;0.77;-1.33;-0.21;0.970876;0.20496;0.025498;117.0;0.0;0.0;1.0;0.0;0.0
3.0;1753880915.920339;17.886719;0.7;-1.26;-0.28;0.970754;0.205204;0.02501;117.0;0.0;0.0;1.0;0.0;0.0
3.0;1753880915.925072;17.870799;0.7;-1.32;-0.15;0.971744;0.205161;0.024645;117.1;0.0;0.0;1.3;0.0;0.0
3.0;1753880915.929805;17.870843;0.66;-1.28;-0.17;0.972324;0.206562;0.024455;118.0;0.0;0.0;1.5;0.0;0.0
3.0;1753880915.935854;17.871094;0.7;-1.33;-0.14;0.971974;0.2074;0.023546;120.0;0.0;0.0;2.0;0.0;0.0
3.0;1753880915.939078;17.871094;0.77;-1.26;-0.21;0.970876;0.204472;0.023668;120.0;0.0;0.0;2.0;0.0;0.0
3.0;1753880915.943668;17.890625;0.84;-1.33;-0.21;0.970876;0.204472;0.023668;120.0;0.0;0.0;2.0;0.0;0.0
3.0;1753880915.948395;17.890625;0.63;-1.4;-0.21;0.969656;0.206424;0.024034;120.0;0.0;0.0;2.0;0.0;0.0
3.0;1753880915.953073;17.890625;0.77;-1.26;-0.21;0.96929;0.205448;0.024034;120.0;0.0;0.0;2.0;0.0;0.0
3.0;1753880915.95935;17.890625;0.77;-1.33;-0.21;0.97112;0.20618;0.025498;120.0;0.0;0.0;2.0;0.0;0.0
3.0;1753880915.962449;17.832031;0.77;-1.26;-0.21;0.969778;0.206912;0.023668;120.0;0.0;0.0;2.0;0.0;0.0
3.0;1753880915.967118;17.832031;0.84;-1.33;-0.14;0.970144;0.205082;0.025132;120.0;0.0;0.0;2.0;0.0;0.0
3.0;1753880915.971794;17.832031;0.7;-1.33;-0.21;0.9699;0.20496;0.023424;120.0;0.0;0.0;2.0;0.0;0.0
3.0;1753880915.976527;17.857758;0.78;-1.3;-0.18;0.970535;0.204178;0.023733;118.8;0.0;0.0;1.5;0.0;0.0
3.0;1753880915.983818;17.878906;0.77;-1.33;-0.28;0.970144;0.205814;0.02562;120.0;0.0;0.0;1.0;0.0;0.0
3.0;1753880915.985831;17.878906;0.77;-1.33;-0.28;0.970754;0.205082;0.022814;120.0;0.0;0.0;1.0;0.0;0.0
3.0;1753880915.990514;17.878906;0.7;-1.4;-0.21;0.970022;0.205448;0.024766;120.0;0.0;0.0;1.0;0.0;0.0
3.0;1753880915.995195;17.878906;0.77;-1.33;-0.21;0.970632;0.206668;0.025742;120.0;0.0;0.0;1.0;0.0;0.0
3.0;1753880915.99987;17.890625;0.7;-1.33;-0.21;0.970632;0.205936;0.023424;120.0;0.0;0.0;1.0;0.0;0.0
3.0;1753880916.004603;17.90449;0.76;-1.33;-0.2;0.970158;0.206766;0.023627;120.2;0.0;0.0;0.9;0.0;0.0
3.0;1753880916.009336;17.887554;0.77;-1.43;-0.19;0.970216;0.207036;0.024532;120.2;0.0;0.0;1.8;0.0;0.0
3.0;1753880916.014069;17.923573;0.65;-1.29;-0.12;0.971538;0.20501;0.02082;119.3;0.0;0.0;0.1;0.0;0.0
3.0;1753880916.018802;17.883311;0.78;-1.27;-0.19;0.971475;0.205363;0.023563;122.0;0.0;0.0;1.1;0.0;0.0
3.0;1753880916.023536;17.907903;0.76;-1.34;-0.19;0.970077;0.207275;0.025045;122.8;0.0;0.0;0.5;0.0;0.0
3.0;1753880916.028268;17.93245;0.8;-1.36;-0.27;0.970526;0.205805;0.022816;121.0;0.0;0.0;0.8;0.0;0.0
3.0;1753880916.033002;17.874177;0.7;-1.33;-0.24;0.970478;0.206454;0.023808;120.4;0.0;0.0;0.7;0.0;0.0
3.0;1753880916.037735;17.883268;0.73;-1.41;-0.25;0.969553;0.206874;0.0231;118.6;0.0;0.0;1.7;0.0;0.0
3.0;1753880916.042468;17.878451;0.66;-1.37;-0.09;0.969472;0.20394;0.023488;121.2;0.0;0.0;0.5;0.0;0.0
3.0;1753880916.047201;17.865929;0.8;-1.39;-0.15;0.971061;0.20554;0.024109;120.2;0.0;0.0;0.5;0.0;0.0
3.0;1753880916.051934;17.898706;0.69;-1.39;-0.23;0.970187;0.205858;0.023392;119.2;0.0;0.0;1.3;0.0;0.0
3.0;1753880916.056667;17.90072;0.72;-1.22;-0.18;0.971056;0.205396;0.023638;119.8;0.0;0.0;0.9;0.0;0.0
3.0;1753880916.0614;17.855039;0.71;-1.26;-0.17;0.97158;0.206884;0.024565;120.4;0.0;0.0;1.1;0.0;0.0
3.0;1753880916.066133;17.87755;0.74;-1.31;-0.19;0.971336;0.204668;0.021787;118.6;0.0;0.0;0.2;0.0;0.0
3.0;1753880916.070866;17.860064;0.76;-1.27;-0.17;0.971368;0.205312;0.023641;122.2;0.0;0.0;0.9;0.0;0.0
3.0;1753880916.0756;17.881323;0.73;-1.4;-0.23;0.971351;0.205912;0.023637;120.9;0.0;0.0;1.1;0.0;0.0
3.0;1753880916.080332;17.908941;0.72;-1.25;-0.25;0.96933;0.208212;0.022917;120.2;0.0;0.0;1.0;0.0;0.0
3.0;1753880916.085066;17.923274;0.69;-1.35;-0.19;0.971028;0.20643;0.021926;120.6;0.0;0.0;0.8;0.0;0.0
3.0;1753880916.089799;17.883607;0.74;-1.45;-0.21;0.970653;0.206634;0.024284;119.8;0.0;0.0;-0.2;0.0;0.0
3.0;1753880916.094532;17.894831;0.69;-1.21;-0.18;0.970152;0.205219;0.021335;119.4;0.0;0.0;1.2;0.0;0.0
3.0;1753880916.099265;17.893228;0.73;-1.35;-0.24;0.96893;0.204383;0.021253;119.8;0.0;0.0;1.3;0.0;0.0
3.0;1753880916.103998;17.882149;0.69;-1.38;-0.23;0.9704;0.205506;0.023356;121.2;0.0;0.0;0.6;0.0;0.0
3.0;1753880916.108731;17.921461;0.64;-1.28;-0.17;0.970763;0.20573;0.02276;119.0;0.0;0.0;0.5;0.0;0.0
3.0;1753880916.113464;17.868216;0.78;-1.36;-0.15;0.97215;0.204936;0.022552;122.2;0.0;0.0;0.8;0.0;0.0
3.0;1753880916.118197;17.928691;0.61;-1.3;-0.24;0.970173;0.205219;0.022676;120.1;0.0;0.0;1.5;0.0;0.0
3.0;1753880916.12293;17.85646;0.66;-1.3;-0.22;0.969794;0.205128;0.022476;120.6;0.0;0.0;0.8;0.0;0.0
3.0;1753880916.127663;17.915553;0.66;-1.34;-0.24;0.970339;0.20545;0.022363;120.4;0.0;0.0;1.4;0.0;0.0
3.0;1753880916.132396;17.914552;0.75;-1.35;-0.23;0.970222;0.205559;0.023785;119.4;0.0;0.0;0.9;0.0;0.0
3.0;1753880916.13713;17.883656;0.77;-1.34;-0.22;0.970258;0.205708;0.022627;122.8;0.0;0.0;1.0;0.0;0.0
3.0;1753880916.141863;17.849833;0.78;-1.42;-0.16;0.969605;0.207379;0.024149;118.6;0.0;0.0;0.6;0.0;0.0
3.0;1753880916.146596;17.866273;0.79;-1.32;-0.24;0.971403;0.205903;0.022516;119.2;0.0;0.0;1.1;0.0;0.0
3.0;1753880916.151329;17.906241;0.74;-1.39;-0.23;0.970138;0.207085;0.022746;120.3;0.0;0.0;1.5;0.0;0.0
3.0;1753880916.156062;17.883436;0.76;-1.32;-0.18;0.969336;0.207602;0.02191;121.8;0.0;0.0;1.0;0.0;0.0
3.0;1753880916.160795;17.885646;0.74;-1.4;-0.26;0.971599;0.204277;0.024198;118.6;0.0;0.0;0.9;0.0;0.0
3.0;1753880916.165528;17.906443;0.7;-1.42;-0.22;0.971014;0.206466;0.022758;121.9;0.0;0.0;0.2;0.0;0.0
3.0;1753880916.170261;17.904617;0.75;-1.35;-0.25;0.970304;0.204528;0.022104;118.2;0.0;0.0;0.0;0.0;0.0
3.0;1753880916.174994;17.87045;0.79;-1.27;-0.19;0.969437;0.20726;0.022873;118.2;0.0;0.0;0.2;0.0;0.0
3.0;1753880916.179727;17.932341;0.71;-1.36;-0.23;0.971706;0.204621;0.024772;120.4;0.0;0.0;1.2;0.0;0.0
3.0;1753880916.18446;17.907698;0.75;-1.39;-0.24;0.970727;0.207146;0.024862;118.3;0.0;0.0;0.8;0.0;0.0
3.0;1753880916.189194;17.89332;0.69;-1.27;-0.21;0.970427;0.206021;0.022325;119.9;0.0;0.0;0.6;0.0;0.0
3.0;1753880916.193926;17.879467;0.67;-1.32;-0.17;0.970722;0.205932;0.022184;120.8;0.0;0.0;1.2;0.0;0.0
3.0;1753880916.19866;17.87723;0.7;-1.28;-0.18;0.970371;0.205174;0.023455;120.9;0.0;0.0;0.8;0.0;0.0
3.0;1753880916.203393;17.887212;0.69;-1.34;-0.17;0.970186;0.207411;0.024064;119.5;0.0;0.0;1.2;0.0;0.0
3.0;1753880916.208126;17.894977;0.77;-1.32;-0.19;0.970025;0.206189;0.024418;120.7;0.0;0.0;0.6;0.0;0.0
3.0;1753880916.212859;17.925739;0.79;-1.33;-0.22;0.971563;0.204336;0.024138;120.0;0.0;0.0;0.9;0.0;0.0
3.0;1753880916.217592;17.919844;0.67;-1.37;-0.22;0.970661;0.206959;0.023075;120.2;0.0;0.0;1.8;0.0;0.0
3.0;1753880916.222325;17.92142;0.63;-1.34;-0.16;0.969472;0.205127;0.024273;121.3;0.0;0.0;0.2;0.0;0.0
3.0;1753880916.227058;17.878706;0.74;-1.38;-0.24;0.971017;0.206057;0.024347;118.6;0.0;0.0;0.9;0.0;0.0
3.0;1753880916.231791;17.899936;0.76;-1.35;-0.22;0.970444;0.20669;0.023602;118.1;0.0;0.0;0.5;0.0;0.0
3.0;1753880916.236524;17.909589;0.72;-1.27;-0.16;0.969948;0.204939;0.023598;120.1;0.0;0.0;1.2;0.0;0.0
3.0;1753880916.241258;17.901918;0.77;-1.38;-0.26;0.972142;0.207197;0.02537;117.8;0.0;0.0;1.0;0.0;0.0
3.0;1753880916.24599;17.868249;0.72;-1.32;-0.22;0.969516;0.207204;0.023079;120.5;0.0;0.0;1.3;0.0;0.0
3.0;1753880916.250724;17.892291;0.74;-1.31;-0.21;0.970572;0.206209;0.0237;118.8;0.0;0.0;0.6;0.0;0.0
3.0;1753880916.255457;17.892753;0.75;-1.39;-0.17;0.971419;0.205092;0.023345;119.0;0.0;0.0;1.3;0.0;0.0
3.0;1753880916.26019;17.885389;0.75;-1.26;-0.2;0.970162;0.205228;0.021633;120.8;0.0;0.0;1.1;0.0;0.0
3.0;1753880916.264923;17.902299;0.65;-1.34;-0.19;0.971697;0.207338;0.024474;119.7;0.0;0.0;1.0;0.0;0.0
3.0;1753880916.269656;17.917104;0.72;-1.28;-0.23;0.970721;0.206588;0.024363;119.4;0.0;0.0;1.7;0.0;0.0
3.0;1753880916.274389;17.895163;0.69;-1.35;-0.25;0.969051;0.206359;0.02415;121.7;0.0;0.0;1.1;0.0;0.0
3.0;1753880916.279122;17.918027;0.73;-1.38;-0.13;0.97141;0.205894;0.02267;119.6;0.0;0.0;0.8;0.0;0.0
3.0;1753880916.283855;17.897534;0.67;-1.37;-0.17;0.970997;0.20609;0.024294;119.6;0.0;0.0;0.5;0.0;0.0
3.0;1753880916.288588;17.869368;0.64;-1.31;-0.27;0.970799;0.205915;0.022149;121.6;0.0;0.0;1.0;0.0;0.0
3.0;1753880916.293321;17.861164;0.67;-1.32;-0.22;0.969531;0.204859;0.023527;120.1;0.0;0.0;0.8;0.0;0.0
3.0;1753880916.298054;17.901291;0.65;-1.32;-0.17;0.969876;0.205196;0.023374;119.7;0.0;0.0;0.4;0.0;0.0
3.0;1753880916.302788;17.922599;0.69;-1.31;-0.22;0.969619;0.205153;0.024401;120.8;0.0;0.0;1.2;0.0;0.0
3.0;1753880916.307521;17.874952;0.64;-1.29;-0.23;0.970157;0.206557;0.021971;121.8;0.0;0.0;1.0;0.0;0.0
3.0;1753880916.312254;17.873616;0.58;-1.38;-0.18;0.970727;0.206492;0.023964;119.3;0.0;0.0;0.6;0.0;0.0
3.0;1753880916.316987;17.915671;0.74;-1.25;-0.26;0.970198;0.205153;0.023306;119.0;0.0;0.0;0.9;0.0;0.0
3.0;1753880916.32172;17.888124;0.67;-1.33;-0.2;0.971556;0.205764;0.023969;119.8;0.0;0.0;1.3;0.0;0.0
3.0;1753880916.326453;17.880648;0.74;-1.3;-0.23;0.970708;0.204456;0.023688;120.2;0.0;0.0;0.9;0.0;0.0
3.0;1753880916.331186;17.912581;0.7;-1.37;-0.24;0.97177;0.205763;0.023875;120.9;0.0;0.0;0.4;0.0;0.0
3.0;1753880916.335919;17.870732;0.66;-1.28;-0.26;0.970147;0.208139;0.023281;117.2;0.0;0.0;1.9;0.0;0.0
3.0;1753880916.340652;17.902469;0.73;-1.36;-0.16;0.970119;0.206279;0.023624;119.7;0.0;0.0;-0.1;0.0;0.0
3.0;1753880916.345385;17.884116;0.82;-1.33;-0.23;0.969795;0.207077;0.021926;121.3;0.0;0.0;1.7;0.0;0.0
3.0;1753880916.350118;17.935391;0.74;-1.38;-0.18;0.970034;0.205471;0.022815;121.7;0.0;0.0;0.6;0.0;0.0
3.0;1753880916.354852;17.86566;0.74;-1.36;-0.2;0.971782;0.206097;0.023823;118.8;0.0;0.0;1.2;0.0;0.0
3.0;1753880916.359584;17.933559;0.82;-1.33;-0.23;0.970802;0.20472;0.025412;119.6;0.0;0.0;1.1;0.0;0.0
3.0;1753880916.364318;17.877275;0.7;-1.35;-0.26;0.970908;0.206436;0.023182;119.9;0.0;0.0;0.9;0.0;0.0
3.0;1753880916.369051;17.902004;0.72;-1.29;-0.14;0.970289;0.205089;0.02146;120.2;0.0;0.0;1.1;0.0;0.0
3.0;1753880916.373784;17.91889;0.83;-1.29;-0.23;0.971872;0.205041;0.022724;120.7;0.0;0.0;1.2;0.0;0.0
3.0;1753880916.378517;17.912098;0.77;-1.33;-0.2;0.971798;0.206152;0.02405;120.7;0.0;0.0;1.2;0.0;0.0
3.0;1753880916.38325;17.831912;0.79;-1.34;-0.24;0.970238;0.204382;0.022916;119.6;0.0;0.0;1.1;0.0;0.0
3.0;1753880916.387983;17.902318;0.75;-1.4;-0.23;0.970513;0.206197;0.023401;117.8;0.0;0.0;2.5;0.0;0.0
3.0;1753880916.392716;17.876848;0.73;-1.31;-0.2;0.970379;0.205207;0.022691;117.7;0.0;0.0;0.3;0.0;0.0
3.0;1753880916.397449;17.851969;0.76;-1.31;-0.24;0.971579;0.205324;0.023246;120.6;0.0;0.0;2.1;0.0;0.0
3.0;1753880916.402182;17.859827;0.73;-1.25;-0.23;0.97151;0.205158;0.023626;120.9;0.0;0.0;1.0;0.0;0.0
3.0;1753880916.406916;17.850081;0.8;-1.39;-0.18;0.970892;0.204433;0.023488;121.4;0.0;0.0;1.3;0.0;0.0
3.0;1753880916.411648;17.87698;0.7;-1.28;-0.18;0.971143;0.205598;0.02305;120.5;0.0;0.0;0.9;0.0;0.0
3.0;1753880916.416382;17.914024;0.73;-1.3;-0.2;0.970317;0.206769;0.023782;120.0;0.0;0.0;1.3;0.0;0.0
3.0;1753880916.421115;17.901487;0.77;-1.35;-0.27;0.969423;0.204128;0.023125;122.1;0.0;0.0;1.6;0.0;0.0
3.0;1753880916.425848;17.896213;0.68;-1.32;-0.16;0.969832;0.205574;0.023752;120.2;0.0;0.0;0.6;0.0;0.0
3.0;1753880916.430581;17.920878;0.75;-1.32;-0.13;0.970819;0.207019;0.024028;118.3;0.0;0.0;1.0;0.0;0.0
3.0;1753880916.435314;17.891855;0.73;-1.45;-0.17;0.969173;0.204528;0.025149;121.1;0.0;0.0;1.1;0.0;0.0
3.0;1753880916.440047;17.869249;0.76;-1.25;-0.24;0.970856;0.205414;0.023707;121.9;0.0;0.0;1.0;0.0;0.0
3.0;1753880916.44478;17.864917;0.79;-1.32;-0.18;0.971041;0.205066;0.02264;118.3;0.0;0.0;1.0;0.0;0.0
3.0;1753880916.449513;17.91034;0.74;-1.27;-0.26;0.970485;0.206201;0.022099;120.0;0.0;0.0;1.1;0.0;0.0
3.0;1753880916.454246;17.873515;0.84;-1.28;-0.22;0.970612;0.205218;0.023614;122.6;0.0;0.0;0.8;0.0;0.0
3.0;1753880916.458979;17.887109;0.8;-1.25;-0.24;0.970274;0.205456;0.021874;119.9;0.0;0.0;0.2;0.0;0.0
3.0;1753880916.463712;17.925974;0.65;-1.24;-0.23;0.970651;0.204992;0.023121;120.7;0.0;0.0;1.3;0.0;0.0
3.0;1753880916.468446;17.898072;0.75;-1.25;-0.25;0.970892;0.205516;0.022422;120.9;0.0;0.0;1.0;0.0;0.0
3.0;1753880916.473179;17.914047;0.77;-1.31;-0.21;0.971083;0.206748;0.023812;118.6;0.0;0.0;1.8;0.0;0.0
3.0;1753880916.477912;17.900202;0.75;-1.26;-0.17;0.971452;0.207122;0.024002;121.2;0.0;0.0;1.0;0.0;0.0
3.0;1753880916.482645;17.891202;0.78;-1.28;-0.2;0.970633;0.20678;0.023893;121.6;0.0;0.0;1.7;0.0;0.0
3.0;1753880916.487378;17.87783;0.79;-1.34;-0.15;0.970572;0.203964;0.024221;119.8;0.0;0.0;1.3;0.0;0.0
3.0;1753880916.492111;17.881379;0.64;-1.32;-0.13;0.971116;0.20575;0.022871;120.2;0.0;0.0;1.0;0.0;0.0
3.0;1753880916.496844;17.880073;0.73;-1.35;-0.25;0.970978;0.206552;0.023224;120.1;0.0;0.0;0.3;0.0;0.0
3.0;1753880916.501577;17.876141;0.73;-1.27;-0.28;0.970141;0.205788;0.022845;120.0;0.0;0.0;1.4;0.0;0.0
3.0;1753880916.50631;17.890672;0.75;-1.31;-0.13;0.970045;0.205369;0.02295;117.6;0.0;0.0;0.3;0.0;0.0
3.0;1753880916.511043;17.884825;0.76;-1.27;-0.18;0.971236;0.206188;0.024021;119.1;0.0;0.0;0.6;0.0;0.0
3.0;1753880916.515776;17.904653;0.7;-1.34;-0.23;0.970382;0.205902;0.023441;120.9;0.0;0.0;2.0;0.0;0.0
3.0;1753880916.52051;17.88088;0.72;-1.3;-0.23;0.970491;0.205655;0.023291;121.8;0.0;0.0;1.2;0.0;0.0
3.0;1753880916.525242;17.914717;0.74;-1.37;-0.15;0.969983;0.205654;0.022459;118.6;0.0;0.0;1.6;0.0;0.0
3.0;1753880916.529976;17.868209;0.66;-1.34;-0.16;0.970361;0.206644;0.024739;120.3;0.0;0.0;1.5;0.0;0.0
3.0;1753880916.534709;17.879534;0.76;-1.2;-0.18;0.971042;0.206378;0.022898;119.4;0.0;0.0;1.1;0.0;0.0
3.0;1753880916.539442;17.939495;0.8;-1.32;-0.24;0.970928;0.203334;0.024992;119.9;0.0;0.0;1.1;0.0;0.0
3.0;1753880916.544175;17.873106;0.73;-1.36;-0.21;0.969735;0.207242;0.02309;118.8;0.0;0.0;1.0;0.0;0.0
3.0;1753880916.548908;17.905945;0.72;-1.41;-0.19;0.971545;0.205504;0.023365;118.8;0.0;0.0;0.5;0.0;0.0
3.0;1753880916.553641;17.890163;0.73;-1.31;-0.3;0.971668;0.204525;0.023676;118.8;0.0;0.0;1.0;0.0;0.0
3.0;1753880916.558374;17.89318;0.66;-1.32;-0.16;0.971299;0.204435;0.022869;120.1;0.0;0.0;2.0;0.0;0.0
3.0;1753880916.563107;17.868961;0.8;-1.34;-0.2;0.972073;0.204946;0.024373;119.6;0.0;0.0;0.3;0.0;0.0
3.0;1753880916.56784;17.913147;0.79;-1.29;-0.27;0.969914;0.206321;0.023358;119.5;0.0;0.0;0.4;0.0;0.0
3.0;1753880916.572574;17.897439;0.74;-1.3;-0.25;0.970896;0.204972;0.023126;120.0;0.0;0.0;0.1;0.0;0.0
3.0;1753880916.577306;17.895137;0.79;-1.39;-0.28;0.971296;0.205034;0.022888;119.5;0.0;0.0;0.0;0.0;0.0
3.0;1753880916.58204;17.883319;0.72;-1.37;-0.21;0.970892;0.204155;0.021681;120.5;0.0;0.0;0.8;0.0;0.0
3.0;1753880916.586773;17.874853;0.68;-1.35;-0.23;0.969866;0.204174;0.024447;118.5;0.0;0.0;1.2;0.0;0.0
3.0;1753880916.591506;17.929371;0.82;-1.31;-0.23;0.970867;0.206588;0.023025;120.5;0.0;0.0;0.7;0.0;0.0
3.0;1753880916.596239;17.864806;0.83;-1.42;-0.23;0.970364;0.206311;0.022709;120.1;0.0;0.0;0.5;0.0;0.0
3.0;1753880916.600972;17.903233;0.81;-1.33;-0.16;0.970161;0.205166;0.024135;119.3;0.0;0.0;1.0;0.0;0.0
3.0;1753880916.605705;17.893965;0.85;-1.22;-0.25;0.970884;0.205177;0.023833;119.2;0.0;0.0;0.3;0.0;0.0
3.0;1753880916.610438;17.867039;0.79;-1.45;-0.26;0.969864;0.205643;0.024489;120.8;0.0;0.0;0.6;0.0;0.0
3.0;1753880916.615171;17.895847;0.85;-1.34;-0.18;0.971992;0.205047;0.021496;122.0;0.0;0.0;1.1;0.0;0.0
3.0;1753880916.619904;17.900861;0.76;-1.26;-0.18;0.971297;0.205335;0.023656;121.1;0.0;0.0;0.6;0.0;0.0
3.0;1753880916.624637;17.901402;0.64;-1.26;-0.15;0.970362;0.205105;0.024431;123.3;0.0;0.0;1.4;0.0;0.0
3.0;1753880916.62937;17.843758;0.79;-1.42;-0.14;0.970881;0.206221;0.024319;119.1;0.0;0.0;0.7;0.0;0.0
3.0;1753880916.634104;17.906215;0.79;-1.22;-0.2;0.970633;0.205083;0.023769;119.6;0.0;0.0;0.6;0.0;0.0
3.0;1753880916.638836;17.905644;0.81;-1.39;-0.19;0.972075;0.206652;0.023213;117.9;0.0;0.0;1.9;0.0;0.0
3.0;1753880916.64357;17.875788;0.73;-1.36;-0.23;0.971384;0.205593;0.022637;120.3;0.0;0.0;1.4;0.0;0.0
3.0;1753880916.648303;17.893141;0.73;-1.22;-0.22;0.971328;0.205657;0.024913;118.5;0.0;0.0;1.0;0.0;0.0
3.0;1753880916.653036;17.91116;0.78;-1.36;-0.21;0.970539;0.20526;0.024893;120.6;0.0;0.0;1.1;0.0;0.0
3.0;1753880916.657769;17.853438;0.85;-1.28;-0.16;0.971218;0.205282;0.023563;121.2;0.0;0.0;0.9;0.0;0.0
3.0;1753880916.662502;17.892073;0.65;-1.28;-0.22;0.970137;0.205833;0.023869;122.3;0.0;0.0;0.5;0.0;0.0
3.0;1753880916.667235;17.906266;0.85;-1.39;-0.19;0.970455;0.206037;0.023385;121.2;0.0;0.0;0.9;0.0;0.0
3.0;1753880916.671968;17.865194;0.73;-1.29;-0.16;0.971478;0.205005;0.024512;119.4;0.0;0.0;0.1;0.0;0.0
3.0;1753880916.676701;17.881768;0.8;-1.25;-0.26;0.96843;0.2053;0.024777;119.5;0.0;0.0;1.4;0.0;0.0
3.0;1753880916.681434;17.859064;0.7;-1.3;-0.25;0.971781;0.206704;0.023027;118.1;0.0;0.0;2.1;0.0;0.0
3.0;1753880916.686168;17.882499;0.74;-1.35;-0.25;0.971594;0.207855;0.023421;121.4;0.0;0.0;0.1;0.0;0.0
3.0;1753880916.6909;17.873882;0.72;-1.28;-0.2;0.97038;0.206996;0.023533;119.1;0.0;0.0;1.8;0.0;0.0
3.0;1753880916.695634;17.873262;0.75;-1.29;-0.18;0.972101;0.205697;0.025615;121.0;0.0;0.0;1.0;0.0;0.0
3.0;1753880916.700367;17.927744;0.74;-1.31;-0.18;0.970675;0.205126;0.024348;118.5;0.0;0.0;1.5;0.0;0.0
3.0;1753880916.7051;17.898627;0.76;-1.26;-0.22;0.971556;0.204747;0.023393;119.9;0.0;0.0;0.6;0.0;0.0
3.0;1753880916.709833;17.86108;0.86;-1.34;-0.22;0.971124;0.205687;0.022961;121.2;0.0;0.0;1.7;0.0;0.0
3.0;1753880916.714566;17.882406;0.61;-1.33;-0.2;0.970974;0.204096;0.022952;119.7;0.0;0.0;0.7;0.0;0.0
3.0;1753880916.719299;17.895279;0.78;-1.34;-0.21;0.97087;0.204698;0.02279;118.9;0.0;0.0;1.2;0.0;0.0
3.0;1753880916.724032;17.877264;0.77;-1.3;-0.2;0.97171;0.205588;0.022377;118.3;0.0;0.0;1.5;0.0;0.0
3.0;1753880916.728765;17.890168;0.78;-1.4;-0.18;0.972243;0.205335;0.023011;119.5;0.0;0.0;1.5;0.0;0.0
3.0;1753880916.733498;17.895839;0.63;-1.41;-0.22;0.970112;0.205403;0.025719;119.7;0.0;0.0;1.5;0.0;0.0
3.0;1753880916.738232;17.906859;0.68;-1.27;-0.25;0.972422;0.206173;0.023276;121.0;0.0;0.0;1.8;0.0;0.0
3.0;1753880916.742964;17.881993;0.76;-1.34;-0.19;0.970079;0.205487;0.022822;118.9;0.0;0.0;1.2;0.0;0.0
3.0;1753880916.747698;17.892447;0.86;-1.44;-0.23;0.971008;0.207744;0.023714;119.3;0.0;0.0;0.2;0.0;0.0
3.0;1753880916.752431;17.853322;0.71;-1.36;-0.32;0.971468;0.205185;0.023332;121.3;0.0;0.0;1.3;0.0;0.0
3.0;1753880916.757164;17.896436;0.74;-1.28;-0.21;0.969183;0.205709;0.022563;120.2;0.0;0.0;0.3;0.0;0.0
3.0;1753880916.761897;17.904123;0.76;-1.39;-0.16;0.96982;0.20461;0.023903;120.8;0.0;0.0;2.3;0.0;0.0
3.0;1753880916.76663;17.894425;0.78;-1.39;-0.22;0.97167;0.206153;0.023472;122.7;0.0;0.0;1.0;0.0;0.0
3.0;1753880916.771363;17.849196;0.76;-1.37;-0.25;0.970396;0.204639;0.023007;120.2;0.0;0.0;0.5;0.0;0.0
3.0;1753880916.776096;17.857411;0.74;-1.28;-0.21;0.970104;0.205135;0.021395;120.3;0.0;0.0;0.3;0.0;0.0
3.0;1753880916.780829;17.883209;0.78;-1.31;-0.14;0.970125;0.204797;0.022791;120.0;0.0;0.0;0.7;0.0;0.0
3.0;1753880916.785562;17.894491;0.87;-1.32;-0.29;0.97109;0.206138;0.022506;121.0;0.0;0.0;0.4;0.0;0.0
3.0;1753880916.790295;17.883669;0.83;-1.24;-0.18;0.971235;0.204736;0.023251;119.2;0.0;0.0;0.2;0.0;0.0
3.0;1753880916.795028;17.889487;0.77;-1.29;-0.19;0.971517;0.207528;0.023293;121.3;0.0;0.0;1.1;0.0;0.0
3.0;1753880916.799762;17.883193;0.81;-1.35;-0.17;0.969576;0.20614;0.023838;121.0;0.0;0.0;0.8;0.0;0.0
3.0;1753880916.804494;17.906473;0.68;-1.27;-0.22;0.97065;0.205209;0.025172;120.3;0.0;0.0;1.5;0.0;0.0
3.0;1753880916.809228;17.89053;0.81;-1.31;-0.24;0.971116;0.206681;0.023339;120.5;0.0;0.0;0.0;0.0;0.0
3.0;1753880916.8152;17.890625;0.77;-1.33;-0.21;0.970754;0.20557;0.023546;120.0;0.0;0.0;1.0;0.0;0.0
3.0;1753880916.819933;17.89582;0.77;-1.32;-0.25;0.971381;0.206131;0.023364;120.7;0.0;0.0;1.0;0.0;0.0
3.0;1753880916.824666;17.903951;0.7;-1.39;-0.2;0.971007;0.204893;0.022091;119.5;0.0;0.0;1.2;0.0;0.0
3.0;1753880916.829399;17.876711;0.74;-1.31;-0.23;0.97084;0.204333;0.023352;121.1;0.0;0.0;0.1;0.0;0.0
3.0;1753880916.834132;17.869463;0.73;-1.3;-0.17;0.969554;0.204492;0.024021;119.3;0.0;0.0;0.6;0.0;0.0
3.0;1753880916.838866;17.894371;0.82;-1.37;-0.21;0.970538;0.205133;0.024218;120.5;0.0;0.0;0.5;0.0;0.0
3.0;1753880916.843598;17.912956;0.83;-1.24;-0.19;0.970876;0.205875;0.024614;120.7;0.0;0.0;1.3;0.0;0.0
3.0;1753880916.848332;17.869896;0.76;-1.17;-0.17;0.969454;0.204657;0.023415;118.3;0.0;0.0;0.7;0.0;0.0
3.0;1753880916.853065;17.882812;0.81;-1.29;-0.2;0.971096;0.20538;0.024934;121.2;0.0;0.0;1.3;0.0;0.0
3.0;1753880916.857798;17.940106;0.77;-1.26;-0.18;0.97102;0.205249;0.024177;119.7;0.0;0.0;1.9;0.0;0.0
3.0;1753880916.862531;17.911276;0.78;-1.32;-0.18;0.971368;0.204643;0.024553;119.9;0.0;0.0;1.2;0.0;0.0
3.0;1753880916.867264;17.895216;0.81;-1.27;-0.18;0.969252;0.206435;0.02222;120.4;0.0;0.0;1.3;0.0;0.0
3.0;1753880916.871997;17.909353;0.75;-1.24;-0.17;0.970409;0.205724;0.024653;119.2;0.0;0.0;2.2;0.0;0.0
3.0;1753880916.87673;17.892042;0.76;-1.23;-0.22;0.970398;0.207824;0.023426;121.3;0.0;0.0;1.1;0.0;0.0
3.0;1753880916.881463;17.893881;0.71;-1.32;-0.2;0.970825;0.205181;0.023055;120.6;0.0;0.0;1.2;0.0;0.0
3.0;1753880916.886196;17.844238;0.72;-1.33;-0.22;0.972239;0.205024;0.023737;120.6;0.0;0.0;0.8;0.0;0.0
3.0;1753880916.89093;17.898075;0.75;-1.32;-0.22;0.970424;0.205515;0.024099;118.9;0.0;0.0;0.9;0.0;0.0
3.0;1753880916.895662;17.876477;0.68;-1.32;-0.27;0.971273;0.206259;0.024737;121.0;0.0;0.0;2.2;0.0;0.0
3.0;1753880916.900396;17.878119;0.67;-1.28;-0.18;0.970965;0.205879;0.022059;120.0;0.0;0.0;0.9;0.0;0.0
3.0;1753880916.905129;17.880955;0.81;-1.29;-0.23;0.970411;0.204589;0.024193;121.7;0.0;0.0;1.9;0.0;0.0
3.0;1753880916.909862;17.870872;0.73;-1.31;-0.2;0.970068;0.205634;0.024325;119.5;0.0;0.0;1.4;0.0;0.0
3.0;1753880916.9167;17.890625;0.7;-1.26;-0.21;0.970754;0.20557;0.023546;120.0;0.0;0.0;1.0;0.0;0.0
3.0;1753880916.921433;17.928899;0.71;-1.39;-0.2;0.970646;0.204714;0.023284;120.7;0.0;0.0;1.6;0.0;0.0
3.0;1753880916.926166;17.909034;0.73;-1.26;-0.19;0.970638;0.205586;0.02384;120.4;0.0;0.0;1.5;0.0;0.0
3.0;1753880916.93476;17.890625;0.7;-1.26;-0.21;0.970876;0.20435;0.022936;119.0;0.0;0.0;1.0;0.0;0.0
3.0;1753880916.939493;17.900197;0.72;-1.2;-0.21;0.971875;0.203686;0.023125;118.4;0.0;0.0;0.1;0.0;0.0
3.0;1753880916.944226;17.900014;0.72;-1.3;-0.26;0.97065;0.2047;0.023231;118.6;0.0;0.0;0.7;0.0;0.0
3.0;1753880916.948959;17.926476;0.86;-1.34;-0.19;0.970876;0.206518;0.023674;119.0;0.0;0.0;0.9;0.0;0.0
3.0;1753880916.953692;17.929842;0.81;-1.25;-0.17;0.970928;0.206388;0.023031;119.9;0.0;0.0;1.6;0.0;0.0
3.0;1753880916.958426;17.852648;0.8;-1.31;-0.13;0.970449;0.204533;0.023417;116.7;0.0;0.0;1.8;0.0;0.0
3.0;1753880916.963158;17.909384;0.79;-1.36;-0.22;0.969759;0.205003;0.024185;119.3;0.0;0.0;0.7;0.0;0.0
3.0;1753880916.967892;17.866309;0.79;-1.36;-0.22;0.96931;0.206084;0.023859;118.4;0.0;0.0;1.8;0.0;0.0
3.0;1753880916.972625;17.908305;0.88;-1.39;-0.13;0.969372;0.2054;0.024642;117.8;0.0;0.0;1.5;0.0;0.0
3.0;1753880916.98145;17.890625;0.84;-1.33;-0.21;0.970144;0.205936;0.024034;119.0;0.0;0.0;1.0;0.0;0.0
3.0;1753880916.987743;17.8125;0.77;-1.26;-0.21;0.970266;0.204472;0.02318;120.0;0.0;0.0;1.0;0.0;0.0
3.0;1753880916.992782;17.796875;0.84;-1.33;-0.21;0.970632;0.206912;0.023424;120.0;0.0;0.0;1.0;0.0;0.0
3.0;1753880916.996761;17.796875;0.84;-1.33;-0.21;0.969656;0.205814;0.023424;120.0;0.0;0.0;1.0;0.0;0.0
3.0;1753880917.001494;17.804279;0.78;-1.3;-0.2;0.970103;0.204812;0.024014;119.1;0.0;0.0;0.1;0.0;0.0
3.0;1753880917.006227;17.794133;0.68;-1.33;-0.15;0.969131;0.205267;0.022754;120.0;0.0;0.0;0.8;0.0;0.0
3.0;1753880917.01096;17.809326;0.77;-1.3;-0.03;0.969809;0.205663;0.023063;121.1;0.0;0.0;1.2;0.0;0.0
3.0;1753880917.015694;17.800789;0.78;-1.27;-0.15;0.969733;0.20637;0.02373;120.8;0.0;0.0;0.6;0.0;0.0
3.0;1753880917.020426;17.79551;0.77;-1.33;-0.14;0.970444;0.204964;0.024098;121.5;0.0;0.0;0.6;0.0;0.0
3.0;1753880917.02516;17.793245;0.77;-1.25;-0.22;0.97064;0.206767;0.023943;118.6;0.0;0.0;1.0;0.0;0.0
3.0;1753880917.029893;17.785387;0.98;-1.33;-0.09;0.969911;0.205088;0.023185;120.5;0.0;0.0;0.9;0.0;0.0
3.0;1753880917.034626;17.79723;0.86;-1.36;-0.17;0.97028;0.206557;0.023631;119.6;0.0;0.0;1.8;0.0;0.0
3.0;1753880917.039359;17.796494;0.76;-1.24;-0.23;0.970121;0.20547;0.023546;119.6;0.0;0.0;1.3;0.0;0.0
3.0;1753880917.044092;17.801648;0.72;-1.33;-0.15;0.968881;0.205499;0.02303;120.2;0.0;0.0;1.0;0.0;0.0
3.0;1753880917.048825;17.802628;0.75;-1.29;-0.15;0.969622;0.20439;0.02299;118.0;0.0;0.0;1.0;0.0;0.0
3.0;1753880917.053558;17.790064;0.85;-1.29;-0.25;0.969949;0.205928;0.02319;118.3;0.0;0.0;0.3;0.0;0.0
3.0;1753880917.058291;17.7907;0.79;-1.26;-0.26;0.970391;0.204623;0.023553;119.7;0.0;0.0;0.7;0.0;0.0
3.0;1753880917.063024;17.802821;0.8;-1.28;-0.12;0.970829;0.206097;0.02308;118.1;0.0;0.0;1.8;0.0;0.0
3.0;1753880917.067757;17.797111;0.77;-1.3;-0.24;0.970292;0.206372;0.023145;119.2;0.0;0.0;0.9;0.0;0.0
3.0;1753880917.07249;17.799347;0.81;-1.3;-0.17;0.970809;0.205597;0.022615;119.6;0.0;0.0;1.7;0.0;0.0
3.0;1753880917.077224;17.797617;0.85;-1.31;-0.2;0.969382;0.204736;0.023729;118.1;0.0;0.0;0.6;0.0;0.0
3.0;1753880917.081956;17.79079;0.74;-1.3;-0.24;0.970235;0.205443;0.023818;119.7;0.0;0.0;1.7;0.0;0.0
3.0;1753880917.08669;17.81434;0.76;-1.27;-0.23;0.969402;0.2061;0.02368;119.6;0.0;0.0;1.0;0.0;0.0
3.0;1753880917.091423;17.786867;0.69;-1.28;-0.16;0.969845;0.206371;0.023632;119.8;0.0;0.0;1.3;0.0;0.0
3.0;1753880917.096156;17.800308;0.79;-1.29;-0.18;0.969814;0.205367;0.02292;119.9;0.0;0.0;1.0;0.0;0.0
3.0;1753880917.100889;17.788276;0.62;-1.22;-0.19;0.970744;0.204878;0.023071;118.9;0.0;0.0;0.9;0.0;0.0
3.0;1753880917.105622;17.794698;0.81;-1.27;-0.15;0.969387;0.204791;0.022676;122.4;0.0;0.0;1.3;0.0;0.0
3.0;1753880917.110355;17.785294;0.67;-1.3;-0.1;0.970463;0.205288;0.022059;119.2;0.0;0.0;1.2;0.0;0.0
3.0;1753880917.115088;17.803598;0.65;-1.25;-0.25;0.969283;0.205575;0.023128;120.5;0.0;0.0;1.5;0.0;0.0
3.0;1753880917.119821;17.79224;0.75;-1.24;-0.15;0.970352;0.206633;0.023154;119.0;0.0;0.0;0.9;0.0;0.0
3.0;1753880917.124554;17.803536;0.78;-1.25;-0.23;0.969959;0.206366;0.023629;120.0;0.0;0.0;1.4;0.0;0.0
3.0;1753880917.129288;17.802635;0.72;-1.29;-0.25;0.970059;0.206169;0.022566;119.7;0.0;0.0;0.9;0.0;0.0
3.0;1753880917.1336;17.796875;0.7;-1.26;-0.21;0.9699;0.205936;0.02318;120.0;0.0;0.0;1.0;0.0;0.0
3.0;1753880917.138333;17.782744;0.68;-1.31;-0.18;0.969097;0.205572;0.023351;121.4;0.0;0.0;0.8;0.0;0.0
3.0;1753880917.143066;17.801986;0.7;-1.27;-0.21;0.970339;0.204749;0.023697;119.9;0.0;0.0;1.0;0.0;0.0
3.0;1753880917.147799;17.797708;0.75;-1.32;-0.21;0.9702;0.205763;0.023693;120.3;0.0;0.0;1.9;0.0;0.0
3.0;1753880917.152532;17.802945;0.65;-1.23;-0.16;0.969637;0.205933;0.022814;118.8;0.0;0.0;-0.0;0.0;0.0
3.0;1753880917.157266;17.788869;0.7;-1.28;-0.19;0.969925;0.204796;0.022762;121.5;0.0;0.0;0.9;0.0;0.0
3.0;1753880917.161998;17.797971;0.76;-1.23;-0.16;0.9691;0.205413;0.02201;118.8;0.0;0.0;1.4;0.0;0.0
3.0;1753880917.166732;17.806068;0.64;-1.3;-0.22;0.970541;0.206193;0.022878;120.6;0.0;0.0;1.3;0.0;0.0
3.0;1753880917.171465;17.793732;0.72;-1.32;-0.29;0.970143;0.205468;0.023153;121.1;0.0;0.0;0.7;0.0;0.0
3.0;1753880917.176198;17.793674;0.77;-1.25;-0.26;0.969779;0.20569;0.023318;118.7;0.0;0.0;1.1;0.0;0.0
3.0;1753880917.180931;17.803279;0.8;-1.29;-0.26;0.970052;0.206274;0.021927;119.9;0.0;0.0;1.9;0.0;0.0
3.0;1753880917.185664;17.805444;0.76;-1.23;-0.17;0.970798;0.203996;0.022995;120.7;0.0;0.0;1.1;0.0;0.0
3.0;1753880917.190397;17.792531;0.61;-1.24;-0.23;0.96925;0.205969;0.022486;118.3;0.0;0.0;0.0;0.0;0.0
3.0;1753880917.19513;17.804372;0.69;-1.22;-0.25;0.970306;0.205227;0.022852;119.4;0.0;0.0;0.6;0.0;0.0
3.0;1753880917.199863;17.801064;0.68;-1.3;-0.14;0.971271;0.206533;0.022576;119.1;0.0;0.0;0.3;0.0;0.0
3.0;1753880917.204596;17.798195;0.82;-1.25;-0.19;0.970042;0.205604;0.022166;119.1;0.0;0.0;1.5;0.0;0.0
3.0;1753880917.209329;17.797878;0.61;-1.25;-0.12;0.971318;0.205716;0.023974;119.7;0.0;0.0;0.8;0.0;0.0
3.0;1753880917.214062;17.796115;0.78;-1.22;-0.21;0.969452;0.206589;0.02328;122.9;0.0;0.0;1.7;0.0;0.0
3.0;1753880917.218796;17.800152;0.59;-1.23;-0.11;0.969705;0.206015;0.023092;120.9;0.0;0.0;0.5;0.0;0.0
3.0;1753880917.223528;17.798559;0.75;-1.27;-0.19;0.969497;0.206925;0.022135;120.4;0.0;0.0;0.5;0.0;0.0
3.0;1753880917.228262;17.793317;0.72;-1.27;-0.21;0.97004;0.206846;0.022456;120.2;0.0;0.0;0.9;0.0;0.0
3.0;1753880917.232995;17.791173;0.79;-1.24;-0.12;0.970267;0.205876;0.022373;119.2;0.0;0.0;1.6;0.0;0.0
3.0;1753880917.237728;17.802727;0.77;-1.23;-0.24;0.968927;0.204911;0.023575;118.0;0.0;0.0;0.4;0.0;0.0
3.0;1753880917.242461;17.779769;0.73;-1.26;-0.21;0.970202;0.206726;0.02254;120.5;0.0;0.0;0.6;0.0;0.0
3.0;1753880917.247194;17.802923;0.72;-1.21;-0.22;0.969376;0.205924;0.023239;122.1;0.0;0.0;0.2;0.0;0.0
3.0;1753880917.251927;17.805976;0.65;-1.28;-0.23;0.970262;0.205292;0.023124;122.2;0.0;0.0;0.9;0.0;0.0
3.0;1753880917.25666;17.790428;0.6;-1.19;-0.18;0.970655;0.205858;0.023377;120.7;0.0;0.0;0.9;0.0;0.0
3.0;1753880917.261393;17.792285;0.59;-1.25;-0.23;0.971211;0.206027;0.023999;119.2;0.0;0.0;1.1;0.0;0.0
3.0;1753880917.266126;17.79526;0.77;-1.22;-0.18;0.969457;0.205208;0.022706;121.0;0.0;0.0;1.1;0.0;0.0
3.0;1753880917.27086;17.790705;0.75;-1.2;-0.31;0.970587;0.205215;0.022441;119.9;0.0;0.0;0.5;0.0;0.0
3.0;1753880917.275592;17.797373;0.76;-1.34;-0.17;0.970868;0.206074;0.023154;120.1;0.0;0.0;0.8;0.0;0.0
3.0;1753880917.280326;17.797486;0.81;-1.2;-0.23;0.969819;0.205317;0.021983;121.1;0.0;0.0;0.9;0.0;0.0
3.0;1753880917.285059;17.806238;0.7;-1.26;-0.27;0.969895;0.20575;0.022707;121.5;0.0;0.0;1.1;0.0;0.0
3.0;1753880917.289792;17.797214;0.61;-1.29;-0.2;0.969985;0.20429;0.022764;119.8;0.0;0.0;1.2;0.0;0.0
3.0;1753880917.294525;17.803302;0.74;-1.26;-0.15;0.97019;0.205749;0.023373;118.2;0.0;0.0;1.7;0.0;0.0
3.0;1753880917.299258;17.794398;0.67;-1.29;-0.23;0.970333;0.205062;0.023907;118.6;0.0;0.0;1.8;0.0;0.0
3.0;1753880917.303991;17.790451;0.68;-1.32;-0.12;0.969418;0.206076;0.02433;120.3;0.0;0.0;1.1;0.0;0.0
3.0;1753880917.308724;17.807201;0.74;-1.24;-0.19;0.970055;0.205755;0.023574;119.5;0.0;0.0;1.7;0.0;0.0
3.0;1753880917.313457;17.795609;0.74;-1.24;-0.14;0.970248;0.206173;0.022922;120.5;0.0;0.0;0.7;0.0;0.0
3.0;1753880917.31819;17.804333;0.76;-1.28;-0.27;0.96996;0.205915;0.023536;118.9;0.0;0.0;0.2;0.0;0.0
3.0;1753880917.322924;17.793826;0.77;-1.28;-0.21;0.969633;0.204538;0.022327;121.3;0.0;0.0;0.7;0.0;0.0
3.0;1753880917.327656;17.792059;0.82;-1.3;-0.16;0.970173;0.206023;0.022543;119.4;0.0;0.0;1.0;0.0;0.0
3.0;1753880917.33239;17.797521;0.65;-1.28;-0.15;0.969897;0.204668;0.023324;120.8;0.0;0.0;0.9;0.0;0.0
3.0;1753880917.337123;17.791238;0.68;-1.24;-0.14;0.969962;0.205111;0.023466;122.0;0.0;0.0;0.7;0.0;0.0
3.0;1753880917.341856;17.81159;0.66;-1.24;-0.23;0.970267;0.205095;0.023604;119.4;0.0;0.0;0.2;0.0;0.0
3.0;1753880917.346589;17.791108;0.75;-1.24;-0.17;0.970843;0.204942;0.022788;119.9;0.0;0.0;1.1;0.0;0.0
3.0;1753880917.351322;17.788453;0.77;-1.19;-0.17;0.969936;0.205868;0.022111;120.4;0.0;0.0;1.1;0.0;0.0
3.0;1753880917.356055;17.813817;0.7;-1.25;-0.18;0.970479;0.204705;0.023052;120.2;0.0;0.0;1.4;0.0;0.0
3.0;1753880917.360788;17.788934;0.78;-1.25;-0.18;0.969518;0.205714;0.023926;120.0;0.0;0.0;1.1;0.0;0.0
3.0;1753880917.365521;17.779683;0.75;-1.27;-0.17;0.969677;0.206279;0.023095;118.8;0.0;0.0;1.0;0.0;0.0
3.0;1753880917.370254;17.796384;0.72;-1.22;-0.17;0.970583;0.206687;0.023377;120.5;0.0;0.0;1.2;0.0;0.0
3.0;1753880917.374987;17.793896;0.75;-1.29;-0.26;0.970016;0.205358;0.022634;118.4;0.0;0.0;0.6;0.0;0.0
3.0;1753880917.37972;17.78943;0.77;-1.25;-0.17;0.970469;0.206625;0.023557;120.0;0.0;0.0;0.2;0.0;0.0
3.0;1753880917.384454;17.806257;0.74;-1.31;-0.19;0.970134;0.205557;0.022753;117.6;0.0;0.0;0.9;0.0;0.0
3.0;1753880917.389186;17.798412;0.72;-1.3;-0.1;0.970744;0.207155;0.023413;118.5;0.0;0.0;1.7;0.0;0.0
3.0;1753880917.39392;17.803893;0.75;-1.22;-0.17;0.969467;0.205754;0.023401;118.8;0.0;0.0;0.6;0.0;0.0
3.0;1753880917.398653;17.807827;0.66;-1.3;-0.18;0.969649;0.206334;0.022928;120.8;0.0;0.0;0.5;0.0;0.0
3.0;1753880917.403386;17.795751;0.75;-1.26;-0.08;0.969851;0.205854;0.023489;121.2;0.0;0.0;0.5;0.0;0.0
3.0;1753880917.408119;17.799315;0.73;-1.24;-0.17;0.970265;0.204843;0.02338;119.2;0.0;0.0;0.6;0.0;0.0
3.0;1753880917.412852;17.777707;0.78;-1.3;-0.14;0.969851;0.205786;0.023142;119.8;0.0;0.0;1.2;0.0;0.0
3.0;1753880917.417585;17.80706;0.77;-1.24;-0.12;0.969744;0.205604;0.023547;119.3;0.0;0.0;1.7;0.0;0.0
3.0;1753880917.422318;17.788502;0.77;-1.2;-0.22;0.969988;0.205579;0.023047;121.3;0.0;0.0;0.7;0.0;0.0
3.0;1753880917.427051;17.783074;0.68;-1.33;-0.27;0.969271;0.206504;0.022139;119.1;0.0;0.0;1.6;0.0;0.0
3.0;1753880917.431784;17.791251;0.68;-1.28;-0.18;0.96989;0.206319;0.02343;119.8;0.0;0.0;0.9;0.0;0.0
3.0;1753880917.436518;17.800927;0.7;-1.27;-0.13;0.969528;0.206112;0.022009;120.8;0.0;0.0;1.4;0.0;0.0
3.0;1753880917.44125;17.799645;0.84;-1.25;-0.18;0.970107;0.206127;0.022347;122.1;0.0;0.0;1.2;0.0;0.0
3.0;1753880917.445984;17.792922;0.81;-1.18;-0.22;0.970149;0.206475;0.022335;118.4;0.0;0.0;0.2;0.0;0.0
3.0;1753880917.450717;17.792817;0.75;-1.33;-0.19;0.970957;0.2058;0.022835;122.2;0.0;0.0;0.9;0.0;0.0
3.0;1753880917.45545;17.797507;0.67;-1.28;-0.11;0.96986;0.206263;0.022281;119.6;0.0;0.0;0.7;0.0;0.0
3.0;1753880917.460183;17.785407;0.88;-1.32;-0.27;0.968627;0.205214;0.022516;120.6;0.0;0.0;1.2;0.0;0.0
3.0;1753880917.464916;17.782054;0.72;-1.29;-0.11;0.970719;0.206867;0.02265;120.1;0.0;0.0;1.2;0.0;0.0
3.0;1753880917.469649;17.792773;0.78;-1.29;-0.16;0.969785;0.20573;0.022003;118.7;0.0;0.0;1.1;0.0;0.0
3.0;1753880917.474382;17.79535;0.75;-1.3;-0.21;0.970044;0.205875;0.02404;121.2;0.0;0.0;1.0;0.0;0.0
3.0;1753880917.479115;17.790383;0.67;-1.22;-0.2;0.970165;0.20479;0.023671;121.0;0.0;0.0;1.2;0.0;0.0
3.0;1753880917.483848;17.800215;0.71;-1.28;-0.19;0.970832;0.205737;0.022411;118.7;0.0;0.0;1.2;0.0;0.0
3.0;1753880917.488582;17.791603;0.66;-1.23;-0.18;0.971309;0.206398;0.022976;120.7;0.0;0.0;0.9;0.0;0.0
3.0;1753880917.493314;17.796039;0.77;-1.25;-0.12;0.969227;0.206239;0.02324;119.7;0.0;0.0;1.7;0.0;0.0
3.0;1753880917.498048;17.790114;0.7;-1.29;-0.12;0.970623;0.208143;0.022925;120.7;0.0;0.0;0.4;0.0;0.0
3.0;1753880917.502781;17.803079;0.78;-1.21;-0.11;0.969482;0.205328;0.023921;119.5;0.0;0.0;0.6;0.0;0.0
3.0;1753880917.507514;17.785388;0.7;-1.28;-0.15;0.970421;0.20572;0.022414;119.9;0.0;0.0;0.7;0.0;0.0
3.0;1753880917.512247;17.809267;0.7;-1.26;-0.1;0.969901;0.206522;0.023292;120.6;0.0;0.0;0.5;0.0;0.0
3.0;1753880917.51698;17.791922;0.81;-1.28;-0.2;0.969793;0.2067;0.022564;121.0;0.0;0.0;1.3;0.0;0.0
3.0;1753880917.521713;17.795009;0.82;-1.29;-0.14;0.970764;0.20569;0.022357;121.2;0.0;0.0;0.1;0.0;0.0
3.0;1753880917.526446;17.800932;0.69;-1.24;-0.11;0.969747;0.205615;0.022896;121.7;0.0;0.0;1.6;0.0;0.0
3.0;1753880917.531179;17.786106;0.81;-1.25;-0.17;0.969939;0.20613;0.022779;120.2;0.0;0.0;0.8;0.0;0.0
3.0;1753880917.535912;17.800119;0.68;-1.29;-0.26;0.969947;0.206301;0.023725;119.0;0.0;0.0;0.6;0.0;0.0
3.0;1753880917.540645;17.800566;0.75;-1.29;-0.16;0.970204;0.206278;0.023559;119.5;0.0;0.0;1.6;0.0;0.0
3.0;1753880917.545378;17.7886;0.64;-1.28;-0.14;0.970649;0.206357;0.022252;118.6;0.0;0.0;1.1;0.0;0.0
3.0;1753880917.550112;17.783228;0.85;-1.29;-0.2;0.970063;0.205116;0.023315;120.3;0.0;0.0;2.3;0.0;0.0
3.0;1753880917.554844;17.79777;0.84;-1.25;-0.13;0.97021;0.206832;0.022993;120.0;0.0;0.0;0.3;0.0;0.0
3.0;1753880917.559578;17.798956;0.65;-1.27;-0.21;0.970468;0.205411;0.022436;119.4;0.0;0.0;0.5;0.0;0.0
3.0;1753880917.564311;17.801582;0.68;-1.3;-0.16;0.96895;0.205903;0.022323;120.5;0.0;0.0;2.4;0.0;0.0
3.0;1753880917.569044;17.795;0.86;-1.29;-0.21;0.968804;0.205753;0.022308;120.5;0.0;0.0;1.6;0.0;0.0
3.0;1753880917.573777;17.808945;0.8;-1.28;-0.1;0.970552;0.205482;0.021437;119.7;0.0;0.0;1.0;0.0;0.0
3.0;1753880917.57851;17.791347;0.71;-1.29;-0.19;0.969649;0.20434;0.022144;119.3;0.0;0.0;1.5;0.0;0.0
3.0;1753880917.583243;17.791713;0.81;-1.2;-0.25;0.970757;0.205244;0.023303;120.9;0.0;0.0;1.4;0.0;0.0
3.0;1753880917.587976;17.791734;0.71;-1.2;-0.16;0.97034;0.206769;0.021969;120.5;0.0;0.0;0.7;0.0;0.0
3.0;1753880917.592709;17.789618;0.74;-1.2;-0.2;0.968726;0.207184;0.023424;121.4;0.0;0.0;1.4;0.0;0.0
3.0;1753880917.597442;17.788632;0.85;-1.3;-0.15;0.969503;0.205095;0.023726;122.5;0.0;0.0;1.1;0.0;0.0
3.0;1753880917.602176;17.787114;0.82;-1.33;-0.24;0.969022;0.206579;0.024017;120.5;0.0;0.0;1.6;0.0;0.0
3.0;1753880917.606908;17.791393;0.73;-1.25;-0.13;0.969787;0.204498;0.023622;121.0;0.0;0.0;0.6;0.0;0.0
3.0;1753880917.611642;17.798838;0.79;-1.28;-0.16;0.968696;0.205458;0.02189;120.6;0.0;0.0;0.5;0.0;0.0
3.0;1753880917.616375;17.808435;0.72;-1.29;-0.15;0.971057;0.205754;0.021267;121.5;0.0;0.0;1.2;0.0;0.0
3.0;1753880917.621108;17.80617;0.81;-1.23;-0.12;0.970004;0.204171;0.023109;121.1;0.0;0.0;0.7;0.0;0.0
3.0;1753880917.625841;17.809483;0.76;-1.24;-0.18;0.969836;0.206974;0.023906;119.7;0.0;0.0;1.0;0.0;0.0
3.0;1753880917.630574;17.791001;0.69;-1.34;-0.19;0.970251;0.205284;0.022998;120.4;0.0;0.0;1.5;0.0;0.0
3.0;1753880917.635307;17.797583;0.76;-1.16;-0.14;0.970803;0.206799;0.023659;118.8;0.0;0.0;0.9;0.0;0.0
3.0;1753880917.64004;17.795232;0.78;-1.23;-0.13;0.969426;0.206573;0.022228;119.4;0.0;0.0;1.1;0.0;0.0
3.0;1753880917.644773;17.809948;0.8;-1.21;-0.1;0.970351;0.204958;0.022542;120.8;0.0;0.0;1.5;0.0;0.0
3.0;1753880917.649506;17.799758;0.79;-1.24;-0.19;0.97061;0.207638;0.022637;119.5;0.0;0.0;0.4;0.0;0.0
3.0;1753880917.65424;17.793315;0.84;-1.33;-0.16;0.969034;0.20597;0.022923;118.4;0.0;0.0;0.6;0.0;0.0
3.0;1753880917.658972;17.801497;0.72;-1.28;-0.2;0.970085;0.205971;0.022985;120.2;0.0;0.0;1.5;0.0;0.0
3.0;1753880917.663706;17.797929;0.78;-1.28;-0.11;0.969147;0.205818;0.022946;119.8;0.0;0.0;0.6;0.0;0.0
3.0;1753880917.668439;17.797903;0.73;-1.23;-0.15;0.971095;0.205692;0.023017;118.0;0.0;0.0;0.7;0.0;0.0
3.0;1753880917.673172;17.790872;0.75;-1.27;-0.1;0.970041;0.207167;0.022854;120.4;0.0;0.0;0.1;0.0;0.0
3.0;1753880917.677905;17.796583;0.81;-1.21;-0.18;0.969031;0.205164;0.024139;120.4;0.0;0.0;1.1;0.0;0.0
3.0;1753880917.682638;17.775845;0.77;-1.26;-0.22;0.970157;0.205496;0.022861;122.0;0.0;0.0;1.3;0.0;0.0
3.0;1753880917.687371;17.798858;0.64;-1.24;-0.16;0.96933;0.206452;0.0226;119.6;0.0;0.0;1.4;0.0;0.0
3.0;1753880917.692104;17.782464;0.78;-1.24;-0.16;0.970438;0.204628;0.023045;119.9;0.0;0.0;1.4;0.0;0.0
3.0;1753880917.696837;17.797481;0.71;-1.27;-0.18;0.970275;0.206135;0.023256;120.6;0.0;0.0;0.1;0.0;0.0
3.0;1753880917.70157;17.805997;0.74;-1.28;-0.17;0.968818;0.205192;0.022507;119.1;0.0;0.0;0.0;0.0;0.0
3.0;1753880917.706303;17.796336;0.68;-1.24;-0.16;0.970652;0.205928;0.022996;120.5;0.0;0.0;1.2;0.0;0.0
3.0;1753880917.711036;17.798573;0.81;-1.26;-0.13;0.970066;0.205416;0.022396;117.5;0.0;0.0;2.2;0.0;0.0
3.0;1753880917.71577;17.800473;0.82;-1.25;-0.13;0.969908;0.206608;0.023014;121.0;0.0;0.0;1.8;0.0;0.0
3.0;1753880917.720502;17.796244;0.82;-1.27;-0.07;0.969499;0.206362;0.022729;119.1;0.0;0.0;1.3;0.0;0.0
3.0;1753880917.725236;17.806756;0.7;-1.28;-0.15;0.968583;0.206795;0.023556;120.1;0.0;0.0;0.2;0.0;0.0
3.0;1753880917.729969;17.803489;0.78;-1.25;-0.13;0.968689;0.206399;0.022365;120.0;0.0;0.0;0.9;0.0;0.0
3.0;1753880917.734702;17.790764;0.85;-1.36;-0.12;0.96998;0.206862;0.022802;119.6;0.0;0.0;1.1;0.0;0.0
3.0;1753880917.739435;17.79772;0.78;-1.23;-0.06;0.970995;0.205835;0.023681;120.8;0.0;0.0;1.5;0.0;0.0
3.0;1753880917.744168;17.789638;0.65;-1.26;-0.17;0.968586;0.20636;0.02257;120.2;0.0;0.0;1.1;0.0;0.0
3.0;1753880917.748901;17.786249;0.78;-1.29;-0.14;0.970535;0.206383;0.023332;119.1;0.0;0.0;0.5;0.0;0.0
3.0;1753880917.753634;17.789425;0.74;-1.32;-0.19;0.969111;0.205583;0.022725;120.5;0.0;0.0;1.6;0.0;0.0
3.0;1753880917.758367;17.805056;0.76;-1.26;-0.16;0.969905;0.206727;0.022796;121.9;0.0;0.0;0.7;0.0;0.0
3.0;1753880917.7631;17.802548;0.74;-1.25;-0.13;0.968662;0.20682;0.022185;118.4;0.0;0.0;1.1;0.0;0.0
3.0;1753880917.767834;17.795821;0.88;-1.27;-0.07;0.969763;0.205732;0.021907;122.0;0.0;0.0;0.5;0.0;0.0
3.0;1753880917.772566;17.80413;0.7;-1.24;-0.26;0.969902;0.204755;0.023303;121.6;0.0;0.0;1.1;0.0;0.0
3.0;1753880917.7773;17.792475;0.72;-1.27;-0.09;0.970024;0.205332;0.02196;120.3;0.0;0.0;0.3;0.0;0.0
3.0;1753880917.782033;17.794336;0.78;-1.25;-0.18;0.970516;0.205921;0.021568;118.4;0.0;0.0;2.0;0.0;0.0
3.0;1753880917.786766;17.791838;0.82;-1.23;-0.09;0.969664;0.205939;0.02239;120.4;0.0;0.0;0.8;0.0;0.0
3.0;1753880917.791499;17.796689;0.81;-1.23;-0.23;0.969993;0.205719;0.022982;118.0;0.0;0.0;2.4;0.0;0.0
3.0;1753880917.796232;17.789824;0.61;-1.29;-0.17;0.96881;0.206674;0.022931;120.6;0.0;0.0;1.8;0.0;0.0
3.0;1753880917.800965;17.795959;0.75;-1.23;-0.16;0.97018;0.205419;0.023595;119.0;0.0;0.0;1.4;0.0;0.0
3.0;1753880917.805698;17.798461;0.85;-1.2;-0.23;0.969875;0.207216;0.023857;119.1;0.0;0.0;1.0;0.0;0.0
3.0;1753880917.810431;17.79979;0.75;-1.22;-0.08;0.968527;0.204141;0.02319;121.7;0.0;0.0;1.5;0.0;0.0
3.0;1753880917.815164;17.791326;0.72;-1.25;-0.09;0.96935;0.205862;0.022431;120.9;0.0;0.0;0.6;0.0;0.0
3.0;1753880917.819898;17.792299;0.9;-1.27;-0.15;0.969076;0.206221;0.022484;121.0;0.0;0.0;1.5;0.0;0.0
3.0;1753880917.82463;17.794248;0.73;-1.28;-0.13;0.969395;0.205722;0.022582;119.8;0.0;0.0;1.4;0.0;0.0
3.0;1753880917.829364;17.804252;0.88;-1.3;-0.12;0.969041;0.205608;0.023994;120.3;0.0;0.0;1.3;0.0;0.0
3.0;1753880917.834097;17.802976;0.85;-1.28;-0.15;0.969284;0.206033;0.022442;119.0;0.0;0.0;0.9;0.0;0.0
3.0;1753880917.83883;17.786198;0.8;-1.24;-0.24;0.970312;0.205899;0.021052;119.8;0.0;0.0;0.4;0.0;0.0
3.0;1753880917.843563;17.805272;0.68;-1.25;-0.06;0.969634;0.206636;0.022542;119.9;0.0;0.0;0.5;0.0;0.0
3.0;1753880917.848296;17.790905;0.7;-1.25;-0.14;0.969886;0.204989;0.022642;119.9;0.0;0.0;0.3;0.0;0.0
3.0;1753880917.853029;17.79026;0.88;-1.21;-0.16;0.968827;0.2055;0.021778;120.3;0.0;0.0;1.0;0.0;0.0
3.0;1753880917.857762;17.791504;0.79;-1.29;-0.15;0.97023;0.205086;0.022549;119.1;0.0;0.0;0.8;0.0;0.0
3.0;1753880917.862495;17.788866;0.78;-1.26;-0.2;0.968983;0.205751;0.022416;118.8;0.0;0.0;1.1;0.0;0.0
3.0;1753880917.867228;17.792146;0.66;-1.25;-0.11;0.968913;0.206657;0.022013;120.4;0.0;0.0;1.6;0.0;0.0
3.0;1753880917.871961;17.791432;0.73;-1.31;-0.07;0.969231;0.204918;0.022481;119.4;0.0;0.0;1.1;0.0;0.0
3.0;1753880917.876694;17.804526;0.78;-1.3;-0.19;0.969521;0.206415;0.022027;120.4;0.0;0.0;0.8;0.0;0.0
3.0;1753880917.881428;17.797009;0.72;-1.3;-0.08;0.969288;0.206267;0.021785;120.2;0.0;0.0;1.8;0.0;0.0
3.0;1753880917.8867;17.796875;0.77;-1.26;-0.14;0.969778;0.205814;0.022692;120.0;0.0;0.0;1.0;0.0;0.0
3.0;1753880917.891433;17.809305;0.71;-1.3;-0.07;0.97018;0.205444;0.024315;118.8;0.0;0.0;1.0;0.0;0.0
3.0;1753880917.896166;17.79514;0.75;-1.29;-0.23;0.97127;0.206076;0.024565;119.5;0.0;0.0;1.3;0.0;0.0
3.0;1753880917.90339;17.820312;0.7;-1.33;-0.21;0.970632;0.204228;0.0244;121.0;0.0;0.0;1.0;0.0;0.0
3.0;1753880917.908123;17.806511;0.76;-1.44;-0.26;0.970587;0.203687;0.025884;120.0;0.0;0.0;1.2;0.0;0.0
3.0;1753880917.912856;17.840297;0.66;-1.3;-0.24;0.969207;0.204293;0.02397;124.3;0.0;0.0;2.0;0.0;0.0
3.0;1753880917.917589;17.815021;0.58;-1.37;-0.21;0.970381;0.202944;0.02446;119.9;0.0;0.0;2.4;0.0;0.0
3.0;1753880917.922322;17.803104;0.65;-1.36;-0.21;0.969695;0.204101;0.025625;123.6;0.0;0.0;2.0;0.0;0.0
3.0;1753880917.927055;17.82566;0.67;-1.33;-0.15;0.969014;0.205165;0.023736;120.3;0.0;0.0;1.6;0.0;0.0
3.0;1753880917.931788;17.807433;0.6;-1.31;-0.28;0.970101;0.204532;0.023924;123.7;0.0;0.0;1.2;0.0;0.0
3.0;1753880917.936522;17.800276;0.73;-1.35;-0.26;0.970987;0.203976;0.02207;123.1;0.0;0.0;1.1;0.0;0.0
3.0;1753880917.941254;17.814109;0.62;-1.26;-0.22;0.970247;0.20503;0.024665;120.9;0.0;0.0;1.6;0.0;0.0
3.0;1753880917.945988;17.839;0.52;-1.33;-0.26;0.970108;0.204309;0.024608;121.1;0.0;0.0;0.7;0.0;0.0
3.0;1753880917.950721;17.812546;0.69;-1.29;-0.27;0.97016;0.204283;0.024079;120.8;0.0;0.0;2.0;0.0;0.0
3.0;1753880917.95583;17.820312;0.63;-1.33;-0.28;0.970022;0.205204;0.024156;121.0;0.0;0.0;1.0;0.0;0.0
3.0;1753880917.955959;17.753906;0.63;-1.26;-0.21;0.97051;0.205204;0.023546;122.0;0.0;0.0;1.0;0.0;0.0
3.0;1753880917.962239;17.753906;0.7;-1.19;-0.21;0.9699;0.205692;0.024034;122.0;0.0;0.0;1.0;0.0;0.0
3.0;1753880917.966437;17.785156;0.7;-1.26;-0.14;0.969534;0.204472;0.024766;122.0;0.0;0.0;1.0;0.0;0.0
3.0;1753880917.970004;17.785156;0.77;-1.33;-0.14;0.970022;0.20557;0.023424;122.0;0.0;0.0;1.0;0.0;0.0
3.0;1753880917.974677;17.785156;0.77;-1.4;-0.21;0.969412;0.205204;0.024034;122.0;0.0;0.0;1.0;0.0;0.0
3.0;1753880917.97939;17.785156;0.7;-1.4;-0.21;0.9699;0.205692;0.022814;122.0;0.0;0.0;1.0;0.0;0.0
3.0;1753880917.984123;17.766364;0.77;-1.3;-0.15;0.970879;0.204136;0.023378;123.7;0.0;0.0;0.7;0.0;0.0
3.0;1753880917.988506;17.78125;0.77;-1.26;-0.21;0.970388;0.204472;0.024522;122.0;0.0;0.0;1.0;0.0;0.0
3.0;1753880917.988695;17.78125;0.7;-1.33;-0.14;0.969778;0.207522;0.023058;122.0;0.0;0.0;1.0;0.0;0.0
3.0;1753880917.997646;17.78125;0.7;-1.33;-0.14;0.970144;0.204716;0.023546;121.0;0.0;0.0;2.0;0.0;0.0
3.0;1753880917.998023;17.78125;0.77;-1.19;-0.21;0.970632;0.205814;0.023912;121.0;0.0;0.0;2.0;0.0;0.0
3.0;1753880918.002756;17.783202;0.79;-1.13;-0.19;0.970854;0.206347;0.023983;120.8;0.0;0.0;1.2;0.0;0.0
3.0;1753880918.007489;17.761365;0.74;-1.17;-0.2;0.969994;0.207517;0.02434;124.9;0.0;0.0;2.6;0.0;0.0
3.0;1753880918.012222;17.761485;0.81;-1.2;-0.2;0.970935;0.20504;0.02485;122.1;0.0;0.0;1.9;0.0;0.0
3.0;1753880918.016956;17.803565;0.76;-1.25;-0.16;0.970343;0.205824;0.023938;124.1;0.0;0.0;2.7;0.0;0.0
3.0;1753880918.021688;17.786471;0.71;-1.28;-0.16;0.971246;0.206722;0.024016;120.3;0.0;0.0;1.4;0.0;0.0
3.0;1753880918.026422;17.801331;0.73;-1.24;-0.28;0.969756;0.205591;0.024656;120.2;0.0;0.0;2.9;0.0;0.0
3.0;1753880918.031155;17.783985;0.8;-1.17;-0.16;0.970614;0.205484;0.023956;119.5;0.0;0.0;1.7;0.0;0.0
3.0;1753880918.035888;17.787658;0.77;-1.25;-0.21;0.970341;0.205792;0.023464;121.5;0.0;0.0;1.5;0.0;0.0
3.0;1753880918.040621;17.781513;0.84;-1.29;-0.2;0.970458;0.205736;0.023933;121.5;0.0;0.0;1.5;0.0;0.0
3.0;1753880918.045354;17.780644;0.81;-1.1;-0.15;0.971293;0.206294;0.02559;121.6;0.0;0.0;2.2;0.0;0.0
3.0;1753880918.050087;17.777102;0.77;-1.27;-0.18;0.970896;0.205017;0.023362;119.6;0.0;0.0;2.6;0.0;0.0
3.0;1753880918.05482;17.777238;0.75;-1.25;-0.16;0.970521;0.204738;0.022974;118.6;0.0;0.0;1.8;0.0;0.0
3.0;1753880918.059553;17.777237;0.75;-1.21;-0.25;0.970762;0.205802;0.024836;122.5;0.0;0.0;1.7;0.0;0.0
3.0;1753880918.064286;17.782876;0.76;-1.24;-0.19;0.971104;0.205421;0.023935;121.6;0.0;0.0;1.3;0.0;0.0
3.0;1753880918.069019;17.769248;0.79;-1.25;-0.21;0.970058;0.205331;0.024408;122.0;0.0;0.0;1.2;0.0;0.0
3.0;1753880918.073752;17.758383;0.74;-1.17;-0.26;0.970978;0.205224;0.024728;122.6;0.0;0.0;2.1;0.0;0.0
3.0;1753880918.078486;17.79352;0.77;-1.23;-0.12;0.970536;0.205549;0.023915;121.6;0.0;0.0;1.6;0.0;0.0
3.0;1753880918.083218;17.785309;0.84;-1.21;-0.28;0.969966;0.20441;0.024031;121.4;0.0;0.0;2.1;0.0;0.0
3.0;1753880918.087952;17.806568;0.77;-1.15;-0.18;0.970138;0.205136;0.022764;123.7;0.0;0.0;1.6;0.0;0.0
3.0;1753880918.092685;17.778495;0.71;-1.2;-0.15;0.970116;0.205521;0.023831;121.7;0.0;0.0;1.4;0.0;0.0
3.0;1753880918.097418;17.763579;0.7;-1.21;-0.17;0.970488;0.205914;0.022917;122.5;0.0;0.0;1.9;0.0;0.0
3.0;1753880918.102151;17.77082;0.72;-1.24;-0.29;0.970246;0.205858;0.025483;119.7;0.0;0.0;1.6;0.0;0.0
3.0;1753880918.106884;17.804215;0.75;-1.39;-0.16;0.970463;0.204671;0.023739;121.7;0.0;0.0;1.9;0.0;0.0
3.0;1753880918.111617;17.760435;0.75;-1.16;-0.18;0.970581;0.204703;0.024186;119.2;0.0;0.0;1.7;0.0;0.0
3.0;1753880918.11635;17.799485;0.78;-1.24;-0.26;0.970459;0.204631;0.023747;124.8;0.0;0.0;1.8;0.0;0.0
3.0;1753880918.121083;17.772323;0.67;-1.2;-0.24;0.970804;0.205107;0.023992;120.9;0.0;0.0;2.9;0.0;0.0
3.0;1753880918.125816;17.791678;0.72;-1.36;-0.27;0.97034;0.205728;0.023408;122.3;0.0;0.0;1.2;0.0;0.0
3.0;1753880918.13055;17.806284;0.78;-1.17;-0.25;0.971277;0.203607;0.023843;121.1;0.0;0.0;2.5;0.0;0.0
3.0;1753880918.135282;17.782366;0.72;-1.27;-0.27;0.97086;0.204814;0.024296;119.6;0.0;0.0;1.5;0.0;0.0
3.0;1753880918.140016;17.776212;0.73;-1.25;-0.13;0.970598;0.205518;0.02432;117.4;0.0;0.0;1.5;0.0;0.0
3.0;1753880918.144749;17.785941;0.78;-1.37;-0.25;0.971612;0.205737;0.024835;118.1;0.0;0.0;2.4;0.0;0.0
3.0;1753880918.149482;17.78712;0.73;-1.17;-0.18;0.969623;0.205056;0.02407;119.7;0.0;0.0;1.6;0.0;0.0
3.0;1753880918.154215;17.778286;0.83;-1.29;-0.2;0.970962;0.206511;0.023129;122.3;0.0;0.0;2.2;0.0;0.0
3.0;1753880918.158948;17.788403;0.74;-1.25;-0.18;0.970323;0.206397;0.022978;120.5;0.0;0.0;2.1;0.0;0.0
3.0;1753880918.163681;17.773226;0.68;-1.19;-0.31;0.969846;0.2044;0.024264;121.2;0.0;0.0;1.9;0.0;0.0
3.0;1753880918.168414;17.783896;0.7;-1.35;-0.22;0.970759;0.206021;0.025136;117.8;0.0;0.0;1.8;0.0;0.0
3.0;1753880918.173147;17.774259;0.7;-1.16;-0.15;0.971205;0.204162;0.024969;122.5;0.0;0.0;2.4;0.0;0.0
3.0;1753880918.17788;17.796481;0.68;-1.28;-0.13;0.970524;0.205633;0.024623;123.9;0.0;0.0;2.0;0.0;0.0
3.0;1753880918.182613;17.794623;0.73;-1.14;-0.23;0.970313;0.205767;0.024139;123.7;0.0;0.0;1.7;0.0;0.0
3.0;1753880918.187346;17.763404;0.72;-1.18;-0.23;0.97038;0.203789;0.024971;116.8;0.0;0.0;2.3;0.0;0.0
3.0;1753880918.19208;17.789379;0.69;-1.18;-0.17;0.97051;0.204662;0.024559;120.6;0.0;0.0;2.2;0.0;0.0
3.0;1753880918.196813;17.778729;0.81;-1.28;-0.28;0.970596;0.203853;0.024874;117.9;0.0;0.0;1.2;0.0;0.0
3.0;1753880918.201546;17.776572;0.75;-1.24;-0.15;0.971129;0.204932;0.023931;122.5;0.0;0.0;1.8;0.0;0.0
3.0;1753880918.206279;17.77417;0.7;-1.19;-0.19;0.970607;0.204804;0.023531;119.1;0.0;0.0;2.1;0.0;0.0
3.0;1753880918.211012;17.776158;0.72;-1.26;-0.23;0.969896;0.203905;0.023499;120.3;0.0;0.0;2.5;0.0;0.0
3.0;1753880918.215745;17.76136;0.74;-1.28;-0.22;0.970685;0.20324;0.024162;119.6;0.0;0.0;2.1;0.0;0.0
3.0;1753880918.220478;17.811107;0.72;-1.38;-0.23;0.970869;0.204984;0.024582;122.1;0.0;0.0;1.6;0.0;0.0
3.0;1753880918.225211;17.783276;0.71;-1.26;-0.24;0.970141;0.205211;0.024576;118.8;0.0;0.0;2.0;0.0;0.0
3.0;1753880918.229944;17.795159;0.76;-1.22;-0.16;0.970472;0.204902;0.02456;121.8;0.0;0.0;2.2;0.0;0.0
3.0;1753880918.234677;17.764523;0.64;-1.19;-0.25;0.970175;0.205356;0.023903;123.7;0.0;0.0;1.6;0.0;0.0
3.0;1753880918.23941;17.777084;0.63;-1.3;-0.2;0.970237;0.205261;0.025622;120.3;0.0;0.0;1.5;0.0;0.0
3.0;1753880918.244144;17.789735;0.64;-1.22;-0.16;0.970285;0.204587;0.024929;120.4;0.0;0.0;2.3;0.0;0.0
3.0;1753880918.248876;17.78851;0.66;-1.25;-0.23;0.970997;0.204477;0.024115;125.7;0.0;0.0;2.0;0.0;0.0
3.0;1753880918.25361;17.787768;0.71;-1.22;-0.17;0.971139;0.205258;0.023517;121.9;0.0;0.0;1.0;0.0;0.0
3.0;1753880918.258343;17.802008;0.78;-1.19;-0.25;0.970438;0.205761;0.02391;121.8;0.0;0.0;2.5;0.0;0.0
3.0;1753880918.263076;17.784164;0.69;-1.29;-0.16;0.970282;0.203662;0.023287;118.9;0.0;0.0;2.7;0.0;0.0
3.0;1753880918.267809;17.757527;0.74;-1.31;-0.19;0.970391;0.204207;0.025161;121.6;0.0;0.0;2.8;0.0;0.0
3.0;1753880918.2756;17.78125;0.7;-1.26;-0.21;0.970632;0.204472;0.0244;121.0;0.0;0.0;2.0;0.0;0.0
3.0;1753880918.280333;17.813203;0.66;-1.31;-0.27;0.970509;0.204732;0.023556;120.5;0.0;0.0;2.4;0.0;0.0
3.0;1753880918.285066;17.785701;0.59;-1.25;-0.26;0.970448;0.203702;0.023972;121.7;0.0;0.0;1.1;0.0;0.0
3.0;1753880918.289799;17.780394;0.78;-1.27;-0.22;0.969768;0.202892;0.023706;123.0;0.0;0.0;1.9;0.0;0.0
3.0;1753880918.294532;17.767724;0.64;-1.23;-0.28;0.969894;0.204627;0.023577;122.6;0.0;0.0;1.2;0.0;0.0
3.0;1753880918.299266;17.790739;0.75;-1.34;-0.17;0.970654;0.204387;0.024376;120.8;0.0;0.0;1.5;0.0;0.0
3.0;1753880918.303998;17.795511;0.79;-1.31;-0.22;0.971058;0.204304;0.024059;121.3;0.0;0.0;1.6;0.0;0.0
3.0;1753880918.308732;17.794403;0.75;-1.26;-0.12;0.970785;0.203144;0.02489;120.1;0.0;0.0;1.2;0.0;0.0
3.0;1753880918.313465;17.766081;0.59;-1.26;-0.14;0.969679;0.203464;0.023651;122.3;0.0;0.0;1.7;0.0;0.0
3.0;1753880918.318198;17.754892;0.68;-1.39;-0.17;0.969205;0.202801;0.024167;120.3;0.0;0.0;1.8;0.0;0.0
3.0;1753880918.322931;17.774473;0.78;-1.41;-0.23;0.969347;0.205256;0.024066;121.9;0.0;0.0;1.7;0.0;0.0
3.0;1753880918.327664;17.772262;0.68;-1.34;-0.17;0.969859;0.201618;0.023438;121.8;0.0;0.0;2.0;0.0;0.0
3.0;1753880918.332397;17.778739;0.73;-1.46;-0.21;0.970291;0.20355;0.02331;119.5;0.0;0.0;2.2;0.0;0.0
3.0;1753880918.33713;17.779671;0.74;-1.33;-0.1;0.97077;0.202179;0.023242;120.3;0.0;0.0;1.3;0.0;0.0
3.0;1753880918.341863;17.757684;0.79;-1.21;-0.15;0.969959;0.204148;0.023126;119.4;0.0;0.0;2.2;0.0;0.0
3.0;1753880918.346596;17.751493;0.81;-1.34;-0.17;0.970703;0.202216;0.023604;121.3;0.0;0.0;2.1;0.0;0.0
3.0;1753880918.351329;17.77247;0.75;-1.3;-0.17;0.970313;0.20363;0.022726;121.4;0.0;0.0;2.1;0.0;0.0
3.0;1753880918.35568;17.761719;0.77;-1.33;-0.14;0.970144;0.203618;0.023424;121.0;0.0;0.0;2.0;0.0;0.0
3.0;1753880918.360413;17.752354;0.72;-1.29;-0.08;0.970607;0.204052;0.022482;121.5;0.0;0.0;1.6;0.0;0.0
3.0;1753880918.365146;17.766224;0.68;-1.26;-0.13;0.969156;0.204072;0.022835;119.6;0.0;0.0;2.3;0.0;0.0
3.0;1753880918.369879;17.758546;0.76;-1.28;-0.2;0.970601;0.203827;0.023163;120.6;0.0;0.0;1.8;0.0;0.0
3.0;1753880918.374612;17.766616;0.71;-1.26;-0.16;0.971751;0.204536;0.023242;118.7;0.0;0.0;1.9;0.0;0.0
3.0;1753880918.379346;17.742851;0.79;-1.3;-0.24;0.970312;0.205238;0.023718;119.1;0.0;0.0;2.1;0.0;0.0
3.0;1753880918.384078;17.771126;0.79;-1.29;-0.18;0.971169;0.204033;0.024123;121.8;0.0;0.0;1.2;0.0;0.0
3.0;1753880918.388812;17.759412;0.66;-1.26;-0.17;0.969947;0.205457;0.02444;119.3;0.0;0.0;1.9;0.0;0.0
3.0;1753880918.393545;17.753358;0.69;-1.22;-0.23;0.970122;0.204039;0.022377;120.1;0.0;0.0;1.7;0.0;0.0
3.0;1753880918.398278;17.757223;0.79;-1.26;-0.19;0.970186;0.206372;0.023334;119.9;0.0;0.0;1.9;0.0;0.0
3.0;1753880918.403011;17.754776;0.69;-1.2;-0.28;0.970214;0.20586;0.023984;120.8;0.0;0.0;1.0;0.0;0.0
3.0;1753880918.407744;17.776798;0.75;-1.17;-0.18;0.969565;0.2046;0.022347;117.1;0.0;0.0;1.1;0.0;0.0
3.0;1753880918.412477;17.76954;0.7;-1.25;-0.1;0.971056;0.205745;0.024014;118.1;0.0;0.0;1.0;0.0;0.0
3.0;1753880918.41721;17.739632;0.68;-1.28;-0.19;0.969497;0.20756;0.02257;118.9;0.0;0.0;1.3;0.0;0.0
3.0;1753880918.421943;17.731421;0.65;-1.28;-0.18;0.97012;0.207533;0.02349;119.9;0.0;0.0;1.1;0.0;0.0
3.0;1753880918.426676;17.74066;0.66;-1.29;-0.22;0.970041;0.207223;0.022863;119.2;0.0;0.0;1.8;0.0;0.0
3.0;1753880918.431409;17.736521;0.67;-1.38;-0.19;0.969679;0.207069;0.022987;118.9;0.0;0.0;1.3;0.0;0.0
3.0;1753880918.436142;17.745959;0.78;-1.26;-0.15;0.971087;0.206327;0.022187;115.0;0.0;0.0;0.7;0.0;0.0
3.0;1753880918.44401;17.742188;0.7;-1.26;-0.21;0.970754;0.206424;0.023302;118.0;0.0;0.0;1.0;0.0;0.0
3.0;1753880918.44814;17.742188;0.77;-1.33;-0.21;0.970266;0.20557;0.023302;118.0;0.0;0.0;1.0;0.0;0.0
3.0;1753880918.452873;17.731525;0.79;-1.21;-0.14;0.970489;0.206234;0.023274;118.8;0.0;0.0;1.2;0.0;0.0
3.0;1753880918.457606;17.758537;0.8;-1.25;-0.27;0.970992;0.203697;0.02247;118.6;0.0;0.0;-0.1;0.0;0.0
3.0;1753880918.462339;17.727562;0.68;-1.32;-0.18;0.970296;0.205706;0.023465;116.4;0.0;0.0;1.7;0.0;0.0
3.0;1753880918.467072;17.765225;0.77;-1.43;-0.2;0.970273;0.205911;0.02348;114.6;0.0;0.0;0.6;0.0;0.0
3.0;1753880918.471805;17.724149;0.69;-1.38;-0.19;0.970836;0.202996;0.02412;119.6;0.0;0.0;0.9;0.0;0.0
3.0;1753880918.476538;17.750203;0.84;-1.23;-0.23;0.970785;0.205072;0.023008;121.7;0.0;0.0;1.3;0.0;0.0
3.0;1753880918.481272;17.700683;0.79;-1.3;-0.17;0.970851;0.20554;0.02414;118.7;0.0;0.0;0.5;0.0;0.0
3.0;1753880918.486004;17.729763;0.76;-1.17;-0.17;0.972253;0.206535;0.022798;116.8;0.0;0.0;0.7;0.0;0.0
3.0;1753880918.490738;17.723327;0.77;-1.25;-0.17;0.970641;0.205157;0.023057;119.1;0.0;0.0;0.2;0.0;0.0
3.0;1753880918.49766;17.742188;0.77;-1.19;-0.21;0.971242;0.204838;0.022936;118.0;0.0;0.0;1.0;0.0;0.0
3.0;1753880918.502393;17.741342;0.8;-1.27;-0.25;0.971125;0.204209;0.022642;115.3;0.0;0.0;0.9;0.0;0.0
3.0;1753880918.507126;17.728749;0.82;-1.25;-0.12;0.971302;0.205148;0.023299;116.7;0.0;0.0;0.7;0.0;0.0
3.0;1753880918.511859;17.754571;0.83;-1.22;-0.15;0.971306;0.205416;0.023192;118.0;0.0;0.0;0.9;0.0;0.0
3.0;1753880918.516592;17.736684;0.77;-1.27;-0.11;0.971017;0.204309;0.023742;121.6;0.0;0.0;0.8;0.0;0.0
3.0;1753880918.521325;17.718585;0.8;-1.21;-0.18;0.970524;0.20318;0.023752;115.7;0.0;0.0;1.0;0.0;0.0
3.0;1753880918.526058;17.762395;0.76;-1.18;-0.2;0.969969;0.205185;0.023686;116.9;0.0;0.0;1.7;0.0;0.0
3.0;1753880918.530792;17.762089;0.81;-1.38;-0.09;0.96983;0.2044;0.023586;117.2;0.0;0.0;1.3;0.0;0.0
3.0;1753880918.535524;17.753878;0.8;-1.18;-0.18;0.971052;0.205611;0.023801;117.8;0.0;0.0;0.9;0.0;0.0
3.0;1753880918.54232;17.742188;0.77;-1.26;-0.14;0.970144;0.20496;0.024278;118.0;0.0;0.0;1.0;0.0;0.0
3.0;1753880918.547053;17.743393;0.84;-1.1;-0.01;0.970466;0.205128;0.024382;120.3;0.0;0.0;1.7;0.0;0.0
3.0;1753880918.551786;17.778277;0.81;-1.21;-0.21;0.970909;0.204275;0.022787;118.6;0.0;0.0;1.0;0.0;0.0
3.0;1753880918.556519;17.761665;0.83;-1.3;-0.17;0.970647;0.204645;0.025465;119.3;0.0;0.0;1.1;0.0;0.0
3.0;1753880918.561252;17.72012;0.8;-1.27;-0.19;0.970518;0.20588;0.023448;117.6;0.0;0.0;1.3;0.0;0.0
3.0;1753880918.565986;17.725765;0.7;-1.25;-0.15;0.970065;0.203428;0.024186;116.7;0.0;0.0;0.7;0.0;0.0
3.0;1753880918.570718;17.730473;0.71;-1.33;-0.06;0.970588;0.204309;0.022693;118.0;0.0;0.0;0.6;0.0;0.0
3.0;1753880918.575452;17.770819;0.77;-1.31;-0.09;0.970548;0.204276;0.022422;115.7;0.0;0.0;0.6;0.0;0.0
3.0;1753880918.580185;17.78299;0.69;-1.29;-0.06;0.970083;0.206643;0.02311;117.8;0.0;0.0;1.5;0.0;0.0
3.0;1753880918.584918;17.756116;0.72;-1.26;-0.11;0.970478;0.204503;0.021691;117.1;0.0;0.0;0.3;0.0;0.0
3.0;1753880918.589651;17.781769;0.68;-1.29;-0.14;0.969217;0.203025;0.022452;118.3;0.0;0.0;1.0;0.0;0.0
3.0;1753880918.594384;17.785942;0.74;-1.21;-0.2;0.970018;0.206234;0.021131;115.3;0.0;0.0;1.1;0.0;0.0
3.0;1753880918.59966;17.785156;0.7;-1.26;-0.14;0.970388;0.20374;0.021838;118.0;0.0;0.0;1.0;0.0;0.0
3.0;1753880918.604393;17.736718;0.68;-1.32;-0.08;0.971082;0.203496;0.022086;118.2;0.0;0.0;1.0;0.0;0.0
3.0;1753880918.609126;17.7822;0.63;-1.39;-0.17;0.97028;0.204598;0.022158;116.2;0.0;0.0;1.3;0.0;0.0
3.0;1753880918.613859;17.758634;0.74;-1.2;-0.11;0.971398;0.202632;0.025013;119.3;0.0;0.0;0.5;0.0;0.0
3.0;1753880918.618592;17.790925;0.74;-1.43;-0.06;0.970521;0.208399;0.024174;117.8;0.0;0.0;0.4;0.0;0.0
3.0;1753880918.623325;17.741568;0.64;-1.32;-0.17;0.969686;0.204858;0.02366;120.1;0.0;0.0;1.4;0.0;0.0
3.0;1753880918.628058;17.77706;0.71;-1.16;-0.13;0.969901;0.206832;0.024946;119.1;0.0;0.0;1.7;0.0;0.0
3.0;1753880918.63566;17.785156;0.7;-1.4;-0.14;0.969656;0.206424;0.024888;118.0;0.0;0.0;1.0;0.0;0.0
3.0;1753880918.640393;17.768613;0.66;-1.35;-0.12;0.968702;0.206584;0.025867;116.7;0.0;0.0;0.7;0.0;0.0
3.0;1753880918.645126;17.761054;0.7;-1.34;-0.09;0.970488;0.205686;0.024861;118.6;0.0;0.0;0.4;0.0;0.0
3.0;1753880918.649859;17.780866;0.71;-1.35;-0.11;0.969114;0.205457;0.025897;116.8;0.0;0.0;0.8;0.0;0.0
3.0;1753880918.654592;17.787587;0.63;-1.3;-0.18;0.970782;0.205667;0.024321;119.8;0.0;0.0;1.2;0.0;0.0
3.0;1753880918.659325;17.796346;0.73;-1.34;-0.19;0.969902;0.205016;0.023516;118.9;0.0;0.0;2.0;0.0;0.0
3.0;1753880918.664058;17.80901;0.79;-1.29;-0.21;0.969664;0.205812;0.023397;117.7;0.0;0.0;0.8;0.0;0.0
3.0;1753880918.668792;17.805704;0.67;-1.27;-0.22;0.970386;0.205492;0.024666;116.9;0.0;0.0;1.4;0.0;0.0
3.0;1753880918.673524;17.792631;0.66;-1.23;-0.21;0.969378;0.206114;0.024953;118.0;0.0;0.0;1.4;0.0;0.0
3.0;1753880918.68237;17.785156;0.7;-1.26;-0.21;0.970266;0.20557;0.02379;118.0;0.0;0.0;1.0;0.0;0.0
3.0;1753880918.687103;17.750256;0.71;-1.21;-0.2;0.970016;0.205725;0.025075;117.5;0.0;0.0;0.3;0.0;0.0
3.0;1753880918.691836;17.777994;0.71;-1.17;-0.19;0.970618;0.204174;0.022929;119.6;0.0;0.0;0.6;0.0;0.0
3.0;1753880918.696569;17.761374;0.73;-1.35;-0.16;0.969414;0.204383;0.022201;118.1;0.0;0.0;0.6;0.0;0.0
3.0;1753880918.701302;17.763515;0.7;-1.31;-0.22;0.96975;0.206651;0.022799;117.0;0.0;0.0;0.9;0.0;0.0
3.0;1753880918.706036;17.80175;0.68;-1.15;-0.24;0.970243;0.205076;0.022402;117.2;0.0;0.0;0.1;0.0;0.0
3.0;1753880918.710768;17.788819;0.73;-1.26;-0.31;0.970952;0.205255;0.023921;120.6;0.0;0.0;0.3;0.0;0.0
3.0;1753880918.715502;17.766104;0.69;-1.26;-0.22;0.970036;0.204529;0.022622;117.0;0.0;0.0;1.2;0.0;0.0
3.0;1753880918.720235;17.754287;0.59;-1.22;-0.32;0.969794;0.204522;0.023512;119.6;0.0;0.0;0.8;0.0;0.0
3.0;1753880918.724968;17.761487;0.79;-1.32;-0.23;0.970228;0.204987;0.022418;115.9;0.0;0.0;0.7;0.0;0.0
3.0;1753880918.729701;17.780764;0.71;-1.28;-0.22;0.968683;0.205187;0.023668;119.0;0.0;0.0;0.9;0.0;0.0
3.0;1753880918.73403;17.785156;0.7;-1.26;-0.28;0.969656;0.205082;0.022692;118.0;0.0;0.0;1.0;0.0;0.0
3.0;1753880918.738763;17.783853;0.69;-1.32;-0.24;0.970763;0.204388;0.023722;118.8;0.0;0.0;1.3;0.0;0.0
3.0;1753880918.743496;17.784127;0.71;-1.13;-0.28;0.968869;0.204559;0.022361;117.5;0.0;0.0;0.7;0.0;0.0
3.0;1753880918.748229;17.794772;0.69;-1.24;-0.22;0.969578;0.204416;0.022395;117.5;0.0;0.0;0.9;0.0;0.0
3.0;1753880918.752962;17.749586;0.69;-1.12;-0.28;0.969157;0.205784;0.023818;118.6;0.0;0.0;0.7;0.0;0.0
3.0;1753880918.757696;17.78653;0.72;-1.3;-0.24;0.969295;0.204845;0.022465;119.1;0.0;0.0;1.2;0.0;0.0
3.0;1753880918.762428;17.78096;0.69;-1.34;-0.23;0.968587;0.204117;0.023528;117.2;0.0;0.0;1.1;0.0;0.0
3.0;1753880918.767162;17.780254;0.7;-1.27;-0.35;0.968865;0.204033;0.022526;116.7;0.0;0.0;1.6;0.0;0.0
3.0;1753880918.771895;17.786148;0.67;-1.23;-0.27;0.96836;0.203578;0.023151;119.0;0.0;0.0;1.4;0.0;0.0
3.0;1753880918.77712;17.765625;0.7;-1.33;-0.28;0.969656;0.205082;0.022692;118.0;0.0;0.0;1.0;0.0;0.0
3.0;1753880918.781853;17.772843;0.7;-1.4;-0.22;0.967728;0.205547;0.021918;116.6;0.0;0.0;2.0;0.0;0.0
3.0;1753880918.786586;17.753507;0.71;-1.21;-0.27;0.971262;0.204173;0.02277;119.4;0.0;0.0;1.6;0.0;0.0
3.0;1753880918.791319;17.745373;0.72;-1.34;-0.22;0.970002;0.206077;0.02177;116.9;0.0;0.0;0.7;0.0;0.0
3.0;1753880918.796052;17.750269;0.77;-1.31;-0.23;0.971021;0.203938;0.023259;116.8;0.0;0.0;0.3;0.0;0.0
3.0;1753880918.800786;17.75427;0.67;-1.33;-0.29;0.971432;0.205618;0.023574;119.4;0.0;0.0;1.5;0.0;0.0
3.0;1753880918.805519;17.761215;0.82;-1.32;-0.27;0.969523;0.203829;0.022313;118.0;0.0;0.0;0.5;0.0;0.0
3.0;1753880918.810252;17.773797;0.83;-1.38;-0.35;0.970944;0.205393;0.02521;116.3;0.0;0.0;0.3;0.0;0.0
3.0;1753880918.814985;17.773567;0.72;-1.31;-0.22;0.97096;0.204906;0.022677;119.0;0.0;0.0;1.5;0.0;0.0
3.0;1753880918.819718;17.757286;0.7;-1.42;-0.27;0.970633;0.205502;0.02192;119.3;0.0;0.0;0.7;0.0;0.0
3.0;1753880918.824451;17.771695;0.74;-1.27;-0.24;0.970802;0.202544;0.022744;117.3;0.0;0.0;0.7;0.0;0.0
3.0;1753880918.829184;17.769636;0.82;-1.34;-0.26;0.970536;0.204834;0.021052;118.5;0.0;0.0;1.0;0.0;0.0
3.0;1753880918.833917;17.774491;0.79;-1.24;-0.22;0.970858;0.203875;0.02221;116.0;0.0;0.0;1.1;0.0;0.0
3.0;1753880918.83865;17.75133;0.79;-1.25;-0.21;0.972816;0.204272;0.022618;119.2;0.0;0.0;0.9;0.0;0.0
3.0;1753880918.843383;17.77444;0.81;-1.34;-0.14;0.972323;0.20444;0.023267;116.2;0.0;0.0;1.3;0.0;0.0
3.0;1753880918.848116;17.777731;0.69;-1.16;-0.21;0.970771;0.204751;0.023165;117.5;0.0;0.0;1.2;0.0;0.0
3.0;1753880918.85285;17.790715;0.79;-1.29;-0.24;0.971174;0.203698;0.021348;120.0;0.0;0.0;0.7;0.0;0.0
3.0;1753880918.85952;17.765625;0.77;-1.33;-0.21;0.972096;0.204716;0.023058;118.0;0.0;0.0;1.0;0.0;0.0
3.0;1753880918.864253;17.766377;0.78;-1.29;-0.15;0.972867;0.205397;0.022054;118.9;0.0;0.0;1.1;0.0;0.0
3.0;1753880918.86873;17.765625;0.7;-1.33;-0.21;0.972096;0.204716;0.023058;118.0;0.0;0.0;1.0;0.0;0.0
3.0;1753880918.873463;17.727154;0.76;-1.34;-0.26;0.973624;0.204093;0.022937;119.3;0.0;0.0;0.2;0.0;0.0
3.0;1753880918.878196;17.760152;0.7;-1.46;-0.19;0.972442;0.20589;0.02252;119.5;0.0;0.0;1.2;0.0;0.0
3.0;1753880918.882929;17.763722;0.75;-1.38;-0.24;0.971752;0.206969;0.022837;116.6;0.0;0.0;0.3;0.0;0.0
3.0;1753880918.887662;17.747;0.69;-1.29;-0.25;0.971523;0.20617;0.022954;117.6;0.0;0.0;1.3;0.0;0.0
3.0;1753880918.892396;17.757566;0.72;-1.38;-0.23;0.972339;0.205533;0.023142;119.7;0.0;0.0;1.7;0.0;0.0
3.0;1753880918.897128;17.754875;0.76;-1.37;-0.24;0.972081;0.205246;0.022908;118.0;0.0;0.0;1.0;0.0;0.0
3.0;1753880918.901862;17.769993;0.62;-1.34;-0.18;0.970088;0.20557;0.022915;117.7;0.0;0.0;1.6;0.0;0.0
3.0;1753880918.906595;17.758737;0.66;-1.34;-0.19;0.971421;0.203772;0.023966;117.8;0.0;0.0;2.7;0.0;0.0
3.0;1753880918.911328;17.773818;0.55;-1.43;-0.21;0.97146;0.206351;0.022662;119.1;0.0;0.0;1.5;0.0;0.0
3.0;1753880918.916061;17.754981;0.57;-1.48;-0.19;0.970502;0.205264;0.022592;116.0;0.0;0.0;1.5;0.0;0.0
3.0;1753880918.920794;17.757125;0.65;-1.36;-0.17;0.971451;0.206847;0.023255;118.8;0.0;0.0;1.2;0.0;0.0
3.0;1753880918.925527;17.754899;0.72;-1.34;-0.2;0.97194;0.205917;0.024043;113.8;0.0;0.0;1.3;0.0;0.0
3.0;1753880918.93026;17.771081;0.63;-1.42;-0.22;0.972171;0.207676;0.02357;119.3;0.0;0.0;1.9;0.0;0.0
3.0;1753880918.934993;17.747466;0.69;-1.39;-0.18;0.970563;0.207326;0.02258;118.0;0.0;0.0;1.6;0.0;0.0
3.0;1753880918.939726;17.781678;0.69;-1.36;-0.24;0.97115;0.207335;0.023352;117.0;0.0;0.0;1.5;0.0;0.0
3.0;1753880918.94791;17.765625;0.63;-1.4;-0.14;0.970998;0.206912;0.022936;119.0;0.0;0.0;2.0;0.0;0.0
3.0;1753880918.952643;17.781309;0.72;-1.29;-0.18;0.97152;0.20662;0.02396;119.5;0.0;0.0;1.8;0.0;0.0
3.0;1753880918.957376;17.767925;0.64;-1.38;-0.19;0.971687;0.208343;0.022598;119.6;0.0;0.0;1.9;0.0;0.0
3.0;1753880918.962109;17.756127;0.71;-1.34;-0.2;0.970464;0.207056;0.022841;118.9;0.0;0.0;2.6;0.0;0.0
3.0;1753880918.966842;17.766245;0.64;-1.52;-0.09;0.970769;0.206511;0.023888;116.1;0.0;0.0;1.6;0.0;0.0
3.0;1753880918.971576;17.787432;0.65;-1.29;-0.26;0.970021;0.205911;0.023456;121.7;0.0;0.0;2.0;0.0;0.0
3.0;1753880918.976308;17.779231;0.65;-1.31;-0.14;0.971756;0.206172;0.023968;118.0;0.0;0.0;2.7;0.0;0.0
3.0;1753880918.981042;17.768473;0.67;-1.3;-0.22;0.971896;0.20638;0.023447;118.8;0.0;0.0;3.3;0.0;0.0
3.0;1753880918.98911;17.765625;0.7;-1.26;-0.21;0.971242;0.205936;0.024156;119.0;0.0;0.0;2.0;0.0;0.0
3.0;1753880918.990443;17.777344;0.63;-1.33;-0.21;0.97112;0.205936;0.022082;121.0;0.0;0.0;2.0;0.0;0.0
3.0;1753880918.994802;17.753906;0.7;-1.33;-0.14;0.96929;0.204228;0.022326;121.0;0.0;0.0;2.0;0.0;0.0
3.0;1753880918.999598;17.753906;0.77;-1.26;-0.28;0.970632;0.206668;0.02196;121.0;0.0;0.0;2.0;0.0;0.0
3.0;1753880919.004331;17.752906;0.76;-1.26;-0.26;0.972178;0.206612;0.022017;119.4;0.0;0.0;2.1;0.0;0.0
3.0;1753880919.009064;17.763173;0.78;-1.23;-0.29;0.970957;0.206483;0.02203;120.7;0.0;0.0;2.6;0.0;0.0
3.0;1753880919.013797;17.741075;0.79;-1.31;-0.3;0.971241;0.204561;0.020353;121.6;0.0;0.0;2.0;0.0;0.0
3.0;1753880919.01853;17.760892;0.65;-1.27;-0.25;0.970825;0.20682;0.022051;121.1;0.0;0.0;2.3;0.0;0.0
3.0;1753880919.023264;17.746493;0.71;-1.37;-0.38;0.968885;0.207486;0.022007;119.8;0.0;0.0;1.9;0.0;0.0
3.0;1753880919.027996;17.748647;0.78;-1.27;-0.33;0.968768;0.207114;0.022636;120.8;0.0;0.0;1.3;0.0;0.0
3.0;1753880919.03273;17.774946;0.77;-1.23;-0.34;0.97029;0.206201;0.023551;119.6;0.0;0.0;1.7;0.0;0.0
3.0;1753880919.037463;17.747384;0.72;-1.27;-0.21;0.971168;0.206326;0.021935;121.7;0.0;0.0;2.5;0.0;0.0
3.0;1753880919.042196;17.736807;0.8;-1.3;-0.22;0.969913;0.205983;0.022942;120.9;0.0;0.0;2.0;0.0;0.0
3.0;1753880919.046929;17.756065;0.76;-1.3;-0.33;0.971755;0.206208;0.022612;121.1;0.0;0.0;1.5;0.0;0.0
3.0;1753880919.051662;17.74865;0.8;-1.28;-0.24;0.971304;0.206552;0.021282;121.4;0.0;0.0;2.3;0.0;0.0
3.0;1753880919.056395;17.759859;0.79;-1.27;-0.24;0.969687;0.206412;0.019981;120.7;0.0;0.0;2.7;0.0;0.0
3.0;1753880919.061128;17.749662;0.71;-1.22;-0.25;0.969446;0.205787;0.022214;120.3;0.0;0.0;2.4;0.0;0.0
3.0;1753880919.065861;17.770756;0.78;-1.29;-0.25;0.969547;0.207104;0.023263;119.7;0.0;0.0;2.8;0.0;0.0
3.0;1753880919.070594;17.768498;0.75;-1.32;-0.32;0.969454;0.207408;0.023017;121.2;0.0;0.0;2.3;0.0;0.0
3.0;1753880919.075328;17.72489;0.79;-1.28;-0.31;0.969075;0.206394;0.0226;120.1;0.0;0.0;1.6;0.0;0.0
3.0;1753880919.08006;17.756737;0.79;-1.3;-0.24;0.970541;0.205854;0.021806;120.8;0.0;0.0;2.9;0.0;0.0
3.0;1753880919.084794;17.75628;0.83;-1.29;-0.32;0.971689;0.206654;0.023272;121.1;0.0;0.0;1.9;0.0;0.0
3.0;1753880919.089527;17.739995;0.78;-1.21;-0.26;0.971355;0.207474;0.020825;120.0;0.0;0.0;1.4;0.0;0.0
3.0;1753880919.09426;17.76321;0.72;-1.24;-0.27;0.969806;0.209098;0.022767;121.8;0.0;0.0;2.7;0.0;0.0
3.0;1753880919.098993;17.77013;0.8;-1.23;-0.29;0.968821;0.206096;0.021773;119.9;0.0;0.0;1.8;0.0;0.0
3.0;1753880919.103726;17.765719;0.81;-1.29;-0.25;0.970715;0.207262;0.022634;121.5;0.0;0.0;2.3;0.0;0.0
3.0;1753880919.108459;17.777162;0.78;-1.28;-0.31;0.970939;0.208825;0.020587;121.4;0.0;0.0;2.4;0.0;0.0
3.0;1753880919.113192;17.747041;0.78;-1.22;-0.23;0.969964;0.208493;0.023092;120.3;0.0;0.0;1.5;0.0;0.0
3.0;1753880919.117925;17.728557;0.75;-1.26;-0.28;0.969128;0.20551;0.022502;121.1;0.0;0.0;1.9;0.0;0.0
3.0;1753880919.122658;17.757376;0.75;-1.25;-0.32;0.969079;0.205844;0.023017;120.3;0.0;0.0;1.2;0.0;0.0
3.0;1753880919.127391;17.759105;0.75;-1.26;-0.21;0.970592;0.207615;0.021271;121.1;0.0;0.0;1.4;0.0;0.0
3.0;1753880919.132124;17.760614;0.78;-1.25;-0.27;0.970312;0.204171;0.022783;121.0;0.0;0.0;1.4;0.0;0.0
3.0;1753880919.136858;17.761913;0.75;-1.24;-0.25;0.969905;0.206941;0.021448;120.6;0.0;0.0;2.2;0.0;0.0
3.0;1753880919.14159;17.746432;0.79;-1.32;-0.24;0.970364;0.207598;0.022724;120.3;0.0;0.0;1.9;0.0;0.0
3.0;1753880919.146324;17.757909;0.68;-1.23;-0.26;0.970199;0.206384;0.020344;120.4;0.0;0.0;1.8;0.0;0.0
3.0;1753880919.151057;17.740757;0.72;-1.25;-0.22;0.968379;0.20635;0.021512;121.7;0.0;0.0;2.4;0.0;0.0
3.0;1753880919.15579;17.754188;0.73;-1.25;-0.26;0.97058;0.205878;0.02225;121.8;0.0;0.0;2.0;0.0;0.0
3.0;1753880919.160523;17.779578;0.79;-1.26;-0.34;0.971421;0.206181;0.023146;121.0;0.0;0.0;1.5;0.0;0.0
3.0;1753880919.165256;17.757595;0.82;-1.27;-0.21;0.971275;0.207035;0.021862;120.7;0.0;0.0;2.7;0.0;0.0
3.0;1753880919.169989;17.763954;0.79;-1.25;-0.27;0.969125;0.206402;0.021063;119.7;0.0;0.0;2.6;0.0;0.0
3.0;1753880919.174722;17.741252;0.81;-1.27;-0.33;0.970097;0.204992;0.021851;121.2;0.0;0.0;2.2;0.0;0.0
3.0;1753880919.179455;17.748347;0.72;-1.29;-0.27;0.971546;0.206092;0.022705;118.9;0.0;0.0;2.3;0.0;0.0
3.0;1753880919.184188;17.751894;0.75;-1.27;-0.27;0.970504;0.205786;0.023154;120.7;0.0;0.0;1.3;0.0;0.0
3.0;1753880919.188922;17.735067;0.82;-1.32;-0.22;0.969302;0.205779;0.020806;120.7;0.0;0.0;2.6;0.0;0.0
3.0;1753880919.193654;17.728939;0.79;-1.21;-0.27;0.969292;0.203415;0.021285;120.4;0.0;0.0;2.8;0.0;0.0
3.0;1753880919.198388;17.761709;0.72;-1.27;-0.28;0.970208;0.204476;0.021832;120.9;0.0;0.0;2.7;0.0;0.0
3.0;1753880919.203121;17.762748;0.78;-1.28;-0.22;0.970256;0.20647;0.023357;119.7;0.0;0.0;1.7;0.0;0.0
3.0;1753880919.207854;17.74524;0.73;-1.3;-0.24;0.97078;0.205567;0.023497;120.2;0.0;0.0;1.8;0.0;0.0
3.0;1753880919.212587;17.765375;0.71;-1.3;-0.3;0.969622;0.205428;0.021878;121.0;0.0;0.0;1.7;0.0;0.0
3.0;1753880919.21732;17.757409;0.68;-1.18;-0.28;0.970598;0.206504;0.022808;122.3;0.0;0.0;1.6;0.0;0.0
3.0;1753880919.222053;17.764025;0.77;-1.3;-0.24;0.96853;0.205728;0.022931;122.1;0.0;0.0;1.5;0.0;0.0
3.0;1753880919.226786;17.764942;0.81;-1.34;-0.18;0.968032;0.205459;0.022869;121.0;0.0;0.0;2.1;0.0;0.0
3.0;1753880919.231519;17.754406;0.72;-1.31;-0.3;0.971105;0.206662;0.023291;120.6;0.0;0.0;2.5;0.0;0.0
3.0;1753880919.236252;17.757922;0.79;-1.29;-0.23;0.969799;0.205199;0.021353;121.3;0.0;0.0;2.0;0.0;0.0
3.0;1753880919.240986;17.77046;0.67;-1.26;-0.23;0.968556;0.206379;0.021897;121.9;0.0;0.0;1.7;0.0;0.0
3.0;1753880919.245718;17.770583;0.81;-1.28;-0.32;0.971069;0.205465;0.022741;121.0;0.0;0.0;2.8;0.0;0.0
3.0;1753880919.250452;17.748667;0.74;-1.25;-0.13;0.968545;0.207979;0.021808;121.2;0.0;0.0;2.3;0.0;0.0
3.0;1753880919.255185;17.767652;0.79;-1.24;-0.21;0.969829;0.203607;0.022977;121.5;0.0;0.0;1.7;0.0;0.0
3.0;1753880919.259918;17.740183;0.76;-1.31;-0.21;0.972319;0.204663;0.022787;120.5;0.0;0.0;1.5;0.0;0.0
3.0;1753880919.264651;17.74962;0.75;-1.31;-0.31;0.968972;0.204846;0.022763;121.0;0.0;0.0;2.5;0.0;0.0
3.0;1753880919.269384;17.734106;0.74;-1.37;-0.2;0.972155;0.207368;0.022816;122.0;0.0;0.0;2.4;0.0;0.0
3.0;1753880919.274117;17.753444;0.73;-1.29;-0.16;0.97059;0.204093;0.023055;121.8;0.0;0.0;2.0;0.0;0.0
3.0;1753880919.27885;17.759615;0.7;-1.31;-0.28;0.971207;0.205251;0.022589;119.8;0.0;0.0;2.4;0.0;0.0
3.0;1753880919.283583;17.760476;0.71;-1.25;-0.26;0.969592;0.205511;0.021478;120.7;0.0;0.0;1.9;0.0;0.0
3.0;1753880919.288316;17.75505;0.74;-1.3;-0.22;0.971112;0.205702;0.021052;120.9;0.0;0.0;2.4;0.0;0.0
3.0;1753880919.293049;17.754158;0.87;-1.23;-0.31;0.970761;0.204573;0.024375;121.3;0.0;0.0;2.5;0.0;0.0
3.0;1753880919.297782;17.750284;0.82;-1.23;-0.28;0.968799;0.207185;0.021952;121.2;0.0;0.0;1.7;0.0;0.0
3.0;1753880919.302516;17.749981;0.76;-1.18;-0.1;0.971212;0.205864;0.023036;121.3;0.0;0.0;2.5;0.0;0.0
3.0;1753880919.307248;17.757175;0.79;-1.27;-0.21;0.969765;0.205706;0.021339;120.4;0.0;0.0;1.9;0.0;0.0
3.0;1753880919.311982;17.762662;0.8;-1.19;-0.2;0.970744;0.206615;0.023634;120.9;0.0;0.0;1.6;0.0;0.0
3.0;1753880919.316715;17.762989;0.69;-1.31;-0.25;0.969978;0.205475;0.023189;121.4;0.0;0.0;1.6;0.0;0.0
3.0;1753880919.321448;17.753436;0.79;-1.28;-0.21;0.969855;0.206249;0.022005;120.8;0.0;0.0;2.0;0.0;0.0
3.0;1753880919.326181;17.756467;0.74;-1.23;-0.23;0.969928;0.204996;0.023976;119.7;0.0;0.0;2.0;0.0;0.0
3.0;1753880919.330914;17.759165;0.74;-1.21;-0.26;0.970264;0.204006;0.02356;121.3;0.0;0.0;1.6;0.0;0.0
3.0;1753880919.335647;17.749116;0.83;-1.29;-0.25;0.969328;0.205608;0.023386;121.5;0.0;0.0;2.3;0.0;0.0
3.0;1753880919.34038;17.76435;0.72;-1.22;-0.19;0.968292;0.206324;0.023968;120.9;0.0;0.0;2.1;0.0;0.0
3.0;1753880919.345113;17.730725;0.79;-1.23;-0.24;0.971087;0.203861;0.023615;120.3;0.0;0.0;1.6;0.0;0.0
3.0;1753880919.349846;17.76059;0.85;-1.2;-0.23;0.971;0.204152;0.023321;121.1;0.0;0.0;1.5;0.0;0.0
3.0;1753880919.35458;17.759706;0.79;-1.32;-0.27;0.970828;0.204064;0.022097;121.5;0.0;0.0;2.3;0.0;0.0
3.0;1753880919.359312;17.759084;0.82;-1.2;-0.15;0.969872;0.205739;0.023537;120.7;0.0;0.0;2.3;0.0;0.0
3.0;1753880919.364046;17.761484;0.8;-1.3;-0.23;0.970246;0.203614;0.023404;120.7;0.0;0.0;1.9;0.0;0.0
3.0;1753880919.368779;17.754089;0.74;-1.28;-0.15;0.969016;0.205482;0.023484;122.5;0.0;0.0;1.5;0.0;0.0
3.0;1753880919.373512;17.752733;0.76;-1.27;-0.31;0.970087;0.206072;0.023339;121.6;0.0;0.0;1.9;0.0;0.0
3.0;1753880919.378245;17.75774;0.79;-1.31;-0.18;0.970042;0.205184;0.022376;121.3;0.0;0.0;1.7;0.0;0.0
3.0;1753880919.382978;17.750903;0.79;-1.24;-0.18;0.970917;0.20543;0.021454;119.8;0.0;0.0;1.6;0.0;0.0
3.0;1753880919.387711;17.76599;0.73;-1.28;-0.23;0.969933;0.205626;0.021393;120.4;0.0;0.0;1.9;0.0;0.0
3.0;1753880919.392444;17.773327;0.68;-1.29;-0.2;0.96968;0.205753;0.021246;120.6;0.0;0.0;1.6;0.0;0.0
3.0;1753880919.397177;17.73986;0.9;-1.27;-0.24;0.969321;0.204604;0.023456;120.4;0.0;0.0;1.6;0.0;0.0
3.0;1753880919.40191;17.74379;0.8;-1.24;-0.14;0.970213;0.204562;0.023032;121.6;0.0;0.0;2.7;0.0;0.0
3.0;1753880919.406644;17.741887;0.75;-1.29;-0.22;0.969573;0.204767;0.023299;121.5;0.0;0.0;1.8;0.0;0.0
3.0;1753880919.411376;17.746102;0.73;-1.28;-0.12;0.969383;0.205723;0.022235;120.9;0.0;0.0;2.1;0.0;0.0
3.0;1753880919.4169;17.753906;0.77;-1.26;-0.21;0.969778;0.205082;0.02318;121.0;0.0;0.0;2.0;0.0;0.0
3.0;1753880919.42143;17.757812;0.77;-1.33;-0.21;0.97112;0.205082;0.023424;121.0;0.0;0.0;1.0;0.0;0.0
3.0;1753880919.426163;17.792347;0.73;-1.39;-0.29;0.970051;0.206167;0.023406;120.6;0.0;0.0;-0.4;0.0;0.0
3.0;1753880919.430896;17.755901;0.79;-1.35;-0.14;0.970223;0.205413;0.023517;121.0;0.0;0.0;0.4;0.0;0.0
3.0;1753880919.435629;17.777712;0.79;-1.32;-0.2;0.971036;0.204735;0.022463;122.0;0.0;0.0;1.0;0.0;0.0
3.0;1753880919.440362;17.74716;0.75;-1.33;-0.22;0.970137;0.204315;0.022411;121.3;0.0;0.0;0.9;0.0;0.0
3.0;1753880919.445096;17.748121;0.75;-1.27;-0.1;0.969897;0.203578;0.023305;121.4;0.0;0.0;0.7;0.0;0.0
3.0;1753880919.449828;17.72445;0.78;-1.28;-0.3;0.96961;0.205217;0.022458;120.7;0.0;0.0;0.8;0.0;0.0
3.0;1753880919.454562;17.76183;0.76;-1.32;-0.27;0.969292;0.206252;0.023214;120.7;0.0;0.0;0.2;0.0;0.0
3.0;1753880919.46299;17.757812;0.77;-1.33;-0.21;0.969534;0.205692;0.02318;121.0;0.0;0.0;1.0;0.0;0.0
3.0;1753880919.467723;17.713934;0.69;-1.43;-0.23;0.969865;0.205318;0.022847;121.3;0.0;0.0;1.2;0.0;0.0
3.0;1753880919.472456;17.762139;0.77;-1.31;-0.24;0.969881;0.2055;0.022908;120.3;0.0;0.0;-0.3;0.0;0.0
3.0;1753880919.477189;17.76545;0.7;-1.34;-0.17;0.969533;0.204799;0.023283;121.2;0.0;0.0;1.3;0.0;0.0
3.0;1753880919.481922;17.754106;0.76;-1.27;-0.22;0.970368;0.2049;0.023443;121.2;0.0;0.0;0.6;0.0;0.0
3.0;1753880919.486656;17.781411;0.71;-1.35;-0.1;0.971;0.204852;0.023496;121.5;0.0;0.0;1.5;0.0;0.0
3.0;1753880919.491388;17.748187;0.77;-1.34;-0.12;0.969386;0.20515;0.02423;120.8;0.0;0.0;2.2;0.0;0.0
3.0;1753880919.496122;17.747878;0.66;-1.33;-0.26;0.969062;0.204061;0.025577;121.0;0.0;0.0;1.2;0.0;0.0
3.0;1753880919.500855;17.739751;0.65;-1.28;-0.24;0.97114;0.206741;0.023306;121.6;0.0;0.0;-0.1;0.0;0.0
3.0;1753880919.50967;17.757812;0.7;-1.26;-0.21;0.969778;0.205082;0.024034;121.0;0.0;0.0;1.0;0.0;0.0
3.0;1753880919.514403;17.740291;0.75;-1.22;-0.25;0.969367;0.206648;0.022718;121.3;0.0;0.0;0.9;0.0;0.0
3.0;1753880919.519136;17.708867;0.74;-1.26;-0.22;0.969221;0.206556;0.024305;120.8;0.0;0.0;1.4;0.0;0.0
3.0;1753880919.523869;17.78415;0.74;-1.27;-0.19;0.970916;0.204545;0.022952;120.5;0.0;0.0;0.7;0.0;0.0
3.0;1753880919.528602;17.75683;0.65;-1.34;-0.24;0.9711;0.205722;0.023742;120.6;0.0;0.0;1.0;0.0;0.0
3.0;1753880919.533336;17.724572;0.69;-1.35;-0.24;0.971395;0.206475;0.022658;120.6;0.0;0.0;1.0;0.0;0.0
3.0;1753880919.538068;17.744075;0.69;-1.33;-0.25;0.971388;0.205695;0.023927;120.9;0.0;0.0;1.0;0.0;0.0
3.0;1753880919.542802;17.782628;0.71;-1.29;-0.27;0.969996;0.207639;0.024163;120.9;0.0;0.0;0.6;0.0;0.0
3.0;1753880919.547535;17.766653;0.68;-1.34;-0.25;0.971276;0.207373;0.023363;121.4;0.0;0.0;0.7;0.0;0.0
3.0;1753880919.55637;17.757812;0.7;-1.33;-0.21;0.971364;0.207034;0.022692;121.0;0.0;0.0;1.0;0.0;0.0
3.0;1753880919.561103;17.771217;0.65;-1.38;-0.15;0.970477;0.206709;0.022722;121.0;0.0;0.0;1.1;0.0;0.0
3.0;1753880919.565836;17.763176;0.69;-1.27;-0.3;0.970464;0.208016;0.022306;120.8;0.0;0.0;0.7;0.0;0.0
3.0;1753880919.570569;17.766143;0.77;-1.33;-0.16;0.971941;0.205522;0.023482;120.9;0.0;0.0;1.0;0.0;0.0
3.0;1753880919.575302;17.772793;0.68;-1.32;-0.18;0.971987;0.206899;0.022928;121.5;0.0;0.0;1.3;0.0;0.0
3.0;1753880919.580036;17.73929;0.78;-1.22;-0.18;0.972342;0.206339;0.022494;121.3;0.0;0.0;0.9;0.0;0.0
3.0;1753880919.584768;17.812575;0.71;-1.24;-0.17;0.972601;0.206413;0.023794;120.9;0.0;0.0;0.9;0.0;0.0
3.0;1753880919.589502;17.754226;0.7;-1.34;-0.24;0.969897;0.20744;0.023168;121.2;0.0;0.0;1.0;0.0;0.0
3.0;1753880919.594235;17.752445;0.72;-1.35;-0.25;0.971108;0.205357;0.023696;120.8;0.0;0.0;0.7;0.0;0.0
3.0;1753880919.598968;17.744292;0.73;-1.3;-0.22;0.971822;0.20594;0.023448;121.0;0.0;0.0;0.8;0.0;0.0
3.0;1753880919.603701;17.709233;0.7;-1.27;-0.21;0.971643;0.205142;0.024347;121.2;0.0;0.0;1.3;0.0;0.0
3.0;1753880919.608434;17.740206;0.68;-1.28;-0.23;0.969794;0.204909;0.023058;121.1;0.0;0.0;0.2;0.0;0.0
3.0;1753880919.613167;17.739808;0.66;-1.24;-0.19;0.970397;0.204731;0.022844;121.1;0.0;0.0;1.4;0.0;0.0
3.0;1753880919.6179;17.784103;0.73;-1.21;-0.18;0.970291;0.206403;0.023043;120.8;0.0;0.0;-0.0;0.0;0.0
3.0;1753880919.622633;17.742463;0.71;-1.29;-0.29;0.970908;0.206613;0.024282;121.5;0.0;0.0;-0.1;0.0;0.0
3.0;1753880919.62988;17.757812;0.7;-1.26;-0.21;0.97051;0.204838;0.023546;121.0;0.0;0.0;1.0;0.0;0.0
3.0;1753880919.634613;17.753052;0.74;-1.3;-0.22;0.969885;0.205404;0.024406;121.0;0.0;0.0;0.7;0.0;0.0
3.0;1753880919.639346;17.77502;0.73;-1.3;-0.29;0.969883;0.205697;0.023798;120.9;0.0;0.0;1.3;0.0;0.0
3.0;1753880919.644079;17.736144;0.74;-1.31;-0.28;0.970593;0.205299;0.025705;121.0;0.0;0.0;0.3;0.0;0.0
3.0;1753880919.64972;17.757812;0.77;-1.33;-0.28;0.970388;0.20557;0.02501;121.0;0.0;0.0;1.0;0.0;0.0
3.0;1753880919.654453;17.755468;0.75;-1.39;-0.31;0.970585;0.20554;0.024662;121.0;0.0;0.0;0.7;0.0;0.0
3.0;1753880919.659186;17.736454;0.78;-1.31;-0.29;0.971042;0.206607;0.025697;121.0;0.0;0.0;1.0;0.0;0.0
3.0;1753880919.663919;17.728822;0.71;-1.3;-0.25;0.970254;0.205941;0.024511;121.0;0.0;0.0;1.3;0.0;0.0
3.0;1753880919.668652;17.733002;0.74;-1.29;-0.26;0.970167;0.205595;0.025571;121.0;0.0;0.0;0.6;0.0;0.0
3.0;1753880919.673386;17.736442;0.72;-1.29;-0.21;0.969962;0.205541;0.023988;121.0;0.0;0.0;0.3;0.0;0.0
3.0;1753880919.678118;17.755535;0.7;-1.37;-0.19;0.970625;0.206015;0.024913;121.0;0.0;0.0;-0.3;0.0;0.0
3.0;1753880919.682852;17.759154;0.66;-1.22;-0.22;0.970494;0.205009;0.024724;121.0;0.0;0.0;1.0;0.0;0.0
3.0;1753880919.687585;17.751555;0.7;-1.19;-0.2;0.970472;0.205978;0.024102;121.0;0.0;0.0;1.3;0.0;0.0
3.0;1753880919.692318;17.742003;0.74;-1.25;-0.15;0.971495;0.206303;0.024428;121.0;0.0;0.0;1.7;0.0;0.0
3.0;1753880919.69689;17.75;0.7;-1.19;-0.21;0.970022;0.206058;0.023912;121.0;0.0;0.0;1.0;0.0;0.0
3.0;1753880919.701623;17.758195;0.73;-1.17;-0.23;0.970904;0.205771;0.024106;121.0;0.0;0.0;0.9;0.0;0.0
3.0;1753880919.706356;17.753948;0.76;-1.25;-0.17;0.969815;0.204963;0.023511;121.0;0.0;0.0;1.2;0.0;0.0
3.0;1753880919.711089;17.768811;0.72;-1.21;-0.17;0.970831;0.205732;0.023682;121.0;0.0;0.0;0.7;0.0;0.0
3.0;1753880919.715822;17.737107;0.72;-1.14;-0.22;0.969838;0.205869;0.02451;121.0;0.0;0.0;1.2;0.0;0.0
3.0;1753880919.720556;17.746563;0.72;-1.21;-0.19;0.9698;0.206472;0.023296;121.0;0.0;0.0;1.0;0.0;0.0
3.0;1753880919.725289;17.762869;0.74;-1.22;-0.2;0.970875;0.206149;0.0233;121.0;0.0;0.0;1.2;0.0;0.0
3.0;1753880919.730022;17.748164;0.76;-1.19;-0.2;0.970658;0.205789;0.024286;121.0;0.0;0.0;1.7;0.0;0.0
3.0;1753880919.734755;17.772131;0.77;-1.2;-0.16;0.970606;0.206375;0.023992;121.0;0.0;0.0;1.9;0.0;0.0
3.0;1753880919.739488;17.724182;0.7;-1.18;-0.17;0.970963;0.205626;0.023786;121.0;0.0;0.0;0.8;0.0;0.0
3.0;1753880919.744221;17.757767;0.76;-1.27;-0.24;0.970659;0.206079;0.024912;121.0;0.0;0.0;1.9;0.0;0.0
3.0;1753880919.748954;17.768019;0.7;-1.19;-0.21;0.971193;0.205847;0.022254;121.0;0.0;0.0;1.4;0.0;0.0
3.0;1753880919.753687;17.770346;0.74;-1.3;-0.24;0.97093;0.205976;0.0232;121.0;0.0;0.0;1.5;0.0;0.0
3.0;1753880919.75842;17.7405;0.74;-1.24;-0.21;0.97051;0.205838;0.023154;121.0;0.0;0.0;0.9;0.0;0.0
3.0;1753880919.763153;17.732015;0.78;-1.22;-0.21;0.970973;0.206286;0.023987;121.0;0.0;0.0;2.3;0.0;0.0
3.0;1753880919.767886;17.766358;0.77;-1.18;-0.24;0.971687;0.205861;0.023666;121.0;0.0;0.0;1.8;0.0;0.0
3.0;1753880919.77676;17.75;0.77;-1.26;-0.21;0.971364;0.205936;0.023424;121.0;0.0;0.0;2.0;0.0;0.0
3.0;1753880919.781493;17.740632;0.79;-1.3;-0.27;0.971085;0.205813;0.023947;121.0;0.0;0.0;1.8;0.0;0.0
3.0;1753880919.78989;17.75;0.77;-1.26;-0.28;0.971608;0.206302;0.023302;121.0;0.0;0.0;2.0;0.0;0.0
3.0;1753880919.794623;17.716393;0.73;-1.3;-0.34;0.972957;0.206424;0.021636;121.0;0.0;0.0;1.9;0.0;0.0
3.0;1753880919.799356;17.779325;0.73;-1.22;-0.25;0.972406;0.206254;0.022709;121.0;0.0;0.0;1.3;0.0;0.0
3.0;1753880919.804089;17.739742;0.73;-1.3;-0.23;0.969276;0.205927;0.023136;121.0;0.0;0.0;1.1;0.0;0.0
3.0;1753880919.808822;17.718121;0.8;-1.28;-0.21;0.97084;0.204797;0.022229;121.0;0.0;0.0;3.3;0.0;0.0
3.0;1753880919.813556;17.770077;0.7;-1.29;-0.27;0.971648;0.207058;0.02283;121.0;0.0;0.0;2.1;0.0;0.0
3.0;1753880919.818288;17.721329;0.72;-1.24;-0.28;0.970945;0.205496;0.02225;121.0;0.0;0.0;1.9;0.0;0.0
3.0;1753880919.823022;17.766751;0.77;-1.28;-0.19;0.970196;0.206041;0.023916;121.0;0.0;0.0;1.6;0.0;0.0
3.0;1753880919.827755;17.747031;0.76;-1.24;-0.18;0.969667;0.204657;0.022298;121.0;0.0;0.0;1.5;0.0;0.0
3.0;1753880919.832488;17.771951;0.77;-1.25;-0.33;0.970451;0.206296;0.024115;121.0;0.0;0.0;1.9;0.0;0.0
3.0;1753880919.837221;17.759225;0.6;-1.24;-0.24;0.970794;0.2062;0.02358;121.0;0.0;0.0;1.4;0.0;0.0
3.0;1753880919.841954;17.730411;0.65;-1.21;-0.27;0.971376;0.204814;0.022047;121.0;0.0;0.0;2.6;0.0;0.0
3.0;1753880919.846687;17.748819;0.78;-1.29;-0.26;0.970587;0.205016;0.022468;121.0;0.0;0.0;1.9;0.0;0.0
3.0;1753880919.85142;17.775501;0.72;-1.26;-0.15;0.969612;0.205289;0.02231;121.0;0.0;0.0;2.2;0.0;0.0
3.0;1753880919.856153;17.758865;0.76;-1.27;-0.2;0.969192;0.205368;0.023185;121.0;0.0;0.0;2.3;0.0;0.0
3.0;1753880919.86279;17.75;0.7;-1.26;-0.21;0.969534;0.205204;0.022936;121.0;0.0;0.0;2.0;0.0;0.0
3.0;1753880919.867523;17.74368;0.69;-1.25;-0.17;0.96823;0.2051;0.023058;121.0;0.0;0.0;1.5;0.0;0.0
3.0;1753880919.872256;17.744511;0.69;-1.25;-0.15;0.969693;0.205828;0.022629;121.0;0.0;0.0;3.8;0.0;0.0
3.0;1753880919.876989;17.74823;0.68;-1.27;-0.1;0.970279;0.206765;0.02435;121.0;0.0;0.0;1.9;0.0;0.0
3.0;1753880919.881722;17.734155;0.71;-1.29;-0.17;0.969629;0.205635;0.022218;121.0;0.0;0.0;2.3;0.0;0.0
3.0;1753880919.88612;17.734375;0.7;-1.33;-0.14;0.970266;0.206912;0.02379;121.0;0.0;0.0;2.0;0.0;0.0
3.0;1753880919.890853;17.727137;0.7;-1.36;-0.15;0.970258;0.206003;0.023441;121.0;0.0;0.0;2.4;0.0;0.0
3.0;1753880919.895586;17.716985;0.71;-1.37;-0.06;0.969969;0.205922;0.024491;121.0;0.0;0.0;2.2;0.0;0.0
3.0;1753880919.900319;17.746183;0.74;-1.38;-0.18;0.971704;0.205637;0.023195;121.0;0.0;0.0;1.8;0.0;0.0
3.0;1753880919.905052;17.752119;0.68;-1.34;-0.18;0.971224;0.206203;0.023672;121.0;0.0;0.0;2.9;0.0;0.0
3.0;1753880919.909786;17.741706;0.73;-1.34;-0.17;0.969823;0.206379;0.023042;121.0;0.0;0.0;2.2;0.0;0.0
3.0;1753880919.914518;17.749801;0.72;-1.33;-0.2;0.971252;0.207169;0.021333;121.0;0.0;0.0;1.8;0.0;0.0
3.0;1753880919.919252;17.730519;0.7;-1.3;-0.21;0.970477;0.205986;0.022689;121.0;0.0;0.0;1.8;0.0;0.0
3.0;1753880919.923985;17.72526;0.7;-1.3;-0.25;0.970513;0.207157;0.023039;121.0;0.0;0.0;2.1;0.0;0.0
3.0;1753880919.93082;17.734375;0.7;-1.26;-0.21;0.97051;0.205936;0.022448;121.0;0.0;0.0;2.0;0.0;0.0
3.0;1753880919.935553;17.776113;0.67;-1.29;-0.23;0.970298;0.205967;0.022383;121.0;0.0;0.0;1.6;0.0;0.0
3.0;1753880919.940286;17.736129;0.63;-1.27;-0.15;0.969151;0.205013;0.022474;121.0;0.0;0.0;1.5;0.0;0.0
3.0;1753880919.945019;17.72989;0.74;-1.23;-0.17;0.969549;0.205486;0.023392;121.0;0.0;0.0;1.3;0.0;0.0
3.0;1753880919.949752;17.727918;0.75;-1.26;-0.14;0.969316;0.206032;0.022324;121.0;0.0;0.0;2.3;0.0;0.0
3.0;1753880919.954486;17.747068;0.72;-1.3;-0.26;0.969995;0.204446;0.022498;121.0;0.0;0.0;2.7;0.0;0.0
3.0;1753880919.959218;17.70697;0.65;-1.29;-0.19;0.969619;0.203544;0.022603;121.0;0.0;0.0;2.3;0.0;0.0
3.0;1753880919.963952;17.700289;0.77;-1.27;-0.23;0.970511;0.203246;0.022209;121.0;0.0;0.0;2.2;0.0;0.0
3.0;1753880919.968685;17.726969;0.7;-1.29;-0.1;0.970474;0.205243;0.022786;121.0;0.0;0.0;2.1;0.0;0.0
3.0;1753880919.97761;17.734375;0.7;-1.33;-0.14;0.969412;0.203862;0.02318;121.0;0.0;0.0;2.0;0.0;0.0
3.0;1753880919.978445;17.757812;0.63;-1.19;-28.56;0.909876;0.38613;0.02562;149.0;0.0;0.0;3.0;0.0;0.0
3.0;1753880919.982177;17.757812;0.42;-1.26;-28.91;0.907924;0.396134;0.027938;149.0;0.0;0.0;3.0;0.0;0.0
3.0;1753880919.98691;17.766852;0.53;-1.06;-26.33;0.915287;0.438538;0.027104;135.0;0.0;0.0;3.1;0.0;0.0
3.0;1753880919.992455;17.765625;0.42;-1.4;-29.05;0.905972;0.396988;0.030134;149.0;0.0;0.0;3.0;0.0;0.0
3.0;1753880919.996912;17.765625;0.35;-1.26;-29.33;0.906582;0.401868;0.030744;149.0;0.0;0.0;3.0;0.0;0.0
3.0;1753880920.001645;17.776752;0.12;-1.39;-30.95;0.897728;0.426274;0.034292;149.7;0.0;0.0;3.7;0.0;0.0
3.0;1753880920.006378;17.77552;0.51;-1.1;-31.5;0.897173;0.409677;0.027438;149.4;0.0;0.0;4.2;0.0;0.0
3.0;1753880920.011111;17.760316;0.5;-1.65;-31.34;0.92176;0.38413;0.027565;145.6;0.0;0.0;3.3;0.0;0.0
3.0;1753880920.015844;17.788126;0.4;-1.47;-29.37;0.905616;0.361478;0.024317;146.9;0.0;0.0;1.9;0.0;0.0
3.0;1753880920.020578;17.782492;0.51;-1.78;-31.41;0.885446;0.41019;0.027148;142.2;0.0;0.0;2.8;0.0;0.0
3.0;1753880920.02531;17.784756;0.4;-1.0;-29.47;0.901188;0.420702;0.036804;141.7;0.0;0.0;2.4;0.0;0.0
3.0;1753880920.030044;17.75995;0.34;-1.2;-31.79;0.919624;0.429357;0.024942;149.9;0.0;0.0;2.9;0.0;0.0
3.0;1753880920.034777;17.749658;0.08;-1.2;-29.73;0.906192;0.428181;0.031968;150.7;0.0;0.0;3.2;0.0;0.0
3.0;1753880920.03951;17.739822;0.48;-1.16;-28.6;0.903643;0.385033;0.028781;138.2;0.0;0.0;2.6;0.0;0.0
3.0;1753880920.044243;17.751159;0.44;-1.11;-27.7;0.898263;0.418843;0.023001;144.6;0.0;0.0;2.8;0.0;0.0
3.0;1753880920.048976;17.758458;0.36;-1.43;-29.33;0.929448;0.37437;0.034522;140.0;0.0;0.0;3.4;0.0;0.0
3.0;1753880920.053709;17.788422;0.4;-1.2;-29.42;0.894986;0.406953;0.041412;150.7;0.0;0.0;3.0;0.0;0.0
3.0;1753880920.058442;17.7694;0.55;-1.3;-26.01;0.911148;0.425072;0.028844;154.6;0.0;0.0;2.2;0.0;0.0
3.0;1753880920.063175;17.779369;0.47;-1.05;-27.78;0.901392;0.409577;0.033901;149.8;0.0;0.0;2.7;0.0;0.0
3.0;1753880920.067908;17.771841;0.31;-1.24;-27.05;0.931535;0.441311;0.029732;152.1;0.0;0.0;3.5;0.0;0.0
3.0;1753880920.072641;17.769482;0.32;-1.41;-28.61;0.904692;0.405752;0.029047;144.4;0.0;0.0;2.5;0.0;0.0
3.0;1753880920.077374;17.803128;0.29;-1.32;-29.66;0.903971;0.414997;0.031743;153.8;0.0;0.0;3.0;0.0;0.0
3.0;1753880920.082108;17.745967;0.24;-1.32;-30.08;0.90547;0.406103;0.02886;153.6;0.0;0.0;2.5;0.0;0.0
3.0;1753880920.086841;17.800044;0.34;-1.38;-29.27;0.900444;0.430669;0.040318;140.3;0.0;0.0;2.4;0.0;0.0
3.0;1753880920.091574;17.771227;0.27;-0.93;-30.84;0.907326;0.400636;0.027664;154.7;0.0;0.0;3.1;0.0;0.0
3.0;1753880920.096307;17.750198;0.42;-1.35;-29.76;0.902643;0.379864;0.033527;151.8;0.0;0.0;2.2;0.0;0.0
3.0;1753880920.10104;17.783785;0.47;-1.16;-28.62;0.910301;0.417995;0.040714;145.7;0.0;0.0;3.2;0.0;0.0
3.0;1753880920.105773;17.718014;0.58;-1.39;-29.12;0.921293;0.443336;0.038046;145.2;0.0;0.0;2.8;0.0;0.0
3.0;1753880920.110506;17.762883;0.47;-1.47;-30.6;0.897863;0.406066;0.028179;153.6;0.0;0.0;2.9;0.0;0.0
3.0;1753880920.115239;17.781649;0.43;-0.99;-30.82;0.901237;0.443805;0.028102;144.1;0.0;0.0;2.8;0.0;0.0
3.0;1753880920.119972;17.771127;0.48;-1.27;-32.66;0.91572;0.433019;0.03394;158.9;0.0;0.0;2.6;0.0;0.0
3.0;1753880920.124705;17.777946;0.31;-1.44;-28.17;0.882166;0.368149;0.035825;147.9;0.0;0.0;3.2;0.0;0.0
3.0;1753880920.129438;17.768747;0.46;-1.11;-28.89;0.891445;0.420393;0.037295;152.6;0.0;0.0;3.0;0.0;0.0
3.0;1753880920.134172;17.781266;0.14;-1.3;-29.68;0.931134;0.398162;0.031097;142.1;0.0;0.0;2.3;0.0;0.0
3.0;1753880920.138904;17.767479;0.35;-0.93;-27.49;0.914038;0.360034;0.030047;149.6;0.0;0.0;3.5;0.0;0.0
3.0;1753880920.143638;17.757404;0.62;-1.61;-27.66;0.906784;0.417068;0.022067;145.3;0.0;0.0;3.1;0.0;0.0
3.0;1753880920.148371;17.793096;0.17;-1.36;-30.02;0.908465;0.420436;0.011938;148.2;0.0;0.0;2.7;0.0;0.0
3.0;1753880920.153104;17.755754;0.59;-1.26;-29.76;0.91013;0.372769;0.032255;150.9;0.0;0.0;3.3;0.0;0.0
3.0;1753880920.157837;17.789561;0.24;-1.02;-30.49;0.904139;0.39774;0.027063;141.5;0.0;0.0;2.2;0.0;0.0
3.0;1753880920.16257;17.765055;0.16;-1.39;-28.22;0.911276;0.418334;0.027291;141.9;0.0;0.0;3.3;0.0;0.0
3.0;1753880920.167303;17.765035;0.47;-1.57;-31.73;0.897697;0.340025;0.028319;153.8;0.0;0.0;3.0;0.0;0.0
3.0;1753880920.172036;17.748974;0.29;-1.43;-28.46;0.910175;0.412986;0.027699;152.0;0.0;0.0;3.2;0.0;0.0
3.0;1753880920.176769;17.735925;0.22;-1.62;-30.61;0.896616;0.410631;0.03044;153.0;0.0;0.0;3.1;0.0;0.0
3.0;1753880920.181502;17.78228;0.02;-0.75;-29.58;0.882633;0.399676;0.027101;154.9;0.0;0.0;2.5;0.0;0.0
3.0;1753880920.186236;17.745987;0.55;-1.39;-29.46;0.89654;0.406074;0.026703;144.2;0.0;0.0;2.4;0.0;0.0
3.0;1753880920.190968;17.740981;0.21;-1.23;-29.24;0.903272;0.390016;0.034459;146.3;0.0;0.0;3.7;0.0;0.0
3.0;1753880920.195702;17.790575;0.26;-1.31;-28.45;0.873983;0.388487;0.034054;150.8;0.0;0.0;3.0;0.0;0.0
3.0;1753880920.200435;17.766361;0.23;-1.26;-27.62;0.888046;0.40637;0.022064;158.1;0.0;0.0;3.1;0.0;0.0
3.0;1753880920.205168;17.797238;-0.08;-1.36;-29.94;0.909868;0.418682;0.024622;146.9;0.0;0.0;2.4;0.0;0.0
3.0;1753880920.209901;17.790026;0.23;-1.1;-29.46;0.907752;0.432018;0.02206;151.9;0.0;0.0;3.7;0.0;0.0
3.0;1753880920.214634;17.774655;-0.0;-1.05;-28.59;0.917014;0.407267;0.027238;140.6;0.0;0.0;3.6;0.0;0.0
3.0;1753880920.219367;17.765659;0.87;-1.4;-27.91;0.914519;0.389051;0.024109;144.6;0.0;0.0;3.3;0.0;0.0
3.0;1753880920.2241;17.789029;0.1;-1.27;-30.35;0.91335;0.450983;0.028455;153.5;0.0;0.0;3.6;0.0;0.0
3.0;1753880920.228833;17.739995;0.36;-1.07;-30.86;0.911171;0.374893;0.027958;142.0;0.0;0.0;2.3;0.0;0.0
3.0;1753880920.233566;17.750195;0.51;-1.57;-30.84;0.911887;0.40682;0.024337;146.6;0.0;0.0;2.7;0.0;0.0
3.0;1753880920.238299;17.774524;0.7;-1.07;-30.18;0.916562;0.426415;0.040587;152.3;0.0;0.0;2.6;0.0;0.0
3.0;1753880920.243032;17.767421;0.62;-1.28;-30.45;0.901009;0.442266;0.043477;145.0;0.0;0.0;2.7;0.0;0.0
3.0;1753880920.247766;17.773898;0.18;-1.6;-30.35;0.916826;0.406673;0.029061;145.6;0.0;0.0;2.2;0.0;0.0
3.0;1753880920.252499;17.794924;0.39;-1.02;-29.03;0.914412;0.433955;0.027708;147.1;0.0;0.0;2.8;0.0;0.0
3.0;1753880920.257232;17.770015;0.01;-1.16;-28.78;0.904811;0.384842;0.026721;145.9;0.0;0.0;3.3;0.0;0.0
3.0;1753880920.261965;17.77646;0.24;-1.02;-29.76;0.896516;0.396011;0.029466;152.8;0.0;0.0;3.7;0.0;0.0
3.0;1753880920.266698;17.779181;0.44;-1.72;-27.62;0.896888;0.408525;0.032808;150.7;0.0;0.0;3.4;0.0;0.0
3.0;1753880920.271431;17.746594;-0.02;-1.17;-29.75;0.89467;0.37041;0.036635;151.7;0.0;0.0;2.9;0.0;0.0
3.0;1753880920.276164;17.77478;0.32;-1.35;-28.63;0.913591;0.408444;0.033639;149.3;0.0;0.0;2.5;0.0;0.0
3.0;1753880920.280897;17.754793;0.31;-1.19;-31.51;0.89458;0.387745;0.035574;145.9;0.0;0.0;1.9;0.0;0.0
3.0;1753880920.28563;17.772462;0.47;-1.37;-29.81;0.90216;0.435157;0.030538;152.0;0.0;0.0;3.7;0.0;0.0
3.0;1753880920.290363;17.77496;0.02;-1.46;-29.84;0.906842;0.363011;0.035229;146.9;0.0;0.0;2.6;0.0;0.0
3.0;1753880920.295096;17.738827;0.36;-1.27;-27.04;0.876778;0.417475;0.031088;156.2;0.0;0.0;2.8;0.0;0.0
3.0;1753880920.29983;17.78117;0.24;-1.15;-30.79;0.911551;0.407151;0.036486;148.9;0.0;0.0;2.3;0.0;0.0
3.0;1753880920.304562;17.786336;0.51;-1.57;-30.2;0.90533;0.417238;0.021496;143.3;0.0;0.0;2.5;0.0;0.0
3.0;1753880920.309296;17.769894;0.05;-1.34;-28.9;0.908534;0.407313;0.025174;154.0;0.0;0.0;2.9;0.0;0.0
3.0;1753880920.314029;17.815075;0.17;-1.55;-30.67;0.90452;0.399688;0.044753;153.9;0.0;0.0;3.1;0.0;0.0
3.0;1753880920.318762;17.774327;0.45;-1.53;-30.05;0.901236;0.450695;0.026598;155.3;0.0;0.0;3.0;0.0;0.0
3.0;1753880920.323495;17.771481;0.2;-1.2;-28.23;0.894531;0.40018;0.039623;148.7;0.0;0.0;2.2;0.0;0.0
3.0;1753880920.328228;17.761637;0.67;-1.25;-29.8;0.907747;0.387645;0.034075;145.3;0.0;0.0;3.1;0.0;0.0
3.0;1753880920.332961;17.77225;0.49;-1.77;-28.74;0.908577;0.44114;0.037614;147.0;0.0;0.0;2.4;0.0;0.0
3.0;1753880920.337694;17.753844;0.18;-1.48;-28.72;0.905318;0.419191;0.033148;152.9;0.0;0.0;3.1;0.0;0.0
3.0;1753880920.342427;17.793603;0.0;-1.29;-31.01;0.905031;0.426608;0.034112;145.8;0.0;0.0;4.3;0.0;0.0
3.0;1753880920.34716;17.755055;0.33;-1.31;-27.77;0.895961;0.400881;0.028095;153.3;0.0;0.0;3.7;0.0;0.0
3.0;1753880920.351894;17.773905;0.27;-1.05;-25.94;0.889356;0.407824;0.035392;146.8;0.0;0.0;2.8;0.0;0.0
3.0;1753880920.356626;17.765621;0.36;-1.19;-29.64;0.906365;0.389653;0.030006;149.0;0.0;0.0;3.2;0.0;0.0
3.0;1753880920.36136;17.781143;0.26;-1.29;-28.45;0.902883;0.410782;0.032319;143.8;0.0;0.0;3.1;0.0;0.0
3.0;1753880920.366093;17.765751;0.07;-1.43;-31.1;0.901217;0.383272;0.032733;146.5;0.0;0.0;2.9;0.0;0.0
3.0;1753880920.370826;17.742873;0.21;-1.21;-29.12;0.905743;0.373049;0.040022;150.4;0.0;0.0;3.2;0.0;0.0
3.0;1753880920.375559;17.756993;0.38;-1.25;-29.36;0.901603;0.414766;0.024565;147.9;0.0;0.0;2.6;0.0;0.0
3.0;1753880920.380292;17.772231;0.26;-1.18;-26.19;0.913082;0.392485;0.03272;146.4;0.0;0.0;3.5;0.0;0.0
3.0;1753880920.385025;17.767528;0.25;-1.46;-28.38;0.910676;0.413888;0.03012;146.4;0.0;0.0;2.7;0.0;0.0
3.0;1753880920.389758;17.776841;-0.1;-1.5;-27.3;0.89844;0.378091;0.037626;145.4;0.0;0.0;3.0;0.0;0.0
3.0;1753880920.394491;17.781837;0.17;-1.12;-29.39;0.898795;0.41403;0.028096;142.0;0.0;0.0;2.7;0.0;0.0
3.0;1753880920.399224;17.733614;0.4;-1.13;-28.03;0.918381;0.410595;0.035469;155.4;0.0;0.0;3.4;0.0;0.0
3.0;1753880920.403957;17.75561;-0.04;-1.0;-28.28;0.894804;0.385392;0.020532;150.6;0.0;0.0;2.5;0.0;0.0
3.0;1753880920.40869;17.786359;0.25;-1.44;-30.26;0.895102;0.352836;0.033119;141.3;0.0;0.0;3.5;0.0;0.0
3.0;1753880920.413424;17.756087;0.54;-1.42;-27.74;0.883891;0.366915;0.029268;145.1;0.0;0.0;2.9;0.0;0.0
3.0;1753880920.418156;17.749478;0.18;-1.09;-24.69;0.899981;0.451027;0.038776;156.5;0.0;0.0;3.2;0.0;0.0
3.0;1753880920.42289;17.795638;-0.15;-1.15;-30.96;0.887551;0.387155;0.035986;149.0;0.0;0.0;3.5;0.0;0.0
3.0;1753880920.427623;17.765441;0.47;-1.16;-26.57;0.91557;0.375596;0.035516;148.1;0.0;0.0;2.4;0.0;0.0
3.0;1753880920.432356;17.795998;0.14;-1.28;-27.15;0.910955;0.398577;0.028404;151.7;0.0;0.0;2.5;0.0;0.0
3.0;1753880920.437089;17.756401;0.24;-1.24;-30.58;0.905834;0.408526;0.039578;158.3;0.0;0.0;2.7;0.0;0.0
3.0;1753880920.441822;17.76076;0.3;-1.15;-28.86;0.93154;0.380559;0.039115;147.2;0.0;0.0;2.9;0.0;0.0
3.0;1753880920.446555;17.763258;0.13;-1.2;-30.33;0.916761;0.376548;0.036222;153.4;0.0;0.0;2.9;0.0;0.0
3.0;1753880920.451288;17.778415;0.61;-1.2;-30.84;0.898284;0.403324;0.039908;142.1;0.0;0.0;3.3;0.0;0.0
3.0;1753880920.456021;17.721487;0.3;-1.8;-27.33;0.911712;0.419869;0.029185;160.6;0.0;0.0;3.1;0.0;0.0
3.0;1753880920.460754;17.747391;0.37;-1.4;-26.06;0.904536;0.362868;0.029967;150.4;0.0;0.0;2.9;0.0;0.0
3.0;1753880920.465488;17.78453;-0.03;-1.12;-30.2;0.888316;0.374359;0.029602;148.6;0.0;0.0;2.9;0.0;0.0
3.0;1753880920.47022;17.796063;0.43;-1.53;-27.22;0.901305;0.385166;0.032359;143.0;0.0;0.0;2.9;0.0;0.0
3.0;1753880920.474954;17.735342;-0.08;-1.38;-28.0;0.907106;0.397488;0.032098;150.0;0.0;0.0;2.2;0.0;0.0
3.0;1753880920.479687;17.795189;0.27;-1.62;-32.92;0.914182;0.441495;0.031849;151.7;0.0;0.0;2.8;0.0;0.0
3.0;1753880920.48442;17.76302;0.35;-1.36;-27.87;0.907312;0.39252;0.029112;154.0;0.0;0.0;2.3;0.0;0.0
3.0;1753880920.489153;17.758499;0.6;-1.21;-29.14;0.90706;0.433085;0.03005;155.8;0.0;0.0;2.8;0.0;0.0
3.0;1753880920.493886;17.750245;-0.08;-1.3;-28.95;0.903669;0.380315;0.027464;151.1;0.0;0.0;2.8;0.0;0.0
3.0;1753880920.498619;17.783442;-0.0;-1.52;-32.79;0.882659;0.361195;0.032199;147.9;0.0;0.0;3.8;0.0;0.0
3.0;1753880920.503352;17.773541;0.44;-1.34;-28.1;0.901041;0.434008;0.035913;143.2;0.0;0.0;3.7;0.0;0.0
3.0;1753880920.508085;17.743434;0.16;-1.31;-30.43;0.886421;0.370274;0.040256;145.0;0.0;0.0;2.4;0.0;0.0
3.0;1753880920.512818;17.765601;-0.02;-1.53;-30.19;0.898222;0.408897;0.035061;144.2;0.0;0.0;3.0;0.0;0.0
3.0;1753880920.517552;17.747435;0.29;-1.64;-29.75;0.913787;0.424587;0.018457;151.4;0.0;0.0;2.8;0.0;0.0
3.0;1753880920.522284;17.7658;0.32;-1.32;-29.26;0.897814;0.41843;0.03348;146.4;0.0;0.0;2.4;0.0;0.0
3.0;1753880920.527018;17.738142;0.2;-1.45;-29.92;0.893113;0.446552;0.038487;146.1;0.0;0.0;3.0;0.0;0.0
3.0;1753880920.531751;17.782509;0.12;-1.29;-27.45;0.916459;0.426163;0.039509;154.4;0.0;0.0;2.8;0.0;0.0
3.0;1753880920.536484;17.746172;0.19;-1.23;-28.18;0.906943;0.407444;0.025493;155.4;0.0;0.0;3.3;0.0;0.0
3.0;1753880920.541217;17.761929;0.06;-1.46;-27.3;0.912627;0.38872;0.026144;141.0;0.0;0.0;2.4;0.0;0.0
3.0;1753880920.54595;17.756632;0.21;-1.36;-28.27;0.895999;0.349244;0.031706;152.4;0.0;0.0;3.2;0.0;0.0
3.0;1753880920.550683;17.757775;0.08;-1.3;-29.19;0.896988;0.400736;0.042066;143.9;0.0;0.0;3.1;0.0;0.0
3.0;1753880920.555416;17.754077;0.56;-1.06;-30.97;0.878799;0.437771;0.036649;145.8;0.0;0.0;3.0;0.0;0.0
3.0;1753880920.560149;17.758403;0.16;-1.6;-28.57;0.906269;0.451947;0.03417;136.4;0.0;0.0;2.8;0.0;0.0
3.0;1753880920.564882;17.734586;-0.1;-1.16;-31.83;0.911681;0.397581;0.040055;144.9;0.0;0.0;3.6;0.0;0.0
3.0;1753880920.569615;17.744605;0.23;-1.43;-28.65;0.901404;0.409995;0.040608;152.3;0.0;0.0;2.6;0.0;0.0
3.0;1753880920.574348;17.760839;0.66;-1.38;-30.28;0.921984;0.420107;0.02997;155.3;0.0;0.0;3.0;0.0;0.0
3.0;1753880920.579082;17.770414;0.04;-1.22;-30.9;0.923312;0.397114;0.039841;148.6;0.0;0.0;2.7;0.0;0.0
3.0;1753880920.583814;17.760912;0.38;-1.3;-31.41;0.918698;0.387209;0.028088;150.8;0.0;0.0;2.7;0.0;0.0
3.0;1753880920.588548;17.752025;0.24;-1.56;-31.12;0.898639;0.389902;0.028044;150.7;0.0;0.0;2.9;0.0;0.0
3.0;1753880920.593281;17.776805;0.39;-1.53;-29.83;0.922584;0.403301;0.027318;154.8;0.0;0.0;2.7;0.0;0.0
3.0;1753880920.598014;17.726829;0.47;-1.4;-29.75;0.916641;0.386767;0.029181;154.3;0.0;0.0;3.0;0.0;0.0
3.0;1753880920.602747;17.764274;0.03;-1.15;-30.39;0.894879;0.407227;0.028541;148.7;0.0;0.0;3.0;0.0;0.0
3.0;1753880920.60748;17.737541;-0.03;-1.4;-27.6;0.879813;0.40249;0.03003;154.1;0.0;0.0;2.1;0.0;0.0
3.0;1753880920.612213;17.774955;0.12;-1.37;-30.26;0.902173;0.368619;0.032082;153.6;0.0;0.0;3.2;0.0;0.0
3.0;1753880920.616946;17.766851;0.09;-1.39;-28.0;0.905646;0.455271;0.031179;156.0;0.0;0.0;3.8;0.0;0.0
3.0;1753880920.621679;17.787925;0.31;-1.67;-27.64;0.90475;0.370456;0.031675;148.8;0.0;0.0;3.1;0.0;0.0
3.0;1753880920.626412;17.761418;0.01;-1.71;-26.74;0.905708;0.424438;0.033514;148.9;0.0;0.0;3.2;0.0;0.0
3.0;1753880920.631146;17.788413;0.39;-1.44;-28.37;0.918227;0.389078;0.035951;150.1;0.0;0.0;3.3;0.0;0.0
3.0;1753880920.635878;17.767538;0.22;-1.39;-31.79;0.901749;0.363776;0.03505;144.5;0.0;0.0;2.7;0.0;0.0
3.0;1753880920.640612;17.764355;0.19;-1.27;-26.71;0.890448;0.417152;0.02741;148.6;0.0;0.0;2.9;0.0;0.0
3.0;1753880920.645345;17.774401;0.34;-1.06;-27.97;0.889196;0.386304;0.028989;147.2;0.0;0.0;3.2;0.0;0.0
3.0;1753880920.650078;17.754293;0.12;-1.34;-30.22;0.920563;0.351456;0.024528;150.5;0.0;0.0;3.2;0.0;0.0
3.0;1753880920.654811;17.74016;0.27;-1.44;-31.7;0.899586;0.376483;0.033464;154.3;0.0;0.0;2.8;0.0;0.0
3.0;1753880920.659544;17.737979;0.28;-1.64;-32.01;0.890764;0.453623;0.025651;155.7;0.0;0.0;2.7;0.0;0.0
3.0;1753880920.664277;17.754145;0.5;-1.36;-29.7;0.901341;0.41256;0.039172;151.3;0.0;0.0;3.2;0.0;0.0
3.0;1753880920.66901;17.76211;0.31;-1.11;-26.09;0.896493;0.397988;0.033369;154.7;0.0;0.0;3.3;0.0;0.0
3.0;1753880920.673743;17.783283;0.44;-1.3;-30.0;0.896548;0.383992;0.021772;154.1;0.0;0.0;3.3;0.0;0.0
3.0;1753880920.678476;17.750525;0.44;-1.34;-28.01;0.898225;0.441617;0.027365;153.2;0.0;0.0;2.0;0.0;0.0
3.0;1753880920.68321;17.786366;0.09;-1.24;-29.18;0.90424;0.399378;0.039795;147.1;0.0;0.0;2.7;0.0;0.0
3.0;1753880920.687942;17.74797;0.49;-1.37;-29.36;0.900057;0.41288;0.035884;146.4;0.0;0.0;3.0;0.0;0.0
3.0;1753880920.692676;17.765488;0.32;-1.25;-34.44;0.918578;0.411651;0.038197;148.6;0.0;0.0;3.0;0.0;0.0
3.0;1753880920.697409;17.773981;0.47;-1.32;-28.79;0.913698;0.456018;0.030505;154.0;0.0;0.0;2.2;0.0;0.0
3.0;1753880920.702142;17.774427;0.1;-1.33;-30.23;0.913495;0.405208;0.034354;151.0;0.0;0.0;2.7;0.0;0.0
3.0;1753880920.706875;17.767914;0.2;-1.33;-26.06;0.90123;0.378521;0.038039;150.3;0.0;0.0;3.0;0.0;0.0
3.0;1753880920.711608;17.768617;-0.15;-1.4;-30.49;0.909085;0.393455;0.027827;149.2;0.0;0.0;2.6;0.0;0.0
3.0;1753880920.716341;17.790533;0.18;-1.47;-30.15;0.908882;0.407131;0.031153;156.5;0.0;0.0;3.1;0.0;0.0
3.0;1753880920.721074;17.757528;0.2;-1.34;-27.57;0.90718;0.432765;0.033412;155.1;0.0;0.0;2.5;0.0;0.0
3.0;1753880920.725807;17.760447;-0.0;-1.22;-27.44;0.9148;0.409892;0.034118;145.9;0.0;0.0;2.8;0.0;0.0
3.0;1753880920.73054;17.728166;0.3;-1.36;-28.54;0.895039;0.408554;0.032187;152.9;0.0;0.0;3.4;0.0;0.0
3.0;1753880920.735273;17.783476;0.08;-1.44;-30.26;0.900823;0.432412;0.039555;145.6;0.0;0.0;3.3;0.0;0.0
3.0;1753880920.740006;17.743864;0.54;-1.33;-30.26;0.892481;0.420844;0.031983;155.3;0.0;0.0;2.9;0.0;0.0
3.0;1753880920.74474;17.758186;0.26;-1.27;-28.66;0.906385;0.368211;0.03658;148.7;0.0;0.0;2.1;0.0;0.0
3.0;1753880920.749472;17.788622;-0.13;-1.12;-29.38;0.908907;0.385129;0.039338;151.9;0.0;0.0;3.4;0.0;0.0
3.0;1753880920.754206;17.757607;0.09;-1.35;-29.63;0.896557;0.389672;0.039155;144.0;0.0;0.0;3.2;0.0;0.0
3.0;1753880920.758939;17.765298;0.62;-1.47;-25.76;0.905774;0.395673;0.028402;138.3;0.0;0.0;3.7;0.0;0.0
3.0;1753880920.763672;17.742388;0.32;-1.3;-28.71;0.887078;0.458326;0.036226;153.0;0.0;0.0;3.5;0.0;0.0
3.0;1753880920.768405;17.75805;0.04;-1.39;-30.54;0.892203;0.39482;0.031119;143.3;0.0;0.0;3.5;0.0;0.0
3.0;1753880920.773138;17.805266;0.19;-1.08;-31.21;0.894761;0.42503;0.029681;145.8;0.0;0.0;3.4;0.0;0.0
3.0;1753880920.777871;17.745754;-0.04;-1.31;-32.33;0.878599;0.406248;0.035275;148.0;0.0;0.0;3.2;0.0;0.0
3.0;1753880920.782604;17.766963;0.41;-1.25;-28.24;0.884853;0.386955;0.038999;157.1;0.0;0.0;2.5;0.0;0.0
3.0;1753880920.787337;17.763726;0.26;-1.35;-27.61;0.913296;0.377175;0.031675;148.1;0.0;0.0;2.9;0.0;0.0
3.0;1753880920.79207;17.767531;0.09;-1.58;-28.53;0.915053;0.393052;0.040749;142.3;0.0;0.0;3.3;0.0;0.0
3.0;1753880920.796804;17.754686;0.31;-1.2;-29.74;0.914703;0.382137;0.036054;145.4;0.0;0.0;3.2;0.0;0.0
3.0;1753880920.801536;17.754409;-0.12;-1.26;-27.74;0.910382;0.402541;0.033519;153.8;0.0;0.0;2.8;0.0;0.0
3.0;1753880920.80627;17.785955;-0.07;-1.59;-30.17;0.893406;0.382374;0.045028;151.1;0.0;0.0;2.9;0.0;0.0
3.0;1753880920.811003;17.759913;0.25;-1.51;-28.09;0.899937;0.449471;0.037221;147.7;0.0;0.0;2.8;0.0;0.0
3.0;1753880920.815736;17.748496;0.13;-1.15;-28.61;0.902816;0.408052;0.032347;148.6;0.0;0.0;3.3;0.0;0.0
3.0;1753880920.820469;17.763981;0.19;-1.5;-31.0;0.880731;0.390965;0.036878;144.6;0.0;0.0;3.3;0.0;0.0
3.0;1753880920.825202;17.756563;0.23;-1.12;-32.0;0.890327;0.34718;0.026068;151.3;0.0;0.0;3.2;0.0;0.0
3.0;1753880920.829935;17.775973;0.36;-1.25;-25.69;0.896449;0.386305;0.034406;157.5;0.0;0.0;2.9;0.0;0.0
3.0;1753880920.834668;17.757164;0.39;-1.38;-30.26;0.910879;0.361535;0.035019;137.0;0.0;0.0;2.9;0.0;0.0
3.0;1753880920.839401;17.755813;0.22;-1.32;-28.83;0.900687;0.391476;0.037496;144.7;0.0;0.0;3.2;0.0;0.0
3.0;1753880920.844134;17.78993;0.35;-1.21;-28.98;0.920993;0.404311;0.03;153.1;0.0;0.0;3.4;0.0;0.0
3.0;1753880920.848868;17.767413;0.09;-1.5;-28.78;0.898333;0.351399;0.039753;146.6;0.0;0.0;3.8;0.0;0.0
3.0;1753880920.8536;17.782062;0.11;-1.14;-31.41;0.896924;0.386086;0.02584;161.9;0.0;0.0;3.1;0.0;0.0
3.0;1753880920.858334;17.763792;-0.2;-1.24;-29.63;0.905396;0.452001;0.035897;148.2;0.0;0.0;3.6;0.0;0.0
3.0;1753880920.863067;17.755914;-0.02;-1.33;-29.26;0.915867;0.390949;0.033896;157.0;0.0;0.0;3.1;0.0;0.0
3.0;1753880920.8678;17.76062;0.18;-1.31;-29.61;0.896338;0.352363;0.0286;148.6;0.0;0.0;3.1;0.0;0.0
3.0;1753880920.872533;17.754094;0.27;-1.43;-30.29;0.889893;0.401784;0.038427;145.2;0.0;0.0;2.9;0.0;0.0
3.0;1753880920.877266;17.775865;0.07;-1.56;-28.73;0.893929;0.395804;0.037395;143.6;0.0;0.0;2.7;0.0;0.0
3.0;1753880920.881999;17.747438;0.29;-1.37;-29.48;0.899426;0.433977;0.034006;146.7;0.0;0.0;1.7;0.0;0.0
3.0;1753880920.886732;17.75203;-0.01;-1.31;-31.02;0.8928;0.410715;0.027242;148.2;0.0;0.0;2.7;0.0;0.0
3.0;1753880920.895;17.765625;0.14;-1.33;-29.26;0.901824;0.402112;0.033306;149.0;0.0;0.0;3.0;0.0;0.0
3.0;1753880920.89591;17.714844;0.77;-1.05;-22.68;0.873886;0.45628;0.0183;153.0;0.0;0.0;3.0;0.0;0.0
3.0;1753880920.89779;17.714844;0.77;-1.05;-22.47;0.879986;0.445056;0.021594;153.0;0.0;0.0;3.0;0.0;0.0
3.0;1753880920.902523;17.710179;0.67;-0.92;-18.08;0.881639;0.445298;0.02516;155.2;0.0;0.0;3.0;0.0;0.0
3.0;1753880920.907256;17.724561;1.03;-0.99;-22.12;0.878665;0.447742;0.022319;152.4;0.0;0.0;3.0;0.0;0.0
3.0;1753880920.911989;17.719815;0.54;-1.2;-21.79;0.877658;0.458009;0.033628;154.2;0.0;0.0;3.0;0.0;0.0
3.0;1753880920.916722;17.744118;0.88;-1.18;-22.02;0.886288;0.443285;0.017856;154.7;0.0;0.0;3.0;0.0;0.0
3.0;1753880920.921456;17.683866;0.72;-1.06;-25.5;0.884547;0.431962;0.017717;154.2;0.0;0.0;3.0;0.0;0.0
3.0;1753880920.926188;17.727496;0.75;-0.89;-21.16;0.862466;0.466061;0.026675;151.3;0.0;0.0;3.0;0.0;0.0
3.0;1753880920.930922;17.71858;0.68;-0.9;-22.18;0.893809;0.440497;0.030924;151.8;0.0;0.0;3.0;0.0;0.0
3.0;1753880920.935655;17.702518;0.95;-0.91;-19.99;0.892707;0.458444;0.01637;154.2;0.0;0.0;3.0;0.0;0.0
3.0;1753880920.940388;17.680295;0.39;-0.88;-19.33;0.888299;0.442819;0.016324;153.2;0.0;0.0;3.0;0.0;0.0
3.0;1753880920.945121;17.710858;0.25;-0.86;-14.39;0.888395;0.457196;0.028469;154.4;0.0;0.0;3.0;0.0;0.0
3.0;1753880920.949854;17.727138;0.86;-0.99;-19.3;0.861712;0.46076;0.02412;154.2;0.0;0.0;3.0;0.0;0.0
3.0;1753880920.954587;17.711142;0.78;-0.94;-21.84;0.895168;0.487504;0.023041;153.4;0.0;0.0;3.0;0.0;0.0
3.0;1753880920.95899;17.714844;0.7;-1.05;-22.33;0.88816;0.454938;0.027694;153.0;0.0;0.0;3.0;0.0;0.0
3.0;1753880920.963723;17.732802;1.13;-1.07;-19.65;0.894312;0.46277;0.024794;153.5;0.0;0.0;3.0;0.0;0.0
3.0;1753880920.968456;17.692306;-0.08;-1.05;-23.39;0.890367;0.435505;0.020528;153.6;0.0;0.0;3.0;0.0;0.0
3.0;1753880920.973189;17.719678;0.56;-1.19;-24.47;0.875213;0.457876;0.030665;154.6;0.0;0.0;3.0;0.0;0.0
3.0;1753880920.977922;17.788765;0.69;-1.06;-25.58;0.886245;0.438739;0.019872;152.7;0.0;0.0;3.0;0.0;0.0
3.0;1753880920.982656;17.765153;0.96;-0.91;-21.77;0.875357;0.456674;0.030066;153.6;0.0;0.0;3.0;0.0;0.0
3.0;1753880920.987388;17.75275;1.01;-1.07;-17.75;0.874176;0.425545;0.028988;152.2;0.0;0.0;3.0;0.0;0.0
3.0;1753880920.99171;17.765625;0.91;-0.98;-21.77;0.880962;0.431636;0.034526;153.0;0.0;0.0;3.0;0.0;0.0
3.0;1753880920.996778;17.773438;0.98;-2.87;-115.15;-0.458964;0.857294;0.008296;0.0;0.0;0.0;0.0;0.0;0.0
3.0;1753880920.998053;17.773438;1.19;-2.73;-115.5;-0.46116;0.868152;0.005612;0.0;0.0;0.0;0.0;0.0;0.0
3.0;1753880921.002786;17.775403;1.92;-1.16;-110.95;-0.503506;0.849734;0.021271;0.0;0.0;0.0;0.0;0.0;0.0
3.0;1753880921.007519;17.766147;0.59;-4.38;-107.86;-0.430163;0.893729;-0.02535;0.0;0.0;0.0;0.0;0.0;0.0
