DeviceID;Timestamp;Temperature;GyroX;GyroY;GyroZ;AccelX;AccelY;AccelZ;Dist1;Dist2;Dist3;Err1;Err2;Err3
4.0;1753880915.351683;17.265625;0.56;-1.19;0.14;0.793366;-0.607926;0.011712;90.0;0.0;0.0;1.0;0.0;0.0
4.0;1753880915.358029;17.25;0.56;-1.19;0.07;0.78934;-0.610244;0.010736;90.0;0.0;0.0;1.0;0.0;0.0
4.0;1753880915.360838;17.25;0.56;-1.12;0.07;0.79239;-0.608048;0.0122;90.0;0.0;0.0;1.0;0.0;0.0
4.0;1753880915.365446;17.249602;0.6;-0.97;0.01;0.800536;-0.614678;0.006559;90.1;0.4;0.4;0.9;0.0;-0.0
4.0;1753880915.369652;17.25;0.63;-1.05;0.14;0.79361;-0.609024;0.010614;90.0;0.0;0.0;1.0;0.0;0.0
4.0;1753880915.375655;17.234375;0.63;-1.19;0.07;0.791658;-0.607926;0.012078;90.0;0.0;0.0;1.0;0.0;0.0
4.0;1753880915.379021;17.234375;0.56;-1.12;0.14;0.792024;-0.609756;0.011346;90.0;0.0;0.0;1.0;0.0;0.0
4.0;1753880915.383669;17.234375;0.56;-1.12;0.07;0.791048;-0.609634;0.010858;90.0;0.0;0.0;1.0;0.0;0.0
4.0;1753880915.388148;17.234375;0.7;-1.26;0.0;0.791048;-0.609268;0.010858;90.0;0.0;0.0;1.0;0.0;0.0
4.0;1753880915.392697;17.21875;0.7;-1.19;0.0;0.793366;-0.609512;0.011956;90.0;0.0;0.0;1.0;0.0;0.0
4.0;1753880915.400855;17.21875;0.63;-1.12;0.07;0.792268;-0.607682;0.01037;90.0;0.0;0.0;1.0;0.0;0.0
4.0;1753880915.401743;17.21875;0.56;-1.19;0.14;0.791536;-0.609024;0.012932;90.0;0.0;0.0;1.0;0.0;0.0
4.0;1753880915.406338;17.21875;0.63;-1.12;0.07;0.79056;-0.60878;0.010004;90.0;0.0;0.0;1.0;0.0;0.0
4.0;1753880915.410872;17.242188;0.63;-1.19;0.07;0.791048;-0.609878;0.01281;90.0;0.0;0.0;1.0;0.0;0.0
4.0;1753880915.418815;17.242188;0.56;-1.12;0.0;0.793122;-0.608658;0.010858;90.0;0.0;0.0;1.0;0.0;0.0
4.0;1753880915.42495;17.242188;0.56;-1.12;0.07;0.792146;-0.609268;0.01098;90.0;0.0;0.0;1.0;0.0;0.0
4.0;1753880915.429373;17.21875;0.56;-1.12;0.0;0.79117;-0.60878;0.010492;90.0;0.0;0.0;1.0;0.0;0.0
4.0;1753880915.433657;17.21875;0.63;-1.12;0.07;0.791658;-0.610244;0.012322;90.0;0.0;0.0;1.0;0.0;0.0
4.0;1753880915.438213;17.21875;0.63;-1.19;0.14;0.793488;-0.608536;0.011712;90.0;0.0;0.0;1.0;0.0;0.0
4.0;1753880915.442778;17.21875;0.56;-1.12;0.0;0.791536;-0.60878;0.012566;90.0;0.0;0.0;1.0;0.0;0.0
4.0;1753880915.450115;17.210938;0.63;-1.12;0.14;0.792512;-0.609512;0.01098;90.0;0.0;0.0;1.0;0.0;0.0
4.0;1753880915.452755;17.210938;0.49;-1.12;0.14;0.79422;-0.607194;0.010736;90.0;0.0;0.0;1.0;0.0;0.0
4.0;1753880915.457245;17.210938;0.63;-1.19;0.07;0.791048;-0.609512;0.012444;90.0;0.0;0.0;1.0;0.0;0.0
4.0;1753880915.465748;17.234375;0.56;-1.12;0.0;0.792268;-0.609146;0.011102;90.0;0.0;0.0;1.0;0.0;0.0
4.0;1753880915.473339;17.234375;0.63;-1.12;0.14;0.79056;-0.61;0.011224;90.0;0.0;0.0;1.0;0.0;0.0
4.0;1753880915.47457;17.234375;0.7;-1.12;0.14;0.791414;-0.60878;0.013054;90.0;0.0;0.0;1.0;0.0;0.0
4.0;1753880915.479248;17.234375;0.7;-1.12;0.14;0.793366;-0.60878;0.013176;90.0;0.0;0.0;1.0;0.0;0.0
4.0;1753880915.483719;17.183594;0.7;-1.12;0.07;0.789218;-0.608292;0.01281;90.0;0.0;0.0;1.0;0.0;0.0
4.0;1753880915.488461;17.183594;0.63;-1.05;0.0;0.791048;-0.60817;0.011712;90.0;0.0;0.0;1.0;0.0;0.0
4.0;1753880915.492826;17.183594;0.63;-1.19;0.07;0.79117;-0.609024;0.010004;90.0;0.0;0.0;1.0;0.0;0.0
4.0;1753880915.499707;17.183594;0.7;-1.19;0.07;0.791414;-0.610366;0.011712;90.0;0.0;0.0;1.0;0.0;0.0
4.0;1753880915.501976;17.265625;0.63;-1.26;0.07;0.791414;-0.610366;0.011712;90.0;0.0;0.0;1.0;0.0;0.0
4.0;1753880915.506674;17.265625;0.63;-1.12;0.14;0.792634;-0.60878;0.011712;90.0;0.0;0.0;1.0;0.0;0.0
4.0;1753880915.514832;17.265625;0.56;-1.12;0.07;0.791536;-0.610122;0.01098;90.0;0.0;0.0;1.0;0.0;0.0
4.0;1753880915.515523;17.265625;0.63;-1.12;0.07;0.792756;-0.60939;0.012444;90.0;0.0;0.0;1.0;0.0;0.0
4.0;1753880915.524206;17.242188;0.56;-1.05;0.21;0.791048;-0.609634;0.011346;90.0;0.0;0.0;1.0;0.0;0.0
4.0;1753880915.52463;17.242188;0.56;-1.19;0.07;0.79056;-0.610244;0.012932;90.0;0.0;0.0;1.0;0.0;0.0
4.0;1753880915.529374;17.242188;0.56;-1.05;0.0;0.791658;-0.609268;0.01159;90.0;0.0;0.0;1.0;0.0;0.0
4.0;1753880915.533797;17.242188;0.7;-1.19;0.07;0.790804;-0.609878;0.011102;90.0;0.0;0.0;1.0;0.0;0.0
4.0;1753880915.538574;17.265625;0.63;-1.19;0.07;0.79056;-0.609878;0.01098;90.0;0.0;0.0;1.0;0.0;0.0
4.0;1753880915.542935;17.265625;0.56;-1.12;0.14;0.79117;-0.609634;0.01159;90.0;0.0;0.0;1.0;0.0;0.0
4.0;1753880915.547861;17.265625;0.63;-1.12;0.14;0.790926;-0.609146;0.013176;88.0;0.0;0.0;1.0;0.0;0.0
4.0;1753880915.551987;17.265625;0.63;-1.19;0.07;0.790926;-0.609878;0.011956;88.0;0.0;0.0;1.0;0.0;0.0
4.0;1753880915.557882;17.21875;0.7;-1.12;0.07;0.791414;-0.608902;0.011468;88.0;0.0;0.0;1.0;0.0;0.0
4.0;1753880915.565534;17.21875;0.63;-1.19;0.07;0.791902;-0.60878;0.013298;88.0;0.0;0.0;1.0;0.0;0.0
4.0;1753880915.571278;17.21875;0.56;-1.19;0.07;0.792878;-0.607682;0.012688;88.0;0.0;0.0;1.0;0.0;0.0
4.0;1753880915.574731;17.226562;0.63;-1.19;0.07;0.791658;-0.609268;0.011224;88.0;0.0;0.0;1.0;0.0;0.0
4.0;1753880915.579291;17.226562;0.63;-1.19;0.07;0.793;-0.608658;0.011712;88.0;0.0;0.0;1.0;0.0;0.0
4.0;1753880915.584727;17.226562;0.56;-1.05;0.07;0.790926;-0.61;0.010492;88.0;0.0;0.0;1.0;0.0;0.0
4.0;1753880915.588471;17.226562;0.56;-1.12;0.0;0.793976;-0.607194;0.012444;88.0;0.0;0.0;1.0;0.0;0.0
4.0;1753880915.593079;17.214256;0.62;-1.03;0.05;0.793462;-0.608053;0.012777;88.7;0.0;0.0;1.0;0.0;0.0
4.0;1753880915.597788;17.21875;0.63;-1.12;0.07;0.792146;-0.60878;0.011224;90.0;0.0;0.0;1.0;0.0;0.0
4.0;1753880915.602103;17.21875;0.7;-1.12;0.07;0.793488;-0.60939;0.01159;90.0;0.0;0.0;1.0;0.0;0.0
4.0;1753880915.606711;17.236248;0.65;-1.05;0.09;0.792533;-0.608965;0.011419;89.7;0.0;0.0;1.0;0.0;0.0
4.0;1753880915.612486;17.199219;0.7;-1.12;0.14;0.793366;-0.609512;0.01159;90.0;0.0;0.0;1.0;0.0;0.0
4.0;1753880915.619434;17.199219;0.63;-1.12;0.14;0.790438;-0.608292;0.011712;90.0;0.0;0.0;1.0;0.0;0.0
4.0;1753880915.620203;17.199219;0.63;-1.19;0.14;0.790072;-0.609878;0.012688;90.0;0.0;0.0;1.0;0.0;0.0
4.0;1753880915.626386;17.199219;0.63;-1.05;0.07;0.790072;-0.609878;0.012688;90.0;0.0;0.0;1.0;0.0;0.0
4.0;1753880915.629698;17.226562;0.63;-1.12;0.07;0.790194;-0.60939;0.011956;90.0;0.0;0.0;1.0;0.0;0.0
4.0;1753880915.6338;17.226562;0.7;-1.19;0.07;0.790194;-0.60939;0.011956;90.0;0.0;0.0;1.0;0.0;0.0
4.0;1753880915.640021;17.226562;0.63;-1.12;0.07;0.791292;-0.609512;0.011834;90.0;0.0;0.0;1.0;0.0;0.0
4.0;1753880915.648351;17.242188;0.56;-1.19;0.14;0.791536;-0.609512;0.011468;87.0;0.0;0.0;1.0;0.0;0.0
4.0;1753880915.652109;17.242188;0.56;-1.12;0.07;0.790072;-0.608658;0.011834;87.0;0.0;0.0;1.0;0.0;0.0
4.0;1753880915.656717;17.244226;0.55;-1.21;0.08;0.79049;-0.609926;0.013973;84.8;0.0;0.0;1.0;0.0;0.0
4.0;1753880915.663609;17.242188;0.63;-1.19;0.0;0.792878;-0.609878;0.012078;87.0;0.0;0.0;1.0;0.0;0.0
4.0;1753880915.669161;17.199219;0.56;-1.12;0.07;0.792024;-0.608658;0.010614;87.0;0.0;0.0;1.0;0.0;0.0
4.0;1753880915.67027;17.199219;0.63;-1.26;0.14;0.791048;-0.608536;0.010736;87.0;0.0;0.0;1.0;0.0;0.0
4.0;1753880915.674784;17.199219;0.56;-1.26;0.07;0.791048;-0.608536;0.010736;87.0;0.0;0.0;1.0;0.0;0.0
4.0;1753880915.679879;17.199219;0.63;-1.12;0.0;0.791902;-0.609512;0.012688;87.0;0.0;0.0;1.0;0.0;0.0
4.0;1753880915.684113;17.234375;0.56;-1.12;0.14;0.791292;-0.60878;0.012566;87.0;0.0;0.0;1.0;0.0;0.0
4.0;1753880915.68852;17.234375;0.56;-1.12;0.07;0.791658;-0.60817;0.011224;87.0;0.0;0.0;1.0;0.0;0.0
4.0;1753880915.693128;17.216741;0.54;-1.19;0.02;0.791571;-0.608201;0.010929;88.4;0.0;0.0;1.0;0.0;0.0
4.0;1753880915.698163;17.234375;0.63;-1.19;0.07;0.791902;-0.610366;0.011468;89.0;0.0;0.0;1.0;0.0;0.0
4.0;1753880915.702168;17.199219;0.63;-1.12;0.0;0.792512;-0.607194;0.011102;89.0;0.0;0.0;1.0;0.0;0.0
4.0;1753880915.706776;17.204286;0.63;-1.23;-0.08;0.790987;-0.607736;0.011443;89.0;0.0;0.0;1.0;0.0;0.0
4.0;1753880915.711332;17.199219;0.63;-1.19;0.0;0.791048;-0.607438;0.011834;89.0;0.0;0.0;1.0;0.0;0.0
4.0;1753880915.718625;17.199219;0.63;-1.26;0.14;0.79239;-0.609024;0.011346;89.0;0.0;0.0;1.0;0.0;0.0
4.0;1753880915.720333;17.210938;0.56;-1.19;0.21;0.791902;-0.610122;0.011712;89.0;0.0;0.0;1.0;0.0;0.0
4.0;1753880915.725644;17.210938;0.63;-1.19;0.07;0.790804;-0.60939;0.011224;89.0;0.0;0.0;1.0;0.0;0.0
4.0;1753880915.729878;17.210938;0.7;-1.12;0.14;0.79239;-0.609024;0.010858;89.0;0.0;0.0;1.0;0.0;0.0
4.0;1753880915.734106;17.210938;0.63;-1.12;0.21;0.792512;-0.608536;0.011712;89.0;0.0;0.0;1.0;0.0;0.0
4.0;1753880915.738588;17.21875;0.63;-1.12;0.07;0.791048;-0.607926;0.012078;89.0;0.0;0.0;1.0;0.0;0.0
4.0;1753880915.74618;17.21875;0.56;-1.12;0.07;0.792146;-0.609024;0.012566;88.0;0.0;0.0;1.0;0.0;0.0
4.0;1753880915.747638;17.21875;0.56;-1.19;0.07;0.792512;-0.608292;0.011834;88.0;0.0;0.0;1.0;0.0;0.0
4.0;1753880915.752294;17.21875;0.56;-1.12;0.0;0.789096;-0.609512;0.0122;88.0;0.0;0.0;1.0;0.0;0.0
4.0;1753880915.759582;17.199219;0.56;-1.12;0.07;0.792878;-0.607072;0.011834;88.0;0.0;0.0;1.0;0.0;0.0
4.0;1753880915.76132;17.199219;0.49;-1.12;0.0;0.791658;-0.60939;0.011712;88.0;0.0;0.0;1.0;0.0;0.0
4.0;1753880915.769157;17.199219;0.56;-1.12;0.0;0.790682;-0.60939;0.011956;88.0;0.0;0.0;1.0;0.0;0.0
4.0;1753880915.770398;17.199219;0.56;-1.05;0.07;0.792146;-0.60939;0.01159;88.0;0.0;0.0;1.0;0.0;0.0
4.0;1753880915.774995;17.21875;0.63;-1.05;0.14;0.790926;-0.610488;0.012322;88.0;0.0;0.0;1.0;0.0;0.0
4.0;1753880915.779499;17.21875;0.63;-1.12;0.14;0.792756;-0.607438;0.01159;88.0;0.0;0.0;1.0;0.0;0.0
4.0;1753880915.784053;17.21875;0.7;-1.12;0.14;0.792268;-0.609146;0.011224;88.0;0.0;0.0;1.0;0.0;0.0
4.0;1753880915.789393;17.21875;0.63;-1.12;0.07;0.792268;-0.609512;0.011102;88.0;0.0;0.0;1.0;0.0;0.0
4.0;1753880915.794792;17.191406;0.63;-1.19;0.0;0.790926;-0.609756;0.011102;88.0;0.0;0.0;1.0;0.0;0.0
4.0;1753880915.797732;17.191406;0.63;-1.19;0.07;0.792512;-0.61;0.011712;88.0;0.0;0.0;1.0;0.0;0.0
4.0;1753880915.802282;17.191406;0.56;-1.19;0.14;0.792268;-0.60878;0.011224;88.0;0.0;0.0;1.0;0.0;0.0
4.0;1753880915.81015;17.191406;0.63;-1.19;0.07;0.791048;-0.60939;0.011712;88.0;0.0;0.0;1.0;0.0;0.0
4.0;1753880915.811296;17.199219;0.63;-1.12;0.0;0.791048;-0.60939;0.011712;88.0;0.0;0.0;1.0;0.0;0.0
4.0;1753880915.818087;17.199219;0.7;-1.12;0.0;0.791658;-0.608902;0.01159;88.0;0.0;0.0;1.0;0.0;0.0
4.0;1753880915.820472;17.199219;0.7;-1.19;0.07;0.791414;-0.609512;0.011346;88.0;0.0;0.0;1.0;0.0;0.0
4.0;1753880915.825063;17.199219;0.7;-1.19;0.14;0.790072;-0.608414;0.012566;88.0;0.0;0.0;1.0;0.0;0.0
4.0;1753880915.829506;17.21875;0.63;-1.26;0.21;0.790072;-0.608414;0.012566;88.0;0.0;0.0;1.0;0.0;0.0
4.0;1753880915.835341;17.21875;0.63;-1.12;0.07;0.793244;-0.608292;0.010858;88.0;0.0;0.0;1.0;0.0;0.0
4.0;1753880915.83871;17.21875;0.63;-1.12;0.07;0.790804;-0.609512;0.011224;88.0;0.0;0.0;1.0;0.0;0.0
4.0;1753880915.844306;17.21875;0.63;-1.19;0.07;0.792512;-0.608414;0.01098;87.0;0.0;0.0;1.0;0.0;0.0
4.0;1753880915.847785;17.234375;0.56;-1.19;0.07;0.792024;-0.609024;0.012932;87.0;0.0;0.0;1.0;0.0;0.0
4.0;1753880915.852393;17.21567;0.59;-1.17;-0.04;0.792786;-0.608651;0.011608;87.4;0.0;0.0;1.0;0.0;0.0
4.0;1753880915.858817;17.234375;0.63;-1.19;-0.07;0.791292;-0.609024;0.011224;87.0;0.0;0.0;1.0;0.0;0.0
4.0;1753880915.863425;17.241489;0.6;-1.12;-0.02;0.790396;-0.609609;0.011247;86.6;0.0;0.0;1.0;0.0;0.0
4.0;1753880915.867873;17.25;0.63;-1.05;0.07;0.791048;-0.608292;0.012932;87.0;0.0;0.0;1.0;0.0;0.0
4.0;1753880915.870603;17.25;0.63;-1.19;0.07;0.791292;-0.609878;0.010736;87.0;0.0;0.0;1.0;0.0;0.0
4.0;1753880915.875131;17.25;0.63;-1.19;0.07;0.791536;-0.609146;0.012444;87.0;0.0;0.0;1.0;0.0;0.0
4.0;1753880915.879624;17.25;0.63;-1.12;0.07;0.792024;-0.609024;0.011346;87.0;0.0;0.0;1.0;0.0;0.0
4.0;1753880915.884484;17.199219;0.7;-1.12;0.07;0.790438;-0.609512;0.010614;87.0;0.0;0.0;1.0;0.0;0.0
4.0;1753880915.892909;17.199219;0.63;-1.12;0.21;0.791902;-0.60878;0.011468;87.0;0.0;0.0;1.0;0.0;0.0
4.0;1753880915.893279;17.199219;0.63;-1.19;0.0;0.792146;-0.609512;0.011712;87.0;0.0;0.0;1.0;0.0;0.0
4.0;1753880915.897876;17.199219;0.77;-1.19;-0.07;0.79178;-0.609756;0.010858;87.0;0.0;0.0;1.0;0.0;0.0
4.0;1753880915.902484;17.161348;0.71;-1.15;-0.04;0.790808;-0.609555;0.012519;86.8;0.0;0.0;1.0;0.0;0.0
4.0;1753880915.906752;17.183594;0.63;-1.12;0.07;0.790682;-0.60878;0.012688;87.0;0.0;0.0;1.0;0.0;0.0
4.0;1753880915.906965;17.183594;0.56;-1.12;0.07;0.79117;-0.608658;0.011468;87.0;0.0;0.0;1.0;0.0;0.0
4.0;1753880915.911573;17.227379;0.48;-1.13;0.1;0.789578;-0.60915;0.009845;87.3;0.0;0.0;1.0;0.0;0.0
4.0;1753880915.916128;17.183594;0.7;-1.19;0.14;0.791292;-0.609146;0.010492;87.0;0.0;0.0;1.0;0.0;0.0
4.0;1753880915.920622;17.199219;0.7;-1.12;0.07;0.79117;-0.60939;0.011224;87.0;0.0;0.0;1.0;0.0;0.0
4.0;1753880915.925143;17.199219;0.63;-1.12;0.07;0.791048;-0.609512;0.012078;87.0;0.0;0.0;1.0;0.0;0.0
4.0;1753880915.929694;17.199219;0.56;-1.19;0.07;0.790926;-0.609634;0.01281;87.0;0.0;0.0;1.0;0.0;0.0
4.0;1753880915.934247;17.199219;0.63;-1.19;0.0;0.793244;-0.608902;0.011956;87.0;0.0;0.0;1.0;0.0;0.0
4.0;1753880915.938855;17.183165;0.64;-1.21;0.09;0.793227;-0.608492;0.012677;87.2;0.0;0.0;1.0;0.0;0.0
4.0;1753880915.943327;17.21875;0.56;-1.26;0.14;0.791414;-0.608902;0.011834;87.0;0.0;0.0;1.0;0.0;0.0
4.0;1753880915.947893;17.21875;0.63;-1.19;0.0;0.792756;-0.609146;0.012566;87.0;0.0;0.0;1.0;0.0;0.0
4.0;1753880915.954012;17.21875;0.7;-1.12;-0.07;0.791658;-0.609024;0.011468;87.0;0.0;0.0;1.0;0.0;0.0
4.0;1753880915.956939;17.199219;0.7;-1.12;0.0;0.791658;-0.609024;0.011468;87.0;0.0;0.0;1.0;0.0;0.0
4.0;1753880915.963115;17.199219;0.56;-1.12;0.07;0.792512;-0.609146;0.011346;87.0;0.0;0.0;1.0;0.0;0.0
4.0;1753880915.966134;17.199219;0.7;-1.19;0.07;0.793;-0.609512;0.010858;87.0;0.0;0.0;1.0;0.0;0.0
4.0;1753880915.970654;17.199219;0.63;-1.19;0.0;0.792634;-0.609146;0.011346;87.0;0.0;0.0;1.0;0.0;0.0
4.0;1753880915.975203;17.191406;0.63;-1.12;0.0;0.789828;-0.60939;0.011712;87.0;0.0;0.0;1.0;0.0;0.0
4.0;1753880915.979751;17.191406;0.63;-1.12;0.07;0.792634;-0.608902;0.009516;87.0;0.0;0.0;1.0;0.0;0.0
4.0;1753880915.986043;17.191406;0.63;-1.05;0.07;0.792756;-0.608658;0.011834;87.0;0.0;0.0;1.0;0.0;0.0
4.0;1753880915.99083;17.191406;0.56;-1.05;0.0;0.789828;-0.610122;0.01037;89.0;0.0;0.0;1.0;0.0;0.0
4.0;1753880915.993343;17.21875;0.63;-1.19;0.07;0.789828;-0.610122;0.01037;89.0;0.0;0.0;1.0;0.0;0.0
4.0;1753880915.997958;17.21875;0.63;-1.12;0.07;0.792024;-0.610366;0.01159;89.0;0.0;0.0;1.0;0.0;0.0
4.0;1753880916.002566;17.215227;0.64;-1.12;0.07;0.789811;-0.611255;0.011389;88.7;0.0;0.0;1.0;0.0;0.0
4.0;1753880916.007174;17.220801;0.68;-1.2;0.15;0.792185;-0.610737;0.010796;89.2;0.0;0.0;1.0;0.0;0.0
4.0;1753880916.011782;17.225162;0.6;-1.13;0.15;0.791543;-0.610327;0.01107;88.2;0.0;0.0;1.0;0.0;0.0
4.0;1753880916.01639;17.213595;0.66;-1.19;0.19;0.793091;-0.610725;0.011034;90.5;0.0;0.0;1.0;0.0;0.0
4.0;1753880916.020998;17.221868;0.58;-1.12;0.11;0.790653;-0.609998;0.010684;86.7;0.0;0.0;1.0;0.0;0.0
4.0;1753880916.025607;17.219637;0.61;-1.18;0.08;0.791901;-0.610397;0.011064;89.5;0.0;0.0;1.0;0.0;0.0
4.0;1753880916.030215;17.234925;0.66;-1.03;0.15;0.79237;-0.609959;0.011183;87.6;0.0;0.0;1.0;0.0;0.0
4.0;1753880916.034823;17.223363;0.69;-1.14;0.08;0.791141;-0.610554;0.008831;87.8;0.0;0.0;1.0;0.0;0.0
4.0;1753880916.039431;17.235901;0.6;-1.06;0.13;0.792113;-0.610297;0.009611;89.0;0.0;0.0;1.0;0.0;0.0
4.0;1753880916.044039;17.219712;0.65;-1.12;0.07;0.791745;-0.609871;0.012388;88.4;0.0;0.0;1.0;0.0;0.0
4.0;1753880916.048648;17.215176;0.68;-1.05;-0.01;0.791609;-0.610819;0.012221;88.5;0.0;0.0;1.0;0.0;0.0
4.0;1753880916.053256;17.228618;0.64;-1.13;0.12;0.791472;-0.610638;0.013035;89.2;0.0;0.0;1.0;0.0;0.0
4.0;1753880916.057864;17.191013;0.54;-1.14;0.08;0.792719;-0.609307;0.012512;88.6;0.0;0.0;1.0;0.0;0.0
4.0;1753880916.062472;17.236384;0.57;-1.14;0.09;0.793976;-0.610894;0.013165;89.2;0.0;0.0;1.0;0.0;0.0
4.0;1753880916.06708;17.218076;0.59;-1.12;0.09;0.791321;-0.610229;0.011307;90.0;0.0;0.0;1.0;0.0;0.0
4.0;1753880916.071688;17.231205;0.55;-1.11;0.18;0.790814;-0.609661;0.011671;89.7;0.0;0.0;1.0;0.0;0.0
4.0;1753880916.076296;17.231871;0.56;-1.12;0.07;0.789882;-0.609478;0.010416;88.9;0.0;0.0;1.0;0.0;0.0
4.0;1753880916.080904;17.235243;0.63;-1.16;0.17;0.790088;-0.609254;0.010769;88.5;0.0;0.0;1.0;0.0;0.0
4.0;1753880916.085513;17.23164;0.63;-1.11;0.09;0.791866;-0.609544;0.01234;87.8;0.0;0.0;1.0;0.0;0.0
4.0;1753880916.090121;17.211398;0.65;-1.17;0.12;0.79344;-0.60898;0.01092;88.4;0.0;0.0;1.0;0.0;0.0
4.0;1753880916.094729;17.224303;0.52;-1.17;0.08;0.792017;-0.610006;0.011056;88.9;0.0;0.0;1.0;0.0;0.0
4.0;1753880916.099337;17.240359;0.63;-1.21;0.08;0.793598;-0.610163;0.010816;89.6;0.0;0.0;1.0;0.0;0.0
4.0;1753880916.103945;17.212606;0.57;-1.11;0.06;0.791513;-0.610005;0.010901;89.2;0.0;0.0;1.0;0.0;0.0
4.0;1753880916.108554;17.232466;0.66;-1.14;0.14;0.791686;-0.610124;0.011452;87.3;0.0;0.0;1.0;0.0;0.0
4.0;1753880916.113162;17.220419;0.52;-1.21;0.06;0.791957;-0.609769;0.010733;89.8;0.0;0.0;1.0;0.0;0.0
4.0;1753880916.11777;17.198314;0.49;-1.15;0.17;0.790947;-0.610223;0.011835;89.8;0.0;0.0;1.0;0.0;0.0
4.0;1753880916.122378;17.224414;0.53;-1.11;0.14;0.791759;-0.609303;0.011596;89.0;0.0;0.0;1.0;0.0;0.0
4.0;1753880916.126986;17.236037;0.62;-1.13;0.08;0.790464;-0.611013;0.012482;88.6;0.0;0.0;1.0;0.0;0.0
4.0;1753880916.131594;17.202904;0.59;-1.22;0.05;0.790707;-0.610239;0.011463;88.6;0.0;0.0;1.0;0.0;0.0
4.0;1753880916.136202;17.221886;0.59;-1.1;0.15;0.791997;-0.610152;0.012307;89.7;0.0;0.0;1.0;0.0;0.0
4.0;1753880916.14081;17.219535;0.66;-1.08;0.1;0.79291;-0.609145;0.010373;88.0;0.0;0.0;1.0;0.0;0.0
4.0;1753880916.145419;17.216384;0.63;-1.08;0.06;0.792059;-0.610216;0.011756;87.9;0.0;0.0;1.0;0.0;0.0
4.0;1753880916.150027;17.216454;0.65;-1.1;0.11;0.789629;-0.610086;0.011375;88.8;0.0;0.0;1.0;0.0;0.0
4.0;1753880916.154635;17.224699;0.63;-1.16;0.21;0.79179;-0.609758;0.011046;88.6;0.0;0.0;1.0;0.0;0.0
4.0;1753880916.159243;17.241225;0.63;-1.19;0.12;0.793171;-0.609309;0.011724;88.5;0.0;0.0;1.0;0.0;0.0
4.0;1753880916.163851;17.221427;0.57;-1.14;0.13;0.791539;-0.609114;0.012386;88.3;0.0;0.0;1.0;0.0;0.0
4.0;1753880916.16846;17.241245;0.6;-1.13;0.16;0.79256;-0.609435;0.010992;89.7;0.0;0.0;1.0;0.0;0.0
4.0;1753880916.173068;17.215328;0.56;-1.12;0.1;0.793176;-0.609163;0.011372;88.1;0.0;0.0;1.0;0.0;0.0
4.0;1753880916.177676;17.221896;0.63;-1.2;0.08;0.792373;-0.60891;0.011626;89.1;0.0;0.0;1.0;0.0;0.0
4.0;1753880916.182284;17.197586;0.6;-1.07;0.15;0.791281;-0.609494;0.012205;89.0;0.0;0.0;1.0;0.0;0.0
4.0;1753880916.186892;17.243854;0.56;-1.19;0.14;0.792123;-0.609225;0.011043;89.1;0.0;0.0;1.0;0.0;0.0
4.0;1753880916.1915;17.238798;0.51;-1.1;0.2;0.792375;-0.609526;0.01049;89.1;0.0;0.0;1.0;0.0;0.0
4.0;1753880916.196108;17.24741;0.62;-1.03;0.22;0.790605;-0.609553;0.011049;89.5;0.0;0.0;1.0;0.0;0.0
4.0;1753880916.200716;17.201427;0.59;-1.12;0.11;0.79209;-0.609562;0.01052;89.1;0.0;0.0;1.0;0.0;0.0
4.0;1753880916.205325;17.223326;0.59;-1.14;0.2;0.790579;-0.608971;0.010945;90.2;0.0;0.0;1.0;0.0;0.0
4.0;1753880916.209933;17.224275;0.56;-1.11;0.14;0.790263;-0.610285;0.011224;89.4;0.0;0.0;1.0;0.0;0.0
4.0;1753880916.214541;17.226165;0.69;-1.1;0.2;0.792496;-0.608368;0.011828;89.4;0.0;0.0;1.0;0.0;0.0
4.0;1753880916.219149;17.222957;0.59;-1.17;0.15;0.791556;-0.608949;0.010853;87.6;0.0;0.0;1.0;0.0;0.0
4.0;1753880916.223757;17.225474;0.6;-1.13;0.26;0.790376;-0.609136;0.013153;90.1;0.0;0.0;1.0;0.0;0.0
4.0;1753880916.228366;17.22315;0.6;-1.13;0.15;0.790673;-0.60953;0.010898;90.0;0.0;0.0;1.0;0.0;0.0
4.0;1753880916.232974;17.240577;0.65;-1.13;0.04;0.791058;-0.609738;0.011025;88.7;0.0;0.0;1.0;0.0;0.0
4.0;1753880916.237582;17.208095;0.63;-1.19;0.26;0.790379;-0.608612;0.011697;88.1;0.0;0.0;1.0;0.0;0.0
4.0;1753880916.24219;17.23223;0.6;-1.09;0.21;0.791047;-0.609429;0.011279;89.4;0.0;0.0;1.0;0.0;0.0
4.0;1753880916.246798;17.201556;0.56;-1.14;0.16;0.790603;-0.609669;0.011512;88.9;0.0;0.0;1.0;0.0;0.0
4.0;1753880916.251406;17.223593;0.63;-1.16;0.09;0.790311;-0.609029;0.011164;88.1;0.0;0.0;1.0;0.0;0.0
4.0;1753880916.256014;17.23606;0.53;-1.2;0.19;0.790691;-0.60866;0.010124;87.9;0.0;0.0;1.0;0.0;0.0
4.0;1753880916.260622;17.210695;0.6;-1.16;0.14;0.791211;-0.609413;0.01102;88.2;0.0;0.0;1.0;0.0;0.0
4.0;1753880916.265231;17.196442;0.56;-1.08;0.13;0.791339;-0.609316;0.011479;89.2;0.0;0.0;1.0;0.0;0.0
4.0;1753880916.269839;17.23011;0.47;-1.05;0.22;0.792019;-0.609328;0.010386;88.5;0.0;0.0;1.0;0.0;0.0
4.0;1753880916.274447;17.221812;0.67;-1.12;0.28;0.791739;-0.608755;0.010779;89.0;0.0;0.0;1.0;0.0;0.0
4.0;1753880916.279055;17.216747;0.56;-1.08;0.1;0.791738;-0.609118;0.011113;90.1;0.0;0.0;1.0;0.0;0.0
4.0;1753880916.283663;17.234058;0.62;-1.19;0.06;0.790368;-0.609742;0.01176;89.7;0.0;0.0;1.0;0.0;0.0
4.0;1753880916.2891;17.21875;0.56;-1.12;0.21;0.79117;-0.609146;0.011102;89.0;0.0;0.0;1.0;0.0;0.0
4.0;1753880916.293708;17.21565;0.59;-1.09;0.13;0.789528;-0.60914;0.010089;88.9;0.0;0.0;1.0;0.0;0.0
4.0;1753880916.298316;17.229495;0.52;-1.17;0.27;0.791341;-0.608291;0.011319;88.0;0.0;0.0;1.0;0.0;0.0
4.0;1753880916.302924;17.222443;0.54;-1.09;0.13;0.790797;-0.609505;0.009877;89.9;0.0;0.0;1.0;0.0;0.0
4.0;1753880916.307532;17.216144;0.5;-1.11;0.26;0.791778;-0.609379;0.010737;89.0;0.0;0.0;1.0;0.0;0.0
4.0;1753880916.31214;17.208356;0.51;-0.98;0.28;0.791561;-0.608867;0.011135;88.8;0.0;0.0;1.0;0.0;0.0
4.0;1753880916.316748;17.221141;0.6;-1.13;0.21;0.790888;-0.608249;0.010962;88.5;0.0;0.0;1.0;0.0;0.0
4.0;1753880916.321357;17.213074;0.56;-1.06;0.16;0.790866;-0.608448;0.01217;88.6;0.0;0.0;1.0;0.0;0.0
4.0;1753880916.325965;17.19255;0.61;-1.11;0.19;0.791574;-0.608307;0.010595;90.0;0.0;0.0;1.0;0.0;0.0
4.0;1753880916.330573;17.214562;0.48;-1.09;0.18;0.791165;-0.609013;0.011903;89.9;0.0;0.0;1.0;0.0;0.0
4.0;1753880916.335181;17.222999;0.48;-1.11;0.27;0.791391;-0.609296;0.010581;90.2;0.0;0.0;1.0;0.0;0.0
4.0;1753880916.33979;17.211424;0.53;-1.18;0.25;0.791367;-0.609544;0.01046;90.2;0.0;0.0;1.0;0.0;0.0
4.0;1753880916.344398;17.221144;0.59;-1.12;0.29;0.794138;-0.609502;0.01129;90.5;0.0;0.0;1.0;0.0;0.0
4.0;1753880916.349006;17.215775;0.57;-1.14;0.26;0.79193;-0.608976;0.011086;87.1;0.0;0.0;1.0;0.0;0.0
4.0;1753880916.353614;17.216794;0.6;-1.22;0.19;0.790957;-0.6093;0.011866;88.1;0.0;0.0;1.0;0.0;0.0
4.0;1753880916.358222;17.21043;0.6;-1.12;0.16;0.790813;-0.609785;0.011564;89.5;0.0;0.0;1.0;0.0;0.0
4.0;1753880916.36283;17.229172;0.48;-1.13;0.17;0.791363;-0.609053;0.011593;88.4;0.0;0.0;1.0;0.0;0.0
4.0;1753880916.367438;17.212894;0.6;-1.14;0.19;0.790315;-0.609528;0.011808;88.0;0.0;0.0;1.0;0.0;0.0
4.0;1753880916.372046;17.228504;0.66;-1.1;0.25;0.789531;-0.609078;0.010815;89.9;0.0;0.0;1.0;0.0;0.0
4.0;1753880916.376654;17.258338;0.56;-1.09;0.21;0.790833;-0.609532;0.012229;89.7;0.0;0.0;1.0;0.0;0.0
4.0;1753880916.381263;17.215154;0.58;-1.13;0.28;0.791433;-0.609585;0.010806;89.8;0.0;0.0;1.0;0.0;0.0
4.0;1753880916.385871;17.224094;0.59;-1.12;0.22;0.792258;-0.609187;0.010846;88.5;0.0;0.0;1.0;0.0;0.0
4.0;1753880916.390479;17.22422;0.62;-1.19;0.17;0.791145;-0.609282;0.011363;89.3;0.0;0.0;1.0;0.0;0.0
4.0;1753880916.395087;17.256869;0.56;-1.08;0.16;0.790658;-0.608899;0.011582;89.1;0.0;0.0;1.0;0.0;0.0
4.0;1753880916.399696;17.208147;0.6;-1.12;0.25;0.789571;-0.608304;0.01378;88.8;0.0;0.0;1.0;0.0;0.0
4.0;1753880916.404304;17.22177;0.56;-1.13;0.11;0.787595;-0.609095;0.009214;89.4;0.0;0.0;1.0;0.0;0.0
4.0;1753880916.408912;17.225526;0.5;-1.16;0.03;0.792539;-0.608686;0.009743;89.4;0.0;0.0;1.0;0.0;0.0
4.0;1753880916.41352;17.222254;0.5;-1.12;0.23;0.790034;-0.609353;0.010996;90.1;0.0;0.0;1.0;0.0;0.0
4.0;1753880916.418128;17.221706;0.48;-1.19;0.09;0.792069;-0.609927;0.012363;87.9;0.0;0.0;1.0;0.0;0.0
4.0;1753880916.422736;17.232517;0.61;-1.21;0.24;0.791207;-0.609612;0.011746;88.6;0.0;0.0;1.0;0.0;0.0
4.0;1753880916.427344;17.229853;0.6;-1.2;0.13;0.790345;-0.609338;0.009867;89.2;0.0;0.0;1.0;0.0;0.0
4.0;1753880916.431952;17.217362;0.47;-1.1;0.12;0.790731;-0.60928;0.012446;90.8;0.0;0.0;1.0;0.0;0.0
4.0;1753880916.436561;17.24137;0.5;-1.08;0.15;0.791509;-0.609629;0.011354;89.9;0.0;0.0;1.0;0.0;0.0
4.0;1753880916.441169;17.220746;0.58;-1.09;0.16;0.790177;-0.609242;0.011627;87.9;0.0;0.0;1.0;0.0;0.0
4.0;1753880916.445777;17.22778;0.49;-1.15;0.15;0.793768;-0.60925;0.011346;89.9;0.0;0.0;1.0;0.0;0.0
4.0;1753880916.450385;17.21875;0.57;-1.21;0.09;0.791171;-0.60915;0.011279;89.9;0.0;0.0;1.0;0.0;0.0
4.0;1753880916.454993;17.206224;0.59;-1.17;0.22;0.79206;-0.609315;0.011981;87.5;0.0;0.0;1.0;0.0;0.0
4.0;1753880916.459602;17.209224;0.62;-1.22;0.17;0.792906;-0.609554;0.011015;88.9;0.0;0.0;1.0;0.0;0.0
4.0;1753880916.46421;17.211355;0.58;-1.15;0.29;0.79258;-0.60898;0.010011;88.9;0.0;0.0;1.0;0.0;0.0
4.0;1753880916.468818;17.226959;0.59;-1.15;0.16;0.792442;-0.6092;0.011713;88.5;0.0;0.0;1.0;0.0;0.0
4.0;1753880916.473426;17.212589;0.56;-1.15;0.17;0.793178;-0.609775;0.011934;88.1;0.0;0.0;1.0;0.0;0.0
4.0;1753880916.478034;17.217193;0.61;-1.16;0.16;0.794051;-0.609978;0.010082;89.5;0.0;0.0;1.0;0.0;0.0
4.0;1753880916.482642;17.224373;0.62;-1.21;0.05;0.792689;-0.609103;0.011725;89.7;0.0;0.0;1.0;0.0;0.0
4.0;1753880916.48725;17.220195;0.57;-1.09;0.09;0.789982;-0.609701;0.011771;87.2;0.0;0.0;1.0;0.0;0.0
4.0;1753880916.491858;17.193323;0.64;-1.2;0.17;0.792907;-0.610235;0.010558;90.0;0.0;0.0;1.0;0.0;0.0
4.0;1753880916.496467;17.198926;0.58;-1.22;0.2;0.792113;-0.609478;0.010696;89.1;0.0;0.0;1.0;0.0;0.0
4.0;1753880916.501075;17.20674;0.54;-1.22;0.17;0.792879;-0.609039;0.011434;87.9;0.0;0.0;1.0;0.0;0.0
4.0;1753880916.505683;17.235898;0.65;-1.04;0.2;0.792691;-0.610151;0.011123;88.9;0.0;0.0;1.0;0.0;0.0
4.0;1753880916.510291;17.234522;0.62;-1.24;0.16;0.790971;-0.608697;0.009546;89.4;0.0;0.0;1.0;0.0;0.0
4.0;1753880916.514899;17.21237;0.57;-1.13;0.21;0.792652;-0.609317;0.011442;90.0;0.0;0.0;1.0;0.0;0.0
4.0;1753880916.519508;17.204207;0.62;-1.11;0.22;0.791797;-0.609099;0.013334;87.6;0.0;0.0;1.0;0.0;0.0
4.0;1753880916.524116;17.20664;0.67;-1.17;0.17;0.79122;-0.609129;0.010614;89.2;0.0;0.0;1.0;0.0;0.0
4.0;1753880916.528724;17.218986;0.62;-1.16;0.11;0.793623;-0.610026;0.011434;88.5;0.0;0.0;1.0;0.0;0.0
4.0;1753880916.533332;17.221121;0.51;-1.14;0.16;0.792952;-0.609062;0.009533;90.1;0.0;0.0;1.0;0.0;0.0
4.0;1753880916.53794;17.194041;0.5;-1.24;0.17;0.791268;-0.609793;0.012031;88.4;0.0;0.0;1.0;0.0;0.0
4.0;1753880916.542548;17.21208;0.62;-1.24;0.01;0.792188;-0.609875;0.010991;89.0;0.0;0.0;1.0;0.0;0.0
4.0;1753880916.547156;17.229621;0.64;-1.1;0.16;0.791944;-0.610658;0.010067;88.3;0.0;0.0;1.0;0.0;0.0
4.0;1753880916.551764;17.230096;0.57;-1.15;-0.01;0.790456;-0.61031;0.010955;88.3;0.0;0.0;1.0;0.0;0.0
4.0;1753880916.556373;17.224247;0.6;-1.21;0.09;0.792108;-0.609824;0.010546;88.5;0.0;0.0;1.0;0.0;0.0
4.0;1753880916.560981;17.209752;0.65;-1.14;-0.01;0.792564;-0.609696;0.011883;89.6;0.0;0.0;1.0;0.0;0.0
4.0;1753880916.565589;17.211222;0.62;-1.12;0.08;0.790681;-0.609326;0.012277;88.9;0.0;0.0;1.0;0.0;0.0
4.0;1753880916.570197;17.219779;0.61;-1.24;0.05;0.792062;-0.610667;0.011063;88.0;0.0;0.0;1.0;0.0;0.0
4.0;1753880916.574805;17.212923;0.58;-1.03;0.0;0.791993;-0.610226;0.010167;89.2;0.0;0.0;1.0;0.0;0.0
4.0;1753880916.579414;17.224599;0.65;-1.18;0.08;0.792474;-0.609888;0.01158;88.6;0.0;0.0;1.0;0.0;0.0
4.0;1753880916.584022;17.204838;0.6;-1.14;0.09;0.791484;-0.609287;0.0118;88.7;0.0;0.0;1.0;0.0;0.0
4.0;1753880916.58863;17.218801;0.55;-1.18;0.3;0.792338;-0.608871;0.011524;90.9;0.0;0.0;1.0;0.0;0.0
4.0;1753880916.593238;17.200942;0.61;-1.14;0.03;0.792155;-0.60917;0.011363;89.8;0.0;0.0;1.0;0.0;0.0
4.0;1753880916.597846;17.224739;0.65;-1.23;0.08;0.791874;-0.609934;0.012047;90.3;0.0;0.0;1.0;0.0;0.0
4.0;1753880916.602454;17.22371;0.58;-1.2;0.02;0.791248;-0.608856;0.012048;90.4;0.0;0.0;1.0;0.0;0.0
4.0;1753880916.607062;17.219721;0.62;-1.15;0.05;0.792307;-0.609449;0.012143;88.5;0.0;0.0;1.0;0.0;0.0
4.0;1753880916.61167;17.227258;0.64;-1.26;0.05;0.792959;-0.608827;0.011996;90.0;0.0;0.0;1.0;0.0;0.0
4.0;1753880916.616279;17.213015;0.64;-1.16;0.11;0.789311;-0.609323;0.009696;87.9;0.0;0.0;1.0;0.0;0.0
4.0;1753880916.620887;17.221125;0.71;-1.13;0.11;0.791927;-0.609719;0.012072;90.4;0.0;0.0;1.0;0.0;0.0
4.0;1753880916.625495;17.217191;0.62;-1.22;0.14;0.792859;-0.609902;0.011674;89.1;0.0;0.0;1.0;0.0;0.0
4.0;1753880916.630103;17.234243;0.6;-1.19;0.08;0.790981;-0.609555;0.011156;89.9;0.0;0.0;1.0;0.0;0.0
4.0;1753880916.634711;17.195465;0.67;-1.16;0.11;0.791378;-0.610183;0.011358;87.9;0.0;0.0;1.0;0.0;0.0
4.0;1753880916.63932;17.219442;0.57;-1.2;0.04;0.793476;-0.609126;0.009653;90.7;0.0;0.0;1.0;0.0;0.0
4.0;1753880916.643928;17.216798;0.55;-1.18;0.21;0.793867;-0.60928;0.011082;89.5;0.0;0.0;1.0;0.0;0.0
4.0;1753880916.648536;17.218066;0.62;-1.27;0.15;0.791663;-0.60947;0.009114;88.7;0.0;0.0;1.0;0.0;0.0
4.0;1753880916.653144;17.233916;0.68;-1.05;0.03;0.791753;-0.610028;0.010113;88.3;0.0;0.0;1.0;0.0;0.0
4.0;1753880916.657752;17.229827;0.7;-1.24;0.18;0.792138;-0.609466;0.010807;88.3;0.0;0.0;1.0;0.0;0.0
4.0;1753880916.66236;17.226961;0.67;-1.26;0.08;0.792901;-0.609078;0.012166;91.6;0.0;0.0;1.0;0.0;0.0
4.0;1753880916.666968;17.219446;0.57;-1.2;0.07;0.793797;-0.610382;0.01184;89.5;0.0;0.0;1.0;0.0;0.0
4.0;1753880916.671576;17.224095;0.72;-1.23;-0.01;0.794649;-0.609398;0.011495;88.1;0.0;0.0;1.0;0.0;0.0
4.0;1753880916.676185;17.238548;0.7;-1.22;0.07;0.79286;-0.609689;0.009765;89.0;0.0;0.0;1.0;0.0;0.0
4.0;1753880916.680793;17.222841;0.7;-1.18;0.09;0.792536;-0.609631;0.010423;88.5;0.0;0.0;1.0;0.0;0.0
4.0;1753880916.685401;17.209625;0.61;-1.19;0.12;0.792941;-0.609385;0.010546;90.4;0.0;0.0;1.0;0.0;0.0
4.0;1753880916.690009;17.202962;0.63;-1.18;0.11;0.792654;-0.61001;0.011594;88.8;0.0;0.0;1.0;0.0;0.0
4.0;1753880916.694617;17.200933;0.64;-1.15;0.13;0.793845;-0.610235;0.010129;89.0;0.0;0.0;1.0;0.0;0.0
4.0;1753880916.699226;17.222142;0.61;-1.23;0.04;0.792987;-0.610101;0.011442;88.0;0.0;0.0;1.0;0.0;0.0
4.0;1753880916.7059;17.21875;0.63;-1.19;0.07;0.792756;-0.609878;0.011224;89.0;0.0;0.0;1.0;0.0;0.0
4.0;1753880916.70795;17.191406;0.7;-1.12;0.07;0.789218;-0.60878;0.010858;91.0;0.0;0.0;1.0;0.0;0.0
4.0;1753880916.712558;17.212728;0.64;-1.14;0.05;0.789731;-0.607594;0.011348;91.5;0.0;0.0;1.0;0.0;0.0
4.0;1753880916.717166;17.155999;0.72;-1.07;0.02;0.790105;-0.607977;0.011305;92.1;0.0;0.0;1.0;0.0;0.0
4.0;1753880916.721774;17.194318;0.68;-1.1;0.04;0.789349;-0.608269;0.010374;89.9;0.0;0.0;1.0;0.0;0.0
4.0;1753880916.726383;17.176746;0.67;-1.1;0.01;0.79121;-0.609321;0.01104;90.3;0.0;0.0;1.0;0.0;0.0
4.0;1753880916.730991;17.187441;0.72;-1.15;0.1;0.790179;-0.608924;0.011456;90.3;0.0;0.0;1.0;0.0;0.0
4.0;1753880916.735599;17.188966;0.67;-1.18;-0.04;0.792023;-0.607986;0.011431;90.2;0.0;0.0;1.0;0.0;0.0
4.0;1753880916.740207;17.160445;0.64;-1.11;0.09;0.788899;-0.609839;0.011185;92.0;0.0;0.0;1.0;0.0;0.0
4.0;1753880916.744815;17.237186;0.63;-1.1;0.08;0.791445;-0.607385;0.011257;90.5;0.0;0.0;1.0;0.0;0.0
4.0;1753880916.749424;17.230338;0.68;-1.15;0.02;0.790873;-0.608262;0.01048;91.8;0.0;0.0;1.0;0.0;0.0
4.0;1753880916.75376;17.191406;0.63;-1.12;0.07;0.79117;-0.608048;0.011712;91.0;0.0;0.0;1.0;0.0;0.0
4.0;1753880916.758368;17.191544;0.59;-1.13;-0.06;0.791409;-0.607453;0.011579;91.9;0.0;0.0;1.0;0.0;0.0
4.0;1753880916.762976;17.179609;0.73;-1.15;0.05;0.790049;-0.608125;0.012346;90.8;0.0;0.0;1.0;0.0;0.0
4.0;1753880916.767584;17.169948;0.6;-1.18;0.07;0.791571;-0.60805;0.010929;92.0;0.0;0.0;1.0;0.0;0.0
4.0;1753880916.772192;17.131139;0.64;-1.11;0.05;0.790755;-0.609913;0.0109;90.6;0.0;0.0;1.0;0.0;0.0
4.0;1753880916.776801;17.256228;0.62;-1.16;0.1;0.790871;-0.608239;0.011683;92.1;0.0;0.0;1.0;0.0;0.0
4.0;1753880916.781409;17.185968;0.61;-1.13;0.06;0.792421;-0.609571;0.012319;91.9;0.0;0.0;1.0;0.0;0.0
4.0;1753880916.786017;17.169736;0.6;-1.13;0.09;0.791287;-0.607896;0.012583;91.6;0.0;0.0;1.0;0.0;0.0
4.0;1753880916.790625;17.222933;0.63;-1.22;0.06;0.790528;-0.608404;0.012944;91.3;0.0;0.0;1.0;0.0;0.0
4.0;1753880916.795233;17.196767;0.68;-1.2;0.01;0.790332;-0.6086;0.012601;90.0;0.0;0.0;1.0;0.0;0.0
4.0;1753880916.799842;17.192873;0.59;-1.19;0.02;0.789465;-0.609131;0.01236;90.6;0.0;0.0;1.0;0.0;0.0
4.0;1753880916.80654;17.191406;0.63;-1.19;0.07;0.790926;-0.609146;0.012444;91.0;0.0;0.0;1.0;0.0;0.0
4.0;1753880916.811148;17.185331;0.58;-1.25;-0.01;0.789026;-0.607785;0.012284;92.1;0.0;0.0;1.0;0.0;0.0
4.0;1753880916.815756;17.186278;0.56;-1.16;0.16;0.789913;-0.608959;0.012063;91.2;0.0;0.0;1.0;0.0;0.0
4.0;1753880916.820364;17.1843;0.49;-1.19;0.15;0.790405;-0.609115;0.011015;91.3;0.0;0.0;1.0;0.0;0.0
4.0;1753880916.824973;17.192066;0.63;-1.15;0.11;0.791872;-0.608581;0.013345;89.9;0.0;0.0;1.0;0.0;0.0
4.0;1753880916.829581;17.217569;0.65;-1.17;0.03;0.789594;-0.611264;0.012522;89.9;0.0;0.0;1.0;0.0;0.0
4.0;1753880916.834189;17.194328;0.54;-1.15;0.1;0.790503;-0.609525;0.010875;92.0;0.0;0.0;1.0;0.0;0.0
4.0;1753880916.838797;17.169914;0.57;-1.12;0.17;0.79022;-0.610237;0.011182;92.6;0.0;0.0;1.0;0.0;0.0
4.0;1753880916.84475;17.191406;0.56;-1.12;0.14;0.78995;-0.610732;0.010492;91.0;0.0;0.0;1.0;0.0;0.0
4.0;1753880916.849358;17.164495;0.56;-1.13;0.16;0.790897;-0.610604;0.010483;90.1;0.0;0.0;1.0;0.0;0.0
4.0;1753880916.853966;17.166092;0.67;-1.08;0.16;0.789832;-0.60994;0.010931;91.1;0.0;0.0;1.0;0.0;0.0
4.0;1753880916.858574;17.187939;0.62;-1.12;0.26;0.78877;-0.607835;0.012613;90.7;0.0;0.0;1.0;0.0;0.0
4.0;1753880916.863182;17.194061;0.59;-1.15;0.1;0.791218;-0.609929;0.010702;93.0;0.0;0.0;1.0;0.0;0.0
4.0;1753880916.867791;17.186288;0.61;-1.04;0.1;0.790747;-0.607093;0.012213;90.0;0.0;0.0;1.0;0.0;0.0
4.0;1753880916.872399;17.216411;0.53;-1.1;0.09;0.789016;-0.609112;0.011511;90.1;0.0;0.0;1.0;0.0;0.0
4.0;1753880916.877007;17.218793;0.72;-1.08;-0.0;0.790234;-0.607811;0.012315;89.2;0.0;0.0;1.0;0.0;0.0
4.0;1753880916.881615;17.19438;0.58;-1.09;-0.0;0.790357;-0.608649;0.01089;88.0;0.0;0.0;1.0;0.0;0.0
4.0;1753880916.886223;17.185751;0.66;-1.1;0.14;0.790505;-0.608176;0.01143;89.2;0.0;0.0;1.0;0.0;0.0
4.0;1753880916.89278;17.191406;0.63;-1.12;0.07;0.792024;-0.607804;0.01159;89.0;0.0;0.0;1.0;0.0;0.0
4.0;1753880916.897388;17.237787;0.7;-1.11;0.08;0.79204;-0.608577;0.01129;88.5;0.0;0.0;1.0;0.0;0.0
4.0;1753880916.901996;17.179273;0.7;-1.22;0.13;0.792682;-0.609188;0.012759;89.0;0.0;0.0;1.0;0.0;0.0
4.0;1753880916.906604;17.204803;0.59;-1.16;0.15;0.790172;-0.608828;0.012471;89.3;0.0;0.0;1.0;0.0;0.0
4.0;1753880916.911212;17.225509;0.59;-1.16;0.13;0.790584;-0.60845;0.013475;88.3;0.0;0.0;1.0;0.0;0.0
4.0;1753880916.91582;17.166732;0.6;-1.16;0.12;0.791694;-0.608862;0.012891;88.6;0.0;0.0;1.0;0.0;0.0
4.0;1753880916.920429;17.187809;0.6;-1.18;0.04;0.791205;-0.610624;0.012925;90.8;0.0;0.0;1.0;0.0;0.0
4.0;1753880916.925037;17.181724;0.63;-1.18;0.05;0.789651;-0.610216;0.012833;88.5;0.0;0.0;1.0;0.0;0.0
4.0;1753880916.929645;17.178443;0.61;-1.13;0.22;0.790141;-0.609412;0.0127;91.5;0.0;0.0;1.0;0.0;0.0
4.0;1753880916.93534;17.191406;0.63;-1.19;0.14;0.790194;-0.610244;0.013054;89.0;0.0;0.0;1.0;0.0;0.0
4.0;1753880916.935553;17.144531;0.7;-1.12;0.07;0.794342;-0.608902;0.012566;87.0;0.0;0.0;1.0;0.0;0.0
4.0;1753880916.940437;17.167969;0.63;-1.19;0.07;0.790682;-0.610732;0.01159;87.0;0.0;0.0;1.0;0.0;0.0
4.0;1753880916.945797;17.167969;0.63;-1.19;0.07;0.791902;-0.608902;0.011224;87.0;0.0;0.0;1.0;0.0;0.0
4.0;1753880916.949195;17.167969;0.63;-1.12;0.07;0.792756;-0.609024;0.01159;87.0;0.0;0.0;1.0;0.0;0.0
4.0;1753880916.954749;17.167969;0.7;-1.12;0.07;0.790438;-0.610366;0.011834;87.0;0.0;0.0;1.0;0.0;0.0
4.0;1753880916.958305;17.152344;0.56;-1.12;0.14;0.793;-0.60878;0.01159;87.0;0.0;0.0;1.0;0.0;0.0
4.0;1753880916.964129;17.152344;0.63;-1.12;0.07;0.791902;-0.607926;0.011834;87.0;0.0;0.0;1.0;0.0;0.0
4.0;1753880916.967857;17.152344;0.7;-1.26;0.07;0.790194;-0.60939;0.012322;87.0;0.0;0.0;1.0;0.0;0.0
4.0;1753880916.972465;17.146659;0.72;-1.22;0.11;0.792937;-0.608962;0.011435;87.6;0.0;0.0;1.0;0.0;0.0
4.0;1753880916.977073;17.116595;0.55;-1.2;-0.07;0.794575;-0.610907;0.010797;86.8;0.0;0.0;1.0;0.0;0.0
4.0;1753880916.982897;17.136719;0.63;-1.12;0.0;0.792878;-0.610122;0.01037;87.0;0.0;0.0;1.0;0.0;0.0
4.0;1753880916.985599;17.136719;0.56;-1.12;0.07;0.790682;-0.609512;0.010614;87.0;0.0;0.0;1.0;0.0;0.0
4.0;1753880916.990207;17.152018;0.52;-1.19;0.08;0.791703;-0.607994;0.010691;87.2;0.0;0.0;1.0;0.0;0.0
4.0;1753880916.996031;17.179688;0.56;-1.19;0.07;0.792512;-0.608658;0.011102;87.0;0.0;0.0;1.0;0.0;0.0
4.0;1753880916.999402;17.179688;0.63;-1.12;0.07;0.792512;-0.608658;0.011102;87.0;0.0;0.0;1.0;0.0;0.0
4.0;1753880917.00401;17.199388;0.67;-1.14;0.05;0.792484;-0.610312;0.011133;86.7;0.0;0.0;1.0;0.0;0.0
4.0;1753880917.008618;17.181132;0.54;-1.11;-0.01;0.792492;-0.608461;0.010139;87.4;0.0;0.0;1.0;0.0;0.0
4.0;1753880917.013226;17.174391;0.56;-1.16;0.06;0.793111;-0.608984;0.011779;86.2;0.0;0.0;1.0;0.0;0.0
4.0;1753880917.017835;17.192936;0.62;-1.17;0.06;0.792244;-0.607832;0.010927;87.4;0.0;0.0;1.0;0.0;0.0
4.0;1753880917.022443;17.192535;0.68;-1.04;0.08;0.79306;-0.609591;0.011192;86.8;0.0;0.0;1.0;0.0;0.0
4.0;1753880917.027051;17.168313;0.64;-1.12;0.01;0.791472;-0.608406;0.010807;87.5;0.0;0.0;1.0;0.0;0.0
4.0;1753880917.031659;17.184925;0.68;-1.13;-0.03;0.793169;-0.608905;0.011666;87.1;0.0;0.0;1.0;0.0;0.0
4.0;1753880917.036267;17.174912;0.6;-1.07;0.07;0.79253;-0.611656;0.010182;86.4;0.0;0.0;1.0;0.0;0.0
4.0;1753880917.040876;17.178231;0.64;-1.12;0.1;0.790952;-0.608243;0.012415;86.5;0.0;0.0;1.0;0.0;0.0
4.0;1753880917.045484;17.161172;0.54;-1.17;0.12;0.794081;-0.610672;0.011351;86.6;0.0;0.0;1.0;0.0;0.0
4.0;1753880917.050092;17.181089;0.62;-1.11;0.02;0.792641;-0.607501;0.010462;87.3;0.0;0.0;1.0;0.0;0.0
4.0;1753880917.0547;17.18982;0.71;-1.07;0.05;0.79184;-0.609;0.010103;86.7;0.0;0.0;1.0;0.0;0.0
4.0;1753880917.059308;17.187115;0.64;-1.19;0.11;0.790929;-0.608458;0.0114;87.1;0.0;0.0;1.0;0.0;0.0
4.0;1753880917.063916;17.195912;0.52;-1.18;0.12;0.794179;-0.609637;0.012362;87.1;0.0;0.0;1.0;0.0;0.0
4.0;1753880917.068524;17.170966;0.69;-1.18;0.06;0.792402;-0.609582;0.011385;86.9;0.0;0.0;1.0;0.0;0.0
4.0;1753880917.073132;17.200178;0.62;-1.04;0.08;0.79432;-0.609305;0.011851;87.2;0.0;0.0;1.0;0.0;0.0
4.0;1753880917.077741;17.135277;0.7;-1.16;0.02;0.793896;-0.608524;0.010167;87.3;0.0;0.0;1.0;0.0;0.0
4.0;1753880917.082349;17.170145;0.59;-1.16;0.05;0.791215;-0.607968;0.010993;88.0;0.0;0.0;1.0;0.0;0.0
4.0;1753880917.086957;17.20537;0.62;-1.06;0.05;0.792822;-0.60907;0.011283;87.0;0.0;0.0;1.0;0.0;0.0
4.0;1753880917.091565;17.18719;0.61;-1.1;0.01;0.791443;-0.61016;0.011896;86.9;0.0;0.0;1.0;0.0;0.0
4.0;1753880917.096173;17.188787;0.63;-1.15;0.08;0.79299;-0.609265;0.010616;87.0;0.0;0.0;1.0;0.0;0.0
4.0;1753880917.100782;17.180437;0.64;-1.23;0.08;0.791653;-0.608127;0.011823;86.5;0.0;0.0;1.0;0.0;0.0
4.0;1753880917.10539;17.198613;0.61;-1.1;0.14;0.79273;-0.609575;0.010911;87.1;0.0;0.0;1.0;0.0;0.0
4.0;1753880917.109998;17.164891;0.55;-1.22;0.02;0.79271;-0.609073;0.009868;87.1;0.0;0.0;1.0;0.0;0.0
4.0;1753880917.114606;17.175578;0.67;-1.02;0.09;0.790896;-0.609739;0.009904;86.7;0.0;0.0;1.0;0.0;0.0
4.0;1753880917.119214;17.21117;0.65;-1.13;0.17;0.791405;-0.610684;0.010274;86.2;0.0;0.0;1.0;0.0;0.0
4.0;1753880917.123822;17.184745;0.52;-1.03;0.08;0.790701;-0.607324;0.013528;88.0;0.0;0.0;1.0;0.0;0.0
4.0;1753880917.12843;17.187631;0.66;-1.02;0.06;0.790655;-0.610541;0.011417;86.6;0.0;0.0;1.0;0.0;0.0
4.0;1753880917.133038;17.173733;0.62;-1.07;0.09;0.792669;-0.609071;0.012038;87.5;0.0;0.0;1.0;0.0;0.0
4.0;1753880917.137647;17.198045;0.57;-1.09;0.03;0.790756;-0.610502;0.009632;87.6;0.0;0.0;1.0;0.0;0.0
4.0;1753880917.142255;17.171699;0.55;-1.25;0.08;0.792602;-0.609427;0.011197;87.4;0.0;0.0;1.0;0.0;0.0
4.0;1753880917.146863;17.174202;0.7;-1.17;0.04;0.791749;-0.609281;0.009983;86.9;0.0;0.0;1.0;0.0;0.0
4.0;1753880917.151471;17.190233;0.63;-1.14;0.07;0.792858;-0.609035;0.012273;87.6;0.0;0.0;1.0;0.0;0.0
4.0;1753880917.156079;17.172485;0.63;-1.15;0.13;0.790995;-0.609677;0.010415;86.8;0.0;0.0;1.0;0.0;0.0
4.0;1753880917.160688;17.177136;0.6;-1.14;0.11;0.792027;-0.609018;0.010455;87.5;0.0;0.0;1.0;0.0;0.0
4.0;1753880917.165296;17.186986;0.61;-1.2;0.06;0.793075;-0.610213;0.01063;86.8;0.0;0.0;1.0;0.0;0.0
4.0;1753880917.169904;17.19994;0.7;-1.11;0.01;0.792581;-0.611106;0.009266;86.3;0.0;0.0;1.0;0.0;0.0
4.0;1753880917.174512;17.175936;0.73;-1.09;0.05;0.791121;-0.61003;0.011597;87.7;0.0;0.0;1.0;0.0;0.0
4.0;1753880917.17912;17.16388;0.6;-1.22;0.05;0.791627;-0.607999;0.01094;87.0;0.0;0.0;1.0;0.0;0.0
4.0;1753880917.183728;17.175038;0.65;-1.15;0.11;0.792339;-0.610823;0.011039;87.1;0.0;0.0;1.0;0.0;0.0
4.0;1753880917.188336;17.201511;0.72;-1.2;0.04;0.791815;-0.611341;0.011659;86.3;0.0;0.0;1.0;0.0;0.0
4.0;1753880917.192944;17.179707;0.7;-1.08;0.1;0.792523;-0.611296;0.009818;87.4;0.0;0.0;1.0;0.0;0.0
4.0;1753880917.197553;17.181462;0.56;-1.1;0.06;0.790084;-0.608893;0.011495;86.3;0.0;0.0;1.0;0.0;0.0
4.0;1753880917.202161;17.185387;0.54;-1.21;-0.01;0.791783;-0.609814;0.012417;87.6;0.0;0.0;1.0;0.0;0.0
4.0;1753880917.206769;17.172755;0.59;-1.18;0.08;0.793571;-0.609678;0.010897;86.9;0.0;0.0;1.0;0.0;0.0
4.0;1753880917.211377;17.175849;0.69;-1.02;0.0;0.791291;-0.608211;0.010997;86.7;0.0;0.0;1.0;0.0;0.0
4.0;1753880917.215985;17.175579;0.6;-1.27;0.02;0.79066;-0.609565;0.011543;87.2;0.0;0.0;1.0;0.0;0.0
4.0;1753880917.220594;17.171089;0.62;-1.23;0.04;0.791144;-0.608755;0.009856;86.1;0.0;0.0;1.0;0.0;0.0
4.0;1753880917.225202;17.15683;0.67;-1.14;0.13;0.79126;-0.610481;0.010012;87.1;0.0;0.0;1.0;0.0;0.0
4.0;1753880917.22981;17.192552;0.66;-1.19;0.04;0.791857;-0.609181;0.011629;86.4;0.0;0.0;1.0;0.0;0.0
4.0;1753880917.234418;17.177567;0.7;-1.22;0.04;0.792447;-0.610404;0.011412;86.7;0.0;0.0;1.0;0.0;0.0
4.0;1753880917.239026;17.189128;0.69;-1.21;0.14;0.790907;-0.609997;0.010261;87.1;0.0;0.0;1.0;0.0;0.0
4.0;1753880917.243634;17.174533;0.6;-1.17;0.04;0.79427;-0.609996;0.010311;88.2;0.0;0.0;1.0;0.0;0.0
4.0;1753880917.248242;17.181371;0.57;-1.09;-0.01;0.79169;-0.610386;0.011819;87.3;0.0;0.0;1.0;0.0;0.0
4.0;1753880917.25285;17.177719;0.67;-1.26;0.03;0.792045;-0.609538;0.0108;86.8;0.0;0.0;1.0;0.0;0.0
4.0;1753880917.257459;17.187705;0.61;-1.19;0.05;0.791383;-0.609928;0.011055;86.8;0.0;0.0;1.0;0.0;0.0
4.0;1753880917.262067;17.195872;0.61;-1.13;0.09;0.790584;-0.610479;0.011179;86.7;0.0;0.0;1.0;0.0;0.0
4.0;1753880917.266675;17.163453;0.68;-1.05;0.06;0.792117;-0.609655;0.010419;87.3;0.0;0.0;1.0;0.0;0.0
4.0;1753880917.271283;17.196248;0.62;-1.25;0.07;0.792609;-0.611283;0.008584;86.7;0.0;0.0;1.0;0.0;0.0
4.0;1753880917.275891;17.179908;0.65;-1.19;0.13;0.79202;-0.611846;0.010284;87.6;0.0;0.0;1.0;0.0;0.0
4.0;1753880917.2805;17.16508;0.59;-1.17;0.08;0.79061;-0.611004;0.010877;87.0;0.0;0.0;1.0;0.0;0.0
4.0;1753880917.285108;17.172214;0.62;-1.18;0.08;0.790574;-0.608295;0.0101;86.2;0.0;0.0;1.0;0.0;0.0
4.0;1753880917.289716;17.203304;0.65;-1.1;0.12;0.790233;-0.611587;0.011658;87.0;0.0;0.0;1.0;0.0;0.0
4.0;1753880917.294324;17.204936;0.66;-1.16;0.05;0.792257;-0.609883;0.011391;86.7;0.0;0.0;1.0;0.0;0.0
4.0;1753880917.298932;17.171988;0.67;-1.12;-0.03;0.79127;-0.607058;0.011495;87.1;0.0;0.0;1.0;0.0;0.0
4.0;1753880917.30354;17.177271;0.67;-1.18;0.07;0.791987;-0.612127;0.010085;87.0;0.0;0.0;1.0;0.0;0.0
4.0;1753880917.308148;17.181896;0.56;-1.16;0.08;0.793799;-0.610387;0.012607;86.6;0.0;0.0;1.0;0.0;0.0
4.0;1753880917.312756;17.168198;0.55;-1.19;0.09;0.790891;-0.609784;0.011422;86.8;0.0;0.0;1.0;0.0;0.0
4.0;1753880917.317365;17.190704;0.69;-1.21;0.14;0.791734;-0.610098;0.011553;87.1;0.0;0.0;1.0;0.0;0.0
4.0;1753880917.321973;17.160869;0.68;-1.2;0.04;0.793365;-0.610554;0.010294;86.3;0.0;0.0;1.0;0.0;0.0
4.0;1753880917.326581;17.170476;0.68;-1.13;0.08;0.790959;-0.611036;0.010922;87.0;0.0;0.0;1.0;0.0;0.0
4.0;1753880917.331189;17.175595;0.67;-1.37;0.1;0.792539;-0.611035;0.009645;87.3;0.0;0.0;1.0;0.0;0.0
4.0;1753880917.335797;17.162919;0.57;-1.19;0.02;0.790359;-0.609619;0.011278;88.0;0.0;0.0;1.0;0.0;0.0
4.0;1753880917.340406;17.165362;0.57;-1.23;0.08;0.791315;-0.610111;0.009996;86.7;0.0;0.0;1.0;0.0;0.0
4.0;1753880917.345014;17.164;0.63;-1.12;0.07;0.791886;-0.610479;0.010802;87.0;0.0;0.0;1.0;0.0;0.0
4.0;1753880917.349622;17.148347;0.64;-1.15;0.1;0.790939;-0.610472;0.011434;86.7;0.0;0.0;1.0;0.0;0.0
4.0;1753880917.35423;17.164313;0.62;-1.15;0.03;0.79418;-0.609796;0.010481;86.6;0.0;0.0;1.0;0.0;0.0
4.0;1753880917.358838;17.174467;0.65;-1.17;0.03;0.792358;-0.609311;0.011427;86.3;0.0;0.0;1.0;0.0;0.0
4.0;1753880917.363446;17.188308;0.63;-1.12;0.13;0.790667;-0.609469;0.011032;86.1;0.0;0.0;1.0;0.0;0.0
4.0;1753880917.368054;17.182253;0.67;-1.21;0.02;0.793592;-0.608096;0.010969;86.8;0.0;0.0;1.0;0.0;0.0
4.0;1753880917.372662;17.201869;0.59;-1.26;0.13;0.791699;-0.608402;0.010167;86.9;0.0;0.0;1.0;0.0;0.0
4.0;1753880917.377271;17.171024;0.64;-1.12;0.12;0.789694;-0.610148;0.010003;86.6;0.0;0.0;1.0;0.0;0.0
4.0;1753880917.381879;17.183118;0.55;-1.19;-0.0;0.791824;-0.611006;0.01032;87.5;0.0;0.0;1.0;0.0;0.0
4.0;1753880917.386487;17.16752;0.62;-1.2;0.01;0.792673;-0.610153;0.010459;87.0;0.0;0.0;1.0;0.0;0.0
4.0;1753880917.391095;17.158636;0.58;-1.3;0.04;0.790612;-0.60808;0.010892;86.0;0.0;0.0;1.0;0.0;0.0
4.0;1753880917.395703;17.184906;0.57;-1.18;0.02;0.790575;-0.61029;0.010097;87.4;0.0;0.0;1.0;0.0;0.0
4.0;1753880917.400312;17.167524;0.6;-1.21;0.06;0.790012;-0.610942;0.010778;87.5;0.0;0.0;1.0;0.0;0.0
4.0;1753880917.4066;17.179688;0.63;-1.19;0.07;0.791536;-0.610488;0.010736;87.0;0.0;0.0;1.0;0.0;0.0
4.0;1753880917.411208;17.178109;0.66;-1.19;0.01;0.78982;-0.609907;0.010393;87.6;0.0;0.0;1.0;0.0;0.0
4.0;1753880917.415816;17.176905;0.64;-1.2;0.1;0.790262;-0.610666;0.009223;87.5;0.0;0.0;1.0;0.0;0.0
4.0;1753880917.420424;17.175747;0.61;-1.19;0.08;0.791579;-0.610063;0.010174;86.8;0.0;0.0;1.0;0.0;0.0
4.0;1753880917.425032;17.164073;0.68;-1.2;0.06;0.792556;-0.611271;0.01037;87.2;0.0;0.0;1.0;0.0;0.0
4.0;1753880917.429641;17.168433;0.68;-1.19;0.11;0.791215;-0.611676;0.01154;86.1;0.0;0.0;1.0;0.0;0.0
4.0;1753880917.434249;17.18733;0.62;-1.22;0.09;0.793754;-0.609828;0.009767;87.5;0.0;0.0;1.0;0.0;0.0
4.0;1753880917.438857;17.159831;0.58;-1.18;0.09;0.792032;-0.610086;0.011233;87.0;0.0;0.0;1.0;0.0;0.0
4.0;1753880917.443465;17.171412;0.64;-1.19;0.07;0.790239;-0.61061;0.010614;86.6;0.0;0.0;1.0;0.0;0.0
4.0;1753880917.448074;17.205323;0.64;-1.13;0.01;0.790475;-0.610494;0.010882;86.9;0.0;0.0;1.0;0.0;0.0
4.0;1753880917.452682;17.193325;0.61;-1.16;0.11;0.789727;-0.610854;0.009466;87.8;0.0;0.0;1.0;0.0;0.0
4.0;1753880917.45729;17.169374;0.61;-1.11;0.15;0.792511;-0.610192;0.010858;86.5;0.0;0.0;1.0;0.0;0.0
4.0;1753880917.461898;17.177325;0.67;-1.24;-0.01;0.790502;-0.609957;0.009996;87.2;0.0;0.0;1.0;0.0;0.0
4.0;1753880917.466506;17.176523;0.66;-1.12;0.03;0.792104;-0.610145;0.011932;86.7;0.0;0.0;1.0;0.0;0.0
4.0;1753880917.471114;17.199071;0.72;-1.24;0.07;0.79115;-0.610157;0.011432;86.3;0.0;0.0;1.0;0.0;0.0
4.0;1753880917.475722;17.178984;0.7;-1.14;0.05;0.793125;-0.610397;0.009372;86.7;0.0;0.0;1.0;0.0;0.0
4.0;1753880917.48033;17.175184;0.7;-1.16;0.06;0.791965;-0.611566;0.01062;87.1;0.0;0.0;1.0;0.0;0.0
4.0;1753880917.484938;17.189534;0.68;-1.19;0.11;0.790286;-0.610284;0.011321;86.8;0.0;0.0;1.0;0.0;0.0
4.0;1753880917.489547;17.177459;0.57;-1.19;0.04;0.791811;-0.60977;0.011531;86.5;0.0;0.0;1.0;0.0;0.0
4.0;1753880917.494155;17.194394;0.63;-1.15;0.01;0.792054;-0.610448;0.011774;87.4;0.0;0.0;1.0;0.0;0.0
4.0;1753880917.498763;17.190586;0.6;-1.23;0.03;0.792103;-0.610045;0.010714;86.4;0.0;0.0;1.0;0.0;0.0
4.0;1753880917.503371;17.202705;0.6;-1.2;0.09;0.792262;-0.610022;0.009866;87.3;0.0;0.0;1.0;0.0;0.0
4.0;1753880917.50798;17.163056;0.62;-1.13;0.06;0.792661;-0.608518;0.011061;86.6;0.0;0.0;1.0;0.0;0.0
4.0;1753880917.512588;17.183851;0.61;-1.15;0.06;0.792992;-0.609341;0.010926;86.3;0.0;0.0;1.0;0.0;0.0
4.0;1753880917.517196;17.176152;0.53;-1.2;0.09;0.790376;-0.609854;0.01035;86.9;0.0;0.0;1.0;0.0;0.0
4.0;1753880917.521804;17.172119;0.67;-1.02;0.03;0.789418;-0.609889;0.009902;87.1;0.0;0.0;1.0;0.0;0.0
4.0;1753880917.526412;17.172985;0.69;-1.1;-0.0;0.791332;-0.608983;0.011822;86.4;0.0;0.0;1.0;0.0;0.0
4.0;1753880917.53102;17.178898;0.57;-1.15;0.05;0.792842;-0.609528;0.010476;87.7;0.0;0.0;1.0;0.0;0.0
4.0;1753880917.535628;17.187303;0.68;-1.17;0.05;0.793255;-0.609436;0.010681;87.0;0.0;0.0;1.0;0.0;0.0
4.0;1753880917.540236;17.21292;0.57;-1.13;0.12;0.792693;-0.609242;0.011998;87.2;0.0;0.0;1.0;0.0;0.0
4.0;1753880917.544845;17.201847;0.68;-1.16;0.03;0.791702;-0.608902;0.010304;87.6;0.0;0.0;1.0;0.0;0.0
4.0;1753880917.549453;17.171147;0.62;-1.18;0.04;0.793257;-0.610492;0.010161;87.4;0.0;0.0;1.0;0.0;0.0
4.0;1753880917.554061;17.172868;0.72;-1.1;-0.01;0.792537;-0.608625;0.011625;87.6;0.0;0.0;1.0;0.0;0.0
4.0;1753880917.558669;17.182223;0.61;-1.14;0.08;0.793238;-0.609552;0.011741;87.4;0.0;0.0;1.0;0.0;0.0
4.0;1753880917.563277;17.155149;0.68;-1.13;0.14;0.792549;-0.610278;0.011368;86.9;0.0;0.0;1.0;0.0;0.0
4.0;1753880917.567886;17.180237;0.58;-1.12;0.05;0.791508;-0.609365;0.011558;86.8;0.0;0.0;1.0;0.0;0.0
4.0;1753880917.572494;17.169765;0.53;-1.16;-0.01;0.788907;-0.609152;0.01168;86.9;0.0;0.0;1.0;0.0;0.0
4.0;1753880917.577102;17.177876;0.56;-1.13;0.06;0.792773;-0.609058;0.009675;87.6;0.0;0.0;1.0;0.0;0.0
4.0;1753880917.58171;17.169091;0.61;-1.14;-0.02;0.790933;-0.609561;0.009853;86.9;0.0;0.0;1.0;0.0;0.0
4.0;1753880917.586318;17.182833;0.62;-1.14;0.1;0.793931;-0.611523;0.010338;87.0;0.0;0.0;1.0;0.0;0.0
4.0;1753880917.590926;17.196925;0.64;-1.12;-0.04;0.791311;-0.609178;0.010654;88.1;0.0;0.0;1.0;0.0;0.0
4.0;1753880917.595534;17.194532;0.59;-1.15;0.09;0.790893;-0.609781;0.011628;87.1;0.0;0.0;1.0;0.0;0.0
4.0;1753880917.600142;17.198118;0.62;-1.13;-0.04;0.792689;-0.609938;0.011622;85.9;0.0;0.0;1.0;0.0;0.0
4.0;1753880917.604751;17.184569;0.68;-1.1;0.05;0.791824;-0.610183;0.010741;87.1;0.0;0.0;1.0;0.0;0.0
4.0;1753880917.609359;17.173028;0.57;-1.09;0.04;0.792516;-0.610231;0.010634;87.7;0.0;0.0;1.0;0.0;0.0
4.0;1753880917.613967;17.179335;0.65;-1.15;0.07;0.792269;-0.610931;0.010935;86.5;0.0;0.0;1.0;0.0;0.0
4.0;1753880917.618575;17.215142;0.63;-1.04;0.11;0.791433;-0.609606;0.010702;87.2;0.0;0.0;1.0;0.0;0.0
4.0;1753880917.623183;17.17929;0.62;-1.1;0.04;0.794586;-0.609154;0.010256;86.7;0.0;0.0;1.0;0.0;0.0
4.0;1753880917.627792;17.206742;0.56;-1.13;0.02;0.790327;-0.610229;0.01017;87.0;0.0;0.0;1.0;0.0;0.0
4.0;1753880917.6324;17.20025;0.68;-1.1;0.01;0.795929;-0.611135;0.010881;87.6;0.0;0.0;1.0;0.0;0.0
4.0;1753880917.637008;17.169963;0.57;-1.17;0.07;0.794576;-0.611402;0.01023;87.0;0.0;0.0;1.0;0.0;0.0
4.0;1753880917.641616;17.157316;0.59;-1.07;0.01;0.79304;-0.609726;0.01023;86.8;0.0;0.0;1.0;0.0;0.0
4.0;1753880917.646224;17.177842;0.68;-1.11;0.07;0.791275;-0.609994;0.011694;86.5;0.0;0.0;1.0;0.0;0.0
4.0;1753880917.650832;17.190223;0.64;-1.12;-0.06;0.791166;-0.609256;0.011139;86.5;0.0;0.0;1.0;0.0;0.0
4.0;1753880917.65544;17.18343;0.64;-1.14;-0.01;0.793341;-0.610754;0.011805;86.4;0.0;0.0;1.0;0.0;0.0
4.0;1753880917.660048;17.181127;0.72;-1.2;0.12;0.794425;-0.610055;0.010469;86.5;0.0;0.0;1.0;0.0;0.0
4.0;1753880917.664657;17.154233;0.65;-1.16;-0.02;0.794447;-0.609782;0.010634;86.9;0.0;0.0;1.0;0.0;0.0
4.0;1753880917.669265;17.190034;0.72;-1.17;0.05;0.792773;-0.609463;0.011289;86.2;0.0;0.0;1.0;0.0;0.0
4.0;1753880917.673873;17.217732;0.55;-1.1;0.05;0.793146;-0.609296;0.011303;86.5;0.0;0.0;1.0;0.0;0.0
4.0;1753880917.678481;17.181871;0.62;-1.06;-0.03;0.791064;-0.609365;0.011342;86.4;0.0;0.0;1.0;0.0;0.0
4.0;1753880917.683089;17.174059;0.58;-1.13;0.05;0.791973;-0.609273;0.010842;86.9;0.0;0.0;1.0;0.0;0.0
4.0;1753880917.687698;17.176881;0.65;-1.02;0.04;0.790595;-0.611637;0.010754;87.5;0.0;0.0;1.0;0.0;0.0
4.0;1753880917.692306;17.170006;0.66;-1.14;0.02;0.790692;-0.607863;0.011572;87.1;0.0;0.0;1.0;0.0;0.0
4.0;1753880917.696914;17.163639;0.69;-1.08;-0.01;0.792563;-0.607687;0.009964;86.5;0.0;0.0;1.0;0.0;0.0
4.0;1753880917.701522;17.200148;0.71;-1.12;0.06;0.792729;-0.607764;0.01186;86.8;0.0;0.0;1.0;0.0;0.0
4.0;1753880917.70613;17.181212;0.65;-1.1;-0.0;0.793643;-0.60692;0.010764;86.9;0.0;0.0;1.0;0.0;0.0
4.0;1753880917.710738;17.158154;0.64;-1.14;0.04;0.793129;-0.609846;0.010866;87.2;0.0;0.0;1.0;0.0;0.0
4.0;1753880917.715346;17.159793;0.6;-1.03;-0.01;0.796522;-0.608371;0.012376;86.0;0.0;0.0;1.0;0.0;0.0
4.0;1753880917.719954;17.176339;0.73;-1.06;0.05;0.793162;-0.608906;0.010143;87.0;0.0;0.0;1.0;0.0;0.0
4.0;1753880917.724563;17.188726;0.62;-1.11;-0.08;0.792737;-0.609062;0.010311;86.9;0.0;0.0;1.0;0.0;0.0
4.0;1753880917.729171;17.204016;0.59;-1.13;-0.01;0.79436;-0.609335;0.01181;87.1;0.0;0.0;1.0;0.0;0.0
4.0;1753880917.733779;17.161718;0.65;-1.11;0.06;0.79191;-0.608773;0.011156;87.5;0.0;0.0;1.0;0.0;0.0
4.0;1753880917.738387;17.173101;0.63;-1.1;-0.01;0.79364;-0.608817;0.01209;86.6;0.0;0.0;1.0;0.0;0.0
4.0;1753880917.742995;17.183248;0.69;-1.07;0.0;0.793962;-0.609603;0.009932;87.3;0.0;0.0;1.0;0.0;0.0
4.0;1753880917.747604;17.192503;0.59;-1.12;-0.04;0.792953;-0.609546;0.01043;86.7;0.0;0.0;1.0;0.0;0.0
4.0;1753880917.752212;17.195756;0.64;-1.03;-0.06;0.795916;-0.608973;0.009384;87.4;0.0;0.0;1.0;0.0;0.0
4.0;1753880917.75682;17.181053;0.58;-1.12;0.13;0.7924;-0.608038;0.010122;87.0;0.0;0.0;1.0;0.0;0.0
4.0;1753880917.761428;17.174155;0.73;-1.1;-0.04;0.792953;-0.608719;0.012113;87.3;0.0;0.0;1.0;0.0;0.0
4.0;1753880917.766036;17.218952;0.66;-0.98;0.01;0.792756;-0.610154;0.01065;86.1;0.0;0.0;1.0;0.0;0.0
4.0;1753880917.770644;17.202228;0.58;-1.05;0.03;0.794164;-0.608299;0.010022;87.8;0.0;0.0;1.0;0.0;0.0
4.0;1753880917.775252;17.184185;0.58;-1.13;0.05;0.794523;-0.609593;0.01227;87.1;0.0;0.0;1.0;0.0;0.0
4.0;1753880917.77986;17.192988;0.65;-1.12;0.07;0.794608;-0.60881;0.007797;86.5;0.0;0.0;1.0;0.0;0.0
4.0;1753880917.784469;17.163525;0.68;-1.09;-0.01;0.793946;-0.610052;0.010277;87.0;0.0;0.0;1.0;0.0;0.0
4.0;1753880917.789077;17.187083;0.63;-1.08;0.01;0.793511;-0.609626;0.009651;86.5;0.0;0.0;1.0;0.0;0.0
4.0;1753880917.793685;17.168893;0.65;-1.05;-0.05;0.792692;-0.607829;0.011012;87.3;0.0;0.0;1.0;0.0;0.0
4.0;1753880917.798293;17.181802;0.67;-1.09;-0.04;0.793447;-0.609113;0.012074;87.3;0.0;0.0;1.0;0.0;0.0
4.0;1753880917.802901;17.169013;0.66;-1.03;-0.1;0.793307;-0.608777;0.011071;87.3;0.0;0.0;1.0;0.0;0.0
4.0;1753880917.80751;17.162201;0.7;-1.07;-0.02;0.794669;-0.608507;0.010795;86.9;0.0;0.0;1.0;0.0;0.0
4.0;1753880917.812118;17.190407;0.61;-1.02;0.04;0.794755;-0.60671;0.012182;87.0;0.0;0.0;1.0;0.0;0.0
4.0;1753880917.816726;17.186105;0.65;-1.1;-0.01;0.793054;-0.608787;0.01063;86.6;0.0;0.0;1.0;0.0;0.0
4.0;1753880917.821334;17.173126;0.71;-1.05;0.04;0.79371;-0.609079;0.012067;86.6;0.0;0.0;1.0;0.0;0.0
4.0;1753880917.825942;17.196685;0.67;-1.06;0.05;0.794962;-0.608201;0.011;86.8;0.0;0.0;1.0;0.0;0.0
4.0;1753880917.83055;17.185741;0.67;-1.02;-0.0;0.79267;-0.609928;0.010258;86.8;0.0;0.0;1.0;0.0;0.0
4.0;1753880917.8369;17.179688;0.63;-1.05;0.0;0.793732;-0.609146;0.010858;87.0;0.0;0.0;1.0;0.0;0.0
4.0;1753880917.841508;17.183108;0.53;-1.09;-0.09;0.792138;-0.60872;0.011963;87.0;0.0;0.0;1.0;0.0;0.0
4.0;1753880917.846116;17.208307;0.65;-1.02;0.04;0.794101;-0.61039;0.013676;87.6;0.0;0.0;1.0;0.0;0.0
4.0;1753880917.850724;17.187632;0.71;-1.13;0.05;0.792594;-0.60895;0.012256;87.8;0.0;0.0;1.0;0.0;0.0
4.0;1753880917.85908;17.128906;0.7;-1.12;0.0;0.792634;-0.609634;0.01342;88.0;0.0;0.0;1.0;0.0;0.0
4.0;1753880917.863688;17.141515;0.74;-1.13;-0.06;0.793365;-0.609909;0.012941;89.2;0.0;0.0;1.0;0.0;0.0
4.0;1753880917.868296;17.135677;0.71;-1.16;-0.0;0.792592;-0.609531;0.013397;89.0;0.0;0.0;1.0;0.0;0.0
4.0;1753880917.872904;17.150637;0.76;-1.19;-0.04;0.793324;-0.609089;0.012954;88.2;0.0;0.0;1.0;0.0;0.0
4.0;1753880917.877512;17.086108;0.66;-1.05;0.05;0.791271;-0.609534;0.013315;88.6;0.0;0.0;1.0;0.0;0.0
4.0;1753880917.88212;17.155227;0.74;-1.13;-0.04;0.792085;-0.609963;0.011993;87.7;0.0;0.0;1.0;0.0;0.0
4.0;1753880917.886729;17.14684;0.7;-1.19;0.02;0.793481;-0.610407;0.013272;88.2;0.0;0.0;1.0;0.0;0.0
4.0;1753880917.891337;17.117946;0.72;-1.1;-0.03;0.793033;-0.609849;0.010904;88.1;0.0;0.0;1.0;0.0;0.0
4.0;1753880917.895945;17.125693;0.72;-1.11;-0.02;0.792051;-0.608999;0.011246;87.9;0.0;0.0;1.0;0.0;0.0
4.0;1753880917.900553;17.178511;0.75;-1.13;0.01;0.793557;-0.608566;0.011738;89.0;0.0;0.0;1.0;0.0;0.0
4.0;1753880917.905162;17.155838;0.68;-1.12;-0.08;0.791526;-0.610328;0.011393;87.4;0.0;0.0;1.0;0.0;0.0
4.0;1753880917.90977;17.174322;0.73;-1.19;-0.1;0.791767;-0.6089;0.011195;87.3;0.0;0.0;1.0;0.0;0.0
4.0;1753880917.914378;17.121226;0.64;-1.1;-0.06;0.791379;-0.60978;0.011579;88.3;0.0;0.0;1.0;0.0;0.0
4.0;1753880917.918986;17.143581;0.62;-1.2;0.07;0.793529;-0.608628;0.010406;88.2;0.0;0.0;1.0;0.0;0.0
4.0;1753880917.923594;17.133137;0.71;-1.21;-0.01;0.791541;-0.609003;0.010201;87.6;0.0;0.0;1.0;0.0;0.0
4.0;1753880917.928202;17.098613;0.72;-1.1;-0.07;0.793065;-0.610487;0.012616;87.3;0.0;0.0;1.0;0.0;0.0
4.0;1753880917.93281;17.124961;0.65;-1.2;0.01;0.792049;-0.608426;0.011901;88.8;0.0;0.0;1.0;0.0;0.0
4.0;1753880917.937418;17.098225;0.61;-1.15;-0.01;0.792819;-0.608808;0.011198;88.7;0.0;0.0;1.0;0.0;0.0
4.0;1753880917.942026;17.15298;0.76;-1.15;0.13;0.793183;-0.610975;0.009319;87.5;0.0;0.0;1.0;0.0;0.0
4.0;1753880917.946635;17.098381;0.61;-1.22;-0.03;0.791449;-0.60834;0.012445;87.7;0.0;0.0;1.0;0.0;0.0
4.0;1753880917.951243;17.088757;0.61;-1.16;0.05;0.792102;-0.608997;0.010395;88.9;0.0;0.0;1.0;0.0;0.0
4.0;1753880917.955851;17.109436;0.69;-1.26;0.06;0.79275;-0.608801;0.010793;87.4;0.0;0.0;1.0;0.0;0.0
4.0;1753880917.96335;17.128906;0.7;-1.19;0.0;0.792268;-0.609146;0.010126;88.0;0.0;0.0;1.0;0.0;0.0
4.0;1753880917.967958;17.08748;0.73;-1.18;-0.01;0.792453;-0.609204;0.010767;86.6;0.0;0.0;1.0;0.0;0.0
4.0;1753880917.972566;17.115985;0.67;-1.16;-0.02;0.789737;-0.608434;0.010372;88.6;0.0;0.0;1.0;0.0;0.0
4.0;1753880917.977174;17.078973;0.66;-1.17;0.07;0.791796;-0.609327;0.010794;87.6;0.0;0.0;1.0;0.0;0.0
4.0;1753880917.981782;17.08164;0.69;-1.09;-0.01;0.792178;-0.609047;0.011069;87.3;0.0;0.0;1.0;0.0;0.0
4.0;1753880917.98639;17.125363;0.62;-1.14;0.04;0.792167;-0.60919;0.0107;87.3;0.0;0.0;1.0;0.0;0.0
4.0;1753880917.99387;17.128906;0.7;-1.12;0.0;0.79117;-0.608902;0.011346;88.0;0.0;0.0;1.0;0.0;0.0
4.0;1753880917.996353;17.152344;0.63;-1.19;0.07;0.790438;-0.61;0.011712;87.0;0.0;0.0;1.0;0.0;0.0
4.0;1753880918.000961;17.143681;0.64;-1.17;0.15;0.789782;-0.608641;0.011186;89.0;0.0;0.0;1.0;0.0;0.0
4.0;1753880918.005569;17.160823;0.71;-1.17;0.1;0.789895;-0.610478;0.012918;87.8;0.0;0.0;1.0;0.0;0.0
4.0;1753880918.010177;17.177454;0.59;-1.18;0.11;0.790706;-0.610184;0.011308;87.2;0.0;0.0;1.0;0.0;0.0
4.0;1753880918.014785;17.133837;0.61;-1.15;0.09;0.791187;-0.610196;0.00967;87.1;0.0;0.0;1.0;0.0;0.0
4.0;1753880918.019394;17.166724;0.54;-1.18;0.08;0.791766;-0.611261;0.012938;86.5;0.0;0.0;1.0;0.0;0.0
4.0;1753880918.024002;17.175708;0.56;-1.12;0.08;0.790476;-0.60999;0.011733;87.0;0.0;0.0;1.0;0.0;0.0
4.0;1753880918.02861;17.165454;0.6;-1.16;0.05;0.791542;-0.609949;0.011701;86.9;0.0;0.0;1.0;0.0;0.0
4.0;1753880918.033218;17.19011;0.55;-1.17;0.02;0.790051;-0.609548;0.011939;87.3;0.0;0.0;1.0;0.0;0.0
4.0;1753880918.037826;17.141309;0.66;-1.19;0.06;0.789771;-0.609888;0.012205;86.6;0.0;0.0;1.0;0.0;0.0
4.0;1753880918.042434;17.12996;0.68;-1.2;0.07;0.790649;-0.61062;0.013493;87.0;0.0;0.0;1.0;0.0;0.0
4.0;1753880918.047042;17.169803;0.73;-1.25;0.04;0.790411;-0.608755;0.011224;88.7;0.0;0.0;1.0;0.0;0.0
4.0;1753880918.05165;17.169621;0.65;-1.2;0.07;0.790966;-0.609323;0.013352;87.2;0.0;0.0;1.0;0.0;0.0
4.0;1753880918.056259;17.148723;0.67;-1.18;0.05;0.790152;-0.610607;0.014144;86.7;0.0;0.0;1.0;0.0;0.0
4.0;1753880918.060867;17.142097;0.56;-1.17;-0.01;0.791048;-0.610775;0.012481;86.9;0.0;0.0;1.0;0.0;0.0
4.0;1753880918.065475;17.148407;0.57;-1.18;0.07;0.792028;-0.609531;0.011328;87.0;0.0;0.0;1.0;0.0;0.0
4.0;1753880918.070083;17.120631;0.57;-1.22;0.07;0.789975;-0.609108;0.010991;86.3;0.0;0.0;1.0;0.0;0.0
4.0;1753880918.074691;17.161829;0.62;-1.19;0.08;0.790094;-0.609881;0.011991;85.5;0.0;0.0;1.0;0.0;0.0
4.0;1753880918.0793;17.148526;0.61;-1.24;0.11;0.78949;-0.609687;0.012591;85.4;0.0;0.0;1.0;0.0;0.0
4.0;1753880918.083908;17.111386;0.57;-1.18;0.1;0.791481;-0.609878;0.01225;87.2;0.0;0.0;1.0;0.0;0.0
4.0;1753880918.088516;17.131625;0.75;-1.2;0.04;0.789599;-0.609542;0.011278;86.2;0.0;0.0;1.0;0.0;0.0
4.0;1753880918.093124;17.165539;0.63;-1.18;0.14;0.790974;-0.609333;0.011465;85.3;0.0;0.0;1.0;0.0;0.0
4.0;1753880918.097732;17.15799;0.58;-1.15;0.11;0.789818;-0.609963;0.0108;86.1;0.0;0.0;1.0;0.0;0.0
4.0;1753880918.10234;17.195987;0.53;-1.23;0.06;0.789979;-0.610244;0.010904;86.5;0.0;0.0;1.0;0.0;0.0
4.0;1753880918.106948;17.186496;0.64;-1.18;0.07;0.792432;-0.609975;0.011397;86.2;0.0;0.0;1.0;0.0;0.0
4.0;1753880918.111556;17.153212;0.66;-1.17;0.07;0.791583;-0.609262;0.012485;86.2;0.0;0.0;1.0;0.0;0.0
4.0;1753880918.116165;17.144932;0.71;-1.25;0.07;0.79074;-0.609876;0.011452;86.9;0.0;0.0;1.0;0.0;0.0
4.0;1753880918.120773;17.156041;0.58;-1.15;0.11;0.792929;-0.609583;0.010913;87.0;0.0;0.0;1.0;0.0;0.0
4.0;1753880918.125381;17.165878;0.69;-1.21;0.09;0.789557;-0.61129;0.012622;86.4;0.0;0.0;1.0;0.0;0.0
4.0;1753880918.129989;17.158452;0.62;-1.25;0.04;0.790544;-0.610327;0.011723;87.5;0.0;0.0;1.0;0.0;0.0
4.0;1753880918.134597;17.128644;0.64;-1.19;0.07;0.790604;-0.609725;0.01064;86.9;0.0;0.0;1.0;0.0;0.0
4.0;1753880918.139206;17.197129;0.72;-1.18;0.11;0.789944;-0.609541;0.012402;87.5;0.0;0.0;1.0;0.0;0.0
4.0;1753880918.143814;17.137054;0.63;-1.15;0.1;0.789923;-0.609955;0.010727;87.2;0.0;0.0;1.0;0.0;0.0
4.0;1753880918.148422;17.136325;0.57;-1.22;0.08;0.790843;-0.611432;0.011721;86.7;0.0;0.0;1.0;0.0;0.0
4.0;1753880918.15303;17.161347;0.56;-1.16;0.1;0.79302;-0.6105;0.011017;87.0;0.0;0.0;1.0;0.0;0.0
4.0;1753880918.157638;17.170797;0.66;-1.16;0.05;0.791082;-0.608947;0.010556;87.0;0.0;0.0;1.0;0.0;0.0
4.0;1753880918.162246;17.164107;0.56;-1.22;0.07;0.792334;-0.609515;0.011362;86.1;0.0;0.0;1.0;0.0;0.0
4.0;1753880918.166854;17.100471;0.57;-1.16;0.04;0.789732;-0.60988;0.010758;85.9;0.0;0.0;1.0;0.0;0.0
4.0;1753880918.171462;17.160598;0.59;-1.19;0.08;0.790807;-0.60851;0.013069;87.5;0.0;0.0;1.0;0.0;0.0
4.0;1753880918.176071;17.145958;0.55;-1.22;0.06;0.791292;-0.608785;0.013297;88.0;0.0;0.0;1.0;0.0;0.0
4.0;1753880918.180679;17.135434;0.59;-1.21;0.07;0.789069;-0.609953;0.010805;87.5;0.0;0.0;1.0;0.0;0.0
4.0;1753880918.185287;17.113931;0.64;-1.16;0.01;0.790759;-0.609466;0.011917;86.2;0.0;0.0;1.0;0.0;0.0
4.0;1753880918.189895;17.100677;0.71;-1.18;0.1;0.790476;-0.609634;0.010419;86.4;0.0;0.0;1.0;0.0;0.0
4.0;1753880918.194503;17.177603;0.66;-1.15;0.05;0.789152;-0.610278;0.010355;86.2;0.0;0.0;1.0;0.0;0.0
4.0;1753880918.199112;17.141717;0.69;-1.2;0.08;0.791484;-0.609202;0.012152;87.6;0.0;0.0;1.0;0.0;0.0
4.0;1753880918.20372;17.141076;0.61;-1.22;0.07;0.791123;-0.610085;0.011803;87.1;0.0;0.0;1.0;0.0;0.0
4.0;1753880918.208328;17.168736;0.66;-1.17;0.09;0.791059;-0.610366;0.011566;86.4;0.0;0.0;1.0;0.0;0.0
4.0;1753880918.212936;17.179074;0.61;-1.19;0.09;0.789321;-0.609359;0.011313;86.8;0.0;0.0;1.0;0.0;0.0
4.0;1753880918.217544;17.132264;0.57;-1.19;0.05;0.790145;-0.609315;0.010656;86.5;0.0;0.0;1.0;0.0;0.0
4.0;1753880918.222152;17.152122;0.64;-1.19;0.11;0.789973;-0.608856;0.012746;87.1;0.0;0.0;1.0;0.0;0.0
4.0;1753880918.22676;17.105221;0.64;-1.21;0.04;0.791535;-0.610338;0.010821;86.9;0.0;0.0;1.0;0.0;0.0
4.0;1753880918.231368;17.126877;0.64;-1.19;0.08;0.790918;-0.609135;0.0123;87.7;0.0;0.0;1.0;0.0;0.0
4.0;1753880918.235977;17.153529;0.53;-1.22;0.08;0.789298;-0.609553;0.010621;87.6;0.0;0.0;1.0;0.0;0.0
4.0;1753880918.240585;17.192071;0.64;-1.19;0.14;0.791605;-0.609585;0.013523;86.6;0.0;0.0;1.0;0.0;0.0
4.0;1753880918.245193;17.103202;0.69;-1.11;0.05;0.790319;-0.608789;0.012801;86.7;0.0;0.0;1.0;0.0;0.0
4.0;1753880918.249801;17.153911;0.66;-1.17;0.1;0.791243;-0.610873;0.010421;87.7;0.0;0.0;1.0;0.0;0.0
4.0;1753880918.254409;17.160197;0.64;-1.21;0.11;0.792279;-0.60796;0.012001;86.7;0.0;0.0;1.0;0.0;0.0
4.0;1753880918.259018;17.180194;0.71;-1.25;0.07;0.789539;-0.609082;0.011762;85.6;0.0;0.0;1.0;0.0;0.0
4.0;1753880918.263626;17.141067;0.69;-1.2;0.08;0.790436;-0.609373;0.011262;86.8;0.0;0.0;1.0;0.0;0.0
4.0;1753880918.268234;17.13755;0.67;-1.24;0.1;0.792714;-0.60957;0.011839;87.8;0.0;0.0;1.0;0.0;0.0
4.0;1753880918.272842;17.156737;0.68;-1.13;0.08;0.791704;-0.610235;0.013179;87.8;0.0;0.0;1.0;0.0;0.0
4.0;1753880918.27745;17.145205;0.63;-1.2;0.08;0.791999;-0.609584;0.012031;87.1;0.0;0.0;1.0;0.0;0.0
4.0;1753880918.282058;17.176691;0.64;-1.14;0.02;0.790683;-0.609596;0.011528;87.4;0.0;0.0;1.0;0.0;0.0
4.0;1753880918.286666;17.153783;0.61;-1.2;0.14;0.790617;-0.609164;0.012048;86.9;0.0;0.0;1.0;0.0;0.0
4.0;1753880918.291274;17.159093;0.68;-1.2;0.03;0.790412;-0.609195;0.010928;87.9;0.0;0.0;1.0;0.0;0.0
4.0;1753880918.295883;17.206789;0.68;-1.25;0.04;0.789263;-0.610883;0.010925;86.4;0.0;0.0;1.0;0.0;0.0
4.0;1753880918.300491;17.139082;0.72;-1.2;0.03;0.788895;-0.609272;0.011188;87.0;0.0;0.0;1.0;0.0;0.0
4.0;1753880918.305099;17.172501;0.61;-1.19;0.05;0.792494;-0.610299;0.012864;87.5;0.0;0.0;1.0;0.0;0.0
4.0;1753880918.309707;17.164104;0.59;-1.2;0.08;0.790758;-0.609191;0.011483;86.8;0.0;0.0;1.0;0.0;0.0
4.0;1753880918.314315;17.165074;0.64;-1.19;0.07;0.791125;-0.608948;0.012553;87.5;0.0;0.0;1.0;0.0;0.0
4.0;1753880918.318924;17.124537;0.65;-1.25;0.03;0.789925;-0.609866;0.011842;86.4;0.0;0.0;1.0;0.0;0.0
4.0;1753880918.323532;17.143842;0.56;-1.22;0.11;0.791765;-0.609506;0.012837;86.6;0.0;0.0;1.0;0.0;0.0
4.0;1753880918.32814;17.160367;0.69;-1.23;0.07;0.791018;-0.609448;0.011666;87.2;0.0;0.0;1.0;0.0;0.0
4.0;1753880918.332748;17.154019;0.61;-1.15;0.06;0.790912;-0.61164;0.01165;88.2;0.0;0.0;1.0;0.0;0.0
4.0;1753880918.337356;17.089839;0.6;-1.19;0.02;0.791807;-0.608286;0.01226;86.8;0.0;0.0;1.0;0.0;0.0
4.0;1753880918.341964;17.13629;0.66;-1.22;0.05;0.789528;-0.609775;0.01316;86.1;0.0;0.0;1.0;0.0;0.0
4.0;1753880918.346572;17.134927;0.59;-1.22;0.07;0.789739;-0.609765;0.013297;86.6;0.0;0.0;1.0;0.0;0.0
4.0;1753880918.35118;17.187226;0.56;-1.2;0.08;0.793054;-0.609427;0.011898;86.5;0.0;0.0;1.0;0.0;0.0
4.0;1753880918.355789;17.139893;0.62;-1.2;0.1;0.790419;-0.60873;0.01149;87.1;0.0;0.0;1.0;0.0;0.0
4.0;1753880918.360397;17.165515;0.76;-1.17;0.05;0.791181;-0.609339;0.013217;88.0;0.0;0.0;1.0;0.0;0.0
4.0;1753880918.365005;17.144692;0.72;-1.18;0.13;0.792446;-0.609129;0.012749;87.8;0.0;0.0;1.0;0.0;0.0
4.0;1753880918.369613;17.189499;0.63;-1.23;0.05;0.790319;-0.609787;0.013084;87.2;0.0;0.0;1.0;0.0;0.0
4.0;1753880918.374221;17.130429;0.57;-1.17;0.09;0.792228;-0.610032;0.012281;87.3;0.0;0.0;1.0;0.0;0.0
4.0;1753880918.37883;17.088287;0.7;-1.2;0.04;0.792681;-0.609885;0.012277;86.2;0.0;0.0;1.0;0.0;0.0
4.0;1753880918.383438;17.124954;0.62;-1.15;0.09;0.790329;-0.609106;0.012862;86.7;0.0;0.0;1.0;0.0;0.0
4.0;1753880918.388046;17.088917;0.61;-1.21;0.06;0.790785;-0.609498;0.011071;87.1;0.0;0.0;1.0;0.0;0.0
4.0;1753880918.392654;17.132903;0.63;-1.15;0.08;0.79095;-0.609989;0.012581;86.6;0.0;0.0;1.0;0.0;0.0
4.0;1753880918.397262;17.17171;0.62;-1.18;0.07;0.790451;-0.609846;0.013754;87.4;0.0;0.0;1.0;0.0;0.0
4.0;1753880918.40187;17.117752;0.63;-1.19;0.1;0.791901;-0.609528;0.012246;86.7;0.0;0.0;1.0;0.0;0.0
4.0;1753880918.406478;17.169041;0.58;-1.16;0.1;0.79186;-0.60981;0.012778;87.9;0.0;0.0;1.0;0.0;0.0
4.0;1753880918.411086;17.096474;0.64;-1.21;0.12;0.792313;-0.608579;0.011817;87.4;0.0;0.0;1.0;0.0;0.0
4.0;1753880918.415695;17.108988;0.6;-1.18;0.05;0.791595;-0.609008;0.011292;86.4;0.0;0.0;1.0;0.0;0.0
4.0;1753880918.420303;17.141593;0.63;-1.17;0.03;0.791052;-0.608328;0.010854;86.7;0.0;0.0;1.0;0.0;0.0
4.0;1753880918.424911;17.180308;0.57;-1.13;0.13;0.790079;-0.609529;0.012137;86.2;0.0;0.0;1.0;0.0;0.0
4.0;1753880918.429519;17.122068;0.61;-1.18;0.06;0.792365;-0.610113;0.011771;87.8;0.0;0.0;1.0;0.0;0.0
4.0;1753880918.434127;17.101084;0.57;-1.13;0.07;0.792711;-0.608538;0.01402;87.6;0.0;0.0;1.0;0.0;0.0
4.0;1753880918.438736;17.177809;0.62;-1.2;0.01;0.790486;-0.609325;0.012002;87.1;0.0;0.0;1.0;0.0;0.0
4.0;1753880918.443344;17.142522;0.61;-1.23;0.1;0.79014;-0.610611;0.013183;86.9;0.0;0.0;1.0;0.0;0.0
4.0;1753880918.447952;17.124583;0.69;-1.17;0.06;0.793344;-0.609161;0.011175;87.0;0.0;0.0;1.0;0.0;0.0
4.0;1753880918.45256;17.115419;0.63;-1.21;0.04;0.791106;-0.609974;0.012442;87.9;0.0;0.0;1.0;0.0;0.0
4.0;1753880918.457168;17.151307;0.64;-1.18;0.09;0.791169;-0.60863;0.011092;87.5;0.0;0.0;1.0;0.0;0.0
4.0;1753880918.461776;17.17067;0.58;-1.17;0.1;0.792202;-0.609324;0.011532;86.5;0.0;0.0;1.0;0.0;0.0
4.0;1753880918.466384;17.137829;0.58;-1.17;0.02;0.790422;-0.609717;0.012464;86.7;0.0;0.0;1.0;0.0;0.0
4.0;1753880918.470992;17.155705;0.59;-1.19;0.04;0.790386;-0.609495;0.010104;87.9;0.0;0.0;1.0;0.0;0.0
4.0;1753880918.475601;17.141626;0.58;-1.22;0.06;0.790964;-0.609125;0.011646;86.6;0.0;0.0;1.0;0.0;0.0
4.0;1753880918.480209;17.138018;0.67;-1.23;0.07;0.791806;-0.608868;0.011537;85.4;0.0;0.0;1.0;0.0;0.0
4.0;1753880918.484817;17.164105;0.79;-1.19;0.1;0.790993;-0.609935;0.01272;88.2;0.0;0.0;1.0;0.0;0.0
4.0;1753880918.489425;17.169793;0.63;-1.21;0.11;0.791437;-0.608624;0.013068;86.4;0.0;0.0;1.0;0.0;0.0
4.0;1753880918.494033;17.176278;0.64;-1.2;0.06;0.791165;-0.609881;0.013636;87.1;0.0;0.0;1.0;0.0;0.0
4.0;1753880918.498642;17.154835;0.64;-1.2;0.01;0.791765;-0.610021;0.013129;87.3;0.0;0.0;1.0;0.0;0.0
4.0;1753880918.50325;17.161629;0.73;-1.19;0.12;0.790136;-0.609552;0.00939;86.8;0.0;0.0;1.0;0.0;0.0
4.0;1753880918.507858;17.16778;0.65;-1.18;0.08;0.790475;-0.608096;0.013153;86.1;0.0;0.0;1.0;0.0;0.0
4.0;1753880918.512466;17.172598;0.61;-1.2;0.07;0.790066;-0.609541;0.012585;87.1;0.0;0.0;1.0;0.0;0.0
4.0;1753880918.517074;17.133023;0.6;-1.21;0.05;0.791264;-0.610113;0.012286;87.8;0.0;0.0;1.0;0.0;0.0
4.0;1753880918.521682;17.10929;0.6;-1.15;0.04;0.790746;-0.609032;0.011727;86.9;0.0;0.0;1.0;0.0;0.0
4.0;1753880918.52629;17.145186;0.61;-1.21;0.06;0.792136;-0.610766;0.013518;85.4;0.0;0.0;1.0;0.0;0.0
4.0;1753880918.530898;17.191075;0.54;-1.21;0.12;0.791074;-0.608326;0.011988;87.0;0.0;0.0;1.0;0.0;0.0
4.0;1753880918.535507;17.142117;0.58;-1.21;0.05;0.791177;-0.609554;0.011451;86.9;0.0;0.0;1.0;0.0;0.0
4.0;1753880918.540115;17.117859;0.64;-1.17;0.07;0.791221;-0.608942;0.011435;87.8;0.0;0.0;1.0;0.0;0.0
4.0;1753880918.544723;17.170817;0.59;-1.17;0.01;0.792102;-0.60938;0.010699;87.7;0.0;0.0;1.0;0.0;0.0
4.0;1753880918.549331;17.1731;0.72;-1.22;0.09;0.790932;-0.60975;0.011817;86.6;0.0;0.0;1.0;0.0;0.0
4.0;1753880918.553939;17.099605;0.61;-1.17;0.06;0.790816;-0.608805;0.012658;87.0;0.0;0.0;1.0;0.0;0.0
4.0;1753880918.558548;17.118505;0.56;-1.17;0.1;0.792103;-0.608581;0.01262;87.5;0.0;0.0;1.0;0.0;0.0
4.0;1753880918.563156;17.153342;0.62;-1.13;0.05;0.792286;-0.609346;0.01224;87.8;0.0;0.0;1.0;0.0;0.0
4.0;1753880918.567764;17.162319;0.6;-1.17;0.1;0.79139;-0.611134;0.011577;87.6;0.0;0.0;1.0;0.0;0.0
4.0;1753880918.572372;17.169011;0.61;-1.25;0.08;0.793372;-0.608947;0.011611;86.8;0.0;0.0;1.0;0.0;0.0
4.0;1753880918.57698;17.17976;0.68;-1.12;0.05;0.790326;-0.610165;0.013261;86.7;0.0;0.0;1.0;0.0;0.0
4.0;1753880918.581588;17.153176;0.59;-1.15;0.05;0.792312;-0.610466;0.012437;87.4;0.0;0.0;1.0;0.0;0.0
4.0;1753880918.586196;17.170142;0.63;-1.19;0.08;0.791838;-0.609263;0.012015;87.2;0.0;0.0;1.0;0.0;0.0
4.0;1753880918.590804;17.153158;0.56;-1.16;0.09;0.78978;-0.60823;0.012488;88.0;0.0;0.0;1.0;0.0;0.0
4.0;1753880918.595413;17.128079;0.61;-1.17;0.09;0.791045;-0.608452;0.012908;87.5;0.0;0.0;1.0;0.0;0.0
4.0;1753880918.600021;17.116393;0.62;-1.24;0.1;0.793217;-0.609544;0.012508;87.1;0.0;0.0;1.0;0.0;0.0
4.0;1753880918.604629;17.148054;0.58;-1.18;0.07;0.793224;-0.608247;0.011732;86.3;0.0;0.0;1.0;0.0;0.0
4.0;1753880918.609237;17.146609;0.62;-1.2;0.03;0.791892;-0.608906;0.012358;86.7;0.0;0.0;1.0;0.0;0.0
4.0;1753880918.613845;17.1717;0.64;-1.2;0.07;0.791021;-0.608666;0.011835;87.8;0.0;0.0;1.0;0.0;0.0
4.0;1753880918.618454;17.15385;0.62;-1.17;0.07;0.791288;-0.609063;0.014034;87.6;0.0;0.0;1.0;0.0;0.0
4.0;1753880918.623062;17.163314;0.58;-1.21;0.13;0.790677;-0.609451;0.012101;87.2;0.0;0.0;1.0;0.0;0.0
4.0;1753880918.62767;17.178757;0.66;-1.21;0.07;0.791028;-0.609653;0.013229;85.9;0.0;0.0;1.0;0.0;0.0
4.0;1753880918.632278;17.140182;0.54;-1.2;0.01;0.789996;-0.608575;0.012921;87.3;0.0;0.0;1.0;0.0;0.0
4.0;1753880918.636886;17.120889;0.58;-1.13;0.05;0.79237;-0.608028;0.013075;87.5;0.0;0.0;1.0;0.0;0.0
4.0;1753880918.641494;17.140244;0.63;-1.19;0.08;0.792377;-0.609595;0.010844;88.2;0.0;0.0;1.0;0.0;0.0
4.0;1753880918.646102;17.159628;0.67;-1.19;0.06;0.789598;-0.610008;0.01372;86.7;0.0;0.0;1.0;0.0;0.0
4.0;1753880918.65071;17.167526;0.61;-1.2;0.04;0.791598;-0.609234;0.012273;86.5;0.0;0.0;1.0;0.0;0.0
4.0;1753880918.655319;17.121659;0.59;-1.16;-0.0;0.79203;-0.6087;0.011103;88.1;0.0;0.0;1.0;0.0;0.0
4.0;1753880918.659927;17.145395;0.62;-1.17;0.01;0.791726;-0.608406;0.011584;87.9;0.0;0.0;1.0;0.0;0.0
4.0;1753880918.664535;17.166497;0.67;-1.2;0.05;0.789814;-0.607439;0.012812;87.5;0.0;0.0;1.0;0.0;0.0
4.0;1753880918.669143;17.135951;0.65;-1.22;0.07;0.792675;-0.610484;0.011381;86.9;0.0;0.0;1.0;0.0;0.0
4.0;1753880918.673751;17.144718;0.63;-1.19;0.07;0.79144;-0.609805;0.012958;87.7;0.0;0.0;1.0;0.0;0.0
4.0;1753880918.67836;17.151713;0.64;-1.21;0.08;0.792338;-0.610253;0.012829;87.3;0.0;0.0;1.0;0.0;0.0
4.0;1753880918.686;17.152344;0.63;-1.19;0.07;0.79178;-0.609268;0.012078;87.0;0.0;0.0;1.0;0.0;0.0
4.0;1753880918.690608;17.139939;0.63;-1.17;0.13;0.791064;-0.609564;0.01155;87.2;0.0;0.0;1.0;0.0;0.0
4.0;1753880918.695216;17.133817;0.65;-1.16;0.1;0.791114;-0.609091;0.012465;87.4;0.0;0.0;1.0;0.0;0.0
4.0;1753880918.699824;17.181122;0.56;-1.13;0.01;0.791406;-0.608909;0.011557;87.7;0.0;0.0;1.0;0.0;0.0
4.0;1753880918.704432;17.201263;0.61;-1.17;0.09;0.792735;-0.607754;0.012952;87.1;0.0;0.0;1.0;0.0;0.0
4.0;1753880918.709041;17.116257;0.63;-1.23;0.12;0.792299;-0.608842;0.012392;87.8;0.0;0.0;1.0;0.0;0.0
4.0;1753880918.713649;17.13401;0.61;-1.18;0.13;0.79013;-0.607964;0.011811;85.7;0.0;0.0;1.0;0.0;0.0
4.0;1753880918.718257;17.133177;0.68;-1.15;0.05;0.79243;-0.610278;0.013461;87.3;0.0;0.0;1.0;0.0;0.0
4.0;1753880918.722865;17.182023;0.61;-1.15;0.01;0.792228;-0.609394;0.012579;87.2;0.0;0.0;1.0;0.0;0.0
4.0;1753880918.727473;17.155536;0.65;-1.14;0.1;0.790829;-0.607362;0.011703;87.2;0.0;0.0;1.0;0.0;0.0
4.0;1753880918.732082;17.135742;0.58;-1.18;0.1;0.79291;-0.608945;0.011521;87.9;0.0;0.0;1.0;0.0;0.0
4.0;1753880918.73669;17.155061;0.67;-1.2;0.1;0.79268;-0.608443;0.012558;86.6;0.0;0.0;1.0;0.0;0.0
4.0;1753880918.741298;17.135282;0.57;-1.14;0.12;0.792251;-0.609711;0.012066;87.4;0.0;0.0;1.0;0.0;0.0
4.0;1753880918.745906;17.131333;0.67;-1.14;0.06;0.790441;-0.609873;0.011517;87.5;0.0;0.0;1.0;0.0;0.0
4.0;1753880918.750514;17.139617;0.59;-1.1;0.09;0.792862;-0.608243;0.01277;87.0;0.0;0.0;1.0;0.0;0.0
4.0;1753880918.755122;17.188358;0.58;-1.14;0.15;0.792542;-0.608618;0.011416;85.9;0.0;0.0;1.0;0.0;0.0
4.0;1753880918.75973;17.126422;0.61;-1.13;0.09;0.792869;-0.608643;0.012687;86.9;0.0;0.0;1.0;0.0;0.0
4.0;1753880918.764338;17.143339;0.61;-1.12;0.14;0.793293;-0.609117;0.012471;86.8;0.0;0.0;1.0;0.0;0.0
4.0;1753880918.768947;17.155653;0.59;-1.13;0.13;0.792628;-0.60862;0.010816;86.9;0.0;0.0;1.0;0.0;0.0
4.0;1753880918.773555;17.131807;0.65;-1.13;0.12;0.793137;-0.610193;0.011187;87.5;0.0;0.0;1.0;0.0;0.0
4.0;1753880918.778163;17.157456;0.64;-1.18;0.06;0.79213;-0.608587;0.010855;86.6;0.0;0.0;1.0;0.0;0.0
4.0;1753880918.782771;17.179741;0.56;-1.19;0.09;0.793162;-0.609293;0.012491;87.0;0.0;0.0;1.0;0.0;0.0
4.0;1753880918.787379;17.165041;0.67;-1.13;0.1;0.793174;-0.60986;0.011705;86.8;0.0;0.0;1.0;0.0;0.0
4.0;1753880918.791988;17.141625;0.66;-1.11;0.06;0.792444;-0.608509;0.013001;88.4;0.0;0.0;1.0;0.0;0.0
4.0;1753880918.796596;17.140107;0.59;-1.16;0.08;0.790231;-0.608743;0.010538;87.7;0.0;0.0;1.0;0.0;0.0
4.0;1753880918.801204;17.163337;0.59;-1.19;0.04;0.793281;-0.607629;0.01128;87.0;0.0;0.0;1.0;0.0;0.0
4.0;1753880918.805812;17.100234;0.61;-1.15;0.09;0.792498;-0.609415;0.012096;87.0;0.0;0.0;1.0;0.0;0.0
4.0;1753880918.81042;17.204695;0.65;-1.16;0.15;0.794115;-0.60808;0.012172;87.5;0.0;0.0;1.0;0.0;0.0
4.0;1753880918.815028;17.149891;0.62;-1.11;0.06;0.793154;-0.608897;0.012183;87.0;0.0;0.0;1.0;0.0;0.0
4.0;1753880918.819636;17.154248;0.62;-1.1;0.14;0.794917;-0.607379;0.010697;86.8;0.0;0.0;1.0;0.0;0.0
4.0;1753880918.824244;17.173067;0.71;-1.12;0.17;0.792189;-0.608057;0.011642;85.8;0.0;0.0;1.0;0.0;0.0
4.0;1753880918.828853;17.129653;0.6;-1.15;0.16;0.793668;-0.607799;0.011312;86.3;0.0;0.0;1.0;0.0;0.0
4.0;1753880918.8375;17.152344;0.63;-1.12;0.14;0.793244;-0.608902;0.011712;87.0;0.0;0.0;1.0;0.0;0.0
4.0;1753880918.842108;17.1137;0.63;-1.15;0.14;0.791453;-0.607723;0.011947;87.9;0.0;0.0;1.0;0.0;0.0
4.0;1753880918.846716;17.155265;0.65;-1.12;0.15;0.794354;-0.609138;0.011957;88.2;0.0;0.0;1.0;0.0;0.0
4.0;1753880918.851324;17.129972;0.43;-1.11;0.19;0.793441;-0.610179;0.012749;85.4;0.0;0.0;1.0;0.0;0.0
4.0;1753880918.855933;17.132492;0.68;-1.16;0.18;0.792096;-0.609065;0.012146;91.8;0.0;0.0;1.0;0.0;0.0
4.0;1753880918.860541;17.135556;0.57;-1.21;0.15;0.793105;-0.610578;0.012923;86.6;0.0;0.0;1.0;0.0;0.0
4.0;1753880918.865149;17.104213;0.77;-1.2;0.11;0.793148;-0.609873;0.011138;87.1;0.0;0.0;1.0;0.0;0.0
4.0;1753880918.869757;17.109328;0.7;-1.22;0.05;0.790519;-0.610789;0.011647;89.6;0.0;0.0;1.0;0.0;0.0
4.0;1753880918.87454;17.089844;0.63;-1.19;0.07;0.792512;-0.610488;0.0122;89.0;0.0;0.0;1.0;0.0;0.0
4.0;1753880918.879148;17.095485;0.45;-1.15;0.03;0.793748;-0.609859;0.01254;87.6;0.0;0.0;1.0;0.0;0.0
4.0;1753880918.883756;17.085225;0.69;-1.25;0.05;0.793001;-0.609284;0.01323;86.6;0.0;0.0;1.0;0.0;0.0
4.0;1753880918.888364;17.099682;0.78;-1.16;0.06;0.794627;-0.609331;0.011786;88.2;0.0;0.0;1.0;0.0;0.0
4.0;1753880918.892972;17.075791;0.76;-1.11;0.15;0.794145;-0.611155;0.012316;91.0;0.0;0.0;1.0;0.0;0.0
4.0;1753880918.89758;17.062622;0.59;-1.24;0.08;0.791695;-0.610256;0.011678;84.3;0.0;0.0;1.0;0.0;0.0
4.0;1753880918.902189;17.088232;0.57;-1.19;0.14;0.793077;-0.609935;0.01132;94.9;0.0;0.0;1.0;0.0;0.0
4.0;1753880918.906797;17.080419;0.57;-1.26;0.15;0.793431;-0.609252;0.011398;91.5;0.0;0.0;1.0;0.0;0.0
4.0;1753880918.911405;17.08687;0.5;-1.16;0.12;0.794081;-0.608823;0.011654;92.9;0.0;0.0;1.0;0.0;0.0
4.0;1753880918.91862;17.089844;0.63;-1.19;0.14;0.792878;-0.609024;0.011224;89.0;0.0;0.0;1.0;0.0;0.0
4.0;1753880918.923228;17.099575;0.62;-1.16;0.2;0.792482;-0.60908;0.011504;88.7;0.0;0.0;1.0;0.0;0.0
4.0;1753880918.927836;17.109701;0.75;-1.2;0.02;0.791259;-0.610722;0.010613;88.2;0.0;0.0;1.0;0.0;0.0
4.0;1753880918.932444;17.057325;0.64;-1.17;0.13;0.791324;-0.609643;0.01132;88.1;0.0;0.0;1.0;0.0;0.0
4.0;1753880918.937053;17.122535;0.58;-1.21;0.08;0.790935;-0.610607;0.010635;93.0;0.0;0.0;1.0;0.0;0.0
4.0;1753880918.941661;17.078137;0.65;-1.14;0.11;0.791808;-0.609121;0.01131;93.4;0.0;0.0;1.0;0.0;0.0
4.0;1753880918.946269;17.117966;0.52;-1.19;0.17;0.794313;-0.609504;0.011049;88.6;0.0;0.0;1.0;0.0;0.0
4.0;1753880918.950877;17.094986;0.74;-1.08;0.12;0.789428;-0.611133;0.01147;88.2;0.0;0.0;1.0;0.0;0.0
4.0;1753880918.955485;17.094641;0.66;-1.11;0.12;0.790642;-0.6106;0.011135;89.3;0.0;0.0;1.0;0.0;0.0
4.0;1753880918.96116;17.089844;0.63;-1.12;0.07;0.790072;-0.610732;0.011834;89.0;0.0;0.0;1.0;0.0;0.0
4.0;1753880918.96539;17.097656;0.63;-1.12;0.07;0.792512;-0.609756;0.01098;89.0;0.0;0.0;1.0;0.0;0.0
4.0;1753880918.969934;17.097656;0.63;-1.19;0.14;0.790072;-0.608658;0.011102;89.0;0.0;0.0;1.0;0.0;0.0
4.0;1753880918.974489;17.097656;0.63;-1.12;0.14;0.793488;-0.60878;0.011834;89.0;0.0;0.0;1.0;0.0;0.0
4.0;1753880918.978986;17.113281;0.56;-1.12;0.14;0.793488;-0.609634;0.010736;89.0;0.0;0.0;1.0;0.0;0.0
4.0;1753880918.983594;17.115638;0.69;-1.16;0.12;0.791082;-0.609709;0.011386;88.1;0.0;0.0;1.0;0.0;0.0
4.0;1753880918.987906;17.113281;0.7;-1.19;0.07;0.79117;-0.609756;0.01098;89.0;0.0;0.0;1.0;0.0;0.0
4.0;1753880918.988104;17.113281;0.63;-1.12;0.07;0.791048;-0.608292;0.01037;89.0;0.0;0.0;1.0;0.0;0.0
4.0;1753880918.995979;17.113281;0.56;-1.12;0.14;0.79178;-0.609512;0.012322;87.0;0.0;0.0;1.0;0.0;0.0
4.0;1753880918.997199;17.113281;0.56;-1.12;0.14;0.793488;-0.609878;0.010004;87.0;0.0;0.0;1.0;0.0;0.0
4.0;1753880919.001807;17.128037;0.65;-1.12;0.13;0.795521;-0.610002;0.010363;86.3;0.0;0.0;1.0;0.0;0.0
4.0;1753880919.006415;17.120387;0.47;-1.08;0.14;0.792003;-0.609071;0.009723;85.8;0.0;0.0;1.0;0.0;0.0
4.0;1753880919.011024;17.1074;0.5;-1.13;0.08;0.792558;-0.610307;0.010143;86.8;0.0;0.0;1.0;0.0;0.0
4.0;1753880919.015632;17.108618;0.59;-1.16;0.15;0.794569;-0.608637;0.008784;87.3;0.0;0.0;1.0;0.0;0.0
4.0;1753880919.02024;17.117686;0.63;-1.11;0.19;0.792849;-0.609624;0.009701;86.2;0.0;0.0;1.0;0.0;0.0
4.0;1753880919.024848;17.109516;0.52;-1.1;0.14;0.792396;-0.609316;0.00981;87.8;0.0;0.0;1.0;0.0;0.0
4.0;1753880919.029456;17.104752;0.54;-1.06;0.13;0.793138;-0.609272;0.00984;85.5;0.0;0.0;1.0;0.0;0.0
4.0;1753880919.034064;17.124272;0.47;-1.16;0.15;0.794333;-0.61075;0.008675;87.4;0.0;0.0;1.0;0.0;0.0
4.0;1753880919.038672;17.115293;0.64;-1.1;0.06;0.793536;-0.608846;0.009922;87.7;0.0;0.0;1.0;0.0;0.0
4.0;1753880919.04328;17.12327;0.53;-1.22;0.15;0.794683;-0.608754;0.01031;86.4;0.0;0.0;1.0;0.0;0.0
4.0;1753880919.047889;17.128977;0.65;-1.12;0.06;0.793281;-0.609865;0.009292;88.4;0.0;0.0;1.0;0.0;0.0
4.0;1753880919.052497;17.11417;0.55;-1.15;0.19;0.793539;-0.610676;0.010832;87.3;0.0;0.0;1.0;0.0;0.0
4.0;1753880919.057105;17.098499;0.56;-1.08;0.14;0.79343;-0.609261;0.009911;87.9;0.0;0.0;1.0;0.0;0.0
4.0;1753880919.061713;17.134139;0.68;-1.11;0.18;0.793358;-0.609606;0.010264;86.3;0.0;0.0;1.0;0.0;0.0
4.0;1753880919.066321;17.111236;0.57;-1.22;0.09;0.792116;-0.608228;0.01023;85.8;0.0;0.0;1.0;0.0;0.0
4.0;1753880919.07093;17.146695;0.57;-1.1;0.04;0.791603;-0.609386;0.01001;87.0;0.0;0.0;1.0;0.0;0.0
4.0;1753880919.075538;17.113186;0.56;-1.17;0.05;0.79272;-0.608615;0.010435;87.8;0.0;0.0;1.0;0.0;0.0
4.0;1753880919.080146;17.117454;0.59;-1.12;0.06;0.794094;-0.609013;0.009807;86.6;0.0;0.0;1.0;0.0;0.0
4.0;1753880919.084754;17.117158;0.64;-1.15;0.08;0.792233;-0.60733;0.010454;87.3;0.0;0.0;1.0;0.0;0.0
4.0;1753880919.089362;17.115564;0.5;-1.13;0.08;0.795335;-0.609227;0.011555;86.9;0.0;0.0;1.0;0.0;0.0
4.0;1753880919.09397;17.120917;0.56;-1.14;0.18;0.792371;-0.608052;0.009922;85.5;0.0;0.0;1.0;0.0;0.0
4.0;1753880919.098578;17.132123;0.63;-1.06;0.2;0.79353;-0.609152;0.009585;85.4;0.0;0.0;1.0;0.0;0.0
4.0;1753880919.103186;17.10059;0.51;-1.17;0.18;0.793996;-0.610244;0.01101;86.9;0.0;0.0;1.0;0.0;0.0
4.0;1753880919.107795;17.082921;0.66;-1.06;0.19;0.794765;-0.610154;0.009764;87.2;0.0;0.0;1.0;0.0;0.0
4.0;1753880919.112403;17.1257;0.64;-1.09;0.14;0.792971;-0.609181;0.011353;87.1;0.0;0.0;1.0;0.0;0.0
4.0;1753880919.117011;17.126916;0.65;-1.11;0.1;0.793146;-0.609727;0.010229;87.4;0.0;0.0;1.0;0.0;0.0
4.0;1753880919.121619;17.10601;0.63;-1.19;0.21;0.791978;-0.609238;0.009297;86.2;0.0;0.0;1.0;0.0;0.0
4.0;1753880919.126228;17.113225;0.59;-1.19;0.02;0.792565;-0.607687;0.010592;86.0;0.0;0.0;1.0;0.0;0.0
4.0;1753880919.130836;17.145694;0.72;-1.11;0.1;0.790806;-0.60884;0.009592;87.2;0.0;0.0;1.0;0.0;0.0
4.0;1753880919.135444;17.096217;0.58;-1.12;0.01;0.789434;-0.608417;0.010658;87.2;0.0;0.0;1.0;0.0;0.0
4.0;1753880919.140052;17.121789;0.57;-1.15;0.12;0.793315;-0.609456;0.009847;87.2;0.0;0.0;1.0;0.0;0.0
4.0;1753880919.14466;17.10231;0.58;-1.1;0.15;0.794125;-0.607508;0.010377;84.6;0.0;0.0;1.0;0.0;0.0
4.0;1753880919.149268;17.09847;0.63;-1.16;0.1;0.793832;-0.607902;0.011961;87.2;0.0;0.0;1.0;0.0;0.0
4.0;1753880919.153876;17.101475;0.61;-1.16;0.02;0.791718;-0.609644;0.0105;88.4;0.0;0.0;1.0;0.0;0.0
4.0;1753880919.158484;17.111765;0.58;-1.16;-0.02;0.79252;-0.609832;0.010477;87.2;0.0;0.0;1.0;0.0;0.0
4.0;1753880919.163092;17.090096;0.65;-1.07;0.08;0.791299;-0.609066;0.010534;87.4;0.0;0.0;1.0;0.0;0.0
4.0;1753880919.167701;17.109428;0.71;-1.09;0.09;0.794506;-0.607666;0.010984;86.3;0.0;0.0;1.0;0.0;0.0
4.0;1753880919.172309;17.148399;0.65;-1.16;0.02;0.793198;-0.608664;0.008891;88.1;0.0;0.0;1.0;0.0;0.0
4.0;1753880919.176917;17.094174;0.7;-1.04;0.1;0.793491;-0.609421;0.009511;86.7;0.0;0.0;1.0;0.0;0.0
4.0;1753880919.181525;17.123155;0.73;-1.07;0.02;0.793599;-0.608019;0.011322;87.0;0.0;0.0;1.0;0.0;0.0
4.0;1753880919.186134;17.109512;0.53;-1.2;0.05;0.794018;-0.608556;0.010829;86.6;0.0;0.0;1.0;0.0;0.0
4.0;1753880919.190742;17.101529;0.66;-1.14;0.02;0.792382;-0.608826;0.010295;87.2;0.0;0.0;1.0;0.0;0.0
4.0;1753880919.19535;17.117238;0.7;-1.07;0.08;0.793983;-0.606684;0.009943;86.6;0.0;0.0;1.0;0.0;0.0
4.0;1753880919.1995;17.113281;0.63;-1.12;0.07;0.792878;-0.608292;0.010736;87.0;0.0;0.0;1.0;0.0;0.0
4.0;1753880919.204108;17.113904;0.61;-1.12;-0.01;0.793838;-0.607619;0.010885;87.9;0.0;0.0;1.0;0.0;0.0
4.0;1753880919.208716;17.097047;0.64;-1.14;0.07;0.79291;-0.60859;0.011718;87.1;0.0;0.0;1.0;0.0;0.0
4.0;1753880919.213324;17.133879;0.55;-1.18;0.13;0.791676;-0.607459;0.011064;86.6;0.0;0.0;1.0;0.0;0.0
4.0;1753880919.217933;17.125384;0.68;-1.09;0.12;0.791264;-0.608193;0.01013;87.9;0.0;0.0;1.0;0.0;0.0
4.0;1753880919.222541;17.12161;0.65;-1.13;0.01;0.792405;-0.606912;0.009777;87.2;0.0;0.0;1.0;0.0;0.0
4.0;1753880919.227149;17.107653;0.75;-1.14;0.03;0.792861;-0.608392;0.011112;87.0;0.0;0.0;1.0;0.0;0.0
4.0;1753880919.231757;17.087711;0.72;-1.11;0.06;0.797176;-0.607737;0.009716;86.8;0.0;0.0;1.0;0.0;0.0
4.0;1753880919.236365;17.132069;0.58;-1.11;0.06;0.788956;-0.608952;0.008883;87.2;0.0;0.0;1.0;0.0;0.0
4.0;1753880919.240974;17.100303;0.68;-1.23;0.03;0.795358;-0.608127;0.009043;86.3;0.0;0.0;1.0;0.0;0.0
4.0;1753880919.245582;17.109027;0.57;-1.14;0.09;0.794075;-0.608291;0.010512;87.5;0.0;0.0;1.0;0.0;0.0
4.0;1753880919.25019;17.12362;0.73;-1.13;0.09;0.794652;-0.607655;0.011257;87.3;0.0;0.0;1.0;0.0;0.0
4.0;1753880919.254798;17.132174;0.61;-1.17;0.01;0.791979;-0.606769;0.010635;85.7;0.0;0.0;1.0;0.0;0.0
4.0;1753880919.259406;17.084362;0.65;-1.16;0.07;0.792091;-0.608597;0.010382;87.4;0.0;0.0;1.0;0.0;0.0
4.0;1753880919.264014;17.110242;0.63;-1.16;-0.0;0.793451;-0.608952;0.010801;86.2;0.0;0.0;1.0;0.0;0.0
4.0;1753880919.268622;17.124027;0.53;-1.17;0.03;0.792526;-0.609664;0.010352;87.4;0.0;0.0;1.0;0.0;0.0
4.0;1753880919.27323;17.102188;0.62;-1.07;0.1;0.792943;-0.609625;0.009626;86.4;0.0;0.0;1.0;0.0;0.0
4.0;1753880919.277839;17.112555;0.69;-1.1;0.13;0.791944;-0.608506;0.011008;87.4;0.0;0.0;1.0;0.0;0.0
4.0;1753880919.282447;17.115138;0.56;-1.14;0.11;0.791741;-0.607941;0.009506;87.6;0.0;0.0;1.0;0.0;0.0
4.0;1753880919.287055;17.119148;0.66;-1.18;0.1;0.794714;-0.607524;0.011071;86.6;0.0;0.0;1.0;0.0;0.0
4.0;1753880919.291663;17.127023;0.66;-1.14;0.06;0.793747;-0.608018;0.010461;87.0;0.0;0.0;1.0;0.0;0.0
4.0;1753880919.296271;17.111993;0.55;-1.1;0.02;0.792042;-0.607034;0.010844;86.7;0.0;0.0;1.0;0.0;0.0
4.0;1753880919.30088;17.128825;0.64;-1.15;0.05;0.791251;-0.607722;0.012433;86.9;0.0;0.0;1.0;0.0;0.0
4.0;1753880919.305488;17.11803;0.6;-1.09;0.08;0.793036;-0.608649;0.011065;87.0;0.0;0.0;1.0;0.0;0.0
4.0;1753880919.310096;17.097634;0.68;-1.12;0.05;0.79147;-0.607495;0.011525;86.2;0.0;0.0;1.0;0.0;0.0
4.0;1753880919.314704;17.124437;0.66;-1.11;0.05;0.792112;-0.607813;0.010808;87.5;0.0;0.0;1.0;0.0;0.0
4.0;1753880919.319312;17.118007;0.58;-1.09;0.1;0.793002;-0.608752;0.010775;86.4;0.0;0.0;1.0;0.0;0.0
4.0;1753880919.32392;17.106536;0.63;-1.2;0.17;0.793145;-0.608177;0.012149;87.2;0.0;0.0;1.0;0.0;0.0
4.0;1753880919.328528;17.100227;0.62;-1.06;0.1;0.794699;-0.608722;0.010627;86.7;0.0;0.0;1.0;0.0;0.0
4.0;1753880919.333136;17.107656;0.57;-1.13;0.08;0.79336;-0.607415;0.010548;88.2;0.0;0.0;1.0;0.0;0.0
4.0;1753880919.337745;17.118457;0.57;-1.18;0.08;0.79246;-0.609596;0.010955;87.3;0.0;0.0;1.0;0.0;0.0
4.0;1753880919.342353;17.076862;0.58;-1.07;0.02;0.793;-0.608322;0.011046;87.2;0.0;0.0;1.0;0.0;0.0
4.0;1753880919.346961;17.092745;0.61;-1.21;0.09;0.791879;-0.610031;0.011406;86.9;0.0;0.0;1.0;0.0;0.0
4.0;1753880919.351569;17.116046;0.62;-1.1;0.13;0.79181;-0.608851;0.01198;87.2;0.0;0.0;1.0;0.0;0.0
4.0;1753880919.356177;17.128291;0.53;-1.15;0.12;0.792461;-0.60864;0.011901;87.0;0.0;0.0;1.0;0.0;0.0
4.0;1753880919.360786;17.113007;0.62;-1.16;0.16;0.791696;-0.608151;0.01091;88.0;0.0;0.0;1.0;0.0;0.0
4.0;1753880919.365394;17.136556;0.58;-1.1;0.13;0.791577;-0.608994;0.011201;87.3;0.0;0.0;1.0;0.0;0.0
4.0;1753880919.370002;17.088264;0.57;-1.14;0.14;0.792972;-0.609149;0.01033;86.3;0.0;0.0;1.0;0.0;0.0
4.0;1753880919.37461;17.111533;0.64;-1.11;0.14;0.792386;-0.609379;0.011602;86.6;0.0;0.0;1.0;0.0;0.0
4.0;1753880919.379218;17.082336;0.61;-1.09;0.08;0.792979;-0.607289;0.010407;88.0;0.0;0.0;1.0;0.0;0.0
4.0;1753880919.383826;17.125307;0.57;-1.08;0.08;0.790684;-0.608466;0.010521;88.6;0.0;0.0;1.0;0.0;0.0
4.0;1753880919.388434;17.122242;0.61;-1.1;0.13;0.792759;-0.608427;0.010905;85.8;0.0;0.0;1.0;0.0;0.0
4.0;1753880919.393042;17.137607;0.63;-1.09;0.1;0.791521;-0.608667;0.010856;87.8;0.0;0.0;1.0;0.0;0.0
4.0;1753880919.397651;17.141519;0.62;-1.1;0.15;0.79263;-0.609274;0.010051;86.8;0.0;0.0;1.0;0.0;0.0
4.0;1753880919.402259;17.088085;0.56;-1.15;0.09;0.792728;-0.60887;0.012045;87.0;0.0;0.0;1.0;0.0;0.0
4.0;1753880919.406867;17.116681;0.57;-1.04;0.14;0.790268;-0.608888;0.010798;87.1;0.0;0.0;1.0;0.0;0.0
4.0;1753880919.411475;17.1126;0.6;-1.15;0.09;0.792733;-0.609264;0.009394;86.0;0.0;0.0;1.0;0.0;0.0
4.0;1753880919.416083;17.110564;0.62;-1.08;0.02;0.792835;-0.609565;0.010148;86.2;0.0;0.0;1.0;0.0;0.0
4.0;1753880919.420692;17.128014;0.61;-1.1;0.14;0.792502;-0.609968;0.01119;86.5;0.0;0.0;1.0;0.0;0.0
4.0;1753880919.4253;17.084205;0.67;-1.08;0.15;0.791809;-0.608277;0.012632;86.2;0.0;0.0;1.0;0.0;0.0
4.0;1753880919.429908;17.13196;0.65;-1.15;0.1;0.791912;-0.609569;0.010537;86.3;0.0;0.0;1.0;0.0;0.0
4.0;1753880919.434516;17.125912;0.66;-1.12;0.11;0.792645;-0.609285;0.010371;87.1;0.0;0.0;1.0;0.0;0.0
4.0;1753880919.439124;17.120443;0.49;-1.09;0.15;0.791817;-0.609151;0.010208;86.3;0.0;0.0;1.0;0.0;0.0
4.0;1753880919.443732;17.120609;0.54;-1.13;0.04;0.791306;-0.610015;0.012372;89.1;0.0;0.0;1.0;0.0;0.0
4.0;1753880919.44834;17.101468;0.56;-1.11;0.13;0.792033;-0.610245;0.011209;86.1;0.0;0.0;1.0;0.0;0.0
4.0;1753880919.452948;17.100417;0.65;-1.11;0.05;0.792834;-0.609349;0.012499;88.5;0.0;0.0;1.0;0.0;0.0
4.0;1753880919.457557;17.080679;0.6;-1.1;0.18;0.79333;-0.60909;0.010712;85.8;0.0;0.0;1.0;0.0;0.0
4.0;1753880919.462165;17.088554;0.61;-1.11;0.05;0.791971;-0.609666;0.01178;87.0;0.0;0.0;1.0;0.0;0.0
4.0;1753880919.466773;17.129541;0.55;-1.14;0.08;0.79095;-0.610829;0.010281;87.1;0.0;0.0;1.0;0.0;0.0
4.0;1753880919.471381;17.102824;0.68;-1.13;0.16;0.793346;-0.608212;0.010896;86.6;0.0;0.0;1.0;0.0;0.0
4.0;1753880919.475989;17.132459;0.61;-1.1;0.12;0.793132;-0.610164;0.011465;88.0;0.0;0.0;1.0;0.0;0.0
4.0;1753880919.480598;17.119539;0.6;-1.15;0.07;0.790533;-0.607173;0.011819;87.6;0.0;0.0;1.0;0.0;0.0
4.0;1753880919.485206;17.116279;0.66;-1.19;0.08;0.794005;-0.611178;0.011446;84.4;0.0;0.0;1.0;0.0;0.0
4.0;1753880919.489814;17.114289;0.63;-1.13;0.12;0.793142;-0.611208;0.012526;87.9;0.0;0.0;1.0;0.0;0.0
4.0;1753880919.494422;17.123871;0.59;-1.14;0.17;0.794652;-0.609439;0.010905;87.8;0.0;0.0;1.0;0.0;0.0
4.0;1753880919.49903;17.104167;0.53;-1.12;0.13;0.79202;-0.608305;0.011287;87.5;0.0;0.0;1.0;0.0;0.0
4.0;1753880919.503638;17.09497;0.67;-1.1;0.19;0.79322;-0.610397;0.01028;86.0;0.0;0.0;1.0;0.0;0.0
4.0;1753880919.508246;17.124602;0.55;-1.07;0.07;0.79177;-0.608837;0.010322;85.7;0.0;0.0;1.0;0.0;0.0
4.0;1753880919.512854;17.091221;0.55;-1.15;0.06;0.792201;-0.60846;0.012019;87.7;0.0;0.0;1.0;0.0;0.0
4.0;1753880919.517463;17.093559;0.6;-1.08;0.11;0.792065;-0.608628;0.010595;87.9;0.0;0.0;1.0;0.0;0.0
4.0;1753880919.522071;17.131915;0.65;-1.09;0.08;0.792784;-0.608912;0.011317;88.2;0.0;0.0;1.0;0.0;0.0
4.0;1753880919.526679;17.105088;0.57;-1.11;0.13;0.792338;-0.609246;0.012424;86.2;0.0;0.0;1.0;0.0;0.0
4.0;1753880919.531287;17.096664;0.59;-1.11;0.22;0.791983;-0.606683;0.012196;86.7;0.0;0.0;1.0;0.0;0.0
4.0;1753880919.535895;17.102945;0.68;-1.13;0.06;0.793142;-0.61056;0.011832;86.7;0.0;0.0;1.0;0.0;0.0
4.0;1753880919.540504;17.106773;0.4;-1.06;0.16;0.793371;-0.610235;0.010321;87.7;0.0;0.0;1.0;0.0;0.0
4.0;1753880919.545112;17.136488;0.64;-1.12;0.09;0.793469;-0.60993;0.0128;86.5;0.0;0.0;1.0;0.0;0.0
4.0;1753880919.54972;17.119712;0.56;-1.12;0.11;0.794145;-0.610161;0.009801;86.2;0.0;0.0;1.0;0.0;0.0
4.0;1753880919.554328;17.119939;0.65;-1.09;0.07;0.791807;-0.608612;0.012057;87.5;0.0;0.0;1.0;0.0;0.0
4.0;1753880919.558936;17.107787;0.56;-1.11;0.09;0.79175;-0.610523;0.012489;87.5;0.0;0.0;1.0;0.0;0.0
4.0;1753880919.563544;17.115886;0.62;-1.14;0.05;0.792556;-0.610206;0.011853;88.4;0.0;0.0;1.0;0.0;0.0
4.0;1753880919.568152;17.102395;0.6;-1.18;0.17;0.790558;-0.60835;0.011455;87.2;0.0;0.0;1.0;0.0;0.0
4.0;1753880919.57276;17.096394;0.59;-1.15;0.03;0.791395;-0.609735;0.01119;87.7;0.0;0.0;1.0;0.0;0.0
4.0;1753880919.577369;17.102388;0.57;-1.12;0.17;0.790674;-0.60892;0.012217;87.9;0.0;0.0;1.0;0.0;0.0
4.0;1753880919.581977;17.126359;0.61;-1.13;0.12;0.791722;-0.608782;0.012022;87.9;0.0;0.0;1.0;0.0;0.0
4.0;1753880919.586585;17.09264;0.54;-1.07;0.23;0.793214;-0.610803;0.011959;87.0;0.0;0.0;1.0;0.0;0.0
4.0;1753880919.591193;17.092549;0.56;-1.15;0.21;0.793208;-0.61089;0.011357;86.7;0.0;0.0;1.0;0.0;0.0
4.0;1753880919.595801;17.105683;0.58;-1.1;0.16;0.790839;-0.609664;0.012436;86.5;0.0;0.0;1.0;0.0;0.0
4.0;1753880919.60041;17.114911;0.63;-1.16;0.08;0.794324;-0.609588;0.01062;88.2;0.0;0.0;1.0;0.0;0.0
4.0;1753880919.605018;17.121231;0.52;-1.14;0.12;0.792811;-0.608552;0.011706;86.5;0.0;0.0;1.0;0.0;0.0
4.0;1753880919.609626;17.10701;0.55;-1.11;0.16;0.792415;-0.60975;0.011769;86.8;0.0;0.0;1.0;0.0;0.0
4.0;1753880919.614234;17.096002;0.59;-1.07;0.11;0.791306;-0.609245;0.010764;86.7;0.0;0.0;1.0;0.0;0.0
4.0;1753880919.618842;17.135289;0.52;-1.19;0.1;0.791731;-0.608856;0.011008;87.0;0.0;0.0;1.0;0.0;0.0
4.0;1753880919.62345;17.111162;0.53;-1.09;0.11;0.790781;-0.609093;0.010707;86.5;0.0;0.0;1.0;0.0;0.0
4.0;1753880919.628058;17.098223;0.57;-1.11;0.12;0.791693;-0.609774;0.011278;86.3;0.0;0.0;1.0;0.0;0.0
4.0;1753880919.632666;17.134987;0.58;-1.08;0.17;0.791614;-0.61014;0.011702;86.1;0.0;0.0;1.0;0.0;0.0
4.0;1753880919.637275;17.11361;0.62;-1.1;0.16;0.791462;-0.610757;0.011238;88.2;0.0;0.0;1.0;0.0;0.0
4.0;1753880919.641883;17.112691;0.53;-1.06;0.16;0.789917;-0.60919;0.010959;87.1;0.0;0.0;1.0;0.0;0.0
4.0;1753880919.646491;17.126797;0.7;-1.14;0.21;0.792961;-0.609521;0.011649;87.2;0.0;0.0;1.0;0.0;0.0
4.0;1753880919.651099;17.088341;0.56;-1.06;-0.0;0.793431;-0.612161;0.012333;86.9;0.0;0.0;1.0;0.0;0.0
4.0;1753880919.655707;17.08668;0.6;-1.1;0.1;0.792478;-0.611255;0.011786;87.1;0.0;0.0;1.0;0.0;0.0
4.0;1753880919.660316;17.105276;0.63;-1.13;0.08;0.791106;-0.610022;0.012284;85.7;0.0;0.0;1.0;0.0;0.0
4.0;1753880919.664924;17.103498;0.62;-1.1;0.12;0.790925;-0.610331;0.011919;86.0;0.0;0.0;1.0;0.0;0.0
4.0;1753880919.669532;17.11357;0.71;-1.08;0.13;0.79081;-0.609205;0.01077;88.0;0.0;0.0;1.0;0.0;0.0
4.0;1753880919.67414;17.098835;0.6;-1.13;0.14;0.792019;-0.609364;0.011478;87.9;0.0;0.0;1.0;0.0;0.0
4.0;1753880919.678748;17.111002;0.49;-1.14;0.06;0.791966;-0.611422;0.010692;86.4;0.0;0.0;1.0;0.0;0.0
4.0;1753880919.683356;17.108836;0.61;-1.12;0.16;0.793422;-0.61057;0.011438;86.0;0.0;0.0;1.0;0.0;0.0
4.0;1753880919.687964;17.134665;0.56;-1.1;0.13;0.789449;-0.611462;0.011752;86.9;0.0;0.0;1.0;0.0;0.0
4.0;1753880919.692572;17.116457;0.62;-1.18;0.16;0.792085;-0.609616;0.011359;86.8;0.0;0.0;1.0;0.0;0.0
4.0;1753880919.697181;17.12307;0.56;-1.09;0.16;0.789064;-0.609295;0.0118;86.0;0.0;0.0;1.0;0.0;0.0
4.0;1753880919.701789;17.115007;0.64;-1.03;0.12;0.791504;-0.609271;0.011469;86.3;0.0;0.0;1.0;0.0;0.0
4.0;1753880919.706397;17.083454;0.52;-1.2;0.18;0.792041;-0.6096;0.011546;87.0;0.0;0.0;1.0;0.0;0.0
4.0;1753880919.711005;17.119908;0.56;-1.07;0.15;0.792842;-0.60919;0.011383;87.0;0.0;0.0;1.0;0.0;0.0
4.0;1753880919.715613;17.120645;0.53;-1.08;0.03;0.792849;-0.609142;0.011518;86.9;0.0;0.0;1.0;0.0;0.0
4.0;1753880919.720222;17.121967;0.55;-1.1;0.1;0.79066;-0.609942;0.010552;87.1;0.0;0.0;1.0;0.0;0.0
4.0;1753880919.72483;17.139191;0.49;-1.14;0.06;0.791603;-0.611159;0.011012;86.0;0.0;0.0;1.0;0.0;0.0
4.0;1753880919.729438;17.121977;0.66;-1.17;0.13;0.79067;-0.611678;0.011023;87.6;0.0;0.0;1.0;0.0;0.0
4.0;1753880919.734046;17.110101;0.61;-1.12;0.2;0.792451;-0.612906;0.010627;87.4;0.0;0.0;1.0;0.0;0.0
4.0;1753880919.738654;17.117782;0.57;-1.1;0.18;0.791001;-0.609124;0.01092;87.1;0.0;0.0;1.0;0.0;0.0
4.0;1753880919.743262;17.102709;0.45;-1.19;0.16;0.793061;-0.609656;0.012069;88.0;0.0;0.0;1.0;0.0;0.0
4.0;1753880919.74787;17.140475;0.56;-1.08;0.22;0.791468;-0.612386;0.011249;86.7;0.0;0.0;1.0;0.0;0.0
4.0;1753880919.752478;17.134431;0.61;-1.13;0.19;0.791571;-0.608262;0.010729;87.1;0.0;0.0;1.0;0.0;0.0
4.0;1753880919.757087;17.108415;0.65;-1.07;0.19;0.792125;-0.610724;0.010572;86.9;0.0;0.0;1.0;0.0;0.0
4.0;1753880919.761695;17.099125;0.45;-1.11;0.14;0.792475;-0.608003;0.011289;86.4;0.0;0.0;1.0;0.0;0.0
4.0;1753880919.766303;17.098588;0.58;-1.07;0.1;0.791591;-0.608769;0.01;87.9;0.0;0.0;1.0;0.0;0.0
4.0;1753880919.770911;17.107075;0.57;-1.19;0.08;0.791042;-0.610127;0.01001;87.4;0.0;0.0;1.0;0.0;0.0
4.0;1753880919.775519;17.085521;0.6;-1.15;0.09;0.792759;-0.610725;0.010412;85.5;0.0;0.0;1.0;0.0;0.0
4.0;1753880919.780128;17.108901;0.59;-1.19;0.09;0.79256;-0.610842;0.011247;87.3;0.0;0.0;1.0;0.0;0.0
4.0;1753880919.784736;17.133259;0.62;-1.13;0.17;0.790663;-0.610779;0.012311;86.9;0.0;0.0;1.0;0.0;0.0
4.0;1753880919.789344;17.123792;0.58;-1.15;0.17;0.790835;-0.609384;0.010982;85.7;0.0;0.0;1.0;0.0;0.0
4.0;1753880919.793952;17.111787;0.53;-1.12;0.13;0.789882;-0.612063;0.011841;86.0;0.0;0.0;1.0;0.0;0.0
4.0;1753880919.79856;17.120004;0.54;-1.15;0.2;0.79025;-0.609743;0.011716;87.5;0.0;0.0;1.0;0.0;0.0
4.0;1753880919.803168;17.113935;0.5;-1.12;0.12;0.792832;-0.610281;0.010733;87.7;0.0;0.0;1.0;0.0;0.0
4.0;1753880919.807776;17.10014;0.58;-1.15;0.15;0.79234;-0.609367;0.011855;86.3;0.0;0.0;1.0;0.0;0.0
4.0;1753880919.812384;17.116151;0.47;-1.11;0.16;0.793399;-0.610508;0.012515;88.0;0.0;0.0;1.0;0.0;0.0
4.0;1753880919.816993;17.094289;0.61;-1.13;0.21;0.791287;-0.609238;0.011857;86.2;0.0;0.0;1.0;0.0;0.0
4.0;1753880919.821601;17.099803;0.64;-1.14;0.1;0.790992;-0.610283;0.011955;86.5;0.0;0.0;1.0;0.0;0.0
4.0;1753880919.826209;17.111009;0.65;-1.17;0.15;0.79153;-0.610957;0.011482;88.1;0.0;0.0;1.0;0.0;0.0
4.0;1753880919.830817;17.112519;0.53;-1.18;0.16;0.790483;-0.610412;0.011667;88.6;0.0;0.0;1.0;0.0;0.0
4.0;1753880919.835426;17.117711;0.59;-1.12;0.06;0.79099;-0.611662;0.011069;88.5;0.0;0.0;1.0;0.0;0.0
4.0;1753880919.840034;17.130197;0.53;-1.14;0.14;0.790895;-0.60963;0.012375;86.9;0.0;0.0;1.0;0.0;0.0
4.0;1753880919.848;17.113281;0.56;-1.12;0.14;0.791658;-0.61061;0.01159;87.0;0.0;0.0;1.0;0.0;0.0
4.0;1753880919.84864;17.105469;0.56;-1.19;0.07;0.790804;-0.60878;0.01037;90.0;0.0;0.0;1.0;0.0;0.0
4.0;1753880919.853248;17.109913;0.63;-1.25;0.06;0.790922;-0.609492;0.011095;91.6;0.0;0.0;1.0;0.0;0.0
4.0;1753880919.857856;17.138825;0.59;-1.18;0.08;0.79156;-0.610917;0.011008;92.1;0.0;0.0;1.0;0.0;0.0
4.0;1753880919.862464;17.122803;0.7;-1.3;0.11;0.790949;-0.609003;0.011759;90.2;0.0;0.0;1.0;0.0;0.0
4.0;1753880919.867072;17.15139;0.52;-1.22;0.12;0.793091;-0.608268;0.010013;89.6;0.0;0.0;1.0;0.0;0.0
4.0;1753880919.871681;17.151558;0.64;-1.13;0.11;0.789486;-0.610173;0.010663;89.5;0.0;0.0;1.0;0.0;0.0
4.0;1753880919.876289;17.140657;0.7;-1.25;0.12;0.792083;-0.609301;0.01122;91.7;0.0;0.0;1.0;0.0;0.0
4.0;1753880919.88252;17.121094;0.7;-1.19;0.14;0.792024;-0.609268;0.011834;90.0;0.0;0.0;1.0;0.0;0.0
4.0;1753880919.887128;17.125743;0.68;-1.15;0.2;0.791823;-0.611196;0.011583;91.6;0.0;0.0;1.0;0.0;0.0
4.0;1753880919.891736;17.121085;0.68;-1.24;0.1;0.789639;-0.609781;0.01078;88.1;0.0;0.0;1.0;0.0;0.0
4.0;1753880919.896344;17.131509;0.74;-1.2;0.12;0.791748;-0.607021;0.011586;90.5;0.0;0.0;1.0;0.0;0.0
4.0;1753880919.900952;17.154624;0.63;-1.2;0.15;0.790923;-0.610627;0.010651;90.9;0.0;0.0;1.0;0.0;0.0
4.0;1753880919.90556;17.113683;0.73;-1.23;0.1;0.791354;-0.609461;0.011613;91.8;0.0;0.0;1.0;0.0;0.0
4.0;1753880919.910169;17.127435;0.73;-1.27;0.16;0.790356;-0.608283;0.010543;90.7;0.0;0.0;1.0;0.0;0.0
4.0;1753880919.914777;17.12449;0.64;-1.24;0.1;0.791231;-0.609673;0.010583;89.7;0.0;0.0;1.0;0.0;0.0
4.0;1753880919.919385;17.13517;0.73;-1.24;0.09;0.789936;-0.60978;0.010918;89.6;0.0;0.0;1.0;0.0;0.0
4.0;1753880919.923993;17.121837;0.72;-1.25;0.04;0.790251;-0.610192;0.012543;87.6;0.0;0.0;1.0;0.0;0.0
4.0;1753880919.928601;17.126671;0.64;-1.18;0.08;0.791353;-0.608334;0.01129;89.7;0.0;0.0;1.0;0.0;0.0
4.0;1753880919.93321;17.125457;0.66;-1.3;0.07;0.791231;-0.609358;0.010564;88.6;0.0;0.0;1.0;0.0;0.0
4.0;1753880919.937818;17.119459;0.84;-1.33;0.07;0.788718;-0.60935;0.011967;90.0;0.0;0.0;1.0;0.0;0.0
4.0;1753880919.942426;17.121893;0.65;-1.23;0.06;0.792524;-0.6076;0.010804;93.1;0.0;0.0;1.0;0.0;0.0
4.0;1753880919.94735;17.121094;0.7;-1.26;0.07;0.790682;-0.609024;0.011346;89.0;0.0;0.0;1.0;0.0;0.0
4.0;1753880919.951958;17.097045;0.74;-1.31;0.06;0.792226;-0.609429;0.011802;89.6;0.0;0.0;1.0;0.0;0.0
4.0;1753880919.956566;17.111538;0.67;-1.25;0.06;0.790816;-0.607907;0.01176;89.5;0.0;0.0;1.0;0.0;0.0
4.0;1753880919.961174;17.111896;0.73;-1.28;0.06;0.789555;-0.609956;0.010551;88.6;0.0;0.0;1.0;0.0;0.0
4.0;1753880919.965783;17.127509;0.81;-1.18;0.09;0.793169;-0.609764;0.011184;89.9;0.0;0.0;1.0;0.0;0.0
4.0;1753880919.97416;17.121094;0.63;-1.19;0.07;0.79178;-0.609756;0.01037;89.0;0.0;0.0;1.0;0.0;0.0
4.0;1753880919.979046;17.128906;0.77;-0.91;-28.14;0.903776;-0.433466;0.002806;86.0;0.0;0.0;1.0;0.0;0.0
4.0;1753880919.980254;17.105469;0.77;-0.77;-28.56;0.894382;-0.448594;-0.000488;86.0;0.0;0.0;1.0;0.0;0.0
4.0;1753880919.984862;17.095273;0.72;-0.64;-29.51;0.895659;-0.410971;-0.0143;86.5;0.0;0.0;1.0;0.0;0.0
4.0;1753880919.989295;17.105469;0.63;-0.84;-29.26;0.904996;-0.418704;-0.001464;86.0;0.0;0.0;1.0;0.0;0.0
4.0;1753880919.993957;17.105469;0.28;-0.7;-29.82;0.905972;-0.422974;-0.002074;86.0;0.0;0.0;1.0;0.0;0.0
4.0;1753880919.998404;17.070312;0.35;-0.77;-30.24;0.905972;-0.422974;-0.002074;86.0;0.0;0.0;1.0;0.0;0.0
4.0;1753880920.003012;17.047416;0.25;-0.79;-28.37;0.90484;-0.44586;-0.011728;87.2;0.0;0.0;1.0;0.0;0.0
4.0;1753880920.00762;17.039014;0.2;-0.6;-32.55;0.903914;-0.431528;-0.000698;87.4;0.0;0.0;1.0;0.0;0.0
4.0;1753880920.012228;17.076738;0.48;-0.35;-33.6;0.890086;-0.398308;-0.004866;85.5;0.0;0.0;1.0;0.0;0.0
4.0;1753880920.016837;17.098776;0.13;-0.94;-32.89;0.939304;-0.425994;0.004129;86.0;0.0;0.0;1.0;0.0;0.0
4.0;1753880920.021445;17.051186;0.41;-0.73;-31.08;0.912113;-0.427519;-0.004859;86.0;0.0;0.0;1.0;0.0;0.0
4.0;1753880920.026053;17.065505;0.13;-0.78;-28.64;0.916712;-0.427418;0.000589;85.3;0.0;0.0;1.0;0.0;0.0
4.0;1753880920.030661;17.086208;0.48;-0.78;-31.5;0.905216;-0.411446;0.011624;85.2;0.0;0.0;1.0;0.0;0.0
4.0;1753880920.035269;17.071307;0.66;-0.75;-28.56;0.90936;-0.447398;-0.005352;85.6;0.0;0.0;1.0;0.0;0.0
4.0;1753880920.039878;17.018032;0.39;-0.68;-27.29;0.902435;-0.409142;-0.008203;86.2;0.0;0.0;1.0;0.0;0.0
4.0;1753880920.044486;17.054886;0.47;-0.69;-28.58;0.903749;-0.42138;0.007982;87.2;0.0;0.0;1.0;0.0;0.0
4.0;1753880920.049094;17.041454;0.04;-0.96;-30.79;0.910435;-0.397858;-0.014809;85.0;0.0;0.0;1.0;0.0;0.0
4.0;1753880920.053702;17.091509;0.63;-0.93;-29.3;0.898686;-0.376276;-0.005207;83.6;0.0;0.0;1.0;0.0;0.0
4.0;1753880920.05831;17.075582;0.43;-0.77;-28.6;0.925503;-0.470843;-0.003039;84.4;0.0;0.0;1.0;0.0;0.0
4.0;1753880920.062918;17.097193;0.31;-0.7;-31.31;0.906091;-0.435372;0.001572;83.7;0.0;0.0;1.0;0.0;0.0
4.0;1753880920.067526;17.067768;0.31;-0.48;-30.92;0.918346;-0.424315;0.005548;84.9;0.0;0.0;1.0;0.0;0.0
4.0;1753880920.072134;17.071721;0.28;-0.97;-29.01;0.908198;-0.386639;-0.001314;81.8;0.0;0.0;1.0;0.0;0.0
4.0;1753880920.076743;17.064694;0.01;-0.57;-33.19;0.905253;-0.444896;0.004295;85.4;0.0;0.0;1.0;0.0;0.0
4.0;1753880920.081351;17.076109;0.3;-0.65;-32.94;0.936938;-0.417015;-0.012433;83.7;0.0;0.0;1.0;0.0;0.0
4.0;1753880920.085959;17.049291;0.19;-0.76;-35.52;0.898929;-0.410418;-0.006119;85.9;0.0;0.0;1.0;0.0;0.0
4.0;1753880920.090567;17.065539;0.38;-0.77;-31.51;0.90369;-0.424607;0.006676;82.9;0.0;0.0;1.0;0.0;0.0
4.0;1753880920.095175;17.074721;0.55;-0.93;-28.02;0.888787;-0.458876;-0.002664;84.5;0.0;0.0;1.0;0.0;0.0
4.0;1753880920.099784;17.06253;0.47;-0.94;-29.12;0.893669;-0.451334;0.0073;85.6;0.0;0.0;1.0;0.0;0.0
4.0;1753880920.104392;17.053547;0.46;-0.6;-29.38;0.897062;-0.439852;-0.001909;85.9;0.0;0.0;1.0;0.0;0.0
4.0;1753880920.109;17.085835;0.3;-0.71;-30.54;0.913644;-0.469905;0.018481;87.1;0.0;0.0;1.0;0.0;0.0
4.0;1753880920.113608;17.08975;0.15;-0.76;-35.49;0.892837;-0.39968;-0.010918;86.0;0.0;0.0;1.0;0.0;0.0
4.0;1753880920.118216;17.041495;0.36;-0.83;-31.26;0.882575;-0.421649;-0.009591;85.7;0.0;0.0;1.0;0.0;0.0
4.0;1753880920.122824;17.079966;0.32;-0.85;-28.33;0.897835;-0.458512;0.000269;85.6;0.0;0.0;1.0;0.0;0.0
4.0;1753880920.127432;17.078472;0.23;-1.0;-30.91;0.906154;-0.435937;-0.003847;85.1;0.0;0.0;1.0;0.0;0.0
4.0;1753880920.13204;17.079446;0.28;-0.8;-26.92;0.922717;-0.415956;-0.02224;89.2;0.0;0.0;1.0;0.0;0.0
4.0;1753880920.136649;17.096809;0.3;-0.69;-34.06;0.90587;-0.430473;-0.006476;88.2;0.0;0.0;1.0;0.0;0.0
4.0;1753880920.141257;17.067918;0.36;-0.49;-30.36;0.909133;-0.428946;-0.00018;86.8;0.0;0.0;1.0;0.0;0.0
4.0;1753880920.145865;17.062498;0.34;-1.03;-29.58;0.920811;-0.44802;0.006774;87.1;0.0;0.0;1.0;0.0;0.0
4.0;1753880920.150473;17.046627;0.57;-0.61;-30.27;0.91612;-0.422893;0.00738;86.6;0.0;0.0;1.0;0.0;0.0
4.0;1753880920.155081;17.079075;0.23;-0.67;-30.68;0.894884;-0.432102;0.007428;88.1;0.0;0.0;1.0;0.0;0.0
4.0;1753880920.15969;17.091333;-0.16;-0.62;-30.13;0.899355;-0.420737;0.000288;86.6;0.0;0.0;1.0;0.0;0.0
4.0;1753880920.164298;17.054084;0.4;-0.78;-26.4;0.923987;-0.415528;0.011277;85.2;0.0;0.0;1.0;0.0;0.0
4.0;1753880920.168906;17.066718;0.48;-0.5;-32.77;0.906579;-0.370768;-0.01664;84.4;0.0;0.0;1.0;0.0;0.0
4.0;1753880920.173514;17.044754;0.2;-0.5;-29.66;0.915728;-0.415293;-0.00242;88.3;0.0;0.0;1.0;0.0;0.0
4.0;1753880920.178122;17.072384;0.11;-0.72;-30.52;0.927345;-0.410986;-0.017965;86.7;0.0;0.0;1.0;0.0;0.0
4.0;1753880920.18273;17.02896;0.01;-0.4;-32.76;0.899018;-0.434034;0.002407;85.1;0.0;0.0;1.0;0.0;0.0
4.0;1753880920.187338;17.083075;0.09;-0.61;-32.61;0.916621;-0.417706;-0.0028;89.0;0.0;0.0;1.0;0.0;0.0
4.0;1753880920.191946;17.080313;0.1;-0.68;-28.64;0.9142;-0.403473;0.000127;90.2;0.0;0.0;1.0;0.0;0.0
4.0;1753880920.196555;17.085541;-0.05;-0.8;-27.39;0.912306;-0.450701;0.010125;86.2;0.0;0.0;1.0;0.0;0.0
4.0;1753880920.201163;17.102078;0.55;-0.69;-33.9;0.902703;-0.456263;-0.00086;87.9;0.0;0.0;1.0;0.0;0.0
4.0;1753880920.205771;17.053934;0.04;-0.68;-33.7;0.900978;-0.414729;-0.005969;85.6;0.0;0.0;1.0;0.0;0.0
4.0;1753880920.210379;17.065601;0.14;-0.7;-30.44;0.893586;-0.433149;-0.006837;86.2;0.0;0.0;1.0;0.0;0.0
4.0;1753880920.214987;17.042589;0.21;-0.74;-30.57;0.88621;-0.404928;-0.001759;85.2;0.0;0.0;1.0;0.0;0.0
4.0;1753880920.219596;17.07044;0.46;-0.62;-28.13;0.877565;-0.431464;-0.009445;87.2;0.0;0.0;1.0;0.0;0.0
4.0;1753880920.224204;17.088775;0.13;-0.93;-31.36;0.894404;-0.430726;-0.003333;87.0;0.0;0.0;1.0;0.0;0.0
4.0;1753880920.228812;17.023647;0.44;-0.45;-31.15;0.910045;-0.42714;-0.009088;86.4;0.0;0.0;1.0;0.0;0.0
4.0;1753880920.23342;17.037087;0.59;-0.95;-29.0;0.916022;-0.430614;-0.004155;86.4;0.0;0.0;1.0;0.0;0.0
4.0;1753880920.238028;17.02421;0.56;-1.05;-30.92;0.913847;-0.41556;0.011349;87.4;0.0;0.0;1.0;0.0;0.0
4.0;1753880920.242636;17.113086;0.03;-0.8;-30.86;0.901829;-0.451208;-0.002663;87.2;0.0;0.0;1.0;0.0;0.0
4.0;1753880920.247244;17.078688;0.2;-1.06;-34.02;0.909397;-0.414028;-0.004618;87.0;0.0;0.0;1.0;0.0;0.0
4.0;1753880920.251852;17.083186;0.27;-0.57;-28.67;0.910101;-0.445348;-0.011198;84.8;0.0;0.0;1.0;0.0;0.0
4.0;1753880920.256461;17.027636;0.33;-0.55;-27.55;0.895286;-0.421056;-0.010377;86.7;0.0;0.0;1.0;0.0;0.0
4.0;1753880920.261069;17.066658;0.12;-0.91;-26.55;0.922642;-0.415723;-8.5e-05;86.9;0.0;0.0;1.0;0.0;0.0
4.0;1753880920.265677;17.053878;0.5;-0.85;-30.17;0.879829;-0.428091;0.012144;88.0;0.0;0.0;1.0;0.0;0.0
4.0;1753880920.270285;17.071009;0.14;-0.63;-32.01;0.902815;-0.482182;-0.003202;88.1;0.0;0.0;1.0;0.0;0.0
4.0;1753880920.274893;17.061844;0.07;-0.88;-30.93;0.888493;-0.405848;-0.01336;86.6;0.0;0.0;1.0;0.0;0.0
4.0;1753880920.279502;17.088902;0.07;-0.83;-29.36;0.904574;-0.404037;0.000408;84.1;0.0;0.0;1.0;0.0;0.0
4.0;1753880920.28411;17.093739;0.36;-0.72;-33.21;0.89883;-0.427342;0.011859;86.1;0.0;0.0;1.0;0.0;0.0
4.0;1753880920.288718;17.067662;0.56;-0.49;-33.57;0.914999;-0.406586;-0.002716;84.3;0.0;0.0;1.0;0.0;0.0
4.0;1753880920.293326;17.086181;0.16;-0.96;-32.34;0.892427;-0.432799;0.011234;84.7;0.0;0.0;1.0;0.0;0.0
4.0;1753880920.297934;17.057771;0.23;-0.57;-34.63;0.893988;-0.447289;0.003383;85.7;0.0;0.0;1.0;0.0;0.0
4.0;1753880920.306;17.070312;0.21;-0.77;-30.8;0.902556;-0.42761;-0.00183;86.0;0.0;0.0;1.0;0.0;0.0
4.0;1753880920.310608;17.046523;0.0;-0.84;-32.02;0.907386;-0.415945;-0.013352;83.5;0.0;0.0;1.0;0.0;0.0
4.0;1753880920.315216;17.099333;-0.16;-0.53;-28.38;0.888658;-0.428269;0.002124;82.9;0.0;0.0;1.0;0.0;0.0
4.0;1753880920.319824;17.078413;0.28;-0.76;-28.61;0.89816;-0.397962;-0.006696;88.4;0.0;0.0;1.0;0.0;0.0
4.0;1753880920.324432;17.03799;0.09;-0.53;-31.14;0.89682;-0.381214;-0.006964;84.1;0.0;0.0;1.0;0.0;0.0
4.0;1753880920.32904;17.088523;-0.03;-0.85;-29.97;0.921457;-0.403419;0.012401;86.4;0.0;0.0;1.0;0.0;0.0
4.0;1753880920.333649;17.099329;0.3;-1.09;-29.89;0.914694;-0.414117;0.003795;84.5;0.0;0.0;1.0;0.0;0.0
4.0;1753880920.338257;17.076474;-0.14;-0.81;-29.93;0.909813;-0.393659;0.007725;87.1;0.0;0.0;1.0;0.0;0.0
4.0;1753880920.342865;17.118633;0.36;-0.69;-30.67;0.888789;-0.395077;-0.000856;85.2;0.0;0.0;1.0;0.0;0.0
4.0;1753880920.347473;17.070342;0.16;-0.54;-33.92;0.929536;-0.443512;0.006029;83.8;0.0;0.0;1.0;0.0;0.0
4.0;1753880920.352081;17.097185;0.13;-0.57;-31.26;0.901905;-0.426869;0.015021;89.4;0.0;0.0;1.0;0.0;0.0
4.0;1753880920.35669;17.119548;0.12;-0.72;-31.87;0.907401;-0.435281;0.011896;86.6;0.0;0.0;1.0;0.0;0.0
4.0;1753880920.361298;17.114539;-0.18;-0.86;-31.1;0.910851;-0.363918;0.002407;87.2;0.0;0.0;1.0;0.0;0.0
4.0;1753880920.365906;17.120889;0.32;-0.52;-30.1;0.918461;-0.424468;0.009208;85.3;0.0;0.0;1.0;0.0;0.0
4.0;1753880920.370514;17.105986;-0.04;-0.61;-31.55;0.907432;-0.375046;0.003172;85.4;0.0;0.0;1.0;0.0;0.0
4.0;1753880920.375122;17.079877;-0.14;-0.66;-31.3;0.932358;-0.396474;-0.014093;88.2;0.0;0.0;1.0;0.0;0.0
4.0;1753880920.37973;17.148749;0.11;-0.8;-30.58;0.899937;-0.445204;-0.005156;85.8;0.0;0.0;1.0;0.0;0.0
4.0;1753880920.384338;17.099482;-0.06;-0.63;-32.46;0.906891;-0.362365;0.004547;87.0;0.0;0.0;1.0;0.0;0.0
4.0;1753880920.388946;17.128304;0.07;-0.54;-29.86;0.915701;-0.395268;0.000947;84.9;0.0;0.0;1.0;0.0;0.0
4.0;1753880920.393555;17.141935;0.04;-0.39;-31.56;0.938652;-0.414956;0.013808;86.0;0.0;0.0;1.0;0.0;0.0
4.0;1753880920.40038;17.136719;0.07;-0.56;-31.71;0.923296;-0.393084;0.00671;87.0;0.0;0.0;1.0;0.0;0.0
4.0;1753880920.404988;17.142618;0.42;-0.45;-28.88;0.928229;-0.376629;0.005239;86.7;0.0;0.0;1.0;0.0;0.0
4.0;1753880920.409596;17.137809;0.21;-0.77;-30.4;0.922517;-0.410879;0.008868;83.5;0.0;0.0;1.0;0.0;0.0
4.0;1753880920.414204;17.135971;0.21;-0.52;-31.32;0.932891;-0.341095;-0.00064;87.1;0.0;0.0;1.0;0.0;0.0
4.0;1753880920.418812;17.140161;-0.22;-0.61;-30.72;0.925465;-0.394113;0.009428;85.5;0.0;0.0;1.0;0.0;0.0
4.0;1753880920.42342;17.097322;0.17;-0.59;-29.0;0.917838;-0.356702;0.000412;87.0;0.0;0.0;1.0;0.0;0.0
4.0;1753880920.428028;17.10853;0.01;-0.21;-31.58;0.915685;-0.365814;0.003208;88.6;0.0;0.0;1.0;0.0;0.0
4.0;1753880920.432637;17.101571;-0.16;-1.02;-29.26;0.913079;-0.374568;0.005021;88.9;0.0;0.0;1.0;0.0;0.0
4.0;1753880920.437245;17.094095;0.13;-0.34;-30.81;0.905499;-0.390837;0.000653;88.0;0.0;0.0;1.0;0.0;0.0
4.0;1753880920.441853;17.122626;0.03;-0.86;-31.88;0.896804;-0.390224;0.003298;87.6;0.0;0.0;1.0;0.0;0.0
4.0;1753880920.4501;17.136719;0.07;-0.56;-31.5;0.914634;-0.386984;0.004636;87.0;0.0;0.0;1.0;0.0;0.0
4.0;1753880920.454708;17.136898;0.38;-0.53;-29.88;0.915302;-0.384445;0.007456;85.3;0.0;0.0;1.0;0.0;0.0
4.0;1753880920.459316;17.137349;0.15;-0.52;-30.87;0.912758;-0.362932;0.018701;87.0;0.0;0.0;1.0;0.0;0.0
4.0;1753880920.463924;17.13163;0.1;-0.66;-33.77;0.917722;-0.370343;0.012057;87.7;0.0;0.0;1.0;0.0;0.0
4.0;1753880920.468532;17.123936;-0.05;-0.43;-30.79;0.927758;-0.418642;-0.00288;85.3;0.0;0.0;1.0;0.0;0.0
4.0;1753880920.473141;17.14823;0.1;-0.55;-33.35;0.918371;-0.385338;0.010854;87.9;0.0;0.0;1.0;0.0;0.0
4.0;1753880920.477749;17.158014;-0.34;-0.65;-32.02;0.931042;-0.357832;0.011108;84.9;0.0;0.0;1.0;0.0;0.0
4.0;1753880920.482357;17.172199;0.1;-0.64;-32.69;0.899356;-0.342902;0.000251;86.9;0.0;0.0;1.0;0.0;0.0
4.0;1753880920.486965;17.127382;0.45;-0.37;-30.27;0.924142;-0.393656;0.022008;86.2;0.0;0.0;1.0;0.0;0.0
4.0;1753880920.4938;17.136719;0.14;-0.49;-30.8;0.91866;-0.391254;0.005124;87.0;0.0;0.0;1.0;0.0;0.0
4.0;1753880920.498408;17.128564;0.19;-0.45;-34.54;0.923599;-0.404513;0.013045;88.4;0.0;0.0;1.0;0.0;0.0
4.0;1753880920.503016;17.147298;-0.26;-0.67;-31.69;0.918613;-0.395226;0.008775;87.9;0.0;0.0;1.0;0.0;0.0
4.0;1753880920.507624;17.067537;-0.21;-0.51;-28.85;0.919628;-0.388055;0.001544;87.9;0.0;0.0;1.0;0.0;0.0
4.0;1753880920.512232;17.123698;0.46;-0.17;-29.59;0.913544;-0.420267;0.006752;87.0;0.0;0.0;1.0;0.0;0.0
4.0;1753880920.51684;17.124087;-0.57;-0.64;-29.89;0.925287;-0.386945;0.005102;87.3;0.0;0.0;1.0;0.0;0.0
4.0;1753880920.521448;17.102487;-0.15;-0.49;-33.26;0.918378;-0.389993;0.00535;86.8;0.0;0.0;1.0;0.0;0.0
4.0;1753880920.526057;17.13931;0.33;-0.8;-31.06;0.897488;-0.387682;0.007195;89.5;0.0;0.0;1.0;0.0;0.0
4.0;1753880920.530665;17.119285;0.12;-0.71;-33.1;0.92283;-0.394914;0.011736;87.5;0.0;0.0;1.0;0.0;0.0
4.0;1753880920.53609;17.089844;-0.07;-0.56;-31.29;0.916098;-0.399428;0.005734;87.0;0.0;0.0;1.0;0.0;0.0
4.0;1753880920.540698;17.068255;0.19;-0.37;-31.74;0.930014;-0.375395;-0.006151;84.5;0.0;0.0;1.0;0.0;0.0
4.0;1753880920.545306;17.091345;-0.23;-0.62;-28.32;0.915426;-0.417556;0.009469;85.8;0.0;0.0;1.0;0.0;0.0
4.0;1753880920.549914;17.052207;0.65;-0.56;-31.54;0.922367;-0.397669;0.015936;87.8;0.0;0.0;1.0;0.0;0.0
4.0;1753880920.554522;17.131163;-0.23;-0.23;-32.67;0.92354;-0.378159;0.011671;86.0;0.0;0.0;1.0;0.0;0.0
4.0;1753880920.559131;17.101039;-0.31;-0.85;-33.17;0.929657;-0.411887;0.015885;89.4;0.0;0.0;1.0;0.0;0.0
4.0;1753880920.563739;17.092411;-0.24;-0.48;-28.47;0.917543;-0.403978;0.020726;89.3;0.0;0.0;1.0;0.0;0.0
4.0;1753880920.568347;17.109412;0.08;-0.8;-31.33;0.923946;-0.33396;0.009415;84.6;0.0;0.0;1.0;0.0;0.0
4.0;1753880920.572955;17.083742;0.39;-0.54;-30.51;0.921064;-0.386506;0.010687;86.6;0.0;0.0;1.0;0.0;0.0
4.0;1753880920.577563;17.068076;0.6;-0.29;-32.06;0.927467;-0.426119;0.009162;86.7;0.0;0.0;1.0;0.0;0.0
4.0;1753880920.582172;17.103596;0.17;-0.15;-31.37;0.923287;-0.36178;0.013404;88.7;0.0;0.0;1.0;0.0;0.0
4.0;1753880920.58678;17.125827;-0.16;-0.43;-31.65;0.924457;-0.372242;0.005989;87.9;0.0;0.0;1.0;0.0;0.0
4.0;1753880920.591388;17.077059;0.03;-0.17;-29.38;0.932621;-0.350065;0.02146;85.4;0.0;0.0;1.0;0.0;0.0
4.0;1753880920.595996;17.118041;-0.26;-0.72;-30.7;0.93196;-0.431193;0.008458;86.6;0.0;0.0;1.0;0.0;0.0
4.0;1753880920.600604;17.104583;-0.07;-0.76;-30.42;0.911788;-0.416458;0.017607;86.3;0.0;0.0;1.0;0.0;0.0
4.0;1753880920.605212;17.073726;-0.37;-0.55;-31.32;0.933522;-0.381172;0.018422;86.8;0.0;0.0;1.0;0.0;0.0
4.0;1753880920.60982;17.096093;-0.65;-0.24;-31.6;0.925655;-0.402367;0.013342;87.4;0.0;0.0;1.0;0.0;0.0
4.0;1753880920.61681;17.089844;-0.21;-0.49;-31.5;0.925126;-0.37515;0.016958;87.0;0.0;0.0;1.0;0.0;0.0
4.0;1753880920.62166;17.089844;0.0;-0.56;-30.66;0.925492;-0.376126;0.016592;87.0;0.0;0.0;1.0;0.0;0.0
4.0;1753880920.626268;17.073967;0.25;-0.64;-29.73;0.916454;-0.366438;0.013412;87.1;0.0;0.0;1.0;0.0;0.0
4.0;1753880920.630876;17.111482;0.2;-0.64;-29.37;0.933519;-0.405844;0.01167;86.2;0.0;0.0;1.0;0.0;0.0
4.0;1753880920.635484;17.066075;-0.55;-0.27;-29.23;0.932789;-0.365414;0.002746;87.3;0.0;0.0;1.0;0.0;0.0
4.0;1753880920.640092;17.07447;0.54;-0.63;-30.01;0.930657;-0.349664;0.015484;87.2;0.0;0.0;1.0;0.0;0.0
4.0;1753880920.6447;17.103516;0.21;-0.46;-29.18;0.920215;-0.329775;0.02588;88.8;0.0;0.0;1.0;0.0;0.0
4.0;1753880920.649309;17.099275;0.0;-0.32;-30.7;0.957435;-0.398463;0.025649;85.4;0.0;0.0;1.0;0.0;0.0
4.0;1753880920.653917;17.102218;0.13;-0.26;-30.0;0.924633;-0.354817;0.016901;86.7;0.0;0.0;1.0;0.0;0.0
4.0;1753880920.658525;17.080239;-0.06;-0.31;-31.02;0.934507;-0.373411;0.015269;87.1;0.0;0.0;1.0;0.0;0.0
4.0;1753880920.663133;17.127714;-0.37;-0.69;-30.38;0.910165;-0.356258;0.023263;87.9;0.0;0.0;1.0;0.0;0.0
4.0;1753880920.667741;17.103036;-0.1;-0.75;-29.61;0.947816;-0.407356;0.020875;87.0;0.0;0.0;1.0;0.0;0.0
4.0;1753880920.67576;17.089844;-0.07;-0.49;-30.24;0.927078;-0.383202;0.02196;87.0;0.0;0.0;1.0;0.0;0.0
4.0;1753880920.680368;17.065174;-0.24;-0.54;-29.47;0.930102;-0.342023;0.039411;85.6;0.0;0.0;1.0;0.0;0.0
4.0;1753880920.684976;17.118806;-0.27;-0.47;-30.61;0.933287;-0.403859;0.028584;86.7;0.0;0.0;1.0;0.0;0.0
4.0;1753880920.689584;17.089164;0.12;-0.58;-31.12;0.927716;-0.402019;0.017573;87.4;0.0;0.0;1.0;0.0;0.0
4.0;1753880920.694192;17.081922;-0.03;-0.36;-30.51;0.924002;-0.352432;0.038125;87.4;0.0;0.0;1.0;0.0;0.0
4.0;1753880920.6988;17.063304;-0.39;-0.67;-29.91;0.929762;-0.371625;0.036226;86.8;0.0;0.0;1.0;0.0;0.0
4.0;1753880920.703409;17.093214;0.46;-0.45;-28.93;0.934243;-0.331411;0.032167;86.3;0.0;0.0;1.0;0.0;0.0
4.0;1753880920.708017;17.091511;0.02;-0.44;-29.77;0.912634;-0.404038;0.007062;87.5;0.0;0.0;1.0;0.0;0.0
4.0;1753880920.712625;17.110636;0.18;-0.34;-29.67;0.924215;-0.386939;0.010027;86.2;0.0;0.0;1.0;0.0;0.0
4.0;1753880920.71899;17.089844;0.0;-0.63;-29.89;0.924394;-0.362462;0.028914;87.0;0.0;0.0;1.0;0.0;0.0
4.0;1753880920.723598;17.068205;0.28;-0.78;-29.72;0.941559;-0.362759;0.028426;88.1;0.0;0.0;1.0;0.0;0.0
4.0;1753880920.728206;17.127067;0.06;-0.84;-30.39;0.917757;-0.395058;0.008292;86.6;0.0;0.0;1.0;0.0;0.0
4.0;1753880920.732814;17.128855;-0.05;-0.71;-29.22;0.929997;-0.386092;0.020599;86.6;0.0;0.0;1.0;0.0;0.0
4.0;1753880920.737422;17.089932;-0.15;-0.75;-30.87;0.923823;-0.376358;0.048108;85.6;0.0;0.0;1.0;0.0;0.0
4.0;1753880920.74203;17.080459;0.12;-0.62;-29.38;0.91817;-0.42959;0.028941;85.9;0.0;0.0;1.0;0.0;0.0
4.0;1753880920.746639;17.10564;0.03;-0.68;-28.55;0.940744;-0.336146;0.038517;85.5;0.0;0.0;1.0;0.0;0.0
4.0;1753880920.751247;17.124027;0.29;-0.68;-29.08;0.934101;-0.331074;0.026171;86.2;0.0;0.0;1.0;0.0;0.0
4.0;1753880920.755855;17.070759;0.43;-0.54;-30.03;0.92574;-0.323232;0.041052;85.8;0.0;0.0;1.0;0.0;0.0
4.0;1753880920.760463;17.097591;0.17;-0.64;-29.98;0.936426;-0.399247;0.02177;85.6;0.0;0.0;1.0;0.0;0.0
4.0;1753880920.765072;17.054619;-0.05;-0.62;-30.15;0.93409;-0.335545;0.053783;86.5;0.0;0.0;1.0;0.0;0.0
4.0;1753880920.76968;17.056467;-0.26;-0.68;-29.8;0.924664;-0.330181;0.011626;85.2;0.0;0.0;1.0;0.0;0.0
4.0;1753880920.774288;17.087534;-0.06;-0.73;-28.18;0.93429;-0.376775;0.047457;85.3;0.0;0.0;1.0;0.0;0.0
4.0;1753880920.778896;17.135032;0.5;-0.5;-26.59;0.929332;-0.361021;0.040848;85.7;0.0;0.0;1.0;0.0;0.0
4.0;1753880920.783504;17.095536;-0.16;-0.71;-28.68;0.930473;-0.370057;0.034348;86.2;0.0;0.0;1.0;0.0;0.0
4.0;1753880920.788112;17.067388;0.06;-0.82;-30.19;0.938254;-0.376809;0.039442;84.0;0.0;0.0;1.0;0.0;0.0
4.0;1753880920.79227;17.089844;0.28;-0.77;-28.28;0.932202;-0.361242;0.036356;85.0;0.0;0.0;1.0;0.0;0.0
4.0;1753880920.796878;17.067808;0.26;-0.76;-30.38;0.929375;-0.386341;0.041072;84.3;0.0;0.0;1.0;0.0;0.0
4.0;1753880920.80378;17.089844;0.42;-0.63;-27.44;0.935984;-0.370026;0.034038;85.0;0.0;0.0;1.0;0.0;0.0
4.0;1753880920.808388;17.121351;0.63;-0.64;-26.99;0.942683;-0.360044;0.050266;85.3;0.0;0.0;1.0;0.0;0.0
4.0;1753880920.812996;17.063548;0.26;-0.64;-27.3;0.941109;-0.377782;0.05792;84.7;0.0;0.0;1.0;0.0;0.0
4.0;1753880920.817604;17.094233;0.47;-0.56;-28.55;0.936869;-0.419045;0.050107;84.9;0.0;0.0;1.0;0.0;0.0
4.0;1753880920.822213;17.095475;0.47;-0.65;-31.35;0.913025;-0.381967;0.038478;85.1;0.0;0.0;1.0;0.0;0.0
4.0;1753880920.826821;17.128112;0.63;-0.61;-26.51;0.941301;-0.324473;0.012296;84.7;0.0;0.0;1.0;0.0;0.0
4.0;1753880920.831429;17.096638;0.28;-0.69;-27.43;0.96205;-0.339097;0.037057;85.1;0.0;0.0;1.0;0.0;0.0
4.0;1753880920.836037;17.108481;0.54;-0.65;-26.64;0.942195;-0.387888;0.028122;84.8;0.0;0.0;1.0;0.0;0.0
4.0;1753880920.840645;17.098013;0.47;-0.56;-24.72;0.931551;-0.387167;0.054596;85.1;0.0;0.0;1.0;0.0;0.0
4.0;1753880920.845254;17.070607;0.61;-0.61;-25.18;0.930658;-0.401022;0.041323;83.7;0.0;0.0;1.0;0.0;0.0
4.0;1753880920.849862;17.100989;0.54;-0.72;-28.68;0.922323;-0.355366;0.032922;85.0;0.0;0.0;1.0;0.0;0.0
4.0;1753880920.85447;17.071357;0.3;-0.73;-27.81;0.932354;-0.364722;0.008304;84.7;0.0;0.0;1.0;0.0;0.0
4.0;1753880920.859078;17.085902;0.57;-0.62;-27.67;0.901671;-0.391322;0.06492;85.8;0.0;0.0;1.0;0.0;0.0
4.0;1753880920.863686;17.102907;0.62;-0.53;-25.37;0.928345;-0.369394;0.051588;85.9;0.0;0.0;1.0;0.0;0.0
4.0;1753880920.868294;17.096081;0.54;-0.63;-27.92;0.922635;-0.338226;0.041777;85.1;0.0;0.0;1.0;0.0;0.0
4.0;1753880920.872902;17.078451;0.56;-0.77;-26.71;0.919704;-0.334452;0.037541;85.4;0.0;0.0;1.0;0.0;0.0
4.0;1753880920.87751;17.102452;0.7;-0.53;-24.31;0.945266;-0.394108;0.014511;85.8;0.0;0.0;1.0;0.0;0.0
4.0;1753880920.882119;17.092973;0.35;-0.42;-27.95;0.929773;-0.359387;0.006753;84.7;0.0;0.0;1.0;0.0;0.0
4.0;1753880920.88888;17.089844;0.49;-0.63;-26.88;0.929518;-0.356484;0.033184;85.0;0.0;0.0;1.0;0.0;0.0
4.0;1753880920.89473;17.113281;0.7;-0.77;-25.48;0.932568;-0.356362;0.030256;85.0;0.0;0.0;1.0;0.0;0.0
