sep=,
PacketCounter,SampleTimeFine,Euler_X,Euler_Y,Euler_Z,Acc_X,Acc_Y,Acc_Z,Gyr_X,Gyr_Y,Gyr_Z,Mag_X,Mag_Y,Mag_Z,Status,
0, 2600692795, 80.33853912353516, -83.78684997558594, -45.63287353515625, 0, 0, 0, 0, 0, 0, -0.04443359375, 0.14111328125, -1.216796875, 0, 
1, 2600701128, 80.32479858398438, -83.78697967529297, -45.549381256103516, 9.849170684814453, 1.2204005718231201, 0.07994433492422104, -3.120633602142334, -2.736215114593506, -0.19497555494308472, -0.04345703125, 0.1416015625, -1.2177734375, 0, 
2, 2600709461, 80.31685638427734, -83.78691101074219, -45.56211853027344, 9.482109069824219, 1.1930592060089111, 0.20726346969604492, -3.190739870071411, -2.8136212825775146, -0.22727513313293457, -0.044921875, 0.14013671875, -1.21337890625, 0, 
3, 2600717794, 80.32337188720703, -83.78640747070312, -45.56951141357422, 9.462679862976074, 1.1044747829437256, 0.25556284189224243, -3.270988941192627, -3.0087249279022217, -0.39679014682769775, -0.04443359375, 0.14111328125, -1.2177734375, 0, 
4, 2600726127, 80.3437271118164, -83.78631591796875, -45.58921813964844, 9.890462875366211, 0.9419909119606018, 0.3227669894695282, -3.077319860458374, -3.1747822761535645, -0.3862627148628235, -0.0458984375, 0.14013671875, -1.21533203125, 0, 
5, 2600734460, 80.35301208496094, -83.78463745117188, -45.59932327270508, 10.252009391784668, 0.9565786719322205, 0.08459307998418808, -3.1048810482025146, -2.995431423187256, -0.44294700026512146, -0.04443359375, 0.14208984375, -1.216796875, 0, 
6, 2600742793, 80.33631134033203, -83.7845458984375, -45.58199691772461, 9.990397453308105, 1.1864285469055176, 0.09273332357406616, -3.1135125160217285, -2.6999707221984863, -0.2889029383659363, -0.04443359375, 0.14306640625, -1.21875, 0, 
7, 2600751126, 80.32254791259766, -83.78450775146484, -45.60261917114258, 9.557199478149414, 1.2623108625411987, 0.12805013358592987, -3.0661773681640625, -2.7278900146484375, -0.2039404958486557, -0.04541015625, 0.14306640625, -1.21630859375, 0, 
8, 2600759459, 80.31626892089844, -83.78398132324219, -45.63328170776367, 9.443991661071777, 1.1184313297271729, 0.307669073343277, -3.253417730331421, -2.8324735164642334, -0.3004806339740753, -0.04150390625, 0.1435546875, -1.2177734375, 0, 
9, 2600767792, 80.33221435546875, -83.78340911865234, -45.649967193603516, 9.677252769470215, 1.0121079683303833, 0.1953977346420288, -3.246757984161377, -3.1262686252593994, -0.4288335144519806, -0.044921875, 0.14306640625, -1.2138671875, 0, 
10, 2600776125, 80.33979034423828, -83.78309631347656, -45.6558837890625, 10.150226593017578, 0.9290180206298828, 0.21419396996498108, -2.9729163646698, -2.9932539463043213, -0.37163692712783813, -0.04541015625, 0.14208984375, -1.21875, 0, 
11, 2600784458, 80.34086608886719, -83.78319549560547, -45.63894271850586, 10.107810020446777, 1.08687162399292, 0.10551797598600388, -3.0382070541381836, -2.920689105987549, -0.21300798654556274, -0.04345703125, 0.1435546875, -1.2177734375, 0, 
12, 2600792791, 80.32511901855469, -83.78417205810547, -45.62321853637695, 9.728384017944336, 1.3203234672546387, 0.023146819323301315, -3.1878199577331543, -2.7403135299682617, -0.1799912303686142, -0.04248046875, 0.140625, -1.216796875, 0, 
13, 2600801124, 80.32318115234375, -83.78417205810547, -45.618629455566406, 9.47369384765625, 1.1727238893508911, 0.2992922365665436, -3.278545379638672, -2.9071645736694336, -0.22381716966629028, -0.04345703125, 0.140625, -1.21826171875, 0, 
14, 2600809457, 80.34513092041016, -83.78343963623047, -45.55992889404297, 9.645509719848633, 1.017185091972351, 0.24001829326152802, -3.154956817626953, -3.1842849254608154, -0.39184659719467163, -0.04443359375, 0.14306640625, -1.21533203125, 0, 
15, 2600817790, 80.35614013671875, -83.78268432617188, -45.57162094116211, 10.033528327941895, 0.9502387046813965, 0.2796400487422943, -3.2456822395324707, -3.0583395957946777, -0.4376191794872284, -0.0458984375, 0.142578125, -1.2197265625, 0, 
16, 2600826123, 80.36202239990234, -83.78243255615234, -45.577301025390625, 10.141966819763184, 1.0409430265426636, 0.01298515871167183, -3.141432285308838, -2.99310040473938, -0.3586249351501465, -0.04541015625, 0.142578125, -1.21533203125, 0, 
17, 2600834456, 80.35027313232422, -83.7825927734375, -45.54768371582031, 9.85308837890625, 1.1770910024642944, 0.10352936387062073, -3.1042659282684326, -2.764979839324951, -0.1932850182056427, -0.04296875, 0.142578125, -1.21875, 0, 
18, 2600842789, 80.3253173828125, -83.78284454345703, -45.52366256713867, 9.452959060668945, 1.2688525915145874, 0.18963466584682465, -3.292402982711792, -2.6197218894958496, -0.24538439512252808, -0.04638671875, 0.14208984375, -1.22021484375, 0, 
19, 2600851122, 80.33940124511719, -83.78224182128906, -45.54548645019531, 9.494081497192383, 1.0856724977493286, 0.2836117148399353, -3.249114513397217, -3.098963975906372, -0.3297576606273651, -0.044921875, 0.14208984375, -1.21435546875, 0, 
20, 2600859455, 80.36863708496094, -83.78050994873047, -45.577632904052734, 9.967409133911133, 0.8730449080467224, 0.3463940918445587, -3.272090435028076, -3.270169734954834, -0.5188931822776794, -0.0439453125, 0.142578125, -1.21826171875, 0, 
21, 2600867788, 80.36920928955078, -83.78013610839844, -45.578277587890625, 10.181774139404297, 1.022194504737854, 0.027991000562906265, -3.177753210067749, -2.924633502960205, -0.3683839738368988, -0.0439453125, 0.1416015625, -1.21728515625, 0, 
22, 2600876121, 80.35721588134766, -83.7800064086914, -45.56620788574219, 9.955095291137695, 1.1826536655426025, 0.11712554842233658, -3.1748077869415283, -2.7669777870178223, -0.31251928210258484, -0.0439453125, 0.1416015625, -1.21875, 0, 
23, 2600884454, 80.33998107910156, -83.77918243408203, -45.53959655761719, 9.601985931396484, 1.1928560733795166, 0.14025916159152985, -3.11161732673645, -2.6719746589660645, -0.28867241740226746, -0.04296875, 0.140625, -1.21533203125, 0, 
24, 2600892787, 80.3348388671875, -83.77925109863281, -45.53587341308594, 9.430675506591797, 1.125510811805725, 0.24478739500045776, -3.3429393768310547, -2.8791680335998535, -0.29804727435112, -0.04296875, 0.14013671875, -1.2138671875, 0, 
25, 2600901120, 80.36009979248047, -83.77789306640625, -45.53191375732422, 9.755875587463379, 0.9921080470085144, 0.24923883378505707, -3.234027862548828, -3.223935842514038, -0.46220889687538147, -0.0458984375, 0.1435546875, -1.2197265625, 0, 
26, 2600909453, 80.36988830566406, -83.77550506591797, -45.516090393066406, 10.199066162109375, 0.9134122133255005, 0.19445061683654785, -2.9764511585235596, -2.97668194770813, -0.5315465927124023, -0.04541015625, 0.14208984375, -1.21533203125, 0, 
27, 2600917786, 80.36137390136719, -83.77534484863281, -45.5062141418457, 10.067598342895508, 1.1567234992980957, 0.02087283693253994, -3.0076234340667725, -2.793565273284912, -0.32256007194519043, -0.04296875, 0.1435546875, -1.21826171875, 0, 
28, 2600926119, 80.34691619873047, -83.77581787109375, -45.4908561706543, 9.685406684875488, 1.2956801652908325, 0.06347732245922089, -3.075859546661377, -2.734344959259033, -0.23518991470336914, -0.04248046875, 0.1435546875, -1.2158203125, 0, 
29, 2600934452, 80.3478012084961, -83.77597045898438, -45.49755859375, 9.459844589233398, 1.1423405408859253, 0.24633412063121796, -3.185821533203125, -2.933239698410034, -0.22689087688922882, -0.04345703125, 0.142578125, -1.21728515625, 0, 
30, 2600942785, 80.37248992919922, -83.77603149414062, -45.52240753173828, 9.601638793945312, 1.0306671857833862, 0.22458438575267792, -3.1736807823181152, -3.2425057888031006, -0.3758120536804199, -0.04345703125, 0.140625, -1.2177734375, 0, 
31, 2600951118, 80.39437103271484, -83.77505493164062, -45.53710174560547, 10.046477317810059, 0.9187055826187134, 0.2861945927143097, -3.1415860652923584, -3.1791110038757324, -0.3985319137573242, -0.04443359375, 0.14208984375, -1.2158203125, 0, 
32, 2600959451, 80.39539337158203, -83.77398681640625, -45.54957962036133, 10.203628540039062, 1.0121451616287231, 0.014834259636700153, -3.0500664710998535, -2.8959968090057373, -0.37647801637649536, -0.0439453125, 0.14111328125, -1.220703125, 0, 
33, 2600967784, 80.37442016601562, -83.77436828613281, -45.5283088684082, 9.835500717163086, 1.2104369401931763, 0.09048423171043396, -3.1438395977020264, -2.6592695713043213, -0.22658352553844452, -0.0458984375, 0.140625, -1.21533203125, 0, 
34, 2600976117, 80.35758972167969, -83.7746810913086, -45.511375427246094, 9.489733695983887, 1.2781356573104858, 0.22315280139446259, -3.171682357788086, -2.71075439453125, -0.2484324425458908, -0.04541015625, 0.14306640625, -1.21826171875, 0, 
35, 2600984450, 80.3800048828125, -83.77417755126953, -45.52604675292969, 9.545160293579102, 1.0633599758148193, 0.2512901723384857, -3.2538533210754395, -3.2079269886016846, -0.34102797508239746, -0.04345703125, 0.1435546875, -1.21630859375, 0, 
36, 2600992783, 80.39807891845703, -83.77376556396484, -45.54344177246094, 9.94124984741211, 0.9099689722061157, 0.29567351937294006, -3.0759365558624268, -3.1375389099121094, -0.42061132192611694, -0.04296875, 0.14208984375, -1.2177734375, 0, 
37, 2601001116, 80.4112548828125, -83.77278900146484, -45.71156311035156, 10.141632080078125, 1.0075783729553223, 0.05936877802014351, -3.11059308052063, -3.061464786529541, -0.3827023208141327, -0.0419921875, 0.14208984375, -1.2275390625, 0, 
38, 2601009449, 80.40376281738281, -83.77225494384766, -45.72148513793945, 9.945534706115723, 1.1802302598953247, 0.07937745749950409, -3.204878807067871, -2.8133397102355957, -0.2891590893268585, -0.0419921875, 0.14306640625, -1.2236328125, 0, 
39, 2601017782, 80.39476013183594, -83.77181243896484, -45.71192169189453, 9.579652786254883, 1.2687281370162964, 0.12491801381111145, -3.109363079071045, -2.79325795173645, -0.3504795730113983, -0.04248046875, 0.1435546875, -1.23193359375, 0, 
40, 2601026115, 80.39844512939453, -83.77197265625, -45.71630859375, 9.453839302062988, 1.1093052625656128, 0.36258870363235474, -3.2461435794830322, -2.983879327774048, -0.31702739000320435, -0.04345703125, 0.1435546875, -1.2275390625, 0, 
41, 2601034448, 80.41584777832031, -83.77030181884766, -45.738380432128906, 9.855422019958496, 0.9469543099403381, 0.24908417463302612, -3.1404078006744385, -3.104471206665039, -0.4779616594314575, -0.04296875, 0.14453125, -1.228515625, 0, 
42, 2601042781, 80.4198226928711, -83.76932525634766, -45.742462158203125, 10.189054489135742, 0.9877756834030151, 0.11787135899066925, -3.1842849254608154, -2.9562160968780518, -0.44573894143104553, -0.04248046875, 0.142578125, -1.2294921875, 0, 
43, 2601051114, 80.4142074584961, -83.76834869384766, -45.74190139770508, 10.042539596557617, 1.116724967956543, 0.0860622301697731, -3.043201446533203, -2.814671277999878, -0.3398752212524414, -0.0439453125, 0.14404296875, -1.22607421875, 0, 
44, 2601059447, 80.40087127685547, -83.76756286621094, -45.72705078125, 9.653528213500977, 1.2185860872268677, 0.07273659110069275, -2.99102520942688, -2.7088847160339355, -0.3180263042449951, -0.04345703125, 0.14306640625, -1.2275390625, 0, 
45, 2601067780, 80.39546966552734, -83.76766204833984, -45.72174835205078, 9.400064468383789, 1.1757081747055054, 0.2631368041038513, -3.1814420223236084, -2.85793399810791, -0.29904621839523315, -0.044921875, 0.1435546875, -1.224609375, 0, 
46, 2601076113, 80.41105651855469, -83.76689910888672, -45.73763656616211, 9.621950149536133, 1.0251150131225586, 0.2150089144706726, -3.199371814727783, -3.1124112606048584, -0.44368976354599, -0.04443359375, 0.14208984375, -1.2265625, 0, 
47, 2601084446, 80.43083190917969, -83.7655258178711, -45.756935119628906, 10.149378776550293, 0.8682125806808472, 0.23846296966075897, -3.1283178329467773, -3.144070863723755, -0.4419224262237549, -0.04345703125, 0.142578125, -1.22705078125, 0, 
48, 2601092779, 80.41986083984375, -83.7645492553711, -45.745880126953125, 10.139556884765625, 1.075692892074585, 0.05582232400774956, -3.1708123683929443, -2.7623162269592285, -0.4150274991989136, -0.04296875, 0.1416015625, -1.22509765625, 0, 
49, 2601101112, 80.41665649414062, -83.76397705078125, -45.74249267578125, 9.774450302124023, 1.299126386642456, 0.08589456975460052, -3.2422499656677246, -2.8731744289398193, -0.30719152092933655, -0.0419921875, 0.142578125, -1.23046875, 0, 
50, 2601109445, 80.41312408447266, -83.76419830322266, -45.73955154418945, 9.492009162902832, 1.1513267755508423, 0.1980399638414383, -3.172271966934204, -2.8737635612487793, -0.20985741913318634, -0.0439453125, 0.14208984375, -1.22607421875, 0, 
51, 2601117778, 80.41834259033203, -83.76451873779297, -45.7457389831543, 9.502593994140625, 1.0300081968307495, 0.23958304524421692, -3.282310724258423, -3.0099029541015625, -0.2921559810638428, -0.04345703125, 0.140625, -1.22900390625, 0, 
52, 2601126111, 80.43443298339844, -83.76341247558594, -45.76129150390625, 9.924973487854004, 0.9641784429550171, 0.30881983041763306, -3.097478151321411, -3.100782632827759, -0.4906150996685028, -0.044921875, 0.1435546875, -1.2265625, 0, 
53, 2601134444, 80.44005584716797, -83.7618408203125, -45.76256561279297, 10.197986602783203, 0.9875897169113159, 0.03479352965950966, -3.125192880630493, -2.9559338092803955, -0.4437154233455658, -0.0439453125, 0.14306640625, -1.22607421875, 0, 
54, 2601142777, 80.4240951538086, -83.76244354248047, -45.745330810546875, 9.942987442016602, 1.1753181219100952, 0.12483742833137512, -3.0345184803009033, -2.7141098976135254, -0.22105084359645844, -0.046875, 0.1416015625, -1.22900390625, 0, 
55, 2601151110, 80.40857696533203, -83.76240539550781, -45.73335647583008, 9.542027473449707, 1.3008888959884644, 0.16477364301681519, -3.2111799716949463, -2.721999168395996, -0.21001112461090088, -0.0458984375, 0.142578125, -1.22265625, 0, 
56, 2601159443, 80.42448425292969, -83.76225280761719, -45.750144958496094, 9.477043151855469, 1.1076154708862305, 0.27723583579063416, -3.347754955291748, -3.139101505279541, -0.30007076263427734, -0.04443359375, 0.1435546875, -1.22900390625, 0, 
57, 2601167776, 80.44124603271484, -83.7618179321289, -45.76752471923828, 9.834161758422852, 0.9560257196426392, 0.3162879943847656, -3.226881504058838, -3.138230562210083, -0.4194331467151642, -0.044921875, 0.14306640625, -1.2236328125, 0, 
58, 2601176109, 80.44234466552734, -83.76090240478516, -45.76786422729492, 10.13997745513916, 0.9874768257141113, 0.10905511677265167, -3.0811877250671387, -2.910212755203247, -0.4373630881309509, -0.04296875, 0.14306640625, -1.23095703125, 0, 
59, 2601184442, 80.43733215332031, -83.76087188720703, -45.761741638183594, 10.054532051086426, 1.1252155303955078, 0.06168569251894951, -2.997326612472534, -2.837416887283325, -0.2288631796836853, -0.04150390625, 0.1435546875, -1.2265625, 0, 
60, 2601192775, 80.42138671875, -83.76203155517578, -45.74657440185547, 9.675354957580566, 1.2231652736663818, 0.13434118032455444, -3.2711174488067627, -2.7504053115844727, -0.1567591279745102, -0.04345703125, 0.142578125, -1.2236328125, 0, 
61, 2601201108, 80.41618347167969, -83.76130676269531, -45.741127014160156, 9.447955131530762, 1.1586016416549683, 0.31908851861953735, -3.224806547164917, -2.8450756072998047, -0.31241685152053833, -0.0439453125, 0.14306640625, -1.224609375, 0, 
62, 2601209441, 80.43181610107422, -83.75995635986328, -45.75828552246094, 9.685104370117188, 1.0269219875335693, 0.19954939186573029, -3.3978309631347656, -3.1173293590545654, -0.451476514339447, -0.04150390625, 0.142578125, -1.22607421875, 0, 
63, 2601217774, 80.4415283203125, -83.75917053222656, -45.76704788208008, 10.138321876525879, 0.9352494478225708, 0.22340798377990723, -3.047581672668457, -3.0188939571380615, -0.44312629103660583, -0.04443359375, 0.14404296875, -1.228515625, 0, 
64, 2601226107, 80.45437622070312, -83.75857543945312, -45.77848815917969, 10.095708847045898, 1.1197532415390015, 0.045551713556051254, -2.9964301586151123, -3.060030460357666, -0.415232390165329, -0.0439453125, 0.14111328125, -1.22412109375, 0, 
65, 2601234440, 80.44651794433594, -83.75836181640625, -45.77147674560547, 9.76891040802002, 1.2470561265945435, 0.0485161729156971, -3.1477339267730713, -2.808600902557373, -0.26211050152778625, -0.04638671875, 0.142578125, -1.22509765625, 0, 
66, 2601242773, 80.4356460571289, -83.75867462158203, -45.76154708862305, 9.451082229614258, 1.1720150709152222, 0.19755598902702332, -3.2875871658325195, -2.8036060333251953, -0.25424692034721375, -0.04541015625, 0.14208984375, -1.22705078125, 0, 
67, 2601251106, 80.45024108886719, -83.75804138183594, -45.78597640991211, 9.513164520263672, 1.050092101097107, 0.25530654191970825, -3.2163796424865723, -3.100167989730835, -0.3601105511188507, -0.04345703125, 0.14306640625, -1.22412109375, 0, 
68, 2601259439, 80.47122192382812, -83.75637817382812, -45.80923843383789, 10.025521278381348, 0.8783813714981079, 0.2887953221797943, -3.3152503967285156, -3.174910068511963, -0.48341742157936096, -0.04443359375, 0.14501953125, -1.2294921875, 0, 
69, 2601267772, 80.4801254272461, -83.75621795654297, -45.81695556640625, 10.247282028198242, 1.0003535747528076, -0.0034310026094317436, -3.027372121810913, -3.02168607711792, -0.35480841994285583, -0.044921875, 0.1435546875, -1.22265625, 0, 
70, 2601276105, 80.46160888671875, -83.75634002685547, -45.797218322753906, 9.906624794006348, 1.2236971855163574, 0.13046419620513916, -3.041588068008423, -2.6714107990264893, -0.26700276136398315, -0.0419921875, 0.142578125, -1.22607421875, 0, 
71, 2601284438, 80.45156860351562, -83.75515747070312, -45.78973388671875, 9.532304763793945, 1.2405871152877808, 0.1447085440158844, -3.2064414024353027, -2.7686941623687744, -0.36605304479599, -0.0439453125, 0.14453125, -1.22802734375, 0, 
72, 2601292771, 80.45938873291016, -83.75493621826172, -45.797821044921875, 9.464858055114746, 1.1184170246124268, 0.2598904073238373, -3.203829050064087, -3.022838592529297, -0.3735068440437317, -0.0439453125, 0.1416015625, -1.2197265625, 0, 
73, 2601301104, 80.47755432128906, -83.75364685058594, -45.81693649291992, 9.785001754760742, 0.9826481938362122, 0.24766568839550018, -3.2298269271850586, -3.133082389831543, -0.43436622619628906, -0.0439453125, 0.14404296875, -1.22705078125, 0, 
74, 2601309437, 80.47572326660156, -83.75222778320312, -45.814151763916016, 10.176053047180176, 0.9368801116943359, 0.11193123459815979, -3.1900739669799805, -2.8682565689086914, -0.40839338302612305, -0.0419921875, 0.14111328125, -1.22412109375, 0, 
75, 2601317770, 80.4734115600586, -83.7516098022461, -45.80997848510742, 10.02467155456543, 1.1511175632476807, 0.10748640447854996, -2.940847158432007, -2.8575239181518555, -0.39112937450408936, -0.0439453125, 0.142578125, -1.2275390625, 0, 
76, 2601326103, 80.47330474853516, -83.75214385986328, -45.810733795166016, 9.657299995422363, 1.3301317691802979, 0.09852063655853271, -3.2783915996551514, -2.9447150230407715, -0.2628020644187927, -0.044921875, 0.1416015625, -1.224609375, 0, 
77, 2601334436, 80.46919250488281, -83.75251770019531, -45.80417251586914, 9.487619400024414, 1.1138360500335693, 0.2805976867675781, -3.292428493499756, -2.883650779724121, -0.19666612148284912, -0.04150390625, 0.1416015625, -1.22216796875, 0, 
78, 2601342769, 80.48158264160156, -83.75289154052734, -45.81841278076172, 9.70981502532959, 0.9865183234214783, 0.260285884141922, -3.378030776977539, -3.116074323654175, -0.3075501024723053, -0.044921875, 0.142578125, -1.22705078125, 0, 
79, 2601351102, 80.48820495605469, -83.75129699707031, -45.82374572753906, 10.087151527404785, 0.9539886116981506, 0.2410193532705307, -3.0944817066192627, -2.964232921600342, -0.46010854840278625, -0.04443359375, 0.14306640625, -1.22265625, 0, 
80, 2601359435, 80.4795150756836, -83.75045013427734, -45.79749298095703, 10.132295608520508, 1.0569109916687012, -0.014851091429591179, -2.997352123260498, -2.7702817916870117, -0.3326520621776581, -0.04443359375, 0.1416015625, -1.2265625, 0, 
81, 2601367768, 80.46841430664062, -83.75069427490234, -45.785404205322266, 9.784991264343262, 1.1875203847885132, 0.08872529119253159, -3.0604398250579834, -2.7720491886138916, -0.2700252830982208, -0.044921875, 0.14404296875, -1.2177734375, 0, 
82, 2601376101, 80.46068572998047, -83.75000762939453, -45.77822494506836, 9.407069206237793, 1.2496778964996338, 0.2528989911079407, -3.2408413887023926, -2.8185651302337646, -0.3944336473941803, -0.0439453125, 0.1416015625, -1.2177734375, 0, 
83, 2601384434, 80.4806137084961, -83.7490005493164, -45.76228332519531, 9.581278800964355, 1.0504378080368042, 0.20463049411773682, -3.3236777782440186, -3.1695053577423096, -0.41080108284950256, -0.0458984375, 0.14306640625, -1.21728515625, 0, 
84, 2601392767, 80.50361633300781, -83.74856567382812, -45.78495788574219, 10.087127685546875, 0.8631380200386047, 0.3698292672634125, -3.1149473190307617, -3.2090795040130615, -0.416948527097702, -0.044921875, 0.14306640625, -1.21630859375, 0, 
85, 2601401100, 80.4952621459961, -83.7476577758789, -45.75100326538086, 10.158650398254395, 1.072157382965088, 0.003275239607319236, -3.102396011352539, -2.780245542526245, -0.34684231877326965, -0.04296875, 0.14208984375, -1.21826171875, 0, 
86, 2601409433, 80.48289489746094, -83.74781036376953, -45.76237106323242, 9.86356258392334, 1.2113348245620728, 0.046938151121139526, -3.117482900619507, -2.755528211593628, -0.2006106823682785, -0.04443359375, 0.1435546875, -1.2138671875, 0, 
87, 2601417766, 80.46041107177734, -83.74868774414062, -45.74002456665039, 9.548048973083496, 1.18014395236969, 0.18047259747982025, -3.198551893234253, -2.6516878604888916, -0.1819891333580017, -0.0458984375, 0.14501953125, -1.2197265625, 0, 
88, 2601426099, 80.46471405029297, -83.74925231933594, -45.74464797973633, 9.454765319824219, 1.1127475500106812, 0.2592657208442688, -3.2024970054626465, -2.994534730911255, -0.26856526732444763, -0.04541015625, 0.14306640625, -1.2158203125, 0, 
89, 2601434432, 80.46905517578125, -83.74761962890625, -45.839237213134766, 9.82645320892334, 0.9700599312782288, 0.2935522794723511, -3.1902787685394287, -2.941897392272949, -0.4535512924194336, -0.0458984375, 0.142578125, -1.21484375, 0, 
90, 2601442765, 80.46487426757812, -83.74668884277344, -45.83407211303711, 10.21205997467041, 0.9383670091629028, 0.11992038786411285, -3.0540366172790527, -2.8371095657348633, -0.4257085621356964, -0.0439453125, 0.14404296875, -1.2197265625, 0, 
91, 2601451098, 80.44866180419922, -83.7461166381836, -45.852970123291016, 9.984685897827148, 1.1810089349746704, 0.09037785232067108, -3.142789602279663, -2.697793483734131, -0.26408272981643677, -0.04443359375, 0.142578125, -1.2138671875, 0, 
92, 2601459431, 80.43521881103516, -83.7462158203125, -45.837120056152344, 9.606669425964355, 1.3100922107696533, 0.06453734636306763, -3.206390380859375, -2.7467169761657715, -0.21521082520484924, -0.04541015625, 0.140625, -1.220703125, 0, 
93, 2601467764, 80.43408203125, -83.74759674072266, -45.83684158325195, 9.462620735168457, 1.0764597654342651, 0.3410080373287201, -3.2743704319000244, -2.9478654861450195, -0.15406963229179382, -0.0439453125, 0.14453125, -1.2158203125, 0, 
94, 2601476097, 80.4439468383789, -83.74681091308594, -45.84773254394531, 9.672049522399902, 0.9470532536506653, 0.24722212553024292, -3.283207416534424, -3.0483498573303223, -0.4438434839248657, -0.04345703125, 0.14208984375, -1.2197265625, 0, 
95, 2601484430, 80.45692443847656, -83.7448959350586, -45.91910934448242, 10.143571853637695, 0.9146522283554077, 0.21960553526878357, -3.1920719146728516, -3.04988694190979, -0.5080071687698364, -0.04443359375, 0.14306640625, -1.21923828125, 0, 
96, 2601492763, 80.44478607177734, -83.7442398071289, -45.90605163574219, 10.126364707946777, 1.0636931657791138, 0.05495187267661095, -3.0718636512756348, -2.742208480834961, -0.3629280924797058, -0.04541015625, 0.140625, -1.21484375, 0, 
97, 2601501096, 80.431640625, -83.74461364746094, -45.82963943481445, 9.728131294250488, 1.269607663154602, 0.12127381563186646, -3.0203793048858643, -2.7398006916046143, -0.18690705299377441, -0.04345703125, 0.14013671875, -1.2177734375, 0, 
98, 2601509429, 80.43097686767578, -83.74461364746094, -45.86982727050781, 9.443672180175781, 1.239431381225586, 0.303960919380188, -3.134490966796875, -2.9057559967041016, -0.24996934831142426, -0.04345703125, 0.1416015625, -1.216796875, 0, 
99, 2601517762, 80.44711303710938, -83.74433135986328, -45.88716125488281, 9.605560302734375, 1.0062925815582275, 0.21744313836097717, -3.297550916671753, -3.1407406330108643, -0.400606632232666, -0.04443359375, 0.1416015625, -1.2177734375, 0, 
100, 2601526095, 80.45697021484375, -83.74323272705078, -45.896968841552734, 10.03200912475586, 0.8991193175315857, 0.2723407745361328, -3.1580047607421875, -3.0306508541107178, -0.4673829674720764, -0.04345703125, 0.14306640625, -1.21435546875, 0, 
101, 2601534428, 80.46015930175781, -83.74270629882812, -45.89778137207031, 10.106014251708984, 1.0736409425735474, 0.003939327318221331, -3.012976884841919, -2.932983636856079, -0.3177958130836487, -0.04345703125, 0.14208984375, -1.216796875, 0, 
102, 2601542761, 80.45095825195312, -83.74282836914062, -45.88847732543945, 9.8439359664917, 1.2136218547821045, 0.12093337625265121, -3.16973614692688, -2.8064749240875244, -0.2934110760688782, -0.04541015625, 0.14111328125, -1.21875, 0, 
103, 2601551094, 80.44396209716797, -83.7430419921875, -45.828548431396484, 9.51327133178711, 1.2200720310211182, 0.1810457408428192, -3.112309217453003, -2.824814796447754, -0.20706549286842346, -0.04541015625, 0.14208984375, -1.21533203125, 0, 
104, 2601559427, 80.46211242675781, -83.74276733398438, -45.8492431640625, 9.537985801696777, 1.051405429840088, 0.3038575053215027, -3.212768316268921, -3.153522491455078, -0.3290148675441742, -0.0458984375, 0.14208984375, -1.21728515625, 0, 
105, 2601567760, 80.48324584960938, -83.74153900146484, -45.869720458984375, 9.98341178894043, 0.9083024859428406, 0.34790122509002686, -3.082237720489502, -3.1655097007751465, -0.5044467449188232, -0.04541015625, 0.14208984375, -1.21533203125, 0, 
106, 2601576093, 80.48252868652344, -83.7408218383789, -45.86892318725586, 10.172306060791016, 1.0245767831802368, 0.01828908361494541, -3.161052703857422, -2.897764205932617, -0.40401333570480347, -0.04443359375, 0.142578125, -1.2158203125, 0, 
107, 2601584426, 80.47103881835938, -83.74110412597656, -45.87025833129883, 9.911534309387207, 1.1384621858596802, 0.10647120326757431, -3.0947630405426025, -2.7688987255096436, -0.2086535394191742, -0.04296875, 0.14111328125, -1.21728515625, 0, 
108, 2601592759, 80.46192169189453, -83.74085235595703, -45.860267639160156, 9.54293155670166, 1.2265925407409668, 0.15303893387317657, -3.074963092803955, -2.7902097702026367, -0.3265046179294586, -0.04248046875, 0.14208984375, -1.21533203125, 0, 
109, 2601601092, 80.47045135498047, -83.74029541015625, -45.9941520690918, 9.40770435333252, 1.1332494020462036, 0.2675931453704834, -3.083928108215332, -3.008929967880249, -0.3477388620376587, -0.04345703125, 0.14111328125, -1.2197265625, 0, 
110, 2601609425, 80.50081634521484, -83.73906707763672, -46.02406311035156, 9.79451847076416, 0.9500845670700073, 0.22790475189685822, -3.1089277267456055, -3.2838220596313477, -0.46971386671066284, -0.044921875, 0.14306640625, -1.21435546875, 0, 
111, 2601617758, 80.50678253173828, -83.7378158569336, -46.02945327758789, 10.235257148742676, 0.9162498712539673, 0.20267929136753082, -3.093482494354248, -2.9681010246276855, -0.4731205403804779, -0.04443359375, 0.14111328125, -1.21875, 0, 
112, 2601626091, 80.50373077392578, -83.73828125, -46.02536392211914, 10.070789337158203, 1.1845097541809082, 0.038710422813892365, -3.049349069595337, -2.880500078201294, -0.2657220959663391, -0.044921875, 0.1455078125, -1.2158203125, 0, 
113, 2601634424, 80.49822998046875, -83.73834228515625, -46.02145004272461, 9.694183349609375, 1.300331950187683, 0.10787543654441833, -3.171119451522827, -2.8476884365081787, -0.23621448874473572, -0.044921875, 0.142578125, -1.216796875, 0, 
114, 2601642757, 80.49437713623047, -83.73963165283203, -46.018333435058594, 9.446438789367676, 1.0861756801605225, 0.29297181963920593, -3.260641098022461, -2.9100077152252197, -0.16413602232933044, -0.04296875, 0.1435546875, -1.21728515625, 0, 
115, 2601651090, 80.50567626953125, -83.7392578125, -45.9813346862793, 9.618206977844238, 0.998650074005127, 0.19515380263328552, -3.2322604656219482, -3.0653579235076904, -0.32699134945869446, -0.046875, 0.1435546875, -1.21435546875, 0, 
116, 2601659423, 80.51960754394531, -83.73747253417969, -45.907005310058594, 10.07768726348877, 0.9187332987785339, 0.24772758781909943, -3.2429416179656982, -3.0745794773101807, -0.4923824667930603, -0.044921875, 0.140625, -1.2177734375, 0, 
117, 2601667756, 80.51911926269531, -83.73790740966797, -45.90462112426758, 10.16810131072998, 1.03957998752594, 0.052128951996564865, -2.951169490814209, -2.900325298309326, -0.2710241675376892, -0.04443359375, 0.140625, -1.2138671875, 0, 
118, 2601676089, 80.51353454589844, -83.73788452148438, -45.898284912109375, 9.816271781921387, 1.2844029664993286, 0.08484839648008347, -3.0817768573760986, -2.8403372764587402, -0.3132877051830292, -0.04345703125, 0.14111328125, -1.2197265625, 0, 
119, 2601684422, 80.50981140136719, -83.73696899414062, -45.7135124206543, 9.474603652954102, 1.256691575050354, 0.2209804803133011, -3.2728848457336426, -2.8654136657714844, -0.3475339710712433, -0.0439453125, 0.14208984375, -1.2177734375, 0, 
120, 2601692755, 80.51919555664062, -83.73747253417969, -45.723365783691406, 9.584757804870605, 1.015166163444519, 0.28476959466934204, -3.2250115871429443, -3.0607986450195312, -0.2848303020000458, -0.04541015625, 0.140625, -1.21484375, 0, 
121, 2601701088, 80.53189086914062, -83.7354965209961, -45.73430633544922, 9.982128143310547, 0.9224153161048889, 0.2683772146701813, -3.150089979171753, -3.0422539710998535, -0.5258602499961853, -0.044921875, 0.14306640625, -1.2197265625, 0, 
122, 2601709421, 80.53225708007812, -83.73474884033203, -45.7396125793457, 10.171804428100586, 1.0351829528808594, -0.0020170833449810743, -3.058519124984741, -2.896970272064209, -0.35032594203948975, -0.0439453125, 0.140625, -1.212890625, 0, 
123, 2601717754, 80.51660919189453, -83.73436737060547, -45.724185943603516, 9.921126365661621, 1.1350963115692139, 0.11366667598485947, -3.202855348587036, -2.7167484760284424, -0.3251727223396301, -0.04541015625, 0.14208984375, -1.21630859375, 0, 
124, 2601726087, 80.49967956542969, -83.73421478271484, -45.70762252807617, 9.540355682373047, 1.253176212310791, 0.14290933310985565, -3.230313777923584, -2.7068355083465576, -0.3076781928539276, -0.04150390625, 0.14013671875, -1.21435546875, 0, 
125, 2601734420, 80.50729370117188, -83.73465728759766, -45.710750579833984, 9.49117374420166, 1.1278765201568604, 0.29347488284111023, -3.2572598457336426, -3.0381815433502197, -0.23165515065193176, -0.04443359375, 0.14111328125, -1.21533203125, 0, 
126, 2601742753, 80.52174377441406, -83.73352813720703, -45.725730895996094, 9.883666038513184, 0.941325843334198, 0.3327105939388275, -3.223065137863159, -3.094994068145752, -0.48941123485565186, -0.044921875, 0.14111328125, -1.2177734375, 0, 
127, 2601751086, 80.51478576660156, -83.73146057128906, -45.74239730834961, 10.166634559631348, 0.977758526802063, 0.0748371109366417, -3.1170222759246826, -2.7828586101531982, -0.4695858061313629, -0.04345703125, 0.14208984375, -1.21044921875, 0, 
128, 2601759419, 80.49906921386719, -83.73086547851562, -45.70006561279297, 9.969948768615723, 1.1939773559570312, 0.06942539662122726, -3.097554922103882, -2.696538209915161, -0.30363112688064575, -0.0439453125, 0.14306640625, -1.21875, 0, 
129, 2601767752, 80.4846420288086, -83.73040008544922, -45.68503189086914, 9.655118942260742, 1.219517707824707, 0.10062923282384872, -3.1111819744110107, -2.7198987007141113, -0.3455360233783722, -0.04541015625, 0.1435546875, -1.21337890625, 0, 
130, 2601776085, 80.4895248413086, -83.7304916381836, -45.69068145751953, 9.408893585205078, 1.146594524383545, 0.2472207248210907, -3.257977247238159, -2.9993503093719482, -0.3316531181335449, -0.0439453125, 0.142578125, -1.21923828125, 0, 
131, 2601784418, 80.50957489013672, -83.72996520996094, -45.69853591918945, 9.704324722290039, 0.9932318329811096, 0.22055353224277496, -3.180698871612549, -3.168762683868408, -0.36779481172561646, -0.0439453125, 0.1416015625, -1.21875, 0, 
132, 2601792751, 80.51950073242188, -83.72880554199219, -45.7075080871582, 10.168967247009277, 0.9054113626480103, 0.24475711584091187, -3.047300100326538, -3.017305850982666, -0.47409388422966003, -0.0439453125, 0.1416015625, -1.21484375, 0, 
133, 2601801084, 80.5198974609375, -83.72895812988281, -45.62419509887695, 10.122596740722656, 1.1218289136886597, 0.02448693849146366, -3.023709297180176, -2.9123899936676025, -0.23918573558330536, -0.04541015625, 0.140625, -1.22802734375, 0, 
134, 2601809417, 80.50019073486328, -83.72940063476562, -45.537391662597656, 9.726729393005371, 1.290602445602417, 0.07996954768896103, -3.2119994163513184, -2.6762521266937256, -0.16436654329299927, -0.04248046875, 0.142578125, -1.2265625, 0, 
135, 2601817750, 80.49961853027344, -83.72965240478516, -45.537498474121094, 9.453314781188965, 1.1781429052352905, 0.28627750277519226, -3.2526495456695557, -2.9313957691192627, -0.29727885127067566, -0.04541015625, 0.1416015625, -1.23095703125, 0, 
136, 2601826083, 80.51154327392578, -83.73011779785156, -45.55110549926758, 9.524815559387207, 1.0386979579925537, 0.17215538024902344, -3.36647891998291, -3.1089789867401123, -0.29074719548225403, -0.04248046875, 0.14404296875, -1.22802734375, 0, 
137, 2601834416, 80.52702331542969, -83.7281494140625, -45.56614685058594, 9.989258766174316, 0.9095438718795776, 0.2679399251937866, -3.203726053237915, -3.0832624435424805, -0.5271409749984741, -0.04443359375, 0.1455078125, -1.22607421875, 0, 
138, 2601842749, 80.53218841552734, -83.72733306884766, -45.56925582885742, 10.194988250732422, 0.9904693961143494, 0.0686417818069458, -2.9275786876678467, -2.949223041534424, -0.4302935302257538, -0.0439453125, 0.14404296875, -1.22998046875, 0, 
139, 2601851082, 80.5210189819336, -83.72671508789062, -45.53792953491211, 9.888297080993652, 1.2697361707687378, 0.09933827072381973, -3.127216100692749, -2.755502462387085, -0.3081648349761963, -0.044921875, 0.14111328125, -1.22265625, 0, 
140, 2601859415, 80.51134490966797, -83.7265853881836, -45.532752990722656, 9.551495552062988, 1.2595080137252808, 0.19675418734550476, -3.191943645477295, -2.7962806224823, -0.2422594279050827, -0.04443359375, 0.14306640625, -1.22802734375, 0, 
141, 2601867748, 80.52317810058594, -83.72708129882812, -45.545326232910156, 9.522730827331543, 1.029634952545166, 0.32962626218795776, -3.252265214920044, -3.09409761428833, -0.295306533575058, -0.0439453125, 0.14306640625, -1.2265625, 0, 
142, 2601876081, 80.53245544433594, -83.72608184814453, -45.55352783203125, 9.895040512084961, 0.9492928981781006, 0.3150031268596649, -3.035747766494751, -3.0110814571380615, -0.4616453945636749, -0.04345703125, 0.14208984375, -1.228515625, 0, 
143, 2601884414, 80.536865234375, -83.72433471679688, -45.56934356689453, 10.136222839355469, 0.9966601729393005, 0.054555799812078476, -3.1392037868499756, -2.939924955368042, -0.4756051301956177, -0.0439453125, 0.14404296875, -1.228515625, 0, 
144, 2601892747, 80.52388763427734, -83.72370910644531, -45.55548858642578, 9.970848083496094, 1.119547963142395, 0.11335743963718414, -3.0702757835388184, -2.7298882007598877, -0.3814471662044525, -0.04296875, 0.140625, -1.22119140625, 0, 
145, 2601901080, 80.51666259765625, -83.72342681884766, -45.54620361328125, 9.611040115356445, 1.2798128128051758, 0.08283884823322296, -3.1885626316070557, -2.8257625102996826, -0.25560447573661804, -0.04345703125, 0.142578125, -1.2255859375, 0, 
146, 2601909413, 80.51212310791016, -83.72352600097656, -45.54427719116211, 9.413769721984863, 1.1571800708770752, 0.3139094114303589, -3.458639144897461, -2.893435478210449, -0.2580634355545044, -0.044921875, 0.1435546875, -1.224609375, 0, 
147, 2601917746, 80.52555847167969, -83.72270965576172, -45.55804443359375, 9.769999504089355, 0.9377981424331665, 0.2898261845111847, -3.206313133239746, -3.0864641666412354, -0.448121041059494, -0.04443359375, 0.14306640625, -1.2275390625, 0, 
148, 2601926079, 80.52510070800781, -83.72164916992188, -45.557132720947266, 10.163629531860352, 0.9328233599662781, 0.16772738099098206, -3.11773943901062, -2.890822649002075, -0.4489663243293762, -0.04443359375, 0.14404296875, -1.2236328125, 0, 
149, 2601934412, 80.50987243652344, -83.72149658203125, -45.5418815612793, 10.065037727355957, 1.147782325744629, 0.027141334488987923, -3.175499200820923, -2.7187204360961914, -0.2445647120475769, -0.0419921875, 0.14111328125, -1.224609375, 0, 
150, 2601942745, 80.4964599609375, -83.72203063964844, -45.52834701538086, 9.692801475524902, 1.1914006471633911, 0.1252032369375229, -3.1689679622650146, -2.7605743408203125, -0.224995419383049, -0.04443359375, 0.1435546875, -1.22607421875, 0, 
151, 2601951078, 80.4912109375, -83.72151947021484, -45.54146194458008, 9.422754287719727, 1.1491397619247437, 0.23975391685962677, -3.2154064178466797, -2.8445122241973877, -0.32227832078933716, -0.0439453125, 0.1416015625, -1.22412109375, 0, 
152, 2601959411, 80.49979400634766, -83.7212142944336, -45.550148010253906, 9.566827774047852, 1.063277006149292, 0.17223352193832397, -3.2876899242401123, -3.0374386310577393, -0.3165663182735443, -0.04296875, 0.142578125, -1.2275390625, 0, 
153, 2601967744, 80.51297760009766, -83.72096252441406, -45.56327438354492, 10.105781555175781, 0.8841766715049744, 0.30016863346099854, -3.1511147022247314, -3.088359832763672, -0.38695427775382996, -0.04296875, 0.1435546875, -1.22412109375, 0, 
154, 2601976077, 80.50807189941406, -83.7197494506836, -45.557613372802734, 10.17406940460205, 1.086276888847351, 0.03144720196723938, -3.0858237743377686, -2.827094554901123, -0.45078498125076294, -0.0439453125, 0.140625, -1.22607421875, 0, 
155, 2601984410, 80.51057434082031, -83.71996307373047, -45.56163787841797, 9.815098762512207, 1.3171813488006592, 0.08769918978214264, -3.0935850143432617, -2.9487876892089844, -0.24494893848896027, -0.0439453125, 0.1435546875, -1.2255859375, 0, 
156, 2601992743, 80.49913024902344, -83.71930694580078, -45.55045700073242, 9.503718376159668, 1.1937741041183472, 0.19742362201213837, -3.2096686363220215, -2.764723777770996, -0.3782966434955597, -0.04248046875, 0.1416015625, -1.22265625, 0, 
157, 2602001076, 80.51657104492188, -83.71927642822266, -45.56895446777344, 9.489882469177246, 1.0130994319915771, 0.25936487317085266, -3.152010917663574, -3.1416118144989014, -0.30534735321998596, -0.0439453125, 0.1435546875, -1.2275390625, 0, 
158, 2602009409, 80.54623413085938, -83.71893310546875, -45.598445892333984, 9.878179550170898, 0.9574185609817505, 0.31680649518966675, -3.165407180786133, -3.2991137504577637, -0.3661555349826813, -0.04443359375, 0.14453125, -1.22216796875, 0, 
159, 2602017742, 80.55260467529297, -83.7185287475586, -45.60423278808594, 10.20853042602539, 0.9842038750648499, 0.04571191966533661, -3.0932776927948, -2.9909744262695312, -0.3784247040748596, -0.04443359375, 0.142578125, -1.2275390625, 0, 
160, 2602026075, 80.54229736328125, -83.718994140625, -45.592464447021484, 9.986594200134277, 1.1149449348449707, 0.1080569252371788, -3.00885272026062, -2.7809624671936035, -0.24313026666641235, -0.04443359375, 0.13916015625, -1.22216796875, 0, 
161, 2602034408, 80.5352783203125, -83.71839904785156, -45.58087921142578, 9.57775592803955, 1.2741636037826538, 0.17520073056221008, -3.0558037757873535, -2.8043742179870605, -0.31774455308914185, -0.04443359375, 0.142578125, -1.22412109375, 0, 
162, 2602042741, 80.53948974609375, -83.71833801269531, -45.58652877807617, 9.450860977172852, 1.1223899126052856, 0.31257668137550354, -3.3373301029205322, -2.995098114013672, -0.3370577394962311, -0.04296875, 0.1416015625, -1.228515625, 0, 
163, 2602051074, 80.55181884765625, -83.71815490722656, -45.590782165527344, 9.782123565673828, 0.9860424995422363, 0.25259828567504883, -3.210693120956421, -3.0800864696502686, -0.3161821663379669, -0.04443359375, 0.14306640625, -1.224609375, 0, 
164, 2602059407, 80.55704498291016, -83.71612548828125, -45.59398651123047, 10.14932632446289, 0.9351453185081482, 0.16496357321739197, -3.197476387023926, -2.9522714614868164, -0.5213266015052795, -0.044921875, 0.14208984375, -1.22607421875, 0, 
165, 2602067740, 80.55179595947266, -83.71621704101562, -45.5872917175293, 10.042134284973145, 1.156964898109436, 0.08186779171228409, -3.0053694248199463, -2.840644121170044, -0.29348790645599365, -0.04248046875, 0.14404296875, -1.22509765625, 0, 
166, 2602076073, 80.53289031982422, -83.71634674072266, -45.568763732910156, 9.710041999816895, 1.248009443283081, 0.12120333313941956, -3.2261898517608643, -2.6850380897521973, -0.26797616481781006, -0.044921875, 0.1416015625, -1.2255859375, 0, 
167, 2602084406, 80.53590393066406, -83.71578216552734, -45.57135772705078, 9.435325622558594, 1.1411100625991821, 0.2639826238155365, -3.2376906871795654, -2.954986333847046, -0.34612518548965454, -0.0439453125, 0.1435546875, -1.22607421875, 0, 
168, 2602092739, 80.54507446289062, -83.71427917480469, -45.58061599731445, 9.667426109313965, 1.009392499923706, 0.25003281235694885, -3.1773693561553955, -3.015000581741333, -0.5123615860939026, -0.04248046875, 0.14013671875, -1.22412109375, 0, 
169, 2602101072, 80.55998229980469, -83.7129135131836, -45.59376525878906, 10.12039566040039, 0.9198673367500305, 0.2536522448062897, -3.064922571182251, -3.076218605041504, -0.4570091962814331, -0.0439453125, 0.142578125, -1.22705078125, 0, 
170, 2602109405, 80.55023956298828, -83.71294403076172, -45.57917022705078, 10.133026123046875, 1.087095856666565, -0.04658392071723938, -3.1793673038482666, -2.794487714767456, -0.25370901823043823, -0.04296875, 0.14306640625, -1.22119140625, 0, 
171, 2602117738, 80.53439331054688, -83.71304321289062, -45.56394958496094, 9.77258586883545, 1.1633589267730713, 0.07713393867015839, -3.2523419857025146, -2.7281980514526367, -0.2725354731082916, -0.0439453125, 0.14208984375, -1.228515625, 0, 
172, 2602126071, 80.5257568359375, -83.7120361328125, -45.55506896972656, 9.437132835388184, 1.2114607095718384, 0.18893949687480927, -3.149449586868286, -2.7897489070892334, -0.42358264327049255, -0.0419921875, 0.14404296875, -1.22265625, 0, 
173, 2602134404, 80.53131866455078, -83.711669921875, -45.54721450805664, 9.494425773620605, 1.1152241230010986, 0.19610348343849182, -3.155238389968872, -2.981778621673584, -0.3259924054145813, -0.04443359375, 0.140625, -1.22607421875, 0, 
174, 2602142737, 80.54348754882812, -83.7109146118164, -45.56031799316406, 9.955602645874023, 0.8861435055732727, 0.3155852258205414, -3.2751386165618896, -3.0805985927581787, -0.4439202845096588, -0.0419921875, 0.142578125, -1.22705078125, 0, 
175, 2602151070, 80.54031372070312, -83.70985412597656, -45.57322692871094, 10.204044342041016, 0.9597736597061157, 0.07448776066303253, -3.130162239074707, -2.852452516555786, -0.3701769709587097, -0.04345703125, 0.1435546875, -1.224609375, 0, 
176, 2602159403, 80.53533172607422, -83.70970153808594, -45.549888610839844, 9.907879829406738, 1.2576954364776611, 0.07160620391368866, -3.129572868347168, -2.846971035003662, -0.272074431180954, -0.04345703125, 0.14306640625, -1.2216796875, 0, 
177, 2602167736, 80.52616882324219, -83.71047973632812, -45.54108428955078, 9.603672981262207, 1.240006685256958, 0.1696401834487915, -3.2171225547790527, -2.8269155025482178, -0.20855112373828888, -0.044921875, 0.14208984375, -1.21826171875, 0, 
178, 2602176069, 80.52323913574219, -83.71116638183594, -45.53824234008789, 9.481639862060547, 1.0718258619308472, 0.2903590500354767, -3.1846179962158203, -2.9008376598358154, -0.2365218549966812, -0.04345703125, 0.1416015625, -1.212890625, 0, 
179, 2602184402, 80.53971862792969, -83.71047973632812, -45.55506896972656, 9.78443717956543, 1.0397799015045166, 0.24202215671539307, -3.260871648788452, -3.1280875205993652, -0.3926662802696228, -0.044921875, 0.14306640625, -1.21826171875, 0, 
180, 2602192735, 80.54912567138672, -83.70979309082031, -45.56410598754883, 10.176149368286133, 0.967521071434021, 0.17092183232307434, -3.120326280593872, -3.0278074741363525, -0.42161035537719727, -0.044921875, 0.140625, -1.21826171875, 0, 
181, 2602201068, 80.54229736328125, -83.7091064453125, -45.58516311645508, 10.076263427734375, 1.1059046983718872, 0.07457387447357178, -3.2376651763916016, -2.8252501487731934, -0.3411816358566284, -0.04443359375, 0.1396484375, -1.21923828125, 0, 
182, 2602209401, 80.53064727783203, -83.70795440673828, -45.78911590576172, 9.700364112854004, 1.3288668394088745, 0.11180520057678223, -2.967357873916626, -2.7241504192352295, -0.3748643100261688, -0.04248046875, 0.1416015625, -1.21630859375, 0, 
183, 2602217734, 80.52416229248047, -83.7078628540039, -45.782875061035156, 9.451746940612793, 1.1703027486801147, 0.3217664361000061, -3.202548027038574, -2.8422837257385254, -0.3097785711288452, -0.0439453125, 0.142578125, -1.21630859375, 0, 
184, 2602226067, 80.52947998046875, -83.7081069946289, -45.78936767578125, 9.689655303955078, 0.9887275695800781, 0.27521833777427673, -3.309103012084961, -3.012413501739502, -0.30847227573394775, -0.0458984375, 0.14208984375, -1.21728515625, 0, 
185, 2602234400, 80.54414367675781, -83.70696258544922, -45.80820846557617, 10.089587211608887, 0.942314624786377, 0.2557452619075775, -3.202906608581543, -3.0919201374053955, -0.4437410533428192, -0.04345703125, 0.14306640625, -1.21826171875, 0, 
186, 2602242733, 80.53460693359375, -83.70677185058594, -45.797821044921875, 10.125444412231445, 1.0648223161697388, -0.01217262540012598, -3.081084966659546, -2.784600257873535, -0.325275182723999, -0.04541015625, 0.142578125, -1.21630859375, 0, 
187, 2602251066, 80.5177230834961, -83.70683288574219, -45.84122848510742, 9.828721046447754, 1.1621719598770142, 0.12502196431159973, -3.1232717037200928, -2.698075294494629, -0.21131742000579834, -0.0439453125, 0.14208984375, -1.2158203125, 0, 
188, 2602259399, 80.5024185180664, -83.70690155029297, -45.81544876098633, 9.44821834564209, 1.2206873893737793, 0.21258039772510529, -3.340557336807251, -2.7394425868988037, -0.2220754325389862, -0.04345703125, 0.1416015625, -1.22021484375, 0, 
189, 2602267732, 80.51681518554688, -83.70690155029297, -45.83073043823242, 9.507018089294434, 1.1152111291885376, 0.22321589291095734, -3.267275333404541, -3.1222474575042725, -0.3563708961009979, -0.04638671875, 0.14306640625, -1.21533203125, 0, 
190, 2602276065, 80.52554321289062, -83.70608520507812, -45.839603424072266, 9.984121322631836, 0.8933045268058777, 0.339547336101532, -3.17982816696167, -3.023043155670166, -0.4376704692840576, -0.04296875, 0.14208984375, -1.2158203125, 0, 
191, 2602284398, 80.37992858886719, -83.74361419677734, -45.639400482177734, 10.104111671447754, 1.0312397480010986, 0.031765591353178024, -3.0197391510009766, -2.963029146194458, -0.4266563355922699, -0.04638671875, 0.14013671875, -1.21826171875, 0, 
192, 2602292731, 80.3714828491211, -83.74385833740234, -45.62954330444336, 9.883633613586426, 1.1960978507995605, 0.0766991451382637, -3.0069828033447266, -2.8014543056488037, -0.27243298292160034, -0.04248046875, 0.142578125, -1.21484375, 0, 
193, 2602301064, 80.36658477783203, -83.74398803710938, -45.51956558227539, 9.582128524780273, 1.2008180618286133, 0.14866852760314941, -3.0936617851257324, -2.853400468826294, -0.25183916091918945, -0.0458984375, 0.14306640625, -1.2177734375, 0, 
194, 2602309397, 80.37273406982422, -83.74382781982422, -45.50666809082031, 9.43009090423584, 1.1102725267410278, 0.2792604863643646, -3.161975145339966, -2.9964301586151123, -0.2958700358867645, -0.044921875, 0.14306640625, -1.21533203125, 0, 
195, 2602317730, 80.39157104492188, -83.74394989013672, -45.526405334472656, 9.764019012451172, 0.9693256616592407, 0.22987224161624908, -3.2656872272491455, -3.182440757751465, -0.34989044070243835, -0.04541015625, 0.14111328125, -1.2197265625, 0, 
196, 2602326063, 80.39905548095703, -83.74242401123047, -45.533973693847656, 10.191418647766113, 0.894598662853241, 0.18584482371807098, -3.1753969192504883, -2.9925622940063477, -0.5317258834838867, -0.0458984375, 0.1416015625, -1.216796875, 0, 
197, 2602334396, 80.3908462524414, -83.74172973632812, -45.57414245605469, 10.05272102355957, 1.154264211654663, 0.06986863911151886, -3.1455564498901367, -2.796459674835205, -0.3351878821849823, -0.0439453125, 0.1416015625, -1.216796875, 0, 
198, 2602342729, 80.37822723388672, -83.74248504638672, -45.56122970581055, 9.65425968170166, 1.2762271165847778, 0.11065646260976791, -3.1372828483581543, -2.7755587100982666, -0.21008796989917755, -0.0439453125, 0.13916015625, -1.220703125, 0, 
199, 2602351062, 80.38312530517578, -83.74336242675781, -45.565818786621094, 9.458396911621094, 1.1370067596435547, 0.29184582829475403, -3.2625362873077393, -3.0073928833007812, -0.1706932783126831, -0.04541015625, 0.1396484375, -1.2158203125, 0, 
200, 2602359395, 80.4054183959961, -83.74282836914062, -45.58850860595703, 9.60031795501709, 1.0532163381576538, 0.17990274727344513, -3.2048532962799072, -3.2082600593566895, -0.44263961911201477, -0.04541015625, 0.140625, -1.21923828125, 0, 
201, 2602367728, 80.41812133789062, -83.7430191040039, -45.628665924072266, 10.093562126159668, 0.913922131061554, 0.2914021611213684, -3.084594249725342, -3.078524112701416, -0.281730979681015, -0.0458984375, 0.140625, -1.21533203125, 0, 
202, 2602376061, 80.42438507080078, -83.74213409423828, -45.634986877441406, 10.133635520935059, 1.0425870418548584, 0.06673415005207062, -3.1836187839508057, -2.986696720123291, -0.379218727350235, -0.04638671875, 0.14111328125, -1.21630859375, 0, 
203, 2602384394, 80.42020416259766, -83.74251556396484, -45.63005447387695, 9.823002815246582, 1.2794570922851562, 0.07220631837844849, -3.078498363494873, -2.8681282997131348, -0.285675585269928, -0.044921875, 0.14208984375, -1.21630859375, 0, 
204, 2602392727, 80.40855407714844, -83.74298095703125, -45.619815826416016, 9.505111694335938, 1.2254313230514526, 0.182573139667511, -3.348677158355713, -2.8013267517089844, -0.2506353259086609, -0.0458984375, 0.14208984375, -1.2158203125, 0, 
205, 2602401060, 80.42121124267578, -83.7430419921875, -45.69046401977539, 9.61225414276123, 1.0490843057632446, 0.3008328974246979, -3.3092312812805176, -3.1005263328552246, -0.29861074686050415, -0.04443359375, 0.14111328125, -1.2177734375, 0, 
206, 2602409393, 80.4298095703125, -83.74276733398438, -45.699134826660156, 9.960233688354492, 0.9609562158584595, 0.2987366020679474, -3.176985025405884, -3.0333144664764404, -0.3693060576915741, -0.0439453125, 0.140625, -1.21240234375, 0, 
207, 2602417726, 80.42487335205078, -83.74163818359375, -45.698062896728516, 10.152673721313477, 0.9963058233261108, -0.016926206648349762, -3.225933790206909, -2.8410286903381348, -0.4026045501232147, -0.04248046875, 0.14013671875, -1.21728515625, 0, 
208, 2602426059, 80.4212646484375, -83.7414779663086, -45.688316345214844, 9.969796180725098, 1.146419882774353, 0.10480166226625443, -3.003730058670044, -2.8529391288757324, -0.28070640563964844, -0.044921875, 0.14208984375, -1.2177734375, 0, 
209, 2602434392, 80.4022216796875, -83.7420425415039, -45.66977310180664, 9.548944473266602, 1.3184196949005127, 0.13502740859985352, -3.247091054916382, -2.6959750652313232, -0.221844881772995, -0.04443359375, 0.14208984375, -1.21435546875, 0, 
210, 2602442725, 80.40048217773438, -83.74238586425781, -45.66914367675781, 9.466261863708496, 1.1734012365341187, 0.2851364314556122, -3.301239490509033, -2.926964282989502, -0.27747902274131775, -0.04541015625, 0.14208984375, -1.2177734375, 0, 
211, 2602451058, 80.42514038085938, -83.74120330810547, -45.75950241088867, 9.890629768371582, 0.9350950717926025, 0.28815990686416626, -3.2896876335144043, -3.227726697921753, -0.4800364375114441, -0.0439453125, 0.1416015625, -1.2119140625, 0, 
212, 2602459391, 80.42799377441406, -83.74019622802734, -45.76156997680664, 10.188385009765625, 0.9571008682250977, 0.05649032071232796, -3.0774993896484375, -2.9325737953186035, -0.44535472989082336, -0.04345703125, 0.14111328125, -1.2197265625, 0, 
213, 2602467724, 80.42542266845703, -83.7403564453125, -45.83154296875, 10.008977890014648, 1.1873635053634644, 0.04876193776726723, -3.034543991088867, -2.8770933151245117, -0.23759762942790985, -0.04345703125, 0.1416015625, -1.21435546875, 0, 
214, 2602476057, 80.40143585205078, -83.73966217041016, -45.79338455200195, 9.69236946105957, 1.1931862831115723, 0.08019544929265976, -3.1840286254882812, -2.5953879356384277, -0.31095680594444275, -0.04443359375, 0.142578125, -1.2158203125, 0, 
215, 2602484390, 80.39187622070312, -83.73941040039062, -45.7841911315918, 9.452693939208984, 1.1379643678665161, 0.2703143358230591, -3.2214767932891846, -2.8007633686065674, -0.3364430069923401, -0.0439453125, 0.1416015625, -1.21728515625, 0, 
216, 2602492723, 80.4083480834961, -83.73941040039062, -45.80177688598633, 9.627381324768066, 1.0356669425964355, 0.17115874588489532, -3.2934272289276123, -3.1548540592193604, -0.3616473972797394, -0.0458984375, 0.14306640625, -1.2138671875, 0, 
217, 2602501056, 80.41484832763672, -83.73834228515625, -45.8111572265625, 10.123374938964844, 0.8941013813018799, 0.2655550241470337, -3.2140231132507324, -2.9888994693756104, -0.4130551815032959, -0.0458984375, 0.1435546875, -1.21875, 0, 
218, 2602509389, 80.40625762939453, -83.73794555664062, -45.80228042602539, 10.144968032836914, 1.0978351831436157, 0.050397925078868866, -3.145786762237549, -2.801992416381836, -0.3580358028411865, -0.04296875, 0.14404296875, -1.21435546875, 0, 
219, 2602517722, 80.3996353149414, -83.73860168457031, -45.73666000366211, 9.777441024780273, 1.2774797677993774, 0.037558604031801224, -3.088641405105591, -2.8400039672851562, -0.18529337644577026, -0.04541015625, 0.14306640625, -1.21923828125, 0, 
220, 2602526055, 80.38408660888672, -83.73944854736328, -45.705440521240234, 9.513782501220703, 1.187740445137024, 0.255477637052536, -3.2385616302490234, -2.7415943145751953, -0.1371898502111435, -0.04443359375, 0.14208984375, -1.21630859375, 0, 
221, 2602534388, 80.38044738769531, -83.73954010009766, -45.70306396484375, 9.502748489379883, 1.0103483200073242, 0.2807166576385498, -3.3255727291107178, -2.896073579788208, -0.30509114265441895, -0.0439453125, 0.14111328125, -1.212890625, 0, 
222, 2602542721, 80.39057159423828, -83.7381591796875, -45.7151985168457, 9.920609474182129, 0.9348046183586121, 0.2899734675884247, -3.4041833877563477, -3.0558297634124756, -0.5190212726593018, -0.04296875, 0.1416015625, -1.2177734375, 0, 
223, 2602551054, 80.38468170166016, -83.73681640625, -45.712703704833984, 10.197757720947266, 0.9589138627052307, 0.025262145325541496, -3.1149985790252686, -2.8104195594787598, -0.41917699575424194, -0.0419921875, 0.14404296875, -1.21337890625, 0, 
224, 2602559387, 80.36002349853516, -83.73644256591797, -45.68782424926758, 9.925592422485352, 1.1709667444229126, 0.14134319126605988, -3.1574411392211914, -2.59502911567688, -0.32642775774002075, -0.04296875, 0.142578125, -1.2197265625, 0, 
225, 2602567720, 80.34175109863281, -83.73540496826172, -45.641788482666016, 9.571501731872559, 1.3237018585205078, 0.15411172807216644, -3.187281608581543, -2.6650331020355225, -0.3534764349460602, -0.0439453125, 0.14306640625, -1.21533203125, 0, 
226, 2602576053, 80.33256530761719, -83.73553466796875, -45.63471984863281, 9.495738983154297, 1.125299334526062, 0.31343546509742737, -3.355337142944336, -2.8244049549102783, -0.24095311760902405, -0.04443359375, 0.14013671875, -1.21533203125, 0, 
227, 2602584386, 80.3362045288086, -83.7347183227539, -45.63908004760742, 9.77845287322998, 0.9102550148963928, 0.2957773506641388, -3.2501649856567383, -2.964463472366333, -0.4335722029209137, -0.04345703125, 0.1435546875, -1.21728515625, 0, 
228, 2602592719, 80.33431243896484, -83.73381042480469, -45.6375732421875, 10.043909072875977, 0.9370691776275635, 0.10635387897491455, -3.2233469486236572, -2.889721393585205, -0.4241461753845215, -0.04638671875, 0.14208984375, -1.21337890625, 0, 
229, 2602601052, 80.32818603515625, -83.73299407958984, -45.63116455078125, 9.987908363342285, 1.115671992301941, 0.10954941809177399, -3.0717613697052, -2.8125710487365723, -0.37048426270484924, -0.04296875, 0.14306640625, -1.22509765625, 0, 
230, 2602609385, 80.30570220947266, -83.73345947265625, -45.60761260986328, 9.725058555603027, 1.268700122833252, 0.1466197818517685, -3.0558547973632812, -2.631990432739258, -0.21313601732254028, -0.044921875, 0.14208984375, -1.2265625, 0, 
231, 2602617718, 80.3011245727539, -83.73286437988281, -45.57743453979492, 9.497955322265625, 1.1974360942840576, 0.3054696023464203, -3.3138673305511475, -2.8627493381500244, -0.33234474062919617, -0.04345703125, 0.142578125, -1.23388671875, 0, 
232, 2602626051, 80.3194580078125, -83.73187255859375, -45.58607482910156, 9.645025253295898, 1.016607642173767, 0.2346668243408203, -3.1616930961608887, -3.1386146545410156, -0.43436622619628906, -0.04541015625, 0.1416015625, -1.22607421875, 0, 
233, 2602634384, 80.31851959228516, -83.7303695678711, -45.58493423461914, 10.046867370605469, 0.8995265960693359, 0.26029372215270996, -3.1398444175720215, -2.878220319747925, -0.5071362853050232, -0.0439453125, 0.14208984375, -1.23193359375, 0, 
234, 2602642717, 80.31524658203125, -83.73055267333984, -45.58109664916992, 10.032523155212402, 1.092711091041565, 0.05318930000066757, -3.1079800128936768, -2.879629135131836, -0.2993791699409485, -0.04248046875, 0.14111328125, -1.2314453125, 0, 
235, 2602651050, 80.30950164794922, -83.7296142578125, -45.57454299926758, 9.794361114501953, 1.227532982826233, 0.09691423177719116, -3.1138715744018555, -2.8206396102905273, -0.3772720694541931, -0.04345703125, 0.1416015625, -1.2275390625, 0, 
236, 2602659383, 80.30911254882812, -83.73002624511719, -45.57401657104492, 9.486128807067871, 1.234944224357605, 0.22695425152778625, -3.1531639099121094, -2.9273996353149414, -0.27904149889945984, -0.044921875, 0.14404296875, -1.22900390625, 0, 
237, 2602667716, 80.31501770019531, -83.73080444335938, -45.58094024658203, 9.487110137939453, 1.1019960641860962, 0.1881713569164276, -3.274728775024414, -3.0254769325256348, -0.19430959224700928, -0.04345703125, 0.14208984375, -1.22705078125, 0, 
238, 2602676049, 80.32696533203125, -83.7293701171875, -45.59265899658203, 9.962360382080078, 0.8430918455123901, 0.3198166787624359, -3.022505521774292, -3.0298314094543457, -0.47737255692481995, -0.04248046875, 0.140625, -1.2294921875, 0, 
239, 2602684382, 80.3228759765625, -83.72796630859375, -45.58794403076172, 10.179969787597656, 1.0414153337478638, 0.0690331682562828, -3.0967354774475098, -2.8373401165008545, -0.4768858551979065, -0.04541015625, 0.142578125, -1.2275390625, 0, 
240, 2602692715, 80.31431579589844, -83.72830200195312, -45.57801055908203, 9.913884162902832, 1.2609624862670898, 0.08903125673532486, -3.007520914077759, -2.8046560287475586, -0.26961541175842285, -0.0458984375, 0.140625, -1.2255859375, 0, 
241, 2602701048, 80.30278778076172, -83.72796630859375, -45.56401443481445, 9.590771675109863, 1.2113494873046875, 0.1785096377134323, -3.2365634441375732, -2.769974708557129, -0.28324222564697266, -0.04443359375, 0.140625, -1.22998046875, 0, 
242, 2602709381, 80.30360412597656, -83.72767639160156, -45.56533432006836, 9.463590621948242, 1.0987547636032104, 0.24437351524829865, -3.225959539413452, -2.9362881183624268, -0.3660787045955658, -0.044921875, 0.142578125, -1.22265625, 0, 
243, 2602717714, 80.32391357421875, -83.72786712646484, -45.59156799316406, 9.76227855682373, 1.004913330078125, 0.23580919206142426, -3.202932119369507, -3.192148447036743, -0.3019149899482727, -0.044921875, 0.1416015625, -1.22900390625, 0, 
244, 2602726047, 80.34354400634766, -83.72711944580078, -45.61574172973633, 10.177355766296387, 0.9042447209358215, 0.1396733820438385, -3.0805728435516357, -3.152702569961548, -0.4072663486003876, -0.04345703125, 0.14404296875, -1.22802734375, 0, 
245, 2602734380, 80.33626556396484, -83.7279281616211, -45.6077880859375, 10.077788352966309, 1.1484774351119995, 0.1075935885310173, -3.090306282043457, -2.8376734256744385, -0.22107648849487305, -0.04296875, 0.14111328125, -1.2236328125, 0, 
246, 2602742713, 80.33270263671875, -83.7279281616211, -45.60353088378906, 9.689157485961914, 1.3451682329177856, 0.12324217706918716, -3.091536045074463, -2.8702800273895264, -0.3152856230735779, -0.0458984375, 0.14111328125, -1.2275390625, 0, 
247, 2602751046, 80.33460235595703, -83.728271484375, -45.60565948486328, 9.510787963867188, 1.1294552087783813, 0.3396686911582947, -3.2535715103149414, -2.9597506523132324, -0.24710053205490112, -0.04638671875, 0.14208984375, -1.2236328125, 0, 
248, 2602759379, 80.34722137451172, -83.728271484375, -45.61886978149414, 9.667387962341309, 1.0505731105804443, 0.2579061985015869, -3.2240641117095947, -3.0964794158935547, -0.3580101728439331, -0.0419921875, 0.14453125, -1.22998046875, 0, 
249, 2602767712, 80.3560562133789, -83.7273941040039, -45.627410888671875, 10.078449249267578, 0.9445737600326538, 0.1988717019557953, -3.150320529937744, -3.0168960094451904, -0.3917185366153717, -0.0439453125, 0.142578125, -1.22705078125, 0, 
250, 2602776045, 80.35657501220703, -83.72745513916016, -45.627071380615234, 10.12731647491455, 1.0164964199066162, 0.04913454130291939, -3.140842914581299, -2.9267849922180176, -0.25831958651542664, -0.0400390625, 0.140625, -1.2255859375, 0, 
251, 2602784378, 80.34886169433594, -83.7280502319336, -45.61911392211914, 9.784662246704102, 1.2147570848464966, 0.07595164328813553, -3.1432509422302246, -2.832908868789673, -0.25591185688972473, -0.04248046875, 0.1435546875, -1.2265625, 0, 
252, 2602792711, 80.3481216430664, -83.7281494140625, -45.618465423583984, 9.476819038391113, 1.2331348657608032, 0.2208528220653534, -3.180980682373047, -2.918844699859619, -0.314568430185318, -0.04638671875, 0.140625, -1.22314453125, 0, 
253, 2602801044, 80.37066650390625, -83.72749328613281, -45.644325256347656, 9.563385009765625, 1.0896838903427124, 0.21619407832622528, -3.3092567920684814, -3.216456413269043, -0.39625224471092224, -0.04296875, 0.1416015625, -1.22705078125, 0, 
254, 2602809377, 80.38970184326172, -83.72695922851562, -45.66324996948242, 9.998334884643555, 0.9049967527389526, 0.2858476936817169, -3.137359619140625, -3.158696413040161, -0.4361591935157776, -0.0439453125, 0.14453125, -1.22265625, 0, 
255, 2602817710, 80.38931274414062, -83.72589874267578, -45.64502716064453, 10.142586708068848, 1.0627384185791016, 0.028689252212643623, -3.0541391372680664, -2.883061408996582, -0.39310166239738464, -0.04248046875, 0.14208984375, -1.2255859375, 0, 
256, 2602826043, 80.3876953125, -83.72630310058594, -45.640228271484375, 9.885231018066406, 1.2276232242584229, 0.0656687319278717, -2.9135937690734863, -2.8806536197662354, -0.22135820984840393, -0.044921875, 0.14501953125, -1.2265625, 0, 
257, 2602834376, 80.3796157836914, -83.72755432128906, -45.63148498535156, 9.543163299560547, 1.2007644176483154, 0.08570659160614014, -3.101627826690674, -2.8372888565063477, -0.16172829270362854, -0.04296875, 0.14111328125, -1.22412109375, 0, 
258, 2602842709, 80.38716125488281, -83.72899627685547, -45.64067459106445, 9.454222679138184, 1.0629085302352905, 0.19606105983257294, -3.3548758029937744, -3.0731961727142334, -0.17919719219207764, -0.04296875, 0.1396484375, -1.22900390625, 0, 
259, 2602851042, 80.40877532958984, -83.72856140136719, -45.65633010864258, 9.83216381072998, 0.9441226124763489, 0.3121196925640106, -3.1994998455047607, -3.195939779281616, -0.3637734055519104, -0.04248046875, 0.14306640625, -1.22216796875, 0, 
260, 2602859375, 80.40597534179688, -83.7280502319336, -45.6521110534668, 10.217272758483887, 0.9558579921722412, 0.06619589775800705, -3.0000672340393066, -2.8606488704681396, -0.37804049253463745, -0.04443359375, 0.14306640625, -1.22607421875, 0, 
261, 2602867708, 80.38601684570312, -83.72761535644531, -45.619346618652344, 10.058504104614258, 1.1673625707626343, 0.04653998464345932, -3.029728412628174, -2.6350901126861572, -0.3015051484107971, -0.04443359375, 0.14208984375, -1.2197265625, 0, 
262, 2602876041, 80.37004852294922, -83.72774505615234, -45.60115432739258, 9.628927230834961, 1.2692862749099731, 0.13876138627529144, -3.136462926864624, -2.709857940673828, -0.23298706114292145, -0.04345703125, 0.1435546875, -1.2255859375, 0, 
263, 2602884374, 80.37389373779297, -83.72858428955078, -45.60585021972656, 9.388912200927734, 1.1961551904678345, 0.2792396545410156, -3.265558958053589, -3.0023982524871826, -0.2349337786436081, -0.044921875, 0.14306640625, -1.2265625, 0, 
264, 2602892707, 80.39338684082031, -83.72895812988281, -45.626773834228516, 9.649524688720703, 1.0288352966308594, 0.17566198110580444, -3.3288774490356445, -3.2042126655578613, -0.33147382736206055, -0.0419921875, 0.14404296875, -1.224609375, 0, 
265, 2602901040, 80.40150451660156, -83.72821044921875, -45.632041931152344, 10.108016014099121, 0.8924645185470581, 0.20010681450366974, -3.094994068145752, -3.0019114017486572, -0.3705611526966095, -0.04345703125, 0.142578125, -1.22705078125, 0, 
266, 2602909373, 80.40470886230469, -83.72834014892578, -45.633304595947266, 10.133086204528809, 1.0654537677764893, 0.02418329380452633, -2.935058116912842, -2.9449708461761475, -0.32025477290153503, -0.04296875, 0.1416015625, -1.22216796875, 0, 
267, 2602917706, 80.38422393798828, -83.72852325439453, -45.598697662353516, 9.832681655883789, 1.2825289964675903, 0.08451049774885178, -3.203111410140991, -2.659372091293335, -0.20670686662197113, -0.04345703125, 0.14208984375, -1.2294921875, 0, 
268, 2602926039, 80.36825561523438, -83.7294921875, -45.59754180908203, 9.523504257202148, 1.1640526056289673, 0.2625695765018463, -3.3522377014160156, -2.750303030014038, -0.13780459761619568, -0.0419921875, 0.14306640625, -1.22412109375, 0, 
269, 2602934372, 80.3788070678711, -83.72905731201172, -45.6088981628418, 9.600399017333984, 1.072735071182251, 0.24425749480724335, -3.2556204795837402, -3.0627965927124023, -0.41571903228759766, -0.0439453125, 0.1416015625, -1.22216796875, 0, 
270, 2602942705, 80.396728515625, -83.72771453857422, -45.62691879272461, 9.956648826599121, 1.0198943614959717, 0.27715978026390076, -3.174013614654541, -3.1320576667785645, -0.5200970768928528, -0.04443359375, 0.14404296875, -1.22607421875, 0, 
271, 2602951038, 80.39506530761719, -83.72586822509766, -45.62257766723633, 10.177637100219727, 0.9879619479179382, 0.04272811859846115, -3.2778024673461914, -2.8727643489837646, -0.4823159873485565, -0.0458984375, 0.1435546875, -1.224609375, 0, 
272, 2602959371, 80.3755874633789, -83.7272720336914, -45.60291290283203, 9.945573806762695, 1.1397391557693481, 0.06646071374416351, -3.156647205352783, -2.7005088329315186, -0.11969532072544098, -0.04345703125, 0.14404296875, -1.22705078125, 0, 
273, 2602967704, 80.36537170410156, -83.72708129882812, -45.619625091552734, 9.481060028076172, 1.2996114492416382, 0.14548668265342712, -3.132749080657959, -2.7765321731567383, -0.28188464045524597, -0.0439453125, 0.1416015625, -1.2216796875, 0, 
274, 2602976037, 80.37623596191406, -83.72628021240234, -45.64419937133789, 9.482428550720215, 1.1147361993789673, 0.28093278408050537, -3.2628183364868164, -3.0543694496154785, -0.3953557312488556, -0.04443359375, 0.14208984375, -1.22021484375, 0, 
275, 2602984370, 80.39070129394531, -83.7257080078125, -45.65934371948242, 9.914076805114746, 0.8868516683578491, 0.3335864841938019, -3.2350013256073, -3.1082875728607178, -0.4484284520149231, -0.04541015625, 0.14013671875, -1.21875, 0, 
276, 2602992703, 80.40296936035156, -83.7240219116211, -45.67055892944336, 10.208080291748047, 1.0208287239074707, 0.07771728932857513, -3.0368752479553223, -3.0362606048583984, -0.5525503158569336, -0.04638671875, 0.14111328125, -1.21435546875, 0, 
277, 2603001036, 80.3892822265625, -83.7239990234375, -45.66730499267578, 10.008158683776855, 1.114000678062439, 0.06625084578990936, -3.1853866577148438, -2.745999813079834, -0.24197770655155182, -0.04345703125, 0.14306640625, -1.21923828125, 0, 
278, 2603009369, 80.3746566772461, -83.72340393066406, -45.65217208862305, 9.653593063354492, 1.1649986505508423, 0.12773416936397552, -3.120018720626831, -2.7185921669006348, -0.3653358221054077, -0.0458984375, 0.14208984375, -1.21533203125, 0, 
279, 2603017702, 80.37630462646484, -83.72227478027344, -45.683502197265625, 9.412419319152832, 1.1662554740905762, 0.2803424894809723, -3.1236817836761475, -2.912210702896118, -0.4215334951877594, -0.04638671875, 0.14306640625, -1.2197265625, 0, 
280, 2603026035, 80.38933563232422, -83.72086334228516, -45.726016998291016, 9.648421287536621, 1.0415806770324707, 0.16833621263504028, -3.1559810638427734, -3.062053918838501, -0.4649495482444763, -0.04296875, 0.142578125, -1.21630859375, 0, 
281, 2603034368, 80.41057586669922, -83.7190933227539, -45.7471809387207, 10.131887435913086, 0.879555881023407, 0.29951226711273193, -3.142303228378296, -3.1622567176818848, -0.5895116329193115, -0.04345703125, 0.140625, -1.2158203125, 0, 
282, 2603042701, 80.3953857421875, -83.71862030029297, -45.73200988769531, 10.103655815124512, 1.0854136943817139, 0.06691579520702362, -3.1836700439453125, -2.7204368114471436, -0.3549876809120178, -0.04296875, 0.14306640625, -1.21826171875, 0, 
283, 2603051034, 80.38650512695312, -83.71843719482422, -45.741615295410156, 9.76362133026123, 1.2798939943313599, 0.07830284535884857, -3.1676101684570312, -2.7992262840270996, -0.28249943256378174, -0.0439453125, 0.142578125, -1.212890625, 0, 
284, 2603059367, 80.38336944580078, -83.71890258789062, -45.73875045776367, 9.526422500610352, 1.1323353052139282, 0.2253817319869995, -3.2084906101226807, -2.8974568843841553, -0.26702842116355896, -0.0439453125, 0.14111328125, -1.21533203125, 0, 
285, 2603067700, 80.4023666381836, -83.71903228759766, -45.81572723388672, 9.479021072387695, 1.1027559041976929, 0.25489622354507446, -3.218224048614502, -3.1764984130859375, -0.30731961131095886, -0.04345703125, 0.142578125, -1.21435546875, 0, 
286, 2603076033, 80.41758728027344, -83.71714782714844, -45.82078170776367, 9.928071022033691, 0.9425261616706848, 0.31981930136680603, -3.1912007331848145, -3.084005355834961, -0.5286009907722473, -0.0419921875, 0.1435546875, -1.21630859375, 0, 
287, 2603084366, 80.41757202148438, -83.71690368652344, -45.82023239135742, 10.211881637573242, 0.9357773661613464, 0.06074441224336624, -3.1054956912994385, -2.912261962890625, -0.361468106508255, -0.0439453125, 0.14208984375, -1.21826171875, 0, 
288, 2603092699, 80.41139221191406, -83.71681213378906, -45.81268310546875, 9.91483211517334, 1.2049986124038696, 0.16089002788066864, -3.0165371894836426, -2.8275296688079834, -0.32478848099708557, -0.0439453125, 0.14306640625, -1.2158203125, 0, 
289, 2603101032, 80.40335083007812, -83.71636962890625, -45.79080581665039, 9.555495262145996, 1.2746483087539673, 0.20010079443454742, -3.115510940551758, -2.799994707107544, -0.3091126084327698, -0.044921875, 0.1435546875, -1.21875, 0, 
290, 2603109365, 80.4151611328125, -83.71646881103516, -45.80297088623047, 9.507078170776367, 1.0956854820251465, 0.26093268394470215, -3.2024455070495605, -3.0850043296813965, -0.3515041768550873, -0.04541015625, 0.142578125, -1.2138671875, 0, 
291, 2603117698, 80.4349594116211, -83.71540832519531, -45.789215087890625, 9.766749382019043, 0.9685544371604919, 0.30984288454055786, -3.0919456481933594, -3.1478614807128906, -0.44261401891708374, -0.044921875, 0.14208984375, -1.21923828125, 0, 
292, 2603126031, 80.44055938720703, -83.7137222290039, -45.82073974609375, 10.115558624267578, 0.9719286561012268, 0.12704411149024963, -3.1779329776763916, -2.9612107276916504, -0.49169087409973145, -0.04443359375, 0.14208984375, -1.2177734375, 0, 
293, 2603134364, 80.43516540527344, -83.71403503417969, -45.81399154663086, 10.00615406036377, 1.0753973722457886, 0.09565100073814392, -3.011439800262451, -2.8439483642578125, -0.27432844042778015, -0.04443359375, 0.142578125, -1.21533203125, 0, 
294, 2603142697, 80.42955017089844, -83.7150650024414, -45.808624267578125, 9.655511856079102, 1.2499319314956665, 0.0650680884718895, -3.2016003131866455, -2.8783485889434814, -0.19113343954086304, -0.04541015625, 0.142578125, -1.21923828125, 0, 
295, 2603151030, 80.41863250732422, -83.71565246582031, -45.80193328857422, 9.434700965881348, 1.1460036039352417, 0.31874099373817444, -3.224294662475586, -2.7949743270874023, -0.205323725938797, -0.044921875, 0.14404296875, -1.2138671875, 0, 
296, 2603159363, 80.43904113769531, -83.71646881103516, -45.8236198425293, 9.6609525680542, 0.9941366910934448, 0.2381763756275177, -3.3109216690063477, -3.2221429347991943, -0.27361127734184265, -0.046875, 0.1435546875, -1.2197265625, 0, 
297, 2603167696, 80.45616149902344, -83.71484375, -45.808448791503906, 10.093210220336914, 0.9684996008872986, 0.2540505826473236, -3.1245782375335693, -3.107698440551758, -0.5062909722328186, -0.04345703125, 0.142578125, -1.21484375, 0, 
298, 2603176029, 80.46817016601562, -83.71400451660156, -45.81441116333008, 10.132198333740234, 1.0783324241638184, 0.01092508714646101, -3.019943952560425, -3.0454814434051514, -0.4063442349433899, -0.04541015625, 0.14306640625, -1.21728515625, 0, 
299, 2603184362, 80.456787109375, -83.71400451660156, -45.802757263183594, 9.779253005981445, 1.1669915914535522, 0.05132000520825386, -3.1429691314697266, -2.773714542388916, -0.308933287858963, -0.04443359375, 0.142578125, -1.2197265625, 0, 
300, 2603192695, 80.46437072753906, -83.71406555175781, -45.81049728393555, 9.422341346740723, 1.2169983386993408, 0.25154420733451843, -3.186795234680176, -3.025989055633545, -0.3363149166107178, -0.04296875, 0.14306640625, -1.21337890625, 0, 
301, 2603201028, 80.47633361816406, -83.71400451660156, -45.79615783691406, 9.504451751708984, 1.1531485319137573, 0.1623719185590744, -3.365428924560547, -3.0959160327911377, -0.31223753094673157, -0.04345703125, 0.14111328125, -1.22021484375, 0, 
302, 2603209361, 80.5027084350586, -83.71397399902344, -45.823787689208984, 9.9931640625, 0.8921876549720764, 0.3066515028476715, -3.2988061904907227, -3.283053398132324, -0.39563748240470886, -0.04443359375, 0.14404296875, -1.2158203125, 0, 
303, 2603217694, 80.4996337890625, -83.71257019042969, -45.74419021606445, 10.189138412475586, 0.9850825667381287, 0.07187408208847046, -3.000579357147217, -2.834035634994507, -0.4349040687084198, -0.044921875, 0.14208984375, -1.2177734375, 0, 
304, 2603226027, 80.49151611328125, -83.71278381347656, -45.76886749267578, 9.921162605285645, 1.2618534564971924, 0.09902333468198776, -3.171733856201172, -2.821561813354492, -0.24256683886051178, -0.04345703125, 0.1416015625, -1.2158203125, 0, 
305, 2603234360, 80.4793701171875, -83.71415710449219, -45.75731658935547, 9.64633846282959, 1.1972630023956299, 0.2100663036108017, -3.2501134872436523, -2.8026585578918457, -0.13601161539554596, -0.0439453125, 0.1416015625, -1.21826171875, 0, 
306, 2603242693, 80.47696685791016, -83.71519470214844, -45.75434112548828, 9.534012794494629, 1.1245918273925781, 0.2714262008666992, -3.10792875289917, -2.9072673320770264, -0.20076438784599304, -0.04443359375, 0.142578125, -1.2177734375, 0, 
307, 2603251026, 80.49903106689453, -83.7144775390625, -45.76709747314453, 9.744466781616211, 1.028745412826538, 0.3251444101333618, -3.173783302307129, -3.195657968521118, -0.41144150495529175, -0.0439453125, 0.1416015625, -1.2138671875, 0, 
308, 2603259359, 80.5047836303711, -83.71388244628906, -45.77279281616211, 10.120347023010254, 0.8953933119773865, 0.06914062052965164, -3.159874677658081, -2.986696720123291, -0.4176401197910309, -0.044921875, 0.14208984375, -1.21923828125, 0, 
309, 2603267692, 80.49626159667969, -83.7136001586914, -45.76610565185547, 10.07050895690918, 1.1155372858047485, 0.11725044250488281, -2.9929206371307373, -2.786060094833374, -0.2894152104854584, -0.044921875, 0.14111328125, -1.21337890625, 0, 
310, 2603276025, 80.49180603027344, -83.71434783935547, -45.75346374511719, 9.71119213104248, 1.3905478715896606, 0.10571213066577911, -3.040409564971924, -2.862748861312866, -0.16823427379131317, -0.04443359375, 0.14404296875, -1.216796875, 0, 
311, 2603284358, 80.48884582519531, -83.71597290039062, -45.751678466796875, 9.495793342590332, 1.1796324253082275, 0.2947978973388672, -3.3020336627960205, -2.9342386722564697, -0.13880352675914764, -0.04541015625, 0.14208984375, -1.21728515625, 0, 
312, 2603292691, 80.4884033203125, -83.71693420410156, -45.75197219848633, 9.683243751525879, 0.9908193349838257, 0.24229039251804352, -3.25946307182312, -2.946943521499634, -0.22274141013622284, -0.04296875, 0.142578125, -1.212890625, 0, 
313, 2603301024, 80.49539184570312, -83.71624755859375, -45.76582336425781, 10.079365730285645, 0.9607820510864258, 0.24293063580989838, -3.1955554485321045, -2.999990463256836, -0.3872872292995453, -0.04345703125, 0.14306640625, -1.2177734375, 0, 
314, 2603309357, 80.49840545654297, -83.71609497070312, -45.76821517944336, 10.157257080078125, 1.0217264890670776, 0.004771413281559944, -3.0888466835021973, -2.951810359954834, -0.3494294285774231, -0.04443359375, 0.14306640625, -1.2138671875, 0, 
315, 2603317690, 80.48895263671875, -83.71649932861328, -45.7399787902832, 9.793187141418457, 1.2167699337005615, 0.020686419680714607, -3.072145700454712, -2.7976889610290527, -0.21249568462371826, -0.044921875, 0.14208984375, -1.21826171875, 0, 
316, 2603326023, 80.47999572753906, -83.71612548828125, -45.728431701660156, 9.477717399597168, 1.2617233991622925, 0.21277223527431488, -3.2778539657592773, -2.810931921005249, -0.3003269135951996, -0.0458984375, 0.14111328125, -1.21875, 0, 
317, 2603334356, 80.49944305419922, -83.71659088134766, -45.748714447021484, 9.561430931091309, 1.0424261093139648, 0.20693235099315643, -3.2523419857025146, -3.1949660778045654, -0.32750362157821655, -0.0458984375, 0.14208984375, -1.21484375, 0, 
318, 2603342689, 80.50558471679688, -83.71636962890625, -45.75434494018555, 9.968542098999023, 0.9362896680831909, 0.312071293592453, -3.106238603591919, -2.9963278770446777, -0.3672312796115875, -0.0439453125, 0.1435546875, -1.22021484375, 0, 
319, 2603351022, 80.50696563720703, -83.71515655517578, -45.75686264038086, 10.122173309326172, 1.0343862771987915, 0.03467694669961929, -3.156442403793335, -2.911877393722534, -0.41653871536254883, -0.04345703125, 0.1416015625, -1.21533203125, 0, 
320, 2603359355, 80.49931335449219, -83.71527862548828, -45.74894714355469, 9.900857925415039, 1.1510488986968994, 0.04127486050128937, -3.139331817626953, -2.825326919555664, -0.29717639088630676, -0.04541015625, 0.142578125, -1.220703125, 0, 
321, 2603367688, 80.4954605102539, -83.71509552001953, -45.76525115966797, 9.591782569885254, 1.2352230548858643, 0.11556005477905273, -3.0638468265533447, -2.854552984237671, -0.2922072112560272, -0.0439453125, 0.1435546875, -1.21484375, 0, 
322, 2603376021, 80.49596405029297, -83.71549987792969, -45.785274505615234, 9.444863319396973, 1.1000758409500122, 0.27044183015823364, -3.372856616973877, -2.9570608139038086, -0.25191599130630493, -0.044921875, 0.14208984375, -1.21826171875, 0, 
323, 2603384354, 80.51612091064453, -83.71497344970703, -45.80595397949219, 9.773198127746582, 0.8979895114898682, 0.2770370543003082, -3.2166616916656494, -3.1837470531463623, -0.43341848254203796, -0.04345703125, 0.142578125, -1.22021484375, 0, 
324, 2603392687, 80.51470184326172, -83.71418762207031, -45.80508041381836, 10.175848960876465, 0.914726734161377, 0.09678878635168076, -3.233566999435425, -2.8973798751831055, -0.4335722029209137, -0.04345703125, 0.14208984375, -1.21142578125, 0, 
325, 2603401020, 80.50657653808594, -83.71316528320312, -45.79189682006836, 10.041393280029297, 1.1428794860839844, 0.09556255489587784, -3.109952449798584, -2.788160800933838, -0.3738141357898712, -0.04541015625, 0.142578125, -1.22265625, 0, 
326, 2603409353, 80.48931121826172, -83.7138442993164, -45.77480697631836, 9.688210487365723, 1.2767325639724731, 0.13052980601787567, -3.201190710067749, -2.7186949253082275, -0.2030184417963028, -0.04296875, 0.1435546875, -1.22705078125, 0, 
327, 2603417686, 80.47906494140625, -83.71394348144531, -45.76396179199219, 9.461962699890137, 1.168762445449829, 0.239532470703125, -3.2484230995178223, -2.796229362487793, -0.2564241290092468, -0.0458984375, 0.14453125, -1.23095703125, 0, 
328, 2603426019, 80.48890686035156, -83.71247100830078, -45.781551361083984, 9.587069511413574, 0.9941538572311401, 0.2293863147497177, -3.1686861515045166, -3.021045684814453, -0.4798315167427063, -0.04296875, 0.14501953125, -1.2314453125, 0, 
329, 2603434352, 80.4951171875, -83.71095275878906, -45.78837203979492, 10.090428352355957, 0.8509402871131897, 0.25850868225097656, -3.234975814819336, -2.9831366539001465, -0.528908371925354, -0.044921875, 0.14404296875, -1.22998046875, 0, 
330, 2603442685, 80.48294830322266, -83.71060943603516, -45.77470016479492, 10.11255168914795, 1.0919992923736572, 0.023822275921702385, -2.9906153678894043, -2.7394678592681885, -0.3455103933811188, -0.04248046875, 0.14208984375, -1.2314453125, 0, 
331, 2603451018, 80.46089935302734, -83.710693359375, -45.75193405151367, 9.799788475036621, 1.281400203704834, 0.10933549702167511, -3.1383583545684814, -2.63142728805542, -0.2211276888847351, -0.04150390625, 0.14208984375, -1.2236328125, 0, 
332, 2603459351, 80.4499282836914, -83.71051025390625, -45.74193572998047, 9.536006927490234, 1.1875914335250854, 0.3006143867969513, -3.287766456604004, -2.793642282485962, -0.32886117696762085, -0.04443359375, 0.14404296875, -1.22998046875, 0, 
333, 2603467684, 80.451416015625, -83.70970153808594, -45.74907684326172, 9.553231239318848, 1.0629360675811768, 0.21781963109970093, -3.211564064025879, -2.9285523891448975, -0.3781173527240753, -0.04248046875, 0.14013671875, -1.22607421875, 0, 
334, 2603476017, 80.46759033203125, -83.70802307128906, -45.75870132446289, 9.932408332824707, 0.9351106882095337, 0.26643070578575134, -3.22652268409729, -3.1066737174987793, -0.5224023461341858, -0.04345703125, 0.14208984375, -1.2255859375, 0, 
335, 2603484350, 80.46156311035156, -83.70783233642578, -45.75257873535156, 10.16121768951416, 0.9974278211593628, 0.09677942842245102, -3.164510726928711, -2.840926170349121, -0.3427441120147705, -0.04443359375, 0.14111328125, -1.228515625, 0, 
336, 2603492683, 80.4509506225586, -83.70696258544922, -45.74043655395508, 9.885354995727539, 1.1775487661361694, 0.08619219809770584, -2.991204261779785, -2.7507123947143555, -0.40626734495162964, -0.0458984375, 0.1416015625, -1.22412109375, 0, 
337, 2603501016, 80.43585968017578, -83.70736694335938, -45.725555419921875, 9.479473114013672, 1.3285329341888428, 0.1429300159215927, -3.201215982437134, -2.735626220703125, -0.18977588415145874, -0.04345703125, 0.140625, -1.228515625, 0, 
338, 2603509349, 80.44400787353516, -83.70817565917969, -45.73472213745117, 9.488731384277344, 1.0944253206253052, 0.32117384672164917, -3.283949613571167, -3.058826446533203, -0.2565009295940399, -0.04443359375, 0.14111328125, -1.22509765625, 0, 
339, 2603517682, 80.45796966552734, -83.70736694335938, -45.74934005737305, 9.897644996643066, 0.9447931051254272, 0.3413628339767456, -3.1459150314331055, -3.0861058235168457, -0.4127478003501892, -0.0458984375, 0.140625, -1.22705078125, 0, 
340, 2603526015, 80.4614028930664, -83.70674133300781, -45.7531852722168, 10.176973342895508, 1.035963535308838, 0.05850178003311157, -3.1395883560180664, -2.9513747692108154, -0.36507970094680786, -0.04248046875, 0.14404296875, -1.228515625, 0, 
341, 2603534348, 80.44781494140625, -83.70723724365234, -45.73915481567383, 10.011764526367188, 1.1137521266937256, 0.06522270292043686, -3.12811279296875, -2.75296688079834, -0.23969802260398865, -0.044921875, 0.1416015625, -1.22509765625, 0, 
342, 2603542681, 80.4408950805664, -83.7078628540039, -45.731571197509766, 9.611385345458984, 1.2192659378051758, 0.15176743268966675, -3.096658706665039, -2.8387746810913086, -0.24192647635936737, -0.044921875, 0.14208984375, -1.2255859375, 0, 
343, 2603551014, 80.44335174560547, -83.70767974853516, -45.73287582397461, 9.420350074768066, 1.1981754302978516, 0.266010046005249, -3.1851813793182373, -2.951784610748291, -0.3057571351528168, -0.04541015625, 0.1435546875, -1.22412109375, 0, 
344, 2603559347, 80.4729995727539, -83.707763671875, -45.7620849609375, 9.71059799194336, 1.0066295862197876, 0.2223556786775589, -3.0939180850982666, -3.305389165878296, -0.39048904180526733, -0.04443359375, 0.14453125, -1.22509765625, 0, 
345, 2603567680, 80.49217987060547, -83.7060546875, -45.75471496582031, 10.166163444519043, 0.882255494594574, 0.2842302620410919, -3.1401515007019043, -3.1345677375793457, -0.510671079158783, -0.044921875, 0.14306640625, -1.22509765625, 0, 
346, 2603576013, 80.49530029296875, -83.70599365234375, -45.755470275878906, 10.105552673339844, 1.1433887481689453, 0.022941306233406067, -2.917999029159546, -2.9311134815216064, -0.30352866649627686, -0.041015625, 0.140625, -1.2255859375, 0, 
347, 2603584346, 80.48667907714844, -83.70645904541016, -45.7465934753418, 9.7572603225708, 1.329725742340088, 0.1347278654575348, -3.1387939453125, -2.818436861038208, -0.2644157409667969, -0.04443359375, 0.14013671875, -1.22509765625, 0, 
348, 2603592679, 80.48818969726562, -83.70661163330078, -45.74837875366211, 9.493393898010254, 1.1378642320632935, 0.26397785544395447, -3.20295786857605, -2.9519639015197754, -0.3186667263507843, -0.04443359375, 0.1435546875, -1.224609375, 0, 
349, 2603601012, 80.50253295898438, -83.70658874511719, -45.76223373413086, 9.552363395690918, 1.1178293228149414, 0.22160978615283966, -3.1669952869415283, -3.108799934387207, -0.3056546747684479, -0.044921875, 0.142578125, -1.23046875, 0, 
350, 2603609345, 80.52627563476562, -83.7054672241211, -45.785709381103516, 10.022064208984375, 0.9261298775672913, 0.3180599808692932, -3.1175343990325928, -3.2077476978302, -0.5158963799476624, -0.0458984375, 0.142578125, -1.2236328125, 0, 
351, 2603617678, 80.52523803710938, -83.70421600341797, -45.78424835205078, 10.208081245422363, 0.9524959325790405, 0.03538927063345909, -3.1745264530181885, -2.8837788105010986, -0.42721986770629883, -0.04443359375, 0.140625, -1.2275390625, 0, 
352, 2603626011, 80.52071380615234, -83.7042465209961, -45.76433563232422, 9.846844673156738, 1.2143244743347168, 0.0995432510972023, -2.915360927581787, -2.8369557857513428, -0.2563472390174866, -0.0458984375, 0.142578125, -1.22216796875, 0, 
353, 2603634344, 80.52088928222656, -83.70421600341797, -45.76483917236328, 9.516365051269531, 1.2452852725982666, 0.23007133603096008, -3.2094123363494873, -2.9293720722198486, -0.3510943353176117, -0.0458984375, 0.1435546875, -1.2255859375, 0, 
354, 2603642677, 80.53158569335938, -83.70387268066406, -45.77568054199219, 9.525193214416504, 1.1031070947647095, 0.2960089147090912, -3.1804685592651367, -3.0621564388275146, -0.37929558753967285, -0.044921875, 0.14013671875, -1.22607421875, 0, 
355, 2603651010, 80.55560302734375, -83.70362854003906, -45.79889678955078, 9.834771156311035, 0.9580708146095276, 0.2672955393791199, -3.1554176807403564, -3.2290842533111572, -0.37509486079216003, -0.044921875, 0.14306640625, -1.2216796875, 0, 
356, 2603659343, 80.5605239868164, -83.7034683227539, -45.80398178100586, 10.168911933898926, 0.9663017988204956, 0.115903839468956, -3.1885111331939697, -2.9868249893188477, -0.36064842343330383, -0.044921875, 0.142578125, -1.23046875, 0, 
357, 2603667676, 80.56119537353516, -83.70443725585938, -45.80427551269531, 9.976762771606445, 1.0853241682052612, 0.08865618705749512, -2.9692788124084473, -2.928424119949341, -0.1721532642841339, -0.0439453125, 0.1435546875, -1.224609375, 0, 
358, 2603676009, 80.55536651611328, -83.70455932617188, -45.79692077636719, 9.561681747436523, 1.2530874013900757, 0.06249145418405533, -3.034287691116333, -2.8338050842285156, -0.2551177740097046, -0.044921875, 0.14208984375, -1.2265625, 0, 
359, 2603684342, 80.55110931396484, -83.7054672241211, -45.79292297363281, 9.446394920349121, 1.077521562576294, 0.3077712655067444, -3.196887254714966, -2.8895421028137207, -0.2242526412010193, -0.04248046875, 0.142578125, -1.22900390625, 0, 
360, 2603692675, 80.56134796142578, -83.70515441894531, -45.802696228027344, 9.761439323425293, 0.9506831765174866, 0.2524106502532959, -3.1003470420837402, -3.0468902587890625, -0.38523808121681213, -0.04443359375, 0.14453125, -1.22216796875, 0, 
361, 2603701008, 80.58392333984375, -83.7047119140625, -45.83009338378906, 10.146644592285156, 0.965158998966217, 0.14669601619243622, -3.140510082244873, -3.2041358947753906, -0.3827279210090637, -0.04052734375, 0.1435546875, -1.2265625, 0, 
362, 2603709341, 80.583740234375, -83.70475006103516, -45.83022689819336, 10.084524154663086, 1.0497987270355225, 0.016761083155870438, -3.2107956409454346, -2.9268875122070312, -0.33042365312576294, -0.0478515625, 0.14111328125, -1.2236328125, 0, 
363, 2603717674, 80.5634536743164, -83.70465087890625, -45.81195831298828, 9.671881675720215, 1.2131301164627075, 0.07537495344877243, -3.077089309692383, -2.6457455158233643, -0.25455427169799805, -0.04296875, 0.14208984375, -1.22509765625, 0, 
364, 2603726007, 80.5600357055664, -83.70427703857422, -45.809513092041016, 9.33680534362793, 1.202694296836853, 0.23665665090084076, -3.1166889667510986, -2.862083673477173, -0.3160284459590912, -0.0439453125, 0.14208984375, -1.2255859375, 0, 
365, 2603734340, 80.56463623046875, -83.70462799072266, -45.816158294677734, 9.605680465698242, 1.080030083656311, 0.16186650097370148, -3.4114060401916504, -3.018817186355591, -0.3054753839969635, -0.0439453125, 0.14111328125, -1.2265625, 0, 
366, 2603742673, 80.56961059570312, -83.70443725585938, -45.82167434692383, 10.0846586227417, 0.8317686319351196, 0.2974506914615631, -3.2316198348999023, -2.9940221309661865, -0.3556024134159088, -0.04248046875, 0.142578125, -1.22802734375, 0, 
367, 2603751006, 80.56342315673828, -83.70356750488281, -45.82899856567383, 10.155244827270508, 1.0466949939727783, 0.04881570488214493, -3.09033203125, -2.8127505779266357, -0.37576085329055786, -0.0439453125, 0.140625, -1.2158203125, 0, 
368, 2603759339, 80.54952239990234, -83.70393371582031, -45.81418991088867, 9.836175918579102, 1.2299776077270508, 0.07997113466262817, -3.0676887035369873, -2.7423367500305176, -0.25153177976608276, -0.0439453125, 0.1416015625, -1.22509765625, 0, 
369, 2603767672, 80.53815460205078, -83.7033462524414, -45.7995719909668, 9.58548641204834, 1.140775442123413, 0.19518445432186127, -3.2705538272857666, -2.772202968597412, -0.33198612928390503, -0.04443359375, 0.1416015625, -1.21875, 0, 
370, 2603776005, 80.5479507446289, -83.70331573486328, -45.82512283325195, 9.512112617492676, 1.1146936416625977, 0.28258103132247925, -3.1614115238189697, -3.0485808849334717, -0.3108031749725342, -0.044921875, 0.142578125, -1.21533203125, 0, 
371, 2603784338, 80.55955505371094, -83.70225524902344, -45.837196350097656, 9.830987930297852, 0.9671458601951599, 0.26182618737220764, -3.212435245513916, -3.0609521865844727, -0.47801288962364197, -0.04443359375, 0.14208984375, -1.21923828125, 0, 
372, 2603792671, 80.55403900146484, -83.70110321044922, -45.831485748291016, 10.150543212890625, 0.8881932497024536, 0.03973035886883736, -3.151806116104126, -2.827939987182617, -0.4542684555053711, -0.046875, 0.14111328125, -1.216796875, 0, 
373, 2603801004, 80.54483795166016, -83.7000503540039, -45.81881332397461, 9.97079086303711, 1.1792261600494385, 0.12961570918560028, -2.965667486190796, -2.7580127716064453, -0.39781466126441956, -0.04541015625, 0.142578125, -1.21923828125, 0, 
374, 2603809337, 80.53719329833984, -83.69992065429688, -45.81097412109375, 9.635647773742676, 1.3606758117675781, 0.1671455204486847, -3.1447110176086426, -2.820485830307007, -0.32227832078933716, -0.04638671875, 0.1416015625, -1.21533203125, 0, 
375, 2603817670, 80.5373764038086, -83.7015380859375, -45.801918029785156, 9.593340873718262, 1.1400550603866577, 0.3071531355381012, -3.4426560401916504, -2.9839816093444824, -0.10973139107227325, -0.04443359375, 0.1416015625, -1.21875, 0, 
376, 2603826003, 80.5555419921875, -83.70156860351562, -45.81718444824219, 9.79140853881836, 0.989420473575592, 0.28085488080978394, -3.1811599731445312, -3.160386800765991, -0.32130497694015503, -0.04541015625, 0.14306640625, -1.21533203125, 0, 
377, 2603834336, 80.56266784667969, -83.70085144042969, -45.82469177246094, 10.074137687683105, 0.9279608130455017, 0.21598848700523376, -3.20516037940979, -3.0092885494232178, -0.43172797560691833, -0.044921875, 0.142578125, -1.2177734375, 0, 
378, 2603842669, 80.55529022216797, -83.699951171875, -45.81696319580078, 10.073596000671387, 1.0788129568099976, 0.02873370610177517, -3.1401515007019043, -2.808088779449463, -0.4126453101634979, -0.0458984375, 0.1416015625, -1.21728515625, 0, 
379, 2603851002, 80.53524780273438, -83.69895935058594, -45.786895751953125, 9.787323951721191, 1.2934516668319702, 0.16030286252498627, -3.1784446239471436, -2.6381890773773193, -0.3738653361797333, -0.0439453125, 0.142578125, -1.2119140625, 0, 
380, 2603859335, 80.53905487060547, -83.69941711425781, -45.79061508178711, 9.519869804382324, 1.255495309829712, 0.3029349148273468, -3.1492702960968018, -2.9821887016296387, -0.2852657437324524, -0.044921875, 0.142578125, -1.21923828125, 0, 
381, 2603867668, 80.54601287841797, -83.69845581054688, -45.81784439086914, 9.67004680633545, 1.0377938747406006, 0.13476300239562988, -3.3668630123138428, -3.0139248371124268, -0.41236358880996704, -0.0458984375, 0.142578125, -1.216796875, 0, 
382, 2603876001, 80.5486831665039, -83.69593811035156, -45.80854415893555, 10.045215606689453, 0.8947461843490601, 0.25534069538116455, -3.206338882446289, -2.9118261337280273, -0.5978874564170837, -0.04443359375, 0.14208984375, -1.2158203125, 0, 
383, 2603884334, 80.54156494140625, -83.69500732421875, -45.800785064697266, 10.107176780700684, 1.0822378396987915, 0.06013917177915573, -3.0904345512390137, -2.804938316345215, -0.4217127859592438, -0.04248046875, 0.14111328125, -1.21728515625, 0, 
384, 2603892667, 80.52537536621094, -83.69537353515625, -45.783451080322266, 9.859756469726562, 1.203287124633789, 0.06884771585464478, -3.0422024726867676, -2.7075014114379883, -0.25757673382759094, -0.0439453125, 0.14208984375, -1.216796875, 0, 
385, 2603901000, 80.50482940673828, -83.69563293457031, -45.765602111816406, 9.568744659423828, 1.1979998350143433, 0.1357337087392807, -3.3212697505950928, -2.6748945713043213, -0.2113943099975586, -0.0439453125, 0.142578125, -1.2177734375, 0, 
386, 2603909333, 80.506103515625, -83.69615173339844, -45.7667121887207, 9.507965087890625, 1.0792410373687744, 0.23560747504234314, -3.145197868347168, -2.949761152267456, -0.2704095244407654, -0.04345703125, 0.1435546875, -1.21630859375, 0, 
387, 2603917666, 80.52005767822266, -83.69398498535156, -45.78456497192383, 9.903836250305176, 0.9069327712059021, 0.29552704095840454, -3.2119483947753906, -3.0656399726867676, -0.5671504139900208, -0.044921875, 0.142578125, -1.216796875, 0, 
388, 2603925999, 80.51591491699219, -83.69279479980469, -45.77200698852539, 10.13240909576416, 0.9988874197006226, 0.03402187302708626, -3.1594393253326416, -2.842411756515503, -0.43029356002807617, -0.04638671875, 0.14306640625, -1.21630859375, 0, 
389, 2603934332, 80.50052642822266, -83.69276428222656, -45.75621795654297, 9.941976547241211, 1.213135838508606, 0.1459619402885437, -3.1342344284057617, -2.7205135822296143, -0.2890309989452362, -0.04541015625, 0.1435546875, -1.21435546875, 0, 
390, 2603942665, 80.49163055419922, -83.69363403320312, -45.74707794189453, 9.665422439575195, 1.3156845569610596, 0.1723673939704895, -3.1441986560821533, -2.822176456451416, -0.21528765559196472, -0.04345703125, 0.1435546875, -1.216796875, 0, 
391, 2603950998, 80.4932632446289, -83.69525146484375, -45.78173065185547, 9.483129501342773, 1.1675653457641602, 0.30090832710266113, -3.3712687492370605, -2.9977622032165527, -0.10716995596885681, -0.04638671875, 0.14208984375, -1.212890625, 0, 
392, 2603959331, 80.5121078491211, -83.69581604003906, -45.80063247680664, 9.657819747924805, 0.9732348322868347, 0.20882342755794525, -3.161923885345459, -3.1825177669525146, -0.3027859032154083, -0.04345703125, 0.14306640625, -1.2216796875, 0, 
393, 2603967664, 80.518310546875, -83.69466400146484, -45.80397033691406, 10.122355461120605, 0.8588167428970337, 0.17275218665599823, -3.1620006561279297, -2.9787309169769287, -0.4323427081108093, -0.04345703125, 0.14208984375, -1.21630859375, 0, 
394, 2603975997, 80.51274108886719, -83.69438934326172, -45.79586410522461, 10.061529159545898, 1.1321476697921753, 0.07097367942333221, -2.983520269393921, -2.8240206241607666, -0.31041890382766724, -0.04296875, 0.14111328125, -1.21484375, 0, 
395, 2603984330, 80.49810791015625, -83.69537353515625, -45.780853271484375, 9.762669563293457, 1.3457413911819458, 0.11007941514253616, -3.1331586837768555, -2.749073028564453, -0.17796769738197327, -0.04541015625, 0.14111328125, -1.216796875, 0, 
396, 2603992663, 80.4919204711914, -83.69686889648438, -45.77584457397461, 9.548537254333496, 1.1597557067871094, 0.36531051993370056, -3.3143796920776367, -2.8910276889801025, -0.14082707464694977, -0.0458984375, 0.142578125, -1.216796875, 0, 
397, 2604000996, 80.49944305419922, -83.69731140136719, -45.744224548339844, 9.589757919311523, 1.0161296129226685, 0.22002768516540527, -3.278826951980591, -3.0403075218200684, -0.24479526281356812, -0.04443359375, 0.1396484375, -1.21875, 0, 
398, 2604009329, 80.50275421142578, -83.6976547241211, -45.748531341552734, 9.997172355651855, 0.8883885145187378, 0.271605521440506, -3.2805943489074707, -2.988208055496216, -0.3029395639896393, -0.0439453125, 0.142578125, -1.2138671875, 0, 
399, 2604017662, 80.49271392822266, -83.69773864746094, -45.76211929321289, 10.149506568908691, 0.9958290457725525, 0.05936729907989502, -3.0483241081237793, -2.7775046825408936, -0.26761749386787415, -0.0439453125, 0.14306640625, -1.216796875, 0, 
400, 2604025995, 80.4781723022461, -83.69718170166016, -45.736671447753906, 9.829304695129395, 1.2586112022399902, 0.08779893815517426, -3.057417392730713, -2.7094228267669678, -0.31169962882995605, -0.0458984375, 0.142578125, -1.21728515625, 0, 
401, 2604034328, 80.47026062011719, -83.69817352294922, -45.729278564453125, 9.504462242126465, 1.2239140272140503, 0.20342960953712463, -3.232337236404419, -2.849378824234009, -0.20294158160686493, -0.04443359375, 0.1416015625, -1.21435546875, 0, 
402, 2604042661, 80.48126983642578, -83.69963836669922, -45.74110794067383, 9.546741485595703, 0.993635356426239, 0.2516767680644989, -3.2664554119110107, -3.1075704097747803, -0.17740419507026672, -0.04443359375, 0.1416015625, -1.22021484375, 0, 
403, 2604050994, 80.50541687011719, -83.6987075805664, -45.765140533447266, 9.9280366897583, 0.9157900214195251, 0.34607091546058655, -3.153752565383911, -3.219299554824829, -0.4588022232055664, -0.04541015625, 0.14013671875, -1.21484375, 0, 
404, 2604059327, 80.505615234375, -83.69886016845703, -45.765113830566406, 10.169005393981934, 1.0447725057601929, 0.008184821344912052, -3.1406381130218506, -2.9277584552764893, -0.310598224401474, -0.04443359375, 0.14111328125, -1.2177734375, 0, 
405, 2604067660, 80.50150299072266, -83.69895935058594, -45.7784538269043, 9.951899528503418, 1.1170554161071777, 0.13333159685134888, -3.2113847732543945, -2.8745574951171875, -0.26638805866241455, -0.04541015625, 0.1416015625, -1.216796875, 0, 
406, 2604075993, 80.48075866699219, -83.69920349121094, -45.7593994140625, 9.552034378051758, 1.1769567728042603, 0.15835300087928772, -3.1856682300567627, -2.6577072143554688, -0.209934264421463, -0.044921875, 0.14208984375, -1.21728515625, 0, 
407, 2604084326, 80.49262237548828, -83.7000732421875, -45.7724723815918, 9.40477466583252, 1.1239666938781738, 0.2173558622598648, -3.3017776012420654, -3.114306926727295, -0.25580936670303345, -0.0439453125, 0.14111328125, -1.2177734375, 0, 
408, 2604092659, 80.51636505126953, -83.69976806640625, -45.79704284667969, 9.79454517364502, 0.8751584887504578, 0.2594413161277771, -3.25805401802063, -3.2383053302764893, -0.4199710190296173, -0.046875, 0.140625, -1.21337890625, 0, 
409, 2604100992, 80.52994537353516, -83.69786834716797, -45.80756378173828, 10.191293716430664, 0.9178764820098877, 0.10024639219045639, -2.9969682693481445, -3.042433261871338, -0.5410494208335876, -0.0458984375, 0.1416015625, -1.2177734375, 0, 
410, 2604109325, 80.5241470336914, -83.69771575927734, -45.80104064941406, 10.019712448120117, 1.1947647333145142, 0.07094850391149521, -3.080803632736206, -2.8382110595703125, -0.32553136348724365, -0.04541015625, 0.14453125, -1.21630859375, 0, 
411, 2604117658, 80.51668548583984, -83.69795989990234, -45.79191970825195, 9.69048023223877, 1.2605786323547363, 0.08349960297346115, -3.1797001361846924, -2.831090211868286, -0.2532223165035248, -0.04443359375, 0.14013671875, -1.21875, 0, 
412, 2604125991, 80.51282501220703, -83.69805145263672, -45.77928924560547, 9.448310852050781, 1.1101512908935547, 0.28721097111701965, -3.173475503921509, -2.871816873550415, -0.2811674475669861, -0.0419921875, 0.1416015625, -1.21484375, 0, 
413, 2604134324, 80.53067779541016, -83.69827270507812, -45.79822540283203, 9.591474533081055, 0.9986668825149536, 0.18496176600456238, -3.2879457473754883, -3.17606258392334, -0.33324119448661804, -0.044921875, 0.14404296875, -1.21484375, 0, 
414, 2604142657, 80.55058288574219, -83.69637298583984, -45.818885803222656, 10.133463859558105, 0.8873089551925659, 0.23576688766479492, -3.2474751472473145, -3.1571080684661865, -0.5953004360198975, -0.04443359375, 0.14111328125, -1.2177734375, 0, 
415, 2604150990, 80.55220794677734, -83.69512939453125, -45.84730911254883, 10.161284446716309, 1.0499534606933594, 0.048008330166339874, -3.059492349624634, -2.9077537059783936, -0.4502982199192047, -0.0458984375, 0.14111328125, -1.2158203125, 0, 
416, 2604159323, 80.54354095458984, -83.69485473632812, -45.83815002441406, 9.760553359985352, 1.2779622077941895, 0.1466096043586731, -3.1251158714294434, -2.79966139793396, -0.34256479144096375, -0.04541015625, 0.142578125, -1.2158203125, 0, 
417, 2604167656, 80.54498291015625, -83.6947250366211, -45.83786392211914, 9.502249717712402, 1.2599729299545288, 0.27624762058258057, -3.2022149562835693, -2.942537784576416, -0.3146708905696869, -0.0458984375, 0.142578125, -1.21533203125, 0, 
418, 2604175989, 80.54785919189453, -83.69388580322266, -45.82970428466797, 9.578364372253418, 1.0816271305084229, 0.2846733033657074, -3.2592580318450928, -2.9553451538085938, -0.38692864775657654, -0.0458984375, 0.1416015625, -1.21533203125, 0, 
419, 2604184322, 80.55903625488281, -83.69226837158203, -45.84145736694336, 9.978263854980469, 0.9512497782707214, 0.2781265079975128, -3.230902910232544, -3.0436882972717285, -0.5552397966384888, -0.046875, 0.14404296875, -1.2177734375, 0, 
420, 2604192655, 80.55277252197266, -83.69133758544922, -45.83489227294922, 10.174185752868652, 1.0132964849472046, 0.055908720940351486, -3.130187749862671, -2.8220229148864746, -0.42253243923187256, -0.04638671875, 0.142578125, -1.21337890625, 0, 
421, 2604200988, 80.53895568847656, -83.6899642944336, -45.836212158203125, 9.886245727539062, 1.189396619796753, 0.10640785098075867, -3.090843915939331, -2.7071428298950195, -0.4160007834434509, -0.044921875, 0.142578125, -1.22265625, 0, 
422, 2604209321, 80.5316390991211, -83.69074249267578, -45.82861328125, 9.508817672729492, 1.286543369293213, 0.17045146226882935, -3.1341066360473633, -2.840106725692749, -0.2284533679485321, -0.04296875, 0.14453125, -1.2255859375, 0, 
423, 2604217654, 80.54422760009766, -83.6910629272461, -45.83976364135742, 9.569954872131348, 1.0873777866363525, 0.30730119347572327, -3.2205803394317627, -3.09842586517334, -0.2804758846759796, -0.04443359375, 0.1416015625, -1.22998046875, 0, 
424, 2604225987, 80.55681610107422, -83.68968963623047, -45.84252166748047, 9.921637535095215, 0.9626685380935669, 0.2976560592651367, -3.1427643299102783, -3.0578529834747314, -0.476347953081131, -0.04345703125, 0.14111328125, -1.22802734375, 0, 
425, 2604234320, 80.56155395507812, -83.68888092041016, -45.84776306152344, 10.177396774291992, 1.0621635913848877, 0.01820276863873005, -3.216174602508545, -2.9772708415985107, -0.4422297477722168, -0.04443359375, 0.14111328125, -1.22900390625, 0, 
426, 2604242653, 80.55393981933594, -83.68888092041016, -45.83995819091797, 9.99580192565918, 1.1488916873931885, 0.031432539224624634, -3.1545214653015137, -2.8230221271514893, -0.31810322403907776, -0.0439453125, 0.142578125, -1.2314453125, 0, 
427, 2604250986, 80.55068969726562, -83.68916320800781, -45.831111907958984, 9.60891056060791, 1.2205312252044678, 0.11195874214172363, -3.076986789703369, -2.876760482788086, -0.23916012048721313, -0.044921875, 0.14404296875, -1.22509765625, 0, 
428, 2604259319, 80.54319763183594, -83.69036865234375, -45.824623107910156, 9.401001930236816, 1.2093769311904907, 0.22127898037433624, -3.2870750427246094, -2.8639278411865234, -0.1774810403585434, -0.0439453125, 0.1435546875, -1.22998046875, 0, 
429, 2604267652, 80.56175994873047, -83.6913070678711, -45.84145736694336, 9.758731842041016, 0.9936983585357666, 0.15457738935947418, -3.2815423011779785, -3.1975533962249756, -0.21815645694732666, -0.04541015625, 0.14208984375, -1.22607421875, 0, 
430, 2604275985, 80.5765380859375, -83.69136810302734, -45.858238220214844, 10.202441215515137, 0.8936371207237244, 0.25330349802970886, -3.042971134185791, -3.101807117462158, -0.30918946862220764, -0.04638671875, 0.14111328125, -1.22412109375, 0, 
431, 2604284318, 80.57658386230469, -83.69183349609375, -45.856834411621094, 10.117265701293945, 1.1512829065322876, -0.002572724362835288, -2.9897959232330322, -2.915079116821289, -0.27758145332336426, -0.0439453125, 0.142578125, -1.228515625, 0, 
432, 2604292651, 80.55880737304688, -83.69320678710938, -45.83815002441406, 9.784723281860352, 1.2509797811508179, 0.04984737187623978, -3.081597089767456, -2.710498094558716, -0.12305077165365219, -0.04541015625, 0.14306640625, -1.2265625, 0, 
433, 2604300984, 80.55149841308594, -83.6940689086914, -45.832786560058594, 9.499873161315918, 1.1335464715957642, 0.2839890420436859, -3.2468347549438477, -2.8500959873199463, -0.18918673694133759, -0.0439453125, 0.140625, -1.23095703125, 0, 
434, 2604309317, 80.56646728515625, -83.69500732421875, -45.8483772277832, 9.520806312561035, 1.0654349327087402, 0.20422843098640442, -3.229161024093628, -3.1455304622650146, -0.26228976249694824, -0.04541015625, 0.1435546875, -1.224609375, 0, 
435, 2604317650, 80.5778579711914, -83.69453430175781, -45.85527420043945, 10.017839431762695, 0.8986047506332397, 0.26806002855300903, -3.315506935119629, -3.078446865081787, -0.35867616534233093, -0.0439453125, 0.142578125, -1.2255859375, 0, 
436, 2604325983, 80.57601928710938, -83.69310760498047, -45.854278564453125, 10.19239616394043, 0.9592628479003906, 0.050568755716085434, -3.0887696743011475, -2.8650548458099365, -0.4498884379863739, -0.04443359375, 0.14306640625, -1.2275390625, 0, 
437, 2604334316, 80.55817413330078, -83.69322967529297, -45.83488845825195, 9.860499382019043, 1.286375641822815, 0.08413286507129669, -3.005727767944336, -2.6741771697998047, -0.2771203815937042, -0.04736328125, 0.140625, -1.22509765625, 0, 
438, 2604342649, 80.5453109741211, -83.69322967529297, -45.82257080078125, 9.573094367980957, 1.2631802558898926, 0.25296446681022644, -3.2353599071502686, -2.7670035362243652, -0.3005830645561218, -0.044921875, 0.14453125, -1.2265625, 0, 
439, 2604350982, 80.54768371582031, -83.69413757324219, -45.823551177978516, 9.519024848937988, 1.0334569215774536, 0.33632323145866394, -3.275881767272949, -2.9788589477539062, -0.20017527043819427, -0.0439453125, 0.142578125, -1.22509765625, 0, 
440, 2604359315, 80.5588607788086, -83.69329071044922, -45.83521270751953, 9.808452606201172, 0.9166452884674072, 0.2901988923549652, -3.213331699371338, -3.0609521865844727, -0.45132285356521606, -0.04443359375, 0.142578125, -1.2275390625, 0, 
441, 2604367648, 80.55997467041016, -83.69226837158203, -45.84255599975586, 10.09911823272705, 0.9500778913497925, 0.05111156404018402, -3.117201566696167, -2.9085476398468018, -0.4203040301799774, -0.044921875, 0.14208984375, -1.22509765625, 0, 
442, 2604375981, 80.54537963867188, -83.69145965576172, -45.82685470581055, 9.958128929138184, 1.049595594406128, 0.11692427098751068, -3.0414087772369385, -2.7008416652679443, -0.3504539430141449, -0.04541015625, 0.14306640625, -1.22607421875, 0, 
443, 2604384314, 80.5324478149414, -83.69208526611328, -45.813446044921875, 9.61202335357666, 1.3237195014953613, 0.1332983374595642, -3.1197879314422607, -2.763033151626587, -0.23365303874015808, -0.04638671875, 0.14111328125, -1.22607421875, 0, 
444, 2604392647, 80.52731323242188, -83.69236755371094, -45.80909729003906, 9.468389511108398, 1.1629056930541992, 0.30754566192626953, -3.2659687995910645, -2.8740451335906982, -0.28785276412963867, -0.0439453125, 0.14404296875, -1.224609375, 0, 
445, 2604400980, 80.53624725341797, -83.6921157836914, -45.81675338745117, 9.713973045349121, 0.8991483449935913, 0.2713474929332733, -3.3528008460998535, -3.0555732250213623, -0.3357257544994354, -0.04296875, 0.14404296875, -1.23046875, 0, 
446, 2604409313, 80.5430908203125, -83.69133758544922, -45.82315444946289, 10.05807876586914, 0.9343900084495544, 0.14164021611213684, -3.1138200759887695, -2.9925882816314697, -0.43697887659072876, -0.0458984375, 0.14208984375, -1.22265625, 0, 
447, 2604417646, 80.5350112915039, -83.69168090820312, -45.820091247558594, 9.99930477142334, 1.1191445589065552, 0.06657896190881729, -3.0392568111419678, -2.8092923164367676, -0.2361888587474823, -0.044921875, 0.140625, -1.2236328125, 0, 
448, 2604425979, 80.52000427246094, -83.69102478027344, -45.830955505371094, 9.73285961151123, 1.2442878484725952, 0.16041821241378784, -3.1871280670166016, -2.715083360671997, -0.33879950642585754, -0.04345703125, 0.1435546875, -1.22509765625, 0, 
449, 2604434312, 80.50765991210938, -83.6915283203125, -45.818885803222656, 9.43410873413086, 1.2117302417755127, 0.27143752574920654, -3.2018563747406006, -2.776608943939209, -0.2532479763031006, -0.04296875, 0.14111328125, -1.2275390625, 0, 
450, 2604442645, 80.51844787597656, -83.69133758544922, -45.82904052734375, 9.607592582702637, 1.0321215391159058, 0.2392960488796234, -3.0915873050689697, -3.054215908050537, -0.36823025345802307, -0.0439453125, 0.14208984375, -1.22802734375, 0, 
451, 2604450978, 80.53324127197266, -83.69012451171875, -45.83821105957031, 10.046004295349121, 0.8420518636703491, 0.3214482367038727, -3.162128448486328, -3.0915610790252686, -0.46876609325408936, -0.04345703125, 0.142578125, -1.22412109375, 0, 
452, 2604459311, 80.5346450805664, -83.68950653076172, -45.83876419067383, 10.132616996765137, 1.0909920930862427, 0.033699750900268555, -3.075373411178589, -2.92202091217041, -0.3922308087348938, -0.044921875, 0.1416015625, -1.2265625, 0, 
453, 2604467644, 80.52969360351562, -83.68928527832031, -45.82543182373047, 9.836409568786621, 1.2826776504516602, 0.12824146449565887, -3.1739368438720703, -2.85542368888855, -0.315183162689209, -0.04443359375, 0.1435546875, -1.22509765625, 0, 
454, 2604475977, 80.524658203125, -83.6894760131836, -45.78122329711914, 9.56392765045166, 1.231141209602356, 0.250637412071228, -3.223141670227051, -2.8650288581848145, -0.26846277713775635, -0.04345703125, 0.14404296875, -1.2236328125, 0, 
455, 2604484310, 80.52947998046875, -83.69043731689453, -45.78683090209961, 9.551817893981934, 1.0955708026885986, 0.24261100590229034, -3.266660213470459, -3.0188682079315186, -0.2173624038696289, -0.04736328125, 0.14453125, -1.22705078125, 0, 
456, 2604492643, 80.54671478271484, -83.69062042236328, -45.80453872680664, 9.893828392028809, 0.9077810049057007, 0.30751731991767883, -3.2153806686401367, -3.158158540725708, -0.35211890935897827, -0.04443359375, 0.14306640625, -1.22314453125, 0, 
457, 2604500976, 80.54143524169922, -83.68931579589844, -45.827327728271484, 10.14957332611084, 0.9305134415626526, 0.08294042199850082, -3.109030246734619, -2.823892593383789, -0.4239156246185303, -0.04345703125, 0.14208984375, -1.2294921875, 0, 
458, 2604509309, 80.53519439697266, -83.68875885009766, -45.82035827636719, 9.960556030273438, 1.2097032070159912, 0.08999902755022049, -3.0841333866119385, -2.821690082550049, -0.38902899622917175, -0.0478515625, 0.14306640625, -1.2236328125, 0, 
459, 2604517642, 80.52879333496094, -83.68885040283203, -45.80029296875, 9.696306228637695, 1.3236805200576782, 0.22867028415203094, -3.155212640762329, -2.838697671890259, -0.2763776183128357, -0.04638671875, 0.14111328125, -1.2255859375, 0, 
460, 2604525975, 80.53311157226562, -83.68934631347656, -45.80384826660156, 9.583925247192383, 1.0984309911727905, 0.329582542181015, -3.2706565856933594, -3.0003490447998047, -0.24428300559520721, -0.04541015625, 0.1435546875, -1.224609375, 0, 
461, 2604534308, 80.55267333984375, -83.68910217285156, -45.82453536987305, 9.806504249572754, 0.9800168871879578, 0.23697340488433838, -3.2890217304229736, -3.191072463989258, -0.3984806537628174, -0.04296875, 0.142578125, -1.22265625, 0, 
462, 2604542641, 80.55859375, -83.68807220458984, -45.82929611206055, 10.101358413696289, 0.9160596132278442, 0.17040202021598816, -3.0283966064453125, -2.9672555923461914, -0.46387386322021484, -0.0439453125, 0.142578125, -1.2275390625, 0, 
463, 2604550974, 80.55220794677734, -83.68611145019531, -45.82006072998047, 10.04759693145752, 1.1047084331512451, 0.07989298552274704, -3.0800347328186035, -2.7908501625061035, -0.5047796964645386, -0.04345703125, 0.1435546875, -1.22314453125, 0, 
464, 2604559307, 80.54405975341797, -83.68534088134766, -45.81178665161133, 9.709004402160645, 1.3314889669418335, 0.11473064124584198, -3.1652023792266846, -2.80283784866333, -0.4081372618675232, -0.0419921875, 0.1416015625, -1.22705078125, 0, 
465, 2604567640, 80.54833221435547, -83.68518829345703, -45.81204605102539, 9.516690254211426, 1.1555038690567017, 0.28867918252944946, -3.309103012084961, -2.9917426109313965, -0.3274523913860321, -0.044921875, 0.14111328125, -1.22265625, 0, 
466, 2604575973, 80.56735229492188, -83.6855239868164, -45.84075927734375, 9.714314460754395, 0.9511944651603699, 0.2046305239200592, -3.1048552989959717, -3.173706293106079, -0.2910289466381073, -0.04345703125, 0.14208984375, -1.21826171875, 0, 
467, 2604584306, 80.58052062988281, -83.68425750732422, -45.85350036621094, 10.048442840576172, 0.9137113094329834, 0.2251705825328827, -3.116612195968628, -3.068354845046997, -0.5082120895385742, -0.0458984375, 0.14208984375, -1.22021484375, 0, 
468, 2604592639, 80.58383178710938, -83.68331909179688, -45.856239318847656, 10.055770874023438, 1.0583559274673462, -0.0039421627297997475, -3.096966028213501, -2.9417948722839355, -0.44722455739974976, -0.044921875, 0.14111328125, -1.2138671875, 0, 
469, 2604600972, 80.5865707397461, -83.68242645263672, -45.847957611083984, 9.826848983764648, 1.1947216987609863, 0.10729412734508514, -2.9905388355255127, -2.9215595722198486, -0.41487377882003784, -0.04443359375, 0.142578125, -1.21923828125, 0, 
470, 2604609305, 80.58507537841797, -83.68223571777344, -45.846187591552734, 9.526931762695312, 1.2929861545562744, 0.2058812528848648, -3.1323394775390625, -2.8971240520477295, -0.35232383012771606, -0.04345703125, 0.1416015625, -1.21240234375, 0, 
471, 2604617638, 80.59422302246094, -83.68338012695312, -45.868595123291016, 9.531991004943848, 1.1056753396987915, 0.16879263520240784, -3.2394838333129883, -3.0711727142333984, -0.18109266459941864, -0.04248046875, 0.14404296875, -1.21875, 0, 
472, 2604625971, 80.60138702392578, -83.68285369873047, -45.89490509033203, 9.905241966247559, 0.8340590596199036, 0.2674148976802826, -3.2535972595214844, -3.015820026397705, -0.36108389496803284, -0.0439453125, 0.142578125, -1.22021484375, 0, 
473, 2604634304, 80.5983657836914, -83.68087005615234, -45.8902587890625, 10.047667503356934, 0.9622900485992432, 0.030982978641986847, -2.9811127185821533, -2.8263514041900635, -0.552498996257782, -0.04345703125, 0.1416015625, -1.21630859375, 0, 
474, 2604642637, 80.60011291503906, -83.68018341064453, -45.89035415649414, 9.845582008361816, 1.269018530845642, 0.14093530178070068, -2.975989818572998, -2.9150278568267822, -0.4002992510795593, -0.04150390625, 0.14111328125, -1.21923828125, 0, 
475, 2604650970, 80.5928726196289, -83.68006134033203, -45.88573455810547, 9.663944244384766, 1.2484685182571411, 0.14694887399673462, -3.1865391731262207, -2.8235340118408203, -0.30762699246406555, -0.0439453125, 0.14111328125, -1.21630859375, 0, 
476, 2604659303, 80.59197235107422, -83.68146514892578, -45.88512420654297, 9.52527141571045, 1.081539511680603, 0.2511354982852936, -3.2003962993621826, -2.944228410720825, -0.16802939772605896, -0.04296875, 0.14208984375, -1.21923828125, 0, 
477, 2604667636, 80.60503387451172, -83.68022155761719, -45.90275955200195, 9.673090934753418, 0.9496700763702393, 0.20936992764472961, -3.2957067489624023, -3.08428692817688, -0.47327426075935364, -0.044921875, 0.14306640625, -1.21728515625, 0, 
478, 2604675969, 80.59724426269531, -83.67857360839844, -45.905906677246094, 10.065716743469238, 0.9004580974578857, 0.07349222898483276, -3.2558255195617676, -2.7978432178497314, -0.4787557125091553, -0.04443359375, 0.14306640625, -1.21826171875, 0, 
479, 2604684302, 80.57640838623047, -83.67816925048828, -45.88383865356445, 10.000773429870605, 1.0909768342971802, 0.11454319208860397, -3.0358757972717285, -2.629045009613037, -0.3239176273345947, -0.04296875, 0.14306640625, -1.21923828125, 0, 
480, 2604692635, 80.5678939819336, -83.67857360839844, -45.87516403198242, 9.646286010742188, 1.3304977416992188, 0.14688292145729065, -3.153855323791504, -2.820152997970581, -0.2612139582633972, -0.04541015625, 0.14306640625, -1.21435546875, 0, 
481, 2604700968, 80.5682601928711, -83.67965698242188, -45.87513732910156, 9.49108600616455, 1.1645416021347046, 0.2717960476875305, -3.3074896335601807, -2.9648988246917725, -0.1792740374803543, -0.04638671875, 0.14208984375, -1.21875, 0, 
482, 2604709301, 80.57498168945312, -83.68065643310547, -45.88247299194336, 9.660075187683105, 0.9994367361068726, 0.1441863775253296, -3.2445554733276367, -3.0403075218200684, -0.226250559091568, -0.0458984375, 0.140625, -1.21484375, 0, 
483, 2604717634, 80.57024383544922, -83.6797866821289, -45.87668228149414, 10.025038719177246, 0.9218153953552246, 0.314998596906662, -3.225703239440918, -2.852478265762329, -0.3728408217430115, -0.04345703125, 0.1416015625, -1.21826171875, 0, 
484, 2604725967, 80.5582275390625, -83.67891693115234, -45.85565185546875, 10.086053848266602, 1.0590006113052368, 0.042131129652261734, -3.0142831802368164, -2.732757091522217, -0.3807812035083771, -0.04345703125, 0.1435546875, -1.21728515625, 0, 
485, 2604734300, 80.54244232177734, -83.6797866821289, -45.839237213134766, 9.822881698608398, 1.26764976978302, 0.06184344366192818, -3.112001419067383, -2.730374813079834, -0.1751757264137268, -0.04345703125, 0.14306640625, -1.21435546875, 0, 
486, 2604742633, 80.52574157714844, -83.6808090209961, -45.82363510131836, 9.53513240814209, 1.210577368736267, 0.30930113792419434, -3.313739538192749, -2.7417993545532227, -0.17848001420497894, -0.04345703125, 0.14111328125, -1.21923828125, 0, 
487, 2604750966, 80.52274322509766, -83.68115234375, -45.835514068603516, 9.640060424804688, 1.0607532262802124, 0.25832876563072205, -3.258873462677002, -2.8988399505615234, -0.2623409926891327, -0.0458984375, 0.14111328125, -1.21630859375, 0, 
