sep=,
PacketCounter,SampleTimeFine,Euler_X,Euler_Y,Euler_Z,Acc_X,Acc_Y,Acc_Z,Gyr_X,Gyr_Y,Gyr_Z,
0, 2468179242, 78.47981262207031, -81.89388275146484, 134.33123779296875, 0, 0, 0, 0, 0, 0, 
1, 2468187575, 78.48104858398438, -81.89787292480469, 134.44650268554688, 9.94621467590332, 0.2235279530286789, -0.22658872604370117, -0.2670155465602875, -0.37992310523986816, 1.9103095531463623, 
2, 2468195908, 78.51787567138672, -81.891357421875, 134.41639709472656, 10.26622486114502, 0.38380008935928345, -0.08432486653327942, 0.822575569152832, -0.5801496505737305, 0.6662774682044983, 
3, 2468204241, 78.50534057617188, -81.88423919677734, 134.6566925048828, 10.30637264251709, 1.9518533945083618, 0.1875838190317154, 0.49412423372268677, 0.2273007482290268, 0.6527020335197449, 
4, 2468212574, 78.47122192382812, -81.88594055175781, 134.6898956298828, 9.722259521484375, 2.6413424015045166, 0.6661894917488098, -0.1381247490644455, 0.28009164333343506, 1.830188274383545, 
5, 2468220907, 78.45680236816406, -81.89397430419922, 134.60391235351562, 9.181376457214355, 1.697817325592041, 0.9134114980697632, -0.6614235639572144, -0.2665289342403412, 2.42039155960083, 
6, 2468229240, 78.47366333007812, -81.89935302734375, 134.58395385742188, 9.804088592529297, 0.5310373306274414, -0.049535829573869705, -0.35301536321640015, -0.6960668563842773, 2.0913381576538086, 
7, 2468237573, 78.487060546875, -81.8956527709961, 134.67384338378906, 10.172621726989746, 0.058209773153066635, -0.07700734585523605, 0.23841731250286102, -0.32938626408576965, 0.9732385873794556, 
8, 2468245906, 78.51544952392578, -81.88826751708984, 134.653564453125, 10.453729629516602, 1.576951503753662, -0.1871398240327835, 1.0065369606018066, -0.390399307012558, 0.585182785987854, 
9, 2468254239, 78.49139404296875, -81.8888931274414, 135.22052001953125, 9.840123176574707, 2.6031627655029297, 0.5007204413414001, 0.12041251361370087, 0.18122069537639618, 1.6026058197021484, 
10, 2468262572, 78.4512939453125, -81.89446258544922, 135.25445556640625, 9.059736251831055, 2.038404703140259, 1.0542048215866089, -0.7768157124519348, 0.19640995562076569, 2.292525291442871, 
11, 2468270905, 78.48074340820312, -81.90167999267578, 135.2707977294922, 9.673196792602539, 0.8640209436416626, 0.18878750503063202, -0.45151492953300476, -0.9555774927139282, 2.1926300525665283, 
12, 2468279238, 78.47425842285156, -81.90090942382812, 135.27781677246094, 10.114019393920898, 0.05293818935751915, -0.25034233927726746, 0.0621657557785511, -0.09944726526737213, 1.4511746168136597, 
13, 2468287571, 78.51628112792969, -81.89414978027344, 135.4098358154297, 10.509886741638184, 1.0192443132400513, -0.07322365045547485, 1.082329511642456, -0.6162400841712952, 0.5362595915794373, 
14, 2468295904, 78.49386596679688, -81.8890380859375, 135.43472290039062, 9.992257118225098, 2.364443778991699, 0.44535747170448303, 0.2649792432785034, 0.30155640840530396, 1.0101230144500732, 
15, 2468304237, 78.44239807128906, -81.89356231689453, 135.58372497558594, 9.292492866516113, 2.416297435760498, 0.8693135976791382, -0.636987566947937, 0.4404367506504059, 2.145960569381714, 
16, 2468312570, 78.45915985107422, -81.90117645263672, 135.56158447265625, 9.388558387756348, 1.202961802482605, 0.5007520318031311, -0.6147287487983704, -0.7821690440177917, 2.3393735885620117, 
17, 2468320903, 78.4635238647461, -81.90383911132812, 135.1232452392578, 10.025701522827148, 0.1718474179506302, -0.2586667239665985, -0.0709386095404625, -0.374953955411911, 1.7381818294525146, 
18, 2468329236, 78.50413513183594, -81.89741516113281, 135.09014892578125, 10.304364204406738, 0.4696556627750397, -0.09405988454818726, 0.9380444288253784, -0.6281762719154358, 0.659489631652832, 
19, 2468337569, 78.49542999267578, -81.89176940917969, 134.69082641601562, 10.276396751403809, 2.066542148590088, 0.11277887225151062, 0.44230663776397705, 0.11943918466567993, 0.8224731683731079, 
20, 2468345902, 78.4560317993164, -81.89392852783203, 134.72857666015625, 9.622730255126953, 2.579392433166504, 0.6570954322814941, -0.2502126395702362, 0.3404387831687927, 1.9062368869781494, 
21, 2468354235, 78.4492416381836, -81.90225982666016, 134.8046112060547, 9.160602569580078, 1.6076661348342896, 0.957084596157074, -0.7795820832252502, -0.42021432518959045, 2.431380033493042, 
22, 2468362568, 78.4588394165039, -81.90728759765625, 134.7917938232422, 9.85485553741455, 0.3914179503917694, -0.1709437072277069, -0.36770516633987427, -0.5653958320617676, 2.0683751106262207, 
23, 2468370901, 78.48604583740234, -81.90367126464844, 134.78797912597656, 10.1837739944458, 0.12642650306224823, -0.08544071018695831, 0.46907350420951843, -0.5304067730903625, 0.9533874988555908, 
24, 2468379234, 78.5055923461914, -81.89572143554688, 134.7742462158203, 10.521668434143066, 1.685023546218872, -0.03931175917387009, 0.7235252857208252, -0.2695770263671875, 0.5356705188751221, 
25, 2468387567, 78.48719024658203, -81.89601135253906, 134.69107055664062, 9.776298522949219, 2.609729051589966, 0.515226423740387, 0.17345958948135376, 0.10302044451236725, 1.5618791580200195, 
26, 2468395900, 78.45173645019531, -81.90153503417969, 134.72048950195312, 9.135847091674805, 1.9794975519180298, 0.9958851933479309, -0.7474362254142761, 0.12417781352996826, 2.2653229236602783, 
27, 2468404233, 78.47944641113281, -81.90823364257812, 134.76089477539062, 9.66050910949707, 0.7815729379653931, 0.11234307289123535, -0.49564820528030396, -0.9195382595062256, 2.1381995677948, 
28, 2468412566, 78.47251892089844, -81.908203125, 134.7693634033203, 10.185355186462402, 0.040907107293605804, -0.28808075189590454, 0.19059550762176514, -0.0903029814362526, 1.5405681133270264, 
29, 2468420899, 78.51046752929688, -81.90059661865234, 134.761962890625, 10.4575777053833, 1.0973033905029297, -0.21590855717658997, 1.124464988708496, -0.5201354622840881, 0.466127872467041, 
30, 2468429232, 78.49226379394531, -81.8970947265625, 134.7826690673828, 9.9581880569458, 2.402639865875244, 0.4566303491592407, 0.2785804271697998, 0.1943351924419403, 1.1802014112472534, 
31, 2468437565, 78.43988037109375, -81.9008560180664, 134.9476318359375, 9.235169410705566, 2.3194544315338135, 0.9630171060562134, -0.8331413865089417, 0.44794175028800964, 2.050957202911377, 
32, 2468445898, 78.46137237548828, -81.9090576171875, 134.9212188720703, 9.46782398223877, 1.1607061624526978, 0.46824631094932556, -0.5484392046928406, -0.8645445704460144, 2.389526605606079, 
33, 2468454231, 78.46260070800781, -81.91118621826172, 134.59243774414062, 10.095380783081055, 0.1403294950723648, -0.22812531888484955, -0.10093288123607635, -0.3126601576805115, 1.7014511823654175, 
34, 2468462564, 78.4876480102539, -81.90299224853516, 134.57437133789062, 10.270452499389648, 0.5735650062561035, -0.08495431393384933, 0.8454490303993225, -0.3368656039237976, 0.5020902156829834, 
35, 2468470897, 78.4779281616211, -81.89624786376953, 134.21324157714844, 10.24067497253418, 2.0836803913116455, 0.19666026532649994, 0.4930740296840668, 0.17261432111263275, 0.6962461471557617, 
36, 2468479230, 78.43769073486328, -81.89901733398438, 134.25088500976562, 9.530776023864746, 2.555978536605835, 0.6618817448616028, -0.370958149433136, 0.32204777002334595, 1.9846932888031006, 
37, 2468487563, 78.4250259399414, -81.90621185302734, 134.2226104736328, 9.231490135192871, 1.572487473487854, 0.8193051218986511, -0.7130362391471863, -0.28417712450027466, 2.3199071884155273, 
38, 2468495896, 78.42759704589844, -81.91117095947266, 134.2168731689453, 9.79123592376709, 0.4133850038051605, -0.0845499262213707, -0.3757736384868622, -0.44687873125076294, 2.087022066116333, 
39, 2468504229, 78.45201873779297, -81.90686798095703, 133.99415588378906, 10.266502380371094, 0.13358628749847412, -0.030935678631067276, 0.5859512090682983, -0.4475703239440918, 0.8837422728538513, 
40, 2468512562, 78.46561431884766, -81.89828491210938, 133.98619079589844, 10.519113540649414, 1.6768696308135986, 0.010292940773069859, 0.6955801248550415, -0.158744215965271, 0.48328936100006104, 
41, 2468520895, 78.43411254882812, -81.89947509765625, 133.77992248535156, 9.830911636352539, 2.6695594787597656, 0.5529118776321411, 0.03222270682454109, 0.2834983170032501, 1.7083669900894165, 
42, 2468529228, 78.40196228027344, -81.90595245361328, 133.8061065673828, 9.065719604492188, 1.9097808599472046, 1.0119351148605347, -0.7215401530265808, 0.04920494183897972, 2.361504316329956, 
43, 2468537561, 78.41728973388672, -81.91265106201172, 133.70709228515625, 9.70106029510498, 0.75426185131073, 0.03015250526368618, -0.5396022200584412, -0.7200288772583008, 2.1835622787475586, 
44, 2468545894, 78.41438293457031, -81.90988159179688, 133.71157836914062, 10.158203125, -0.002968429820612073, -0.22144486010074615, 0.1972552239894867, -0.08930402249097824, 1.2027932405471802, 
45, 2468554227, 78.45388793945312, -81.90225982666016, 133.58364868164062, 10.462614059448242, 1.2719972133636475, -0.10705660283565521, 1.1207250356674194, -0.5454935431480408, 0.4635407626628876, 
46, 2468562560, 78.43846893310547, -81.89901733398438, 133.60128784179688, 9.966090202331543, 2.5245025157928467, 0.40359941124916077, 0.2555532157421112, 0.1415954828262329, 1.1910617351531982, 
47, 2468570893, 78.38546752929688, -81.90444946289062, 133.5946502685547, 9.146994590759277, 2.29903507232666, 1.0023823976516724, -0.7614216208457947, 0.4298068881034851, 2.2561020851135254, 
48, 2468579226, 78.40768432617188, -81.91162872314453, 133.56707763671875, 9.568614959716797, 1.0390102863311768, 0.427493155002594, -0.6106560826301575, -0.8634430170059204, 2.273493528366089, 
49, 2468587559, 78.40348052978516, -81.91485595703125, 133.6019287109375, 10.100582122802734, 0.1180594265460968, -0.3099830746650696, -0.08054396510124207, -0.24511539936065674, 1.8606692552566528, 
50, 2468595892, 78.43379974365234, -81.90677642822266, 133.5800018310547, 10.367838859558105, 0.5929492115974426, -0.07994017004966736, 1.0450865030288696, -0.3995436728000641, 0.49084562063217163, 
51, 2468604225, 78.42965698242188, -81.9013900756836, 133.90696716308594, 10.14441967010498, 2.1500799655914307, 0.3426429033279419, 0.4023868143558502, 0.03443833813071251, 0.8409025073051453, 
52, 2468612558, 78.39349365234375, -81.90435028076172, 133.94183349609375, 9.551929473876953, 2.5986359119415283, 0.6264081001281738, -0.2180923968553543, 0.26877015829086304, 1.997270107269287, 
53, 2468620891, 78.38616180419922, -81.9123306274414, 133.77639770507812, 9.188547134399414, 1.5102663040161133, 0.8308021426200867, -0.8916956186294556, -0.41667959094047546, 2.4032812118530273, 
54, 2468629224, 78.40084838867188, -81.91643524169922, 133.7593994140625, 9.919096946716309, 0.36767011880874634, -0.19056956470012665, -0.24511539936065674, -0.6109123229980469, 1.9402271509170532, 
55, 2468637557, 78.42378997802734, -81.9124984741211, 133.61048889160156, 10.209489822387695, 0.15214118361473083, -0.11539724469184875, 0.6509345173835754, -0.4216231107711792, 0.9396581649780273, 
56, 2468645890, 78.43350982666016, -81.90418243408203, 133.6065673828125, 10.417551040649414, 1.7805571556091309, -0.0391475111246109, 0.7006261348724365, -0.09634794294834137, 0.5266030430793762, 
57, 2468654223, 78.40826416015625, -81.90647888183594, 133.66015625, 9.762993812561035, 2.670423984527588, 0.6183449625968933, -0.04409490525722504, 0.13987933099269867, 1.8216074705123901, 
58, 2468662556, 78.37979888916016, -81.91337585449219, 133.6826629638672, 9.074698448181152, 1.8179062604904175, 1.00630521774292, -0.7196192145347595, -0.022963162511587143, 2.3991317749023438, 
59, 2468670889, 78.39798736572266, -81.91947174072266, 133.72030639648438, 9.714401245117188, 0.6509615182876587, 0.06297216564416885, -0.5191877484321594, -0.7489986419677734, 2.110766649246216, 
60, 2468679222, 78.4055404663086, -81.9169692993164, 133.71493530273438, 10.141709327697754, 0.012245715595781803, -0.10991796106100082, 0.2654659152030945, -0.2619183659553528, 1.2080185413360596, 
61, 2468687555, 78.4415512084961, -81.90895080566406, 133.70098876953125, 10.563790321350098, 1.386843204498291, -0.1700659990310669, 1.11439847946167, -0.47554105520248413, 0.4235825836658478, 
62, 2468695888, 78.425048828125, -81.90677642822266, 133.71926879882812, 9.902525901794434, 2.538687229156494, 0.4309229254722595, 0.18583126366138458, 0.12238480895757675, 1.3294299840927124, 
63, 2468704221, 78.37206268310547, -81.91291809082031, 133.52430725097656, 9.189898490905762, 2.2325081825256348, 1.0813417434692383, -0.9081911444664001, 0.39384448528289795, 2.3298451900482178, 
64, 2468712554, 78.39462280273438, -81.92003631591797, 133.4962615966797, 9.50777530670166, 0.9927957057952881, 0.3309265375137329, -0.619877278804779, -0.8698979020118713, 2.264580249786377, 
65, 2468720887, 78.39525604248047, -81.92253112792969, 132.96253967285156, 10.116348266601562, 0.07180768251419067, -0.31114545464515686, -0.054327789694070816, -0.3011721670627594, 1.744905710220337, 
66, 2468729220, 78.43782806396484, -81.91444396972656, 132.9278564453125, 10.365477561950684, 0.7137678861618042, -0.05329583212733269, 0.9554877877235413, -0.6177513003349304, 0.4726850688457489, 
67, 2468737553, 78.41988372802734, -81.9088134765625, 132.74159240722656, 10.144826889038086, 2.277329206466675, 0.3803238272666931, 0.4343149960041046, 0.27904149889945984, 0.8533895015716553, 
68, 2468745886, 78.36701202392578, -81.91169738769531, 132.79067993164062, 9.445026397705078, 2.481593370437622, 0.7373895645141602, -0.5046900510787964, 0.5109015107154846, 2.025291681289673, 
69, 2468754219, 78.37322235107422, -81.9178237915039, 132.74224853515625, 9.287047386169434, 1.409854531288147, 0.7562374472618103, -0.7069912552833557, -0.5720555186271667, 2.1448590755462646, 
70, 2468762552, 78.37700653076172, -81.92144012451172, 132.7364501953125, 10.01158618927002, 0.2463739663362503, -0.23657888174057007, -0.23607361316680908, -0.4189336597919464, 1.9318513870239258, 
71, 2468770885, 78.41252136230469, -81.91516876220703, 132.69126892089844, 10.232220649719238, 0.33260753750801086, -0.10653478652238846, 0.7619722485542297, -0.5578395128250122, 0.6241163611412048, 
72, 2468779218, 78.41547393798828, -81.9079818725586, 132.69248962402344, 10.363337516784668, 1.9446717500686646, 0.06547761708498001, 0.5038832426071167, -0.03933066129684448, 0.6822351813316345, 
73, 2468787551, 78.3791732788086, -81.91021728515625, 132.8037109375, 9.615127563476562, 2.59960675239563, 0.6247338056564331, -0.22493138909339905, 0.3029395341873169, 1.8428928852081299, 
74, 2468795884, 78.35548400878906, -81.9176254272461, 132.8218536376953, 9.123092651367188, 1.7540419101715088, 0.920704185962677, -0.6878830790519714, -0.11194702982902527, 2.4502577781677246, 
75, 2468804217, 78.37821960449219, -81.92304229736328, 132.90301513671875, 9.781632423400879, 0.4809291362762451, -0.06100752577185631, -0.5332499742507935, -0.8088590502738953, 2.0095903873443604, 
76, 2468812550, 78.38479614257812, -81.91925811767578, 132.89967346191406, 10.220617294311523, 0.025385381653904915, -0.12823587656021118, 0.39389568567276, -0.19770346581935883, 1.0662181377410889, 
77, 2468820883, 78.40824890136719, -81.9124526977539, 132.8469696044922, 10.544370651245117, 1.5784965753555298, -0.150288388133049, 0.9314103722572327, -0.319934606552124, 0.6111299395561218, 
78, 2468829216, 78.38150787353516, -81.91216278076172, 132.875, 9.826196670532227, 2.584508180618286, 0.44710275530815125, 0.13503824174404144, 0.24097870290279388, 1.5784515142440796, 
79, 2468837549, 78.34342956542969, -81.91815948486328, 132.94447326660156, 9.083172798156738, 2.062185525894165, 1.0539473295211792, -0.762113094329834, 0.16592901945114136, 2.269395589828491, 
80, 2468845882, 78.35736083984375, -81.92388916015625, 132.92547607421875, 9.557225227355957, 0.8849018216133118, 0.17908303439617157, -0.5886535048484802, -0.6860644221305847, 2.133563280105591, 
81, 2468854215, 78.35906982421875, -81.92396545410156, 133.1682586669922, 10.176764488220215, 0.04853203892707825, -0.26718729734420776, 0.16029387712478638, -0.23146302998065948, 1.4736636877059937, 
82, 2468862548, 78.3952865600586, -81.91619110107422, 133.13951110839844, 10.434896469116211, 1.0139012336730957, -0.08806580305099487, 0.9347658157348633, -0.5190596580505371, 0.5059579610824585, 
83, 2468870881, 78.38412475585938, -81.9123764038086, 133.11685180664062, 10.079463958740234, 2.3725335597991943, 0.42746105790138245, 0.3461379408836365, 0.10654240846633911, 1.0712769031524658, 
84, 2468879214, 78.33419036865234, -81.91633605957031, 133.16207885742188, 9.343191146850586, 2.3611562252044678, 0.850624680519104, -0.6056613922119141, 0.42148223519325256, 2.136329412460327, 
85, 2468887547, 78.34758758544922, -81.92440795898438, 133.09486389160156, 9.41838550567627, 1.169535756111145, 0.5677536129951477, -0.6369363069534302, -0.7304027080535889, 2.3481338024139404, 
86, 2468895880, 78.34907531738281, -81.92693328857422, 133.09266662597656, 9.993051528930664, 0.20412805676460266, -0.2243359535932541, -0.10047183185815811, -0.33333083987236023, 1.8209158182144165, 
87, 2468904213, 78.3843002319336, -81.92059326171875, 133.07151794433594, 10.241476058959961, 0.5448467135429382, -0.03575742617249489, 0.8489453792572021, -0.5376171469688416, 0.6199797987937927, 
88, 2468912546, 78.37017822265625, -81.91339874267578, 133.0891876220703, 10.343047142028809, 2.0056285858154297, 0.13318593800067902, 0.4096740484237671, 0.23339690268039703, 0.7348211407661438, 
89, 2468920879, 78.3330078125, -81.91643524169922, 132.9796600341797, 9.62801456451416, 2.55997371673584, 0.603455126285553, -0.2957291305065155, 0.28680261969566345, 1.9298533201217651, 
90, 2468929212, 78.32107543945312, -81.92330932617188, 132.98471069335938, 9.245525360107422, 1.5544573068618774, 0.85446697473526, -0.8444117903709412, -0.3173219859600067, 2.3530261516571045, 
91, 2468937545, 78.32579803466797, -81.92817687988281, 132.5667266845703, 9.80019474029541, 0.4304463267326355, -0.11663954704999924, -0.28321656584739685, -0.459621787071228, 2.0142905712127686, 
92, 2468945878, 78.34662628173828, -81.92340850830078, 132.55068969726562, 10.241718292236328, 0.16808447241783142, -0.11670539528131485, 0.6020626425743103, -0.38053789734840393, 0.9045155644416809, 
93, 2468954211, 78.36199951171875, -81.91682434082031, 132.76913452148438, 10.46945858001709, 1.7190070152282715, -0.0663783848285675, 0.7476282715797424, -0.21230359375476837, 0.6556732058525085, 
94, 2468962544, 78.33161163330078, -81.9173583984375, 132.80023193359375, 9.799175262451172, 2.6241071224212646, 0.587729811668396, 0.04090593010187149, 0.265568345785141, 1.6993763446807861, 
95, 2468970877, 78.29429626464844, -81.92437744140625, 132.77561950683594, 9.049272537231445, 1.9432291984558105, 0.988966703414917, -0.6915203928947449, 0.13995619118213654, 2.391831636428833, 
96, 2468979210, 78.31616973876953, -81.93034362792969, 132.74969482421875, 9.673105239868164, 0.7228730916976929, 0.0902738943696022, -0.44646888971328735, -0.8081675171852112, 2.136047840118408, 
97, 2468987543, 78.32193756103516, -81.92902374267578, 133.01455688476562, 10.185154914855957, -0.010614818893373013, -0.16005916893482208, 0.14717938005924225, -0.2669130861759186, 1.297616958618164, 
98, 2468995876, 78.37104797363281, -81.92095184326172, 132.97447204589844, 10.475818634033203, 1.2364331483840942, -0.20780421793460846, 1.108174204826355, -0.7032259702682495, 0.4524754285812378, 
99, 2469004209, 78.35608673095703, -81.91876983642578, 133.0794677734375, 10.006575584411621, 2.4605276584625244, 0.4295070171356201, 0.291976660490036, 0.1255865842103958, 1.2532533407211304, 
100, 2469012542, 78.30088806152344, -81.9231185913086, 133.12799072265625, 9.105707168579102, 2.296417474746704, 1.0468593835830688, -0.8438096642494202, 0.46532100439071655, 2.1910033226013184, 
101, 2469020875, 78.31816864013672, -81.93141174316406, 133.0958709716797, 9.49791145324707, 1.0969914197921753, 0.3699888586997986, -0.571850597858429, -0.7931575775146484, 2.3775136470794678, 
102, 2469029208, 78.32001495361328, -81.93225860595703, 133.0934295654297, 10.030481338500977, 0.11542543023824692, -0.2554852366447449, -0.062281012535095215, -0.2925017476081848, 1.6101363897323608, 
103, 2469037541, 78.35881042480469, -81.92674255371094, 133.07711791992188, 10.442686080932617, 0.6619312167167664, -0.06697206944227219, 0.9568197727203369, -0.5995651483535767, 0.7045963406562805, 
104, 2469045874, 78.33663177490234, -81.92085266113281, 133.10198974609375, 10.19539737701416, 2.180386781692505, 0.2906271517276764, 0.28996598720550537, 0.31901246309280396, 0.9237901568412781, 
105, 2469054207, 78.29765319824219, -81.92527770996094, 133.04388427734375, 9.528355598449707, 2.5465590953826904, 0.6838790774345398, -0.2591263949871063, 0.2883138358592987, 2.1102542877197266, 
106, 2469062540, 78.3064956665039, -81.93206787109375, 133.02783203125, 9.207077980041504, 1.4306598901748657, 0.7948046922683716, -0.8453338146209717, -0.6637289524078369, 2.2646570205688477, 
107, 2469070873, 78.32156372070312, -81.93742370605469, 132.66893005371094, 9.858041763305664, 0.3184070289134979, -0.24148772656917572, -0.24982841312885284, -0.6387293338775635, 2.0375356674194336, 
108, 2469079206, 78.34825134277344, -81.93148040771484, 132.64813232421875, 10.248672485351562, 0.20571599900722504, -0.07788769900798798, 0.7372545003890991, -0.43107473850250244, 0.7540573477745056, 
109, 2469087539, 78.35262298583984, -81.92323303222656, 132.69451904296875, 10.413924217224121, 1.857300043106079, 0.02598627842962742, 0.5496301651000977, -0.017635399475693703, 0.5006045699119568, 
110, 2469095872, 78.32567596435547, -81.92547607421875, 132.72096252441406, 9.796984672546387, 2.6820228099823, 0.5729780197143555, -0.09112263470888138, 0.15104714035987854, 1.8722212314605713, 
111, 2469104205, 78.30723571777344, -81.93313598632812, 132.7859344482422, 9.065014839172363, 1.8385425806045532, 0.9660068154335022, -0.6006922125816345, -0.18026018142700195, 2.420750141143799, 
112, 2469112538, 78.32856750488281, -81.93939208984375, 132.76004028320312, 9.797511100769043, 0.6054036617279053, 0.014598826877772808, -0.5102739334106445, -0.811164379119873, 2.1659395694732666, 
113, 2469120871, 78.3359146118164, -81.93614959716797, 132.5923614501953, 10.137582778930664, 0.01833992823958397, -0.10597670078277588, 0.23836608231067657, -0.23238515853881836, 1.071545958518982, 
114, 2469129204, 78.37677001953125, -81.9279556274414, 132.55953979492188, 10.539764404296875, 1.4060486555099487, -0.1890067160129547, 1.00670325756073, -0.5762690305709839, 0.44823628664016724, 
115, 2469137537, 78.3554458618164, -81.92639923095703, 132.46829223632812, 9.89982795715332, 2.5293526649475098, 0.4613869786262512, 0.23470325767993927, 0.20765461027622223, 1.3683124780654907, 
116, 2469145870, 78.30758666992188, -81.93128967285156, 132.50962829589844, 9.102691650390625, 2.1677722930908203, 1.0444424152374268, -0.8171069622039795, 0.3334461450576782, 2.232229471206665, 
117, 2469154203, 78.3287353515625, -81.93994903564453, 132.49058532714844, 9.541211128234863, 1.0182404518127441, 0.3281380236148834, -0.5989505648612976, -0.8677719235420227, 2.4034605026245117, 
118, 2469162536, 78.33269500732422, -81.94000244140625, 132.48704528808594, 10.092633247375488, 0.09396690130233765, -0.2570016384124756, 0.06897913664579391, -0.29129788279533386, 1.5090882778167725, 
119, 2469170869, 78.37352752685547, -81.93360137939453, 132.2906494140625, 10.507089614868164, 0.820087730884552, -0.13945898413658142, 0.9747368693351746, -0.6085429787635803, 0.603714644908905, 
120, 2469179202, 78.35333251953125, -81.9282455444336, 132.3136749267578, 10.090170860290527, 2.2765207290649414, 0.3527141213417053, 0.3116099536418915, 0.2761598527431488, 0.9729183316230774, 
121, 2469187535, 78.30706787109375, -81.93328094482422, 132.1746063232422, 9.412899017333984, 2.4592745304107666, 0.7766109704971313, -0.4767705202102661, 0.36402949690818787, 2.2219321727752686, 
122, 2469195868, 78.31934356689453, -81.94058227539062, 132.1561279296875, 9.236124038696289, 1.314520001411438, 0.6996094584465027, -0.6967455744743347, -0.7103467583656311, 2.3022074699401855, 
123, 2469204201, 78.33135986328125, -81.94487762451172, 132.2768096923828, 10.008201599121094, 0.24098613858222961, -0.17818091809749603, -0.251057893037796, -0.5609645247459412, 1.9308010339736938, 
124, 2469212534, 78.37113952636719, -81.93902587890625, 132.24461364746094, 10.289522171020508, 0.3715401291847229, -0.0991598591208458, 0.9516969323158264, -0.6212348341941833, 0.7228593230247498, 
125, 2469220867, 78.36725616455078, -81.93144989013672, 132.37142944335938, 10.39928913116455, 1.9622751474380493, 0.05552036687731743, 0.44932490587234497, 0.09085369855165482, 0.6015759706497192, 
126, 2469229200, 78.33018493652344, -81.93328094482422, 132.40750122070312, 9.684577941894531, 2.6104700565338135, 0.6205364465713501, -0.17252469062805176, 0.3168737292289734, 1.8659716844558716, 
127, 2469237533, 78.31945037841797, -81.94090270996094, 132.5555877685547, 9.122117042541504, 1.7113285064697266, 0.9570409655570984, -0.6451840996742249, -0.3149654269218445, 2.386939287185669, 
128, 2469245866, 78.33232879638672, -81.9461441040039, 132.5388946533203, 9.761489868164062, 0.47932368516921997, -0.12249421328306198, -0.4494401216506958, -0.6375254988670349, 2.0886356830596924, 
129, 2469254199, 78.34371948242188, -81.94305419921875, 132.60250854492188, 10.154054641723633, 0.12189159542322159, -0.0674799233675003, 0.3503899574279785, -0.28629031777381897, 1.0676909685134888, 
130, 2469262532, 78.36943054199219, -81.9348373413086, 132.58485412597656, 10.590570449829102, 1.5400214195251465, -0.1343446969985962, 0.9753772616386414, -0.32647904753685, 0.5013346076011658, 
131, 2469270865, 78.34811401367188, -81.93440246582031, 132.63250732421875, 9.846882820129395, 2.5768117904663086, 0.5205982327461243, 0.15990965068340302, 0.17253747582435608, 1.4884175062179565, 
132, 2469279198, 78.31510925292969, -81.93992614746094, 132.6591033935547, 9.155851364135742, 2.099997043609619, 1.0736788511276245, -0.7928502559661865, 0.07161740213632584, 2.2613272666931152, 
133, 2469287531, 78.34305572509766, -81.94580078125, 132.71592712402344, 9.567538261413574, 0.9030274748802185, 0.247297003865242, -0.5454423427581787, -0.9041696786880493, 2.0522122383117676, 
134, 2469295864, 78.33709716796875, -81.9451675415039, 132.72329711914062, 10.191299438476562, 0.037330687046051025, -0.31012579798698425, 0.15286575257778168, -0.09890936315059662, 1.4801441431045532, 
135, 2469304197, 78.37377166748047, -81.93814849853516, 132.7349090576172, 10.396693229675293, 0.9308781623840332, -0.1336580216884613, 1.0492103099822998, -0.5144747495651245, 0.5407933592796326, 
136, 2469312530, 78.3567886352539, -81.93354797363281, 132.75436401367188, 10.067862510681152, 2.3480851650238037, 0.3662327229976654, 0.26167502999305725, 0.1976906806230545, 1.0506703853607178, 
137, 2469320863, 78.30034637451172, -81.93744659423828, 132.68653869628906, 9.295568466186523, 2.4141693115234375, 0.8564035892486572, -0.6183403134346008, 0.5427655577659607, 2.1085124015808105, 
138, 2469329196, 78.3104019165039, -81.94609832763672, 132.67076110839844, 9.411961555480957, 1.2838000059127808, 0.5814334750175476, -0.645363450050354, -0.6998193264007568, 2.4744632244110107, 
139, 2469337529, 78.31104278564453, -81.94916534423828, 132.63687133789062, 10.025130271911621, 0.23606367409229279, -0.20407579839229584, -0.18943007290363312, -0.33322837948799133, 1.8355416059494019, 
140, 2469345862, 78.35100555419922, -81.94227600097656, 132.60415649414062, 10.277441024780273, 0.4749062955379486, -0.10523302108049393, 0.9043617844581604, -0.6057382225990295, 0.6035481691360474, 
141, 2469354195, 78.34624481201172, -81.93440246582031, 132.5127410888672, 10.341458320617676, 1.9452298879623413, 0.18141040205955505, 0.47657841444015503, 0.1165703758597374, 0.585618257522583, 
142, 2469362528, 78.31086730957031, -81.93756866455078, 132.54559326171875, 9.615156173706055, 2.5931389331817627, 0.63646000623703, -0.3190636932849884, 0.23695726692676544, 1.9950158596038818, 
143, 2469370861, 78.30323028564453, -81.94502258300781, 132.4696807861328, 9.181309700012207, 1.6580051183700562, 0.8800757527351379, -0.7371648550033569, -0.37595292925834656, 2.361273765563965, 
144, 2469379194, 78.31062316894531, -81.9500732421875, 132.45828247070312, 9.755223274230957, 0.48635151982307434, -0.09235575050115585, -0.44833874702453613, -0.540729284286499, 2.0677602291107178, 
145, 2469387527, 78.32107543945312, -81.9463119506836, 132.16030883789062, 10.234895706176758, 0.04836752265691757, -0.0602126307785511, 0.5045491456985474, -0.231795996427536, 1.0102766752243042, 
146, 2469395860, 78.3403091430664, -81.93717956542969, 132.14772033691406, 10.479924201965332, 1.6532578468322754, -0.09585501998662949, 0.8054396510124207, -0.22062823176383972, 0.4115951359272003, 
147, 2469404193, 78.31248474121094, -81.93778228759766, 132.14601135253906, 9.910213470458984, 2.6565587520599365, 0.4423961937427521, 0.1377277374267578, 0.25122442841529846, 1.6441264152526855, 
148, 2469412526, 78.26661682128906, -81.94387817382812, 132.18629455566406, 9.061704635620117, 1.9896223545074463, 1.1188019514083862, -0.7212839722633362, 0.28216639161109924, 2.378025531768799, 
149, 2469420859, 78.28695678710938, -81.95038604736328, 132.2667236328125, 9.656250953674316, 0.8010523319244385, 0.160191148519516, -0.6205943822860718, -0.8043253421783447, 2.152005434036255, 
150, 2469429192, 78.28182983398438, -81.9491195678711, 132.27310180664062, 10.141613960266113, -0.02108658291399479, -0.2922436594963074, 0.13785579800605774, -0.09883252531290054, 1.4017133712768555, 
151, 2469437525, 78.32721710205078, -81.94155883789062, 132.25946044921875, 10.44377326965332, 1.0942704677581787, -0.06961146742105484, 1.0756953954696655, -0.639087975025177, 0.45014452934265137, 
152, 2469445858, 78.30853271484375, -81.93730163574219, 132.2805938720703, 9.982070922851562, 2.396238088607788, 0.4248216450214386, 0.2751224637031555, 0.2189248502254486, 1.09605872631073, 
153, 2469454191, 78.24715423583984, -81.94112396240234, 132.51539611816406, 9.277302742004395, 2.416412830352783, 0.86452716588974, -0.6096317172050476, 0.6269341111183167, 2.11361026763916, 
154, 2469462524, 78.26107025146484, -81.94892120361328, 132.49526977539062, 9.459383010864258, 1.20157790184021, 0.5666215419769287, -0.7189019918441772, -0.7563242316246033, 2.371596336364746, 
155, 2469470857, 78.26284790039062, -81.95238494873047, 133.06272888183594, 10.042719841003418, 0.1917884796857834, -0.286996990442276, -0.08290047198534012, -0.34808462858200073, 1.8792906999588013, 
156, 2469479190, 78.29138946533203, -81.94597625732422, 133.04144287109375, 10.324406623840332, 0.43049386143684387, -0.11523229628801346, 0.9044001698493958, -0.4268868863582611, 0.6916995644569397, 
157, 2469487523, 78.2767562866211, -81.93805694580078, 133.05860900878906, 10.203180313110352, 2.0009005069732666, 0.20088043808937073, 0.4926769733428955, 0.2856627404689789, 0.6119624376296997, 
158, 2469495856, 78.23938751220703, -81.93932342529297, 133.0946044921875, 9.636988639831543, 2.5869641304016113, 0.6222418546676636, -0.198932945728302, 0.33103838562965393, 1.7909729480743408, 
159, 2469504189, 78.22026824951172, -81.94768524169922, 133.117919921875, 9.172675132751465, 1.636338710784912, 0.8791353106498718, -0.7280974388122559, -0.20671969652175903, 2.5080435276031494, 
160, 2469512522, 78.24118041992188, -81.95296478271484, 133.0939178466797, 9.868911743164062, 0.4814647436141968, -0.09766886383295059, -0.32197093963623047, -0.7555942535400391, 2.0531985759735107, 
161, 2469520855, 78.2607421875, -81.94882202148438, 133.1245880126953, 10.180634498596191, 0.12878693640232086, -0.05946873500943184, 0.43715816736221313, -0.3814600110054016, 0.9313080310821533, 
162, 2469529188, 78.28195190429688, -81.94163513183594, 133.1102294921875, 10.521345138549805, 1.6760255098342896, -0.1276925504207611, 0.8323857188224792, -0.2963182330131531, 0.631800651550293, 
163, 2469537521, 78.25276947021484, -81.94087982177734, 133.27418518066406, 9.757766723632812, 2.6230194568634033, 0.5531293153762817, 0.0452091246843338, 0.29172050952911377, 1.4927207231521606, 
164, 2469545854, 78.21685028076172, -81.9465560913086, 133.30422973632812, 9.111896514892578, 1.9913402795791626, 1.0778659582138062, -0.7427487969398499, 0.12241043895483017, 2.2909629344940186, 
165, 2469554187, 78.23072052001953, -81.95323944091797, 133.15786743164062, 9.654569625854492, 0.7996637225151062, 0.16290253400802612, -0.6247695684432983, -0.7027650475502014, 2.188941478729248, 
166, 2469562520, 78.22702026367188, -81.95226287841797, 133.1632080078125, 10.21277904510498, 0.04120752960443497, -0.23582923412322998, 0.18211722373962402, -0.12224394083023071, 1.4329627752304077, 
167, 2469570853, 78.2729721069336, -81.94473266601562, 133.0521697998047, 10.452263832092285, 1.0569106340408325, -0.1166125014424324, 0.9234187602996826, -0.6731292605400085, 0.45401227474212646, 
168, 2469579186, 78.25657653808594, -81.94084930419922, 133.07232666015625, 10.024352073669434, 2.4277536869049072, 0.4189348518848419, 0.42442786693573, 0.19249096512794495, 1.1377586126327515, 
169, 2469587519, 78.20476531982422, -81.9450454711914, 133.154052734375, 9.293777465820312, 2.392462730407715, 0.9533646106719971, -0.8675156831741333, 0.42186641693115234, 2.1332814693450928, 
170, 2469595852, 78.21808624267578, -81.95245361328125, 133.1340789794922, 9.471331596374512, 1.2081975936889648, 0.5208478569984436, -0.7547363042831421, -0.7413912415504456, 2.3135290145874023, 
171, 2469604185, 78.22203826904297, -81.95565032958984, 133.2529296875, 10.030858993530273, 0.1540164202451706, -0.2811889052391052, -0.1539287269115448, -0.3881452977657318, 1.8369247913360596, 
172, 2469612518, 78.25615692138672, -81.9480209350586, 133.22621154785156, 10.245352745056152, 0.5085099339485168, -0.030864518135786057, 0.9146330952644348, -0.4864271283149719, 0.5373866558074951, 
173, 2469620851, 78.25167846679688, -81.94044494628906, 133.51998901367188, 10.216219902038574, 2.0165581703186035, 0.19023701548576355, 0.5610029101371765, 0.11759495735168457, 0.6187630891799927, 
174, 2469629184, 78.21917724609375, -81.94219970703125, 133.5514373779297, 9.599298477172852, 2.6867516040802, 0.6037485003471375, -0.14644938707351685, 0.24464155733585358, 1.8301113843917847, 
175, 2469637517, 78.19967651367188, -81.9496078491211, 133.56922912597656, 9.251168251037598, 1.6428543329238892, 0.8683716058731079, -0.8095380067825317, -0.18818780779838562, 2.399836301803589, 
176, 2469645850, 78.21053314208984, -81.95538330078125, 133.55465698242188, 9.797541618347168, 0.4569191634654999, -0.02876412682235241, -0.42397961020469666, -0.6151129603385925, 2.1524407863616943, 
177, 2469654183, 78.22437286376953, -81.95211791992188, 133.52735900878906, 10.197473526000977, 0.05799533799290657, -0.06451889127492905, 0.33208853006362915, -0.3256465494632721, 1.0538208484649658, 
178, 2469662516, 78.23898315429688, -81.94282531738281, 133.5198211669922, 10.436347961425781, 1.6213420629501343, -0.11689890921115875, 0.8569626212120056, -0.13127294182777405, 0.4069461524486542, 
179, 2469670849, 78.21290588378906, -81.94221496582031, 133.5646514892578, 9.824851989746094, 2.6419596672058105, 0.5521708726882935, 0.03570624068379402, 0.23562534153461456, 1.499406099319458, 
180, 2469679182, 78.17584228515625, -81.94865417480469, 133.59559631347656, 9.001977920532227, 2.0530214309692383, 1.0106829404830933, -0.7731528878211975, 0.11823531240224838, 2.386401414871216, 
181, 2469687515, 78.2000732421875, -81.95587921142578, 133.55992126464844, 9.682352066040039, 0.7989464998245239, 0.11276353150606155, -0.5024104118347168, -0.8700515031814575, 2.2251856327056885, 
182, 2469695848, 78.20350646972656, -81.95475006103516, 133.55722045898438, 10.120979309082031, 0.01276067178696394, -0.23039306700229645, 0.09871726483106613, -0.2513653039932251, 1.3797619342803955, 
183, 2469704181, 78.24996185302734, -81.9472885131836, 133.5570068359375, 10.483814239501953, 1.041711449623108, -0.1349741518497467, 1.0759258270263672, -0.6599379181861877, 0.47586119174957275, 
184, 2469712514, 78.23511505126953, -81.94290161132812, 133.57431030273438, 9.956928253173828, 2.4042131900787354, 0.47950536012649536, 0.2685140371322632, 0.15865458548069, 1.0675245523452759, 
185, 2469720847, 78.183349609375, -81.9473876953125, 133.680908203125, 9.253305435180664, 2.3745944499969482, 0.9461682438850403, -0.6498203277587891, 0.44030869007110596, 2.166656732559204, 
186, 2469729180, 78.20430755615234, -81.95436096191406, 133.6544952392578, 9.461100578308105, 1.1693435907363892, 0.5406003594398499, -0.6079410314559937, -0.8356516361236572, 2.2428336143493652, 
187, 2469737513, 78.2110824584961, -81.95772552490234, 133.91810607910156, 10.062298774719238, 0.11962638795375824, -0.2264249324798584, -0.10331501811742783, -0.434378981590271, 1.8601313829421997, 
188, 2469745846, 78.25389862060547, -81.95038604736328, 133.88348388671875, 10.333747863769531, 0.47942644357681274, -0.07808758318424225, 1.0207527875900269, -0.6225667595863342, 0.5437133312225342, 
189, 2469754179, 78.25328063964844, -81.94380187988281, 134.2674102783203, 10.248106002807617, 2.1062545776367188, 0.20154611766338348, 0.4567530155181885, 0.013319402001798153, 0.7138174772262573, 
190, 2469762512, 78.22300720214844, -81.94580078125, 134.2963104248047, 9.648613929748535, 2.629876136779785, 0.6379392147064209, -0.21302080154418945, 0.19241414964199066, 1.8670985698699951, 
191, 2469770845, 78.21542358398438, -81.95336151123047, 134.2252197265625, 9.14684009552002, 1.6166472434997559, 0.9141492247581482, -0.8710248470306396, -0.3996204733848572, 2.364885091781616, 
192, 2469779178, 78.23279571533203, -81.95817565917969, 134.20477294921875, 9.816438674926758, 0.3678330183029175, -0.15120929479599, -0.3593292832374573, -0.6897528767585754, 2.0262653827667236, 
193, 2469787511, 78.24659729003906, -81.95416259765625, 133.8665771484375, 10.154813766479492, 0.10310119390487671, -0.04233802855014801, 0.5102867484092712, -0.2831525504589081, 0.9727774262428284, 
194, 2469795844, 78.25984954833984, -81.94560241699219, 133.86061096191406, 10.549763679504395, 1.6933000087738037, -0.046150460839271545, 0.8889164924621582, -0.11991304159164429, 0.4919469952583313, 
195, 2469804177, 78.2386474609375, -81.94575500488281, 133.8242645263672, 9.796798706054688, 2.640321731567383, 0.5866833329200745, 0.07782885432243347, 0.14286339282989502, 1.5596379041671753, 
196, 2469812510, 78.21250915527344, -81.95116424560547, 133.84449768066406, 9.154749870300293, 1.993929147720337, 1.0231350660324097, -0.7344241738319397, -0.034643255174160004, 2.233612537384033, 
197, 2469820843, 78.24137878417969, -81.95758819580078, 133.5873260498047, 9.67055606842041, 0.8024545907974243, 0.13630546629428864, -0.47379928827285767, -0.9252502918243408, 2.1226260662078857, 
198, 2469829176, 78.24529266357422, -81.95655822753906, 133.58531188964844, 10.151134490966797, 0.0447910837829113, -0.2811638414859772, 0.2225877195596695, -0.24252839386463165, 1.3949769735336304, 
199, 2469837509, 78.29441833496094, -81.9491195678711, 133.25900268554688, 10.444231033325195, 1.098097324371338, -0.15909352898597717, 1.1681628227233887, -0.6943890452384949, 0.4682794213294983, 
200, 2469845842, 78.28522491455078, -81.9458999633789, 133.27061462402344, 9.971698760986328, 2.4566221237182617, 0.43561553955078125, 0.2732014060020447, 0.03639782592654228, 1.1847351789474487, 
201, 2469854175, 78.23721313476562, -81.95150756835938, 133.16600036621094, 9.26327133178711, 2.2942593097686768, 0.901256799697876, -0.8807583451271057, 0.320843905210495, 2.287607431411743, 
202, 2469862508, 78.2695541381836, -81.95844268798828, 133.12847900390625, 9.4993257522583, 1.1423585414886475, 0.42707470059394836, -0.5675218105316162, -1.0177944898605347, 2.206845760345459, 
203, 2469870841, 78.27164459228516, -81.95970916748047, 132.78070068359375, 10.101702690124512, 0.11085475981235504, -0.2942822575569153, -0.07813622802495956, -0.30039092898368835, 1.6307815313339233, 
204, 2469879174, 78.31895446777344, -81.95223999023438, 132.74061584472656, 10.291253089904785, 0.6132137775421143, -0.11952434480190277, 0.9208316802978516, -0.7091684937477112, 0.5042674541473389, 
205, 2469887507, 78.31585693359375, -81.94711303710938, 132.56076049804688, 10.249344825744629, 2.12361478805542, 0.21567967534065247, 0.3346755802631378, 0.0038421351928263903, 0.8920413255691528, 
206, 2469895840, 78.28295135498047, -81.95026397705078, 132.59207153320312, 9.562457084655762, 2.5751993656158447, 0.6102922558784485, -0.24234908819198608, 0.2032233476638794, 2.007131576538086, 
207, 2469904173, 78.277587890625, -81.95904541015625, 132.5025634765625, 9.244463920593262, 1.5583643913269043, 0.8254085779190063, -0.7367550134658813, -0.442319393157959, 2.4981305599212646, 
208, 2469912506, 78.29136657714844, -81.96363830566406, 132.4851531982422, 9.777170181274414, 0.39121392369270325, -0.11140775680541992, -0.4384515881538391, -0.6367826461791992, 2.017505168914795, 
209, 2469920839, 78.32245635986328, -81.95983123779297, 132.2993927001953, 10.259329795837402, 0.1419338583946228, -0.10680624842643738, 0.706773579120636, -0.5455960035324097, 0.9397606253623962, 
210, 2469929172, 78.3263931274414, -81.9510726928711, 132.30093383789062, 10.467792510986328, 1.7121258974075317, -0.05757323279976845, 0.6595152616500854, 0.005378989037126303, 0.4994007647037506, 
211, 2469937505, 78.30380249023438, -81.95189666748047, 132.27647399902344, 9.867575645446777, 2.6426608562469482, 0.5121507048606873, 0.04999898746609688, 0.1455657035112381, 1.6608526706695557, 
212, 2469945838, 78.27706146240234, -81.95851135253906, 132.2981414794922, 9.15305233001709, 1.9047297239303589, 0.9943256378173828, -0.6398051381111145, -0.03820363059639931, 2.3714938163757324, 
213, 2469954171, 78.29361724853516, -81.96571350097656, 132.3407745361328, 9.66934585571289, 0.7906776666641235, 0.09086348861455917, -0.607428789138794, -0.7566317319869995, 2.2574849128723145, 
214, 2469962504, 78.29637145996094, -81.96456909179688, 132.33950805664062, 10.145785331726074, 0.008025489747524261, -0.16978703439235687, 0.17069324851036072, -0.22626332938671112, 1.386985182762146, 
215, 2469970837, 78.33708190917969, -81.95729064941406, 132.2997283935547, 10.448164939880371, 1.2041524648666382, -0.15128977596759796, 1.1355814933776855, -0.5614768266677856, 0.5152815580368042, 
216, 2469979170, 78.32747650146484, -81.95421600341797, 132.31143188476562, 10.007706642150879, 2.4465584754943848, 0.36708390712738037, 0.2386990189552307, 0.035501327365636826, 1.1987460851669312, 
217, 2469987503, 78.26570129394531, -81.95887756347656, 132.55628967285156, 9.19196605682373, 2.2804715633392334, 0.9802401661872864, -0.76882404088974, 0.5898445844650269, 2.2199344635009766, 
218, 2469995836, 78.28294372558594, -81.96583557128906, 132.53456115722656, 9.571819305419922, 1.1008516550064087, 0.4296157658100128, -0.524361789226532, -0.7620618939399719, 2.276029586791992, 
219, 2470004169, 78.28109741210938, -81.96781921386719, 132.40838623046875, 10.06087875366211, 0.16127696633338928, -0.3169914484024048, -0.16458426415920258, -0.2597411274909973, 1.714539885520935, 
220, 2470012502, 78.31061553955078, -81.96026611328125, 132.38699340820312, 10.348368644714355, 0.5948160886764526, -0.1271417886018753, 1.0152201652526855, -0.39990222454071045, 0.5557007789611816, 
221, 2470020835, 78.29248809814453, -81.95392608642578, 132.14564514160156, 10.123954772949219, 2.0998029708862305, 0.29773709177970886, 0.3210488557815552, 0.2828580141067505, 0.8053116202354431, 
222, 2470029168, 78.24761962890625, -81.95650482177734, 132.18894958496094, 9.539490699768066, 2.5580501556396484, 0.6238173842430115, -0.24544839560985565, 0.41579586267471313, 1.9778287410736084, 
223, 2470037501, 78.24016571044922, -81.96368408203125, 132.3264617919922, 9.23279857635498, 1.5288729667663574, 0.8919869065284729, -0.7682605981826782, -0.3734939992427826, 2.3285388946533203, 
224, 2470045834, 78.24261474609375, -81.96835327148438, 132.32110595703125, 9.904751777648926, 0.38480445742607117, -0.14609882235527039, -0.3390428423881531, -0.4359414875507355, 2.0489084720611572, 
225, 2470054167, 78.26820373535156, -81.96307373046875, 132.3434295654297, 10.212679862976074, 0.09409584105014801, -0.15845726430416107, 0.5926109552383423, -0.43371307849884033, 0.7978835105895996, 
226, 2470062500, 78.2791519165039, -81.95372772216797, 132.33761596679688, 10.38895320892334, 1.765135645866394, -0.009026887826621532, 0.6148184537887573, -0.10205991566181183, 0.4125940799713135, 
227, 2470070833, 78.2536392211914, -81.95436096191406, 132.32867431640625, 9.777185440063477, 2.6460297107696533, 0.4949195086956024, -0.008567961864173412, 0.18946851789951324, 1.6485579013824463, 
228, 2470079166, 78.22097778320312, -81.96176147460938, 132.3551483154297, 9.079747200012207, 1.985053300857544, 1.0084782838821411, -0.7507916688919067, 0.025665463879704475, 2.46665096282959, 
229, 2470087499, 78.23995208740234, -81.96744537353516, 132.4382781982422, 9.694049835205078, 0.7466927170753479, 0.18272118270397186, -0.6344132423400879, -0.7623051404953003, 2.07794189453125, 
230, 2470095832, 78.23812103271484, -81.96627044677734, 132.44076538085938, 10.153339385986328, 0.07395324110984802, -0.17595992982387543, 0.06616156548261642, -0.16391828656196594, 1.399945855140686, 
231, 2470104165, 78.2716293334961, -81.95841217041016, 132.4333038330078, 10.523820877075195, 1.1419227123260498, -0.14056767523288727, 1.1365035772323608, -0.42577260732650757, 0.4695345163345337, 
232, 2470112498, 78.26002502441406, -81.95594787597656, 132.4473114013672, 9.963546752929688, 2.4544124603271484, 0.4513228237628937, 0.2577560544013977, 0.05537797883152962, 1.2867823839187622, 
233, 2470120831, 78.20706176757812, -81.95970916748047, 132.39901733398438, 9.260149002075195, 2.2504141330718994, 0.9627138376235962, -0.7860111594200134, 0.4615685045719147, 2.0868427753448486, 
234, 2470129164, 78.23004913330078, -81.96611022949219, 132.37164306640625, 9.482114791870117, 1.1536147594451904, 0.41921237111091614, -0.4965447783470154, -0.8415942192077637, 2.1828453540802, 
235, 2470137497, 78.22821807861328, -81.96881866455078, 132.32620239257812, 10.090752601623535, 0.10791115462779999, -0.2602574825286865, -0.14037881791591644, -0.2734447717666626, 1.7996304035186768, 
236, 2470145830, 78.26600646972656, -81.96051025390625, 132.29644775390625, 10.242005348205566, 0.6306732892990112, -0.05885359272360802, 0.9892217516899109, -0.5219027996063232, 0.44712206721305847, 
237, 2470154163, 78.25614166259766, -81.95484924316406, 132.44740295410156, 10.193108558654785, 2.1541144847869873, 0.30853787064552307, 0.3915647566318512, 0.13977687060832977, 0.8568729758262634, 
238, 2470162496, 78.21298217773438, -81.95836639404297, 132.488037109375, 9.499814987182617, 2.592914581298828, 0.6913356184959412, -0.3677307367324829, 0.34653499722480774, 2.084768295288086, 
239, 2470170829, 78.20863342285156, -81.96625518798828, 132.50885009765625, 9.345914840698242, 1.4839725494384766, 0.8582820296287537, -0.792786180973053, -0.449760377407074, 2.40006685256958, 
240, 2470179162, 78.21381378173828, -81.9708023071289, 132.5012664794922, 9.891095161437988, 0.3825833201408386, -0.1806630939245224, -0.28167974948883057, -0.4692271649837494, 2.034423351287842, 
241, 2470187495, 78.2332992553711, -81.96615600585938, 132.27780151367188, 10.249058723449707, 0.1431283801794052, -0.11034690588712692, 0.5334932804107666, -0.3552566170692444, 0.8872770667076111, 
242, 2470195828, 78.24478149414062, -81.95751190185547, 132.27232360839844, 10.395727157592773, 1.7258665561676025, 0.01753877103328705, 0.7227569818496704, -0.1130228266119957, 0.4937400221824646, 
243, 2470204161, 78.22200012207031, -81.95792388916016, 132.26922607421875, 9.727330207824707, 2.7023870944976807, 0.5138459205627441, 0.054891303181648254, 0.1580142080783844, 1.6102900505065918, 
244, 2470212494, 78.19452667236328, -81.96502685546875, 132.29248046875, 9.105945587158203, 1.9793771505355835, 0.9744658470153809, -0.5359907150268555, -0.024013344198465347, 2.436323404312134, 
245, 2470220827, 78.21255493164062, -81.97244262695312, 132.34762573242188, 9.694567680358887, 0.7609253525733948, 0.21272101998329163, -0.613115131855011, -0.7867797017097473, 2.2721107006073, 
246, 2470229160, 78.22257995605469, -81.97212219238281, 132.33811950683594, 10.173066139221191, -0.02806060202419758, -0.22481384873390198, 0.06265240907669067, -0.38253575563430786, 1.461881160736084, 
247, 2470237493, 78.2672348022461, -81.96473693847656, 132.4345703125, 10.461490631103516, 1.1266653537750244, -0.20419196784496307, 1.236603856086731, -0.6087350845336914, 0.4960196018218994, 
248, 2470245826, 78.25975036621094, -81.96146392822266, 132.4454803466797, 9.951979637145996, 2.4115524291992188, 0.5001911520957947, 0.41466885805130005, 0.028354959562420845, 1.1683677434921265, 
249, 2470254159, 78.2077407836914, -81.96620178222656, 132.50917053222656, 9.204573631286621, 2.3017749786376953, 0.9772970080375671, -0.7811189293861389, 0.4223530888557434, 2.206794500350952, 
250, 2470262492, 78.2322998046875, -81.97358703613281, 132.48037719726562, 9.545920372009277, 1.1733230352401733, 0.41775786876678467, -0.47059759497642517, -0.8873410820960999, 2.2901687622070312, 
251, 2470270825, 78.24226379394531, -81.97581481933594, 132.72438049316406, 10.064726829528809, 0.16591902077198029, -0.1995203197002411, -0.134461909532547, -0.4598395526409149, 1.7192273139953613, 
252, 2470279158, 78.28269958496094, -81.96908569335938, 132.6918182373047, 10.340865135192871, 0.5624709725379944, -0.10956009477376938, 0.9878897666931152, -0.6041246056556702, 0.6193265318870544, 
253, 2470287491, 78.27954864501953, -81.96286010742188, 132.80223083496094, 10.161373138427734, 2.0846104621887207, 0.20349086821079254, 0.32873308658599854, 0.03273499384522438, 0.7653789520263672, 
254, 2470295824, 78.25300598144531, -81.96652221679688, 132.8262939453125, 9.599146842956543, 2.564887523651123, 0.6100776195526123, -0.33125606179237366, 0.07207845151424408, 2.040583610534668, 
255, 2470304157, 78.25154113769531, -81.97380828857422, 132.86477661132812, 9.231505393981934, 1.536929726600647, 0.8447774648666382, -0.8272244930267334, -0.4861709475517273, 2.3164491653442383, 
256, 2470312490, 78.25899505615234, -81.97821044921875, 132.85519409179688, 9.944008827209473, 0.3730553388595581, -0.21296313405036926, -0.24032554030418396, -0.49756932258605957, 2.007310628890991, 
257, 2470320823, 78.28071594238281, -81.9725341796875, 132.8413543701172, 10.190505027770996, 0.08582696318626404, -0.06506941467523575, 0.579137921333313, -0.362838476896286, 0.7774177193641663, 
258, 2470329156, 78.29471588134766, -81.96391296386719, 132.83377075195312, 10.434431076049805, 1.7516812086105347, 0.022881943732500076, 0.7883293032646179, -0.14529673755168915, 0.4743499755859375, 
259, 2470337489, 78.27912902832031, -81.96434783935547, 132.48760986328125, 9.7418212890625, 2.6544487476348877, 0.4659290313720703, 0.1390853077173233, 0.04966600239276886, 1.5953059196472168, 
260, 2470345822, 78.25413513183594, -81.97122192382812, 132.5068359375, 9.166425704956055, 2.0169801712036133, 1.0376780033111572, -0.7123574614524841, -0.08409153670072556, 2.3949952125549316, 
261, 2470354155, 78.26410675048828, -81.97855377197266, 132.39715576171875, 9.706427574157715, 0.7873057723045349, 0.18393075466156006, -0.7529945373535156, -0.6700044274330139, 2.300389051437378, 
262, 2470362488, 78.26761627197266, -81.97737884521484, 132.39468383789062, 10.227700233459473, 0.02355431206524372, -0.324617475271225, 0.1457706242799759, -0.24247713387012482, 1.3672109842300415, 
263, 2470370821, 78.30683898925781, -81.96959686279297, 132.3314208984375, 10.392980575561523, 1.065773606300354, -0.16748382151126862, 1.016680121421814, -0.5391924381256104, 0.4687148630619049, 
264, 2470379154, 78.30354309082031, -81.96532440185547, 132.33705139160156, 9.899707794189453, 2.396631956100464, 0.4101223647594452, 0.26185429096221924, -0.0385110005736351, 1.0426530838012695, 
265, 2470387487, 78.24413299560547, -81.97021484375, 132.31044006347656, 9.237567901611328, 2.351608991622925, 0.8926936388015747, -0.8080394268035889, 0.5374635457992554, 2.2476236820220947, 
266, 2470395820, 78.26744842529297, -81.97811889648438, 132.2825469970703, 9.529646873474121, 1.219639539718628, 0.5363483428955078, -0.5064318776130676, -0.8834477066993713, 2.352334499359131, 
267, 2470404153, 78.26361083984375, -81.98014831542969, 132.0952606201172, 10.12858772277832, 0.2080228328704834, -0.24419274926185608, -0.23197531700134277, -0.2377385050058365, 1.735902190208435, 
268, 2470412486, 78.29869079589844, -81.97354125976562, 132.06759643554688, 10.281489372253418, 0.511163592338562, -0.14594660699367523, 0.9237005710601807, -0.5263597369194031, 0.6541619896888733, 
269, 2470420819, 78.28916931152344, -81.96652221679688, 131.86412048339844, 10.19722843170166, 1.9995272159576416, 0.22545760869979858, 0.3609558045864105, 0.16203565895557404, 0.706389307975769, 
270, 2470429152, 78.24828338623047, -81.97004699707031, 131.90347290039062, 9.526790618896484, 2.554306983947754, 0.5988062024116516, -0.2256229817867279, 0.3280671238899231, 2.0677857398986816, 
271, 2470437485, 78.23756408691406, -81.97747802734375, 131.86683654785156, 9.256696701049805, 1.6115745306015015, 0.8266312479972839, -0.722795307636261, -0.3190893232822418, 2.3888604640960693, 
272, 2470445818, 78.25177764892578, -81.9823989868164, 131.84915161132812, 9.883402824401855, 0.46104103326797485, -0.10261954367160797, -0.3743135929107666, -0.6427251696586609, 2.031106472015381, 
273, 2470454151, 78.2644271850586, -81.97811889648438, 131.87344360351562, 10.240168571472168, 0.08169988542795181, -0.08667141199111938, 0.599834144115448, -0.2413245141506195, 0.9748777151107788, 
274, 2470462484, 78.27607727050781, -81.96930694580078, 131.8677520751953, 10.381614685058594, 1.7374398708343506, -0.09251487255096436, 0.7259331345558167, -0.11002595722675323, 0.4629773199558258, 
275, 2470470817, 78.2568359375, -81.97063446044922, 131.8601837158203, 9.795724868774414, 2.657215118408203, 0.5119755864143372, 0.004175120498985052, 0.07187355309724808, 1.7123372554779053, 
276, 2470479150, 78.21595001220703, -81.97774505615234, 131.8948211669922, 9.077947616577148, 1.9424852132797241, 1.0965769290924072, -0.7794795632362366, 0.16370058059692383, 2.4742581844329834, 
277, 2470487483, 78.22427368164062, -81.98493957519531, 131.76498413085938, 9.745680809020996, 0.7749444246292114, 0.14275769889354706, -0.6473870277404785, -0.6234888434410095, 2.288785696029663, 
278, 2470495816, 78.2235336303711, -81.9836196899414, 131.7666778564453, 10.164361953735352, -0.0717787817120552, -0.3055908977985382, 0.1317468136548996, -0.17028343677520752, 1.36660897731781, 
279, 2470504149, 78.25872039794922, -81.97434997558594, 131.79180908203125, 10.445103645324707, 1.1264724731445312, -0.07185016572475433, 1.2148830890655518, -0.40584468841552734, 0.3119301497936249, 
280, 2470512482, 78.2550048828125, -81.97075653076172, 131.79794311523438, 9.904433250427246, 2.3998072147369385, 0.40654635429382324, 0.2813723683357239, -0.04319840669631958, 1.1218008995056152, 
281, 2470520815, 78.1941146850586, -81.97581481933594, 132.05633544921875, 9.2523775100708, 2.3744161128997803, 0.8800120949745178, -0.6136273741722107, 0.5812638401985168, 2.2910139560699463, 
282, 2470529148, 78.21151733398438, -81.98310852050781, 132.03231811523438, 9.507476806640625, 1.2014950513839722, 0.5832260251045227, -0.7598334550857544, -0.8033008575439453, 2.2955479621887207, 
283, 2470537481, 78.21022033691406, -81.98622131347656, 131.8182373046875, 10.102275848388672, 0.1551397740840912, -0.3066132664680481, -0.15608033537864685, -0.2959596514701843, 1.8528567552566528, 
284, 2470545814, 78.24852752685547, -81.97950744628906, 131.78599548339844, 10.288177490234375, 0.48409727215766907, -0.13943037390708923, 0.7655839323997498, -0.5988479852676392, 0.6264217495918274, 
285, 2470554147, 78.24002838134766, -81.97317504882812, 131.76657104492188, 10.123684883117676, 1.9977819919586182, 0.3268701732158661, 0.37153446674346924, 0.13378314673900604, 0.7742926478385925, 
286, 2470562480, 78.21311950683594, -81.97632598876953, 131.79150390625, 9.635944366455078, 2.5561306476593018, 0.6003243923187256, -0.2665545344352722, 0.0966937318444252, 1.981235384941101, 
287, 2470570813, 78.19950866699219, -81.9830322265625, 131.84207153320312, 9.203906059265137, 1.589983344078064, 0.8876037001609802, -0.8333719968795776, -0.270089328289032, 2.301746368408203, 
288, 2470579146, 78.22038269042969, -81.98771667480469, 131.81759643554688, 9.920746803283691, 0.4668744206428528, -0.07186058908700943, -0.40231001377105713, -0.7497671246528625, 1.9936071634292603, 
289, 2470587479, 78.24182891845703, -81.98262023925781, 131.91380310058594, 10.162179946899414, 0.12149103730916977, -0.06833110749721527, 0.5145899653434753, -0.3770287334918976, 0.8242148756980896, 
290, 2470595812, 78.26350402832031, -81.9738540649414, 131.89901733398438, 10.436519622802734, 1.7217038869857788, -0.10177090018987656, 0.8291584253311157, -0.265529990196228, 0.4487614035606384, 
291, 2470604145, 78.2486801147461, -81.97356414794922, 131.91639709472656, 9.741620063781738, 2.575967311859131, 0.5121649503707886, -0.11625019460916519, 0.018954534083604813, 1.499150037765503, 
292, 2470612478, 78.21636199951172, -81.97980499267578, 131.9423370361328, 9.1143798828125, 1.9699124097824097, 1.0362906455993652, -0.798997700214386, 0.04047049209475517, 2.343958854675293, 
293, 2470620811, 78.23895263671875, -81.98624420166016, 131.963623046875, 9.705700874328613, 0.8041324615478516, 0.19867070019245148, -0.6340163350105286, -0.8386740684509277, 2.1562063694000244, 
294, 2470629144, 78.24391174316406, -81.98403930664062, 131.95919799804688, 10.207815170288086, 0.012438793666660786, -0.22281105816364288, 0.06636648625135422, -0.25182634592056274, 1.2489501237869263, 
295, 2470637477, 78.280517578125, -81.97595977783203, 131.86781311035156, 10.437213897705078, 1.1176173686981201, -0.10104820877313614, 1.1023085117340088, -0.4737224578857422, 0.44645610451698303, 
296, 2470645810, 78.27228546142578, -81.9722671508789, 131.8783416748047, 9.946879386901855, 2.457573890686035, 0.4575101435184479, 0.26615750789642334, 0.029200226068496704, 1.12044358253479, 
297, 2470654143, 78.21601104736328, -81.97600555419922, 131.99232482910156, 9.271388053894043, 2.34035062789917, 0.9008720517158508, -0.6900218725204468, 0.5296895503997803, 2.106015205383301, 
298, 2470662476, 78.23802947998047, -81.98335266113281, 131.9640655517578, 9.488838195800781, 1.1983896493911743, 0.4768015444278717, -0.7043657898902893, -0.874444305896759, 2.284008502960205, 
299, 2470670809, 78.23910522460938, -81.98582458496094, 132.0313262939453, 10.069341659545898, 0.13332819938659668, -0.27054592967033386, -0.20360754430294037, -0.3290148377418518, 1.7827634811401367, 
300, 2470679142, 78.272705078125, -81.97874450683594, 132.00497436523438, 10.222585678100586, 0.5187603235244751, -0.05022764578461647, 0.899661660194397, -0.4926898181438446, 0.6015631556510925, 
301, 2470687475, 78.26625061035156, -81.97297668457031, 132.0261688232422, 10.201935768127441, 2.1480560302734375, 0.19222550094127655, 0.42593908309936523, 0.08888139575719833, 0.8483178019523621, 
302, 2470695808, 78.2240219116211, -81.97689056396484, 132.06593322753906, 9.55390739440918, 2.5810177326202393, 0.6342738270759583, -0.35323309898376465, 0.32322603464126587, 2.1235480308532715, 
303, 2470704141, 78.21652221679688, -81.98432922363281, 132.0391387939453, 9.308364868164062, 1.5444364547729492, 0.8726168274879456, -0.6964126825332642, -0.3735707998275757, 2.3608381748199463, 
304, 2470712474, 78.22516632080078, -81.98954772949219, 132.027099609375, 9.857585906982422, 0.4100307822227478, -0.13907714188098907, -0.4065619111061096, -0.5597350001335144, 2.1013662815093994, 
305, 2470720807, 78.25565338134766, -81.98550415039062, 131.97576904296875, 10.2413330078125, 0.12370841950178146, -0.12264979630708694, 0.7551844716072083, -0.5219796299934387, 0.9329729080200195, 
306, 2470729140, 78.2713851928711, -81.97753143310547, 131.9662322998047, 10.40502643585205, 1.7619669437408447, -0.032430991530418396, 0.7455534934997559, -0.1963202953338623, 0.5597734451293945, 
307, 2470737473, 78.25086975097656, -81.97956085205078, 132.10678100585938, 9.731954574584961, 2.66642427444458, 0.5323218703269958, -0.04678439721465111, 0.06772403419017792, 1.787438154220581, 
308, 2470745806, 78.22685241699219, -81.98695373535156, 132.12599182128906, 9.099306106567383, 1.9427608251571655, 0.9856859445571899, -0.5981051921844482, -0.09842269867658615, 2.4581212997436523, 
309, 2470754139, 78.24915313720703, -81.99417877197266, 132.15316772460938, 9.722204208374023, 0.733997642993927, 0.1345229297876358, -0.6340163946151733, -0.8531972765922546, 2.2568702697753906, 
310, 2470762472, 78.2671890258789, -81.99354553222656, 132.1372833251953, 10.206856727600098, -0.000858341169077903, -0.2963351309299469, 0.2786828875541687, -0.4778975546360016, 1.393311858177185, 
311, 2470770805, 78.31009674072266, -81.98612213134766, 132.14674377441406, 10.472713470458984, 1.246647596359253, -0.18490098416805267, 1.1342239379882812, -0.5912405252456665, 0.4994519352912903, 
312, 2470779138, 78.30279541015625, -81.98420715332031, 132.1570281982422, 9.957179069519043, 2.4477458000183105, 0.4268530607223511, 0.35073569416999817, -0.01671328768134117, 1.327380657196045, 
313, 2470787471, 78.2516098022461, -81.98921203613281, 132.0895538330078, 9.146469116210938, 2.219266176223755, 0.9903786778450012, -0.8052474856376648, 0.39804524183273315, 2.238632917404175, 
314, 2470795804, 78.27254486083984, -81.99687957763672, 132.06336975097656, 9.600645065307617, 1.0764453411102295, 0.3976086676120758, -0.6070189476013184, -0.8504822254180908, 2.340808153152466, 
315, 2470804137, 78.27674865722656, -81.99889373779297, 131.9839630126953, 10.102116584777832, 0.09083430469036102, -0.28867316246032715, -0.14939504861831665, -0.3595854640007019, 1.7043713331222534, 
316, 2470812470, 78.322265625, -81.99158477783203, 131.94647216796875, 10.366264343261719, 0.7079886198043823, -0.09993971139192581, 1.0110194683074951, -0.6669818758964539, 0.5311879515647888, 
317, 2470820803, 78.3143081665039, -81.98589324951172, 132.04087829589844, 10.135950088500977, 2.1740493774414062, 0.28034138679504395, 0.3910525143146515, 0.10617100447416306, 0.8665551543235779, 
318, 2470829136, 78.27304077148438, -81.98992156982422, 132.0802459716797, 9.55277156829834, 2.4796974658966064, 0.6378372311592102, -0.2802581489086151, 0.3122631311416626, 2.1343061923980713, 
319, 2470837469, 78.26903533935547, -81.99683380126953, 132.05445861816406, 9.295282363891602, 1.4259358644485474, 0.824203610420227, -0.711473822593689, -0.41865184903144836, 2.300977945327759, 
320, 2470845802, 78.27143859863281, -82.00188446044922, 132.0489501953125, 9.932132720947266, 0.36841291189193726, -0.24473558366298676, -0.3443065285682678, -0.4412820041179657, 2.0883541107177734, 
321, 2470854135, 78.29780578613281, -81.9959487915039, 132.00193786621094, 10.226834297180176, 0.2448132038116455, -0.08609161525964737, 0.7902632355690002, -0.401631236076355, 0.7321957945823669, 
322, 2470862468, 78.30050659179688, -81.98856353759766, 132.0040283203125, 10.348698616027832, 1.8443679809570312, 0.07235045731067657, 0.5753725171089172, -0.01973576843738556, 0.6637160181999207, 
323, 2470870801, 78.2725830078125, -81.99065399169922, 131.87249755859375, 9.736258506774902, 2.6193947792053223, 0.5089318752288818, -0.14757640659809113, 0.17468908429145813, 1.834491491317749, 
324, 2470879134, 78.2523193359375, -81.996337890625, 131.887451171875, 9.089043617248535, 1.7989797592163086, 0.9811923503875732, -0.6519206762313843, -0.127341166138649, 2.2395551204681396, 
325, 2470887467, 78.27544403076172, -82.00242614746094, 131.8800506591797, 9.808051109313965, 0.6600162982940674, 0.046427156776189804, -0.5373738408088684, -0.8232030868530273, 2.115556240081787, 
326, 2470895800, 78.2789306640625, -81.99974822998047, 131.87823486328125, 10.14122200012207, 0.031379520893096924, -0.22922715544700623, 0.20770584046840668, -0.19852314889431, 1.1994377374649048, 
327, 2470904133, 78.30769348144531, -81.99075317382812, 131.8910369873047, 10.472413063049316, 1.3532534837722778, -0.193856343626976, 1.087836503982544, -0.3241097033023834, 0.3721235990524292, 
328, 2470912466, 78.29785919189453, -81.98760986328125, 131.90298461914062, 9.842846870422363, 2.463045358657837, 0.39429351687431335, 0.2430790662765503, 0.042417172342538834, 1.1921377182006836, 
329, 2470920799, 78.2478256225586, -81.99168395996094, 131.89804077148438, 9.134505271911621, 2.1710469722747803, 1.0707284212112427, -0.7798125147819519, 0.4052940309047699, 2.1195011138916016, 
330, 2470929132, 78.26338195800781, -81.99800872802734, 131.87765502929688, 9.595054626464844, 1.0916788578033447, 0.3953571319580078, -0.5513591766357422, -0.7207205295562744, 2.1919381618499756, 
331, 2470937465, 78.2581787109375, -81.99952697753906, 131.71995544433594, 10.151571273803711, 0.15192410349845886, -0.307365745306015, -0.04268611967563629, -0.17682787775993347, 1.6984286308288574, 
332, 2470945798, 78.29742431640625, -81.99165344238281, 131.68804931640625, 10.328340530395508, 0.6876604557037354, -0.043682727962732315, 0.9137365221977234, -0.5658568739891052, 0.49000027775764465, 
333, 2470954131, 78.28228759765625, -81.98655700683594, 131.73716735839844, 10.094805717468262, 2.1740849018096924, 0.33943840861320496, 0.307857483625412, 0.20253176987171173, 0.9461386203765869, 
334, 2470962464, 78.22200775146484, -81.98871612548828, 131.7935333251953, 9.459487915039062, 2.454301357269287, 0.6270055174827576, -0.5410110950469971, 0.6377432942390442, 1.968146800994873, 
335, 2470970797, 78.22566986083984, -81.99482727050781, 131.8077850341797, 9.273372650146484, 1.518125295639038, 0.7273404002189636, -0.6512547731399536, -0.5181118845939636, 2.1994686126708984, 
336, 2470979130, 78.23075103759766, -81.99837493896484, 131.79940795898438, 9.954940795898438, 0.2981605529785156, -0.16012999415397644, -0.37136802077293396, -0.455331414937973, 1.9028301239013672, 
337, 2470987463, 78.2585220336914, -81.99214935302734, 131.87594604492188, 10.255352973937988, 0.2823513150215149, -0.08997561037540436, 0.7140735983848572, -0.4260031580924988, 0.6911232471466064, 
338, 2470995796, 78.25709533691406, -81.98455047607422, 131.88169860839844, 10.405076026916504, 1.8903533220291138, 0.03524205833673477, 0.5082888603210449, 0.046489834785461426, 0.6502941250801086, 
339, 2471004129, 78.22227478027344, -81.98667907714844, 132.0546875, 9.70512866973877, 2.711805582046509, 0.6142683625221252, -0.1895069032907486, 0.28434357047080994, 1.8586968183517456, 
340, 2471012462, 78.18793487548828, -81.99417877197266, 132.0841064453125, 9.124515533447266, 1.8297208547592163, 1.0065534114837646, -0.6268187761306763, 0.0625755712389946, 2.505200147628784, 
341, 2471020795, 78.2102279663086, -82.00112915039062, 132.13873291015625, 9.722661018371582, 0.6135638952255249, -0.00527556799352169, -0.5522301197052002, -0.8346527218818665, 2.212660074234009, 
342, 2471029128, 78.20851135253906, -81.99800872802734, 132.1427764892578, 10.219438552856445, -0.07406053692102432, -0.1796293407678604, 0.2521209120750427, -0.09370967745780945, 1.1812772750854492, 
343, 2471037461, 78.24058532714844, -81.98933410644531, 132.1736602783203, 10.504608154296875, 1.461175560951233, -0.13259224593639374, 1.0821501016616821, -0.3848154544830322, 0.38539180159568787, 
344, 2471045794, 78.21271514892578, -81.98827362060547, 132.2046356201172, 9.885323524475098, 2.6066536903381348, 0.4489336609840393, 0.3264790177345276, 0.29715073108673096, 1.5101383924484253, 
345, 2471054127, 78.16773223876953, -81.99408721923828, 132.18316650390625, 9.121192932128906, 2.249777317047119, 1.1047080755233765, -0.7116787433624268, 0.28887736797332764, 2.302079439163208, 
346, 2471062460, 78.18240356445312, -82.00212860107422, 132.16259765625, 9.584981918334961, 0.9909157156944275, 0.35571983456611633, -0.6954905390739441, -0.7693620324134827, 2.4073028564453125, 
347, 2471070793, 78.1801528930664, -82.00470733642578, 132.165771484375, 10.185933113098145, 0.008984497748315334, -0.3888656198978424, 0.10614538192749023, -0.22995179891586304, 1.8101578950881958, 
348, 2471079126, 78.21998596191406, -81.99830627441406, 132.13412475585938, 10.398781776428223, 0.7691735625267029, -0.0030397234950214624, 1.0274895429611206, -0.5928542613983154, 0.6579016447067261, 
349, 2471087459, 78.20825958251953, -81.99398803710938, 132.189208984375, 10.109286308288574, 2.2773654460906982, 0.4057161509990692, 0.3247372806072235, 0.12643186748027802, 1.0456498861312866, 
350, 2471095792, 78.15824127197266, -81.99889373779297, 132.2357635498047, 9.407933235168457, 2.4827165603637695, 0.7172695398330688, -0.461222767829895, 0.4103400707244873, 2.253643035888672, 
351, 2471104125, 78.16826629638672, -82.00676727294922, 132.21136474609375, 9.342082023620605, 1.2959703207015991, 0.7463005185127258, -0.6353483200073242, -0.6653426289558411, 2.370239019393921, 
352, 2471112458, 78.17953491210938, -82.01099395751953, 132.1978302001953, 9.974859237670898, 0.26826193928718567, -0.1949821561574936, -0.2663239538669586, -0.5576602816581726, 1.976061224937439, 
353, 2471120791, 78.21910858154297, -82.00613403320312, 132.19964599609375, 10.310672760009766, 0.3000047504901886, -0.11719242483377457, 0.858102560043335, -0.634708046913147, 0.8043127059936523, 
354, 2471129124, 78.22074890136719, -81.99893951416016, 132.2019805908203, 10.328804016113281, 1.9451795816421509, 0.04562845453619957, 0.4806254804134369, -0.018173299729824066, 0.683746337890625, 
355, 2471137457, 78.1910400390625, -82.00212860107422, 132.3808135986328, 9.636260986328125, 2.6440696716308594, 0.6562246680259705, -0.21079233288764954, 0.16559603810310364, 1.970554232597351, 
356, 2471145790, 78.17755126953125, -82.01102447509766, 132.38916015625, 9.092673301696777, 1.7256144285202026, 0.9917337894439697, -0.6220801472663879, -0.313223659992218, 2.593672037124634, 
357, 2471154123, 78.19532775878906, -82.01777648925781, 132.5091552734375, 9.841316223144531, 0.4935338497161865, -0.06957072764635086, -0.39047619700431824, -0.7356792688369751, 2.228745937347412, 
358, 2471162456, 78.20355987548828, -82.01465606689453, 132.5036163330078, 10.220189094543457, -0.011373020708560944, -0.04828168824315071, 0.328809916973114, -0.24557647109031677, 1.1372464895248413, 
359, 2471170789, 78.23674774169922, -82.00718688964844, 132.52584838867188, 10.519084930419922, 1.5862144231796265, -0.1233007088303566, 1.0379657745361328, -0.44052645564079285, 0.5313161015510559, 
360, 2471179122, 78.2150650024414, -82.00645446777344, 132.54873657226562, 9.904255867004395, 2.593449115753174, 0.4637402594089508, 0.12845538556575775, 0.1609342247247696, 1.5091650485992432, 
361, 2471187455, 78.17649841308594, -82.01124572753906, 132.51499938964844, 9.088547706604004, 2.079618453979492, 1.0819294452667236, -0.755043625831604, 0.1994580775499344, 2.162379503250122, 
362, 2471195788, 78.2017822265625, -82.01751708984375, 132.48446655273438, 9.614572525024414, 0.8928959965705872, 0.21162456274032593, -0.5950827598571777, -0.8877254128456116, 2.160612106323242, 
363, 2471204121, 78.1964340209961, -82.01831817626953, 132.490966796875, 10.126973152160645, 0.01994212530553341, -0.3377643823623657, 0.11552020162343979, -0.13546088337898254, 1.620766282081604, 
364, 2471212454, 78.23883819580078, -82.01011657714844, 132.45704650878906, 10.423201560974121, 0.8840126991271973, -0.09240042418241501, 1.0653985738754272, -0.5842223167419434, 0.4404624104499817, 
365, 2471220787, 78.23200225830078, -82.006103515625, 132.42178344726562, 10.017477035522461, 2.2979865074157715, 0.4000587463378906, 0.29453805088996887, 0.03450237587094307, 1.0608134269714355, 
366, 2471229120, 78.18191528320312, -82.00935363769531, 132.46774291992188, 9.405267715454102, 2.3907108306884766, 0.7663591504096985, -0.5564565062522888, 0.4376704692840576, 2.064507246017456, 
367, 2471237453, 78.1957778930664, -82.01591491699219, 132.4877471923828, 9.395737648010254, 1.2564113140106201, 0.6832468509674072, -0.7469495534896851, -0.7110384106636047, 2.192962884902954, 
368, 2471245786, 78.18986511230469, -82.01933288574219, 132.49176025390625, 10.065054893493652, 0.2203293889760971, -0.27975183725357056, -0.22961881756782532, -0.2503151297569275, 1.9365131855010986, 
369, 2471254119, 78.22947692871094, -82.0121078491211, 132.47488403320312, 10.2305326461792, 0.4089924097061157, -0.09722144156694412, 0.9129425287246704, -0.5696733593940735, 0.5355679988861084, 
370, 2471262452, 78.22489166259766, -82.00436401367188, 132.48324584960938, 10.224030494689941, 2.028317451477051, 0.17626750469207764, 0.43101072311401367, 0.09192948788404465, 0.6442236304283142, 
371, 2471270785, 78.19796752929688, -82.00714111328125, 132.51239013671875, 9.642436981201172, 2.5884008407592773, 0.4993956983089447, -0.2542724907398224, 0.12352465093135834, 1.8974382877349854, 
372, 2471279118, 78.18267059326172, -82.0128402709961, 132.5217742919922, 9.141959190368652, 1.6608717441558838, 0.9227849245071411, -0.716955304145813, -0.21875837445259094, 2.221855640411377, 
373, 2471287451, 78.19847106933594, -82.0163803100586, 132.5030975341797, 9.847404479980469, 0.47063183784484863, -0.07167140394449234, -0.34526708722114563, -0.6143959164619446, 1.863486886024475, 
374, 2471295784, 78.21932983398438, -82.01176452636719, 132.4859619140625, 10.173746109008789, 0.07869558036327362, -0.07793737947940826, 0.46400186419487, -0.40105482935905457, 0.9233162999153137, 
375, 2471304117, 78.22864532470703, -82.00299072265625, 132.49148559570312, 10.519371032714844, 1.7071475982666016, -0.10224989056587219, 0.8489581346511841, -0.04173839092254639, 0.46069759130477905, 
376, 2471312450, 78.20538330078125, -82.00183868408203, 132.5157928466797, 9.782464027404785, 2.554187297821045, 0.45384788513183594, 0.09556670486927032, 0.1925421953201294, 1.473100185394287, 
377, 2471320783, 78.16888427734375, -82.00738525390625, 132.50953674316406, 9.087672233581543, 2.0180912017822266, 1.0111677646636963, -0.7176468372344971, 0.1506885439157486, 2.2493138313293457, 
378, 2471329116, 78.18170928955078, -82.0132827758789, 132.49143981933594, 9.609987258911133, 0.8676708340644836, 0.21179981529712677, -0.6091961860656738, -0.672565758228302, 2.1510064601898193, 
379, 2471337449, 78.18852996826172, -82.01239776611328, 132.53871154785156, 10.174596786499023, 0.09665636718273163, -0.20439249277114868, 0.16207405924797058, -0.2887492775917053, 1.378032922744751, 
380, 2471345782, 78.23104095458984, -82.00505828857422, 132.5052032470703, 10.498663902282715, 1.0769034624099731, -0.1678772270679474, 1.1039478778839111, -0.6036121845245361, 0.5576730966567993, 
381, 2471354115, 78.21949005126953, -82.00198364257812, 132.47412109375, 9.99425983428955, 2.4282472133636475, 0.3839932084083557, 0.27799129486083984, 0.08975227922201157, 1.1707497835159302, 
382, 2471362448, 78.1515121459961, -82.00591278076172, 132.53692626953125, 9.330098152160645, 2.328404188156128, 0.8976323008537292, -0.6996399164199829, 0.6964510083198547, 2.199622392654419, 
383, 2471370781, 78.16691589355469, -82.01362609863281, 132.59176635742188, 9.460339546203613, 1.2401372194290161, 0.4809574484825134, -0.5806106925010681, -0.7422365546226501, 2.334660768508911, 
384, 2471379114, 78.16390991210938, -82.01702117919922, 132.59425354003906, 10.09256649017334, 0.16927361488342285, -0.25900235772132874, -0.06545716524124146, -0.27600619196891785, 1.9317231178283691, 
385, 2471387447, 78.19435119628906, -82.01021575927734, 132.57289123535156, 10.29100227355957, 0.5865688920021057, 0.04800272732973099, 0.9224967956542969, -0.42682284116744995, 0.6198900938034058, 
386, 2471395780, 78.17837524414062, -82.00421142578125, 132.59307861328125, 10.273893356323242, 2.1185505390167236, 0.2337978184223175, 0.48216238617897034, 0.24443665146827698, 0.8864063024520874, 
387, 2471404113, 78.13521575927734, -82.00755310058594, 132.5630645751953, 9.603549003601074, 2.541933536529541, 0.6422669291496277, -0.29116979241371155, 0.3732762336730957, 2.0335395336151123, 
388, 2471412446, 78.12046813964844, -82.01360321044922, 132.5716094970703, 9.27527904510498, 1.5446645021438599, 0.8631916642189026, -0.7397263050079346, -0.2398645132780075, 2.2571520805358887, 
389, 2471420779, 78.13130187988281, -82.01795196533203, 132.43460083007812, 9.862523078918457, 0.413656085729599, -0.20674581825733185, -0.334329754114151, -0.554304838180542, 1.9696834087371826, 
390, 2471429112, 78.15450286865234, -82.01380157470703, 132.4166717529297, 10.218000411987305, 0.16359266638755798, -0.12445231527090073, 0.6519847512245178, -0.42510664463043213, 0.9774647355079651, 
391, 2471437445, 78.15693664550781, -82.0057144165039, 132.52642822265625, 10.436033248901367, 1.7643059492111206, -0.02080046758055687, 0.6841562390327454, 0.036935728043317795, 0.5612591505050659, 
392, 2471445778, 78.1194839477539, -82.00675201416016, 132.56356811523438, 9.753501892089844, 2.6831674575805664, 0.5176807045936584, -0.08464224636554718, 0.3456385135650635, 1.7719160318374634, 
393, 2471454111, 78.09317016601562, -82.01470947265625, 132.58639526367188, 9.092921257019043, 1.895658254623413, 1.0025819540023804, -0.7195678949356079, -0.07818745821714401, 2.5005385875701904, 
394, 2471462444, 78.10894775390625, -82.0207290649414, 132.56451416015625, 9.676445960998535, 0.6683558821678162, 0.10249815136194229, -0.7045323848724365, -0.7388042211532593, 2.155719757080078, 
395, 2471470777, 78.11212921142578, -82.01886749267578, 132.49371337890625, 10.160420417785645, -0.04949767142534256, -0.20729653537273407, 0.26888543367385864, -0.18698391318321228, 1.2797768115997314, 
396, 2471479110, 78.1502456665039, -82.01124572753906, 132.46531677246094, 10.461282730102539, 1.2627629041671753, -0.17308449745178223, 1.2012308835983276, -0.5095311403274536, 0.5304707884788513, 
397, 2471487443, 78.1317367553711, -82.00968933105469, 132.52735900878906, 9.969797134399414, 2.4849905967712402, 0.40982213616371155, 0.18193791806697845, 0.15365980565547943, 1.3883683681488037, 
398, 2471495776, 78.07917022705078, -82.01495361328125, 132.57366943359375, 9.174356460571289, 2.2749061584472656, 0.9871658682823181, -0.7943102121353149, 0.39340904355049133, 2.2946767807006836, 
399, 2471504109, 78.1080093383789, -82.02201843261719, 132.56541442871094, 9.498018264770508, 1.0496538877487183, 0.4065310060977936, -0.6108099222183228, -0.950736403465271, 2.20825457572937, 
400, 2471512442, 78.10900115966797, -82.0235366821289, 132.56358337402344, 10.028740882873535, 0.05446130409836769, -0.2145131528377533, -0.12042532116174698, -0.30530887842178345, 1.707368016242981, 
401, 2471520775, 78.1513442993164, -82.016845703125, 132.549560546875, 10.378338813781738, 0.703582227230072, -0.10068342089653015, 1.0206760168075562, -0.609234631061554, 0.59189373254776, 
402, 2471529108, 78.15345001220703, -82.01148986816406, 132.55001831054688, 10.223909378051758, 2.1876111030578613, 0.3146321177482605, 0.30680733919143677, -0.09463179111480713, 0.8939368724822998, 
403, 2471537441, 78.11719512939453, -82.01634979248047, 132.583251953125, 9.543886184692383, 2.472172260284424, 0.6736052632331848, -0.4000815749168396, 0.20683494210243225, 2.186072587966919, 
404, 2471545774, 78.1178970336914, -82.02235412597656, 132.5760498046875, 9.251195907592773, 1.359496831893921, 0.8487445712089539, -0.7871638536453247, -0.5027433633804321, 2.2097911834716797, 
405, 2471554107, 78.13787078857422, -82.0259017944336, 132.537841796875, 9.861105918884277, 0.3000989854335785, -0.19372957944869995, -0.25215935707092285, -0.6678271293640137, 1.8341329097747803, 
406, 2471562440, 78.17108917236328, -82.01959991455078, 132.51087951660156, 10.251797676086426, 0.2938745617866516, -0.02077900804579258, 0.7885085940361023, -0.518521785736084, 0.6897913217544556, 
407, 2471570773, 78.18226623535156, -82.01180267333984, 132.46153259277344, 10.367953300476074, 1.8905824422836304, 0.10965269058942795, 0.5169464349746704, -0.13868826627731323, 0.5599783658981323, 
408, 2471579106, 78.15850067138672, -82.01303100585938, 132.485595703125, 9.7986421585083, 2.6184520721435547, 0.5362971425056458, -0.0104378005489707, 0.1281736046075821, 1.7539089918136597, 
409, 2471587439, 78.14661407470703, -82.0203628540039, 132.64659118652344, 9.062548637390137, 1.8059215545654297, 1.035270094871521, -0.6677246689796448, -0.29432034492492676, 2.3781280517578125, 
410, 2471595772, 78.16228485107422, -82.0263442993164, 132.626953125, 9.727707862854004, 0.6347156763076782, 0.025207020342350006, -0.45348721742630005, -0.7008693814277649, 2.156923294067383, 
411, 2471604105, 78.17860412597656, -82.0230941772461, 132.7163543701172, 10.146036148071289, 0.030070552602410316, -0.21188867092132568, 0.22681404650211334, -0.37743857502937317, 1.0756953954696655, 
412, 2471612438, 78.21045684814453, -82.01505279541016, 132.69300842285156, 10.519936561584473, 1.3994823694229126, -0.17287705838680267, 1.0494152307510376, -0.41708940267562866, 0.4969673454761505, 
413, 2471620771, 78.20199584960938, -82.0129623413086, 132.67752075195312, 9.908656120300293, 2.496363878250122, 0.4508506953716278, 0.18380773067474365, 0.00040982774225994945, 1.2805068492889404, 
414, 2471629104, 78.155517578125, -82.01776123046875, 132.71800231933594, 9.0934419631958, 2.0825867652893066, 1.0287262201309204, -0.7779939770698547, 0.30793434381484985, 2.2300779819488525, 
415, 2471637437, 78.18762969970703, -82.02449798583984, 132.59324645996094, 9.55151653289795, 1.0701632499694824, 0.35908323526382446, -0.3528745174407959, -0.9623141288757324, 2.1723179817199707, 
416, 2471645770, 78.18975067138672, -82.02479553222656, 132.5907745361328, 10.101983070373535, 0.061349935829639435, -0.2825801968574524, -0.032235510647296906, -0.28123146295547485, 1.5449481010437012, 
417, 2471654103, 78.24309539794922, -82.01748657226562, 132.5315704345703, 10.4392671585083, 0.8251519799232483, -0.1229788288474083, 1.0784361362457275, -0.7721539735794067, 0.49701863527297974, 
418, 2471662436, 78.22734832763672, -82.01264190673828, 132.55014038085938, 10.092540740966797, 2.314438581466675, 0.346726655960083, 0.3158235251903534, 0.18990394473075867, 1.0147334337234497, 
419, 2471670769, 78.17656707763672, -82.0167465209961, 132.55889892578125, 9.43474292755127, 2.4887003898620605, 0.7254869937896729, -0.47523367404937744, 0.455011248588562, 2.143937110900879, 
420, 2471679102, 78.18523406982422, -82.02447509765625, 132.5450439453125, 9.295367240905762, 1.3883994817733765, 0.7100400328636169, -0.6008203029632568, -0.6486164927482605, 2.380049228668213, 
421, 2471687435, 78.19535827636719, -82.02819061279297, 132.5333251953125, 9.97720718383789, 0.2297501564025879, -0.19298206269741058, -0.18912267684936523, -0.5049205422401428, 1.9082860946655273, 
422, 2471695768, 78.23285675048828, -82.02186584472656, 132.50389099121094, 10.254895210266113, 0.3032805323600769, -0.10700652748346329, 0.9878129363059998, -0.5596069693565369, 0.6846941113471985, 
423, 2471704101, 78.2413101196289, -82.01573944091797, 132.42706298828125, 10.408817291259766, 1.9667314291000366, 0.06207237020134926, 0.46195268630981445, -0.14122407138347626, 0.7497029900550842, 
424, 2471712434, 78.2060775756836, -82.01760864257812, 132.46096801757812, 9.818442344665527, 2.664576530456543, 0.5598023533821106, -0.19649960100650787, 0.27535301446914673, 1.8565196990966797, 
425, 2471720767, 78.19125366210938, -82.02491760253906, 132.4662628173828, 9.191274642944336, 1.7436294555664062, 0.9327591061592102, -0.827045202255249, -0.26698997616767883, 2.386888027191162, 
426, 2471729100, 78.20954132080078, -82.02993774414062, 132.4442901611328, 9.702990531921387, 0.4573269486427307, -0.09619411081075668, -0.42920491099357605, -0.7162123918533325, 2.0438878536224365, 
427, 2471737433, 78.22512817382812, -82.02698516845703, 132.5376434326172, 10.071646690368652, 0.05352472513914108, -0.08976102620363235, 0.4890269339084625, -0.33783891797065735, 1.1286143064498901, 
428, 2471745766, 78.25, -82.01994323730469, 132.52069091796875, 10.58263111114502, 1.6248536109924316, -0.1193089634180069, 0.999851644039154, -0.33407363295555115, 0.6234760284423828, 
429, 2471754099, 78.2292709350586, -82.0198745727539, 132.51136779785156, 9.94902515411377, 2.6334335803985596, 0.417540043592453, 0.17837752401828766, 0.15312188863754272, 1.577298879623413, 
430, 2471762432, 78.18302154541016, -82.02513885498047, 132.55152893066406, 9.224820137023926, 2.003366231918335, 1.038771152496338, -0.7547106146812439, 0.2966640591621399, 2.2687039375305176, 
431, 2471770765, 78.20372009277344, -82.03235626220703, 132.3994140625, 9.594524383544922, 0.831624448299408, 0.26017898321151733, -0.6450048685073853, -0.8266354203224182, 2.2702150344848633, 
432, 2471779098, 78.2003173828125, -82.03131866455078, 132.4040985107422, 10.12632942199707, 0.032523978501558304, -0.3193315267562866, 0.1478581577539444, -0.12848100066184998, 1.4118950366973877, 
433, 2471787431, 78.2391128540039, -82.0237808227539, 132.29400634765625, 10.438551902770996, 1.0807445049285889, -0.12759241461753845, 1.0827393531799316, -0.5252583026885986, 0.5158963203430176, 
434, 2471795764, 78.22515869140625, -82.02006530761719, 132.31007385253906, 10.075580596923828, 2.356611490249634, 0.3415911793708801, 0.22891440987586975, 0.11869634687900543, 1.145263671875, 
435, 2471804097, 78.17337799072266, -82.02449798583984, 132.4192657470703, 9.340871810913086, 2.3690764904022217, 0.8161207437515259, -0.6432374715805054, 0.44123077392578125, 2.178797960281372, 
436, 2471812430, 78.18073272705078, -82.03117370605469, 132.40650939941406, 9.383009910583496, 1.18377685546875, 0.5904751420021057, -0.6407272219657898, -0.6078130006790161, 2.2661428451538086, 
437, 2471820763, 78.18655395507812, -82.03358459472656, 132.5476837158203, 10.00001335144043, 0.16792288422584534, -0.24297989904880524, -0.16216371953487396, -0.3958936035633087, 1.7735167741775513, 
438, 2471829096, 78.22268676757812, -82.02703857421875, 132.51791381835938, 10.23720645904541, 0.5422852635383606, -0.1407318115234375, 0.817042887210846, -0.5548171401023865, 0.6398435831069946, 
439, 2471837429, 78.217529296875, -82.02049255371094, 132.43881225585938, 10.352838516235352, 2.000471353530884, 0.19010110199451447, 0.37458255887031555, 0.07960903644561768, 0.7554405927658081, 
440, 2471845762, 78.17557525634766, -82.02388763427734, 132.47828674316406, 9.646225929260254, 2.494734048843384, 0.6399068832397461, -0.3493397533893585, 0.3281695544719696, 2.0560545921325684, 
441, 2471854095, 78.16927337646484, -82.03045654296875, 132.5345916748047, 9.207627296447754, 1.5619113445281982, 0.822822093963623, -0.709219753742218, -0.37229010462760925, 2.2797694206237793, 
442, 2471862428, 78.17669677734375, -82.034423828125, 132.52410888671875, 9.72756290435791, 0.44929543137550354, -0.06778550893068314, -0.3541296124458313, -0.5026153922080994, 1.9517537355422974, 
443, 2471870761, 78.20082092285156, -82.02912139892578, 132.51625061035156, 10.19250774383545, 0.15840685367584229, -0.03944077715277672, 0.5677907466888428, -0.4066388010978699, 0.8164794445037842, 
444, 2471879094, 78.21451568603516, -82.02088165283203, 132.50843811035156, 10.472441673278809, 1.7373683452606201, -0.08709301799535751, 0.7101801633834839, -0.158974751830101, 0.5319564342498779, 
445, 2471887427, 78.18439483642578, -82.02110290527344, 132.56369018554688, 9.892374992370605, 2.6319315433502197, 0.5091894268989563, -0.11074315756559372, 0.25844764709472656, 1.6219701766967773, 
446, 2471895760, 78.14550018310547, -82.02700805664062, 132.59764099121094, 9.117311477661133, 1.8671492338180542, 1.008158564567566, -0.6445053815841675, 0.17480435967445374, 2.335775136947632, 
447, 2471904093, 78.165771484375, -82.03255462646484, 132.57691955566406, 9.570185661315918, 0.7521318793296814, 0.1639280915260315, -0.585041880607605, -0.7702840566635132, 2.0689642429351807, 
448, 2471912426, 78.16847229003906, -82.03042602539062, 132.57620239257812, 10.066790580749512, -0.04551352933049202, -0.1881842464208603, 0.2273007184267044, -0.19409185647964478, 1.2779710292816162, 
449, 2471920759, 78.21341705322266, -82.02247619628906, 132.58251953125, 10.406907081604004, 1.248779058456421, -0.08184998482465744, 1.1327382326126099, -0.607326328754425, 0.43329036235809326, 
450, 2471929092, 78.19745635986328, -82.01888275146484, 132.6007843017578, 9.993873596191406, 2.447795867919922, 0.39658936858177185, 0.24525630474090576, 0.14999696612358093, 1.1693923473358154, 
451, 2471937425, 78.13956451416016, -82.0228271484375, 132.65243530273438, 9.2005615234375, 2.282287836074829, 0.9942553043365479, -0.8085773587226868, 0.527397096157074, 2.143937349319458, 
452, 2471945758, 78.15811920166016, -82.02976989746094, 132.6280975341797, 9.486024856567383, 1.0719777345657349, 0.5092169046401978, -0.6580681204795837, -0.7974608540534973, 2.248699426651001, 
453, 2471954091, 78.16065216064453, -82.03267669677734, 132.6044158935547, 10.008503913879395, 0.1284617781639099, -0.2788791358470917, -0.12132182717323303, -0.3503386974334717, 1.8432514667510986, 
454, 2471962424, 78.19720458984375, -82.02442932128906, 132.57635498046875, 10.345843315124512, 0.6073693633079529, -0.09379523247480392, 1.0686002969741821, -0.48563313484191895, 0.4519120156764984, 
455, 2471970757, 78.19072723388672, -82.01844024658203, 132.5605926513672, 10.168596267700195, 2.1422693729400635, 0.28411784768104553, 0.3850075602531433, 0.08913753181695938, 0.8379440307617188, 
456, 2471979090, 78.14130401611328, -82.0209732055664, 132.6082000732422, 9.607949256896973, 2.5622050762176514, 0.5742745995521545, -0.2654787600040436, 0.4833405911922455, 1.9800314903259277, 
457, 2471987423, 78.1363296508789, -82.02774810791016, 132.5973663330078, 9.22513484954834, 1.6084792613983154, 0.963844358921051, -0.6665976643562317, -0.39490747451782227, 2.29162859916687, 
458, 2471995756, 78.14728546142578, -82.03279876708984, 132.5837860107422, 9.841337203979492, 0.48726415634155273, -0.09052982926368713, -0.2974325120449066, -0.5797781944274902, 2.0726141929626465, 
459, 2472004089, 78.16971588134766, -82.02836608886719, 132.7117919921875, 10.221198081970215, 0.2140774428844452, -0.07742952555418015, 0.5487593412399292, -0.40251490473747253, 0.9254679083824158, 
460, 2472012422, 78.17467498779297, -82.02033996582031, 132.71165466308594, 10.457056045532227, 1.7446928024291992, 0.0012231360888108611, 0.5762178301811218, -0.03917697072029114, 0.5835690498352051, 
461, 2472020755, 78.14249420166016, -82.02136993408203, 132.63433837890625, 9.869975090026855, 2.6096184253692627, 0.4722203016281128, -0.04473526030778885, 0.2814748287200928, 1.7367987632751465, 
462, 2472029088, 78.11165618896484, -82.02806854248047, 132.65953063964844, 9.07958698272705, 1.9332396984100342, 0.9682621359825134, -0.7017148733139038, 0.011628864333033562, 2.3948287963867188, 
463, 2472037421, 78.13331604003906, -82.0345687866211, 132.5452880859375, 9.661386489868164, 0.7164021730422974, 0.1440112143754959, -0.5525630712509155, -0.8122402429580688, 2.1822562217712402, 
464, 2472045754, 78.13389587402344, -82.03350830078125, 132.54579162597656, 10.070488929748535, 0.020314084365963936, -0.22494982182979584, 0.13406489789485931, -0.20005998015403748, 1.4007912874221802, 
465, 2472054087, 78.18207550048828, -82.0265884399414, 132.57835388183594, 10.521788597106934, 1.2083154916763306, -0.15471599996089935, 1.12449049949646, -0.684322714805603, 0.5469407439231873, 
466, 2472062420, 78.16584014892578, -82.02503967285156, 132.59548950195312, 10.032384872436523, 2.5256903171539307, 0.40818414092063904, 0.08534663915634155, 0.0842452198266983, 1.4003815650939941, 
467, 2472070753, 78.1163101196289, -82.03065490722656, 132.88247680664062, 9.339483261108398, 2.2261500358581543, 0.9439876079559326, -0.8253034353256226, 0.34781569242477417, 2.302873373031616, 
468, 2472079086, 78.142333984375, -82.03784942626953, 132.85047912597656, 9.513044357299805, 1.0854969024658203, 0.38139837980270386, -0.6952087879180908, -0.9344456791877747, 2.266578197479248, 
469, 2472087419, 78.15511322021484, -82.03948211669922, 132.83688354492188, 9.997448921203613, 0.007841368205845356, -0.3692646622657776, -0.10405784100294113, -0.48296919465065, 1.6632347106933594, 
470, 2472095752, 78.20103454589844, -82.03141784667969, 132.7996063232422, 10.265731811523438, 0.6549000144004822, -0.014169781468808651, 1.0942656993865967, -0.6403431296348572, 0.4406929016113281, 
471, 2472104085, 78.20061492919922, -82.026123046875, 132.85830688476562, 10.243829727172852, 2.2562928199768066, 0.2791251838207245, 0.316438227891922, -0.03702537715435028, 0.8874563574790955, 
472, 2472112418, 78.15843200683594, -82.03022766113281, 132.89834594726562, 9.635024070739746, 2.5860323905944824, 0.5929376482963562, -0.2984442412853241, 0.3202291429042816, 2.1385321617126465, 
473, 2472120751, 78.1547622680664, -82.03767395019531, 132.88009643554688, 9.322620391845703, 1.4228581190109253, 0.8768342137336731, -0.8677974343299866, -0.4600445032119751, 2.3700850009918213, 
474, 2472129084, 78.16918182373047, -82.04228973388672, 132.86312866210938, 9.897148132324219, 0.27827975153923035, -0.19864298403263092, -0.29745811223983765, -0.6248080134391785, 2.0125744342803955, 
475, 2472137417, 78.20824432373047, -82.03787231445312, 132.904541015625, 10.196063041687012, 0.179035484790802, -0.09354464709758759, 0.7499463558197021, -0.6481426358222961, 0.8657739162445068, 
476, 2472145750, 78.21033477783203, -82.02873229980469, 132.90786743164062, 10.468994140625, 1.764677882194519, 0.02745976485311985, 0.6429685354232788, 0.044184550642967224, 0.46307969093322754, 
477, 2472154083, 78.18373107910156, -82.0288314819336, 133.0397491455078, 9.78732967376709, 2.6303582191467285, 0.589587390422821, -0.08077447861433029, 0.20752649009227753, 1.6085225343704224, 
478, 2472162416, 78.15592956542969, -82.03540802001953, 133.06289672851562, 9.150313377380371, 1.8561592102050781, 0.9538084864616394, -0.5822499990463257, -0.018045229837298393, 2.3755664825439453, 
479, 2472170749, 78.17095184326172, -82.0396499633789, 133.2306671142578, 9.680952072143555, 0.7062517404556274, 0.1086806207895279, -0.5854005217552185, -0.6516132950782776, 1.9340282678604126, 
480, 2472179082, 78.17050170898438, -82.03649139404297, 133.23304748535156, 10.096616744995117, 0.07207919657230377, -0.1472412794828415, 0.23990292847156525, -0.11412421613931656, 1.1525636911392212, 
481, 2472187415, 78.20364379882812, -82.02745056152344, 133.20675659179688, 10.423730850219727, 1.3865070343017578, -0.2243274599313736, 1.1410117149353027, -0.38663408160209656, 0.37176501750946045, 
482, 2472195748, 78.18478393554688, -82.02528381347656, 133.2271728515625, 9.969124794006348, 2.4774014949798584, 0.39931461215019226, 0.16295774281024933, 0.15222540497779846, 1.340392827987671, 
483, 2472204081, 78.12435913085938, -82.02998352050781, 133.23272705078125, 9.159069061279297, 2.1281957626342773, 1.0273737907409668, -0.7988439798355103, 0.5543689131736755, 2.231614828109741, 
484, 2472212414, 78.13856506347656, -82.03706359863281, 133.21417236328125, 9.524839401245117, 1.0741523504257202, 0.365925669670105, -0.5172411203384399, -0.7138047218322754, 2.3007731437683105, 
485, 2472220747, 78.13923645019531, -82.03762817382812, 133.067626953125, 10.030603408813477, 0.07172870635986328, -0.22710992395877838, -0.022783862426877022, -0.24608878791332245, 1.5699220895767212, 
486, 2472229080, 78.182373046875, -82.02880859375, 133.0325164794922, 10.340936660766602, 0.8304312825202942, -0.04043528065085411, 1.0044108629226685, -0.5873216390609741, 0.3682814836502075, 
487, 2472237413, 78.1684799194336, -82.02371215820312, 133.0490264892578, 10.148425102233887, 2.209320068359375, 0.3552459478378296, 0.2929244041442871, 0.17620033025741577, 0.9597142934799194, 
488, 2472245746, 78.1159439086914, -82.02720642089844, 133.0986328125, 9.501593589782715, 2.5112991333007812, 0.6555858850479126, -0.4098149240016937, 0.4897441565990448, 2.094834327697754, 
489, 2472254079, 78.11404418945312, -82.0341796875, 133.03558349609375, 9.328158378601074, 1.4116605520248413, 0.8185694217681885, -0.7716671824455261, -0.4658844769001007, 2.313656806945801, 
490, 2472262412, 78.1201400756836, -82.03787231445312, 133.0269317626953, 9.867365837097168, 0.3268064558506012, -0.22432057559490204, -0.30720430612564087, -0.4651417136192322, 1.925114631652832, 
491, 2472270745, 78.15160369873047, -82.0323257446289, 132.97500610351562, 10.254837989807129, 0.22494260966777802, -0.1128074899315834, 0.748422384262085, -0.49787673354148865, 0.7680941224098206, 
492, 2472279078, 78.14295959472656, -82.02381134033203, 132.98878479003906, 10.317281723022461, 1.8624860048294067, 0.09556862711906433, 0.6034969687461853, 0.2013278752565384, 0.5690714120864868, 
493, 2472287411, 78.10094451904297, -82.02462005615234, 133.06509399414062, 9.794812202453613, 2.615239381790161, 0.5415078401565552, -0.08971386402845383, 0.44258832931518555, 1.748734951019287, 
494, 2472295744, 78.07398223876953, -82.03199005126953, 133.08758544921875, 9.157363891601562, 1.8483662605285645, 1.022765874862671, -0.5537413954734802, -0.04691247269511223, 2.4609134197235107, 
495, 2472304077, 78.08341979980469, -82.03866577148438, 133.17538452148438, 9.816498756408691, 0.6589871048927307, 0.04612084850668907, -0.51606285572052, -0.6109635829925537, 2.2444729804992676, 
496, 2472312410, 78.08302307128906, -82.0351333618164, 133.1775665283203, 10.174010276794434, 0.001316123059950769, -0.13616152107715607, 0.213904470205307, -0.11184455454349518, 1.1180356740951538, 
497, 2472320743, 78.10079193115234, -82.02749633789062, 133.19944763183594, 10.515401840209961, 1.431498408317566, -0.17758363485336304, 0.9507492184638977, -0.19019852578639984, 0.5741686820983887, 
498, 2472329076, 78.08834838867188, -82.02562713623047, 133.21417236328125, 9.917375564575195, 2.5158984661102295, 0.39781954884529114, 0.2509426474571228, 0.0512796975672245, 1.3549928665161133, 
499, 2472337409, 78.02742767333984, -82.03018188476562, 133.26864624023438, 9.120218276977539, 2.1785855293273926, 1.0265998840332031, -0.8407232761383057, 0.558851420879364, 2.228233575820923, 
500, 2472345742, 78.04571533203125, -82.03730773925781, 133.24575805664062, 9.59195327758789, 0.9903430938720703, 0.3030746877193451, -0.5202635526657104, -0.7819898128509521, 2.280205011367798, 
501, 2472354075, 78.03902435302734, -82.03787231445312, 133.24856567382812, 10.130521774291992, 0.051092758774757385, -0.3046395778656006, -0.018352597951889038, -0.12593238055706024, 1.5876213312149048, 
502, 2472362408, 78.07804107666016, -82.02976989746094, 133.2177734375, 10.414324760437012, 0.7559977769851685, -0.09938125312328339, 1.006280779838562, -0.5358626246452332, 0.47826895117759705, 
503, 2472370741, 78.06558227539062, -82.02491760253906, 133.2576141357422, 10.063600540161133, 2.2830448150634766, 0.3991856276988983, 0.31894850730895996, 0.14940784871578217, 0.9818193316459656, 
504, 2472379074, 78.00585174560547, -82.02814483642578, 133.3135986328125, 9.386812210083008, 2.4669137001037598, 0.6969988942146301, -0.5229274034500122, 0.5988608002662659, 2.098907232284546, 
505, 2472387407, 78.0085220336914, -82.03508758544922, 133.32606506347656, 9.270086288452148, 1.3775519132614136, 0.7258996963500977, -0.7582454085350037, -0.5386033654212952, 2.294267177581787, 
506, 2472395740, 78.01177215576172, -82.03873443603516, 133.32008361816406, 9.977643966674805, 0.2228543609380722, -0.1878974437713623, -0.3219837248325348, -0.42198169231414795, 1.934643030166626, 
507, 2472404073, 78.05037689208984, -82.03211212158203, 133.2372283935547, 10.227449417114258, 0.30390283465385437, -0.1118418499827385, 0.9841885566711426, -0.5536516904830933, 0.6191601157188416, 
508, 2472412406, 78.04409790039062, -82.0257797241211, 133.24757385253906, 10.339627265930176, 1.953098177909851, 0.05793773755431175, 0.47889652848243713, 0.0938633605837822, 0.8158517479896545, 
509, 2472420739, 78.0193862915039, -82.02690887451172, 133.30337524414062, 9.668603897094727, 2.688075065612793, 0.6468186378479004, -0.18829022347927094, 0.1362549066543579, 1.7074832916259766, 
510, 2472429072, 77.99788665771484, -82.03402709960938, 133.31887817382812, 9.150347709655762, 1.7708399295806885, 0.9772118926048279, -0.7461041808128357, -0.16030669212341309, 2.420417070388794, 
511, 2472437405, 78.02518463134766, -82.0395278930664, 133.41957092285156, 9.764497756958008, 0.5394543409347534, -0.017778925597667694, -0.4418071210384369, -0.8659532070159912, 2.0484728813171387, 
512, 2472445738, 78.03218078613281, -82.03739929199219, 133.41506958007812, 10.172465324401855, 0.004706570878624916, -0.11330103129148483, 0.308613121509552, -0.25465673208236694, 1.2578253746032715, 
513, 2472454071, 78.0602798461914, -82.03001403808594, 133.4215850830078, 10.530158042907715, 1.5189491510391235, -0.10959585756063461, 1.0222128629684448, -0.35638365149497986, 0.5717865824699402, 
514, 2472462404, 78.03939819335938, -82.02828979492188, 133.44444274902344, 9.863512992858887, 2.613398551940918, 0.491335928440094, 0.2067837417125702, 0.1826038956642151, 1.4032248258590698, 
515, 2472470737, 78.00346374511719, -82.0342025756836, 133.4410858154297, 9.146800994873047, 2.142119884490967, 1.0916948318481445, -0.7221293449401855, 0.12848101556301117, 2.295496702194214, 
516, 2472479070, 78.02424621582031, -82.04105377197266, 133.4159698486328, 9.629100799560547, 0.9569472670555115, 0.2896018922328949, -0.48716992139816284, -0.8122402429580688, 2.238325357437134, 
517, 2472487403, 78.03273010253906, -82.04122924804688, 133.4078826904297, 10.17780876159668, 0.024698765948414803, -0.34561821818351746, 0.03844696655869484, -0.3590475618839264, 1.513724446296692, 
518, 2472495736, 78.07656860351562, -82.03366088867188, 133.37295532226562, 10.400627136230469, 0.9026816487312317, -0.1130506843328476, 1.108174204826355, -0.6135505437850952, 0.5093134641647339, 
519, 2472504069, 78.06940460205078, -82.0286636352539, 133.35865783691406, 10.074122428894043, 2.3505747318267822, 0.3952086865901947, 0.2640315294265747, 0.05929695442318916, 0.9504673480987549, 
520, 2472512402, 78.02375793457031, -82.03260040283203, 133.39923095703125, 9.340697288513184, 2.4898264408111572, 0.8175228238105774, -0.6556860208511353, 0.330269992351532, 2.1264169216156006, 
521, 2472520735, 78.0313949584961, -82.03961944580078, 133.3661346435547, 9.390205383300781, 1.2827682495117188, 0.7515089511871338, -0.6545845866203308, -0.6095035672187805, 2.2805378437042236, 
522, 2472529068, 78.03791046142578, -82.04381561279297, 133.3570098876953, 9.997882843017578, 0.23908878862857819, -0.27676331996917725, -0.32131779193878174, -0.4884762465953827, 1.9944779872894287, 
523, 2472537401, 78.07170104980469, -82.03790283203125, 133.33132934570312, 10.251934051513672, 0.3416483998298645, -0.15458008646965027, 0.9333058595657349, -0.4958275556564331, 0.7104363441467285, 
524, 2472545734, 78.06981658935547, -82.03013610839844, 133.33729553222656, 10.248987197875977, 1.9124270677566528, 0.1724550426006317, 0.4713275134563446, 0.05327760800719261, 0.6402022242546082, 
525, 2472554067, 78.03227996826172, -82.03179168701172, 133.42083740234375, 9.696419715881348, 2.647287368774414, 0.5044987201690674, -0.10491590201854706, 0.34475478529930115, 1.8367326259613037, 
526, 2472562400, 78.01388549804688, -82.0394058227539, 133.4337921142578, 9.107563972473145, 1.8436797857284546, 0.9327360391616821, -0.6469259858131409, -0.20838461816310883, 2.448976993560791, 
527, 2472570733, 78.02220153808594, -82.04554748535156, 133.4210968017578, 9.750240325927734, 0.5870003700256348, 0.044042542576789856, -0.5170873403549194, -0.5795348286628723, 2.1919381618499756, 
528, 2472579066, 78.03677368164062, -82.04327392578125, 133.40914916992188, 10.186577796936035, 0.04514874517917633, -0.14685501158237457, 0.32727307081222534, -0.37049704790115356, 1.2123985290527344, 
529, 2472587399, 78.06282043457031, -82.0347671508789, 133.40057373046875, 10.491969108581543, 1.4878342151641846, -0.1681704968214035, 1.0194721221923828, -0.2981368899345398, 0.45506247878074646, 
530, 2472595732, 78.04510498046875, -82.03412628173828, 133.4200897216797, 9.898354530334473, 2.50049090385437, 0.4467307925224304, 0.18309055268764496, 0.10051025450229645, 1.5163370370864868, 
531, 2472604065, 78.0039291381836, -82.03897857666016, 133.46978759765625, 9.129165649414062, 2.0525717735290527, 1.041182041168213, -0.7557864189147949, 0.23583026230335236, 2.195037364959717, 
532, 2472612398, 78.01447296142578, -82.04584503173828, 133.45399475097656, 9.614189147949219, 0.9641518592834473, 0.210189551115036, -0.6029719114303589, -0.6611930727958679, 2.270906686782837, 
533, 2472620731, 78.01580047607422, -82.04596710205078, 133.45211791992188, 10.122903823852539, 0.06019117310643196, -0.30122053623199463, -0.060616087168455124, -0.25131407380104065, 1.5146722793579102, 
534, 2472629064, 78.0632553100586, -82.03836822509766, 133.41354370117188, 10.413080215454102, 0.8619533181190491, -0.07911044359207153, 1.1080204248428345, -0.6726425886154175, 0.5006814002990723, 
535, 2472637397, 78.05661010742188, -82.03375244140625, 133.36026000976562, 10.034073829650879, 2.285076141357422, 0.3697015941143036, 0.31861546635627747, 0.051458995789289474, 1.0082018375396729, 
536, 2472645730, 78.00437927246094, -82.03822326660156, 133.40847778320312, 9.414937973022461, 2.4054114818573, 0.7690265774726868, -0.5226712822914124, 0.44363853335380554, 2.2040536403656006, 
537, 2472654063, 78.0162353515625, -82.04572296142578, 133.3887481689453, 9.370932579040527, 1.362518310546875, 0.7923715114593506, -0.600922703742981, -0.6836567521095276, 2.3380675315856934, 
538, 2472662396, 78.02163696289062, -82.0491714477539, 133.38150024414062, 10.076892852783203, 0.23385250568389893, -0.3186147212982178, -0.20807723701000214, -0.43632566928863525, 1.90042245388031, 
539, 2472670729, 78.05351257324219, -82.04255676269531, 133.2910614013672, 10.26693344116211, 0.30998989939689636, -0.11050426959991455, 0.9443967938423157, -0.44677630066871643, 0.647143542766571, 
540, 2472679062, 78.04631805419922, -82.0346908569336, 133.30213928222656, 10.299335479736328, 1.8622498512268066, 0.18417854607105255, 0.45110511779785156, 0.14171075820922852, 0.6420080065727234, 
541, 2472687395, 78.00899505615234, -82.03557586669922, 133.34568786621094, 9.640804290771484, 2.694512128829956, 0.5420444011688232, -0.15086783468723297, 0.3538990616798401, 1.7348392009735107, 
542, 2472695728, 77.99203491210938, -82.04246520996094, 133.35755920410156, 9.170906066894531, 1.8344348669052124, 0.9945561289787292, -0.6248336434364319, -0.21198342740535736, 2.3694064617156982, 
543, 2472704061, 78.0061264038086, -82.04712677001953, 133.3385009765625, 9.805266380310059, 0.5889036655426025, 0.1091022863984108, -0.5646529793739319, -0.6454659104347229, 1.9931461811065674, 
544, 2472712394, 78.01911926269531, -82.04376983642578, 133.327880859375, 10.234858512878418, -0.0036980812437832355, -0.20904876291751862, 0.291951060295105, -0.3219837546348572, 1.0907566547393799, 
545, 2472720727, 78.04151916503906, -82.03556060791016, 133.3214569091797, 10.456498146057129, 1.3963923454284668, -0.15417952835559845, 1.0497992038726807, -0.23794341087341309, 0.5025513172149658, 
546, 2472729060, 78.02220153808594, -82.0346908569336, 133.34271240234375, 9.833964347839355, 2.53200626373291, 0.4172181785106659, 0.2173367738723755, 0.13621650636196136, 1.491798758506775, 
547, 2472737393, 77.96898651123047, -82.03994750976562, 133.42636108398438, 9.081707954406738, 2.1624999046325684, 1.1136338710784912, -0.7162380218505859, 0.42793700098991394, 2.298570156097412, 
548, 2472745726, 77.98942565917969, -82.04707336425781, 133.4002227783203, 9.63119888305664, 1.0376262664794922, 0.3346601724624634, -0.6314293146133423, -0.8321424722671509, 2.259995222091675, 
549, 2472754059, 77.98655700683594, -82.04821014404297, 133.3601837158203, 10.203180313110352, 0.0014877913054078817, -0.3024579584598541, -0.08215765655040741, -0.21207305788993835, 1.6547051668167114, 
550, 2472762392, 78.0239028930664, -82.04046630859375, 133.33145141601562, 10.384984016418457, 0.8472614288330078, -0.07056279480457306, 1.0587133169174194, -0.5092493891716003, 0.5217875838279724, 
551, 2472770725, 78.01614379882812, -82.03562927246094, 133.31639099121094, 10.059679985046387, 2.2092700004577637, 0.3287231922149658, 0.3977890610694885, 0.08509048074483871, 0.9668348431587219, 
552, 2472779058, 77.96660614013672, -82.0390853881836, 133.36322021484375, 9.430214881896973, 2.533021926879883, 0.6592023968696594, -0.3771183490753174, 0.4429853558540344, 2.08972430229187, 
553, 2472787391, 77.95693969726562, -82.04727172851562, 133.30996704101562, 9.372628211975098, 1.360227346420288, 0.7879512906074524, -0.8161336183547974, -0.377233624458313, 2.490190267562866, 
554, 2472795724, 77.96441650390625, -82.05176544189453, 133.30081176757812, 9.980355262756348, 0.31339746713638306, -0.2279312014579773, -0.18894340097904205, -0.49188295006752014, 2.018862724304199, 
555, 2472804057, 77.99768829345703, -82.0460433959961, 133.25619506835938, 10.262777328491211, 0.2252787947654724, -0.09398835897445679, 0.766224205493927, -0.5168311595916748, 0.7407124042510986, 
556, 2472812390, 77.99842834472656, -82.0370101928711, 133.26031494140625, 10.288843154907227, 1.827079176902771, 0.1404464840888977, 0.5595173239707947, 0.05491692200303078, 0.48684975504875183, 
557, 2472820723, 77.9708480834961, -82.03925323486328, 133.19754028320312, 9.76366901397705, 2.6547341346740723, 0.5495600700378418, -0.05216338485479355, 0.17348520457744598, 1.8619242906570435, 
558, 2472829056, 77.94208526611328, -82.04584503173828, 133.22122192382812, 9.148228645324707, 1.9020323753356934, 1.0083038806915283, -0.6349128484725952, -0.011590441688895226, 2.372749090194702, 
559, 2472837389, 77.95846557617188, -82.05200958251953, 133.1706085205078, 9.82262897491455, 0.6551854610443115, 0.045367561280727386, -0.5527679920196533, -0.7187739014625549, 2.169551372528076, 
560, 2472845722, 77.97057342529297, -82.04934692382812, 133.159912109375, 10.155082702636719, 0.006201476324349642, -0.23440566658973694, 0.18437127768993378, -0.33976003527641296, 1.1677017211914062, 
561, 2472854055, 78.00039672851562, -82.04113006591797, 133.0277099609375, 10.4373779296875, 1.357430338859558, -0.1592433601617813, 1.0913712978363037, -0.35395029187202454, 0.4727874994277954, 
562, 2472862388, 77.9952163696289, -82.0394058227539, 133.0345001220703, 9.860331535339355, 2.5350894927978516, 0.4003230631351471, 0.19489870965480804, -0.07644567638635635, 1.3404184579849243, 
563, 2472870721, 77.93515014648438, -82.0441665649414, 133.1844482421875, 9.131780624389648, 2.1646649837493896, 1.0344836711883545, -0.770719587802887, 0.5436621308326721, 2.2566654682159424, 
564, 2472879054, 77.95098114013672, -82.05084991455078, 133.16387939453125, 9.596776962280273, 1.0221517086029053, 0.36051204800605774, -0.5486953854560852, -0.7351414561271667, 2.2344067096710205, 
565, 2472887387, 77.94607543945312, -82.05147552490234, 133.16888427734375, 10.147037506103516, 0.06473322957754135, -0.32416683435440063, 0.0009477267158217728, -0.15485085546970367, 1.604731798171997, 
566, 2472895720, 77.99112701416016, -82.04352569580078, 133.13229370117188, 10.31805419921875, 0.7166928648948669, -0.07259386032819748, 1.0343797206878662, -0.6330174207687378, 0.4749135673046112, 
567, 2472904053, 77.98622131347656, -82.03824615478516, 133.15835571289062, 10.050294876098633, 2.262286901473999, 0.3829059898853302, 0.3237127363681793, 0.03993259742856026, 0.9040801525115967, 
568, 2472912386, 77.9389877319336, -82.04150390625, 133.20216369628906, 9.454923629760742, 2.5271379947662354, 0.6462188363075256, -0.4631437659263611, 0.3983013331890106, 2.058436870574951, 
569, 2472920719, 77.94066619873047, -82.0490493774414, 133.1806640625, 9.285223007202148, 1.4219696521759033, 0.7590396404266357, -0.7398799061775208, -0.5365541577339172, 2.3735432624816895, 
570, 2472929052, 77.94922637939453, -82.05349731445312, 133.16964721679688, 9.94776439666748, 0.2679879665374756, -0.19318197667598724, -0.282025545835495, -0.5220052599906921, 2.010563850402832, 
571, 2472937385, 77.97877502441406, -82.04826354980469, 133.20596313476562, 10.200519561767578, 0.2305075228214264, -0.15332834422588348, 0.70805424451828, -0.47746214270591736, 0.8148400187492371, 
572, 2472945718, 77.97383117675781, -82.0400161743164, 133.21505737304688, 10.351058006286621, 1.8745741844177246, 0.06660012155771255, 0.4966343641281128, 0.12223111838102341, 0.5818785429000854, 
573, 2472954051, 77.9469223022461, -82.04110717773438, 133.1034393310547, 9.73365306854248, 2.6372311115264893, 0.5384508371353149, -0.12173164635896683, 0.18370528519153595, 1.7267580032348633, 
574, 2472962384, 77.91732025146484, -82.04788970947266, 133.12890625, 9.198906898498535, 1.8653446435928345, 0.9325385689735413, -0.5415234565734863, 0.008170941844582558, 2.4173948764801025, 
575, 2472970717, 77.93772888183594, -82.05398559570312, 133.01036071777344, 9.671015739440918, 0.6737083196640015, 0.10956917703151703, -0.5696989893913269, -0.7840133309364319, 2.1400437355041504, 
576, 2472979050, 77.94973754882812, -82.052978515625, 133.00001525878906, 10.151442527770996, 0.029262246564030647, -0.1410682499408722, 0.2444366216659546, -0.3703433871269226, 1.3529183864593506, 
577, 2472987383, 77.98455047607422, -82.04534912109375, 132.90948486328125, 10.446391105651855, 1.318955659866333, -0.1078648716211319, 1.1697508096694946, -0.4372221529483795, 0.5270128846168518, 
578, 2472995716, 77.97926330566406, -82.04344940185547, 132.9179229736328, 9.953109741210938, 2.4395272731781006, 0.41924959421157837, 0.3634403944015503, -0.05052407830953598, 1.334450364112854, 
579, 2473004049, 77.91393280029297, -82.04698181152344, 133.0245819091797, 9.18970775604248, 2.2138850688934326, 1.016504168510437, -0.8443348407745361, 0.6523432731628418, 2.1214475631713867, 
580, 2473012382, 77.93746948242188, -82.05361938476562, 132.996826171875, 9.6033935546875, 1.1833754777908325, 0.42920008301734924, -0.499259889125824, -0.8554513454437256, 2.2208824157714844, 
581, 2473020715, 77.93714141845703, -82.05609130859375, 133.16061401367188, 10.080818176269531, 0.14813384413719177, -0.3284347653388977, -0.12695695459842682, -0.2953193187713623, 1.8002195358276367, 
582, 2473029048, 77.9681625366211, -82.04814147949219, 133.1375732421875, 10.358654022216797, 0.6218252778053284, -0.1088448092341423, 0.9816144108772278, -0.4088672399520874, 0.5102355480194092, 
583, 2473037381, 77.96729278564453, -82.04254150390625, 133.1436767578125, 10.111129760742188, 2.1015267372131348, 0.3685428500175476, 0.4035266935825348, -0.008337434381246567, 0.8634046912193298, 
584, 2473045714, 77.92227172851562, -82.04608917236328, 133.18569946289062, 9.562710762023926, 2.5304057598114014, 0.6140469908714294, -0.39785313606262207, 0.3633635640144348, 2.080977439880371, 
585, 2473054047, 77.91779327392578, -82.0533447265625, 133.11807250976562, 9.304905891418457, 1.5276330709457397, 0.8677855730056763, -0.7348852753639221, -0.42584943771362305, 2.3723647594451904, 
586, 2473062380, 77.92652130126953, -82.05772399902344, 133.10665893554688, 9.940084457397461, 0.42218029499053955, -0.16320231556892395, -0.3062821924686432, -0.5286905765533447, 1.9956049919128418, 
587, 2473070713, 77.94703674316406, -82.05206298828125, 133.1180419921875, 10.219738960266113, 0.12616899609565735, -0.14189094305038452, 0.7365628480911255, -0.3117380142211914, 0.7933240532875061, 
588, 2473079046, 77.95330810546875, -82.04354858398438, 133.1171875, 10.368303298950195, 1.7690768241882324, -0.007624930702149868, 0.6484755873680115, -0.03502746671438217, 0.526807963848114, 
589, 2473087379, 77.92240142822266, -82.0443115234375, 133.16514587402344, 9.752854347229004, 2.6375648975372314, 0.46841105818748474, -0.029776547104120255, 0.27015331387519836, 1.6911542415618896, 
590, 2473095712, 77.89197540283203, -82.051025390625, 133.19091796875, 9.057221412658691, 1.962355613708496, 1.0055116415023804, -0.6144726872444153, 0.011321493424475193, 2.411734104156494, 
591, 2473104045, 77.91438293457031, -82.05661010742188, 133.16339111328125, 9.723668098449707, 0.6659554839134216, 0.1072077676653862, -0.5774601101875305, -0.8059902787208557, 2.0729854106903076, 
592, 2473112378, 77.91809844970703, -82.0548095703125, 133.16172790527344, 10.199925422668457, -0.054340146481990814, -0.24009232223033905, 0.23442143201828003, -0.21686291694641113, 1.310757040977478, 
593, 2473120711, 77.95291900634766, -82.04638671875, 133.12342834472656, 10.540679931640625, 1.2735852003097534, -0.2228611260652542, 1.1552531719207764, -0.4194202721118927, 0.42932015657424927, 
594, 2473129044, 77.93830871582031, -82.04341888427734, 133.14027404785156, 9.89138126373291, 2.4911065101623535, 0.46858251094818115, 0.2600357234477997, 0.11552020162343979, 1.2288941144943237, 
595, 2473137377, 77.87220001220703, -82.04816436767578, 133.01473999023438, 9.228276252746582, 2.291205883026123, 1.0288573503494263, -0.7819642424583435, 0.6424306631088257, 2.2825357913970947, 
596, 2473145710, 77.89464569091797, -82.0548095703125, 132.9871368408203, 9.491827964782715, 1.1312922239303589, 0.41460999846458435, -0.5839405059814453, -0.8465888500213623, 2.2002625465393066, 
597, 2473154043, 77.8888931274414, -82.0553970336914, 132.9342041015625, 10.132218360900879, 0.055048272013664246, -0.30467522144317627, -0.18955813348293304, -0.16591618955135345, 1.6048340797424316, 
598, 2473162376, 77.93016052246094, -82.04803466796875, 132.90118408203125, 10.296381950378418, 0.5869265198707581, -0.07172870635986328, 1.024595022201538, -0.5839405059814453, 0.5421764850616455, 
599, 2473170709, 77.92559814453125, -82.04145050048828, 132.9050750732422, 10.115680694580078, 2.1404314041137695, 0.34427309036254883, 0.3396703898906708, 0.07049037516117096, 0.7653276920318604, 
600, 2473179042, 77.881103515625, -82.0442886352539, 132.94691467285156, 9.565842628479004, 2.5415244102478027, 0.5835336446762085, -0.36087891459465027, 0.3771311640739441, 2.0004332065582275, 
601, 2473187375, 77.87181854248047, -82.04969024658203, 132.9695281982422, 9.31729793548584, 1.5348961353302002, 0.8649984002113342, -0.8403646349906921, -0.31527280807495117, 2.157794237136841, 
602, 2473195708, 77.87872314453125, -82.05357360839844, 132.95913696289062, 9.898467063903809, 0.40419670939445496, -0.1570405811071396, -0.38820934295654297, -0.49630141258239746, 1.932222604751587, 
603, 2473204041, 77.89680480957031, -82.04850769042969, 132.8882598876953, 10.214766502380371, 0.16211189329624176, -0.11381568014621735, 0.5739254355430603, -0.30939438939094543, 0.8784786462783813, 
604, 2473212374, 77.90623474121094, -82.03949737548828, 132.88511657714844, 10.398573875427246, 1.7531903982162476, 0.07491887360811234, 0.744144856929779, -0.05877186357975006, 0.4587766230106354, 
605, 2473220707, 77.8740463256836, -82.0397720336914, 133.08050537109375, 9.764967918395996, 2.6473028659820557, 0.5244106650352478, 0.0036372216418385506, 0.304963082075119, 1.6484297513961792, 
606, 2473229040, 77.84986877441406, -82.046142578125, 133.09994506835938, 9.087635040283203, 1.9504516124725342, 1.020469307899475, -0.5870655179023743, -0.0783923789858818, 2.339962959289551, 
