sep=,
PacketCounter,SampleTimeFine,Euler_X,Euler_Y,Euler_Z,Acc_X,Acc_Y,Acc_Z,Gyr_X,Gyr_Y,Gyr_Z,Mag_X,Mag_Y,Mag_Z,Status,
0, 2468229240, 75.57980346679688, -64.6840591430664, -14.300121307373047, 0, 0, 0, 0, 0, 0, -0.66796875, -0.177734375, 0.65283203125, 0, 
1, 2468237573, 75.57929229736328, -64.68270874023438, -14.299742698669434, 9.08743953704834, 3.883012294769287, 1.0325911045074463, 1.5857644081115723, -1.1116833686828613, -0.18903304636478424, -0.66943359375, -0.1748046875, 0.64892578125, 0, 
2, 2468245906, 75.58159637451172, -64.68077087402344, -14.330842018127441, 8.681634902954102, 4.1566362380981445, 1.1289279460906982, 1.692370891571045, -1.1991301774978638, -0.3263765573501587, -0.6689453125, -0.17724609375, 0.6591796875, 0, 
3, 2468254239, 75.58171081542969, -64.68119049072266, -14.27686595916748, 8.58285140991211, 4.331088066101074, 1.1766964197158813, 1.6973912715911865, -1.1641925573349, -0.03219709172844887, -0.66650390625, -0.1748046875, 0.6494140625, 0, 
4, 2468262572, 75.58287048339844, -64.6838607788086, -14.279146194458008, 8.998396873474121, 4.233891487121582, 1.046712040901184, 1.4992012977600098, -1.3654820919036865, 0.2453075349330902, -0.6728515625, -0.177734375, 0.65478515625, 0, 
5, 2468270905, 75.58063507080078, -64.6860122680664, -14.278075218200684, 9.38172435760498, 3.993035078048706, 0.9445750713348389, 1.450892686843872, -1.181904911994934, 0.22932425141334534, -0.6689453125, -0.17529296875, 0.65380859375, 0, 
6, 2468279238, 75.57627868652344, -64.68512725830078, -14.3176851272583, 9.17971420288086, 3.797800064086914, 0.9343600273132324, 1.547881007194519, -0.9437564611434937, -0.1294543445110321, -0.66845703125, -0.17431640625, 0.650390625, 0, 
7, 2468287571, 75.57888793945312, -64.68225860595703, -14.319816589355469, 8.817706108093262, 4.102227687835693, 1.1357181072235107, 1.6894254684448242, -1.192009687423706, -0.39740487933158875, -0.66845703125, -0.17724609375, 0.6533203125, 0, 
8, 2468295904, 75.57835388183594, -64.68186950683594, -14.349827766418457, 8.538837432861328, 4.34364128112793, 1.1923357248306274, 1.7366324663162231, -1.0831493139266968, -0.10832260549068451, -0.6689453125, -0.17626953125, 0.6435546875, 0, 
9, 2468304237, 75.58106231689453, -64.68464660644531, -14.376708030700684, 8.929116249084473, 4.276830673217773, 1.0833371877670288, 1.567783236503601, -1.4336031675338745, 0.1961154043674469, -0.67138671875, -0.1767578125, 0.64990234375, 0, 
10, 2468312570, 75.57965087890625, -64.687255859375, -14.376607894897461, 9.31618881225586, 4.070735931396484, 0.9760164022445679, 1.4488052129745483, -1.2441859245300293, 0.26745104789733887, -0.669921875, -0.17578125, 0.64453125, 0, 
11, 2468320903, 75.57475280761719, -64.68667602539062, -14.371652603149414, 9.263440132141113, 3.766878128051758, 0.9184120893478394, 1.5562824010849, -0.9085625410079956, -0.04026557877659798, -0.6708984375, -0.1767578125, 0.64697265625, 0, 
12, 2468329236, 75.57598876953125, -64.68407440185547, -14.369709014892578, 8.939597129821777, 3.951077699661255, 1.069088339805603, 1.7114536762237549, -1.1137324571609497, -0.3912574350833893, -0.6708984375, -0.17724609375, 0.65185546875, 0, 
13, 2468337569, 75.57691955566406, -64.681884765625, -14.369847297668457, 8.519655227661133, 4.2954421043396, 1.2914828062057495, 1.703589916229248, -1.1127336025238037, -0.28969696164131165, -0.67041015625, -0.17431640625, 0.646484375, 0, 
14, 2468345902, 75.580322265625, -64.68360900878906, -14.397040367126465, 8.800177574157715, 4.261238098144531, 1.0669758319854736, 1.5537723302841187, -1.4446684122085571, 0.05918169021606445, -0.67333984375, -0.17724609375, 0.65576171875, 0, 
15, 2468354235, 75.58091735839844, -64.6875991821289, -14.398345947265625, 9.239492416381836, 4.163148880004883, 1.07076895236969, 1.5942939519882202, -1.337319016456604, 0.3694212734699249, -0.66748046875, -0.173828125, 0.64599609375, 0, 
16, 2468362568, 75.57746887207031, -64.68828582763672, -14.395354270935059, 9.403714179992676, 3.9785704612731934, 0.9929359555244446, 1.5185270309448242, -1.0427554845809937, 0.08310537785291672, -0.6728515625, -0.1767578125, 0.65087890625, 0, 
17, 2468370901, 75.57660675048828, -64.68570709228516, -14.394083976745605, 9.042074203491211, 3.771688222885132, 0.9105764627456665, 1.641603708267212, -1.0308961868286133, -0.3199218213558197, -0.6689453125, -0.17626953125, 0.64990234375, 0, 
18, 2468379234, 75.57787322998047, -64.6834716796875, -14.403985023498535, 8.604291915893555, 4.194420337677002, 1.1513195037841797, 1.8811732530593872, -1.0578166246414185, -0.3275292217731476, -0.6708984375, -0.177734375, 0.6455078125, 0, 
19, 2468387567, 75.57949829101562, -64.6839599609375, -14.405869483947754, 8.601506233215332, 4.413825988769531, 1.2585086822509766, 1.5990840196609497, -1.2794311046600342, -0.003739678766578436, -0.669921875, -0.17626953125, 0.654296875, 0, 
20, 2468395900, 75.57909393310547, -64.68790435791016, -14.40001106262207, 9.079000473022461, 4.194799900054932, 0.9826565980911255, 1.4378935098648071, -1.357272744178772, 0.3646058142185211, -0.6689453125, -0.177734375, 0.64501953125, 0, 
21, 2468404233, 75.57675170898438, -64.69068145751953, -14.398831367492676, 9.454572677612305, 3.933929204940796, 0.9310330748558044, 1.5471638441085815, -1.1563289165496826, 0.2704222798347473, -0.67138671875, -0.177734375, 0.6552734375, 0, 
22, 2468412566, 75.57463836669922, -64.68870544433594, -14.39663028717041, 9.186025619506836, 3.8628995418548584, 0.986592173576355, 1.5906054973602295, -1.0020544528961182, -0.2377513349056244, -0.67041015625, -0.17529296875, 0.64501953125, 0, 
23, 2468420899, 75.57479858398438, -64.68524932861328, -14.396122932434082, 8.781170845031738, 4.041849136352539, 1.0992013216018677, 1.6825861930847168, -1.0423200130462646, -0.43308547139167786, -0.67138671875, -0.17529296875, 0.64794921875, 0, 
24, 2468429232, 75.57470703125, -64.68467712402344, -14.397101402282715, 8.549201965332031, 4.2909932136535645, 1.2253222465515137, 1.7621952295303345, -1.0952134132385254, -0.13019713759422302, -0.66796875, -0.17626953125, 0.6455078125, 0, 
25, 2468437565, 75.57904815673828, -64.68791961669922, -14.401641845703125, 8.908336639404297, 4.325893878936768, 1.0992823839187622, 1.6340727806091309, -1.49433434009552, 0.2831525504589081, -0.669921875, -0.1748046875, 0.64501953125, 0, 
26, 2468445898, 75.57906341552734, -64.69127655029297, -14.411779403686523, 9.328821182250977, 4.0629987716674805, 0.9618897438049316, 1.374882459640503, -1.3891880512237549, 0.2827427387237549, -0.669921875, -0.1787109375, 0.6513671875, 0, 
27, 2468454231, 75.57624053955078, -64.69121551513672, -14.419795036315918, 9.276224136352539, 3.750746726989746, 0.8702820539474487, 1.5897858142852783, -1.0308446884155273, -0.04994775354862213, -0.66796875, -0.173828125, 0.646484375, 0, 
28, 2468462564, 75.57965087890625, -64.68818664550781, -14.421073913574219, 8.910051345825195, 4.011898994445801, 1.0892961025238037, 1.8758199214935303, -1.144828200340271, -0.40365472435951233, -0.67041015625, -0.17724609375, 0.6513671875, 0, 
29, 2468470897, 75.58001708984375, -64.6863021850586, -14.420426368713379, 8.509613990783691, 4.315615177154541, 1.2319397926330566, 1.721635103225708, -1.0826497077941895, -0.24683156609535217, -0.66845703125, -0.1748046875, 0.65087890625, 0, 
30, 2468479230, 75.58290100097656, -64.68873596191406, -14.435931205749512, 8.796570777893066, 4.287104606628418, 1.1046580076217651, 1.7114918231964111, -1.3687862157821655, 0.16977116465568542, -0.67041015625, -0.17578125, 0.6484375, 0, 
31, 2468487563, 75.58354949951172, -64.6924057006836, -14.43730354309082, 9.197700500488281, 4.195306301116943, 1.0393861532211304, 1.537071704864502, -1.3488967418670654, 0.370958149433136, -0.67041015625, -0.1767578125, 0.65380859375, 0, 
32, 2468495896, 75.57809448242188, -64.69496154785156, -14.43386459350586, 9.354899406433105, 3.8856494426727295, 0.946904182434082, 1.4415563344955444, -1.035839557647705, 0.27580124139785767, -0.6689453125, -0.1748046875, 0.64306640625, 0, 
33, 2468504229, 75.57752227783203, -64.69229888916016, -14.44039249420166, 9.051737785339355, 3.8322277069091797, 0.9765661954879761, 1.628745436668396, -1.0687026977539062, -0.37688788771629333, -0.6708984375, -0.1767578125, 0.65380859375, 0, 
34, 2468512562, 75.5801010131836, -64.68898010253906, -14.440424919128418, 8.589438438415527, 4.223698139190674, 1.2147713899612427, 1.9153684377670288, -1.0725960731506348, -0.4208674728870392, -0.66748046875, -0.177734375, 0.642578125, 0, 
35, 2468520895, 75.58226776123047, -64.68951416015625, -14.442336082458496, 8.663808822631836, 4.36057710647583, 1.1836515665054321, 1.6585856676101685, -1.2816849946975708, 0.0012166760861873627, -0.67138671875, -0.17724609375, 0.6484375, 0, 
36, 2468529228, 75.58290100097656, -64.69283294677734, -14.436407089233398, 9.098651885986328, 4.194880962371826, 1.0208011865615845, 1.444143295288086, -1.3980249166488647, 0.27692827582359314, -0.66943359375, -0.17724609375, 0.6513671875, 0, 
37, 2468537561, 75.5805435180664, -64.69523620605469, -14.435676574707031, 9.462206840515137, 3.9730384349823, 1.0046669244766235, 1.4035576581954956, -1.2061104774475098, 0.2531454861164093, -0.66796875, -0.17431640625, 0.64404296875, 0, 
38, 2468545894, 75.57734680175781, -64.69340515136719, -14.431479454040527, 9.10743236541748, 3.8008103370666504, 0.9383176565170288, 1.680345058441162, -0.9167205691337585, -0.23714937269687653, -0.66943359375, -0.17724609375, 0.65576171875, 0, 
39, 2468554227, 75.57772827148438, -64.69182586669922, -14.440035820007324, 8.72280502319336, 4.128316402435303, 1.1389437913894653, 1.6358786821365356, -1.1353124380111694, -0.2664264440536499, -0.669921875, -0.1767578125, 0.64501953125, 0, 
40, 2468562560, 75.57678985595703, -64.69163513183594, -14.438858032226562, 8.522259712219238, 4.371274948120117, 1.2335951328277588, 1.619331955909729, -1.1063684225082397, -0.042071375995874405, -0.67138671875, -0.17578125, 0.65185546875, 0, 
41, 2468570893, 75.57784271240234, -64.69498443603516, -14.441350936889648, 8.919605255126953, 4.197149753570557, 1.0363459587097168, 1.4634820222854614, -1.3943363428115845, 0.32101038098335266, -0.66845703125, -0.17578125, 0.64892578125, 0, 
42, 2468579226, 75.5772476196289, -64.69861602783203, -14.437698364257812, 9.388993263244629, 4.065459728240967, 0.9854650497436523, 1.5883514881134033, -1.2623718976974487, 0.3495446443557739, -0.67041015625, -0.17626953125, 0.6484375, 0, 
43, 2468587559, 75.5722427368164, -64.69820404052734, -14.433006286621094, 9.288996696472168, 3.833845376968384, 0.9846602082252502, 1.5137883424758911, -0.9241102933883667, -0.022847896441817284, -0.67041015625, -0.177734375, 0.65380859375, 0, 
44, 2468595892, 75.57390594482422, -64.69600677490234, -14.432485580444336, 8.937515258789062, 3.9253108501434326, 0.9969915151596069, 1.6320749521255493, -1.195902943611145, -0.35629400610923767, -0.66943359375, -0.17529296875, 0.64453125, 0, 
45, 2468604225, 75.5728759765625, -64.69432067871094, -14.430651664733887, 8.533089637756348, 4.271618843078613, 1.2515069246292114, 1.6819714307785034, -1.0288981199264526, -0.20944757759571075, -0.6708984375, -0.17626953125, 0.6533203125, 0, 
46, 2468612558, 75.57442474365234, -64.69727325439453, -14.434419631958008, 8.778422355651855, 4.372702121734619, 1.1690382957458496, 1.5772607326507568, -1.37125825881958, 0.23968520760536194, -0.6689453125, -0.17529296875, 0.64794921875, 0, 
47, 2468620891, 75.57137298583984, -64.701171875, -14.425480842590332, 9.197897911071777, 4.142751216888428, 0.9814605712890625, 1.3935425281524658, -1.2288813591003418, 0.3918209671974182, -0.67041015625, -0.177734375, 0.6474609375, 0, 
48, 2468629224, 75.56916046142578, -64.70254516601562, -14.423918724060059, 9.338830947875977, 3.79468035697937, 0.9530100226402283, 1.5088064670562744, -1.1342366933822632, 0.14425934851169586, -0.66845703125, -0.17724609375, 0.65283203125, 0, 
49, 2468637557, 75.5713882446289, -64.69961547851562, -14.425687789916992, 9.028141021728516, 3.935438394546509, 1.034388542175293, 1.6833546161651611, -1.1704682111740112, -0.3990185558795929, -0.669921875, -0.1767578125, 0.64404296875, 0, 
50, 2468645890, 75.57130432128906, -64.69701385498047, -14.476763725280762, 8.60481071472168, 4.253654479980469, 1.1991732120513916, 1.672571063041687, -1.0691380500793457, -0.37281519174575806, -0.669921875, -0.17529296875, 0.654296875, 0, 
51, 2468654223, 75.57423400878906, -64.6988296508789, -14.479418754577637, 8.716903686523438, 4.259305000305176, 1.1446969509124756, 1.6716874837875366, -1.3571574687957764, 0.14302991330623627, -0.6689453125, -0.1767578125, 0.64453125, 0, 
52, 2468662556, 75.57615661621094, -64.70337677001953, -14.486006736755371, 9.12631607055664, 4.230092525482178, 1.0977563858032227, 1.6484041213989258, -1.4030325412750244, 0.4296019375324249, -0.669921875, -0.1767578125, 0.65478515625, 0, 
53, 2468670889, 75.57317352294922, -64.70599365234375, -14.477066040039062, 9.400578498840332, 3.9730608463287354, 0.9530386328697205, 1.4429138898849487, -1.1686238050460815, 0.25067371129989624, -0.66796875, -0.1767578125, 0.6552734375, 0, 
54, 2468679222, 75.57221984863281, -64.70352935791016, -14.475998878479004, 9.110335350036621, 3.7593507766723633, 0.9274700880050659, 1.6075876951217651, -1.0432677268981934, -0.307883083820343, -0.66845703125, -0.17626953125, 0.64892578125, 0, 
55, 2468687555, 75.57508087158203, -64.70094299316406, -14.47858715057373, 8.68140697479248, 4.179132461547852, 1.1567946672439575, 1.6710087060928345, -1.2234383821487427, -0.37112465500831604, -0.66796875, -0.177734375, 0.6591796875, 0, 
56, 2468695888, 75.57788848876953, -64.70056915283203, -14.470065116882324, 8.577041625976562, 4.390336990356445, 1.2349790334701538, 1.7271677255630493, -1.2676100730895996, -0.14601394534111023, -0.6669921875, -0.177734375, 0.6474609375, 0, 
57, 2468704221, 75.58061981201172, -64.70418548583984, -14.473311424255371, 8.998045921325684, 4.172821521759033, 1.0375285148620605, 1.5813974142074585, -1.4404550790786743, 0.3425135910511017, -0.669921875, -0.177734375, 0.6572265625, 0, 
58, 2468712554, 75.57759094238281, -64.70777130126953, -14.394671440124512, 9.41883373260498, 4.104276657104492, 1.0097728967666626, 1.3709636926651, -1.235758900642395, 0.35292574763298035, -0.66748046875, -0.1767578125, 0.65087890625, 0, 
59, 2468720887, 75.5740966796875, -64.7074203491211, -14.24361801147461, 9.256781578063965, 3.8305411338806152, 0.9393954873085022, 1.5454734563827515, -1.0108146667480469, -0.07553639262914658, -0.6689453125, -0.17724609375, 0.654296875, 0, 
60, 2468729220, 75.57657623291016, -64.70477294921875, -14.24500560760498, 8.854801177978516, 3.914736747741699, 1.0428082942962646, 1.7546136379241943, -1.1618874073028564, -0.36067405343055725, -0.66845703125, -0.17626953125, 0.65380859375, 0, 
61, 2468737553, 75.57780456542969, -64.70377349853516, -14.24500560760498, 8.506889343261719, 4.331921100616455, 1.2395026683807373, 1.7567650079727173, -1.140960454940796, -0.15301944315433502, -0.6669921875, -0.177734375, 0.6494140625, 0, 
62, 2468745886, 75.57905578613281, -64.70629119873047, -14.292799949645996, 8.832642555236816, 4.3459954261779785, 1.0827281475067139, 1.4949363470077515, -1.3773030042648315, 0.18443529307842255, -0.66796875, -0.17822265625, 0.65625, 0, 
63, 2468754219, 75.57752227783203, -64.7093505859375, -14.29267406463623, 9.286478042602539, 4.079216003417969, 0.9816471338272095, 1.4355113506317139, -1.2567111253738403, 0.3210616111755371, -0.66650390625, -0.1767578125, 0.6474609375, 0, 
64, 2468762552, 75.57410430908203, -64.71017456054688, -14.284798622131348, 9.361467361450195, 3.8452000617980957, 0.9648624062538147, 1.6904882192611694, -0.9802694916725159, 0.0781746432185173, -0.66943359375, -0.17626953125, 0.65625, 0, 
65, 2468770885, 75.57422637939453, -64.70784759521484, -14.37705135345459, 8.987693786621094, 3.992594003677368, 0.9404461979866028, 1.7252850532531738, -1.064143419265747, -0.33398401737213135, -0.66943359375, -0.1767578125, 0.65478515625, 0, 
66, 2468779218, 75.57361602783203, -64.70539855957031, -14.374334335327148, 8.583330154418945, 4.229799270629883, 1.230486273765564, 1.829304575920105, -0.9618914127349854, -0.287545382976532, -0.66796875, -0.17578125, 0.65087890625, 0, 
67, 2468787551, 75.57744598388672, -64.70632934570312, -14.377984046936035, 8.688799858093262, 4.269687175750732, 1.1522890329360962, 1.6666285991668701, -1.3802998065948486, 0.026395468041300774, -0.66943359375, -0.17578125, 0.65869140625, 0, 
68, 2468795884, 75.57779693603516, -64.70986938476562, -14.4771089553833, 9.135381698608398, 4.1840081214904785, 0.9558435678482056, 1.5666433572769165, -1.3236795663833618, 0.32614603638648987, -0.6669921875, -0.17529296875, 0.646484375, 0, 
69, 2468804217, 75.57373809814453, -64.71125793457031, -14.473970413208008, 9.395174026489258, 3.9108738899230957, 0.9203269481658936, 1.462764859199524, -1.0564079284667969, 0.16274003684520721, -0.66943359375, -0.177734375, 0.6552734375, 0, 
70, 2468812550, 75.57323455810547, -64.70942687988281, -14.299749374389648, 9.101117134094238, 3.818758726119995, 0.9878760576248169, 1.575595498085022, -1.1154487133026123, -0.2805270850658417, -0.66748046875, -0.17626953125, 0.6494140625, 0, 
71, 2468820883, 75.5750732421875, -64.70710754394531, -14.158692359924316, 8.699604988098145, 4.151659965515137, 1.1647709608078003, 1.7824561595916748, -1.1365036964416504, -0.3502490222454071, -0.66748046875, -0.1767578125, 0.6513671875, 0, 
72, 2468829216, 75.57642364501953, -64.70774841308594, -14.15964126586914, 8.644108772277832, 4.3495893478393555, 1.2333531379699707, 1.6664235591888428, -1.237346887588501, 0.0262161698192358, -0.67041015625, -0.17626953125, 0.65673828125, 0, 
73, 2468837549, 75.57730865478516, -64.71060943603516, -14.161436080932617, 9.031867980957031, 4.222032070159912, 1.058837652206421, 1.519577145576477, -1.3447729349136353, 0.27318859100341797, -0.66748046875, -0.17578125, 0.64794921875, 0, 
74, 2468845882, 75.57379150390625, -64.7136001586914, -14.172595024108887, 9.37105941772461, 4.0265021324157715, 0.9363406300544739, 1.4453216791152954, -1.1492338180541992, 0.30579549074172974, -0.6689453125, -0.17724609375, 0.65869140625, 0, 
75, 2468854215, 75.57056427001953, -64.71261596679688, -14.170344352722168, 9.138038635253906, 3.786848545074463, 0.9498123526573181, 1.4655312299728394, -1.0297690629959106, -0.12161638587713242, -0.66650390625, -0.1767578125, 0.64794921875, 0, 
76, 2468862548, 75.57188415527344, -64.71009063720703, -14.137736320495605, 8.794210433959961, 4.085448265075684, 1.1885802745819092, 1.6784111261367798, -1.1460320949554443, -0.37750259041786194, -0.66943359375, -0.1767578125, 0.65576171875, 0, 
77, 2468870881, 75.57275390625, -64.70974731445312, -14.15175724029541, 8.568172454833984, 4.342060089111328, 1.2070279121398926, 1.6185250282287598, -1.2123472690582275, -0.1288139820098877, -0.66845703125, -0.17626953125, 0.6533203125, 0, 
78, 2468879214, 75.57455444335938, -64.71194458007812, -14.15483283996582, 8.965973854064941, 4.230255603790283, 1.0755456686019897, 1.491043210029602, -1.3899309635162354, 0.17954298853874207, -0.6689453125, -0.17724609375, 0.650390625, 0, 
79, 2468887547, 75.57278442382812, -64.71521759033203, -14.154085159301758, 9.353604316711426, 4.137869834899902, 1.0614731311798096, 1.477339506149292, -1.2312250137329102, 0.3524646461009979, -0.6689453125, -0.1796875, 0.65576171875, 0, 
80, 2468895880, 75.5694580078125, -64.71524810791016, -14.03495979309082, 9.316168785095215, 3.8299965858459473, 0.94913250207901, 1.5316927433013916, -1.0370692014694214, -0.029533211141824722, -0.6689453125, -0.17578125, 0.640625, 0, 
81, 2468904213, 75.57096099853516, -64.71261596679688, -14.035526275634766, 8.928303718566895, 3.910712242126465, 0.9801177978515625, 1.7278721332550049, -1.119982361793518, -0.3506588637828827, -0.6689453125, -0.17822265625, 0.658203125, 0, 
82, 2468912546, 75.57403564453125, -64.71128845214844, -14.103781700134277, 8.484296798706055, 4.33109712600708, 1.2698911428451538, 1.901613712310791, -1.1758471727371216, -0.23585587739944458, -0.666015625, -0.17529296875, 0.65087890625, 0, 
83, 2468920879, 75.57659912109375, -64.7132568359375, -14.279348373413086, 8.761041641235352, 4.352410316467285, 1.1281661987304688, 1.6026955842971802, -1.3855509757995605, 0.11881163716316223, -0.671875, -0.17529296875, 0.64990234375, 0, 
84, 2468929212, 75.57518005371094, -64.7169189453125, -14.278871536254883, 9.2090425491333, 4.095623970031738, 0.9629338383674622, 1.4865092039108276, -1.2564294338226318, 0.39572709798812866, -0.67041015625, -0.1767578125, 0.65625, 0, 
85, 2468937545, 75.57205200195312, -64.71821594238281, -14.276440620422363, 9.449066162109375, 3.9029979705810547, 0.974122941493988, 1.4958841800689697, -1.0893735885620117, 0.14872907102108002, -0.66796875, -0.17626953125, 0.646484375, 0, 
86, 2468945878, 75.5710678100586, -64.71507263183594, -14.264362335205078, 9.069371223449707, 3.9285733699798584, 1.0079998970031738, 1.5742894411087036, -1.0494664907455444, -0.4291665256023407, -0.669921875, -0.17529296875, 0.66015625, 0, 
87, 2468954211, 75.5711898803711, -64.71337127685547, -14.263355255126953, 8.627199172973633, 4.142073631286621, 1.1717424392700195, 1.7325595617294312, -1.0706236362457275, -0.22071786224842072, -0.6669921875, -0.17578125, 0.6494140625, 0, 
88, 2468962544, 75.57270050048828, -64.71464538574219, -14.201422691345215, 8.623927116394043, 4.352480888366699, 1.1985585689544678, 1.6499024629592896, -1.2863980531692505, 0.05554446578025818, -0.67138671875, -0.177734375, 0.6552734375, 0, 
89, 2468970877, 75.5719985961914, -64.71864318847656, -14.09071159362793, 9.048851013183594, 4.238533973693848, 1.0005877017974854, 1.4901080131530762, -1.316277027130127, 0.39202582836151123, -0.66748046875, -0.17529296875, 0.65283203125, 0, 
90, 2468979210, 75.5687255859375, -64.72100830078125, -14.088385581970215, 9.394768714904785, 3.919557809829712, 0.9258695840835571, 1.4653903245925903, -1.1254510879516602, 0.26751509308815, -0.669921875, -0.17578125, 0.6484375, 0, 
91, 2468987543, 75.56973266601562, -64.71952819824219, -14.089180946350098, 9.149596214294434, 3.7837915420532227, 0.9680496454238892, 1.6448051929473877, -1.1676760911941528, -0.22071786224842072, -0.66748046875, -0.17626953125, 0.65771484375, 0, 
92, 2468995876, 75.5682373046875, -64.7171630859375, -14.141890525817871, 8.80518913269043, 4.166783809661865, 1.152263879776001, 1.6766437292099, -1.0002102851867676, -0.3184617757797241, -0.66796875, -0.17578125, 0.6474609375, 0, 
93, 2469004209, 75.56845092773438, -64.71589660644531, -14.141877174377441, 8.58724308013916, 4.30120325088501, 1.162244439125061, 1.633227825164795, -1.1323797702789307, -0.18193791806697845, -0.6689453125, -0.17626953125, 0.65771484375, 0, 
94, 2469012542, 75.56902313232422, -64.71882629394531, -14.138008117675781, 8.971183776855469, 4.216068744659424, 1.0756430625915527, 1.6436911821365356, -1.2848997116088867, 0.26126518845558167, -0.666015625, -0.177734375, 0.64892578125, 0, 
95, 2469020875, 75.56743621826172, -64.72228240966797, -14.037074089050293, 9.332064628601074, 4.089591026306152, 1.0088776350021362, 1.4410055875778198, -1.2698384523391724, 0.33754438161849976, -0.66943359375, -0.17626953125, 0.65185546875, 0, 
96, 2469029208, 75.56414794921875, -64.72222137451172, -14.033830642700195, 9.224669456481934, 3.7656493186950684, 0.9524985551834106, 1.5638898611068726, -1.0084580183029175, -0.001588082523085177, -0.669921875, -0.177734375, 0.65673828125, 0, 
97, 2469037541, 75.56842041015625, -64.71923065185547, -14.036325454711914, 8.877511978149414, 3.969785690307617, 1.0522571802139282, 1.8509998321533203, -1.2047655582427979, -0.4168972969055176, -0.66845703125, -0.17333984375, 0.64697265625, 0, 
98, 2469045874, 75.56822204589844, -64.71795654296875, -14.047159194946289, 8.520050048828125, 4.34348726272583, 1.2649344205856323, 1.6710598468780518, -1.1030256748199463, -0.21042093634605408, -0.67041015625, -0.17822265625, 0.6591796875, 0, 
99, 2469054207, 75.57135009765625, -64.72027587890625, -14.050359725952148, 8.857136726379395, 4.295039653778076, 1.098353385925293, 1.6357892751693726, -1.3991520404815674, 0.19314414262771606, -0.66845703125, -0.17626953125, 0.6484375, 0, 
100, 2469062540, 75.5716552734375, -64.72362518310547, -14.07645320892334, 9.278728485107422, 4.130991458892822, 1.0222198963165283, 1.5993270874023438, -1.3056983947753906, 0.31231433153152466, -0.6708984375, -0.17724609375, 0.65478515625, 0, 
101, 2469070873, 75.5650634765625, -64.72462463378906, -14.248371124267578, 9.384282112121582, 3.8820784091949463, 0.9378166198730469, 1.5191164016723633, -0.8884041905403137, 0.1273667812347412, -0.66748046875, -0.17626953125, 0.6533203125, 0, 
102, 2469079206, 75.56597137451172, -64.72150421142578, -14.248395919799805, 8.997859954833984, 3.855168104171753, 0.990588903427124, 1.7157310247421265, -1.0776933431625366, -0.3986855745315552, -0.66845703125, -0.17724609375, 0.64892578125, 0, 
103, 2469087539, 75.5684814453125, -64.71944427490234, -14.249595642089844, 8.565991401672363, 4.239297389984131, 1.2298027276992798, 1.7784730195999146, -1.1685597896575928, -0.29106733202934265, -0.66943359375, -0.17626953125, 0.6533203125, 0, 
104, 2469095872, 75.57048797607422, -64.721435546875, -13.970612525939941, 8.67086124420166, 4.329783916473389, 1.1941711902618408, 1.628015398979187, -1.3469630479812622, 0.12950557470321655, -0.669921875, -0.17333984375, 0.64306640625, 0, 
105, 2469104205, 75.57070922851562, -64.72371673583984, -13.971394538879395, 9.137931823730469, 4.1567463874816895, 1.028490424156189, 1.548726201057434, -1.2776124477386475, 0.22085873782634735, -0.67333984375, -0.17578125, 0.6513671875, 0, 
106, 2469112538, 75.5667724609375, -64.72645568847656, -13.971382141113281, 9.459519386291504, 3.9777746200561523, 0.9819459915161133, 1.5637105703353882, -1.0726473331451416, 0.29849544167518616, -0.66943359375, -0.1767578125, 0.6396484375, 0, 
107, 2469120871, 75.56465148925781, -64.72484588623047, -13.975058555603027, 9.132620811462402, 3.832207441329956, 0.9727849960327148, 1.6207791566848755, -1.0096617937088013, -0.22297190129756927, -0.6708984375, -0.1787109375, 0.6474609375, 0, 
108, 2469129204, 75.56678771972656, -64.7225112915039, -13.976266860961914, 8.708135604858398, 4.090314865112305, 1.1373640298843384, 1.7314581871032715, -1.160248041152954, -0.32353338599205017, -0.669921875, -0.177734375, 0.65185546875, 0, 
109, 2469137537, 75.56980895996094, -64.7223892211914, -13.979133605957031, 8.536886215209961, 4.33744478225708, 1.2144798040390015, 1.6595462560653687, -1.3098478317260742, -0.08891981095075607, -0.66943359375, -0.17626953125, 0.64306640625, 0, 
110, 2469145870, 75.57164764404297, -64.72554016113281, -14.028368949890137, 8.949630737304688, 4.2863264083862305, 1.0782915353775024, 1.6724814176559448, -1.3481155633926392, 0.27548107504844666, -0.669921875, -0.177734375, 0.65283203125, 0, 
111, 2469154203, 75.57061004638672, -64.7284164428711, -14.029708862304688, 9.372336387634277, 3.988662004470825, 0.9333530068397522, 1.3358207941055298, -1.3242303133010864, 0.2807704508304596, -0.6689453125, -0.1767578125, 0.64404296875, 0, 
112, 2469162536, 75.56903076171875, -64.72757720947266, -14.030404090881348, 9.234779357910156, 3.80305814743042, 0.8825827836990356, 1.6377229690551758, -1.0510672330856323, -0.13715142011642456, -0.67236328125, -0.17626953125, 0.65087890625, 0, 
113, 2469170869, 75.5704574584961, -64.72437286376953, -14.03013801574707, 8.890090942382812, 4.064526557922363, 1.1104350090026855, 1.7172549962997437, -1.1137964725494385, -0.4522833526134491, -0.669921875, -0.1767578125, 0.65087890625, 0, 
114, 2469179202, 75.5698013305664, -64.72242736816406, -14.028910636901855, 8.553969383239746, 4.276553153991699, 1.2360302209854126, 1.65859854221344, -1.0528090000152588, -0.2448592633008957, -0.66943359375, -0.1748046875, 0.64697265625, 0, 
115, 2469187535, 75.57283020019531, -64.7254867553711, -14.031916618347168, 8.892173767089844, 4.279843807220459, 1.049350619316101, 1.6439217329025269, -1.4123817682266235, 0.2822432816028595, -0.67236328125, -0.17578125, 0.65234375, 0, 
116, 2469195868, 75.5736312866211, -64.72872161865234, -14.032696723937988, 9.286114692687988, 4.132630348205566, 1.0621471405029297, 1.5331785678863525, -1.3558895587921143, 0.2835879921913147, -0.67041015625, -0.17724609375, 0.64501953125, 0, 
117, 2469204201, 75.5708999633789, -64.72853088378906, -14.030362129211426, 9.30330753326416, 3.7849068641662598, 0.8943842053413391, 1.534894585609436, -1.0488516092300415, -0.028790397569537163, -0.67138671875, -0.17529296875, 0.65380859375, 0, 
118, 2469212534, 75.57447052001953, -64.72515106201172, -14.030035018920898, 8.967435836791992, 3.925325393676758, 1.0148844718933105, 1.7241839170455933, -1.2221320867538452, -0.49619901180267334, -0.66845703125, -0.17626953125, 0.646484375, 0, 
119, 2469220867, 75.57549285888672, -64.72283172607422, -14.018131256103516, 8.514830589294434, 4.336764335632324, 1.2739689350128174, 1.8119510412216187, -1.0733773708343506, -0.32989856600761414, -0.6708984375, -0.17431640625, 0.64990234375, 0, 
120, 2469229200, 75.57957458496094, -64.72380828857422, -14.02261734008789, 8.734149932861328, 4.262088298797607, 1.121925711631775, 1.6074212789535522, -1.4223968982696533, 0.02003033272922039, -0.66845703125, -0.17626953125, 0.654296875, 0, 
121, 2469237533, 75.58082580566406, -64.72753143310547, -14.024687767028809, 9.171920776367188, 4.174314975738525, 1.0127484798431396, 1.5352146625518799, -1.3860245943069458, 0.3696134090423584, -0.66796875, -0.17431640625, 0.6435546875, 0, 
122, 2469245866, 75.57847595214844, -64.72947692871094, -14.009693145751953, 9.42327880859375, 4.006727695465088, 1.0126495361328125, 1.5902596712112427, -1.1197901964187622, 0.18667654693126678, -0.67041015625, -0.1767578125, 0.65625, 0, 
123, 2469254199, 75.57859802246094, -64.72697448730469, -14.010072708129883, 9.094926834106445, 3.802320718765259, 0.9679452776908875, 1.583126187324524, -1.1147828102111816, -0.3330106735229492, -0.669921875, -0.17578125, 0.64501953125, 0, 
124, 2469262532, 75.5816650390625, -64.72443389892578, -14.01450252532959, 8.646564483642578, 4.1206488609313965, 1.127751350402832, 1.80996572971344, -1.1809699535369873, -0.3817289173603058, -0.671875, -0.17529296875, 0.65234375, 0, 
125, 2469270865, 75.58179473876953, -64.72476196289062, -14.03474235534668, 8.590242385864258, 4.432275772094727, 1.2091805934906006, 1.6485192775726318, -1.1825836896896362, -0.029814966022968292, -0.6689453125, -0.17431640625, 0.65185546875, 0, 
126, 2469279198, 75.58379364013672, -64.72918701171875, -14.037883758544922, 9.022010803222656, 4.228285312652588, 1.0438100099563599, 1.509075403213501, -1.4588587284088135, 0.4367098808288574, -0.66845703125, -0.17578125, 0.646484375, 0, 
127, 2469287531, 75.58157348632812, -64.73262786865234, -14.036850929260254, 9.429600715637207, 3.944852828979492, 0.9230685234069824, 1.4536716938018799, -1.2222343683242798, 0.3758760690689087, -0.67138671875, -0.17724609375, 0.654296875, 0, 
128, 2469295864, 75.57818603515625, -64.7314453125, -14.021852493286133, 9.202713012695312, 3.829963445663452, 0.9916561245918274, 1.6105334758758545, -0.9604058265686035, -0.15063731372356415, -0.66943359375, -0.17626953125, 0.64404296875, 0, 
129, 2469304197, 75.58069610595703, -64.72811889648438, -14.023051261901855, 8.826411247253418, 4.079010963439941, 1.1178734302520752, 1.777948021888733, -1.1312270164489746, -0.437439888715744, -0.67236328125, -0.17724609375, 0.6533203125, 0, 
130, 2469312530, 75.58116149902344, -64.72752380371094, -14.021533966064453, 8.526182174682617, 4.279632091522217, 1.200524926185608, 1.6608268022537231, -1.1632575988769531, -0.13879072666168213, -0.66650390625, -0.1748046875, 0.64794921875, 0, 
131, 2469320863, 75.58476257324219, -64.7301254272461, -14.051161766052246, 8.873912811279297, 4.2663798332214355, 1.0740656852722168, 1.6104439496994019, -1.4594863653182983, 0.18309055268764496, -0.669921875, -0.17431640625, 0.6484375, 0, 
132, 2469329196, 75.58547973632812, -64.73365783691406, -14.05319595336914, 9.291055679321289, 4.117950439453125, 1.013363003730774, 1.4720373153686523, -1.3768162727355957, 0.34749549627304077, -0.67041015625, -0.1767578125, 0.64990234375, 0, 
133, 2469337529, 75.58148956298828, -64.73409271240234, -14.049577713012695, 9.303357124328613, 3.79160475730896, 0.9536129236221313, 1.5193850994110107, -1.0045517683029175, 0.06403558701276779, -0.67041015625, -0.17578125, 0.64306640625, 0, 
134, 2469345862, 75.58246612548828, -64.73065948486328, -14.056192398071289, 8.970450401306152, 3.9376943111419678, 1.0035762786865234, 1.6909493207931519, -1.0953798294067383, -0.4736199975013733, -0.67041015625, -0.1787109375, 0.64697265625, 0, 
135, 2469354195, 75.58476257324219, -64.728271484375, -14.05800724029541, 8.545432090759277, 4.27933406829834, 1.2981553077697754, 1.6848145723342896, -1.189422607421875, -0.33636611700057983, -0.66845703125, -0.17724609375, 0.64306640625, 0, 
136, 2469362528, 75.58906555175781, -64.73033905029297, -14.052401542663574, 8.77071475982666, 4.334419250488281, 1.1317805051803589, 1.714386224746704, -1.4277247190475464, 0.12648309767246246, -0.669921875, -0.17626953125, 0.6494140625, 0, 
137, 2469370861, 75.5877685546875, -64.73371124267578, -14.070074081420898, 9.183187484741211, 4.159966945648193, 1.0170799493789673, 1.508934497833252, -1.2528817653656006, 0.3298344910144806, -0.67041015625, -0.17529296875, 0.6484375, 0, 
138, 2469379194, 75.58356475830078, -64.73570251464844, -14.065346717834473, 9.37701416015625, 3.878110885620117, 0.9500261545181274, 1.6141194105148315, -0.9964192509651184, 0.2553611099720001, -0.67138671875, -0.173828125, 0.646484375, 0, 
139, 2469387527, 75.58687591552734, -64.73295593261719, -14.06787395477295, 9.035011291503906, 3.8298466205596924, 1.0020824670791626, 1.7302542924880981, -1.2138073444366455, -0.3874921500682831, -0.67236328125, -0.177734375, 0.6552734375, 0, 
140, 2469395860, 75.58828735351562, -64.73055267333984, -14.039800643920898, 8.62370777130127, 4.226757526397705, 1.2205891609191895, 1.7938545942306519, -1.1046652793884277, -0.3452542722225189, -0.6689453125, -0.17578125, 0.6435546875, 0, 
141, 2469404193, 75.58960723876953, -64.73072052001953, -14.041146278381348, 8.644611358642578, 4.328720569610596, 1.1664645671844482, 1.6202155351638794, -1.2422902584075928, -0.03255569189786911, -0.67041015625, -0.17578125, 0.6533203125, 0, 
142, 2469412526, 75.5882797241211, -64.73416137695312, -14.036053657531738, 9.105280876159668, 4.186094284057617, 1.0523778200149536, 1.5438082218170166, -1.2453640699386597, 0.3412456214427948, -0.669921875, -0.17529296875, 0.646484375, 0, 
143, 2469420859, 75.58417510986328, -64.73712158203125, -14.034555435180664, 9.443289756774902, 4.091192245483398, 1.0097898244857788, 1.5175793170928955, -1.089117169380188, 0.3270041346549988, -0.67236328125, -0.17724609375, 0.6484375, 0, 
144, 2469429192, 75.58319854736328, -64.73521423339844, -14.032953262329102, 9.178983688354492, 3.7823293209075928, 0.9750131964683533, 1.6609166860580444, -1.0350457429885864, -0.2360864281654358, -0.66943359375, -0.1767578125, 0.65234375, 0, 
145, 2469437525, 75.58464813232422, -64.73199462890625, -14.032126426696777, 8.768977165222168, 4.024975299835205, 1.067201018333435, 1.8674697875976562, -1.0331757068634033, -0.39958205819129944, -0.66845703125, -0.17724609375, 0.64404296875, 0, 
146, 2469445858, 75.58694458007812, -64.73088073730469, -14.04970932006836, 8.519750595092773, 4.406271934509277, 1.2391693592071533, 1.7252082824707031, -1.2196729183197021, -0.2190273255109787, -0.66845703125, -0.17724609375, 0.64990234375, 0, 
147, 2469454191, 75.58946990966797, -64.7331771850586, -14.05282974243164, 8.907981872558594, 4.267652988433838, 1.1021808385849, 1.5724706649780273, -1.3947207927703857, 0.19153045117855072, -0.6689453125, -0.17529296875, 0.6484375, 0, 
148, 2469462524, 75.5885009765625, -64.73684692382812, -14.073309898376465, 9.333860397338867, 4.0269670486450195, 0.9554896950721741, 1.3232825994491577, -1.368504524230957, 0.34328198432922363, -0.67041015625, -0.17822265625, 0.65283203125, 0, 
149, 2469470857, 75.58678436279297, -64.7361068725586, -14.064682006835938, 9.314594268798828, 3.8612864017486572, 0.9264832735061646, 1.5879544019699097, -1.0761947631835938, -0.12857064604759216, -0.669921875, -0.17626953125, 0.6533203125, 0, 
150, 2469479190, 75.58879089355469, -64.7336654663086, -14.06641960144043, 8.947163581848145, 3.945221424102783, 1.0231401920318604, 1.6626840829849243, -1.1854779720306396, -0.3443065285682678, -0.6689453125, -0.1767578125, 0.6474609375, 0, 
151, 2469487523, 75.58827209472656, -64.73111724853516, -14.064469337463379, 8.55512809753418, 4.21256685256958, 1.2023628950119019, 1.752846121788025, -0.9968547821044922, -0.3052704334259033, -0.66845703125, -0.177734375, 0.6572265625, 0, 
152, 2469495856, 75.59293365478516, -64.73286437988281, -14.087756156921387, 8.76115894317627, 4.354062080383301, 1.091164469718933, 1.4864581823349, -1.5450763702392578, 0.05131812021136284, -0.6650390625, -0.1767578125, 0.646484375, 0, 
153, 2469504189, 75.59339141845703, -64.7354736328125, -14.088900566101074, 9.200812339782715, 4.199309825897217, 1.0266324281692505, 1.5371485948562622, -1.3055574893951416, 0.25328636169433594, -0.6708984375, -0.1767578125, 0.6552734375, 0, 
154, 2469512522, 75.58955383300781, -64.73739624023438, -14.050198554992676, 9.363365173339844, 3.843336820602417, 0.8932850956916809, 1.4847290515899658, -1.0841608047485352, 0.19963733851909637, -0.669921875, -0.17626953125, 0.650390625, 0, 
155, 2469520855, 75.59052276611328, -64.73544311523438, -14.020435333251953, 9.087207794189453, 3.9065752029418945, 1.0162863731384277, 1.6535526514053345, -1.1558552980422974, -0.3022095561027527, -0.66943359375, -0.18017578125, 0.65234375, 0, 
156, 2469529188, 75.59193420410156, -64.73265838623047, -14.020593643188477, 8.626216888427734, 4.274407863616943, 1.2057827711105347, 1.756880283355713, -1.0971986055374146, -0.3587658405303955, -0.66943359375, -0.17822265625, 0.65771484375, 0, 
157, 2469537521, 75.59449768066406, -64.73413848876953, -14.024064064025879, 8.66437816619873, 4.272060394287109, 1.210556983947754, 1.5397741794586182, -1.3867418766021729, 0.08985473960638046, -0.66748046875, -0.17578125, 0.64892578125, 0, 
158, 2469545854, 75.59378814697266, -64.7386245727539, -14.303983688354492, 9.090856552124023, 4.238151550292969, 1.005445957183838, 1.4573091268539429, -1.3456695079803467, 0.4479033648967743, -0.66748046875, -0.177734375, 0.6572265625, 0, 
159, 2469554187, 75.59115600585938, -64.74164581298828, -14.302713394165039, 9.422832489013672, 4.025064945220947, 0.9695680737495422, 1.4304524660110474, -1.1975550651550293, 0.3313201367855072, -0.66748046875, -0.1748046875, 0.6494140625, 0, 
160, 2469562520, 75.58918762207031, -64.74073791503906, -14.117737770080566, 9.1870756149292, 3.755479335784912, 0.9628776907920837, 1.5564360618591309, -1.0692150592803955, -0.144003227353096, -0.6708984375, -0.17529296875, 0.654296875, 0, 
161, 2469570853, 75.58897399902344, -64.73884582519531, -13.94172191619873, 8.76151180267334, 4.084074974060059, 1.1247634887695312, 1.7271808385849, -1.0600707530975342, -0.27184388041496277, -0.66845703125, -0.17578125, 0.65283203125, 0, 
162, 2469579186, 75.58734893798828, -64.73856353759766, -13.940021514892578, 8.5659818649292, 4.38623571395874, 1.2321897745132446, 1.5984179973602295, -1.077616572380066, -0.04923056438565254, -0.66943359375, -0.1767578125, 0.64990234375, 0, 
163, 2469587519, 75.58724975585938, -64.74161529541016, -13.941234588623047, 8.940373420715332, 4.235191822052002, 1.0627095699310303, 1.4616378545761108, -1.3233082294464111, 0.30530887842178345, -0.669921875, -0.17626953125, 0.65576171875, 0, 
164, 2469595852, 75.5867919921875, -64.74515533447266, -14.050396919250488, 9.339978218078613, 4.090385437011719, 1.054286003112793, 1.473266839981079, -1.3245632648468018, 0.3368656039237976, -0.6669921875, -0.17724609375, 0.646484375, 0, 
165, 2469604185, 75.58118438720703, -64.7469253540039, -14.044320106506348, 9.257741928100586, 3.8179662227630615, 0.9516869783401489, 1.5928596258163452, -0.9219586849212646, 0.24803544580936432, -0.6689453125, -0.17724609375, 0.6572265625, 0, 
166, 2469612518, 75.5802230834961, -64.74414825439453, -14.01542854309082, 8.916899681091309, 3.9272563457489014, 0.9990425705909729, 1.7216993570327759, -0.9966754913330078, -0.3615705966949463, -0.6669921875, -0.17626953125, 0.65234375, 0, 
167, 2469620851, 75.58058166503906, -64.74258422851562, -13.951266288757324, 8.527588844299316, 4.336362361907959, 1.2606241703033447, 1.7800740003585815, -1.0764638185501099, -0.23134776949882507, -0.66943359375, -0.17626953125, 0.65087890625, 0, 
168, 2469629184, 75.58463287353516, -64.74517059326172, -13.956052780151367, 8.757134437561035, 4.28997278213501, 1.132103443145752, 1.5717277526855469, -1.4853183031082153, 0.2063610851764679, -0.66796875, -0.17724609375, 0.65576171875, 0, 
169, 2469637517, 75.58314514160156, -64.74872589111328, -13.955121994018555, 9.209752082824707, 4.115597724914551, 0.9820423126220703, 1.5302839279174805, -1.2321470975875854, 0.38952845335006714, -0.66845703125, -0.177734375, 0.64794921875, 0, 
170, 2469645850, 75.57894897460938, -64.75109100341797, -13.816210746765137, 9.328157424926758, 3.9293692111968994, 1.0237834453582764, 1.5339597463607788, -1.0564208030700684, 0.2564241290092468, -0.6689453125, -0.1767578125, 0.6591796875, 0, 
171, 2469654183, 75.57762908935547, -64.74958038330078, -13.814338684082031, 9.080870628356934, 3.8546359539031982, 0.9495159387588501, 1.6533219814300537, -1.0332908630371094, -0.18551108241081238, -0.66845703125, -0.1748046875, 0.6474609375, 0, 
172, 2469662516, 75.5789566040039, -64.74801635742188, -14.044650077819824, 8.655667304992676, 4.078545093536377, 1.1963276863098145, 1.7437785863876343, -1.1453917026519775, -0.2503279149532318, -0.6689453125, -0.17724609375, 0.65234375, 0, 
173, 2469670849, 75.57987213134766, -64.74913024902344, -14.061410903930664, 8.672642707824707, 4.367367744445801, 1.227103590965271, 1.725400447845459, -1.212052583694458, 0.06652016937732697, -0.6689453125, -0.177734375, 0.65478515625, 0, 
174, 2469679182, 75.58075714111328, -64.7520751953125, -14.063135147094727, 9.026948928833008, 4.2303619384765625, 1.04826021194458, 1.52696692943573, -1.3443503379821777, 0.2847534120082855, -0.66748046875, -0.17626953125, 0.6474609375, 0, 
175, 2469687515, 75.57884216308594, -64.75413513183594, -14.062084197998047, 9.363241195678711, 3.8962595462799072, 0.9574269652366638, 1.493335485458374, -1.1819047927856445, 0.21551816165447235, -0.67041015625, -0.1767578125, 0.65869140625, 0, 
176, 2469695848, 75.57852935791016, -64.75114440917969, -14.170783996582031, 9.137664794921875, 3.789907932281494, 0.9706764221191406, 1.6427946090698242, -1.059097409248352, -0.39822450280189514, -0.66796875, -0.17578125, 0.64697265625, 0, 
177, 2469704181, 75.57916259765625, -64.74815368652344, -14.169814109802246, 8.800554275512695, 4.114846229553223, 1.1534675359725952, 1.7889748811721802, -1.0338801145553589, -0.37100934982299805, -0.67041015625, -0.17529296875, 0.6572265625, 0, 
178, 2469712514, 75.58183288574219, -64.74726104736328, -14.090620994567871, 8.608726501464844, 4.310187816619873, 1.1733318567276, 1.6883622407913208, -1.2641777992248535, -0.1961153894662857, -0.666015625, -0.17919921875, 0.65283203125, 0, 
179, 2469720847, 75.58531951904297, -64.74972534179688, -14.372210502624512, 8.971455574035645, 4.229063034057617, 1.1305056810379028, 1.6629528999328613, -1.4244972467422485, 0.1795557737350464, -0.66796875, -0.17626953125, 0.65185546875, 0, 
180, 2469729180, 75.58252716064453, -64.75175476074219, -14.370134353637695, 9.337087631225586, 4.078034400939941, 1.0033721923828125, 1.4925415515899658, -1.1291651725769043, 0.2288631796836853, -0.669921875, -0.17724609375, 0.65478515625, 0, 
181, 2469737513, 75.58248138427734, -64.75108337402344, -14.369458198547363, 9.22901725769043, 3.7620036602020264, 0.9071153998374939, 1.6749788522720337, -1.117574691772461, -0.10604292899370193, -0.6708984375, -0.1748046875, 0.6474609375, 0, 
182, 2469745846, 75.5846176147461, -64.7477035522461, -14.447569847106934, 8.900845527648926, 3.9829328060150146, 1.0704107284545898, 1.7431126832962036, -1.139807939529419, -0.47209596633911133, -0.67041015625, -0.1787109375, 0.65869140625, 0, 
183, 2469754179, 75.58628845214844, -64.74608612060547, -14.448649406433105, 8.531557083129883, 4.325653553009033, 1.2910935878753662, 1.6908340454101562, -1.176154375076294, -0.23721343278884888, -0.66650390625, -0.1767578125, 0.64794921875, 0, 
184, 2469762512, 75.58880615234375, -64.74805450439453, -14.341476440429688, 8.857316017150879, 4.257919788360596, 1.1330727338790894, 1.6675764322280884, -1.3483332395553589, 0.136357381939888, -0.66748046875, -0.17626953125, 0.65625, 0, 
185, 2469770845, 75.59120178222656, -64.7516860961914, -14.434369087219238, 9.20687484741211, 4.205843925476074, 1.0552754402160645, 1.593781590461731, -1.4300938844680786, 0.32464760541915894, -0.669921875, -0.17724609375, 0.6533203125, 0, 
186, 2469779178, 75.58659362792969, -64.7529067993164, -14.430660247802734, 9.393832206726074, 3.9645004272460938, 1.0046807527542114, 1.4570016860961914, -1.0233910083770752, 0.15469716489315033, -0.6689453125, -0.177734375, 0.6494140625, 0, 
187, 2469787511, 75.58578491210938, -64.7506103515625, -14.430813789367676, 9.049210548400879, 3.7676796913146973, 0.9642034769058228, 1.4905307292938232, -1.1109404563903809, -0.3050399124622345, -0.67041015625, -0.17529296875, 0.658203125, 0, 
188, 2469795844, 75.58747100830078, -64.74861907958984, -14.565141677856445, 8.63676643371582, 4.157843589782715, 1.1712473630905151, 1.7231335639953613, -1.1641669273376465, -0.3061925768852234, -0.6669921875, -0.17578125, 0.6484375, 0, 
189, 2469804177, 75.5931625366211, -64.74886322021484, -14.570151329040527, 8.663045883178711, 4.440978050231934, 1.1665263175964355, 1.7472622394561768, -1.4261748790740967, -0.07107950001955032, -0.66943359375, -0.17578125, 0.65576171875, 0, 
190, 2469812510, 75.59526062011719, -64.7519760131836, -14.589624404907227, 9.07594108581543, 4.21108865737915, 1.0697616338729858, 1.445257544517517, -1.4638919830322266, 0.25045597553253174, -0.66845703125, -0.17578125, 0.6455078125, 0, 
191, 2469820843, 75.59584045410156, -64.75446319580078, -14.504488945007324, 9.399066925048828, 3.92934250831604, 0.9824552536010742, 1.5977647304534912, -1.291764259338379, 0.2149290293455124, -0.66845703125, -0.1767578125, 0.65185546875, 0, 
192, 2469829176, 75.59488677978516, -64.75260925292969, -14.503229141235352, 9.158553123474121, 3.867116689682007, 0.956663966178894, 1.6309223175048828, -1.054179310798645, -0.23426778614521027, -0.669921875, -0.17724609375, 0.654296875, 0, 
193, 2469837509, 75.59944915771484, -64.74928283691406, -14.506765365600586, 8.780404090881348, 4.1153059005737305, 1.0959168672561646, 1.7707505226135254, -1.2471827268600464, -0.4683050513267517, -0.666015625, -0.17626953125, 0.6484375, 0, 
194, 2469845842, 75.60310363769531, -64.74935150146484, -14.46370792388916, 8.554931640625, 4.302951335906982, 1.2259403467178345, 1.6915514469146729, -1.3469246625900269, -0.09410670399665833, -0.66943359375, -0.177734375, 0.66015625, 0, 
195, 2469854175, 75.60529327392578, -64.75184631347656, -14.466151237487793, 8.9246826171875, 4.261658668518066, 1.0490015745162964, 1.6048469543457031, -1.3661096096038818, 0.2215247005224228, -0.66796875, -0.17431640625, 0.64599609375, 0, 
196, 2469862508, 75.60420227050781, -64.75481414794922, -14.739242553710938, 9.317659378051758, 4.063302993774414, 0.9788383841514587, 1.426546335220337, -1.3002042770385742, 0.2759805917739868, -0.669921875, -0.17578125, 0.65380859375, 0, 
197, 2469870841, 75.60130310058594, -64.75465393066406, -14.62536334991455, 9.244531631469727, 3.800375461578369, 0.8944618105888367, 1.5356885194778442, -1.052002191543579, -0.04736071825027466, -0.66845703125, -0.1787109375, 0.65380859375, 0, 
198, 2469879174, 75.60405731201172, -64.75227355957031, -14.626994132995605, 8.917579650878906, 4.021430015563965, 1.0118129253387451, 1.761631965637207, -1.182532548904419, -0.334445059299469, -0.66796875, -0.17529296875, 0.6494140625, 0, 
199, 2469887507, 75.60609436035156, -64.7506332397461, -14.628310203552246, 8.590180397033691, 4.300637722015381, 1.2267283201217651, 1.7110052108764648, -1.1864641904830933, -0.24419330060482025, -0.669921875, -0.17626953125, 0.65771484375, 0, 
200, 2469895840, 75.60852813720703, -64.75349426269531, -14.742015838623047, 8.81972885131836, 4.317089080810547, 1.0927150249481201, 1.574046015739441, -1.4172484874725342, 0.23319199681282043, -0.6689453125, -0.17822265625, 0.6416015625, 0, 
201, 2469904173, 75.60990905761719, -64.75680541992188, -14.742834091186523, 9.189034461975098, 4.178553581237793, 1.0185402631759644, 1.6814464330673218, -1.3113590478897095, 0.3392861485481262, -0.6708984375, -0.1748046875, 0.65185546875, 0, 
202, 2469912506, 75.60481262207031, -64.75743865966797, -14.795873641967773, 9.297544479370117, 3.8612236976623535, 0.9344583749771118, 1.4246125221252441, -1.0078561305999756, 0.059578705579042435, -0.6689453125, -0.17724609375, 0.64697265625, 0, 
203, 2469920839, 75.6084213256836, -64.75508880615234, -14.80650520324707, 9.0435791015625, 3.855799674987793, 0.975122332572937, 1.6648739576339722, -1.2812623977661133, -0.37718239426612854, -0.67041015625, -0.17578125, 0.646484375, 0, 
204, 2469929172, 75.60901641845703, -64.75282287597656, -14.805516242980957, 8.65341854095459, 4.246577739715576, 1.174989104270935, 1.7875149250030518, -1.0532957315444946, -0.28709712624549866, -0.67138671875, -0.1787109375, 0.65380859375, 0, 
205, 2469937505, 75.6120376586914, -64.75418853759766, -14.8091459274292, 8.782015800476074, 4.331782817840576, 1.1414176225662231, 1.5755443572998047, -1.392210602760315, 0.07411479204893112, -0.66845703125, -0.177734375, 0.64208984375, 0, 
206, 2469945838, 75.6108169555664, -64.75659942626953, -14.804116249084473, 9.10668659210205, 4.217620372772217, 1.0615012645721436, 1.5291056632995605, -1.2251543998718262, 0.2264426201581955, -0.6708984375, -0.17529296875, 0.65283203125, 0, 
207, 2469954171, 75.6070785522461, -64.75856018066406, -14.801308631896973, 9.37724494934082, 4.046769618988037, 1.0127954483032227, 1.462623953819275, -1.0912816524505615, 0.22873511910438538, -0.66845703125, -0.17724609375, 0.638671875, 0, 
208, 2469962504, 75.60416412353516, -64.75662994384766, -14.814497947692871, 9.12539291381836, 3.8034653663635254, 0.9012276530265808, 1.6515289545059204, -0.9426165819168091, -0.23538200557231903, -0.67236328125, -0.1767578125, 0.650390625, 0, 
209, 2469970837, 75.60603332519531, -64.75479888916016, -14.811029434204102, 8.736886024475098, 4.084225654602051, 1.0898997783660889, 1.710659384727478, -1.1798940896987915, -0.29141315817832947, -0.6708984375, -0.17626953125, 0.650390625, 0, 
210, 2469979170, 75.6043472290039, -64.75463104248047, -14.809121131896973, 8.655948638916016, 4.40183162689209, 1.2216260433197021, 1.6131203174591064, -1.0708543062210083, -0.029943039640784264, -0.673828125, -0.17529296875, 0.6435546875, 0, 
211, 2469987503, 75.60460662841797, -64.7583999633789, -14.809646606445312, 8.98629379272461, 4.194900989532471, 1.0484042167663574, 1.5803982019424438, -1.3090795278549194, 0.3944079577922821, -0.669921875, -0.1767578125, 0.64794921875, 0, 
212, 2469995836, 75.60256958007812, -64.7622299194336, -14.804807662963867, 9.377511978149414, 4.085555076599121, 1.0119332075119019, 1.6030412912368774, -1.1916894912719727, 0.4118000268936157, -0.66845703125, -0.17333984375, 0.64453125, 0, 
213, 2470004169, 75.59797668457031, -64.76124572753906, -14.800591468811035, 9.254292488098145, 3.890237331390381, 0.9435684084892273, 1.5112015008926392, -0.9307700395584106, -0.0963863730430603, -0.673828125, -0.17822265625, 0.654296875, 0, 
214, 2470012502, 75.59900665283203, -64.75833892822266, -14.794346809387207, 8.918980598449707, 3.91618275642395, 1.0144908428192139, 1.691499948501587, -1.1148595809936523, -0.4012982249259949, -0.66943359375, -0.17626953125, 0.64599609375, 0, 
215, 2470020835, 75.60003662109375, -64.75748443603516, -14.793742179870605, 8.579704284667969, 4.254589080810547, 1.2264779806137085, 1.877920389175415, -1.0902186632156372, -0.14559130370616913, -0.671875, -0.1767578125, 0.64892578125, 0, 
216, 2470029168, 75.60334777832031, -64.76016235351562, -14.797612190246582, 8.838748931884766, 4.367743492126465, 1.130887746810913, 1.5843427181243896, -1.4430674314498901, 0.22648105025291443, -0.6689453125, -0.173828125, 0.65283203125, 0, 
217, 2470037501, 75.60161590576172, -64.76305389404297, -14.796688079833984, 9.218260765075684, 4.1304240226745605, 0.9531605839729309, 1.499137282371521, -1.2115533351898193, 0.3136079013347626, -0.669921875, -0.17578125, 0.64306640625, 0, 
218, 2470045834, 75.59770965576172, -64.76470184326172, -14.762236595153809, 9.28370475769043, 3.8358004093170166, 0.9570069313049316, 1.5024925470352173, -1.0672938823699951, 0.17190991342067719, -0.6728515625, -0.17626953125, 0.65380859375, 0, 
219, 2470054167, 75.59883880615234, -64.76268005371094, -14.762405395507812, 9.034236907958984, 3.929795980453491, 0.9842010736465454, 1.7230311632156372, -1.1187783479690552, -0.27161332964897156, -0.6689453125, -0.1767578125, 0.646484375, 0, 
220, 2470062500, 75.59701538085938, -64.7607421875, -14.753347396850586, 8.635427474975586, 4.208151340484619, 1.1932096481323242, 1.5991222858428955, -1.0278352499008179, -0.2604583501815796, -0.67041015625, -0.17626953125, 0.65185546875, 0, 
221, 2470070833, 75.59724426269531, -64.7625732421875, -14.745891571044922, 8.734315872192383, 4.287179946899414, 1.1797380447387695, 1.5364316701889038, -1.2810193300247192, 0.1409679502248764, -0.67041015625, -0.17822265625, 0.65380859375, 0, 
222, 2470079166, 75.59603118896484, -64.7659912109375, -14.744904518127441, 9.101244926452637, 4.236788272857666, 1.0068225860595703, 1.568231463432312, -1.2230156660079956, 0.37560713291168213, -0.669921875, -0.17626953125, 0.64453125, 0, 
223, 2470087499, 75.59343719482422, -64.76850891113281, -14.742198944091797, 9.357446670532227, 4.037354946136475, 0.9769610166549683, 1.5904645919799805, -1.1120035648345947, 0.289850652217865, -0.6708984375, -0.177734375, 0.65380859375, 0, 
224, 2470095832, 75.59266662597656, -64.76749420166016, -14.710979461669922, 9.080294609069824, 3.777019500732422, 0.9402431845664978, 1.5726627111434937, -1.1256815195083618, -0.16688953340053558, -0.66845703125, -0.17529296875, 0.64501953125, 0, 
225, 2470104165, 75.59302520751953, -64.7659683227539, -14.710352897644043, 8.708921432495117, 4.0488057136535645, 1.146340012550354, 1.7173703908920288, -1.0939072370529175, -0.20527248084545135, -0.67236328125, -0.17724609375, 0.6513671875, 0, 
226, 2470112498, 75.59156036376953, -64.76641082763672, -14.714083671569824, 8.60804557800293, 4.357626914978027, 1.2477303743362427, 1.5703316926956177, -1.131982684135437, 0.007043914403766394, -0.66796875, -0.17724609375, 0.6494140625, 0, 
227, 2470120831, 75.5918197631836, -64.76887512207031, -14.703181266784668, 9.011616706848145, 4.242403030395508, 1.113693118095398, 1.4165953397750854, -1.357720971107483, 0.2032233476638794, -0.669921875, -0.17578125, 0.646484375, 0, 
228, 2470129164, 75.59033203125, -64.77122497558594, -14.702786445617676, 9.363493919372559, 4.080226421356201, 1.0093448162078857, 1.471384048461914, -1.221299648284912, 0.2403639703989029, -0.67041015625, -0.17578125, 0.65380859375, 0, 
229, 2470137497, 75.5858383178711, -64.77127838134766, -14.698638916015625, 9.193082809448242, 3.7956771850585938, 0.9538670778274536, 1.5184246301651, -0.9669886231422424, 0.022041048854589462, -0.669921875, -0.17578125, 0.64208984375, 0, 
230, 2470145830, 75.58639526367188, -64.7683334350586, -14.681561470031738, 8.846197128295898, 3.9766805171966553, 1.0781291723251343, 1.7914981842041016, -1.0399636030197144, -0.3861858546733856, -0.671875, -0.17578125, 0.654296875, 0, 
231, 2470154163, 75.58744049072266, -64.76747131347656, -14.682282447814941, 8.520710945129395, 4.322184085845947, 1.2686678171157837, 1.6547691822052002, -1.1796635389328003, -0.1441056877374649, -0.66845703125, -0.17578125, 0.646484375, 0, 
232, 2470162496, 75.58893585205078, -64.77021026611328, -14.673784255981445, 8.795013427734375, 4.261621952056885, 1.1165575981140137, 1.573853850364685, -1.3598084449768066, 0.2329230010509491, -0.66845703125, -0.177734375, 0.64990234375, 0, 
233, 2470170829, 75.58990478515625, -64.77367401123047, -14.67105484008789, 9.258394241333008, 4.122589588165283, 1.0300313234329224, 1.443861722946167, -1.4141619205474854, 0.3118661344051361, -0.66943359375, -0.17578125, 0.65087890625, 0, 
234, 2470179162, 75.5865707397461, -64.77384948730469, -14.667677879333496, 9.354364395141602, 3.9361066818237305, 1.0300922393798828, 1.5727523565292358, -1.0091495513916016, 0.02575511299073696, -0.669921875, -0.17529296875, 0.64501953125, 0, 
235, 2470187495, 75.58792877197266, -64.77156066894531, -14.669098854064941, 9.028753280639648, 3.8118300437927246, 0.9631468057632446, 1.6161044836044312, -1.1724276542663574, -0.31893569231033325, -0.67236328125, -0.177734375, 0.654296875, 0, 
236, 2470195828, 75.59043884277344, -64.76837921142578, -14.793808937072754, 8.624490737915039, 4.172605514526367, 1.1870784759521484, 1.798119306564331, -1.1380019187927246, -0.44175583124160767, -0.6669921875, -0.17626953125, 0.6455078125, 0, 
237, 2470204161, 75.59293365478516, -64.76876068115234, -14.796083450317383, 8.646029472351074, 4.413158893585205, 1.228497862815857, 1.6598280668258667, -1.295324683189392, -0.021221395581960678, -0.669921875, -0.1767578125, 0.65234375, 0, 
238, 2470212494, 75.59407806396484, -64.77136993408203, -14.846715927124023, 9.087203025817871, 4.18025016784668, 1.0055807828903198, 1.4961403608322144, -1.3767651319503784, 0.21401973068714142, -0.6689453125, -0.177734375, 0.64697265625, 0, 
239, 2470220827, 75.59210205078125, -64.77269744873047, -14.824519157409668, 9.365653038024902, 3.9203736782073975, 0.9112306237220764, 1.4199891090393066, -1.196620225906372, 0.10531292110681534, -0.671875, -0.17578125, 0.6474609375, 0, 
240, 2470229160, 75.59071350097656, -64.77088928222656, -14.82325267791748, 9.150640487670898, 3.8403232097625732, 1.0343016386032104, 1.5800269842147827, -1.0544099807739258, -0.23101480305194855, -0.66845703125, -0.17626953125, 0.6533203125, 0, 
241, 2470237493, 75.59337615966797, -64.76781463623047, -14.824722290039062, 8.759961128234863, 4.028517246246338, 1.1112170219421387, 1.7644364833831787, -1.1530117988586426, -0.4107114374637604, -0.66943359375, -0.17578125, 0.64599609375, 0, 
242, 2470245826, 75.59609985351562, -64.76644134521484, -14.72766399383545, 8.658988952636719, 4.309933662414551, 1.1879327297210693, 1.7719672918319702, -1.2136921882629395, -0.23963399231433868, -0.67138671875, -0.1767578125, 0.65576171875, 0, 
243, 2470254159, 75.59903717041016, -64.76773071289062, -14.730984687805176, 8.966883659362793, 4.325575351715088, 1.1364531517028809, 1.59893000125885, -1.3749208450317383, 0.07134844362735748, -0.66748046875, -0.17724609375, 0.64599609375, 0, 
244, 2470262492, 75.59821319580078, -64.7709732055664, -14.730319023132324, 9.354095458984375, 4.095698833465576, 1.0067156553268433, 1.381798267364502, -1.340392827987671, 0.30218392610549927, -0.67236328125, -0.17431640625, 0.65283203125, 0, 
245, 2470270825, 75.5963134765625, -64.77072143554688, -14.807443618774414, 9.225321769714355, 3.752443790435791, 0.8594487905502319, 1.7405256032943726, -1.0112500190734863, -0.04262208566069603, -0.66943359375, -0.17578125, 0.65478515625, 0, 
246, 2470279158, 75.60047149658203, -64.76683044433594, -14.809942245483398, 8.847189903259277, 4.036232948303223, 1.0600128173828125, 1.8337615728378296, -1.179023265838623, -0.5195335149765015, -0.6689453125, -0.17626953125, 0.64892578125, 0, 
247, 2470287491, 75.60265350341797, -64.7661361694336, -14.811147689819336, 8.57021713256836, 4.352783203125, 1.2825318574905396, 1.7381178140640259, -1.2112971544265747, -0.13357822597026825, -0.66943359375, -0.17529296875, 0.66015625, 0, 
248, 2470295824, 75.60842895507812, -64.76850891113281, -14.86143970489502, 8.848939895629883, 4.181556701660156, 1.0817294120788574, 1.6886568069458008, -1.530886173248291, 0.14872907102108002, -0.666015625, -0.1767578125, 0.64697265625, 0, 
249, 2470304157, 75.61156463623047, -64.77115631103516, -14.86569881439209, 9.283833503723145, 4.214547157287598, 1.0495095252990723, 1.519910216331482, -1.4600114822387695, 0.21540293097496033, -0.6708984375, -0.1767578125, 0.6572265625, 0, 
250, 2470312490, 75.608154296875, -64.77274322509766, -14.888654708862305, 9.375556945800781, 3.9714112281799316, 0.9894214272499084, 1.5067188739776611, -1.0909101963043213, 0.16309863328933716, -0.66748046875, -0.17529296875, 0.65087890625, 0, 
251, 2470320823, 75.60950469970703, -64.76947784423828, -14.873563766479492, 9.066420555114746, 3.748711585998535, 0.9173548817634583, 1.720802664756775, -1.109890341758728, -0.4421529173851013, -0.66845703125, -0.17529296875, 0.64990234375, 0, 
252, 2470329156, 75.6103744506836, -64.76654052734375, -14.873753547668457, 8.617873191833496, 4.20911979675293, 1.1805123090744019, 1.6878628730773926, -1.0929337739944458, -0.38047388195991516, -0.66796875, -0.17626953125, 0.65576171875, 0, 
253, 2470337489, 75.61363983154297, -64.76679992675781, -14.877065658569336, 8.65903091430664, 4.457433223724365, 1.152206540107727, 1.6404763460159302, -1.3436458110809326, -0.04841089993715286, -0.6669921875, -0.17724609375, 0.6474609375, 0, 
254, 2470345822, 75.61260986328125, -64.77033233642578, -14.976551055908203, 9.08493423461914, 4.18316125869751, 0.9960760474205017, 1.5194107294082642, -1.269351840019226, 0.3613399863243103, -0.669921875, -0.17578125, 0.65625, 0, 
255, 2470354155, 75.61202239990234, -64.77336120605469, -14.9757719039917, 9.367386817932129, 4.009165287017822, 0.9966549873352051, 1.6218420267105103, -1.2225289344787598, 0.32645338773727417, -0.66650390625, -0.17724609375, 0.6474609375, 0, 
256, 2470362488, 75.6103744506836, -64.77229309082031, -14.933426856994629, 9.177979469299316, 3.868060350418091, 0.9681903123855591, 1.5751088857650757, -1.0760027170181274, -0.16441777348518372, -0.66943359375, -0.1767578125, 0.65478515625, 0, 
257, 2470370821, 75.61141204833984, -64.76998138427734, -14.951038360595703, 8.773737907409668, 4.021985054016113, 1.074657917022705, 1.7461351156234741, -1.1072520017623901, -0.3237382769584656, -0.66943359375, -0.17578125, 0.65380859375, 0, 
258, 2470379154, 75.61583709716797, -64.76914978027344, -14.954526901245117, 8.588783264160156, 4.338174343109131, 1.227962613105774, 1.758890986442566, -1.3198246955871582, -0.17858241498470306, -0.66845703125, -0.17529296875, 0.6474609375, 0, 
259, 2470387487, 75.6168441772461, -64.77075958251953, -14.956045150756836, 8.914090156555176, 4.284504413604736, 1.0843180418014526, 1.5647863149642944, -1.2932883501052856, 0.13256646692752838, -0.67041015625, -0.17578125, 0.6591796875, 0, 
260, 2470395820, 75.61503601074219, -64.77457427978516, -14.903160095214844, 9.301606178283691, 4.048923015594482, 0.9874981641769409, 1.523637056350708, -1.2359508275985718, 0.4038340151309967, -0.66943359375, -0.1748046875, 0.64794921875, 0, 
261, 2470404153, 75.61107635498047, -64.77510070800781, -14.899325370788574, 9.260895729064941, 3.8568153381347656, 0.9343704581260681, 1.5467283725738525, -0.996188759803772, 0.07104107737541199, -0.669921875, -0.1748046875, 0.65625, 0, 
262, 2470412486, 75.60980987548828, -64.77359771728516, -14.94852352142334, 8.894294738769531, 3.9526193141937256, 0.9895989894866943, 1.5976239442825317, -1.0728521347045898, -0.20547740161418915, -0.66796875, -0.17724609375, 0.6533203125, 0, 
263, 2470420819, 75.6104736328125, -64.77283477783203, -15.06983757019043, 8.609402656555176, 4.273470401763916, 1.2219985723495483, 1.82484769821167, -1.095751404762268, -0.13273295760154724, -0.669921875, -0.1767578125, 0.6513671875, 0, 
264, 2470429152, 75.61194610595703, -64.77493286132812, -15.071561813354492, 8.7861909866333, 4.32274055480957, 1.1437417268753052, 1.5992118120193481, -1.320593237876892, 0.18384616076946259, -0.66845703125, -0.1767578125, 0.65673828125, 0, 
265, 2470437485, 75.6121597290039, -64.77889251708984, -15.07242488861084, 9.207697868347168, 4.168774604797363, 1.0088249444961548, 1.5339213609695435, -1.3310949802398682, 0.41529637575149536, -0.66845703125, -0.17724609375, 0.6455078125, 0, 
266, 2470445818, 75.6070785522461, -64.78012084960938, -15.288321495056152, 9.329093933105469, 3.839966058731079, 0.9540959000587463, 1.473753571510315, -1.0047951936721802, 0.1405581384897232, -0.66943359375, -0.17724609375, 0.6591796875, 0, 
267, 2470454151, 75.61197662353516, -64.77750396728516, -15.29236125946045, 9.018392562866211, 3.878626823425293, 0.9954074025154114, 1.756585717201233, -1.2925965785980225, -0.3923076093196869, -0.66845703125, -0.17578125, 0.64794921875, 0, 
268, 2470462484, 75.61197662353516, -64.77497863769531, -15.047759056091309, 8.599244117736816, 4.244527339935303, 1.2277891635894775, 1.7747207880020142, -1.0353786945343018, -0.32811838388442993, -0.66943359375, -0.17724609375, 0.65478515625, 0, 
269, 2470470817, 75.61377716064453, -64.7762680053711, -15.029815673828125, 8.662559509277344, 4.263142108917236, 1.1711901426315308, 1.6948938369750977, -1.2801353931427002, 0.07773920148611069, -0.666015625, -0.17626953125, 0.6552734375, 0, 
270, 2470479150, 75.61567687988281, -64.7803955078125, -15.031846046447754, 9.136382102966309, 4.18144416809082, 1.0378564596176147, 1.61720609664917, -1.3938370943069458, 0.4197661280632019, -0.66796875, -0.1748046875, 0.6484375, 0, 
271, 2470487483, 75.61295318603516, -64.7822265625, -15.029672622680664, 9.42846393585205, 4.0647358894348145, 1.0062249898910522, 1.5121620893478394, -1.1192268133163452, 0.2041710764169693, -0.6689453125, -0.17724609375, 0.6572265625, 0, 
272, 2470495816, 75.60784912109375, -64.78148651123047, -14.953753471374512, 9.191018104553223, 3.7441725730895996, 0.8952426314353943, 1.6043730974197388, -0.8856762051582336, -0.06940176337957382, -0.66650390625, -0.17626953125, 0.6484375, 0, 
273, 2470504149, 75.60896301269531, -64.77937316894531, -14.954299926757812, 8.769471168518066, 4.029134273529053, 1.0825387239456177, 1.6824452877044678, -1.1336731910705566, -0.28824979066848755, -0.669921875, -0.1787109375, 0.658203125, 0, 
274, 2470512482, 75.60948944091797, -64.77899169921875, -14.863912582397461, 8.551043510437012, 4.419017791748047, 1.2826348543167114, 1.720200777053833, -1.1472488641738892, -0.09860199689865112, -0.666015625, -0.17626953125, 0.6513671875, 0, 
275, 2470520815, 75.60848236083984, -64.78214263916016, -14.806222915649414, 8.942476272583008, 4.21082878112793, 1.0337728261947632, 1.513967752456665, -1.2659834623336792, 0.31501665711402893, -0.66845703125, -0.17578125, 0.64990234375, 0, 
276, 2470529148, 75.60990142822266, -64.7855453491211, -14.80897045135498, 9.324881553649902, 4.0612006187438965, 1.008140206336975, 1.4790043830871582, -1.4082194566726685, 0.3253392279148102, -0.66845703125, -0.17431640625, 0.65283203125, 0, 
277, 2470537481, 75.60546112060547, -64.78504180908203, -14.804712295532227, 9.318971633911133, 3.9060213565826416, 0.9930530190467834, 1.536226749420166, -0.9442944526672363, -0.041341379284858704, -0.66796875, -0.1767578125, 0.64794921875, 0, 
278, 2470545814, 75.60628509521484, -64.78115844726562, -14.712616920471191, 8.933926582336426, 3.8670690059661865, 0.9972342252731323, 1.6177568435668945, -1.106483817100525, -0.5164598226547241, -0.66796875, -0.17626953125, 0.65283203125, 0, 
279, 2470554147, 75.6064224243164, -64.77981567382812, -14.71102523803711, 8.58710765838623, 4.257639408111572, 1.2393299341201782, 1.7968257665634155, -1.0531803369522095, -0.17000167071819305, -0.66455078125, -0.17724609375, 0.64697265625, 0, 
280, 2470562480, 75.60904693603516, -64.78162384033203, -14.70224666595459, 8.78271770477295, 4.386842727661133, 1.1407185792922974, 1.5649272203445435, -1.398703694343567, 0.11042296141386032, -0.66845703125, -0.17578125, 0.6533203125, 0, 
281, 2470570813, 75.607421875, -64.78468322753906, -14.695310592651367, 9.21210765838623, 4.130736351013184, 1.0126925706863403, 1.391634225845337, -1.2837086915969849, 0.3009544610977173, -0.67041015625, -0.177734375, 0.6552734375, 0, 
282, 2470579146, 75.60453796386719, -64.78538513183594, -14.692705154418945, 9.368239402770996, 3.835798501968384, 0.9551026225090027, 1.5451403856277466, -1.0622735023498535, 0.07823868095874786, -0.66943359375, -0.1748046875, 0.64892578125, 0, 
283, 2470587479, 75.60529327392578, -64.78352355957031, -14.693982124328613, 9.052669525146484, 3.9528496265411377, 0.9812489151954651, 1.5579986572265625, -1.1794073581695557, -0.26889821887016296, -0.66845703125, -0.17724609375, 0.65771484375, 0, 
284, 2470595812, 75.6038818359375, -64.78089904785156, -14.747370719909668, 8.646560668945312, 4.219751834869385, 1.1806646585464478, 1.6460474729537964, -1.0087780952453613, -0.33763402700424194, -0.6669921875, -0.17724609375, 0.64794921875, 0, 
285, 2470604145, 75.60810089111328, -64.7820816040039, -14.750699996948242, 8.679630279541016, 4.29154109954834, 1.2388660907745361, 1.7500925064086914, -1.369400978088379, 0.06149977818131447, -0.66943359375, -0.17724609375, 0.65478515625, 0, 
286, 2470612478, 75.60913848876953, -64.78488159179688, -14.74734878540039, 9.111282348632812, 4.23419189453125, 1.0825237035751343, 1.6099954843521118, -1.3235644102096558, 0.25666746497154236, -0.6669921875, -0.17578125, 0.650390625, 0, 
287, 2470620811, 75.6081314086914, -64.78722381591797, -14.777068138122559, 9.387382507324219, 3.99711275100708, 0.9424701929092407, 1.4764171838760376, -1.2588114738464355, 0.21560780704021454, -0.6689453125, -0.1767578125, 0.650390625, 0, 
288, 2470629144, 75.60774993896484, -64.7855224609375, -14.776298522949219, 9.112466812133789, 3.7737088203430176, 0.9857524633407593, 1.6455737352371216, -1.080331563949585, -0.22543087601661682, -0.66748046875, -0.17431640625, 0.65673828125, 0, 
289, 2470637477, 75.60894012451172, -64.78233337402344, -14.776247024536133, 8.751083374023438, 4.088082313537598, 1.1447632312774658, 1.7547800540924072, -1.074145793914795, -0.40674126148223877, -0.66943359375, -0.17529296875, 0.6474609375, 0, 
290, 2470645810, 75.61104583740234, -64.78238677978516, -14.847757339477539, 8.555315017700195, 4.355671405792236, 1.2340947389602661, 1.7231720685958862, -1.24742591381073, -0.06212732195854187, -0.67041015625, -0.1787109375, 0.65869140625, 0, 
291, 2470654143, 75.61459350585938, -64.78549194335938, -14.851800918579102, 8.969264030456543, 4.2588043212890625, 1.0746290683746338, 1.5934487581253052, -1.462316632270813, 0.27265071868896484, -0.66748046875, -0.17626953125, 0.6474609375, 0, 
292, 2470662476, 75.61483764648438, -64.78937530517578, -14.975635528564453, 9.327291488647461, 4.139665126800537, 1.0539602041244507, 1.5105098485946655, -1.357682466506958, 0.38630104064941406, -0.67236328125, -0.1748046875, 0.65380859375, 0, 
293, 2470670809, 75.61157989501953, -64.7892837524414, -14.942845344543457, 9.233171463012695, 3.773599624633789, 0.9604716300964355, 1.4736251831054688, -1.0646812915802002, -0.036653969436883926, -0.66845703125, -0.17626953125, 0.6533203125, 0, 
294, 2470679142, 75.6115951538086, -64.78614807128906, -14.942030906677246, 8.884160995483398, 3.9362688064575195, 1.0125925540924072, 1.695214033126831, -1.0378631353378296, -0.38933637738227844, -0.66748046875, -0.17529296875, 0.64892578125, 0, 
295, 2470687475, 75.61338806152344, -64.78448486328125, -14.94269847869873, 8.530932426452637, 4.334465980529785, 1.2941457033157349, 1.7489782571792603, -1.1549714803695679, -0.23562534153461456, -0.66943359375, -0.17529296875, 0.65771484375, 0, 
296, 2470695808, 75.61658477783203, -64.78703308105469, -14.878851890563965, 8.774385452270508, 4.253687858581543, 1.0962178707122803, 1.544730544090271, -1.4644683599472046, 0.18425600230693817, -0.66796875, -0.1748046875, 0.64453125, 0, 
297, 2470704141, 75.61880493164062, -64.78939056396484, -14.881848335266113, 9.225526809692383, 4.10020637512207, 1.0289762020111084, 1.5478169918060303, -1.389585018157959, 0.20158401131629944, -0.67236328125, -0.17626953125, 0.65185546875, 0, 
298, 2470712474, 75.61339569091797, -64.78986358642578, -15.006449699401855, 9.356451034545898, 3.924090623855591, 0.9990943670272827, 1.527094841003418, -0.9373400807380676, 0.06869737803936005, -0.669921875, -0.17724609375, 0.650390625, 0, 
299, 2470720807, 75.61503601074219, -64.78813171386719, -15.019721031188965, 9.0271635055542, 3.847705602645874, 0.9677830934524536, 1.6234301328659058, -1.2126673460006714, -0.2766977846622467, -0.671875, -0.17578125, 0.64501953125, 0, 
300, 2470729140, 75.61736297607422, -64.78611755371094, -15.020256996154785, 8.619217872619629, 4.181755542755127, 1.143001914024353, 1.827998161315918, -1.139039397239685, -0.27640318870544434, -0.66748046875, -0.17578125, 0.65478515625, 0, 
301, 2470737473, 75.62110900878906, -64.78653717041016, -15.023894309997559, 8.643003463745117, 4.378285884857178, 1.192563533782959, 1.6627863645553589, -1.362753987312317, -0.034246232360601425, -0.6708984375, -0.17529296875, 0.642578125, 0, 
302, 2470745806, 75.62124633789062, -64.78999328613281, -14.957929611206055, 9.064692497253418, 4.170958042144775, 0.9707842469215393, 1.557691216468811, -1.317596197128296, 0.34068211913108826, -0.66943359375, -0.17578125, 0.646484375, 0, 
303, 2470754139, 75.62166595458984, -64.79230499267578, -14.959183692932129, 9.365781784057617, 3.9627442359924316, 0.9051179885864258, 1.5209860801696777, -1.3026118278503418, 0.2174520343542099, -0.66796875, -0.173828125, 0.6455078125, 0, 
304, 2470762472, 75.61991119384766, -64.7906265258789, -14.947765350341797, 9.133541107177734, 3.874027967453003, 0.9951997995376587, 1.5935895442962646, -1.0476605892181396, -0.22626332938671112, -0.67041015625, -0.17529296875, 0.64453125, 0, 
305, 2470770805, 75.6241226196289, -64.78744506835938, -14.94311237335205, 8.79990005493164, 4.079529762268066, 1.1250499486923218, 1.7377208471298218, -1.2603100538253784, -0.4661918580532074, -0.67041015625, -0.1787109375, 0.65234375, 0, 
306, 2470779138, 75.6270980834961, -64.78829193115234, -14.945981979370117, 8.665674209594727, 4.321811676025391, 1.189456820487976, 1.6516826152801514, -1.3375113010406494, 0.027048632502555847, -0.67041015625, -0.17578125, 0.646484375, 0, 
307, 2470787471, 75.62879943847656, -64.79035186767578, -14.94830322265625, 8.9995756149292, 4.2944512367248535, 1.0838770866394043, 1.5598299503326416, -1.3481411933898926, 0.17315223813056946, -0.67041015625, -0.177734375, 0.654296875, 0, 
308, 2470795804, 75.625732421875, -64.79181671142578, -14.93881893157959, 9.362089157104492, 4.030817985534668, 0.976790189743042, 1.4216796159744263, -1.1437525749206543, 0.1376124769449234, -0.6708984375, -0.17529296875, 0.6435546875, 0, 
309, 2470804137, 75.62191009521484, -64.79026794433594, -14.93528938293457, 9.187628746032715, 3.7787320613861084, 0.8851454257965088, 1.5324355363845825, -0.9498014450073242, -0.17053957283496857, -0.671875, -0.17626953125, 0.65380859375, 0, 
310, 2470812470, 75.62582397460938, -64.78730010986328, -14.931791305541992, 8.862931251525879, 4.051276683807373, 1.0784800052642822, 1.7370805740356445, -1.2506023645401, -0.43609514832496643, -0.66796875, -0.17578125, 0.6494140625, 0, 
311, 2470820803, 75.62653350830078, -64.78662872314453, -14.917614936828613, 8.63793659210205, 4.300435543060303, 1.2411293983459473, 1.7086230516433716, -1.155522108078003, -0.12928785383701324, -0.67138671875, -0.17578125, 0.64794921875, 0, 
312, 2470829136, 75.63154602050781, -64.78911590576172, -14.92333984375, 8.89356517791748, 4.197944641113281, 1.0531247854232788, 1.5878136157989502, -1.5289134979248047, 0.18056753277778625, -0.66748046875, -0.17724609375, 0.6533203125, 0, 
313, 2470837469, 75.63131713867188, -64.79369354248047, -14.924347877502441, 9.260435104370117, 4.228724002838135, 1.0086379051208496, 1.472856879234314, -1.3575289249420166, 0.4811505973339081, -0.669921875, -0.17529296875, 0.642578125, 0, 
314, 2470845802, 75.62615203857422, -64.795166015625, -14.965699195861816, 9.380597114562988, 3.9249353408813477, 0.9579950571060181, 1.4370993375778198, -1.0218799114227295, 0.17126956582069397, -0.6728515625, -0.17822265625, 0.65380859375, 0, 
315, 2470854135, 75.62850952148438, -64.79302978515625, -14.967999458312988, 9.024070739746094, 3.7810733318328857, 0.9767816066741943, 1.6407840251922607, -1.2213380336761475, -0.313338965177536, -0.669921875, -0.17822265625, 0.646484375, 0, 
316, 2470862468, 75.63099670410156, -64.7904052734375, -14.966105461120605, 8.595390319824219, 4.256920337677002, 1.20676851272583, 1.8428800106048584, -1.1351202726364136, -0.36620667576789856, -0.6708984375, -0.1767578125, 0.650390625, 0, 
317, 2470870801, 75.63392639160156, -64.7920150756836, -14.988319396972656, 8.722615242004395, 4.390231609344482, 1.1565297842025757, 1.7345318794250488, -1.32955801486969, 0.11189578473567963, -0.669921875, -0.17578125, 0.6533203125, 0, 
318, 2470879134, 75.6343994140625, -64.79561614990234, -14.98985767364502, 9.141365051269531, 4.117722511291504, 0.9692901372909546, 1.4943472146987915, -1.3544294834136963, 0.3643496632575989, -0.669921875, -0.17431640625, 0.6455078125, 0, 
319, 2470887467, 75.63087463378906, -64.79757690429688, -14.986798286437988, 9.395522117614746, 3.9860310554504395, 0.9543066620826721, 1.5166062116622925, -1.0795376300811768, 0.23082269728183746, -0.669921875, -0.17822265625, 0.65576171875, 0, 
320, 2470895800, 75.62577819824219, -64.79612731933594, -14.957695960998535, 9.148841857910156, 3.844956636428833, 0.9728316068649292, 1.545908808708191, -0.8901203274726868, -0.1561443954706192, -0.66796875, -0.17578125, 0.64453125, 0, 
321, 2470904133, 75.62797546386719, -64.7933578491211, -14.958785057067871, 8.761041641235352, 4.066644668579102, 1.0863277912139893, 1.752846121788025, -1.1411396265029907, -0.37237969040870667, -0.67236328125, -0.17626953125, 0.65234375, 0, 
322, 2470912466, 75.62806701660156, -64.79327392578125, -14.948623657226562, 8.614992141723633, 4.345126152038574, 1.1928969621658325, 1.624365210533142, -1.1791257858276367, -0.06334400177001953, -0.6689453125, -0.17724609375, 0.65185546875, 0, 
323, 2470920799, 75.62840270996094, -64.7961654663086, -14.958304405212402, 8.939468383789062, 4.2415032386779785, 1.0135493278503418, 1.4660946130752563, -1.3502287864685059, 0.26481276750564575, -0.6689453125, -0.17626953125, 0.64697265625, 0, 
324, 2470929132, 75.62890625, -64.79963684082031, -14.959903717041016, 9.284879684448242, 4.054805278778076, 0.9844173789024353, 1.4950131177902222, -1.3527389764785767, 0.3458561599254608, -0.66943359375, -0.17529296875, 0.6513671875, 0, 
325, 2470937465, 75.62472534179688, -64.79901123046875, -14.955924034118652, 9.173600196838379, 3.8466408252716064, 0.9499915838241577, 1.5348690748214722, -0.955359697341919, -0.05816993489861488, -0.6689453125, -0.1767578125, 0.64306640625, 0, 
326, 2470945798, 75.62674713134766, -64.7961654663086, -14.925643920898438, 8.89787483215332, 3.955763578414917, 1.047031283378601, 1.7242605686187744, -1.1586854457855225, -0.4007859230041504, -0.67236328125, -0.177734375, 0.65478515625, 0, 
327, 2470954131, 75.62835693359375, -64.79545593261719, -14.926031112670898, 8.626054763793945, 4.271481990814209, 1.2381765842437744, 1.7589166164398193, -1.1676760911941528, -0.12387043237686157, -0.66748046875, -0.17529296875, 0.64453125, 0, 
328, 2470962464, 75.62957000732422, -64.79741668701172, -14.935256958007812, 8.839188575744629, 4.3267388343811035, 1.1505855321884155, 1.5685900449752808, -1.3262922763824463, 0.15537594258785248, -0.671875, -0.1767578125, 0.65087890625, 0, 
329, 2470970797, 75.6259994506836, -64.80106353759766, -14.930351257324219, 9.211833000183105, 4.121290683746338, 0.9842595458030701, 1.3782508373260498, -1.201422929763794, 0.3980708718299866, -0.66943359375, -0.17626953125, 0.6494140625, 0, 
330, 2470979130, 75.62236785888672, -64.80106353759766, -14.927409172058105, 9.197869300842285, 3.7859113216400146, 0.9395864605903625, 1.4922853708267212, -1.0270155668258667, -0.000038421352655859664, -0.66943359375, -0.17626953125, 0.64453125, 0, 
331, 2470987463, 75.62516784667969, -64.7978744506836, -14.930020332336426, 8.939884185791016, 3.966176748275757, 1.027649164199829, 1.6597511768341064, -1.2037793397903442, -0.44009098410606384, -0.6728515625, -0.1767578125, 0.6533203125, 0, 
332, 2470995796, 75.62126922607422, -64.79718780517578, -14.913841247558594, 8.602524757385254, 4.265157699584961, 1.228148341178894, 1.6790258884429932, -0.9161443710327148, -0.0686461478471756, -0.66845703125, -0.17626953125, 0.64794921875, 0, 
333, 2471004129, 75.62307739257812, -64.7978744506836, -14.915709495544434, 8.75068473815918, 4.239138603210449, 1.12204110622406, 1.6212272644042969, -1.2845410108566284, 0.02156718447804451, -0.669921875, -0.1767578125, 0.65283203125, 0, 
334, 2471012462, 75.6227035522461, -64.80128479003906, -14.88861083984375, 9.180339813232422, 4.204588890075684, 1.084382176399231, 1.6318827867507935, -1.2540345191955566, 0.35273364186286926, -0.66943359375, -0.17529296875, 0.6494140625, 0, 
335, 2471020795, 75.616455078125, -64.8031997680664, -14.923118591308594, 9.3485107421875, 3.9982969760894775, 1.0166102647781372, 1.3986783027648926, -0.996496319770813, 0.23584307730197906, -0.671875, -0.17626953125, 0.64892578125, 0, 
336, 2471029128, 75.61473083496094, -64.80104064941406, -14.920377731323242, 9.092008590698242, 3.71114444732666, 0.963843584060669, 1.6951884031295776, -0.971086859703064, -0.2513524889945984, -0.669921875, -0.177734375, 0.6552734375, 0, 
337, 2471037461, 75.61658477783203, -64.79861450195312, -14.920494079589844, 8.651533126831055, 4.1398773193359375, 1.1736632585525513, 1.8178294897079468, -1.103743076324463, -0.3192814290523529, -0.669921875, -0.17724609375, 0.64404296875, 0, 
338, 2471045794, 75.61640167236328, -64.79838562011719, -14.913714408874512, 8.57337760925293, 4.408063888549805, 1.2195087671279907, 1.6837644577026367, -1.1317905187606812, -0.06587980687618256, -0.67138671875, -0.1767578125, 0.6552734375, 0, 
339, 2471054127, 75.61734008789062, -64.80111694335938, -14.915403366088867, 9.012652397155762, 4.175666332244873, 0.9941016435623169, 1.5364826917648315, -1.3349369764328003, 0.2584604024887085, -0.6669921875, -0.17724609375, 0.646484375, 0, 
340, 2471062460, 75.61710357666016, -64.80411529541016, -14.930455207824707, 9.375641822814941, 4.062191486358643, 0.9825664758682251, 1.52608323097229, -1.299794316291809, 0.2911185622215271, -0.67041015625, -0.17529296875, 0.6533203125, 0, 
341, 2471070793, 75.6119384765625, -64.80252838134766, -14.940810203552246, 9.20102596282959, 3.841744899749756, 0.9883049726486206, 1.4892243146896362, -0.9086393117904663, -0.17468908429145813, -0.66845703125, -0.17822265625, 0.65478515625, 0, 
342, 2471079126, 75.6148910522461, -64.79887390136719, -14.94276237487793, 8.846002578735352, 3.9251644611358643, 1.0477544069290161, 1.7506176233291626, -1.1600686311721802, -0.48738762736320496, -0.66845703125, -0.17578125, 0.6484375, 0, 
343, 2471087459, 75.61640930175781, -64.79720306396484, -14.94266414642334, 8.589526176452637, 4.326979637145996, 1.222030520439148, 1.798593282699585, -1.115551233291626, -0.2274031937122345, -0.66845703125, -0.1787109375, 0.65771484375, 0, 
344, 2471095792, 75.61886596679688, -64.79895782470703, -14.908419609069824, 8.846855163574219, 4.340348243713379, 1.094950795173645, 1.5350996255874634, -1.4056581258773804, 0.10882208496332169, -0.66845703125, -0.17822265625, 0.64892578125, 0, 
345, 2471104125, 75.61561584472656, -64.80172729492188, -14.906265258789062, 9.25559139251709, 4.057047367095947, 0.9688915610313416, 1.4519684314727783, -1.1468901634216309, 0.31295472383499146, -0.67138671875, -0.1767578125, 0.6552734375, 0, 
346, 2471112458, 75.61367797851562, -64.80209350585938, -14.880988121032715, 9.287932395935059, 3.804919958114624, 0.9487647414207458, 1.5633906126022339, -1.109314203262329, 0.013908530585467815, -0.66943359375, -0.1787109375, 0.65185546875, 0, 
347, 2471120791, 75.6152114868164, -64.79886627197266, -14.844346046447754, 8.986056327819824, 4.016856670379639, 0.9968319535255432, 1.707214593887329, -1.1244008541107178, -0.4376319944858551, -0.66845703125, -0.17626953125, 0.64990234375, 0, 
348, 2471129124, 75.61402893066406, -64.79582214355469, -14.842538833618164, 8.656956672668457, 4.265700340270996, 1.2320728302001953, 1.6606093645095825, -0.9900670051574707, -0.36705198884010315, -0.66943359375, -0.17724609375, 0.65673828125, 0, 
349, 2471137457, 75.61527252197266, -64.7967529296875, -14.844158172607422, 8.819677352905273, 4.240813255310059, 1.1150826215744019, 1.578195333480835, -1.279571771621704, 0.05299584940075874, -0.66796875, -0.1767578125, 0.646484375, 0, 
350, 2471145790, 75.6142807006836, -64.79954528808594, -14.790098190307617, 9.131769180297852, 4.216011047363281, 1.0239841938018799, 1.6063967943191528, -1.2137945890426636, 0.2869050204753876, -0.669921875, -0.17724609375, 0.658203125, 0, 
351, 2471154123, 75.61216735839844, -64.8025131225586, -14.787446975708008, 9.339510917663574, 3.9293622970581055, 0.9495953917503357, 1.640963077545166, -1.128947377204895, 0.34508776664733887, -0.66845703125, -0.1767578125, 0.64794921875, 0, 
352, 2471162456, 75.6114730834961, -64.80055236816406, -14.835565567016602, 9.082535743713379, 3.80346941947937, 0.9841251969337463, 1.6281046867370605, -1.076848030090332, -0.2659269869327545, -0.669921875, -0.17431640625, 0.65234375, 0, 
353, 2471170789, 75.61404418945312, -64.7990493774414, -14.77735710144043, 8.746345520019531, 4.1921844482421875, 1.1831721067428589, 1.8280493021011353, -1.1796635389328003, -0.23442146182060242, -0.66650390625, -0.17724609375, 0.654296875, 0, 
354, 2471179122, 75.61861419677734, -64.79979705810547, -14.780895233154297, 8.742658615112305, 4.35507869720459, 1.152345061302185, 1.7721205949783325, -1.3688631057739258, 0.0064035579562187195, -0.66845703125, -0.17578125, 0.6494140625, 0, 
355, 2471187455, 75.62073516845703, -64.80172729492188, -14.783578872680664, 9.069753646850586, 4.219375133514404, 1.0692460536956787, 1.5689486265182495, -1.3605127334594727, 0.15301942825317383, -0.67041015625, -0.1767578125, 0.66015625, 0, 
356, 2471195788, 75.62124633789062, -64.80523681640625, -14.800193786621094, 9.34717082977295, 4.0655317306518555, 1.0374674797058105, 1.5009684562683105, -1.3637146949768066, 0.3418731689453125, -0.666015625, -0.1767578125, 0.6494140625, 0, 
357, 2471204121, 75.6199722290039, -64.80439758300781, -14.799671173095703, 9.17337417602539, 3.790480136871338, 0.8890025615692139, 1.508512020111084, -1.120315432548523, -0.12612448632717133, -0.66845703125, -0.17724609375, 0.65576171875, 0, 
358, 2471212454, 75.62165832519531, -64.80235290527344, -14.792927742004395, 8.830150604248047, 3.986490488052368, 1.1035619974136353, 1.684584140777588, -1.1808929443359375, -0.30626940727233887, -0.66748046875, -0.17919921875, 0.65283203125, 0, 
359, 2471220787, 75.624755859375, -64.80278778076172, -14.816448211669922, 8.643014907836914, 4.345943450927734, 1.225791335105896, 1.7434200048446655, -1.3039438724517822, -0.027074245736002922, -0.66845703125, -0.17529296875, 0.65185546875, 0, 
360, 2471229120, 75.62843322753906, -64.80644226074219, -14.821211814880371, 8.9581880569458, 4.204222679138184, 1.0756853818893433, 1.5327173471450806, -1.515389323234558, 0.32843852043151855, -0.66845703125, -0.17578125, 0.6513671875, 0, 
361, 2471237453, 75.6308364868164, -64.80986785888672, -14.824512481689453, 9.268536567687988, 4.103641033172607, 1.0441852807998657, 1.5375713109970093, -1.4362287521362305, 0.3214586675167084, -0.66650390625, -0.1767578125, 0.646484375, 0, 
362, 2471245786, 75.62688446044922, -64.8097915649414, -14.795979499816895, 9.256462097167969, 3.892568349838257, 0.9728949069976807, 1.4666966199874878, -1.0297050476074219, -0.019889453426003456, -0.669921875, -0.17578125, 0.6591796875, 0, 
363, 2471254119, 75.62825775146484, -64.80748748779297, -14.797225952148438, 8.944002151489258, 3.9000701904296875, 0.9651334285736084, 1.6343932151794434, -1.1638468503952026, -0.3195247948169708, -0.666015625, -0.17724609375, 0.64794921875, 0, 
364, 2471262452, 75.63005065917969, -64.80548095703125, -14.681794166564941, 8.608461380004883, 4.262779712677002, 1.2297827005386353, 1.77387535572052, -1.1428558826446533, -0.28887733817100525, -0.67041015625, -0.17724609375, 0.6533203125, 0, 
365, 2471270785, 75.63233947753906, -64.8070297241211, -14.693060874938965, 8.766748428344727, 4.33081579208374, 1.0899056196212769, 1.6306405067443848, -1.3450289964675903, 0.09870444238185883, -0.66796875, -0.1748046875, 0.65625, 0, 
366, 2471279118, 75.63228607177734, -64.80985260009766, -14.694448471069336, 9.16277027130127, 4.084810256958008, 0.9499873518943787, 1.447421908378601, -1.3233082294464111, 0.2769026756286621, -0.6689453125, -0.1767578125, 0.6484375, 0, 
367, 2471287451, 75.63133239746094, -64.8106460571289, -14.693603515625, 9.27936840057373, 3.934551477432251, 0.9920103549957275, 1.5839202404022217, -1.1535115242004395, 0.06678912043571472, -0.6689453125, -0.17822265625, 0.6572265625, 0, 
368, 2471295784, 75.6335220336914, -64.80744171142578, -14.736546516418457, 9.036873817443848, 3.908738851547241, 0.952966570854187, 1.7566626071929932, -1.1365547180175781, -0.4365690052509308, -0.66943359375, -0.17626953125, 0.6474609375, 0, 
369, 2471304117, 75.63349914550781, -64.80535125732422, -14.736124992370605, 8.747604370117188, 4.139969348907471, 1.1000211238861084, 1.6516185998916626, -1.088553786277771, -0.27358564734458923, -0.6669921875, -0.17724609375, 0.65625, 0, 
370, 2471312450, 75.63646697998047, -64.8059310913086, -14.65325927734375, 8.707985877990723, 4.345846652984619, 1.2252726554870605, 1.7211099863052368, -1.309937596321106, -0.012320447713136673, -0.66845703125, -0.17724609375, 0.6552734375, 0, 
371, 2471320783, 75.63607788085938, -64.8089370727539, -14.674383163452148, 9.076446533203125, 4.28312873840332, 1.0669169425964355, 1.6168859004974365, -1.2495648860931396, 0.30587238073349, -0.669921875, -0.17578125, 0.64794921875, 0, 
372, 2471329116, 75.63352966308594, -64.81130981445312, -14.673049926757812, 9.3291597366333, 3.986692428588867, 0.9178451299667358, 1.4447580575942993, -1.1762055158615112, 0.25674426555633545, -0.6708984375, -0.17919921875, 0.6572265625, 0, 
373, 2471337449, 75.63169860839844, -64.81010437011719, -14.670585632324219, 9.057378768920898, 3.817664384841919, 0.9218394756317139, 1.6537832021713257, -1.012927770614624, -0.14391358196735382, -0.6689453125, -0.17529296875, 0.6494140625, 0, 
374, 2471345782, 75.6340560913086, -64.80682373046875, -14.719993591308594, 8.765010833740234, 4.176074028015137, 1.173655390739441, 1.682547688484192, -1.1804702281951904, -0.4552289545536041, -0.66796875, -0.1767578125, 0.658203125, 0, 
375, 2471354115, 75.6368637084961, -64.80720520019531, -14.722708702087402, 8.613521575927734, 4.286282062530518, 1.224483609199524, 1.6505428552627563, -1.317391276359558, -0.025050723925232887, -0.6640625, -0.1787109375, 0.64990234375, 0, 
376, 2471362448, 75.63908386230469, -64.80992126464844, -14.776352882385254, 8.995523452758789, 4.219552993774414, 1.0577442646026611, 1.6017733812332153, -1.385806918144226, 0.2348184883594513, -0.6689453125, -0.17529296875, 0.64794921875, 0, 
377, 2471370781, 75.63804626464844, -64.81368255615234, -14.73006820678711, 9.324283599853516, 4.215789794921875, 1.0805258750915527, 1.539479374885559, -1.2713112831115723, 0.3985958993434906, -0.669921875, -0.177734375, 0.654296875, 0, 
378, 2471379114, 75.63169860839844, -64.81391143798828, -14.724324226379395, 9.249519348144531, 3.834592342376709, 0.9372750520706177, 1.4705387353897095, -0.8931811451911926, 0.06272926181554794, -0.66796875, -0.17529296875, 0.6484375, 0, 
379, 2471387447, 75.6302261352539, -64.8108139038086, -14.721820831298828, 8.886808395385742, 3.9001810550689697, 1.0040466785430908, 1.7027064561843872, -0.9543737173080444, -0.3658609688282013, -0.669921875, -0.17724609375, 0.65234375, 0, 
380, 2471395780, 75.63025665283203, -64.80945587158203, -14.73686408996582, 8.525629043579102, 4.373046398162842, 1.2914701700210571, 1.725144386291504, -1.0927928686141968, -0.19283677637577057, -0.666015625, -0.17529296875, 0.6455078125, 0, 
381, 2471404113, 75.63229370117188, -64.8122787475586, -14.740216255187988, 8.804683685302734, 4.302667140960693, 1.1355525255203247, 1.4858691692352295, -1.4211034774780273, 0.2476000189781189, -0.66943359375, -0.17724609375, 0.650390625, 0, 
382, 2471412446, 75.62974548339844, -64.81571960449219, -14.718282699584961, 9.212065696716309, 4.103562355041504, 1.0046989917755127, 1.572406530380249, -1.1645126342773438, 0.38534054160118103, -0.66845703125, -0.17578125, 0.65234375, 0, 
383, 2471420779, 75.62566375732422, -64.81839752197266, -14.701863288879395, 9.278465270996094, 3.950740098953247, 0.9949894547462463, 1.4879308938980103, -1.0942785739898682, 0.3083954155445099, -0.66845703125, -0.1748046875, 0.64306640625, 0, 
384, 2471429112, 75.62442779541016, -64.81784057617188, -14.70136547088623, 9.074559211730957, 3.9029524326324463, 0.9750102162361145, 1.5118801593780518, -1.1308300495147705, -0.09524652361869812, -0.67041015625, -0.17626953125, 0.66064453125, 0, 
385, 2471437445, 75.62313079833984, -64.8165054321289, -14.699286460876465, 8.67905330657959, 4.132916450500488, 1.1975326538085938, 1.67458176612854, -1.028091311454773, -0.1636621505022049, -0.66748046875, -0.1767578125, 0.64306640625, 0, 
386, 2471445778, 75.62322235107422, -64.81813049316406, -14.638896942138672, 8.692008972167969, 4.333467960357666, 1.168592929840088, 1.601158618927002, -1.2394728660583496, 0.13638299703598022, -0.67138671875, -0.17578125, 0.6572265625, 0, 
387, 2471454111, 75.62248992919922, -64.82141876220703, -14.638687133789062, 9.026665687561035, 4.182162284851074, 0.9365943074226379, 1.5427324771881104, -1.2580944299697876, 0.3476236164569855, -0.66748046875, -0.1767578125, 0.6474609375, 0, 
388, 2471462444, 75.61751556396484, -64.82369995117188, -14.632243156433105, 9.277674674987793, 3.9307544231414795, 0.9491419792175293, 1.4613049030303955, -1.048851728439331, 0.2780809998512268, -0.6689453125, -0.1767578125, 0.65234375, 0, 
389, 2471470777, 75.61679077148438, -64.82230377197266, -14.645610809326172, 9.062235832214355, 3.8106744289398193, 0.9735669493675232, 1.5113040208816528, -1.1461601257324219, -0.2139044851064682, -0.66845703125, -0.17626953125, 0.6552734375, 0, 
390, 2471479110, 75.61959838867188, -64.82075500488281, -14.648116111755371, 8.840070724487305, 4.039351940155029, 1.1185170412063599, 1.6686007976531982, -1.2493343353271484, -0.24797141551971436, -0.6669921875, -0.17578125, 0.6484375, 0, 
391, 2471487443, 75.62139129638672, -64.82054901123047, -14.648696899414062, 8.688362121582031, 4.312109470367432, 1.1853587627410889, 1.7590446472167969, -1.1932390928268433, -0.06431734561920166, -0.66796875, -0.1767578125, 0.658203125, 0, 
392, 2471495776, 75.62452697753906, -64.82376098632812, -14.630345344543457, 8.997544288635254, 4.262728691101074, 1.0836021900177002, 1.6561779975891113, -1.4294792413711548, 0.28532978892326355, -0.67041015625, -0.17578125, 0.6435546875, 0, 
393, 2471504109, 75.62178039550781, -64.82595825195312, -14.62863826751709, 9.311135292053223, 4.003477573394775, 0.9263673424720764, 1.4619708061218262, -1.152025818824768, 0.24181117117404938, -0.671875, -0.1748046875, 0.64990234375, 0, 
394, 2471512442, 75.6187515258789, -64.82501983642578, -14.590188980102539, 9.153111457824707, 3.7297041416168213, 0.9837698340415955, 1.6053593158721924, -0.9946520924568176, -0.11805602163076401, -0.6689453125, -0.17529296875, 0.6494140625, 0, 
395, 2471520775, 75.62055969238281, -64.82158660888672, -14.582209587097168, 8.889885902404785, 4.04529333114624, 1.1214393377304077, 1.7158335447311401, -1.1320468187332153, -0.4578288197517395, -0.6708984375, -0.17724609375, 0.646484375, 0, 
396, 2471529108, 75.62112426757812, -64.8202896118164, -14.581725120544434, 8.646345138549805, 4.265991687774658, 1.247793436050415, 1.727718472480774, -1.1086864471435547, -0.17963261902332306, -0.66943359375, -0.17724609375, 0.6552734375, 0, 
397, 2471537441, 75.62267303466797, -64.8226318359375, -14.583291053771973, 8.970738410949707, 4.21802282333374, 1.128538966178894, 1.6228028535842896, -1.3189795017242432, 0.21545416116714478, -0.66943359375, -0.173828125, 0.64501953125, 0, 
398, 2471545774, 75.62123107910156, -64.82498168945312, -14.623285293579102, 9.267071723937988, 4.209362030029297, 1.0851244926452637, 1.5608162879943848, -1.197670340538025, 0.24199047684669495, -0.67333984375, -0.17578125, 0.6533203125, 0, 
399, 2471554107, 75.61858367919922, -64.82498931884766, -14.620650291442871, 9.365676879882812, 3.8857979774475098, 0.9786226153373718, 1.5749297142028809, -1.0403478145599365, -0.0028687946032732725, -0.66943359375, -0.17822265625, 0.6455078125, 0, 
400, 2471562440, 75.6193618774414, -64.82191467285156, -14.615686416625977, 8.969168663024902, 3.8037571907043457, 0.9709295034408569, 1.7147833108901978, -1.0845578908920288, -0.4017336368560791, -0.6708984375, -0.1767578125, 0.6494140625, 0, 
401, 2471570773, 75.62113952636719, -64.82018280029297, -14.62290096282959, 8.603164672851562, 4.29647970199585, 1.2610628604888916, 1.7885652780532837, -1.1460959911346436, -0.25290215015411377, -0.669921875, -0.1748046875, 0.6494140625, 0, 
402, 2471579106, 75.62434387207031, -64.82060241699219, -14.625487327575684, 8.746326446533203, 4.348601341247559, 1.1363784074783325, 1.7108515501022339, -1.3114873170852661, -0.021093321964144707, -0.669921875, -0.17431640625, 0.642578125, 0, 
403, 2471587439, 75.62849426269531, -64.82402038574219, -14.631468772888184, 9.119982719421387, 4.112844467163086, 1.023632526397705, 1.455669641494751, -1.5680776834487915, 0.2843051552772522, -0.67236328125, -0.177734375, 0.6533203125, 0, 
404, 2471595772, 75.62763977050781, -64.82600402832031, -14.621931076049805, 9.388266563415527, 4.012958526611328, 1.04347562789917, 1.5752114057540894, -1.2126034498214722, 0.19117183983325958, -0.66943359375, -0.17578125, 0.64208984375, 0, 
405, 2471604105, 75.62727355957031, -64.82367706298828, -14.62203311920166, 9.074736595153809, 3.829134225845337, 0.9799861311912537, 1.5528757572174072, -1.1079437732696533, -0.308933287858963, -0.6708984375, -0.17578125, 0.65185546875, 0, 
406, 2471612438, 75.63093566894531, -64.82095336914062, -14.619341850280762, 8.721114158630371, 4.035208225250244, 1.1236578226089478, 1.7566627264022827, -1.2354258298873901, -0.3974561095237732, -0.66748046875, -0.17626953125, 0.64990234375, 0, 
407, 2471620771, 75.63263702392578, -64.82093048095703, -14.661460876464844, 8.591400146484375, 4.387784957885742, 1.2455627918243408, 1.7669596672058105, -1.2031006813049316, -0.053431298583745956, -0.6708984375, -0.17578125, 0.646484375, 0, 
408, 2471629104, 75.6353988647461, -64.82308959960938, -14.665857315063477, 8.955933570861816, 4.237043857574463, 1.0325015783309937, 1.4615610837936401, -1.4520196914672852, 0.15982000529766083, -0.67041015625, -0.1767578125, 0.64892578125, 0, 
409, 2471637437, 75.63725280761719, -64.82477569580078, -14.668859481811523, 9.291333198547363, 3.9337596893310547, 0.9576946496963501, 1.5056943893432617, -1.3713093996047974, 0.12006673961877823, -0.66845703125, -0.17626953125, 0.64453125, 0, 
410, 2471645770, 75.6377182006836, -64.82372283935547, -14.663605690002441, 9.145212173461914, 3.8508710861206055, 0.9618189930915833, 1.7481714487075806, -1.1172031164169312, -0.1572842001914978, -0.671875, -0.1767578125, 0.6533203125, 0, 
411, 2471654103, 75.64253997802734, -64.82010650634766, -14.667110443115234, 8.864775657653809, 4.060937404632568, 1.0816823244094849, 1.8063669204711914, -1.2365909814834595, -0.5014114379882812, -0.66845703125, -0.1767578125, 0.64794921875, 0, 
412, 2471662436, 75.64517974853516, -64.81891632080078, -14.66910171508789, 8.586135864257812, 4.2660322189331055, 1.2212446928024292, 1.6970969438552856, -1.2505511045455933, -0.2126622051000595, -0.66845703125, -0.17626953125, 0.64990234375, 0, 
413, 2471670769, 75.64884185791016, -64.8207778930664, -14.674642562866211, 8.88023853302002, 4.266611099243164, 1.095192790031433, 1.5954209566116333, -1.4465382099151611, 0.11735161393880844, -0.66943359375, -0.177734375, 0.65185546875, 0, 
414, 2471679102, 75.65068054199219, -64.82286834716797, -14.677828788757324, 9.24161148071289, 4.137019157409668, 0.9869802594184875, 1.4813350439071655, -1.3910578489303589, 0.1653270721435547, -0.67138671875, -0.17578125, 0.64453125, 0, 
415, 2471687435, 75.64816284179688, -64.82195281982422, -14.676450729370117, 9.231790542602539, 3.7835500240325928, 0.9301988482475281, 1.4543633460998535, -1.075721025466919, -0.1236911416053772, -0.67041015625, -0.17822265625, 0.65576171875, 0, 
416, 2471695768, 75.65296173095703, -64.81829833984375, -14.776495933532715, 8.924144744873047, 3.9502503871917725, 0.9927857518196106, 1.8046636581420898, -1.2501795291900635, -0.5150253772735596, -0.66943359375, -0.17626953125, 0.64208984375, 0, 
417, 2471704101, 75.6546630859375, -64.81599426269531, -14.776880264282227, 8.634466171264648, 4.2949981689453125, 1.2409147024154663, 1.7719414234161377, -1.1212245225906372, -0.310918390750885, -0.6708984375, -0.1767578125, 0.65234375, 0, 
418, 2471712434, 75.65779876708984, -64.81637573242188, -14.767410278320312, 8.824295997619629, 4.262110710144043, 1.0717355012893677, 1.6900527477264404, -1.3313894271850586, -0.03666678071022034, -0.66796875, -0.17822265625, 0.6494140625, 0, 
419, 2471720767, 75.65791320800781, -64.81832122802734, -14.808536529541016, 9.18049144744873, 4.215500354766846, 1.032663106918335, 1.586161494255066, -1.257108449935913, 0.17763471603393555, -0.67138671875, -0.17529296875, 0.64697265625, 0, 
420, 2471729100, 75.65437316894531, -64.81936645507812, -14.805130004882812, 9.329824447631836, 3.989335536956787, 0.9739902019500732, 1.5517486333847046, -1.0338417291641235, 0.1278790533542633, -0.671875, -0.177734375, 0.654296875, 0, 
421, 2471737433, 75.65542602539062, -64.81713104248047, -14.805642127990723, 9.051691055297852, 3.7999184131622314, 0.9338624477386475, 1.682381272315979, -1.1295108795166016, -0.3031700551509857, -0.6728515625, -0.17578125, 0.64306640625, 0, 
422, 2471745766, 75.65550994873047, -64.81414031982422, -14.820487976074219, 8.762089729309082, 4.1787285804748535, 1.1626685857772827, 1.8130651712417603, -1.0057941675186157, -0.3714832365512848, -0.67041015625, -0.17578125, 0.65380859375, 0, 
423, 2471754099, 75.65764617919922, -64.81324768066406, -14.821447372436523, 8.723187446594238, 4.375763893127441, 1.171958565711975, 1.7559711933135986, -1.1907801628112793, -0.15032996237277985, -0.66943359375, -0.17724609375, 0.646484375, 0, 
424, 2471762432, 75.65782165527344, -64.81477355957031, -14.837042808532715, 9.003791809082031, 4.219089031219482, 0.992699146270752, 1.4567198753356934, -1.3070175647735596, 0.10884770005941391, -0.66748046875, -0.1748046875, 0.64697265625, 0, 
425, 2471770765, 75.65518188476562, -64.8170166015625, -14.822840690612793, 9.305828094482422, 4.077008247375488, 0.9381927251815796, 1.4033398628234863, -1.201845407485962, 0.2303103804588318, -0.67138671875, -0.17578125, 0.65380859375, 0, 
426, 2471779098, 75.65218353271484, -64.81610107421875, -14.82103443145752, 9.161925315856934, 3.867902994155884, 0.9591112732887268, 1.4446299076080322, -1.0546916723251343, -0.12059180438518524, -0.66943359375, -0.17626953125, 0.6396484375, 0, 
427, 2471787431, 75.6520004272461, -64.81482696533203, -14.820425033569336, 8.864538192749023, 4.044159889221191, 1.0716657638549805, 1.651221752166748, -1.1035765409469604, -0.17562399804592133, -0.671875, -0.177734375, 0.65576171875, 0, 
428, 2471795764, 75.6484146118164, -64.81260681152344, -14.83994197845459, 8.750199317932129, 4.364375114440918, 1.186315655708313, 1.609662652015686, -0.9198585152626038, -0.2532735764980316, -0.66845703125, -0.17626953125, 0.6435546875, 0, 
429, 2471804097, 75.64611053466797, -64.8141098022461, -14.838600158691406, 8.935857772827148, 4.289198398590088, 1.043753981590271, 1.4726265668869019, -1.1490033864974976, 0.15574738383293152, -0.6728515625, -0.17333984375, 0.65087890625, 0, 
430, 2471812430, 75.64449310302734, -64.81761169433594, -14.84375, 9.189314842224121, 4.105461597442627, 0.9862604141235352, 1.44903564453125, -1.2732324600219727, 0.3662707507610321, -0.66845703125, -0.17529296875, 0.6484375, 0, 
431, 2471820763, 75.63990020751953, -64.8189926147461, -14.845747947692871, 9.169665336608887, 3.8515372276306152, 0.9689909219741821, 1.5148385763168335, -1.0173205137252808, 0.17029622197151184, -0.67138671875, -0.17578125, 0.64599609375, 0, 
432, 2471829096, 75.64002990722656, -64.81802368164062, -14.845182418823242, 8.976269721984863, 3.9813082218170166, 1.0287877321243286, 1.6827399730682373, -1.1138604879379272, -0.1413649469614029, -0.67041015625, -0.17919921875, 0.654296875, 0, 
433, 2471837429, 75.64115142822266, -64.81688690185547, -14.845733642578125, 8.689748764038086, 4.249685764312744, 1.2484246492385864, 1.6827143430709839, -1.1638596057891846, -0.17655889689922333, -0.6689453125, -0.17578125, 0.64697265625, 0, 
434, 2471845762, 75.64266204833984, -64.8194808959961, -14.861983299255371, 8.933091163635254, 4.3321075439453125, 1.117745280265808, 1.57418692111969, -1.3594754934310913, 0.22905530035495758, -0.671875, -0.17724609375, 0.65625, 0, 
435, 2471854095, 75.64009857177734, -64.82198333740234, -14.860688209533691, 9.163670539855957, 4.177162170410156, 1.0671643018722534, 1.438124179840088, -1.1811493635177612, 0.27331671118736267, -0.66845703125, -0.17578125, 0.6455078125, 0, 
436, 2471862428, 75.63612365722656, -64.82374572753906, -14.840950965881348, 9.204315185546875, 3.844672918319702, 0.9689226150512695, 1.4518790245056152, -1.0906800031661987, 0.19865120947360992, -0.66943359375, -0.17578125, 0.6513671875, 0, 
437, 2471870761, 75.63880157470703, -64.8233871459961, -14.855805397033691, 8.998723030090332, 3.9078426361083984, 0.9878067374229431, 1.7004393339157104, -1.2766133546829224, -0.1139577329158783, -0.6689453125, -0.17529296875, 0.65380859375, 0, 
438, 2471879094, 75.63965606689453, -64.82307434082031, -14.855464935302734, 8.684940338134766, 4.262821197509766, 1.2636065483093262, 1.7475441694259644, -1.1458015441894531, -0.06841562688350677, -0.67041015625, -0.17724609375, 0.64892578125, 0, 
439, 2471887427, 75.64192199707031, -64.82475280761719, -14.85790729522705, 8.807710647583008, 4.235100746154785, 1.1460096836090088, 1.6141706705093384, -1.3423651456832886, 0.129031702876091, -0.66943359375, -0.1767578125, 0.65869140625, 0, 
440, 2471895760, 75.64139556884766, -64.82898712158203, -14.859687805175781, 9.040606498718262, 4.164928436279297, 1.0511175394058228, 1.5490847826004028, -1.307350516319275, 0.44646888971328735, -0.669921875, -0.17578125, 0.64794921875, 0, 
441, 2471904093, 75.6369857788086, -64.83200073242188, -14.856404304504395, 9.214727401733398, 4.072208404541016, 1.0982356071472168, 1.4348454475402832, -1.0990043878555298, 0.3557176887989044, -0.67041015625, -0.17724609375, 0.6533203125, 0, 
442, 2471912426, 75.6352767944336, -64.83174896240234, -14.841257095336914, 9.05712604522705, 3.715017795562744, 1.0005921125411987, 1.5123541355133057, -1.1245673894882202, -0.061679091304540634, -0.6689453125, -0.17626953125, 0.65234375, 0, 
443, 2471920759, 75.63705444335938, -64.8301773071289, -14.844873428344727, 8.88333797454834, 4.021188735961914, 1.072051763534546, 1.7443934679031372, -1.1751042604446411, -0.23370426893234253, -0.669921875, -0.173828125, 0.6494140625, 0, 
444, 2471929092, 75.64202880859375, -64.82965850830078, -14.847683906555176, 8.631020545959473, 4.389819145202637, 1.23123300075531, 1.8981044292449951, -1.2938005924224854, -0.13188768923282623, -0.66796875, -0.177734375, 0.65576171875, 0, 
445, 2471937425, 75.64520263671875, -64.83135223388672, -14.851286888122559, 8.902018547058105, 4.1729350090026855, 1.102334976196289, 1.5940892696380615, -1.4010218381881714, 0.11484143137931824, -0.66845703125, -0.17529296875, 0.64892578125, 0, 
446, 2471945758, 75.64481353759766, -64.83476257324219, -14.908147811889648, 9.122543334960938, 4.0139851570129395, 0.9779666066169739, 1.5687824487686157, -1.2822743654251099, 0.3511327803134918, -0.6689453125, -0.1748046875, 0.65576171875, 0, 
447, 2471954091, 75.6443862915039, -64.83514404296875, -14.907659530639648, 9.033842086791992, 3.863811492919922, 1.0351945161819458, 1.6093807220458984, -1.1572511196136475, 0.014126250520348549, -0.66748046875, -0.17724609375, 0.65185546875, 0, 
448, 2471962424, 75.64773559570312, -64.83326721191406, -14.92633056640625, 8.950100898742676, 3.9128334522247314, 1.0326728820800781, 1.6368135213851929, -1.2988210916519165, -0.30596205592155457, -0.6708984375, -0.17529296875, 0.64892578125, 0, 
449, 2471970757, 75.65038299560547, -64.83184051513672, -14.997687339782715, 8.754059791564941, 4.23878812789917, 1.1637589931488037, 1.7405256032943726, -1.227075457572937, -0.23390918970108032, -0.6669921875, -0.177734375, 0.65625, 0, 
450, 2471979090, 75.65153503417969, -64.83293151855469, -14.999382019042969, 8.85832405090332, 4.327517986297607, 1.158871054649353, 1.5630958080291748, -1.2872432470321655, 0.06952983886003494, -0.66845703125, -0.17529296875, 0.6484375, 0, 
451, 2471987423, 75.65288543701172, -64.83465576171875, -15.001768112182617, 9.10241413116455, 4.1771111488342285, 1.009879469871521, 1.5079227685928345, -1.3397012948989868, 0.13515350222587585, -0.669921875, -0.17578125, 0.65869140625, 0, 
452, 2471995756, 75.64936828613281, -64.83490753173828, -14.974032402038574, 9.151558876037598, 3.8910274505615234, 0.9640688300132751, 1.5129687786102295, -1.043088436126709, 0.02219473384320736, -0.666015625, -0.177734375, 0.646484375, 0, 
453, 2472004089, 75.64991760253906, -64.83293151855469, -14.974889755249023, 8.950161933898926, 3.883153200149536, 0.9544433951377869, 1.5807442665100098, -1.1533066034317017, -0.27645444869995117, -0.67041015625, -0.17822265625, 0.654296875, 0, 
454, 2472012422, 75.65032958984375, -64.83128356933594, -14.909235954284668, 8.761831283569336, 4.188863754272461, 1.168838381767273, 1.6450741291046143, -1.144251823425293, -0.23581743240356445, -0.6689453125, -0.17626953125, 0.65234375, 0, 
455, 2472020755, 75.65165710449219, -64.83071899414062, -14.935803413391113, 8.824246406555176, 4.316366672515869, 1.1285452842712402, 1.6023366451263428, -1.240932822227478, -0.1272515058517456, -0.6669921875, -0.1748046875, 0.64990234375, 0, 
456, 2472029088, 75.65213012695312, -64.83194732666016, -14.936457633972168, 9.071565628051758, 4.22374963760376, 1.0391157865524292, 1.58730149269104, -1.2405998706817627, 0.10093289613723755, -0.67041015625, -0.17626953125, 0.65625, 0, 
457, 2472037421, 75.65113830566406, -64.83267211914062, -14.936349868774414, 9.288809776306152, 3.944920539855957, 0.9215803742408752, 1.5018010139465332, -1.1872197389602661, 0.046886857599020004, -0.6669921875, -0.17578125, 0.64501953125, 0, 
458, 2472045754, 75.65300750732422, -64.83011627197266, -14.923365592956543, 9.048134803771973, 3.796024799346924, 0.9352613091468811, 1.6603020429611206, -1.1867332458496094, -0.3631330132484436, -0.67041015625, -0.17626953125, 0.658203125, 0, 
459, 2472054087, 75.65689849853516, -64.82606506347656, -14.926031112670898, 8.877790451049805, 4.161990165710449, 1.1369184255599976, 1.7849791049957275, -1.183057427406311, -0.5403451323509216, -0.66552734375, -0.1787109375, 0.64794921875, 0, 
460, 2472062420, 75.65991973876953, -64.82424926757812, -14.893570899963379, 8.778532981872559, 4.28491735458374, 1.1594655513763428, 1.7203800678253174, -1.2454793453216553, -0.2830757200717926, -0.669921875, -0.17578125, 0.65478515625, 0, 
461, 2472070753, 75.66175842285156, -64.82501983642578, -14.872477531433105, 8.989516258239746, 4.249819755554199, 1.0597190856933594, 1.5411701202392578, -1.3396245241165161, 0.010796399787068367, -0.6650390625, -0.17578125, 0.6572265625, 0, 
462, 2472079086, 75.66304016113281, -64.82633209228516, -14.874048233032227, 9.203003883361816, 4.150137901306152, 1.0393503904342651, 1.5886075496673584, -1.2884727716445923, 0.09832023084163666, -0.66845703125, -0.17529296875, 0.6484375, 0, 
463, 2472087419, 75.66142272949219, -64.82610321044922, -14.872313499450684, 9.152009010314941, 3.7886903285980225, 0.9574220776557922, 1.6003390550613403, -1.0782057046890259, -0.039804521948099136, -0.66943359375, -0.17529296875, 0.65380859375, 0, 
464, 2472095752, 75.66401672363281, -64.82318115234375, -14.896190643310547, 9.015069961547852, 3.980614185333252, 1.0744162797927856, 1.676592469215393, -1.2095040082931519, -0.4106217622756958, -0.66796875, -0.17626953125, 0.65087890625, 0, 
465, 2472104085, 75.66439819335938, -64.8206787109375, -14.895525932312012, 8.852437973022461, 4.317499160766602, 1.2243547439575195, 1.7248753309249878, -1.0635029077529907, -0.31746283173561096, -0.66943359375, -0.17578125, 0.65478515625, 0, 
466, 2472112418, 75.66600036621094, -64.82018280029297, -14.885917663574219, 8.891157150268555, 4.277477264404297, 1.0760815143585205, 1.620330810546875, -1.2524207830429077, -0.12388323992490768, -0.6669921875, -0.17724609375, 0.64501953125, 0, 
467, 2472120751, 75.6667251586914, -64.82144927978516, -14.895119667053223, 8.989866256713867, 4.202892303466797, 1.0807926654815674, 1.5951650142669678, -1.2684681415557861, 0.09199352562427521, -0.66748046875, -0.1767578125, 0.6484375, 0, 
468, 2472129084, 75.66523742675781, -64.82334899902344, -14.894128799438477, 9.181920051574707, 3.967228651046753, 1.0307615995407104, 1.5364571809768677, -1.1789464950561523, 0.1969350427389145, -0.669921875, -0.17724609375, 0.6591796875, 0, 
469, 2472137417, 75.66644287109375, -64.82365417480469, -14.895164489746094, 9.13262939453125, 3.808109760284424, 0.9502449035644531, 1.6386452913284302, -1.231135368347168, -0.014638536609709263, -0.66748046875, -0.17529296875, 0.64892578125, 0, 
470, 2472145750, 75.67086029052734, -64.82217407226562, -14.855317115783691, 8.895233154296875, 4.159654140472412, 1.2333866357803345, 1.7966848611831665, -1.2967077493667603, -0.2559502422809601, -0.6689453125, -0.177734375, 0.65625, 0, 
471, 2472154083, 75.67328643798828, -64.82335662841797, -14.856745719909668, 8.856700897216797, 4.457206726074219, 1.1187340021133423, 1.7422289848327637, -1.276318907737732, 0.08373294025659561, -0.66748046875, -0.1767578125, 0.6513671875, 0, 
472, 2472162416, 75.67279052734375, -64.82575988769531, -14.855635643005371, 9.041786193847656, 4.222227573394775, 1.0086969137191772, 1.513685941696167, -1.273821473121643, 0.23323041200637817, -0.66796875, -0.17724609375, 0.65283203125, 0, 
473, 2472170749, 75.67094421386719, -64.82823944091797, -14.861873626708984, 9.171378135681152, 3.926624059677124, 1.001086950302124, 1.5857646465301514, -1.1699047088623047, 0.27193355560302734, -0.66796875, -0.17626953125, 0.6572265625, 0, 
474, 2472179082, 75.67054748535156, -64.82732391357422, -14.861037254333496, 9.011739730834961, 3.8958072662353516, 0.9740830659866333, 1.6518875360488892, -1.1020652055740356, -0.1326945424079895, -0.66845703125, -0.1767578125, 0.646484375, 0, 
475, 2472187415, 75.6711196899414, -64.82610321044922, -14.861050605773926, 8.79297161102295, 4.14827823638916, 1.0549218654632568, 1.6749532222747803, -1.1358120441436768, -0.17709681391716003, -0.6689453125, -0.17919921875, 0.6591796875, 0, 
476, 2472195748, 75.67345428466797, -64.8273696899414, -14.880245208740234, 8.764642715454102, 4.293907642364502, 1.174523115158081, 1.635635495185852, -1.3372935056686401, 0.06996528059244156, -0.66650390625, -0.17626953125, 0.64892578125, 0, 
477, 2472204081, 75.67362976074219, -64.83084869384766, -14.880581855773926, 9.00546646118164, 4.2225260734558105, 1.0346403121948242, 1.5917069911956787, -1.291316032409668, 0.36493879556655884, -0.67041015625, -0.17626953125, 0.65283203125, 0, 
478, 2472212414, 75.6723861694336, -64.8334732055664, -14.875935554504395, 9.215023040771484, 4.098484992980957, 0.9498831629753113, 1.5358422994613647, -1.2303029298782349, 0.27119070291519165, -0.66943359375, -0.17626953125, 0.6513671875, 0, 
479, 2472220747, 75.66798400878906, -64.83368682861328, -14.873331069946289, 9.052124977111816, 3.807338237762451, 0.9280756711959839, 1.595677137374878, -0.9582796096801758, 0.04222505912184715, -0.66845703125, -0.17529296875, 0.6484375, 0, 
480, 2472229080, 75.66749572753906, -64.83204650878906, -14.872252464294434, 8.86598014831543, 4.031297206878662, 1.0180628299713135, 1.6654503345489502, -1.0694454908370972, -0.2115991860628128, -0.6669921875, -0.17822265625, 0.65966796875, 0, 
481, 2472237413, 75.66644287109375, -64.83099365234375, -14.870638847351074, 8.642532348632812, 4.340720176696777, 1.2245516777038574, 1.6561267375946045, -1.0596097707748413, -0.13775336742401123, -0.66650390625, -0.17529296875, 0.6416015625, 0, 
482, 2472245746, 75.66859436035156, -64.83284759521484, -14.867679595947266, 8.91372299194336, 4.261681079864502, 1.0790300369262695, 1.5656191110610962, -1.376317024230957, 0.13503825664520264, -0.6708984375, -0.17724609375, 0.6572265625, 0, 
483, 2472254079, 75.66968536376953, -64.8359603881836, -14.86832332611084, 9.17719554901123, 4.168697357177734, 0.9861517548561096, 1.669010877609253, -1.2955167293548584, 0.3191661834716797, -0.66748046875, -0.17626953125, 0.64794921875, 0, 
484, 2472262412, 75.66574096679688, -64.83756256103516, -14.869321823120117, 9.18410587310791, 3.9243457317352295, 0.9952036142349243, 1.515594244003296, -1.059110164642334, 0.1880597025156021, -0.66943359375, -0.17724609375, 0.6533203125, 0, 
485, 2472270745, 75.6666259765625, -64.83625793457031, -14.874918937683105, 8.994717597961426, 3.8108508586883545, 1.0138615369796753, 1.527709722518921, -1.228804349899292, -0.21478815376758575, -0.6708984375, -0.1767578125, 0.65625, 0, 
486, 2472279078, 75.66571044921875, -64.83425903320312, -14.872538566589355, 8.7010498046875, 4.219694137573242, 1.1755714416503906, 1.7567777633666992, -0.9932559132575989, -0.23863501846790314, -0.66845703125, -0.17333984375, 0.64599609375, 0, 
487, 2472287411, 75.66429901123047, -64.8352279663086, -14.872091293334961, 8.80307674407959, 4.351884365081787, 1.1403374671936035, 1.4868295192718506, -1.1776272058486938, 0.08391223847866058, -0.66943359375, -0.17578125, 0.658203125, 0, 
488, 2472295744, 75.66342163085938, -64.83743286132812, -14.87453556060791, 9.133382797241211, 4.148204326629639, 1.0544854402542114, 1.5749167203903198, -1.217278003692627, 0.22092276811599731, -0.66650390625, -0.17529296875, 0.646484375, 0, 
489, 2472304077, 75.65991973876953, -64.83895874023438, -14.871719360351562, 9.291618347167969, 3.988284111022949, 1.0350964069366455, 1.4904539585113525, -1.0781288146972656, 0.1763412058353424, -0.6708984375, -0.1748046875, 0.64990234375, 0, 
490, 2472312410, 75.65741729736328, -64.83699798583984, -14.847305297851562, 9.038926124572754, 3.841731071472168, 0.9606264233589172, 1.4555416107177734, -1.0593534708023071, -0.2501998245716095, -0.67041015625, -0.1787109375, 0.6474609375, 0, 
491, 2472320743, 75.65504455566406, -64.83465576171875, -14.864547729492188, 8.7659330368042, 4.098807334899902, 1.125590205192566, 1.496959924697876, -1.0354042053222656, -0.2944868505001068, -0.66943359375, -0.17626953125, 0.6455078125, 0, 
