DeviceID;Timestamp;Temperature;GyroX;GyroY;GyroZ;AccelX;AccelY;AccelZ;Dist1;Dist2;Dist3;Err1;Err2;Err3
1.0;1753881169.606768;16.935803;1.23;-1.69;1.5;-0.620161;-0.797386;-0.002147;0.0;-0.6;0.0;0.0;0.0;0.0
1.0;1753881169.612689;16.933594;0.98;-1.68;0.07;-0.626836;-0.793488;-0.004392;0.0;0.0;0.0;0.0;0.0;0.0
1.0;1753881169.615775;16.933594;0.98;-1.61;0.07;-0.627324;-0.79361;-0.001708;0.0;0.0;0.0;0.0;0.0;0.0
1.0;1753881169.620545;16.960938;1.05;-1.54;0.07;-0.62525;-0.793366;-0.003294;0.0;0.0;0.0;0.0;0.0;0.0
1.0;1753881169.624935;16.960938;1.12;-1.68;0.07;-0.627324;-0.79361;-0.001342;0.0;0.0;0.0;0.0;0.0;0.0
1.0;1753881169.631119;16.960938;1.12;-1.61;0.14;-0.627446;-0.793732;-0.002562;0.0;0.0;0.0;0.0;0.0;0.0
1.0;1753881169.634067;16.960938;1.12;-1.54;0.0;-0.626958;-0.793488;-0.003172;0.0;0.0;0.0;0.0;0.0;0.0
1.0;1753881169.638666;16.953125;1.05;-1.54;0.0;-0.6283;-0.793;-0.002318;0.0;0.0;0.0;0.0;0.0;0.0
1.0;1753881169.643124;16.953125;1.12;-1.61;0.07;-0.6283;-0.793;-0.002318;0.0;0.0;0.0;0.0;0.0;0.0
1.0;1753881169.647793;16.953125;1.05;-1.61;0.07;-0.628178;-0.792512;-0.002806;0.0;0.0;0.0;0.0;0.0;0.0
1.0;1753881169.652372;16.953125;1.05;-1.68;0.07;-0.626104;-0.793732;-0.00244;0.0;0.0;0.0;0.0;0.0;0.0
1.0;1753881169.66003;17.007812;0.98;-1.75;0.07;-0.6283;-0.793488;-0.001098;0.0;0.0;0.0;0.0;0.0;0.0
1.0;1753881169.661463;17.007812;1.12;-1.68;0.07;-0.626958;-0.793;-0.00244;0.0;0.0;0.0;0.0;0.0;0.0
1.0;1753881169.666434;17.007812;1.12;-1.68;0.14;-0.627202;-0.792146;-0.002928;0.0;0.0;0.0;0.0;0.0;0.0
1.0;1753881169.670673;17.007812;1.12;-1.68;0.0;-0.62891;-0.79361;-0.002928;0.0;0.0;0.0;0.0;0.0;0.0
1.0;1753881169.679073;16.941406;1.12;-1.68;0.14;-0.626836;-0.793488;-0.003294;0.0;0.0;0.0;0.0;0.0;0.0
1.0;1753881169.679758;16.941406;0.98;-1.68;0.07;-0.626958;-0.793732;-0.002196;0.0;0.0;0.0;0.0;0.0;0.0
1.0;1753881169.68438;16.941406;0.98;-1.68;0.07;-0.626958;-0.794464;-0.002562;0.0;0.0;0.0;0.0;0.0;0.0
1.0;1753881169.68895;16.941406;1.05;-1.61;0.14;-0.626714;-0.793366;-0.00061;0.0;0.0;0.0;0.0;0.0;0.0
1.0;1753881169.693527;16.976562;0.98;-1.54;0.14;-0.62586;-0.79239;-0.003172;0.0;0.0;0.0;0.0;0.0;0.0
1.0;1753881169.698097;16.976562;1.05;-1.75;0.07;-0.627324;-0.79239;-0.001952;0.0;0.0;0.0;0.0;0.0;0.0
1.0;1753881169.703625;16.976562;0.98;-1.75;0.07;-0.627812;-0.793;-0.002684;0.0;0.0;0.0;0.0;0.0;0.0
1.0;1753881169.709613;16.976562;1.05;-1.61;0.07;-0.626348;-0.794098;-0.002074;0.0;0.0;0.0;0.0;0.0;0.0
1.0;1753881169.713154;16.953125;1.12;-1.75;0.0;-0.628056;-0.793488;-0.001952;0.0;0.0;0.0;0.0;0.0;0.0
1.0;1753881169.717772;16.953125;1.05;-1.75;0.07;-0.625494;-0.793976;-0.003904;0.0;0.0;0.0;0.0;0.0;0.0
1.0;1753881169.721768;16.953125;1.05;-1.68;0.07;-0.628178;-0.792512;-0.003172;0.0;0.0;0.0;0.0;0.0;0.0
1.0;1753881169.729437;16.953125;0.98;-1.75;0.0;-0.625982;-0.792878;-0.00305;0.0;0.0;0.0;0.0;0.0;0.0
1.0;1753881169.730056;16.925781;1.05;-1.75;0.0;-0.627324;-0.793244;-0.002196;0.0;0.0;0.0;0.0;0.0;0.0
1.0;1753881169.734689;16.925781;1.12;-1.68;0.07;-0.626348;-0.793;-0.002806;0.0;0.0;0.0;0.0;0.0;0.0
1.0;1753881169.739256;16.925781;1.19;-1.75;0.07;-0.625372;-0.792878;-0.003904;0.0;0.0;0.0;0.0;0.0;0.0
1.0;1753881169.743982;16.925781;1.05;-1.61;0.07;-0.626836;-0.792634;-0.002806;0.0;0.0;0.0;0.0;0.0;0.0
1.0;1753881169.748401;16.953125;0.98;-1.68;0.0;-0.625982;-0.793244;-0.002684;0.0;0.0;0.0;0.0;0.0;0.0
1.0;1753881169.752989;16.95843;1.02;-1.76;-0.02;-0.626806;-0.792872;-8.2e-05;0.0;0.0;0.0;0.0;0.0;0.0
1.0;1753881169.757173;16.953125;1.05;-1.75;0.07;-0.626958;-0.793;-0.00061;0.0;0.0;0.0;0.0;0.0;0.0
1.0;1753881169.757492;16.953125;1.05;-1.82;0.14;-0.62647;-0.793;-0.002806;0.0;0.0;0.0;0.0;0.0;0.0
1.0;1753881169.762284;16.953125;1.12;-1.68;0.14;-0.627324;-0.793854;-0.002318;0.0;0.0;0.0;0.0;0.0;0.0
1.0;1753881169.766876;16.976562;0.98;-1.82;0.14;-0.627446;-0.793122;-0.002684;0.0;0.0;0.0;0.0;0.0;0.0
1.0;1753881169.771752;16.976562;0.98;-1.75;0.0;-0.624396;-0.792268;-0.002074;0.0;0.0;0.0;0.0;0.0;0.0
1.0;1753881169.78022;16.976562;1.12;-1.82;0.07;-0.628056;-0.793976;-0.00305;0.0;0.0;0.0;0.0;0.0;0.0
1.0;1753881169.780414;16.976562;1.05;-1.75;0.14;-0.62586;-0.793;-0.003416;0.0;0.0;0.0;0.0;0.0;0.0
1.0;1753881169.784994;16.976562;1.05;-1.75;0.07;-0.62891;-0.792146;-0.002074;0.0;0.0;0.0;0.0;0.0;0.0
1.0;1753881169.789556;16.976562;1.19;-1.68;0.07;-0.626836;-0.793854;-0.002562;0.0;0.0;0.0;0.0;0.0;0.0
1.0;1753881169.794108;16.976562;1.12;-1.68;0.07;-0.627324;-0.793976;-0.002196;0.0;0.0;0.0;0.0;0.0;0.0
1.0;1753881169.798706;16.976562;1.05;-1.68;0.0;-0.6283;-0.793732;-0.003294;0.0;0.0;0.0;0.0;0.0;0.0
1.0;1753881169.803294;16.980145;1.03;-1.7;0.09;-0.627961;-0.793426;-0.002106;0.0;0.0;0.0;0.0;0.0;0.0
1.0;1753881169.8076;16.953125;1.05;-1.68;0.07;-0.626958;-0.793;-0.001952;0.0;0.0;0.0;0.0;0.0;0.0
1.0;1753881169.807796;16.953125;1.05;-1.68;0.14;-0.628056;-0.793;-0.00305;0.0;0.0;0.0;0.0;0.0;0.0
1.0;1753881169.812655;16.953125;0.98;-1.61;0.0;-0.62586;-0.793854;-0.003172;0.0;0.0;0.0;0.0;0.0;0.0
1.0;1753881169.816987;16.953125;1.05;-1.68;0.07;-0.628056;-0.794098;-0.002684;0.0;0.0;0.0;0.0;0.0;0.0
1.0;1753881169.821564;16.953125;1.05;-1.61;0.0;-0.626714;-0.793366;-0.003538;0.0;0.0;0.0;0.0;0.0;0.0
1.0;1753881169.827192;16.953125;1.12;-1.61;0.07;-0.62769;-0.792878;-0.003294;0.0;0.0;0.0;0.0;0.0;0.0
1.0;1753881169.831293;16.953125;1.05;-1.75;0.21;-0.62769;-0.793488;-0.002074;0.0;0.0;0.0;0.0;0.0;0.0
1.0;1753881169.835271;16.953125;1.12;-1.68;0.14;-0.625616;-0.793366;-0.002806;0.0;0.0;0.0;0.0;0.0;0.0
1.0;1753881169.839854;16.925781;1.05;-1.61;0.07;-0.627446;-0.793488;-0.001952;0.0;0.0;0.0;0.0;0.0;0.0
1.0;1753881169.84442;16.925781;1.05;-1.75;0.07;-0.626348;-0.792878;-0.00366;0.0;0.0;0.0;0.0;0.0;0.0
1.0;1753881169.84899;16.925781;0.98;-1.75;0.14;-0.628422;-0.793732;-0.002806;0.0;0.0;0.0;0.0;0.0;0.0
1.0;1753881169.856159;16.925781;0.98;-1.68;0.14;-0.625128;-0.793488;-0.00366;0.0;0.0;0.0;0.0;0.0;0.0
1.0;1753881169.858092;16.941406;1.05;-1.68;0.21;-0.62708;-0.792634;-0.003294;0.0;0.0;0.0;0.0;0.0;0.0
1.0;1753881169.862719;16.941406;1.12;-1.68;0.07;-0.626714;-0.793854;-0.002684;0.0;0.0;0.0;0.0;0.0;0.0
1.0;1753881169.867238;16.941406;1.12;-1.68;0.07;-0.626592;-0.793732;-0.00305;0.0;0.0;0.0;0.0;0.0;0.0
1.0;1753881169.875801;16.941406;1.05;-1.61;0.07;-0.62769;-0.79178;-0.001952;0.0;0.0;0.0;0.0;0.0;0.0
1.0;1753881169.876382;16.925781;1.05;-1.68;0.14;-0.625616;-0.793488;-0.002318;0.0;0.0;0.0;0.0;0.0;0.0
1.0;1753881169.881009;16.925781;1.05;-1.68;0.07;-0.628422;-0.792878;-0.002928;0.0;0.0;0.0;0.0;0.0;0.0
1.0;1753881169.885595;16.925781;1.05;-1.61;0.14;-0.62525;-0.792024;-0.004026;0.0;0.0;0.0;0.0;0.0;0.0
1.0;1753881169.890922;16.925781;1.12;-1.75;0.07;-0.62525;-0.792024;-0.004026;0.0;0.0;0.0;0.0;0.0;0.0
1.0;1753881169.894718;16.96875;1.12;-1.68;0.07;-0.626104;-0.793244;-0.002318;0.0;0.0;0.0;0.0;0.0;0.0
1.0;1753881169.899301;16.96875;1.05;-1.54;0.07;-0.62586;-0.79178;-0.002318;0.0;0.0;0.0;0.0;0.0;0.0
1.0;1753881169.905896;16.96875;1.05;-1.75;0.14;-0.627446;-0.793;-0.003782;0.0;0.0;0.0;0.0;0.0;0.0
1.0;1753881169.908425;16.96875;1.12;-1.68;0.14;-0.626226;-0.793366;-0.002562;0.0;0.0;0.0;0.0;0.0;0.0
1.0;1753881169.913728;16.960938;1.12;-1.75;0.07;-0.628788;-0.793122;-0.000854;0.0;0.0;0.0;0.0;0.0;0.0
1.0;1753881169.917538;16.960938;1.12;-1.68;0.14;-0.626958;-0.792512;-0.003416;0.0;0.0;0.0;0.0;0.0;0.0
1.0;1753881169.925828;16.960938;1.12;-1.61;0.07;-0.628788;-0.793732;-0.001952;0.0;0.0;0.0;0.0;0.0;0.0
1.0;1753881169.926621;16.960938;1.12;-1.61;0.07;-0.628788;-0.793732;-0.001952;0.0;0.0;0.0;0.0;0.0;0.0
1.0;1753881169.932738;16.960938;0.98;-1.68;0.14;-0.626104;-0.793244;-0.001708;0.0;0.0;0.0;0.0;0.0;0.0
1.0;1753881169.936667;16.960938;1.12;-1.75;0.14;-0.627568;-0.792024;-0.002806;0.0;0.0;0.0;0.0;0.0;0.0
1.0;1753881169.940399;16.960938;1.19;-1.75;0.07;-0.62708;-0.793122;-0.002806;0.0;0.0;0.0;0.0;0.0;0.0
1.0;1753881169.945024;16.960938;1.12;-1.68;0.07;-0.627812;-0.793732;-0.003172;0.0;0.0;0.0;0.0;0.0;0.0
1.0;1753881169.949612;16.965235;1.1;-1.73;0.09;-0.626735;-0.794954;-0.002815;0.0;0.0;0.0;0.0;0.0;0.0
1.0;1753881169.954527;16.925781;1.12;-1.61;0.07;-0.625738;-0.793732;-0.00366;0.0;0.0;0.0;0.0;0.0;0.0
1.0;1753881169.958798;16.925781;1.05;-1.61;0.07;-0.625738;-0.793244;-0.00244;0.0;0.0;0.0;0.0;0.0;0.0
1.0;1753881169.963319;16.925781;1.05;-1.68;0.14;-0.62708;-0.793854;-0.00305;0.0;0.0;0.0;0.0;0.0;0.0
1.0;1753881169.967884;16.976562;0.98;-1.68;0.0;-0.627324;-0.794342;-0.003416;0.0;0.0;0.0;0.0;0.0;0.0
1.0;1753881169.974473;16.976562;0.98;-1.61;0.07;-0.627568;-0.792756;-0.00366;0.0;0.0;0.0;0.0;0.0;0.0
1.0;1753881169.97704;16.976562;1.12;-1.75;0.07;-0.627812;-0.792268;-0.002562;0.0;0.0;0.0;0.0;0.0;0.0
1.0;1753881169.981621;16.976562;0.98;-1.75;0.14;-0.625494;-0.793;-0.002196;0.0;0.0;0.0;0.0;0.0;0.0
1.0;1753881169.98618;16.925781;0.98;-1.68;0.07;-0.62891;-0.79239;-0.002074;0.0;0.0;0.0;0.0;0.0;0.0
1.0;1753881169.990807;16.925781;1.05;-1.68;0.07;-0.626104;-0.793488;-0.004148;0.0;0.0;0.0;0.0;0.0;0.0
1.0;1753881169.995295;16.925781;1.05;-1.68;0.07;-0.627446;-0.793;-0.00183;0.0;0.0;0.0;0.0;0.0;0.0
1.0;1753881169.999883;16.969804;0.96;-1.69;0.08;-0.626227;-0.793386;-0.001991;0.0;0.0;0.0;0.0;0.0;0.0
1.0;1753881170.004471;16.919612;0.98;-1.56;0.09;-0.627531;-0.792753;-0.001711;0.0;0.0;0.0;0.0;0.0;0.0
1.0;1753881170.009059;16.928092;0.97;-1.7;0.06;-0.62794;-0.793939;0.000193;0.0;0.0;0.0;0.0;0.0;0.0
1.0;1753881170.013646;16.925872;1.02;-1.64;0.05;-0.627208;-0.793951;-0.001525;0.0;0.0;0.0;0.0;0.0;0.0
1.0;1753881170.018234;16.920593;0.97;-1.61;0.11;-0.627615;-0.792923;-0.002368;0.0;0.0;0.0;0.0;0.0;0.0
1.0;1753881170.022822;16.917567;1.02;-1.61;0.03;-0.627256;-0.793243;-0.002752;0.0;0.0;0.0;0.0;0.0;0.0
1.0;1753881170.02741;16.920853;1.01;-1.73;0.09;-0.628396;-0.793666;-0.001621;0.0;0.0;0.0;0.0;0.0;0.0
1.0;1753881170.031998;16.889601;0.99;-1.64;0.09;-0.627312;-0.793179;-0.001944;0.0;0.0;0.0;0.0;0.0;0.0
1.0;1753881170.036586;16.942647;1.1;-1.75;0.13;-0.627752;-0.791911;-0.003007;0.0;0.0;0.0;0.0;0.0;0.0
1.0;1753881170.041174;16.931931;1.12;-1.75;0.03;-0.627047;-0.792308;-0.000914;0.0;0.0;0.0;0.0;0.0;0.0
1.0;1753881170.045762;16.919995;0.99;-1.65;0.05;-0.627164;-0.793591;-0.001482;0.0;0.0;0.0;0.0;0.0;0.0
1.0;1753881170.05035;16.916916;0.97;-1.67;0.04;-0.628282;-0.793198;-0.001695;0.0;0.0;0.0;0.0;0.0;0.0
1.0;1753881170.054938;16.941149;1.08;-1.64;0.05;-0.629267;-0.794218;-0.002386;0.0;0.0;0.0;0.0;0.0;0.0
1.0;1753881170.059526;16.943267;1.0;-1.7;0.09;-0.627501;-0.792385;-0.003062;0.0;0.0;0.0;0.0;0.0;0.0
1.0;1753881170.064114;16.966745;0.99;-1.7;0.15;-0.628951;-0.791931;-0.001443;0.0;0.0;0.0;0.0;0.0;0.0
1.0;1753881170.068701;16.932851;1.0;-1.65;-0.0;-0.627415;-0.794238;-0.001314;0.0;0.0;0.0;0.0;0.0;0.0
1.0;1753881170.073289;16.939698;1.1;-1.69;0.13;-0.626991;-0.793555;-0.002327;0.0;0.0;0.0;0.0;0.0;0.0
1.0;1753881170.077877;16.955567;0.99;-1.68;0.1;-0.628005;-0.793443;-0.002052;0.0;0.0;0.0;0.0;0.0;0.0
1.0;1753881170.082465;16.929179;1.15;-1.62;0.07;-0.626861;-0.793261;-0.000964;0.0;0.0;0.0;0.0;0.0;0.0
1.0;1753881170.087053;16.891597;1.04;-1.53;0.04;-0.627209;-0.792736;-0.002345;0.0;0.0;0.0;0.0;0.0;0.0
1.0;1753881170.091641;16.947992;0.96;-1.57;0.08;-0.628616;-0.794103;-0.002749;0.0;0.0;0.0;0.0;0.0;0.0
1.0;1753881170.096228;16.922623;1.14;-1.68;0.1;-0.624661;-0.792199;-0.001793;0.0;0.0;0.0;0.0;0.0;0.0
1.0;1753881170.100816;16.921267;1.09;-1.67;0.11;-0.627132;-0.792739;-0.002099;0.0;0.0;0.0;0.0;0.0;0.0
1.0;1753881170.105404;16.919447;1.07;-1.64;0.07;-0.628858;-0.793949;-0.00341;0.0;0.0;0.0;0.0;0.0;0.0
1.0;1753881170.109992;16.922858;1.07;-1.57;0.09;-0.62539;-0.793557;-0.001787;0.0;0.0;0.0;0.0;0.0;0.0
1.0;1753881170.11458;16.924466;1.07;-1.53;0.09;-0.629124;-0.792501;-0.001478;0.0;0.0;0.0;0.0;0.0;0.0
1.0;1753881170.119168;16.944429;0.91;-1.72;0.05;-0.629454;-0.793022;-0.002734;0.0;0.0;0.0;0.0;0.0;0.0
1.0;1753881170.123756;16.927051;1.06;-1.61;0.07;-0.627846;-0.79413;-0.002028;0.0;0.0;0.0;0.0;0.0;0.0
1.0;1753881170.128344;16.90692;1.1;-1.63;0.07;-0.625534;-0.794126;-0.002099;0.0;0.0;0.0;0.0;0.0;0.0
1.0;1753881170.132932;16.924431;1.05;-1.63;0.01;-0.627704;-0.79249;-0.002815;0.0;0.0;0.0;0.0;0.0;0.0
1.0;1753881170.13752;16.971106;0.92;-1.73;0.11;-0.625656;-0.792346;-0.002109;0.0;0.0;0.0;0.0;0.0;0.0
1.0;1753881170.142108;16.917322;1.06;-1.7;-0.0;-0.626763;-0.793809;-0.002161;0.0;0.0;0.0;0.0;0.0;0.0
1.0;1753881170.146696;16.94825;1.07;-1.67;0.08;-0.62527;-0.792942;-0.001983;0.0;0.0;0.0;0.0;0.0;0.0
1.0;1753881170.151283;16.953558;1.05;-1.69;0.09;-0.625943;-0.79337;-0.001151;0.0;0.0;0.0;0.0;0.0;0.0
1.0;1753881170.155871;16.932202;1.03;-1.68;0.03;-0.627259;-0.793283;-0.001491;0.0;0.0;0.0;0.0;0.0;0.0
1.0;1753881170.160459;16.975941;1.16;-1.66;0.08;-0.628531;-0.794008;-0.00213;0.0;0.0;0.0;0.0;0.0;0.0
1.0;1753881170.165047;16.940727;1.08;-1.67;0.1;-0.626393;-0.792934;-0.002483;0.0;0.0;0.0;0.0;0.0;0.0
1.0;1753881170.169635;16.972584;1.21;-1.71;0.1;-0.625789;-0.793355;-0.002367;0.0;0.0;0.0;0.0;0.0;0.0
1.0;1753881170.174223;16.924127;1.11;-1.59;0.05;-0.626702;-0.792852;-0.002265;0.0;0.0;0.0;0.0;0.0;0.0
1.0;1753881170.17881;16.931048;1.03;-1.7;0.08;-0.627065;-0.792983;-0.002395;0.0;0.0;0.0;0.0;0.0;0.0
1.0;1753881170.183398;16.929618;1.01;-1.62;0.1;-0.625588;-0.791798;-0.002185;0.0;0.0;0.0;0.0;0.0;0.0
1.0;1753881170.187986;16.974645;1.08;-1.68;0.1;-0.625845;-0.792881;-0.002239;0.0;0.0;0.0;0.0;0.0;0.0
1.0;1753881170.192574;16.994358;1.07;-1.58;0.09;-0.627403;-0.792857;-0.001609;0.0;0.0;0.0;0.0;0.0;0.0
1.0;1753881170.197162;16.95322;1.03;-1.66;0.1;-0.626884;-0.792028;-0.001919;0.0;0.0;0.0;0.0;0.0;0.0
1.0;1753881170.20175;16.958947;1.07;-1.65;0.11;-0.628407;-0.79348;-0.002416;0.0;0.0;0.0;0.0;0.0;0.0
1.0;1753881170.206338;16.907647;0.99;-1.65;0.03;-0.627141;-0.792874;-0.002946;0.0;0.0;0.0;0.0;0.0;0.0
1.0;1753881170.210926;16.93337;1.02;-1.72;0.1;-0.62735;-0.792595;-0.003004;0.0;0.0;0.0;0.0;0.0;0.0
1.0;1753881170.215514;16.922488;1.03;-1.61;0.05;-0.624524;-0.793814;-0.002022;0.0;0.0;0.0;0.0;0.0;0.0
1.0;1753881170.220102;16.938847;1.04;-1.57;0.12;-0.62812;-0.793222;-0.0028;0.0;0.0;0.0;0.0;0.0;0.0
1.0;1753881170.22469;16.941053;1.13;-1.72;0.04;-0.626325;-0.792787;-0.002495;0.0;0.0;0.0;0.0;0.0;0.0
1.0;1753881170.229277;16.917562;1.07;-1.65;0.1;-0.627401;-0.793086;-0.001218;0.0;0.0;0.0;0.0;0.0;0.0
1.0;1753881170.233865;16.907204;1.05;-1.64;0.01;-0.62791;-0.79262;-0.00192;0.0;0.0;0.0;0.0;0.0;0.0
1.0;1753881170.238453;16.939317;1.14;-1.7;0.03;-0.625992;-0.792684;-0.002548;0.0;0.0;0.0;0.0;0.0;0.0
1.0;1753881170.243041;16.942183;1.07;-1.64;0.03;-0.627414;-0.793691;-0.001754;0.0;0.0;0.0;0.0;0.0;0.0
1.0;1753881170.247629;16.948442;1.05;-1.7;0.05;-0.627337;-0.793397;-0.002945;0.0;0.0;0.0;0.0;0.0;0.0
1.0;1753881170.252217;16.919818;1.06;-1.67;0.08;-0.625284;-0.79269;-0.002202;0.0;0.0;0.0;0.0;0.0;0.0
1.0;1753881170.256805;16.952077;1.11;-1.58;0.11;-0.626148;-0.792205;-0.001927;0.0;0.0;0.0;0.0;0.0;0.0
1.0;1753881170.261392;16.927922;1.09;-1.61;0.04;-0.628997;-0.792365;-0.003203;0.0;0.0;0.0;0.0;0.0;0.0
1.0;1753881170.26598;16.981714;1.09;-1.6;0.05;-0.627908;-0.791943;-0.003934;0.0;0.0;0.0;0.0;0.0;0.0
1.0;1753881170.270568;16.959985;0.98;-1.61;0.06;-0.625992;-0.792899;-0.002345;0.0;0.0;0.0;0.0;0.0;0.0
1.0;1753881170.275156;16.950684;1.11;-1.56;0.11;-0.625668;-0.792898;-0.000684;0.0;0.0;0.0;0.0;0.0;0.0
1.0;1753881170.279744;16.942397;1.1;-1.55;0.14;-0.628788;-0.792933;-0.002745;0.0;0.0;0.0;0.0;0.0;0.0
1.0;1753881170.284332;16.958245;1.12;-1.6;0.08;-0.628561;-0.7936;-0.003422;0.0;0.0;0.0;0.0;0.0;0.0
1.0;1753881170.28892;16.957532;1.11;-1.73;0.08;-0.628403;-0.79299;-0.001556;0.0;0.0;0.0;0.0;0.0;0.0
1.0;1753881170.293508;16.95906;1.0;-1.58;0.07;-0.629119;-0.79263;-0.002587;0.0;0.0;0.0;0.0;0.0;0.0
1.0;1753881170.298096;16.948358;1.05;-1.59;-0.01;-0.628811;-0.793;-0.001309;0.0;0.0;0.0;0.0;0.0;0.0
1.0;1753881170.302684;16.94253;1.04;-1.63;0.09;-0.625547;-0.792429;-0.003473;0.0;0.0;0.0;0.0;0.0;0.0
1.0;1753881170.307272;16.96608;0.96;-1.6;0.05;-0.625906;-0.792711;-0.002273;0.0;0.0;0.0;0.0;0.0;0.0
1.0;1753881170.311859;16.954831;1.15;-1.58;0.02;-0.627303;-0.793143;-0.002769;0.0;0.0;0.0;0.0;0.0;0.0
1.0;1753881170.316447;16.940873;1.12;-1.67;0.06;-0.626212;-0.792298;-0.00182;0.0;0.0;0.0;0.0;0.0;0.0
1.0;1753881170.321035;16.964754;1.04;-1.61;0.09;-0.628622;-0.792198;-0.002196;0.0;0.0;0.0;0.0;0.0;0.0
1.0;1753881170.325623;16.950259;0.98;-1.64;0.13;-0.626725;-0.792906;-0.002827;0.0;0.0;0.0;0.0;0.0;0.0
1.0;1753881170.330211;16.975594;1.03;-1.61;0.05;-0.625341;-0.793215;-0.003014;0.0;0.0;0.0;0.0;0.0;0.0
1.0;1753881170.334799;16.946349;1.01;-1.58;0.08;-0.628176;-0.793705;-0.001893;0.0;0.0;0.0;0.0;0.0;0.0
1.0;1753881170.339387;16.938762;1.08;-1.56;0.03;-0.626656;-0.792458;-0.003387;0.0;0.0;0.0;0.0;0.0;0.0
1.0;1753881170.343974;16.988698;1.07;-1.68;0.06;-0.627619;-0.792563;-0.00276;0.0;0.0;0.0;0.0;0.0;0.0
1.0;1753881170.348562;16.96223;1.19;-1.65;0.11;-0.626267;-0.793038;-0.003258;0.0;0.0;0.0;0.0;0.0;0.0
1.0;1753881170.35315;16.960054;1.0;-1.72;0.13;-0.626016;-0.792593;-0.001447;0.0;0.0;0.0;0.0;0.0;0.0
1.0;1753881170.357738;16.941049;1.12;-1.63;0.09;-0.626147;-0.792695;-0.000504;0.0;0.0;0.0;0.0;0.0;0.0
1.0;1753881170.362326;16.948614;1.09;-1.62;0.12;-0.625567;-0.791768;-0.001672;0.0;0.0;0.0;0.0;0.0;0.0
1.0;1753881170.366914;16.970205;1.12;-1.64;0.05;-0.627313;-0.792912;-0.002899;0.0;0.0;0.0;0.0;0.0;0.0
1.0;1753881170.371502;16.949872;0.97;-1.67;0.1;-0.626746;-0.792964;-0.002199;0.0;0.0;0.0;0.0;0.0;0.0
1.0;1753881170.37609;16.953549;1.04;-1.66;0.07;-0.625249;-0.793146;-0.001475;0.0;0.0;0.0;0.0;0.0;0.0
1.0;1753881170.380678;16.979199;0.97;-1.63;0.07;-0.626325;-0.792871;-0.003272;0.0;0.0;0.0;0.0;0.0;0.0
1.0;1753881170.385266;16.956382;1.02;-1.62;0.01;-0.624975;-0.791765;-0.002614;0.0;0.0;0.0;0.0;0.0;0.0
1.0;1753881170.389854;16.958296;0.97;-1.58;0.12;-0.626529;-0.792408;-0.001649;0.0;0.0;0.0;0.0;0.0;0.0
1.0;1753881170.394441;16.907016;1.04;-1.62;0.06;-0.624637;-0.792033;-0.003576;0.0;0.0;0.0;0.0;0.0;0.0
1.0;1753881170.399029;16.937253;1.07;-1.57;0.06;-0.626639;-0.793606;-0.00025;0.0;0.0;0.0;0.0;0.0;0.0
1.0;1753881170.403617;16.964202;0.91;-1.69;0.05;-0.626194;-0.793225;-0.003691;0.0;0.0;0.0;0.0;0.0;0.0
1.0;1753881170.408205;16.974246;1.05;-1.54;0.05;-0.626415;-0.792679;-0.004117;0.0;0.0;0.0;0.0;0.0;0.0
1.0;1753881170.412793;16.986579;1.07;-1.59;0.06;-0.626827;-0.791856;-0.002291;0.0;0.0;0.0;0.0;0.0;0.0
1.0;1753881170.417381;16.957686;1.08;-1.65;0.01;-0.625697;-0.793146;-0.003325;0.0;0.0;0.0;0.0;0.0;0.0
1.0;1753881170.421969;16.979105;1.11;-1.6;0.01;-0.627623;-0.792232;-0.002087;0.0;0.0;0.0;0.0;0.0;0.0
1.0;1753881170.426556;16.989434;1.04;-1.7;0.1;-0.626814;-0.792171;-0.002587;0.0;0.0;0.0;0.0;0.0;0.0
1.0;1753881170.431144;16.988782;0.99;-1.65;0.11;-0.627104;-0.792755;-0.003301;0.0;0.0;0.0;0.0;0.0;0.0
1.0;1753881170.435732;16.97036;0.97;-1.61;0.06;-0.62589;-0.793274;-0.003772;0.0;0.0;0.0;0.0;0.0;0.0
1.0;1753881170.44032;16.926706;0.93;-1.8;0.08;-0.624959;-0.792611;-0.003381;0.0;0.0;0.0;0.0;0.0;0.0
1.0;1753881170.444908;16.996641;1.11;-1.6;0.13;-0.62571;-0.793584;-0.001206;0.0;0.0;0.0;0.0;0.0;0.0
1.0;1753881170.4531;16.96875;1.05;-1.61;0.07;-0.626348;-0.792878;-0.002684;0.0;0.0;0.0;0.0;0.0;0.0
1.0;1753881170.457688;16.978062;1.02;-1.59;0.05;-0.62577;-0.7941;-0.003142;0.0;0.0;0.0;0.0;0.0;0.0
1.0;1753881170.462276;16.941152;1.12;-1.58;0.04;-0.626932;-0.792478;-0.003331;0.0;0.0;0.0;0.0;0.0;0.0
1.0;1753881170.466864;16.960171;1.13;-1.7;0.09;-0.627736;-0.792837;-0.001586;0.0;0.0;0.0;0.0;0.0;0.0
1.0;1753881170.471452;16.981554;1.05;-1.66;0.1;-0.624408;-0.79351;-0.00394;0.0;0.0;0.0;0.0;0.0;0.0
1.0;1753881170.47604;17.001741;1.12;-1.55;0.08;-0.62735;-0.792105;-0.002861;0.0;0.0;0.0;0.0;0.0;0.0
1.0;1753881170.480627;16.96219;1.04;-1.59;0.1;-0.626914;-0.792266;-0.005611;0.0;0.0;0.0;0.0;0.0;0.0
1.0;1753881170.485215;16.978907;1.07;-1.62;0.1;-0.626576;-0.792817;-0.003572;0.0;0.0;0.0;0.0;0.0;0.0
1.0;1753881170.489803;17.001932;1.05;-1.61;0.08;-0.627137;-0.791919;-0.004532;0.0;0.0;0.0;0.0;0.0;0.0
1.0;1753881170.494391;16.954051;1.06;-1.56;0.12;-0.62621;-0.793431;-0.004344;0.0;0.0;0.0;0.0;0.0;0.0
1.0;1753881170.498979;16.955357;1.0;-1.6;0.1;-0.625429;-0.793321;-0.004757;0.0;0.0;0.0;0.0;0.0;0.0
1.0;1753881170.503567;17.007368;1.14;-1.62;0.07;-0.625857;-0.793877;-0.002287;0.0;0.0;0.0;0.0;0.0;0.0
1.0;1753881170.508155;16.987757;1.05;-1.57;0.1;-0.625808;-0.79313;-0.001399;0.0;0.0;0.0;0.0;0.0;0.0
1.0;1753881170.512742;16.963338;1.02;-1.58;0.08;-0.627256;-0.791661;-0.001016;0.0;0.0;0.0;0.0;0.0;0.0
1.0;1753881170.51733;16.969595;1.04;-1.52;0.05;-0.62436;-0.792407;-0.002477;0.0;0.0;0.0;0.0;0.0;0.0
1.0;1753881170.521918;16.987934;1.11;-1.59;0.09;-0.627631;-0.793889;-0.004087;0.0;0.0;0.0;0.0;0.0;0.0
1.0;1753881170.526506;16.966289;1.03;-1.6;0.11;-0.626094;-0.793182;-0.003192;0.0;0.0;0.0;0.0;0.0;0.0
1.0;1753881170.531094;16.973537;0.97;-1.66;0.06;-0.625772;-0.793272;-0.002274;0.0;0.0;0.0;0.0;0.0;0.0
1.0;1753881170.535682;16.958368;1.07;-1.53;0.05;-0.62673;-0.792155;-0.002624;0.0;0.0;0.0;0.0;0.0;0.0
1.0;1753881170.54027;16.956579;0.91;-1.68;0.1;-0.626828;-0.792952;-0.001417;0.0;0.0;0.0;0.0;0.0;0.0
1.0;1753881170.544858;16.989704;1.0;-1.61;0.06;-0.627247;-0.793375;-0.00158;0.0;0.0;0.0;0.0;0.0;0.0
1.0;1753881170.549446;16.9676;1.01;-1.58;0.11;-0.628637;-0.793646;-0.002005;0.0;0.0;0.0;0.0;0.0;0.0
1.0;1753881170.554034;16.970479;0.97;-1.66;0.04;-0.627791;-0.79305;-0.000742;0.0;0.0;0.0;0.0;0.0;0.0
1.0;1753881170.558622;16.961828;1.02;-1.69;0.08;-0.6261;-0.793931;-0.000954;0.0;0.0;0.0;0.0;0.0;0.0
1.0;1753881170.563209;16.975894;1.04;-1.63;0.02;-0.624781;-0.793368;-0.002675;0.0;0.0;0.0;0.0;0.0;0.0
1.0;1753881170.567797;16.989217;1.08;-1.56;0.04;-0.625829;-0.791694;-0.002942;0.0;0.0;0.0;0.0;0.0;0.0
1.0;1753881170.572385;16.93332;1.06;-1.72;-0.03;-0.627166;-0.793388;-0.001713;0.0;0.0;0.0;0.0;0.0;0.0
1.0;1753881170.576973;16.960503;1.04;-1.51;0.03;-0.627581;-0.793981;-0.002597;0.0;0.0;0.0;0.0;0.0;0.0
1.0;1753881170.581561;16.98838;1.07;-1.56;-0.01;-0.624494;-0.79295;-0.004464;0.0;0.0;0.0;0.0;0.0;0.0
1.0;1753881170.586149;16.977926;1.05;-1.55;0.11;-0.6246;-0.79289;-0.002474;0.0;0.0;0.0;0.0;0.0;0.0
1.0;1753881170.590737;16.946487;1.06;-1.64;0.1;-0.627365;-0.79193;0.00022;0.0;0.0;0.0;0.0;0.0;0.0
1.0;1753881170.595324;16.991011;1.17;-1.63;0.05;-0.625657;-0.793358;-0.001564;0.0;0.0;0.0;0.0;0.0;0.0
1.0;1753881170.599912;16.979165;1.02;-1.63;0.03;-0.626292;-0.793461;-0.001481;0.0;0.0;0.0;0.0;0.0;0.0
1.0;1753881170.6045;16.934103;1.06;-1.67;0.09;-0.625708;-0.794278;-0.002634;0.0;0.0;0.0;0.0;0.0;0.0
1.0;1753881170.609088;16.939945;0.91;-1.6;0.14;-0.625827;-0.793485;-0.002192;0.0;0.0;0.0;0.0;0.0;0.0
1.0;1753881170.613676;16.946986;1.08;-1.68;0.08;-0.625204;-0.79351;-0.001025;0.0;0.0;0.0;0.0;0.0;0.0
1.0;1753881170.618264;16.928793;0.99;-1.57;0.03;-0.626133;-0.79234;-0.001982;0.0;0.0;0.0;0.0;0.0;0.0
1.0;1753881170.622852;16.965792;0.98;-1.65;0.0;-0.626893;-0.792723;-0.003765;0.0;0.0;0.0;0.0;0.0;0.0
1.0;1753881170.62744;16.958135;1.01;-1.66;0.02;-0.626882;-0.793969;-0.003482;0.0;0.0;0.0;0.0;0.0;0.0
1.0;1753881170.632028;16.979839;1.04;-1.59;0.04;-0.627998;-0.793829;-0.000461;0.0;0.0;0.0;0.0;0.0;0.0
1.0;1753881170.636616;16.968278;1.05;-1.6;0.1;-0.628345;-0.792707;-0.002198;0.0;0.0;0.0;0.0;0.0;0.0
1.0;1753881170.641204;16.947912;1.08;-1.59;0.07;-0.624361;-0.792523;-0.00282;0.0;0.0;0.0;0.0;0.0;0.0
1.0;1753881170.645791;17.001492;1.07;-1.7;0.11;-0.627193;-0.794393;-0.000621;0.0;0.0;0.0;0.0;0.0;0.0
1.0;1753881170.650379;16.939395;1.15;-1.66;0.1;-0.626503;-0.793961;-0.000413;0.0;0.0;0.0;0.0;0.0;0.0
1.0;1753881170.654967;16.974924;1.03;-1.7;0.04;-0.625481;-0.793362;-0.001237;0.0;0.0;0.0;0.0;0.0;0.0
1.0;1753881170.659555;16.936252;1.03;-1.74;0.11;-0.625756;-0.793101;-0.001469;0.0;0.0;0.0;0.0;0.0;0.0
1.0;1753881170.664143;16.968845;1.02;-1.73;0.09;-0.627431;-0.793388;-0.003141;0.0;0.0;0.0;0.0;0.0;0.0
1.0;1753881170.668731;16.931118;0.91;-1.62;0.07;-0.626114;-0.794386;-0.000636;0.0;0.0;0.0;0.0;0.0;0.0
1.0;1753881170.673318;16.97037;1.03;-1.67;0.06;-0.627148;-0.793078;-0.001379;0.0;0.0;0.0;0.0;0.0;0.0
1.0;1753881170.677906;16.972747;0.95;-1.73;0.14;-0.625288;-0.793601;-0.001949;0.0;0.0;0.0;0.0;0.0;0.0
1.0;1753881170.682494;16.94528;1.0;-1.68;0.08;-0.626512;-0.793965;-0.000658;0.0;0.0;0.0;0.0;0.0;0.0
1.0;1753881170.687082;16.976537;1.2;-1.82;0.01;-0.627165;-0.793025;-0.003296;0.0;0.0;0.0;0.0;0.0;0.0
1.0;1753881170.69167;16.956811;1.01;-1.68;0.07;-0.625389;-0.794386;-0.001805;0.0;0.0;0.0;0.0;0.0;0.0
1.0;1753881170.696258;16.947268;0.92;-1.66;0.04;-0.627924;-0.79386;-0.002248;0.0;0.0;0.0;0.0;0.0;0.0
1.0;1753881170.700846;16.981154;0.97;-1.67;0.04;-0.627309;-0.794435;-0.002809;0.0;0.0;0.0;0.0;0.0;0.0
1.0;1753881170.705434;17.007456;1.04;-1.6;0.11;-0.626562;-0.793432;-0.0005;0.0;0.0;0.0;0.0;0.0;0.0
1.0;1753881170.710022;17.001727;0.96;-1.69;0.06;-0.626305;-0.793091;-0.001748;0.0;0.0;0.0;0.0;0.0;0.0
1.0;1753881170.71461;16.947029;0.98;-1.67;0.05;-0.626744;-0.792482;-0.00247;0.0;0.0;0.0;0.0;0.0;0.0
1.0;1753881170.719198;16.982645;0.99;-1.72;0.06;-0.62608;-0.793961;-0.001538;0.0;0.0;0.0;0.0;0.0;0.0
1.0;1753881170.723786;16.987055;0.98;-1.59;0.01;-0.623829;-0.792532;-0.003663;0.0;0.0;0.0;0.0;0.0;0.0
1.0;1753881170.728373;16.97284;0.93;-1.75;0.04;-0.625736;-0.794077;-0.000191;0.0;0.0;0.0;0.0;0.0;0.0
1.0;1753881170.732961;16.956647;0.86;-1.61;0.05;-0.626577;-0.794356;-0.002874;0.0;0.0;0.0;0.0;0.0;0.0
1.0;1753881170.737549;16.977016;1.0;-1.72;0.01;-0.627437;-0.794668;-0.002252;0.0;0.0;0.0;0.0;0.0;0.0
1.0;1753881170.742137;16.969571;0.92;-1.68;0.04;-0.62672;-0.792748;-0.002195;0.0;0.0;0.0;0.0;0.0;0.0
1.0;1753881170.746725;16.990083;0.92;-1.66;0.1;-0.626964;-0.794;-0.00272;0.0;0.0;0.0;0.0;0.0;0.0
1.0;1753881170.751313;16.989744;0.95;-1.65;0.12;-0.62753;-0.793923;-0.001176;0.0;0.0;0.0;0.0;0.0;0.0
1.0;1753881170.7559;16.980074;0.89;-1.6;0.05;-0.626092;-0.793748;-0.00166;0.0;0.0;0.0;0.0;0.0;0.0
1.0;1753881170.760488;16.962953;0.92;-1.72;0.07;-0.62719;-0.793383;-0.000539;0.0;0.0;0.0;0.0;0.0;0.0
1.0;1753881170.765076;16.96548;1.08;-1.82;0.03;-0.624556;-0.793319;-0.00241;0.0;0.0;0.0;0.0;0.0;0.0
1.0;1753881170.769664;16.925555;0.98;-1.62;0.03;-0.624837;-0.795135;-0.003098;0.0;0.0;0.0;0.0;0.0;0.0
1.0;1753881170.774252;16.991825;0.98;-1.68;0.03;-0.627808;-0.792372;-0.001749;0.0;0.0;0.0;0.0;0.0;0.0
1.0;1753881170.77884;16.97796;1.03;-1.78;0.12;-0.628052;-0.793881;-0.001865;0.0;0.0;0.0;0.0;0.0;0.0
1.0;1753881170.783428;16.973981;1.06;-1.62;0.05;-0.627355;-0.79309;-0.001611;0.0;0.0;0.0;0.0;0.0;0.0
1.0;1753881170.788016;16.976771;1.08;-1.7;0.04;-0.627367;-0.79302;-0.002249;0.0;0.0;0.0;0.0;0.0;0.0
1.0;1753881170.792604;16.993121;1.08;-1.69;-0.03;-0.625806;-0.793855;-0.000579;0.0;0.0;0.0;0.0;0.0;0.0
1.0;1753881170.797192;16.969703;1.1;-1.62;0.09;-0.62673;-0.793463;-0.00161;0.0;0.0;0.0;0.0;0.0;0.0
1.0;1753881170.80178;16.948968;1.06;-1.73;0.05;-0.624317;-0.793304;-0.001001;0.0;0.0;0.0;0.0;0.0;0.0
1.0;1753881170.806368;16.956268;0.94;-1.64;0.12;-0.625221;-0.793973;-0.00216;0.0;0.0;0.0;0.0;0.0;0.0
1.0;1753881170.810955;16.98851;0.83;-1.63;0.04;-0.62419;-0.793864;-0.002051;0.0;0.0;0.0;0.0;0.0;0.0
1.0;1753881170.815543;16.994544;0.91;-1.61;0.03;-0.627054;-0.793709;-0.001982;0.0;0.0;0.0;0.0;0.0;0.0
1.0;1753881170.820131;16.938821;0.96;-1.75;0.14;-0.625722;-0.794711;-0.002773;0.0;0.0;0.0;0.0;0.0;0.0
1.0;1753881170.824719;16.985174;0.95;-1.65;0.05;-0.625942;-0.794398;-0.001159;0.0;0.0;0.0;0.0;0.0;0.0
1.0;1753881170.829307;16.972754;0.96;-1.66;0.09;-0.627058;-0.79467;-0.001826;0.0;0.0;0.0;0.0;0.0;0.0
1.0;1753881170.833895;16.949342;0.94;-1.62;0.02;-0.626511;-0.793668;-0.00066;0.0;0.0;0.0;0.0;0.0;0.0
1.0;1753881170.838482;16.949484;0.96;-1.61;0.09;-0.626483;-0.793386;-0.002757;0.0;0.0;0.0;0.0;0.0;0.0
1.0;1753881170.84307;16.980383;1.02;-1.71;0.06;-0.626414;-0.795067;-0.00209;0.0;0.0;0.0;0.0;0.0;0.0
1.0;1753881170.847658;16.972762;0.98;-1.67;0.05;-0.625418;-0.793429;-0.000471;0.0;0.0;0.0;0.0;0.0;0.0
1.0;1753881170.852246;16.925673;1.01;-1.49;0.09;-0.626679;-0.794128;-0.002408;0.0;0.0;0.0;0.0;0.0;0.0
1.0;1753881170.856834;16.968281;0.93;-1.63;0.02;-0.627571;-0.794254;-0.001933;0.0;0.0;0.0;0.0;0.0;0.0
1.0;1753881170.861422;16.976929;0.93;-1.64;0.11;-0.627097;-0.794275;-0.000305;0.0;0.0;0.0;0.0;0.0;0.0
1.0;1753881170.86601;16.949485;1.05;-1.64;0.02;-0.625571;-0.792974;-0.000595;0.0;0.0;0.0;0.0;0.0;0.0
1.0;1753881170.870598;16.942291;0.99;-1.7;0.04;-0.626931;-0.793053;0.00065;0.0;0.0;0.0;0.0;0.0;0.0
1.0;1753881170.875186;16.991062;0.96;-1.69;0.13;-0.624565;-0.793926;-0.001187;0.0;0.0;0.0;0.0;0.0;0.0
1.0;1753881170.879774;16.944758;1.02;-1.67;0.06;-0.626664;-0.794008;-0.00168;0.0;0.0;0.0;0.0;0.0;0.0
1.0;1753881170.884362;16.961495;1.07;-1.7;0.04;-0.625139;-0.795085;-0.002152;0.0;0.0;0.0;0.0;0.0;0.0
1.0;1753881170.88895;16.967391;1.03;-1.67;0.08;-0.627386;-0.794862;-0.001559;0.0;0.0;0.0;0.0;0.0;0.0
1.0;1753881170.893537;16.959183;0.99;-1.78;0.1;-0.626759;-0.795245;-0.00259;0.0;0.0;0.0;0.0;0.0;0.0
1.0;1753881170.898125;16.954968;1.05;-1.7;0.11;-0.627577;-0.794817;-0.001582;0.0;0.0;0.0;0.0;0.0;0.0
1.0;1753881170.9048;16.96875;0.98;-1.68;0.07;-0.626592;-0.794098;-0.001342;0.0;0.0;0.0;0.0;0.0;0.0
1.0;1753881170.909388;16.966462;1.02;-1.59;0.03;-0.627561;-0.793181;-0.002716;0.0;0.0;0.0;0.0;0.0;0.0
1.0;1753881170.91352;16.96875;1.19;-1.61;0.07;-0.6283;-0.793244;-0.00305;0.0;0.0;0.0;0.0;0.0;0.0
1.0;1753881170.918108;16.930008;1.13;-1.63;0.04;-0.628065;-0.793565;-0.002266;0.0;0.0;0.0;0.0;0.0;0.0
1.0;1753881170.922696;16.92043;1.1;-1.61;0.14;-0.626992;-0.792894;-0.003782;0.0;0.0;0.0;0.0;0.0;0.0
1.0;1753881170.927284;16.965669;1.28;-1.64;0.07;-0.625662;-0.792669;-0.002605;0.0;0.0;0.0;0.0;0.0;0.0
1.0;1753881170.931872;17.004341;1.12;-1.62;0.02;-0.627497;-0.794216;-0.002314;0.0;0.0;0.0;0.0;0.0;0.0
1.0;1753881170.93646;16.934448;1.1;-1.7;0.06;-0.627096;-0.793095;-0.003487;0.0;0.0;0.0;0.0;0.0;0.0
1.0;1753881170.941048;16.913537;1.18;-1.57;0.07;-0.625083;-0.79274;-0.003516;0.0;0.0;0.0;0.0;0.0;0.0
1.0;1753881170.945635;16.887613;1.08;-1.76;0.15;-0.625989;-0.793991;-0.003138;0.0;0.0;0.0;0.0;0.0;0.0
1.0;1753881170.950223;16.924994;1.14;-1.71;0.08;-0.624985;-0.792736;-0.002657;0.0;0.0;0.0;0.0;0.0;0.0
1.0;1753881170.954811;16.885121;1.06;-1.7;0.06;-0.625979;-0.79349;-0.004215;0.0;0.0;0.0;0.0;0.0;0.0
1.0;1753881170.95934;16.914062;1.05;-1.68;0.07;-0.62525;-0.79239;-0.003294;0.0;0.0;0.0;0.0;0.0;0.0
1.0;1753881170.960174;16.953125;1.12;-1.75;0.07;-0.627812;-0.79178;-0.002318;0.0;0.0;0.0;0.0;0.0;0.0
1.0;1753881170.965927;16.953125;1.05;-1.54;0.07;-0.625982;-0.792634;-0.002562;0.0;0.0;0.0;0.0;0.0;0.0
1.0;1753881170.969287;16.953125;1.05;-1.61;0.14;-0.628788;-0.792634;-0.003904;0.0;0.0;0.0;0.0;0.0;0.0
1.0;1753881170.973895;16.941406;1.05;-1.75;0.07;-0.625616;-0.793366;-0.002318;0.0;0.0;0.0;0.0;0.0;0.0
1.0;1753881170.978483;16.942948;0.99;-1.73;0.06;-0.627894;-0.792399;-0.002993;0.0;0.0;0.0;0.0;0.0;0.0
1.0;1753881170.983538;16.941406;1.05;-1.82;0.07;-0.626714;-0.794098;-0.00305;0.0;0.0;0.0;0.0;0.0;0.0
1.0;1753881170.987612;16.941406;1.05;-1.75;0.07;-0.626348;-0.793366;-0.002318;0.0;0.0;0.0;0.0;0.0;0.0
1.0;1753881170.992362;16.882812;1.12;-1.68;0.14;-0.627324;-0.793854;-0.002928;0.0;0.0;0.0;0.0;0.0;0.0
1.0;1753881170.99695;16.931246;1.09;-1.52;0.13;-0.626639;-0.793439;-0.004004;0.0;0.0;0.0;0.0;0.0;0.0
1.0;1753881171.001538;16.891314;1.17;-1.74;0.09;-0.628541;-0.79387;-0.003257;0.0;0.0;0.0;0.0;0.0;0.0
1.0;1753881171.006126;16.898853;1.11;-1.56;0.13;-0.627382;-0.794127;-0.001425;0.0;0.0;0.0;0.0;0.0;0.0
1.0;1753881171.010714;16.935461;1.09;-1.75;0.16;-0.627778;-0.794256;-0.002003;0.0;0.0;0.0;0.0;0.0;0.0
1.0;1753881171.015302;16.887467;1.03;-1.75;0.13;-0.625851;-0.793583;-0.003919;0.0;0.0;0.0;0.0;0.0;0.0
1.0;1753881171.019889;16.892278;1.09;-1.56;0.18;-0.626764;-0.792709;-0.001871;0.0;0.0;0.0;0.0;0.0;0.0
1.0;1753881171.024477;16.852114;1.05;-1.69;0.14;-0.625558;-0.793333;-0.002895;0.0;0.0;0.0;0.0;0.0;0.0
1.0;1753881171.029065;16.825524;1.15;-1.69;0.11;-0.625546;-0.794738;-0.003407;0.0;0.0;0.0;0.0;0.0;0.0
1.0;1753881171.033653;16.89805;1.1;-1.78;0.11;-0.62643;-0.792331;-0.003019;0.0;0.0;0.0;0.0;0.0;0.0
1.0;1753881171.038241;16.884462;1.1;-1.76;0.11;-0.628156;-0.794464;-0.002675;0.0;0.0;0.0;0.0;0.0;0.0
1.0;1753881171.042829;16.909556;1.14;-1.62;0.11;-0.628161;-0.793824;-0.001294;0.0;0.0;0.0;0.0;0.0;0.0
1.0;1753881171.047417;16.882337;1.11;-1.69;0.18;-0.628958;-0.794002;-0.001985;0.0;0.0;0.0;0.0;0.0;0.0
1.0;1753881171.052004;16.856359;1.18;-1.61;0.13;-0.628127;-0.793529;-0.002973;0.0;0.0;0.0;0.0;0.0;0.0
1.0;1753881171.056592;16.924742;1.07;-1.65;0.01;-0.62648;-0.792889;-0.002313;0.0;0.0;0.0;0.0;0.0;0.0
1.0;1753881171.06118;16.906501;1.03;-1.77;0.14;-0.625746;-0.793545;-0.002492;0.0;0.0;0.0;0.0;0.0;0.0
1.0;1753881171.065768;16.868032;1.19;-1.63;0.15;-0.627353;-0.793993;-0.002807;0.0;0.0;0.0;0.0;0.0;0.0
1.0;1753881171.070356;16.886205;1.11;-1.6;0.09;-0.625781;-0.794259;-0.003634;0.0;0.0;0.0;0.0;0.0;0.0
1.0;1753881171.074944;16.84171;1.15;-1.66;0.13;-0.629692;-0.793351;-0.002421;0.0;0.0;0.0;0.0;0.0;0.0
1.0;1753881171.079532;16.920386;1.1;-1.76;0.05;-0.627743;-0.794071;-0.003535;0.0;0.0;0.0;0.0;0.0;0.0
1.0;1753881171.08412;16.90068;1.09;-1.67;0.06;-0.627505;-0.792868;-0.003061;0.0;0.0;0.0;0.0;0.0;0.0
1.0;1753881171.088708;16.851678;1.1;-1.74;0.04;-0.628084;-0.794668;-0.002195;0.0;0.0;0.0;0.0;0.0;0.0
1.0;1753881171.093296;16.866227;1.13;-1.72;0.11;-0.627208;-0.793245;-0.005409;0.0;0.0;0.0;0.0;0.0;0.0
1.0;1753881171.097884;16.910862;1.13;-1.84;0.11;-0.627293;-0.794065;-0.002576;0.0;0.0;0.0;0.0;0.0;0.0
1.0;1753881171.102471;16.881212;1.1;-1.72;0.18;-0.625529;-0.794936;-0.002801;0.0;0.0;0.0;0.0;0.0;0.0
1.0;1753881171.107059;16.910499;1.06;-1.79;0.05;-0.62689;-0.792969;-0.00191;0.0;0.0;0.0;0.0;0.0;0.0
1.0;1753881171.111647;16.899037;1.13;-1.75;0.14;-0.627881;-0.793893;-0.001836;0.0;0.0;0.0;0.0;0.0;0.0
1.0;1753881171.116235;16.919237;1.09;-1.77;0.14;-0.628219;-0.794263;-0.002128;0.0;0.0;0.0;0.0;0.0;0.0
1.0;1753881171.120823;16.854266;1.12;-1.76;0.05;-0.626265;-0.79241;-0.002079;0.0;0.0;0.0;0.0;0.0;0.0
1.0;1753881171.125411;16.881237;1.19;-1.67;0.1;-0.627019;-0.7934;-0.003882;0.0;0.0;0.0;0.0;0.0;0.0
1.0;1753881171.129999;16.892295;1.12;-1.78;0.07;-0.625401;-0.79335;-0.002662;0.0;0.0;0.0;0.0;0.0;0.0
1.0;1753881171.134586;16.868816;1.12;-1.64;0.14;-0.626282;-0.793527;-0.002389;0.0;0.0;0.0;0.0;0.0;0.0
1.0;1753881171.139174;16.914188;1.11;-1.77;0.03;-0.626289;-0.793241;-0.002763;0.0;0.0;0.0;0.0;0.0;0.0
1.0;1753881171.143762;16.903814;1.17;-1.65;0.05;-0.628383;-0.794368;-0.001008;0.0;0.0;0.0;0.0;0.0;0.0
1.0;1753881171.14835;16.893988;1.14;-1.76;0.03;-0.627255;-0.793712;-0.002705;0.0;0.0;0.0;0.0;0.0;0.0
1.0;1753881171.152938;16.908462;1.18;-1.6;0.06;-0.626678;-0.793248;-0.002522;0.0;0.0;0.0;0.0;0.0;0.0
1.0;1753881171.157526;16.908829;1.2;-1.83;0.07;-0.627021;-0.793875;-0.002078;0.0;0.0;0.0;0.0;0.0;0.0
1.0;1753881171.162114;16.886565;1.1;-1.79;0.01;-0.628145;-0.793134;-0.003239;0.0;0.0;0.0;0.0;0.0;0.0
1.0;1753881171.166702;16.909094;1.02;-1.63;0.09;-0.626614;-0.793527;-0.004368;0.0;0.0;0.0;0.0;0.0;0.0
1.0;1753881171.17129;16.889492;1.25;-1.69;0.05;-0.62746;-0.792891;-0.000953;0.0;0.0;0.0;0.0;0.0;0.0
1.0;1753881171.175878;16.918068;1.04;-1.75;0.01;-0.627907;-0.79279;-0.003145;0.0;0.0;0.0;0.0;0.0;0.0
1.0;1753881171.180466;16.869348;1.08;-1.69;0.1;-0.626708;-0.792426;-0.002712;0.0;0.0;0.0;0.0;0.0;0.0
1.0;1753881171.185053;16.895269;1.14;-1.71;-0.01;-0.626257;-0.792575;-0.002571;0.0;0.0;0.0;0.0;0.0;0.0
1.0;1753881171.189641;16.850761;1.05;-1.75;0.07;-0.627369;-0.792875;-0.002003;0.0;0.0;0.0;0.0;0.0;0.0
1.0;1753881171.194229;16.864563;1.09;-1.8;0.07;-0.62814;-0.794269;-0.002955;0.0;0.0;0.0;0.0;0.0;0.0
1.0;1753881171.198817;16.861662;1.01;-1.73;-0.0;-0.629179;-0.793396;-0.003507;0.0;0.0;0.0;0.0;0.0;0.0
1.0;1753881171.203405;16.824652;1.14;-1.83;0.07;-0.62767;-0.793248;-0.001777;0.0;0.0;0.0;0.0;0.0;0.0
1.0;1753881171.207993;16.897675;1.12;-1.85;0.01;-0.628105;-0.793229;-0.002627;0.0;0.0;0.0;0.0;0.0;0.0
1.0;1753881171.212581;16.892935;1.05;-1.63;0.04;-0.627957;-0.793958;-0.002128;0.0;0.0;0.0;0.0;0.0;0.0
1.0;1753881171.217168;16.915537;1.0;-1.65;0.0;-0.628145;-0.792823;-0.003497;0.0;0.0;0.0;0.0;0.0;0.0
1.0;1753881171.221756;16.902669;1.05;-1.82;0.04;-0.626274;-0.792556;-0.001954;0.0;0.0;0.0;0.0;0.0;0.0
1.0;1753881171.226344;16.894762;1.1;-1.83;0.07;-0.627658;-0.793025;-0.000903;0.0;0.0;0.0;0.0;0.0;0.0
1.0;1753881171.230932;16.885415;0.96;-1.73;0.03;-0.628706;-0.793504;-0.003004;0.0;0.0;0.0;0.0;0.0;0.0
1.0;1753881171.23552;16.854604;1.08;-1.75;0.01;-0.628512;-0.79224;-0.00318;0.0;0.0;0.0;0.0;0.0;0.0
1.0;1753881171.240108;16.857817;1.15;-1.68;-0.03;-0.625595;-0.794121;-0.003295;0.0;0.0;0.0;0.0;0.0;0.0
1.0;1753881171.244696;16.843192;1.17;-1.7;0.05;-0.630172;-0.79373;-0.003644;0.0;0.0;0.0;0.0;0.0;0.0
1.0;1753881171.249284;16.879542;1.16;-1.71;0.04;-0.628191;-0.793487;-0.003351;0.0;0.0;0.0;0.0;0.0;0.0
1.0;1753881171.253872;16.874419;1.16;-1.77;0.02;-0.627011;-0.792141;-0.001915;0.0;0.0;0.0;0.0;0.0;0.0
1.0;1753881171.25846;16.866867;1.16;-1.81;0.01;-0.627308;-0.794012;-0.001636;0.0;0.0;0.0;0.0;0.0;0.0
1.0;1753881171.263048;16.866984;1.13;-1.85;0.05;-0.628182;-0.793607;-0.002419;0.0;0.0;0.0;0.0;0.0;0.0
1.0;1753881171.267635;16.900177;1.25;-1.69;0.04;-0.627216;-0.792884;-0.001844;0.0;0.0;0.0;0.0;0.0;0.0
1.0;1753881171.272223;16.892464;1.23;-1.76;0.01;-0.627813;-0.792696;-0.002732;0.0;0.0;0.0;0.0;0.0;0.0
1.0;1753881171.276811;16.889862;1.14;-1.89;-0.0;-0.62733;-0.792936;-0.00186;0.0;0.0;0.0;0.0;0.0;0.0
1.0;1753881171.281399;16.874916;1.09;-1.71;0.09;-0.627898;-0.792461;-0.003227;0.0;0.0;0.0;0.0;0.0;0.0
1.0;1753881171.285987;16.85534;1.17;-1.54;-0.0;-0.62676;-0.793312;-0.00072;0.0;0.0;0.0;0.0;0.0;0.0
1.0;1753881171.290575;16.884192;1.13;-1.83;0.02;-0.627627;-0.793;-0.003027;0.0;0.0;0.0;0.0;0.0;0.0
1.0;1753881171.295163;16.874488;1.16;-1.66;-0.02;-0.627925;-0.792378;-0.002581;0.0;0.0;0.0;0.0;0.0;0.0
1.0;1753881171.29975;16.881816;1.11;-1.7;-0.06;-0.626837;-0.792874;-0.003151;0.0;0.0;0.0;0.0;0.0;0.0
1.0;1753881171.3066;16.882812;1.12;-1.75;0.0;-0.627934;-0.793;-0.002562;0.0;0.0;0.0;0.0;0.0;0.0
1.0;1753881171.311188;16.822948;1.02;-1.75;0.07;-0.63035;-0.79352;-0.003396;0.0;0.0;0.0;0.0;0.0;0.0
1.0;1753881171.315776;16.938085;1.08;-1.75;0.01;-0.627844;-0.792157;-0.001909;0.0;0.0;0.0;0.0;0.0;0.0
1.0;1753881171.320364;16.885106;1.15;-1.76;0.02;-0.629149;-0.792461;-0.002527;0.0;0.0;0.0;0.0;0.0;0.0
1.0;1753881171.324952;16.901585;1.11;-1.48;-0.03;-0.628413;-0.793395;-0.002338;0.0;0.0;0.0;0.0;0.0;0.0
1.0;1753881171.32954;16.842201;1.18;-1.69;0.0;-0.627496;-0.793932;-0.002737;0.0;0.0;0.0;0.0;0.0;0.0
1.0;1753881171.334128;16.90709;1.08;-1.8;-0.03;-0.629342;-0.793609;-0.00174;0.0;0.0;0.0;0.0;0.0;0.0
1.0;1753881171.338715;16.90524;1.07;-1.67;-0.04;-0.627654;-0.791858;-0.002305;0.0;0.0;0.0;0.0;0.0;0.0
1.0;1753881171.343303;16.826027;1.19;-1.71;0.02;-0.62985;-0.793152;-0.002757;0.0;0.0;0.0;0.0;0.0;0.0
1.0;1753881171.347891;16.930676;1.17;-1.48;0.11;-0.627732;-0.793652;-0.003613;0.0;0.0;0.0;0.0;0.0;0.0
1.0;1753881171.352479;16.89545;1.26;-1.75;0.02;-0.627764;-0.793603;-0.00245;0.0;0.0;0.0;0.0;0.0;0.0
1.0;1753881171.357067;16.845309;1.18;-1.73;-0.03;-0.627303;-0.794003;-0.002922;0.0;0.0;0.0;0.0;0.0;0.0
1.0;1753881171.361655;16.850566;1.15;-1.74;0.08;-0.629277;-0.794092;-0.001796;0.0;0.0;0.0;0.0;0.0;0.0
1.0;1753881171.366243;16.890656;1.08;-1.65;-0.01;-0.628647;-0.792049;-0.002528;0.0;0.0;0.0;0.0;0.0;0.0
1.0;1753881171.37083;16.911608;0.99;-1.62;0.06;-0.626669;-0.792508;-0.002722;0.0;0.0;0.0;0.0;0.0;0.0
1.0;1753881171.375418;16.886093;1.07;-1.69;0.01;-0.627645;-0.793866;-0.001877;0.0;0.0;0.0;0.0;0.0;0.0
1.0;1753881171.380006;16.888158;1.01;-1.62;0.02;-0.628153;-0.793565;-0.003186;0.0;0.0;0.0;0.0;0.0;0.0
1.0;1753881171.384594;16.825068;1.05;-1.65;0.05;-0.628073;-0.792545;-0.0026;0.0;0.0;0.0;0.0;0.0;0.0
1.0;1753881171.389182;16.915192;1.17;-1.67;0.05;-0.627629;-0.793058;-0.001776;0.0;0.0;0.0;0.0;0.0;0.0
1.0;1753881171.39377;16.881587;1.09;-1.69;0.02;-0.627893;-0.794508;-0.00263;0.0;0.0;0.0;0.0;0.0;0.0
1.0;1753881171.398358;16.872233;1.17;-1.75;-0.01;-0.628439;-0.792852;-0.002427;0.0;0.0;0.0;0.0;0.0;0.0
1.0;1753881171.402946;16.889714;1.17;-1.63;0.05;-0.628007;-0.791867;-0.001373;0.0;0.0;0.0;0.0;0.0;0.0
1.0;1753881171.407534;16.927597;1.13;-1.72;0.05;-0.627294;-0.793082;-0.001585;0.0;0.0;0.0;0.0;0.0;0.0
1.0;1753881171.412122;16.903891;1.09;-1.75;0.01;-0.628455;-0.792122;-0.002501;0.0;0.0;0.0;0.0;0.0;0.0
1.0;1753881171.41671;16.905465;0.99;-1.6;-0.03;-0.627865;-0.793835;-0.00354;0.0;0.0;0.0;0.0;0.0;0.0
1.0;1753881171.421297;16.883428;1.04;-1.71;0.06;-0.627514;-0.793339;-0.002588;0.0;0.0;0.0;0.0;0.0;0.0
1.0;1753881171.425885;16.828161;1.16;-1.74;-0.02;-0.631326;-0.793161;-0.002699;0.0;0.0;0.0;0.0;0.0;0.0
1.0;1753881171.430473;16.858776;1.16;-1.62;0.04;-0.628889;-0.792259;-0.000992;0.0;0.0;0.0;0.0;0.0;0.0
1.0;1753881171.435061;16.879932;1.18;-1.67;0.04;-0.627426;-0.792968;-0.002582;0.0;0.0;0.0;0.0;0.0;0.0
1.0;1753881171.439649;16.886872;1.11;-1.71;0.04;-0.626631;-0.792523;-0.002695;0.0;0.0;0.0;0.0;0.0;0.0
1.0;1753881171.444237;16.84356;1.09;-1.64;-0.04;-0.628619;-0.793481;-0.002673;0.0;0.0;0.0;0.0;0.0;0.0
1.0;1753881171.448825;16.884625;1.18;-1.63;0.05;-0.628329;-0.792728;-0.002323;0.0;0.0;0.0;0.0;0.0;0.0
1.0;1753881171.453412;16.908242;1.04;-1.69;0.01;-0.627826;-0.793778;-0.003596;0.0;0.0;0.0;0.0;0.0;0.0
1.0;1753881171.458;16.848544;1.14;-1.56;-0.0;-0.628585;-0.793513;-0.001813;0.0;0.0;0.0;0.0;0.0;0.0
1.0;1753881171.462588;16.863796;1.07;-1.78;0.08;-0.628049;-0.79321;-0.001999;0.0;0.0;0.0;0.0;0.0;0.0
1.0;1753881171.467176;16.925472;1.15;-1.62;0.09;-0.627171;-0.792378;-0.003778;0.0;0.0;0.0;0.0;0.0;0.0
1.0;1753881171.471764;16.866894;1.15;-1.43;0.04;-0.628942;-0.793153;-0.001712;0.0;0.0;0.0;0.0;0.0;0.0
1.0;1753881171.476352;16.832921;1.17;-1.62;-0.01;-0.626819;-0.79273;-0.002645;0.0;0.0;0.0;0.0;0.0;0.0
1.0;1753881171.48094;16.834602;1.05;-1.69;-0.01;-0.626309;-0.793127;-0.002475;0.0;0.0;0.0;0.0;0.0;0.0
1.0;1753881171.485528;16.871642;1.07;-1.56;0.06;-0.628738;-0.793706;-0.001964;0.0;0.0;0.0;0.0;0.0;0.0
1.0;1753881171.490116;16.874344;1.12;-1.67;0.06;-0.627146;-0.793707;-0.001067;0.0;0.0;0.0;0.0;0.0;0.0
1.0;1753881171.494704;16.840531;1.16;-1.75;0.02;-0.626431;-0.793907;-0.00261;0.0;0.0;0.0;0.0;0.0;0.0
1.0;1753881171.499292;16.908112;1.06;-1.8;0.02;-0.628312;-0.792993;-0.002471;0.0;0.0;0.0;0.0;0.0;0.0
1.0;1753881171.503879;16.914209;1.0;-1.74;0.06;-0.628047;-0.792863;-0.002926;0.0;0.0;0.0;0.0;0.0;0.0
1.0;1753881171.508467;16.891525;1.15;-1.65;0.1;-0.6278;-0.794139;-0.002354;0.0;0.0;0.0;0.0;0.0;0.0
1.0;1753881171.513055;16.842866;1.16;-1.53;-0.0;-0.628852;-0.793477;-0.00222;0.0;0.0;0.0;0.0;0.0;0.0
1.0;1753881171.517643;16.919431;1.15;-1.69;0.11;-0.628988;-0.793501;-0.002414;0.0;0.0;0.0;0.0;0.0;0.0
1.0;1753881171.522231;16.848077;1.18;-1.66;0.06;-0.627193;-0.792792;-0.003098;0.0;0.0;0.0;0.0;0.0;0.0
1.0;1753881171.526819;16.853257;1.24;-1.58;0.07;-0.626443;-0.791879;-0.002279;0.0;0.0;0.0;0.0;0.0;0.0
1.0;1753881171.531407;16.90631;1.09;-1.55;0.01;-0.628707;-0.793064;-0.002523;0.0;0.0;0.0;0.0;0.0;0.0
1.0;1753881171.535994;16.825288;1.1;-1.69;0.08;-0.626383;-0.794075;-0.001588;0.0;0.0;0.0;0.0;0.0;0.0
1.0;1753881171.540582;16.869348;1.08;-1.56;0.16;-0.629464;-0.793539;-0.002457;0.0;0.0;0.0;0.0;0.0;0.0
1.0;1753881171.54517;16.80465;1.05;-1.59;0.02;-0.625006;-0.791847;-0.002562;0.0;0.0;0.0;0.0;0.0;0.0
1.0;1753881171.549758;16.880093;1.12;-1.73;0.13;-0.627347;-0.794171;-0.002786;0.0;0.0;0.0;0.0;0.0;0.0
1.0;1753881171.554346;16.873153;1.24;-1.64;0.1;-0.628773;-0.792969;-0.001663;0.0;0.0;0.0;0.0;0.0;0.0
1.0;1753881171.558934;16.850016;1.1;-1.52;0.11;-0.629075;-0.792942;-0.002533;0.0;0.0;0.0;0.0;0.0;0.0
1.0;1753881171.563522;16.831711;1.1;-1.44;0.09;-0.62714;-0.793007;-0.003045;0.0;0.0;0.0;0.0;0.0;0.0
1.0;1753881171.56811;16.882;1.14;-1.7;0.07;-0.62873;-0.793135;-0.003828;0.0;0.0;0.0;0.0;0.0;0.0
1.0;1753881171.572698;16.889998;1.18;-1.63;0.05;-0.628701;-0.79252;-0.002369;0.0;0.0;0.0;0.0;0.0;0.0
1.0;1753881171.5801;16.882812;1.12;-1.61;0.07;-0.627934;-0.793;-0.002562;0.0;0.0;0.0;0.0;0.0;0.0
1.0;1753881171.584688;16.891762;1.06;-1.71;0.11;-0.627597;-0.792544;-0.002022;0.0;0.0;0.0;0.0;0.0;0.0
1.0;1753881171.589276;16.914699;1.1;-1.51;0.04;-0.627626;-0.793274;-0.004057;0.0;0.0;0.0;0.0;0.0;0.0
1.0;1753881171.593864;16.947867;1.07;-1.49;0.16;-0.626221;-0.792769;-0.003089;0.0;0.0;0.0;0.0;0.0;0.0
1.0;1753881171.598452;16.917868;1.04;-1.65;0.07;-0.626048;-0.792569;-0.002794;0.0;0.0;0.0;0.0;0.0;0.0
1.0;1753881171.60304;16.90409;1.04;-1.68;0.09;-0.62597;-0.794304;-0.002558;0.0;0.0;0.0;0.0;0.0;0.0
1.0;1753881171.60776;16.898438;1.05;-1.61;0.07;-0.625738;-0.79361;-0.002806;0.0;0.0;0.0;0.0;0.0;0.0
1.0;1753881171.612348;16.912641;1.07;-1.79;0.07;-0.624674;-0.793572;-0.004608;0.0;0.0;0.0;0.0;0.0;0.0
1.0;1753881171.616936;16.934485;0.96;-1.57;0.02;-0.625503;-0.792981;-0.00239;0.0;0.0;0.0;0.0;0.0;0.0
1.0;1753881171.621524;16.913875;1.03;-1.47;0.08;-0.627279;-0.793706;-0.001526;0.0;0.0;0.0;0.0;0.0;0.0
1.0;1753881171.626112;16.902931;0.98;-1.57;0.17;-0.62556;-0.792826;-0.001939;0.0;0.0;0.0;0.0;0.0;0.0
1.0;1753881171.6307;16.89259;0.94;-1.58;0.09;-0.626922;-0.793457;-0.002246;0.0;0.0;0.0;0.0;0.0;0.0
1.0;1753881171.635287;16.91255;0.97;-1.8;0.15;-0.626872;-0.793508;-0.002895;0.0;0.0;0.0;0.0;0.0;0.0
1.0;1753881171.639875;16.888965;0.91;-1.56;0.12;-0.627771;-0.79301;-0.002206;0.0;0.0;0.0;0.0;0.0;0.0
1.0;1753881171.644463;16.934644;0.99;-1.58;0.18;-0.625343;-0.793399;-0.002798;0.0;0.0;0.0;0.0;0.0;0.0
1.0;1753881171.649051;16.931517;0.78;-1.68;0.2;-0.628496;-0.794021;-0.003016;0.0;0.0;0.0;0.0;0.0;0.0
1.0;1753881171.65349;16.929688;0.91;-1.61;0.14;-0.627324;-0.793854;-0.001708;0.0;0.0;0.0;0.0;0.0;0.0
1.0;1753881171.658078;16.868218;0.98;-1.58;0.16;-0.628089;-0.793882;-0.001858;0.0;0.0;0.0;0.0;0.0;0.0
1.0;1753881171.662666;16.917901;0.96;-1.69;0.06;-0.627218;-0.795018;-0.002596;0.0;0.0;0.0;0.0;0.0;0.0
1.0;1753881171.667254;16.909996;0.94;-1.72;0.09;-0.627135;-0.793601;-0.001384;0.0;0.0;0.0;0.0;0.0;0.0
1.0;1753881171.671842;16.890909;0.93;-1.68;0.24;-0.628041;-0.793957;-0.00217;0.0;0.0;0.0;0.0;0.0;0.0
1.0;1753881171.67643;16.954527;0.9;-1.65;0.17;-0.628573;-0.79384;-0.001391;0.0;0.0;0.0;0.0;0.0;0.0
1.0;1753881171.681018;16.937906;0.93;-1.62;0.14;-0.626138;-0.793736;-0.001796;0.0;0.0;0.0;0.0;0.0;0.0
1.0;1753881171.685605;16.922194;0.95;-1.66;0.2;-0.626631;-0.792522;-0.002675;0.0;0.0;0.0;0.0;0.0;0.0
1.0;1753881171.690193;16.920557;1.01;-1.66;0.16;-0.626265;-0.793242;-0.00145;0.0;0.0;0.0;0.0;0.0;0.0
1.0;1753881171.694781;16.909194;0.9;-1.72;0.22;-0.626584;-0.793371;-0.003418;0.0;0.0;0.0;0.0;0.0;0.0
1.0;1753881171.699369;16.93502;0.96;-1.63;0.1;-0.62475;-0.793053;-0.002041;0.0;0.0;0.0;0.0;0.0;0.0
1.0;1753881171.703957;16.905265;1.0;-1.62;0.14;-0.626186;-0.792859;-0.001433;0.0;0.0;0.0;0.0;0.0;0.0
1.0;1753881171.70987;16.929688;0.98;-1.68;0.14;-0.62586;-0.793122;-0.002196;0.0;0.0;0.0;0.0;0.0;0.0
1.0;1753881171.714458;16.946586;1.09;-1.67;0.08;-0.624111;-0.793348;-0.000961;0.0;0.0;0.0;0.0;0.0;0.0
1.0;1753881171.719046;16.932779;1.06;-1.72;0.11;-0.625196;-0.793376;-0.001836;0.0;0.0;0.0;0.0;0.0;0.0
1.0;1753881171.723634;16.92895;1.13;-1.73;0.12;-0.626541;-0.792726;-0.002151;0.0;0.0;0.0;0.0;0.0;0.0
1.0;1753881171.728222;16.949032;0.92;-1.76;0.15;-0.627146;-0.792799;-0.001361;0.0;0.0;0.0;0.0;0.0;0.0
1.0;1753881171.73281;16.934041;0.97;-1.7;0.09;-0.629409;-0.792314;-0.001747;0.0;0.0;0.0;0.0;0.0;0.0
1.0;1753881171.737398;16.93185;1.1;-1.9;0.02;-0.626996;-0.793065;-0.002591;0.0;0.0;0.0;0.0;0.0;0.0
1.0;1753881171.741985;16.93137;1.19;-1.81;0.15;-0.627843;-0.792933;-0.002006;0.0;0.0;0.0;0.0;0.0;0.0
1.0;1753881171.746573;16.950494;1.1;-1.74;0.07;-0.628546;-0.793045;-0.002016;0.0;0.0;0.0;0.0;0.0;0.0
1.0;1753881171.75124;16.929688;1.12;-1.82;0.07;-0.628422;-0.792268;-0.001952;0.0;0.0;0.0;0.0;0.0;0.0
1.0;1753881171.755828;16.918429;1.15;-1.72;0.04;-0.630081;-0.792517;-0.00192;0.0;0.0;0.0;0.0;0.0;0.0
1.0;1753881171.760416;16.919796;1.07;-1.84;0.13;-0.626974;-0.792544;-0.000786;0.0;0.0;0.0;0.0;0.0;0.0
1.0;1753881171.765004;16.945165;1.15;-1.84;0.13;-0.628546;-0.792209;-0.002925;0.0;0.0;0.0;0.0;0.0;0.0
1.0;1753881171.769592;16.961801;1.17;-1.73;0.16;-0.62837;-0.792577;-0.000855;0.0;0.0;0.0;0.0;0.0;0.0
1.0;1753881171.77418;16.959609;1.04;-1.79;0.05;-0.627565;-0.792277;-0.001937;0.0;0.0;0.0;0.0;0.0;0.0
1.0;1753881171.778767;16.931327;1.09;-1.68;0.06;-0.626214;-0.792317;-0.001783;0.0;0.0;0.0;0.0;0.0;0.0
1.0;1753881171.783355;16.9348;1.02;-1.71;0.14;-0.626241;-0.793371;-0.001065;0.0;0.0;0.0;0.0;0.0;0.0
1.0;1753881171.787943;16.936769;0.98;-1.85;0.09;-0.625851;-0.793274;-0.002078;0.0;0.0;0.0;0.0;0.0;0.0
1.0;1753881171.792531;16.933792;0.93;-1.81;0.06;-0.626056;-0.793019;-0.003598;0.0;0.0;0.0;0.0;0.0;0.0
1.0;1753881171.797119;16.934955;1.07;-1.65;0.09;-0.624669;-0.793057;-0.002437;0.0;0.0;0.0;0.0;0.0;0.0
1.0;1753881171.801707;16.906969;1.0;-1.81;-0.02;-0.624672;-0.792564;-0.00241;0.0;0.0;0.0;0.0;0.0;0.0
1.0;1753881171.806295;16.96117;1.02;-1.65;0.05;-0.626796;-0.792629;-0.002475;0.0;0.0;0.0;0.0;0.0;0.0
1.0;1753881171.810882;16.918232;1.12;-1.65;0.07;-0.626428;-0.792532;-0.003013;0.0;0.0;0.0;0.0;0.0;0.0
1.0;1753881171.81547;16.944218;1.06;-1.68;0.01;-0.624773;-0.792466;-0.003163;0.0;0.0;0.0;0.0;0.0;0.0
1.0;1753881171.82327;16.929688;0.98;-1.68;0.07;-0.624396;-0.793244;-0.002684;0.0;0.0;0.0;0.0;0.0;0.0
1.0;1753881171.827858;16.923099;1.09;-1.66;0.11;-0.625799;-0.792916;-0.002489;0.0;0.0;0.0;0.0;0.0;0.0
1.0;1753881171.832446;16.951528;1.06;-1.62;0.03;-0.62458;-0.794661;-0.003159;0.0;0.0;0.0;0.0;0.0;0.0
1.0;1753881171.837034;16.952921;0.93;-1.7;0.02;-0.623507;-0.792953;-0.00163;0.0;0.0;0.0;0.0;0.0;0.0
1.0;1753881171.841622;16.951901;1.01;-1.74;0.12;-0.62726;-0.794062;-0.00246;0.0;0.0;0.0;0.0;0.0;0.0
1.0;1753881171.84621;16.934573;1.08;-1.69;0.16;-0.628402;-0.794818;-0.002937;0.0;0.0;0.0;0.0;0.0;0.0
1.0;1753881171.85457;16.925781;1.12;-1.75;0.07;-0.627568;-0.79361;-0.002928;0.0;0.0;0.0;0.0;0.0;0.0
1.0;1753881171.859158;16.916035;1.22;-1.7;0.16;-0.628109;-0.793596;-0.003784;0.0;0.0;0.0;0.0;0.0;0.0
1.0;1753881171.863746;16.95078;1.12;-1.6;0.07;-0.626549;-0.793703;-0.002213;0.0;0.0;0.0;0.0;0.0;0.0
1.0;1753881171.868334;16.945452;1.05;-1.62;0.18;-0.627472;-0.792718;-0.002164;0.0;0.0;0.0;0.0;0.0;0.0
1.0;1753881171.872922;16.950771;1.17;-1.75;0.15;-0.62814;-0.792523;-0.004127;0.0;0.0;0.0;0.0;0.0;0.0
1.0;1753881171.877509;16.948461;1.23;-1.69;0.13;-0.626775;-0.791517;-0.002956;0.0;0.0;0.0;0.0;0.0;0.0
1.0;1753881171.88213;16.925781;1.19;-1.68;0.14;-0.626592;-0.792024;-0.003172;0.0;0.0;0.0;0.0;0.0;0.0
1.0;1753881171.886718;16.932588;1.06;-1.57;0.2;-0.629232;-0.791784;-0.004162;0.0;0.0;0.0;0.0;0.0;0.0
1.0;1753881171.891306;16.913577;1.15;-1.67;0.14;-0.627378;-0.791994;-0.002497;0.0;0.0;0.0;0.0;0.0;0.0
1.0;1753881171.895894;16.900079;1.17;-1.71;0.22;-0.626315;-0.793093;-0.003118;0.0;0.0;0.0;0.0;0.0;0.0
1.0;1753881171.900482;16.943109;0.98;-1.61;0.11;-0.625194;-0.79221;-0.003069;0.0;0.0;0.0;0.0;0.0;0.0
1.0;1753881171.905069;16.916172;1.17;-1.64;0.14;-0.625469;-0.792687;-0.002003;0.0;0.0;0.0;0.0;0.0;0.0
1.0;1753881171.909657;16.933312;1.04;-1.58;0.17;-0.625775;-0.792561;-0.003003;0.0;0.0;0.0;0.0;0.0;0.0
1.0;1753881171.914245;16.895528;1.09;-1.53;0.16;-0.626533;-0.792479;-0.002873;0.0;0.0;0.0;0.0;0.0;0.0
1.0;1753881171.918833;16.933415;1.09;-1.65;0.18;-0.625899;-0.791932;-0.00297;0.0;0.0;0.0;0.0;0.0;0.0
1.0;1753881171.923421;16.932964;1.14;-1.51;0.14;-0.625557;-0.792772;-0.002218;0.0;0.0;0.0;0.0;0.0;0.0
1.0;1753881171.92784;16.925781;1.12;-1.54;0.14;-0.625616;-0.792756;-0.002684;0.0;0.0;0.0;0.0;0.0;0.0
1.0;1753881171.934055;16.871094;1.19;-1.54;0.14;-0.628178;-0.793854;-0.002684;0.0;0.0;0.0;0.0;0.0;0.0
1.0;1753881171.938742;16.871094;1.12;-1.61;0.07;-0.626104;-0.79361;-0.002806;0.0;0.0;0.0;0.0;0.0;0.0
1.0;1753881171.94332;16.855469;0.98;-1.61;0.14;-0.627324;-0.793854;-0.00183;0.0;0.0;0.0;0.0;0.0;0.0
1.0;1753881171.947874;16.855469;0.98;-1.61;0.07;-0.625982;-0.79239;-0.002928;0.0;0.0;0.0;0.0;0.0;0.0
1.0;1753881171.952462;16.855469;0.98;-1.61;0.07;-0.6283;-0.793244;-0.00305;0.0;0.0;0.0;0.0;0.0;0.0
1.0;1753881171.959046;16.855469;1.05;-1.68;0.14;-0.62708;-0.793244;-0.00305;0.0;0.0;0.0;0.0;0.0;0.0
1.0;1753881171.965513;16.855469;1.05;-1.68;0.07;-0.627812;-0.793854;-0.002074;0.0;0.0;0.0;0.0;0.0;0.0
1.0;1753881171.966129;16.855469;0.98;-1.68;0.07;-0.626958;-0.793122;-0.003294;0.0;0.0;0.0;0.0;0.0;0.0
1.0;1753881171.970754;16.855469;1.05;-1.68;0.07;-0.62525;-0.793732;-0.002196;0.0;0.0;0.0;0.0;0.0;0.0
1.0;1753881171.975328;16.855469;1.12;-1.68;0.07;-0.626958;-0.794952;-0.001464;0.0;0.0;0.0;0.0;0.0;0.0
1.0;1753881171.982233;16.871094;1.12;-1.68;0.14;-0.627446;-0.793366;-0.003294;0.0;0.0;0.0;0.0;0.0;0.0
1.0;1753881171.98569;16.871094;1.19;-1.61;0.07;-0.629276;-0.793244;-0.001342;0.0;0.0;0.0;0.0;0.0;0.0
1.0;1753881171.98908;16.871094;1.05;-1.61;0.0;-0.62525;-0.792512;-0.00366;0.0;0.0;0.0;0.0;0.0;0.0
1.0;1753881171.993634;16.871094;1.05;-1.68;0.07;-0.628422;-0.792878;-0.001952;0.0;0.0;0.0;0.0;0.0;0.0
1.0;1753881171.998136;16.863281;1.05;-1.75;0.07;-0.626592;-0.793;-0.002928;0.0;0.0;0.0;0.0;0.0;0.0
1.0;1753881172.002724;16.849627;1.05;-1.74;0.08;-0.628295;-0.792445;-0.002165;0.0;0.0;0.0;0.0;0.0;0.0
1.0;1753881172.007312;16.861495;1.1;-1.77;0.12;-0.625064;-0.793122;-0.003617;0.0;0.0;0.0;0.0;0.0;0.0
1.0;1753881172.0119;16.865239;1.05;-1.82;0.08;-0.626214;-0.79327;-0.003097;0.0;0.0;0.0;0.0;0.0;0.0
1.0;1753881172.016488;16.870988;1.12;-1.64;0.07;-0.626429;-0.792239;-0.001982;0.0;0.0;0.0;0.0;0.0;0.0
1.0;1753881172.021076;16.860631;1.03;-1.74;0.17;-0.626739;-0.794379;-0.003587;0.0;0.0;0.0;0.0;0.0;0.0
1.0;1753881172.025664;16.852517;1.05;-1.85;0.01;-0.62581;-0.791705;-0.004015;0.0;0.0;0.0;0.0;0.0;0.0
1.0;1753881172.030251;16.869879;1.02;-1.85;0.16;-0.62676;-0.792835;-0.003715;0.0;0.0;0.0;0.0;0.0;0.0
1.0;1753881172.034839;16.86058;1.05;-1.73;0.03;-0.628064;-0.791779;-0.003015;0.0;0.0;0.0;0.0;0.0;0.0
1.0;1753881172.039427;16.871452;1.16;-1.79;0.11;-0.62455;-0.793073;-0.001414;0.0;0.0;0.0;0.0;0.0;0.0
1.0;1753881172.044015;16.852833;1.12;-1.72;0.05;-0.627893;-0.79204;-0.002769;0.0;0.0;0.0;0.0;0.0;0.0
1.0;1753881172.048603;16.858024;1.07;-1.76;0.06;-0.627174;-0.791993;-0.003039;0.0;0.0;0.0;0.0;0.0;0.0
1.0;1753881172.053191;16.866202;1.0;-1.78;0.06;-0.625594;-0.792873;-0.003036;0.0;0.0;0.0;0.0;0.0;0.0
1.0;1753881172.057778;16.85158;1.13;-1.77;0.13;-0.625767;-0.792196;-0.002861;0.0;0.0;0.0;0.0;0.0;0.0
1.0;1753881172.062366;16.86403;1.12;-1.71;0.04;-0.625196;-0.793364;-0.001887;0.0;0.0;0.0;0.0;0.0;0.0
1.0;1753881172.066954;16.874979;1.06;-1.8;0.1;-0.62864;-0.793236;-0.003119;0.0;0.0;0.0;0.0;0.0;0.0
1.0;1753881172.071542;16.868247;1.11;-1.73;0.08;-0.627285;-0.791654;-0.003141;0.0;0.0;0.0;0.0;0.0;0.0
1.0;1753881172.07613;16.863137;0.96;-1.72;0.08;-0.626578;-0.792746;-0.002301;0.0;0.0;0.0;0.0;0.0;0.0
1.0;1753881172.080718;16.859546;1.1;-1.73;0.13;-0.62668;-0.793901;-0.002801;0.0;0.0;0.0;0.0;0.0;0.0
1.0;1753881172.085306;16.869848;1.04;-1.79;0.07;-0.625581;-0.792175;-0.002932;0.0;0.0;0.0;0.0;0.0;0.0
1.0;1753881172.089894;16.872902;1.08;-1.7;0.04;-0.625692;-0.793638;-0.003231;0.0;0.0;0.0;0.0;0.0;0.0
1.0;1753881172.094482;16.870816;1.03;-1.71;0.06;-0.627485;-0.793787;-0.003545;0.0;0.0;0.0;0.0;0.0;0.0
1.0;1753881172.09907;16.866341;1.12;-1.77;0.11;-0.62793;-0.792514;-0.003576;0.0;0.0;0.0;0.0;0.0;0.0
1.0;1753881172.103658;16.840639;1.09;-1.66;-0.02;-0.625105;-0.792768;-0.001868;0.0;0.0;0.0;0.0;0.0;0.0
1.0;1753881172.108245;16.863437;1.12;-1.73;0.06;-0.627256;-0.793851;-0.004007;0.0;0.0;0.0;0.0;0.0;0.0
1.0;1753881172.112833;16.864329;1.06;-1.63;0.11;-0.627909;-0.79272;-0.002598;0.0;0.0;0.0;0.0;0.0;0.0
1.0;1753881172.117421;16.849517;1.05;-1.72;0.06;-0.625174;-0.792857;-0.00276;0.0;0.0;0.0;0.0;0.0;0.0
1.0;1753881172.122009;16.862392;0.98;-1.76;0.03;-0.626653;-0.792479;-0.00381;0.0;0.0;0.0;0.0;0.0;0.0
1.0;1753881172.126597;16.859033;0.98;-1.73;0.03;-0.627085;-0.792955;-0.003453;0.0;0.0;0.0;0.0;0.0;0.0
1.0;1753881172.131185;16.847393;0.99;-1.64;0.1;-0.6265;-0.79348;-0.002569;0.0;0.0;0.0;0.0;0.0;0.0
1.0;1753881172.135773;16.862906;1.06;-1.75;0.03;-0.627468;-0.792587;-0.002502;0.0;0.0;0.0;0.0;0.0;0.0
1.0;1753881172.14036;16.860834;1.04;-1.66;0.08;-0.626454;-0.794356;-0.002927;0.0;0.0;0.0;0.0;0.0;0.0
1.0;1753881172.144948;16.868253;1.08;-1.7;0.03;-0.626951;-0.792986;-0.00285;0.0;0.0;0.0;0.0;0.0;0.0
1.0;1753881172.149536;16.86824;1.07;-1.72;0.11;-0.627106;-0.792549;-0.004341;0.0;0.0;0.0;0.0;0.0;0.0
1.0;1753881172.154124;16.857132;1.15;-1.67;0.1;-0.625816;-0.791777;-0.003799;0.0;0.0;0.0;0.0;0.0;0.0
1.0;1753881172.158712;16.854639;1.16;-1.74;0.05;-0.626514;-0.792842;-0.002996;0.0;0.0;0.0;0.0;0.0;0.0
1.0;1753881172.1633;16.871882;1.08;-1.81;0.09;-0.626239;-0.793578;-0.003537;0.0;0.0;0.0;0.0;0.0;0.0
1.0;1753881172.167888;16.859457;1.09;-1.71;0.07;-0.625197;-0.791452;-0.002803;0.0;0.0;0.0;0.0;0.0;0.0
1.0;1753881172.172476;16.875957;1.08;-1.75;0.04;-0.625892;-0.793385;-0.003922;0.0;0.0;0.0;0.0;0.0;0.0
1.0;1753881172.177064;16.852889;1.06;-1.66;0.15;-0.625665;-0.792604;-0.002314;0.0;0.0;0.0;0.0;0.0;0.0
1.0;1753881172.181652;16.855966;1.1;-1.73;0.04;-0.627443;-0.79343;-0.002109;0.0;0.0;0.0;0.0;0.0;0.0
1.0;1753881172.18624;16.861799;0.99;-1.68;0.05;-0.627368;-0.792726;-0.003525;0.0;0.0;0.0;0.0;0.0;0.0
1.0;1753881172.190827;16.854749;1.11;-1.62;0.05;-0.625086;-0.794322;-0.003467;0.0;0.0;0.0;0.0;0.0;0.0
1.0;1753881172.195415;16.869076;1.08;-1.63;0.06;-0.627601;-0.792102;-0.003322;0.0;0.0;0.0;0.0;0.0;0.0
1.0;1753881172.200003;16.869817;1.03;-1.7;0.08;-0.626837;-0.794461;-0.002073;0.0;0.0;0.0;0.0;0.0;0.0
1.0;1753881172.204591;16.858625;0.96;-1.65;-0.02;-0.627198;-0.795393;-0.002139;0.0;0.0;0.0;0.0;0.0;0.0
1.0;1753881172.209179;16.863262;1.15;-1.7;0.05;-0.627631;-0.792955;-0.002084;0.0;0.0;0.0;0.0;0.0;0.0
1.0;1753881172.213767;16.871566;1.05;-1.76;0.09;-0.626443;-0.792172;-0.003332;0.0;0.0;0.0;0.0;0.0;0.0
1.0;1753881172.218355;16.850245;1.08;-1.67;0.09;-0.628384;-0.792718;-0.003387;0.0;0.0;0.0;0.0;0.0;0.0
1.0;1753881172.222942;16.855842;0.92;-1.77;0.06;-0.628939;-0.793628;-0.00304;0.0;0.0;0.0;0.0;0.0;0.0
1.0;1753881172.22753;16.865986;1.14;-1.69;0.07;-0.625758;-0.794868;-0.003699;0.0;0.0;0.0;0.0;0.0;0.0
1.0;1753881172.232118;16.858864;0.98;-1.66;-0.01;-0.625782;-0.793556;-0.004286;0.0;0.0;0.0;0.0;0.0;0.0
1.0;1753881172.236706;16.87438;1.09;-1.66;0.03;-0.627285;-0.792759;-0.002812;0.0;0.0;0.0;0.0;0.0;0.0
1.0;1753881172.241294;16.874014;0.98;-1.62;0.09;-0.62618;-0.792925;-0.00277;0.0;0.0;0.0;0.0;0.0;0.0
1.0;1753881172.245882;16.876171;1.1;-1.71;0.07;-0.625957;-0.793464;-0.002722;0.0;0.0;0.0;0.0;0.0;0.0
1.0;1753881172.25047;16.852973;1.11;-1.72;0.1;-0.626612;-0.794318;-0.003478;0.0;0.0;0.0;0.0;0.0;0.0
1.0;1753881172.255058;16.852534;1.0;-1.69;0.03;-0.627639;-0.793489;-0.003328;0.0;0.0;0.0;0.0;0.0;0.0
1.0;1753881172.259646;16.869941;0.95;-1.59;0.05;-0.626849;-0.793562;-0.004262;0.0;0.0;0.0;0.0;0.0;0.0
1.0;1753881172.264234;16.857942;1.14;-1.6;0.1;-0.628305;-0.794059;-0.002745;0.0;0.0;0.0;0.0;0.0;0.0
1.0;1753881172.268822;16.868103;0.97;-1.55;0.1;-0.627624;-0.79345;-0.003013;0.0;0.0;0.0;0.0;0.0;0.0
1.0;1753881172.273409;16.878168;1.05;-1.57;0.07;-0.628834;-0.792891;-0.004483;0.0;0.0;0.0;0.0;0.0;0.0
1.0;1753881172.277997;16.875941;1.08;-1.71;0.1;-0.626571;-0.792783;-0.003993;0.0;0.0;0.0;0.0;0.0;0.0
1.0;1753881172.282585;16.860632;1.04;-1.75;0.08;-0.626354;-0.793477;-0.002834;0.0;0.0;0.0;0.0;0.0;0.0
1.0;1753881172.287173;16.880976;1.15;-1.77;0.09;-0.626084;-0.792845;-0.003512;0.0;0.0;0.0;0.0;0.0;0.0
1.0;1753881172.291761;16.865778;1.02;-1.64;0.04;-0.626774;-0.791973;-0.004187;0.0;0.0;0.0;0.0;0.0;0.0
1.0;1753881172.296349;16.873743;1.09;-1.71;0.04;-0.627196;-0.793754;-0.00292;0.0;0.0;0.0;0.0;0.0;0.0
1.0;1753881172.300937;16.866127;1.06;-1.7;0.08;-0.625842;-0.792642;-0.002909;0.0;0.0;0.0;0.0;0.0;0.0
1.0;1753881172.305524;16.860878;0.99;-1.68;0.06;-0.627314;-0.792998;-0.004221;0.0;0.0;0.0;0.0;0.0;0.0
1.0;1753881172.310112;16.871923;0.89;-1.7;0.1;-0.626097;-0.793397;-0.002783;0.0;0.0;0.0;0.0;0.0;0.0
1.0;1753881172.3147;16.864649;0.94;-1.78;0.06;-0.627251;-0.793379;-0.003494;0.0;0.0;0.0;0.0;0.0;0.0
1.0;1753881172.319288;16.857331;1.03;-1.67;0.02;-0.625944;-0.792593;-0.004072;0.0;0.0;0.0;0.0;0.0;0.0
1.0;1753881172.323876;16.869863;1.09;-1.69;0.11;-0.6266;-0.79299;-0.003322;0.0;0.0;0.0;0.0;0.0;0.0
1.0;1753881172.328464;16.856868;0.97;-1.68;0.12;-0.628966;-0.792949;-0.004257;0.0;0.0;0.0;0.0;0.0;0.0
1.0;1753881172.333052;16.863957;0.95;-1.61;0.1;-0.627095;-0.79211;-0.002487;0.0;0.0;0.0;0.0;0.0;0.0
1.0;1753881172.33764;16.858313;1.11;-1.69;0.14;-0.627078;-0.792774;-0.002626;0.0;0.0;0.0;0.0;0.0;0.0
1.0;1753881172.342228;16.863423;1.04;-1.6;0.11;-0.627876;-0.793339;-0.003909;0.0;0.0;0.0;0.0;0.0;0.0
1.0;1753881172.346816;16.856283;1.14;-1.67;0.05;-0.62586;-0.794698;-0.003517;0.0;0.0;0.0;0.0;0.0;0.0
1.0;1753881172.351404;16.852685;1.02;-1.71;0.11;-0.626442;-0.793621;-0.004219;0.0;0.0;0.0;0.0;0.0;0.0
1.0;1753881172.355991;16.85374;1.03;-1.66;0.06;-0.626413;-0.794077;-0.003921;0.0;0.0;0.0;0.0;0.0;0.0
1.0;1753881172.360579;16.860485;1.07;-1.74;0.05;-0.626831;-0.793664;-0.003005;0.0;0.0;0.0;0.0;0.0;0.0
1.0;1753881172.365167;16.858034;1.06;-1.7;0.07;-0.628011;-0.792702;-0.00388;0.0;0.0;0.0;0.0;0.0;0.0
1.0;1753881172.369755;16.860954;1.03;-1.66;0.02;-0.627427;-0.793342;-0.003842;0.0;0.0;0.0;0.0;0.0;0.0
1.0;1753881172.374343;16.866147;1.1;-1.64;-0.03;-0.627382;-0.792369;-0.003365;0.0;0.0;0.0;0.0;0.0;0.0
1.0;1753881172.378931;16.854722;1.14;-1.67;0.08;-0.627664;-0.79269;-0.003088;0.0;0.0;0.0;0.0;0.0;0.0
1.0;1753881172.383519;16.857649;1.1;-1.7;0.01;-0.625911;-0.79281;-0.003408;0.0;0.0;0.0;0.0;0.0;0.0
1.0;1753881172.388106;16.86131;1.14;-1.82;0.05;-0.628353;-0.792443;-0.003373;0.0;0.0;0.0;0.0;0.0;0.0
1.0;1753881172.392694;16.865563;1.05;-1.73;0.12;-0.629288;-0.793074;-0.004572;0.0;0.0;0.0;0.0;0.0;0.0
1.0;1753881172.4008;16.863281;1.05;-1.68;0.07;-0.627202;-0.793244;-0.003294;0.0;0.0;0.0;0.0;0.0;0.0
1.0;1753881172.405388;16.845235;1.09;-1.74;-0.01;-0.628013;-0.793866;-0.003126;0.0;0.0;0.0;0.0;0.0;0.0
1.0;1753881172.409976;16.87105;1.12;-1.69;0.03;-0.628936;-0.792881;-0.003111;0.0;0.0;0.0;0.0;0.0;0.0
1.0;1753881172.414564;16.856839;1.14;-1.75;0.09;-0.627928;-0.79252;-0.003315;0.0;0.0;0.0;0.0;0.0;0.0
1.0;1753881172.419152;16.8705;1.07;-1.65;0.15;-0.627879;-0.793029;-0.004638;0.0;0.0;0.0;0.0;0.0;0.0
1.0;1753881172.42374;16.866339;0.94;-1.69;0.05;-0.627159;-0.792482;-0.002794;0.0;0.0;0.0;0.0;0.0;0.0
1.0;1753881172.428327;16.878029;1.04;-1.72;0.12;-0.625753;-0.793209;-0.003905;0.0;0.0;0.0;0.0;0.0;0.0
1.0;1753881172.432915;16.857934;1.03;-1.73;0.06;-0.628857;-0.79187;-0.003568;0.0;0.0;0.0;0.0;0.0;0.0
1.0;1753881172.437503;16.858469;1.14;-1.63;0.02;-0.627784;-0.792896;-0.002016;0.0;0.0;0.0;0.0;0.0;0.0
1.0;1753881172.442091;16.859275;0.98;-1.71;0.09;-0.626692;-0.793607;-0.002691;0.0;0.0;0.0;0.0;0.0;0.0
1.0;1753881172.446679;16.868251;1.07;-1.67;0.06;-0.626967;-0.793022;-0.003653;0.0;0.0;0.0;0.0;0.0;0.0
1.0;1753881172.451267;16.855235;0.99;-1.7;0.11;-0.629582;-0.793492;-0.003576;0.0;0.0;0.0;0.0;0.0;0.0
1.0;1753881172.455855;16.863621;1.11;-1.71;0.11;-0.626007;-0.793595;-0.003142;0.0;0.0;0.0;0.0;0.0;0.0
1.0;1753881172.460442;16.864633;1.13;-1.73;0.07;-0.627139;-0.793246;-0.004413;0.0;0.0;0.0;0.0;0.0;0.0
1.0;1753881172.46503;16.843342;1.09;-1.69;0.05;-0.627029;-0.791574;-0.003455;0.0;0.0;0.0;0.0;0.0;0.0
1.0;1753881172.469618;16.867109;1.03;-1.69;0.12;-0.62947;-0.793789;-0.003837;0.0;0.0;0.0;0.0;0.0;0.0
1.0;1753881172.474206;16.858178;1.1;-1.66;-0.0;-0.630563;-0.793527;-0.004148;0.0;0.0;0.0;0.0;0.0;0.0
1.0;1753881172.478794;16.858646;1.08;-1.73;0.04;-0.625952;-0.792982;-0.002347;0.0;0.0;0.0;0.0;0.0;0.0
1.0;1753881172.483382;16.862319;1.01;-1.73;0.11;-0.62546;-0.791655;-0.003623;0.0;0.0;0.0;0.0;0.0;0.0
1.0;1753881172.48797;16.864188;1.02;-1.69;0.07;-0.627559;-0.791723;-0.002574;0.0;0.0;0.0;0.0;0.0;0.0
1.0;1753881172.492558;16.865567;0.97;-1.66;0.07;-0.628095;-0.793231;-0.003347;0.0;0.0;0.0;0.0;0.0;0.0
1.0;1753881172.497146;16.854814;1.09;-1.63;0.1;-0.627354;-0.793848;-0.003046;0.0;0.0;0.0;0.0;0.0;0.0
1.0;1753881172.501734;16.858752;1.03;-1.69;0.04;-0.626902;-0.792401;-0.002797;0.0;0.0;0.0;0.0;0.0;0.0
1.0;1753881172.506322;16.861432;1.09;-1.68;0.06;-0.627655;-0.793522;-0.003149;0.0;0.0;0.0;0.0;0.0;0.0
1.0;1753881172.510909;16.862498;1.01;-1.59;0.02;-0.626814;-0.792797;-0.003597;0.0;0.0;0.0;0.0;0.0;0.0
1.0;1753881172.515497;16.880357;1.08;-1.68;0.14;-0.628016;-0.794153;-0.004448;0.0;0.0;0.0;0.0;0.0;0.0
1.0;1753881172.520085;16.861097;1.14;-1.72;0.07;-0.62672;-0.792597;-0.003607;0.0;0.0;0.0;0.0;0.0;0.0
1.0;1753881172.524673;16.862155;1.21;-1.67;0.04;-0.629413;-0.793003;-0.003514;0.0;0.0;0.0;0.0;0.0;0.0
1.0;1753881172.529261;16.856619;1.13;-1.74;0.13;-0.627916;-0.793733;-0.002497;0.0;0.0;0.0;0.0;0.0;0.0
1.0;1753881172.533849;16.852776;1.07;-1.62;0.06;-0.628718;-0.792107;-0.003096;0.0;0.0;0.0;0.0;0.0;0.0
1.0;1753881172.538437;16.854268;1.11;-1.71;0.03;-0.627897;-0.793409;-0.002975;0.0;0.0;0.0;0.0;0.0;0.0
1.0;1753881172.543024;16.861162;1.09;-1.65;0.05;-0.627763;-0.792961;-0.004358;0.0;0.0;0.0;0.0;0.0;0.0
1.0;1753881172.547612;16.868398;0.95;-1.8;0.06;-0.627324;-0.792464;-0.003667;0.0;0.0;0.0;0.0;0.0;0.0
1.0;1753881172.5522;16.867413;1.02;-1.73;0.1;-0.626465;-0.792048;-0.003204;0.0;0.0;0.0;0.0;0.0;0.0
1.0;1753881172.556788;16.849909;1.06;-1.69;0.06;-0.626456;-0.794943;-0.003022;0.0;0.0;0.0;0.0;0.0;0.0
1.0;1753881172.561376;16.867076;1.08;-1.71;0.1;-0.627412;-0.792272;-0.003947;0.0;0.0;0.0;0.0;0.0;0.0
1.0;1753881172.565964;16.85768;1.01;-1.68;-0.01;-0.628484;-0.792;-0.003254;0.0;0.0;0.0;0.0;0.0;0.0
1.0;1753881172.570552;16.858385;1.08;-1.78;0.13;-0.628221;-0.792119;-0.002128;0.0;0.0;0.0;0.0;0.0;0.0
1.0;1753881172.57514;16.847977;1.12;-1.66;0.07;-0.628414;-0.793307;-0.003353;0.0;0.0;0.0;0.0;0.0;0.0
1.0;1753881172.579728;16.862669;1.19;-1.71;0.04;-0.628398;-0.793118;-0.002983;0.0;0.0;0.0;0.0;0.0;0.0
1.0;1753881172.584316;16.86563;1.09;-1.68;0.05;-0.627774;-0.79323;-0.003881;0.0;0.0;0.0;0.0;0.0;0.0
1.0;1753881172.588904;16.86318;1.15;-1.6;0.02;-0.626385;-0.792252;-0.003592;0.0;0.0;0.0;0.0;0.0;0.0
1.0;1753881172.593491;16.865066;1.09;-1.65;0.1;-0.630083;-0.793064;-0.003408;0.0;0.0;0.0;0.0;0.0;0.0
1.0;1753881172.598079;16.869783;1.06;-1.77;0.12;-0.625992;-0.792051;-0.002537;0.0;0.0;0.0;0.0;0.0;0.0
1.0;1753881172.602667;16.866418;0.98;-1.72;0.06;-0.628283;-0.791877;-0.004419;0.0;0.0;0.0;0.0;0.0;0.0
1.0;1753881172.607255;16.865521;1.05;-1.65;-0.05;-0.626936;-0.793836;-0.003799;0.0;0.0;0.0;0.0;0.0;0.0
1.0;1753881172.611843;16.851557;1.08;-1.67;0.17;-0.626367;-0.792917;-0.003007;0.0;0.0;0.0;0.0;0.0;0.0
1.0;1753881172.616431;16.856011;1.09;-1.71;0.1;-0.627998;-0.791898;-0.001782;0.0;0.0;0.0;0.0;0.0;0.0
1.0;1753881172.621019;16.867011;1.16;-1.64;0.09;-0.627503;-0.79163;-0.002559;0.0;0.0;0.0;0.0;0.0;0.0
1.0;1753881172.625606;16.85988;1.01;-1.67;0.06;-0.62779;-0.792781;-0.00262;0.0;0.0;0.0;0.0;0.0;0.0
1.0;1753881172.630194;16.871767;1.16;-1.72;0.04;-0.627903;-0.792099;-0.004737;0.0;0.0;0.0;0.0;0.0;0.0
1.0;1753881172.634782;16.879111;1.12;-1.69;0.08;-0.627827;-0.792124;-0.003855;0.0;0.0;0.0;0.0;0.0;0.0
1.0;1753881172.63937;16.862161;1.25;-1.62;-0.01;-0.627715;-0.792571;-0.004311;0.0;0.0;0.0;0.0;0.0;0.0
1.0;1753881172.643958;16.851573;1.13;-1.71;0.1;-0.627713;-0.793267;-0.004066;0.0;0.0;0.0;0.0;0.0;0.0
1.0;1753881172.648546;16.868034;1.17;-1.67;0.07;-0.627928;-0.792533;-0.003203;0.0;0.0;0.0;0.0;0.0;0.0
1.0;1753881172.653134;16.860645;1.07;-1.62;0.02;-0.62643;-0.792678;-0.004151;0.0;0.0;0.0;0.0;0.0;0.0
1.0;1753881172.657722;16.869869;1.05;-1.78;0.08;-0.627299;-0.792825;-0.003708;0.0;0.0;0.0;0.0;0.0;0.0
1.0;1753881172.66231;16.862109;0.98;-1.5;0.13;-0.626879;-0.79239;-0.003545;0.0;0.0;0.0;0.0;0.0;0.0
1.0;1753881172.666898;16.864125;1.11;-1.68;0.01;-0.627013;-0.791849;-0.003074;0.0;0.0;0.0;0.0;0.0;0.0
1.0;1753881172.671486;16.858659;1.15;-1.69;0.01;-0.627572;-0.79269;-0.00456;0.0;0.0;0.0;0.0;0.0;0.0
1.0;1753881172.676073;16.868332;1.11;-1.67;0.03;-0.628189;-0.793013;-0.004548;0.0;0.0;0.0;0.0;0.0;0.0
1.0;1753881172.680661;16.869012;1.18;-1.74;0.04;-0.628048;-0.792919;-0.00448;0.0;0.0;0.0;0.0;0.0;0.0
1.0;1753881172.685249;16.848544;1.01;-1.6;0.03;-0.628569;-0.792088;-0.002774;0.0;0.0;0.0;0.0;0.0;0.0
1.0;1753881172.689837;16.859987;1.02;-1.77;0.11;-0.627975;-0.792755;-0.004024;0.0;0.0;0.0;0.0;0.0;0.0
1.0;1753881172.694425;16.855362;1.09;-1.64;0.12;-0.628128;-0.793042;-0.002768;0.0;0.0;0.0;0.0;0.0;0.0
1.0;1753881172.699013;16.873888;1.13;-1.7;0.01;-0.628568;-0.792628;-0.002798;0.0;0.0;0.0;0.0;0.0;0.0
1.0;1753881172.703601;16.870448;1.06;-1.67;0.06;-0.627468;-0.792895;-0.003283;0.0;0.0;0.0;0.0;0.0;0.0
1.0;1753881172.708188;16.852664;1.11;-1.62;0.07;-0.628477;-0.793061;-0.002785;0.0;0.0;0.0;0.0;0.0;0.0
1.0;1753881172.712776;16.864096;1.16;-1.7;0.09;-0.626971;-0.793014;-0.003329;0.0;0.0;0.0;0.0;0.0;0.0
1.0;1753881172.717364;16.859278;1.06;-1.59;0.07;-0.628752;-0.791884;-0.003967;0.0;0.0;0.0;0.0;0.0;0.0
1.0;1753881172.721952;16.857211;1.01;-1.69;0.08;-0.626028;-0.792124;-0.004707;0.0;0.0;0.0;0.0;0.0;0.0
1.0;1753881172.72654;16.866927;1.11;-1.54;0.13;-0.626843;-0.792522;-0.003592;0.0;0.0;0.0;0.0;0.0;0.0
1.0;1753881172.731128;16.857508;1.06;-1.66;0.05;-0.627452;-0.791083;-0.002715;0.0;0.0;0.0;0.0;0.0;0.0
1.0;1753881172.735716;16.851292;1.16;-1.66;0.01;-0.627599;-0.792259;-0.003397;0.0;0.0;0.0;0.0;0.0;0.0
1.0;1753881172.740304;16.864721;0.99;-1.66;0.09;-0.627435;-0.792228;-0.005068;0.0;0.0;0.0;0.0;0.0;0.0
1.0;1753881172.744892;16.877882;1.13;-1.62;0.14;-0.627083;-0.792946;-0.003573;0.0;0.0;0.0;0.0;0.0;0.0
1.0;1753881172.7518;16.863281;1.12;-1.68;0.07;-0.627446;-0.79239;-0.003416;0.0;0.0;0.0;0.0;0.0;0.0
1.0;1753881172.756388;16.889004;1.03;-1.67;0.08;-0.62873;-0.793386;-0.003767;0.0;0.0;0.0;0.0;0.0;0.0
1.0;1753881172.760976;16.864647;1.01;-1.6;0.11;-0.629869;-0.793926;-0.001793;0.0;0.0;0.0;0.0;0.0;0.0
1.0;1753881172.765564;16.879686;0.92;-1.59;0.11;-0.62818;-0.792879;-0.003243;0.0;0.0;0.0;0.0;0.0;0.0
1.0;1753881172.770152;16.850394;1.09;-1.72;0.05;-0.62854;-0.793745;-0.003076;0.0;0.0;0.0;0.0;0.0;0.0
1.0;1753881172.77474;16.893486;1.13;-1.64;-0.02;-0.626281;-0.79365;-0.004578;0.0;0.0;0.0;0.0;0.0;0.0
1.0;1753881172.78251;16.917969;0.98;-1.61;0.07;-0.626226;-0.793366;-0.003294;0.0;0.0;0.0;0.0;0.0;0.0
1.0;1753881172.787098;16.933117;0.89;-1.59;0.05;-0.626692;-0.793148;-0.002796;0.0;0.0;0.0;0.0;0.0;0.0
1.0;1753881172.791686;16.910359;0.96;-1.63;0.23;-0.627443;-0.792736;-0.002602;0.0;0.0;0.0;0.0;0.0;0.0
1.0;1753881172.796274;16.930784;0.91;-1.7;0.02;-0.627847;-0.793057;-0.00371;0.0;0.0;0.0;0.0;0.0;0.0
1.0;1753881172.80454;16.917969;1.05;-1.68;0.07;-0.62769;-0.792634;-0.002562;0.0;0.0;0.0;0.0;0.0;0.0
1.0;1753881172.809128;16.927842;1.1;-1.72;0.17;-0.628658;-0.791651;-0.002326;0.0;0.0;0.0;0.0;0.0;0.0
1.0;1753881172.813716;16.950676;0.96;-1.71;-0.03;-0.629273;-0.793257;-0.002731;0.0;0.0;0.0;0.0;0.0;0.0
1.0;1753881172.818304;16.923623;1.03;-1.57;0.05;-0.626764;-0.791355;-0.001957;0.0;0.0;0.0;0.0;0.0;0.0
1.0;1753881172.822892;16.926133;1.23;-1.74;0.21;-0.626065;-0.793141;-0.001794;0.0;0.0;0.0;0.0;0.0;0.0
1.0;1753881172.827479;16.938136;1.01;-1.66;0.13;-0.625691;-0.794175;-0.00248;0.0;0.0;0.0;0.0;0.0;0.0
1.0;1753881172.832067;16.944372;1.12;-1.66;0.09;-0.62648;-0.793648;-0.003668;0.0;0.0;0.0;0.0;0.0;0.0
1.0;1753881172.836655;16.942243;0.87;-1.68;0.12;-0.626665;-0.793402;-0.002176;0.0;0.0;0.0;0.0;0.0;0.0
1.0;1753881172.841243;16.927043;1.08;-1.59;0.09;-0.624972;-0.793278;-0.003498;0.0;0.0;0.0;0.0;0.0;0.0
1.0;1753881172.845831;16.932199;1.06;-1.75;-0.05;-0.625925;-0.793159;-0.004009;0.0;0.0;0.0;0.0;0.0;0.0
1.0;1753881172.850419;16.91347;0.96;-1.64;0.02;-0.627719;-0.793436;-0.002937;0.0;0.0;0.0;0.0;0.0;0.0
1.0;1753881172.85681;16.917969;1.05;-1.68;0.07;-0.624884;-0.79361;-0.003538;0.0;0.0;0.0;0.0;0.0;0.0
1.0;1753881172.861398;16.896707;1.14;-1.65;-0.05;-0.624;-0.793646;-0.004113;0.0;0.0;0.0;0.0;0.0;0.0
1.0;1753881172.865986;16.914713;1.01;-1.55;0.01;-0.625513;-0.793138;-0.003413;0.0;0.0;0.0;0.0;0.0;0.0
1.0;1753881172.870574;16.950152;0.9;-1.65;0.09;-0.624698;-0.793494;-0.002478;0.0;0.0;0.0;0.0;0.0;0.0
1.0;1753881172.875162;16.909728;0.83;-1.75;0.02;-0.624657;-0.793333;-0.004556;0.0;0.0;0.0;0.0;0.0;0.0
1.0;1753881172.87975;16.918148;0.91;-1.65;0.05;-0.626475;-0.792721;-0.001781;0.0;0.0;0.0;0.0;0.0;0.0
1.0;1753881172.884338;16.897603;0.91;-1.7;0.04;-0.626031;-0.79205;-0.003112;0.0;0.0;0.0;0.0;0.0;0.0
1.0;1753881172.888925;16.903876;0.87;-1.63;-0.05;-0.625492;-0.794502;-0.002686;0.0;0.0;0.0;0.0;0.0;0.0
1.0;1753881172.89663;16.902344;0.98;-1.61;0.0;-0.626714;-0.792878;-0.002562;0.0;0.0;0.0;0.0;0.0;0.0
1.0;1753881172.901218;16.906042;0.94;-1.65;0.02;-0.626534;-0.792047;-0.004003;0.0;0.0;0.0;0.0;0.0;0.0
1.0;1753881172.905806;16.900721;1.01;-1.59;0.02;-0.626942;-0.79316;-0.003088;0.0;0.0;0.0;0.0;0.0;0.0
1.0;1753881172.910394;16.89786;0.98;-1.64;0.03;-0.626592;-0.794026;-0.003135;0.0;0.0;0.0;0.0;0.0;0.0
1.0;1753881172.914982;16.908841;1.07;-1.56;-0.01;-0.628054;-0.792825;-0.003555;0.0;0.0;0.0;0.0;0.0;0.0
1.0;1753881172.91957;16.925191;1.01;-1.65;0.16;-0.626602;-0.791889;-0.004908;0.0;0.0;0.0;0.0;0.0;0.0
1.0;1753881172.924158;16.902277;1.06;-1.58;0.06;-0.628073;-0.793194;-0.003647;0.0;0.0;0.0;0.0;0.0;0.0
1.0;1753881172.928745;16.929196;1.05;-1.59;-0.04;-0.626887;-0.793965;-0.003506;0.0;0.0;0.0;0.0;0.0;0.0
1.0;1753881172.933333;16.909552;1.07;-1.58;0.15;-0.627948;-0.793468;-0.003187;0.0;0.0;0.0;0.0;0.0;0.0
1.0;1753881172.94166;16.902344;1.05;-1.68;0.07;-0.627568;-0.793366;-0.004514;0.0;0.0;0.0;0.0;0.0;0.0
1.0;1753881172.946248;16.910486;0.94;-1.65;0.04;-0.629208;-0.794173;-0.004963;0.0;0.0;0.0;0.0;0.0;0.0
1.0;1753881172.950836;16.928663;1.01;-1.7;0.15;-0.628306;-0.792943;-0.004342;0.0;0.0;0.0;0.0;0.0;0.0
1.0;1753881172.955424;16.913178;0.94;-1.7;0.16;-0.627582;-0.793632;-0.004627;0.0;0.0;0.0;0.0;0.0;0.0
1.0;1753881172.960012;16.910606;0.96;-1.71;0.08;-0.626306;-0.792882;-0.003687;0.0;0.0;0.0;0.0;0.0;0.0
1.0;1753881172.964599;16.906061;0.88;-1.59;0.12;-0.627317;-0.792784;-0.002155;0.0;0.0;0.0;0.0;0.0;0.0
1.0;1753881172.969187;16.935033;1.02;-1.67;0.13;-0.62782;-0.792824;-0.004252;0.0;0.0;0.0;0.0;0.0;0.0
1.0;1753881172.973775;16.889067;1.14;-1.62;0.23;-0.627577;-0.794859;-0.003769;0.0;0.0;0.0;0.0;0.0;0.0
1.0;1753881172.978363;16.910754;1.05;-1.72;0.19;-0.626954;-0.792773;-0.002479;0.0;0.0;0.0;0.0;0.0;0.0
1.0;1753881172.982951;16.965208;0.9;-1.78;0.16;-0.627455;-0.792345;-0.00214;0.0;0.0;0.0;0.0;0.0;0.0
1.0;1753881172.987539;16.913617;1.03;-1.72;0.16;-0.627785;-0.793053;-0.003351;0.0;0.0;0.0;0.0;0.0;0.0
1.0;1753881172.99373;16.902344;0.91;-1.68;0.14;-0.627324;-0.792634;-0.00244;0.0;0.0;0.0;0.0;0.0;0.0
1.0;1753881172.994202;16.847656;1.12;-1.75;0.21;-0.628666;-0.791902;-0.002684;0.0;0.0;0.0;0.0;0.0;0.0
1.0;1753881172.994994;16.847656;1.05;-1.68;0.07;-0.626226;-0.794098;-0.00305;0.0;0.0;0.0;0.0;0.0;0.0
1.0;1753881172.999636;16.847656;1.05;-1.68;0.21;-0.629032;-0.793;-0.003172;0.0;0.0;0.0;0.0;0.0;0.0
1.0;1753881173.004224;16.800109;1.02;-1.63;0.19;-0.627058;-0.792835;-0.002686;0.0;0.0;0.0;0.0;0.0;0.0
1.0;1753881173.008812;16.852379;1.02;-1.78;0.3;-0.627907;-0.793791;-0.003567;0.0;0.0;0.0;0.0;0.0;0.0
1.0;1753881173.0134;16.858126;1.06;-1.78;0.2;-0.629458;-0.794036;-0.002734;0.0;0.0;0.0;0.0;0.0;0.0
1.0;1753881173.017988;16.794468;1.13;-1.71;0.18;-0.629399;-0.791837;-0.003291;0.0;0.0;0.0;0.0;0.0;0.0
1.0;1753881173.022576;16.858135;1.06;-1.62;0.27;-0.62755;-0.792875;-0.002445;0.0;0.0;0.0;0.0;0.0;0.0
1.0;1753881173.027163;16.828933;1.05;-1.57;0.26;-0.628807;-0.793584;-0.00322;0.0;0.0;0.0;0.0;0.0;0.0
1.0;1753881173.031751;16.830721;1.02;-1.6;0.16;-0.627961;-0.794276;-0.002628;0.0;0.0;0.0;0.0;0.0;0.0
1.0;1753881173.036339;16.866148;1.06;-1.65;0.23;-0.63029;-0.792045;-0.002923;0.0;0.0;0.0;0.0;0.0;0.0
1.0;1753881173.040927;16.848447;1.0;-1.72;0.17;-0.62919;-0.793624;-0.00273;0.0;0.0;0.0;0.0;0.0;0.0
1.0;1753881173.045515;16.830526;0.94;-1.51;0.29;-0.628898;-0.79302;-0.002992;0.0;0.0;0.0;0.0;0.0;0.0
1.0;1753881173.050103;16.863478;1.03;-1.68;0.2;-0.628997;-0.793924;-0.002749;0.0;0.0;0.0;0.0;0.0;0.0
1.0;1753881173.05469;16.904522;1.09;-1.74;0.26;-0.629162;-0.793222;-0.002976;0.0;0.0;0.0;0.0;0.0;0.0
1.0;1753881173.059278;16.874382;0.98;-1.79;0.12;-0.630046;-0.793077;-0.003357;0.0;0.0;0.0;0.0;0.0;0.0
1.0;1753881173.063866;16.861695;1.04;-1.68;0.21;-0.628582;-0.792846;-0.003021;0.0;0.0;0.0;0.0;0.0;0.0
1.0;1753881173.068454;16.882787;0.94;-1.71;0.17;-0.629959;-0.79439;-0.003942;0.0;0.0;0.0;0.0;0.0;0.0
1.0;1753881173.073042;16.849336;0.94;-1.68;0.25;-0.628215;-0.793311;-0.003117;0.0;0.0;0.0;0.0;0.0;0.0
1.0;1753881173.07763;16.830035;1.02;-1.66;0.17;-0.628482;-0.793395;-0.003602;0.0;0.0;0.0;0.0;0.0;0.0
1.0;1753881173.082218;16.852858;1.07;-1.65;0.21;-0.628496;-0.792325;-0.003376;0.0;0.0;0.0;0.0;0.0;0.0
1.0;1753881173.086806;16.823165;1.02;-1.58;0.12;-0.630268;-0.794386;-0.001745;0.0;0.0;0.0;0.0;0.0;0.0
1.0;1753881173.091394;16.863446;1.06;-1.71;0.24;-0.627645;-0.792821;-0.003447;0.0;0.0;0.0;0.0;0.0;0.0
1.0;1753881173.095982;16.860251;1.06;-1.64;0.26;-0.630787;-0.793647;-0.002686;0.0;0.0;0.0;0.0;0.0;0.0
1.0;1753881173.10057;16.84135;0.91;-1.77;0.15;-0.629352;-0.79428;-0.002996;0.0;0.0;0.0;0.0;0.0;0.0
1.0;1753881173.105158;16.841082;1.08;-1.78;0.21;-0.629501;-0.794067;-0.0019;0.0;0.0;0.0;0.0;0.0;0.0
1.0;1753881173.109745;16.877948;0.95;-1.63;0.17;-0.629206;-0.792464;-0.003593;0.0;0.0;0.0;0.0;0.0;0.0
1.0;1753881173.114333;16.837375;1.03;-1.61;0.08;-0.627621;-0.793108;-0.003461;0.0;0.0;0.0;0.0;0.0;0.0
1.0;1753881173.118921;16.891989;1.01;-1.66;0.19;-0.628957;-0.794071;-0.00291;0.0;0.0;0.0;0.0;0.0;0.0
1.0;1753881173.123509;16.847533;1.14;-1.69;0.19;-0.626949;-0.793603;-0.004174;0.0;0.0;0.0;0.0;0.0;0.0
1.0;1753881173.128097;16.862549;1.13;-1.81;0.21;-0.629349;-0.792668;-0.003447;0.0;0.0;0.0;0.0;0.0;0.0
1.0;1753881173.132685;16.868212;1.07;-1.63;0.13;-0.629991;-0.79304;-0.002755;0.0;0.0;0.0;0.0;0.0;0.0
1.0;1753881173.137272;16.848933;0.96;-1.72;0.24;-0.626581;-0.793364;-0.003075;0.0;0.0;0.0;0.0;0.0;0.0
1.0;1753881173.14186;16.837186;0.97;-1.71;0.17;-0.629857;-0.792903;-0.003615;0.0;0.0;0.0;0.0;0.0;0.0
1.0;1753881173.146448;16.808091;1.08;-1.73;0.18;-0.627365;-0.791731;-0.00292;0.0;0.0;0.0;0.0;0.0;0.0
1.0;1753881173.151036;16.874578;1.03;-1.78;0.2;-0.628747;-0.79365;-0.002375;0.0;0.0;0.0;0.0;0.0;0.0
1.0;1753881173.155624;16.815902;1.03;-1.58;0.16;-0.628486;-0.793374;-0.002693;0.0;0.0;0.0;0.0;0.0;0.0
1.0;1753881173.160212;16.864049;0.96;-1.76;0.13;-0.630047;-0.793034;-0.0032;0.0;0.0;0.0;0.0;0.0;0.0
1.0;1753881173.1648;16.836884;0.9;-1.69;0.22;-0.627889;-0.794665;-0.003563;0.0;0.0;0.0;0.0;0.0;0.0
1.0;1753881173.169388;16.860473;1.15;-1.73;0.13;-0.625735;-0.79255;-0.002854;0.0;0.0;0.0;0.0;0.0;0.0
1.0;1753881173.173976;16.839329;1.12;-1.75;0.19;-0.628636;-0.793211;-0.003398;0.0;0.0;0.0;0.0;0.0;0.0
1.0;1753881173.178564;16.848257;0.96;-1.65;0.24;-0.628922;-0.792423;-0.003758;0.0;0.0;0.0;0.0;0.0;0.0
1.0;1753881173.183152;16.840927;0.95;-1.79;0.16;-0.627385;-0.79222;-0.003876;0.0;0.0;0.0;0.0;0.0;0.0
1.0;1753881173.187739;16.852498;1.09;-1.74;0.16;-0.629076;-0.79426;-0.002872;0.0;0.0;0.0;0.0;0.0;0.0
1.0;1753881173.192327;16.828375;1.09;-1.61;0.26;-0.628205;-0.793875;-0.003486;0.0;0.0;0.0;0.0;0.0;0.0
1.0;1753881173.196915;16.806288;1.04;-1.65;0.16;-0.627906;-0.792589;-0.003015;0.0;0.0;0.0;0.0;0.0;0.0
1.0;1753881173.201503;16.850163;0.99;-1.72;0.3;-0.62869;-0.792382;-0.002764;0.0;0.0;0.0;0.0;0.0;0.0
1.0;1753881173.206091;16.880519;1.11;-1.71;0.21;-0.62809;-0.79403;-0.003688;0.0;0.0;0.0;0.0;0.0;0.0
1.0;1753881173.210679;16.877326;1.04;-1.45;0.1;-0.629069;-0.793022;-0.002416;0.0;0.0;0.0;0.0;0.0;0.0
1.0;1753881173.215267;16.858386;1.03;-1.76;0.14;-0.627941;-0.793101;-0.002918;0.0;0.0;0.0;0.0;0.0;0.0
1.0;1753881173.219854;16.872959;1.02;-1.72;0.11;-0.627965;-0.792316;-0.002234;0.0;0.0;0.0;0.0;0.0;0.0
1.0;1753881173.224442;16.882883;1.01;-1.78;0.23;-0.63005;-0.794109;-0.002544;0.0;0.0;0.0;0.0;0.0;0.0
1.0;1753881173.22903;16.842773;1.05;-1.72;0.23;-0.627374;-0.793218;-0.002635;0.0;0.0;0.0;0.0;0.0;0.0
1.0;1753881173.233618;16.89089;1.1;-1.66;0.1;-0.628236;-0.79286;-0.002746;0.0;0.0;0.0;0.0;0.0;0.0
1.0;1753881173.238206;16.865763;1.03;-1.64;0.13;-0.628764;-0.792962;-0.003545;0.0;0.0;0.0;0.0;0.0;0.0
1.0;1753881173.242794;16.866678;1.07;-1.85;0.17;-0.627968;-0.793191;-0.002772;0.0;0.0;0.0;0.0;0.0;0.0
1.0;1753881173.247382;16.842813;0.97;-1.64;0.18;-0.630228;-0.791877;-0.002739;0.0;0.0;0.0;0.0;0.0;0.0
1.0;1753881173.25197;16.897858;1.1;-1.58;0.25;-0.628269;-0.793095;-0.003424;0.0;0.0;0.0;0.0;0.0;0.0
1.0;1753881173.256558;16.830125;0.97;-1.64;0.16;-0.626357;-0.792951;-0.0026;0.0;0.0;0.0;0.0;0.0;0.0
1.0;1753881173.261146;16.796143;0.86;-1.86;0.21;-0.628312;-0.79333;-0.003434;0.0;0.0;0.0;0.0;0.0;0.0
1.0;1753881173.265734;16.820368;1.04;-1.69;0.17;-0.628914;-0.793118;-0.002791;0.0;0.0;0.0;0.0;0.0;0.0
1.0;1753881173.270321;16.843458;1.06;-1.73;0.24;-0.628592;-0.793452;-0.003286;0.0;0.0;0.0;0.0;0.0;0.0
1.0;1753881173.274909;16.838987;1.03;-1.7;0.14;-0.628372;-0.793098;-0.002439;0.0;0.0;0.0;0.0;0.0;0.0
1.0;1753881173.279497;16.845344;1.0;-1.66;0.16;-0.629862;-0.792986;-0.003323;0.0;0.0;0.0;0.0;0.0;0.0
1.0;1753881173.284085;16.843958;1.07;-1.74;0.21;-0.627926;-0.793467;-0.003009;0.0;0.0;0.0;0.0;0.0;0.0
1.0;1753881173.288673;16.848104;1.08;-1.8;0.18;-0.625656;-0.792532;-0.002506;0.0;0.0;0.0;0.0;0.0;0.0
1.0;1753881173.293261;16.865054;1.05;-1.75;0.09;-0.628293;-0.791974;-0.00388;0.0;0.0;0.0;0.0;0.0;0.0
1.0;1753881173.297849;16.861058;1.05;-1.74;0.2;-0.630386;-0.792462;-0.002666;0.0;0.0;0.0;0.0;0.0;0.0
1.0;1753881173.302436;16.860596;1.01;-1.84;0.28;-0.627198;-0.792864;-0.002859;0.0;0.0;0.0;0.0;0.0;0.0
1.0;1753881173.307024;16.819984;0.87;-1.67;0.12;-0.6288;-0.793523;-0.003323;0.0;0.0;0.0;0.0;0.0;0.0
1.0;1753881173.311612;16.847709;1.02;-1.77;0.16;-0.628372;-0.791955;-0.003764;0.0;0.0;0.0;0.0;0.0;0.0
1.0;1753881173.3162;16.873483;0.98;-1.75;0.1;-0.628852;-0.792968;-0.002414;0.0;0.0;0.0;0.0;0.0;0.0
1.0;1753881173.320788;16.856364;1.02;-1.7;0.13;-0.628237;-0.793504;-0.003085;0.0;0.0;0.0;0.0;0.0;0.0
1.0;1753881173.325376;16.824706;1.02;-1.64;0.33;-0.630078;-0.794316;-0.003292;0.0;0.0;0.0;0.0;0.0;0.0
1.0;1753881173.329964;16.82859;1.05;-1.61;0.13;-0.626127;-0.792357;-0.003747;0.0;0.0;0.0;0.0;0.0;0.0
1.0;1753881173.334552;16.835468;1.04;-1.72;0.23;-0.629515;-0.792797;-0.003029;0.0;0.0;0.0;0.0;0.0;0.0
1.0;1753881173.33914;16.880683;1.08;-1.77;0.15;-0.62845;-0.792961;-0.003565;0.0;0.0;0.0;0.0;0.0;0.0
1.0;1753881173.343728;16.875199;1.01;-1.78;0.15;-0.62943;-0.7924;-0.003071;0.0;0.0;0.0;0.0;0.0;0.0
1.0;1753881173.348316;16.874502;1.04;-1.68;0.21;-0.628559;-0.793127;-0.003562;0.0;0.0;0.0;0.0;0.0;0.0
1.0;1753881173.352903;16.860987;1.06;-1.91;0.15;-0.62749;-0.792757;-0.002846;0.0;0.0;0.0;0.0;0.0;0.0
1.0;1753881173.357491;16.819665;0.89;-1.63;0.1;-0.627462;-0.793349;-0.003036;0.0;0.0;0.0;0.0;0.0;0.0
1.0;1753881173.362079;16.855716;0.98;-1.78;0.21;-0.627939;-0.792711;-0.003172;0.0;0.0;0.0;0.0;0.0;0.0
1.0;1753881173.366667;16.896813;0.98;-1.83;0.14;-0.629069;-0.792816;-0.003168;0.0;0.0;0.0;0.0;0.0;0.0
1.0;1753881173.371255;16.888123;1.08;-1.7;0.24;-0.628672;-0.792185;-0.002702;0.0;0.0;0.0;0.0;0.0;0.0
1.0;1753881173.375843;16.844285;1.08;-1.83;0.18;-0.629976;-0.794124;-0.002875;0.0;0.0;0.0;0.0;0.0;0.0
1.0;1753881173.380431;16.836035;1.05;-1.68;0.17;-0.626785;-0.793228;-0.004064;0.0;0.0;0.0;0.0;0.0;0.0
1.0;1753881173.385018;16.850204;0.91;-1.69;0.17;-0.62744;-0.792186;-0.003407;0.0;0.0;0.0;0.0;0.0;0.0
1.0;1753881173.389606;16.856076;0.92;-1.72;0.24;-0.62997;-0.792831;-0.003061;0.0;0.0;0.0;0.0;0.0;0.0
1.0;1753881173.394194;16.896319;0.96;-1.75;0.14;-0.629625;-0.793531;-0.002809;0.0;0.0;0.0;0.0;0.0;0.0
1.0;1753881173.398782;16.854649;0.94;-1.62;0.2;-0.628438;-0.793732;-0.002195;0.0;0.0;0.0;0.0;0.0;0.0
1.0;1753881173.40337;16.827984;1.06;-1.74;0.13;-0.628237;-0.793334;-0.003033;0.0;0.0;0.0;0.0;0.0;0.0
1.0;1753881173.407958;16.85783;1.05;-1.7;0.19;-0.62902;-0.792765;-0.003435;0.0;0.0;0.0;0.0;0.0;0.0
1.0;1753881173.412546;16.846329;1.08;-1.69;0.11;-0.628278;-0.792761;-0.002946;0.0;0.0;0.0;0.0;0.0;0.0
1.0;1753881173.417134;16.796942;0.98;-1.73;0.14;-0.626483;-0.793323;-0.003743;0.0;0.0;0.0;0.0;0.0;0.0
1.0;1753881173.421722;16.883111;1.08;-1.63;0.11;-0.628335;-0.792937;-0.00297;0.0;0.0;0.0;0.0;0.0;0.0
1.0;1753881173.42631;16.836179;1.01;-1.75;0.2;-0.626876;-0.793741;-0.003509;0.0;0.0;0.0;0.0;0.0;0.0
1.0;1753881173.430898;16.884013;1.09;-1.8;0.12;-0.627135;-0.792466;-0.003393;0.0;0.0;0.0;0.0;0.0;0.0
1.0;1753881173.435485;16.807368;0.93;-1.74;0.17;-0.628789;-0.791804;-0.002966;0.0;0.0;0.0;0.0;0.0;0.0
1.0;1753881173.440073;16.888143;1.03;-1.73;0.12;-0.627967;-0.791705;-0.002887;0.0;0.0;0.0;0.0;0.0;0.0
1.0;1753881173.444661;16.837724;1.02;-1.84;0.08;-0.627856;-0.793542;-0.003111;0.0;0.0;0.0;0.0;0.0;0.0
1.0;1753881173.449249;16.840347;1.04;-1.72;0.11;-0.627797;-0.793218;-0.003329;0.0;0.0;0.0;0.0;0.0;0.0
1.0;1753881173.453837;16.822799;1.03;-1.68;0.19;-0.627969;-0.791601;-0.003584;0.0;0.0;0.0;0.0;0.0;0.0
1.0;1753881173.458425;16.841875;0.99;-1.8;0.16;-0.630311;-0.793157;-0.002982;0.0;0.0;0.0;0.0;0.0;0.0
1.0;1753881173.463013;16.81648;1.07;-1.72;0.1;-0.626918;-0.792341;-0.003071;0.0;0.0;0.0;0.0;0.0;0.0
1.0;1753881173.4676;16.861002;0.97;-1.73;0.14;-0.626829;-0.792572;-0.003028;0.0;0.0;0.0;0.0;0.0;0.0
1.0;1753881173.472188;16.803186;1.08;-1.73;0.28;-0.629689;-0.792631;-0.002612;0.0;0.0;0.0;0.0;0.0;0.0
1.0;1753881173.476776;16.833989;1.07;-1.6;0.07;-0.628112;-0.791746;-0.003824;0.0;0.0;0.0;0.0;0.0;0.0
1.0;1753881173.481364;16.82768;1.05;-1.66;0.28;-0.628536;-0.792434;-0.003204;0.0;0.0;0.0;0.0;0.0;0.0
1.0;1753881173.485952;16.870372;1.05;-1.93;0.12;-0.627237;-0.79167;-0.003504;0.0;0.0;0.0;0.0;0.0;0.0
1.0;1753881173.49054;16.856812;1.09;-1.78;0.14;-0.629834;-0.792863;-0.00294;0.0;0.0;0.0;0.0;0.0;0.0
1.0;1753881173.495128;16.842224;0.96;-1.71;0.18;-0.627811;-0.792711;-0.003157;0.0;0.0;0.0;0.0;0.0;0.0
1.0;1753881173.499716;16.875425;0.94;-1.61;0.13;-0.628982;-0.792051;-0.002802;0.0;0.0;0.0;0.0;0.0;0.0
1.0;1753881173.504304;16.832787;0.96;-1.65;0.1;-0.627333;-0.792932;-0.00411;0.0;0.0;0.0;0.0;0.0;0.0
1.0;1753881173.508892;16.823794;1.04;-1.73;0.18;-0.627229;-0.793456;-0.003107;0.0;0.0;0.0;0.0;0.0;0.0
1.0;1753881173.51348;16.87438;0.99;-1.84;0.11;-0.627791;-0.792303;-0.003276;0.0;0.0;0.0;0.0;0.0;0.0
1.0;1753881173.518067;16.841024;1.02;-1.59;0.13;-0.62645;-0.792436;-0.002569;0.0;0.0;0.0;0.0;0.0;0.0
1.0;1753881173.522655;16.807986;0.95;-1.86;0.0;-0.629502;-0.793173;-0.002295;0.0;0.0;0.0;0.0;0.0;0.0
1.0;1753881173.527243;16.822644;1.06;-1.79;0.15;-0.627811;-0.792648;-0.002779;0.0;0.0;0.0;0.0;0.0;0.0
1.0;1753881173.531831;16.863656;1.03;-1.84;0.15;-0.628041;-0.792918;-0.002434;0.0;0.0;0.0;0.0;0.0;0.0
1.0;1753881173.536419;16.820002;0.99;-1.68;0.16;-0.62843;-0.793097;-0.001898;0.0;0.0;0.0;0.0;0.0;0.0
1.0;1753881173.541007;16.846078;1.08;-1.75;0.14;-0.628209;-0.79115;-0.002575;0.0;0.0;0.0;0.0;0.0;0.0
1.0;1753881173.545595;16.834898;0.94;-1.75;0.12;-0.628185;-0.792611;-0.002978;0.0;0.0;0.0;0.0;0.0;0.0
1.0;1753881173.550182;16.83271;1.07;-1.67;0.22;-0.629192;-0.792589;-0.002863;0.0;0.0;0.0;0.0;0.0;0.0
1.0;1753881173.55477;16.852862;1.05;-1.84;0.13;-0.6285;-0.792741;-0.002662;0.0;0.0;0.0;0.0;0.0;0.0
1.0;1753881173.559358;16.846192;1.09;-1.7;0.15;-0.628406;-0.793304;-0.00345;0.0;0.0;0.0;0.0;0.0;0.0
1.0;1753881173.563946;16.890273;0.92;-1.66;0.15;-0.626443;-0.793466;-0.002975;0.0;0.0;0.0;0.0;0.0;0.0
1.0;1753881173.568534;16.900968;0.96;-1.59;0.07;-0.628245;-0.791161;-0.003688;0.0;0.0;0.0;0.0;0.0;0.0
1.0;1753881173.573122;16.867316;1.09;-1.76;0.11;-0.630043;-0.793637;-0.002438;0.0;0.0;0.0;0.0;0.0;0.0
1.0;1753881173.57771;16.876001;0.86;-1.7;0.23;-0.627556;-0.791979;-0.003407;0.0;0.0;0.0;0.0;0.0;0.0
1.0;1753881173.582298;16.817532;1.1;-1.72;0.22;-0.627777;-0.79244;-0.003955;0.0;0.0;0.0;0.0;0.0;0.0
1.0;1753881173.586886;16.859479;1.09;-1.79;0.09;-0.627631;-0.792806;-0.002928;0.0;0.0;0.0;0.0;0.0;0.0
1.0;1753881173.591474;16.867438;1.05;-1.59;0.08;-0.627063;-0.792913;-0.00413;0.0;0.0;0.0;0.0;0.0;0.0
1.0;1753881173.596062;16.840507;0.97;-1.78;0.1;-0.627595;-0.79251;-0.003196;0.0;0.0;0.0;0.0;0.0;0.0
1.0;1753881173.600649;16.877666;0.94;-1.74;0.17;-0.627421;-0.792798;-0.002715;0.0;0.0;0.0;0.0;0.0;0.0
1.0;1753881173.605237;16.875654;0.98;-1.8;0.11;-0.628515;-0.790695;-0.003365;0.0;0.0;0.0;0.0;0.0;0.0
1.0;1753881173.609825;16.871855;0.95;-1.69;0.12;-0.627058;-0.793245;-0.003316;0.0;0.0;0.0;0.0;0.0;0.0
1.0;1753881173.614413;16.874026;0.99;-1.75;0.1;-0.629582;-0.792254;-0.0028;0.0;0.0;0.0;0.0;0.0;0.0
1.0;1753881173.619001;16.847385;0.98;-1.76;0.06;-0.627566;-0.792638;-0.00331;0.0;0.0;0.0;0.0;0.0;0.0
1.0;1753881173.623589;16.827982;1.02;-1.75;0.11;-0.628237;-0.793156;-0.002629;0.0;0.0;0.0;0.0;0.0;0.0
1.0;1753881173.628177;16.824629;0.93;-1.85;0.23;-0.627424;-0.794209;-0.002145;0.0;0.0;0.0;0.0;0.0;0.0
1.0;1753881173.632764;16.854098;0.92;-1.66;0.2;-0.627684;-0.793352;-0.001728;0.0;0.0;0.0;0.0;0.0;0.0
1.0;1753881173.637352;16.853275;1.1;-1.72;0.14;-0.628899;-0.794287;-0.002908;0.0;0.0;0.0;0.0;0.0;0.0
1.0;1753881173.64194;16.867363;1.0;-1.7;0.22;-0.627338;-0.792205;-0.002619;0.0;0.0;0.0;0.0;0.0;0.0
1.0;1753881173.646528;16.837826;1.07;-1.66;0.07;-0.627205;-0.792263;-0.003321;0.0;0.0;0.0;0.0;0.0;0.0
1.0;1753881173.651116;16.816058;0.96;-1.76;0.26;-0.62801;-0.79383;-0.002007;0.0;0.0;0.0;0.0;0.0;0.0
1.0;1753881173.655704;16.820548;1.04;-1.77;0.09;-0.627242;-0.79169;-0.003182;0.0;0.0;0.0;0.0;0.0;0.0
1.0;1753881173.660292;16.85935;1.03;-1.68;0.13;-0.626891;-0.792787;-0.002954;0.0;0.0;0.0;0.0;0.0;0.0
1.0;1753881173.66488;16.850446;0.96;-1.71;0.16;-0.628515;-0.792919;-0.003071;0.0;0.0;0.0;0.0;0.0;0.0
1.0;1753881173.669468;16.85808;0.95;-1.7;0.1;-0.629124;-0.793063;-0.002762;0.0;0.0;0.0;0.0;0.0;0.0
1.0;1753881173.674056;16.881106;1.03;-1.61;0.22;-0.628986;-0.792465;-0.002767;0.0;0.0;0.0;0.0;0.0;0.0
1.0;1753881173.678644;16.84526;0.97;-1.84;0.06;-0.627246;-0.792899;-0.002978;0.0;0.0;0.0;0.0;0.0;0.0
1.0;1753881173.683231;16.833535;1.1;-1.74;0.16;-0.627599;-0.791882;-0.00326;0.0;0.0;0.0;0.0;0.0;0.0
1.0;1753881173.687819;16.827686;0.91;-1.66;0.07;-0.627098;-0.793026;-0.00262;0.0;0.0;0.0;0.0;0.0;0.0
1.0;1753881173.692407;16.848911;0.97;-1.76;0.1;-0.627269;-0.792276;-0.003688;0.0;0.0;0.0;0.0;0.0;0.0
1.0;1753881173.696995;16.840209;0.92;-1.77;0.14;-0.627429;-0.793713;-0.002995;0.0;0.0;0.0;0.0;0.0;0.0
1.0;1753881173.701583;16.872187;0.98;-1.72;0.12;-0.627476;-0.793719;-0.00261;0.0;0.0;0.0;0.0;0.0;0.0
1.0;1753881173.706171;16.891582;1.0;-1.73;0.16;-0.626859;-0.793999;-0.002557;0.0;0.0;0.0;0.0;0.0;0.0
1.0;1753881173.710759;16.865583;0.94;-1.65;0.18;-0.629806;-0.792219;-0.002785;0.0;0.0;0.0;0.0;0.0;0.0
1.0;1753881173.715346;16.854338;0.92;-1.7;0.16;-0.627644;-0.792562;-0.003103;0.0;0.0;0.0;0.0;0.0;0.0
1.0;1753881173.719934;16.85913;0.95;-1.8;0.08;-0.628204;-0.792363;-0.003415;0.0;0.0;0.0;0.0;0.0;0.0
1.0;1753881173.724522;16.855248;0.97;-1.75;0.05;-0.631603;-0.791926;-0.003071;0.0;0.0;0.0;0.0;0.0;0.0
1.0;1753881173.72911;16.821103;0.96;-1.75;0.12;-0.627224;-0.792908;-0.001789;0.0;0.0;0.0;0.0;0.0;0.0
1.0;1753881173.733698;16.884758;1.01;-1.66;0.06;-0.629685;-0.79217;-0.002632;0.0;0.0;0.0;0.0;0.0;0.0
1.0;1753881173.738286;16.858866;1.03;-1.76;0.17;-0.627669;-0.791724;-0.004037;0.0;0.0;0.0;0.0;0.0;0.0
1.0;1753881173.742874;16.802213;0.95;-1.73;0.08;-0.627573;-0.792816;-0.003047;0.0;0.0;0.0;0.0;0.0;0.0
1.0;1753881173.747462;16.895373;1.16;-1.8;0.12;-0.627763;-0.792214;-0.003447;0.0;0.0;0.0;0.0;0.0;0.0
1.0;1753881173.75205;16.875795;0.94;-1.72;0.13;-0.629185;-0.794216;-0.002919;0.0;0.0;0.0;0.0;0.0;0.0
1.0;1753881173.756638;16.88345;1.12;-1.85;0.08;-0.628639;-0.791912;-0.003001;0.0;0.0;0.0;0.0;0.0;0.0
1.0;1753881173.761226;16.808089;0.91;-1.71;0.14;-0.626406;-0.793255;-0.003013;0.0;0.0;0.0;0.0;0.0;0.0
1.0;1753881173.765813;16.800213;0.99;-1.86;0.1;-0.62644;-0.793405;-0.002167;0.0;0.0;0.0;0.0;0.0;0.0
1.0;1753881173.770401;16.851749;1.1;-1.8;0.14;-0.628776;-0.793019;-0.002731;0.0;0.0;0.0;0.0;0.0;0.0
1.0;1753881173.774989;16.797003;1.1;-1.69;0.12;-0.627831;-0.791708;-0.002647;0.0;0.0;0.0;0.0;0.0;0.0
1.0;1753881173.779577;16.828455;0.93;-1.69;0.1;-0.628052;-0.792611;-0.00433;0.0;0.0;0.0;0.0;0.0;0.0
1.0;1753881173.784165;16.889875;1.0;-1.82;0.02;-0.628116;-0.791805;-0.001871;0.0;0.0;0.0;0.0;0.0;0.0
1.0;1753881173.788753;16.876977;1.08;-1.79;0.1;-0.627126;-0.792646;-0.002699;0.0;0.0;0.0;0.0;0.0;0.0
1.0;1753881173.793341;16.854552;0.97;-1.79;0.18;-0.627497;-0.792258;-0.002708;0.0;0.0;0.0;0.0;0.0;0.0
1.0;1753881173.797928;16.825909;0.98;-1.76;0.13;-0.627499;-0.7922;-0.003009;0.0;0.0;0.0;0.0;0.0;0.0
1.0;1753881173.802516;16.845966;1.01;-1.67;0.18;-0.626573;-0.792792;-0.002058;0.0;0.0;0.0;0.0;0.0;0.0
1.0;1753881173.807104;16.85052;0.97;-1.88;0.14;-0.627908;-0.793387;-0.00218;0.0;0.0;0.0;0.0;0.0;0.0
1.0;1753881173.811692;16.820453;0.99;-1.7;0.08;-0.627059;-0.793201;-0.002916;0.0;0.0;0.0;0.0;0.0;0.0
1.0;1753881173.81628;16.849594;1.04;-1.79;0.16;-0.62729;-0.792419;-0.003467;0.0;0.0;0.0;0.0;0.0;0.0
1.0;1753881173.820868;16.831021;1.0;-1.64;0.1;-0.628136;-0.793871;-0.001378;0.0;0.0;0.0;0.0;0.0;0.0
1.0;1753881173.825456;16.841933;1.02;-1.63;0.09;-0.628919;-0.792257;-0.002933;0.0;0.0;0.0;0.0;0.0;0.0
1.0;1753881173.830044;16.867686;1.03;-1.66;0.05;-0.627055;-0.792598;-0.002268;0.0;0.0;0.0;0.0;0.0;0.0
1.0;1753881173.834632;16.873931;0.97;-1.78;0.04;-0.62777;-0.79268;-0.002447;0.0;0.0;0.0;0.0;0.0;0.0
1.0;1753881173.83922;16.882025;0.87;-1.82;0.14;-0.629556;-0.7917;-0.003465;0.0;0.0;0.0;0.0;0.0;0.0
1.0;1753881173.843808;16.862036;1.06;-1.86;-0.01;-0.628724;-0.792033;-0.002449;0.0;0.0;0.0;0.0;0.0;0.0
1.0;1753881173.848395;16.842643;0.97;-1.79;0.12;-0.627956;-0.791891;-0.002903;0.0;0.0;0.0;0.0;0.0;0.0
1.0;1753881173.852983;16.811795;1.01;-1.64;0.09;-0.627455;-0.793162;-0.003082;0.0;0.0;0.0;0.0;0.0;0.0
1.0;1753881173.857571;16.856727;1.07;-1.73;0.18;-0.628195;-0.792498;-0.003131;0.0;0.0;0.0;0.0;0.0;0.0
1.0;1753881173.862159;16.824822;0.99;-1.84;0.06;-0.628006;-0.792845;-0.002817;0.0;0.0;0.0;0.0;0.0;0.0
1.0;1753881173.866747;16.873696;1.01;-1.67;0.15;-0.627909;-0.793021;-0.002793;0.0;0.0;0.0;0.0;0.0;0.0
1.0;1753881173.871335;16.848099;0.98;-1.73;0.11;-0.626542;-0.79164;-0.002671;0.0;0.0;0.0;0.0;0.0;0.0
1.0;1753881173.875923;16.881921;0.98;-1.69;0.02;-0.627729;-0.792266;-0.002649;0.0;0.0;0.0;0.0;0.0;0.0
1.0;1753881173.88051;16.85948;1.03;-1.58;0.19;-0.626893;-0.793305;-0.003;0.0;0.0;0.0;0.0;0.0;0.0
1.0;1753881173.885098;16.886002;0.95;-1.86;0.06;-0.627742;-0.793594;-0.001384;0.0;0.0;0.0;0.0;0.0;0.0
1.0;1753881173.889686;16.880445;1.04;-1.88;0.05;-0.625033;-0.791303;-0.002493;0.0;0.0;0.0;0.0;0.0;0.0
1.0;1753881173.894274;16.833128;1.0;-1.81;0.03;-0.628549;-0.792284;-0.002683;0.0;0.0;0.0;0.0;0.0;0.0
1.0;1753881173.898862;16.899424;0.91;-1.77;0.2;-0.627055;-0.79334;-0.002537;0.0;0.0;0.0;0.0;0.0;0.0
1.0;1753881173.90345;16.819851;0.95;-1.92;0.16;-0.628245;-0.79247;-0.003334;0.0;0.0;0.0;0.0;0.0;0.0
1.0;1753881173.908038;16.868017;1.0;-1.69;0.0;-0.628209;-0.791664;-0.001501;0.0;0.0;0.0;0.0;0.0;0.0
1.0;1753881173.912626;16.818008;1.02;-1.83;-0.06;-0.62842;-0.792627;-0.00315;0.0;0.0;0.0;0.0;0.0;0.0
1.0;1753881173.917214;16.857129;1.11;-1.74;-0.01;-0.630114;-0.793598;-0.002974;0.0;0.0;0.0;0.0;0.0;0.0
1.0;1753881173.921802;16.837481;1.1;-1.83;0.16;-0.628195;-0.792604;-0.002332;0.0;0.0;0.0;0.0;0.0;0.0
1.0;1753881173.92639;16.865139;0.99;-1.75;0.06;-0.626445;-0.792629;-0.003038;0.0;0.0;0.0;0.0;0.0;0.0
1.0;1753881173.930977;16.805915;0.95;-1.74;-0.01;-0.628;-0.79318;-0.002917;0.0;0.0;0.0;0.0;0.0;0.0
1.0;1753881173.935565;16.864689;0.99;-1.77;0.05;-0.627648;-0.7927;-0.002707;0.0;0.0;0.0;0.0;0.0;0.0
1.0;1753881173.940153;16.850786;0.95;-1.77;0.07;-0.627973;-0.792785;-0.002403;0.0;0.0;0.0;0.0;0.0;0.0
1.0;1753881173.944741;16.85083;1.03;-1.71;0.07;-0.627367;-0.792603;-0.002986;0.0;0.0;0.0;0.0;0.0;0.0
1.0;1753881173.949329;16.827789;1.03;-1.77;0.1;-0.628379;-0.792831;-0.003901;0.0;0.0;0.0;0.0;0.0;0.0
1.0;1753881173.953917;16.862714;0.97;-1.7;0.11;-0.628212;-0.794007;-0.004231;0.0;0.0;0.0;0.0;0.0;0.0
1.0;1753881173.958505;16.821035;1.07;-1.66;0.15;-0.627072;-0.791626;-0.00373;0.0;0.0;0.0;0.0;0.0;0.0
1.0;1753881173.963092;16.820644;0.98;-1.82;0.16;-0.627307;-0.793006;-0.002554;0.0;0.0;0.0;0.0;0.0;0.0
1.0;1753881173.96768;16.887504;1.04;-1.68;0.14;-0.626693;-0.792283;-0.002355;0.0;0.0;0.0;0.0;0.0;0.0
1.0;1753881173.972268;16.843198;1.15;-1.75;0.09;-0.628664;-0.793263;-0.002387;0.0;0.0;0.0;0.0;0.0;0.0
1.0;1753881173.976856;16.827224;1.01;-1.75;0.08;-0.627394;-0.792461;-0.002228;0.0;0.0;0.0;0.0;0.0;0.0
1.0;1753881173.981444;16.840631;0.9;-1.78;0.19;-0.627129;-0.792212;-0.003152;0.0;0.0;0.0;0.0;0.0;0.0
1.0;1753881173.986032;16.838003;0.91;-1.77;0.07;-0.627889;-0.79307;-0.002819;0.0;0.0;0.0;0.0;0.0;0.0
1.0;1753881173.99062;16.867215;1.08;-1.78;0.09;-0.627064;-0.792225;-0.001459;0.0;0.0;0.0;0.0;0.0;0.0
1.0;1753881173.998;16.847656;0.98;-1.75;0.07;-0.627324;-0.792634;-0.002806;0.0;0.0;0.0;0.0;0.0;0.0
1.0;1753881174.002588;16.859057;0.99;-1.83;0.07;-0.627835;-0.791871;-0.002657;0.0;0.0;0.0;0.0;0.0;0.0
1.0;1753881174.007176;16.855895;1.04;-1.92;0.06;-0.62766;-0.793247;-0.001885;0.0;0.0;0.0;0.0;0.0;0.0
1.0;1753881174.011764;16.851782;1.0;-1.7;0.13;-0.62721;-0.792548;-0.00275;0.0;0.0;0.0;0.0;0.0;0.0
1.0;1753881174.016352;16.873085;0.93;-1.75;0.09;-0.628005;-0.793096;-0.003224;0.0;0.0;0.0;0.0;0.0;0.0
1.0;1753881174.020939;16.834715;0.93;-1.77;0.07;-0.627228;-0.79223;-0.003058;0.0;0.0;0.0;0.0;0.0;0.0
1.0;1753881174.025527;16.822715;1.07;-1.67;0.1;-0.626262;-0.793195;-0.003039;0.0;0.0;0.0;0.0;0.0;0.0
1.0;1753881174.030115;16.835439;1.02;-1.8;0.09;-0.626766;-0.793073;-0.002986;0.0;0.0;0.0;0.0;0.0;0.0
1.0;1753881174.034703;16.889191;0.96;-1.76;0.05;-0.626343;-0.792287;-0.003342;0.0;0.0;0.0;0.0;0.0;0.0
1.0;1753881174.039291;16.853325;0.94;-1.82;0.03;-0.627712;-0.79351;-0.004502;0.0;0.0;0.0;0.0;0.0;0.0
1.0;1753881174.043879;16.849653;1.02;-1.76;0.02;-0.626623;-0.793272;-0.000848;0.0;0.0;0.0;0.0;0.0;0.0
1.0;1753881174.048467;16.839413;0.98;-1.78;0.1;-0.6273;-0.792615;-0.003424;0.0;0.0;0.0;0.0;0.0;0.0
1.0;1753881174.053054;16.859358;0.99;-1.82;0.08;-0.627949;-0.791793;-0.001951;0.0;0.0;0.0;0.0;0.0;0.0
1.0;1753881174.057642;16.848274;0.95;-1.76;0.1;-0.627376;-0.792498;-0.002514;0.0;0.0;0.0;0.0;0.0;0.0
1.0;1753881174.06223;16.849952;0.9;-1.8;0.03;-0.626643;-0.793033;-0.003346;0.0;0.0;0.0;0.0;0.0;0.0
1.0;1753881174.066818;16.855187;1.05;-1.73;0.02;-0.627216;-0.792505;-0.003672;0.0;0.0;0.0;0.0;0.0;0.0
1.0;1753881174.071406;16.849643;0.87;-1.61;-0.04;-0.628077;-0.792666;-0.003244;0.0;0.0;0.0;0.0;0.0;0.0
1.0;1753881174.075994;16.832327;0.97;-1.77;0.1;-0.627784;-0.793086;-0.003783;0.0;0.0;0.0;0.0;0.0;0.0
1.0;1753881174.080582;16.86285;0.97;-1.73;0.06;-0.627353;-0.792855;-0.001414;0.0;0.0;0.0;0.0;0.0;0.0
1.0;1753881174.08517;16.869256;1.05;-1.71;0.03;-0.627135;-0.792982;-0.002294;0.0;0.0;0.0;0.0;0.0;0.0
1.0;1753881174.089758;16.845626;0.98;-1.79;0.09;-0.627471;-0.793342;-0.001607;0.0;0.0;0.0;0.0;0.0;0.0
1.0;1753881174.094346;16.854544;1.03;-1.79;-0.01;-0.627948;-0.792946;-0.002039;0.0;0.0;0.0;0.0;0.0;0.0
1.0;1753881174.098934;16.848478;0.94;-1.77;0.12;-0.625728;-0.793234;-0.00351;0.0;0.0;0.0;0.0;0.0;0.0
1.0;1753881174.103521;16.818609;1.06;-1.77;0.07;-0.627059;-0.79343;-0.001331;0.0;0.0;0.0;0.0;0.0;0.0
1.0;1753881174.108109;16.851552;1.03;-1.74;0.2;-0.626979;-0.792946;-0.003948;0.0;0.0;0.0;0.0;0.0;0.0
1.0;1753881174.112697;16.864582;0.86;-1.74;-0.04;-0.628083;-0.793595;-0.003266;0.0;0.0;0.0;0.0;0.0;0.0
1.0;1753881174.117285;16.874265;0.95;-1.81;0.08;-0.62797;-0.793083;-0.004081;0.0;0.0;0.0;0.0;0.0;0.0
1.0;1753881174.121873;16.857364;0.88;-1.69;0.07;-0.626811;-0.792685;-0.002945;0.0;0.0;0.0;0.0;0.0;0.0
1.0;1753881174.126461;16.87274;1.04;-1.86;-0.0;-0.628586;-0.793685;-0.003021;0.0;0.0;0.0;0.0;0.0;0.0
1.0;1753881174.131049;16.857607;0.96;-1.76;0.09;-0.627014;-0.793794;-0.003437;0.0;0.0;0.0;0.0;0.0;0.0
1.0;1753881174.135636;16.846714;1.06;-1.75;0.1;-0.627871;-0.793301;-0.002842;0.0;0.0;0.0;0.0;0.0;0.0
1.0;1753881174.140224;16.878704;0.96;-1.84;0.12;-0.627032;-0.791889;-0.00288;0.0;0.0;0.0;0.0;0.0;0.0
1.0;1753881174.144812;16.838225;0.93;-1.79;0.04;-0.626744;-0.791957;-0.004125;0.0;0.0;0.0;0.0;0.0;0.0
1.0;1753881174.1494;16.851068;1.03;-1.75;0.05;-0.627467;-0.792993;-0.001913;0.0;0.0;0.0;0.0;0.0;0.0
1.0;1753881174.153988;16.866081;0.96;-1.77;0.11;-0.628251;-0.791455;-0.002614;0.0;0.0;0.0;0.0;0.0;0.0
1.0;1753881174.158576;16.880649;1.07;-1.72;0.01;-0.626909;-0.792959;-0.003174;0.0;0.0;0.0;0.0;0.0;0.0
1.0;1753881174.163164;16.879833;0.97;-1.64;0.03;-0.627708;-0.791839;-0.003196;0.0;0.0;0.0;0.0;0.0;0.0
1.0;1753881174.167752;16.871457;0.96;-1.68;0.05;-0.628272;-0.793858;-0.004038;0.0;0.0;0.0;0.0;0.0;0.0
1.0;1753881174.17234;16.853625;0.93;-1.69;0.0;-0.627808;-0.793328;-0.003722;0.0;0.0;0.0;0.0;0.0;0.0
1.0;1753881174.176928;16.854086;0.98;-1.77;0.08;-0.628152;-0.793777;-0.002623;0.0;0.0;0.0;0.0;0.0;0.0
1.0;1753881174.181516;16.83833;0.9;-1.73;0.16;-0.62809;-0.79313;-0.001589;0.0;0.0;0.0;0.0;0.0;0.0
1.0;1753881174.186103;16.848014;0.93;-1.81;0.0;-0.627334;-0.792219;-0.00207;0.0;0.0;0.0;0.0;0.0;0.0
1.0;1753881174.190691;16.850704;1.1;-1.69;0.08;-0.627981;-0.793058;-0.004761;0.0;0.0;0.0;0.0;0.0;0.0
1.0;1753881174.195279;16.858804;0.96;-1.69;0.04;-0.626648;-0.792442;-0.003748;0.0;0.0;0.0;0.0;0.0;0.0
1.0;1753881174.199867;16.848792;1.03;-1.79;0.06;-0.626954;-0.793307;-0.00288;0.0;0.0;0.0;0.0;0.0;0.0
1.0;1753881174.204455;16.854098;1.03;-1.62;0.0;-0.627401;-0.792279;-0.002792;0.0;0.0;0.0;0.0;0.0;0.0
1.0;1753881174.209043;16.864717;0.88;-1.56;0.07;-0.627111;-0.793882;-0.002279;0.0;0.0;0.0;0.0;0.0;0.0
1.0;1753881174.213631;16.858336;0.99;-1.77;0.02;-0.627072;-0.79399;-0.003119;0.0;0.0;0.0;0.0;0.0;0.0
1.0;1753881174.218218;16.834028;0.98;-1.81;0.1;-0.626548;-0.79318;-0.004462;0.0;0.0;0.0;0.0;0.0;0.0
1.0;1753881174.222806;16.850545;0.98;-1.78;0.08;-0.626791;-0.794202;-0.003549;0.0;0.0;0.0;0.0;0.0;0.0
1.0;1753881174.227394;16.864066;0.98;-1.82;0.04;-0.627327;-0.792675;-0.002682;0.0;0.0;0.0;0.0;0.0;0.0
1.0;1753881174.231982;16.89368;0.98;-1.8;0.12;-0.628157;-0.792438;-0.002213;0.0;0.0;0.0;0.0;0.0;0.0
1.0;1753881174.23657;16.893676;0.99;-1.78;0.05;-0.626931;-0.792528;-0.002646;0.0;0.0;0.0;0.0;0.0;0.0
1.0;1753881174.241158;16.888854;0.99;-1.67;0.02;-0.626828;-0.7925;-0.00166;0.0;0.0;0.0;0.0;0.0;0.0
1.0;1753881174.245746;16.854945;1.03;-1.77;0.13;-0.627914;-0.791869;-0.003224;0.0;0.0;0.0;0.0;0.0;0.0
1.0;1753881174.250334;16.874675;1.07;-1.71;0.1;-0.627421;-0.79384;-0.002239;0.0;0.0;0.0;0.0;0.0;0.0
1.0;1753881174.254922;16.894299;0.98;-1.6;0.05;-0.627288;-0.793056;-0.001785;0.0;0.0;0.0;0.0;0.0;0.0
1.0;1753881174.25951;16.856873;1.05;-1.74;0.06;-0.627205;-0.792334;-0.00171;0.0;0.0;0.0;0.0;0.0;0.0
1.0;1753881174.264098;16.860058;0.95;-1.9;0.11;-0.627492;-0.794025;-0.002421;0.0;0.0;0.0;0.0;0.0;0.0
1.0;1753881174.268685;16.85897;0.99;-1.76;0.01;-0.627554;-0.792819;-0.002203;0.0;0.0;0.0;0.0;0.0;0.0
1.0;1753881174.273273;16.832655;0.99;-1.68;0.09;-0.627989;-0.792677;-0.002486;0.0;0.0;0.0;0.0;0.0;0.0
1.0;1753881174.277861;16.862985;1.09;-1.71;0.07;-0.627625;-0.793713;-0.004075;0.0;0.0;0.0;0.0;0.0;0.0
1.0;1753881174.282449;16.860774;0.95;-1.79;0.15;-0.627189;-0.792738;-0.00228;0.0;0.0;0.0;0.0;0.0;0.0
1.0;1753881174.287037;16.862806;1.05;-1.66;0.11;-0.62809;-0.793313;-0.001951;0.0;0.0;0.0;0.0;0.0;0.0
1.0;1753881174.291625;16.864786;1.04;-1.65;0.02;-0.627722;-0.792394;-0.003137;0.0;0.0;0.0;0.0;0.0;0.0
1.0;1753881174.296213;16.851585;1.1;-1.74;0.06;-0.628768;-0.794072;-0.002828;0.0;0.0;0.0;0.0;0.0;0.0
1.0;1753881174.3008;16.853469;0.99;-1.67;0.06;-0.627124;-0.794059;-0.002745;0.0;0.0;0.0;0.0;0.0;0.0
1.0;1753881174.305388;16.858871;1.02;-1.63;0.1;-0.628308;-0.79422;-0.003684;0.0;0.0;0.0;0.0;0.0;0.0
1.0;1753881174.309976;16.86238;0.98;-1.77;0.09;-0.627376;-0.792939;-0.002689;0.0;0.0;0.0;0.0;0.0;0.0
1.0;1753881174.314564;16.843102;1.05;-1.76;0.11;-0.627634;-0.794242;-0.004857;0.0;0.0;0.0;0.0;0.0;0.0
1.0;1753881174.319152;16.88393;1.09;-1.79;0.11;-0.628809;-0.792458;-0.001049;0.0;0.0;0.0;0.0;0.0;0.0
1.0;1753881174.32374;16.84953;1.0;-1.64;0.04;-0.627534;-0.791498;-0.000509;0.0;0.0;0.0;0.0;0.0;0.0
1.0;1753881174.328328;16.844525;0.94;-1.72;0.12;-0.626551;-0.792323;-0.003493;0.0;0.0;0.0;0.0;0.0;0.0
1.0;1753881174.332916;16.873128;1.01;-1.77;0.13;-0.628332;-0.792878;-0.003253;0.0;0.0;0.0;0.0;0.0;0.0
1.0;1753881174.337504;16.86886;1.03;-1.6;0.1;-0.627614;-0.793911;-0.001246;0.0;0.0;0.0;0.0;0.0;0.0
1.0;1753881174.342092;16.894604;1.05;-1.8;0.11;-0.626528;-0.793745;-0.002095;0.0;0.0;0.0;0.0;0.0;0.0
1.0;1753881174.34668;16.871176;1.04;-1.73;0.02;-0.628327;-0.792674;-0.002457;0.0;0.0;0.0;0.0;0.0;0.0
1.0;1753881174.351267;16.894366;0.95;-1.69;0.07;-0.627823;-0.791095;-0.000533;0.0;0.0;0.0;0.0;0.0;0.0
1.0;1753881174.355855;16.856072;0.9;-1.7;0.12;-0.626279;-0.792931;-0.003536;0.0;0.0;0.0;0.0;0.0;0.0
1.0;1753881174.360443;16.923348;1.05;-1.65;0.07;-0.625886;-0.794603;-0.002567;0.0;0.0;0.0;0.0;0.0;0.0
1.0;1753881174.365031;16.885606;1.06;-1.83;-0.0;-0.627739;-0.793169;-0.001813;0.0;0.0;0.0;0.0;0.0;0.0
1.0;1753881174.369619;16.877394;1.01;-1.76;0.06;-0.627678;-0.793261;-0.001924;0.0;0.0;0.0;0.0;0.0;0.0
1.0;1753881174.374207;16.878184;1.03;-1.72;0.04;-0.627069;-0.793623;-0.003974;0.0;0.0;0.0;0.0;0.0;0.0
1.0;1753881174.378795;16.87337;1.07;-1.77;0.0;-0.627922;-0.79224;-0.000514;0.0;0.0;0.0;0.0;0.0;0.0
1.0;1753881174.383382;16.895154;1.06;-1.75;0.05;-0.627416;-0.79321;-0.002145;0.0;0.0;0.0;0.0;0.0;0.0
1.0;1753881174.38797;16.869666;0.99;-1.82;0.01;-0.628538;-0.794621;-0.002056;0.0;0.0;0.0;0.0;0.0;0.0
1.0;1753881174.392558;16.853506;1.0;-1.78;0.08;-0.627065;-0.79291;-0.002949;0.0;0.0;0.0;0.0;0.0;0.0
1.0;1753881174.397146;16.887722;1.02;-1.61;0.04;-0.626957;-0.793889;-0.000391;0.0;0.0;0.0;0.0;0.0;0.0
1.0;1753881174.401734;16.884786;0.96;-1.67;0.07;-0.628132;-0.792267;-0.001705;0.0;0.0;0.0;0.0;0.0;0.0
1.0;1753881174.406322;16.900326;1.03;-1.7;0.08;-0.626923;-0.794364;-0.001487;0.0;0.0;0.0;0.0;0.0;0.0
1.0;1753881174.41091;16.887771;1.02;-1.64;0.03;-0.62787;-0.793366;-0.002747;0.0;0.0;0.0;0.0;0.0;0.0
1.0;1753881174.415498;16.867994;0.9;-1.61;-0.02;-0.62721;-0.793901;-0.002309;0.0;0.0;0.0;0.0;0.0;0.0
1.0;1753881174.420086;16.857293;1.05;-1.73;0.11;-0.628088;-0.79281;-0.00336;0.0;0.0;0.0;0.0;0.0;0.0
1.0;1753881174.424674;16.862247;1.09;-1.71;0.09;-0.628496;-0.793377;-0.00398;0.0;0.0;0.0;0.0;0.0;0.0
1.0;1753881174.429262;16.886949;1.05;-1.67;0.09;-0.627224;-0.792269;-0.003349;0.0;0.0;0.0;0.0;0.0;0.0
1.0;1753881174.433849;16.895109;0.99;-1.82;0.07;-0.628813;-0.792624;-0.001589;0.0;0.0;0.0;0.0;0.0;0.0
1.0;1753881174.438437;16.894212;0.95;-1.77;0.03;-0.627755;-0.793449;-0.003804;0.0;0.0;0.0;0.0;0.0;0.0
1.0;1753881174.443025;16.859986;0.94;-1.75;-0.01;-0.628643;-0.792806;-0.001987;0.0;0.0;0.0;0.0;0.0;0.0
1.0;1753881174.447613;16.859769;1.03;-1.61;0.05;-0.627328;-0.792632;-0.002308;0.0;0.0;0.0;0.0;0.0;0.0
1.0;1753881174.452201;16.89865;1.04;-1.82;0.0;-0.628624;-0.792988;-0.00088;0.0;0.0;0.0;0.0;0.0;0.0
1.0;1753881174.456789;16.857432;1.04;-1.81;-0.01;-0.62696;-0.792817;-0.003508;0.0;0.0;0.0;0.0;0.0;0.0
1.0;1753881174.461377;16.88164;1.16;-1.74;0.07;-0.626514;-0.79266;-0.001976;0.0;0.0;0.0;0.0;0.0;0.0
1.0;1753881174.465964;16.912969;1.07;-1.75;0.06;-0.627177;-0.793871;-0.002445;0.0;0.0;0.0;0.0;0.0;0.0
1.0;1753881174.470552;16.88053;1.02;-1.78;0.03;-0.627205;-0.79286;-0.001431;0.0;0.0;0.0;0.0;0.0;0.0
1.0;1753881174.47514;16.846523;1.03;-1.83;0.05;-0.62789;-0.793909;-0.002739;0.0;0.0;0.0;0.0;0.0;0.0
1.0;1753881174.479728;16.879413;1.04;-1.72;-0.0;-0.626727;-0.793785;-0.003951;0.0;0.0;0.0;0.0;0.0;0.0
1.0;1753881174.484316;16.897315;0.98;-1.71;0.14;-0.628327;-0.794556;-0.002022;0.0;0.0;0.0;0.0;0.0;0.0
1.0;1753881174.488904;16.876431;1.02;-1.65;0.06;-0.626454;-0.79409;-0.003615;0.0;0.0;0.0;0.0;0.0;0.0
1.0;1753881174.493492;16.871155;1.01;-1.64;0.12;-0.626691;-0.793073;-0.003563;0.0;0.0;0.0;0.0;0.0;0.0
1.0;1753881174.49808;16.887093;1.05;-1.61;0.1;-0.627323;-0.794071;-0.003573;0.0;0.0;0.0;0.0;0.0;0.0
1.0;1753881174.502668;16.90378;1.14;-1.63;0.09;-0.628792;-0.793685;-0.003525;0.0;0.0;0.0;0.0;0.0;0.0
1.0;1753881174.507256;16.883367;1.1;-1.79;0.08;-0.626642;-0.793833;-0.001515;0.0;0.0;0.0;0.0;0.0;0.0
1.0;1753881174.511844;16.906567;1.1;-1.78;0.09;-0.629009;-0.793175;-0.001943;0.0;0.0;0.0;0.0;0.0;0.0
1.0;1753881174.516431;16.853804;1.03;-1.68;0.05;-0.627701;-0.791328;-0.003281;0.0;0.0;0.0;0.0;0.0;0.0
1.0;1753881174.521019;16.873667;1.0;-1.64;0.12;-0.629399;-0.791977;-0.002319;0.0;0.0;0.0;0.0;0.0;0.0
1.0;1753881174.525607;16.878382;1.15;-1.65;0.1;-0.627698;-0.791982;-0.003977;0.0;0.0;0.0;0.0;0.0;0.0
1.0;1753881174.530195;16.837232;1.02;-1.64;0.06;-0.627806;-0.792561;-0.003479;0.0;0.0;0.0;0.0;0.0;0.0
1.0;1753881174.534783;16.90036;1.08;-1.76;-0.03;-0.626717;-0.7935;-0.001718;0.0;0.0;0.0;0.0;0.0;0.0
1.0;1753881174.539371;16.851821;1.02;-1.58;0.01;-0.627274;-0.793607;-0.002651;0.0;0.0;0.0;0.0;0.0;0.0
1.0;1753881174.543959;16.897142;1.09;-1.7;0.06;-0.627741;-0.792899;-0.003066;0.0;0.0;0.0;0.0;0.0;0.0
1.0;1753881174.548546;16.887814;0.97;-1.78;0.01;-0.62751;-0.793302;-0.001994;0.0;0.0;0.0;0.0;0.0;0.0
1.0;1753881174.553134;16.904098;1.04;-1.65;0.09;-0.628615;-0.792967;-0.001932;0.0;0.0;0.0;0.0;0.0;0.0
1.0;1753881174.5615;16.894531;1.05;-1.68;0.07;-0.62769;-0.793488;-0.00244;0.0;0.0;0.0;0.0;0.0;0.0
1.0;1753881174.56819;16.855469;1.05;-1.61;0.07;-0.62586;-0.792878;-0.004636;0.0;0.0;0.0;0.0;0.0;0.0
1.0;1753881174.572778;16.874204;1.12;-1.76;0.06;-0.625852;-0.792447;-0.003235;0.0;0.0;0.0;0.0;0.0;0.0
1.0;1753881174.577366;16.838;1.04;-1.62;0.06;-0.62572;-0.793919;-0.003822;0.0;0.0;0.0;0.0;0.0;0.0
1.0;1753881174.581954;16.856863;1.05;-1.55;0.09;-0.62724;-0.793125;-0.004577;0.0;0.0;0.0;0.0;0.0;0.0
1.0;1753881174.586542;16.869077;1.02;-1.69;0.06;-0.627519;-0.792358;-0.004119;0.0;0.0;0.0;0.0;0.0;0.0
1.0;1753881174.59113;16.833623;1.04;-1.56;0.07;-0.626347;-0.79194;-0.003735;0.0;0.0;0.0;0.0;0.0;0.0
1.0;1753881174.595718;16.84605;1.03;-1.61;0.09;-0.626842;-0.792185;-0.003478;0.0;0.0;0.0;0.0;0.0;0.0
1.0;1753881174.600305;16.846287;0.97;-1.63;0.07;-0.627649;-0.792022;-0.003741;0.0;0.0;0.0;0.0;0.0;0.0
1.0;1753881174.60496;16.855469;1.05;-1.61;0.07;-0.627568;-0.792634;-0.003538;0.0;0.0;0.0;0.0;0.0;0.0
1.0;1753881174.609548;16.833793;1.03;-1.63;0.08;-0.626682;-0.793305;-0.003346;0.0;0.0;0.0;0.0;0.0;0.0
1.0;1753881174.614136;16.874014;1.07;-1.6;0.06;-0.626526;-0.792177;-0.003361;0.0;0.0;0.0;0.0;0.0;0.0
1.0;1753881174.618724;16.845389;1.01;-1.68;0.07;-0.626675;-0.793213;-0.003795;0.0;0.0;0.0;0.0;0.0;0.0
1.0;1753881174.623312;16.863156;1.05;-1.74;0.15;-0.627279;-0.793039;-0.002846;0.0;0.0;0.0;0.0;0.0;0.0
1.0;1753881174.6279;16.890751;1.08;-1.51;0.03;-0.6273;-0.792816;-0.00405;0.0;0.0;0.0;0.0;0.0;0.0
1.0;1753881174.632487;16.898552;0.96;-1.7;0.01;-0.626497;-0.792969;-0.003716;0.0;0.0;0.0;0.0;0.0;0.0
1.0;1753881174.637075;16.898746;1.02;-1.58;0.01;-0.626225;-0.792457;-0.003713;0.0;0.0;0.0;0.0;0.0;0.0
1.0;1753881174.641663;16.881904;1.15;-1.77;0.08;-0.625997;-0.793046;-0.003634;0.0;0.0;0.0;0.0;0.0;0.0
1.0;1753881174.65019;16.929688;1.05;-1.68;0.07;-0.62586;-0.793244;-0.003294;0.0;0.0;0.0;0.0;0.0;0.0
1.0;1753881174.654778;16.919078;1.1;-1.77;-0.03;-0.627058;-0.793196;-0.002032;0.0;0.0;0.0;0.0;0.0;0.0
1.0;1753881174.659366;16.894349;0.99;-1.64;0.06;-0.626295;-0.792334;-0.003872;0.0;0.0;0.0;0.0;0.0;0.0
1.0;1753881174.663954;16.942916;1.03;-1.66;0.04;-0.625599;-0.793617;-0.003183;0.0;0.0;0.0;0.0;0.0;0.0
1.0;1753881174.668542;16.955773;1.05;-1.73;0.04;-0.624245;-0.793648;-0.002895;0.0;0.0;0.0;0.0;0.0;0.0
1.0;1753881174.67313;16.945153;1.09;-1.75;0.05;-0.625519;-0.793069;-0.003142;0.0;0.0;0.0;0.0;0.0;0.0
1.0;1753881174.677718;16.939162;1.04;-1.68;0.06;-0.626998;-0.792682;-0.004145;0.0;0.0;0.0;0.0;0.0;0.0
1.0;1753881174.682305;16.925624;1.12;-1.72;0.06;-0.626057;-0.792217;-0.003366;0.0;0.0;0.0;0.0;0.0;0.0
1.0;1753881174.686893;16.929744;0.99;-1.8;0.04;-0.626969;-0.791773;-0.003225;0.0;0.0;0.0;0.0;0.0;0.0
1.0;1753881174.691481;16.931099;1.1;-1.73;0.14;-0.626161;-0.791374;-0.002913;0.0;0.0;0.0;0.0;0.0;0.0
1.0;1753881174.696069;16.926321;1.0;-1.79;0.04;-0.626194;-0.790766;-0.003398;0.0;0.0;0.0;0.0;0.0;0.0
1.0;1753881174.700657;16.912585;1.03;-1.7;0.03;-0.62733;-0.790253;-0.003523;0.0;0.0;0.0;0.0;0.0;0.0
1.0;1753881174.705245;16.903813;1.06;-1.79;0.07;-0.627538;-0.791681;-0.002148;0.0;0.0;0.0;0.0;0.0;0.0
1.0;1753881174.709833;16.923363;1.04;-1.69;0.02;-0.626839;-0.791326;-0.004052;0.0;0.0;0.0;0.0;0.0;0.0
1.0;1753881174.71442;16.925597;0.96;-1.73;0.1;-0.627666;-0.793018;-0.002642;0.0;0.0;0.0;0.0;0.0;0.0
1.0;1753881174.719008;16.91072;1.13;-1.67;0.1;-0.627005;-0.790566;-0.002299;0.0;0.0;0.0;0.0;0.0;0.0
1.0;1753881174.723596;16.942661;1.04;-1.75;0.09;-0.62747;-0.791294;-0.002876;0.0;0.0;0.0;0.0;0.0;0.0
1.0;1753881174.73182;16.929688;1.05;-1.75;0.07;-0.627446;-0.791414;-0.002928;0.0;0.0;0.0;0.0;0.0;0.0
1.0;1753881174.736408;16.908077;1.14;-1.84;0.43;-0.584754;-0.798066;0.00743;0.0;0.0;0.0;0.0;0.0;0.0
1.0;1753881174.74161;16.929688;1.19;-1.96;1.33;-0.569008;-0.804834;0.010736;0.0;0.0;0.0;0.0;0.0;0.0
1.0;1753881174.746198;16.949166;1.22;-1.64;0.83;-0.584946;-0.807505;0.003557;0.0;0.0;0.0;0.0;0.0;0.0
1.0;1753881174.750786;16.896182;1.25;-2.28;0.9;-0.570483;-0.801289;0.011892;0.0;0.0;0.0;0.0;0.0;0.0
1.0;1753881174.755374;16.911377;1.15;-2.35;1.66;-0.576246;-0.818249;0.013437;0.0;0.0;0.0;0.0;0.0;0.0
1.0;1753881174.759962;16.910967;1.24;-2.64;2.12;-0.599653;-0.828828;0.007199;0.0;0.0;0.0;0.0;0.0;0.0
1.0;1753881174.76455;16.951253;1.09;-2.83;4.61;-0.611018;-0.818552;0.004418;0.0;0.0;0.0;0.0;0.0;0.0
1.0;1753881174.769138;16.960647;1.15;-2.21;1.62;-0.597487;-0.819587;0.008003;0.0;0.0;0.0;0.0;0.0;0.0
1.0;1753881174.773725;16.87173;1.13;-2.65;2.23;-0.612539;-0.834272;-0.000428;0.0;0.0;0.0;0.0;0.0;0.0
1.0;1753881174.778313;16.949084;1.16;-2.5;3.01;-0.634844;-0.816275;-0.001122;0.0;0.0;0.0;0.0;0.0;0.0
1.0;1753881174.782901;16.91543;1.03;-2.66;2.14;-0.608088;-0.834197;-0.001781;0.0;0.0;0.0;0.0;0.0;0.0
1.0;1753881174.78792;16.929688;1.05;-2.94;3.78;-0.628422;-0.83082;-0.002318;0.0;0.0;0.0;0.0;0.0;0.0
1.0;1753881174.792508;16.877883;1.03;-3.13;4.98;-0.615673;-0.832782;0.000232;0.0;0.0;0.0;0.0;0.0;0.0
1.0;1753881174.797096;16.921217;1.06;-2.77;2.59;-0.624132;-0.821135;-0.00771;0.0;0.0;0.0;0.0;0.0;0.0
1.0;1753881174.801684;16.929308;1.02;-2.53;5.84;-0.648553;-0.820607;-0.004847;0.0;0.0;0.0;0.0;0.0;0.0
1.0;1753881174.806272;16.962192;0.93;-3.08;2.97;-0.631098;-0.843278;0.001508;0.0;0.0;0.0;0.0;0.0;0.0
1.0;1753881174.81086;16.884863;1.01;-2.91;4.15;-0.629604;-0.828966;-0.006754;0.0;0.0;0.0;0.0;0.0;0.0
1.0;1753881174.815447;16.880584;0.98;-2.61;4.04;-0.61324;-0.819943;-0.002451;0.0;0.0;0.0;0.0;0.0;0.0
1.0;1753881174.820035;16.925577;0.99;-2.8;3.09;-0.595184;-0.812247;-0.004583;0.0;0.0;0.0;0.0;0.0;0.0
1.0;1753881174.824623;16.931794;1.06;-2.42;1.94;-0.605023;-0.844908;-0.004581;0.0;0.0;0.0;0.0;0.0;0.0
1.0;1753881174.829211;16.896966;1.05;-3.48;4.56;-0.620061;-0.841475;0.002897;0.0;0.0;0.0;0.0;0.0;0.0
1.0;1753881174.833799;16.901797;1.05;-2.54;3.58;-0.613914;-0.812642;9.3e-05;0.0;0.0;0.0;0.0;0.0;0.0
1.0;1753881174.838387;16.910482;1.02;-2.64;4.07;-0.600124;-0.814109;-0.005831;0.0;0.0;0.0;0.0;0.0;0.0
1.0;1753881174.842975;16.923569;0.94;-2.82;2.43;-0.611153;-0.81821;-0.010511;0.0;0.0;0.0;0.0;0.0;0.0
1.0;1753881174.847562;16.917359;1.05;-2.49;2.15;-0.609087;-0.814675;-0.005447;0.0;0.0;0.0;0.0;0.0;0.0
1.0;1753881174.85215;16.892495;1.03;-3.07;0.66;-0.609732;-0.823109;-0.002772;0.0;0.0;0.0;0.0;0.0;0.0
1.0;1753881174.856738;16.879506;1.0;-2.29;1.82;-0.619604;-0.832627;-0.002921;0.0;0.0;0.0;0.0;0.0;0.0
1.0;1753881174.861326;16.870236;1.04;-2.82;2.81;-0.611292;-0.824024;-0.004924;0.0;0.0;0.0;0.0;0.0;0.0
1.0;1753881174.86671;16.875;0.98;-2.52;2.87;-0.608902;-0.816424;-0.003538;0.0;0.0;0.0;0.0;0.0;0.0
1.0;1753881174.871298;16.900607;0.32;-2.68;1.76;-0.597206;-0.813605;-0.006835;0.0;0.0;0.0;0.0;0.0;0.0
1.0;1753881174.87883;16.875;-0.42;-2.52;2.31;-0.560102;-0.824842;-0.012078;0.0;0.0;0.0;0.0;0.0;0.0
1.0;1753881174.883418;16.918711;-0.31;-3.19;2.15;-0.605575;-0.831845;-0.009375;0.0;0.0;0.0;0.0;0.0;0.0
1.0;1753881174.888006;16.804587;-0.25;-2.17;3.71;-0.529295;-0.829238;-0.009701;0.0;0.0;0.0;0.0;0.0;0.0
1.0;1753881174.892594;16.851253;-0.17;-2.3;3.07;-0.521087;-0.81507;-0.011917;0.0;0.0;0.0;0.0;0.0;0.0
1.0;1753881174.897182;16.871526;0.48;-2.43;3.09;-0.557435;-0.824987;-0.011293;0.0;0.0;0.0;0.0;0.0;0.0
1.0;1753881174.90177;16.888997;-0.21;-3.21;3.91;-0.524745;-0.838449;-0.007658;0.0;0.0;0.0;0.0;0.0;0.0
1.0;1753881174.906357;16.866035;0.37;-2.47;5.64;-0.515486;-0.809549;-0.002546;0.0;0.0;0.0;0.0;0.0;0.0
1.0;1753881174.910945;16.877293;0.66;-3.54;5.47;-0.59845;-0.815188;-0.010826;0.0;0.0;0.0;0.0;0.0;0.0
1.0;1753881174.915533;16.895804;0.93;-3.07;5.98;-0.488219;-0.825214;-0.001538;0.0;0.0;0.0;0.0;0.0;0.0
1.0;1753881174.920121;16.846555;0.81;-3.07;6.97;-0.503739;-0.818967;-0.011337;0.0;0.0;0.0;0.0;0.0;0.0
1.0;1753881174.92509;16.875;0.77;-3.29;5.81;-0.527772;-0.822402;0.001464;0.0;0.0;0.0;0.0;0.0;0.0
1.0;1753881174.929678;16.825343;1.38;-3.11;6.35;-0.57235;-0.824321;0.001605;0.0;0.0;0.0;0.0;0.0;0.0
1.0;1753881174.934266;16.888473;1.1;-3.5;6.46;-0.550251;-0.812221;-0.002054;0.0;0.0;0.0;0.0;0.0;0.0
1.0;1753881174.938854;16.83434;0.88;-4.68;10.51;-0.567717;-0.805747;-0.007977;0.0;0.0;0.0;0.0;0.0;0.0
1.0;1753881174.943442;16.927035;0.55;-3.51;0.92;-0.514261;-0.812069;-0.011826;0.0;0.0;0.0;0.0;0.0;0.0
1.0;1753881174.94803;16.883782;1.26;-3.99;8.01;-0.561762;-0.784581;-0.013778;0.0;0.0;0.0;0.0;0.0;0.0
1.0;1753881174.952618;16.858165;0.75;-4.01;9.55;-0.553087;-0.789341;-0.019404;0.0;0.0;0.0;0.0;0.0;0.0
1.0;1753881174.957205;16.830431;1.19;-3.75;9.88;-0.621093;-0.78841;-0.017439;0.0;0.0;0.0;0.0;0.0;0.0
1.0;1753881174.961793;16.852022;0.79;-3.36;12.29;-0.586763;-0.798889;-0.01066;0.0;0.0;0.0;0.0;0.0;0.0
1.0;1753881174.966381;16.885596;1.45;-4.79;8.72;-0.600126;-0.768052;-0.029108;0.0;0.0;0.0;0.0;0.0;0.0
1.0;1753881174.97074;16.875;1.26;-4.34;9.24;-0.6039;-0.791414;-0.021472;0.0;0.0;0.0;0.0;0.0;0.0
1.0;1753881174.974998;16.902344;2.73;-6.23;89.6;-0.57462;0.721508;0.13298;0.0;2.0;0.0;0.0;0.0;0.0
1.0;1753881174.97957;16.855469;3.29;-5.88;91.98;-0.836676;0.53802;0.06344;0.0;2.0;0.0;0.0;0.0;0.0
1.0;1753881174.984144;16.855469;0.7;-4.69;98.21;-0.774212;0.704916;0.123708;0.0;2.0;0.0;0.0;0.0;0.0
1.0;1753881174.988709;16.855469;-0.84;-5.46;101.99;-0.741272;0.663802;0.08662;0.0;2.0;0.0;0.0;0.0;0.0
1.0;1753881174.993332;16.855469;-0.91;-5.04;105.35;-0.673684;0.634278;0.138592;0.0;2.0;0.0;0.0;0.0;0.0
1.0;1753881174.997857;16.878906;-0.63;-3.5;110.11;-0.72041;0.636718;0.044774;0.0;2.0;0.0;0.0;0.0;0.0
1.0;1753881175.002445;16.902532;-0.83;-1.56;115.76;-0.658895;0.678917;0.100417;0.0;-83.4;-0.7;0.0;1.0;-3.1
1.0;1753881175.007033;16.860605;-1.32;-3.26;113.27;-0.695703;0.58624;0.038608;0.0;2.2;0.0;0.0;5.2;-3.3
1.0;1753881175.011621;16.909;-0.47;-3.5;110.37;-0.683762;0.668852;0.107251;0.0;126.3;1.9;0.0;-0.9;-8.5
1.0;1753881175.016209;16.896018;-0.64;-2.91;95.23;-0.840404;0.74092;-0.004712;0.0;95.6;-1.0;0.0;-7.3;-4.1
1.0;1753881175.020796;16.912139;0.95;-3.98;122.04;-0.692797;0.705275;0.054763;0.0;-124.9;1.4;0.0;-11.8;2.5
1.0;1753881175.025384;16.891321;-1.05;-3.47;121.91;-0.684345;0.690419;0.060035;0.0;55.9;-1.4;0.0;-0.2;-3.6
1.0;1753881175.029972;16.870804;-1.58;-1.95;110.13;-0.686074;0.663717;-0.009975;0.0;114.0;3.0;0.0;-7.4;2.5
1.0;1753881175.03456;16.849755;-0.4;-4.04;120.57;-0.71133;0.728568;-0.007687;0.0;80.9;-2.1;0.0;-7.0;-1.3
1.0;1753881175.039148;16.859207;0.01;-1.61;109.08;-0.707035;0.570671;0.061298;0.0;5.7;-1.9;0.0;-5.8;-7.5
1.0;1753881175.043736;16.896456;-2.04;-1.96;112.21;-0.569501;0.660677;0.038091;0.0;-58.5;0.1;0.0;1.4;2.5
1.0;1753881175.048324;16.882226;-1.58;-1.24;107.99;-0.772752;0.563276;0.081631;0.0;37.1;1.2;0.0;-1.3;-1.1
1.0;1753881175.052912;16.805734;-0.06;-4.83;117.14;-0.637947;0.643218;0.063107;0.0;-70.6;1.1;0.0;-2.2;-1.0
1.0;1753881175.0575;16.824057;0.08;-5.11;112.45;-0.720138;0.608689;0.09443;0.0;46.9;-1.1;0.0;-5.2;-3.8
1.0;1753881175.062088;16.883038;0.84;-2.65;108.66;-0.752214;0.615013;0.07392;0.0;-48.2;-0.0;0.0;3.6;4.4
1.0;1753881175.066676;16.880247;-0.6;-1.71;115.79;-0.643137;0.603338;0.079685;0.0;-101.0;-0.2;0.0;-9.0;-0.8
1.0;1753881175.071263;16.859568;-0.95;-4.57;118.99;-0.700547;0.694946;0.034884;0.0;-4.6;-1.2;0.0;1.3;-1.9
1.0;1753881175.075851;16.894571;-0.15;-4.53;125.0;-0.772298;0.695677;0.001875;0.0;41.4;0.0;0.0;-2.1;1.2
1.0;1753881175.080439;16.944086;-0.05;-2.41;109.7;-0.64543;0.661393;0.103008;0.0;54.6;0.6;0.0;6.7;2.4
