DeviceID;Timestamp;Temperature;GyroX;GyroY;GyroZ;AccelX;AccelY;AccelZ;Dist1;Dist2;Dist3;Err1;Err2;Err3
2.0;1753881169.605197;17.90625;0.84;-1.75;-0.28;0.490318;-0.890112;0.025254;108.0;127.0;0.0;2.0;3.0;0.0
2.0;1753881169.60979;17.926345;0.28;-0.9;1.65;0.512015;-0.944874;0.032121;107.5;127.0;3.7;1.9;3.0;-0.1
2.0;1753881169.614068;17.945312;0.91;-1.68;-0.35;0.491172;-0.889868;0.02562;108.0;127.0;0.0;2.0;3.0;0.0
2.0;1753881169.614299;17.945312;0.91;-1.68;-0.28;0.492026;-0.888526;0.025742;108.0;127.0;0.0;2.0;3.0;0.0
2.0;1753881169.618965;17.945312;0.91;-1.75;-0.28;0.490928;-0.89121;0.027206;108.0;127.0;0.0;2.0;3.0;0.0
2.0;1753881169.624383;17.945312;0.84;-1.61;-0.35;0.490806;-0.889868;0.02379;108.0;127.0;0.0;2.0;3.0;0.0
2.0;1753881169.632494;17.941406;0.98;-1.61;-0.28;0.490074;-0.890234;0.02501;105.0;127.0;0.0;2.0;3.0;0.0
2.0;1753881169.637737;17.941406;0.84;-1.68;-0.28;0.490562;-0.889868;0.025376;105.0;127.0;0.0;2.0;3.0;0.0
2.0;1753881169.64179;17.941406;0.84;-1.68;-0.28;0.490562;-0.891454;0.026596;105.0;127.0;0.0;2.0;3.0;0.0
2.0;1753881169.646368;17.941406;0.84;-1.68;-0.35;0.491294;-0.890112;0.024888;105.0;127.0;0.0;2.0;3.0;0.0
2.0;1753881169.650938;17.933594;0.84;-1.68;-0.42;0.49044;-0.889258;0.025864;105.0;127.0;0.0;2.0;3.0;0.0
2.0;1753881169.655528;17.933594;0.84;-1.68;-0.28;0.490928;-0.88938;0.02379;105.0;127.0;0.0;2.0;3.0;0.0
2.0;1753881169.663963;17.933594;0.91;-1.68;-0.42;0.491538;-0.88999;0.024888;105.0;127.0;0.0;2.0;3.0;0.0
2.0;1753881169.664613;17.933594;0.84;-1.68;-0.35;0.490806;-0.889136;0.024888;105.0;127.0;0.0;2.0;3.0;0.0
2.0;1753881169.670626;17.933594;0.84;-1.68;-0.35;0.489708;-0.889502;0.02562;105.0;127.0;0.0;2.0;3.0;0.0
2.0;1753881169.673813;17.933594;0.91;-1.68;-0.35;0.492148;-0.888892;0.026352;105.0;127.0;0.0;2.0;3.0;0.0
2.0;1753881169.681835;17.933594;0.91;-1.54;-0.28;0.490196;-0.890234;0.024888;102.0;127.0;0.0;2.0;3.0;0.0
2.0;1753881169.682914;17.933594;0.91;-1.61;-0.42;0.490074;-0.890966;0.025864;102.0;127.0;0.0;2.0;3.0;0.0
2.0;1753881169.688487;17.933594;0.84;-1.54;-0.28;0.492636;-0.889014;0.024156;102.0;127.0;0.0;2.0;3.0;0.0
2.0;1753881169.692893;17.933594;0.84;-1.68;-0.28;0.489586;-0.890356;0.026474;102.0;127.0;0.0;2.0;3.0;0.0
2.0;1753881169.696944;17.933594;0.77;-1.68;-0.35;0.48922;-0.889258;0.025986;102.0;127.0;0.0;2.0;3.0;0.0
2.0;1753881169.701257;17.933594;0.91;-1.75;-0.35;0.49349;-0.890112;0.025498;102.0;127.0;0.0;2.0;3.0;0.0
2.0;1753881169.705839;17.972656;0.91;-1.61;-0.21;0.49044;-0.890478;0.026596;102.0;127.0;0.0;2.0;3.0;0.0
2.0;1753881169.713334;17.972656;0.91;-1.61;-0.35;0.48983;-0.88999;0.027328;102.0;127.0;0.0;2.0;3.0;0.0
2.0;1753881169.714872;17.972656;0.91;-1.68;-0.42;0.48983;-0.88999;0.027328;102.0;127.0;0.0;2.0;3.0;0.0
2.0;1753881169.72027;17.972656;0.91;-1.68;-0.35;0.491416;-0.891088;0.026108;102.0;127.0;0.0;2.0;3.0;0.0
2.0;1753881169.725801;17.941406;0.98;-1.68;-0.28;0.490074;-0.889746;0.026108;102.0;127.0;0.0;2.0;3.0;0.0
2.0;1753881169.731079;17.941406;0.91;-1.68;-0.35;0.49044;-0.889502;0.025864;105.0;127.0;0.0;2.0;3.0;0.0
2.0;1753881169.733246;17.941406;0.91;-1.68;-0.35;0.49044;-0.889014;0.026596;105.0;127.0;0.0;2.0;3.0;0.0
2.0;1753881169.739017;17.941406;0.98;-1.61;-0.28;0.489952;-0.88877;0.025498;105.0;127.0;0.0;2.0;3.0;0.0
2.0;1753881169.74232;17.957031;0.91;-1.68;-0.35;0.489952;-0.88877;0.025498;105.0;127.0;0.0;2.0;3.0;0.0
2.0;1753881169.7472;17.957031;0.84;-1.68;-0.28;0.492026;-0.890722;0.02684;105.0;127.0;0.0;2.0;3.0;0.0
2.0;1753881169.752117;17.957031;0.91;-1.68;-0.35;0.490928;-0.888526;0.025864;105.0;127.0;0.0;2.0;3.0;0.0
2.0;1753881169.756245;17.957031;0.91;-1.68;-0.35;0.490196;-0.890234;0.027328;105.0;127.0;0.0;2.0;3.0;0.0
2.0;1753881169.762821;17.925781;0.98;-1.68;-0.35;0.490318;-0.88877;0.024766;105.0;127.0;0.0;2.0;3.0;0.0
2.0;1753881169.765505;17.925781;0.84;-1.68;-0.35;0.491172;-0.889746;0.027084;105.0;127.0;0.0;2.0;3.0;0.0
2.0;1753881169.769866;17.925781;0.91;-1.68;-0.28;0.491782;-0.889258;0.02562;105.0;127.0;0.0;2.0;3.0;0.0
2.0;1753881169.778454;17.925781;0.91;-1.61;-0.28;0.490928;-0.890356;0.025986;102.0;127.0;0.0;2.0;3.0;0.0
2.0;1753881169.77967;17.933594;0.91;-1.61;-0.35;0.490562;-0.889624;0.02684;102.0;127.0;0.0;2.0;3.0;0.0
2.0;1753881169.784761;17.933594;0.91;-1.75;-0.28;0.493002;-0.891576;0.023912;102.0;127.0;0.0;2.0;3.0;0.0
2.0;1753881169.788889;17.933594;0.98;-1.61;-0.28;0.491538;-0.891088;0.026108;102.0;127.0;0.0;2.0;3.0;0.0
2.0;1753881169.793009;17.933594;0.91;-1.61;-0.28;0.490806;-0.890844;0.024156;102.0;127.0;0.0;2.0;3.0;0.0
2.0;1753881169.797316;17.921875;0.84;-1.61;-0.28;0.49227;-0.889624;0.026718;102.0;127.0;0.0;2.0;3.0;0.0
2.0;1753881169.801989;17.921875;0.77;-1.68;-0.35;0.490196;-0.889136;0.026108;102.0;127.0;0.0;2.0;3.0;0.0
2.0;1753881169.806582;17.906519;0.72;-1.66;-0.3;0.490622;-0.888142;0.025977;99.7;127.0;0.0;2.0;3.0;0.0
2.0;1753881169.810918;17.921875;0.84;-1.61;-0.28;0.490562;-0.890112;0.026474;102.0;127.0;0.0;2.0;3.0;0.0
2.0;1753881169.816131;17.910156;0.84;-1.68;-0.28;0.491294;-0.890112;0.0244;102.0;127.0;0.0;2.0;3.0;0.0
2.0;1753881169.820372;17.910156;0.91;-1.61;-0.35;0.49105;-0.889868;0.025742;102.0;127.0;0.0;2.0;3.0;0.0
2.0;1753881169.828314;17.910156;0.91;-1.68;-0.28;0.49166;-0.889624;0.026108;103.0;127.0;0.0;2.0;3.0;0.0
2.0;1753881169.82928;17.910156;0.98;-1.75;-0.28;0.491538;-0.890234;0.025986;103.0;127.0;0.0;2.0;3.0;0.0
2.0;1753881169.833892;17.9375;0.84;-1.61;-0.28;0.488976;-0.88938;0.027084;103.0;127.0;0.0;2.0;3.0;0.0
2.0;1753881169.838849;17.9375;0.84;-1.68;-0.28;0.490562;-0.889502;0.025376;103.0;127.0;0.0;2.0;3.0;0.0
2.0;1753881169.843052;17.9375;0.91;-1.61;-0.28;0.492026;-0.890844;0.024522;103.0;127.0;0.0;2.0;3.0;0.0
2.0;1753881169.847984;17.9375;0.98;-1.68;-0.35;0.48983;-0.889746;0.026474;103.0;127.0;0.0;2.0;3.0;0.0
2.0;1753881169.852103;17.898438;0.98;-1.75;-0.35;0.48983;-0.889746;0.026474;103.0;127.0;0.0;2.0;3.0;0.0
2.0;1753881169.860694;17.898438;0.91;-1.61;-0.35;0.49105;-0.889258;0.02379;103.0;127.0;0.0;2.0;3.0;0.0
2.0;1753881169.861295;17.898438;0.91;-1.68;-0.35;0.491904;-0.8906;0.027084;103.0;127.0;0.0;2.0;3.0;0.0
2.0;1753881169.866495;17.898438;0.84;-1.61;-0.28;0.490196;-0.889014;0.026108;103.0;127.0;0.0;2.0;3.0;0.0
2.0;1753881169.870512;17.960938;0.84;-1.68;-0.28;0.491294;-0.889258;0.025254;103.0;127.0;0.0;2.0;3.0;0.0
2.0;1753881169.877678;17.960938;0.91;-1.75;-0.28;0.490318;-0.890722;0.026108;105.0;127.0;0.0;2.0;3.0;0.0
2.0;1753881169.881381;17.960938;0.91;-1.75;-0.35;0.491904;-0.88999;0.026108;105.0;127.0;0.0;2.0;3.0;0.0
2.0;1753881169.884171;17.960938;0.91;-1.68;-0.28;0.492148;-0.889258;0.026962;105.0;127.0;0.0;2.0;3.0;0.0
2.0;1753881169.888988;17.941406;0.84;-1.61;-0.35;0.488976;-0.889502;0.025498;105.0;127.0;0.0;2.0;3.0;0.0
2.0;1753881169.893511;17.941406;0.91;-1.75;-0.42;0.491538;-0.890478;0.027084;105.0;127.0;0.0;2.0;3.0;0.0
2.0;1753881169.898365;17.941406;0.84;-1.68;-0.28;0.493002;-0.889502;0.024522;105.0;127.0;0.0;2.0;3.0;0.0
2.0;1753881169.902425;17.941406;0.84;-1.68;-0.28;0.493002;-0.889502;0.024522;105.0;127.0;0.0;2.0;3.0;0.0
2.0;1753881169.907018;17.962441;0.79;-1.75;-0.32;0.493371;-0.890127;0.024942;106.9;127.0;0.0;2.0;3.0;0.0
2.0;1753881169.911278;17.925781;0.84;-1.68;-0.28;0.49166;-0.889746;0.02623;105.0;127.0;0.0;2.0;3.0;0.0
2.0;1753881169.911612;17.925781;0.91;-1.68;-0.35;0.490806;-0.888892;0.026352;105.0;127.0;0.0;2.0;3.0;0.0
2.0;1753881169.916246;17.925781;0.91;-1.61;-0.35;0.490928;-0.889746;0.026108;105.0;127.0;0.0;2.0;3.0;0.0
2.0;1753881169.920839;17.873041;1.0;-1.61;-0.42;0.489755;-0.891044;0.027516;104.2;127.0;0.0;2.0;3.0;0.0
2.0;1753881169.925757;17.933594;0.98;-1.61;-0.28;0.490928;-0.890112;0.02562;103.0;127.0;0.0;2.0;3.0;0.0
2.0;1753881169.930155;17.933594;0.91;-1.61;-0.42;0.489586;-0.88938;0.025376;103.0;127.0;0.0;2.0;3.0;0.0
2.0;1753881169.934492;17.933594;0.91;-1.61;-0.28;0.490196;-0.890356;0.02562;103.0;127.0;0.0;2.0;3.0;0.0
2.0;1753881169.939114;17.933594;0.98;-1.75;-0.28;0.491172;-0.890966;0.025986;103.0;127.0;0.0;2.0;3.0;0.0
2.0;1753881169.943655;17.925781;0.98;-1.68;-0.28;0.490684;-0.889624;0.025376;103.0;127.0;0.0;2.0;3.0;0.0
2.0;1753881169.948229;17.925781;0.77;-1.68;-0.28;0.490806;-0.8906;0.025132;103.0;127.0;0.0;2.0;3.0;0.0
2.0;1753881169.953355;17.925781;0.91;-1.68;-0.28;0.490684;-0.888892;0.024888;103.0;127.0;0.0;2.0;3.0;0.0
2.0;1753881169.958381;17.925781;0.91;-1.61;-0.35;0.490684;-0.890234;0.026474;103.0;127.0;0.0;2.0;3.0;0.0
2.0;1753881169.961986;17.921875;0.91;-1.61;-0.28;0.492148;-0.88938;0.025254;103.0;127.0;0.0;2.0;3.0;0.0
2.0;1753881169.966557;17.921875;0.91;-1.61;-0.28;0.492758;-0.888404;0.02684;103.0;127.0;0.0;2.0;3.0;0.0
2.0;1753881169.974501;17.921875;0.91;-1.68;-0.35;0.490928;-0.889868;0.024766;104.0;127.0;0.0;2.0;3.0;0.0
2.0;1753881169.975657;17.921875;0.77;-1.61;-0.28;0.492026;-0.890844;0.026596;104.0;127.0;0.0;2.0;3.0;0.0
2.0;1753881169.980279;17.84375;0.84;-1.68;-0.28;0.49166;-0.889502;0.026718;104.0;127.0;0.0;2.0;3.0;0.0
2.0;1753881169.985061;17.84375;0.84;-1.82;-0.21;0.490074;-0.889014;0.024766;104.0;127.0;0.0;2.0;3.0;0.0
2.0;1753881169.989436;17.84375;0.91;-1.68;-0.35;0.490928;-0.890356;0.026718;104.0;127.0;0.0;2.0;3.0;0.0
2.0;1753881169.993994;17.84375;0.84;-1.68;-0.42;0.491538;-0.889624;0.024522;104.0;127.0;0.0;2.0;3.0;0.0
2.0;1753881169.998633;17.917969;0.91;-1.68;-0.28;0.490806;-0.889868;0.026962;104.0;127.0;0.0;2.0;3.0;0.0
2.0;1753881170.003226;17.870252;1.09;-1.68;-0.4;0.491123;-0.890503;0.027548;105.0;127.0;0.0;2.0;3.0;0.0
2.0;1753881170.007819;17.942492;0.92;-1.63;-0.33;0.489887;-0.889269;0.027216;103.1;127.0;0.0;2.0;3.0;0.0
2.0;1753881170.012412;17.941927;0.91;-1.75;-0.26;0.491303;-0.889917;0.028892;103.5;127.0;0.0;2.0;3.0;0.0
2.0;1753881170.017006;17.96643;0.92;-1.77;-0.24;0.491891;-0.890395;0.027527;103.9;127.0;0.0;2.0;3.0;0.0
2.0;1753881170.021598;17.882435;0.88;-1.7;-0.43;0.490061;-0.890675;0.027451;103.1;127.0;0.0;2.0;3.0;0.0
2.0;1753881170.026192;17.932287;0.84;-1.67;-0.31;0.49132;-0.890206;0.025943;103.2;127.0;0.0;2.0;3.0;0.0
2.0;1753881170.030785;17.893568;0.97;-1.65;-0.27;0.491326;-0.889743;0.026789;104.0;127.0;0.0;2.0;3.0;0.0
2.0;1753881170.035378;17.891651;0.94;-1.68;-0.23;0.490805;-0.889748;0.027299;103.0;127.0;0.0;2.0;3.0;0.0
2.0;1753881170.039971;17.928826;0.91;-1.67;-0.22;0.489787;-0.888759;0.026464;103.3;127.0;0.0;2.0;3.0;0.0
2.0;1753881170.044564;17.906484;0.88;-1.75;-0.31;0.491753;-0.889167;0.026962;104.0;127.0;0.0;2.0;3.0;0.0
2.0;1753881170.049158;17.884674;0.86;-1.67;-0.24;0.491932;-0.890227;0.026258;104.1;127.0;0.0;2.0;3.0;0.0
2.0;1753881170.05375;17.907331;0.9;-1.72;-0.31;0.489807;-0.889415;0.026307;104.6;127.0;0.0;2.0;3.0;0.0
2.0;1753881170.058344;17.925725;0.93;-1.67;-0.23;0.489881;-0.88924;0.026897;103.7;127.0;0.0;2.0;3.0;0.0
2.0;1753881170.062937;17.943907;0.88;-1.67;-0.37;0.490463;-0.891372;0.02687;103.3;127.0;0.0;2.0;3.0;0.0
2.0;1753881170.06753;17.934729;1.09;-1.78;-0.25;0.489596;-0.891275;0.028003;103.8;127.0;0.0;2.0;3.0;0.0
2.0;1753881170.072123;17.932005;0.88;-1.78;-0.24;0.491138;-0.88968;0.027938;103.1;127.0;0.0;2.0;3.0;0.0
2.0;1753881170.076716;17.919149;0.88;-1.6;-0.35;0.490937;-0.889721;0.026026;104.0;127.0;0.0;2.0;3.0;0.0
2.0;1753881170.081309;17.864298;0.97;-1.7;-0.23;0.490865;-0.888875;0.026305;104.8;127.0;0.0;2.0;3.0;0.0
2.0;1753881170.085902;17.888288;0.87;-1.79;-0.22;0.490092;-0.891181;0.027287;104.0;127.0;0.0;2.0;3.0;0.0
2.0;1753881170.090496;17.967982;0.92;-1.82;-0.32;0.491098;-0.890367;0.025547;104.9;127.0;0.0;2.0;3.0;0.0
2.0;1753881170.095089;17.951825;0.92;-1.63;-0.2;0.49222;-0.889114;0.026357;103.6;127.0;0.0;2.0;3.0;0.0
2.0;1753881170.099682;17.925003;0.97;-1.71;-0.19;0.489483;-0.889107;0.02663;103.7;127.0;0.0;2.0;3.0;0.0
2.0;1753881170.104275;17.911237;0.88;-1.7;-0.3;0.492742;-0.888791;0.02764;104.4;127.0;0.0;2.0;3.0;0.0
2.0;1753881170.108868;17.955362;0.94;-1.64;-0.26;0.490448;-0.888941;0.026694;104.1;127.0;0.0;2.0;3.0;0.0
2.0;1753881170.113461;17.959364;1.02;-1.72;-0.3;0.490532;-0.889298;0.026734;104.3;127.0;0.0;2.0;3.0;0.0
2.0;1753881170.118054;17.915504;0.89;-1.74;-0.21;0.490708;-0.889982;0.026233;102.8;127.0;0.0;2.0;3.0;0.0
2.0;1753881170.122648;17.941728;0.92;-1.7;-0.29;0.49133;-0.890449;0.027367;105.9;127.0;0.0;2.0;3.0;0.0
2.0;1753881170.127241;17.914918;0.84;-1.7;-0.24;0.490182;-0.88894;0.026916;104.2;127.0;0.0;2.0;3.0;0.0
2.0;1753881170.131834;17.95379;0.98;-1.68;-0.18;0.491379;-0.889435;0.026075;102.8;127.0;0.0;2.0;3.0;0.0
2.0;1753881170.136427;17.922617;0.9;-1.69;-0.23;0.490833;-0.890289;0.028687;104.3;127.0;0.0;2.0;3.0;0.0
2.0;1753881170.14102;18.030526;0.9;-1.69;-0.27;0.491171;-0.890719;0.02611;104.0;127.0;0.0;2.0;3.0;0.0
2.0;1753881170.145613;17.886946;0.89;-1.71;-0.3;0.490971;-0.890055;0.027067;103.7;127.0;0.0;2.0;3.0;0.0
2.0;1753881170.150206;17.932445;0.93;-1.66;-0.25;0.490641;-0.890507;0.025663;104.3;127.0;0.0;2.0;3.0;0.0
2.0;1753881170.1548;17.920145;0.84;-1.64;-0.31;0.490427;-0.89064;0.025966;104.4;127.0;0.0;2.0;3.0;0.0
2.0;1753881170.159392;17.873956;0.97;-1.63;-0.08;0.491456;-0.889439;0.027063;104.2;127.0;0.0;2.0;3.0;0.0
2.0;1753881170.163986;17.941062;0.96;-1.65;-0.24;0.491385;-0.888937;0.02679;104.1;127.0;0.0;2.0;3.0;0.0
2.0;1753881170.168579;17.910293;0.88;-1.62;-0.27;0.490647;-0.890081;0.025067;104.2;127.0;0.0;2.0;3.0;0.0
2.0;1753881170.173172;17.861833;0.84;-1.62;-0.2;0.491914;-0.889915;0.026598;104.3;127.0;0.0;2.0;3.0;0.0
2.0;1753881170.177765;17.926443;1.0;-1.75;-0.3;0.490692;-0.889484;0.026464;104.7;127.0;0.0;2.0;3.0;0.0
2.0;1753881170.182358;17.939907;0.91;-1.72;-0.25;0.490873;-0.88984;0.027064;104.6;127.0;0.0;2.0;3.0;0.0
2.0;1753881170.186952;17.882454;0.93;-1.76;-0.23;0.490075;-0.889507;0.02767;104.2;127.0;0.0;2.0;3.0;0.0
2.0;1753881170.191544;17.941954;0.96;-1.62;-0.22;0.4907;-0.888248;0.026558;103.0;127.0;0.0;2.0;3.0;0.0
2.0;1753881170.196138;17.939315;0.98;-1.65;-0.33;0.490843;-0.889051;0.029029;105.0;127.0;0.0;2.0;3.0;0.0
2.0;1753881170.200731;17.87238;0.92;-1.78;-0.4;0.491762;-0.890072;0.026917;104.3;127.0;0.0;2.0;3.0;0.0
2.0;1753881170.205324;17.900409;0.83;-1.71;-0.22;0.490654;-0.88965;0.027265;103.7;127.0;0.0;2.0;3.0;0.0
2.0;1753881170.209917;17.880112;0.97;-1.67;-0.26;0.49058;-0.889641;0.027657;103.7;127.0;0.0;2.0;3.0;0.0
2.0;1753881170.21451;17.941749;0.99;-1.73;-0.28;0.491488;-0.889586;0.027598;105.2;127.0;0.0;2.0;3.0;0.0
2.0;1753881170.219103;17.911352;0.94;-1.76;-0.25;0.491349;-0.890846;0.02622;104.0;127.0;0.0;2.0;3.0;0.0
2.0;1753881170.223696;17.918284;0.96;-1.72;-0.27;0.49025;-0.888656;0.028093;104.2;127.0;0.0;2.0;3.0;0.0
2.0;1753881170.22829;17.940965;0.92;-1.65;-0.36;0.491737;-0.890528;0.027385;103.7;127.0;0.0;2.0;3.0;0.0
2.0;1753881170.232883;17.950017;0.9;-1.7;-0.2;0.49119;-0.890097;0.025164;104.5;127.0;0.0;2.0;3.0;0.0
2.0;1753881170.237476;17.852938;0.95;-1.71;-0.28;0.490221;-0.889285;0.027878;104.4;127.0;0.0;2.0;3.0;0.0
2.0;1753881170.242069;17.890177;1.0;-1.67;-0.16;0.493153;-0.888295;0.026544;103.7;127.0;0.0;2.0;3.0;0.0
2.0;1753881170.246662;17.965482;0.86;-1.65;-0.27;0.490982;-0.890059;0.028049;103.8;127.0;0.0;2.0;3.0;0.0
2.0;1753881170.251255;17.904912;0.91;-1.71;-0.29;0.492667;-0.889241;0.026807;103.4;127.0;0.0;2.0;3.0;0.0
2.0;1753881170.255848;17.85598;0.99;-1.7;-0.36;0.491603;-0.889308;0.026187;103.3;127.0;0.0;2.0;3.0;0.0
2.0;1753881170.260442;17.913729;1.02;-1.54;-0.28;0.491684;-0.890316;0.027578;104.2;127.0;0.0;2.0;3.0;0.0
2.0;1753881170.265035;17.917758;0.93;-1.64;-0.23;0.491848;-0.889669;0.026804;103.3;127.0;0.0;2.0;3.0;0.0
2.0;1753881170.269628;17.938827;0.95;-1.73;-0.2;0.49012;-0.888719;0.027492;104.1;127.0;0.0;2.0;3.0;0.0
2.0;1753881170.274221;17.962761;0.96;-1.71;-0.24;0.490607;-0.889478;0.028382;104.6;127.0;0.0;2.0;3.0;0.0
2.0;1753881170.278814;17.936397;0.94;-1.63;-0.29;0.490212;-0.889385;0.026591;104.5;127.0;0.0;2.0;3.0;0.0
2.0;1753881170.283407;17.918989;0.93;-1.57;-0.17;0.491556;-0.889891;0.025601;103.9;127.0;0.0;2.0;3.0;0.0
2.0;1753881170.288;17.908155;1.0;-1.7;-0.28;0.489902;-0.888678;0.025853;102.9;127.0;0.0;2.0;3.0;0.0
2.0;1753881170.292594;17.958437;1.02;-1.7;-0.24;0.491059;-0.890706;0.027541;104.5;127.0;0.0;2.0;3.0;0.0
2.0;1753881170.297186;17.850718;1.06;-1.6;-0.23;0.490239;-0.889489;0.027771;103.4;127.0;0.0;2.0;3.0;0.0
2.0;1753881170.30178;17.929215;0.99;-1.53;-0.16;0.491796;-0.889681;0.026662;103.3;127.0;0.0;2.0;3.0;0.0
2.0;1753881170.306373;17.978738;0.89;-1.68;-0.26;0.491539;-0.889379;0.026039;103.8;127.0;0.0;2.0;3.0;0.0
2.0;1753881170.310966;17.931693;0.93;-1.76;-0.26;0.491183;-0.889285;0.027712;102.8;127.0;0.0;2.0;3.0;0.0
2.0;1753881170.315559;17.957943;0.88;-1.69;-0.22;0.491086;-0.889914;0.028489;104.5;127.0;0.0;2.0;3.0;0.0
2.0;1753881170.320152;17.967973;0.87;-1.74;-0.23;0.490616;-0.888727;0.025896;105.2;127.0;0.0;2.0;3.0;0.0
2.0;1753881170.324746;17.887518;0.96;-1.62;-0.23;0.490719;-0.889759;0.027198;102.8;127.0;0.0;2.0;3.0;0.0
2.0;1753881170.329338;18.00138;1.02;-1.66;-0.22;0.491133;-0.891016;0.028058;104.4;127.0;0.0;2.0;3.0;0.0
2.0;1753881170.333932;17.91044;0.97;-1.65;-0.25;0.492406;-0.891219;0.0277;104.9;127.0;0.0;2.0;3.0;0.0
2.0;1753881170.338525;17.926998;1.07;-1.65;-0.15;0.49016;-0.890748;0.027167;103.9;127.0;0.0;2.0;3.0;0.0
2.0;1753881170.343118;17.881997;0.96;-1.78;-0.33;0.490645;-0.890655;0.026854;103.3;127.0;0.0;2.0;3.0;0.0
2.0;1753881170.347711;17.922382;0.98;-1.7;-0.12;0.492117;-0.890336;0.026123;104.6;127.0;0.0;2.0;3.0;0.0
2.0;1753881170.352304;17.905576;0.86;-1.58;-0.25;0.491153;-0.888955;0.026735;105.1;127.0;0.0;2.0;3.0;0.0
2.0;1753881170.356897;17.932805;1.03;-1.63;-0.19;0.49033;-0.888666;0.027123;103.6;127.0;0.0;2.0;3.0;0.0
2.0;1753881170.36149;17.957755;0.94;-1.74;-0.17;0.490969;-0.889511;0.028352;104.6;127.0;0.0;2.0;3.0;0.0
2.0;1753881170.366084;17.881131;1.03;-1.61;-0.27;0.491638;-0.88974;0.026707;103.4;127.0;0.0;2.0;3.0;0.0
2.0;1753881170.370677;17.883986;1.01;-1.69;-0.29;0.490276;-0.889615;0.02706;103.1;127.0;0.0;2.0;3.0;0.0
2.0;1753881170.37527;17.92195;1.04;-1.74;-0.37;0.492271;-0.890409;0.026997;103.5;127.0;0.0;2.0;3.0;0.0
2.0;1753881170.379863;17.965904;0.89;-1.62;-0.14;0.490672;-0.889147;0.026412;105.3;127.0;0.0;2.0;3.0;0.0
2.0;1753881170.384456;17.968543;0.97;-1.66;-0.24;0.490561;-0.889544;0.026737;104.5;127.0;0.0;2.0;3.0;0.0
2.0;1753881170.389049;17.890793;0.99;-1.72;-0.26;0.490985;-0.890396;0.027224;103.1;127.0;0.0;2.0;3.0;0.0
2.0;1753881170.393642;17.960994;1.02;-1.71;-0.3;0.490934;-0.890402;0.027343;104.1;127.0;0.0;2.0;3.0;0.0
2.0;1753881170.398236;17.988161;0.92;-1.7;-0.25;0.489872;-0.89101;0.0263;104.1;127.0;0.0;2.0;3.0;0.0
2.0;1753881170.402829;17.803736;0.94;-1.63;-0.3;0.49183;-0.88933;0.026754;104.3;127.0;0.0;2.0;3.0;0.0
2.0;1753881170.407422;17.910097;0.93;-1.8;-0.25;0.490675;-0.890312;0.028174;103.5;127.0;0.0;2.0;3.0;0.0
2.0;1753881170.412015;17.832194;0.9;-1.62;-0.17;0.491528;-0.890134;0.027231;104.6;127.0;0.0;2.0;3.0;0.0
2.0;1753881170.416608;17.928228;0.92;-1.73;-0.15;0.490497;-0.890635;0.027614;105.4;127.0;0.0;2.0;3.0;0.0
2.0;1753881170.421201;17.94906;0.88;-1.63;-0.21;0.490906;-0.889732;0.027057;103.7;127.0;0.0;2.0;3.0;0.0
2.0;1753881170.425794;17.901852;1.02;-1.69;-0.2;0.491283;-0.890176;0.028613;105.5;127.0;0.0;2.0;3.0;0.0
2.0;1753881170.4303;17.917969;0.98;-1.68;-0.21;0.490806;-0.889868;0.026962;104.0;127.0;0.0;2.0;3.0;0.0
2.0;1753881170.434893;17.9992;1.05;-1.56;-0.2;0.490261;-0.889435;0.027939;104.0;127.0;0.0;2.0;3.0;0.0
2.0;1753881170.439486;17.901611;0.91;-1.7;-0.16;0.490841;-0.890853;0.02866;104.6;127.0;0.0;2.0;3.0;0.0
2.0;1753881170.44408;17.909968;0.97;-1.69;-0.21;0.490576;-0.889144;0.027526;103.2;127.0;0.0;2.0;3.0;0.0
2.0;1753881170.448672;17.907787;0.97;-1.65;-0.19;0.491371;-0.890781;0.026081;104.6;127.0;0.0;2.0;3.0;0.0
2.0;1753881170.453266;17.866208;0.91;-1.82;-0.25;0.490158;-0.888969;0.025335;104.1;127.0;0.0;2.0;3.0;0.0
2.0;1753881170.457859;17.892795;0.89;-1.71;-0.29;0.492135;-0.89038;0.025004;104.1;127.0;0.0;2.0;3.0;0.0
2.0;1753881170.462452;17.935189;0.94;-1.64;-0.26;0.490191;-0.888874;0.027637;105.0;127.0;0.0;2.0;3.0;0.0
2.0;1753881170.467045;17.942714;0.87;-1.61;-0.18;0.490619;-0.889575;0.026914;103.4;127.0;0.0;2.0;3.0;0.0
2.0;1753881170.471638;17.901831;0.91;-1.73;-0.14;0.491376;-0.890235;0.027039;104.5;127.0;0.0;2.0;3.0;0.0
2.0;1753881170.476231;17.932749;0.94;-1.62;-0.28;0.492459;-0.890471;0.026936;103.7;127.0;0.0;2.0;3.0;0.0
2.0;1753881170.480824;17.916097;0.91;-1.68;-0.17;0.491684;-0.889515;0.028345;103.1;127.0;0.0;2.0;3.0;0.0
2.0;1753881170.485418;17.928586;0.99;-1.7;-0.15;0.489767;-0.88984;0.027504;105.1;127.0;0.0;2.0;3.0;0.0
2.0;1753881170.490011;17.979308;0.97;-1.72;-0.21;0.490783;-0.889585;0.026577;104.6;127.0;0.0;2.0;3.0;0.0
2.0;1753881170.494604;17.915228;1.08;-1.6;-0.22;0.491337;-0.888592;0.02741;104.3;127.0;0.0;2.0;3.0;0.0
2.0;1753881170.499197;17.959238;1.06;-1.67;-0.24;0.49157;-0.89016;0.027464;103.8;127.0;0.0;2.0;3.0;0.0
2.0;1753881170.50379;17.903754;1.03;-1.63;-0.21;0.490529;-0.889213;0.026378;104.2;127.0;0.0;2.0;3.0;0.0
2.0;1753881170.508383;17.913907;1.03;-1.65;-0.23;0.49116;-0.88875;0.027552;104.2;127.0;0.0;2.0;3.0;0.0
2.0;1753881170.512976;17.858611;0.99;-1.68;-0.24;0.491145;-0.890317;0.026206;103.8;127.0;0.0;2.0;3.0;0.0
2.0;1753881170.51757;17.897898;0.97;-1.6;-0.3;0.490829;-0.889552;0.027346;104.6;127.0;0.0;2.0;3.0;0.0
2.0;1753881170.522163;17.92363;0.95;-1.72;-0.22;0.490242;-0.890096;0.02692;104.3;127.0;0.0;2.0;3.0;0.0
2.0;1753881170.526756;17.97742;1.15;-1.69;-0.22;0.491298;-0.890332;0.028718;103.8;127.0;0.0;2.0;3.0;0.0
2.0;1753881170.531349;17.911249;0.9;-1.62;-0.25;0.490975;-0.88879;0.027137;104.2;127.0;0.0;2.0;3.0;0.0
2.0;1753881170.535942;17.935044;1.01;-1.66;-0.22;0.48991;-0.889672;0.025175;105.3;127.0;0.0;2.0;3.0;0.0
2.0;1753881170.540535;17.96049;0.99;-1.6;-0.27;0.49156;-0.889643;0.026168;103.7;127.0;0.0;2.0;3.0;0.0
2.0;1753881170.545128;17.949337;1.0;-1.68;-0.33;0.491416;-0.888825;0.025696;104.2;127.0;0.0;2.0;3.0;0.0
2.0;1753881170.549722;17.886994;0.98;-1.63;-0.17;0.49166;-0.888833;0.025257;103.0;127.0;0.0;2.0;3.0;0.0
2.0;1753881170.554314;17.913995;0.98;-1.66;-0.26;0.490794;-0.888933;0.025727;103.4;127.0;0.0;2.0;3.0;0.0
2.0;1753881170.558908;17.910685;1.0;-1.62;-0.27;0.491444;-0.889726;0.026326;104.2;127.0;0.0;2.0;3.0;0.0
2.0;1753881170.563501;18.003044;1.02;-1.66;-0.3;0.490465;-0.890553;0.027665;103.3;127.0;0.0;2.0;3.0;0.0
2.0;1753881170.568094;17.909929;1.01;-1.65;-0.3;0.490632;-0.889031;0.026405;105.1;127.0;0.0;2.0;3.0;0.0
2.0;1753881170.572687;17.931924;0.97;-1.62;-0.25;0.490356;-0.889099;0.027006;103.9;127.0;0.0;2.0;3.0;0.0
2.0;1753881170.57728;17.957895;0.91;-1.72;-0.19;0.491669;-0.890488;0.025569;103.4;127.0;0.0;2.0;3.0;0.0
2.0;1753881170.581874;17.87985;0.97;-1.55;-0.21;0.493211;-0.889501;0.027105;104.7;127.0;0.0;2.0;3.0;0.0
2.0;1753881170.586466;17.881343;0.94;-1.69;-0.22;0.489601;-0.889994;0.026913;103.2;127.0;0.0;2.0;3.0;0.0
2.0;1753881170.59106;17.916004;0.93;-1.64;-0.22;0.491339;-0.889868;0.025598;103.8;127.0;0.0;2.0;3.0;0.0
2.0;1753881170.595653;17.823864;1.02;-1.7;-0.31;0.490594;-0.890558;0.027387;104.8;127.0;0.0;2.0;3.0;0.0
2.0;1753881170.600246;17.914803;0.96;-1.75;-0.28;0.490881;-0.889697;0.025068;104.5;127.0;0.0;2.0;3.0;0.0
2.0;1753881170.604839;17.946981;0.91;-1.69;-0.24;0.49071;-0.889242;0.026251;102.8;127.0;0.0;2.0;3.0;0.0
2.0;1753881170.609432;17.993927;1.01;-1.56;-0.28;0.491138;-0.887452;0.026481;104.1;127.0;0.0;2.0;3.0;0.0
2.0;1753881170.614025;17.875973;0.99;-1.68;-0.27;0.491438;-0.889615;0.024902;104.0;127.0;0.0;2.0;3.0;0.0
2.0;1753881170.618618;17.963469;0.94;-1.64;-0.19;0.4914;-0.889922;0.027825;103.7;127.0;0.0;2.0;3.0;0.0
2.0;1753881170.623212;17.944392;1.0;-1.71;-0.27;0.4903;-0.888216;0.025974;104.3;127.0;0.0;2.0;3.0;0.0
2.0;1753881170.627805;17.932456;0.99;-1.57;-0.31;0.490839;-0.88898;0.027761;103.5;127.0;0.0;2.0;3.0;0.0
2.0;1753881170.632398;17.899057;1.15;-1.69;-0.25;0.490908;-0.889341;0.026072;104.2;127.0;0.0;2.0;3.0;0.0
2.0;1753881170.636991;17.966643;0.99;-1.62;-0.33;0.490684;-0.889515;0.027577;104.4;127.0;0.0;2.0;3.0;0.0
2.0;1753881170.641584;17.877243;0.9;-1.59;-0.43;0.492024;-0.888966;0.027026;103.5;127.0;0.0;2.0;3.0;0.0
2.0;1753881170.646177;17.918476;1.03;-1.59;-0.27;0.489524;-0.890704;0.025437;103.9;127.0;0.0;2.0;3.0;0.0
2.0;1753881170.65077;17.923851;0.93;-1.63;-0.26;0.491302;-0.889291;0.027995;103.2;127.0;0.0;2.0;3.0;0.0
2.0;1753881170.655364;17.934567;1.1;-1.54;-0.34;0.491342;-0.888985;0.024625;104.6;127.0;0.0;2.0;3.0;0.0
2.0;1753881170.659957;17.893186;0.89;-1.64;-0.25;0.491716;-0.889569;0.025907;105.0;127.0;0.0;2.0;3.0;0.0
2.0;1753881170.66455;17.930495;1.05;-1.67;-0.28;0.49052;-0.889085;0.025544;104.8;127.0;0.0;2.0;3.0;0.0
2.0;1753881170.669143;17.921477;0.98;-1.62;-0.19;0.491966;-0.890929;0.025233;104.7;127.0;0.0;2.0;3.0;0.0
2.0;1753881170.673736;17.892992;1.03;-1.61;-0.27;0.491502;-0.889637;0.026315;103.5;127.0;0.0;2.0;3.0;0.0
2.0;1753881170.678329;17.951812;0.99;-1.68;-0.28;0.490293;-0.888599;0.026402;103.6;127.0;0.0;2.0;3.0;0.0
2.0;1753881170.682922;17.875766;0.95;-1.65;-0.18;0.490581;-0.88883;0.026332;104.4;127.0;0.0;2.0;3.0;0.0
2.0;1753881170.687516;17.949106;0.89;-1.61;-0.28;0.492135;-0.888561;0.02571;103.6;127.0;0.0;2.0;3.0;0.0
2.0;1753881170.692109;17.955252;1.12;-1.59;-0.23;0.491853;-0.890279;0.025713;104.1;127.0;0.0;2.0;3.0;0.0
2.0;1753881170.696702;17.951912;0.9;-1.67;-0.3;0.491033;-0.889026;0.02617;103.4;127.0;0.0;2.0;3.0;0.0
2.0;1753881170.701295;17.917535;1.02;-1.75;-0.2;0.490659;-0.889572;0.025849;105.1;127.0;0.0;2.0;3.0;0.0
2.0;1753881170.705888;17.908116;1.05;-1.68;-0.32;0.491113;-0.889944;0.025457;103.5;127.0;0.0;2.0;3.0;0.0
2.0;1753881170.710481;17.896778;1.03;-1.64;-0.27;0.490661;-0.889579;0.025878;102.9;127.0;0.0;2.0;3.0;0.0
2.0;1753881170.715074;17.912115;1.06;-1.56;-0.27;0.489919;-0.888119;0.024809;104.6;127.0;0.0;2.0;3.0;0.0
2.0;1753881170.719668;17.895295;1.09;-1.64;-0.38;0.490826;-0.89067;0.02367;104.4;127.0;0.0;2.0;3.0;0.0
2.0;1753881170.72426;17.928067;0.94;-1.62;-0.34;0.491414;-0.888755;0.026121;104.4;127.0;0.0;2.0;3.0;0.0
2.0;1753881170.728854;17.922308;1.02;-1.63;-0.35;0.491515;-0.889246;0.025614;104.0;127.0;0.0;2.0;3.0;0.0
2.0;1753881170.733447;17.814025;0.95;-1.71;-0.38;0.48993;-0.889207;0.02601;104.2;127.0;0.0;2.0;3.0;0.0
2.0;1753881170.73804;17.968306;1.06;-1.67;-0.21;0.489813;-0.887681;0.025038;104.4;127.0;0.0;2.0;3.0;0.0
2.0;1753881170.742633;17.876893;0.95;-1.71;-0.26;0.490619;-0.889377;0.025139;103.8;127.0;0.0;2.0;3.0;0.0
2.0;1753881170.747226;17.955532;1.03;-1.66;-0.37;0.490931;-0.889903;0.026834;103.5;127.0;0.0;2.0;3.0;0.0
2.0;1753881170.751819;17.868845;1.02;-1.65;-0.27;0.490411;-0.888933;0.025393;104.0;127.0;0.0;2.0;3.0;0.0
2.0;1753881170.756412;17.938935;1.01;-1.63;-0.27;0.49138;-0.890106;0.02644;105.0;127.0;0.0;2.0;3.0;0.0
2.0;1753881170.761006;17.894501;1.08;-1.65;-0.33;0.489344;-0.889539;0.025687;104.5;127.0;0.0;2.0;3.0;0.0
2.0;1753881170.765599;17.885219;1.05;-1.62;-0.3;0.490655;-0.889626;0.026277;104.6;127.0;0.0;2.0;3.0;0.0
2.0;1753881170.770192;17.923845;1.02;-1.66;-0.24;0.489702;-0.888737;0.025388;103.2;127.0;0.0;2.0;3.0;0.0
2.0;1753881170.774785;17.904292;0.95;-1.58;-0.29;0.490652;-0.888979;0.025728;103.8;127.0;0.0;2.0;3.0;0.0
2.0;1753881170.779378;17.908885;1.0;-1.6;-0.27;0.490477;-0.888959;0.025406;104.3;127.0;0.0;2.0;3.0;0.0
2.0;1753881170.783971;17.922623;0.94;-1.63;-0.22;0.492008;-0.889769;0.024862;103.7;127.0;0.0;2.0;3.0;0.0
2.0;1753881170.788564;17.872313;0.94;-1.63;-0.31;0.492611;-0.88889;0.023984;103.7;127.0;0.0;2.0;3.0;0.0
2.0;1753881170.793158;17.894157;0.88;-1.71;-0.26;0.491443;-0.889426;0.025543;104.2;127.0;0.0;2.0;3.0;0.0
2.0;1753881170.797751;17.945427;1.05;-1.63;-0.28;0.491102;-0.888592;0.026877;104.6;127.0;0.0;2.0;3.0;0.0
2.0;1753881170.802344;17.913171;1.01;-1.55;-0.42;0.490836;-0.889474;0.024876;103.9;127.0;0.0;2.0;3.0;0.0
2.0;1753881170.806937;17.915085;1.05;-1.66;-0.27;0.490355;-0.88898;0.025237;104.8;127.0;0.0;2.0;3.0;0.0
2.0;1753881170.81153;17.918759;0.94;-1.52;-0.24;0.490381;-0.888831;0.025393;104.6;127.0;0.0;2.0;3.0;0.0
2.0;1753881170.816123;17.889321;1.06;-1.62;-0.3;0.491979;-0.88837;0.024716;104.6;127.0;0.0;2.0;3.0;0.0
2.0;1753881170.820716;17.904521;1.06;-1.65;-0.31;0.489627;-0.889882;0.025314;103.0;127.0;0.0;2.0;3.0;0.0
2.0;1753881170.82531;17.967438;1.05;-1.56;-0.34;0.491415;-0.888413;0.024484;104.4;127.0;0.0;2.0;3.0;0.0
2.0;1753881170.829903;17.969054;1.07;-1.62;-0.42;0.490625;-0.888204;0.024789;104.3;127.0;0.0;2.0;3.0;0.0
2.0;1753881170.834496;17.959133;0.95;-1.62;-0.39;0.489495;-0.890137;0.026056;104.1;127.0;0.0;2.0;3.0;0.0
2.0;1753881170.839089;17.957283;0.91;-1.61;-0.38;0.49026;-0.88947;0.025343;104.9;127.0;0.0;2.0;3.0;0.0
2.0;1753881170.843682;17.887471;1.09;-1.74;-0.29;0.490698;-0.888304;0.02664;105.1;127.0;0.0;2.0;3.0;0.0
2.0;1753881170.848275;17.867298;0.95;-1.65;-0.44;0.491371;-0.889513;0.025555;103.9;127.0;0.0;2.0;3.0;0.0
2.0;1753881170.852868;17.894331;1.01;-1.58;-0.35;0.491892;-0.888927;0.025236;103.9;127.0;0.0;2.0;3.0;0.0
2.0;1753881170.857462;17.946672;0.97;-1.6;-0.31;0.490643;-0.888655;0.024773;102.8;127.0;0.0;2.0;3.0;0.0
2.0;1753881170.862054;17.865089;0.96;-1.67;-0.38;0.4911;-0.889036;0.024122;104.2;127.0;0.0;2.0;3.0;0.0
2.0;1753881170.866648;17.894148;1.02;-1.63;-0.34;0.491199;-0.889116;0.024872;103.5;127.0;0.0;2.0;3.0;0.0
2.0;1753881170.871241;17.938177;1.08;-1.73;-0.34;0.491654;-0.888756;0.024799;104.1;127.0;0.0;2.0;3.0;0.0
2.0;1753881170.875834;17.943173;0.91;-1.58;-0.39;0.492085;-0.888107;0.025372;103.8;127.0;0.0;2.0;3.0;0.0
2.0;1753881170.880427;17.934791;0.92;-1.57;-0.35;0.490356;-0.889226;0.024335;103.6;127.0;0.0;2.0;3.0;0.0
2.0;1753881170.88502;17.952496;0.93;-1.67;-0.25;0.491566;-0.888776;0.025431;103.3;127.0;0.0;2.0;3.0;0.0
2.0;1753881170.889614;17.902357;0.97;-1.68;-0.39;0.490833;-0.88971;0.024792;103.8;127.0;0.0;2.0;3.0;0.0
2.0;1753881170.894206;17.946687;1.06;-1.74;-0.29;0.490093;-0.888954;0.025046;104.6;127.0;0.0;2.0;3.0;0.0
2.0;1753881170.8988;17.947581;0.87;-1.67;-0.27;0.491458;-0.888603;0.026148;104.2;127.0;0.0;2.0;3.0;0.0
2.0;1753881170.903393;17.870614;1.01;-1.6;-0.4;0.489168;-0.889086;0.025012;104.3;127.0;0.0;2.0;3.0;0.0
2.0;1753881170.907986;17.932763;0.93;-1.7;-0.29;0.491503;-0.888684;0.023275;105.1;127.0;0.0;2.0;3.0;0.0
2.0;1753881170.912579;17.920454;0.94;-1.64;-0.27;0.491331;-0.88871;0.02533;104.7;127.0;0.0;2.0;3.0;0.0
2.0;1753881170.917;17.917969;0.98;-1.61;-0.35;0.490806;-0.888892;0.02501;104.0;127.0;0.0;2.0;3.0;0.0
2.0;1753881170.921593;17.901348;1.0;-1.66;-0.32;0.491989;-0.889137;0.025514;103.6;127.0;0.0;2.0;3.0;0.0
2.0;1753881170.926186;17.917354;0.95;-1.55;-0.36;0.489939;-0.888913;0.024815;104.2;127.0;0.0;2.0;3.0;0.0
2.0;1753881170.93078;17.903461;0.82;-1.59;-0.3;0.491007;-0.889379;0.024119;103.5;127.0;0.0;2.0;3.0;0.0
2.0;1753881170.935372;17.937658;0.94;-1.61;-0.26;0.491099;-0.890222;0.025858;103.0;127.0;0.0;2.0;3.0;0.0
2.0;1753881170.939966;17.893764;1.06;-1.64;-0.25;0.491903;-0.890374;0.026137;103.6;127.0;0.0;2.0;3.0;0.0
2.0;1753881170.944559;17.903478;0.99;-1.59;-0.21;0.491109;-0.889751;0.025648;103.0;127.0;0.0;2.0;3.0;0.0
2.0;1753881170.95245;17.890625;0.98;-1.61;-0.28;0.491904;-0.88999;0.026474;103.0;127.0;0.0;2.0;3.0;0.0
2.0;1753881170.957043;17.915064;1.09;-1.72;-0.21;0.491533;-0.89036;0.026409;103.1;127.0;0.0;2.0;3.0;0.0
2.0;1753881170.961636;17.874247;0.89;-1.6;-0.21;0.49036;-0.888869;0.026641;102.7;127.0;0.0;2.0;3.0;0.0
2.0;1753881170.96623;17.934258;0.98;-1.49;-0.34;0.49141;-0.89087;0.026636;103.2;127.0;0.0;2.0;3.0;0.0
2.0;1753881170.970822;17.900998;0.99;-1.66;-0.28;0.490888;-0.89042;0.02711;102.4;127.0;0.0;2.0;3.0;0.0
2.0;1753881170.975416;17.897073;0.84;-1.66;-0.37;0.491102;-0.88948;0.026009;103.6;127.0;0.0;2.0;3.0;0.0
2.0;1753881170.980009;17.910586;0.9;-1.61;-0.26;0.490867;-0.890138;0.0263;102.8;127.0;0.0;2.0;3.0;0.0
2.0;1753881170.984602;17.888684;0.92;-1.68;-0.31;0.490806;-0.890986;0.025952;103.0;127.0;0.0;2.0;3.0;0.0
2.0;1753881170.9931;17.890625;0.91;-1.61;-0.28;0.49166;-0.890478;0.02623;103.0;127.0;0.0;2.0;3.0;0.0
2.0;1753881170.993644;17.886719;0.91;-1.68;-0.28;0.492636;-0.888892;0.025864;101.0;127.0;0.0;2.0;3.0;0.0
2.0;1753881170.995672;17.886719;0.84;-1.75;-0.28;0.491538;-0.889258;0.025864;101.0;127.0;0.0;2.0;3.0;0.0
2.0;1753881171.000265;17.893728;0.81;-1.75;-0.26;0.490793;-0.890325;0.025633;100.8;127.0;0.0;2.0;3.0;0.0
2.0;1753881171.004858;17.828716;0.93;-1.72;-0.3;0.492509;-0.88907;0.02719;98.1;127.0;0.0;2.0;3.0;0.0
2.0;1753881171.009452;17.88371;0.81;-1.67;-0.24;0.49258;-0.889335;0.026529;103.5;127.0;0.0;2.0;3.0;0.0
2.0;1753881171.014044;17.908378;0.77;-1.79;-0.3;0.490857;-0.889656;0.025836;100.1;127.0;0.0;2.0;3.0;0.0
2.0;1753881171.018638;17.823728;0.82;-1.81;-0.33;0.490701;-0.888462;0.027228;99.6;127.0;0.0;2.0;3.0;0.0
2.0;1753881171.023231;17.852966;0.78;-1.79;-0.19;0.491176;-0.889329;0.025122;98.5;127.0;0.0;2.0;3.0;0.0
2.0;1753881171.027824;17.909225;0.78;-1.74;-0.27;0.49177;-0.889066;0.02498;102.7;127.0;0.0;2.0;3.0;0.0
2.0;1753881171.032417;17.842624;0.86;-1.76;-0.34;0.491593;-0.88952;0.025212;95.3;127.0;0.0;2.0;3.0;0.0
2.0;1753881171.03701;17.882624;0.77;-1.74;-0.31;0.492767;-0.887957;0.025076;102.4;127.0;0.0;2.0;3.0;0.0
2.0;1753881171.041603;17.890886;0.86;-1.7;-0.27;0.491659;-0.888298;0.024991;95.3;127.0;0.0;2.0;3.0;0.0
2.0;1753881171.046196;17.890033;0.84;-1.78;-0.36;0.492432;-0.889378;0.025279;101.2;127.0;0.0;2.0;3.0;0.0
2.0;1753881171.05079;17.889964;0.9;-1.69;-0.38;0.492463;-0.88894;0.026184;99.3;127.0;0.0;2.0;3.0;0.0
2.0;1753881171.055383;17.911801;0.79;-1.78;-0.22;0.492913;-0.889591;0.024859;101.1;127.0;0.0;2.0;3.0;0.0
2.0;1753881171.059976;17.895814;0.79;-1.69;-0.33;0.491411;-0.889252;0.025092;101.0;127.0;0.0;2.0;3.0;0.0
2.0;1753881171.064569;17.872766;0.91;-1.78;-0.18;0.491965;-0.889846;0.026107;100.6;127.0;0.0;2.0;3.0;0.0
2.0;1753881171.069162;17.859324;0.88;-1.74;-0.34;0.491259;-0.888574;0.026539;100.9;127.0;0.0;2.0;3.0;0.0
2.0;1753881171.073755;17.900262;0.8;-1.73;-0.26;0.493383;-0.889373;0.026831;99.6;127.0;0.0;2.0;3.0;0.0
2.0;1753881171.078348;17.936224;0.91;-1.69;-0.33;0.49192;-0.891333;0.026122;105.1;127.0;0.0;2.0;3.0;0.0
2.0;1753881171.082942;17.876313;0.74;-1.68;-0.26;0.491828;-0.889014;0.02481;99.6;127.0;0.0;2.0;3.0;0.0
2.0;1753881171.087535;17.882546;0.9;-1.7;-0.28;0.491878;-0.890268;0.024598;105.7;127.0;0.0;2.0;3.0;0.0
2.0;1753881171.092128;17.85491;0.91;-1.68;-0.28;0.493244;-0.889003;0.025729;101.9;127.0;0.0;2.0;3.0;0.0
2.0;1753881171.096721;17.872121;0.88;-1.72;-0.27;0.490982;-0.889676;0.026264;104.4;127.0;0.0;2.0;3.0;0.0
2.0;1753881171.101314;17.819767;0.92;-1.65;-0.31;0.491981;-0.888832;0.026195;109.2;127.0;0.0;2.0;3.0;0.0
2.0;1753881171.105907;17.858624;0.87;-1.63;-0.24;0.493289;-0.889351;0.026187;102.4;127.0;0.0;2.0;3.0;0.0
2.0;1753881171.1105;17.893828;0.86;-1.71;-0.22;0.49004;-0.888241;0.025318;106.3;127.0;0.0;2.0;3.0;0.0
2.0;1753881171.115094;17.85376;0.88;-1.64;-0.21;0.492267;-0.888499;0.024698;101.3;127.0;0.0;2.0;3.0;0.0
2.0;1753881171.119686;17.851413;0.9;-1.72;-0.34;0.49283;-0.888191;0.025434;102.2;127.0;0.0;2.0;3.0;0.0
2.0;1753881171.12428;17.88022;0.9;-1.68;-0.38;0.491846;-0.890279;0.025035;99.4;127.0;0.0;2.0;3.0;0.0
2.0;1753881171.128873;17.851598;0.71;-1.64;-0.37;0.491939;-0.88896;0.024544;102.2;127.0;0.0;2.0;3.0;0.0
2.0;1753881171.133466;17.869686;0.96;-1.71;-0.4;0.492859;-0.888322;0.026142;99.3;127.0;0.0;2.0;3.0;0.0
2.0;1753881171.138059;17.881622;0.83;-1.69;-0.33;0.492211;-0.889857;0.025945;104.7;127.0;0.0;2.0;3.0;0.0
2.0;1753881171.142652;17.856163;0.95;-1.62;-0.34;0.491755;-0.888968;0.026412;100.1;127.0;0.0;2.0;3.0;0.0
2.0;1753881171.147246;17.949274;0.95;-1.75;-0.34;0.492916;-0.889581;0.025842;101.2;127.0;0.0;2.0;3.0;0.0
2.0;1753881171.151838;17.87737;0.94;-1.67;-0.29;0.49322;-0.890551;0.025214;101.1;127.0;0.0;2.0;3.0;0.0
2.0;1753881171.156432;17.851308;0.95;-1.65;-0.33;0.490729;-0.889188;0.025075;107.0;127.0;0.0;2.0;3.0;0.0
2.0;1753881171.161025;17.937911;0.92;-1.74;-0.35;0.492085;-0.888918;0.025851;105.9;127.0;0.0;2.0;3.0;0.0
2.0;1753881171.165618;17.883882;0.85;-1.62;-0.31;0.49185;-0.888382;0.02706;105.3;127.0;0.0;2.0;3.0;0.0
2.0;1753881171.170211;17.934856;0.78;-1.65;-0.36;0.492652;-0.888445;0.026479;108.9;127.0;0.0;2.0;3.0;0.0
2.0;1753881171.174804;17.922975;0.99;-1.68;-0.32;0.493035;-0.888016;0.026099;103.8;127.0;0.0;2.0;3.0;0.0
2.0;1753881171.179397;17.950256;0.87;-1.63;-0.37;0.49285;-0.889905;0.025359;106.9;127.0;0.0;2.0;3.0;0.0
2.0;1753881171.18399;17.92763;0.92;-1.63;-0.26;0.494103;-0.888841;0.025187;106.6;127.0;0.0;2.0;3.0;0.0
2.0;1753881171.188584;17.85767;1.05;-1.68;-0.28;0.494114;-0.887442;0.024669;103.8;127.0;0.0;2.0;3.0;0.0
2.0;1753881171.193177;17.912313;0.83;-1.6;-0.41;0.492554;-0.890428;0.024166;106.6;127.0;0.0;2.0;3.0;0.0
2.0;1753881171.19777;17.868021;0.88;-1.62;-0.41;0.491995;-0.889147;0.026425;102.7;127.0;0.0;2.0;3.0;0.0
2.0;1753881171.202363;17.907063;0.98;-1.6;-0.25;0.492476;-0.888462;0.026458;102.2;127.0;0.0;2.0;3.0;0.0
2.0;1753881171.206956;17.881252;0.84;-1.71;-0.31;0.494798;-0.890005;0.025776;99.2;127.0;0.0;2.0;3.0;0.0
2.0;1753881171.211549;17.873211;0.93;-1.64;-0.28;0.493086;-0.888963;0.023554;105.1;127.0;0.0;2.0;3.0;0.0
2.0;1753881171.216142;17.854194;0.9;-1.64;-0.31;0.491559;-0.889875;0.026006;105.0;127.0;0.0;2.0;3.0;0.0
2.0;1753881171.220736;17.871124;0.88;-1.61;-0.34;0.493535;-0.889264;0.025546;99.7;127.0;0.0;2.0;3.0;0.0
2.0;1753881171.225329;17.851113;0.8;-1.62;-0.23;0.495489;-0.887701;0.026092;104.0;127.0;0.0;2.0;3.0;0.0
2.0;1753881171.229922;17.891035;0.99;-1.58;-0.32;0.492473;-0.888697;0.026071;104.6;127.0;0.0;2.0;3.0;0.0
2.0;1753881171.234515;17.829606;0.89;-1.66;-0.34;0.493283;-0.889464;0.02581;102.5;127.0;0.0;2.0;3.0;0.0
2.0;1753881171.239108;17.90648;0.95;-1.63;-0.38;0.492689;-0.888943;0.025055;113.6;127.0;0.0;2.0;3.0;0.0
2.0;1753881171.243701;17.860464;0.83;-1.53;-0.36;0.491431;-0.890199;0.026419;104.3;127.0;0.0;2.0;3.0;0.0
2.0;1753881171.248294;17.886089;1.03;-1.63;-0.31;0.493388;-0.888844;0.024018;103.0;127.0;0.0;2.0;3.0;0.0
2.0;1753881171.252888;17.879213;0.88;-1.61;-0.32;0.492455;-0.889217;0.025482;98.8;127.0;0.0;2.0;3.0;0.0
2.0;1753881171.25748;17.873747;0.88;-1.6;-0.36;0.493209;-0.888744;0.026208;97.2;127.0;0.0;2.0;3.0;0.0
2.0;1753881171.2639;17.886719;0.91;-1.61;-0.35;0.493002;-0.888892;0.02562;104.0;127.0;0.0;2.0;3.0;0.0
2.0;1753881171.268493;17.886527;0.9;-1.66;-0.36;0.494457;-0.888982;0.02527;103.9;127.0;0.0;2.0;3.0;0.0
2.0;1753881171.273086;17.821418;0.89;-1.57;-0.41;0.493676;-0.887866;0.026256;102.4;127.0;0.0;2.0;3.0;0.0
2.0;1753881171.27768;17.885741;0.9;-1.62;-0.31;0.493315;-0.889636;0.026016;105.3;127.0;0.0;2.0;3.0;0.0
2.0;1753881171.282272;17.900502;0.92;-1.6;-0.36;0.494383;-0.889461;0.024699;107.0;127.0;0.0;2.0;3.0;0.0
2.0;1753881171.286866;17.914917;0.91;-1.66;-0.21;0.49344;-0.888062;0.026145;108.4;127.0;0.0;2.0;3.0;0.0
2.0;1753881171.291459;17.883882;0.86;-1.62;-0.32;0.493933;-0.889646;0.025583;103.4;127.0;0.0;2.0;3.0;0.0
2.0;1753881171.296052;17.870462;0.91;-1.7;-0.4;0.49139;-0.888762;0.026369;102.8;127.0;0.0;2.0;3.0;0.0
2.0;1753881171.300645;17.906532;1.04;-1.66;-0.38;0.490698;-0.888571;0.025161;107.5;127.0;0.0;2.0;3.0;0.0
2.0;1753881171.305238;17.89225;0.84;-1.67;-0.31;0.492104;-0.888775;0.026084;97.1;127.0;0.0;2.0;3.0;0.0
2.0;1753881171.309832;17.89701;0.95;-1.65;-0.43;0.495182;-0.887873;0.025293;103.7;127.0;0.0;2.0;3.0;0.0
2.0;1753881171.314424;17.858868;0.98;-1.56;-0.35;0.492024;-0.889284;0.025916;107.6;127.0;0.0;2.0;3.0;0.0
2.0;1753881171.319018;17.94524;0.77;-1.56;-0.34;0.49184;-0.888999;0.025615;107.2;127.0;0.0;2.0;3.0;0.0
2.0;1753881171.323611;17.84433;0.82;-1.63;-0.36;0.493503;-0.888103;0.026061;106.2;127.0;0.0;2.0;3.0;0.0
2.0;1753881171.328204;17.875095;0.84;-1.58;-0.32;0.490158;-0.888794;0.026184;103.8;127.0;0.0;2.0;3.0;0.0
2.0;1753881171.332797;17.903661;0.87;-1.63;-0.33;0.492224;-0.888753;0.024553;103.8;127.0;0.0;2.0;3.0;0.0
2.0;1753881171.33739;17.932987;0.98;-1.66;-0.26;0.493418;-0.89009;0.024977;100.4;127.0;0.0;2.0;3.0;0.0
2.0;1753881171.341983;17.908767;0.91;-1.66;-0.31;0.49153;-0.888455;0.025328;99.1;127.0;0.0;2.0;3.0;0.0
2.0;1753881171.346576;17.936857;0.91;-1.61;-0.35;0.493004;-0.887775;0.025284;100.8;127.0;0.0;2.0;3.0;0.0
2.0;1753881171.35117;17.866542;0.97;-1.61;-0.29;0.492284;-0.889551;0.024914;101.4;127.0;0.0;2.0;3.0;0.0
2.0;1753881171.355763;17.873887;1.06;-1.61;-0.34;0.492736;-0.889469;0.02568;105.2;127.0;0.0;2.0;3.0;0.0
2.0;1753881171.360356;17.921589;0.97;-1.63;-0.29;0.492499;-0.88978;0.024757;101.8;127.0;0.0;2.0;3.0;0.0
2.0;1753881171.364949;17.870136;0.98;-1.6;-0.35;0.491169;-0.889638;0.025049;101.1;127.0;0.0;2.0;3.0;0.0
2.0;1753881171.369542;17.937665;0.94;-1.6;-0.29;0.493076;-0.888632;0.025542;104.5;127.0;0.0;2.0;3.0;0.0
2.0;1753881171.374135;17.856595;0.9;-1.68;-0.34;0.491365;-0.889362;0.026264;103.4;127.0;0.0;2.0;3.0;0.0
2.0;1753881171.378728;17.845247;0.96;-1.62;-0.33;0.491021;-0.888955;0.026573;98.6;127.0;0.0;2.0;3.0;0.0
2.0;1753881171.383322;17.90715;0.95;-1.6;-0.37;0.49162;-0.890035;0.024653;101.5;127.0;0.0;2.0;3.0;0.0
2.0;1753881171.387915;17.82233;0.88;-1.62;-0.43;0.491771;-0.888884;0.025683;105.3;127.0;0.0;2.0;3.0;0.0
2.0;1753881171.392508;17.909;0.81;-1.67;-0.28;0.49246;-0.888871;0.025284;106.3;127.0;0.0;2.0;3.0;0.0
2.0;1753881171.397101;17.835867;0.81;-1.69;-0.3;0.491293;-0.888634;0.024104;100.4;127.0;0.0;2.0;3.0;0.0
2.0;1753881171.401694;17.897587;1.01;-1.68;-0.29;0.491763;-0.889707;0.024819;105.4;127.0;0.0;2.0;3.0;0.0
2.0;1753881171.406287;17.877505;0.92;-1.64;-0.41;0.49117;-0.890002;0.024546;101.8;127.0;0.0;2.0;3.0;0.0
2.0;1753881171.41088;17.921713;1.05;-1.6;-0.31;0.490143;-0.889143;0.025639;102.1;127.0;0.0;2.0;3.0;0.0
2.0;1753881171.415474;17.934008;0.94;-1.71;-0.47;0.490971;-0.889828;0.024446;106.1;127.0;0.0;2.0;3.0;0.0
2.0;1753881171.420066;17.896157;0.88;-1.65;-0.33;0.492587;-0.889272;0.024238;103.1;127.0;0.0;2.0;3.0;0.0
2.0;1753881171.42466;17.912557;0.86;-1.63;-0.33;0.492016;-0.890006;0.025277;105.9;127.0;0.0;2.0;3.0;0.0
2.0;1753881171.429253;17.874605;1.01;-1.69;-0.29;0.491421;-0.888706;0.026022;102.7;127.0;0.0;2.0;3.0;0.0
2.0;1753881171.433846;17.872709;0.95;-1.74;-0.26;0.492769;-0.889401;0.024536;104.5;127.0;0.0;2.0;3.0;0.0
2.0;1753881171.438439;17.872711;1.06;-1.64;-0.38;0.491576;-0.888842;0.025628;103.2;127.0;0.0;2.0;3.0;0.0
2.0;1753881171.443032;17.926013;0.97;-1.67;-0.25;0.490104;-0.888357;0.025845;101.0;127.0;0.0;2.0;3.0;0.0
2.0;1753881171.447626;17.927538;0.88;-1.64;-0.3;0.490948;-0.888995;0.024978;110.0;127.0;0.0;2.0;3.0;0.0
2.0;1753881171.452218;17.894413;0.98;-1.62;-0.28;0.49129;-0.888771;0.025584;100.4;127.0;0.0;2.0;3.0;0.0
2.0;1753881171.456812;17.902617;0.9;-1.73;-0.32;0.490897;-0.888393;0.025617;103.7;127.0;0.0;2.0;3.0;0.0
2.0;1753881171.461405;17.916159;0.94;-1.68;-0.38;0.49126;-0.890168;0.026698;101.6;127.0;0.0;2.0;3.0;0.0
2.0;1753881171.465998;17.852308;0.85;-1.65;-0.31;0.492282;-0.887844;0.025206;101.0;127.0;0.0;2.0;3.0;0.0
2.0;1753881171.470591;17.884827;0.85;-1.68;-0.3;0.49191;-0.888886;0.02563;106.7;127.0;0.0;2.0;3.0;0.0
2.0;1753881171.475184;17.940904;0.84;-1.64;-0.31;0.490451;-0.890923;0.025136;102.6;127.0;0.0;2.0;3.0;0.0
2.0;1753881171.479777;17.871784;0.81;-1.63;-0.31;0.490463;-0.889454;0.02638;103.8;127.0;0.0;2.0;3.0;0.0
2.0;1753881171.48437;17.941729;0.95;-1.66;-0.36;0.489711;-0.889666;0.024974;107.5;127.0;0.0;2.0;3.0;0.0
2.0;1753881171.488964;17.931551;0.94;-1.6;-0.27;0.491148;-0.887876;0.02517;98.4;127.0;0.0;2.0;3.0;0.0
2.0;1753881171.493557;17.925193;0.95;-1.7;-0.26;0.490605;-0.889367;0.024597;106.6;127.0;0.0;2.0;3.0;0.0
2.0;1753881171.4997;17.902344;0.91;-1.68;-0.28;0.491294;-0.889258;0.02501;104.0;127.0;0.0;2.0;3.0;0.0
2.0;1753881171.504293;17.877991;0.95;-1.68;-0.28;0.490988;-0.888558;0.023529;99.9;127.0;0.0;2.0;3.0;0.0
2.0;1753881171.508886;17.895684;0.87;-1.73;-0.29;0.490752;-0.889528;0.024838;99.9;127.0;0.0;2.0;3.0;0.0
2.0;1753881171.51348;17.911071;0.9;-1.65;-0.32;0.491534;-0.888793;0.025143;102.4;127.0;0.0;2.0;3.0;0.0
2.0;1753881171.518072;17.90456;0.9;-1.75;-0.32;0.489838;-0.888819;0.025025;104.1;127.0;0.0;2.0;3.0;0.0
2.0;1753881171.522666;17.885501;0.89;-1.67;-0.26;0.49291;-0.889684;0.023661;102.5;127.0;0.0;2.0;3.0;0.0
2.0;1753881171.527259;17.914659;0.85;-1.66;-0.34;0.49017;-0.889956;0.024311;108.0;127.0;0.0;2.0;3.0;0.0
2.0;1753881171.531852;17.886349;0.9;-1.69;-0.25;0.491218;-0.888243;0.025346;102.5;127.0;0.0;2.0;3.0;0.0
2.0;1753881171.536445;17.889224;0.93;-1.66;-0.23;0.491414;-0.888527;0.024376;102.5;127.0;0.0;2.0;3.0;0.0
2.0;1753881171.541038;17.9022;0.9;-1.66;-0.17;0.491321;-0.890761;0.023368;107.8;127.0;0.0;2.0;3.0;0.0
2.0;1753881171.545632;17.890586;0.87;-1.68;-0.31;0.492238;-0.888943;0.025414;98.1;127.0;0.0;2.0;3.0;0.0
2.0;1753881171.550224;17.874466;0.82;-1.75;-0.29;0.491814;-0.887809;0.024111;104.8;127.0;0.0;2.0;3.0;0.0
2.0;1753881171.554818;17.949324;0.82;-1.7;-0.24;0.492057;-0.890148;0.025694;107.6;127.0;0.0;2.0;3.0;0.0
2.0;1753881171.559411;17.898641;0.97;-1.62;-0.33;0.491837;-0.890265;0.025031;106.8;127.0;0.0;2.0;3.0;0.0
2.0;1753881171.564004;17.917196;0.96;-1.72;-0.29;0.490932;-0.888305;0.023723;106.7;127.0;0.0;2.0;3.0;0.0
2.0;1753881171.568597;17.898212;0.83;-1.67;-0.18;0.491208;-0.889242;0.024323;101.6;127.0;0.0;2.0;3.0;0.0
2.0;1753881171.57319;17.915843;0.97;-1.67;-0.33;0.491118;-0.889558;0.023659;104.8;127.0;0.0;2.0;3.0;0.0
2.0;1753881171.577783;17.947425;0.95;-1.67;-0.22;0.489685;-0.889355;0.026135;104.1;127.0;0.0;2.0;3.0;0.0
2.0;1753881171.582376;17.919488;0.92;-1.69;-0.28;0.490957;-0.890207;0.025119;103.9;127.0;0.0;2.0;3.0;0.0
2.0;1753881171.58697;17.862953;0.95;-1.63;-0.4;0.492143;-0.887819;0.025106;106.5;127.0;0.0;2.0;3.0;0.0
2.0;1753881171.591563;17.912714;0.87;-1.69;-0.25;0.492603;-0.889683;0.02505;105.4;127.0;0.0;2.0;3.0;0.0
2.0;1753881171.596156;17.837751;0.86;-1.71;-0.22;0.492126;-0.889607;0.025461;100.9;127.0;0.0;2.0;3.0;0.0
2.0;1753881171.600749;17.938628;0.98;-1.7;-0.23;0.492462;-0.889396;0.024506;101.3;127.0;0.0;2.0;3.0;0.0
2.0;1753881171.605342;17.905495;0.81;-1.74;-0.15;0.49367;-0.891276;0.024576;108.5;127.0;0.0;2.0;3.0;0.0
2.0;1753881171.609935;17.845871;1.03;-1.72;-0.18;0.488971;-0.889619;0.02527;102.1;127.0;0.0;2.0;3.0;0.0
2.0;1753881171.614528;17.889918;0.88;-1.73;-0.28;0.491457;-0.889348;0.025858;106.7;127.0;0.0;2.0;3.0;0.0
2.0;1753881171.619122;17.898746;0.85;-1.64;-0.35;0.489437;-0.888562;0.025152;104.7;127.0;0.0;2.0;3.0;0.0
2.0;1753881171.623715;17.949613;1.02;-1.79;-0.24;0.4917;-0.888948;0.024741;102.0;127.0;0.0;2.0;3.0;0.0
2.0;1753881171.628308;17.862971;0.88;-1.65;-0.25;0.491285;-0.889706;0.025884;101.9;127.0;0.0;2.0;3.0;0.0
2.0;1753881171.632901;17.894328;0.92;-1.67;-0.33;0.491987;-0.889006;0.025921;106.5;127.0;0.0;2.0;3.0;0.0
2.0;1753881171.637494;17.902489;0.9;-1.71;-0.32;0.490987;-0.887566;0.026058;101.2;127.0;0.0;2.0;3.0;0.0
2.0;1753881171.642087;17.886214;0.81;-1.66;-0.13;0.490546;-0.890293;0.025127;103.3;127.0;0.0;2.0;3.0;0.0
2.0;1753881171.64668;17.848788;0.87;-1.69;-0.37;0.491215;-0.888303;0.024728;102.7;127.0;0.0;2.0;3.0;0.0
2.0;1753881171.651274;17.900549;0.9;-1.66;-0.34;0.491508;-0.889823;0.025118;104.9;127.0;0.0;2.0;3.0;0.0
2.0;1753881171.655866;17.909735;0.81;-1.66;-0.27;0.492072;-0.888525;0.024643;107.2;127.0;0.0;2.0;3.0;0.0
2.0;1753881171.66046;17.932437;0.78;-1.69;-0.31;0.491536;-0.889591;0.024582;100.5;127.0;0.0;2.0;3.0;0.0
2.0;1753881171.665053;17.869177;0.8;-1.7;-0.32;0.490208;-0.888348;0.024438;101.7;127.0;0.0;2.0;3.0;0.0
2.0;1753881171.669646;17.86122;0.97;-1.73;-0.23;0.48995;-0.888137;0.025261;99.9;127.0;0.0;2.0;3.0;0.0
2.0;1753881171.674239;17.931458;0.77;-1.66;-0.22;0.491304;-0.89051;0.024112;106.5;127.0;0.0;2.0;3.0;0.0
2.0;1753881171.678832;17.893957;0.9;-1.63;-0.2;0.489879;-0.889436;0.025897;98.7;127.0;0.0;2.0;3.0;0.0
2.0;1753881171.683426;17.832035;0.85;-1.68;-0.19;0.491472;-0.888751;0.024339;101.4;127.0;0.0;2.0;3.0;0.0
2.0;1753881171.688018;17.865192;0.87;-1.75;-0.29;0.490213;-0.887924;0.025625;107.4;127.0;0.0;2.0;3.0;0.0
2.0;1753881171.692612;17.919637;0.8;-1.69;-0.25;0.491553;-0.888807;0.025088;102.9;127.0;0.0;2.0;3.0;0.0
2.0;1753881171.697205;17.897609;0.79;-1.62;-0.35;0.491965;-0.888943;0.025222;105.1;127.0;0.0;2.0;3.0;0.0
2.0;1753881171.701798;17.920349;0.78;-1.68;-0.18;0.492034;-0.888581;0.025702;106.7;127.0;0.0;2.0;3.0;0.0
2.0;1753881171.706391;17.885951;0.93;-1.63;-0.22;0.492327;-0.889779;0.025517;103.6;127.0;0.0;2.0;3.0;0.0
2.0;1753881171.710984;17.910145;0.84;-1.68;-0.35;0.491383;-0.888225;0.025386;106.7;127.0;0.0;2.0;3.0;0.0
2.0;1753881171.715577;17.919674;0.82;-1.66;-0.24;0.492508;-0.886751;0.025398;102.1;127.0;0.0;2.0;3.0;0.0
2.0;1753881171.72017;17.901094;0.91;-1.69;-0.24;0.492392;-0.889231;0.025007;103.7;127.0;0.0;2.0;3.0;0.0
2.0;1753881171.724764;17.938186;0.88;-1.69;-0.24;0.490724;-0.88775;0.025028;101.5;127.0;0.0;2.0;3.0;0.0
2.0;1753881171.729357;17.88265;0.99;-1.63;-0.21;0.491557;-0.889104;0.025418;100.2;127.0;0.0;2.0;3.0;0.0
2.0;1753881171.73395;17.891685;0.86;-1.68;-0.22;0.490954;-0.889424;0.025935;99.8;127.0;0.0;2.0;3.0;0.0
2.0;1753881171.738543;17.896874;0.8;-1.64;-0.13;0.491886;-0.888239;0.025416;107.5;127.0;0.0;2.0;3.0;0.0
2.0;1753881171.743136;17.895801;0.87;-1.63;-0.28;0.492383;-0.889491;0.025515;103.9;127.0;0.0;2.0;3.0;0.0
2.0;1753881171.747729;17.874437;0.84;-1.71;-0.3;0.492751;-0.887677;0.025155;107.8;127.0;0.0;2.0;3.0;0.0
2.0;1753881171.752322;17.905559;0.9;-1.72;-0.28;0.490877;-0.888444;0.025738;97.4;127.0;0.0;2.0;3.0;0.0
2.0;1753881171.756916;17.905667;0.8;-1.73;-0.28;0.491215;-0.889028;0.025355;104.0;127.0;0.0;2.0;3.0;0.0
2.0;1753881171.761509;17.910353;0.79;-1.68;-0.11;0.490484;-0.889821;0.026518;104.4;127.0;0.0;2.0;3.0;0.0
2.0;1753881171.766102;17.83792;0.81;-1.7;-0.25;0.489349;-0.888124;0.026544;106.9;127.0;0.0;2.0;3.0;0.0
2.0;1753881171.770695;17.866659;0.92;-1.71;-0.21;0.491733;-0.888863;0.026352;102.1;127.0;0.0;2.0;3.0;0.0
2.0;1753881171.775288;17.887781;0.73;-1.65;-0.32;0.489977;-0.888875;0.02513;104.0;127.0;0.0;2.0;3.0;0.0
2.0;1753881171.779881;17.916681;0.8;-1.65;-0.23;0.48993;-0.888926;0.025437;104.3;127.0;0.0;2.0;3.0;0.0
2.0;1753881171.784474;17.974263;0.96;-1.7;-0.35;0.490866;-0.88948;0.025941;101.6;127.0;0.0;2.0;3.0;0.0
2.0;1753881171.789068;17.909763;0.88;-1.69;-0.31;0.489985;-0.888647;0.025499;103.1;127.0;0.0;2.0;3.0;0.0
2.0;1753881171.793661;17.879816;0.82;-1.76;-0.3;0.490824;-0.887901;0.02513;104.9;127.0;0.0;2.0;3.0;0.0
2.0;1753881171.798254;17.915606;0.85;-1.62;-0.21;0.491287;-0.888838;0.026293;101.2;127.0;0.0;2.0;3.0;0.0
2.0;1753881171.802847;17.883062;0.86;-1.62;-0.18;0.490395;-0.889567;0.025516;103.4;127.0;0.0;2.0;3.0;0.0
2.0;1753881171.80744;17.894689;0.83;-1.64;-0.24;0.490763;-0.889029;0.02439;100.9;127.0;0.0;2.0;3.0;0.0
2.0;1753881171.812033;17.880096;0.8;-1.6;-0.22;0.491024;-0.889519;0.02548;105.6;127.0;0.0;2.0;3.0;0.0
2.0;1753881171.816626;17.896218;0.82;-1.66;-0.23;0.490137;-0.887206;0.026234;100.2;127.0;0.0;2.0;3.0;0.0
2.0;1753881171.82122;17.90208;0.81;-1.7;-0.18;0.490901;-0.886725;0.024989;106.2;127.0;0.0;2.0;3.0;0.0
2.0;1753881171.825812;17.904561;0.95;-1.67;-0.18;0.491583;-0.887552;0.025921;105.6;127.0;0.0;2.0;3.0;0.0
2.0;1753881171.830406;17.916514;0.86;-1.72;-0.18;0.49027;-0.889839;0.025025;104.6;127.0;0.0;2.0;3.0;0.0
2.0;1753881171.834999;17.891515;0.87;-1.62;-0.21;0.491094;-0.889498;0.026522;104.0;127.0;0.0;2.0;3.0;0.0
2.0;1753881171.839592;17.92188;0.81;-1.69;-0.23;0.490391;-0.887797;0.024704;106.0;127.0;0.0;2.0;3.0;0.0
2.0;1753881171.844185;17.896784;0.93;-1.71;-0.29;0.489583;-0.886438;0.026197;101.3;127.0;0.0;2.0;3.0;0.0
2.0;1753881171.848778;17.885892;0.89;-1.73;-0.3;0.49071;-0.889854;0.026309;101.2;127.0;0.0;2.0;3.0;0.0
2.0;1753881171.853372;17.910967;0.82;-1.72;-0.08;0.490089;-0.888;0.024085;105.0;127.0;0.0;2.0;3.0;0.0
2.0;1753881171.857964;17.932559;0.75;-1.66;-0.29;0.490464;-0.887784;0.025042;102.1;127.0;0.0;2.0;3.0;0.0
2.0;1753881171.862558;17.845399;0.84;-1.67;-0.27;0.490788;-0.88845;0.025024;101.5;127.0;0.0;2.0;3.0;0.0
2.0;1753881171.867151;17.858512;0.85;-1.65;-0.33;0.490193;-0.887513;0.023929;101.9;127.0;0.0;2.0;3.0;0.0
2.0;1753881171.871744;17.876708;0.87;-1.64;-0.23;0.490241;-0.887953;0.024573;108.0;127.0;0.0;2.0;3.0;0.0
2.0;1753881171.876337;17.903971;0.95;-1.68;-0.18;0.491515;-0.887555;0.025703;108.1;127.0;0.0;2.0;3.0;0.0
2.0;1753881171.88093;17.902946;0.82;-1.7;-0.19;0.490251;-0.887891;0.025437;99.3;127.0;0.0;2.0;3.0;0.0
2.0;1753881171.885523;17.957546;0.8;-1.59;-0.23;0.492286;-0.888357;0.026245;105.4;127.0;0.0;2.0;3.0;0.0
2.0;1753881171.890116;17.923884;0.88;-1.68;-0.24;0.490925;-0.887846;0.024584;100.1;127.0;0.0;2.0;3.0;0.0
2.0;1753881171.89471;17.896949;0.85;-1.69;-0.2;0.492358;-0.888284;0.024429;99.5;127.0;0.0;2.0;3.0;0.0
2.0;1753881171.899303;17.889441;0.75;-1.57;-0.17;0.490561;-0.888476;0.02487;101.3;127.0;0.0;2.0;3.0;0.0
2.0;1753881171.903896;17.890935;0.92;-1.63;-0.26;0.492675;-0.888197;0.024911;111.0;127.0;0.0;2.0;3.0;0.0
2.0;1753881171.908489;17.874271;0.84;-1.7;-0.22;0.49163;-0.887327;0.027098;99.9;127.0;0.0;2.0;3.0;0.0
2.0;1753881171.913082;17.894075;0.76;-1.69;-0.23;0.490599;-0.886592;0.02509;100.9;127.0;0.0;2.0;3.0;0.0
2.0;1753881171.917675;17.917006;0.7;-1.64;-0.23;0.490412;-0.887693;0.025264;105.6;127.0;0.0;2.0;3.0;0.0
2.0;1753881171.922268;17.942021;0.73;-1.63;-0.23;0.492256;-0.887859;0.024572;108.0;127.0;0.0;2.0;3.0;0.0
2.0;1753881171.926862;17.931966;0.7;-1.66;-0.29;0.491494;-0.88807;0.025056;98.9;127.0;0.0;2.0;3.0;0.0
2.0;1753881171.931455;17.913848;0.88;-1.71;-0.22;0.491362;-0.888835;0.025616;99.8;127.0;0.0;2.0;3.0;0.0
2.0;1753881171.936048;17.917498;0.9;-1.67;-0.37;0.490746;-0.887159;0.02549;100.7;127.0;0.0;2.0;3.0;0.0
2.0;1753881171.940641;17.920088;0.88;-1.7;-0.23;0.4901;-0.887844;0.026393;105.6;127.0;0.0;2.0;3.0;0.0
2.0;1753881171.9455;17.902344;0.84;-1.68;-0.21;0.490806;-0.88816;0.025498;104.0;127.0;0.0;2.0;3.0;0.0
2.0;1753881171.947127;17.804688;0.91;-1.68;-0.42;0.49166;-0.889746;0.026108;106.0;127.0;0.0;2.0;3.0;0.0
2.0;1753881171.951686;17.804688;0.84;-1.68;-0.35;0.489464;-0.890112;0.025376;106.0;127.0;0.0;2.0;3.0;0.0
2.0;1753881171.956275;17.886719;0.84;-1.68;-0.35;0.490806;-0.890234;0.025376;106.0;127.0;0.0;2.0;3.0;0.0
2.0;1753881171.960846;17.886719;0.77;-1.68;-0.35;0.490074;-0.889868;0.024522;106.0;127.0;0.0;2.0;3.0;0.0
2.0;1753881171.966904;17.886719;0.91;-1.61;-0.28;0.49105;-0.890112;0.024156;106.0;127.0;0.0;2.0;3.0;0.0
2.0;1753881171.97037;17.886719;0.84;-1.61;-0.28;0.48983;-0.890356;0.02562;106.0;127.0;0.0;2.0;3.0;0.0
2.0;1753881171.977916;17.835938;0.91;-1.75;-0.28;0.490928;-0.88877;0.025986;106.0;127.0;0.0;2.0;3.0;0.0
2.0;1753881171.983838;17.835938;0.77;-1.75;-0.35;0.490928;-0.889868;0.025864;104.0;127.0;0.0;2.0;3.0;0.0
2.0;1753881171.988515;17.835938;0.91;-1.68;-0.28;0.49166;-0.890356;0.025376;104.0;127.0;0.0;2.0;3.0;0.0
2.0;1753881171.993946;17.902344;0.91;-1.68;-0.28;0.492148;-0.889502;0.026474;104.0;127.0;0.0;2.0;3.0;0.0
2.0;1753881171.997454;17.902344;0.98;-1.68;-0.35;0.491294;-0.890356;0.025376;104.0;127.0;0.0;2.0;3.0;0.0
2.0;1753881172.002047;17.90333;0.89;-1.65;-0.42;0.489951;-0.89032;0.024726;103.2;127.0;0.0;2.0;3.0;0.0
2.0;1753881172.00664;17.88187;1.19;-1.76;-0.39;0.491165;-0.89;0.024859;103.9;127.0;0.0;2.0;3.0;0.0
2.0;1753881172.011233;17.877515;0.95;-1.62;-0.35;0.490232;-0.890099;0.025215;103.9;127.0;0.0;2.0;3.0;0.0
2.0;1753881172.015826;17.922068;0.95;-1.66;-0.37;0.491967;-0.889805;0.026136;104.2;127.0;0.0;2.0;3.0;0.0
2.0;1753881172.02042;17.91569;1.13;-1.68;-0.36;0.492491;-0.890064;0.025795;104.4;127.0;0.0;2.0;3.0;0.0
2.0;1753881172.025013;17.875363;1.01;-1.72;-0.3;0.491634;-0.89047;0.025658;103.2;127.0;0.0;2.0;3.0;0.0
2.0;1753881172.029606;17.870877;1.03;-1.71;-0.37;0.491713;-0.890471;0.025138;104.1;127.0;0.0;2.0;3.0;0.0
2.0;1753881172.034199;17.862157;0.98;-1.66;-0.32;0.492455;-0.890757;0.024087;103.1;127.0;0.0;2.0;3.0;0.0
2.0;1753881172.038792;17.865634;0.95;-1.52;-0.37;0.491854;-0.890663;0.025122;104.0;127.0;0.0;2.0;3.0;0.0
2.0;1753881172.043385;17.876211;0.92;-1.6;-0.39;0.490428;-0.890974;0.02485;105.9;127.0;0.0;2.0;3.0;0.0
2.0;1753881172.047978;17.907882;0.9;-1.57;-0.47;0.49217;-0.890656;0.024663;103.5;127.0;0.0;2.0;3.0;0.0
2.0;1753881172.052572;17.875868;0.95;-1.63;-0.34;0.490912;-0.890735;0.025172;104.0;127.0;0.0;2.0;3.0;0.0
2.0;1753881172.057165;17.920235;0.9;-1.68;-0.32;0.492351;-0.890765;0.025365;104.2;127.0;0.0;2.0;3.0;0.0
2.0;1753881172.061758;17.913452;0.99;-1.63;-0.37;0.491494;-0.890242;0.025948;103.9;127.0;0.0;2.0;3.0;0.0
2.0;1753881172.066351;17.859712;1.07;-1.6;-0.36;0.49214;-0.890487;0.026021;106.0;127.0;0.0;2.0;3.0;0.0
2.0;1753881172.070944;17.870839;0.98;-1.65;-0.4;0.492843;-0.890485;0.025423;102.6;127.0;0.0;2.0;3.0;0.0
2.0;1753881172.075537;17.907455;0.97;-1.59;-0.37;0.491766;-0.890039;0.024342;103.8;127.0;0.0;2.0;3.0;0.0
2.0;1753881172.08013;17.89846;1.06;-1.66;-0.36;0.491564;-0.890191;0.025364;102.7;127.0;0.0;2.0;3.0;0.0
2.0;1753881172.084724;17.872304;1.02;-1.7;-0.41;0.490224;-0.890533;0.024767;104.0;127.0;0.0;2.0;3.0;0.0
2.0;1753881172.089316;17.929538;1.03;-1.65;-0.35;0.492019;-0.890065;0.025879;103.4;127.0;0.0;2.0;3.0;0.0
2.0;1753881172.09391;17.91733;1.04;-1.56;-0.33;0.49196;-0.890925;0.025411;103.3;127.0;0.0;2.0;3.0;0.0
2.0;1753881172.098503;17.917423;0.96;-1.68;-0.43;0.490938;-0.890318;0.025239;103.8;127.0;0.0;2.0;3.0;0.0
2.0;1753881172.103096;17.931342;0.97;-1.62;-0.43;0.490744;-0.890287;0.023739;104.5;127.0;0.0;2.0;3.0;0.0
2.0;1753881172.107689;17.922792;1.0;-1.68;-0.42;0.491029;-0.891022;0.02695;103.6;127.0;0.0;2.0;3.0;0.0
2.0;1753881172.112282;17.878824;0.89;-1.61;-0.35;0.49114;-0.890085;0.025136;102.5;127.0;0.0;2.0;3.0;0.0
2.0;1753881172.116876;17.956668;1.01;-1.66;-0.38;0.490742;-0.890062;0.024235;104.5;127.0;0.0;2.0;3.0;0.0
2.0;1753881172.121468;17.858856;1.08;-1.65;-0.39;0.489787;-0.890333;0.024633;105.2;127.0;0.0;2.0;3.0;0.0
2.0;1753881172.126062;17.886516;0.91;-1.63;-0.36;0.49329;-0.890332;0.026403;104.4;127.0;0.0;2.0;3.0;0.0
2.0;1753881172.130655;17.895055;0.95;-1.65;-0.32;0.491099;-0.890131;0.024974;104.3;127.0;0.0;2.0;3.0;0.0
2.0;1753881172.135248;17.907719;1.01;-1.58;-0.41;0.49141;-0.890249;0.026897;104.3;127.0;0.0;2.0;3.0;0.0
2.0;1753881172.139841;17.903236;0.98;-1.63;-0.4;0.490322;-0.88984;0.024786;104.4;127.0;0.0;2.0;3.0;0.0
2.0;1753881172.144434;17.860902;1.08;-1.65;-0.42;0.489544;-0.89014;0.024647;104.1;127.0;0.0;2.0;3.0;0.0
2.0;1753881172.149027;17.942623;1.0;-1.71;-0.37;0.490765;-0.889933;0.025318;105.3;127.0;0.0;2.0;3.0;0.0
2.0;1753881172.15362;17.872595;1.0;-1.59;-0.38;0.4914;-0.891495;0.025652;105.1;127.0;0.0;2.0;3.0;0.0
2.0;1753881172.158214;17.886715;1.0;-1.62;-0.34;0.491762;-0.890176;0.025055;104.2;127.0;0.0;2.0;3.0;0.0
2.0;1753881172.162807;17.900965;0.86;-1.6;-0.4;0.492044;-0.891228;0.025444;105.8;127.0;0.0;2.0;3.0;0.0
2.0;1753881172.1674;17.866374;1.06;-1.66;-0.45;0.49028;-0.890815;0.025978;103.4;127.0;0.0;2.0;3.0;0.0
2.0;1753881172.171993;17.8888;1.04;-1.62;-0.48;0.490674;-0.889836;0.02481;104.3;127.0;0.0;2.0;3.0;0.0
2.0;1753881172.176586;17.869514;1.04;-1.56;-0.36;0.490877;-0.889551;0.025651;102.7;127.0;0.0;2.0;3.0;0.0
2.0;1753881172.181179;17.920261;0.87;-1.59;-0.42;0.491615;-0.890869;0.024932;102.9;127.0;0.0;2.0;3.0;0.0
2.0;1753881172.185772;17.907004;0.98;-1.58;-0.44;0.49228;-0.889636;0.02364;103.8;127.0;0.0;2.0;3.0;0.0
2.0;1753881172.1914;17.902344;0.98;-1.61;-0.42;0.491294;-0.890356;0.025376;104.0;127.0;0.0;2.0;3.0;0.0
2.0;1753881172.195993;17.880367;0.92;-1.62;-0.45;0.490447;-0.890242;0.024163;103.7;127.0;0.0;2.0;3.0;0.0
2.0;1753881172.200586;17.888175;0.97;-1.74;-0.37;0.491425;-0.890277;0.024838;104.6;127.0;0.0;2.0;3.0;0.0
2.0;1753881172.20518;17.864888;0.82;-1.51;-0.39;0.491656;-0.889417;0.024013;104.3;127.0;0.0;2.0;3.0;0.0
2.0;1753881172.209772;17.838636;0.8;-1.65;-0.45;0.491836;-0.890351;0.02487;104.6;127.0;0.0;2.0;3.0;0.0
2.0;1753881172.214366;17.942619;1.03;-1.63;-0.35;0.491728;-0.890651;0.02476;102.7;127.0;0.0;2.0;3.0;0.0
2.0;1753881172.218959;17.887031;1.04;-1.57;-0.4;0.491889;-0.890527;0.026382;103.9;127.0;0.0;2.0;3.0;0.0
2.0;1753881172.223552;17.929522;1.06;-1.61;-0.43;0.490684;-0.891098;0.025555;104.0;127.0;0.0;2.0;3.0;0.0
2.0;1753881172.228145;17.910942;0.93;-1.62;-0.29;0.491422;-0.890131;0.025016;102.8;127.0;0.0;2.0;3.0;0.0
2.0;1753881172.232738;17.87963;0.91;-1.59;-0.41;0.491628;-0.88941;0.025539;103.5;127.0;0.0;2.0;3.0;0.0
2.0;1753881172.237332;17.894852;0.96;-1.66;-0.42;0.491031;-0.889344;0.025495;106.6;127.0;0.0;2.0;3.0;0.0
2.0;1753881172.241924;17.889575;0.83;-1.55;-0.37;0.490921;-0.889899;0.02537;104.3;127.0;0.0;2.0;3.0;0.0
2.0;1753881172.246518;17.872657;0.84;-1.57;-0.43;0.489639;-0.89035;0.024726;104.9;127.0;0.0;2.0;3.0;0.0
2.0;1753881172.251111;17.846977;0.83;-1.64;-0.47;0.490704;-0.890374;0.025973;105.7;127.0;0.0;2.0;3.0;0.0
2.0;1753881172.255704;17.92458;1.0;-1.55;-0.43;0.492194;-0.889596;0.024676;105.6;127.0;0.0;2.0;3.0;0.0
2.0;1753881172.260297;17.881853;0.99;-1.58;-0.32;0.49183;-0.890289;0.024946;103.3;127.0;0.0;2.0;3.0;0.0
2.0;1753881172.26489;17.879356;1.12;-1.64;-0.43;0.491675;-0.889938;0.025613;104.8;127.0;0.0;2.0;3.0;0.0
2.0;1753881172.269483;17.88834;0.97;-1.63;-0.39;0.491315;-0.890127;0.024219;104.8;127.0;0.0;2.0;3.0;0.0
2.0;1753881172.274076;17.961366;1.12;-1.65;-0.33;0.49196;-0.890034;0.024868;104.6;127.0;0.0;2.0;3.0;0.0
2.0;1753881172.27867;17.91932;0.88;-1.65;-0.46;0.490387;-0.889551;0.024003;103.8;127.0;0.0;2.0;3.0;0.0
2.0;1753881172.283263;17.923345;0.97;-1.64;-0.24;0.492724;-0.889507;0.024121;103.7;127.0;0.0;2.0;3.0;0.0
2.0;1753881172.287856;17.864051;0.95;-1.66;-0.42;0.491124;-0.889427;0.026382;104.2;127.0;0.0;2.0;3.0;0.0
2.0;1753881172.292449;17.879208;1.01;-1.54;-0.41;0.490688;-0.889503;0.025487;103.2;127.0;0.0;2.0;3.0;0.0
2.0;1753881172.297042;17.882102;0.87;-1.58;-0.34;0.490992;-0.889777;0.025334;105.0;127.0;0.0;2.0;3.0;0.0
2.0;1753881172.301635;17.93553;0.99;-1.68;-0.4;0.490772;-0.890523;0.024888;103.9;127.0;0.0;2.0;3.0;0.0
2.0;1753881172.306228;17.842763;0.96;-1.57;-0.4;0.491827;-0.890349;0.025227;104.3;127.0;0.0;2.0;3.0;0.0
2.0;1753881172.310822;17.914862;0.97;-1.65;-0.42;0.492664;-0.889465;0.024875;103.6;127.0;0.0;2.0;3.0;0.0
2.0;1753881172.315415;17.915115;0.89;-1.62;-0.41;0.492794;-0.890347;0.024271;104.3;127.0;0.0;2.0;3.0;0.0
2.0;1753881172.320008;17.876352;0.92;-1.59;-0.43;0.491457;-0.889968;0.026643;104.6;127.0;0.0;2.0;3.0;0.0
2.0;1753881172.324601;17.884097;0.96;-1.64;-0.42;0.491025;-0.889256;0.024197;104.2;127.0;0.0;2.0;3.0;0.0
2.0;1753881172.329194;17.928158;0.92;-1.53;-0.41;0.49195;-0.889384;0.024106;103.5;127.0;0.0;2.0;3.0;0.0
2.0;1753881172.333787;17.922243;0.92;-1.63;-0.35;0.492179;-0.890166;0.024289;103.5;127.0;0.0;2.0;3.0;0.0
2.0;1753881172.33838;17.922375;1.0;-1.6;-0.36;0.49054;-0.889753;0.024475;105.4;127.0;0.0;2.0;3.0;0.0
2.0;1753881172.342974;17.865961;1.0;-1.67;-0.45;0.493263;-0.889854;0.025443;103.7;127.0;0.0;2.0;3.0;0.0
2.0;1753881172.347566;17.941096;0.93;-1.66;-0.41;0.491803;-0.889877;0.025424;103.0;127.0;0.0;2.0;3.0;0.0
2.0;1753881172.35216;17.868888;1.02;-1.68;-0.42;0.491568;-0.890374;0.025354;104.5;127.0;0.0;2.0;3.0;0.0
2.0;1753881172.356753;17.847154;0.85;-1.57;-0.4;0.491845;-0.889557;0.024406;103.9;127.0;0.0;2.0;3.0;0.0
2.0;1753881172.361346;17.892551;1.06;-1.63;-0.34;0.490733;-0.889739;0.02466;102.9;127.0;0.0;2.0;3.0;0.0
2.0;1753881172.365939;17.913582;0.9;-1.55;-0.34;0.492731;-0.889373;0.024349;103.6;127.0;0.0;2.0;3.0;0.0
2.0;1753881172.370532;17.88611;0.87;-1.45;-0.36;0.491449;-0.889279;0.025522;103.9;127.0;0.0;2.0;3.0;0.0
2.0;1753881172.375126;17.872778;1.0;-1.56;-0.37;0.49084;-0.890052;0.024337;103.7;127.0;0.0;2.0;3.0;0.0
2.0;1753881172.379718;17.900439;0.99;-1.62;-0.47;0.493315;-0.889617;0.024471;104.3;127.0;0.0;2.0;3.0;0.0
2.0;1753881172.384312;17.886325;0.87;-1.61;-0.33;0.491383;-0.889835;0.024294;102.0;127.0;0.0;2.0;3.0;0.0
2.0;1753881172.388905;17.911251;0.92;-1.6;-0.32;0.492135;-0.890473;0.023615;102.9;127.0;0.0;2.0;3.0;0.0
2.0;1753881172.393498;17.92614;0.86;-1.58;-0.4;0.490174;-0.889394;0.025437;104.7;127.0;0.0;2.0;3.0;0.0
2.0;1753881172.398091;17.879345;0.85;-1.62;-0.3;0.491284;-0.889789;0.023782;102.2;127.0;0.0;2.0;3.0;0.0
2.0;1753881172.402684;17.863356;0.98;-1.51;-0.34;0.492722;-0.888905;0.024369;103.0;127.0;0.0;2.0;3.0;0.0
2.0;1753881172.407277;17.918902;0.97;-1.66;-0.33;0.490263;-0.889719;0.025095;103.6;127.0;0.0;2.0;3.0;0.0
2.0;1753881172.41187;17.839543;0.83;-1.62;-0.28;0.491077;-0.889504;0.023655;103.9;127.0;0.0;2.0;3.0;0.0
2.0;1753881172.416464;17.942275;0.89;-1.52;-0.47;0.491332;-0.888882;0.024692;103.5;127.0;0.0;2.0;3.0;0.0
2.0;1753881172.421057;17.937742;0.91;-1.68;-0.33;0.491737;-0.889907;0.02389;103.2;127.0;0.0;2.0;3.0;0.0
2.0;1753881172.42565;17.898122;1.06;-1.56;-0.31;0.491099;-0.88903;0.025235;104.4;127.0;0.0;2.0;3.0;0.0
2.0;1753881172.430243;17.86806;0.73;-1.69;-0.25;0.49132;-0.889595;0.025524;103.7;127.0;0.0;2.0;3.0;0.0
2.0;1753881172.434836;17.884084;0.89;-1.48;-0.33;0.490951;-0.889127;0.024479;106.9;127.0;0.0;2.0;3.0;0.0
2.0;1753881172.439429;17.905401;0.88;-1.65;-0.27;0.491133;-0.889853;0.024071;104.1;127.0;0.0;2.0;3.0;0.0
2.0;1753881172.444022;17.853461;1.14;-1.57;-0.31;0.491742;-0.889075;0.024054;103.6;127.0;0.0;2.0;3.0;0.0
2.0;1753881172.448616;17.881952;0.87;-1.57;-0.48;0.493662;-0.890211;0.025265;103.9;127.0;0.0;2.0;3.0;0.0
2.0;1753881172.453209;17.854682;0.96;-1.55;-0.38;0.491172;-0.889781;0.02457;104.6;127.0;0.0;2.0;3.0;0.0
2.0;1753881172.457802;17.856978;0.8;-1.64;-0.35;0.491454;-0.889996;0.024737;102.8;127.0;0.0;2.0;3.0;0.0
2.0;1753881172.462395;17.904081;0.86;-1.63;-0.29;0.49163;-0.89005;0.025446;101.8;127.0;0.0;2.0;3.0;0.0
2.0;1753881172.466988;17.883825;0.96;-1.59;-0.21;0.490788;-0.889817;0.024317;104.6;127.0;0.0;2.0;3.0;0.0
2.0;1753881172.471581;17.922383;0.88;-1.61;-0.34;0.492899;-0.890266;0.024169;105.0;127.0;0.0;2.0;3.0;0.0
2.0;1753881172.476174;17.900316;0.87;-1.55;-0.35;0.491567;-0.88932;0.023505;104.6;127.0;0.0;2.0;3.0;0.0
2.0;1753881172.480768;17.911543;0.94;-1.61;-0.34;0.491931;-0.889282;0.023024;102.7;127.0;0.0;2.0;3.0;0.0
2.0;1753881172.48536;17.856213;0.84;-1.67;-0.27;0.491637;-0.889083;0.022928;103.5;127.0;0.0;2.0;3.0;0.0
2.0;1753881172.489954;17.892345;0.84;-1.6;-0.35;0.491532;-0.889204;0.025194;105.2;127.0;0.0;2.0;3.0;0.0
2.0;1753881172.494547;17.875942;0.9;-1.6;-0.29;0.490084;-0.88998;0.022763;102.8;127.0;0.0;2.0;3.0;0.0
2.0;1753881172.49914;17.928758;0.99;-1.65;-0.34;0.491877;-0.88873;0.024394;105.1;127.0;0.0;2.0;3.0;0.0
2.0;1753881172.503733;17.889052;0.94;-1.6;-0.32;0.492468;-0.89015;0.024165;103.7;127.0;0.0;2.0;3.0;0.0
2.0;1753881172.508326;17.921696;0.86;-1.69;-0.38;0.490671;-0.889193;0.024539;103.5;127.0;0.0;2.0;3.0;0.0
2.0;1753881172.51292;17.882561;0.84;-1.65;-0.32;0.491091;-0.889923;0.023854;104.1;127.0;0.0;2.0;3.0;0.0
2.0;1753881172.517512;17.863094;1.0;-1.55;-0.24;0.491744;-0.888883;0.025085;104.7;127.0;0.0;2.0;3.0;0.0
2.0;1753881172.522106;17.895703;0.94;-1.58;-0.33;0.49155;-0.889548;0.023087;103.9;127.0;0.0;2.0;3.0;0.0
2.0;1753881172.526699;17.896003;0.86;-1.59;-0.31;0.490816;-0.889375;0.02484;103.5;127.0;0.0;2.0;3.0;0.0
2.0;1753881172.531292;17.8993;0.89;-1.62;-0.36;0.490846;-0.889837;0.025013;102.7;127.0;0.0;2.0;3.0;0.0
2.0;1753881172.535885;17.882598;0.93;-1.67;-0.28;0.491463;-0.888634;0.024125;104.6;127.0;0.0;2.0;3.0;0.0
2.0;1753881172.540478;17.904439;0.81;-1.69;-0.38;0.492794;-0.889733;0.024825;103.9;127.0;0.0;2.0;3.0;0.0
2.0;1753881172.545071;17.875593;0.74;-1.64;-0.29;0.490991;-0.889473;0.023994;104.7;127.0;0.0;2.0;3.0;0.0
2.0;1753881172.549664;17.859214;0.79;-1.58;-0.25;0.494057;-0.89068;0.023258;102.8;127.0;0.0;2.0;3.0;0.0
2.0;1753881172.554258;17.935439;0.82;-1.61;-0.34;0.491553;-0.889204;0.024123;103.6;127.0;0.0;2.0;3.0;0.0
2.0;1753881172.558851;17.943049;0.79;-1.64;-0.33;0.49184;-0.889364;0.023943;104.7;127.0;0.0;2.0;3.0;0.0
2.0;1753881172.563444;17.950588;0.87;-1.57;-0.34;0.491753;-0.888738;0.023695;102.5;127.0;0.0;2.0;3.0;0.0
2.0;1753881172.568037;17.884982;0.85;-1.74;-0.31;0.494544;-0.889821;0.023717;105.0;127.0;0.0;2.0;3.0;0.0
2.0;1753881172.57263;17.93609;0.92;-1.59;-0.29;0.492796;-0.889528;0.023694;104.3;127.0;0.0;2.0;3.0;0.0
2.0;1753881172.577223;17.929138;0.8;-1.57;-0.34;0.491307;-0.889885;0.023711;103.0;127.0;0.0;2.0;3.0;0.0
2.0;1753881172.581816;17.89878;0.81;-1.63;-0.36;0.492312;-0.889413;0.025093;105.1;127.0;0.0;2.0;3.0;0.0
2.0;1753881172.58641;17.966521;0.8;-1.6;-0.22;0.492899;-0.888811;0.023896;104.4;127.0;0.0;2.0;3.0;0.0
2.0;1753881172.591003;17.89791;0.89;-1.58;-0.22;0.491056;-0.889552;0.024293;103.3;127.0;0.0;2.0;3.0;0.0
2.0;1753881172.595596;17.899871;0.87;-1.58;-0.33;0.491195;-0.888666;0.023354;104.1;127.0;0.0;2.0;3.0;0.0
2.0;1753881172.600189;17.897799;0.99;-1.72;-0.3;0.492217;-0.888818;0.023645;104.0;127.0;0.0;2.0;3.0;0.0
2.0;1753881172.604782;17.883292;0.9;-1.57;-0.26;0.492401;-0.888572;0.02518;102.6;127.0;0.0;2.0;3.0;0.0
2.0;1753881172.609375;17.958184;0.89;-1.62;-0.29;0.492843;-0.889301;0.022719;105.0;127.0;0.0;2.0;3.0;0.0
2.0;1753881172.613968;17.853353;0.85;-1.55;-0.23;0.491915;-0.889081;0.024259;103.5;127.0;0.0;2.0;3.0;0.0
2.0;1753881172.618562;17.88074;0.85;-1.6;-0.26;0.492437;-0.888565;0.0236;103.5;127.0;0.0;2.0;3.0;0.0
2.0;1753881172.623155;17.993373;0.9;-1.57;-0.31;0.491525;-0.889524;0.02378;106.3;127.0;0.0;2.0;3.0;0.0
2.0;1753881172.627748;17.918723;0.81;-1.59;-0.34;0.491461;-0.888234;0.023531;104.8;127.0;0.0;2.0;3.0;0.0
2.0;1753881172.632341;17.880713;0.82;-1.62;-0.24;0.490844;-0.889226;0.024287;102.7;127.0;0.0;2.0;3.0;0.0
2.0;1753881172.636934;17.852994;0.71;-1.58;-0.34;0.491913;-0.888545;0.022808;103.5;127.0;0.0;2.0;3.0;0.0
2.0;1753881172.641527;17.926559;0.76;-1.58;-0.27;0.492032;-0.888382;0.02338;105.0;127.0;0.0;2.0;3.0;0.0
2.0;1753881172.64612;17.861706;0.75;-1.62;-0.25;0.491379;-0.888813;0.022921;104.8;127.0;0.0;2.0;3.0;0.0
2.0;1753881172.6535;17.902344;0.84;-1.61;-0.28;0.49166;-0.889014;0.023668;104.0;127.0;0.0;2.0;3.0;0.0
2.0;1753881172.658093;17.87416;0.82;-1.5;-0.19;0.491289;-0.888757;0.024982;103.5;127.0;0.0;2.0;3.0;0.0
2.0;1753881172.66597;17.8125;0.91;-1.75;-0.21;0.490562;-0.889258;0.024644;102.0;127.0;0.0;2.0;3.0;0.0
2.0;1753881172.670563;17.799067;0.88;-1.71;-0.24;0.491139;-0.888897;0.024799;101.7;127.0;0.0;2.0;3.0;0.0
2.0;1753881172.675156;17.791016;0.9;-1.69;-0.2;0.489464;-0.889752;0.024141;101.1;127.0;0.0;2.0;3.0;0.0
2.0;1753881172.67975;17.884743;0.87;-1.6;-0.36;0.490203;-0.888366;0.025331;103.5;127.0;0.0;2.0;3.0;0.0
2.0;1753881172.684342;17.826231;0.91;-1.7;-0.2;0.490372;-0.889663;0.024728;101.3;127.0;0.0;2.0;3.0;0.0
2.0;1753881172.688936;17.847854;0.84;-1.79;-0.28;0.489951;-0.889434;0.02493;103.2;127.0;0.0;2.0;3.0;0.0
2.0;1753881172.693529;17.792971;0.76;-1.83;-0.22;0.490151;-0.889174;0.025054;102.3;127.0;0.0;2.0;3.0;0.0
2.0;1753881172.698122;17.837387;0.94;-1.8;-0.24;0.489818;-0.889755;0.024501;99.8;127.0;0.0;2.0;3.0;0.0
2.0;1753881172.702715;17.748485;0.87;-1.75;-0.2;0.489682;-0.889129;0.024413;101.5;127.0;0.0;2.0;3.0;0.0
2.0;1753881172.707308;17.870799;0.91;-1.7;-0.21;0.489881;-0.889526;0.024819;102.8;127.0;0.0;2.0;3.0;0.0
2.0;1753881172.711902;17.824575;0.96;-1.8;-0.33;0.490074;-0.890411;0.024453;102.5;127.0;0.0;2.0;3.0;0.0
2.0;1753881172.716494;17.75825;0.95;-1.67;-0.36;0.490502;-0.889306;0.024561;100.1;127.0;0.0;2.0;3.0;0.0
2.0;1753881172.721088;17.803452;0.89;-1.7;-0.27;0.489582;-0.890011;0.024318;101.8;127.0;0.0;2.0;3.0;0.0
2.0;1753881172.725681;17.800104;0.92;-1.77;-0.32;0.487947;-0.889591;0.023416;102.1;127.0;0.0;2.0;3.0;0.0
2.0;1753881172.730274;17.819969;0.86;-1.75;-0.35;0.490106;-0.891062;0.024538;102.5;127.0;0.0;2.0;3.0;0.0
2.0;1753881172.734867;17.819426;0.96;-1.72;-0.38;0.490017;-0.890342;0.024189;100.8;127.0;0.0;2.0;3.0;0.0
2.0;1753881172.73946;17.822786;0.98;-1.83;-0.35;0.490057;-0.89128;0.023461;101.7;127.0;0.0;2.0;3.0;0.0
2.0;1753881172.744053;17.800751;1.0;-1.84;-0.34;0.489199;-0.891414;0.024383;102.7;127.0;0.0;2.0;3.0;0.0
2.0;1753881172.74886;17.8125;0.91;-1.75;-0.35;0.489098;-0.891088;0.024766;102.0;127.0;0.0;2.0;3.0;0.0
2.0;1753881172.753453;17.854529;1.01;-1.86;-0.53;0.488973;-0.890622;0.024454;101.2;127.0;0.0;2.0;3.0;0.0
2.0;1753881172.758046;17.801851;0.85;-1.72;-0.25;0.489615;-0.890202;0.024407;100.8;127.0;0.0;2.0;3.0;0.0
2.0;1753881172.762639;17.86783;0.88;-1.76;-0.26;0.488428;-0.889891;0.024089;100.3;127.0;0.0;2.0;3.0;0.0
2.0;1753881172.767232;17.794465;1.03;-1.72;-0.31;0.489451;-0.890533;0.025095;103.3;127.0;0.0;2.0;3.0;0.0
2.0;1753881172.771826;17.797525;0.89;-1.74;-0.29;0.489502;-0.890425;0.025349;101.0;127.0;0.0;2.0;3.0;0.0
2.0;1753881172.776419;17.832459;0.84;-1.79;-0.37;0.48932;-0.88962;0.025319;101.1;127.0;0.0;2.0;3.0;0.0
2.0;1753881172.781012;17.871892;0.84;-1.61;-0.28;0.488871;-0.891014;0.026768;100.7;127.0;0.0;2.0;3.0;0.0
2.0;1753881172.785605;17.809507;0.88;-1.63;-0.29;0.489198;-0.890255;0.025324;101.2;127.0;0.0;2.0;3.0;0.0
2.0;1753881172.790198;17.828375;0.94;-1.77;-0.25;0.490405;-0.890218;0.026416;102.1;127.0;0.0;2.0;3.0;0.0
2.0;1753881172.794791;17.810065;0.92;-1.69;-0.28;0.49194;-0.889629;0.026775;104.3;127.0;0.0;2.0;3.0;0.0
2.0;1753881172.799384;17.838909;0.88;-1.73;-0.28;0.489968;-0.891048;0.027993;101.8;127.0;0.0;2.0;3.0;0.0
2.0;1753881172.803978;17.79325;0.93;-1.66;-0.23;0.489447;-0.88967;0.026307;102.7;127.0;0.0;2.0;3.0;0.0
2.0;1753881172.80857;17.80915;0.88;-1.72;-0.29;0.489858;-0.890399;0.026529;102.3;127.0;0.0;2.0;3.0;0.0
2.0;1753881172.81704;17.8125;0.91;-1.75;-0.28;0.49044;-0.889868;0.026474;102.0;127.0;0.0;2.0;3.0;0.0
2.0;1753881172.821633;17.810568;1.0;-1.72;-0.29;0.490019;-0.890406;0.027885;101.3;127.0;0.0;2.0;3.0;0.0
2.0;1753881172.826226;17.8024;0.87;-1.78;-0.2;0.489986;-0.889546;0.02687;100.9;127.0;0.0;2.0;3.0;0.0
2.0;1753881172.830819;17.866555;0.91;-1.78;-0.22;0.492021;-0.890641;0.02663;103.2;127.0;0.0;2.0;3.0;0.0
2.0;1753881172.835412;17.845468;0.87;-1.64;-0.32;0.49139;-0.889585;0.027085;102.7;127.0;0.0;2.0;3.0;0.0
2.0;1753881172.84323;17.835938;0.91;-1.61;-0.28;0.491172;-0.889502;0.026718;102.0;127.0;0.0;2.0;3.0;0.0
2.0;1753881172.847823;17.791578;0.88;-1.43;-0.23;0.491266;-0.890029;0.027598;101.0;127.0;0.0;2.0;3.0;0.0
2.0;1753881172.852416;17.824622;0.89;-1.68;-0.23;0.490537;-0.88974;0.026395;101.6;127.0;0.0;2.0;3.0;0.0
2.0;1753881172.85701;17.788289;0.95;-1.61;-0.25;0.492139;-0.889198;0.024907;102.0;127.0;0.0;2.0;3.0;0.0
2.0;1753881172.861602;17.855907;0.81;-1.53;-0.27;0.490989;-0.889131;0.025538;100.7;127.0;0.0;2.0;3.0;0.0
2.0;1753881172.866196;17.814489;0.91;-1.56;-0.34;0.489965;-0.88876;0.025962;101.7;127.0;0.0;2.0;3.0;0.0
2.0;1753881172.870789;17.879338;0.84;-1.63;-0.34;0.491188;-0.890525;0.025462;103.1;127.0;0.0;2.0;3.0;0.0
2.0;1753881172.875382;17.884436;0.87;-1.58;-0.33;0.489848;-0.88863;0.026077;103.7;127.0;0.0;2.0;3.0;0.0
2.0;1753881172.879975;17.848668;0.79;-1.69;-0.33;0.489816;-0.889223;0.024591;100.9;127.0;0.0;2.0;3.0;0.0
2.0;1753881172.884568;17.813217;0.83;-1.74;-0.36;0.491333;-0.888505;0.024162;100.3;127.0;0.0;2.0;3.0;0.0
2.0;1753881172.88893;17.835938;0.84;-1.68;-0.35;0.490562;-0.88938;0.024766;102.0;127.0;0.0;2.0;3.0;0.0
2.0;1753881172.893523;17.860746;0.79;-1.64;-0.43;0.490693;-0.889507;0.024385;104.0;127.0;0.0;2.0;3.0;0.0
2.0;1753881172.898116;17.84702;0.84;-1.63;-0.41;0.490514;-0.889018;0.024976;102.1;127.0;0.0;2.0;3.0;0.0
2.0;1753881172.90271;17.840741;0.77;-1.58;-0.33;0.491896;-0.890359;0.02407;102.0;127.0;0.0;2.0;3.0;0.0
2.0;1753881172.907302;17.841842;0.8;-1.62;-0.3;0.491072;-0.889853;0.023835;101.7;127.0;0.0;2.0;3.0;0.0
2.0;1753881172.911896;17.798816;0.88;-1.64;-0.31;0.491436;-0.889888;0.023654;103.1;127.0;0.0;2.0;3.0;0.0
2.0;1753881172.916489;17.837202;0.84;-1.74;-0.34;0.490465;-0.889557;0.025357;101.4;127.0;0.0;2.0;3.0;0.0
2.0;1753881172.921082;17.882857;0.8;-1.69;-0.25;0.49156;-0.8906;0.023516;101.9;127.0;0.0;2.0;3.0;0.0
2.0;1753881172.925675;17.852295;0.82;-1.67;-0.26;0.491337;-0.890126;0.024489;101.7;127.0;0.0;2.0;3.0;0.0
2.0;1753881172.930268;17.842938;0.82;-1.66;-0.36;0.491429;-0.888982;0.02491;101.1;127.0;0.0;2.0;3.0;0.0
2.0;1753881172.934862;17.836098;0.85;-1.61;-0.3;0.491408;-0.889328;0.024523;103.4;127.0;0.0;2.0;3.0;0.0
2.0;1753881172.939454;17.828476;0.82;-1.59;-0.19;0.49134;-0.889898;0.024347;101.8;127.0;0.0;2.0;3.0;0.0
2.0;1753881172.944048;17.825426;0.83;-1.5;-0.26;0.491223;-0.889475;0.025159;103.1;127.0;0.0;2.0;3.0;0.0
2.0;1753881172.94996;17.835938;0.84;-1.61;-0.28;0.491904;-0.88999;0.024766;102.0;127.0;0.0;2.0;3.0;0.0
2.0;1753881172.954553;17.83535;0.77;-1.65;-0.26;0.491047;-0.88917;0.025974;100.1;127.0;0.0;2.0;3.0;0.0
2.0;1753881172.959146;17.84256;0.84;-1.59;-0.27;0.491532;-0.889123;0.023758;100.8;127.0;0.0;2.0;3.0;0.0
2.0;1753881172.96374;17.858099;0.82;-1.65;-0.28;0.492767;-0.888873;0.025348;101.0;127.0;0.0;2.0;3.0;0.0
2.0;1753881172.968332;17.79505;0.79;-1.59;-0.3;0.490755;-0.888829;0.024562;102.4;127.0;0.0;2.0;3.0;0.0
2.0;1753881172.972926;17.820429;0.76;-1.63;-0.27;0.490485;-0.888496;0.024421;102.5;127.0;0.0;2.0;3.0;0.0
2.0;1753881172.98073;17.835938;0.84;-1.61;-0.28;0.490562;-0.888648;0.0244;102.0;127.0;0.0;2.0;3.0;0.0
2.0;1753881172.980869;17.902344;0.98;-1.61;-0.35;0.491904;-0.890234;0.026108;102.0;127.0;0.0;2.0;3.0;0.0
2.0;1753881172.985436;17.902344;0.91;-1.61;-0.28;0.491782;-0.889014;0.024644;102.0;127.0;0.0;2.0;3.0;0.0
2.0;1753881172.990247;17.902344;0.91;-1.61;-0.28;0.488244;-0.891454;0.0244;102.0;127.0;0.0;2.0;3.0;0.0
2.0;1753881172.994579;17.902344;0.84;-1.68;-0.35;0.491416;-0.889624;0.024278;102.0;127.0;0.0;2.0;3.0;0.0
2.0;1753881172.999152;17.835938;0.84;-1.75;-0.35;0.490928;-0.8906;0.024766;102.0;127.0;0.0;2.0;3.0;0.0
2.0;1753881173.003745;17.8461;0.88;-1.73;-0.22;0.48976;-0.889664;0.024691;102.6;127.0;0.0;2.0;3.0;0.0
2.0;1753881173.008338;17.801201;0.93;-1.74;-0.39;0.490447;-0.889172;0.025527;102.5;127.0;0.0;2.0;3.0;0.0
2.0;1753881173.012931;17.819508;0.9;-1.86;-0.32;0.489228;-0.889592;0.024418;104.6;127.0;0.0;2.0;3.0;0.0
2.0;1753881173.017524;17.809276;0.74;-1.67;-0.32;0.489705;-0.890836;0.024568;98.1;127.0;0.0;2.0;3.0;0.0
2.0;1753881173.022118;17.862869;0.81;-1.8;-0.24;0.491231;-0.890617;0.024654;103.9;127.0;0.0;2.0;3.0;0.0
2.0;1753881173.026711;17.807083;0.76;-1.75;-0.39;0.49108;-0.888967;0.02492;99.9;127.0;0.0;2.0;3.0;0.0
2.0;1753881173.031304;17.878142;0.91;-1.78;-0.36;0.493018;-0.890973;0.023948;101.8;127.0;0.0;2.0;3.0;0.0
2.0;1753881173.035897;17.846793;0.77;-1.7;-0.35;0.489943;-0.889988;0.025209;101.4;127.0;0.0;2.0;3.0;0.0
2.0;1753881173.04049;17.883363;0.88;-1.92;-0.28;0.490493;-0.889841;0.024805;105.9;127.0;0.0;2.0;3.0;0.0
2.0;1753881173.045083;17.813809;0.94;-1.8;-0.23;0.488513;-0.890964;0.02425;103.3;127.0;0.0;2.0;3.0;0.0
2.0;1753881173.049676;17.820507;0.83;-1.66;-0.36;0.49026;-0.89061;0.025849;101.4;127.0;0.0;2.0;3.0;0.0
2.0;1753881173.05427;17.869654;0.89;-1.79;-0.29;0.489607;-0.890289;0.025079;103.5;127.0;0.0;2.0;3.0;0.0
2.0;1753881173.058863;17.824503;0.82;-1.72;-0.34;0.492159;-0.89016;0.024333;101.9;127.0;0.0;2.0;3.0;0.0
2.0;1753881173.063456;17.809482;0.81;-1.69;-0.35;0.490229;-0.891413;0.025025;99.0;127.0;0.0;2.0;3.0;0.0
2.0;1753881173.068049;17.801778;0.94;-1.78;-0.29;0.490759;-0.891403;0.024712;104.7;127.0;0.0;2.0;3.0;0.0
2.0;1753881173.072642;17.86048;0.87;-1.76;-0.3;0.491801;-0.890785;0.023766;100.8;127.0;0.0;2.0;3.0;0.0
2.0;1753881173.077235;17.79501;0.88;-1.85;-0.31;0.490888;-0.890192;0.02427;104.1;127.0;0.0;2.0;3.0;0.0
2.0;1753881173.081828;17.845923;0.91;-1.85;-0.29;0.490044;-0.890983;0.02442;104.5;127.0;0.0;2.0;3.0;0.0
2.0;1753881173.086422;17.826975;0.91;-1.74;-0.36;0.488677;-0.891841;0.023421;105.9;127.0;0.0;2.0;3.0;0.0
2.0;1753881173.091014;17.829276;0.93;-1.88;-0.28;0.491527;-0.89077;0.0243;102.4;127.0;0.0;2.0;3.0;0.0
2.0;1753881173.095608;17.850724;1.05;-1.74;-0.29;0.489518;-0.892955;0.025193;104.8;127.0;0.0;2.0;3.0;0.0
2.0;1753881173.100201;17.785005;0.91;-1.76;-0.33;0.490129;-0.891586;0.026392;106.9;127.0;0.0;2.0;3.0;0.0
2.0;1753881173.10741;17.835938;0.91;-1.75;-0.28;0.490562;-0.891088;0.024644;103.0;127.0;0.0;2.0;3.0;0.0
2.0;1753881173.112003;17.810059;0.96;-1.75;-0.26;0.491556;-0.890768;0.025255;100.0;127.0;0.0;2.0;3.0;0.0
2.0;1753881173.116596;17.819075;0.9;-1.72;-0.28;0.489732;-0.888722;0.025181;105.2;127.0;0.0;2.0;3.0;0.0
2.0;1753881173.121189;17.801153;0.95;-1.72;-0.27;0.491535;-0.891249;0.023657;103.6;127.0;0.0;2.0;3.0;0.0
2.0;1753881173.125782;17.802964;0.79;-1.45;-0.36;0.488943;-0.890122;0.025066;100.6;127.0;0.0;2.0;3.0;0.0
2.0;1753881173.13105;17.835938;0.84;-1.61;-0.35;0.490562;-0.891088;0.024644;103.0;127.0;0.0;2.0;3.0;0.0
2.0;1753881173.135643;17.816658;0.84;-1.63;-0.25;0.489373;-0.890656;0.025025;105.0;127.0;0.0;2.0;3.0;0.0
2.0;1753881173.140236;17.795541;0.82;-1.64;-0.35;0.491739;-0.890509;0.024163;105.0;127.0;0.0;2.0;3.0;0.0
2.0;1753881173.14483;17.805427;0.86;-1.72;-0.38;0.489858;-0.891434;0.025176;102.3;127.0;0.0;2.0;3.0;0.0
2.0;1753881173.149423;17.852628;0.93;-1.67;-0.36;0.491122;-0.890448;0.025032;104.8;127.0;0.0;2.0;3.0;0.0
2.0;1753881173.154016;17.859069;0.87;-1.68;-0.41;0.490797;-0.890538;0.025869;105.1;127.0;0.0;2.0;3.0;0.0
2.0;1753881173.158609;17.807283;0.86;-1.65;-0.3;0.492707;-0.890218;0.024948;101.1;127.0;0.0;2.0;3.0;0.0
2.0;1753881173.163202;17.816893;0.84;-1.6;-0.32;0.490338;-0.890161;0.025291;104.4;127.0;0.0;2.0;3.0;0.0
2.0;1753881173.167795;17.832387;0.79;-1.67;-0.34;0.491766;-0.890349;0.025491;102.1;127.0;0.0;2.0;3.0;0.0
2.0;1753881173.17499;17.828125;0.91;-1.68;-0.35;0.492026;-0.88999;0.024888;103.0;127.0;0.0;2.0;3.0;0.0
2.0;1753881173.179583;17.778515;0.9;-1.7;-0.33;0.492538;-0.889948;0.025992;105.0;127.0;0.0;2.0;3.0;0.0
2.0;1753881173.184176;17.859594;0.96;-1.65;-0.4;0.490778;-0.889564;0.023975;100.0;127.0;0.0;2.0;3.0;0.0
2.0;1753881173.188769;17.869947;0.94;-1.68;-0.39;0.49028;-0.888494;0.025313;101.1;127.0;0.0;2.0;3.0;0.0
2.0;1753881173.193362;17.894448;0.96;-1.7;-0.28;0.492259;-0.889786;0.02542;101.1;127.0;0.0;2.0;3.0;0.0
2.0;1753881173.197956;17.840602;0.9;-1.74;-0.38;0.491782;-0.889062;0.02542;105.8;127.0;0.0;2.0;3.0;0.0
2.0;1753881173.202549;17.82705;0.85;-1.67;-0.39;0.491898;-0.889557;0.024073;101.9;127.0;0.0;2.0;3.0;0.0
2.0;1753881173.207142;17.82854;1.02;-1.64;-0.4;0.491463;-0.889063;0.024477;106.5;127.0;0.0;2.0;3.0;0.0
2.0;1753881173.211735;17.846661;0.89;-1.65;-0.33;0.490623;-0.890389;0.025547;104.1;127.0;0.0;2.0;3.0;0.0
2.0;1753881173.216328;17.830614;0.93;-1.58;-0.37;0.490975;-0.888105;0.025279;101.6;127.0;0.0;2.0;3.0;0.0
2.0;1753881173.22377;17.828125;0.91;-1.68;-0.35;0.490684;-0.888526;0.0244;103.0;127.0;0.0;2.0;3.0;0.0
2.0;1753881173.228363;17.821487;0.94;-1.63;-0.32;0.490424;-0.888523;0.024691;105.0;127.0;0.0;2.0;3.0;0.0
2.0;1753881173.232956;17.834127;0.97;-1.61;-0.34;0.489812;-0.888956;0.025452;103.8;127.0;0.0;2.0;3.0;0.0
2.0;1753881173.237549;17.817953;0.86;-1.72;-0.25;0.48897;-0.888938;0.024495;105.4;127.0;0.0;2.0;3.0;0.0
2.0;1753881173.242142;17.826691;0.85;-1.63;-0.28;0.492196;-0.890453;0.025142;102.1;127.0;0.0;2.0;3.0;0.0
2.0;1753881173.246736;17.788583;0.82;-1.64;-0.31;0.490865;-0.890743;0.024094;107.2;127.0;0.0;2.0;3.0;0.0
2.0;1753881173.251329;17.82334;0.96;-1.68;-0.36;0.490256;-0.889742;0.025304;103.2;127.0;0.0;2.0;3.0;0.0
2.0;1753881173.255922;17.818619;0.88;-1.61;-0.39;0.490183;-0.891165;0.025419;99.2;127.0;0.0;2.0;3.0;0.0
2.0;1753881173.260515;17.790544;0.83;-1.68;-0.43;0.489566;-0.889516;0.025276;98.8;127.0;0.0;2.0;3.0;0.0
2.0;1753881173.26591;17.828125;0.84;-1.68;-0.35;0.490074;-0.890966;0.02562;103.0;127.0;0.0;2.0;3.0;0.0
2.0;1753881173.270503;17.82629;0.8;-1.67;-0.37;0.490642;-0.890566;0.026048;105.5;127.0;0.0;2.0;3.0;0.0
2.0;1753881173.275096;17.824764;0.84;-1.6;-0.35;0.490362;-0.889522;0.025991;101.2;127.0;0.0;2.0;3.0;0.0
2.0;1753881173.279689;17.825909;0.86;-1.82;-0.27;0.490081;-0.890054;0.025465;100.9;127.0;0.0;2.0;3.0;0.0
2.0;1753881173.284282;17.776083;0.85;-1.69;-0.39;0.491249;-0.890124;0.026635;104.3;127.0;0.0;2.0;3.0;0.0
2.0;1753881173.288876;17.837997;0.8;-1.64;-0.35;0.490607;-0.890378;0.024628;102.0;127.0;0.0;2.0;3.0;0.0
2.0;1753881173.293469;17.803659;0.84;-1.69;-0.35;0.491474;-0.891792;0.026214;102.7;127.0;0.0;2.0;3.0;0.0
2.0;1753881173.298062;17.85473;0.79;-1.62;-0.31;0.492022;-0.889906;0.026987;103.4;127.0;0.0;2.0;3.0;0.0
2.0;1753881173.302655;17.92457;0.88;-1.67;-0.36;0.492509;-0.889758;0.026158;100.4;127.0;0.0;2.0;3.0;0.0
2.0;1753881173.307248;17.841169;0.9;-1.59;-0.27;0.491814;-0.889845;0.026097;103.2;127.0;0.0;2.0;3.0;0.0
2.0;1753881173.31174;17.828125;0.91;-1.61;-0.35;0.492392;-0.889502;0.025864;103.0;127.0;0.0;2.0;3.0;0.0
2.0;1753881173.316333;17.858896;0.88;-1.52;-0.35;0.493197;-0.888817;0.025128;103.5;127.0;0.0;2.0;3.0;0.0
2.0;1753881173.320926;17.831792;1.01;-1.69;-0.37;0.491815;-0.889716;0.027562;100.3;127.0;0.0;2.0;3.0;0.0
2.0;1753881173.325519;17.768306;0.99;-1.66;-0.31;0.492344;-0.889022;0.026606;102.9;127.0;0.0;2.0;3.0;0.0
2.0;1753881173.330112;17.757095;0.9;-1.57;-0.4;0.491545;-0.889966;0.027404;98.7;127.0;0.0;2.0;3.0;0.0
2.0;1753881173.334706;17.829864;0.93;-1.65;-0.28;0.491945;-0.888495;0.027434;104.0;127.0;0.0;2.0;3.0;0.0
2.0;1753881173.339299;17.873693;0.86;-1.65;-0.31;0.488172;-0.889043;0.027124;105.6;127.0;0.0;2.0;3.0;0.0
2.0;1753881173.343892;17.835013;0.91;-1.59;-0.36;0.490208;-0.888788;0.02609;102.4;127.0;0.0;2.0;3.0;0.0
2.0;1753881173.348485;17.829489;0.97;-1.57;-0.33;0.489359;-0.890825;0.027574;100.0;127.0;0.0;2.0;3.0;0.0
2.0;1753881173.353078;17.853797;0.9;-1.52;-0.26;0.490888;-0.89032;0.026478;101.8;127.0;0.0;2.0;3.0;0.0
2.0;1753881173.357671;17.828331;1.01;-1.53;-0.28;0.489857;-0.890231;0.02541;103.2;127.0;0.0;2.0;3.0;0.0
2.0;1753881173.36348;17.855469;0.98;-1.61;-0.28;0.489952;-0.889746;0.02684;103.0;127.0;0.0;2.0;3.0;0.0
2.0;1753881173.368073;17.877043;0.95;-1.62;-0.25;0.489983;-0.890545;0.026203;104.2;127.0;0.0;2.0;3.0;0.0
2.0;1753881173.372666;17.857063;1.01;-1.54;-0.29;0.488871;-0.890593;0.027117;104.4;127.0;0.0;2.0;3.0;0.0
2.0;1753881173.37726;17.89255;1.0;-1.63;-0.25;0.490568;-0.888092;0.026527;101.6;127.0;0.0;2.0;3.0;0.0
2.0;1753881173.381853;17.902683;0.95;-1.6;-0.27;0.488501;-0.888014;0.027222;100.4;127.0;0.0;2.0;3.0;0.0
2.0;1753881173.386446;17.838372;0.87;-1.62;-0.25;0.491661;-0.88909;0.025685;103.8;127.0;0.0;2.0;3.0;0.0
2.0;1753881173.391039;17.750026;0.95;-1.67;-0.22;0.490303;-0.888946;0.027088;101.9;127.0;0.0;2.0;3.0;0.0
2.0;1753881173.395632;17.890911;0.92;-1.63;-0.36;0.492721;-0.88861;0.02424;102.8;127.0;0.0;2.0;3.0;0.0
2.0;1753881173.400225;17.809503;0.88;-1.66;-0.29;0.490397;-0.888407;0.025092;103.5;127.0;0.0;2.0;3.0;0.0
2.0;1753881173.40546;17.855469;0.91;-1.68;-0.28;0.490562;-0.88938;0.025864;103.0;127.0;0.0;2.0;3.0;0.0
2.0;1753881173.410053;17.84675;0.91;-1.79;-0.23;0.491453;-0.890014;0.02436;102.9;127.0;0.0;2.0;3.0;0.0
2.0;1753881173.414646;17.846568;0.92;-1.68;-0.27;0.491345;-0.887704;0.025978;101.4;127.0;0.0;2.0;3.0;0.0
2.0;1753881173.419239;17.922185;0.87;-1.62;-0.31;0.490047;-0.890552;0.026328;99.6;127.0;0.0;2.0;3.0;0.0
2.0;1753881173.423832;17.875437;0.86;-1.6;-0.36;0.490403;-0.889507;0.026792;101.0;127.0;0.0;2.0;3.0;0.0
2.0;1753881173.428426;17.885374;0.82;-1.63;-0.34;0.493043;-0.891985;0.025499;103.9;127.0;0.0;2.0;3.0;0.0
2.0;1753881173.433019;17.825356;0.86;-1.64;-0.37;0.492181;-0.890301;0.025264;103.0;127.0;0.0;2.0;3.0;0.0
2.0;1753881173.437612;17.892386;0.81;-1.67;-0.34;0.492639;-0.890874;0.025904;104.1;127.0;0.0;2.0;3.0;0.0
2.0;1753881173.442205;17.88152;0.83;-1.84;-0.32;0.492988;-0.88905;0.025441;103.6;127.0;0.0;2.0;3.0;0.0
2.0;1753881173.44882;17.855469;0.84;-1.68;-0.35;0.492514;-0.890478;0.025742;103.0;127.0;0.0;2.0;3.0;0.0
2.0;1753881173.453413;17.828721;0.93;-1.7;-0.33;0.492195;-0.889656;0.025353;103.3;127.0;0.0;2.0;3.0;0.0
2.0;1753881173.458006;17.878222;0.84;-1.58;-0.33;0.493477;-0.890063;0.025047;102.5;127.0;0.0;2.0;3.0;0.0
2.0;1753881173.4626;17.925323;0.74;-1.59;-0.37;0.493775;-0.889223;0.027119;103.3;127.0;0.0;2.0;3.0;0.0
2.0;1753881173.467193;17.840309;0.75;-1.59;-0.35;0.490604;-0.891163;0.025682;102.6;127.0;0.0;2.0;3.0;0.0
2.0;1753881173.471786;17.847794;1.01;-1.57;-0.38;0.492504;-0.891131;0.025819;104.1;127.0;0.0;2.0;3.0;0.0
2.0;1753881173.476379;17.893871;0.89;-1.66;-0.33;0.491093;-0.892614;0.027615;104.6;127.0;0.0;2.0;3.0;0.0
2.0;1753881173.480972;17.823231;0.96;-1.66;-0.35;0.491026;-0.89023;0.024951;102.3;127.0;0.0;2.0;3.0;0.0
2.0;1753881173.485565;17.868342;0.81;-1.6;-0.36;0.490882;-0.890396;0.02709;103.2;127.0;0.0;2.0;3.0;0.0
2.0;1753881173.490158;17.808542;0.98;-1.67;-0.3;0.491119;-0.890063;0.02589;100.9;127.0;0.0;2.0;3.0;0.0
2.0;1753881173.49518;17.855469;0.91;-1.61;-0.35;0.49044;-0.890356;0.026474;103.0;127.0;0.0;2.0;3.0;0.0
2.0;1753881173.499773;17.87107;0.89;-1.57;-0.34;0.489403;-0.889683;0.026006;102.8;127.0;0.0;2.0;3.0;0.0
2.0;1753881173.504366;17.825241;0.94;-1.56;-0.34;0.489643;-0.89146;0.025546;102.5;127.0;0.0;2.0;3.0;0.0
2.0;1753881173.508959;17.8197;0.93;-1.59;-0.31;0.491442;-0.892049;0.026408;101.7;127.0;0.0;2.0;3.0;0.0
2.0;1753881173.513552;17.848705;0.85;-1.68;-0.39;0.490228;-0.890883;0.025467;103.3;127.0;0.0;2.0;3.0;0.0
2.0;1753881173.518146;17.875606;0.93;-1.51;-0.33;0.49113;-0.890247;0.026151;102.9;127.0;0.0;2.0;3.0;0.0
2.0;1753881173.522739;17.870347;0.88;-1.58;-0.3;0.491545;-0.890954;0.02559;104.2;127.0;0.0;2.0;3.0;0.0
2.0;1753881173.527332;17.830688;0.89;-1.65;-0.33;0.491135;-0.890475;0.026387;103.7;127.0;0.0;2.0;3.0;0.0
2.0;1753881173.531925;17.832058;0.89;-1.73;-0.3;0.491091;-0.890383;0.026007;105.0;127.0;0.0;2.0;3.0;0.0
2.0;1753881173.536518;17.878764;0.96;-1.61;-0.36;0.49117;-0.890292;0.025871;105.1;127.0;0.0;2.0;3.0;0.0
2.0;1753881173.541111;17.849658;0.88;-1.61;-0.34;0.489473;-0.890193;0.025519;104.5;127.0;0.0;2.0;3.0;0.0
2.0;1753881173.545704;17.8664;0.87;-1.57;-0.32;0.491103;-0.889388;0.025345;105.0;127.0;0.0;2.0;3.0;0.0
2.0;1753881173.550298;17.83269;0.86;-1.7;-0.28;0.490227;-0.890334;0.028027;104.1;127.0;0.0;2.0;3.0;0.0
2.0;1753881173.554891;17.798494;0.91;-1.68;-0.25;0.491547;-0.890032;0.024928;106.2;127.0;0.0;2.0;3.0;0.0
2.0;1753881173.559484;17.836237;0.86;-1.7;-0.31;0.492415;-0.889971;0.024598;105.3;127.0;0.0;2.0;3.0;0.0
2.0;1753881173.564077;17.85247;0.92;-1.6;-0.31;0.491872;-0.890578;0.025357;105.9;127.0;0.0;2.0;3.0;0.0
2.0;1753881173.56867;17.859663;0.78;-1.66;-0.29;0.490961;-0.890585;0.02626;104.9;127.0;0.0;2.0;3.0;0.0
2.0;1753881173.573263;17.792557;0.89;-1.62;-0.32;0.490874;-0.890121;0.026837;104.6;127.0;0.0;2.0;3.0;0.0
2.0;1753881173.577856;17.841161;0.9;-1.68;-0.26;0.493257;-0.890331;0.026365;105.5;127.0;0.0;2.0;3.0;0.0
2.0;1753881173.58245;17.842156;0.89;-1.65;-0.28;0.491837;-0.889892;0.025385;105.4;127.0;0.0;2.0;3.0;0.0
2.0;1753881173.587042;17.849546;0.83;-1.63;-0.28;0.492893;-0.889584;0.025841;105.9;127.0;0.0;2.0;3.0;0.0
2.0;1753881173.591636;17.878741;0.74;-1.65;-0.32;0.49139;-0.891628;0.025302;104.9;127.0;0.0;2.0;3.0;0.0
2.0;1753881173.59871;17.835938;0.84;-1.68;-0.28;0.49166;-0.890722;0.025254;106.0;127.0;0.0;2.0;3.0;0.0
2.0;1753881173.603303;17.809395;0.91;-1.7;-0.25;0.49174;-0.889642;0.025862;107.0;127.0;0.0;2.0;3.0;0.0
2.0;1753881173.607896;17.795859;0.79;-1.67;-0.18;0.491318;-0.889812;0.025253;105.9;127.0;0.0;2.0;3.0;0.0
2.0;1753881173.61249;17.77394;0.9;-1.71;-0.22;0.490334;-0.88862;0.025375;106.1;127.0;0.0;2.0;3.0;0.0
2.0;1753881173.617082;17.856084;0.85;-1.74;-0.26;0.492544;-0.889949;0.024847;105.5;127.0;0.0;2.0;3.0;0.0
2.0;1753881173.621676;17.81162;0.89;-1.71;-0.26;0.491521;-0.888715;0.024647;104.7;127.0;0.0;2.0;3.0;0.0
2.0;1753881173.626269;17.859361;0.91;-1.8;-0.29;0.491018;-0.889804;0.026073;105.3;127.0;0.0;2.0;3.0;0.0
2.0;1753881173.63196;17.835938;0.91;-1.75;-0.21;0.49227;-0.888526;0.023912;106.0;127.0;0.0;2.0;3.0;0.0
2.0;1753881173.636553;17.847696;0.9;-1.77;-0.16;0.490874;-0.889852;0.023325;103.4;127.0;0.0;2.0;3.0;0.0
2.0;1753881173.641146;17.891906;0.95;-1.76;-0.27;0.491901;-0.887896;0.02433;106.4;127.0;0.0;2.0;3.0;0.0
2.0;1753881173.645739;17.793846;0.86;-1.69;-0.16;0.49072;-0.888719;0.024333;106.1;127.0;0.0;2.0;3.0;0.0
2.0;1753881173.650332;17.851643;0.86;-1.73;-0.19;0.490712;-0.888186;0.024051;103.9;127.0;0.0;2.0;3.0;0.0
2.0;1753881173.654926;17.797811;0.84;-1.69;-0.29;0.49235;-0.889504;0.025942;105.0;127.0;0.0;2.0;3.0;0.0
2.0;1753881173.659519;17.84907;0.8;-1.74;-0.27;0.49329;-0.889497;0.024806;104.9;127.0;0.0;2.0;3.0;0.0
2.0;1753881173.664112;17.862653;0.87;-1.73;-0.28;0.491293;-0.891519;0.025716;106.2;127.0;0.0;2.0;3.0;0.0
2.0;1753881173.668705;17.869325;0.89;-1.69;-0.25;0.491071;-0.889383;0.026274;105.3;127.0;0.0;2.0;3.0;0.0
2.0;1753881173.673298;17.813045;0.88;-1.64;-0.38;0.490854;-0.890271;0.025894;107.4;127.0;0.0;2.0;3.0;0.0
2.0;1753881173.67771;17.835938;0.91;-1.68;-0.35;0.49044;-0.890112;0.026108;106.0;127.0;0.0;2.0;3.0;0.0
2.0;1753881173.682303;17.839493;0.99;-1.77;-0.32;0.489813;-0.891415;0.025761;106.0;127.0;0.0;2.0;3.0;0.0
2.0;1753881173.686896;17.864522;0.88;-1.71;-0.29;0.490563;-0.890168;0.026628;105.1;127.0;0.0;2.0;3.0;0.0
2.0;1753881173.69149;17.88563;0.93;-1.71;-0.31;0.490442;-0.89013;0.025256;105.4;127.0;0.0;2.0;3.0;0.0
2.0;1753881173.696082;17.766659;0.92;-1.68;-0.24;0.48922;-0.888618;0.025767;103.8;127.0;0.0;2.0;3.0;0.0
2.0;1753881173.700676;17.845328;0.82;-1.67;-0.3;0.491189;-0.888463;0.025794;109.3;127.0;0.0;2.0;3.0;0.0
2.0;1753881173.705269;17.847865;0.96;-1.63;-0.37;0.491631;-0.892295;0.024158;106.1;127.0;0.0;2.0;3.0;0.0
2.0;1753881173.709862;17.845815;0.95;-1.65;-0.34;0.490764;-0.890228;0.024884;105.8;127.0;0.0;2.0;3.0;0.0
2.0;1753881173.714455;17.866375;0.9;-1.67;-0.3;0.490941;-0.890281;0.024669;106.7;127.0;0.0;2.0;3.0;0.0
2.0;1753881173.719048;17.806803;0.8;-1.61;-0.33;0.489176;-0.890301;0.026294;106.8;127.0;0.0;2.0;3.0;0.0
2.0;1753881173.723642;17.787549;0.85;-1.72;-0.36;0.491837;-0.889687;0.026232;103.9;127.0;0.0;2.0;3.0;0.0
2.0;1753881173.73021;17.855469;0.84;-1.68;-0.35;0.49044;-0.890112;0.026108;106.0;127.0;0.0;2.0;3.0;0.0
2.0;1753881173.734803;17.89911;0.73;-1.68;-0.25;0.491814;-0.890471;0.026118;105.0;127.0;0.0;2.0;3.0;0.0
2.0;1753881173.739396;17.809678;0.88;-1.69;-0.34;0.48958;-0.891676;0.026233;106.6;127.0;0.0;2.0;3.0;0.0
2.0;1753881173.74399;17.857419;0.88;-1.61;-0.31;0.490889;-0.889764;0.025393;103.2;127.0;0.0;2.0;3.0;0.0
2.0;1753881173.748582;17.879975;0.9;-1.68;-0.35;0.491296;-0.890953;0.02579;108.3;127.0;0.0;2.0;3.0;0.0
2.0;1753881173.753176;17.862585;0.81;-1.68;-0.33;0.49269;-0.889759;0.026151;109.2;127.0;0.0;2.0;3.0;0.0
2.0;1753881173.757769;17.848187;0.88;-1.65;-0.3;0.488782;-0.890134;0.024436;108.0;127.0;0.0;2.0;3.0;0.0
2.0;1753881173.762362;17.818249;0.75;-1.71;-0.26;0.493027;-0.8914;0.025533;106.8;127.0;0.0;2.0;3.0;0.0
2.0;1753881173.77079;17.855469;0.84;-1.68;-0.21;0.491294;-0.890478;0.024888;106.0;127.0;0.0;2.0;3.0;0.0
2.0;1753881173.775383;17.850057;0.89;-1.7;-0.24;0.492187;-0.890692;0.02484;104.3;127.0;0.0;2.0;3.0;0.0
2.0;1753881173.779976;17.851289;0.82;-1.67;-0.21;0.491061;-0.8904;0.025634;105.5;127.0;0.0;2.0;3.0;0.0
2.0;1753881173.78457;17.866439;0.91;-1.64;-0.25;0.492318;-0.890008;0.025401;105.9;127.0;0.0;2.0;3.0;0.0
2.0;1753881173.789163;17.913039;0.84;-1.73;-0.22;0.489929;-0.890914;0.024857;105.1;127.0;0.0;2.0;3.0;0.0
2.0;1753881173.793756;17.841416;0.97;-1.59;-0.22;0.490946;-0.890925;0.025446;104.5;127.0;0.0;2.0;3.0;0.0
2.0;1753881173.798349;17.824177;0.92;-1.68;-0.33;0.491773;-0.889433;0.024487;107.3;127.0;0.0;2.0;3.0;0.0
2.0;1753881173.802942;17.855654;0.87;-1.64;-0.22;0.491481;-0.890347;0.025309;106.2;127.0;0.0;2.0;3.0;0.0
2.0;1753881173.807535;17.852026;0.96;-1.59;-0.35;0.491933;-0.890306;0.024846;105.9;127.0;0.0;2.0;3.0;0.0
2.0;1753881173.81494;17.855469;0.91;-1.61;-0.28;0.49105;-0.890356;0.025376;106.0;127.0;0.0;2.0;3.0;0.0
2.0;1753881173.819533;17.859667;0.89;-1.59;-0.29;0.491426;-0.889427;0.026099;106.6;127.0;0.0;2.0;3.0;0.0
2.0;1753881173.824126;17.881232;0.93;-1.64;-0.27;0.488799;-0.890668;0.025631;106.8;127.0;0.0;2.0;3.0;0.0
2.0;1753881173.82872;17.828785;0.89;-1.71;-0.27;0.489862;-0.89071;0.026076;108.3;127.0;0.0;2.0;3.0;0.0
2.0;1753881173.833312;17.849795;0.94;-1.69;-0.3;0.489894;-0.888513;0.024105;106.1;127.0;0.0;2.0;3.0;0.0
2.0;1753881173.837906;17.849398;0.93;-1.67;-0.3;0.492146;-0.890756;0.02509;104.9;127.0;0.0;2.0;3.0;0.0
2.0;1753881173.842499;17.849202;0.84;-1.62;-0.3;0.491845;-0.890127;0.025111;107.9;127.0;0.0;2.0;3.0;0.0
2.0;1753881173.847092;17.835726;0.87;-1.67;-0.32;0.490189;-0.889189;0.025846;107.3;127.0;0.0;2.0;3.0;0.0
2.0;1753881173.851685;17.892019;0.92;-1.71;-0.28;0.490862;-0.890366;0.025327;105.6;127.0;0.0;2.0;3.0;0.0
2.0;1753881173.856278;17.864293;0.93;-1.72;-0.36;0.490651;-0.889793;0.026553;103.5;127.0;0.0;2.0;3.0;0.0
2.0;1753881173.86067;17.855469;0.91;-1.68;-0.35;0.491416;-0.890112;0.025742;106.0;127.0;0.0;2.0;3.0;0.0
2.0;1753881173.865263;17.863429;0.95;-1.78;-0.23;0.49027;-0.889905;0.025978;103.8;127.0;0.0;2.0;3.0;0.0
2.0;1753881173.869856;17.845757;0.88;-1.68;-0.27;0.490778;-0.889402;0.026846;105.4;127.0;0.0;2.0;3.0;0.0
2.0;1753881173.87445;17.84316;0.9;-1.62;-0.39;0.491912;-0.890442;0.025171;104.9;127.0;0.0;2.0;3.0;0.0
2.0;1753881173.879043;17.854055;0.87;-1.59;-0.32;0.49127;-0.891448;0.025627;106.4;127.0;0.0;2.0;3.0;0.0
2.0;1753881173.883636;17.890255;0.85;-1.72;-0.32;0.490852;-0.891334;0.025729;107.4;127.0;0.0;2.0;3.0;0.0
2.0;1753881173.888229;17.825603;0.92;-1.63;-0.24;0.490779;-0.89119;0.024934;106.1;127.0;0.0;2.0;3.0;0.0
2.0;1753881173.892822;17.857764;0.86;-1.69;-0.22;0.490763;-0.89176;0.024492;105.0;127.0;0.0;2.0;3.0;0.0
2.0;1753881173.897415;17.87964;0.89;-1.79;-0.33;0.490717;-0.889688;0.025907;107.8;127.0;0.0;2.0;3.0;0.0
2.0;1753881173.90613;17.878906;0.84;-1.75;-0.28;0.490928;-0.890234;0.025376;106.0;127.0;0.0;2.0;3.0;0.0
2.0;1753881173.910723;17.895686;0.81;-1.68;-0.29;0.49124;-0.890325;0.0253;105.3;127.0;0.0;2.0;3.0;0.0
2.0;1753881173.915316;17.887178;0.82;-1.83;-0.22;0.490461;-0.890017;0.024001;107.2;127.0;0.0;2.0;3.0;0.0
2.0;1753881173.91991;17.887258;0.82;-1.78;-0.21;0.490834;-0.890169;0.025389;107.4;127.0;0.0;2.0;3.0;0.0
2.0;1753881173.924502;17.868123;0.93;-1.73;-0.35;0.490859;-0.889397;0.025179;106.1;127.0;0.0;2.0;3.0;0.0
2.0;1753881173.929096;17.887399;0.9;-1.75;-0.23;0.48999;-0.889332;0.024902;106.9;127.0;0.0;2.0;3.0;0.0
2.0;1753881173.933689;17.866303;0.89;-1.72;-0.34;0.489938;-0.890597;0.025392;104.4;127.0;0.0;2.0;3.0;0.0
2.0;1753881173.938282;17.88396;0.95;-1.71;-0.29;0.491048;-0.889957;0.024048;105.4;127.0;0.0;2.0;3.0;0.0
2.0;1753881173.942875;17.883766;0.97;-1.71;-0.25;0.491508;-0.889361;0.025675;107.6;127.0;0.0;2.0;3.0;0.0
2.0;1753881173.947468;17.878171;1.07;-1.74;-0.24;0.488862;-0.889136;0.024931;104.9;127.0;0.0;2.0;3.0;0.0
2.0;1753881173.9526;17.878906;0.98;-1.68;-0.28;0.49044;-0.889136;0.025254;106.0;127.0;0.0;2.0;3.0;0.0
2.0;1753881173.955088;17.863281;0.77;-1.75;-0.35;0.492148;-0.891332;0.025254;104.0;127.0;0.0;2.0;3.0;0.0
2.0;1753881173.959659;17.863281;0.91;-1.61;-0.42;0.491782;-0.889624;0.025864;104.0;127.0;0.0;2.0;3.0;0.0
2.0;1753881173.964235;17.863281;1.05;-1.61;-0.35;0.491904;-0.890356;0.023912;104.0;127.0;0.0;2.0;3.0;0.0
2.0;1753881173.96881;17.8125;0.84;-1.68;-0.28;0.490806;-0.8906;0.026352;104.0;127.0;0.0;2.0;3.0;0.0
2.0;1753881173.973445;17.8125;0.84;-1.68;-0.28;0.489342;-0.889868;0.024888;104.0;127.0;0.0;2.0;3.0;0.0
2.0;1753881173.977958;17.8125;0.91;-1.61;-0.28;0.493124;-0.889624;0.025254;104.0;127.0;0.0;2.0;3.0;0.0
2.0;1753881173.984341;17.8125;0.84;-1.75;-0.21;0.490684;-0.890112;0.02379;103.0;127.0;0.0;2.0;3.0;0.0
2.0;1753881173.987103;17.828125;0.91;-1.68;-0.21;0.49105;-0.888892;0.026108;103.0;127.0;0.0;2.0;3.0;0.0
2.0;1753881173.994142;17.828125;0.91;-1.68;-0.28;0.490318;-0.889624;0.024522;103.0;127.0;0.0;2.0;3.0;0.0
2.0;1753881173.996253;17.828125;0.84;-1.68;-0.35;0.49105;-0.890478;0.024156;103.0;127.0;0.0;2.0;3.0;0.0
2.0;1753881174.000846;17.812633;0.75;-1.72;-0.33;0.491367;-0.890136;0.023977;102.0;127.0;0.0;2.0;3.0;0.0
2.0;1753881174.005439;17.820646;0.83;-1.68;-0.42;0.492551;-0.890592;0.023652;102.7;127.0;0.0;2.0;3.0;0.0
2.0;1753881174.010032;17.81525;0.9;-1.64;-0.37;0.491698;-0.890117;0.024144;101.8;127.0;0.0;2.0;3.0;0.0
2.0;1753881174.014626;17.839019;0.85;-1.7;-0.29;0.491665;-0.890349;0.02572;101.5;127.0;0.0;2.0;3.0;0.0
2.0;1753881174.019219;17.831105;0.83;-1.67;-0.26;0.49007;-0.890863;0.02344;103.3;127.0;0.0;2.0;3.0;0.0
2.0;1753881174.023812;17.813348;0.83;-1.73;-0.35;0.491918;-0.891356;0.024137;102.2;127.0;0.0;2.0;3.0;0.0
2.0;1753881174.028405;17.819485;0.91;-1.68;-0.31;0.491477;-0.890799;0.024067;102.3;127.0;0.0;2.0;3.0;0.0
2.0;1753881174.032998;17.826922;0.81;-1.68;-0.35;0.49242;-0.891047;0.024411;102.9;127.0;0.0;2.0;3.0;0.0
2.0;1753881174.037591;17.795002;1.0;-1.76;-0.3;0.490302;-0.890064;0.02505;103.1;127.0;0.0;2.0;3.0;0.0
2.0;1753881174.042184;17.852175;0.84;-1.68;-0.32;0.49157;-0.891202;0.024031;103.9;127.0;0.0;2.0;3.0;0.0
2.0;1753881174.046778;17.82724;0.79;-1.63;-0.38;0.489755;-0.889449;0.0244;103.4;127.0;0.0;2.0;3.0;0.0
2.0;1753881174.05137;17.812818;0.94;-1.7;-0.31;0.491467;-0.890578;0.0229;102.1;127.0;0.0;2.0;3.0;0.0
2.0;1753881174.055964;17.848644;1.01;-1.72;-0.36;0.491172;-0.89138;0.024693;103.3;127.0;0.0;2.0;3.0;0.0
2.0;1753881174.060557;17.849278;0.85;-1.69;-0.34;0.489754;-0.891338;0.024811;103.4;127.0;0.0;2.0;3.0;0.0
2.0;1753881174.06515;17.841801;0.86;-1.63;-0.38;0.491603;-0.890592;0.024446;103.7;127.0;0.0;2.0;3.0;0.0
2.0;1753881174.069743;17.838506;0.96;-1.65;-0.33;0.489809;-0.889783;0.026372;103.1;127.0;0.0;2.0;3.0;0.0
2.0;1753881174.074336;17.807534;0.78;-1.64;-0.33;0.490968;-0.891992;0.024026;102.7;127.0;0.0;2.0;3.0;0.0
2.0;1753881174.07893;17.812816;0.92;-1.74;-0.42;0.490201;-0.890158;0.023906;103.6;127.0;0.0;2.0;3.0;0.0
2.0;1753881174.083522;17.795508;0.87;-1.74;-0.35;0.493281;-0.889518;0.025804;104.1;127.0;0.0;2.0;3.0;0.0
2.0;1753881174.088116;17.827337;0.93;-1.72;-0.35;0.492368;-0.890517;0.024297;103.6;127.0;0.0;2.0;3.0;0.0
2.0;1753881174.092709;17.854765;0.72;-1.68;-0.28;0.491031;-0.891781;0.023762;102.8;127.0;0.0;2.0;3.0;0.0
2.0;1753881174.097302;17.850297;0.85;-1.73;-0.3;0.492781;-0.889097;0.024493;104.4;127.0;0.0;2.0;3.0;0.0
2.0;1753881174.101895;17.826879;0.84;-1.65;-0.35;0.49201;-0.890657;0.023945;103.2;127.0;0.0;2.0;3.0;0.0
2.0;1753881174.106488;17.800776;0.82;-1.61;-0.38;0.491222;-0.890902;0.023328;103.9;127.0;0.0;2.0;3.0;0.0
2.0;1753881174.111081;17.842875;0.85;-1.73;-0.38;0.489051;-0.890312;0.024612;103.3;127.0;0.0;2.0;3.0;0.0
2.0;1753881174.115674;17.802232;0.78;-1.69;-0.38;0.492544;-0.889505;0.025099;102.4;127.0;0.0;2.0;3.0;0.0
2.0;1753881174.120268;17.832816;0.8;-1.68;-0.41;0.494296;-0.890126;0.023919;101.7;127.0;0.0;2.0;3.0;0.0
2.0;1753881174.124861;17.813206;0.86;-1.67;-0.39;0.492273;-0.891166;0.023567;104.2;127.0;0.0;2.0;3.0;0.0
2.0;1753881174.129454;17.785129;0.89;-1.71;-0.39;0.490836;-0.890139;0.023926;103.0;127.0;0.0;2.0;3.0;0.0
2.0;1753881174.134047;17.844451;0.73;-1.66;-0.46;0.490131;-0.889632;0.024584;101.5;127.0;0.0;2.0;3.0;0.0
2.0;1753881174.13864;17.834285;0.77;-1.64;-0.26;0.489314;-0.889892;0.024436;103.7;127.0;0.0;2.0;3.0;0.0
2.0;1753881174.143233;17.81725;0.84;-1.7;-0.4;0.492921;-0.890872;0.024303;102.7;127.0;0.0;2.0;3.0;0.0
2.0;1753881174.147826;17.813951;0.79;-1.67;-0.36;0.490693;-0.890531;0.024701;104.6;127.0;0.0;2.0;3.0;0.0
2.0;1753881174.15242;17.820454;0.83;-1.64;-0.29;0.491635;-0.889468;0.02208;102.2;127.0;0.0;2.0;3.0;0.0
2.0;1753881174.157013;17.831251;0.81;-1.71;-0.29;0.489345;-0.891;0.023795;104.0;127.0;0.0;2.0;3.0;0.0
2.0;1753881174.161606;17.861754;0.76;-1.66;-0.21;0.489992;-0.890702;0.023081;103.2;127.0;0.0;2.0;3.0;0.0
2.0;1753881174.166199;17.807074;0.93;-1.67;-0.33;0.490885;-0.890897;0.022;101.8;127.0;0.0;2.0;3.0;0.0
2.0;1753881174.170792;17.821429;0.82;-1.69;-0.41;0.491456;-0.890237;0.023489;103.2;127.0;0.0;2.0;3.0;0.0
2.0;1753881174.175385;17.85736;0.74;-1.66;-0.32;0.490022;-0.890959;0.026145;104.6;127.0;0.0;2.0;3.0;0.0
2.0;1753881174.179978;17.823872;0.7;-1.72;-0.22;0.489775;-0.891899;0.024711;103.0;127.0;0.0;2.0;3.0;0.0
2.0;1753881174.184572;17.852845;0.8;-1.61;-0.37;0.490248;-0.890161;0.024926;103.0;127.0;0.0;2.0;3.0;0.0
2.0;1753881174.189165;17.792296;0.89;-1.65;-0.29;0.491741;-0.889929;0.0255;101.5;127.0;0.0;2.0;3.0;0.0
2.0;1753881174.193758;17.831312;0.78;-1.64;-0.34;0.491316;-0.890202;0.024685;104.0;127.0;0.0;2.0;3.0;0.0
2.0;1753881174.198351;17.840091;0.83;-1.68;-0.37;0.490371;-0.890085;0.024724;103.8;127.0;0.0;2.0;3.0;0.0
2.0;1753881174.202944;17.810161;0.72;-1.69;-0.31;0.488953;-0.890354;0.023792;103.2;127.0;0.0;2.0;3.0;0.0
2.0;1753881174.207537;17.806795;0.8;-1.7;-0.32;0.488726;-0.889219;0.023904;104.4;127.0;0.0;2.0;3.0;0.0
2.0;1753881174.21213;17.818989;0.89;-1.69;-0.35;0.490688;-0.890328;0.026189;104.4;127.0;0.0;2.0;3.0;0.0
2.0;1753881174.216724;17.818236;0.88;-1.65;-0.4;0.488942;-0.890446;0.024855;102.9;127.0;0.0;2.0;3.0;0.0
2.0;1753881174.221316;17.840711;0.87;-1.68;-0.48;0.489971;-0.890178;0.025831;105.3;127.0;0.0;2.0;3.0;0.0
2.0;1753881174.22591;17.853787;0.78;-1.69;-0.44;0.493532;-0.891048;0.022827;103.8;127.0;0.0;2.0;3.0;0.0
2.0;1753881174.230503;17.870877;0.83;-1.65;-0.43;0.490996;-0.89049;0.024209;103.0;127.0;0.0;2.0;3.0;0.0
2.0;1753881174.235096;17.860692;0.82;-1.75;-0.37;0.492735;-0.890731;0.024505;102.3;127.0;0.0;2.0;3.0;0.0
2.0;1753881174.239689;17.800717;0.92;-1.64;-0.4;0.492349;-0.890793;0.022802;102.9;127.0;0.0;2.0;3.0;0.0
2.0;1753881174.244282;17.804823;0.95;-1.71;-0.37;0.490438;-0.889558;0.023346;104.8;127.0;0.0;2.0;3.0;0.0
2.0;1753881174.248876;17.849577;0.85;-1.64;-0.33;0.49216;-0.890908;0.023729;102.4;127.0;0.0;2.0;3.0;0.0
2.0;1753881174.253468;17.788526;0.83;-1.68;-0.31;0.492032;-0.890177;0.024167;103.4;127.0;0.0;2.0;3.0;0.0
2.0;1753881174.258062;17.804062;0.85;-1.66;-0.4;0.49219;-0.889921;0.024548;104.7;127.0;0.0;2.0;3.0;0.0
2.0;1753881174.262655;17.886223;0.95;-1.61;-0.31;0.490828;-0.890694;0.025295;102.7;127.0;0.0;2.0;3.0;0.0
2.0;1753881174.267248;17.835157;0.84;-1.64;-0.38;0.492881;-0.890714;0.024163;104.9;127.0;0.0;2.0;3.0;0.0
2.0;1753881174.271841;17.82541;0.8;-1.66;-0.37;0.491121;-0.890655;0.024582;102.7;127.0;0.0;2.0;3.0;0.0
2.0;1753881174.276434;17.822226;0.75;-1.61;-0.25;0.490438;-0.890639;0.024558;102.0;127.0;0.0;2.0;3.0;0.0
2.0;1753881174.281027;17.813025;0.77;-1.64;-0.28;0.491418;-0.889104;0.025684;102.7;127.0;0.0;2.0;3.0;0.0
2.0;1753881174.28562;17.782909;0.77;-1.67;-0.34;0.49002;-0.890301;0.023616;101.7;127.0;0.0;2.0;3.0;0.0
2.0;1753881174.290214;17.82538;0.81;-1.84;-0.26;0.491237;-0.891549;0.024807;103.1;127.0;0.0;2.0;3.0;0.0
2.0;1753881174.294807;17.828192;0.86;-1.68;-0.31;0.490687;-0.89202;0.023455;102.2;127.0;0.0;2.0;3.0;0.0
2.0;1753881174.2994;17.825478;0.8;-1.68;-0.36;0.492943;-0.890884;0.024574;103.0;127.0;0.0;2.0;3.0;0.0
2.0;1753881174.303993;17.852407;0.78;-1.67;-0.35;0.489109;-0.889584;0.023822;104.2;127.0;0.0;2.0;3.0;0.0
2.0;1753881174.308586;17.847737;0.88;-1.63;-0.38;0.490491;-0.890088;0.023695;103.4;127.0;0.0;2.0;3.0;0.0
2.0;1753881174.313179;17.82514;0.84;-1.71;-0.38;0.488372;-0.890847;0.025032;105.0;127.0;0.0;2.0;3.0;0.0
2.0;1753881174.317772;17.842076;0.93;-1.65;-0.43;0.489523;-0.889832;0.02384;104.4;127.0;0.0;2.0;3.0;0.0
2.0;1753881174.322366;17.825725;0.69;-1.59;-0.4;0.490652;-0.889702;0.02501;103.1;127.0;0.0;2.0;3.0;0.0
2.0;1753881174.326959;17.805166;0.97;-1.72;-0.32;0.491835;-0.891753;0.024738;102.9;127.0;0.0;2.0;3.0;0.0
2.0;1753881174.331552;17.877928;0.73;-1.64;-0.33;0.490274;-0.891892;0.024167;101.0;127.0;0.0;2.0;3.0;0.0
2.0;1753881174.336145;17.821518;0.77;-1.74;-0.36;0.491107;-0.889474;0.023285;101.1;127.0;0.0;2.0;3.0;0.0
2.0;1753881174.340738;17.866749;0.87;-1.72;-0.32;0.490744;-0.890043;0.025877;102.2;127.0;0.0;2.0;3.0;0.0
2.0;1753881174.345331;17.80075;0.94;-1.68;-0.26;0.491404;-0.890858;0.023945;101.3;127.0;0.0;2.0;3.0;0.0
2.0;1753881174.349924;17.815396;0.73;-1.69;-0.39;0.490324;-0.890577;0.023985;104.4;127.0;0.0;2.0;3.0;0.0
2.0;1753881174.354518;17.814972;0.69;-1.74;-0.27;0.490881;-0.890711;0.023424;102.8;127.0;0.0;2.0;3.0;0.0
2.0;1753881174.35911;17.851392;0.92;-1.67;-0.39;0.491755;-0.890879;0.025822;103.7;127.0;0.0;2.0;3.0;0.0
2.0;1753881174.363704;17.835246;0.72;-1.65;-0.37;0.492447;-0.891108;0.024894;103.0;127.0;0.0;2.0;3.0;0.0
2.0;1753881174.368297;17.796399;0.89;-1.66;-0.41;0.493299;-0.890556;0.024322;102.2;127.0;0.0;2.0;3.0;0.0
2.0;1753881174.37289;17.838535;0.76;-1.73;-0.33;0.488834;-0.889885;0.024071;102.1;127.0;0.0;2.0;3.0;0.0
2.0;1753881174.377483;17.831719;0.83;-1.58;-0.34;0.48952;-0.890858;0.024576;100.9;127.0;0.0;2.0;3.0;0.0
2.0;1753881174.382076;17.801351;0.88;-1.63;-0.27;0.490852;-0.889975;0.024583;102.9;127.0;0.0;2.0;3.0;0.0
2.0;1753881174.38667;17.839105;0.8;-1.71;-0.37;0.488509;-0.891965;0.022664;101.2;127.0;0.0;2.0;3.0;0.0
2.0;1753881174.391262;17.83974;0.59;-1.74;-0.41;0.491438;-0.890023;0.02434;101.1;127.0;0.0;2.0;3.0;0.0
2.0;1753881174.395856;17.85189;0.89;-1.71;-0.37;0.491392;-0.891408;0.024128;104.0;127.0;0.0;2.0;3.0;0.0
2.0;1753881174.400449;17.869024;0.76;-1.6;-0.34;0.489273;-0.891448;0.0247;104.0;127.0;0.0;2.0;3.0;0.0
2.0;1753881174.405042;17.805361;0.69;-1.63;-0.31;0.493386;-0.889656;0.024599;103.9;127.0;0.0;2.0;3.0;0.0
2.0;1753881174.409635;17.814765;0.67;-1.64;-0.4;0.491269;-0.889766;0.023041;102.8;127.0;0.0;2.0;3.0;0.0
2.0;1753881174.414228;17.846393;0.89;-1.67;-0.4;0.490239;-0.891129;0.023829;103.5;127.0;0.0;2.0;3.0;0.0
2.0;1753881174.418821;17.825794;0.75;-1.73;-0.33;0.489996;-0.890968;0.024096;101.0;127.0;0.0;2.0;3.0;0.0
2.0;1753881174.423414;17.82649;0.9;-1.75;-0.34;0.493628;-0.891126;0.024158;102.8;127.0;0.0;2.0;3.0;0.0
2.0;1753881174.428008;17.82857;0.82;-1.67;-0.35;0.490432;-0.890254;0.023347;103.9;127.0;0.0;2.0;3.0;0.0
2.0;1753881174.432601;17.855181;0.76;-1.6;-0.28;0.491445;-0.89054;0.024115;102.1;127.0;0.0;2.0;3.0;0.0
2.0;1753881174.437194;17.790807;0.82;-1.67;-0.31;0.492504;-0.890842;0.025333;101.5;127.0;0.0;2.0;3.0;0.0
2.0;1753881174.441787;17.821216;0.86;-1.62;-0.32;0.492162;-0.890829;0.025204;102.2;127.0;0.0;2.0;3.0;0.0
2.0;1753881174.44638;17.840506;0.81;-1.67;-0.38;0.490625;-0.89122;0.023132;103.0;127.0;0.0;2.0;3.0;0.0
2.0;1753881174.450973;17.845824;0.95;-1.64;-0.4;0.492395;-0.891257;0.024886;103.1;127.0;0.0;2.0;3.0;0.0
2.0;1753881174.455566;17.820139;0.76;-1.68;-0.38;0.49146;-0.888884;0.025074;104.4;127.0;0.0;2.0;3.0;0.0
2.0;1753881174.46016;17.817272;0.78;-1.66;-0.29;0.490664;-0.890668;0.025374;103.1;127.0;0.0;2.0;3.0;0.0
2.0;1753881174.464753;17.840186;0.89;-1.63;-0.36;0.490763;-0.889621;0.024444;103.9;127.0;0.0;2.0;3.0;0.0
2.0;1753881174.469346;17.806506;0.73;-1.67;-0.31;0.491927;-0.890964;0.025686;102.4;127.0;0.0;2.0;3.0;0.0
2.0;1753881174.473939;17.795086;0.74;-1.65;-0.36;0.49146;-0.89098;0.024132;101.5;127.0;0.0;2.0;3.0;0.0
2.0;1753881174.478532;17.848942;0.89;-1.64;-0.42;0.490543;-0.891419;0.023725;104.1;127.0;0.0;2.0;3.0;0.0
2.0;1753881174.483125;17.833512;0.92;-1.7;-0.3;0.489083;-0.891644;0.023751;102.2;127.0;0.0;2.0;3.0;0.0
2.0;1753881174.487718;17.805797;0.8;-1.71;-0.35;0.489726;-0.891686;0.024672;103.2;127.0;0.0;2.0;3.0;0.0
2.0;1753881174.492312;17.820959;0.84;-1.75;-0.32;0.491037;-0.890813;0.022534;103.4;127.0;0.0;2.0;3.0;0.0
2.0;1753881174.496904;17.847192;0.76;-1.74;-0.38;0.491477;-0.889184;0.02502;103.1;127.0;0.0;2.0;3.0;0.0
2.0;1753881174.501498;17.821652;0.9;-1.76;-0.32;0.489606;-0.891184;0.024842;103.6;127.0;0.0;2.0;3.0;0.0
2.0;1753881174.506091;17.833032;0.96;-1.65;-0.38;0.491098;-0.889563;0.023957;103.1;127.0;0.0;2.0;3.0;0.0
2.0;1753881174.510684;17.820085;0.78;-1.78;-0.28;0.489842;-0.891151;0.024793;103.1;127.0;0.0;2.0;3.0;0.0
2.0;1753881174.515277;17.827706;0.89;-1.68;-0.25;0.491727;-0.89066;0.023678;102.5;127.0;0.0;2.0;3.0;0.0
2.0;1753881174.51987;17.881692;0.67;-1.7;-0.35;0.492987;-0.890544;0.026167;101.6;127.0;0.0;2.0;3.0;0.0
2.0;1753881174.524464;17.840015;0.81;-1.68;-0.34;0.491076;-0.890142;0.025083;103.3;127.0;0.0;2.0;3.0;0.0
2.0;1753881174.529056;17.831306;0.71;-1.72;-0.31;0.487697;-0.890755;0.023949;103.0;127.0;0.0;2.0;3.0;0.0
2.0;1753881174.53365;17.806225;0.8;-1.65;-0.43;0.49105;-0.891611;0.024621;103.0;127.0;0.0;2.0;3.0;0.0
2.0;1753881174.538243;17.82055;0.87;-1.64;-0.46;0.492585;-0.890227;0.024859;101.0;127.0;0.0;2.0;3.0;0.0
2.0;1753881174.542836;17.831678;0.76;-1.66;-0.37;0.490966;-0.890092;0.025149;102.8;127.0;0.0;2.0;3.0;0.0
2.0;1753881174.547429;17.847612;0.81;-1.68;-0.39;0.491157;-0.890069;0.025383;102.0;127.0;0.0;2.0;3.0;0.0
2.0;1753881174.552022;17.835095;0.81;-1.77;-0.45;0.49308;-0.889146;0.02499;102.9;127.0;0.0;2.0;3.0;0.0
2.0;1753881174.556615;17.819426;0.85;-1.65;-0.35;0.489185;-0.889825;0.02486;103.1;127.0;0.0;2.0;3.0;0.0
2.0;1753881174.561208;17.833162;0.66;-1.64;-0.37;0.492043;-0.891466;0.023857;104.1;127.0;0.0;2.0;3.0;0.0
2.0;1753881174.565802;17.835023;0.78;-1.74;-0.35;0.491769;-0.889229;0.023641;103.9;127.0;0.0;2.0;3.0;0.0
2.0;1753881174.570395;17.863084;0.73;-1.69;-0.25;0.491729;-0.890515;0.024271;104.1;127.0;0.0;2.0;3.0;0.0
2.0;1753881174.574988;17.822105;0.7;-1.71;-0.26;0.489121;-0.890505;0.025413;104.1;127.0;0.0;2.0;3.0;0.0
2.0;1753881174.579581;17.824378;0.8;-1.71;-0.39;0.491614;-0.891333;0.024752;104.5;127.0;0.0;2.0;3.0;0.0
2.0;1753881174.584174;17.849782;0.79;-1.72;-0.38;0.490901;-0.891437;0.024294;104.4;127.0;0.0;2.0;3.0;0.0
2.0;1753881174.588767;17.842289;0.82;-1.74;-0.31;0.49126;-0.890574;0.026674;102.4;127.0;0.0;2.0;3.0;0.0
2.0;1753881174.59336;17.82395;0.85;-1.74;-0.3;0.490839;-0.890702;0.025801;101.6;127.0;0.0;2.0;3.0;0.0
2.0;1753881174.597954;17.823417;0.7;-1.71;-0.38;0.491573;-0.8905;0.025468;102.6;127.0;0.0;2.0;3.0;0.0
2.0;1753881174.602547;17.823758;0.84;-1.68;-0.27;0.490145;-0.890179;0.023441;103.8;127.0;0.0;2.0;3.0;0.0
2.0;1753881174.60714;17.801442;0.8;-1.66;-0.28;0.492711;-0.890214;0.022552;102.6;127.0;0.0;2.0;3.0;0.0
2.0;1753881174.611733;17.815985;0.68;-1.67;-0.33;0.493174;-0.889907;0.023221;103.0;127.0;0.0;2.0;3.0;0.0
2.0;1753881174.616326;17.813534;0.79;-1.65;-0.28;0.489404;-0.889852;0.025727;103.3;127.0;0.0;2.0;3.0;0.0
2.0;1753881174.620919;17.836953;0.95;-1.64;-0.29;0.489723;-0.890974;0.025196;103.8;127.0;0.0;2.0;3.0;0.0
2.0;1753881174.625512;17.832391;0.93;-1.63;-0.32;0.491697;-0.89089;0.0258;106.1;127.0;0.0;2.0;3.0;0.0
2.0;1753881174.630106;17.853643;0.85;-1.63;-0.36;0.488903;-0.891036;0.026272;104.0;127.0;0.0;2.0;3.0;0.0
2.0;1753881174.634699;17.819109;0.75;-1.65;-0.29;0.491468;-0.889144;0.023785;102.8;127.0;0.0;2.0;3.0;0.0
2.0;1753881174.639292;17.84106;0.87;-1.69;-0.32;0.489656;-0.89067;0.024317;104.6;127.0;0.0;2.0;3.0;0.0
2.0;1753881174.643885;17.811624;0.7;-1.65;-0.39;0.489608;-0.890236;0.023573;103.5;127.0;0.0;2.0;3.0;0.0
2.0;1753881174.648478;17.82426;0.84;-1.61;-0.34;0.490021;-0.889917;0.026024;102.4;127.0;0.0;2.0;3.0;0.0
2.0;1753881174.653071;17.836738;0.82;-1.7;-0.32;0.490337;-0.890801;0.024837;103.1;127.0;0.0;2.0;3.0;0.0
2.0;1753881174.657664;17.837571;0.84;-1.7;-0.36;0.489464;-0.891932;0.024918;101.4;127.0;0.0;2.0;3.0;0.0
2.0;1753881174.662258;17.805836;0.85;-1.73;-0.39;0.492091;-0.890525;0.024803;103.1;127.0;0.0;2.0;3.0;0.0
2.0;1753881174.66685;17.820886;0.87;-1.61;-0.31;0.491879;-0.89021;0.024435;101.8;127.0;0.0;2.0;3.0;0.0
2.0;1753881174.671444;17.809992;0.8;-1.61;-0.33;0.493528;-0.891114;0.023738;102.4;127.0;0.0;2.0;3.0;0.0
2.0;1753881174.676037;17.840069;0.8;-1.68;-0.4;0.490847;-0.890293;0.024693;103.1;127.0;0.0;2.0;3.0;0.0
2.0;1753881174.68063;17.841076;0.7;-1.69;-0.43;0.49397;-0.891106;0.024789;102.5;127.0;0.0;2.0;3.0;0.0
2.0;1753881174.685223;17.838515;0.72;-1.67;-0.37;0.491199;-0.890159;0.026549;102.2;127.0;0.0;2.0;3.0;0.0
2.0;1753881174.689816;17.807571;0.67;-1.76;-0.35;0.490343;-0.891013;0.02487;101.3;127.0;0.0;2.0;3.0;0.0
2.0;1753881174.694409;17.84118;0.79;-1.73;-0.42;0.490211;-0.890928;0.026022;103.9;127.0;0.0;2.0;3.0;0.0
2.0;1753881174.699002;17.859392;0.58;-1.57;-0.41;0.491847;-0.890259;0.025829;101.9;127.0;0.0;2.0;3.0;0.0
2.0;1753881174.703596;17.808326;0.73;-1.73;-0.4;0.490397;-0.890173;0.02281;102.3;127.0;0.0;2.0;3.0;0.0
2.0;1753881174.708189;17.805449;0.72;-1.74;-0.4;0.490468;-0.889291;0.025843;102.4;127.0;0.0;2.0;3.0;0.0
2.0;1753881174.712782;17.804141;0.66;-1.72;-0.36;0.490829;-0.890415;0.025089;103.9;127.0;0.0;2.0;3.0;0.0
2.0;1753881174.717375;17.814456;0.78;-1.69;-0.41;0.490189;-0.891506;0.024689;102.4;127.0;0.0;2.0;3.0;0.0
2.0;1753881174.721968;17.856608;0.82;-1.69;-0.43;0.491316;-0.891129;0.023291;103.7;127.0;0.0;2.0;3.0;0.0
2.0;1753881174.726561;17.839528;0.87;-1.69;-0.36;0.490769;-0.890956;0.023205;103.7;127.0;0.0;2.0;3.0;0.0
2.0;1753881174.731154;17.829237;0.84;-1.72;-0.42;0.49043;-0.890422;0.024219;102.7;127.0;0.0;2.0;3.0;0.0
2.0;1753881174.735748;17.832519;0.77;-1.75;-0.33;0.491573;-0.890228;0.025827;104.1;127.0;0.0;2.0;3.0;0.0
2.0;1753881174.740341;17.845398;0.83;-1.71;-0.41;0.491213;-0.889742;0.023496;104.1;127.0;0.0;2.0;3.0;0.0
2.0;1753881174.744934;17.808643;0.82;-1.72;-0.37;0.48961;-0.890074;0.024672;103.0;127.0;0.0;2.0;3.0;0.0
2.0;1753881174.749527;17.823479;0.81;-1.72;-0.48;0.49113;-0.890288;0.025252;104.6;127.0;0.0;2.0;3.0;0.0
2.0;1753881174.75412;17.840365;0.86;-1.65;-0.31;0.492522;-0.89166;0.025121;105.1;127.0;0.0;2.0;3.0;0.0
2.0;1753881174.758713;17.814496;0.74;-1.69;-0.46;0.490291;-0.889153;0.023856;103.6;127.0;0.0;2.0;3.0;0.0
2.0;1753881174.763306;17.848421;0.81;-1.75;-0.33;0.491282;-0.890734;0.024175;103.2;127.0;0.0;2.0;3.0;0.0
2.0;1753881174.7679;17.819198;0.84;-1.73;-0.34;0.490275;-0.88929;0.023785;100.7;127.0;0.0;2.0;3.0;0.0
2.0;1753881174.772493;17.830001;0.82;-1.74;-0.32;0.490832;-0.891572;0.025296;105.8;127.0;0.0;2.0;3.0;0.0
2.0;1753881174.777086;17.840374;0.75;-1.72;-0.31;0.491776;-0.89144;0.026116;103.6;127.0;0.0;2.0;3.0;0.0
2.0;1753881174.781679;17.859983;0.86;-1.6;-0.39;0.493364;-0.891273;0.024332;104.4;127.0;0.0;2.0;3.0;0.0
2.0;1753881174.786272;17.814991;0.8;-1.71;-0.3;0.490875;-0.890312;0.025776;103.9;127.0;0.0;2.0;3.0;0.0
2.0;1753881174.790865;17.846507;0.72;-1.63;-0.33;0.490993;-0.891403;0.024635;104.1;127.0;0.0;2.0;3.0;0.0
2.0;1753881174.795458;17.843536;0.67;-1.66;-0.29;0.490173;-0.889475;0.0246;102.7;127.0;0.0;2.0;3.0;0.0
2.0;1753881174.800052;17.835699;0.7;-1.7;-0.42;0.491264;-0.891204;0.024949;102.9;127.0;0.0;2.0;3.0;0.0
2.0;1753881174.804644;17.838941;0.79;-1.74;-0.41;0.490388;-0.890971;0.024328;103.6;127.0;0.0;2.0;3.0;0.0
2.0;1753881174.809238;17.819554;0.79;-1.71;-0.37;0.490241;-0.891596;0.024769;105.4;127.0;0.0;2.0;3.0;0.0
2.0;1753881174.813831;17.839217;0.62;-1.67;-0.44;0.489049;-0.891834;0.024417;103.0;127.0;0.0;2.0;3.0;0.0
2.0;1753881174.818424;17.803865;0.77;-1.69;-0.37;0.491819;-0.892128;0.024971;101.9;127.0;0.0;2.0;3.0;0.0
2.0;1753881174.823017;17.820563;0.7;-1.68;-0.23;0.490362;-0.891028;0.02586;104.2;127.0;0.0;2.0;3.0;0.0
2.0;1753881174.831;17.828125;0.77;-1.68;-0.35;0.490928;-0.8906;0.02501;103.0;127.0;0.0;2.0;3.0;0.0
2.0;1753881174.835593;17.864912;0.78;-1.64;-0.34;0.490707;-0.890494;0.024146;104.1;127.0;0.0;2.0;3.0;0.0
2.0;1753881174.840186;17.852741;0.8;-1.73;-0.41;0.489917;-0.890922;0.022752;105.1;127.0;0.0;2.0;3.0;0.0
2.0;1753881174.84478;17.83423;0.9;-1.76;-0.33;0.489155;-0.890202;0.025373;102.2;127.0;0.0;2.0;3.0;0.0
2.0;1753881174.849373;17.854468;0.8;-1.6;-0.31;0.489728;-0.890658;0.024123;102.4;127.0;0.0;2.0;3.0;0.0
2.0;1753881174.853966;17.815992;0.82;-1.61;-0.28;0.488572;-0.891706;0.02524;105.4;127.0;0.0;2.0;3.0;0.0
2.0;1753881174.858559;17.806126;0.81;-1.71;-0.27;0.490561;-0.890542;0.025675;104.8;127.0;0.0;2.0;3.0;0.0
2.0;1753881174.863152;17.847833;0.72;-1.67;-0.43;0.490172;-0.890525;0.026466;101.2;127.0;0.0;2.0;3.0;0.0
2.0;1753881174.867745;17.856882;0.82;-1.69;-0.38;0.490388;-0.890331;0.02556;103.5;127.0;0.0;2.0;3.0;0.0
2.0;1753881174.872338;17.825413;0.78;-1.74;-0.37;0.492067;-0.891891;0.024829;103.0;127.0;0.0;2.0;3.0;0.0
2.0;1753881174.876932;17.798288;0.87;-1.71;-0.26;0.490425;-0.890304;0.024819;100.8;127.0;0.0;2.0;3.0;0.0
2.0;1753881174.881524;17.85899;0.69;-1.64;-0.39;0.489261;-0.890298;0.023928;103.6;127.0;0.0;2.0;3.0;0.0
2.0;1753881174.886118;17.841979;0.83;-1.66;-0.32;0.49007;-0.891482;0.02565;103.2;127.0;0.0;2.0;3.0;0.0
2.0;1753881174.890711;17.84903;0.81;-1.71;-0.42;0.490112;-0.891468;0.024134;103.8;127.0;0.0;2.0;3.0;0.0
2.0;1753881174.895304;17.847016;0.84;-1.63;-0.35;0.489428;-0.890367;0.026894;102.8;127.0;0.0;2.0;3.0;0.0
2.0;1753881174.899897;17.814749;0.83;-1.67;-0.29;0.48883;-0.889629;0.024761;103.1;127.0;0.0;2.0;3.0;0.0
2.0;1753881174.90449;17.860553;0.88;-1.71;-0.36;0.490755;-0.890095;0.025516;103.4;127.0;0.0;2.0;3.0;0.0
2.0;1753881174.909083;17.836477;0.8;-1.65;-0.36;0.488869;-0.891219;0.025282;102.4;127.0;0.0;2.0;3.0;0.0
2.0;1753881174.913676;17.839072;0.94;-1.67;-0.31;0.489923;-0.889734;0.026267;103.0;127.0;0.0;2.0;3.0;0.0
2.0;1753881174.91827;17.831579;0.89;-1.73;-0.27;0.489874;-0.89081;0.024849;104.0;127.0;0.0;2.0;3.0;0.0
2.0;1753881174.922863;17.815323;0.93;-1.72;-0.4;0.491682;-0.890927;0.024427;103.4;127.0;0.0;2.0;3.0;0.0
2.0;1753881174.927456;17.859016;0.74;-1.69;-0.33;0.489727;-0.890439;0.024922;102.9;127.0;0.0;2.0;3.0;0.0
2.0;1753881174.932049;17.829147;0.89;-1.67;-0.35;0.490133;-0.891073;0.024534;101.8;127.0;0.0;2.0;3.0;0.0
2.0;1753881174.936642;17.865761;0.86;-1.74;-0.27;0.490283;-0.890871;0.027008;102.1;127.0;0.0;2.0;3.0;0.0
