sep=,
PacketCounter,SampleTimeFine,Euler_X,Euler_Y,Euler_Z,Acc_X,Acc_Y,Acc_Z,Gyr_X,Gyr_Y,Gyr_Z,
0, 2646855428, -81.98825073242188, 27.67459487915039, -100.78390502929688, 0, 0, 0, 0, 0, 0, 
1, 2646863761, -81.98319244384766, 27.672029495239258, -100.7775650024414, -3.9540557861328125, -8.467599868774414, 1.1084903478622437, 0.3155161440372467, -0.7984084486961365, 1.341955304145813, 
2, 2646872094, -81.98015594482422, 27.678150177001953, -100.77912139892578, -3.8813228607177734, -8.472299575805664, 1.405738353729248, 0.44668665528297424, 0.04149506241083145, 2.2448318004608154, 
3, 2646880427, -81.97943878173828, 27.682777404785156, -100.78251647949219, -4.591765880584717, -8.665315628051758, 1.4619359970092773, 0.2177722454071045, 0.12041252851486206, 2.08730411529541, 
4, 2646888760, -81.98363494873047, 27.684133529663086, -100.78684997558594, -5.284979343414307, -8.779609680175781, 1.3716524839401245, -0.26719486713409424, 0.25265881419181824, 1.639054775238037, 
5, 2646897093, -81.9871826171875, 27.67601776123047, -100.78050231933594, -4.864884376525879, -8.670032501220703, 0.9031751751899719, -0.6951830983161926, -0.8411586284637451, 0.6745508313179016, 
6, 2646905426, -81.98589324951172, 27.671262741088867, -100.77628326416016, -4.210278034210205, -8.43781566619873, 1.1142483949661255, -0.08474469184875488, -0.7495620846748352, 1.0405269861221313, 
7, 2646913759, -81.98233032226562, 27.675127029418945, -100.7813949584961, -3.818394422531128, -8.446301460266113, 1.314660668373108, 0.45055440068244934, -0.0949135348200798, 2.021552324295044, 
8, 2646922092, -81.98196411132812, 27.68088722229004, -100.7826919555664, -4.280519485473633, -8.651823043823242, 1.5472606420516968, 0.11270264536142349, 0.007018301170319319, 2.207691192626953, 
9, 2646930425, -81.98641204833984, 27.68553352355957, -100.79917907714844, -5.106330871582031, -8.580955505371094, 1.201046347618103, -0.04955074191093445, 0.7822843790054321, 1.9929924011230469, 
10, 2646938758, -81.98727416992188, 27.680496215820312, -100.79254150390625, -5.0398359298706055, -8.726396560668945, 1.0674831867218018, -0.4784354269504547, -1.0085220336914062, 1.0427298545837402, 
11, 2646947091, -81.99005889892578, 27.673526763916016, -100.79212951660156, -4.508086204528809, -8.536388397216797, 0.9581304788589478, -0.39629065990448, -0.43832364678382874, 0.7583094239234924, 
12, 2646955424, -81.9845199584961, 27.67524528503418, -100.7912826538086, -3.8170628547668457, -8.440093994140625, 1.1099059581756592, 0.6110531687736511, -0.2845613360404968, 1.7582123279571533, 
13, 2646963757, -81.98130798339844, 27.681385040283203, -100.78618621826172, -4.062909126281738, -8.605887413024902, 1.4452587366104126, 0.37132957577705383, -0.12206465750932693, 2.303539514541626, 
14, 2646972090, -81.98451232910156, 27.686166763305664, -100.79415130615234, -4.86742639541626, -8.51075553894043, 1.250820279121399, 0.05271409451961517, 0.692711353302002, 1.9919676780700684, 
15, 2646980423, -81.98408508300781, 27.68303680419922, -100.79727172851562, -5.208163738250732, -8.811250686645508, 1.2503670454025269, -0.16686391830444336, -0.6771250367164612, 1.2551742792129517, 
16, 2646988756, -81.9888916015625, 27.674509048461914, -100.79560089111328, -4.60794734954834, -8.623767852783203, 0.898347020149231, -0.6742051243782043, -0.5442129373550415, 0.5543944835662842, 
17, 2646997089, -81.98426055908203, 27.671802520751953, -100.79191589355469, -3.8814187049865723, -8.47433090209961, 1.123368263244629, 0.290721595287323, -0.7487425208091736, 1.317468285560608, 
18, 2647005422, -81.98087310791016, 27.67770004272461, -100.79330444335938, -3.8854193687438965, -8.441783905029297, 1.3730311393737793, 0.47849953174591064, 0.01905699074268341, 2.221292018890381, 
19, 2647013755, -81.98149871826172, 27.682334899902344, -100.79850769042969, -4.616742134094238, -8.665815353393555, 1.4204875230789185, 0.10304606705904007, 0.21646589040756226, 2.073139190673828, 
20, 2647022088, -81.98601531982422, 27.683609008789062, -100.8025131225586, -5.3473896980285645, -8.755635261535645, 1.3745524883270264, -0.3243914544582367, 0.2181820422410965, 1.6341625452041626, 
21, 2647030421, -81.98957061767578, 27.675580978393555, -100.799072265625, -4.8337626457214355, -8.711360931396484, 0.9250990748405457, -0.6846300959587097, -0.8277368545532227, 0.6853857636451721, 
22, 2647038754, -81.98805236816406, 27.67067527770996, -100.79449462890625, -4.225520610809326, -8.433867454528809, 1.1156361103057861, -0.08054396510124207, -0.7881628274917603, 1.0264136791229248, 
23, 2647047087, -81.98382568359375, 27.674575805664062, -100.7975082397461, -3.79300594329834, -8.42452621459961, 1.3075144290924072, 0.5155633091926575, -0.121296226978302, 2.031003952026367, 
24, 2647055420, -81.98314666748047, 27.680124282836914, -100.79893493652344, -4.361519813537598, -8.631248474121094, 1.6318647861480713, 0.15576015412807465, 0.01979980431497097, 2.1780550479888916, 
25, 2647063753, -81.98741912841797, 27.684009552001953, -100.80200958251953, -5.044310569763184, -8.623679161071777, 1.188842535018921, -0.02803477831184864, 0.7796972393989563, 1.9058526754379272, 
26, 2647072086, -81.98897552490234, 27.67772674560547, -100.79615783691406, -5.031360149383545, -8.737776756286621, 1.0383278131484985, -0.5183424353599548, -0.9459463953971863, 0.882538378238678, 
27, 2647080419, -81.99036407470703, 27.67034912109375, -100.79418182373047, -4.478787899017334, -8.502413749694824, 0.9074243307113647, -0.2855859398841858, -0.5568918585777283, 0.7263684272766113, 
28, 2647088752, -81.98421478271484, 27.671585083007812, -100.7905044555664, -3.8181421756744385, -8.414830207824707, 1.1471691131591797, 0.5259626507759094, -0.5919065475463867, 1.7436120510101318, 
29, 2647097085, -81.98085021972656, 27.67800521850586, -100.79393005371094, -4.008864402770996, -8.528037071228027, 1.404628038406372, 0.43390512466430664, -0.03694853186607361, 2.3253626823425293, 
30, 2647105418, -81.9842300415039, 27.68294334411621, -100.80099487304688, -4.807560920715332, -8.528494834899902, 1.3080179691314697, -0.01814768649637699, 0.6014223098754883, 2.02447247505188, 
31, 2647113751, -81.98387145996094, 27.68088722229004, -100.79975891113281, -5.197198390960693, -8.831207275390625, 1.2539362907409668, -0.12119375914335251, -0.5521020889282227, 1.3686710596084595, 
32, 2647122084, -81.98847961425781, 27.672344207763672, -100.79762268066406, -4.7088446617126465, -8.6468505859375, 0.9429590702056885, -0.6808135509490967, -0.5928287506103516, 0.5578525066375732, 
33, 2647130417, -81.98471069335938, 27.669837951660156, -100.7927017211914, -3.9954564571380615, -8.460905075073242, 1.136250615119934, 0.17138484120368958, -0.7770718336105347, 1.3469758033752441, 
34, 2647138750, -81.98123931884766, 27.675304412841797, -100.794677734375, -3.882688283920288, -8.454100608825684, 1.3399330377578735, 0.5215314030647278, 0.07171986252069473, 2.1636087894439697, 
35, 2647147083, -81.9803695678711, 27.680034637451172, -100.79630279541016, -4.642180919647217, -8.624573707580566, 1.4077047109603882, 0.14779412746429443, -0.04079066216945648, 2.1217293739318848, 
36, 2647155416, -81.98530578613281, 27.680973052978516, -100.80117797851562, -5.251595973968506, -8.753270149230957, 1.3881951570510864, -0.3259795308113098, 0.3031444251537323, 1.5809359550476074, 
37, 2647163749, -81.98829650878906, 27.67213249206543, -100.79399871826172, -4.866672515869141, -8.654217720031738, 0.8863445520401001, -0.6366289854049683, -0.8744059801101685, 0.5929951667785645, 
38, 2647172082, -81.9883041381836, 27.667415618896484, -100.78963470458984, -4.17287540435791, -8.467421531677246, 1.1519155502319336, -0.24993090331554413, -0.7627534866333008, 1.0454704761505127, 
39, 2647180415, -81.985107421875, 27.67171859741211, -100.79276275634766, -3.819739818572998, -8.41280460357666, 1.3256709575653076, 0.45014452934265137, -0.003419500309973955, 2.063098669052124, 
40, 2647188748, -81.98590087890625, 27.678260803222656, -100.7950210571289, -4.300135135650635, -8.704475402832031, 1.5482373237609863, 0.02551177702844143, 0.12353744357824326, 2.2872231006622314, 
41, 2647197081, -81.99066162109375, 27.68279266357422, -100.8091812133789, -5.117077827453613, -8.602471351623535, 1.1630524396896362, -0.10065113008022308, 0.7540830373764038, 1.9834895133972168, 
42, 2647205414, -81.99202728271484, 27.67656135559082, -100.80360412597656, -5.104583263397217, -8.736403465270996, 1.0831049680709839, -0.47940880060195923, -0.9160290360450745, 0.883409321308136, 
43, 2647213747, -81.99458312988281, 27.668275833129883, -100.80208587646484, -4.5209832191467285, -8.530116081237793, 0.8859010338783264, -0.39667484164237976, -0.5059963464736938, 0.6076977252960205, 
44, 2647222080, -81.98896026611328, 27.669336318969727, -100.79815673828125, -3.7659311294555664, -8.417549133300781, 1.105373740196228, 0.4497603178024292, -0.6211068034172058, 1.7269374132156372, 
45, 2647230413, -81.98567962646484, 27.675268173217773, -100.8093032836914, -3.938133955001831, -8.575482368469238, 1.374025821685791, 0.45987802743911743, 0.01073236484080553, 2.2592267990112305, 
46, 2647238746, -81.98827362060547, 27.681434631347656, -100.81649780273438, -4.812665939331055, -8.529191970825195, 1.2908716201782227, 0.08437329530715942, 0.6358733773231506, 2.1665546894073486, 
47, 2647247079, -81.98759460449219, 27.680099487304688, -100.80912780761719, -5.253405570983887, -8.846864700317383, 1.2732274532318115, -0.11463649570941925, -0.6002054810523987, 1.4642888307571411, 
48, 2647255412, -81.99275970458984, 27.67144775390625, -100.80831909179688, -4.766997814178467, -8.648180961608887, 0.9096201062202454, -0.6710289120674133, -0.4540250897407532, 0.5269104838371277, 
49, 2647263745, -81.98770141601562, 27.668371200561523, -100.80197143554688, -4.001179218292236, -8.457243919372559, 1.1125671863555908, 0.23572778701782227, -0.9478163123130798, 1.3002040386199951, 
50, 2647272078, -81.9840316772461, 27.674901962280273, -100.80442810058594, -3.851655960083008, -8.412188529968262, 1.3807491064071655, 0.5717865824699402, 0.1410575956106186, 2.282100200653076, 
51, 2647280411, -81.98329162597656, 27.67829704284668, -100.80619049072266, -4.600745677947998, -8.646186828613281, 1.4955862760543823, 0.20791074633598328, 0.0744093507528305, 1.9441715478897095, 
52, 2647288744, -81.98845672607422, 27.680543899536133, -100.81156158447266, -5.230649948120117, -8.745687484741211, 1.3704479932785034, -0.3250318169593811, 0.3770671486854553, 1.729882836341858, 
53, 2647297077, -81.99093627929688, 27.672508239746094, -100.80773162841797, -4.855142593383789, -8.72181224822998, 0.867575466632843, -0.6132175326347351, -0.93628990650177, 0.6982696056365967, 
54, 2647305410, -81.9908447265625, 27.666614532470703, -100.80370330810547, -4.265347480773926, -8.488893508911133, 1.0727618932724, -0.22001346945762634, -0.748537540435791, 0.9007502198219299, 
55, 2647313743, -81.9874267578125, 27.669940948486328, -100.81248474121094, -3.834017276763916, -8.396288871765137, 1.2770171165466309, 0.44228097796440125, -0.09014929085969925, 1.9545451402664185, 
56, 2647322076, -81.98628234863281, 27.67598533630371, -100.8125991821289, -4.2730302810668945, -8.641399383544922, 1.523861050605774, 0.1378301978111267, -0.11348386108875275, 2.2579715251922607, 
57, 2647330409, -81.98941040039062, 27.68006134033203, -100.82649230957031, -5.042383193969727, -8.561192512512207, 1.2109014987945557, 0.03872872143983841, 0.63958740234375, 1.9460159540176392, 
58, 2647338742, -81.98997497558594, 27.675142288208008, -100.81912231445312, -5.1060357093811035, -8.748950004577637, 1.133145809173584, -0.48465976119041443, -1.0825984477996826, 1.0663206577301025, 
59, 2647347075, -81.99260711669922, 27.6676025390625, -100.8193130493164, -4.488974094390869, -8.578075408935547, 0.8969808220863342, -0.40628015995025635, -0.49954158067703247, 0.697552502155304, 
60, 2647355408, -81.98727416992188, 27.66865348815918, -100.81682586669922, -3.84669828414917, -8.437244415283203, 1.1322529315948486, 0.4982224404811859, -0.4723649024963379, 1.7050371170043945, 
61, 2647363741, -81.98385620117188, 27.67583465576172, -100.83787536621094, -3.90795636177063, -8.5394287109375, 1.4035075902938843, 0.4770907461643219, 0.028739171102643013, 2.4049458503723145, 
62, 2647372074, -81.9847412109375, 27.68161392211914, -100.84408569335938, -4.799319267272949, -8.545990943908691, 1.288562536239624, 0.23498497903347015, 0.5270128846168518, 2.135023355484009, 
63, 2647380407, -81.98504638671875, 27.67963981628418, -100.84852600097656, -5.2666168212890625, -8.86295223236084, 1.2944285869598389, -0.183871790766716, -0.5250533819198608, 1.3753561973571777, 
64, 2647388740, -81.99088287353516, 27.67034339904785, -100.84796905517578, -4.819235324859619, -8.635777473449707, 0.869278073310852, -0.738727331161499, -0.4406800866127014, 0.4455595910549164, 
65, 2647397073, -81.98613739013672, 27.66795539855957, -100.8426742553711, -4.02943229675293, -8.435318946838379, 1.1316369771957397, 0.22453439235687256, -0.8919004201889038, 1.3766368627548218, 
66, 2647405406, -81.98197937011719, 27.673816680908203, -100.84410095214844, -3.825161933898926, -8.456934928894043, 1.3608356714248657, 0.5740149021148682, 0.02277105301618576, 2.218397617340088, 
67, 2647413739, -81.981689453125, 27.67881202697754, -100.84532928466797, -4.50114107131958, -8.694570541381836, 1.5661827325820923, 0.08626873046159744, -0.021093320101499557, 2.1491622924804688, 
68, 2647422072, -81.98604583740234, 27.681642532348633, -100.85226440429688, -5.215347766876221, -8.732996940612793, 1.3071316480636597, -0.14288899302482605, 0.5531138181686401, 1.7757835388183594, 
69, 2647430405, -81.98755645751953, 27.67389678955078, -100.84920501708984, -4.90126371383667, -8.681276321411133, 0.9021379947662354, -0.49106332659721375, -0.9208957552909851, 0.730210542678833, 
70, 2647438738, -81.98825073242188, 27.6676025390625, -100.84609985351562, -4.327620029449463, -8.486990928649902, 1.0622186660766602, -0.26409557461738586, -0.658349871635437, 0.8405566811561584, 
71, 2647447071, -81.98265838623047, 27.671016693115234, -100.84745788574219, -3.797292470932007, -8.40138053894043, 1.2324154376983643, 0.6042397618293762, -0.27557075023651123, 1.995989203453064, 
72, 2647455404, -81.98057556152344, 27.677595138549805, -100.84708404541016, -4.206943511962891, -8.620000839233398, 1.4914956092834473, 0.22381718456745148, -0.15472279489040375, 2.3289742469787598, 
73, 2647463737, -81.9842529296875, 27.682424545288086, -100.85474395751953, -4.961359977722168, -8.545101165771484, 1.2482222318649292, 0.01757136546075344, 0.7462964057922363, 2.021040201187134, 
74, 2647472070, -81.98484802246094, 27.677133560180664, -100.84831237792969, -5.130712509155273, -8.758971214294434, 1.1443694829940796, -0.435890257358551, -0.9910274744033813, 1.010327935218811, 
75, 2647480403, -81.98841857910156, 27.668649673461914, -100.84908294677734, -4.575516223907471, -8.618002891540527, 0.9062008261680603, -0.4199325442314148, -0.33745476603507996, 0.5599784255027771, 
76, 2647488736, -81.982177734375, 27.668663024902344, -100.8438491821289, -3.860049247741699, -8.458937644958496, 1.1159344911575317, 0.45024704933166504, -0.7757143378257751, 1.6198188066482544, 
77, 2647497069, -81.9797592163086, 27.67479133605957, -100.8448486328125, -3.945657968521118, -8.530692100524902, 1.4441022872924805, 0.38890090584754944, 0.08524417132139206, 2.2733144760131836, 
78, 2647505402, -81.98078155517578, 27.68107032775879, -100.85004425048828, -4.747615814208984, -8.525314331054688, 1.3007986545562744, 0.16067808866500854, 0.42824438214302063, 2.210277795791626, 
79, 2647513735, -81.98291015625, 27.680803298950195, -100.85433197021484, -5.286909580230713, -8.863810539245605, 1.3559787273406982, -0.2835111618041992, -0.2606632709503174, 1.544819951057434, 
80, 2647522068, -81.98948669433594, 27.67113494873047, -100.85277557373047, -4.761111259460449, -8.643095016479492, 0.8915303349494934, -0.8816035389900208, -0.5516409277915955, 0.41810116171836853, 
81, 2647530401, -81.98521423339844, 27.66692543029785, -100.84557342529297, -4.071691036224365, -8.487235069274902, 1.105865716934204, 0.10801522433757782, -1.038618803024292, 1.1765642166137695, 
82, 2647538734, -81.9810791015625, 27.67223358154297, -100.84663391113281, -3.8348488807678223, -8.447929382324219, 1.3301194906234741, 0.5490922927856445, -0.025550197809934616, 2.1570770740509033, 
83, 2647547067, -81.98257446289062, 27.67675018310547, -100.8517074584961, -4.48267936706543, -8.657163619995117, 1.609692096710205, -0.006211452651768923, 0.20027771592140198, 2.059896945953369, 
84, 2647555400, -81.98550415039062, 27.6802978515625, -100.85875701904297, -5.16648530960083, -8.69976806640625, 1.2209553718566895, 0.037166256457567215, 0.5734770894050598, 1.8606948852539062, 
85, 2647563733, -81.9873275756836, 27.673124313354492, -100.85172271728516, -4.9999589920043945, -8.732355117797852, 1.0157254934310913, -0.5380398631095886, -0.919999361038208, 0.7987287044525146, 
86, 2647572066, -81.98849487304688, 27.6663761138916, -100.84845733642578, -4.39022159576416, -8.45845890045166, 1.028679370880127, -0.32728588581085205, -0.6831188201904297, 0.7896868586540222, 
87, 2647580399, -81.984375, 27.669021606445312, -100.85926818847656, -3.8424694538116455, -8.415674209594727, 1.2265300750732422, 0.426144003868103, -0.2933214008808136, 1.902292251586914, 
88, 2647588732, -81.98236846923828, 27.674711227416992, -100.86005401611328, -4.096720218658447, -8.610755920410156, 1.4558682441711426, 0.27840110659599304, -0.04770651087164879, 2.207383632659912, 
89, 2647597065, -81.98552703857422, 27.67963218688965, -100.86106872558594, -4.9168701171875, -8.531017303466797, 1.2108856439590454, 0.04026557877659798, 0.6728859543800354, 2.0436060428619385, 
90, 2647605398, -81.98517608642578, 27.67613410949707, -100.85662078857422, -5.108224391937256, -8.736517906188965, 1.1724793910980225, -0.21289269626140594, -0.7523284554481506, 1.1919329166412354, 
91, 2647613731, -81.98875427246094, 27.667531967163086, -100.85595703125, -4.627195358276367, -8.621979713439941, 0.8447439074516296, -0.5280758738517761, -0.5388337969779968, 0.5733233690261841, 
92, 2647622064, -81.98334503173828, 27.66611099243164, -100.8514633178711, -3.89445161819458, -8.434547424316406, 1.1000211238861084, 0.39256370067596436, -0.7220011353492737, 1.4406468868255615, 
93, 2647630397, -81.98019409179688, 27.672508239746094, -100.85131072998047, -3.91054630279541, -8.47552490234375, 1.4181058406829834, 0.453935444355011, 0.05258602276444435, 2.3092000484466553, 
94, 2647638730, -81.979248046875, 27.677412033081055, -100.85478210449219, -4.666706085205078, -8.596327781677246, 1.3863568305969238, 0.3014027178287506, 0.22240839898586273, 2.0751118659973145, 
95, 2647647063, -81.98121643066406, 27.67723274230957, -100.86650085449219, -5.278597831726074, -8.850713729858398, 1.4130369424819946, -0.15928210318088531, -0.07034949213266373, 1.5271718502044678, 
96, 2647655396, -81.98654174804688, 27.668777465820312, -100.86415100097656, -4.811617374420166, -8.658387184143066, 0.8917377591133118, -0.7753300070762634, -0.6148056387901306, 0.5730416178703308, 
97, 2647663729, -81.98397827148438, 27.665678024291992, -100.85887145996094, -4.142762184143066, -8.467334747314453, 1.0894280672073364, 0.046489834785461426, -0.7427231073379517, 1.2692365646362305, 
98, 2647672062, -81.97921752929688, 27.670360565185547, -100.8597640991211, -3.8230035305023193, -8.477004051208496, 1.2938557863235474, 0.616995632648468, -0.05457112565636635, 2.0839996337890625, 
99, 2647680395, -81.97931671142578, 27.675621032714844, -100.8611068725586, -4.425296306610107, -8.699989318847656, 1.5932525396347046, 0.0661359578371048, 0.03757608309388161, 2.175058364868164, 
100, 2647688728, -81.98448944091797, 27.678667068481445, -100.86997985839844, -5.176582336425781, -8.626182556152344, 1.212802529335022, -0.13151627779006958, 0.7584885954856873, 1.772018313407898, 
101, 2647697061, -81.98661804199219, 27.672367095947266, -100.86944580078125, -4.9751386642456055, -8.698722839355469, 1.0221694707870483, -0.5492588877677917, -0.8713065981864929, 0.8998536467552185, 
102, 2647705394, -81.98848724365234, 27.665687561035156, -100.86738586425781, -4.425986289978027, -8.525308609008789, 1.0086867809295654, -0.344806045293808, -0.5536901950836182, 0.7781605124473572, 
103, 2647713727, -81.98310852050781, 27.668474197387695, -100.86408233642578, -3.7691268920898438, -8.447896003723145, 1.2226446866989136, 0.5073155760765076, -0.41752490401268005, 1.9364619255065918, 
104, 2647722060, -81.98101806640625, 27.67447853088379, -100.8648681640625, -4.064676761627197, -8.60614013671875, 1.4204241037368774, 0.2894664704799652, -0.042071375995874405, 2.245753526687622, 
105, 2647730393, -81.98438262939453, 27.679523468017578, -100.87069702148438, -4.923374652862549, -8.522385597229004, 1.3014978170394897, 0.08519294857978821, 0.8082572221755981, 2.0392775535583496, 
106, 2647738726, -81.98242950439453, 27.676483154296875, -100.86614227294922, -5.213034629821777, -8.791409492492676, 1.1742392778396606, -0.022630175575613976, -0.7560425400733948, 1.2477974891662598, 
107, 2647747059, -81.98582458496094, 27.66759490966797, -100.86502075195312, -4.685212135314941, -8.62202262878418, 0.8852930665016174, -0.48350706696510315, -0.4972619414329529, 0.5338006615638733, 
108, 2647755392, -81.98084259033203, 27.666576385498047, -100.8606185913086, -3.889418840408325, -8.457930564880371, 1.1006578207015991, 0.3459458649158478, -0.7040200233459473, 1.485395073890686, 
109, 2647763725, -81.9770278930664, 27.672677993774414, -100.86021423339844, -3.842993974685669, -8.447848320007324, 1.3838839530944824, 0.5156657695770264, 0.009195511229336262, 2.280717134475708, 
110, 2647772058, -81.97669982910156, 27.677400588989258, -100.86376953125, -4.63189697265625, -8.615564346313477, 1.4534826278686523, 0.23150144517421722, 0.2279154658317566, 2.0491387844085693, 
111, 2647780391, -81.9796142578125, 27.67880630493164, -100.85720825195312, -5.318734645843506, -8.811724662780762, 1.3443363904953003, -0.15584981441497803, 0.19574399292469025, 1.6852630376815796, 
112, 2647788724, -81.98382568359375, 27.67034912109375, -100.85385131835938, -4.873010158538818, -8.667407035827637, 0.8900357484817505, -0.6989228129386902, -0.7211047410964966, 0.5875648856163025, 
113, 2647797057, -81.98153686523438, 27.665630340576172, -100.84810638427734, -4.199262619018555, -8.445862770080566, 1.0523548126220703, -0.028956890106201172, -0.8568089008331299, 1.0900648832321167, 
114, 2647805390, -81.9762191772461, 27.66992950439453, -100.84764862060547, -3.8391456604003906, -8.410181999206543, 1.3344944715499878, 0.6072622537612915, -0.20172488689422607, 2.0603578090667725, 
115, 2647813723, -81.97569274902344, 27.67485809326172, -100.84750366210938, -4.292568206787109, -8.70112419128418, 1.6316702365875244, 0.06723736226558685, -0.10836102068424225, 2.152876377105713, 
116, 2647822056, -81.97943115234375, 27.679344177246094, -100.85623168945312, -5.089108467102051, -8.562237739562988, 1.2401769161224365, 0.03199218213558197, 0.7687857151031494, 1.9457597732543945, 
117, 2647830389, -81.98161315917969, 27.672834396362305, -100.85606384277344, -4.99973726272583, -8.761717796325684, 1.1185762882232666, -0.5310727953910828, -0.8273782134056091, 0.8666064739227295, 
118, 2647838722, -81.98351287841797, 27.665544509887695, -100.85352325439453, -4.498286724090576, -8.493529319763184, 0.8848714828491211, -0.3748515248298645, -0.6136530637741089, 0.7131514549255371, 
119, 2647847055, -81.9776382446289, 27.666845321655273, -100.85131072998047, -3.835331678390503, -8.475303649902344, 1.1242583990097046, 0.545429527759552, -0.4782561957836151, 1.766536831855774, 
120, 2647855388, -81.97433471679688, 27.672466278076172, -100.8504638671875, -4.0658369064331055, -8.581574440002441, 1.4201619625091553, 0.34287217259407043, -0.2205001264810562, 2.2222142219543457, 
121, 2647863721, -81.9770278930664, 27.677772521972656, -100.85807037353516, -4.880092620849609, -8.564592361450195, 1.2868518829345703, 0.10263624042272568, 0.6872811913490295, 2.0880725383758545, 
122, 2647872054, -81.97528076171875, 27.675750732421875, -100.85365295410156, -5.2312750816345215, -8.78191089630127, 1.2701585292816162, -0.043864380568265915, -0.723435640335083, 1.3672622442245483, 
123, 2647880387, -81.98104858398438, 27.66604995727539, -100.85315704345703, -4.716212749481201, -8.635663032531738, 0.9499905109405518, -0.7784293293952942, -0.5288442373275757, 0.4401549994945526, 
124, 2647888720, -81.9776611328125, 27.66350746154785, -100.84797668457031, -3.9336273670196533, -8.471956253051758, 1.121029257774353, 0.11188299208879471, -0.8140844106674194, 1.3167766332626343, 
125, 2647897053, -81.97315979003906, 27.669910430908203, -100.84829711914062, -3.8608224391937256, -8.468114852905273, 1.3984133005142212, 0.6344646215438843, 0.08283644914627075, 2.3059215545654297, 
126, 2647905386, -81.9735107421875, 27.675216674804688, -100.85194396972656, -4.607864856719971, -8.69490909576416, 1.5014723539352417, 0.15481244027614594, 0.2459222972393036, 2.118271827697754, 
127, 2647913719, -81.97836303710938, 27.676788330078125, -100.86253356933594, -5.288538455963135, -8.752985000610352, 1.3317582607269287, -0.24857334792613983, 0.4449704885482788, 1.6700737476348877, 
128, 2647922052, -81.98095703125, 27.66902732849121, -100.85759735107422, -4.854219436645508, -8.677264213562012, 0.865708589553833, -0.5929054617881775, -0.8730483651161194, 0.6920453906059265, 
129, 2647930385, -81.98058319091797, 27.662883758544922, -100.8531494140625, -4.267557621002197, -8.48360824584961, 1.0863380432128906, -0.19304166734218597, -0.7536605000495911, 0.9006476402282715, 
130, 2647938718, -81.9769287109375, 27.66681480407715, -100.85452270507812, -3.8065857887268066, -8.399691581726074, 1.296722412109375, 0.5068801045417786, -0.014740992337465286, 1.9882279634475708, 
131, 2647947051, -81.97586059570312, 27.67310905456543, -100.85397338867188, -4.238077163696289, -8.702342987060547, 1.6141607761383057, 0.19110779464244843, 0.018314175307750702, 2.30289888381958, 
132, 2647955384, -81.98069763183594, 27.67835235595703, -100.86344146728516, -5.069583415985107, -8.564901351928711, 1.2497762441635132, -0.05841325968503952, 0.8607663512229919, 2.024113655090332, 
133, 2647963717, -81.98040008544922, 27.67227554321289, -100.85762023925781, -5.102387428283691, -8.72455883026123, 1.0893136262893677, -0.3000067174434662, -0.9395430088043213, 0.9376091361045837, 
134, 2647972050, -81.98380279541016, 27.663959503173828, -100.85688781738281, -4.525210380554199, -8.527068138122559, 0.8256526589393616, -0.45387139916419983, -0.4413973093032837, 0.5639998316764832, 
135, 2647980383, -81.97822570800781, 27.66327667236328, -100.85440063476562, -3.8507559299468994, -8.45220947265625, 1.075648307800293, 0.46897098422050476, -0.5993346571922302, 1.5418232679367065, 
136, 2647988716, -81.97435760498047, 27.66976547241211, -100.85523223876953, -3.90585994720459, -8.52747631072998, 1.3891849517822266, 0.5031404495239258, -0.02872636169195175, 2.3030524253845215, 
137, 2647997049, -81.97584533691406, 27.67568588256836, -100.86905670166016, -4.724774360656738, -8.524910926818848, 1.308149814605713, 0.23119409382343292, 0.6595921516418457, 2.16353178024292, 
138, 2648005382, -81.9763412475586, 27.67392921447754, -100.86738586425781, -5.2265543937683105, -8.798542022705078, 1.3112303018569946, -0.16035792231559753, -0.42984530329704285, 1.3577594757080078, 
139, 2648013715, -81.98259735107422, 27.66508674621582, -100.8657455444336, -4.792290210723877, -8.68639087677002, 0.9065584540367126, -0.7746129631996155, -0.4026685655117035, 0.5280631184577942, 
140, 2648022048, -81.97865295410156, 27.661161422729492, -100.86005401611328, -4.062550067901611, -8.444268226623535, 1.0901222229003906, 0.15032997727394104, -0.8913114070892334, 1.1604273319244385, 
141, 2648030381, -81.97445678710938, 27.666845321655273, -100.86809539794922, -3.8977696895599365, -8.484505653381348, 1.3828822374343872, 0.6101054549217224, 0.09036702662706375, 2.216348648071289, 
142, 2648038714, -81.97509765625, 27.671070098876953, -100.8697738647461, -4.531033515930176, -8.65944766998291, 1.5886693000793457, 0.012576588429510593, 0.020849986001849174, 2.0193748474121094, 
143, 2648047047, -81.98047637939453, 27.673551559448242, -100.87897491455078, -5.2087883949279785, -8.72236156463623, 1.3056187629699707, -0.21214988827705383, 0.6568257808685303, 1.747607946395874, 
144, 2648055380, -81.98185729980469, 27.666034698486328, -100.87325286865234, -4.932164192199707, -8.681384086608887, 0.9495398998260498, -0.49147310853004456, -0.9535026550292969, 0.7340783476829529, 
145, 2648063713, -81.98304748535156, 27.659181594848633, -100.86952209472656, -4.340838432312012, -8.481712341308594, 1.0270195007324219, -0.3644777238368988, -0.7383943796157837, 0.8146607279777527, 
146, 2648072046, -81.97785186767578, 27.661014556884766, -100.86803436279297, -3.8237571716308594, -8.413533210754395, 1.2726848125457764, 0.5330065488815308, -0.3503386974334717, 1.7821359634399414, 
147, 2648080379, -81.9752426147461, 27.66742706298828, -100.8651123046875, -4.101778507232666, -8.630915641784668, 1.443272352218628, 0.3327544927597046, -0.05439182370901108, 2.32771897315979, 
148, 2648088712, -81.97962951660156, 27.673303604125977, -100.87401580810547, -4.959670066833496, -8.520509719848633, 1.2746319770812988, -0.03748643025755882, 0.8085901737213135, 2.1082308292388916, 
149, 2648097045, -81.97896575927734, 27.669940948486328, -100.86943054199219, -5.188499927520752, -8.777717590332031, 1.1926583051681519, -0.2770051658153534, -0.9431802034378052, 1.2652151584625244, 
150, 2648105378, -81.98341369628906, 27.66211700439453, -100.86812591552734, -4.659104347229004, -8.566445350646973, 0.8742848634719849, -0.6129357814788818, -0.49336859583854675, 0.6300589442253113, 
151, 2648113711, -81.9786148071289, 27.660377502441406, -100.8581771850586, -3.8542306423187256, -8.491239547729492, 1.1486965417861938, 0.33849209547042847, -0.6776630282402039, 1.4278911352157593, 
152, 2648122044, -81.9757308959961, 27.66765022277832, -100.85895538330078, -3.8651976585388184, -8.461746215820312, 1.4083541631698608, 0.3819594383239746, -0.021298233419656754, 2.393598794937134, 
153, 2648130377, -81.9754867553711, 27.67352294921875, -100.86302947998047, -4.6234211921691895, -8.599929809570312, 1.3317389488220215, 0.26333996653556824, 0.3339327871799469, 2.2075631618499756, 
154, 2648138710, -81.97708129882812, 27.673587799072266, -100.86473083496094, -5.296429634094238, -8.784077644348145, 1.369397521018982, -0.10231605172157288, -0.0445815771818161, 1.5247384309768677, 
155, 2648147043, -81.98171997070312, 27.666444778442383, -100.8639144897461, -4.822275161743164, -8.655362129211426, 0.8507448434829712, -0.6397026181221008, -0.4794600307941437, 0.7435299754142761, 
156, 2648155376, -81.97864532470703, 27.662208557128906, -100.85897064208984, -4.178583145141602, -8.425519943237305, 1.067354679107666, 0.08731893450021744, -0.8154676556587219, 1.1108125448226929, 
157, 2648163709, -81.97541046142578, 27.667774200439453, -100.86570739746094, -3.8565564155578613, -8.46012020111084, 1.3442007303237915, 0.44133323431015015, -0.011820969171822071, 2.216553211212158, 
158, 2648172042, -81.97593688964844, 27.673364639282227, -100.8669662475586, -4.377147197723389, -8.671138763427734, 1.6510860919952393, 0.002817565808072686, -0.000986148021183908, 2.188992738723755, 
159, 2648180375, -81.9807357788086, 27.677133560180664, -100.87356567382812, -5.11928653717041, -8.640795707702637, 1.300017237663269, -0.13497421145439148, 0.6911745071411133, 1.8997821807861328, 
160, 2648188708, -81.9817886352539, 27.670244216918945, -100.86788177490234, -4.992763042449951, -8.736611366271973, 0.9909122586250305, -0.4500804841518402, -0.9390051364898682, 0.8065922856330872, 
161, 2648197041, -81.9837875366211, 27.662487030029297, -100.86676025390625, -4.433095932006836, -8.503113746643066, 1.0289794206619263, -0.35374534130096436, -0.5504627227783203, 0.6779319047927856, 
162, 2648205374, -81.98017883300781, 27.664260864257812, -100.86610412597656, -3.8282551765441895, -8.459327697753906, 1.111258625984192, 0.38902899622917175, -0.2648639976978302, 1.7638473510742188, 
163, 2648213707, -81.97732543945312, 27.670564651489258, -100.86920166015625, -4.052305698394775, -8.610650062561035, 1.3840687274932861, 0.35281047224998474, -0.08128676563501358, 2.3157060146331787, 
164, 2648222040, -81.98152923583984, 27.67583465576172, -100.87910461425781, -4.929678440093994, -8.518814086914062, 1.2630287408828735, 0.04182804375886917, 0.9035934805870056, 2.022372007369995, 
165, 2648230373, -81.98159790039062, 27.67252540588379, -100.87671661376953, -5.1750102043151855, -8.765486717224121, 1.226784110069275, -0.22872233390808105, -0.6725145578384399, 1.2332741022109985, 
166, 2648238706, -81.98579406738281, 27.664642333984375, -100.87492370605469, -4.663524627685547, -8.628152847290039, 0.8566960096359253, -0.6096187829971313, -0.5479397177696228, 0.6329533457756042, 
167, 2648247039, -81.98038482666016, 27.66275405883789, -100.86905670166016, -3.878321886062622, -8.489579200744629, 1.1319499015808105, 0.31931984424591064, -0.8575645685195923, 1.4317716360092163, 
168, 2648255372, -81.9761962890625, 27.66852378845215, -100.87113952636719, -3.934614419937134, -8.435564994812012, 1.432041883468628, 0.6142550110816956, 0.09016210585832596, 2.198239326477051, 
169, 2648263705, -81.97560119628906, 27.67351531982422, -100.87533569335938, -4.639206886291504, -8.673787117004395, 1.4135830402374268, 0.25465673208236694, 0.22881194949150085, 2.113071918487549, 
170, 2648272038, -81.97960662841797, 27.673324584960938, -100.87828826904297, -5.350869655609131, -8.792044639587402, 1.3620085716247559, -0.3217019736766815, 0.08065923303365707, 1.474611520767212, 
171, 2648280371, -81.98333740234375, 27.663911819458008, -100.87674713134766, -4.840235710144043, -8.652050018310547, 0.8893415927886963, -0.6473101377487183, -0.7383942604064941, 0.5051639676094055, 
172, 2648288704, -81.98046875, 27.658580780029297, -100.87135314941406, -4.192317008972168, -8.449167251586914, 1.049551010131836, 0.03862626478075981, -0.8828073740005493, 0.9886837601661682, 
173, 2648297037, -81.97627258300781, 27.663185119628906, -100.87069702148438, -3.766958713531494, -8.431954383850098, 1.3113223314285278, 0.5107479095458984, -0.1033918708562851, 2.1126365661621094, 
174, 2648305370, -81.9755859375, 27.66883659362793, -100.87178039550781, -4.317523002624512, -8.656144142150879, 1.6220637559890747, 0.13754843175411224, -0.016380304470658302, 2.198162317276001, 
175, 2648313703, -81.98052215576172, 27.672744750976562, -100.88713836669922, -5.118199825286865, -8.611149787902832, 1.2444099187850952, -0.055877458304166794, 0.8647366166114807, 1.893711805343628, 
176, 2648322036, -81.98260498046875, 27.66626739501953, -100.88219451904297, -5.057538986206055, -8.743592262268066, 1.0506811141967773, -0.533608615398407, -0.8530949354171753, 0.8448855876922607, 
177, 2648330369, -81.98424530029297, 27.65911865234375, -100.88082122802734, -4.481484889984131, -8.47794246673584, 0.9488174915313721, -0.2901964485645294, -0.49803033471107483, 0.743786096572876, 
178, 2648338702, -81.9796371459961, 27.66162872314453, -100.87889099121094, -3.8157262802124023, -8.442573547363281, 1.1568397283554077, 0.44007816910743713, -0.38755616545677185, 1.87014639377594, 
179, 2648347035, -81.97618865966797, 27.66765594482422, -100.87187194824219, -4.026686191558838, -8.561348915100098, 1.3995773792266846, 0.40683090686798096, -0.10198307037353516, 2.28676176071167, 
180, 2648355368, -81.97897338867188, 27.67240333557129, -100.87924194335938, -4.825052738189697, -8.508472442626953, 1.270526647567749, 0.07271881401538849, 0.6304430961608887, 1.9967576265335083, 
181, 2648363701, -81.97975158691406, 27.66938018798828, -100.87191009521484, -5.189573764801025, -8.8003568649292, 1.2100034952163696, -0.3274652063846588, -0.6913666725158691, 1.271823763847351, 
182, 2648372034, -81.98504638671875, 27.66073226928711, -100.87142944335938, -4.649440765380859, -8.613703727722168, 0.8983038663864136, -0.6683650016784668, -0.4200350344181061, 0.5226840972900391, 
183, 2648380367, -81.9804458618164, 27.658178329467773, -100.86597442626953, -3.936016321182251, -8.499887466430664, 1.114012360572815, 0.2126493901014328, -0.8966647982597351, 1.3562737703323364, 
184, 2648388700, -81.97669982910156, 27.66512107849121, -100.86812591552734, -3.9331507682800293, -8.41775894165039, 1.383382797241211, 0.5610029697418213, 0.11749250441789627, 2.334635019302368, 
185, 2648397033, -81.97525024414062, 27.670499801635742, -100.8682861328125, -4.651982307434082, -8.671266555786133, 1.41390061378479, 0.28595730662345886, 0.10125306248664856, 2.1806678771972656, 
186, 2648405366, -81.97917938232422, 27.671249389648438, -100.87144470214844, -5.279856204986572, -8.756888389587402, 1.475281000137329, -0.30051901936531067, 0.12031006067991257, 1.5833696126937866, 
187, 2648413699, -81.98419952392578, 27.66227912902832, -100.86294555664062, -4.850721836090088, -8.76239013671875, 0.9165366888046265, -0.7943102717399597, -0.716571033000946, 0.5557520389556885, 
188, 2648422032, -81.98238372802734, 27.657211303710938, -100.85813903808594, -4.159363746643066, -8.437243461608887, 1.1469011306762695, -0.05795220285654068, -0.8157236576080322, 1.0108401775360107, 
189, 2648430365, -81.97880554199219, 27.66200065612793, -100.8663558959961, -3.8056273460388184, -8.477704048156738, 1.3509796857833862, 0.5046772360801697, 0.01052745059132576, 2.120525598526001, 
190, 2648438698, -81.97980499267578, 27.66775894165039, -100.86898040771484, -4.332072734832764, -8.654486656188965, 1.5970988273620605, 0.021182972937822342, 0.14528395235538483, 2.187251091003418, 
191, 2648447031, -81.98355865478516, 27.67101287841797, -100.88123321533203, -5.08814001083374, -8.617226600646973, 1.1641056537628174, 0.03107006661593914, 0.7610244750976562, 1.8271400928497314, 
192, 2648455364, -81.98453521728516, 27.66485595703125, -100.8752670288086, -5.063211441040039, -8.737276077270508, 1.0480989217758179, -0.4564840793609619, -0.956192135810852, 0.9016210436820984, 
193, 2648463697, -81.98606872558594, 27.65818214416504, -100.87260437011719, -4.503866195678711, -8.52479362487793, 0.9454413056373596, -0.32088229060173035, -0.5736435651779175, 0.8115869760513306, 
194, 2648472030, -81.97982788085938, 27.659452438354492, -100.8697280883789, -3.8183798789978027, -8.43038272857666, 1.1797386407852173, 0.5831849575042725, -0.5062781572341919, 1.7349034547805786, 
195, 2648480363, -81.9758529663086, 27.66554069519043, -100.87670135498047, -4.001945972442627, -8.566117286682129, 1.4051538705825806, 0.4814963936805725, -0.09358160197734833, 2.292268991470337, 
196, 2648488696, -81.97846984863281, 27.670413970947266, -100.8848648071289, -4.863624572753906, -8.545928955078125, 1.2904491424560547, 0.13526876270771027, 0.7146627902984619, 2.000702142715454, 
197, 2648497029, -81.97777557373047, 27.667736053466797, -100.88494110107422, -5.19728422164917, -8.82767391204834, 1.2096959352493286, -0.18507565557956696, -0.7632401585578918, 1.3214126825332642, 
198, 2648505362, -81.98299407958984, 27.65936279296875, -100.88468170166016, -4.720747470855713, -8.628331184387207, 0.8675757050514221, -0.6461575031280518, -0.3926021456718445, 0.5511670708656311, 
199, 2648513695, -81.97793579101562, 27.657861709594727, -100.88050079345703, -3.9207544326782227, -8.415489196777344, 1.0829010009765625, 0.30383604764938354, -0.8030958771705627, 1.4723830223083496, 
200, 2648522028, -81.9755859375, 27.663421630859375, -100.88323211669922, -3.9007506370544434, -8.452947616577148, 1.3250023126602173, 0.4284493327140808, 0.15463313460350037, 2.1645565032958984, 
201, 2648530361, -81.97457122802734, 27.668075561523438, -100.8885498046875, -4.5977301597595215, -8.632791519165039, 1.3758714199066162, 0.22986215353012085, 0.07635603845119476, 2.0923755168914795, 
202, 2648538694, -81.9792709350586, 27.668216705322266, -100.8920669555664, -5.2993340492248535, -8.802446365356445, 1.411277413368225, -0.374749094247818, 0.14705131947994232, 1.5076795816421509, 
203, 2648547027, -81.98350524902344, 27.65911865234375, -100.89127349853516, -4.817567825317383, -8.685847282409668, 0.8637913465499878, -0.6692615151405334, -0.6674172878265381, 0.5318796038627625, 
204, 2648555360, -81.98089599609375, 27.654529571533203, -100.8855209350586, -4.22916841506958, -8.487642288208008, 1.1263728141784668, -0.013178524561226368, -0.906782329082489, 1.0828675031661987, 
205, 2648563693, -81.97696685791016, 27.6591796875, -100.89205932617188, -3.8135669231414795, -8.384283065795898, 1.3572865724563599, 0.5173819065093994, -0.04634895548224449, 2.108640670776367, 
206, 2648572026, -81.97785186767578, 27.66538429260254, -100.8944320678711, -4.337366104125977, -8.692451477050781, 1.62312912940979, 0.021618414670228958, 0.12791749835014343, 2.24434494972229, 
207, 2648580359, -81.98165130615234, 27.669591903686523, -100.90666198730469, -5.0938286781311035, -8.572803497314453, 1.1990888118743896, -0.027778636664152145, 0.6704013347625732, 1.956158995628357, 
208, 2648588692, -81.98228454589844, 27.664024353027344, -100.90043640136719, -5.052467346191406, -8.752326011657715, 1.132402777671814, -0.4301782548427582, -0.9719961285591125, 0.9723418951034546, 
209, 2648597025, -81.98412322998047, 27.65643310546875, -100.89813995361328, -4.470762729644775, -8.475918769836426, 0.8629475831985474, -0.3348933160305023, -0.5522044897079468, 0.6976549029350281, 
210, 2648605358, -81.97826385498047, 27.658416748046875, -100.89530181884766, -3.7888293266296387, -8.445476531982422, 1.152178168296814, 0.5406396389007568, -0.49106329679489136, 1.8199169635772705, 
211, 2648613691, -81.97509765625, 27.664758682250977, -100.89987182617188, -3.97471284866333, -8.580265998840332, 1.429313063621521, 0.3671031594276428, -0.12157795578241348, 2.3252346515655518, 
212, 2648622024, -81.97833251953125, 27.67017936706543, -100.90873718261719, -4.861630439758301, -8.561173439025879, 1.290861964225769, 0.09956252574920654, 0.7984212636947632, 2.0556702613830566, 
213, 2648630357, -81.97769165039062, 27.667837142944336, -100.90402221679688, -5.249693393707275, -8.857400894165039, 1.2935558557510376, -0.14329883456230164, -0.655813992023468, 1.3499726057052612, 
214, 2648638690, -81.98281860351562, 27.658756256103516, -100.90211486816406, -4.725611209869385, -8.647844314575195, 0.9148126244544983, -0.7279181480407715, -0.578177273273468, 0.49327895045280457, 
215, 2648647023, -81.97846984863281, 27.654979705810547, -100.89478302001953, -3.9703357219696045, -8.483207702636719, 1.1660064458847046, 0.16741463541984558, -0.9308341145515442, 1.2121423482894897, 
216, 2648655356, -81.97441864013672, 27.6607608795166, -100.89754486083984, -3.865957498550415, -8.370532035827637, 1.3909955024719238, 0.6353354454040527, 0.1607549637556076, 2.1899914741516113, 
217, 2648663689, -81.97380065917969, 27.666095733642578, -100.89691925048828, -4.54045295715332, -8.67386531829834, 1.4890638589859009, 0.1488187313079834, 0.028201274573802948, 2.1839723587036133, 
218, 2648672022, -81.97816467285156, 27.66771125793457, -100.9029769897461, -5.244119644165039, -8.70197582244873, 1.3406378030776978, -0.19368204474449158, 0.4386694133281708, 1.6453304290771484, 
219, 2648680355, -81.98194885253906, 27.65960693359375, -100.90037536621094, -4.914317607879639, -8.725423812866211, 0.8812803030014038, -0.7008695006370544, -0.806118369102478, 0.6718101501464844, 
220, 2648688688, -81.98126220703125, 27.65358543395996, -100.8968734741211, -4.298837184906006, -8.389305114746094, 1.0579555034637451, -0.11817128211259842, -0.6945427656173706, 0.8792086839675903, 
221, 2648697021, -81.97602081298828, 27.657426834106445, -100.89948272705078, -3.8612565994262695, -8.45089340209961, 1.3099515438079834, 0.5847474336624146, -0.22546932101249695, 2.039175033569336, 
222, 2648705354, -81.9754638671875, 27.663305282592773, -100.9007339477539, -4.235357761383057, -8.643637657165527, 1.5387548208236694, 0.13099119067192078, 0.0035603786818683147, 2.2208821773529053, 
223, 2648713687, -81.97927856445312, 27.667236328125, -100.91158294677734, -5.03965425491333, -8.605937957763672, 1.2190247774124146, 0.032632533460855484, 0.7901991605758667, 1.9065954685211182, 
224, 2648722020, -81.98043823242188, 27.661094665527344, -100.90615844726562, -5.050543785095215, -8.766159057617188, 1.1396982669830322, -0.4471604824066162, -0.8998408317565918, 0.8916571140289307, 
225, 2648730353, -81.98377227783203, 27.65348243713379, -100.90808868408203, -4.5434722900390625, -8.583555221557617, 0.9218221306800842, -0.41552695631980896, -0.36037951707839966, 0.6689670085906982, 
226, 2648738686, -81.97856140136719, 27.654613494873047, -100.90596008300781, -3.8276212215423584, -8.406670570373535, 1.1218717098236084, 0.49955442547798157, -0.4318176209926605, 1.7101600170135498, 
227, 2648747019, -81.97527313232422, 27.660736083984375, -100.90977478027344, -3.9944326877593994, -8.590652465820312, 1.3896688222885132, 0.4075993299484253, -0.07296214252710342, 2.2927045822143555, 
228, 2648755352, -81.97816467285156, 27.66643524169922, -100.9168930053711, -4.799337863922119, -8.498625755310059, 1.2580734491348267, 0.04533720016479492, 0.6203767657279968, 2.1134047508239746, 
229, 2648763685, -81.97824096679688, 27.663915634155273, -100.91637420654297, -5.2818379402160645, -8.835220336914062, 1.288670539855957, -0.14783254265785217, -0.5097360610961914, 1.3064028024673462, 
230, 2648772018, -81.98263549804688, 27.65521812438965, -100.91471099853516, -4.765974998474121, -8.64978313446045, 0.926293134689331, -0.6247183680534363, -0.5452630519866943, 0.5323662757873535, 
231, 2648780351, -81.97903442382812, 27.652042388916016, -100.90989685058594, -4.013953685760498, -8.494680404663086, 1.153810739517212, 0.12973609566688538, -0.8279929757118225, 1.2724639177322388, 
232, 2648788684, -81.97340393066406, 27.658113479614258, -100.91093444824219, -3.841996908187866, -8.403627395629883, 1.364162802696228, 0.7263940572738647, -0.01456169132143259, 2.2493653297424316, 
233, 2648797017, -81.97312927246094, 27.662973403930664, -100.9140396118164, -4.598132610321045, -8.734325408935547, 1.558552622795105, 0.14761482179164886, 0.09643758088350296, 2.1155307292938232, 
234, 2648805350, -81.97718048095703, 27.66510772705078, -100.91948699951172, -5.250604152679443, -8.751886367797852, 1.3103123903274536, -0.18894338607788086, 0.3850843906402588, 1.7154877185821533, 
235, 2648813683, -81.97969818115234, 27.656307220458984, -100.91397094726562, -4.901865005493164, -8.698622703552246, 0.8755147457122803, -0.6103487610816956, -0.9357776641845703, 0.6047008037567139, 
236, 2648822016, -81.9786376953125, 27.65115737915039, -100.9100341796875, -4.287135124206543, -8.44121265411377, 1.0417758226394653, -0.09775672852993011, -0.7260226607322693, 0.987736165523529, 
237, 2648830349, -81.97286224365234, 27.654987335205078, -100.89875793457031, -3.7451648712158203, -8.413710594177246, 1.2494744062423706, 0.5723757147789001, -0.3576900064945221, 2.0574376583099365, 
238, 2648838682, -81.97183227539062, 27.660459518432617, -100.89932250976562, -4.207050323486328, -8.671146392822266, 1.5598642826080322, 0.14951027929782867, -0.07314144819974899, 2.185380697250366, 
239, 2648847015, -81.97608184814453, 27.66513442993164, -100.91121673583984, -5.020412921905518, -8.508240699768066, 1.2357125282287598, -0.00587846664711833, 0.8254187703132629, 1.9902517795562744, 
240, 2648855348, -81.97685241699219, 27.659948348999023, -100.90586853027344, -5.126206398010254, -8.782382011413574, 1.10716712474823, -0.39664924144744873, -0.876250147819519, 1.0058965682983398, 
241, 2648863681, -81.97930908203125, 27.651697158813477, -100.9050521850586, -4.5764312744140625, -8.558940887451172, 0.8717604279518127, -0.3799487352371216, -0.5001307129859924, 0.6093882322311401, 
242, 2648872014, -81.97370910644531, 27.65140724182129, -100.90190887451172, -3.897416114807129, -8.464129447937012, 1.1103668212890625, 0.4904101490974426, -0.5631929636001587, 1.5538874864578247, 
243, 2648880347, -81.97029113769531, 27.657337188720703, -100.89585876464844, -3.952627420425415, -8.510024070739746, 1.4341919422149658, 0.42494019865989685, -0.06481682509183884, 2.270087242126465, 
244, 2648888680, -81.9710693359375, 27.66280174255371, -100.90133666992188, -4.759668827056885, -8.545129776000977, 1.3160209655761719, 0.20632265508174896, 0.44415083527565, 2.1093578338623047, 
245, 2648897013, -81.97116088867188, 27.661808013916016, -100.89969635009766, -5.19835090637207, -8.816574096679688, 1.2983909845352173, -0.08095379173755646, -0.35692155361175537, 1.470948576927185, 
246, 2648905346, -81.97647094726562, 27.653018951416016, -100.89847564697266, -4.774129390716553, -8.689903259277344, 0.8993626832962036, -0.7119604349136353, -0.5010272264480591, 0.5169720649719238, 
247, 2648913679, -81.97259521484375, 27.650083541870117, -100.89757537841797, -4.043101787567139, -8.428788185119629, 1.1271450519561768, 0.16239424049854279, -0.8291711807250977, 1.3015618324279785, 
248, 2648922012, -81.96854400634766, 27.655975341796875, -100.90028381347656, -3.891570806503296, -8.432592391967773, 1.3617737293243408, 0.6314677000045776, 0.1596022993326187, 2.2011337280273438, 
249, 2648930345, -81.96682739257812, 27.66081428527832, -100.90139770507812, -4.561237335205078, -8.675309181213379, 1.5350157022476196, 0.2450770139694214, -0.04973003640770912, 2.135023355484009, 
250, 2648938678, -81.97186279296875, 27.66284942626953, -100.90828704833984, -5.211755275726318, -8.740567207336426, 1.3501393795013428, -0.22692932188510895, 0.5348509550094604, 1.6815747022628784, 
251, 2648947011, -81.97388458251953, 27.654712677001953, -100.90260314941406, -4.910820007324219, -8.680818557739258, 0.9547181725502014, -0.5613743662834167, -0.9408748745918274, 0.686435878276825, 
252, 2648955344, -81.97370910644531, 27.6480770111084, -100.89828491210938, -4.309323310852051, -8.498099327087402, 1.1013590097427368, -0.22503386437892914, -0.7894435524940491, 0.8190920352935791, 
253, 2648963677, -81.96951293945312, 27.65140724182129, -100.89879608154297, -3.7942581176757812, -8.384174346923828, 1.2957017421722412, 0.4961733818054199, -0.15861615538597107, 1.965380311012268, 
254, 2648972010, -81.96830749511719, 27.658161163330078, -100.9000473022461, -4.175753593444824, -8.672870635986328, 1.4828919172286987, 0.20780830085277557, 0.02054261974990368, 2.325772762298584, 
255, 2648980343, -81.9720687866211, 27.663127899169922, -100.911376953125, -5.041928768157959, -8.531821250915527, 1.171779751777649, -0.017865927889943123, 0.6924552321434021, 2.0430426597595215, 
256, 2648988676, -81.97271728515625, 27.6578369140625, -100.90679931640625, -5.136148929595947, -8.759221076965332, 1.1270372867584229, -0.3412712514400482, -0.7966411709785461, 0.9808714985847473, 
257, 2648997009, -81.97654724121094, 27.64920425415039, -100.90617370605469, -4.603219509124756, -8.522754669189453, 0.8572472333908081, -0.5322765707969666, -0.48988503217697144, 0.565126895904541, 
258, 2649005342, -81.97002410888672, 27.649621963500977, -100.90198516845703, -3.8134243488311768, -8.41968822479248, 1.1129701137542725, 0.5432267189025879, -0.6603221893310547, 1.6532708406448364, 
259, 2649013675, -81.96753692626953, 27.655189514160156, -100.91105651855469, -3.9158778190612793, -8.52932071685791, 1.440585970878601, 0.3859296441078186, 0.046541061252355576, 2.2063586711883545, 
260, 2649022008, -81.96881103515625, 27.66077995300293, -100.91688537597656, -4.735817909240723, -8.538710594177246, 1.322643756866455, 0.16559603810310364, 0.4810609519481659, 2.1212940216064453, 
261, 2649030341, -81.97030639648438, 27.659547805786133, -100.91838836669922, -5.308117389678955, -8.8596830368042, 1.3405786752700806, -0.1812334954738617, -0.2288503795862198, 1.4236646890640259, 
262, 2649038674, -81.97618103027344, 27.651004791259766, -100.91675567626953, -4.757040977478027, -8.6338529586792, 0.8632980585098267, -0.8031982779502869, -0.5406011939048767, 0.5512951612472534, 
263, 2649047007, -81.9720687866211, 27.647523880004883, -100.91395568847656, -4.035190582275391, -8.464967727661133, 1.1081181764602661, 0.2030184268951416, -0.818669319152832, 1.2348110675811768, 
264, 2649055340, -81.96711730957031, 27.653179168701172, -100.91405487060547, -3.81103253364563, -8.361136436462402, 1.3202496767044067, 0.5926621556282043, -0.12068146467208862, 2.2139663696289062, 
265, 2649063673, -81.96717834472656, 27.65787124633789, -100.9168472290039, -4.535065650939941, -8.679141998291016, 1.5555617809295654, 0.05653061345219612, -0.004956353921443224, 2.107180595397949, 
266, 2649072006, -81.97232818603516, 27.659564971923828, -100.92428588867188, -5.236303329467773, -8.708100318908691, 1.3847166299819946, -0.21225234866142273, 0.5863354206085205, 1.6322158575057983, 
267, 2649080339, -81.97512817382812, 27.65228843688965, -100.92096710205078, -4.926405906677246, -8.709874153137207, 0.9312357902526855, -0.5609389543533325, -0.7497414946556091, 0.7641751170158386, 
268, 2649088672, -81.97604370117188, 27.64655113220215, -100.91786193847656, -4.335452556610107, -8.491547584533691, 1.1061298847198486, -0.28773751854896545, -0.6470540165901184, 0.9076660871505737, 
269, 2649097005, -81.9717025756836, 27.64999008178711, -100.91606140136719, -3.8455090522766113, -8.442329406738281, 1.2755284309387207, 0.5342104434967041, -0.11530248075723648, 1.973474383354187, 
270, 2649105338, -81.97035217285156, 27.655752182006836, -100.9175796508789, -4.2429022789001465, -8.62700080871582, 1.4763150215148926, 0.24008221924304962, 0.03124936670064926, 2.2049756050109863, 
271, 2649113671, -81.97364044189453, 27.659366607666016, -100.93218231201172, -5.011950492858887, -8.550369262695312, 1.1929126977920532, 0.06434296071529388, 0.7201697826385498, 1.8761658668518066, 
272, 2649122004, -81.97471618652344, 27.65349578857422, -100.92697143554688, -5.093002796173096, -8.764822006225586, 1.1647260189056396, -0.42605435848236084, -0.8731508255004883, 0.9221380949020386, 
273, 2649130337, -81.97765350341797, 27.645963668823242, -100.9249496459961, -4.463396072387695, -8.524816513061523, 0.8536698222160339, -0.4114798307418823, -0.4428829252719879, 0.6886130571365356, 
274, 2649138670, -81.97181701660156, 27.64691162109375, -100.92057800292969, -3.8341190814971924, -8.464595794677734, 1.1836456060409546, 0.45050323009490967, -0.6701324582099915, 1.722531795501709, 
275, 2649147003, -81.96958923339844, 27.653657913208008, -100.93115234375, -3.960644006729126, -8.496733665466309, 1.4481109380722046, 0.4037315547466278, 0.15898756682872772, 2.332893133163452, 
276, 2649155336, -81.97008514404297, 27.65873146057129, -100.93739318847656, -4.81819486618042, -8.589377403259277, 1.3516309261322021, 0.2813211679458618, 0.5159732103347778, 2.052391767501831, 
277, 2649163669, -81.97039794921875, 27.657451629638672, -100.92729949951172, -5.2654008865356445, -8.853610038757324, 1.339284062385559, -0.15777087211608887, -0.4453674554824829, 1.4497655630111694, 
278, 2649172002, -81.9751968383789, 27.64876937866211, -100.92473602294922, -4.800273418426514, -8.665117263793945, 0.9279457330703735, -0.724024772644043, -0.6413676142692566, 0.5478629469871521, 
279, 2649180335, -81.97161102294922, 27.646257400512695, -100.91875457763672, -4.025613307952881, -8.42981243133545, 1.1218301057815552, 0.11313807219266891, -0.8400827646255493, 1.3522777557373047, 
280, 2649188668, -81.9669189453125, 27.6517333984375, -100.92107391357422, -3.8562395572662354, -8.421571731567383, 1.3521416187286377, 0.6870505809783936, 0.11026927828788757, 2.1614315509796143, 
281, 2649197001, -81.96588897705078, 27.656221389770508, -100.92278289794922, -4.493405818939209, -8.688068389892578, 1.5261223316192627, 0.2030184268951416, 0.0219770148396492, 2.0796196460723877, 
282, 2649205334, -81.97138977050781, 27.658002853393555, -100.92953491210938, -5.249234199523926, -8.735051155090332, 1.3106497526168823, -0.288941353559494, 0.5164341926574707, 1.6540136337280273, 
283, 2649213667, -81.97280883789062, 27.650239944458008, -100.92547607421875, -4.88416862487793, -8.697936058044434, 0.8756296038627625, -0.5341464877128601, -1.021585464477539, 0.7419931292533875, 
284, 2649222000, -81.97333526611328, 27.645177841186523, -100.92203521728516, -4.29774284362793, -8.466498374938965, 1.1350631713867188, -0.2590751647949219, -0.6722583770751953, 0.9917319416999817, 
285, 2649230333, -81.96955108642578, 27.647680282592773, -100.92306518554688, -3.81968092918396, -8.416749000549316, 1.3207087516784668, 0.4430750608444214, -0.1787489503622055, 1.866560697555542, 
286, 2649238666, -81.96826934814453, 27.652362823486328, -100.92451477050781, -4.222486972808838, -8.655365943908691, 1.5366488695144653, 0.2278129905462265, 0.005968116223812103, 2.078671932220459, 
287, 2649246999, -81.9732894897461, 27.656387329101562, -100.93622589111328, -4.999954700469971, -8.618586540222168, 1.246614933013916, -0.0678136870265007, 0.8711656928062439, 1.9034193754196167, 
288, 2649255332, -81.97461700439453, 27.65079116821289, -100.93212127685547, -5.076723098754883, -8.751646041870117, 1.1644041538238525, -0.3950355350971222, -0.7517650127410889, 0.9396069645881653, 
289, 2649263665, -81.97818756103516, 27.643217086791992, -100.93131256103516, -4.530088424682617, -8.546724319458008, 0.9106931090354919, -0.48834824562072754, -0.44398435950279236, 0.6828755736351013, 
290, 2649271998, -81.97266387939453, 27.644664764404297, -100.92926025390625, -3.8187856674194336, -8.419596672058105, 1.0775576829910278, 0.5415617823600769, -0.41593676805496216, 1.743612289428711, 
291, 2649280331, -81.97001647949219, 27.651124954223633, -100.93213653564453, -4.012806415557861, -8.54557991027832, 1.4024580717086792, 0.38482826948165894, 0.02420544996857643, 2.321622848510742, 
292, 2649288664, -81.97174835205078, 27.65589714050293, -100.93850708007812, -4.838942050933838, -8.5400972366333, 1.2636157274246216, 0.1392902135848999, 0.5250405669212341, 2.0150206089019775, 
293, 2649296997, -81.97193908691406, 27.653873443603516, -100.94139099121094, -5.271795272827148, -8.812352180480957, 1.2942711114883423, -0.15249434113502502, -0.4870418608188629, 1.3631638288497925, 
294, 2649305330, -81.97734832763672, 27.645095825195312, -100.93923950195312, -4.713923931121826, -8.656148910522461, 0.8967805504798889, -0.7730503678321838, -0.5999751091003418, 0.5310086607933044, 
295, 2649313663, -81.97360229492188, 27.642213821411133, -100.93358612060547, -3.974977970123291, -8.499629974365234, 1.1705985069274902, 0.16551916301250458, -0.7815287113189697, 1.2997686862945557, 
296, 2649321996, -81.96952819824219, 27.648082733154297, -100.93598937988281, -3.8288915157318115, -8.386885643005371, 1.3674677610397339, 0.6174824237823486, 0.12594519555568695, 2.2037975788116455, 
297, 2649330329, -81.96984100341797, 27.653118133544922, -100.93927001953125, -4.5857038497924805, -8.74491024017334, 1.5740174055099487, 0.1602170467376709, 0.25709009170532227, 2.1152491569519043, 
298, 2649338662, -81.9737319946289, 27.654945373535156, -100.94467163085938, -5.276150703430176, -8.726693153381348, 1.2730885744094849, -0.17272961139678955, 0.37196993827819824, 1.6806013584136963, 
299, 2649346995, -81.97623443603516, 27.646486282348633, -100.94305419921875, -4.906242370605469, -8.709294319152832, 0.8887621760368347, -0.5830439925193787, -0.8829867243766785, 0.6381017565727234, 
300, 2649355328, -81.9765396118164, 27.64057731628418, -100.9395523071289, -4.3302812576293945, -8.396894454956055, 1.0202100276947021, -0.23924976587295532, -0.6920581459999084, 0.8924254179000854, 
301, 2649363661, -81.97247314453125, 27.643342971801758, -100.94087982177734, -3.7980761528015137, -8.460357666015625, 1.274111270904541, 0.469457745552063, -0.1931697428226471, 1.9022666215896606, 
302, 2649371994, -81.97196960449219, 27.649311065673828, -100.94313049316406, -4.23844575881958, -8.59803581237793, 1.4966553449630737, 0.1781982183456421, 0.11121700704097748, 2.218884229660034, 
303, 2649380327, -81.97494506835938, 27.65326690673828, -100.95035552978516, -4.998267650604248, -8.610342025756836, 1.2191557884216309, 0.10176534950733185, 0.7263940572738647, 1.917046070098877, 
304, 2649388660, -81.9752197265625, 27.648717880249023, -100.94489288330078, -5.1185383796691895, -8.760458946228027, 1.167272925376892, -0.3414505422115326, -0.8777869939804077, 1.0829954147338867, 
305, 2649396993, -81.97735595703125, 27.640356063842773, -100.94255828857422, -4.556826591491699, -8.574786186218262, 0.8837189674377441, -0.3223423361778259, -0.469368040561676, 0.5922523736953735, 
306, 2649405326, -81.97148895263672, 27.640003204345703, -100.93896484375, -3.885565757751465, -8.44371223449707, 1.1444196701049805, 0.49796637892723083, -0.6088632345199585, 1.5539902448654175, 
307, 2649413659, -81.96788787841797, 27.645776748657227, -100.94576263427734, -3.9657320976257324, -8.579547882080078, 1.376320242881775, 0.48674729466438293, -0.007620234042406082, 2.2409379482269287, 
308, 2649421992, -81.96894073486328, 27.64992904663086, -100.9509506225586, -4.739114284515381, -8.533624649047852, 1.2690542936325073, 0.15524786710739136, 0.38900336623191833, 1.9583362340927124, 
309, 2649430325, -81.96967315673828, 27.6479549407959, -100.95989227294922, -5.195217132568359, -8.834319114685059, 1.287826418876648, -0.1841791421175003, -0.4307417869567871, 1.3606281280517578, 
310, 2649438658, -81.97526550292969, 27.639575958251953, -100.9596176147461, -4.760138511657715, -8.65999698638916, 0.9302486777305603, -0.6935181617736816, -0.39552217721939087, 0.5507828593254089, 
311, 2649446991, -81.97086334228516, 27.636606216430664, -100.9529800415039, -4.002402305603027, -8.512578010559082, 1.1159433126449585, 0.1717178225517273, -0.9247379302978516, 1.3093740940093994, 
312, 2649455324, -81.96664428710938, 27.643375396728516, -100.95477294921875, -3.9033029079437256, -8.416999816894531, 1.3315629959106445, 0.6027798652648926, 0.07615111768245697, 2.320265769958496, 
313, 2649463657, -81.96582794189453, 27.64811134338379, -100.95692443847656, -4.582906246185303, -8.729120254516602, 1.5722819566726685, 0.1848067045211792, 0.04172558709979057, 2.108973503112793, 
314, 2649471990, -81.97135925292969, 27.649917602539062, -100.96410369873047, -5.25221586227417, -8.68376350402832, 1.3159853219985962, -0.26860371232032776, 0.5599528551101685, 1.649787425994873, 
315, 2649480323, -81.9742202758789, 27.641477584838867, -100.9595718383789, -4.913795471191406, -8.729050636291504, 0.9315290451049805, -0.6609113216400146, -0.9456647038459778, 0.6486804485321045, 
316, 2649488656, -81.97443389892578, 27.634706497192383, -100.95503997802734, -4.302120208740234, -8.458537101745605, 1.0778976678848267, -0.28333187103271484, -0.8170557618141174, 0.8066691160202026, 
317, 2649496989, -81.97008514404297, 27.638460159301758, -100.95207214355469, -3.7819294929504395, -8.464340209960938, 1.2493250370025635, 0.49704423546791077, -0.17900508642196655, 2.0177104473114014, 
318, 2649505322, -81.96791076660156, 27.645044326782227, -100.95315551757812, -4.150179862976074, -8.632314682006836, 1.457091212272644, 0.3171042203903198, -0.003188971895724535, 2.309609889984131, 
319, 2649513655, -81.97232818603516, 27.65013313293457, -100.96265411376953, -4.984408855438232, -8.541930198669434, 1.2355061769485474, -0.018122069537639618, 0.8479335904121399, 2.0364596843719482, 
320, 2649521988, -81.97265625, 27.646007537841797, -100.95721435546875, -5.12082052230835, -8.714151382446289, 1.1217374801635742, -0.347726047039032, -0.8695136308670044, 1.1351203918457031, 
321, 2649530321, -81.97624206542969, 27.6374454498291, -100.95709228515625, -4.602961540222168, -8.562704086303711, 0.8835549354553223, -0.45410192012786865, -0.3889905512332916, 0.5561874508857727, 
322, 2649538654, -81.9703598022461, 27.637020111083984, -100.9522705078125, -3.8503010272979736, -8.452919960021973, 1.1670072078704834, 0.4310619831085205, -0.7411095499992371, 1.5645943880081177, 
323, 2649546987, -81.96688079833984, 27.643753051757812, -100.96546173095703, -3.952911615371704, -8.532794952392578, 1.4606329202651978, 0.4900515079498291, 0.03803713619709015, 2.3483383655548096, 
324, 2649555320, -81.96730041503906, 27.64933967590332, -100.9692611694336, -4.696322441101074, -8.580366134643555, 1.3259518146514893, 0.15693840384483337, 0.2675662934780121, 2.1518261432647705, 
325, 2649563653, -81.96894073486328, 27.648454666137695, -100.96642303466797, -5.284948825836182, -8.842222213745117, 1.3609286546707153, -0.17949174344539642, -0.1873297095298767, 1.4569120407104492, 
326, 2649571986, -81.97340393066406, 27.639986038208008, -100.963623046875, -4.804013729095459, -8.622172355651855, 0.8655154705047607, -0.6970785856246948, -0.6617310047149658, 0.5786511898040771, 
327, 2649580319, -81.96981811523438, 27.63535499572754, -100.95793151855469, -4.090360164642334, -8.45883846282959, 1.1024751663208008, 0.10209833085536957, -0.8998664617538452, 1.1042039394378662, 
328, 2649588652, -81.9646224975586, 27.641483306884766, -100.95907592773438, -3.8665931224823, -8.385210037231445, 1.2997944355010986, 0.6811336874961853, -0.0027791443280875683, 2.2525415420532227, 
329, 2649596985, -81.96432495117188, 27.646745681762695, -100.96068572998047, -4.397355079650879, -8.708419799804688, 1.6784812211990356, 0.12991540133953094, 0.06388189643621445, 2.169295072555542, 
330, 2649605318, -81.96944427490234, 27.650314331054688, -100.96806335449219, -5.171039581298828, -8.634905815124512, 1.3526774644851685, -0.20999829471111298, 0.6103615760803223, 1.8583638668060303, 
331, 2649613651, -81.97233581542969, 27.642915725708008, -100.96513366699219, -4.979995250701904, -8.72566032409668, 0.9740383625030518, -0.6680832505226135, -0.9370070695877075, 0.7742413878440857, 
332, 2649621984, -81.97416687011719, 27.635759353637695, -100.96133422851562, -4.45879602432251, -8.483358383178711, 1.0424344539642334, -0.4392200708389282, -0.7450540661811829, 0.7481405735015869, 
333, 2649630317, -81.96985626220703, 27.637176513671875, -100.95757293701172, -3.8481714725494385, -8.466453552246094, 1.1960976123809814, 0.4592888057231903, -0.2845613360404968, 1.7526795864105225, 
334, 2649638650, -81.96647644042969, 27.6435489654541, -100.95735931396484, -4.05974817276001, -8.60452938079834, 1.3951201438903809, 0.3890545666217804, -0.14391356706619263, 2.3025403022766113, 
335, 2649646983, -81.9709243774414, 27.64836883544922, -100.96501922607422, -4.89222526550293, -8.506693840026855, 1.2681652307510376, -0.047399140894412994, 0.8004704117774963, 2.012561559677124, 
336, 2649655316, -81.97053527832031, 27.644956588745117, -100.96041870117188, -5.121085166931152, -8.750015258789062, 1.1766068935394287, -0.21617132425308228, -0.767543375492096, 1.2056363821029663, 
337, 2649663649, -81.97539520263672, 27.63699722290039, -100.96086120605469, -4.677587509155273, -8.5414457321167, 0.8636986613273621, -0.5829159617424011, -0.3380182385444641, 0.6212732791900635, 
338, 2649671982, -81.97016906738281, 27.634965896606445, -100.9561996459961, -3.873279333114624, -8.542290687561035, 1.0777543783187866, 0.3616217374801636, -0.7501000165939331, 1.3715397119522095, 
339, 2649680315, -81.96675109863281, 27.6406192779541, -100.95755004882812, -3.9380593299865723, -8.401324272155762, 1.4202320575714111, 0.5224791765213013, 0.10970577597618103, 2.2092278003692627, 
340, 2649688648, -81.96576690673828, 27.64558982849121, -100.96080017089844, -4.6277995109558105, -8.67856502532959, 1.4281375408172607, 0.2953321039676666, 0.1976906657218933, 2.084153175354004, 
341, 2649696981, -81.969970703125, 27.646472930908203, -100.97235107421875, -5.37297248840332, -8.779857635498047, 1.3955339193344116, -0.3331259489059448, 0.1305045336484909, 1.6274516582489014, 
342, 2649705314, -81.9739990234375, 27.63833236694336, -100.96830749511719, -4.828033447265625, -8.671290397644043, 0.8879686594009399, -0.7131642699241638, -0.7888287305831909, 0.6374102830886841, 
343, 2649713647, -81.9727783203125, 27.631736755371094, -100.96290588378906, -4.213654041290283, -8.43109130859375, 1.0848573446273804, -0.1701425462961197, -0.9080117344856262, 0.8676309585571289, 
344, 2649721980, -81.96868133544922, 27.635295867919922, -100.96302032470703, -3.7888925075531006, -8.46501636505127, 1.3096201419830322, 0.4905126094818115, -0.1542617231607437, 1.9636640548706055, 
345, 2649730313, -81.96736907958984, 27.64102554321289, -100.96285247802734, -4.245296001434326, -8.66035270690918, 1.58693265914917, 0.23465201258659363, 0.03593676909804344, 2.229360580444336, 
346, 2649738646, -81.97221374511719, 27.646015167236328, -100.9725570678711, -5.090826988220215, -8.568178176879883, 1.2827268838882446, -0.046477027237415314, 0.880745530128479, 1.991634726524353, 
347, 2649746979, -81.97282409667969, 27.641355514526367, -100.96836853027344, -5.061201572418213, -8.729351043701172, 1.0706232786178589, -0.39739203453063965, -0.8893902897834778, 1.1004388332366943, 
348, 2649755312, -81.97579193115234, 27.634654998779297, -100.96780395507812, -4.538679122924805, -8.551617622375488, 0.8894846439361572, -0.392499715089798, -0.39634186029434204, 0.7551332712173462, 
349, 2649763645, -81.97064971923828, 27.635446548461914, -100.96419525146484, -3.885706901550293, -8.46798038482666, 1.1527918577194214, 0.4537305533885956, -0.49731317162513733, 1.7041919231414795, 
350, 2649771978, -81.96676635742188, 27.640886306762695, -100.96329498291016, -3.9561986923217773, -8.57214641571045, 1.4513047933578491, 0.4107498824596405, -0.22913211584091187, 2.2025680541992188, 
351, 2649780311, -81.96835327148438, 27.646469116210938, -100.97021484375, -4.760195732116699, -8.499581336975098, 1.279165267944336, 0.20043137669563293, 0.6284964084625244, 2.1281843185424805, 
352, 2649788644, -81.96713256835938, 27.645048141479492, -100.96746063232422, -5.178192615509033, -8.853280067443848, 1.3275893926620483, -0.013716422021389008, -0.5401145815849304, 1.4161086082458496, 
353, 2649796977, -81.97249603271484, 27.63603973388672, -100.96553802490234, -4.762413024902344, -8.650484085083008, 0.951278030872345, -0.6962589025497437, -0.45369210839271545, 0.5113369226455688, 
354, 2649805310, -81.96734619140625, 27.633949279785156, -100.95903015136719, -4.004040241241455, -8.521132469177246, 1.0675723552703857, 0.25014862418174744, -0.9446145296096802, 1.38944411277771, 
355, 2649813643, -81.96218872070312, 27.64004135131836, -100.95755004882812, -3.8940138816833496, -8.381722450256348, 1.3538774251937866, 0.6688388586044312, -0.008798489347100258, 2.280435085296631, 
356, 2649821976, -81.96182250976562, 27.644899368286133, -100.9606704711914, -4.5298662185668945, -8.69779109954834, 1.5329827070236206, 0.21047216653823853, 0.18572881817817688, 2.0721402168273926, 
357, 2649830309, -81.96515655517578, 27.6463680267334, -100.96351623535156, -5.230825424194336, -8.68106746673584, 1.3293612003326416, -0.15628524124622345, 0.2789646089076996, 1.678321361541748, 
358, 2649838642, -81.96900939941406, 27.638879776000977, -100.95915985107422, -4.875942707061768, -8.707935333251953, 0.9324589371681213, -0.7132411599159241, -0.8109338879585266, 0.7177876830101013, 
359, 2649846975, -81.96946716308594, 27.633094787597656, -100.95396423339844, -4.3481059074401855, -8.463308334350586, 1.1138335466384888, -0.3050270676612854, -0.7778914570808411, 0.9480851292610168, 
360, 2649855308, -81.96641540527344, 27.636545181274414, -100.95377349853516, -3.80759334564209, -8.503010749816895, 1.2656811475753784, 0.3488914966583252, -0.18771393597126007, 1.955672264099121, 
361, 2649863641, -81.96437072753906, 27.64265251159668, -100.9529800415039, -4.160855293273926, -8.61088752746582, 1.452876329421997, 0.31725791096687317, 0.04369787871837616, 2.2739803791046143, 
362, 2649871974, -81.97022247314453, 27.648237228393555, -100.96299743652344, -5.017140865325928, -8.601877212524414, 1.308366060256958, -0.1507013738155365, 0.922163724899292, 2.0574891567230225, 
363, 2649880307, -81.96961975097656, 27.643421173095703, -100.95645141601562, -5.129911422729492, -8.702241897583008, 1.0564252138137817, -0.21586395800113678, -0.8281465768814087, 1.0723142623901367, 
364, 2649888640, -81.97361755371094, 27.635862350463867, -100.955078125, -4.625020980834961, -8.588325500488281, 0.8579403162002563, -0.5620403289794922, -0.49649348855018616, 0.664535641670227, 
365, 2649896973, -81.96891784667969, 27.63547134399414, -100.95065307617188, -3.8660173416137695, -8.456809043884277, 1.079598069190979, 0.33449631929397583, -0.6446719765663147, 1.5811669826507568, 
366, 2649905306, -81.96455383300781, 27.641817092895508, -100.95082092285156, -3.8916015625, -8.536399841308594, 1.396625280380249, 0.5272946357727051, -0.1033918559551239, 2.2953684329986572, 
367, 2649913639, -81.96550750732422, 27.648008346557617, -100.95825958251953, -4.677886009216309, -8.58227252960205, 1.3247324228286743, 0.23600958287715912, 0.5576731562614441, 2.212583303451538, 
368, 2649921972, -81.96636962890625, 27.647558212280273, -100.95765686035156, -5.296136379241943, -8.867264747619629, 1.3992606401443481, -0.1430426985025406, -0.29452526569366455, 1.4973312616348267, 
369, 2649930305, -81.97058868408203, 27.639240264892578, -100.95394134521484, -4.841466426849365, -8.624089241027832, 0.9270660281181335, -0.7026368975639343, -0.7150341272354126, 0.6314164400100708, 
370, 2649938638, -81.96758270263672, 27.635534286499023, -100.9489517211914, -4.11759090423584, -8.464408874511719, 1.0405389070510864, 0.07684269547462463, -0.8120608925819397, 1.1774863004684448, 
371, 2649946971, -81.9638671875, 27.64086151123047, -100.95281219482422, -3.8614258766174316, -8.400993347167969, 1.3486849069595337, 0.567150354385376, 0.11185736209154129, 2.168757200241089, 
372, 2649955304, -81.96358489990234, 27.64548110961914, -100.95330810546875, -4.420701026916504, -8.689249038696289, 1.6245744228363037, 0.055634114891290665, -0.09516968578100204, 2.0842556953430176, 
373, 2649963637, -81.96818542480469, 27.649059295654297, -100.96659851074219, -5.137557506561279, -8.573746681213379, 1.25713312625885, -0.11330458521842957, 0.6804678440093994, 1.876089096069336, 
374, 2649971970, -81.97005462646484, 27.64179801940918, -100.96124267578125, -4.939596176147461, -8.74005126953125, 0.9815636277198792, -0.5317386388778687, -0.9098303914070129, 0.7592315673828125, 
375, 2649980303, -81.9716796875, 27.63324546813965, -100.95596313476562, -4.456493377685547, -8.430726051330566, 0.9983371496200562, -0.35092779994010925, -0.6460549831390381, 0.5948393940925598, 
376, 2649988636, -81.96759796142578, 27.635101318359375, -100.95525360107422, -3.8544623851776123, -8.498172760009766, 1.2008883953094482, 0.44430455565452576, -0.2679889500141144, 1.7739652395248413, 
377, 2649996969, -81.96300506591797, 27.64193344116211, -100.95491790771484, -4.028613090515137, -8.559684753417969, 1.355882167816162, 0.4848518669605255, -0.20933233201503754, 2.3966472148895264, 
378, 2650005302, -81.96693420410156, 27.646930694580078, -100.96439361572266, -4.909567832946777, -8.555654525756836, 1.3015824556350708, 0.04948670044541359, 0.8564887642860413, 1.9963223934173584, 
379, 2650013635, -81.96538543701172, 27.643959045410156, -100.95941162109375, -5.120384216308594, -8.71788501739502, 1.2530279159545898, -0.105159230530262, -0.8081931471824646, 1.2921611070632935, 
380, 2650021968, -81.97078704833984, 27.63465118408203, -100.9598388671875, -4.727864742279053, -8.65489673614502, 0.9169372320175171, -0.6294826865196228, -0.33732670545578003, 0.4298068881034851, 
381, 2650030301, -81.96540069580078, 27.63144302368164, -100.95513153076172, -3.8727495670318604, -8.475632667541504, 1.16836678981781, 0.34802061319351196, -0.8258413672447205, 1.2655736207962036, 
382, 2650038634, -81.95975494384766, 27.637548446655273, -100.95577239990234, -3.890261173248291, -8.49131965637207, 1.4044936895370483, 0.7075420022010803, -0.05608237162232399, 2.259047508239746, 
383, 2650046967, -81.95934295654297, 27.642745971679688, -100.95930480957031, -4.588255405426025, -8.61709213256836, 1.4306180477142334, 0.21897608041763306, 0.19991908967494965, 2.140094757080078, 
384, 2650055300, -81.96321868896484, 27.6444149017334, -100.96270751953125, -5.327866554260254, -8.77660083770752, 1.4097832441329956, -0.28384411334991455, 0.16352126002311707, 1.6916152238845825, 
385, 2650063633, -81.96700286865234, 27.636016845703125, -100.96141815185547, -4.863060474395752, -8.632415771484375, 0.871967613697052, -0.5764611959457397, -0.5750268697738647, 0.6013711094856262, 
386, 2650071966, -81.96635437011719, 27.62954330444336, -100.9561996459961, -4.239640235900879, -8.50857162475586, 1.1246916055679321, -0.21842537820339203, -0.884830892086029, 0.8514939546585083, 
387, 2650080299, -81.96241760253906, 27.63332748413086, -100.9503173828125, -3.7522549629211426, -8.42642879486084, 1.349290132522583, 0.5429706573486328, 0.00645478768274188, 1.996988296508789, 
388, 2650088632, -81.96221160888672, 27.63831901550293, -100.95056915283203, -4.309963703155518, -8.658666610717773, 1.6187231540679932, 0.03378517925739288, -0.1144828274846077, 2.133179187774658, 
389, 2650096965, -81.96763610839844, 27.641477584838867, -100.96092224121094, -5.110122203826904, -8.597976684570312, 1.2164890766143799, -0.08541066199541092, 0.9149148464202881, 1.7938928604125977, 
390, 2650105298, -81.96917724609375, 27.635515213012695, -100.95463562011719, -5.088454246520996, -8.728241920471191, 1.108811855316162, -0.5395767092704773, -0.9865450859069824, 0.9256729483604431, 
391, 2650113631, -81.97245788574219, 27.62806510925293, -100.95457458496094, -4.470598220825195, -8.544964790344238, 0.8868166208267212, -0.42807790637016296, -0.3904249668121338, 0.6897913813591003, 
392, 2650121964, -81.96737670898438, 27.628931045532227, -100.95278930664062, -3.7970476150512695, -8.403643608093262, 1.1392099857330322, 0.5053432583808899, -0.4003632962703705, 1.6732754707336426, 
393, 2650130297, -81.9640884399414, 27.63564682006836, -100.95555877685547, -3.9457554817199707, -8.601234436035156, 1.3747365474700928, 0.3526824116706848, -0.16727377474308014, 2.378051280975342, 
394, 2650138630, -81.96733093261719, 27.64137840270996, -100.9629898071289, -4.850713729858398, -8.483490943908691, 1.2939561605453491, 0.02008156105875969, 0.6511138081550598, 2.11330246925354, 
395, 2650146963, -81.96669006347656, 27.6394100189209, -100.96646881103516, -5.228985786437988, -8.845799446105957, 1.3106368780136108, -0.16425125300884247, -0.7004852294921875, 1.3956427574157715, 
396, 2650155296, -81.97193908691406, 27.631166458129883, -100.96582794189453, -4.739824295043945, -8.668079376220703, 0.9275308847427368, -0.6711057424545288, -0.43263721466064453, 0.5747066140174866, 
397, 2650163629, -81.96823120117188, 27.628293991088867, -100.96165466308594, -4.004512310028076, -8.511576652526855, 1.1063657999038696, 0.16759394109249115, -0.7792747616767883, 1.298411250114441, 
398, 2650171962, -81.96443176269531, 27.63465118408203, -100.96442413330078, -3.897209882736206, -8.417414665222168, 1.3378465175628662, 0.6042654514312744, 0.17317785322666168, 2.2574594020843506, 
399, 2650180295, -81.96334075927734, 27.640165328979492, -100.96745300292969, -4.563386917114258, -8.678382873535156, 1.4569498300552368, 0.24850931763648987, 0.1137528121471405, 2.1925785541534424, 
400, 2650188628, -81.96829986572266, 27.64179801940918, -100.97354888916016, -5.214178562164307, -8.71718692779541, 1.3495460748672485, -0.26153409481048584, 0.4419991970062256, 1.6465085744857788, 
401, 2650196961, -81.97279357910156, 27.634428024291992, -100.97062683105469, -4.849634647369385, -8.665448188781738, 0.917745053768158, -0.7438501119613647, -0.7162636518478394, 0.7459889650344849, 
402, 2650205294, -81.97307586669922, 27.628904342651367, -100.9669189453125, -4.275876522064209, -8.48276424407959, 1.0984907150268555, -0.2457301765680313, -0.7103211879730225, 0.9426807165145874, 
403, 2650213627, -81.96902465820312, 27.632856369018555, -100.96876525878906, -3.8599953651428223, -8.42933177947998, 1.318031907081604, 0.5176636576652527, -0.07726533710956573, 2.0285191535949707, 
404, 2650221960, -81.9677505493164, 27.639049530029297, -100.9691162109375, -4.225361347198486, -8.632941246032715, 1.539290189743042, 0.16672305762767792, -0.08453977853059769, 2.2736988067626953, 
405, 2650230293, -81.97178649902344, 27.644428253173828, -100.98238372802734, -5.0718607902526855, -8.557328224182129, 1.2307342290878296, -0.011564826592803001, 0.7729350328445435, 2.0805673599243164, 
406, 2650238626, -81.97252655029297, 27.64055061340332, -100.97509765625, -5.041109085083008, -8.729815483093262, 1.1813921928405762, -0.4994646906852722, -1.0567536354064941, 1.190831184387207, 
407, 2650246959, -81.97589111328125, 27.632123947143555, -100.97280883789062, -4.558793067932129, -8.520910263061523, 0.8982465863227844, -0.5004124045372009, -0.5238751173019409, 0.5903055667877197, 
408, 2650255292, -81.97062683105469, 27.632946014404297, -100.96923065185547, -3.8085341453552246, -8.440254211425781, 1.1597013473510742, 0.4270405173301697, -0.5886023044586182, 1.6946889162063599, 
409, 2650263625, -81.9673843383789, 27.638954162597656, -100.97628784179688, -3.969982624053955, -8.549696922302246, 1.382463812828064, 0.3842647671699524, -0.11025648564100266, 2.2822797298431396, 
410, 2650271958, -81.96967315673828, 27.644899368286133, -100.98295593261719, -4.772165775299072, -8.572213172912598, 1.3102158308029175, 0.08870209753513336, 0.5754493474960327, 2.1515955924987793, 
411, 2650280291, -81.96958923339844, 27.642959594726562, -100.98582458496094, -5.23276948928833, -8.777546882629395, 1.287840723991394, -0.14583462476730347, -0.5401913523674011, 1.3791983127593994, 
412, 2650288624, -81.9751968383789, 27.634782791137695, -100.98478698730469, -4.7500529289245605, -8.635069847106934, 0.8569031357765198, -0.7359098196029663, -0.471903920173645, 0.5870014429092407, 
413, 2650296957, -81.97138977050781, 27.63043212890625, -100.97663116455078, -4.0176801681518555, -8.451248168945312, 1.1823935508728027, 0.05704289302229881, -1.0317541360855103, 1.1560728549957275, 
414, 2650305290, -81.96712493896484, 27.636892318725586, -100.97832489013672, -3.876847505569458, -8.452805519104004, 1.3840078115463257, 0.5997573137283325, 0.059322573244571686, 2.286198616027832, 
415, 2650313623, -81.96697998046875, 27.64128875732422, -100.97730255126953, -4.5478620529174805, -8.676884651184082, 1.5634284019470215, 0.10798962414264679, 0.03529641777276993, 2.0646867752075195, 
416, 2650321956, -81.97252655029297, 27.6434268951416, -100.9845199584961, -5.204005718231201, -8.706318855285645, 1.3740614652633667, -0.2736752927303314, 0.5689433217048645, 1.6912822723388672, 
417, 2650330289, -81.97464752197266, 27.635087966918945, -100.98001861572266, -4.90854549407959, -8.680074691772461, 0.9330236315727234, -0.5408573746681213, -0.883703887462616, 0.652522623538971, 
418, 2650338622, -81.9747543334961, 27.629558563232422, -100.97608184814453, -4.310110092163086, -8.503042221069336, 1.0512032508850098, -0.23830202221870422, -0.7331177592277527, 0.9438333511352539, 
419, 2650346955, -81.97065734863281, 27.63211441040039, -100.98762512207031, -3.8467376232147217, -8.441323280334473, 1.2339314222335815, 0.5492717027664185, -0.05597991868853569, 1.8547011613845825, 
420, 2650355288, -81.96963500976562, 27.638628005981445, -100.98917388916016, -4.295560359954834, -8.684284210205078, 1.4629937410354614, 0.20524685084819794, 0.04449192434549332, 2.2940621376037598, 
421, 2650363621, -81.97187042236328, 27.641414642333984, -100.99797821044922, -4.976807594299316, -8.501641273498535, 1.2116020917892456, 0.14697447419166565, 0.6251922249794006, 1.7883857488632202, 
422, 2650371954, -81.97264099121094, 27.635786056518555, -100.9917984008789, -5.058969974517822, -8.727827072143555, 1.1721149682998657, -0.4430622160434723, -0.9712278246879578, 0.9653748869895935, 
423, 2650380287, -81.97526550292969, 27.6281795501709, -100.9896469116211, -4.486184597015381, -8.57354736328125, 0.8524472117424011, -0.4370940923690796, -0.564550518989563, 0.6972450613975525, 
424, 2650388620, -81.9693603515625, 27.628576278686523, -100.98650360107422, -3.9050135612487793, -8.513140678405762, 1.1729148626327515, 0.5286009311676025, -0.5489770770072937, 1.6362628936767578, 
425, 2650396953, -81.96572875976562, 27.634504318237305, -100.9864501953125, -4.001546382904053, -8.540088653564453, 1.448858380317688, 0.5185602307319641, 0.06091064587235451, 2.248622417449951, 
426, 2650405286, -81.9662857055664, 27.640426635742188, -100.99250793457031, -4.789262294769287, -8.56334400177002, 1.2491804361343384, 0.26669541001319885, 0.511080801486969, 2.1568210124969482, 
427, 2650413619, -81.96590423583984, 27.639225006103516, -100.99564361572266, -5.191540718078613, -8.825299263000488, 1.300858974456787, -0.1192983016371727, -0.5476963520050049, 1.4667733907699585, 
428, 2650421952, -81.97183990478516, 27.630199432373047, -100.99553680419922, -4.768514156341553, -8.676491737365723, 0.8885692954063416, -0.725151777267456, -0.38806846737861633, 0.4735047519207001, 
429, 2650430285, -81.96817016601562, 27.62593650817871, -100.98994445800781, -4.052979469299316, -8.461734771728516, 1.0779191255569458, 0.11236965656280518, -0.9017620086669922, 1.14828622341156, 
430, 2650438618, -81.96289825439453, 27.631505966186523, -100.99049377441406, -3.871187448501587, -8.43266487121582, 1.3445007801055908, 0.6560829877853394, -0.0737818032503128, 2.197291612625122, 
431, 2650446951, -81.96154022216797, 27.635690689086914, -100.99128723144531, -4.4561686515808105, -8.674590110778809, 1.553924798965454, 0.187752366065979, -0.08213204890489578, 2.056157112121582, 
432, 2650455284, -81.96450805664062, 27.63892364501953, -100.99771118164062, -5.1556010246276855, -8.73420238494873, 1.3153153657913208, -0.003957399167120457, 0.5056762099266052, 1.8314176797866821, 
433, 2650463617, -81.9655990600586, 27.63212776184082, -100.99198913574219, -4.917872428894043, -8.706977844238281, 0.9383818507194519, -0.4684202969074249, -0.9577034115791321, 0.8483690619468689, 
434, 2650471950, -81.96550750732422, 27.62569236755371, -100.98821258544922, -4.400557518005371, -8.513586044311523, 1.066188931465149, -0.205208420753479, -0.7329896688461304, 0.8370219469070435, 
435, 2650480283, -81.96065521240234, 27.628211975097656, -100.98538970947266, -3.862640142440796, -8.410005569458008, 1.2927000522613525, 0.5556495785713196, -0.2104337364435196, 1.8738348484039307, 
436, 2650488616, -81.95636749267578, 27.63433837890625, -100.98365020751953, -4.10641622543335, -8.671674728393555, 1.4279268980026245, 0.4086495339870453, -0.3062054216861725, 2.2967772483825684, 
437, 2650496949, -81.95818328857422, 27.638917922973633, -100.9951400756836, -4.892172813415527, -8.496343612670898, 1.223399043083191, 0.26815542578697205, 0.7825148701667786, 1.9820805788040161, 
438, 2650505282, -81.95867919921875, 27.6356143951416, -100.990234375, -5.07346773147583, -8.74314022064209, 1.193595290184021, -0.3395807147026062, -0.7987415194511414, 1.2244116067886353, 
439, 2650513615, -81.96121215820312, 27.62834358215332, -100.98851776123047, -4.6226606369018555, -8.55380630493164, 0.871945858001709, -0.3798975646495819, -0.4669347405433655, 0.721860408782959, 
440, 2650521948, -81.95415496826172, 27.62911033630371, -100.98370361328125, -3.9046764373779297, -8.536155700683594, 1.1517170667648315, 0.5721963047981262, -0.7193629741668701, 1.7068045139312744, 
441, 2650530281, -81.9516830444336, 27.635046005249023, -100.99717712402344, -3.9707767963409424, -8.475763320922852, 1.50178861618042, 0.4085213840007782, 0.09541301429271698, 2.2444472312927246, 
442, 2650538614, -81.9521484375, 27.640308380126953, -101.00318145751953, -4.700046539306641, -8.561437606811523, 1.3141778707504272, 0.271638959646225, 0.49399617314338684, 2.078057289123535, 
443, 2650546947, -81.95209503173828, 27.639034271240234, -101.00157928466797, -5.285606861114502, -8.740593910217285, 1.42282235622406, -0.10305887460708618, -0.43089544773101807, 1.4466150999069214, 
444, 2650555280, -81.95721435546875, 27.630657196044922, -100.9992904663086, -4.757906436920166, -8.706669807434082, 0.9312500953674316, -0.7486913800239563, -0.6084790229797363, 0.5825701951980591, 
445, 2650563613, -81.95431518554688, 27.62727165222168, -100.99334716796875, -4.07647705078125, -8.568934440612793, 1.1802259683609009, 0.06106434017419815, -0.798126757144928, 1.240394949913025, 
446, 2650571946, -81.95073699951172, 27.633544921875, -100.99607849121094, -3.783355236053467, -8.353946685791016, 1.3631469011306763, 0.5743992328643799, 0.16664621233940125, 2.247469902038574, 
447, 2650580279, -81.95003509521484, 27.639429092407227, -100.99686431884766, -4.4572834968566895, -8.587150573730469, 1.6071547269821167, 0.14057090878486633, 0.0003329850733280182, 2.253232955932617, 
448, 2650588612, -81.95530700683594, 27.642967224121094, -101.00494384765625, -5.224067211151123, -8.56978702545166, 1.3264707326889038, -0.18812376260757446, 0.6858211755752563, 1.8419451713562012, 
449, 2650596945, -81.95802307128906, 27.634765625, -101.00092315673828, -5.011746883392334, -8.760115623474121, 0.9771713614463806, -0.6688773036003113, -0.9847776293754578, 0.6846172213554382, 
450, 2650605278, -81.95967102050781, 27.628541946411133, -100.99778747558594, -4.4362640380859375, -8.464844703674316, 1.0221059322357178, -0.3750564455986023, -0.6616798043251038, 0.8488814234733582, 
451, 2650613611, -81.9550552368164, 27.631366729736328, -101.00269317626953, -3.803180694580078, -8.4064302444458, 1.2463362216949463, 0.5038319826126099, -0.24957230687141418, 1.9163804054260254, 
452, 2650621944, -81.95309448242188, 27.636686325073242, -101.00386047363281, -4.07203483581543, -8.523283004760742, 1.4631078243255615, 0.29546016454696655, -0.01433116290718317, 2.157768726348877, 
453, 2650630277, -81.95967102050781, 27.640981674194336, -101.01493072509766, -4.917572498321533, -8.48911190032959, 1.2868938446044922, -0.22675001621246338, 0.9321531653404236, 1.9284443855285645, 
454, 2650638610, -81.96041107177734, 27.636674880981445, -101.00917053222656, -5.159181594848633, -8.805800437927246, 1.1589676141738892, -0.4152195453643799, -0.9045026302337646, 1.1164220571517944, 
455, 2650646943, -81.96432495117188, 27.62864112854004, -101.00678253173828, -4.650112628936768, -8.65707015991211, 0.8073132038116455, -0.47236496210098267, -0.33955511450767517, 0.612820565700531, 
456, 2650655276, -81.95940399169922, 27.627424240112305, -101.0026626586914, -3.873136281967163, -8.41126537322998, 1.085128903388977, 0.3556792736053467, -0.6816076636314392, 1.4605748653411865, 
457, 2650663609, -81.95780181884766, 27.63331413269043, -101.00462341308594, -3.889256000518799, -8.404631614685059, 1.467465877532959, 0.2843180000782013, 0.07830271869897842, 2.240246534347534, 
458, 2650671942, -81.95854949951172, 27.638437271118164, -101.00908660888672, -4.6769537925720215, -8.541515350341797, 1.3093000650405884, 0.1535061001777649, 0.3286818563938141, 2.0842556953430176, 
459, 2650680275, -81.96219635009766, 27.637226104736328, -101.0111083984375, -5.297351837158203, -8.892985343933105, 1.4361193180084229, -0.3624029755592346, -0.08646085113286972, 1.4037113189697266, 
460, 2650688608, -81.96907806396484, 27.628515243530273, -101.01091003417969, -4.846766471862793, -8.742290496826172, 0.9234821200370789, -0.8431053161621094, -0.39288392663002014, 0.5116443037986755, 
461, 2650696941, -81.96659851074219, 27.623924255371094, -101.00636291503906, -4.1138787269592285, -8.529844284057617, 1.0942347049713135, 0.0015368539607152343, -0.8399035334587097, 1.1005923748016357, 
462, 2650705274, -81.9620132446289, 27.629173278808594, -101.00849151611328, -3.857862710952759, -8.362751960754395, 1.3113065958023071, 0.6617438197135925, 0.08496242016553879, 2.134921073913574, 
463, 2650713607, -81.96247863769531, 27.634347915649414, -101.01063537597656, -4.395170211791992, -8.666776657104492, 1.5271821022033691, 0.07873816043138504, 0.13662633299827576, 2.145909309387207, 
464, 2650721940, -81.96897888183594, 27.63633155822754, -101.01933288574219, -5.180882930755615, -8.580404281616211, 1.215139627456665, -0.3033621907234192, 0.7237300872802734, 1.6507861614227295, 
465, 2650730273, -81.97119140625, 27.628734588623047, -101.01351928710938, -4.973614692687988, -8.779678344726562, 0.9622004628181458, -0.588371753692627, -0.9445633292198181, 0.7512911558151245, 
466, 2650738606, -81.97269439697266, 27.621349334716797, -101.01017761230469, -4.4517292976379395, -8.576258659362793, 0.9919058084487915, -0.3739037811756134, -0.7014586329460144, 0.7148932814598083, 
467, 2650746939, -81.96907043457031, 27.6240177154541, -101.01502227783203, -3.777343273162842, -8.490145683288574, 1.1782633066177368, 0.4354420006275177, -0.16066528856754303, 1.882825493812561, 
468, 2650755272, -81.96672821044922, 27.629945755004883, -101.01453399658203, -4.099191188812256, -8.558719635009766, 1.422741174697876, 0.2485349327325821, -0.1807212382555008, 2.2557945251464844, 
469, 2650763605, -81.96977996826172, 27.635087966918945, -101.01901245117188, -4.917953014373779, -8.543069839477539, 1.2091186046600342, 0.07443496584892273, 0.7158666253089905, 2.059871196746826, 
470, 2650771938, -81.96949768066406, 27.630952835083008, -101.01301574707031, -5.197799205780029, -8.826430320739746, 1.2029727697372437, -0.3068457245826721, -0.9273760914802551, 1.1416008472442627, 
471, 2650780271, -81.97325134277344, 27.62272071838379, -101.01087188720703, -4.6075968742370605, -8.660219192504883, 0.8731329441070557, -0.5313032269477844, -0.4954689145088196, 0.6125643849372864, 
472, 2650788604, -81.96627807617188, 27.62265396118164, -101.0050048828125, -3.874549388885498, -8.488565444946289, 1.1049784421920776, 0.5017316937446594, -0.8435664772987366, 1.6219191551208496, 
473, 2650796937, -81.96336364746094, 27.628671646118164, -101.005859375, -3.944188117980957, -8.481243133544922, 1.3633785247802734, 0.4545758366584778, 0.09961376339197159, 2.2525157928466797, 
474, 2650805270, -81.96240997314453, 27.633798599243164, -101.01016998291016, -4.717137813568115, -8.549874305725098, 1.3246628046035767, 0.35001853108406067, 0.31420981884002686, 2.0903007984161377, 
475, 2650813603, -81.96527862548828, 27.632766723632812, -101.00554656982422, -5.307144641876221, -8.853109359741211, 1.3350352048873901, -0.26627275347709656, -0.06945300102233887, 1.4215131998062134, 
476, 2650821936, -81.96971130371094, 27.624691009521484, -101.00343322753906, -4.779472351074219, -8.723886489868164, 0.8305022716522217, -0.6567361354827881, -0.5842735171318054, 0.6165090203285217, 
477, 2650830269, -81.96623229980469, 27.620840072631836, -100.99712371826172, -4.122226715087891, -8.438909530639648, 1.0937767028808594, 0.16521181166172028, -0.7427487373352051, 1.176999568939209, 
478, 2650838602, -81.96122741699219, 27.62632179260254, -100.99836730957031, -3.827679395675659, -8.385055541992188, 1.3390039205551147, 0.663203775882721, -0.005776009988039732, 2.175442695617676, 
479, 2650846935, -81.96063995361328, 27.63101577758789, -100.99909973144531, -4.477364540100098, -8.714396476745605, 1.6165205240249634, 0.13462841510772705, 0.002023524371907115, 2.1088967323303223, 
480, 2650855268, -81.96659088134766, 27.635318756103516, -101.00631713867188, -5.129159927368164, -8.677602767944336, 1.2971748113632202, -0.31934550404548645, 0.6051875352859497, 1.9466049671173096, 
481, 2650863601, -81.9669189453125, 27.628671646118164, -100.9998779296875, -4.952334880828857, -8.74780559539795, 0.9533384442329407, -0.3673209249973297, -0.9313719868659973, 0.8650438785552979, 
482, 2650871934, -81.96784210205078, 27.62254524230957, -100.99732208251953, -4.402482032775879, -8.479645729064941, 1.0522689819335938, -0.2584604322910309, -0.5986174941062927, 0.8531332612037659, 
483, 2650880267, -81.9637451171875, 27.625553131103516, -100.99983215332031, -3.8598852157592773, -8.430845260620117, 1.2020214796066284, 0.48185497522354126, -0.16924606263637543, 1.9256014823913574, 
484, 2650888600, -81.96025085449219, 27.63198471069336, -101.00041961669922, -4.131100654602051, -8.559879302978516, 1.392730951309204, 0.44522660970687866, -0.05411006882786751, 2.298851728439331, 
485, 2650896933, -81.96248626708984, 27.636716842651367, -101.01072692871094, -4.902246475219727, -8.48390007019043, 1.253839135169983, 0.15860334038734436, 0.6720919609069824, 2.016634464263916, 
486, 2650905266, -81.96273040771484, 27.63329315185547, -101.00626373291016, -5.105992794036865, -8.729243278503418, 1.1870286464691162, -0.2842027246952057, -0.7518930435180664, 1.201563835144043, 
487, 2650913599, -81.96663665771484, 27.626131057739258, -101.00535583496094, -4.627760887145996, -8.652393341064453, 0.9019595384597778, -0.5270769000053406, -0.43453267216682434, 0.7326695322990417, 
488, 2650921932, -81.96033477783203, 27.626914978027344, -101.00009155273438, -3.921339988708496, -8.471826553344727, 1.1505967378616333, 0.45693230628967285, -0.7681068778038025, 1.7127726078033447, 
489, 2650930265, -81.95668029785156, 27.633380889892578, -101.00801086425781, -3.9359796047210693, -8.510400772094727, 1.4566940069198608, 0.5887944102287292, 0.18447373807430267, 2.2956247329711914, 
490, 2650938598, -81.95570373535156, 27.639328002929688, -101.01184844970703, -4.69371223449707, -8.542754173278809, 1.320549726486206, 0.3243274688720703, 0.2773253321647644, 2.1922972202301025, 
491, 2650946931, -81.95719146728516, 27.6394100189209, -101.00972747802734, -5.241718292236328, -8.817667961120605, 1.3495267629623413, -0.17270398139953613, -0.1923501044511795, 1.575429081916809, 
492, 2650955264, -81.96184539794922, 27.631515502929688, -101.00657653808594, -4.761383056640625, -8.647122383117676, 0.8973098397254944, -0.7405202388763428, -0.6895735859870911, 0.6515492796897888, 
493, 2650963597, -81.95804595947266, 27.62728500366211, -101.00069427490234, -4.103729248046875, -8.492520332336426, 1.1505776643753052, 0.12886521220207214, -0.895460844039917, 1.1524100303649902, 
494, 2650971930, -81.95195770263672, 27.63330841064453, -101.0016860961914, -3.8426265716552734, -8.376850128173828, 1.341930866241455, 0.7784934043884277, -0.020094366744160652, 2.243217706680298, 
495, 2650980263, -81.95048522949219, 27.63857650756836, -101.00210571289062, -4.418952941894531, -8.657105445861816, 1.6447994709014893, 0.19236290454864502, -0.09032859653234482, 2.189453601837158, 
496, 2650988596, -81.9556655883789, 27.641246795654297, -101.01054382324219, -5.202371120452881, -8.625500679016113, 1.294874906539917, -0.15846246480941772, 0.706824779510498, 1.7370293140411377, 
497, 2650996929, -81.95755767822266, 27.63486099243164, -101.00611114501953, -5.004264831542969, -8.766446113586426, 0.9505559206008911, -0.5305860042572021, -0.8848821520805359, 0.8893261551856995, 
498, 2651005262, -81.95904541015625, 27.628812789916992, -101.00347137451172, -4.471449375152588, -8.487863540649414, 1.0897856950759888, -0.3308974802494049, -0.604892909526825, 0.8632509112358093, 
499, 2651013595, -81.95479583740234, 27.632335662841797, -101.0033187866211, -3.8064234256744385, -8.416190147399902, 1.225214958190918, 0.4465329945087433, -0.262148916721344, 2.0035200119018555, 
500, 2651021928, -81.95348358154297, 27.638469696044922, -101.00475311279297, -4.125737190246582, -8.557591438293457, 1.4595508575439453, 0.23193690180778503, 0.02912338264286518, 2.2516448497772217, 
501, 2651030261, -81.95720672607422, 27.64305305480957, -101.0114974975586, -4.885249614715576, -8.529986381530762, 1.2654675245285034, -0.013511509634554386, 0.6903805136680603, 1.9941452741622925, 
502, 2651038594, -81.95909118652344, 27.638917922973633, -101.00656127929688, -5.172149658203125, -8.756903648376465, 1.2539430856704712, -0.5082248449325562, -0.814852774143219, 1.1261042356491089, 
503, 2651046927, -81.96356201171875, 27.631362915039062, -101.00890350341797, -4.616423606872559, -8.641284942626953, 0.8744493722915649, -0.5676499605178833, -0.3947794437408447, 0.6770867109298706, 
504, 2651055260, -81.95899200439453, 27.631195068359375, -101.00469207763672, -3.904616594314575, -8.49510383605957, 1.1960917711257935, 0.3077550232410431, -0.6720022559165955, 1.585572361946106, 
505, 2651063593, -81.95824432373047, 27.637033462524414, -101.00768280029297, -3.987506628036499, -8.49878978729248, 1.5264265537261963, 0.2537602484226227, 0.20263421535491943, 2.216322898864746, 
506, 2651071926, -81.95928955078125, 27.641817092895508, -101.01148223876953, -4.730757236480713, -8.522031784057617, 1.3691480159759521, 0.08106905221939087, 0.25496408343315125, 2.0542359352111816, 
507, 2651080259, -81.96240997314453, 27.641136169433594, -101.02308654785156, -5.273655414581299, -8.846664428710938, 1.402965784072876, -0.3388635218143463, -0.16097265481948853, 1.4776595830917358, 
508, 2651088592, -81.96851348876953, 27.631702423095703, -101.02182006835938, -4.748772144317627, -8.623096466064453, 0.894212543964386, -0.811471700668335, -0.5184961557388306, 0.44123077392578125, 
509, 2651096925, -81.96578979492188, 27.62861442565918, -101.0191421508789, -4.081405162811279, -8.490460395812988, 1.1230392456054688, 0.05314953625202179, -0.775739848613739, 1.2711575031280518, 
510, 2651105258, -81.9626235961914, 27.634140014648438, -101.02143859863281, -3.791813373565674, -8.381340026855469, 1.3086036443710327, 0.5005021095275879, 0.10957769304513931, 2.1648383140563965, 
511, 2651113591, -81.96509552001953, 27.638397216796875, -101.02386474609375, -4.555461883544922, -8.67259407043457, 1.6170164346694946, -0.09714198112487793, 0.24056889116764069, 2.0211167335510254, 
512, 2651121924, -81.970947265625, 27.641382217407227, -101.03218841552734, -5.178976058959961, -8.662230491638184, 1.2160109281539917, -0.2460375279188156, 0.6988843679428101, 1.7741186618804932, 
513, 2651130257, -81.9742431640625, 27.633647918701172, -101.02656555175781, -4.910333633422852, -8.753212928771973, 0.8961725234985352, -0.6631653308868408, -0.8349087834358215, 0.719119668006897, 
514, 2651138590, -81.97702026367188, 27.627290725708008, -101.02607727050781, -4.359807968139648, -8.444210052490234, 1.059357762336731, -0.36652693152427673, -0.38315054774284363, 0.7937340140342712, 
515, 2651146923, -81.97310638427734, 27.63036346435547, -101.02671813964844, -3.793804883956909, -8.423699378967285, 1.2843276262283325, 0.48508238792419434, -0.12493342161178589, 1.9279577732086182, 
516, 2651155256, -81.97281646728516, 27.636354446411133, -101.02887725830078, -4.116433620452881, -8.534172058105469, 1.4131773710250854, 0.14794781804084778, 0.10330221801996231, 2.222701072692871, 
517, 2651163589, -81.97734832763672, 27.640670776367188, -101.04054260253906, -4.956686496734619, -8.56181526184082, 1.1992615461349487, -0.054622359573841095, 0.7904553413391113, 1.9488592147827148, 
518, 2651171922, -81.97852325439453, 27.636680603027344, -101.03644561767578, -5.098016738891602, -8.765337944030762, 1.0798221826553345, -0.3756968080997467, -0.7241528630256653, 1.1320210695266724, 
519, 2651180255, -81.98347473144531, 27.629301071166992, -101.03720092773438, -4.564729690551758, -8.576272964477539, 0.7777071595191956, -0.5487721562385559, -0.24485929310321808, 0.6767024397850037, 
520, 2651188588, -81.9784164428711, 27.629653930664062, -101.03272247314453, -3.9266390800476074, -8.443259239196777, 1.0817086696624756, 0.3517090976238251, -0.6920326352119446, 1.6519901752471924, 
521, 2651196921, -81.97625732421875, 27.63627052307129, -101.03662872314453, -3.929194211959839, -8.443682670593262, 1.411761999130249, 0.30383604764938354, -0.008824103511869907, 2.3403725624084473, 
522, 2651205254, -81.97613525390625, 27.640623092651367, -101.04149627685547, -4.752021312713623, -8.543400764465332, 1.2580660581588745, 0.27914389967918396, 0.35908594727516174, 1.9888428449630737, 
523, 2651213587, -81.97828674316406, 27.639606475830078, -101.042236328125, -5.235923767089844, -8.876112937927246, 1.4091243743896484, -0.3039769232273102, -0.3043867349624634, 1.457270622253418, 
524, 2651221920, -81.98332214355469, 27.63069725036621, -101.04035949707031, -4.793185234069824, -8.74553108215332, 0.9131679534912109, -0.7126520276069641, -0.571850597858429, 0.5118748545646667, 
525, 2651230253, -81.97862243652344, 27.62785530090332, -101.03256225585938, -4.126703262329102, -8.577895164489746, 1.0910590887069702, 0.25537392497062683, -0.8294274210929871, 1.310373067855835, 
526, 2651238586, -81.97218322753906, 27.6331844329834, -101.03376007080078, -3.978558301925659, -8.475489616394043, 1.344813585281372, 0.8336920738220215, -0.011078155599534512, 2.158588171005249, 
527, 2651246919, -81.9709701538086, 27.63777732849121, -101.03059387207031, -4.532161712646484, -8.585614204406738, 1.4454625844955444, 0.2267628163099289, 0.032760605216026306, 2.092221975326538, 
528, 2651255252, -81.97547912597656, 27.638965606689453, -101.0360107421875, -5.193400859832764, -8.63375473022461, 1.2862601280212402, -0.24680595099925995, 0.3634403645992279, 1.603169322013855, 
529, 2651263585, -81.9775161743164, 27.630035400390625, -101.03065490722656, -4.863997459411621, -8.79381275177002, 0.8945559859275818, -0.5001307129859924, -0.8381360769271851, 0.574066162109375, 
530, 2651271918, -81.97732543945312, 27.623870849609375, -101.0279541015625, -4.3727545738220215, -8.630648612976074, 1.060895323753357, -0.13284823298454285, -0.6138579249382019, 0.8504437804222107, 
531, 2651280251, -81.9719009399414, 27.62738609313965, -101.02857971191406, -3.922332525253296, -8.480719566345215, 1.3305354118347168, 0.6242188811302185, -0.19196587800979614, 1.9909944534301758, 
532, 2651288584, -81.96929931640625, 27.633596420288086, -101.02994537353516, -4.194530487060547, -8.575456619262695, 1.4538131952285767, 0.38231804966926575, 0.021336659789085388, 2.262454032897949, 
533, 2651296917, -81.97235870361328, 27.63735008239746, -101.04692840576172, -4.972231388092041, -8.468820571899414, 1.3149771690368652, 0.08818981051445007, 0.7125111222267151, 1.8891010284423828, 
534, 2651305250, -81.97240447998047, 27.63247299194336, -101.0415267944336, -5.094505310058594, -8.821128845214844, 1.146357536315918, -0.3123783767223358, -0.8754817247390747, 1.0426530838012695, 
535, 2651313583, -81.97500610351562, 27.624544143676758, -101.03936004638672, -4.66045618057251, -8.670018196105957, 0.8811083436012268, -0.40814998745918274, -0.5188547372817993, 0.6490134596824646, 
536, 2651321916, -81.9684829711914, 27.623991012573242, -101.03519439697266, -3.9020113945007324, -8.48127269744873, 1.1230748891830444, 0.5451477766036987, -0.6720534563064575, 1.5405168533325195, 
537, 2651330249, -81.9634017944336, 27.62891387939453, -101.03363800048828, -3.8662173748016357, -8.420337677001953, 1.3987276554107666, 0.5937891602516174, -0.14642377197742462, 2.1561038494110107, 
538, 2651338582, -81.96280670166016, 27.633811950683594, -101.03824615478516, -4.618853569030762, -8.537457466125488, 1.2998355627059937, 0.32153549790382385, 0.3430514633655548, 2.0571560859680176, 
539, 2651346915, -81.96401977539062, 27.63275718688965, -101.03147888183594, -5.232269287109375, -8.784493446350098, 1.3046711683273315, -0.185331791639328, -0.292911559343338, 1.4516099691390991, 
540, 2651355248, -81.96861267089844, 27.624521255493164, -101.0302505493164, -4.808899402618408, -8.777303695678711, 0.934425950050354, -0.6256917715072632, -0.49224159121513367, 0.5814175605773926, 
541, 2651363581, -81.96411895751953, 27.62085723876953, -101.02376556396484, -4.169356346130371, -8.467270851135254, 1.1412432193756104, 0.18347474932670593, -0.939337968826294, 1.2276133298873901, 
542, 2651371914, -81.95867156982422, 27.626554489135742, -101.02534484863281, -3.8344533443450928, -8.384795188903809, 1.374499797821045, 0.7356665134429932, 0.03455360233783722, 2.198700428009033, 
543, 2651380247, -81.95858001708984, 27.631542205810547, -101.02650451660156, -4.435458183288574, -8.587321281433105, 1.6063488721847534, 0.08555154502391815, 0.02374439500272274, 2.137507677078247, 
544, 2651388580, -81.96356964111328, 27.63458251953125, -101.03396606445312, -5.108182907104492, -8.659533500671387, 1.3024736642837524, -0.18968622386455536, 0.6103360056877136, 1.7932013273239136, 
545, 2651396913, -81.96691131591797, 27.626483917236328, -101.02996826171875, -4.95938777923584, -8.766724586486816, 0.9861195683479309, -0.6534320116043091, -0.8169019818305969, 0.6716821193695068, 
546, 2651405246, -81.9675064086914, 27.620319366455078, -101.0274429321289, -4.407324314117432, -8.57439136505127, 1.0514321327209473, -0.21701660752296448, -0.5946215987205505, 0.8486508131027222, 
547, 2651413579, -81.96273040771484, 27.623838424682617, -101.01952362060547, -3.877197265625, -8.369791984558105, 1.2733535766601562, 0.507981538772583, -0.2647615671157837, 2.00369930267334, 
548, 2651421912, -81.95942687988281, 27.629423141479492, -101.01960754394531, -4.066029071807861, -8.53577995300293, 1.3782894611358643, 0.3950483202934265, -0.12360149621963501, 2.2043867111206055, 
549, 2651430245, -81.9642333984375, 27.634607315063477, -101.03241729736328, -4.978165626525879, -8.478499412536621, 1.2620986700057983, -0.07088739424943924, 0.8391222357749939, 2.0482163429260254, 
550, 2651438578, -81.96385192871094, 27.63005828857422, -101.02537536621094, -5.122959136962891, -8.784449577331543, 1.151700735092163, -0.3504411578178406, -1.0443308353424072, 1.1064581871032715, 
551, 2651446911, -81.96685791015625, 27.621389389038086, -101.02549743652344, -4.655978202819824, -8.643423080444336, 0.9177888631820679, -0.38558390736579895, -0.390040785074234, 0.5412800908088684, 
552, 2651455244, -81.96090698242188, 27.621231079101562, -101.02020263671875, -3.8688971996307373, -8.50045394897461, 1.1800315380096436, 0.41433584690093994, -0.7867283821105957, 1.6046291589736938, 
553, 2651463577, -81.95658111572266, 27.627229690551758, -101.0241470336914, -3.8322291374206543, -8.3675537109375, 1.434242606163025, 0.5828006863594055, 0.014702570624649525, 2.261353015899658, 
554, 2651471910, -81.95707702636719, 27.632354736328125, -101.03001403808594, -4.612025260925293, -8.530667304992676, 1.3336849212646484, 0.26116272807121277, 0.47934475541114807, 2.0663001537323, 
555, 2651480243, -81.960693359375, 27.632511138916016, -101.03330993652344, -5.288447856903076, -8.836287498474121, 1.317002773284912, -0.3699592053890228, -0.07982677221298218, 1.5674374103546143, 
556, 2651488576, -81.96632385253906, 27.62499237060547, -101.0317153930664, -4.8716654777526855, -8.722777366638184, 0.8954000473022461, -0.7719746232032776, -0.5195719003677368, 0.6736543774604797, 
557, 2651496909, -81.96296691894531, 27.621187210083008, -101.02366638183594, -4.116482734680176, -8.418703079223633, 1.0898715257644653, 0.017699435353279114, -0.9942037463188171, 1.216829776763916, 
558, 2651505242, -81.95870208740234, 27.62665557861328, -101.02484130859375, -3.807628631591797, -8.355940818786621, 1.3185087442398071, 0.5716584920883179, -0.009003404527902603, 2.174264430999756, 
559, 2651513575, -81.95872497558594, 27.631702423095703, -101.02230834960938, -4.3896870613098145, -8.635651588439941, 1.5873085260391235, -0.023705972358584404, -0.15920528769493103, 2.1743154525756836, 
560, 2651521908, -81.9647445678711, 27.635578155517578, -101.0317611694336, -5.202025413513184, -8.694048881530762, 1.260652780532837, -0.20274947583675385, 0.8338969945907593, 1.8641526699066162, 
561, 2651530241, -81.9672622680664, 27.6286678314209, -101.02555847167969, -4.992083549499512, -8.737040519714355, 1.0288578271865845, -0.712600827217102, -1.0926648378372192, 0.8525441884994507, 
562, 2651538574, -81.9698715209961, 27.62261962890625, -101.02335357666016, -4.400943279266357, -8.492362022399902, 1.0396517515182495, -0.44147413969039917, -0.5600680708885193, 0.8583073616027832, 
563, 2651546907, -81.9655532836914, 27.62601089477539, -101.02983093261719, -3.80576753616333, -8.39611530303955, 1.2288774251937866, 0.45068246126174927, -0.2776198387145996, 1.9857689142227173, 
564, 2651555240, -81.96383666992188, 27.632883071899414, -101.03053283691406, -4.102842330932617, -8.55401611328125, 1.4649848937988281, 0.23877589404582977, -0.03643624857068062, 2.34798002243042, 
565, 2651563573, -81.96966552734375, 27.637561798095703, -101.04595184326172, -4.932814598083496, -8.5296630859375, 1.2313250303268433, -0.13438506424427032, 0.9411950707435608, 1.9726290702819824, 
566, 2651571906, -81.9725570678711, 27.633445739746094, -101.04136657714844, -5.20447301864624, -8.842623710632324, 1.2098675966262817, -0.6089655756950378, -0.7772254943847656, 1.122594952583313, 
567, 2651580239, -81.97852325439453, 27.624801635742188, -101.04249572753906, -4.68525505065918, -8.696290969848633, 0.8455947637557983, -0.6772275567054749, -0.2770819664001465, 0.5271153450012207, 
568, 2651588572, -81.9735107421875, 27.6242733001709, -101.03691101074219, -3.960705041885376, -8.518566131591797, 1.1479207277297974, 0.2837288975715637, -0.8217431902885437, 1.563493013381958, 
569, 2651596905, -81.972412109375, 27.630542755126953, -101.04093170166016, -3.9579358100891113, -8.492198944091797, 1.4724231958389282, 0.3240200877189636, 0.265363484621048, 2.260533094406128, 
570, 2651605238, -81.97148895263672, 27.63498878479004, -101.04408264160156, -4.70367956161499, -8.550641059875488, 1.2984490394592285, 0.28019413352012634, 0.17986315488815308, 2.024933099746704, 
571, 2651613571, -81.97530364990234, 27.63395118713379, -101.045654296875, -5.309010982513428, -8.906118392944336, 1.4047540426254272, -0.3353799879550934, 0.014523270539939404, 1.4102429151535034, 
572, 2651621904, -81.98135375976562, 27.62527847290039, -101.04419708251953, -4.769744396209717, -8.692070007324219, 0.8987475633621216, -0.8132648468017578, -0.5270769596099854, 0.5350813865661621, 
573, 2651630237, -81.97821044921875, 27.62050437927246, -101.03740692138672, -4.100030899047852, -8.476297378540039, 1.1179749965667725, 0.10358395427465439, -0.7992793917655945, 1.0713152885437012, 
574, 2651638570, -81.97409057617188, 27.626001358032227, -101.03942108154297, -3.7815916538238525, -8.382704734802246, 1.3259062767028809, 0.6026773452758789, 0.08027499914169312, 2.1665287017822266, 
575, 2651646903, -81.97443389892578, 27.62990951538086, -101.04576110839844, -4.467962741851807, -8.650534629821777, 1.5742335319519043, 0.032991133630275726, 0.00035859926720149815, 2.0104868412017822, 
576, 2651655236, -81.97852325439453, 27.63239097595215, -101.05343627929688, -5.151230812072754, -8.658720016479492, 1.1644550561904907, -0.07024703919887543, 0.6228613257408142, 1.7250417470932007, 
577, 2651663569, -81.97944641113281, 27.624027252197266, -101.04730224609375, -4.931684970855713, -8.707677841186523, 0.9048632383346558, -0.4280266761779785, -0.9427446722984314, 0.6569794416427612, 
578, 2651671902, -81.98017883300781, 27.617759704589844, -101.04439544677734, -4.350201606750488, -8.423760414123535, 0.9583665132522583, -0.25487443804740906, -0.6374998092651367, 0.841555655002594, 
579, 2651680235, -81.97576141357422, 27.619333267211914, -101.04352569580078, -3.8094732761383057, -8.36187744140625, 1.1818740367889404, 0.4574190080165863, -0.3084081709384918, 1.7698410749435425, 
580, 2651688568, -81.97341918945312, 27.625240325927734, -101.04437255859375, -4.057199478149414, -8.532243728637695, 1.298410177230835, 0.32258567214012146, -0.03656432032585144, 2.2326393127441406, 
581, 2651696901, -81.97611236572266, 27.629737854003906, -101.05236053466797, -4.916614055633545, -8.553874969482422, 1.2324649095535278, 0.13777896761894226, 0.7452461123466492, 1.9759842157363892, 
582, 2651705234, -81.97489929199219, 27.626449584960938, -101.04668426513672, -5.1463775634765625, -8.773999214172363, 1.059979796409607, -0.17646928131580353, -0.87909334897995, 1.2379872798919678, 
583, 2651713567, -81.9802017211914, 27.617816925048828, -101.04579162597656, -4.626508712768555, -8.631071090698242, 0.7978497743606567, -0.6722071766853333, -0.4181651771068573, 0.5518330931663513, 
584, 2651721900, -81.97550964355469, 27.616802215576172, -101.04106903076172, -3.9456799030303955, -8.514220237731934, 1.0611988306045532, 0.2930012345314026, -0.7385993003845215, 1.4923367500305176, 
585, 2651730233, -81.97168731689453, 27.62194061279297, -101.04696655273438, -4.0138983726501465, -8.529719352722168, 1.3675626516342163, 0.4306264817714691, -0.17928683757781982, 2.183767080307007, 
586, 2651738566, -81.97079467773438, 27.627092361450195, -101.05068969726562, -4.632519721984863, -8.519745826721191, 1.2926063537597656, 0.30834418535232544, 0.252402663230896, 2.101519823074341, 
587, 2651746899, -81.97332000732422, 27.62730598449707, -101.05644989013672, -5.229429244995117, -8.777267456054688, 1.4110056161880493, -0.23750801384449005, -0.08651208132505417, 1.574609398841858, 
588, 2651755232, -81.97913360595703, 27.619140625, -101.054931640625, -4.802382946014404, -8.773555755615234, 0.9396618008613586, -0.7884958982467651, -0.5216979384422302, 0.5946345329284668, 
589, 2651763565, -81.97602081298828, 27.614906311035156, -101.05097961425781, -4.279102325439453, -8.704995155334473, 1.1068452596664429, 0.1251511424779892, -0.7495877742767334, 1.1284863948822021, 
590, 2651771898, -81.97029876708984, 27.62018394470215, -101.05225372314453, -4.051472187042236, -8.599564552307129, 1.4052351713180542, 0.7503176927566528, -0.0012166760861873627, 2.151108980178833, 
591, 2651780231, -81.96824645996094, 27.625396728515625, -101.0521469116211, -4.444356918334961, -8.58224868774414, 1.581596851348877, 0.2664136290550232, -0.0823625698685646, 2.181461811065674, 
592, 2651788564, -81.9710464477539, 27.62834930419922, -101.05857849121094, -5.026636123657227, -8.46883773803711, 1.2331935167312622, 0.017596980556845665, 0.5006301999092102, 1.7980167865753174, 
593, 2651796897, -81.97252655029297, 27.620878219604492, -101.04523468017578, -4.884054183959961, -8.767204284667969, 1.0591214895248413, -0.576947808265686, -1.0787562131881714, 0.7853836417198181, 
594, 2651805230, -81.97288513183594, 27.614404678344727, -101.04270935058594, -4.478130340576172, -8.67390251159668, 1.032977819442749, -0.18761146068572998, -0.6012813448905945, 0.8101525902748108, 
595, 2651813563, -81.96515655517578, 27.618019104003906, -101.03800964355469, -3.9346516132354736, -8.527149200439453, 1.248997688293457, 0.7504457831382751, -0.47669368982315063, 2.0423765182495117, 
596, 2651821896, -81.96000671386719, 27.62446403503418, -101.03691101074219, -4.083881855010986, -8.55267333984375, 1.4643598794937134, 0.549681544303894, -0.23351219296455383, 2.326028823852539, 
597, 2651830229, -81.9608383178711, 27.63017463684082, -101.04781341552734, -4.729266166687012, -8.419259071350098, 1.2527884244918823, 0.3076269328594208, 0.6504990458488464, 2.137482166290283, 
598, 2651838562, -81.95916748046875, 27.627716064453125, -101.04325103759766, -5.088568687438965, -8.759215354919434, 1.1159576177597046, -0.06151258572936058, -0.7457969188690186, 1.3179291486740112, 
599, 2651846895, -81.96297454833984, 27.61990737915039, -101.04095458984375, -4.727886199951172, -8.707735061645508, 0.8735409379005432, -0.5855029821395874, -0.58209627866745, 0.672860324382782, 
600, 2651855228, -81.95707702636719, 27.61814308166504, -101.03506469726562, -4.024593830108643, -8.548739433288574, 1.1398804187774658, 0.37281516194343567, -0.8751999735832214, 1.4209239482879639, 
601, 2651863561, -81.95140838623047, 27.624197006225586, -101.03690338134766, -3.8463993072509766, -8.397074699401855, 1.3990169763565063, 0.6539826393127441, -0.151008740067482, 2.293088912963867, 
