sep=,
PacketCounter,SampleTimeFine,Euler_X,Euler_Y,Euler_Z,Acc_X,Acc_Y,Acc_Z,Gyr_X,Gyr_Y,Gyr_Z,
0, 593339759, -0.8697412014007568, 0.6723018288612366, 41.14866256713867, 0, 0, 0, 0, 0, 0, 
1, 593348092, -0.8643749356269836, 0.6729389429092407, 41.1458740234375, 0.7105348110198975, -0.013890820555388927, 9.795546531677246, -0.33566173911094666, -0.771129310131073, -0.07278284430503845, 
2, 593356425, -0.8605409860610962, 0.6821664571762085, 41.14349365234375, -0.2079116851091385, -0.19851285219192505, 9.932902336120605, -0.5164982080459595, 0.2570900619029999, -0.0012166760861873627, 
3, 593364758, -0.8610549569129944, 0.6832124590873718, 41.14434814453125, -1.0111902952194214, -0.0722508653998375, 9.613256454467773, -1.0447918176651, -0.7286098003387451, 0.36538711190223694, 
4, 593373091, -0.8647845983505249, 0.6788550615310669, 41.14738464355469, -0.34080594778060913, -0.002304376568645239, 9.408036231994629, -1.4324376583099365, -1.3827972412109375, 0.6126412153244019, 
5, 593381424, -0.868296205997467, 0.6731106042861938, 41.149532318115234, 0.019658707082271576, -0.32702717185020447, 9.688138961791992, -1.4062854051589966, -1.54560124874115, 0.5094671249389648, 
6, 593389757, -0.8660862445831299, 0.671196460723877, 41.14967727661133, 0.669219970703125, 0.05323861166834831, 9.768036842346191, -0.7144707441329956, -1.0843658447265625, 0.24630649387836456, 
7, 593398090, -0.8668368458747864, 0.6796556115150452, 41.14633560180664, 0.23466332256793976, -0.20046557486057281, 9.78343677520752, -1.0678702592849731, 0.16782444715499878, -0.1232684925198555, 
8, 593406423, -0.8666685223579407, 0.684316098690033, 41.14750671386719, -0.9492180347442627, -0.3458685576915741, 9.812448501586914, -0.9623908400535583, -0.29680493474006653, 0.4140028655529022, 
9, 593414756, -0.8671278953552246, 0.6801832318305969, 41.150543212890625, -0.4974643290042877, -0.13096264004707336, 9.432169914245605, -1.0415388345718384, -1.3537508249282837, 0.6192497611045837, 
10, 593423089, -0.8708133697509766, 0.6764622926712036, 41.14920425415039, -0.10906428098678589, -0.15567034482955933, 9.586424827575684, -1.4218589067459106, -1.299397349357605, 0.17786523699760437, 
11, 593431422, -0.8667874336242676, 0.6717572212219238, 41.147682189941406, 0.38124653697013855, -0.08291575312614441, 9.740691184997559, -0.4972875714302063, -1.414840579032898, 0.07023423165082932, 
12, 593439755, -0.864640474319458, 0.6757272481918335, 41.14480209350586, 0.6080703139305115, 0.09462495893239975, 9.737601280212402, -0.7179029583930969, -0.37188026309013367, -0.1145852655172348, 
13, 593448088, -0.8661878108978271, 0.6825583577156067, 41.14522171020508, -0.6985394954681396, -0.16190460324287415, 9.935920715332031, -1.1678426265716553, -0.03454079478979111, 0.3252239227294922, 
14, 593456421, -0.8701553344726562, 0.6786997318267822, 41.147216796875, -0.713685154914856, -0.23809990286827087, 9.504912376403809, -1.4615353345870972, -1.3215279579162598, 0.622348964214325, 
15, 593464754, -0.8740463852882385, 0.6754972338676453, 41.14784622192383, -0.18539659678936005, -0.1714046597480774, 9.47561264038086, -1.4502137899398804, -1.2394599914550781, 0.3288867771625519, 
16, 593473087, -0.8725446462631226, 0.669944167137146, 41.147010803222656, 0.1620829701423645, -0.3895421028137207, 9.681697845458984, -0.7997660040855408, -1.520217776298523, 0.21188093721866608, 
17, 593481420, -0.8669589757919312, 0.6705204248428345, 41.142730712890625, 0.7740735411643982, 0.10847286134958267, 9.765168190002441, -0.3064102530479431, -0.7754068970680237, -0.2511347830295563, 
18, 593489753, -0.864528477191925, 0.6808045506477356, 41.13924789428711, -0.2598627805709839, -0.14983059465885162, 9.917281150817871, -0.6831444501876831, 0.38569915294647217, -0.08307977020740509, 
19, 593498086, -0.8651620745658875, 0.6806521415710449, 41.14251708984375, -0.8947207927703857, -0.0941888689994812, 9.590008735656738, -1.063438892364502, -0.877223551273346, 0.653444766998291, 
20, 593506419, -0.8690909743309021, 0.675741970539093, 41.14546203613281, -0.24214228987693787, -0.03617612645030022, 9.431800842285156, -1.4569759368896484, -1.4490612745285034, 0.688946008682251, 
21, 593514752, -0.8728194236755371, 0.6696348786354065, 41.145835876464844, 0.054673291742801666, -0.37578529119491577, 9.662485122680664, -1.4301068782806396, -1.5866611003875732, 0.29412826895713806, 
22, 593523085, -0.8681880831718445, 0.668161928653717, 41.143890380859375, 0.6817803978919983, 0.02668725699186325, 9.764374732971191, -0.42262208461761475, -1.0283474922180176, 0.0681338682770729, 
23, 593531418, -0.8651371002197266, 0.6774787902832031, 41.1389045715332, 0.16634678840637207, -0.14862187206745148, 9.81672477722168, -0.60993891954422, 0.2736368477344513, -0.32070305943489075, 
24, 593539751, -0.8638442754745483, 0.6823746562004089, 41.13949966430664, -0.9793529510498047, -0.10020417720079422, 9.797757148742676, -0.8252522945404053, -0.2666570246219635, 0.3454848527908325, 
25, 593548084, -0.8663149476051331, 0.676832377910614, 41.14285659790039, -0.49752479791641235, -0.04728992283344269, 9.430193901062012, -1.2838494777679443, -1.5248793363571167, 0.654520571231842, 
26, 593556417, -0.8720049262046814, 0.6714330315589905, 41.14381408691406, -0.04419122263789177, -0.20213823020458221, 9.548995971679688, -1.6638877391815186, -1.5009557008743286, 0.2551433742046356, 
27, 593564750, -0.8703579306602478, 0.6665210127830505, 41.14366149902344, 0.5647813081741333, -0.13674089312553406, 9.810145378112793, -0.7842438817024231, -1.4416844844818115, 0.23408851027488708, 
28, 593573083, -0.8684564232826233, 0.6724873185157776, 41.13978958129883, 0.6089715957641602, -0.10446012020111084, 9.757472038269043, -0.7479484677314758, -0.13325804471969604, -0.097218818962574, 
29, 593581416, -0.8681158423423767, 0.6813044548034668, 41.14047622680664, -0.7877211570739746, -0.224112868309021, 9.909555435180664, -0.9426165819168091, 0.20337700843811035, 0.36003369092941284, 
30, 593589749, -0.868992805480957, 0.6787970066070557, 41.1419677734375, -0.7417140603065491, -0.24690183997154236, 9.447782516479492, -1.0883872509002686, -1.1586215496063232, 0.529702365398407, 
31, 593598082, -0.8712829351425171, 0.6759275794029236, 41.142879486083984, -0.14599475264549255, -0.05235946923494339, 9.53947639465332, -1.2588756084442139, -1.1983234882354736, 0.3664628267288208, 
32, 593606415, -0.8688259124755859, 0.6708317995071411, 41.14365768432617, 0.22308231890201569, -0.1925455927848816, 9.74978256225586, -0.6866280436515808, -1.4695526361465454, 0.44007816910743713, 
33, 593614748, -0.867712140083313, 0.6738558411598206, 41.1409797668457, 0.7078810930252075, 0.17984390258789062, 9.663827896118164, -0.8455386757850647, -0.4842242896556854, -0.05208654701709747, 
34, 593623081, -0.8688772320747375, 0.6830493211746216, 41.13777542114258, -0.3825197219848633, -0.22294695675373077, 9.851781845092773, -1.1172288656234741, 0.2533760070800781, -0.01287115179002285, 
35, 593631414, -0.8706576228141785, 0.6823902726173401, 41.14202117919922, -0.8881005048751831, -0.2593322694301605, 9.677534103393555, -1.201397180557251, -0.9391331076622009, 0.7700919508934021, 
36, 593639747, -0.8733343482017517, 0.6796456575393677, 41.14381408691406, -0.21102213859558105, -0.04604543372988701, 9.476845741271973, -1.3063387870788574, -1.1876935958862305, 0.5661770105361938, 
37, 593648080, -0.8754869699478149, 0.6745861172676086, 41.141151428222656, -0.0016445440705865622, -0.4583011567592621, 9.621140480041504, -1.2371034622192383, -1.4560283422470093, -0.06671227514743805, 
38, 593656413, -0.8685736060142517, 0.6733450889587402, 41.139617919921875, 0.6797775030136108, 0.07419639080762863, 9.74634075164795, -0.1477556973695755, -1.0004535913467407, 0.08565399795770645, 
39, 593664746, -0.8659659028053284, 0.6814410090446472, 41.137020111083984, 0.11350131034851074, -0.08009038120508194, 9.859070777893066, -0.6661621928215027, 0.12415219098329544, -0.03415658324956894, 
40, 593673079, -0.8667517900466919, 0.685150682926178, 41.138851165771484, -1.0035438537597656, -0.05891081318259239, 9.776176452636719, -1.0790892839431763, -0.41301673650741577, 0.5788817405700684, 
41, 593681412, -0.870983898639679, 0.6799499988555908, 41.14274978637695, -0.4160107672214508, -0.1413453072309494, 9.389827728271484, -1.4954487085342407, -1.4843575954437256, 0.7218090891838074, 
42, 593689745, -0.8757582306861877, 0.6738091111183167, 41.14356231689453, -0.06662283837795258, -0.3693384528160095, 9.569229125976562, -1.555283546447754, -1.594934344291687, 0.4687148630619049, 
43, 593698078, -0.8708277940750122, 0.6704729795455933, 41.142799377441406, 0.519303560256958, -0.09217862784862518, 9.79343032836914, -0.390220046043396, -1.2517547607421875, 0.16311144828796387, 
44, 593706411, -0.8673234581947327, 0.6773557662963867, 41.136474609375, 0.4694124758243561, -0.07359559834003448, 9.778158187866211, -0.5509750247001648, -0.017840316519141197, -0.40223315358161926, 
45, 593714744, -0.8658547401428223, 0.6839914321899414, 41.13585662841797, -0.8301088809967041, -0.23622263967990875, 9.888876914978027, -0.8059647083282471, -0.05487850308418274, 0.19845910370349884, 
46, 593723077, -0.8666207790374756, 0.6800958514213562, 41.13928985595703, -0.6606050729751587, -0.1276724934577942, 9.495366096496582, -1.0772451162338257, -1.3282647132873535, 0.6964254379272461, 
47, 593731410, -0.8717414736747742, 0.6753638386726379, 41.139991760253906, -0.1255936324596405, -0.0045097037218511105, 9.527888298034668, -1.598546028137207, -1.4220383167266846, 0.33805668354034424, 
48, 593739743, -0.8724189400672913, 0.6697799563407898, 41.139373779296875, 0.29307952523231506, -0.28097862005233765, 9.736790657043457, -1.0600067377090454, -1.5232402086257935, 0.17197397351264954, 
49, 593748076, -0.8693563938140869, 0.6731171011924744, 41.13676071166992, 0.7026023268699646, -0.05565626919269562, 9.691744804382324, -0.6123978495597839, -0.4485180377960205, -0.04565737023949623, 
50, 593756409, -0.8671249747276306, 0.6821065545082092, 41.1359977722168, -0.4521528482437134, -0.2290339320898056, 9.890692710876465, -0.7119092345237732, 0.22758246958255768, 0.1877523511648178, 
51, 593764742, -0.8673669099807739, 0.681221604347229, 41.13742446899414, -0.896086573600769, -0.18481498956680298, 9.588887214660645, -1.0128508806228638, -0.961391806602478, 0.43193280696868896, 
52, 593773075, -0.8704255223274231, 0.677243173122406, 41.13936233520508, -0.29272109270095825, -0.01968896947801113, 9.459839820861816, -1.349908709526062, -1.3353596925735474, 0.4199454188346863, 
53, 593781408, -0.8713361620903015, 0.670891523361206, 41.14055633544922, 0.03164385259151459, -0.3752627372741699, 9.634237289428711, -1.0935869216918945, -1.6169369220733643, 0.3933578133583069, 
54, 593789741, -0.8678658604621887, 0.668666422367096, 41.13786315917969, 0.7318216562271118, 0.12925902009010315, 9.743266105651855, -0.5613231658935547, -1.1182278394699097, 0.04733510687947273, 
55, 593798074, -0.8683298230171204, 0.6774371266365051, 41.133941650390625, 0.06737249344587326, -0.16793443262577057, 9.829009056091309, -1.032368779182434, 0.20665563642978668, -0.19457852840423584, 
56, 593806407, -0.8688662648200989, 0.6810359358787537, 41.136295318603516, -0.8910940289497375, -0.28243714570999146, 9.742121696472168, -1.0482497215270996, -0.42451751232147217, 0.5383087396621704, 
57, 593814740, -0.8713871836662292, 0.6781265735626221, 41.139892578125, -0.3704795837402344, -0.1238989531993866, 9.431893348693848, -1.2895870208740234, -1.2089533805847168, 0.6877164840698242, 
58, 593823073, -0.8736621737480164, 0.6732692122459412, 41.13855743408203, -0.17103378474712372, -0.3131752610206604, 9.61442756652832, -1.2522414922714233, -1.4346404075622559, 0.10822013765573502, 
59, 593831406, -0.8684645295143127, 0.669249951839447, 41.1376953125, 0.45566463470458984, -0.03185882046818733, 9.717694282531738, -0.35774117708206177, -1.333413004875183, 0.15158502757549286, 
60, 593839739, -0.8656937479972839, 0.675183117389679, 41.13349151611328, 0.4572886526584625, 0.026258137077093124, 9.759359359741211, -0.6408296227455139, -0.13492296636104584, -0.26552993059158325, 
61, 593848072, -0.864870548248291, 0.6811246275901794, 41.134849548339844, -0.7653759717941284, -0.1299743354320526, 9.970990180969238, -0.8854713439941406, -0.14245358109474182, 0.43592870235443115, 
62, 593856405, -0.8684343695640564, 0.6777788400650024, 41.13896179199219, -0.5905197262763977, -0.14082683622837067, 9.496123313903809, -1.41530179977417, -1.2630252838134766, 0.8147632479667664, 
63, 593864738, -0.8746198415756226, 0.6728562712669373, 41.13991928100586, -0.18338227272033691, -0.1448342651128769, 9.48344898223877, -1.726130485534668, -1.445296049118042, 0.3681277632713318, 
64, 593873071, -0.8711226582527161, 0.6668375730514526, 41.14023208618164, 0.26396334171295166, -0.33947187662124634, 9.726921081542969, -0.56073397397995, -1.5766969919204712, 0.2321161925792694, 
65, 593881404, -0.8658472299575806, 0.6689471006393433, 41.136131286621094, 0.7694671154022217, 0.033303841948509216, 9.727328300476074, -0.34370461106300354, -0.5920602679252625, -0.22618649899959564, 
66, 593889737, -0.8637664318084717, 0.6790083646774292, 41.13413619995117, -0.4292921721935272, -0.10587641596794128, 9.937639236450195, -0.7274571061134338, 0.3571392893791199, 0.007863570936024189, 
67, 593898070, -0.8650396466255188, 0.6778894066810608, 41.13685607910156, -0.8636127710342407, -0.12466689944267273, 9.562478065490723, -1.1397950649261475, -0.9910532236099243, 0.5859256386756897, 
68, 593906403, -0.8709108233451843, 0.673081636428833, 41.141151428222656, -0.2862575352191925, -0.03685983270406723, 9.445319175720215, -1.690629005432129, -1.4384570121765137, 0.7133821249008179, 
69, 593914736, -0.873581051826477, 0.6666082739830017, 41.14258575439453, 0.0649387538433075, -0.3805607259273529, 9.712969779968262, -1.3052371740341187, -1.6319211721420288, 0.4236081540584564, 
70, 593923069, -0.8711267709732056, 0.6666504144668579, 41.141822814941406, 0.7837727665901184, 0.0057079684920609, 9.769575119018555, -0.6841690540313721, -0.8458717465400696, 0.07983957976102829, 
71, 593931402, -0.8688545823097229, 0.6761764883995056, 41.13745880126953, 0.09390227496623993, -0.2432609647512436, 9.821712493896484, -0.7030466794967651, 0.29797038435935974, -0.24678033590316772, 
72, 593939735, -0.865904688835144, 0.6802405714988708, 41.13870620727539, -0.9460064172744751, -0.18276944756507874, 9.722123146057129, -0.6282275915145874, -0.3692420423030853, 0.430959552526474, 
73, 593948068, -0.8685455918312073, 0.6762222647666931, 41.1417350769043, -0.4678674340248108, -0.0414663627743721, 9.469645500183105, -1.3044946193695068, -1.3397141695022583, 0.618506908416748, 
74, 593956401, -0.8720359802246094, 0.6710008978843689, 41.140411376953125, -0.1597362905740738, -0.22081205248832703, 9.593021392822266, -1.3976279497146606, -1.4786969423294067, 0.1291469782590866, 
75, 593964734, -0.8690601587295532, 0.6665006875991821, 41.1405143737793, 0.5396605134010315, -0.02153005637228489, 9.70854663848877, -0.6254099607467651, -1.3939136266708374, 0.26669541001319885, 
76, 593973067, -0.8677857518196106, 0.6729374527931213, 41.13782501220703, 0.5559689998626709, -0.026086417958140373, 9.723274230957031, -0.8234848380088806, -0.07685551047325134, -0.041559092700481415, 
77, 593981400, -0.8682314157485962, 0.6797022223472595, 41.138065338134766, -0.7273797392845154, -0.20715348422527313, 9.904376983642578, -1.0368001461029053, -0.04161032289266586, 0.30204305052757263, 
78, 593989733, -0.8696815371513367, 0.6775916218757629, 41.14023971557617, -0.6347728371620178, -0.20667603611946106, 9.508642196655273, -1.1572641134262085, -1.1111072301864624, 0.5175100564956665, 
79, 593998066, -0.8732147812843323, 0.6740810871124268, 41.14033508300781, -0.25185883045196533, -0.19868896901607513, 9.500117301940918, -1.406503438949585, -1.2726690769195557, 0.2663368582725525, 
80, 594006399, -0.8700338006019592, 0.6684693694114685, 41.140899658203125, 0.17849203944206238, -0.24318236112594604, 9.720041275024414, -0.6000261902809143, -1.5297973155975342, 0.2614188492298126, 
81, 594014732, -0.8658509254455566, 0.6710386276245117, 41.137176513671875, 0.7606692314147949, 0.11045437306165695, 9.72136402130127, -0.4745677411556244, -0.5364517569541931, -0.180516317486763, 
82, 594023065, -0.8653779625892639, 0.6798388957977295, 41.13513946533203, -0.34806448221206665, -0.19739700853824615, 9.944805145263672, -0.9217409491539001, 0.2040686011314392, 0.10117622464895248, 
83, 594031398, -0.8670992255210876, 0.6798528432846069, 41.13849639892578, -0.8125128746032715, -0.1651233732700348, 9.608399391174316, -1.1939435005187988, -0.8565272092819214, 0.6640490293502808, 
84, 594039731, -0.8718319535255432, 0.6762731075286865, 41.141510009765625, -0.2306775003671646, -0.08713193982839584, 9.417298316955566, -1.5524147748947144, -1.2867693901062012, 0.5020902156829834, 
85, 594048064, -0.8729357123374939, 0.6711955666542053, 41.14009475708008, -0.05919744074344635, -0.4379785358905792, 9.664401054382324, -1.112234115600586, -1.4599984884262085, 0.08058237284421921, 
86, 594056397, -0.8669137358665466, 0.6706388592720032, 41.135807037353516, 0.7437167763710022, 0.07020524889230728, 9.68336009979248, -0.25274842977523804, -0.9154142737388611, -0.1361524611711502, 
87, 594064730, -0.8637821674346924, 0.679884672164917, 41.131378173828125, 0.09399551153182983, -0.06475468724966049, 9.855923652648926, -0.601204514503479, 0.2641083598136902, -0.2535681128501892, 
88, 594073063, -0.8643423318862915, 0.6838082075119019, 41.134788513183594, -0.9626943469047546, -0.1321846842765808, 9.7879056930542, -1.0514259338378906, -0.38640356063842773, 0.5266286730766296, 
89, 594081396, -0.8695740699768066, 0.6798803210258484, 41.138999938964844, -0.43952372670173645, -0.04879740625619888, 9.429241180419922, -1.6155024766921997, -1.3313639163970947, 0.7601280212402344, 
90, 594089729, -0.8749797940254211, 0.6748163104057312, 41.14041519165039, -0.11558486521244049, -0.2854410409927368, 9.540245056152344, -1.631895661354065, -1.4641480445861816, 0.40368032455444336, 
91, 594098062, -0.8718204498291016, 0.6700788736343384, 41.13971710205078, 0.5885573625564575, -0.18378514051437378, 9.743609428405762, -0.6021265983581543, -1.4202196598052979, 0.17117993533611298, 
92, 594106395, -0.8682801127433777, 0.6766461730003357, 41.13496017456055, 0.5905601978302002, -0.10569755733013153, 9.793329238891602, -0.5502833724021912, -0.057824134826660156, -0.212534099817276, 
93, 594114728, -0.8658753633499146, 0.685462236404419, 41.134220123291016, -0.8410600423812866, -0.20746095478534698, 9.852825164794922, -0.6931852102279663, 0.20591282844543457, 0.1865740716457367, 
94, 594123061, -0.8665517568588257, 0.682645320892334, 41.13747024536133, -0.7689104080200195, -0.11629631370306015, 9.45960521697998, -1.065436840057373, -1.197375774383545, 0.571351170539856, 
95, 594131394, -0.87015300989151, 0.6773791909217834, 41.13945007324219, -0.24527686834335327, -0.08830542117357254, 9.56725788116455, -1.4180935621261597, -1.4886609315872192, 0.4888732433319092, 
96, 594139727, -0.8695645928382874, 0.6712412238121033, 41.139984130859375, 0.22916783392429352, -0.1916983425617218, 9.775813102722168, -0.9111878871917725, -1.5914250612258911, 0.36694949865341187, 
97, 594148060, -0.8671457767486572, 0.6749619841575623, 41.136260986328125, 0.752629280090332, 0.13126897811889648, 9.70411205291748, -0.686141312122345, -0.3992618918418884, -0.17795489728450775, 
98, 594156393, -0.8674448728561401, 0.6823796033859253, 41.1340446472168, -0.3752095401287079, -0.25988420844078064, 9.869634628295898, -1.013824224472046, 0.04034242033958435, 0.001024569501169026, 
99, 594164726, -0.8682824969291687, 0.6826004981994629, 41.1373291015625, -0.8466607928276062, -0.20262591540813446, 9.650535583496094, -1.0878750085830688, -0.8329620957374573, 0.6539826393127441, 
100, 594173059, -0.872350811958313, 0.6791555881500244, 41.1402587890625, -0.2729225754737854, -0.0745573341846466, 9.492232322692871, -1.4733434915542603, -1.2716313600540161, 0.5564948916435242, 
101, 594181392, -0.8731160759925842, 0.6744706034660339, 41.13872146606445, -0.08525779098272324, -0.3819614350795746, 9.648948669433594, -1.0715843439102173, -1.4133551120758057, 0.06644332408905029, 
102, 594189725, -0.8677413463592529, 0.6727963089942932, 41.13750076293945, 0.6780537366867065, 0.03542803227901459, 9.73958969116211, -0.33322837948799133, -1.0526809692382812, 0.09771830588579178, 
103, 594198058, -0.8659432530403137, 0.6806869506835938, 41.135581970214844, 0.12954509258270264, -0.10863020271062851, 9.885077476501465, -0.7641110420227051, 0.09835866838693619, 0.04449192434549332, 
104, 594206391, -0.8667550683021545, 0.6835850477218628, 41.136573791503906, -0.9177526831626892, -0.11155574023723602, 9.785382270812988, -1.0811383724212646, -0.5100178122520447, 0.4775005578994751, 
105, 594214724, -0.8707488179206848, 0.680098295211792, 41.139896392822266, -0.41545426845550537, -0.11657751351594925, 9.350603103637695, -1.465889811515808, -1.2765493392944336, 0.653162956237793, 
106, 594223057, -0.8738709092140198, 0.6752306818962097, 41.14020538330078, -0.20680902898311615, -0.3228662610054016, 9.57523250579834, -1.3560560941696167, -1.438047170639038, 0.2305281162261963, 
107, 594231390, -0.8689557909965515, 0.6704152226448059, 41.139930725097656, 0.5339382886886597, -0.04999837279319763, 9.73901081085205, -0.39183372259140015, -1.429543375968933, 0.21687571704387665, 
108, 594239723, -0.8668862581253052, 0.6769338250160217, 41.134788513183594, 0.5738081932067871, 0.018125304952263832, 9.794788360595703, -0.7254591584205627, -0.0619480237364769, -0.34227022528648376, 
109, 594248056, -0.8664310574531555, 0.6846755743026733, 41.13470458984375, -0.7919268012046814, -0.2497701644897461, 9.927675247192383, -0.9282471537590027, 0.07522901147603989, 0.26357048749923706, 
110, 594256389, -0.868543803691864, 0.6810628771781921, 41.13866424560547, -0.6511693000793457, -0.16668209433555603, 9.409231185913086, -1.2403308153152466, -1.2964516878128052, 0.8459357023239136, 
111, 594264722, -0.8732614517211914, 0.6774214506149292, 41.13984680175781, -0.12693287432193756, -0.13113188743591309, 9.53899097442627, -1.550519347190857, -1.290867805480957, 0.39509958028793335, 
112, 594273055, -0.8718268275260925, 0.6723546981811523, 41.13983917236328, 0.2598365247249603, -0.2992340326309204, 9.764750480651855, -0.8091152310371399, -1.4629441499710083, 0.22422699630260468, 
113, 594281388, -0.8675572872161865, 0.6745114922523499, 41.13626480102539, 0.7511342167854309, 0.0619005411863327, 9.701058387756348, -0.4646293818950653, -0.5873472094535828, -0.16384144127368927, 
114, 594289721, -0.8662417531013489, 0.6839743852615356, 41.13353729248047, -0.4816652834415436, -0.1951867789030075, 9.873562812805176, -0.819693922996521, 0.2857011556625366, 0.026100903749465942, 
115, 594298054, -0.8667243123054504, 0.6826862096786499, 41.136287689208984, -0.9528659582138062, -0.1668543666601181, 9.616225242614746, -1.0451761484146118, -1.0121080875396729, 0.5879491567611694, 
116, 594306387, -0.8722001910209656, 0.6775372624397278, 41.137664794921875, -0.24923671782016754, -0.010417506098747253, 9.459840774536133, -1.6408864259719849, -1.4762123823165894, 0.5493229627609253, 
117, 594314720, -0.8738561272621155, 0.6706844568252563, 41.13688278198242, 0.04644352197647095, -0.35728588700294495, 9.669694900512695, -1.1807008981704712, -1.6730833053588867, 0.1563492864370346, 
118, 594323053, -0.8690507411956787, 0.6688028573989868, 41.13437271118164, 0.8209961652755737, 0.04022758826613426, 9.7829008102417, -0.40220755338668823, -1.076988935470581, 0.04618246853351593, 
119, 594331386, -0.866955578327179, 0.6784107685089111, 41.13297653198242, 0.05059205740690231, -0.16473712027072906, 9.874578475952148, -0.7281230688095093, 0.302632212638855, 0.11116576939821243, 
120, 594339719, -0.8668116927146912, 0.6823351383209229, 41.13256072998047, -0.9913911819458008, -0.1695009171962738, 9.682531356811523, -0.9655157923698425, -0.38504597544670105, 0.3939725160598755, 
121, 594348052, -0.8698917031288147, 0.6777000427246094, 41.13385772705078, -0.4064096212387085, -0.13564451038837433, 9.422087669372559, -1.3538274765014648, -1.4111266136169434, 0.40870070457458496, 
122, 594356385, -0.872991681098938, 0.6725735664367676, 41.134559631347656, -0.09404750913381577, -0.2856210172176361, 9.650599479675293, -1.3550827503204346, -1.4720629453659058, 0.3808068633079529, 
123, 594364718, -0.868348240852356, 0.6684837341308594, 41.13444900512695, 0.5334160923957825, -0.003669408382847905, 9.742937088012695, -0.42421019077301025, -1.3425829410552979, 0.24067138135433197, 
124, 594373051, -0.868274450302124, 0.6749363541603088, 41.12887954711914, 0.4143425226211548, -0.01211693324148655, 9.68789005279541, -0.9660024046897888, -0.07104107737541199, -0.3004421889781952, 
125, 594381384, -0.8681082129478455, 0.6801467537879944, 41.12974166870117, -0.7994661331176758, -0.25492018461227417, 9.879127502441406, -0.9638764262199402, -0.23007985949516296, 0.3734811544418335, 
126, 594389717, -0.869817852973938, 0.6759064197540283, 41.136043548583984, -0.5343871712684631, -0.16867972910404205, 9.5115966796875, -1.193892478942871, -1.3712453842163086, 0.9026969075202942, 
127, 594398050, -0.8743168115615845, 0.6724676489830017, 41.13664627075195, -0.12445325404405594, -0.109041228890419, 9.471035957336426, -1.5239317417144775, -1.2663037776947021, 0.3275548219680786, 
128, 594406383, -0.8727422952651978, 0.6676468849182129, 41.135475158691406, 0.286070853471756, -0.29387450218200684, 9.648699760437012, -0.7895203828811646, -1.4306190013885498, 0.126816064119339, 
129, 594414716, -0.8676648139953613, 0.6712782979011536, 41.132591247558594, 0.7085892558097839, 0.02733101323246956, 9.77101993560791, -0.36988234519958496, -0.41227391362190247, -0.07834113389253616, 
130, 594423049, -0.8654779195785522, 0.6807848215103149, 41.13090515136719, -0.5297467112541199, -0.15897908806800842, 9.951679229736328, -0.7164942026138306, 0.29064473509788513, 0.11964410543441772, 
131, 594431382, -0.8675494194030762, 0.680009126663208, 41.13357162475586, -0.8666238784790039, -0.11978130042552948, 9.53228759765625, -1.235617756843567, -0.9513510465621948, 0.5807770490646362, 
132, 594439715, -0.8719462156295776, 0.6765276193618774, 41.13551330566406, -0.23250418901443481, -0.0723905861377716, 9.38172435760498, -1.510535478591919, -1.2749102115631104, 0.46220889687538147, 
133, 594448048, -0.8716060519218445, 0.6710436940193176, 41.13667678833008, 0.12731145322322845, -0.3783946633338928, 9.695919036865234, -0.9437692761421204, -1.5121746063232422, 0.39082199335098267, 
134, 594456381, -0.8678176403045654, 0.6708682775497437, 41.13320541381836, 0.8060896396636963, 0.1221848651766777, 9.80603313446045, -0.523337185382843, -0.8716651797294617, -0.009054630994796753, 
135, 594464714, -0.8665227890014648, 0.6810485124588013, 41.12844467163086, -0.1077575758099556, -0.23225995898246765, 9.850444793701172, -0.8196170330047607, 0.37783557176589966, -0.2917589247226715, 
136, 594473047, -0.8668653964996338, 0.684019148349762, 41.130882263183594, -1.0242656469345093, -0.2340410202741623, 9.668984413146973, -1.0262727737426758, -0.5016675591468811, 0.5398712754249573, 
137, 594481380, -0.8690873384475708, 0.679492712020874, 41.13479232788086, -0.3289129137992859, -0.05382563918828964, 9.404740333557129, -1.254905343055725, -1.4032119512557983, 0.7212712168693542, 
138, 594489713, -0.8722611665725708, 0.674838662147522, 41.133155822753906, -0.042473286390304565, -0.2725073993206024, 9.640375137329102, -1.3582332134246826, -1.4093592166900635, 0.02750968746840954, 
139, 594498046, -0.8685900568962097, 0.6720519065856934, 41.132083892822266, 0.5670273303985596, -0.0034548621624708176, 9.749059677124023, -0.541600227355957, -1.1845687627792358, 0.1276869773864746, 
140, 594506379, -0.8668861985206604, 0.6797358393669128, 41.12962341308594, 0.3477211594581604, -0.06498357653617859, 9.745884895324707, -0.7716159820556641, 0.0737689957022667, -0.05346972122788429, 
141, 594514712, -0.866953432559967, 0.6850886344909668, 41.131107330322266, -0.9402769804000854, -0.12950222194194794, 9.882153511047363, -0.9938962459564209, -0.2127390205860138, 0.44865891337394714, 
142, 594523045, -0.8697159886360168, 0.6810368895530701, 41.134281158447266, -0.5784642696380615, -0.1550230234861374, 9.473491668701172, -1.3170967102050781, -1.3473471403121948, 0.6593359708786011, 
143, 594531378, -0.8746451735496521, 0.6762373447418213, 41.13557815551758, -0.13746163249015808, -0.1974862664937973, 9.527276039123535, -1.5762871503829956, -1.4307470321655273, 0.407932311296463, 
144, 594539711, -0.870585560798645, 0.6698196530342102, 41.1352653503418, 0.3183739483356476, -0.2365826815366745, 9.738701820373535, -0.4934965968132019, -1.6251847743988037, 0.3052448332309723, 
145, 594548044, -0.8676019906997681, 0.6730217933654785, 41.131370544433594, 0.6374542117118835, 0.05272360518574715, 9.749024391174316, -0.619877278804779, -0.46104341745376587, -0.19859997928142548, 
146, 594556377, -0.8666402697563171, 0.6814102530479431, 41.12944793701172, -0.57161945104599, -0.21762524545192719, 9.935091018676758, -0.8630076050758362, 0.1566566675901413, 0.042826998978853226, 
147, 594564710, -0.8680066466331482, 0.6787493228912354, 41.13283920288086, -0.7770837545394897, -0.189338818192482, 9.511662483215332, -1.1515775918960571, -1.1784212589263916, 0.6648430228233337, 
148, 594573043, -0.8716284036636353, 0.6750191450119019, 41.13365936279297, -0.16212180256843567, -0.04487406462430954, 9.47248363494873, -1.4169666767120361, -1.3043922185897827, 0.4269637167453766, 
149, 594581376, -0.8723474740982056, 0.6699870824813843, 41.133968353271484, 0.10632365942001343, -0.3419457674026489, 9.680773735046387, -1.069791316986084, -1.4574626684188843, 0.2876991033554077, 
150, 594589709, -0.8692774772644043, 0.6702817678451538, 41.12949752807617, 0.7204128503799438, 0.06787320226430893, 9.715228080749512, -0.6077104806900024, -0.8116253614425659, -0.1863563507795334, 
151, 594598042, -0.8681365251541138, 0.67898029088974, 41.12696075439453, -0.18060216307640076, -0.2067243456840515, 9.918941497802734, -0.8416966795921326, 0.19500117003917694, -0.027496883645653725, 
152, 594606375, -0.8693468570709229, 0.6802107095718384, 41.130027770996094, -0.9866774678230286, -0.19671033322811127, 9.725241661071777, -1.1318289041519165, -0.7117811441421509, 0.6893559098243713, 
153, 594614708, -0.8729344010353088, 0.6749709248542786, 41.132484436035156, -0.28079086542129517, 0.0032846920657902956, 9.389432907104492, -1.416146993637085, -1.4866886138916016, 0.547145664691925, 
154, 594623041, -0.8757351636886597, 0.669281005859375, 41.13086700439453, 0.011630510911345482, -0.3712274134159088, 9.607927322387695, -1.3156110048294067, -1.5356372594833374, 0.14154425263404846, 
155, 594631374, -0.871246337890625, 0.6661980152130127, 41.12962341308594, 0.7255200147628784, 0.009899534285068512, 9.798028945922852, -0.4424602687358856, -1.2204413414001465, 0.10774627327919006, 
156, 594639707, -0.8689024448394775, 0.6748795509338379, 41.12797546386719, 0.2825873792171478, -0.1383359581232071, 9.849549293518066, -0.6970785856246948, 0.19331061840057373, 0.0003073708212468773, 
157, 594648040, -0.8692299127578735, 0.6812397837638855, 41.128440856933594, -1.022684931755066, -0.18887081742286682, 9.764081001281738, -1.0232758522033691, -0.09035421907901764, 0.33126890659332275, 
158, 594656373, -0.8707021474838257, 0.6769589781761169, 41.131591796875, -0.5176218152046204, -0.16039125621318817, 9.37708854675293, -1.160081386566162, -1.3729100227355957, 0.5231706500053406, 
159, 594664706, -0.8739103078842163, 0.6730085611343384, 41.13209533691406, -0.07530467212200165, -0.20336157083511353, 9.625554084777832, -1.3684277534484863, -1.3267021179199219, 0.31495267152786255, 
160, 594673039, -0.8697407245635986, 0.6693852543830872, 41.13257598876953, 0.45113682746887207, -0.02173762023448944, 9.789944648742676, -0.4821239113807678, -1.2900992631912231, 0.3172835409641266, 
161, 594681372, -0.8679693341255188, 0.6749690175056458, 41.1279296875, 0.5526715517044067, 0.07577721774578094, 9.678668975830078, -0.7631633281707764, -0.17442013323307037, -0.28661048412323, 
162, 594689705, -0.8688411116600037, 0.6814344525337219, 41.127437591552734, -0.7722137570381165, -0.24160157144069672, 9.872976303100586, -1.084954857826233, -0.07552357017993927, 0.19471940398216248, 
163, 594698038, -0.8697264194488525, 0.6780323386192322, 41.13298797607422, -0.7428190112113953, -0.25674769282341003, 9.524456977844238, -1.0970193147659302, -1.2720670700073242, 0.920447587966919, 
164, 594706371, -0.8744633197784424, 0.675018846988678, 41.135231018066406, -0.10274422913789749, -0.0940404161810875, 9.556232452392578, -1.5532855987548828, -1.2180975675582886, 0.4824441075325012, 
165, 594714704, -0.8731695413589478, 0.6699667572975159, 41.134368896484375, 0.19456234574317932, -0.4227369725704193, 9.686468124389648, -0.8257132768630981, -1.4579237699508667, 0.14861378073692322, 
166, 594723037, -0.8681491613388062, 0.6708393692970276, 41.131187438964844, 0.7304626107215881, -0.0045492080971598625, 9.715163230895996, -0.37446731328964233, -0.7453101873397827, -0.08387381583452225, 
167, 594731370, -0.8644044399261475, 0.6792717576026917, 41.12961959838867, -0.34420910477638245, -0.1546158492565155, 9.91767406463623, -0.531072735786438, 0.16290652751922607, 0.08660172671079636, 
168, 594739703, -0.8650527000427246, 0.6787101626396179, 41.13074493408203, -0.9167941808700562, -0.11146274954080582, 9.626246452331543, -1.0604420900344849, -0.9243792295455933, 0.42217379808425903, 
169, 594748036, -0.8698214292526245, 0.6752423048019409, 41.13231658935547, -0.27448511123657227, 0.022928373888134956, 9.407377243041992, -1.5574606657028198, -1.2700690031051636, 0.4445350170135498, 
170, 594756369, -0.8703981041908264, 0.6693154573440552, 41.13433837890625, 0.028452198952436447, -0.3778710663318634, 9.644765853881836, -1.053193211555481, -1.5678343772888184, 0.40672844648361206, 
171, 594764702, -0.8672314882278442, 0.667056143283844, 41.13430404663086, 0.7144259810447693, 0.06206521764397621, 9.773944854736328, -0.6019729375839233, -1.1239653825759888, 0.25194159150123596, 
172, 594773035, -0.8666489124298096, 0.675492525100708, 41.13056182861328, 0.09017588943243027, -0.21266117691993713, 9.850316047668457, -0.9066543579101562, 0.16421286761760712, -0.12542010843753815, 
173, 594781368, -0.8656606078147888, 0.6790595054626465, 41.1323356628418, -0.9504125714302063, -0.27507689595222473, 9.759574890136719, -0.8664142489433289, -0.427053302526474, 0.4793703854084015, 
174, 594789701, -0.8654947876930237, 0.67466139793396, 41.134918212890625, -0.3603176176548004, -0.12335970997810364, 9.434112548828125, -0.9657205939292908, -1.3876383304595947, 0.5863097906112671, 
175, 594798034, -0.8677518963813782, 0.67071533203125, 41.134342193603516, -0.02842654101550579, -0.21674849092960358, 9.625102043151855, -1.2527539730072021, -1.325959324836731, 0.18465302884578705, 
176, 594806367, -0.863043487071991, 0.6672437191009521, 41.13333511352539, 0.5290457010269165, 0.014355755411088467, 9.781340599060059, -0.4133497178554535, -1.2673026323318481, 0.061704691499471664, 
177, 594814700, -0.8608694076538086, 0.6736758947372437, 41.12989044189453, 0.45202377438545227, -0.03723772242665291, 9.732481002807617, -0.7178773283958435, -0.07490883022546768, -0.1408654749393463, 
178, 594823033, -0.861606240272522, 0.6810736060142517, 41.13164520263672, -0.8821746706962585, -0.18336309492588043, 9.910441398620605, -1.070918321609497, 0.033221662044525146, 0.35752347111701965, 
179, 594831366, -0.8632276058197021, 0.6764799356460571, 41.135833740234375, -0.6616767644882202, -0.22684769332408905, 9.502321243286133, -1.1820073127746582, -1.4109216928482056, 0.7553894519805908, 
180, 594839699, -0.8680910468101501, 0.6728953123092651, 41.135894775390625, -0.12233725190162659, -0.11295828968286514, 9.537613868713379, -1.566400170326233, -1.2860010862350464, 0.3108287453651428, 
181, 594848032, -0.865146279335022, 0.6680367588996887, 41.13538360595703, 0.32401663064956665, -0.2971290946006775, 9.747922897338867, -0.6275871992111206, -1.4350759983062744, 0.18987832963466644, 
182, 594856365, -0.8618960380554199, 0.6723593473434448, 41.13267135620117, 0.7778931856155396, 0.09013301134109497, 9.788228988647461, -0.5885511040687561, -0.3311792314052582, -0.01945401169359684, 
183, 594864698, -0.8610989451408386, 0.6825187802314758, 41.131202697753906, -0.49116426706314087, -0.13382254540920258, 9.944153785705566, -0.8841649293899536, 0.3702537715435028, 0.1037120446562767, 
184, 594873031, -0.862816333770752, 0.6805845499038696, 41.133392333984375, -0.9097893834114075, -0.16469746828079224, 9.492231369018555, -1.1905113458633423, -1.0893607139587402, 0.4816244840621948, 
185, 594881364, -0.8673970103263855, 0.6759610176086426, 41.13585662841797, -0.2504432797431946, -0.05041338503360748, 9.445825576782227, -1.5360215902328491, -1.4115877151489258, 0.547504186630249, 
186, 594889697, -0.8683088421821594, 0.6700071096420288, 41.13621139526367, 0.062365639954805374, -0.4086121618747711, 9.71578311920166, -1.0903339385986328, -1.569550633430481, 0.23990292847156525, 
187, 594898030, -0.8652318120002747, 0.6700079441070557, 41.134124755859375, 0.7040615081787109, 0.09515427052974701, 9.752622604370117, -0.6105921268463135, -0.8484715223312378, 0.009080246090888977, 
188, 594906363, -0.8637277483940125, 0.6785919070243835, 41.13072967529297, -0.012631921097636223, -0.2313801646232605, 9.813678741455078, -0.7967947721481323, 0.18388459086418152, -0.15390312671661377, 
189, 594914696, -0.8632256984710693, 0.680596113204956, 41.13313293457031, -0.9488457441329956, -0.18733985722064972, 9.75466251373291, -0.9256856441497803, -0.6168291568756104, 0.5530112981796265, 
190, 594923029, -0.8651728630065918, 0.6760826706886292, 41.13750076293945, -0.32558315992355347, -0.022693995386362076, 9.455303192138672, -1.220018744468689, -1.401854157447815, 0.6608471870422363, 
191, 594931362, -0.8677075505256653, 0.67118239402771, 41.13578414916992, -0.035580314695835114, -0.3009506165981293, 9.569028854370117, -1.2844897508621216, -1.4381752014160156, 0.04746317118406296, 
192, 594939695, -0.8638703227043152, 0.6685494780540466, 41.1351203918457, 0.546770453453064, -0.04914003238081932, 9.734411239624023, -0.5187779068946838, -1.1671509742736816, 0.10814329236745834, 
193, 594948028, -0.8603588938713074, 0.675241231918335, 41.131568908691406, 0.3772766888141632, -0.09535454958677292, 9.827498435974121, -0.5556111335754395, -0.04278858006000519, -0.15251997113227844, 
194, 594956361, -0.8607519268989563, 0.681380569934845, 41.131019592285156, -0.8966589570045471, -0.15101797878742218, 9.86995792388916, -1.0289366245269775, -0.11786389350891113, 0.2410043179988861, 
195, 594964694, -0.8633769750595093, 0.6766181588172913, 41.13420867919922, -0.5730558633804321, -0.19033122062683105, 9.450508117675781, -1.3021634817123413, -1.4295432567596436, 0.6351304650306702, 
196, 594973027, -0.8681212067604065, 0.6727502346038818, 41.13547134399414, -0.11498592048883438, -0.17138594388961792, 9.486518859863281, -1.5514414310455322, -1.3186591863632202, 0.30258095264434814, 
197, 594981360, -0.8652024269104004, 0.6676707863807678, 41.13459777832031, 0.35825735330581665, -0.17316311597824097, 9.759747505187988, -0.630558431148529, -1.4611256122589111, 0.14497657120227814, 
198, 594989693, -0.8632618188858032, 0.6725996732711792, 41.1320686340332, 0.6853640675544739, 0.02257443591952324, 9.758343696594238, -0.7437732815742493, -0.25474637746810913, -0.13786861300468445, 
199, 594998026, -0.8621668815612793, 0.6814739108085632, 41.13054656982422, -0.6108742356300354, -0.24092921614646912, 9.907588958740234, -0.8496626019477844, 0.21457043290138245, 0.09200633317232132, 
200, 595006359, -0.8629125952720642, 0.6794976592063904, 41.13359451293945, -0.8537418842315674, -0.23738139867782593, 9.511435508728027, -1.074120044708252, -1.095917820930481, 0.615766167640686, 
201, 595014692, -0.866102933883667, 0.6760556697845459, 41.135066986083984, -0.17682480812072754, -0.017657240852713585, 9.491302490234375, -1.3675183057785034, -1.269210934638977, 0.4319456219673157, 
202, 595023025, -0.8650122284889221, 0.6709555983543396, 41.135005950927734, 0.09099086374044418, -0.34561944007873535, 9.723878860473633, -0.8509945273399353, -1.4653775691986084, 0.20219875872135162, 
203, 595031358, -0.8602315187454224, 0.6718298196792603, 41.1325798034668, 0.7641382813453674, 0.12272126972675323, 9.734734535217285, -0.40492263436317444, -0.7432354092597961, -0.027420038357377052, 
204, 595039691, -0.8589702248573303, 0.6822106838226318, 41.12930679321289, -0.17817017436027527, -0.17571677267551422, 9.885931015014648, -0.8273525834083557, 0.3969181776046753, -0.006134608760476112, 
205, 595048024, -0.8601438999176025, 0.6842747926712036, 41.13144302368164, -1.0326130390167236, -0.1843073070049286, 9.718267440795898, -1.1262450218200684, -0.6085301637649536, 0.5199945569038391, 
206, 595056357, -0.8642450571060181, 0.6798037886619568, 41.1341667175293, -0.26837581396102905, -0.05287262424826622, 9.42365550994873, -1.477774977684021, -1.3969875574111938, 0.612026572227478, 
207, 595064690, -0.867083728313446, 0.6749705672264099, 41.13313293457031, -0.04534086212515831, -0.3849307894706726, 9.616155624389648, -1.3216561079025269, -1.4303628206253052, 0.12858344614505768, 
208, 595073023, -0.8617039322853088, 0.6716449856758118, 41.1318359375, 0.6523464322090149, 0.0073459697887301445, 9.760547637939453, -0.33525189757347107, -1.2519853115081787, 0.13503822684288025, 
209, 595081356, -0.8603267669677734, 0.6803113222122192, 41.12828826904297, 0.2963351309299469, -0.08644210547208786, 9.815231323242188, -0.8113692998886108, 0.1942071169614792, -0.14872905611991882, 
210, 595089689, -0.8605401515960693, 0.6853135228157043, 41.128990173339844, -0.9451408982276917, -0.15124686062335968, 9.818564414978027, -1.0096490383148193, -0.2550281286239624, 0.4069589376449585, 
211, 595098022, -0.8637697696685791, 0.6806929111480713, 41.132232666015625, -0.4900960922241211, -0.17251726984977722, 9.38162612915039, -1.3741140365600586, -1.4138928651809692, 0.6407144069671631, 
212, 595106355, -0.8686460852622986, 0.6774018406867981, 41.133480072021484, -0.055308278650045395, -0.21158607304096222, 9.595041275024414, -1.568346619606018, -1.2495007514953613, 0.35352766513824463, 
213, 595114688, -0.8650442957878113, 0.6739585995674133, 41.13249588012695, 0.4058666229248047, -0.15887179970741272, 9.783916473388672, -0.5487721562385559, -1.2641521692276, 0.1360372006893158, 
214, 595123021, -0.8619128465652466, 0.6792467832565308, 41.12877655029297, 0.5500607490539551, -0.00950612872838974, 9.69619369506836, -0.6006922125816345, -0.21255971491336823, -0.2272879183292389, 
215, 595131354, -0.86040198802948, 0.6878054738044739, 41.12685012817383, -0.7241037487983704, -0.20449262857437134, 9.88394832611084, -0.7981266379356384, 0.1784031242132187, 0.044082097709178925, 
216, 595139687, -0.8614950776100159, 0.684455394744873, 41.13058090209961, -0.7538062930107117, -0.16794677078723907, 9.537842750549316, -1.1183561086654663, -1.2643572092056274, 0.7604610919952393, 
217, 595148020, -0.8664023280143738, 0.6800671815872192, 41.13261795043945, -0.10716811567544937, 0.005563052371144295, 9.507244110107422, -1.5746479034423828, -1.3826948404312134, 0.49717235565185547, 
218, 595156353, -0.8668555021286011, 0.6751356720924377, 41.13313293457031, 0.26462867856025696, -0.35341644287109375, 9.682245254516602, -1.0357756614685059, -1.446576714515686, 0.2875710427761078, 
219, 595164686, -0.8634925484657288, 0.6776378154754639, 41.1309700012207, 0.7872419357299805, -0.002346102148294449, 9.761277198791504, -0.5768709778785706, -0.5472608804702759, 0.005660745780915022, 
220, 595173019, -0.8614848852157593, 0.6867990493774414, 41.1283073425293, -0.2929876148700714, -0.22256070375442505, 9.924054145812988, -0.737805187702179, 0.24976438283920288, 0.001588082523085177, 
221, 595181352, -0.8620985746383667, 0.6870997548103333, 41.12876510620117, -0.9817348718643188, -0.19203238189220428, 9.580517768859863, -1.0569074153900146, -0.818413257598877, 0.3160540759563446, 
222, 595189685, -0.8650302290916443, 0.6829481720924377, 41.130916595458984, -0.2692699730396271, -0.049533143639564514, 9.44050407409668, -1.334591269493103, -1.3525468111038208, 0.3971230387687683, 
223, 595198018, -0.8659347891807556, 0.6770582795143127, 41.131683349609375, 0.014907828532159328, -0.3442339599132538, 9.67933464050293, -1.0920500755310059, -1.5629165172576904, 0.34243670105934143, 
224, 595206351, -0.8617165088653564, 0.6753180027008057, 41.13143539428711, 0.6893123388290405, 0.13161946833133698, 9.713146209716797, -0.4751569628715515, -1.0606216192245483, 0.17912036180496216, 
225, 595214684, -0.8620919585227966, 0.6843370199203491, 41.1276969909668, 0.17862795293331146, -0.16359981894493103, 9.796927452087402, -1.0219184160232544, 0.2370341420173645, -0.17124396562576294, 
226, 595223017, -0.862779974937439, 0.688286304473877, 41.1298713684082, -0.9315791130065918, -0.29099196195602417, 9.822669982910156, -1.0681519508361816, -0.38473862409591675, 0.5667405724525452, 
227, 595231350, -0.8642684817314148, 0.6834434866905212, 41.13282012939453, -0.38955482840538025, -0.13451702892780304, 9.428092002868652, -1.1655629873275757, -1.439916968345642, 0.6069293022155762, 
228, 595239683, -0.8677924871444702, 0.6799601912498474, 41.132469177246094, -0.09397797286510468, -0.26066407561302185, 9.550834655761719, -1.4027252197265625, -1.269838571548462, 0.14026355743408203, 
229, 595248016, -0.8618864417076111, 0.675721287727356, 41.13113021850586, 0.3623916208744049, -0.09445329010486603, 9.726120948791504, -0.2714212238788605, -1.3583356142044067, 0.09141720086336136, 
230, 595256349, -0.8577494621276855, 0.6811565160751343, 41.12732696533203, 0.5125941634178162, 0.04713723435997963, 9.741778373718262, -0.47974181175231934, -0.19437360763549805, -0.15713052451610565, 
231, 595264682, -0.8580891489982605, 0.6886789202690125, 41.127281188964844, -0.7704112529754639, -0.07546964287757874, 9.920134544372559, -1.0240187644958496, 0.049742843955755234, 0.26828351616859436, 
232, 595273015, -0.862142026424408, 0.6847447752952576, 41.13111114501953, -0.7015743851661682, -0.16868102550506592, 9.51712703704834, -1.4729337692260742, -1.3331313133239746, 0.7659680247306824, 
233, 595281348, -0.8681942224502563, 0.6805257797241211, 41.133026123046875, -0.1319311261177063, -0.13226434588432312, 9.463550567626953, -1.7124269008636475, -1.3629974126815796, 0.4817012846469879, 
234, 595289681, -0.8674880862236023, 0.6758761405944824, 41.13242721557617, 0.24327780306339264, -0.3296184241771698, 9.728554725646973, -0.8953583240509033, -1.4111778736114502, 0.19938120245933533, 
235, 595298014, -0.8621812462806702, 0.6785754561424255, 41.12915802001953, 0.7596247792243958, -0.026301003992557526, 9.802778244018555, -0.3419116139411926, -0.5225688219070435, -0.1262141317129135, 
236, 595306347, -0.8602620959281921, 0.6894515752792358, 41.126651763916016, -0.37184756994247437, -0.2239912897348404, 9.95852279663086, -0.7469751238822937, 0.45608705282211304, -0.10211114585399628, 
237, 595314680, -0.8599376082420349, 0.6899153590202332, 41.12791442871094, -0.9400767087936401, -0.12797151505947113, 9.566054344177246, -0.9453318119049072, -0.7990488409996033, 0.41290146112442017, 
238, 595323013, -0.8634226322174072, 0.68553227186203, 41.12949752807617, -0.23979078233242035, 0.026253042742609978, 9.42120361328125, -1.402699589729309, -1.3838731050491333, 0.5177404880523682, 
239, 595331346, -0.8662324547767639, 0.6799745559692383, 41.129493713378906, 0.07390396296977997, -0.314434677362442, 9.744365692138672, -1.31991446018219, -1.5193979740142822, 0.25101950764656067, 
240, 595339679, -0.8645503520965576, 0.6804357767105103, 41.12703323364258, 0.7013720273971558, 0.0788600966334343, 9.70856761932373, -0.776559591293335, -0.7950531244277954, 0.07031108438968658, 
241, 595348012, -0.8634428977966309, 0.6892725825309753, 41.12399673461914, 0.04430470988154411, -0.16244105994701385, 9.804902076721191, -0.8459485173225403, 0.21280305087566376, -0.08802331984043121, 
242, 595356345, -0.8628700971603394, 0.6922866702079773, 41.12700653076172, -1.0028353929519653, -0.24970552325248718, 9.796957015991211, -0.9179757237434387, -0.49762052297592163, 0.6619998812675476, 
243, 595364678, -0.86427903175354, 0.6889266967773438, 41.130088806152344, -0.39058780670166016, -0.09796932339668274, 9.456527709960938, -1.1562906503677368, -1.2625641822814941, 0.6229126453399658, 
244, 595373011, -0.867473840713501, 0.6848621964454651, 41.12833786010742, -0.10409827530384064, -0.29007354378700256, 9.594501495361328, -1.3632793426513672, -1.338510274887085, 0.09946007281541824, 
245, 595381344, -0.8642492294311523, 0.6802244186401367, 41.127586364746094, 0.5405904054641724, -0.10525408387184143, 9.740069389343262, -0.5935714840888977, -1.408360242843628, 0.16172827780246735, 
246, 595389677, -0.8627085089683533, 0.6863686442375183, 41.124732971191406, 0.5162421464920044, -0.0554702952504158, 9.849529266357422, -0.7939260601997375, -0.11253614723682404, -0.019658925011754036, 
247, 595398010, -0.86248379945755, 0.6935215592384338, 41.12537384033203, -0.8103882670402527, -0.18219009041786194, 9.86653995513916, -0.9561154246330261, 0.005532674957066774, 0.35135048627853394, 
248, 595406343, -0.8652179837226868, 0.6904172897338867, 41.12746047973633, -0.6494287252426147, -0.18509627878665924, 9.410621643066406, -1.3141765594482422, -1.2318781614303589, 0.6546486020088196, 
249, 595414676, -0.867999255657196, 0.6866949796676636, 41.12795639038086, -0.2257520705461502, -0.17211958765983582, 9.495980262756348, -1.3175065517425537, -1.3010365962982178, 0.31349262595176697, 
250, 595423009, -0.864654004573822, 0.6814117431640625, 41.127037048339844, 0.18666058778762817, -0.23290371894836426, 9.736865043640137, -0.5809180736541748, -1.4889171123504639, 0.28208959102630615, 
251, 595431342, -0.8608328104019165, 0.6846250295639038, 41.12239074707031, 0.6579042077064514, 0.1267412304878235, 9.71474838256836, -0.517010509967804, -0.45914795994758606, -0.2895817160606384, 
252, 595439675, -0.8616426587104797, 0.6925408244132996, 41.12019729614258, -0.4357726573944092, -0.23669472336769104, 9.899162292480469, -1.0745811462402344, 0.10261061787605286, -0.01871119812130928, 
253, 595448008, -0.8626669645309448, 0.6902093291282654, 41.1251106262207, -0.828796923160553, -0.2272789627313614, 9.606549263000488, -1.1135404109954834, -1.1422284841537476, 0.8463199138641357, 
254, 595456341, -0.8663071393966675, 0.6868647336959839, 41.12834167480469, -0.16605263948440552, -0.050677698105573654, 9.404230117797852, -1.420475721359253, -1.2583632469177246, 0.491204172372818, 
255, 595464674, -0.8670738339424133, 0.6822519898414612, 41.12686538696289, 0.025943376123905182, -0.4348025619983673, 9.626107215881348, -1.0729418992996216, -1.4031351804733276, 0.07425566762685776, 
256, 595473007, -0.8605978488922119, 0.6821626424789429, 41.12502670288086, 0.7172584533691406, 0.011351562105119228, 9.783007621765137, -0.2025958001613617, -0.8629307746887207, 0.05612078309059143, 
257, 595481340, -0.8575352430343628, 0.6919786334037781, 41.1223030090332, -0.011201396584510803, -0.1095314621925354, 9.900186538696289, -0.6110659837722778, 0.3299369513988495, -0.049397047609090805, 
258, 595489673, -0.8579737544059753, 0.6951621770858765, 41.12334060668945, -1.0591572523117065, -0.11606918275356293, 9.713689804077148, -1.035724401473999, -0.4729539453983307, 0.4174607992172241, 
259, 595498006, -0.8625451922416687, 0.689811110496521, 41.126461029052734, -0.36366790533065796, -0.09824693202972412, 9.37846851348877, -1.5352531671524048, -1.5008533000946045, 0.6252947449684143, 
260, 595506339, -0.8663195967674255, 0.683846652507782, 41.12835693359375, -0.050361089408397675, -0.3083212971687317, 9.628746032714844, -1.436638355255127, -1.5714716911315918, 0.39727675914764404, 
261, 595514672, -0.863556981086731, 0.6804783940315247, 41.1275749206543, 0.6520960927009583, -0.04112884774804115, 9.794681549072266, -0.6510242223739624, -1.2559813261032104, 0.15983285009860992, 
262, 595523005, -0.862886905670166, 0.687786877155304, 41.123775482177734, 0.42598041892051697, -0.14970184862613678, 9.770854949951172, -0.8947436809539795, 0.03209463879466057, -0.29109302163124084, 
263, 595531338, -0.8607006669044495, 0.6942253708839417, 41.12407684326172, -0.917709469795227, -0.26800987124443054, 9.839359283447266, -0.7208742499351501, -0.08080010116100311, 0.30834415555000305, 
264, 595539671, -0.8616458177566528, 0.6898266077041626, 41.12751007080078, -0.5945693254470825, -0.10422476381063461, 9.466689109802246, -1.099708914756775, -1.3883044719696045, 0.7116403579711914, 
265, 595548004, -0.8653684854507446, 0.6864369511604309, 41.12784957885742, -0.09705245494842529, -0.09389279037714005, 9.58292007446289, -1.4296457767486572, -1.260130763053894, 0.2949223220348358, 
266, 595556337, -0.8633779287338257, 0.6804392337799072, 41.12764358520508, 0.3224395215511322, -0.15134821832180023, 9.76651668548584, -0.742851197719574, -1.57285475730896, 0.2455892711877823, 
267, 595564670, -0.8611670732498169, 0.6852432489395142, 41.124786376953125, 0.6986109614372253, 0.07864546775817871, 9.698397636413574, -0.7126263976097107, -0.2713700234889984, -0.07406355440616608, 
268, 595573003, -0.8617439270019531, 0.6943423748016357, 41.1245002746582, -0.5774132609367371, -0.2156868278980255, 9.905750274658203, -1.0510417222976685, 0.23898079991340637, 0.23406288027763367, 
269, 595581336, -0.8631705045700073, 0.6923820376396179, 41.12775421142578, -0.8145465850830078, -0.26167258620262146, 9.580970764160156, -1.1587750911712646, -1.0931003093719482, 0.6468106508255005, 
270, 595589669, -0.8675824403762817, 0.6884304881095886, 41.13005828857422, -0.20155654847621918, -0.08565407991409302, 9.463424682617188, -1.5121492147445679, -1.331722617149353, 0.4335465729236603, 
271, 595598002, -0.8676166534423828, 0.6840593814849854, 41.13010787963867, 0.06409846991300583, -0.42358508706092834, 9.692224502563477, -0.9873390793800354, -1.376291275024414, 0.25729498267173767, 
272, 595606335, -0.8627059459686279, 0.6834632754325867, 41.126564025878906, 0.7624930739402771, 0.09474655985832214, 9.748431205749512, -0.3878122866153717, -0.9212287068367004, -0.09078965336084366, 
273, 595614668, -0.8616214990615845, 0.6918674111366272, 41.12361145019531, -0.05372500419616699, -0.13782812654972076, 9.905557632446289, -0.8481257557868958, 0.16014018654823303, -0.07974991947412491, 
274, 595623001, -0.8622310161590576, 0.6935741901397705, 41.126609802246094, -0.9748464822769165, -0.14458739757537842, 9.71861743927002, -1.0586235523223877, -0.6527402997016907, 0.5766276121139526, 
275, 595631334, -0.8667910099029541, 0.6898832321166992, 41.130043029785156, -0.3019121289253235, -0.07467905431985855, 9.396350860595703, -1.535201907157898, -1.3008828163146973, 0.6647917628288269, 
276, 595639667, -0.8691749572753906, 0.6840255856513977, 41.1302490234375, -0.062751904129982, -0.35214096307754517, 9.637290954589844, -1.2668673992156982, -1.5564361810684204, 0.246357724070549, 
277, 595648000, -0.864908754825592, 0.6796138882637024, 41.13010025024414, 0.6117826700210571, -0.02261013723909855, 9.76626968383789, -0.47023889422416687, -1.3829509019851685, 0.23542043566703796, 
278, 595656333, -0.8625797033309937, 0.6879875659942627, 41.1249885559082, 0.34731343388557434, -0.074225053191185, 9.808900833129883, -0.6962077021598816, 0.16139529645442963, -0.3085106313228607, 
279, 595664666, -0.8621804714202881, 0.6938397884368896, 41.12569808959961, -0.9389608502388, -0.1888207495212555, 9.851667404174805, -0.9353165030479431, -0.1529810130596161, 0.35729295015335083, 
280, 595672999, -0.8640332221984863, 0.6892414093017578, 41.13078308105469, -0.5519101619720459, -0.12802405655384064, 9.467528343200684, -1.211181879043579, -1.4141745567321777, 0.8655049800872803, 
281, 595681332, -0.8696507215499878, 0.6845526695251465, 41.13141632080078, -0.08795420825481415, -0.14489494264125824, 9.538142204284668, -1.6584064960479736, -1.4167362451553345, 0.3272218406200409, 
282, 595689665, -0.8683139681816101, 0.6796931028366089, 41.12921905517578, 0.4434118866920471, -0.2523379921913147, 9.745613098144531, -0.818233847618103, -1.4327961206436157, -0.009618143551051617, 
283, 595697998, -0.8642727732658386, 0.6857073307037354, 41.12641525268555, 0.6873095035552979, -0.054096952080726624, 9.785425186157227, -0.4925489127635956, -0.12608608603477478, -0.06640490144491196, 
284, 595706331, -0.8628888130187988, 0.6951459646224976, 41.12563705444336, -0.639771580696106, -0.24046438932418823, 9.900014877319336, -0.8144685626029968, 0.2813723683357239, 0.176225945353508, 
285, 595714664, -0.8645064830780029, 0.6931986212730408, 41.12803268432617, -0.8398551344871521, -0.16306523978710175, 9.503805160522461, -1.18121337890625, -1.090897560119629, 0.5431755185127258, 
286, 595722997, -0.8681734800338745, 0.6880224943161011, 41.12984085083008, -0.19152867794036865, -0.054825857281684875, 9.466548919677734, -1.4234468936920166, -1.478184700012207, 0.4202783405780792, 
287, 595731330, -0.868006706237793, 0.6819259524345398, 41.131290435791016, 0.13500985503196716, -0.28860390186309814, 9.735808372497559, -0.9647729992866516, -1.587327003479004, 0.42399245500564575, 
288, 595739663, -0.865189254283905, 0.6834766864776611, 41.128326416015625, 0.7239392399787903, 0.1562824696302414, 9.679821014404297, -0.6388830542564392, -0.6621151566505432, -0.10633749514818192, 
289, 595747996, -0.8652316331863403, 0.6923717856407166, 41.125152587890625, -0.16370712220668793, -0.23002111911773682, 9.819236755371094, -0.9826003909111023, 0.2207946926355362, -0.10472379624843597, 
290, 595756329, -0.866693913936615, 0.6934872269630432, 41.12913131713867, -0.8966091275215149, -0.22998550534248352, 9.736169815063477, -1.16154146194458, -0.7240248322486877, 0.6211195588111877, 
291, 595764662, -0.8701521158218384, 0.6892464756965637, 41.132301330566406, -0.276919960975647, -0.09248064458370209, 9.467613220214844, -1.4025201797485352, -1.3677103519439697, 0.6315701007843018, 
292, 595772995, -0.8722704648971558, 0.6855818629264832, 41.13124465942383, -0.12205364555120468, -0.4034644067287445, 9.636775016784668, -1.234900712966919, -1.2919435501098633, 0.1249462366104126, 
293, 595781328, -0.8658303022384644, 0.6823598742485046, 41.12912368774414, 0.5480079054832458, -0.027667196467518806, 9.691329956054688, -0.20613056421279907, -1.2356946468353271, -0.0010886050295084715, 
294, 595789661, -0.862380862236023, 0.6892901062965393, 41.12483596801758, 0.36279934644699097, -0.06248008459806442, 9.834851264953613, -0.5623477101325989, -0.015893632546067238, -0.13231033086776733, 
295, 595797994, -0.8618701696395874, 0.6942915916442871, 41.126068115234375, -0.8937048316001892, -0.12776407599449158, 9.924290657043457, -0.9234572649002075, -0.2550537586212158, 0.4174608588218689, 
296, 595806327, -0.8660624623298645, 0.6906604766845703, 41.12931823730469, -0.4792727530002594, -0.07691462337970734, 9.429655075073242, -1.4900952577590942, -1.294914722442627, 0.6858723759651184, 
297, 595814660, -0.871028482913971, 0.685931921005249, 41.129554748535156, -0.2100532203912735, -0.1992024928331375, 9.49272346496582, -1.5793864727020264, -1.4201427698135376, 0.28016847372055054, 
298, 595822993, -0.86607426404953, 0.6799657940864563, 41.1301383972168, 0.3708105981349945, -0.2011592984199524, 9.784904479980469, -0.3866596817970276, -1.570088505744934, 0.21026724576950073, 
299, 595831326, -0.8621296882629395, 0.6852800846099854, 41.125545501708984, 0.7017010450363159, 0.07066293805837631, 9.764152526855469, -0.5020261406898499, -0.20705264806747437, -0.2818974554538727, 
300, 595839659, -0.8616155385971069, 0.694062352180481, 41.121944427490234, -0.6296218633651733, -0.19409239292144775, 9.932509422302246, -0.9167718887329102, 0.20465771853923798, 0.002484580734744668, 
301, 595847992, -0.8630143404006958, 0.6921502947807312, 41.125816345214844, -0.7943946123123169, -0.16791725158691406, 9.484353065490723, -1.156982183456421, -1.0892324447631836, 0.7220396399497986, 
302, 595856325, -0.8674726486206055, 0.6885071396827698, 41.12813186645508, -0.18684104084968567, -0.03816496953368187, 9.466541290283203, -1.5199872255325317, -1.295939564704895, 0.5892555117607117, 
303, 595864658, -0.8677041530609131, 0.6826539635658264, 41.12856674194336, 0.1402701437473297, -0.36310601234436035, 9.760750770568848, -1.011775016784668, -1.5551042556762695, 0.3010697066783905, 
304, 595872991, -0.8634004592895508, 0.6834520697593689, 41.126461029052734, 0.7508696913719177, 0.048689402639865875, 9.754002571105957, -0.46132516860961914, -0.7544288039207458, -0.01402379386126995, 
305, 595881324, -0.8616659641265869, 0.6941215991973877, 41.123390197753906, -0.2005084902048111, -0.23902654647827148, 9.799788475036621, -0.7697973847389221, 0.4334184527397156, -0.08943210542201996, 
306, 595889657, -0.8605457544326782, 0.6954253911972046, 41.12517547607422, -1.003751277923584, -0.16151119768619537, 9.661395072937012, -0.850866436958313, -0.6996911764144897, 0.5030122995376587, 
307, 595897990, -0.8629735112190247, 0.6905246376991272, 41.126949310302734, -0.3160652816295624, -0.04259159788489342, 9.496993064880371, -1.2762163877487183, -1.4444249868392944, 0.4650263786315918, 
308, 595906323, -0.8665097951889038, 0.6852367520332336, 41.12663269042969, -0.09235372394323349, -0.30360516905784607, 9.637190818786621, -1.405184030532837, -1.4871495962142944, 0.19786995649337769, 
309, 595914656, -0.8625776171684265, 0.682989239692688, 41.125831604003906, 0.6333770751953125, 0.04695841297507286, 9.727859497070312, -0.5107094049453735, -1.121608853340149, 0.16149774193763733, 
310, 595922989, -0.8605306148529053, 0.6904733180999756, 41.12166213989258, 0.2994251549243927, -0.08301589637994766, 9.805453300476074, -0.7317090034484863, 0.05102355405688286, -0.10080482065677643, 
311, 595931322, -0.8607778549194336, 0.6950887441635132, 41.12283706665039, -0.9127456545829773, -0.1777767539024353, 9.842884063720703, -1.0133121013641357, -0.3022095561027527, 0.4083165228366852, 
312, 595939655, -0.8642184138298035, 0.6912485957145691, 41.12623596191406, -0.506493866443634, -0.1663440465927124, 9.415637969970703, -1.4013161659240723, -1.3215022087097168, 0.7224494218826294, 
313, 595947988, -0.8692065477371216, 0.6887629628181458, 41.12683868408203, -0.2043146789073944, -0.27534219622612, 9.557379722595215, -1.5819225311279297, -1.1515263319015503, 0.3283745050430298, 
314, 595956321, -0.8649921417236328, 0.6837668418884277, 41.12692642211914, 0.29874563217163086, -0.20035113394260406, 9.723296165466309, -0.4759765863418579, -1.454235553741455, 0.2662087678909302, 
315, 595964654, -0.8617790341377258, 0.6876332759857178, 41.122100830078125, 0.647045910358429, 0.08933168649673462, 9.667855262756348, -0.5902160406112671, -0.37969258427619934, -0.3122503161430359, 
316, 595972987, -0.8605909943580627, 0.6947018504142761, 41.12071228027344, -0.5481008887290955, -0.21083004772663116, 9.931357383728027, -0.8382129669189453, -0.003214586526155472, 0.1558113843202591, 
317, 595981320, -0.8624914288520813, 0.6918988227844238, 41.12520980834961, -0.66215980052948, -0.16461534798145294, 9.578797340393066, -1.2169195413589478, -1.1960183382034302, 0.7955013513565063, 
318, 595989653, -0.8675748705863953, 0.6894344091415405, 41.12724685668945, -0.21470454335212708, -0.05906855687499046, 9.401132583618164, -1.5958564281463623, -1.1543951034545898, 0.5479140877723694, 
319, 595997986, -0.8666592836380005, 0.6836619973182678, 41.12684631347656, 0.04273538663983345, -0.4078148603439331, 9.657465934753418, -0.8720238208770752, -1.545729398727417, 0.20219875872135162, 
320, 596006319, -0.8611183166503906, 0.6836335062980652, 41.1230354309082, 0.8092511892318726, 0.09911694377660751, 9.728174209594727, -0.31127700209617615, -0.850277304649353, -0.1296720653772354, 
321, 596014652, -0.8587185740470886, 0.6936339735984802, 41.12059783935547, -0.13086843490600586, -0.14194819331169128, 9.91125202178955, -0.6918532848358154, 0.3513248860836029, -0.013767652213573456, 
322, 596022985, -0.860296905040741, 0.6947408318519592, 41.12285232543945, -0.975583553314209, -0.1344020515680313, 9.704132080078125, -1.173554539680481, -0.7239991426467896, 0.5113625526428223, 
323, 596031318, -0.8641945123672485, 0.6900885701179504, 41.1251220703125, -0.34530118107795715, -0.04238776117563248, 9.348777770996094, -1.4539536237716675, -1.4147381782531738, 0.5244514346122742, 
324, 596039651, -0.8671635985374451, 0.6841439008712769, 41.12509536743164, -0.03789496049284935, -0.39479684829711914, 9.652795791625977, -1.337485671043396, -1.5676807165145874, 0.20422229170799255, 
325, 596047984, -0.8621147274971008, 0.6802526712417603, 41.12432861328125, 0.7093904614448547, 0.010149943642318249, 9.80935287475586, -0.37677261233329773, -1.3179421424865723, 0.15996089577674866, 
326, 596056317, -0.8607067465782166, 0.6890413165092468, 41.119083404541016, 0.372720330953598, -0.14539584517478943, 9.778636932373047, -0.8060927391052246, 0.2081412822008133, -0.2377641201019287, 
327, 596064650, -0.8592209219932556, 0.6940706968307495, 41.11989212036133, -0.9670429229736328, -0.22615858912467957, 9.82089614868164, -0.8056573271751404, -0.24923929572105408, 0.36518213152885437, 
328, 596072983, -0.8608124852180481, 0.6891428828239441, 41.123043060302734, -0.5367287397384644, -0.15039260685443878, 9.430371284484863, -1.1782418489456177, -1.4516483545303345, 0.663101315498352, 
329, 596081316, -0.8650624752044678, 0.6844788193702698, 41.12358093261719, -0.14600951969623566, -0.15612024068832397, 9.609342575073242, -1.4933738708496094, -1.4140210151672363, 0.3150038421154022, 
330, 596089649, -0.8616663813591003, 0.6794930696487427, 41.12282943725586, 0.3748590350151062, -0.14348602294921875, 9.7640380859375, -0.5726959109306335, -1.4501882791519165, 0.16656936705112457, 
331, 596097982, -0.8593087196350098, 0.6843193769454956, 41.11888122558594, 0.6767374277114868, 0.038181789219379425, 9.679028511047363, -0.6935437917709351, -0.2661958932876587, -0.20446564257144928, 
332, 596106315, -0.8589639663696289, 0.6931034922599792, 41.11738204956055, -0.5830066800117493, -0.19982904195785522, 9.92724609375, -0.9410030841827393, 0.20194262266159058, 0.18934044241905212, 
333, 596114648, -0.8612921833992004, 0.6907285451889038, 41.12166976928711, -0.7362158298492432, -0.19063600897789001, 9.586160659790039, -1.2679686546325684, -1.1468901634216309, 0.7708091139793396, 
334, 596122981, -0.8669626712799072, 0.6874743103981018, 41.12290954589844, -0.21995194256305695, -0.055378906428813934, 9.51337718963623, -1.6641184091567993, -1.2441219091415405, 0.38034576177597046, 
335, 596131314, -0.8672103881835938, 0.6827181577682495, 41.121849060058594, 0.09605053067207336, -0.4055713415145874, 9.700312614440918, -1.0109810829162598, -1.4228581190109253, 0.12486939877271652, 
336, 596139647, -0.8623092174530029, 0.6831527948379517, 41.11806106567383, 0.8091510534286499, 0.03270995244383812, 9.736879348754883, -0.3900919556617737, -0.7960264086723328, -0.04798826575279236, 
337, 596147980, -0.8594575524330139, 0.6921436786651611, 41.1165771484375, -0.0905478373169899, -0.1584712415933609, 9.961149215698242, -0.6380633115768433, 0.22722388803958893, 0.09856357425451279, 
338, 596156313, -0.860690176486969, 0.6941773295402527, 41.1188850402832, -0.9058001041412354, -0.1427205502986908, 9.652576446533203, -1.132571816444397, -0.6121930480003357, 0.5081864595413208, 
339, 596164646, -0.8648762702941895, 0.6904876232147217, 41.1219482421875, -0.2974342703819275, -0.049989961087703705, 9.381305694580078, -1.4888914823532104, -1.3010878562927246, 0.6219136714935303, 
340, 596172979, -0.8665904998779297, 0.687583327293396, 41.12199783325195, -0.11734991520643234, -0.3812607228755951, 9.670485496520996, -1.188410758972168, -1.2023706436157227, 0.3146965205669403, 
341, 596181312, -0.8624277114868164, 0.6842033863067627, 41.12174987792969, 0.5921052098274231, 0.05710829794406891, 9.76775074005127, -0.48278990387916565, -1.257851004600525, 0.22286945581436157, 
342, 596189645, -0.8615442514419556, 0.6930285692214966, 41.11699676513672, 0.2972579896450043, -0.07951819151639938, 9.723651885986328, -0.8706918954849243, 0.21359708905220032, -0.2387886941432953, 
343, 596197978, -0.8612233400344849, 0.698142945766449, 41.118019104003906, -0.947851836681366, -0.25603601336479187, 9.854865074157715, -0.9455622434616089, -0.24114519357681274, 0.3929223120212555, 
344, 596206311, -0.8624236583709717, 0.6934221982955933, 41.12221145629883, -0.47868865728378296, -0.13554151356220245, 9.451120376586914, -1.133442759513855, -1.4280319213867188, 0.8293632864952087, 
345, 596214644, -0.8673485517501831, 0.6900081038475037, 41.12191390991211, -0.13869237899780273, -0.20983339846134186, 9.543100357055664, -1.5721375942230225, -1.2617955207824707, 0.21802836656570435, 
346, 596222977, -0.8649336099624634, 0.6861585974693298, 41.12143325805664, 0.3853738009929657, -0.21864087879657745, 9.731694221496582, -0.6915715336799622, -1.3145866394042969, 0.18998077511787415, 
347, 596231310, -0.8602527976036072, 0.6909195184707642, 41.1173095703125, 0.650801420211792, 0.004663653671741486, 9.737515449523926, -0.41560375690460205, -0.27495598793029785, -0.22621209919452667, 
348, 596239643, -0.8587120771408081, 0.6994085311889648, 41.11697006225586, -0.6948484182357788, -0.1328498274087906, 9.925507545471191, -0.796180009841919, 0.1677476018667221, 0.16823427379131317, 
349, 596247976, -0.8611864447593689, 0.6966074705123901, 41.12012481689453, -0.8339473009109497, -0.1657698154449463, 9.498124122619629, -1.2839776277542114, -1.195070743560791, 0.6315958499908447, 
350, 596256309, -0.8656139373779297, 0.6924306750297546, 41.123779296875, -0.2500617504119873, -0.0871792882680893, 9.465555191040039, -1.5170925855636597, -1.3590784072875977, 0.5905874967575073, 
351, 596264642, -0.8640027642250061, 0.6860648989677429, 41.124656677246094, 0.08488602936267853, -0.3732224702835083, 9.728271484375, -0.7902376055717468, -1.6187299489974976, 0.3544497787952423, 
352, 596272975, -0.8598875999450684, 0.6870172619819641, 41.12105178833008, 0.7931143641471863, 0.09169229120016098, 9.756792068481445, -0.48299485445022583, -0.7325543165206909, -0.14460515975952148, 
353, 596281308, -0.8588382005691528, 0.6955780982971191, 41.116729736328125, -0.11471729725599289, -0.19791200757026672, 9.891222953796387, -0.8511226773262024, 0.18186108767986298, -0.24347612261772156, 
354, 596289641, -0.8583126068115234, 0.6975901126861572, 41.120025634765625, -0.9293546080589294, -0.18365639448165894, 9.697481155395508, -0.9226887822151184, -0.6157533526420593, 0.5726318359375, 
355, 596297974, -0.8607981204986572, 0.6935743093490601, 41.12382125854492, -0.3249051868915558, -0.01128784753382206, 9.45960807800293, -1.2867182493209839, -1.340917944908142, 0.7062869071960449, 
356, 596306307, -0.8637363314628601, 0.6881456971168518, 41.12273025512695, -0.11063139140605927, -0.3340783417224884, 9.622369766235352, -1.333720326423645, -1.5036706924438477, 0.156759113073349, 
357, 596314640, -0.8584893345832825, 0.6847658157348633, 41.1214485168457, 0.6049445271492004, 0.015950839966535568, 9.76945972442627, -0.35059481859207153, -1.256519079208374, 0.09984427690505981, 
358, 596322973, -0.8557647466659546, 0.6919033527374268, 41.118446350097656, 0.2931807339191437, -0.07073446363210678, 9.825467109680176, -0.6506656408309937, 0.008196555078029633, -0.04629772901535034, 
359, 596331306, -0.8553715348243713, 0.6965969800949097, 41.119407653808594, -0.8961868286132812, -0.16733360290527344, 9.87270450592041, -0.9377754926681519, -0.2913491129875183, 0.38285595178604126, 
360, 596339639, -0.8585970401763916, 0.6923654079437256, 41.121421813964844, -0.5177903771400452, -0.13536064326763153, 9.406305313110352, -1.3727819919586182, -1.367351770401001, 0.6080051064491272, 
361, 596347972, -0.8630841374397278, 0.688239574432373, 41.121307373046875, -0.15444357693195343, -0.22705192863941193, 9.531207084655762, -1.5207042694091797, -1.3477057218551636, 0.23867343366146088, 
362, 596356305, -0.860196590423584, 0.6832438707351685, 41.120872497558594, 0.3839431405067444, -0.15904346108436584, 9.774238586425781, -0.635117769241333, -1.4524680376052856, 0.19638435542583466, 
363, 596364638, -0.8568614721298218, 0.6892238855361938, 41.11624526977539, 0.6296433210372925, 0.019527262076735497, 9.815817832946777, -0.5748730897903442, -0.12664958834648132, -0.2837928831577301, 
364, 596372971, -0.8563934564590454, 0.6967487931251526, 41.1163330078125, -0.6741626262664795, -0.24567869305610657, 9.911386489868164, -0.9250836968421936, 0.05093390494585037, 0.19990628957748413, 
365, 596381304, -0.8576889634132385, 0.6932986974716187, 41.11943817138672, -0.7552648782730103, -0.17923739552497864, 9.488368034362793, -1.1435346603393555, -1.27239990234375, 0.6256020665168762, 
366, 596389637, -0.8617641925811768, 0.6888280510902405, 41.1212043762207, -0.134012371301651, -0.07677239924669266, 9.508210182189941, -1.4730106592178345, -1.3936834335327148, 0.45139962434768677, 
367, 596397970, -0.8614323139190674, 0.6831272840499878, 41.12122344970703, 0.20748892426490784, -0.2733781337738037, 9.78152084350586, -0.9422578811645508, -1.5355092287063599, 0.2512756586074829, 
368, 596406303, -0.8577864170074463, 0.6852397918701172, 41.118003845214844, 0.7584373950958252, 0.09101277589797974, 9.707874298095703, -0.5400121212005615, -0.5948009490966797, -0.12247445434331894, 
369, 596414636, -0.8569722175598145, 0.6945908069610596, 41.115745544433594, -0.30463242530822754, -0.18422143161296844, 9.861001014709473, -0.8823463916778564, 0.2726123332977295, 0.0046874056570231915, 
370, 596422969, -0.857308030128479, 0.694957971572876, 41.119384765625, -0.9799394607543945, -0.2090775966644287, 9.670578956604004, -1.027783989906311, -0.8153650760650635, 0.72731614112854, 
371, 596431302, -0.8617163896560669, 0.6907252073287964, 41.12318420410156, -0.2361435741186142, -0.05098302662372589, 9.452668190002441, -1.5170925855636597, -1.3684788942337036, 0.7084640264511108, 
372, 596439635, -0.8648478984832764, 0.6849773526191711, 41.123565673828125, 0.028594186529517174, -0.39920753240585327, 9.65494441986084, -1.3579258918762207, -1.5417081117630005, 0.22002626955509186, 
373, 596447968, -0.8600489497184753, 0.6825609803199768, 41.1216926574707, 0.7263497710227966, -0.023232433944940567, 9.749146461486816, -0.4046664834022522, -1.139487624168396, 0.030301637947559357, 
374, 596456301, -0.8566817045211792, 0.6917349100112915, 41.1185302734375, 0.2659069299697876, -0.08911727368831635, 9.788901329040527, -0.5737717151641846, 0.2536833584308624, -0.13064540922641754, 
375, 596464634, -0.8575454354286194, 0.6971871256828308, 41.11923599243164, -0.9536671042442322, -0.123851478099823, 9.776384353637695, -1.087234377861023, -0.20005998015403748, 0.3528360426425934, 
376, 596472967, -0.860331118106842, 0.6928450465202332, 41.12220764160156, -0.5109654664993286, -0.12354087829589844, 9.394871711730957, -1.320324182510376, -1.378775954246521, 0.5747835040092468, 
377, 596481300, -0.8646249175071716, 0.6876779198646545, 41.12366485595703, -0.1413525491952896, -0.2841108441352844, 9.580841064453125, -1.4997262954711914, -1.4752135276794434, 0.42558056116104126, 
378, 596489633, -0.8610497117042542, 0.6831495761871338, 41.123382568359375, 0.4747414290904999, -0.16122499108314514, 9.743911743164062, -0.5521788001060486, -1.3959628343582153, 0.20862792432308197, 
379, 596497966, -0.8580024242401123, 0.6884310245513916, 41.11879348754883, 0.6133992075920105, -0.04316740855574608, 9.74201488494873, -0.6107330322265625, -0.21099723875522614, -0.2807704210281372, 
380, 596506299, -0.8562019467353821, 0.6952120661735535, 41.11733627319336, -0.6219111084938049, -0.27547743916511536, 9.87624454498291, -0.7649306654930115, -0.03758888691663742, 0.14238952100276947, 
381, 596514632, -0.8564319014549255, 0.6929383277893066, 41.120330810546875, -0.693074643611908, -0.16167545318603516, 9.515442848205566, -1.014643669128418, -1.130702018737793, 0.6152539253234863, 
382, 596522965, -0.86052006483078, 0.6898720860481262, 41.1213493347168, -0.1275048702955246, -0.03370080143213272, 9.483694076538086, -1.4740095138549805, -1.2242963314056396, 0.34758514165878296, 
383, 596531298, -0.8587782979011536, 0.6855801343917847, 41.12092971801758, 0.20539379119873047, -0.24303221702575684, 9.712986946105957, -0.7721282243728638, -1.3653026819229126, 0.2019682228565216, 
384, 596539631, -0.8546313047409058, 0.6878650784492493, 41.118221282958984, 0.7286457419395447, 0.08999700099229813, 9.720528602600098, -0.4811762273311615, -0.5746424794197083, -0.04655386507511139, 
385, 596547964, -0.8533419370651245, 0.6960245370864868, 41.11701583862305, -0.31398820877075195, -0.1293306052684784, 9.902397155761719, -0.8260205984115601, 0.12886521220207214, 0.12889082729816437, 
386, 596556297, -0.8547691106796265, 0.6951497197151184, 41.1208610534668, -0.8600006103515625, -0.19988620281219482, 9.660837173461914, -1.157545804977417, -0.9644654989242554, 0.6472204923629761, 
387, 596564630, -0.8591905236244202, 0.6908935308456421, 41.12388229370117, -0.2532453238964081, -0.09282015264034271, 9.457021713256836, -1.5176817178726196, -1.3684276342391968, 0.6136913895606995, 
388, 596572963, -0.8607883453369141, 0.6868361234664917, 41.124916076660156, 0.01794448122382164, -0.3980538547039032, 9.6580228805542, -1.1751937866210938, -1.3430695533752441, 0.3956374228000641, 
389, 596581296, -0.8555201292037964, 0.6855222582817078, 41.12333297729492, 0.6923308968544006, 0.029605647549033165, 9.725220680236816, -0.3484944999217987, -1.007292628288269, 0.0672885999083519, 
390, 596589629, -0.8532729744911194, 0.6946960687637329, 41.11918640136719, 0.1786637157201767, -0.14257046580314636, 9.803393363952637, -0.7058386206626892, 0.2556556761264801, -0.24165748059749603, 
391, 596597962, -0.8531362414360046, 0.6995578408241272, 41.120941162109375, -0.9375088214874268, -0.21041518449783325, 9.80018138885498, -0.9689737558364868, -0.2719079256057739, 0.4768602252006531, 
392, 596606295, -0.8555802702903748, 0.6958529353141785, 41.12391662597656, -0.468048095703125, -0.07484211772680283, 9.460397720336914, -1.2817233800888062, -1.3046481609344482, 0.7415832877159119, 
393, 596614628, -0.8601402044296265, 0.6928512454032898, 41.12450408935547, -0.18252894282341003, -0.24616588652133942, 9.576338768005371, -1.5312061309814453, -1.214998483657837, 0.3248397409915924, 
394, 596622961, -0.8568562865257263, 0.6884101033210754, 41.12443161010742, 0.3858100473880768, -0.07391032576560974, 9.736771583557129, -0.5873215794563293, -1.3856916427612305, 0.27737653255462646, 
395, 596631294, -0.8547234535217285, 0.69313645362854, 41.12055969238281, 0.5809324383735657, 0.0017667522188276052, 9.704526901245117, -0.7218475341796875, -0.2801556885242462, -0.1972680240869522, 
396, 596639627, -0.8541043400764465, 0.7006086111068726, 41.11943435668945, -0.6624675989151001, -0.17408591508865356, 9.946765899658203, -0.906295657157898, 0.045849479734897614, 0.18649724125862122, 
397, 596647960, -0.8573822975158691, 0.6985801458358765, 41.12372589111328, -0.671313464641571, -0.14878074824810028, 9.545485496520996, -1.382925271987915, -1.1032434701919556, 0.7699894905090332, 
398, 596656293, -0.8628161549568176, 0.6958650946617126, 41.12368392944336, -0.2522847354412079, -0.14180390536785126, 9.434041976928711, -1.6352256536483765, -1.1818280220031738, 0.393255352973938, 
399, 596664626, -0.8626353144645691, 0.6904966235160828, 41.12326431274414, 0.04575159773230553, -0.4195077121257782, 9.660663604736328, -0.9599318504333496, -1.496934413909912, 0.19938120245933533, 
400, 596672959, -0.8569490909576416, 0.6914171576499939, 41.11903762817383, 0.7650895118713379, 0.04959802329540253, 9.711363792419434, -0.29473021626472473, -0.7353718876838684, -0.185331791639328, 
401, 596681292, -0.8545057773590088, 0.7006823420524597, 41.116539001464844, -0.20881293714046478, -0.17110314965248108, 9.922466278076172, -0.6860387921333313, 0.26326310634613037, -0.02488422766327858, 
402, 596689625, -0.8545635938644409, 0.7014756798744202, 41.118927001953125, -0.9084323644638062, -0.11675567924976349, 9.64065170288086, -0.9927180409431458, -0.7632656693458557, 0.602139413356781, 
403, 596697958, -0.8586778044700623, 0.6974744200706482, 41.12202835083008, -0.35139700770378113, -0.05536503717303276, 9.388586044311523, -1.4810791015625, -1.3379210233688354, 0.6245774626731873, 
404, 596706291, -0.8605655431747437, 0.6912181973457336, 41.121883392333984, -0.17050360143184662, -0.34701019525527954, 9.649670600891113, -1.2094146013259888, -1.6040786504745483, 0.2910033166408539, 
405, 596714624, -0.8564375042915344, 0.6883674263954163, 41.12042236328125, 0.6466026902198792, 0.025270994752645493, 9.7733154296875, -0.48445481061935425, -1.1928932666778564, 0.07968588173389435, 
406, 596722957, -0.8544449210166931, 0.6970703601837158, 41.11482620239258, 0.22249655425548553, -0.13412299752235413, 9.816767692565918, -0.7368062138557434, 0.19866400957107544, -0.2268780767917633, 
407, 596731290, -0.8533142805099487, 0.7015611529350281, 41.116851806640625, -0.932709276676178, -0.21784698963165283, 9.823979377746582, -0.8495345115661621, -0.31691214442253113, 0.5099537968635559, 
408, 596739623, -0.8563233017921448, 0.697085440158844, 41.11983871459961, -0.5386560559272766, -0.08492724597454071, 9.404112815856934, -1.3494220972061157, -1.3976024389266968, 0.6542900204658508, 
409, 596747956, -0.8604607582092285, 0.6930067539215088, 41.11911392211914, -0.17379991710186005, -0.22750237584114075, 9.621479034423828, -1.4768013954162598, -1.340507984161377, 0.16452020406723022, 
410, 596756289, -0.8571850657463074, 0.6882796287536621, 41.11799621582031, 0.41340571641921997, -0.14778488874435425, 9.802849769592285, -0.589012086391449, -1.4201171398162842, 0.2123163789510727, 
411, 596764622, -0.8545147776603699, 0.6938115358352661, 41.114463806152344, 0.639542818069458, 0.014534576795995235, 9.743459701538086, -0.6577094197273254, -0.18220683932304382, -0.15244311094284058, 
412, 596772955, -0.853894054889679, 0.7010059356689453, 41.11271286010742, -0.7553616762161255, -0.21411320567131042, 9.917616844177246, -0.9055529236793518, 0.01121903583407402, 0.18841832876205444, 
413, 596781288, -0.8551018834114075, 0.6973596811294556, 41.11491394042969, -0.7847844958305359, -0.19818046689033508, 9.486567497253418, -1.1308300495147705, -1.2942744493484497, 0.5173818469047546, 
414, 596789621, -0.8590409159660339, 0.6922751665115356, 41.115028381347656, -0.24181999266147614, -0.10089510679244995, 9.494817733764648, -1.4550293684005737, -1.465454339981079, 0.30783185362815857, 
415, 596797954, -0.8576257824897766, 0.6854692101478577, 41.11470031738281, 0.14834484457969666, -0.3207526206970215, 9.754866600036621, -0.8124067783355713, -1.6687675714492798, 0.2084614783525467, 
416, 596806287, -0.8542786836624146, 0.6860107779502869, 41.1114616394043, 0.8278843760490417, 0.14157621562480927, 9.707308769226074, -0.5754494071006775, -0.7835906744003296, -0.13055576384067535, 
417, 596814620, -0.8542241454124451, 0.6940496563911438, 41.108821868896484, -0.20521506667137146, -0.23192377388477325, 9.897796630859375, -0.9727902412414551, 0.11800479143857956, -0.04419736564159393, 
418, 596822953, -0.8555825352668762, 0.6935788989067078, 41.11190414428711, -0.9047058820724487, -0.2063094526529312, 9.671187400817871, -1.1511164903640747, -0.9166437387466431, 0.7366141676902771, 
419, 596831286, -0.8606125712394714, 0.689505398273468, 41.115116119384766, -0.22521670162677765, -0.08138657361268997, 9.438420295715332, -1.5912715196609497, -1.3482180833816528, 0.6371797323226929, 
420, 596839619, -0.8617227077484131, 0.685412585735321, 41.11301040649414, -0.0663290023803711, -0.4229794144630432, 9.655980110168457, -1.11410391330719, -1.3421987295150757, 0.12153953313827515, 
421, 596847952, -0.8554990887641907, 0.6821129322052002, 41.11126708984375, 0.6924023628234863, 0.05838150531053543, 9.724369049072266, -0.2329486459493637, -1.246273398399353, 0.04444069787859917, 
422, 596856285, -0.8532863855361938, 0.6902567148208618, 41.10713577270508, 0.28438249230384827, -0.04066387191414833, 9.790369033813477, -0.7098602056503296, 0.13252805173397064, -0.23097637295722961, 
423, 596864618, -0.853725254535675, 0.6938191056251526, 41.108314514160156, -0.9322443008422852, -0.11903761327266693, 9.839042663574219, -1.0376198291778564, -0.4278729557991028, 0.40880319476127625, 
424, 596872951, -0.8579974174499512, 0.6894097924232483, 41.111915588378906, -0.39895743131637573, -0.12390919029712677, 9.428301811218262, -1.5012117624282837, -1.3901740312576294, 0.7516496181488037, 
425, 596881284, -0.863391637802124, 0.685249924659729, 41.11289596557617, -0.060745954513549805, -0.2184114158153534, 9.520638465881348, -1.630871295928955, -1.3532384634017944, 0.3718418478965759, 
426, 596889617, -0.8604685068130493, 0.6799896955490112, 41.11223602294922, 0.5303904414176941, -0.20697467029094696, 9.767685890197754, -0.6309682130813599, -1.4847674369812012, 0.21843819320201874, 
427, 596897950, -0.8572644591331482, 0.6863689422607422, 41.108551025390625, 0.6649568676948547, -0.05798809602856636, 9.822606086730957, -0.5922651290893555, -0.080057293176651, -0.1730881929397583, 
428, 596906283, -0.8562857508659363, 0.6954585313796997, 41.107147216796875, -0.7657760977745056, -0.2050577849149704, 9.884729385375977, -0.8627642393112183, 0.24076096713542938, 0.11358631402254105, 
429, 596914616, -0.8569620847702026, 0.6918424367904663, 41.10966491699219, -0.7383577227592468, -0.15839722752571106, 9.395834922790527, -1.0676909685134888, -1.291585087776184, 0.5584415793418884, 
430, 596922949, -0.8597329258918762, 0.6881961226463318, 41.110015869140625, -0.10498059540987015, -0.027019446715712547, 9.478036880493164, -1.3154830932617188, -1.291866660118103, 0.34515178203582764, 
431, 596931282, -0.859438419342041, 0.683448851108551, 41.111175537109375, 0.2946804165840149, -0.21592426300048828, 9.759499549865723, -0.9495325088500977, -1.4251631498336792, 0.3915647864341736, 
432, 596939615, -0.8580430746078491, 0.6872949600219727, 41.10670852661133, 0.72062748670578, 0.07263711839914322, 9.728302955627441, -0.8093970417976379, -0.38455930352211, -0.12465167045593262, 
433, 596947948, -0.858851969242096, 0.6970416903495789, 41.104888916015625, -0.441130131483078, -0.3112845718860626, 9.829086303710938, -1.0778086185455322, 0.3186410963535309, 0.05973239243030548, 
434, 596956281, -0.8587210178375244, 0.6966110467910767, 41.10794448852539, -0.9468790292739868, -0.2713717222213745, 9.609801292419434, -0.9710740447044373, -0.9089083075523376, 0.634541392326355, 
435, 596964614, -0.8608869910240173, 0.6929262280464172, 41.110084533691406, -0.15143370628356934, -0.009379900991916656, 9.498517990112305, -1.2458891868591309, -1.2995511293411255, 0.5107734799385071, 
436, 596972947, -0.8615484833717346, 0.687896192073822, 41.107669830322266, 0.08234989643096924, -0.3650221526622772, 9.637140274047852, -1.0586235523223877, -1.453543782234192, 0.0354757122695446, 
437, 596981280, -0.8562811613082886, 0.6873171329498291, 41.10569763183594, 0.6538055539131165, 0.09668497741222382, 9.734259605407715, -0.34811025857925415, -0.9177452325820923, 0.021900169551372528, 
438, 596989613, -0.8548353910446167, 0.6958383321762085, 41.102474212646484, 0.05187956988811493, -0.10681340098381042, 9.797005653381348, -0.8040436506271362, 0.17450977861881256, -0.09496477246284485, 
439, 596997946, -0.8569570183753967, 0.6985231637954712, 41.104957580566406, -1.0083003044128418, -0.17053796350955963, 9.790783882141113, -1.2411504983901978, -0.5349660515785217, 0.5612335205078125, 
440, 597006279, -0.8614506721496582, 0.6937996745109558, 41.108184814453125, -0.3594057857990265, -0.17232802510261536, 9.405667304992676, -1.5270308256149292, -1.4262645244598389, 0.6661750078201294, 
441, 597014612, -0.8655354380607605, 0.6899862885475159, 41.10816955566406, -0.08751805871725082, -0.3553100526332855, 9.560819625854492, -1.4717297554016113, -1.31033456325531, 0.2521721422672272, 
442, 597022945, -0.8600667119026184, 0.6862553954124451, 41.10601806640625, 0.47748082876205444, -0.06475471705198288, 9.736827850341797, -0.3245963752269745, -1.2981421947479248, 0.07978832721710205, 
443, 597031278, -0.856252133846283, 0.6928613185882568, 41.10106658935547, 0.4641980528831482, -0.027137886732816696, 9.755876541137695, -0.5176252722740173, -0.05213777348399162, -0.32044684886932373, 
444, 597039611, -0.8557431697845459, 0.6991045475006104, 41.10041046142578, -0.8072485327720642, -0.17013750970363617, 9.919754028320312, -0.9199736714363098, -0.10175254195928574, 0.20184016227722168, 
445, 597047944, -0.8580655455589294, 0.6954329609870911, 41.10507583618164, -0.6355355381965637, -0.11630142480134964, 9.43861198425293, -1.2681734561920166, -1.3020612001419067, 0.8133031129837036, 
446, 597056277, -0.8645989894866943, 0.6908019781112671, 41.10797119140625, -0.11854135990142822, -0.06627080589532852, 9.474903106689453, -1.7674205303192139, -1.410947322845459, 0.3798590898513794, 
447, 597064610, -0.862982451915741, 0.6845090389251709, 41.10679626464844, 0.2845081388950348, -0.30003634095191956, 9.735482215881348, -0.7874456644058228, -1.6052825450897217, 0.10624784231185913, 
448, 597072943, -0.8586893677711487, 0.6882868409156799, 41.10439682006836, 0.7007068395614624, -0.029669882729649544, 9.804743766784668, -0.46332311630249023, -0.39457452297210693, -0.06527788192033768, 
449, 597081276, -0.8564562797546387, 0.6974412202835083, 41.102787017822266, -0.4907636046409607, -0.2002081423997879, 9.9493408203125, -0.7129338383674622, 0.24858614802360535, 0.08363047987222672, 
450, 597089609, -0.8561420440673828, 0.6964514255523682, 41.10404968261719, -0.9509060978889465, -0.15178333222866058, 9.525347709655762, -0.946894109249115, -0.9748647809028625, 0.5227352976799011, 
451, 597097942, -0.8600461483001709, 0.6907819509506226, 41.10564422607422, -0.2400301843881607, 0.033699773252010345, 9.415731430053711, -1.4537744522094727, -1.5370718240737915, 0.4416150748729706, 
452, 597106275, -0.8611189126968384, 0.684792160987854, 41.104862213134766, 0.15736788511276245, -0.284999817609787, 9.727919578552246, -1.110210657119751, -1.5702424049377441, 0.1823989897966385, 
453, 597114608, -0.859271764755249, 0.6849212646484375, 41.103607177734375, 0.7641382217407227, 0.08466105163097382, 9.829629898071289, -0.7589113116264343, -0.8351905345916748, 0.10921909660100937, 
454, 597122941, -0.8590167164802551, 0.6941547393798828, 41.100860595703125, -0.11617647856473923, -0.21088726818561554, 9.867125511169434, -0.9482004642486572, 0.2593185007572174, -0.038536615669727325, 
455, 597131274, -0.859507143497467, 0.6965343952178955, 41.10271453857422, -1.0476980209350586, -0.2578240633010864, 9.630524635314941, -1.0440489053726196, -0.5693660378456116, 0.48610690236091614, 
456, 597139607, -0.8606573939323425, 0.690761923789978, 41.10444259643555, -0.32298150658607483, -0.09664978832006454, 9.442874908447266, -1.1225054264068604, -1.5499813556671143, 0.42250677943229675, 
457, 597147940, -0.862158477306366, 0.6864932179450989, 41.10429382324219, 0.02709115669131279, -0.2917463183403015, 9.731904983520508, -1.1631808280944824, -1.3642524480819702, 0.2355484664440155, 
458, 597156273, -0.8572641611099243, 0.684721052646637, 41.10318374633789, 0.5201332569122314, 0.05243033915758133, 9.768186569213867, -0.3943183720111847, -1.0651040077209473, 0.1782238632440567, 
459, 597164606, -0.8554574251174927, 0.6917514801025391, 41.09878921508789, 0.29944661259651184, -0.03982703015208244, 9.638670921325684, -0.7595516443252563, 0.00005122846778249368, -0.2551049590110779, 
460, 597172939, -0.8563795685768127, 0.6970685720443726, 41.099056243896484, -0.8829969763755798, -0.2133120894432068, 9.866996765136719, -1.0949701070785522, -0.2179899364709854, 0.4255805015563965, 
461, 597181272, -0.8596543073654175, 0.6929150819778442, 41.10415267944336, -0.46724933385849, -0.1850304752588272, 9.576281547546387, -1.3829251527786255, -1.3600518703460693, 0.8648902177810669, 
462, 597189605, -0.8645233511924744, 0.689477264881134, 41.105506896972656, -0.13333027064800262, -0.22270186245441437, 9.523070335388184, -1.5670915842056274, -1.266611099243164, 0.291951060295105, 
463, 597197938, -0.861136794090271, 0.684979259967804, 41.10395050048828, 0.2791253924369812, -0.3246961534023285, 9.675450325012207, -0.5739766359329224, -1.390174150466919, 0.06447102874517441, 
464, 597206271, -0.8559038639068604, 0.6885234713554382, 41.10025405883789, 0.7011646032333374, -0.004506290890276432, 9.742379188537598, -0.348366379737854, -0.41998377442359924, -0.20244209468364716, 
465, 597214604, -0.8528001308441162, 0.6978028416633606, 41.098899841308594, -0.5047831535339355, -0.09135617315769196, 9.98719310760498, -0.6078898310661316, 0.2633143663406372, 0.11590441316366196, 
466, 597222937, -0.8553134202957153, 0.6958415508270264, 41.10196304321289, -0.7782490849494934, -0.09328021854162216, 9.509919166564941, -1.2891260385513306, -1.0943042039871216, 0.6415598392486572, 
467, 597231270, -0.8612549304962158, 0.6922966837882996, 41.1038818359375, -0.2165776640176773, -0.022806283086538315, 9.377484321594238, -1.698876976966858, -1.2812368869781494, 0.48359671235084534, 
468, 597239603, -0.8616004586219788, 0.6863276958465576, 41.105674743652344, 0.07840173691511154, -0.38426730036735535, 9.67261791229248, -1.0251713991165161, -1.5737515687942505, 0.43738868832588196, 
469, 597247936, -0.8579283952713013, 0.6861913800239563, 41.10356903076172, 0.7932717204093933, 0.061285559087991714, 9.792213439941406, -0.5389619469642639, -0.8634430170059204, 0.006403558887541294, 
470, 597256269, -0.8568520545959473, 0.6957538723945618, 41.099449157714844, -0.07280878722667694, -0.25240951776504517, 9.917373657226562, -0.8475110530853271, 0.30112096667289734, -0.1877395510673523, 
471, 597264602, -0.8553097248077393, 0.6980818510055542, 41.101844787597656, -0.976577639579773, -0.2659069299697876, 9.625844955444336, -0.8011363744735718, -0.5779339671134949, 0.5517177581787109, 
472, 597272935, -0.8563236594200134, 0.693668782711029, 41.10484313964844, -0.31882667541503906, -0.02870442532002926, 9.39814567565918, -1.110466718673706, -1.3889189958572388, 0.6728858947753906, 
473, 597281268, -0.8587961196899414, 0.6885176301002502, 41.103172302246094, -0.007003646809607744, -0.2743992507457733, 9.638998985290527, -1.276728630065918, -1.4672473669052124, 0.050203897058963776, 
474, 597289601, -0.8550909161567688, 0.6859086751937866, 41.1020393371582, 0.6657365560531616, 0.013011021539568901, 9.782950401306152, -0.5351709723472595, -1.1636930704116821, 0.03811398521065712, 
475, 597297934, -0.8538640737533569, 0.6941400170326233, 41.10021209716797, 0.3301609754562378, -0.12423774600028992, 9.804624557495117, -0.8317326903343201, 0.13831688463687897, 0.05235549807548523, 
476, 597306267, -0.853760838508606, 0.6992872357368469, 41.102256774902344, -1.0028786659240723, -0.17685404419898987, 9.797749519348145, -0.9731231927871704, -0.2375592142343521, 0.4491712152957916, 
477, 597314600, -0.8560178279876709, 0.6953969597816467, 41.104610443115234, -0.5621519088745117, -0.13088275492191315, 9.425167083740234, -1.255955696105957, -1.3224501609802246, 0.534594714641571, 
478, 597322933, -0.8599056005477905, 0.6908557415008545, 41.104740142822266, -0.1380658894777298, -0.21562771499156952, 9.587637901306152, -1.4499064683914185, -1.3996257781982422, 0.28488150238990784, 
479, 597331266, -0.8551682829856873, 0.6865965723991394, 41.10437774658203, 0.4082270562648773, -0.08553369343280792, 9.787249565124512, -0.4132471978664398, -1.3632023334503174, 0.20860230922698975, 
480, 597339599, -0.8531378507614136, 0.6912009716033936, 41.099246978759766, 0.6535698771476746, 0.08462541550397873, 9.695584297180176, -0.7315810322761536, -0.29099053144454956, -0.30195343494415283, 
481, 597347932, -0.853373646736145, 0.6997004747390747, 41.09814453125, -0.6248007416725159, -0.19774754345417023, 9.940521240234375, -1.0094184875488281, 0.16810621321201324, 0.14197970926761627, 
482, 597356265, -0.8555129766464233, 0.6965913772583008, 41.10381317138672, -0.7069042921066284, -0.2058105766773224, 9.540994644165039, -1.2468112707138062, -1.2334407567977905, 0.8167867064476013, 
483, 597364598, -0.8604710698127747, 0.6927415728569031, 41.10564422607422, -0.12739072740077972, -0.08697857707738876, 9.544520378112793, -1.5799243450164795, -1.3186078071594238, 0.47317177057266235, 
484, 597372931, -0.8589549660682678, 0.688913106918335, 41.105323791503906, 0.032631270587444305, -0.3969470262527466, 9.725462913513184, -0.8001246452331543, -1.3119226694107056, 0.19845907390117645, 
485, 597381264, -0.8537601232528687, 0.6900237798690796, 41.10205841064453, 0.6938758492469788, 0.09197840839624405, 9.694784164428711, -0.35407838225364685, -0.7128313779830933, -0.13200296461582184, 
486, 597389597, -0.8517253398895264, 0.6984458565711975, 41.098453521728516, -0.16359981894493103, -0.11076892912387848, 9.891902923583984, -0.7336556911468506, 0.1639823317527771, -0.09478547424077988, 
487, 597397930, -0.8522641062736511, 0.6986669898033142, 41.1016731262207, -0.9257856011390686, -0.10497533529996872, 9.73476791381836, -1.0528347492218018, -0.832270622253418, 0.6451970338821411, 
488, 597406263, -0.8566982746124268, 0.6945626735687256, 41.10535430908203, -0.2990337312221527, 0.003308405401185155, 9.473112106323242, -1.518296480178833, -1.3512916564941406, 0.6138706803321838, 
489, 597414596, -0.8616698980331421, 0.6885924339294434, 41.10507583618164, -0.09227479249238968, -0.4130878746509552, 9.548503875732422, -1.5797709226608276, -1.568526029586792, 0.21393010020256042, 
490, 597422929, -0.8570680618286133, 0.6846780180931091, 41.103843688964844, 0.6619884371757507, -0.06921806186437607, 9.803071022033691, -0.4286157488822937, -1.3225524425506592, 0.1784287542104721, 
491, 597431262, -0.8542777895927429, 0.6938042640686035, 41.10125732421875, 0.3709535598754883, -0.13117597997188568, 9.9050931930542, -0.6445437669754028, 0.24730543792247772, -0.03436149284243584, 
492, 597439595, -0.8535367846488953, 0.7002127766609192, 41.10007858276367, -0.9304131865501404, -0.16722631454467773, 9.82781982421875, -0.8928737640380859, -0.08331029117107391, 0.2668491005897522, 
493, 597447928, -0.8548949956893921, 0.6964189410209656, 41.10343551635742, -0.5907424688339233, -0.12836173176765442, 9.332195281982422, -1.1508604288101196, -1.3133569955825806, 0.6547510623931885, 
494, 597456261, -0.8596175312995911, 0.6923398971557617, 41.103633880615234, -0.10993406921625137, -0.15765397250652313, 9.538829803466797, -1.5509803295135498, -1.3449651002883911, 0.3846745789051056, 
495, 597464594, -0.8580194115638733, 0.6884390711784363, 41.10444641113281, 0.46639397740364075, -0.08763663470745087, 9.817971229553223, -0.7927476167678833, -1.3223989009857178, 0.3508637547492981, 
496, 597472927, -0.856983482837677, 0.6946675181388855, 41.099700927734375, 0.6426326632499695, -0.01547878049314022, 9.743253707885742, -0.8536328077316284, -0.099729023873806, -0.13753563165664673, 
497, 597481260, -0.8576657772064209, 0.7041276097297668, 41.09885787963867, -0.7598751187324524, -0.29603472352027893, 9.857476234436035, -1.062568187713623, 0.28383132815361023, 0.17550873756408691, 
498, 597489593, -0.8570147156715393, 0.7003610134124756, 41.103694915771484, -0.8101938962936401, -0.3048001527786255, 9.490886688232422, -0.9107781052589417, -1.3131520748138428, 0.7999324798583984, 
499, 597497926, -0.8601129651069641, 0.6968648433685303, 41.10394287109375, -0.11834944039583206, -0.023379461839795113, 9.519969940185547, -1.3552106618881226, -1.2722718715667725, 0.28249937295913696, 
500, 597506259, -0.858019232749939, 0.6915927529335022, 41.10308837890625, 0.2035055309534073, -0.2696979343891144, 9.732508659362793, -0.7283279895782471, -1.4820780754089355, 0.042826998978853226, 
501, 597514592, -0.8541514277458191, 0.6942121386528015, 41.100677490234375, 0.7388314604759216, 0.11784308403730392, 9.691279411315918, -0.5156016945838928, -0.5334548354148865, -0.025012299418449402, 
502, 597522925, -0.8539506196975708, 0.7032224535942078, 41.10112380981445, -0.36628258228302, -0.13533185422420502, 9.829581260681152, -0.9584718346595764, 0.22699333727359772, 0.31177645921707153, 
503, 597531258, -0.8569287061691284, 0.7017033696174622, 41.104190826416016, -0.9763920903205872, -0.170387864112854, 9.571639060974121, -1.3452725410461426, -1.0407705307006836, 0.6253460049629211, 
504, 597539591, -0.8620231747627258, 0.6968910098075867, 41.105445861816406, -0.21611037850379944, -0.08962512016296387, 9.43349838256836, -1.5976238250732422, -1.4345123767852783, 0.5350813269615173, 
505, 597547924, -0.8623700737953186, 0.6927298307418823, 41.10639190673828, -0.013413431122899055, -0.44634589552879333, 9.681970596313477, -1.0244027376174927, -1.3542885780334473, 0.36764106154441833, 
506, 597556257, -0.8565730452537537, 0.6910716891288757, 41.10282897949219, 0.5945085883140564, 0.0955476239323616, 9.672941207885742, -0.2835880219936371, -1.0472252368927002, -0.048500556498765945, 
507, 597564590, -0.8552788496017456, 0.699165940284729, 41.09844970703125, 0.13558213412761688, -0.09011866897344589, 9.783365249633789, -0.8208978772163391, 0.1260988861322403, -0.2512372136116028, 
508, 597572923, -0.8561158180236816, 0.7029803991317749, 41.09942626953125, -0.9193334579467773, -0.20711056888103485, 9.864835739135742, -1.0857235193252563, -0.39654678106307983, 0.430524080991745, 
509, 597581256, -0.8586164712905884, 0.6985986232757568, 41.10402297973633, -0.3584119975566864, -0.04046699032187462, 9.469656944274902, -1.289715051651001, -1.3863575458526611, 0.8034160733222961, 
510, 597589589, -0.86370450258255, 0.694462239742279, 41.10421371459961, -0.06361472606658936, -0.23900461196899414, 9.51550006866455, -1.5935767889022827, -1.3500880002975464, 0.2593441307544708, 
511, 597597922, -0.8607614040374756, 0.690373420715332, 41.10219192504883, 0.4216243326663971, -0.14626848697662354, 9.713003158569336, -0.6262551546096802, -1.3398932218551636, 0.010604293085634708, 
512, 597606255, -0.8551030158996582, 0.6959475874900818, 41.09921646118164, 0.5871050357818604, -0.042938705533742905, 9.80230712890625, -0.2976245880126953, -0.17690470814704895, -0.16852885484695435, 
513, 597614588, -0.8532164692878723, 0.7039235830307007, 41.09892272949219, -0.7653327584266663, -0.12546086311340332, 9.941915512084961, -0.7556583285331726, 0.1055818721652031, 0.2392369508743286, 
514, 597622921, -0.8550693392753601, 0.7002248167991638, 41.1004524230957, -0.7354921698570251, -0.11341812461614609, 9.458106994628906, -1.2093888521194458, -1.303393006324768, 0.5942502021789551, 
515, 597631254, -0.8612996935844421, 0.6945227384567261, 41.101463317871094, -0.13330267369747162, -0.023627866059541702, 9.418940544128418, -1.7326875925064087, -1.5382499694824219, 0.3715857267379761, 
516, 597639587, -0.8605777621269226, 0.6878977417945862, 41.10132598876953, 0.32046592235565186, -0.27167895436286926, 9.795537948608398, -0.8956657648086548, -1.6489291191101074, 0.28677695989608765, 
517, 597647920, -0.8583741784095764, 0.6910252571105957, 41.09946823120117, 0.8260675072669983, 0.022438468411564827, 9.86198902130127, -0.7158026099205017, -0.47392740845680237, 0.04308314621448517, 
518, 597656253, -0.8582976460456848, 0.7018581032752991, 41.09654998779297, -0.400280237197876, -0.258017361164093, 9.912688255310059, -0.9698188900947571, 0.4527059495449066, -0.015330119989812374, 
519, 597664586, -0.8600155711174011, 0.7017343044281006, 41.09817886352539, -1.0061191320419312, -0.2521163821220398, 9.552398681640625, -1.1919968128204346, -0.8711784482002258, 0.45360246300697327, 
520, 597672919, -0.8622828722000122, 0.6977459788322449, 41.10024642944336, -0.22272950410842896, -0.04098748415708542, 9.46195125579834, -1.257927656173706, -1.3363585472106934, 0.526372492313385, 
521, 597681252, -0.8620826601982117, 0.6928305625915527, 41.100189208984375, 0.15079838037490845, -0.2692866325378418, 9.788366317749023, -0.958446204662323, -1.4421197175979614, 0.24323275685310364, 
522, 597689585, -0.8594182729721069, 0.6933118104934692, 41.09844970703125, 0.7022231817245483, 0.13049647212028503, 9.808586120605469, -0.6601173281669617, -0.7918513417243958, 0.038831181824207306, 
523, 597697918, -0.8586136102676392, 0.7020277976989746, 41.095943450927734, 0.0030685695819556713, -0.17504437267780304, 9.786169052124023, -0.8826536536216736, 0.1976906657218933, -0.02447439916431904, 
524, 597706251, -0.8597242832183838, 0.7038379311561584, 41.09811782836914, -1.0155961513519287, -0.2315230816602707, 9.746879577636719, -1.1203025579452515, -0.640317440032959, 0.6269339919090271, 
525, 597714584, -0.8621251583099365, 0.6983575820922852, 41.101287841796875, -0.37006938457489014, -0.0887380912899971, 9.473082542419434, -1.2751151323318481, -1.5162731409072876, 0.6311091780662537, 
526, 597722917, -0.8645138740539551, 0.6943701505661011, 41.09837341308594, -0.010320833884179592, -0.34004104137420654, 9.583407402038574, -1.2665854692459106, -1.3284950256347656, 0.04689966142177582, 
527, 597731250, -0.858482837677002, 0.6912882328033447, 41.09654998779297, 0.5196683406829834, -0.0927366092801094, 9.758895874023438, -0.2571284770965576, -1.2192760705947876, 0.03562939912080765, 
528, 597739583, -0.854820728302002, 0.6987676620483398, 41.093177795410156, 0.35475239157676697, -0.06243716552853584, 9.776656150817871, -0.5378091931343079, 0.05110039561986923, -0.10802803188562393, 
529, 597747916, -0.8547552227973938, 0.7044923901557922, 41.09309768676758, -0.8732405304908752, -0.1350814402103424, 9.873111724853516, -0.9754284024238586, -0.16612111032009125, 0.2604455351829529, 
530, 597756249, -0.8578448295593262, 0.6997708082199097, 41.0953483581543, -0.573860228061676, -0.16977877914905548, 9.45730972290039, -1.3577464818954468, -1.4248814582824707, 0.6048288941383362, 
531, 597764582, -0.8633804321289062, 0.6962761878967285, 41.09660720825195, -0.08204962313175201, -0.25022387504577637, 9.529511451721191, -1.6486985683441162, -1.273526906967163, 0.4050634801387787, 
532, 597772915, -0.8605259656906128, 0.6915783882141113, 41.09532165527344, 0.2874799072742462, -0.2444913238286972, 9.712838172912598, -0.6407016515731812, -1.4170178174972534, 0.2374695986509323, 
533, 597781248, -0.8558048605918884, 0.6950986385345459, 41.09066390991211, 0.6106022596359253, -0.017560411244630814, 9.683769226074219, -0.40817564725875854, -0.42146942019462585, -0.29327017068862915, 
534, 597789581, -0.8539287447929382, 0.7030833959579468, 41.087928771972656, -0.565689742565155, -0.269490510225296, 9.958938598632812, -0.7546337842941284, 0.11062787473201752, -0.03456640616059303, 
535, 597797914, -0.8540566563606262, 0.7010044455528259, 41.09176254272461, -0.8259959816932678, -0.1830698698759079, 9.585982322692871, -1.0034502744674683, -1.110056757926941, 0.7159178853034973, 
536, 597806247, -0.8579393625259399, 0.6978837847709656, 41.09330749511719, -0.1660740226507187, 0.021851355209946632, 9.394984245300293, -1.451033592224121, -1.2319806814193726, 0.5064190626144409, 
537, 597814580, -0.8586009740829468, 0.692725419998169, 41.092899322509766, 0.11927766352891922, -0.34574270248413086, 9.633610725402832, -1.0613898038864136, -1.470141887664795, 0.20255737006664276, 
538, 597822913, -0.8546066284179688, 0.6925176978111267, 41.090965270996094, 0.7710120677947998, 0.030120622366666794, 9.775761604309082, -0.5013602375984192, -0.8754560947418213, 0.07612551003694534, 
539, 597831246, -0.8530334830284119, 0.7030408382415771, 41.08928680419922, -0.1077432706952095, -0.2083122432231903, 9.880422592163086, -0.7910572290420532, 0.41246598958969116, 0.07727814465761185, 
540, 597839579, -0.8524953126907349, 0.7056607604026794, 41.09004592895508, -1.058262825012207, -0.20309768617153168, 9.676889419555664, -0.9193333387374878, -0.538372814655304, 0.3573954701423645, 
541, 597847912, -0.8546594381332397, 0.7015672922134399, 41.09170150756836, -0.33491894602775574, -0.07305748015642166, 9.353128433227539, -1.2455562353134155, -1.3463736772537231, 0.44919684529304504, 
542, 597856245, -0.8562134504318237, 0.6955065131187439, 41.092140197753906, 0.03307065740227699, -0.2890220880508423, 9.640275001525879, -1.1689952611923218, -1.5811538696289062, 0.24333523213863373, 
543, 597864578, -0.8517550826072693, 0.6941084265708923, 41.0920524597168, 0.7134172320365906, 0.0794321745634079, 9.821510314941406, -0.44667378067970276, -1.020125150680542, 0.2471773475408554, 
544, 597872911, -0.8504164218902588, 0.7022254467010498, 41.08768844604492, 0.3361693024635315, -0.06503364443778992, 9.839400291442871, -0.8165690302848816, 0.12994101643562317, -0.2238299697637558, 
545, 597881244, -0.8503756523132324, 0.7079430818557739, 41.08839416503906, -0.9580162763595581, -0.21546511352062225, 9.78809928894043, -0.9784253835678101, -0.1687849909067154, 0.3548339605331421, 
546, 597889577, -0.85260009765625, 0.7024087905883789, 41.09190368652344, -0.5061517953872681, -0.17710356414318085, 9.407248497009277, -1.255673885345459, -1.5245208740234375, 0.729800820350647, 
547, 597897910, -0.8569860458374023, 0.6982659697532654, 41.09238815307617, -0.032367728650569916, -0.19299498200416565, 9.641929626464844, -1.5096389055252075, -1.3497036695480347, 0.3101883828639984, 
548, 597906243, -0.8539083003997803, 0.6947261095046997, 41.09110641479492, 0.41500070691108704, -0.13294991850852966, 9.79477310180664, -0.6114502549171448, -1.2759345769882202, 0.11295877397060394, 
549, 597914576, -0.8507217168807983, 0.7003479599952698, 41.087032318115234, 0.584401547908783, 0.07618492841720581, 9.71247386932373, -0.5951083302497864, -0.1702450066804886, -0.21939872205257416, 
550, 597922909, -0.8493320345878601, 0.7081860899925232, 41.08639144897461, -0.6753353476524353, -0.191045343875885, 9.897762298583984, -0.8153138160705566, 0.08813857287168503, 0.24438539147377014, 
551, 597931242, -0.8518642783164978, 0.7042262554168701, 41.090572357177734, -0.7008011937141418, -0.13399244844913483, 9.576733589172363, -1.292174220085144, -1.33589768409729, 0.7535964846611023, 
552, 597939575, -0.857258141040802, 0.7003522515296936, 41.09144592285156, -0.09156923741102219, -0.04789339751005173, 9.518664360046387, -1.6329841613769531, -1.3204394578933716, 0.4711354076862335, 
553, 597947908, -0.8584306836128235, 0.6954106688499451, 41.090755462646484, 0.20587310194969177, -0.36773115396499634, 9.70534896850586, -1.1222237348556519, -1.4447836875915527, 0.16805499792099, 
554, 597956241, -0.8535951375961304, 0.697285532951355, 41.08711624145508, 0.7373151779174805, -0.0024104153271764517, 9.804716110229492, -0.39885208010673523, -0.6228741407394409, -0.07908394932746887, 
555, 597964574, -0.8509195446968079, 0.7069752216339111, 41.086181640625, -0.2973722815513611, -0.18472932279109955, 9.957250595092773, -0.6599123477935791, 0.3125961124897003, 0.1631370633840561, 
556, 597972907, -0.8508652448654175, 0.708710789680481, 41.08804702758789, -0.9647611379623413, -0.12647657096385956, 9.664957046508789, -0.9780922532081604, -0.645747721195221, 0.41833168268203735, 
557, 597981240, -0.8548110127449036, 0.7048431634902954, 41.091148376464844, -0.2668509781360626, -0.02633957378566265, 9.430073738098145, -1.460433840751648, -1.322885513305664, 0.6252690553665161, 
558, 597989573, -0.857892632484436, 0.6993722915649414, 41.09278106689453, 0.01820405200123787, -0.32906660437583923, 9.650763511657715, -1.3556973934173584, -1.5118674039840698, 0.43285495042800903, 
559, 597997906, -0.8559123873710632, 0.6966390609741211, 41.09282684326172, 0.6868231296539307, 0.03416913002729416, 9.784631729125977, -0.7450795769691467, -1.1809827089309692, 0.2613164186477661, 
560, 598006239, -0.8546410202980042, 0.7058373689651489, 41.08968734741211, 0.1518763154745102, -0.19947132468223572, 9.809258460998535, -0.8250985741615295, 0.258498877286911, -0.1773914098739624, 
561, 598014572, -0.8539901375770569, 0.7098053097724915, 41.090782165527344, -1.0042593479156494, -0.3298105001449585, 9.797805786132812, -0.9054503440856934, -0.378283828496933, 0.3967388868331909, 
562, 598022905, -0.8550260066986084, 0.704782247543335, 41.094337463378906, -0.4912826120853424, -0.1258133053779602, 9.446549415588379, -1.112490177154541, -1.463200330734253, 0.6723480820655823, 
563, 598031238, -0.8584182858467102, 0.7002636194229126, 41.09288787841797, -0.09356188774108887, -0.21535298228263855, 9.552282333374023, -1.3877663612365723, -1.390865683555603, 0.07855885475873947, 
564, 598039571, -0.854225754737854, 0.6959389448165894, 41.091941833496094, 0.45713818073272705, -0.09708553552627563, 9.760147094726562, -0.4772571921348572, -1.370963454246521, 0.12481816112995148, 
565, 598047904, -0.8512195944786072, 0.7016819715499878, 41.08989334106445, 0.5104197263717651, -0.0005221575265750289, 9.723682403564453, -0.6188527345657349, -0.1589491218328476, 0.023308953270316124, 
566, 598056237, -0.8520250916481018, 0.7088398337364197, 41.08957290649414, -0.8385134935379028, -0.14257046580314636, 9.867117881774902, -1.0809589624404907, 0.00601934501901269, 0.31910207867622375, 
567, 598064570, -0.8547652363777161, 0.705835223197937, 41.0931396484375, -0.7262983322143555, -0.23573631048202515, 9.465901374816895, -1.3156367540359497, -1.220428466796875, 0.6807494759559631, 
568, 598072903, -0.8597847819328308, 0.7012608051300049, 41.094120025634766, -0.1607002168893814, -0.18228846788406372, 9.494656562805176, -1.5875062942504883, -1.4046462774276733, 0.43008866906166077, 
569, 598081236, -0.8565441966056824, 0.6947942972183228, 41.093624114990234, 0.2105821818113327, -0.33831673860549927, 9.689712524414062, -0.5933665633201599, -1.627669334411621, 0.18862321972846985, 
570, 598089569, -0.8518843054771423, 0.6967499256134033, 41.089080810546875, 0.6717450618743896, 0.06633572280406952, 9.757563591003418, -0.41716620326042175, -0.6096059679985046, -0.28940242528915405, 
571, 598097902, -0.8502208590507507, 0.7065422534942627, 41.08692169189453, -0.37642547488212585, -0.1935988962650299, 9.893842697143555, -0.7793514728546143, 0.3265814781188965, 0.01698223687708378, 
572, 598106235, -0.8506346940994263, 0.7053751945495605, 41.089813232421875, -0.8774034976959229, -0.16845659911632538, 9.586597442626953, -1.0368257761001587, -0.9982250928878784, 0.6607447862625122, 
573, 598114568, -0.8548101782798767, 0.7010747790336609, 41.09321975708008, -0.2416219562292099, -0.0345476008951664, 9.423417091369629, -1.4894036054611206, -1.3759326934814453, 0.658695638179779, 
574, 598122901, -0.8571649789810181, 0.6956850290298462, 41.094051361083984, 0.02588427998125553, -0.37029537558555603, 9.65312385559082, -1.266201138496399, -1.499854326248169, 0.32704252004623413, 
575, 598131234, -0.8523754477500916, 0.6940714716911316, 41.091854095458984, 0.6510589122772217, 0.009019735269248486, 9.719618797302246, -0.40400052070617676, -1.0427427291870117, -0.010207273066043854, 
576, 598139567, -0.8489891290664673, 0.7021018266677856, 41.08816909790039, 0.07667132467031479, -0.17487986385822296, 9.813006401062012, -0.5711077451705933, 0.11687774211168289, -0.1845889836549759, 
577, 598147900, -0.8481665253639221, 0.7054998278617859, 41.08957290649414, -0.9585453271865845, -0.11400201171636581, 9.826239585876465, -0.8858042359352112, -0.4461614787578583, 0.43316230177879333, 
578, 598156233, -0.8505238890647888, 0.7008318305015564, 41.091957092285156, -0.418924480676651, -0.029384199529886246, 9.438283920288086, -1.270094633102417, -1.41817045211792, 0.6299309134483337, 
579, 598164566, -0.8549925088882446, 0.6951742768287659, 41.09184265136719, -0.08936157077550888, -0.2580300569534302, 9.583049774169922, -1.5191419124603271, -1.5323331356048584, 0.23585587739944458, 
580, 598172899, -0.8519691228866577, 0.6904409527778625, 41.09065628051758, 0.5361341834068298, -0.08350944519042969, 9.737451553344727, -0.6192625164985657, -1.4193487167358398, 0.15030433237552643, 
581, 598181232, -0.8491071462631226, 0.6970229744911194, 41.087913513183594, 0.5857033729553223, -0.058832135051488876, 9.786591529846191, -0.6342723965644836, -0.05823396146297455, -0.05869501829147339, 
582, 598189565, -0.8489013314247131, 0.7038887143135071, 41.08669662475586, -0.7780291438102722, -0.21648791432380676, 9.929417610168457, -0.9578059911727905, -0.026139330118894577, 0.19395099580287933, 
583, 598197898, -0.8505299687385559, 0.7005259990692139, 41.089481353759766, -0.6592047214508057, -0.17842340469360352, 9.450798988342285, -1.1822633743286133, -1.2614370584487915, 0.5863610506057739, 
584, 598206231, -0.8529911637306213, 0.6966389417648315, 41.09032440185547, -0.1845521330833435, -0.11055988073348999, 9.551496505737305, -1.2799049615859985, -1.32219398021698, 0.4113902449607849, 
585, 598214564, -0.8502179384231567, 0.690783679485321, 41.09109878540039, 0.20476609468460083, -0.204643115401268, 9.753382682800293, -0.6506400108337402, -1.5568971633911133, 0.3410022556781769, 
586, 598222897, -0.8468918204307556, 0.693764328956604, 41.0855827331543, 0.7397544384002686, 0.21512198448181152, 9.697744369506836, -0.5757695436477661, -0.48506954312324524, -0.3306669294834137, 
587, 598231230, -0.8460227251052856, 0.7029731869697571, 41.08283615112305, -0.3415840268135071, -0.17409303784370422, 9.913104057312012, -0.8745339512825012, 0.2569107413291931, -0.05188162997364998, 
588, 598239563, -0.8480982184410095, 0.7017616033554077, 41.08657455444336, -0.8483246564865112, -0.1943976730108261, 9.691291809082031, -1.238742709159851, -1.0059349536895752, 0.8678614497184753, 
589, 598247896, -0.8525604605674744, 0.6976454257965088, 41.08942413330078, -0.21849650144577026, -0.050222981721162796, 9.437952995300293, -1.5224204063415527, -1.3521114587783813, 0.5928158164024353, 
590, 598256229, -0.8543489575386047, 0.691508412361145, 41.087127685546875, -0.04317890480160713, -0.46136316657066345, 9.666767120361328, -1.194916844367981, -1.58655846118927, 0.03975329175591469, 
591, 598264562, -0.8480205535888672, 0.6901932954788208, 41.08469009399414, 0.7200050950050354, -0.025213733315467834, 9.769988059997559, -0.21993663907051086, -1.0055508613586426, -0.03743520751595497, 
592, 598272895, -0.8443735837936401, 0.6983928680419922, 41.08112335205078, 0.1946432888507843, -0.09754334390163422, 9.863547325134277, -0.5416514277458191, 0.13670316338539124, -0.07944254577159882, 
593, 598281228, -0.8451595306396484, 0.7034648060798645, 41.082733154296875, -0.9576511979103088, -0.05604967847466469, 9.763988494873047, -1.0796271562576294, -0.24721579253673553, 0.4622088372707367, 
594, 598289561, -0.8505371809005737, 0.6997013688087463, 41.084716796875, -0.4283718764781952, -0.11156745254993439, 9.377846717834473, -1.633176326751709, -1.3099247217178345, 0.6240395307540894, 
595, 598297894, -0.855384111404419, 0.695219874382019, 41.086280822753906, -0.14355330169200897, -0.2994772791862488, 9.610007286071777, -1.5665794610977173, -1.39276123046875, 0.43833643198013306, 
596, 598306227, -0.8527637720108032, 0.6909932494163513, 41.0863037109375, 0.5176441073417664, -0.08871670812368393, 9.758838653564453, -0.6681857705116272, -1.3608715534210205, 0.304322749376297, 
597, 598314560, -0.8516358733177185, 0.69757080078125, 41.080780029296875, 0.5177013278007507, -0.04943329840898514, 9.728918075561523, -0.8394680619239807, -0.05434059724211693, -0.39134708046913147, 
