sep=,
PacketCounter,SampleTimeFine,Euler_X,Euler_Y,Euler_Z,Acc_X,Acc_Y,Acc_Z,Gyr_X,Gyr_Y,Gyr_Z,Mag_X,Mag_Y,Mag_Z,Status,
0, 593323093, 87.08086395263672, -65.43330383300781, -121.78062438964844, 0, 0, 0, 0, 0, 0, -0.541015625, -0.07666015625, -0.7509765625, 0, 
1, 593331426, 87.09477233886719, -65.42733001708984, -121.7926254272461, 7.884516716003418, 2.0078842639923096, -0.20233766734600067, 3.400007724761963, -1.8638324737548828, 0.28795522451400757, -0.5419921875, -0.07373046875, -0.77734375, 0, 
2, 593339759, 87.15107727050781, -65.42401885986328, -121.80963897705078, 9.739070892333984, 5.171578884124756, 0.10703882575035095, 8.027628898620605, -2.0324766635894775, 0.6040861010551453, -0.54150390625, -0.0751953125, -0.7685546875, 0, 
3, 593348092, 87.14596557617188, -65.4282455444336, -121.82598876953125, 10.64151668548584, 6.992427349090576, 1.0393003225326538, 0.728725016117096, -2.0391108989715576, 1.511957049369812, -0.541015625, -0.07861328125, -0.75830078125, 0, 
4, 593356425, 87.11600494384766, -65.43804931640625, -121.8019027709961, 9.579140663146973, 4.9050726890563965, -1.6578822135925293, 2.1382508277893066, -0.13036364316940308, 2.264580011367798, -0.5390625, -0.0830078125, -0.74951171875, 0, 
5, 593364758, 87.08111572265625, -65.43568420410156, -121.78716278076172, 7.787843704223633, 2.2092413902282715, 2.855894088745117, 0.5497839450836182, -0.4522320628166199, 0.7988311052322388, -0.53955078125, -0.0810546875, -0.74560546875, 0, 
6, 593373091, 87.091064453125, -65.43138122558594, -121.79115295410156, 7.428297519683838, 1.5252431631088257, -1.8348573446273804, 4.171048164367676, -1.3030089139938354, 0.5182528495788574, -0.541015625, -0.072265625, -0.77001953125, 0, 
7, 593381424, 87.1463851928711, -65.42566680908203, -121.81584930419922, 9.050951957702637, 4.255099773406982, 2.840400457382202, 7.08873987197876, -2.4466845989227295, 0.2897738516330719, -0.5400390625, -0.0751953125, -0.77392578125, 0, 
8, 593389757, 87.15715026855469, -65.42686462402344, -121.832763671875, 10.692442893981934, 6.683775424957275, -1.81243097782135, 2.5747175216674805, -2.050534963607788, 1.1465444564819336, -0.53857421875, -0.07421875, -0.76708984375, 0, 
9, 593398090, 87.13214874267578, -65.43658447265625, -121.81394958496094, 10.21553897857666, 6.0026397705078125, 0.6780504584312439, 2.1775431632995605, -0.3219837546348572, 2.2594571113586426, -0.53662109375, -0.0771484375, -0.76220703125, 0, 
10, 593406423, 87.09473419189453, -65.43934631347656, -121.80670166015625, 8.154401779174805, 2.961364507675171, 0.7603740096092224, -0.4826618432998657, -0.8768904805183411, 1.385396957397461, -0.537109375, -0.0771484375, -0.75, 0, 
11, 593414756, 87.0903549194336, -65.43334197998047, -121.79120635986328, 7.302456378936768, 1.2126539945602417, -0.4083424508571625, 4.291332244873047, -0.3919106423854828, 0.36300498247146606, -0.53955078125, -0.0712890625, -0.77197265625, 0, 
12, 593423089, 87.12547302246094, -65.42748260498047, -121.81309509277344, 8.488200187683105, 3.193730115890503, 2.7475931644439697, 4.768320083618164, -2.403780460357666, 0.27379053831100464, -0.537109375, -0.0673828125, -0.783203125, 0, 
13, 593431422, 87.16717529296875, -65.42463684082031, -121.8309326171875, 10.371358871459961, 6.0752339363098145, -2.750276803970337, 6.098083019256592, -2.173201322555542, 0.651498019695282, -0.5400390625, -0.07080078125, -0.77685546875, 0, 
14, 593439755, 87.15306091308594, -65.43406677246094, -121.8309326171875, 10.497173309326172, 6.705580711364746, 2.638895034790039, 1.4349863529205322, -1.257697343826294, 2.1720359325408936, -0.53857421875, -0.0791015625, -0.76708984375, 0, 
15, 593448088, 87.11428833007812, -65.44000244140625, -121.81634521484375, 8.602776527404785, 3.84952449798584, -1.8366106748580933, 0.06721175462007523, -0.5103251934051514, 1.7931756973266602, -0.541015625, -0.0810546875, -0.7568359375, 0, 
16, 593456421, 87.09423828125, -65.43537902832031, -121.79341888427734, 7.403368949890137, 1.4930503368377686, 2.050999164581299, 3.3499069213867188, -0.030468134209513664, 0.5449429154396057, -0.537109375, -0.07177734375, -0.77001953125, 0, 
17, 593464754, 87.10891723632812, -65.43037414550781, -121.80938720703125, 8.02740478515625, 2.2476255893707275, 0.19436481595039368, 3.1479125022888184, -1.9659820795059204, 0.4049866497516632, -0.54150390625, -0.06884765625, -0.7802734375, 0, 
18, 593473087, 87.16622924804688, -65.42579650878906, -121.82772064208984, 9.93693733215332, 5.263663291931152, -0.6196019053459167, 7.951451778411865, -2.1727402210235596, 0.44251149892807007, -0.537109375, -0.07421875, -0.7783203125, 0, 
19, 593481420, 87.15643310546875, -65.43190002441406, -121.84127044677734, 10.59217357635498, 7.020063877105713, 1.5491046905517578, 0.5390771627426147, -1.9428781270980835, 1.7367987632751465, -0.54052734375, -0.076171875, -0.7705078125, 0, 
20, 593489753, 87.12191772460938, -65.44002532958984, -121.81574249267578, 9.319416046142578, 4.720240592956543, -1.8339296579360962, 1.7708401679992676, 0.0219770148396492, 2.076904773712158, -0.5380859375, -0.07861328125, -0.7568359375, 0, 
21, 593498086, 87.0907211303711, -65.4380111694336, -121.80068969726562, 7.727109432220459, 1.989884853363037, 2.7890584468841553, 1.0275661945343018, -0.4383748471736908, 0.8428876996040344, -0.53564453125, -0.076171875, -0.759765625, 0, 
22, 593506419, 87.101318359375, -65.43201446533203, -121.80511474609375, 7.492118835449219, 1.6523841619491577, -1.5885581970214844, 4.062212944030762, -1.3842829465866089, 0.30655115842819214, -0.54052734375, -0.07080078125, -0.77880859375, 0, 
23, 593514752, 87.15692901611328, -65.42735290527344, -121.82678985595703, 9.183659553527832, 4.510870933532715, 2.425790309906006, 7.435070037841797, -2.253706932067871, 0.43569818139076233, -0.5400390625, -0.07177734375, -0.77880859375, 0, 
24, 593523085, 87.16120910644531, -65.42897033691406, -121.84185028076172, 10.656861305236816, 6.720680236816406, -1.285933256149292, 2.117733955383301, -1.96370267868042, 1.1963640451431274, -0.541015625, -0.07421875, -0.77392578125, 0, 
25, 593531418, 87.13774108886719, -65.43840026855469, -121.82476806640625, 10.12584400177002, 5.742628574371338, 0.21370284259319305, 2.191784620285034, -0.46237537264823914, 2.2047197818756104, -0.5400390625, -0.0791015625, -0.76513671875, 0, 
26, 593539751, 87.0999755859375, -65.44047546386719, -121.81817626953125, 8.094318389892578, 2.9165918827056885, 1.1521810293197632, -0.6837078928947449, -0.8838063478469849, 1.3085542917251587, -0.537109375, -0.07958984375, -0.7548828125, 0, 
27, 593548084, 87.09721374511719, -65.43582153320312, -121.80233001708984, 7.347158432006836, 1.225338339805603, -0.9209398627281189, 4.526854991912842, -0.38243335485458374, 0.5276276469230652, -0.537109375, -0.0693359375, -0.77490234375, 0, 
28, 593556417, 87.13613891601562, -65.42940521240234, -121.82280731201172, 8.553977012634277, 3.3484950065612793, 3.1462483406066895, 5.164828777313232, -2.427781105041504, 0.2063482701778412, -0.54150390625, -0.07275390625, -0.77978515625, 0, 
29, 593564750, 87.1654281616211, -65.427734375, -121.83769226074219, 10.367534637451172, 6.280945301055908, -3.192718505859375, 5.018059253692627, -1.9332727193832397, 0.8086414933204651, -0.5390625, -0.0771484375, -0.77490234375, 0, 
30, 593573083, 87.1478042602539, -65.4364242553711, -121.83307647705078, 10.517683982849121, 6.704428672790527, 2.6509125232696533, 1.7361584901809692, -0.9847264289855957, 2.0963714122772217, -0.5380859375, -0.07275390625, -0.76708984375, 0, 
31, 593581416, 87.10982513427734, -65.44287109375, -121.82450866699219, 8.586216926574707, 3.5236282348632812, -1.1194185018539429, -0.42638733983039856, -0.8451544642448425, 1.827959656715393, -0.53759765625, -0.07568359375, -0.75341796875, 0, 
32, 593589749, 87.09493255615234, -65.43799591064453, -121.80148315429688, 7.410823822021484, 1.288931965827942, 1.0797263383865356, 3.8533029556274414, -0.02224596217274666, 0.5194054245948792, -0.5390625, -0.0712890625, -0.76953125, 0, 
33, 593598082, 87.11402893066406, -65.43218994140625, -121.8198013305664, 8.0621976852417, 2.6046712398529053, 1.2831425666809082, 3.4203710556030273, -2.0780699253082275, 0.3017100691795349, -0.5400390625, -0.0693359375, -0.78125, 0, 
34, 593606415, 87.16815948486328, -65.42882537841797, -121.83967590332031, 9.949311256408691, 5.37795877456665, -1.3879437446594238, 7.478128433227539, -2.2221250534057617, 0.5878467559814453, -0.53857421875, -0.07373046875, -0.77392578125, 0, 
35, 593614748, 87.15962219238281, -65.4345474243164, -121.84878540039062, 10.581705093383789, 6.873813629150391, 1.6903603076934814, 1.1079182624816895, -1.6895534992218018, 1.7054470777511597, -0.53857421875, -0.072265625, -0.76904296875, 0, 
36, 593623081, 87.12017059326172, -65.44245147705078, -121.8247299194336, 9.19416618347168, 4.601261615753174, -1.724180817604065, 1.0750551223754883, -0.082772396504879, 2.0421462059020996, -0.5380859375, -0.078125, -0.7578125, 0, 
37, 593631414, 87.08721160888672, -65.44087982177734, -121.80331420898438, 7.628590106964111, 1.9610868692398071, 2.4800217151641846, 1.5165165662765503, -0.18507567048072815, 0.9053863883018494, -0.5390625, -0.076171875, -0.759765625, 0, 
38, 593639747, 87.098876953125, -65.43521118164062, -121.81069946289062, 7.613220691680908, 1.7240817546844482, -1.1433850526809692, 3.7231059074401855, -1.5335626602172852, 0.3469191789627075, -0.54150390625, -0.07177734375, -0.77978515625, 0, 
39, 593648080, 87.15736389160156, -65.42955017089844, -121.83467864990234, 9.42823600769043, 4.614220142364502, 1.8395533561706543, 7.530073642730713, -2.362337112426758, 0.30585962533950806, -0.5380859375, -0.072265625, -0.7783203125, 0, 
40, 593656413, 87.15673828125, -65.43197631835938, -121.8520278930664, 10.596034049987793, 6.850271224975586, -0.6650362610816956, 1.5068086385726929, -1.9829132556915283, 1.2915210723876953, -0.53759765625, -0.07470703125, -0.7705078125, 0, 
41, 593664746, 87.13182830810547, -65.44183349609375, -121.83018493652344, 9.94437313079834, 5.512262344360352, -0.3869503140449524, 2.5230023860931396, -0.17080853879451752, 2.2785143852233887, -0.537109375, -0.076171875, -0.76171875, 0, 
42, 593673079, 87.09405517578125, -65.44231414794922, -121.82127380371094, 8.018572807312012, 2.6856637001037598, 1.9500223398208618, -0.366373211145401, -0.7886238694190979, 1.1205203533172607, -0.53564453125, -0.0771484375, -0.7529296875, 0, 
43, 593681412, 87.09532165527344, -65.43685150146484, -121.81596374511719, 7.266646385192871, 1.2961618900299072, -1.5596363544464111, 4.410489559173584, -0.7145218849182129, 0.4032961428165436, -0.54150390625, -0.072265625, -0.77001953125, 0, 
44, 593689745, 87.13793182373047, -65.43033599853516, -121.83843231201172, 8.69212532043457, 3.7310397624969482, 3.118384838104248, 5.788740634918213, -2.2807555198669434, 0.20675812661647797, -0.53857421875, -0.07080078125, -0.779296875, 0, 
45, 593698078, 87.16590881347656, -65.42918395996094, -121.85821533203125, 10.572650909423828, 6.248817443847656, -2.6303372383117676, 4.326218605041504, -2.1788878440856934, 0.8602797985076904, -0.53759765625, -0.072265625, -0.771484375, 0, 
46, 593706411, 87.14830780029297, -65.43824005126953, -121.85045623779297, 10.477452278137207, 6.412342071533203, 1.8676360845565796, 1.6713546514511108, -1.0177432298660278, 2.136483669281006, -0.541015625, -0.07373046875, -0.76513671875, 0, 
47, 593714744, 87.10977172851562, -65.44351196289062, -121.84024810791016, 8.419293403625488, 3.5825252532958984, -0.5485429167747498, -0.38609614968299866, -0.7240503430366516, 1.7001960277557373, -0.53857421875, -0.078125, -0.748046875, 0, 
48, 593723077, 87.09721374511719, -65.43905639648438, -121.81818389892578, 7.325821876525879, 1.3814506530761719, 0.9884901642799377, 3.9248435497283936, -0.17979910969734192, 0.553805410861969, -0.53759765625, -0.07177734375, -0.76318359375, 0, 
49, 593731410, 87.1169662475586, -65.43302154541016, -121.83474731445312, 8.116227149963379, 2.4866437911987305, 1.363738775253296, 3.6217246055603027, -2.083986759185791, 0.26795050501823425, -0.5419921875, -0.0712890625, -0.7822265625, 0, 
50, 593739743, 87.17095184326172, -65.42922973632812, -121.8538818359375, 10.040360450744629, 5.572587013244629, -1.6574074029922485, 7.518316268920898, -2.130297899246216, 0.5445586442947388, -0.53857421875, -0.07373046875, -0.77490234375, 0, 
51, 593748076, 87.16221618652344, -65.43549346923828, -121.86397552490234, 10.561206817626953, 6.977421760559082, 2.2490134239196777, 0.9779515266418457, -1.7423444986343384, 1.7715319395065308, -0.53955078125, -0.07763671875, -0.765625, 0, 
52, 593756409, 87.1247787475586, -65.44390106201172, -121.84285736083984, 9.147375106811523, 4.410629749298096, -2.207881212234497, 1.0012602806091309, -0.23256444931030273, 2.0952956676483154, -0.53759765625, -0.07861328125, -0.75341796875, 0, 
53, 593764742, 87.09632873535156, -65.44114685058594, -121.8241958618164, 7.675878524780273, 1.8962002992630005, 2.6274430751800537, 1.7466857433319092, -0.25372177362442017, 0.7623820304870605, -0.53662109375, -0.0751953125, -0.7548828125, 0, 
54, 593773075, 87.1102294921875, -65.43585968017578, -121.83869171142578, 7.651411056518555, 1.8058537244796753, -1.0221266746520996, 3.604307174682617, -1.771723747253418, 0.37837347388267517, -0.5380859375, -0.06982421875, -0.77685546875, 0, 
55, 593781408, 87.16876220703125, -65.43045043945312, -121.85965728759766, 9.411273002624512, 4.639749050140381, 1.4770342111587524, 7.71280574798584, -2.3419227600097656, 0.3270682394504547, -0.5390625, -0.07275390625, -0.77783203125, 0, 
56, 593789741, 87.16722869873047, -65.4329605102539, -121.8731460571289, 10.655619621276855, 6.849411487579346, -0.4169621765613556, 1.4729467630386353, -1.888217568397522, 1.3110390901565552, -0.5361328125, -0.0751953125, -0.7685546875, 0, 
57, 593798074, 87.14025115966797, -65.44217681884766, -121.85118865966797, 9.81105899810791, 5.42216682434082, -0.5106943249702454, 2.2843289375305176, -0.1619972288608551, 2.206794500350952, -0.537109375, -0.0791015625, -0.76123046875, 0, 
58, 593806407, 87.10224151611328, -65.44345092773438, -121.83860778808594, 7.961535930633545, 2.6711792945861816, 1.8436739444732666, 0.05791378766298294, -0.5928030610084534, 1.2204927206039429, -0.53857421875, -0.07763671875, -0.75439453125, 0, 
59, 593814740, 87.10356903076172, -65.43728637695312, -121.83024597167969, 7.35469913482666, 1.4023220539093018, -1.2780555486679077, 4.197993755340576, -0.7468470931053162, 0.32696571946144104, -0.53759765625, -0.0732421875, -0.77392578125, 0, 
60, 593823073, 87.1481704711914, -65.43146514892578, -121.85384368896484, 8.798799514770508, 3.752251386642456, 3.028536796569824, 5.778213977813721, -2.461848497390747, 0.2779656946659088, -0.5458984375, -0.07763671875, -0.76953125, 0, 
61, 593831406, 87.17724609375, -65.42986297607422, -121.87366485595703, 10.611536979675293, 6.213057041168213, -2.5405309200286865, 4.543248176574707, -2.2016329765319824, 0.7981138825416565, -0.54296875, -0.07958984375, -0.7646484375, 0, 
62, 593839739, 87.16349792480469, -65.43824005126953, -121.87112426757812, 10.346748352050781, 6.349282264709473, 1.9160410165786743, 1.7546263933181763, -1.1239142417907715, 2.0539543628692627, -0.5419921875, -0.08349609375, -0.75, 0, 
63, 593848072, 87.12632751464844, -65.44205474853516, -121.8603286743164, 8.319684982299805, 3.6107089519500732, -0.7910182476043701, -0.15103434026241302, -0.6861412525177002, 1.5248409509658813, -0.5390625, -0.08544921875, -0.7373046875, 0, 
64, 593856405, 87.11016845703125, -65.43807983398438, -121.8362045288086, 7.356637001037598, 1.4927209615707397, 1.0763424634933472, 3.806352138519287, -0.0446840338408947, 0.6256276965141296, -0.54150390625, -0.07666015625, -0.75, 0, 
65, 593864738, 87.12867736816406, -65.43179321289062, -121.85346984863281, 8.177186012268066, 2.531507730484009, 1.1262133121490479, 3.465528964996338, -2.025074005126953, 0.2448720782995224, -0.54296875, -0.07373046875, -0.76416015625, 0, 
66, 593873071, 87.17986297607422, -65.42768859863281, -121.87207794189453, 10.0789794921875, 5.524620532989502, -1.5677142143249512, 7.313351631164551, -2.1329874992370605, 0.4984019100666046, -0.54052734375, -0.0771484375, -0.763671875, 0, 
67, 593881404, 87.1709976196289, -65.43421173095703, -121.88230895996094, 10.491177558898926, 6.940822124481201, 2.2753827571868896, 0.8858428001403809, -1.8351705074310303, 1.786721110343933, -0.54248046875, -0.078125, -0.75732421875, 0, 
68, 593889737, 87.1343765258789, -65.44342803955078, -121.86141967773438, 9.105749130249023, 4.430976867675781, -2.0640273094177246, 1.0141444206237793, -0.21437835693359375, 2.2011337280273438, -0.54150390625, -0.08447265625, -0.74365234375, 0, 
69, 593898070, 87.10626983642578, -65.4407958984375, -121.84309387207031, 7.744546413421631, 1.9300633668899536, 2.654277801513672, 1.756726622581482, -0.27326545119285583, 0.7746000289916992, -0.5390625, -0.078125, -0.75244140625, 0, 
70, 593906403, 87.11824798583984, -65.43450164794922, -121.8536605834961, 7.6473188400268555, 1.8362702131271362, -1.0994927883148193, 3.5714950561523438, -1.676899790763855, 0.2612908184528351, -0.5439453125, -0.07373046875, -0.76953125, 0, 
71, 593914736, 87.17897033691406, -65.42803192138672, -121.87825012207031, 9.372685432434082, 4.665500640869141, 1.5337692499160767, 7.862570762634277, -2.3891806602478027, 0.2058359831571579, -0.54296875, -0.07763671875, -0.767578125, 0, 
72, 593923069, 87.17967224121094, -65.4300537109375, -121.89192962646484, 10.595719337463379, 6.777145862579346, -0.4632471203804016, 1.7208669185638428, -1.8946722745895386, 1.2507944107055664, -0.5419921875, -0.076171875, -0.76171875, 0, 
73, 593931402, 87.15477752685547, -65.43974304199219, -121.8735122680664, 9.874136924743652, 5.504189968109131, -0.444052517414093, 2.1466777324676514, -0.34075894951820374, 2.252899646759033, -0.541015625, -0.08349609375, -0.75048828125, 0, 
74, 593939735, 87.11862182617188, -65.44157409667969, -121.86587524414062, 8.022414207458496, 2.765310525894165, 1.762474775314331, -0.37807896733283997, -0.8946412205696106, 1.2740263938903809, -0.53955078125, -0.0810546875, -0.740234375, 0, 
75, 593948068, 87.11714172363281, -65.43659973144531, -121.85469055175781, 7.385432243347168, 1.3865793943405151, -1.237144947052002, 4.171022415161133, -0.6133456826210022, 0.47716763615608215, -0.54296875, -0.07373046875, -0.76220703125, 0, 
76, 593956401, 87.16230773925781, -65.43102264404297, -121.88319396972656, 8.755992889404297, 3.5673937797546387, 3.146592617034912, 5.653984546661377, -2.5520617961883545, 0.2989949882030487, -0.54150390625, -0.072265625, -0.77197265625, 0, 
77, 593964734, 87.1912612915039, -65.42933654785156, -121.90359497070312, 10.440536499023438, 6.161890983581543, -2.768454074859619, 4.793755054473877, -2.0792739391326904, 0.798907995223999, -0.5439453125, -0.07958984375, -0.7646484375, 0, 
78, 593973067, 87.17444610595703, -65.43719482421875, -121.89582061767578, 10.371404647827148, 6.429594039916992, 2.0771265029907227, 1.9598987102508545, -0.8630588054656982, 2.0029819011688232, -0.54052734375, -0.08056640625, -0.7529296875, 0, 
79, 593981400, 87.13787078857422, -65.44276428222656, -121.8858642578125, 8.371776580810547, 3.638725757598877, -0.7812869548797607, -0.17577770352363586, -0.7389066815376282, 1.736696481704712, -0.5400390625, -0.0830078125, -0.7470703125, 0, 
80, 593989733, 87.11859893798828, -65.43905639648438, -121.859375, 7.371109962463379, 1.4784003496170044, 0.9445616006851196, 3.7312257289886475, 0.09085368365049362, 0.6585419178009033, -0.5419921875, -0.076171875, -0.7548828125, 0, 
81, 593998066, 87.13719177246094, -65.43389129638672, -121.87755584716797, 8.23440933227539, 2.5668528079986572, 1.3042335510253906, 3.3772623538970947, -2.077019453048706, 0.38116538524627686, -0.5419921875, -0.07568359375, -0.7734375, 0, 
82, 594006399, 87.19153594970703, -65.43012237548828, -121.89891815185547, 10.10344123840332, 5.399643421173096, -1.414188265800476, 7.433072090148926, -2.250633478164673, 0.5346716642379761, -0.5419921875, -0.0771484375, -0.76708984375, 0, 
83, 594014732, 87.18106842041016, -65.43667602539062, -121.9062728881836, 10.526644706726074, 6.9127583503723145, 1.9686965942382812, 0.9346634745597839, -1.7292299270629883, 1.796608328819275, -0.53955078125, -0.07763671875, -0.7626953125, 0, 
84, 594023065, 87.14407348632812, -65.4439697265625, -121.88312530517578, 9.10184097290039, 4.494324207305908, -1.7447510957717896, 1.2125521898269653, -0.09368405491113663, 1.974473237991333, -0.537109375, -0.0830078125, -0.7470703125, 0, 
85, 594031398, 87.11043548583984, -65.44197845458984, -121.86103820800781, 7.657332897186279, 1.9469701051712036, 2.3727495670318604, 1.5025053024291992, -0.08971385657787323, 0.8613297939300537, -0.5400390625, -0.078125, -0.748046875, 0, 
86, 594039731, 87.1216812133789, -65.43576049804688, -121.86682891845703, 7.659443378448486, 1.78032648563385, -1.0689631700515747, 3.77374529838562, -1.5445512533187866, 0.27660810947418213, -0.54345703125, -0.07421875, -0.7685546875, 0, 
87, 594048064, 87.17862701416016, -65.43089294433594, -121.8900375366211, 9.372695922851562, 4.619874954223633, 1.7372817993164062, 7.428846836090088, -2.3260931968688965, 0.40580639243125916, -0.54443359375, -0.07763671875, -0.767578125, 0, 
88, 594056397, 87.17516326904297, -65.43223571777344, -121.90103912353516, 10.618783950805664, 6.7633585929870605, -0.6350271105766296, 1.916892647743225, -1.6342265605926514, 1.1773327589035034, -0.541015625, -0.07421875, -0.76318359375, 0, 
89, 594064730, 87.1506118774414, -65.44188690185547, -121.88150024414062, 9.943475723266602, 5.583439826965332, -0.15965670347213745, 2.0649685859680176, -0.4609409272670746, 2.237762212753296, -0.54150390625, -0.08203125, -0.7578125, 0, 
90, 594073063, 87.11387634277344, -65.44277954101562, -121.87187194824219, 8.038501739501953, 2.84413480758667, 1.479744553565979, -0.22700613737106323, -0.7254847884178162, 1.1711596250534058, -0.53857421875, -0.0810546875, -0.74658203125, 0, 
91, 594081396, 87.10926818847656, -65.43657684326172, -121.8568344116211, 7.385855197906494, 1.2745590209960938, -0.9919085502624512, 4.215002059936523, -0.41488659381866455, 0.3423086404800415, -0.5439453125, -0.07373046875, -0.7626953125, 0, 
92, 594089729, 87.15013122558594, -65.43119812011719, -121.87956237792969, 8.671943664550781, 3.466369152069092, 2.923619270324707, 5.593662738800049, -2.3445863723754883, 0.33587950468063354, -0.54296875, -0.07275390625, -0.7734375, 0, 
93, 594098062, 87.1765365600586, -65.43106842041016, -121.89461517333984, 10.394408226013184, 6.34545373916626, -2.921375036239624, 4.655130863189697, -1.9518429040908813, 0.9913732409477234, -0.541015625, -0.07763671875, -0.767578125, 0, 
94, 594106395, 87.15597534179688, -65.44066619873047, -121.8871078491211, 10.40395736694336, 6.543549537658691, 2.3993098735809326, 1.7386431694030762, -0.8283259272575378, 2.2100729942321777, -0.5439453125, -0.078125, -0.76025390625, 0, 
95, 594114728, 87.11834716796875, -65.44662475585938, -121.87881469726562, 8.46182632446289, 3.4737253189086914, -0.9217414855957031, -0.30433550477027893, -0.8025579452514648, 1.773478388786316, -0.53955078125, -0.0830078125, -0.7470703125, 0, 
96, 594123061, 87.09953308105469, -65.4417953491211, -121.85244750976562, 7.483978271484375, 1.3913418054580688, 1.0378714799880981, 3.7476437091827393, 0.1408270299434662, 0.5317258834838867, -0.5390625, -0.0771484375, -0.7548828125, 0, 
97, 594131394, 87.11682891845703, -65.43510437011719, -121.86968994140625, 8.129737854003906, 2.6761887073516846, 1.2746647596359253, 3.3218586444854736, -2.021078586578369, 0.20273666083812714, -0.54150390625, -0.07373046875, -0.77294921875, 0, 
98, 594139727, 87.17037963867188, -65.43096923828125, -121.89008331298828, 9.98764705657959, 5.298779010772705, -1.4136229753494263, 7.39703369140625, -2.2206904888153076, 0.49274110794067383, -0.54150390625, -0.07763671875, -0.76708984375, 0, 
99, 594148060, 87.16065216064453, -65.43620300292969, -121.89691162109375, 10.468384742736816, 6.842280387878418, 1.851454257965088, 1.2152929306030273, -1.5730853080749512, 1.6545002460479736, -0.54150390625, -0.078125, -0.75927734375, 0, 
100, 594156393, 87.12284088134766, -65.44280242919922, -121.87200927734375, 9.16441535949707, 4.558873653411865, -1.7504959106445312, 1.0656801462173462, -0.17091098427772522, 1.8805972337722778, -0.54052734375, -0.08154296875, -0.74951171875, 0, 
101, 594164726, 87.09001159667969, -65.44145202636719, -121.84996032714844, 7.610049247741699, 2.1273651123046875, 2.361172914505005, 1.5355476140975952, -0.18556231260299683, 0.9296941757202148, -0.53955078125, -0.07861328125, -0.7490234375, 0, 
102, 594173059, 87.10081481933594, -65.43612670898438, -121.85821533203125, 7.752762794494629, 1.7615363597869873, -1.0681322813034058, 3.521726608276367, -1.5791304111480713, 0.38649317622184753, -0.5419921875, -0.07373046875, -0.771484375, 0, 
103, 594181392, 87.15606689453125, -65.4310302734375, -121.87773132324219, 9.405572891235352, 4.5390305519104, 1.9694315195083618, 7.629354476928711, -2.143232822418213, 0.38623711466789246, -0.541015625, -0.07421875, -0.77197265625, 0, 
104, 594189725, 87.16258239746094, -65.4333267211914, -121.90435791015625, 10.583267211914062, 6.680871486663818, -0.8412023782730103, 1.8587480783462524, -2.2143120765686035, 1.2617827653884888, -0.5390625, -0.0771484375, -0.76806640625, 0, 
105, 594198058, 87.14088439941406, -65.4422607421875, -121.8855209350586, 9.88871955871582, 5.5959086418151855, -0.11894561350345612, 2.578303575515747, -0.3158107399940491, 2.161226749420166, -0.53759765625, -0.07861328125, -0.7587890625, 0, 
106, 594206391, 87.10443115234375, -65.44339752197266, -121.87796783447266, 7.972451686859131, 2.836395502090454, 1.532403588294983, -0.45796963572502136, -0.9105218648910522, 1.1924961805343628, -0.53759765625, -0.078125, -0.75048828125, 0, 
107, 594214724, 87.10367584228516, -65.43775939941406, -121.87007141113281, 7.34594202041626, 1.3451653718948364, -1.3419140577316284, 4.349040985107422, -0.6323002576828003, 0.38915711641311646, -0.5400390625, -0.07275390625, -0.7685546875, 0, 
108, 594223057, 87.14527130126953, -65.43206024169922, -121.89514923095703, 8.725240707397461, 3.5436015129089355, 3.1902713775634766, 5.382293701171875, -2.4177658557891846, 0.29768866300582886, -0.5390625, -0.07080078125, -0.77685546875, 0, 
109, 594231390, 87.17273712158203, -65.43099212646484, -121.9112548828125, 10.53027629852295, 6.277392387390137, -2.9101402759552, 4.664224624633789, -1.9998444318771362, 0.8749567270278931, -0.53857421875, -0.07568359375, -0.77392578125, 0, 
110, 594239723, 87.1561508178711, -65.43983459472656, -121.90860748291016, 10.416397094726562, 6.583537578582764, 2.282487392425537, 1.7542164325714111, -1.033547282218933, 2.1136868000030518, -0.53857421875, -0.07421875, -0.76416015625, 0, 
111, 594248056, 87.12296295166016, -65.44483947753906, -121.90216827392578, 8.42705249786377, 3.4720234870910645, -0.716073215007782, -0.1531090885400772, -0.9105219841003418, 1.6609036922454834, -0.5390625, -0.0791015625, -0.75537109375, 0, 
112, 594256389, 87.1083984375, -65.4400634765625, -121.87916564941406, 7.36814022064209, 1.2768851518630981, 1.0133192539215088, 3.7697744369506836, -0.14066055417060852, 0.5144363045692444, -0.53857421875, -0.0732421875, -0.7646484375, 0, 
113, 594264722, 87.12860107421875, -65.43324279785156, -121.8971176147461, 8.219999313354492, 2.567796468734741, 1.3795020580291748, 3.597083806991577, -2.1155178546905518, 0.1760210245847702, -0.54052734375, -0.0703125, -0.78369140625, 0, 
114, 594273055, 87.18310546875, -65.42918395996094, -121.91700744628906, 10.023857116699219, 5.591700553894043, -1.6861884593963623, 7.497467041015625, -2.167131185531616, 0.5113883018493652, -0.5380859375, -0.07421875, -0.77490234375, 0, 
115, 594281388, 87.1733627319336, -65.43659973144531, -121.9258041381836, 10.505796432495117, 6.957546710968018, 2.1293458938598633, 0.9998261332511902, -1.6832524538040161, 1.909541368484497, -0.5400390625, -0.076171875, -0.7744140625, 0, 
116, 594289721, 87.13267517089844, -65.44457244873047, -121.8994140625, 9.113035202026367, 4.483224391937256, -2.065110445022583, 0.895601749420166, -0.10377606749534607, 2.0465259552001953, -0.5380859375, -0.08056640625, -0.75830078125, 0, 
117, 594298054, 87.10281372070312, -65.44170379638672, -121.87983703613281, 7.723174571990967, 1.7923012971878052, 2.727492570877075, 1.6811902523040771, -0.2080516219139099, 0.7499847412109375, -0.5390625, -0.0751953125, -0.76025390625, 0, 
118, 594306387, 87.11863708496094, -65.43663024902344, -121.8992919921875, 7.6724114418029785, 1.7363767623901367, -1.1343435049057007, 3.786757707595825, -1.7965954542160034, 0.40411582589149475, -0.54052734375, -0.06982421875, -0.7802734375, 0, 
119, 594314720, 87.17803192138672, -65.43211364746094, -121.92233276367188, 9.429360389709473, 4.7501749992370605, 1.5579700469970703, 7.752072811126709, -2.377629041671753, 0.43690210580825806, -0.541015625, -0.0703125, -0.77880859375, 0, 
120, 594323053, 87.1748046875, -65.43560028076172, -121.9375, 10.509238243103027, 7.010016918182373, -0.3764873743057251, 1.0847628116607666, -1.9782001972198486, 1.4230244159698486, -0.53857421875, -0.07470703125, -0.7724609375, 0, 
121, 594331386, 87.1493911743164, -65.4445571899414, -121.9164047241211, 9.811638832092285, 5.330345630645752, -0.6973682641983032, 2.380305290222168, -0.2018786072731018, 2.172778844833374, -0.54052734375, -0.0791015625, -0.76220703125, 0, 
122, 594339719, 87.11289978027344, -65.44512176513672, -121.90534210205078, 8.015754699707031, 2.447359561920166, 2.2678732872009277, -0.0691712498664856, -0.7275083065032959, 1.1268470287322998, -0.53662109375, -0.078125, -0.76025390625, 0, 
123, 594348052, 87.1164321899414, -65.43875885009766, -121.8984146118164, 7.375002861022949, 1.409541130065918, -1.7548123598098755, 4.310081958770752, -0.8197195529937744, 0.29809850454330444, -0.53857421875, -0.0712890625, -0.77392578125, 0, 
124, 594356385, 87.16384887695312, -65.43319702148438, -121.9255599975586, 8.779650688171387, 4.029689788818359, 3.266228437423706, 6.056434154510498, -2.49007511138916, 0.31034204363822937, -0.53857421875, -0.072265625, -0.7783203125, 0, 
125, 594364718, 87.1889877319336, -65.43338775634766, -121.94669342041016, 10.61888313293457, 6.179311275482178, -2.4899837970733643, 4.002045154571533, -2.2392091751098633, 1.0132479667663574, -0.5419921875, -0.07470703125, -0.77001953125, 0, 
126, 594373051, 87.17359924316406, -65.44210815429688, -121.9417724609375, 10.32659912109375, 6.152886390686035, 1.4261674880981445, 1.818534016609192, -1.00877845287323, 2.1008028984069824, -0.53662109375, -0.0751953125, -0.76025390625, 0, 
127, 594381384, 87.13709259033203, -65.44590759277344, -121.93316650390625, 8.332074165344238, 3.60768461227417, -0.36946725845336914, -0.3145555853843689, -0.7949250340461731, 1.521920919418335, -0.53759765625, -0.078125, -0.75048828125, 0, 
128, 594389717, 87.12435150146484, -65.44125366210938, -121.91244506835938, 7.283924579620361, 1.4392032623291016, 0.7563726902008057, 3.9237418174743652, -0.173805370926857, 0.5311110615730286, -0.53955078125, -0.07275390625, -0.76904296875, 0, 
129, 594398050, 87.14533996582031, -65.43553161621094, -121.92900085449219, 8.250008583068848, 2.591972827911377, 1.6101478338241577, 3.841315507888794, -1.9943115711212158, 0.31764212250709534, -0.541015625, -0.0693359375, -0.7802734375, 0, 
130, 594406383, 87.19381713867188, -65.43181610107422, -121.9460220336914, 10.18432331085205, 5.738674163818359, -1.9820325374603271, 7.09913969039917, -2.0853960514068604, 0.5456088781356812, -0.5390625, -0.07275390625, -0.7744140625, 0, 
131, 594414716, 87.18446350097656, -65.43888854980469, -121.9541244506836, 10.544629096984863, 6.933771133422852, 2.6328346729278564, 1.0881696939468384, -1.720085620880127, 1.8683536052703857, -0.53857421875, -0.0771484375, -0.7666015625, 0, 
132, 594423049, 87.148681640625, -65.44563293457031, -121.93603515625, 8.972405433654785, 4.197565078735352, -2.138221025466919, 0.8089231848716736, -0.341296911239624, 1.8922004699707031, -0.53857421875, -0.07958984375, -0.7607421875, 0, 
133, 594431382, 87.12158203125, -65.4413070678711, -121.91368865966797, 7.564142227172852, 1.6930891275405884, 2.5284926891326904, 2.3119921684265137, -0.0627932995557785, 0.5816736817359924, -0.5380859375, -0.07470703125, -0.76123046875, 0, 
134, 594439715, 87.13616943359375, -65.43549346923828, -121.9261474609375, 7.761410713195801, 1.8895034790039062, -0.6393513083457947, 3.4951391220092773, -1.8572497367858887, 0.31390243768692017, -0.5419921875, -0.0693359375, -0.78125, 0, 
135, 594448048, 87.19509887695312, -65.43018341064453, -121.94786834716797, 9.533812522888184, 4.923655033111572, 0.6072942614555359, 7.829835891723633, -2.2515809535980225, 0.3554743528366089, -0.5390625, -0.072265625, -0.77734375, 0, 
136, 594456381, 87.18788146972656, -65.43417358398438, -121.96150970458984, 10.670736312866211, 7.033973693847656, 0.4064023494720459, 1.0986714363098145, -1.8178552389144897, 1.4877517223358154, -0.54052734375, -0.072265625, -0.77294921875, 0, 
137, 594464714, 87.15382385253906, -65.44357299804688, -121.93522644042969, 9.669964790344238, 5.218151092529297, -1.096321702003479, 1.9488846063613892, 0.0045337192714214325, 2.2237513065338135, -0.53857421875, -0.07763671875, -0.76123046875, 0, 
138, 594473047, 87.1163558959961, -65.44361877441406, -121.92139434814453, 7.899578094482422, 2.3199172019958496, 2.3561251163482666, 0.14039161801338196, -0.5113754272460938, 1.0836101770401, -0.53759765625, -0.078125, -0.7578125, 0, 
139, 594481380, 87.12215423583984, -65.43841552734375, -121.9169692993164, 7.417582035064697, 1.3595784902572632, -1.5015811920166016, 4.307468891143799, -0.9492764472961426, 0.4341101050376892, -0.54052734375, -0.0673828125, -0.78076171875, 0, 
140, 594489713, 87.17456817626953, -65.43277740478516, -121.94371032714844, 8.925217628479004, 4.031908988952637, 3.0784249305725098, 6.663849830627441, -2.4882562160491943, 0.2935135066509247, -0.541015625, -0.06982421875, -0.7802734375, 0, 
141, 594498046, 87.18903350830078, -65.43273162841797, -121.95764923095703, 10.526042938232422, 6.564728736877441, -2.4358487129211426, 3.3406851291656494, -1.8956453800201416, 1.0048975944519043, -0.541015625, -0.07666015625, -0.7734375, 0, 
142, 594506379, 87.16828155517578, -65.44281768798828, -121.9444351196289, 10.287324905395508, 6.145861625671387, 1.4213266372680664, 2.169833183288574, -0.6272542476654053, 2.280717134475708, -0.53955078125, -0.07763671875, -0.765625, 0, 
143, 594514712, 87.12840270996094, -65.44568634033203, -121.93853759765625, 8.234110832214355, 3.1665968894958496, -0.01815984956920147, -0.7368831038475037, -0.8604206442832947, 1.4014829397201538, -0.537109375, -0.078125, -0.75634765625, 0, 
144, 594523045, 87.11772155761719, -65.44025421142578, -121.91547393798828, 7.308753490447998, 1.2415330410003662, 0.03532285615801811, 4.3609514236450195, -0.01940278336405754, 0.4499908983707428, -0.54052734375, -0.07275390625, -0.76953125, 0, 
145, 594531378, 87.14537048339844, -65.43521881103516, -121.93708801269531, 8.325307846069336, 3.0169007778167725, 2.410940170288086, 4.089492321014404, -2.2500696182250977, 0.3865956664085388, -0.53955078125, -0.0703125, -0.77978515625, 0, 
146, 594539711, 87.19023132324219, -65.4334945678711, -121.95576477050781, 10.318364143371582, 5.844050407409668, -2.6071910858154297, 6.561290740966797, -2.1453843116760254, 0.7847176790237427, -0.53955078125, -0.07568359375, -0.7724609375, 0, 
147, 594548044, 87.17530059814453, -65.44124603271484, -121.95806884765625, 10.543993949890137, 6.835629940032959, 2.6199698448181152, 1.0827394723892212, -1.3608458042144775, 1.9716556072235107, -0.53857421875, -0.07421875, -0.76904296875, 0, 
148, 594556377, 87.13837432861328, -65.44751739501953, -121.94071960449219, 8.780706405639648, 4.009914398193359, -1.7831811904907227, 0.5354655385017395, -0.46393781900405884, 1.8266534805297852, -0.5361328125, -0.0810546875, -0.75634765625, 0, 
149, 594564710, 87.1141586303711, -65.44351959228516, -121.91593933105469, 7.435256004333496, 1.5989362001419067, 2.176490545272827, 2.8188979625701904, -0.05247075855731964, 0.618302047252655, -0.5380859375, -0.07275390625, -0.76318359375, 0, 
150, 594573043, 87.12810516357422, -65.43741607666016, -121.92993927001953, 7.903988838195801, 2.1414265632629395, -0.20891934633255005, 3.27329421043396, -1.8608614206314087, 0.27883654832839966, -0.5419921875, -0.06884765625, -0.78271484375, 0, 
151, 594581376, 87.18441772460938, -65.43379211425781, -121.94802856445312, 9.711616516113281, 5.137275695800781, 0.2447824329137802, 7.910597801208496, -2.0812718868255615, 0.5685079097747803, -0.5419921875, -0.0712890625, -0.775390625, 0, 
152, 594589709, 87.1787338256836, -65.43901062011719, -121.9657211303711, 10.649259567260742, 6.884194850921631, 0.7924060225486755, 0.8896592259407043, -2.0065035820007324, 1.6159507036209106, -0.5400390625, -0.07177734375, -0.771484375, 0, 
153, 594598042, 87.14550018310547, -65.44735717773438, -121.9398193359375, 9.558284759521484, 5.059144496917725, -1.455590844154358, 1.9224506616592407, -0.03943311795592308, 2.1036715507507324, -0.53564453125, -0.07763671875, -0.759765625, 0, 
154, 594606375, 87.10696411132812, -65.44522857666016, -121.92416381835938, 7.747430801391602, 2.2463645935058594, 2.701392650604248, 0.21226514875888824, -0.4097636640071869, 0.8270836472511292, -0.5390625, -0.0751953125, -0.7587890625, 0, 
155, 594614708, 87.11883544921875, -65.4394760131836, -121.92646026611328, 7.4648613929748535, 1.3680846691131592, -1.7884573936462402, 4.3032426834106445, -1.2785987854003906, 0.35055646300315857, -0.541015625, -0.06884765625, -0.779296875, 0, 
156, 594623041, 87.17613983154297, -65.43362426757812, -121.95282745361328, 9.139633178710938, 4.2322797775268555, 2.926034927368164, 7.141941070556641, -2.5375382900238037, 0.2685396373271942, -0.544921875, -0.080078125, -0.7724609375, 0, 
157, 594631374, 87.17974853515625, -65.43490600585938, -121.9663314819336, 10.530998229980469, 6.8507184982299805, -1.996024250984192, 2.0877139568328857, -1.8823261260986328, 1.1654988527297974, -0.54443359375, -0.083984375, -0.75927734375, 0, 
158, 594639707, 87.15579986572266, -65.4447021484375, -121.94158172607422, 10.165366172790527, 5.969056606292725, 0.7216073274612427, 2.6330149173736572, -0.23333287239074707, 2.265681266784668, -0.5439453125, -0.08154296875, -0.7490234375, 0, 
159, 594648040, 87.11662292480469, -65.44674682617188, -121.93081665039062, 8.231739044189453, 2.787459373474121, 1.1003185510635376, -0.7474617958068848, -0.9036061763763428, 1.2956191301345825, -0.5419921875, -0.08251953125, -0.74462890625, 0, 
160, 594656373, 87.1138687133789, -65.44074249267578, -121.91536712646484, 7.276491641998291, 1.1480648517608643, -0.9187119007110596, 4.481133937835693, -0.3932425379753113, 0.3668726980686188, -0.54296875, -0.07470703125, -0.7666015625, 0, 
161, 594664706, 87.15111541748047, -65.43470001220703, -121.94046020507812, 8.452563285827637, 3.467521905899048, 3.0685644149780273, 4.859097480773926, -2.4160757064819336, 0.2607017159461975, -0.54296875, -0.0771484375, -0.76806640625, 0, 
162, 594673039, 87.18761444091797, -65.43277740478516, -121.95763397216797, 10.41472339630127, 6.05306339263916, -2.75405216217041, 5.6315717697143555, -2.1086537837982178, 0.7560042142868042, -0.54248046875, -0.076171875, -0.76416015625, 0, 
163, 594681372, 87.1739273071289, -65.44070434570312, -121.95812225341797, 10.484782218933105, 6.633296489715576, 2.20758056640625, 1.4319639205932617, -1.271990180015564, 1.9934278726577759, -0.541015625, -0.0791015625, -0.75390625, 0, 
164, 594689705, 87.13236236572266, -65.44593811035156, -121.94229125976562, 8.639089584350586, 3.8218846321105957, -1.3215618133544922, -0.08331029117107391, -0.4842242896556854, 1.7045505046844482, -0.541015625, -0.08251953125, -0.744140625, 0, 
165, 594698038, 87.11284637451172, -65.4419937133789, -121.92398834228516, 7.36579704284668, 1.492737054824829, 1.766028642654419, 3.3145592212677, -0.0859229639172554, 0.6270621418952942, -0.54296875, -0.07763671875, -0.75537109375, 0, 
166, 594706371, 87.12950897216797, -65.43731689453125, -121.9389877319336, 8.029977798461914, 2.1962411403656006, 0.44194602966308594, 3.4912970066070557, -1.9212596416473389, 0.4430494010448456, -0.54443359375, -0.07373046875, -0.771484375, 0, 
167, 594714704, 87.18323516845703, -65.43356323242188, -121.95458984375, 9.913028717041016, 5.413909912109375, -0.6898543238639832, 7.874329566955566, -1.9564539194107056, 0.5587233901023865, -0.54052734375, -0.07958984375, -0.76611328125, 0, 
168, 594723037, 87.17276763916016, -65.4390640258789, -121.970703125, 10.600933074951172, 6.993117809295654, 1.6632987260818481, 0.5112601518630981, -1.9183907508850098, 1.6628504991531372, -0.54296875, -0.078125, -0.75927734375, 0, 
169, 594731370, 87.14163208007812, -65.44695281982422, -121.94911193847656, 9.311223983764648, 4.668139457702637, -2.082944393157959, 1.7479667663574219, -0.17249909043312073, 2.042863607406616, -0.53955078125, -0.08349609375, -0.748046875, 0, 
170, 594739703, 87.10613250732422, -65.44385528564453, -121.9314193725586, 7.678097724914551, 1.9734407663345337, 2.946112871170044, 0.938275158405304, -0.3030291795730591, 0.7139455676078796, -0.541015625, -0.07763671875, -0.75, 0, 
171, 594748036, 87.11988830566406, -65.43827819824219, -121.93992614746094, 7.54869270324707, 1.646743893623352, -1.608412742614746, 3.7733349800109863, -1.6891690492630005, 0.34684237837791443, -0.54345703125, -0.07470703125, -0.76904296875, 0, 
172, 594756369, 87.1803207397461, -65.43389129638672, -121.96581268310547, 9.29897403717041, 4.585109233856201, 2.129117965698242, 7.554228782653809, -2.4654088020324707, 0.4546271562576294, -0.5439453125, -0.078125, -0.77001953125, 0, 
173, 594764702, 87.18106079101562, -65.4368896484375, -121.98160552978516, 10.730331420898438, 6.951306343078613, -0.8995711803436279, 1.4946675300598145, -2.008092164993286, 1.3641119003295898, -0.5419921875, -0.078125, -0.76318359375, 0, 
174, 594773035, 87.15119934082031, -65.446533203125, -121.955078125, 9.97460651397705, 5.622345447540283, -0.14182746410369873, 2.3587894439697266, -0.03933066129684448, 2.2525928020477295, -0.541015625, -0.0810546875, -0.7529296875, 0, 
175, 594781368, 87.112548828125, -65.44639587402344, -121.94408416748047, 7.996914386749268, 2.6026692390441895, 1.748448133468628, -0.31073909997940063, -0.6533294916152954, 1.0583033561706543, -0.53857421875, -0.08154296875, -0.7431640625, 0, 
176, 594789701, 87.11112976074219, -65.44062042236328, -121.93033599853516, 7.283284664154053, 1.1586172580718994, -1.2787004709243774, 4.484284400939941, -0.5307910442352295, 0.3824205696582794, -0.54443359375, -0.07568359375, -0.76318359375, 0, 
177, 594798034, 87.15674591064453, -65.43470764160156, -121.95734405517578, 8.652079582214355, 3.685415506362915, 3.1937811374664307, 5.760975360870361, -2.5235021114349365, 0.25614240765571594, -0.54150390625, -0.07470703125, -0.77001953125, 0, 
178, 594806367, 87.18553161621094, -65.43345642089844, -121.97522735595703, 10.48623275756836, 6.357583999633789, -2.856182813644409, 4.632052421569824, -2.0877010822296143, 0.8497778177261353, -0.54150390625, -0.0791015625, -0.76318359375, 0, 
179, 594814700, 87.17345428466797, -65.4426498413086, -121.97349548339844, 10.531854629516602, 6.479278564453125, 2.093588352203369, 1.8680973052978516, -1.168508529663086, 2.152594566345215, -0.54248046875, -0.08154296875, -0.755859375, 0, 
180, 594823033, 87.12963104248047, -65.44739532470703, -121.96080017089844, 8.497788429260254, 3.55338716506958, -0.9137900471687317, -0.5946472883224487, -0.5897549390792847, 1.6393364667892456, -0.541015625, -0.08251953125, -0.74560546875, 0, 
181, 594831366, 87.11731719970703, -65.44268798828125, -121.93876647949219, 7.3506693840026855, 1.2867920398712158, 1.19732666015625, 4.053400993347168, -0.07521618902683258, 0.5359522700309753, -0.54150390625, -0.07373046875, -0.759765625, 0, 
182, 594839699, 87.13996124267578, -65.43748474121094, -121.9603500366211, 8.06578540802002, 2.5085768699645996, 1.3433730602264404, 3.6486456394195557, -2.2345476150512695, 0.36287692189216614, -0.54150390625, -0.07275390625, -0.7724609375, 0, 
183, 594848032, 87.19205474853516, -65.43356323242188, -121.97044372558594, 10.040081977844238, 5.6404876708984375, -1.8966622352600098, 7.645927429199219, -2.0328872203826904, 0.5270898342132568, -0.544921875, -0.076171875, -0.76708984375, 0, 
184, 594856365, 87.1816177368164, -65.44033813476562, -121.98088073730469, 10.54769515991211, 7.040708065032959, 2.498920202255249, 0.7343088984489441, -1.7626562118530273, 1.8303675651550293, -0.53955078125, -0.07763671875, -0.76025390625, 0, 
185, 594864698, 87.14567565917969, -65.44758605957031, -121.96095275878906, 9.113373756408691, 4.215233325958252, -2.313922166824341, 0.9918087720870972, -0.2513396739959717, 1.959873080253601, -0.54052734375, -0.08447265625, -0.7490234375, 0, 
186, 594873031, 87.11569213867188, -65.44309997558594, -121.93826293945312, 7.573689937591553, 1.8010152578353882, 2.7747867107391357, 2.0366902351379395, -0.09463178366422653, 0.559440553188324, -0.5400390625, -0.078125, -0.75537109375, 0, 
187, 594881364, 87.1290283203125, -65.43762969970703, -121.94951629638672, 7.707721710205078, 1.9419628381729126, -0.9415449500083923, 3.4985201358795166, -1.730459213256836, 0.35918840765953064, -0.54296875, -0.0712890625, -0.7744140625, 0, 
188, 594889697, 87.1874008178711, -65.43228912353516, -121.96919250488281, 9.478372573852539, 4.851515769958496, 1.2267909049987793, 7.789854049682617, -2.3017849922180176, 0.3413609564304352, -0.541015625, -0.0771484375, -0.76953125, 0, 
189, 594898030, 87.18295288085938, -65.435791015625, -121.98332977294922, 10.747026443481445, 6.867913246154785, -0.10992033779621124, 1.0909616947174072, -1.9698500633239746, 1.423946499824524, -0.54150390625, -0.07666015625, -0.76025390625, 0, 
190, 594906363, 87.15235137939453, -65.44435119628906, -121.95869445800781, 9.713757514953613, 5.342798233032227, -0.6712400913238525, 2.143937349319458, -0.024525631219148636, 2.134050130844116, -0.53857421875, -0.0810546875, -0.75830078125, 0, 
191, 594914696, 87.11627960205078, -65.44379425048828, -121.94861602783203, 7.823457717895508, 2.5076937675476074, 2.082206964492798, -0.10182938724756241, -0.6973091959953308, 0.9963937997817993, -0.54248046875, -0.07861328125, -0.74658203125, 0, 
192, 594923029, 87.11760711669922, -65.4382553100586, -121.94216918945312, 7.365541934967041, 1.3325144052505493, -1.6170822381973267, 4.254268169403076, -0.7877529859542847, 0.39960768818855286, -0.54345703125, -0.07470703125, -0.76611328125, 0, 
193, 594931362, 87.16910552978516, -65.43379211425781, -121.97095489501953, 8.871840476989746, 3.9080679416656494, 3.317446231842041, 6.166012763977051, -2.608797073364258, 0.4398476779460907, -0.54443359375, -0.07421875, -0.77392578125, 0, 
194, 594939695, 87.1857681274414, -65.433837890625, -121.9852523803711, 10.578988075256348, 6.484253406524658, -2.7076146602630615, 3.6417808532714844, -1.943031907081604, 1.0023107528686523, -0.541015625, -0.07763671875, -0.763671875, 0, 
195, 594948028, 87.16388702392578, -65.4429702758789, -121.9704360961914, 10.413559913635254, 6.2809906005859375, 1.7548600435256958, 2.1835367679595947, -0.5476707816123962, 2.170166254043579, -0.5400390625, -0.080078125, -0.7578125, 0, 
196, 594956361, 87.12432098388672, -65.44723510742188, -121.96224975585938, 8.29325008392334, 3.280305862426758, -0.18949249386787415, -0.7269192337989807, -0.8196427226066589, 1.5712285041809082, -0.54052734375, -0.08203125, -0.74560546875, 0, 
197, 594964694, 87.11485290527344, -65.44212341308594, -121.94026947021484, 7.274428844451904, 1.185871958732605, 0.297030508518219, 4.392405986785889, -0.07721412181854248, 0.48772066831588745, -0.54248046875, -0.07763671875, -0.7626953125, 0, 
198, 594973027, 87.13861846923828, -65.43562316894531, -121.96245574951172, 8.256799697875977, 2.831071615219116, 2.211068868637085, 3.9742023944854736, -2.1396725177764893, 0.21644030511379242, -0.54150390625, -0.0732421875, -0.77392578125, 0, 
199, 594981360, 87.18775177001953, -65.43235778808594, -121.98223114013672, 10.189506530761719, 5.882664680480957, -2.511451005935669, 6.866357326507568, -2.1686933040618896, 0.6034970283508301, -0.5390625, -0.07421875, -0.77294921875, 0, 
200, 594989693, 87.1724853515625, -65.44052124023438, -121.98561096191406, 10.606451988220215, 6.977558135986328, 2.6253886222839355, 0.9503136873245239, -1.4737021923065186, 2.0052874088287354, -0.5380859375, -0.07763671875, -0.763671875, 0, 
201, 594998026, 87.13194274902344, -65.44793701171875, -121.96637725830078, 8.943045616149902, 4.079048156738281, -2.0125973224639893, 0.4607488214969635, -0.3076397776603699, 1.9714250564575195, -0.537109375, -0.0771484375, -0.759765625, 0, 
202, 595006359, 87.10870361328125, -65.44409942626953, -121.9453353881836, 7.496917247772217, 1.5445058345794678, 2.404691219329834, 2.634629249572754, -0.1302868127822876, 0.6401254534721375, -0.5380859375, -0.072265625, -0.7626953125, 0, 
203, 595014692, 87.12532043457031, -65.43982696533203, -121.9598159790039, 7.839942455291748, 1.9810658693313599, -0.43814489245414734, 3.540860414505005, -1.8965418338775635, 0.49481576681137085, -0.537109375, -0.06884765625, -0.78125, 0, 
204, 595023025, 87.18428039550781, -65.4353256225586, -121.97897338867188, 9.576807975769043, 5.102983474731445, 0.48178163170814514, 8.000811576843262, -2.243563413619995, 0.4444581866264343, -0.53857421875, -0.07275390625, -0.77978515625, 0, 
205, 595031358, 87.17937469482422, -65.44010925292969, -121.9941635131836, 10.616547584533691, 6.980474948883057, 0.5945655703544617, 0.8805404305458069, -1.9895728826522827, 1.5807055234909058, -0.5380859375, -0.0732421875, -0.77734375, 0, 
206, 595039691, 87.14788055419922, -65.44873809814453, -121.96759033203125, 9.555678367614746, 5.048562049865723, -1.4865942001342773, 2.0364341735839844, -0.08243940770626068, 2.1353304386138916, -0.53759765625, -0.078125, -0.76025390625, 0, 
207, 595048024, 87.10831451416016, -65.44781494140625, -121.95103454589844, 7.83094596862793, 2.2485172748565674, 2.7643234729766846, 0.03237639367580414, -0.502589762210846, 0.9601495862007141, -0.53857421875, -0.07470703125, -0.75732421875, 0, 
208, 595056357, 87.1189956665039, -65.44254302978516, -121.95274353027344, 7.4457597732543945, 1.4563130140304565, -1.9176138639450073, 4.222634792327881, -1.255392074584961, 0.409597247838974, -0.5400390625, -0.0703125, -0.78125, 0, 
209, 595064690, 87.17530822753906, -65.4375228881836, -121.97996520996094, 9.077539443969727, 4.206283092498779, 3.1322195529937744, 6.914999008178711, -2.527702569961548, 0.37634995579719543, -0.5390625, -0.07470703125, -0.78173828125, 0, 
210, 595073023, 87.18331146240234, -65.43882751464844, -121.99501037597656, 10.631104469299316, 6.720595836639404, -2.0880143642425537, 2.47446346282959, -2.0047879219055176, 1.1546130180358887, -0.537109375, -0.0732421875, -0.7734375, 0, 
211, 595081356, 87.16046905517578, -65.44834899902344, -121.97669982910156, 10.204888343811035, 6.009111404418945, 0.9122233390808105, 2.383558511734009, -0.3472137749195099, 2.2297706604003906, -0.537109375, -0.078125, -0.7646484375, 0, 
212, 595089689, 87.12349700927734, -65.4511489868164, -121.96981811523438, 8.155867576599121, 2.909935474395752, 0.7016550898551941, -0.4927281439304352, -0.9108549356460571, 1.3889830112457275, -0.5380859375, -0.08203125, -0.7548828125, 0, 
213, 595098022, 87.11519622802734, -65.44550323486328, -121.94754028320312, 7.233172416687012, 1.2107844352722168, -0.5637161135673523, 4.357391357421875, -0.21378923952579498, 0.4150274991989136, -0.53857421875, -0.0712890625, -0.77001953125, 0, 
214, 595106355, 87.14999389648438, -65.43934631347656, -121.97223663330078, 8.444080352783203, 3.310309410095215, 2.8061094284057617, 4.606771469116211, -2.3973259925842285, 0.24384751915931702, -0.53955078125, -0.07080078125, -0.78271484375, 0, 
215, 595114688, 87.19233703613281, -65.43758392333984, -121.99321746826172, 10.375686645507812, 5.9618730545043945, -2.7082228660583496, 5.9215497970581055, -2.2354695796966553, 0.7812085151672363, -0.53955078125, -0.07666015625, -0.77392578125, 0, 
216, 595123021, 87.18087005615234, -65.44541931152344, -121.99137115478516, 10.573912620544434, 6.6674604415893555, 2.4186806678771973, 1.567104697227478, -1.399574637413025, 1.9696067571640015, -0.5361328125, -0.07421875, -0.7666015625, 0, 
217, 595131354, 87.13993072509766, -65.45120239257812, -121.97589874267578, 8.729740142822266, 3.9933180809020996, -1.4911185503005981, -0.0969114676117897, -0.4657820761203766, 1.7788830995559692, -0.537109375, -0.076171875, -0.7548828125, 0, 
218, 595139687, 87.11822509765625, -65.44688415527344, -121.9513931274414, 7.400967121124268, 1.515531301498413, 1.9587481021881104, 3.1446595191955566, -0.04442789405584335, 0.5771142840385437, -0.53759765625, -0.072265625, -0.7685546875, 0, 
219, 595148020, 87.13440704345703, -65.4422836303711, -121.9668960571289, 7.916719436645508, 2.062450885772705, 0.23721039295196533, 3.3825390338897705, -2.0108582973480225, 0.4477112293243408, -0.5390625, -0.0703125, -0.7822265625, 0, 
220, 595156353, 87.19158935546875, -65.43756103515625, -121.98554229736328, 9.7785062789917, 5.332360744476318, -0.5981991291046143, 7.954500675201416, -2.103581666946411, 0.43101072311401367, -0.53759765625, -0.0732421875, -0.77685546875, 0, 
221, 595164686, 87.18512725830078, -65.44332122802734, -122.00173950195312, 10.650297164916992, 7.1208295822143555, 1.6588869094848633, 0.5862842202186584, -2.0405709743499756, 1.695662498474121, -0.53955078125, -0.07763671875, -0.76806640625, 0, 
222, 595173019, 87.14888763427734, -65.45198059082031, -121.97705841064453, 9.435784339904785, 4.689024448394775, -2.0654475688934326, 1.6258893013000488, -0.017789088189601898, 2.134946584701538, -0.5361328125, -0.07666015625, -0.75634765625, 0, 
223, 595181352, 87.11355590820312, -65.4490737915039, -121.95823669433594, 7.761650085449219, 2.0213217735290527, 2.901386260986328, 0.9428855180740356, -0.2481122761964798, 0.7435556650161743, -0.537109375, -0.0751953125, -0.755859375, 0, 
224, 595189685, 87.12592315673828, -65.44371032714844, -121.96910858154297, 7.468211650848389, 1.5873724222183228, -1.5377939939498901, 3.7747955322265625, -1.6156561374664307, 0.3774513602256775, -0.53857421875, -0.0712890625, -0.7763671875, 0, 
225, 595198018, 87.18412017822266, -65.43831634521484, -121.9936294555664, 9.187967300415039, 4.482711315155029, 2.29734468460083, 7.44926118850708, -2.4466590881347656, 0.32729873061180115, -0.54248046875, -0.0732421875, -0.77880859375, 0, 
226, 595206351, 87.18948364257812, -65.44029235839844, -122.00831604003906, 10.726293563842773, 6.798649311065674, -1.2228615283966064, 2.1671438217163086, -1.945644497871399, 1.2458508014678955, -0.53955078125, -0.07373046875, -0.77197265625, 0, 
227, 595214684, 87.16356658935547, -65.44903564453125, -121.98877716064453, 9.986252784729004, 5.746646881103516, 0.1617157757282257, 2.1485989093780518, -0.282025545835495, 2.139813184738159, -0.53857421875, -0.078125, -0.76220703125, 0, 
228, 595223017, 87.12609100341797, -65.45086669921875, -121.97949981689453, 8.016069412231445, 2.7780067920684814, 1.1346054077148438, -0.32475006580352783, -0.7969740629196167, 1.2795591354370117, -0.5361328125, -0.07861328125, -0.7587890625, 0, 
229, 595231350, 87.1280517578125, -65.4461898803711, -121.97040557861328, 7.305149078369141, 1.2780462503433228, -0.7778621912002563, 4.3566484451293945, -0.7206181287765503, 0.507981538772583, -0.5400390625, -0.06982421875, -0.7724609375, 0, 
230, 595239683, 87.16737365722656, -65.44123840332031, -121.99417114257812, 8.612048149108887, 3.465275287628174, 2.895599126815796, 5.133272171020508, -2.4758849143981934, 0.37991032004356384, -0.53857421875, -0.072265625, -0.78125, 0, 
231, 595248016, 87.19969940185547, -65.43994903564453, -122.012451171875, 10.514019966125488, 6.170469284057617, -2.7229044437408447, 5.258167266845703, -2.0566563606262207, 0.8414276242256165, -0.53759765625, -0.07373046875, -0.77197265625, 0, 
232, 595256349, 87.18292236328125, -65.44819641113281, -122.00824737548828, 10.50777816772461, 6.542558193206787, 2.3460161685943604, 1.5733799934387207, -1.0398228168487549, 2.043221950531006, -0.5361328125, -0.07470703125, -0.7666015625, 0, 
233, 595264682, 87.14234924316406, -65.4527359008789, -121.99372100830078, 8.479190826416016, 3.748961925506592, -1.4113106727600098, -0.15444102883338928, -0.5052791833877563, 1.6256073713302612, -0.53759765625, -0.08203125, -0.74853515625, 0, 
234, 595273015, 87.12689208984375, -65.44720458984375, -121.97166442871094, 7.3199076652526855, 1.4026389122009277, 1.6829952001571655, 3.753279447555542, -0.10505678504705429, 0.42816755175590515, -0.53564453125, -0.072265625, -0.76904296875, 0, 
235, 595281348, 87.14456939697266, -65.44186401367188, -121.99041748046875, 8.051295280456543, 2.333393096923828, 0.7401803135871887, 3.199908971786499, -2.168897867202759, 0.34914758801460266, -0.541015625, -0.0703125, -0.77978515625, 0, 
236, 595289681, 87.19962310791016, -65.43818664550781, -122.0089111328125, 10.05370807647705, 5.516098976135254, -1.3224011659622192, 7.715084552764893, -2.1014816761016846, 0.5610542893409729, -0.537109375, -0.07421875, -0.77392578125, 0, 
237, 595298014, 87.18864440917969, -65.44522857666016, -122.02129364013672, 10.656435012817383, 7.068379878997803, 2.1552042961120605, 0.4599035978317261, -1.8587610721588135, 1.8574163913726807, -0.53955078125, -0.0751953125, -0.7744140625, 0, 
238, 595306347, 87.15156555175781, -65.45332336425781, -121.99620819091797, 9.180268287658691, 4.4083781242370605, -2.134835720062256, 1.403583288192749, -0.06983721256256104, 2.063918113708496, -0.5380859375, -0.07958984375, -0.7568359375, 0, 
239, 595314680, 87.12268829345703, -65.45111846923828, -121.97904205322266, 7.718690872192383, 1.8374168872833252, 2.9077327251434326, 1.536649227142334, -0.3315122425556183, 0.8267763257026672, -0.53515625, -0.07861328125, -0.7578125, 0, 
240, 595323013, 87.13399505615234, -65.44436645507812, -121.98849487304688, 7.548728942871094, 1.805274486541748, -1.4284300804138184, 3.7351443767547607, -1.5660158395767212, 0.2117016464471817, -0.537109375, -0.068359375, -0.77880859375, 0, 
241, 595331346, 87.1877212524414, -65.43817138671875, -122.00833892822266, 9.28207015991211, 4.728648662567139, 1.8377573490142822, 7.650256156921387, -2.105349540710449, 0.2501486539840698, -0.53955078125, -0.0732421875, -0.775390625, 0, 
242, 595339679, 87.18851470947266, -65.44090270996094, -122.02165985107422, 10.646834373474121, 6.785491943359375, -0.584639847278595, 1.7741445302963257, -1.8839911222457886, 1.3384718894958496, -0.53857421875, -0.0751953125, -0.7705078125, 0, 
243, 595348012, 87.16193389892578, -65.44961547851562, -122.00387573242188, 9.989263534545898, 5.556285858154297, -0.48441556096076965, 1.8788553476333618, -0.3676026463508606, 2.131514072418213, -0.5380859375, -0.07861328125, -0.76123046875, 0, 
244, 595356345, 87.12262725830078, -65.4506607055664, -121.99494934082031, 7.974684238433838, 2.8063249588012695, 1.7140789031982422, -0.5407292246818542, -0.7937210202217102, 1.1818920373916626, -0.5361328125, -0.0771484375, -0.74951171875, 0, 
245, 595364678, 87.12399291992188, -65.44664001464844, -121.98585510253906, 7.396255016326904, 1.311515212059021, -1.1887468099594116, 4.285825252532959, -0.7257921695709229, 0.5859000086784363, -0.5400390625, -0.06787109375, -0.77001953125, 0, 
246, 595373011, 87.1681137084961, -65.4414291381836, -122.01105499267578, 8.74943733215332, 3.4780185222625732, 3.1310858726501465, 5.72434663772583, -2.467099189758301, 0.35155537724494934, -0.5380859375, -0.06884765625, -0.7822265625, 0, 
247, 595381344, 87.1913833618164, -65.43929290771484, -122.0289535522461, 10.444101333618164, 6.378599643707275, -2.9287126064300537, 4.397580146789551, -1.9507417678833008, 0.7469367980957031, -0.53662109375, -0.0732421875, -0.77197265625, 0, 
248, 595389677, 87.1742172241211, -65.44837951660156, -122.02033233642578, 10.392219543457031, 6.466623783111572, 2.3726327419281006, 2.009692907333374, -0.824688732624054, 2.1532092094421387, -0.537109375, -0.0771484375, -0.7646484375, 0, 
249, 595398010, 87.13784790039062, -65.4524917602539, -122.011962890625, 8.360210418701172, 3.3867368698120117, -0.9215802550315857, -0.3219068944454193, -0.8101910948753357, 1.558447003364563, -0.5380859375, -0.07958984375, -0.7578125, 0, 
250, 595406343, 87.121826171875, -65.44686889648438, -121.9898452758789, 7.29484748840332, 1.3476998805999756, 0.7746215462684631, 3.9921576976776123, 0.03829328343272209, 0.42949947714805603, -0.5380859375, -0.072265625, -0.767578125, 0, 
251, 595414676, 87.1426773071289, -65.4420166015625, -122.00942993164062, 8.264080047607422, 2.8123223781585693, 1.613537311553955, 3.491706609725952, -2.1491498947143555, 0.4144127070903778, -0.5380859375, -0.0693359375, -0.78515625, 0, 
252, 595423009, 87.1918716430664, -65.43931579589844, -122.0264663696289, 10.181175231933594, 5.502181053161621, -1.7300506830215454, 7.183384418487549, -2.0965380668640137, 0.6676095128059387, -0.54345703125, -0.07958984375, -0.767578125, 0, 
253, 595431342, 87.17960357666016, -65.44670867919922, -122.0335693359375, 10.56803035736084, 6.867579936981201, 2.006204605102539, 0.9029529690742493, -1.6562292575836182, 1.8999615907669067, -0.54248046875, -0.0810546875, -0.7568359375, 0, 
254, 595439675, 87.14185333251953, -65.45365905761719, -122.01138305664062, 8.972322463989258, 4.437708377838135, -1.7279518842697144, 1.0198050737380981, -0.13628053665161133, 1.9351298809051514, -0.54150390625, -0.08544921875, -0.74169921875, 0, 
255, 595448008, 87.11481475830078, -65.45144653320312, -121.99357604980469, 7.50531005859375, 1.776007890701294, 2.3949084281921387, 1.8271400928497314, -0.30195340514183044, 0.8218839168548584, -0.5419921875, -0.07861328125, -0.75, 0, 
256, 595456341, 87.12895965576172, -65.44541931152344, -122.00238037109375, 7.774255275726318, 1.7407803535461426, -0.8883156180381775, 3.798898220062256, -1.6940613985061646, 0.2944612205028534, -0.54443359375, -0.07421875, -0.77197265625, 0, 
257, 595464674, 87.18961334228516, -65.44046783447266, -122.02533721923828, 9.568912506103516, 4.864121913909912, 1.3593109846115112, 7.900761604309082, -2.3161799907684326, 0.39663639664649963, -0.54345703125, -0.07763671875, -0.76708984375, 0, 
258, 595473007, 87.18444061279297, -65.4437484741211, -122.03970336914062, 10.565729141235352, 6.984858989715576, -0.20854292809963226, 0.9967266321182251, -1.9773547649383545, 1.3923897743225098, -0.541015625, -0.07666015625, -0.7587890625, 0, 
259, 595481340, 87.15571594238281, -65.45328521728516, -122.01343536376953, 9.808671951293945, 5.33047342300415, -0.7811897993087769, 2.566725492477417, -0.008106905966997147, 2.2413737773895264, -0.54296875, -0.083984375, -0.75048828125, 0, 
260, 595489673, 87.11703491210938, -65.45258331298828, -122.00343322753906, 7.936995029449463, 2.4394843578338623, 2.3702447414398193, -0.42231473326683044, -0.6993070244789124, 0.9867115616798401, -0.5390625, -0.0849609375, -0.75, 0, 
261, 595498006, 87.12232971191406, -65.44652557373047, -121.99549865722656, 7.350922584533691, 1.2983849048614502, -1.8870619535446167, 4.629671096801758, -0.7698742747306824, 0.334701269865036, -0.54296875, -0.07470703125, -0.77099609375, 0, 
262, 595506339, 87.17493438720703, -65.44082641601562, -122.02586364746094, 8.795441627502441, 3.9854910373687744, 3.384294033050537, 6.4288649559021, -2.6095142364501953, 0.28823697566986084, -0.5400390625, -0.07421875, -0.771484375, 0, 
263, 595514672, 87.19379425048828, -65.44078063964844, -122.04179382324219, 10.56118392944336, 6.530750274658203, -2.812974214553833, 3.65169358253479, -1.9956436157226562, 0.9993394017219543, -0.54443359375, -0.076171875, -0.767578125, 0, 
264, 595523005, 87.1704330444336, -65.45023345947266, -122.03185272216797, 10.385615348815918, 6.297169208526611, 1.697831392288208, 1.8052399158477783, -0.6485651731491089, 2.2000322341918945, -0.54052734375, -0.08203125, -0.7587890625, 0, 
265, 595531338, 87.13265228271484, -65.4544448852539, -122.0255126953125, 8.338905334472656, 3.2125871181488037, -0.10481621325016022, -0.5207501649856567, -0.8855737447738647, 1.5601630210876465, -0.53955078125, -0.080078125, -0.74462890625, 0, 
266, 595539671, 87.12171936035156, -65.44939422607422, -122.00296783447266, 7.339468002319336, 1.261400580406189, 0.3117326498031616, 4.276732444763184, -0.049115296453237534, 0.49717235565185547, -0.54150390625, -0.07568359375, -0.759765625, 0, 
267, 595548004, 87.14789581298828, -65.44338989257812, -122.02545928955078, 8.281181335449219, 2.915682077407837, 2.187441110610962, 3.816444158554077, -2.286979913711548, 0.26930806040763855, -0.541015625, -0.072265625, -0.7783203125, 0, 
268, 595556337, 87.19829559326172, -65.44010162353516, -122.0425033569336, 10.161956787109375, 5.8010687828063965, -2.352017641067505, 7.009463310241699, -2.2374675273895264, 0.5897933840751648, -0.5400390625, -0.07763671875, -0.765625, 0, 
269, 595564670, 87.18610382080078, -65.44821166992188, -122.04637145996094, 10.501946449279785, 6.8033447265625, 2.4810171127319336, 1.2453385591506958, -1.4430420398712158, 2.00907826423645, -0.5419921875, -0.080078125, -0.75830078125, 0, 
270, 595573003, 87.14720153808594, -65.45458221435547, -122.02703094482422, 8.896333694458008, 4.191743850708008, -2.083338737487793, 0.638870358467102, -0.30697381496429443, 1.8461717367172241, -0.53955078125, -0.08154296875, -0.74560546875, 0, 
271, 595581336, 87.11981964111328, -65.45089721679688, -122.00261688232422, 7.515092372894287, 1.7589430809020996, 2.437967538833618, 2.466292381286621, -0.043966833502054214, 0.6597201824188232, -0.54248046875, -0.0791015625, -0.7548828125, 0, 
272, 595589669, 87.13502502441406, -65.4462661743164, -122.01758575439453, 7.8407440185546875, 1.9402002096176147, -0.5627904534339905, 3.321141242980957, -1.918928861618042, 0.45065686106681824, -0.5419921875, -0.07275390625, -0.77197265625, 0, 
273, 595598002, 87.19395446777344, -65.44172668457031, -122.03802490234375, 9.674514770507812, 4.977715015411377, 0.5239091515541077, 7.967409610748291, -2.193615674972534, 0.4518607258796692, -0.54248046875, -0.07958984375, -0.7685546875, 0, 
274, 595606335, 87.18866729736328, -65.4459457397461, -122.05455017089844, 10.661264419555664, 6.991604328155518, 0.6720762252807617, 0.7547491192817688, -2.084550380706787, 1.502402901649475, -0.54296875, -0.08056640625, -0.76318359375, 0, 
275, 595614668, 87.16214752197266, -65.45498657226562, -122.0333251953125, 9.573671340942383, 5.079577445983887, -1.370668649673462, 2.2644007205963135, -0.19813890755176544, 2.1812570095062256, -0.5419921875, -0.0810546875, -0.74951171875, 0, 
276, 595623001, 87.125732421875, -65.45526123046875, -122.02278137207031, 7.854637145996094, 2.3165698051452637, 2.5812249183654785, 0.3284001350402832, -0.5559442639350891, 1.1007205247879028, -0.5400390625, -0.07958984375, -0.74658203125, 0, 
277, 595631334, 87.13001251220703, -65.44982147216797, -122.01787567138672, 7.391702651977539, 1.4367122650146484, -1.6639560461044312, 4.139030456542969, -1.0037834644317627, 0.39563748240470886, -0.54443359375, -0.07373046875, -0.767578125, 0, 
278, 595639667, 87.18428039550781, -65.4448471069336, -122.04457092285156, 8.962675094604492, 4.15240478515625, 2.844003200531006, 6.7291154861450195, -2.502267360687256, 0.381344735622406, -0.54345703125, -0.07421875, -0.7685546875, 0, 
279, 595648000, 87.19711303710938, -65.44486236572266, -122.0589370727539, 10.667815208435059, 6.575677394866943, -1.9862291812896729, 3.0990147590637207, -1.9179809093475342, 1.0089190006256104, -0.541015625, -0.078125, -0.7626953125, 0, 
280, 595656333, 87.17375183105469, -65.4547348022461, -122.0421371459961, 10.323205947875977, 6.08872652053833, 0.9581522345542908, 1.9819527864456177, -0.570672333240509, 2.258765459060669, -0.54052734375, -0.08251953125, -0.75927734375, 0, 
281, 595664666, 87.13721466064453, -65.45878601074219, -122.03474426269531, 8.174284934997559, 3.1816961765289307, 0.25127968192100525, -0.4478777050971985, -0.8579871654510498, 1.5497380495071411, -0.54052734375, -0.0810546875, -0.74462890625, 0, 
282, 595672999, 87.12522888183594, -65.45411682128906, -122.0106201171875, 7.298994541168213, 1.2439571619033813, 0.03358565270900726, 4.121791362762451, -0.13210541009902954, 0.5310087203979492, -0.54150390625, -0.07421875, -0.75634765625, 0, 
283, 595681332, 87.15655517578125, -65.44788360595703, -122.03335571289062, 8.324419021606445, 2.8850626945495605, 2.3827455043792725, 4.51668643951416, -2.3112621307373047, 0.2347288727760315, -0.54150390625, -0.07470703125, -0.77099609375, 0, 
284, 595689665, 87.2013168334961, -65.44511413574219, -122.0513687133789, 10.287541389465332, 6.0503644943237305, -2.7327635288238525, 6.532680511474609, -2.082271099090576, 0.6673020720481873, -0.54443359375, -0.076171875, -0.76513671875, 0, 
285, 595697998, 87.18684387207031, -65.45370483398438, -122.05414581298828, 10.588784217834473, 6.935024261474609, 2.791879177093506, 1.088681936264038, -1.3909426927566528, 2.067683458328247, -0.541015625, -0.080078125, -0.7587890625, 0, 
286, 595706331, 87.14713287353516, -65.46073913574219, -122.0377197265625, 8.798605918884277, 3.875185489654541, -1.8559250831604004, 0.20330017805099487, -0.466448038816452, 1.9238849878311157, -0.5419921875, -0.08251953125, -0.74462890625, 0, 
287, 595714664, 87.12210845947266, -65.4561538696289, -122.01156616210938, 7.5267744064331055, 1.5018717050552368, 1.9696670770645142, 2.980395555496216, 0.1290445327758789, 0.561079740524292, -0.54052734375, -0.0771484375, -0.75, 0, 
288, 595722997, 87.13573455810547, -65.44998931884766, -122.02777862548828, 7.85031270980835, 2.2657630443573, 0.10230732709169388, 3.1879727840423584, -1.9491535425186157, 0.26072728633880615, -0.5419921875, -0.07421875, -0.76953125, 0, 
289, 595731330, 87.19288635253906, -65.44528198242188, -122.05205535888672, 9.683943748474121, 5.024811267852783, -0.0849093645811081, 7.7201313972473145, -2.272252082824707, 0.41835737228393555, -0.54296875, -0.07666015625, -0.7666015625, 0, 
290, 595739663, 87.18824768066406, -65.4490966796875, -122.06389617919922, 10.633967399597168, 6.923829555511475, 0.7948427796363831, 1.2796103954315186, -1.8145253658294678, 1.471409797668457, -0.54150390625, -0.080078125, -0.75927734375, 0, 
291, 595747996, 87.15757751464844, -65.45801544189453, -122.04460906982422, 9.566008567810059, 4.99087381362915, -1.1180003881454468, 1.5518896579742432, -0.2942691445350647, 2.1598434448242188, -0.541015625, -0.08251953125, -0.75146484375, 0, 
292, 595756329, 87.11929321289062, -65.45733642578125, -122.02814483642578, 7.702832221984863, 2.3481924533843994, 2.081892251968384, 0.4846212863922119, -0.3756968080997467, 1.000491976737976, -0.54052734375, -0.08203125, -0.74365234375, 0, 
293, 595764662, 87.12462615966797, -65.45234680175781, -122.02596282958984, 7.477842330932617, 1.5895150899887085, -1.214850664138794, 4.005220890045166, -1.0631572008132935, 0.45275717973709106, -0.54443359375, -0.07177734375, -0.767578125, 0, 
294, 595772995, 87.17784118652344, -65.44705200195312, -122.0523681640625, 9.111991882324219, 4.091180801391602, 2.807663679122925, 6.63595724105835, -2.549807548522949, 0.33616122603416443, -0.5400390625, -0.07568359375, -0.7685546875, 0, 
295, 595781328, 87.19075775146484, -65.4471435546875, -122.06771850585938, 10.655961990356445, 6.476663112640381, -2.1114444732666016, 3.152650833129883, -1.9677493572235107, 1.0123767852783203, -0.54296875, -0.076171875, -0.763671875, 0, 
296, 595789661, 87.16870880126953, -65.45581817626953, -122.0521240234375, 10.232770919799805, 6.008404731750488, 1.2185863256454468, 2.184279680252075, -0.4762839376926422, 2.122267723083496, -0.5390625, -0.078125, -0.76123046875, 0, 
297, 595797994, 87.13483428955078, -65.45854949951172, -122.04804992675781, 8.100443840026855, 3.233154058456421, 0.06881348788738251, -0.49096083641052246, -1.0142595767974854, 1.3808633089065552, -0.537109375, -0.076171875, -0.75048828125, 0, 
298, 595806327, 87.12421417236328, -65.45304870605469, -122.02532196044922, 7.263750076293945, 1.3013278245925903, -0.0056174821220338345, 4.298376560211182, -0.1179407462477684, 0.4373630881309509, -0.53759765625, -0.07275390625, -0.771484375, 0, 
299, 595814660, 87.15182495117188, -65.44721221923828, -122.04519653320312, 8.460503578186035, 3.073038339614868, 2.4111461639404297, 4.27168607711792, -2.1571412086486816, 0.29651039838790894, -0.5439453125, -0.07177734375, -0.779296875, 0, 
300, 595822993, 87.19428253173828, -65.44424438476562, -122.05896759033203, 10.395463943481445, 5.882955551147461, -2.6346240043640137, 6.326869487762451, -2.113981246948242, 0.6332863569259644, -0.54150390625, -0.072265625, -0.7724609375, 0, 
301, 595831326, 87.17640686035156, -65.45223999023438, -122.05829620361328, 10.492573738098145, 6.859063625335693, 2.6376330852508545, 1.135274052619934, -1.2456073760986328, 1.9981663227081299, -0.541015625, -0.0771484375, -0.7666015625, 0, 
302, 595839659, 87.13764190673828, -65.46001434326172, -122.04244995117188, 8.754809379577637, 3.9636476039886475, -1.6431376934051514, 0.20424789190292358, -0.45796969532966614, 2.0135092735290527, -0.53662109375, -0.078125, -0.75146484375, 0, 
303, 595847992, 87.1163558959961, -65.45642852783203, -122.02123260498047, 7.494150638580322, 1.5027644634246826, 2.0088577270507812, 2.888619899749756, -0.12360149621963501, 0.6685059666633606, -0.537109375, -0.07177734375, -0.76220703125, 0, 
304, 595856325, 87.13043975830078, -65.4504623413086, -122.039306640625, 7.9080491065979, 2.094874143600464, 0.009020563215017319, 3.350597620010376, -1.8973102569580078, 0.2902604639530182, -0.5380859375, -0.06982421875, -0.77978515625, 0, 
305, 595864658, 87.18916320800781, -65.44580078125, -122.05877685546875, 9.733088493347168, 5.148094654083252, -0.055237822234630585, 8.052217483520508, -2.144871950149536, 0.43567249178886414, -0.53955078125, -0.07421875, -0.77734375, 0, 
306, 595872991, 87.18037414550781, -65.45025634765625, -122.07064819335938, 10.592832565307617, 6.973077774047852, 0.9453147053718567, 0.8371243476867676, -1.851845145225525, 1.5457420349121094, -0.53955078125, -0.07568359375, -0.77001953125, 0, 
307, 595881324, 87.14556121826172, -65.45899200439453, -122.0440902709961, 9.504858016967773, 4.988302707672119, -1.463318943977356, 1.7509890794754028, -0.04519631713628769, 2.141247510910034, -0.53466796875, -0.07763671875, -0.7568359375, 0, 
308, 595889657, 87.11009979248047, -65.45909881591797, -122.03101348876953, 7.860688209533691, 2.1989340782165527, 2.5573415756225586, 0.30163320899009705, -0.5507188439369202, 1.0897831916809082, -0.533203125, -0.07666015625, -0.75439453125, 0, 
309, 595897990, 87.1187973022461, -65.453857421875, -122.03070068359375, 7.422637939453125, 1.4790315628051758, -1.647159218788147, 4.208111763000488, -1.1545488834381104, 0.4171534478664398, -0.5400390625, -0.0712890625, -0.779296875, 0, 
310, 595906323, 87.1731185913086, -65.44799041748047, -122.05620574951172, 9.071428298950195, 4.189243793487549, 2.929591178894043, 6.886464595794678, -2.490997552871704, 0.26974350214004517, -0.5400390625, -0.0703125, -0.7783203125, 0, 
311, 595914656, 87.18343353271484, -65.44782257080078, -122.0702896118164, 10.566805839538574, 6.610929489135742, -2.0210962295532227, 2.831500291824341, -1.904943585395813, 0.992244303226471, -0.5390625, -0.07275390625, -0.7734375, 0, 
312, 595922989, 87.15978240966797, -65.45672607421875, -122.05423736572266, 10.151501655578613, 5.985153675079346, 0.9192035794258118, 2.2334842681884766, -0.4284364879131317, 2.151339530944824, -0.53759765625, -0.07666015625, -0.7666015625, 0, 
313, 595931322, 87.12490844726562, -65.45958709716797, -122.04889678955078, 8.13668441772461, 3.0336713790893555, 0.6554638147354126, -0.39687979221343994, -0.9821139574050903, 1.3908785581588745, -0.537109375, -0.076171875, -0.75390625, 0, 
314, 595939655, 87.11554718017578, -65.4537582397461, -122.02976989746094, 7.281912326812744, 1.360538363456726, -0.42227813601493835, 4.092104434967041, -0.21550536155700684, 0.3932553231716156, -0.5390625, -0.0703125, -0.771484375, 0, 
315, 595947988, 87.1465835571289, -65.44837188720703, -122.05233764648438, 8.45713996887207, 3.2381842136383057, 2.54494309425354, 4.391176700592041, -2.2942543029785156, 0.3439992070198059, -0.53955078125, -0.07275390625, -0.78125, 0, 
316, 595956321, 87.18880462646484, -65.44540405273438, -122.07149505615234, 10.417997360229492, 5.798732757568359, -2.3695731163024902, 6.111274242401123, -2.199122905731201, 0.6330558061599731, -0.537109375, -0.0732421875, -0.77294921875, 0, 
317, 595964654, 87.17575073242188, -65.4521713256836, -122.07363891601562, 10.487923622131348, 6.621264934539795, 2.1891884803771973, 1.3273040056228638, -1.348422884941101, 1.8510127067565918, -0.5400390625, -0.076171875, -0.76611328125, 0, 
318, 595972987, 87.13615417480469, -65.45838928222656, -122.05583953857422, 8.658577919006348, 4.046391010284424, -1.4248368740081787, 0.44773682951927185, -0.3574594259262085, 1.827012062072754, -0.54052734375, -0.07958984375, -0.7529296875, 0, 
319, 595981320, 87.11296081542969, -65.45478820800781, -122.03472137451172, 7.40015172958374, 1.7486932277679443, 1.9289438724517822, 2.651329517364502, -0.1308247148990631, 0.6682242155075073, -0.53759765625, -0.07275390625, -0.76220703125, 0, 
320, 595989653, 87.12509155273438, -65.44954681396484, -122.0537338256836, 7.984189033508301, 2.0815489292144775, -0.20779652893543243, 3.342811107635498, -1.8019742965698242, 0.3800128102302551, -0.53857421875, -0.0703125, -0.7802734375, 0, 
321, 595997986, 87.1834945678711, -65.4446792602539, -122.07502746582031, 9.777776718139648, 5.054789066314697, 0.25755903124809265, 7.812471389770508, -2.233830451965332, 0.40893131494522095, -0.5400390625, -0.072265625, -0.783203125, 0, 
322, 596006319, 87.17597198486328, -65.44926452636719, -122.08853912353516, 10.553451538085938, 6.90912389755249, 0.8519566059112549, 0.8667344450950623, -1.9182629585266113, 1.5535802841186523, -0.5390625, -0.07373046875, -0.77099609375, 0, 
323, 596014652, 87.14371490478516, -65.45806121826172, -122.0647964477539, 9.506546020507812, 5.038722991943359, -1.444869875907898, 1.8910478353500366, -0.11645513027906418, 2.146857261657715, -0.53857421875, -0.07861328125, -0.7646484375, 0, 
324, 596022985, 87.10859680175781, -65.45621490478516, -122.05292510986328, 7.842169761657715, 2.288630723953247, 2.6235554218292236, 0.20957565307617188, -0.5986943244934082, 0.8515450954437256, -0.53662109375, -0.07763671875, -0.75439453125, 0, 
325, 596031318, 87.11613464355469, -65.45023345947266, -122.05139923095703, 7.453903675079346, 1.4879812002182007, -1.7034249305725098, 4.198454856872559, -1.0901033878326416, 0.3329850733280182, -0.5380859375, -0.07177734375, -0.7763671875, 0, 
326, 596039651, 87.16852569580078, -65.44389343261719, -122.07527923583984, 9.0967435836792, 4.177760601043701, 2.7923340797424316, 6.863282680511475, -2.396505832672119, 0.21592798829078674, -0.53955078125, -0.0751953125, -0.7802734375, 0, 
327, 596047984, 87.17765045166016, -65.44467163085938, -122.0898666381836, 10.5553560256958, 6.673222064971924, -1.9939485788345337, 2.6312994956970215, -1.9344511032104492, 1.1048188209533691, -0.5400390625, -0.07373046875, -0.77783203125, 0, 
328, 596056317, 87.15534210205078, -65.45390319824219, -122.07524871826172, 10.222193717956543, 6.010190010070801, 0.8379837274551392, 2.2030036449432373, -0.5209295153617859, 2.184023141860962, -0.5361328125, -0.07861328125, -0.7646484375, 0, 
329, 596064650, 87.120849609375, -65.45824432373047, -122.07039642333984, 8.189017295837402, 3.014600992202759, 0.6710618138313293, -0.37392938137054443, -1.0029637813568115, 1.5691534280776978, -0.537109375, -0.07763671875, -0.75244140625, 0, 
330, 596072983, 87.10982513427734, -65.45301818847656, -122.04949951171875, 7.312740325927734, 1.2521331310272217, -0.3929758071899414, 4.086673736572266, -0.13282260298728943, 0.469047874212265, -0.5380859375, -0.07080078125, -0.77099609375, 0, 
331, 596081316, 87.14163208007812, -65.44688415527344, -122.07209014892578, 8.377235412597656, 3.1745822429656982, 2.530103921890259, 4.481057643890381, -2.289003610610962, 0.25342726707458496, -0.54150390625, -0.0732421875, -0.78076171875, 0, 
332, 596089649, 87.18802642822266, -65.44383239746094, -122.0953140258789, 10.325140953063965, 5.794821262359619, -2.4782299995422363, 6.3069939613342285, -2.3384900093078613, 0.6153820753097534, -0.53955078125, -0.07275390625, -0.7744140625, 0, 
333, 596097982, 87.17342376708984, -65.45126342773438, -122.0947265625, 10.449823379516602, 6.6912665367126465, 2.236034393310547, 1.44167160987854, -1.2153569459915161, 1.9369996786117554, -0.53955078125, -0.076171875, -0.76611328125, 0, 
334, 596106315, 87.13304901123047, -65.45748138427734, -122.07659912109375, 8.763636589050293, 4.12884521484375, -1.5356926918029785, 0.2426948994398117, -0.4085342586040497, 1.8249632120132446, -0.5390625, -0.08056640625, -0.75244140625, 0, 
335, 596114648, 87.1078872680664, -65.45378875732422, -122.05255889892578, 7.4841837882995605, 1.6869176626205444, 1.9539375305175781, 2.7942311763763428, -0.01727680116891861, 0.6577991843223572, -0.53515625, -0.07470703125, -0.76171875, 0, 
336, 596122981, 87.12389373779297, -65.44908142089844, -122.0679931640625, 7.995200157165527, 2.0496015548706055, -0.03930693864822388, 3.3623549938201904, -1.941290020942688, 0.44302380084991455, -0.53955078125, -0.06787109375, -0.779296875, 0, 
337, 596131314, 87.18328094482422, -65.44447326660156, -122.09053802490234, 9.775993347167969, 5.101413249969482, 0.12595659494400024, 7.796872138977051, -2.2961502075195312, 0.43900245428085327, -0.53955078125, -0.072265625, -0.77734375, 0, 
338, 596139647, 87.17732238769531, -65.44883728027344, -122.11012268066406, 10.607248306274414, 6.9834747314453125, 0.8912546038627625, 0.8211924433708191, -2.0232558250427246, 1.5157737731933594, -0.53662109375, -0.076171875, -0.767578125, 0, 
339, 596147980, 87.14774322509766, -65.45732879638672, -122.0865707397461, 9.510205268859863, 4.891334533691406, -1.4038069248199463, 2.1483168601989746, -0.08126115798950195, 2.1231894493103027, -0.53662109375, -0.07763671875, -0.755859375, 0, 
340, 596156313, 87.1114501953125, -65.45574951171875, -122.0699234008789, 7.784024238586426, 2.2451486587524414, 2.5084519386291504, 0.6730653047561646, -0.38809412717819214, 0.8894287347793579, -0.53466796875, -0.076171875, -0.75537109375, 0, 
341, 596164646, 87.11756896972656, -65.44976043701172, -122.0661392211914, 7.461604595184326, 1.5082744359970093, -1.663604497909546, 4.117795944213867, -1.1156665086746216, 0.3297576904296875, -0.53955078125, -0.0712890625, -0.7763671875, 0, 
342, 596172979, 87.1704330444336, -65.4450912475586, -122.08963012695312, 9.01980972290039, 4.285953521728516, 2.7379658222198486, 6.9097981452941895, -2.3444833755493164, 0.4241461157798767, -0.53857421875, -0.07275390625, -0.7783203125, 0, 
343, 596181312, 87.18107604980469, -65.44593048095703, -122.10330963134766, 10.715499877929688, 6.587508201599121, -1.7399004697799683, 2.913670301437378, -1.889344334602356, 1.109736680984497, -0.53857421875, -0.07275390625, -0.77197265625, 0, 
344, 596189645, 87.15924072265625, -65.45500183105469, -122.0879135131836, 10.26671314239502, 5.977443218231201, 0.6830228567123413, 1.9756516218185425, -0.6523306369781494, 2.1554126739501953, -0.53857421875, -0.07861328125, -0.7626953125, 0, 
345, 596197978, 87.1236572265625, -65.45777130126953, -122.07989501953125, 8.110800743103027, 3.142787218093872, 0.49723678827285767, -0.26688751578330994, -0.8198988437652588, 1.394336462020874, -0.53662109375, -0.080078125, -0.7490234375, 0, 
346, 596206311, 87.11599731445312, -65.4525146484375, -122.06175231933594, 7.295553207397461, 1.250165581703186, -0.061566926538944244, 4.072638034820557, -0.387325644493103, 0.4547807276248932, -0.53759765625, -0.07470703125, -0.76416015625, 0, 
347, 596214644, 87.1454086303711, -65.4461669921875, -122.0819320678711, 8.404191970825195, 2.9514966011047363, 2.2762057781219482, 4.622241973876953, -2.1577301025390625, 0.22783859074115753, -0.54052734375, -0.0712890625, -0.78125, 0, 
348, 596222977, 87.18655395507812, -65.44269561767578, -122.098388671875, 10.286754608154297, 6.11461067199707, -2.499995708465576, 6.269493579864502, -2.001508951187134, 0.5846448540687561, -0.54296875, -0.0791015625, -0.76708984375, 0, 
349, 596231310, 87.17356872558594, -65.4500503540039, -122.10049438476562, 10.541780471801758, 6.7815165519714355, 2.6221420764923096, 1.340367317199707, -1.3508051633834839, 1.9231934547424316, -0.54345703125, -0.08447265625, -0.7529296875, 0, 
350, 596239643, 87.13330078125, -65.4574966430664, -122.08155822753906, 8.772231101989746, 3.909299373626709, -1.743664264678955, 0.2385966032743454, -0.4277961254119873, 1.9691966772079468, -0.54296875, -0.08544921875, -0.7392578125, 0, 
351, 596247976, 87.10905456542969, -65.45305633544922, -122.05814361572266, 7.4987568855285645, 1.5316717624664307, 2.025528907775879, 2.7740731239318848, -0.009029018692672253, 0.5691739320755005, -0.5419921875, -0.0791015625, -0.74853515625, 0, 
352, 596256309, 87.12641143798828, -65.44759368896484, -122.07527923583984, 7.895453453063965, 2.2208120822906494, 0.05037626251578331, 3.4098689556121826, -2.055170774459839, 0.34402474761009216, -0.5458984375, -0.0751953125, -0.767578125, 0, 
353, 596264642, 87.1822738647461, -65.44298553466797, -122.09444427490234, 9.756567001342773, 5.061972141265869, -0.13482065498828888, 7.739751815795898, -2.1906192302703857, 0.44012945890426636, -0.54296875, -0.07861328125, -0.76513671875, 0, 
354, 596272975, 87.17485809326172, -65.44786071777344, -122.10659790039062, 10.573904991149902, 6.969109058380127, 0.9391272068023682, 0.9105861186981201, -1.8377315998077393, 1.5955363512039185, -0.5419921875, -0.07763671875, -0.76025390625, 0, 
355, 596281308, 87.14210510253906, -65.4563980102539, -122.08303833007812, 9.463765144348145, 4.907578468322754, -1.4097853899002075, 1.7688933610916138, -0.07885342091321945, 2.129234552383423, -0.54296875, -0.08203125, -0.75244140625, 0, 
356, 596289641, 87.10480499267578, -65.45507049560547, -122.06460571289062, 7.695521831512451, 2.226665735244751, 2.4648196697235107, 0.7461938261985779, -0.3028498589992523, 0.925186038017273, -0.54052734375, -0.08056640625, -0.74658203125, 0, 
357, 596297974, 87.11436462402344, -65.4498519897461, -122.06653594970703, 7.498475074768066, 1.5837788581848145, -1.532472014427185, 4.066285610198975, -1.2646644115447998, 0.412517249584198, -0.54443359375, -0.0751953125, -0.76904296875, 0, 
358, 596306307, 87.1680908203125, -65.44517517089844, -122.08967590332031, 9.133962631225586, 4.274175643920898, 2.833765745162964, 7.007363319396973, -2.414487600326538, 0.4150530993938446, -0.54248046875, -0.07568359375, -0.767578125, 0, 
359, 596314640, 87.17692565917969, -65.44609069824219, -122.10151672363281, 10.654523849487305, 6.571674346923828, -1.8223817348480225, 2.6973836421966553, -1.9496914148330688, 1.1122468709945679, -0.5419921875, -0.0791015625, -0.7646484375, 0, 
360, 596322973, 87.15451049804688, -65.45571899414062, -122.08535766601562, 10.157008171081543, 5.91434907913208, 0.8145948052406311, 2.2043354511260986, -0.4545886218547821, 2.236506938934326, -0.5400390625, -0.0830078125, -0.7529296875, 0, 
361, 596331306, 87.1163101196289, -65.4570083618164, -122.0772705078125, 8.046398162841797, 3.1542036533355713, 0.4591412842273712, -0.5746169686317444, -0.8060159683227539, 1.219852328300476, -0.54150390625, -0.0830078125, -0.74169921875, 0, 
362, 596339639, 87.11048889160156, -65.452392578125, -122.06045532226562, 7.289296627044678, 1.2555774450302124, -0.32241949439048767, 4.299016952514648, -0.38691583275794983, 0.5279094576835632, -0.54345703125, -0.0712890625, -0.76123046875, 0, 
363, 596347972, 87.14227294921875, -65.44673919677734, -122.08124542236328, 8.473401069641113, 3.1043708324432373, 2.6540725231170654, 4.674059867858887, -2.202376127243042, 0.315644234418869, -0.54345703125, -0.07470703125, -0.771484375, 0, 
364, 596356305, 87.18252563476562, -65.4442367553711, -122.09829711914062, 10.421980857849121, 6.113762855529785, -2.7953884601593018, 5.9431681632995605, -2.174686908721924, 0.6856417655944824, -0.5419921875, -0.07763671875, -0.765625, 0, 
365, 596364638, 87.16503143310547, -65.45353698730469, -122.09766387939453, 10.511838912963867, 6.832429885864258, 2.727435350418091, 1.1389626264572144, -1.2714778184890747, 2.156949281692505, -0.54296875, -0.0791015625, -0.75927734375, 0, 
366, 596372971, 87.13044738769531, -65.46012878417969, -122.08680725097656, 8.633122444152832, 3.7592217922210693, -1.5826785564422607, 0.16393108665943146, -0.7005621194839478, 1.863768458366394, -0.53955078125, -0.08203125, -0.74755859375, 0, 
367, 596381304, 87.11085510253906, -65.45494079589844, -122.06475830078125, 7.4113593101501465, 1.3596627712249756, 1.9174290895462036, 3.1842081546783447, -0.07163021713495255, 0.4813171327114105, -0.54150390625, -0.0791015625, -0.75634765625, 0, 
368, 596389637, 87.12525177001953, -65.44843292236328, -122.07942962646484, 7.984435081481934, 2.2784273624420166, 0.27942460775375366, 3.269605875015259, -1.9510234594345093, 0.21487781405448914, -0.54296875, -0.0732421875, -0.77490234375, 0, 
369, 596397970, 87.18340301513672, -65.44416046142578, -122.09928894042969, 9.794508934020996, 5.344171047210693, -0.6088495254516602, 7.939977169036865, -2.1670029163360596, 0.48205986618995667, -0.54296875, -0.076171875, -0.76708984375, 0, 
370, 596406303, 87.1722412109375, -65.44995880126953, -122.10759735107422, 10.60999584197998, 7.03110933303833, 1.3831368684768677, 0.813994824886322, -1.7465195655822754, 1.7119275331497192, -0.54150390625, -0.078125, -0.76220703125, 0, 
371, 596414636, 87.13582611083984, -65.45829010009766, -122.08386993408203, 9.450821876525879, 4.8129096031188965, -1.7505450248718262, 1.3739476203918457, -0.12511274218559265, 2.091120719909668, -0.54150390625, -0.08203125, -0.75048828125, 0, 
372, 596422969, 87.1031723022461, -65.45723724365234, -122.07006072998047, 7.8500518798828125, 2.080232620239258, 2.6758928298950195, 0.7171472907066345, -0.5103251934051514, 0.9507235884666443, -0.53955078125, -0.08056640625, -0.74755859375, 0, 
373, 596431302, 87.11387634277344, -65.45256042480469, -122.07379913330078, 7.4174299240112305, 1.5300583839416504, -1.5867496728897095, 4.0059895515441895, -1.3604360818862915, 0.4787557125091553, -0.54345703125, -0.076171875, -0.765625, 0, 
374, 596439635, 87.17001342773438, -65.44699096679688, -122.0985107421875, 9.165103912353516, 4.38119649887085, 2.6177237033843994, 7.342629432678223, -2.3852622509002686, 0.30990666151046753, -0.54248046875, -0.0771484375, -0.76953125, 0, 
375, 596447968, 87.17472839355469, -65.44783782958984, -122.11383819580078, 10.525769233703613, 6.736207962036133, -1.542762279510498, 2.0199897289276123, -1.9690302610397339, 1.109224557876587, -0.5419921875, -0.076171875, -0.76123046875, 0, 
376, 596456301, 87.15518951416016, -65.45646667480469, -122.09771728515625, 10.192841529846191, 5.740354061126709, 0.32294589281082153, 2.4912149906158447, -0.5407037138938904, 2.1059255599975586, -0.54052734375, -0.08154296875, -0.75927734375, 0, 
377, 596464634, 87.11885070800781, -65.4586410522461, -122.08444213867188, 8.133096694946289, 2.959217071533203, 1.0931618213653564, -0.44813382625579834, -0.9248403906822205, 1.3138563632965088, -0.54052734375, -0.0849609375, -0.74462890625, 0, 
378, 596472967, 87.11189270019531, -65.45231628417969, -122.06709289550781, 7.302708625793457, 1.3241374492645264, -0.8144435286521912, 4.186493396759033, -0.29852110147476196, 0.3320885896682739, -0.54052734375, -0.07373046875, -0.77099609375, 0, 
379, 596481300, 87.149658203125, -65.44694519042969, -122.09120178222656, 8.498698234558105, 3.380518913269043, 2.9277703762054443, 5.030482292175293, -2.3707385063171387, 0.34289777278900146, -0.5400390625, -0.07470703125, -0.7685546875, 0, 
380, 596489633, 87.18573760986328, -65.44493865966797, -122.1093978881836, 10.538643836975098, 6.009659767150879, -2.652524709701538, 5.380603313446045, -2.2073707580566406, 0.7464244365692139, -0.54150390625, -0.07861328125, -0.76220703125, 0, 
381, 596497966, 87.16808319091797, -65.45317840576172, -122.10482025146484, 10.510930061340332, 6.63931131362915, 2.172654628753662, 1.5088064670562744, -1.0223537683486938, 2.039686918258667, -0.54248046875, -0.078125, -0.759765625, 0, 
382, 596506299, 87.13038635253906, -65.45833587646484, -122.08995819091797, 8.526415824890137, 3.815539598464966, -1.1769968271255493, 0.2080388069152832, -0.5658824443817139, 1.6946377754211426, -0.53857421875, -0.08203125, -0.7451171875, 0, 
383, 596514632, 87.10929870605469, -65.45390319824219, -122.06564331054688, 7.338409423828125, 1.5542291402816772, 1.483576774597168, 3.3164544105529785, -0.0007556199561804533, 0.5720683932304382, -0.53955078125, -0.078125, -0.75830078125, 0, 
384, 596522965, 87.12535858154297, -65.44727325439453, -122.08219146728516, 8.00324535369873, 2.2893364429473877, 0.5750499367713928, 3.2528538703918457, -1.9858075380325317, 0.2057335376739502, -0.54150390625, -0.0751953125, -0.77490234375, 0, 
385, 596531298, 87.18251037597656, -65.44326782226562, -122.10279083251953, 9.963584899902344, 5.282163143157959, -0.7397754192352295, 7.736268520355225, -2.2057831287384033, 0.5143339037895203, -0.54150390625, -0.076171875, -0.76611328125, 0, 
386, 596539631, 87.17393493652344, -65.44759368896484, -122.11499786376953, 10.680169105529785, 7.006282806396484, 1.5143202543258667, 0.9001609683036804, -1.8430081605911255, 1.523201823234558, -0.541015625, -0.076171875, -0.76025390625, 0, 
387, 596547964, 87.13787841796875, -65.45683288574219, -122.09266662597656, 9.369593620300293, 4.782657146453857, -1.7635407447814941, 1.239370346069336, -0.14575780928134918, 2.2064614295959473, -0.53857421875, -0.08056640625, -0.7548828125, 0, 
388, 596556297, 87.10234832763672, -65.45482635498047, -122.07508087158203, 7.6539788246154785, 2.0641672611236572, 2.514274835586548, 1.0177303552627563, -0.2692440450191498, 0.846114993095398, -0.53857421875, -0.080078125, -0.7470703125, 0, 
389, 596564630, 87.10856628417969, -65.44905090332031, -122.07568359375, 7.4489946365356445, 1.5378271341323853, -1.2394561767578125, 3.8353729248046875, -1.251908540725708, 0.34615078568458557, -0.54150390625, -0.07421875, -0.7685546875, 0, 
390, 596572963, 87.16616821289062, -65.44257354736328, -122.10023498535156, 9.212722778320312, 4.389216899871826, 2.1509900093078613, 7.3621721267700195, -2.3852617740631104, 0.20855112373828888, -0.54345703125, -0.076171875, -0.77001953125, 0, 
391, 596581296, 87.17182922363281, -65.44363403320312, -122.11471557617188, 10.662422180175781, 6.817789077758789, -1.2967227697372437, 2.2276954650878906, -1.931633710861206, 1.1355046033859253, -0.544921875, -0.07861328125, -0.759765625, 0, 
392, 596589629, 87.1456298828125, -65.45394897460938, -122.0959701538086, 10.177608489990234, 5.801170349121094, 0.29781219363212585, 2.1123037338256836, -0.35530784726142883, 2.319369077682495, -0.5390625, -0.07861328125, -0.75634765625, 0, 
393, 596597962, 87.11262512207031, -65.45611572265625, -122.08971405029297, 8.104708671569824, 2.8326334953308105, 1.0769894123077393, -0.14993290603160858, -0.9034268856048584, 1.3201320171356201, -0.53759765625, -0.07861328125, -0.748046875, 0, 
394, 596606295, 87.10527038574219, -65.45008850097656, -122.07352447509766, 7.214021682739258, 1.2249010801315308, -0.6385984420776367, 4.166360378265381, -0.3574851155281067, 0.3595982491970062, -0.53955078125, -0.06982421875, -0.76904296875, 0, 
395, 596614628, 87.14032745361328, -65.44407653808594, -122.10279846191406, 8.475790023803711, 3.376720666885376, 2.6750099658966064, 4.902872085571289, -2.3422300815582275, 0.25706446170806885, -0.54150390625, -0.06884765625, -0.78125, 0, 
396, 596622961, 87.179443359375, -65.44172668457031, -122.12102508544922, 10.471650123596191, 6.007651329040527, -2.506929874420166, 5.832796573638916, -2.0963845252990723, 0.7183256149291992, -0.53955078125, -0.07470703125, -0.77490234375, 0, 
397, 596631294, 87.16394805908203, -65.4499282836914, -122.12042236328125, 10.476292610168457, 6.633590221405029, 2.205979108810425, 1.334476113319397, -1.2222728729248047, 2.026495933532715, -0.5380859375, -0.07421875, -0.7666015625, 0, 
398, 596639627, 87.12500762939453, -65.45477294921875, -122.10543823242188, 8.537580490112305, 3.7921204566955566, -1.3000249862670898, 0.14971520006656647, -0.5206477046012878, 1.6578044891357422, -0.53662109375, -0.0771484375, -0.7607421875, 0, 
399, 596647960, 87.10216522216797, -65.45098876953125, -122.0809326171875, 7.345560073852539, 1.642013669013977, 1.7374241352081299, 3.0618748664855957, 0.04146944731473923, 0.6544437408447266, -0.5390625, -0.0712890625, -0.76318359375, 0, 
400, 596656293, 87.11784362792969, -65.4459228515625, -122.09523010253906, 8.059764862060547, 2.3006646633148193, 0.30741438269615173, 3.3915293216705322, -1.9758179187774658, 0.39561185240745544, -0.541015625, -0.068359375, -0.7783203125, 0, 
401, 596664626, 87.17562103271484, -65.4406967163086, -122.11494445800781, 9.956542015075684, 5.1944475173950195, -0.3913419544696808, 7.910956382751465, -2.153811454772949, 0.3664628267288208, -0.5380859375, -0.07177734375, -0.78076171875, 0, 
402, 596672959, 87.16448211669922, -65.44613647460938, -122.12181854248047, 10.583449363708496, 6.888407230377197, 1.2844449281692505, 0.7500872015953064, -1.7737473249435425, 1.664233684539795, -0.537109375, -0.0732421875, -0.76953125, 0, 
403, 596681292, 87.13130950927734, -65.45370483398438, -122.09745025634766, 9.317691802978516, 4.768595218658447, -1.548475980758667, 1.8086979389190674, -0.03377236798405647, 2.010512590408325, -0.5390625, -0.078125, -0.75732421875, 0, 
404, 596689625, 87.09715270996094, -65.45166778564453, -122.08316040039062, 7.674986362457275, 2.2051570415496826, 2.4812569618225098, 0.7694260478019714, -0.4640146791934967, 0.8303366899490356, -0.5390625, -0.0751953125, -0.7578125, 0, 
405, 596697958, 87.10498809814453, -65.44634246826172, -122.08636474609375, 7.5174994468688965, 1.66432785987854, -1.5163698196411133, 4.068078517913818, -1.236027717590332, 0.39876243472099304, -0.54150390625, -0.0693359375, -0.7783203125, 0, 
406, 596706291, 87.1606216430664, -65.4412841796875, -122.11181640625, 9.226268768310547, 4.373454570770264, 2.670889139175415, 7.02944278717041, -2.4379501342773438, 0.3785271942615509, -0.53857421875, -0.07470703125, -0.78076171875, 0, 
407, 596714624, 87.16765594482422, -65.44208526611328, -122.12516021728516, 10.711609840393066, 6.618626117706299, -1.7074729204177856, 2.5152668952941895, -1.8743345737457275, 1.1057921648025513, -0.5400390625, -0.07421875, -0.771484375, 0, 
408, 596722957, 87.14391326904297, -65.45189666748047, -122.10782623291016, 10.08270263671875, 5.913790702819824, 0.6719754934310913, 2.087585687637329, -0.5017700791358948, 2.254513740539551, -0.5390625, -0.07666015625, -0.76220703125, 0, 
409, 596731290, 87.11075592041016, -65.45425415039062, -122.10430145263672, 8.04658031463623, 3.028038740158081, 0.6768754124641418, -0.46396344900131226, -1.0420254468917847, 1.3343223333358765, -0.5390625, -0.080078125, -0.75439453125, 0, 
410, 596739623, 87.10457611083984, -65.45002746582031, -122.0886459350586, 7.349388122558594, 1.2659541368484497, -0.49162986874580383, 4.2783203125, -0.3789498209953308, 0.5739638209342957, -0.53857421875, -0.0693359375, -0.7705078125, 0, 
411, 596747956, 87.13750457763672, -65.44389343261719, -122.1105728149414, 8.533239364624023, 3.1632871627807617, 2.8122687339782715, 4.734176158905029, -2.30024790763855, 0.24374504387378693, -0.53857421875, -0.068359375, -0.78271484375, 0, 
412, 596756289, 87.17572784423828, -65.44184112548828, -122.12647247314453, 10.339244842529297, 6.101220607757568, -2.9277708530426025, 5.980488300323486, -1.9849367141723633, 0.7614344358444214, -0.53857421875, -0.07275390625, -0.77587890625, 0, 
413, 596764622, 87.16091918945312, -65.4501953125, -122.12509155273438, 10.464057922363281, 6.747560977935791, 2.6620657444000244, 1.5016343593597412, -1.1818791627883911, 2.0502145290374756, -0.541015625, -0.07568359375, -0.77001953125, 0, 
414, 596772955, 87.12240600585938, -65.45729064941406, -122.11176300048828, 8.621932983398438, 3.818643569946289, -1.5125701427459717, -0.08418118208646774, -0.6680063605308533, 1.9208883047103882, -0.53759765625, -0.0791015625, -0.75634765625, 0, 
415, 596781288, 87.10247039794922, -65.45353698730469, -122.0877456665039, 7.463869094848633, 1.4184120893478394, 1.7132455110549927, 3.358487606048584, 0.01567591354250908, 0.6549304723739624, -0.53759765625, -0.07177734375, -0.7685546875, 0, 
416, 596789621, 87.11772155761719, -65.44873809814453, -122.10371398925781, 8.056102752685547, 2.2683639526367188, 0.43734484910964966, 3.2116408348083496, -2.0388033390045166, 0.4217383563518524, -0.53857421875, -0.06884765625, -0.77978515625, 0, 
417, 596797954, 87.17578125, -65.44407653808594, -122.12386322021484, 9.85042667388916, 5.27216911315918, -0.6855438947677612, 7.963798522949219, -2.21134090423584, 0.4263489246368408, -0.53662109375, -0.07373046875, -0.7763671875, 0, 
418, 596806287, 87.1689453125, -65.4504165649414, -122.13848114013672, 10.564523696899414, 7.033102035522461, 1.5090216398239136, 0.7137407064437866, -1.9677752256393433, 1.7686372995376587, -0.541015625, -0.0751953125, -0.76806640625, 0, 
419, 596814620, 87.1360855102539, -65.45938873291016, -122.11663818359375, 9.322141647338867, 4.696039199829102, -1.7956942319869995, 1.5683341026306152, -0.1697327196598053, 2.1706783771514893, -0.5361328125, -0.07763671875, -0.7646484375, 0, 
420, 596822953, 87.10279083251953, -65.45684814453125, -122.09893798828125, 7.741450309753418, 2.022695302963257, 2.6627960205078125, 1.1190857887268066, -0.34895551204681396, 0.7851018905639648, -0.5361328125, -0.078125, -0.75732421875, 0, 
421, 596831286, 87.11520385742188, -65.45076751708984, -122.10565948486328, 7.5809125900268555, 1.6515860557556152, -1.4761067628860474, 3.8841936588287354, -1.4993419647216797, 0.2972787916660309, -0.54052734375, -0.068359375, -0.779296875, 0, 
422, 596839619, 87.17201232910156, -65.44577026367188, -122.1296157836914, 9.25833511352539, 4.510681629180908, 2.373021125793457, 7.423468112945557, -2.389770269393921, 0.3811655044555664, -0.537109375, -0.0732421875, -0.77783203125, 0, 
423, 596847952, 87.17683410644531, -65.44730377197266, -122.14281463623047, 10.651867866516113, 6.673586368560791, -1.2218562364578247, 2.104875326156616, -2.015033483505249, 1.177025318145752, -0.54052734375, -0.07666015625, -0.77099609375, 0, 
424, 596856285, 87.1528091430664, -65.45561981201172, -122.12439727783203, 10.071502685546875, 5.725986480712891, 0.14638133347034454, 2.2554359436035156, -0.3349957764148712, 2.089096784591675, -0.5361328125, -0.076171875, -0.76123046875, 0, 
425, 596864618, 87.11479949951172, -65.45655059814453, -122.11682891845703, 8.055403709411621, 2.937472343444824, 1.0573121309280396, -0.6048161387443542, -0.8311435580253601, 1.1710317134857178, -0.53857421875, -0.07861328125, -0.75244140625, 0, 
426, 596872951, 87.11080932617188, -65.45189666748047, -122.10054779052734, 7.3373332023620605, 1.242120623588562, -0.7508158683776855, 4.340819358825684, -0.46752384305000305, 0.5202507376670837, -0.5400390625, -0.0712890625, -0.771484375, 0, 
427, 596881284, 87.15109252929688, -65.44637298583984, -122.12519073486328, 8.57823371887207, 3.3042678833007812, 2.9087975025177, 5.273868083953857, -2.396864652633667, 0.32099759578704834, -0.5419921875, -0.0712890625, -0.779296875, 0, 
428, 596889617, 87.18159484863281, -65.44539642333984, -122.14118957519531, 10.467501640319824, 6.3556036949157715, -2.9531335830688477, 5.137472629547119, -2.0137016773223877, 0.882897138595581, -0.5419921875, -0.07421875, -0.77197265625, 0, 
429, 596897950, 87.16210174560547, -65.45462799072266, -122.13481903076172, 10.537047386169434, 6.701079368591309, 2.5743749141693115, 1.4846779108047485, -1.0043725967407227, 2.156001567840576, -0.53857421875, -0.0751953125, -0.76611328125, 0, 
430, 596906283, 87.1258544921875, -65.46006774902344, -122.12567138671875, 8.573017120361328, 3.5177178382873535, -1.2911429405212402, -0.220909982919693, -0.7806066274642944, 1.7205595970153809, -0.5390625, -0.078125, -0.75537109375, 0, 
431, 596914616, 87.10709381103516, -65.45484924316406, -122.0991439819336, 7.329931259155273, 1.2343521118164062, 1.363874077796936, 3.7714145183563232, 0.15015064179897308, 0.4830332100391388, -0.53662109375, -0.072265625, -0.76953125, 0, 
432, 596922949, 87.1244888305664, -65.44896697998047, -122.11433410644531, 8.041496276855469, 2.546823740005493, 1.1445538997650146, 3.396780252456665, -2.0608060359954834, 0.29335981607437134, -0.53955078125, -0.06982421875, -0.78515625, 0, 
433, 596931282, 87.17961120605469, -65.44544982910156, -122.13345336914062, 9.978459358215332, 5.541786193847656, -1.5122640132904053, 7.6563262939453125, -2.1332180500030518, 0.5788561105728149, -0.54150390625, -0.07177734375, -0.78173828125, 0, 
434, 596939615, 87.16500854492188, -65.4522476196289, -122.1369400024414, 10.666773796081543, 7.06870174407959, 1.9308338165283203, 0.6962717771530151, -1.6189606189727783, 1.83295476436615, -0.53955078125, -0.07373046875, -0.771484375, 0, 
435, 596947948, 87.12320709228516, -65.46076202392578, -122.11124420166016, 9.217588424682617, 4.473334312438965, -1.9309072494506836, 1.0014140605926514, -0.00039702063077129424, 2.123420000076294, -0.53564453125, -0.0791015625, -0.76318359375, 0, 
436, 596956281, 87.09229278564453, -65.45722961425781, -122.09056091308594, 7.626075744628906, 1.800071120262146, 2.66815447807312, 1.6790642738342285, -0.15249434113502502, 0.6693511009216309, -0.537109375, -0.07373046875, -0.76123046875, 0, 
437, 596964614, 87.1056137084961, -65.45166015625, -122.09855651855469, 7.566080093383789, 1.6766020059585571, -1.199636459350586, 3.852252721786499, -1.5658107995986938, 0.35980314016342163, -0.541015625, -0.0703125, -0.779296875, 0, 
438, 596972947, 87.1644058227539, -65.44624328613281, -122.11819458007812, 9.333800315856934, 4.716825008392334, 1.790405035018921, 7.832986354827881, -2.311774253845215, 0.33283138275146484, -0.53955078125, -0.0732421875, -0.7802734375, 0, 
439, 596981280, 87.16475677490234, -65.44862365722656, -122.13552856445312, 10.607815742492676, 6.9230122566223145, -0.5893833041191101, 1.2777149677276611, -2.0809133052825928, 1.2876532077789307, -0.5390625, -0.07275390625, -0.77294921875, 0, 
440, 596989613, 87.1360855102539, -65.45743560791016, -122.1087417602539, 9.967228889465332, 5.438745021820068, -0.5050290822982788, 2.4462876319885254, -0.06307505816221237, 2.152902126312256, -0.5390625, -0.07666015625, -0.7626953125, 0, 
441, 596997946, 87.09585571289062, -65.4583511352539, -122.09638214111328, 7.986685276031494, 2.592669725418091, 1.96575129032135, -0.42554208636283875, -0.6910592913627625, 1.1750273704528809, -0.53759765625, -0.07763671875, -0.75390625, 0, 
442, 597006279, 87.09571838378906, -65.45264434814453, -122.08468627929688, 7.244696617126465, 1.3234467506408691, -1.5404912233352661, 4.388103008270264, -0.5858616232872009, 0.38936200737953186, -0.541015625, -0.06884765625, -0.77392578125, 0, 
443, 597014612, 87.13987731933594, -65.44734191894531, -122.10919189453125, 8.716254234313965, 3.807528257369995, 3.3064069747924805, 5.752931594848633, -2.391434669494629, 0.34812307357788086, -0.53759765625, -0.0703125, -0.77783203125, 0, 
444, 597022945, 87.16539764404297, -65.44695281982422, -122.12752532958984, 10.644294738769531, 6.304724216461182, -2.7691903114318848, 4.295328140258789, -2.129682779312134, 0.9484951496124268, -0.53955078125, -0.0771484375, -0.7685546875, 0, 
445, 597031278, 87.14566802978516, -65.45565795898438, -122.11829376220703, 10.446852684020996, 6.365263938903809, 1.9233232736587524, 1.7685350179672241, -0.7946432828903198, 2.1066174507141113, -0.541015625, -0.083984375, -0.75439453125, 0, 
446, 597039611, 87.1080322265625, -65.45941925048828, -122.10834503173828, 8.373628616333008, 3.5109291076660156, -0.6770660281181335, -0.1707829236984253, -0.735551118850708, 1.5172079801559448, -0.54150390625, -0.0859375, -0.74072265625, 0, 
447, 597047944, 87.09437561035156, -65.45429992675781, -122.08680725097656, 7.203892230987549, 1.3800281286239624, 1.0318447351455688, 3.906221866607666, -0.13361665606498718, 0.4820086359977722, -0.54248046875, -0.07666015625, -0.75537109375, 0, 
448, 597056277, 87.11687469482422, -65.44880676269531, -122.10514831542969, 8.19578742980957, 2.599966049194336, 1.454551100730896, 3.8269460201263428, -2.081989288330078, 0.33984968066215515, -0.54443359375, -0.07470703125, -0.7705078125, 0, 
449, 597064610, 87.16996765136719, -65.44459533691406, -122.12457275390625, 10.164738655090332, 5.714147567749023, -1.8138682842254639, 7.379334926605225, -2.1459736824035645, 0.4919727146625519, -0.54296875, -0.07958984375, -0.76318359375, 0, 
450, 597072943, 87.15731048583984, -65.45170593261719, -122.13127136230469, 10.631550788879395, 6.951261520385742, 2.428455114364624, 0.7437605261802673, -1.7036666870117188, 1.8696852922439575, -0.54443359375, -0.0771484375, -0.75732421875, 0, 
451, 597081276, 87.11747741699219, -65.45880126953125, -122.10851287841797, 8.990427017211914, 4.321855068206787, -2.2893424034118652, 0.8324882388114929, -0.11251051723957062, 1.9512412548065186, -0.54345703125, -0.08544921875, -0.74267578125, 0, 
452, 597089609, 87.08697509765625, -65.4554214477539, -122.0838851928711, 7.557475566864014, 1.6597298383712769, 2.822112560272217, 2.1209096908569336, -0.03769134730100632, 0.6907134652137756, -0.5400390625, -0.07861328125, -0.74853515625, 0, 
453, 597097942, 87.10375213623047, -65.44977569580078, -122.09959411621094, 7.68839168548584, 1.7173501253128052, -0.9197884202003479, 3.4425270557403564, -2.0096030235290527, 0.3222014307975769, -0.54296875, -0.07470703125, -0.77001953125, 0, 
454, 597106275, 87.16499328613281, -65.44467163085938, -122.12117767333984, 9.533555030822754, 4.947177410125732, 0.8837932348251343, 8.123119354248047, -2.246817111968994, 0.3766061067581177, -0.5439453125, -0.07861328125, -0.76806640625, 0, 
455, 597114608, 87.16110229492188, -65.44896697998047, -122.13851165771484, 10.698565483093262, 7.215581893920898, 0.35349956154823303, 0.7708092331886292, -2.0911848545074463, 1.5175153017044067, -0.54296875, -0.07861328125, -0.76123046875, 0, 
456, 597122941, 87.12891387939453, -65.45965576171875, -122.11454772949219, 9.730291366577148, 5.209203720092773, -1.1000239849090576, 1.9970908164978027, -0.08630717545747757, 2.3810482025146484, -0.53955078125, -0.08154296875, -0.759765625, 0, 
457, 597131274, 87.08949279785156, -65.46006774902344, -122.09870147705078, 7.935807228088379, 2.2361717224121094, 2.5448384284973145, 0.12591956555843353, -0.41527074575424194, 1.1313296556472778, -0.53857421875, -0.08251953125, -0.74658203125, 0, 
458, 597139607, 87.0958023071289, -65.45333099365234, -122.09612274169922, 7.307359218597412, 1.3533554077148438, -1.6895238161087036, 4.256369113922119, -1.0561389923095703, 0.2411068081855774, -0.5419921875, -0.07568359375, -0.76806640625, 0, 
459, 597147940, 87.14752960205078, -65.44757843017578, -122.12468719482422, 8.827127456665039, 4.133020401000977, 3.005561351776123, 6.5051445960998535, -2.525063991546631, 0.2778119742870331, -0.54443359375, -0.076171875, -0.77099609375, 0, 
460, 597156273, 87.1711196899414, -65.44872283935547, -122.14461517333984, 10.646316528320312, 6.426036357879639, -2.23349928855896, 3.7828896045684814, -2.201786756515503, 1.1333787441253662, -0.5419921875, -0.07958984375, -0.76220703125, 0, 
461, 597164606, 87.15267181396484, -65.4576416015625, -122.13606262207031, 10.401066780090332, 6.089797019958496, 1.2227792739868164, 1.8496551513671875, -0.8294529914855957, 2.1356382369995117, -0.5419921875, -0.0791015625, -0.75439453125, 0, 
462, 597172939, 87.1109390258789, -65.46051025390625, -122.1241226196289, 8.247686386108398, 3.362029790878296, -0.1503596305847168, -0.4524882435798645, -0.6359118223190308, 1.411216378211975, -0.53955078125, -0.07958984375, -0.73974609375, 0, 
463, 597181272, 87.10171508789062, -65.456298828125, -122.10511016845703, 7.2684783935546875, 1.3631272315979004, 0.6034444570541382, 4.096535682678223, -0.23120689392089844, 0.5825957655906677, -0.53857421875, -0.07666015625, -0.75830078125, 0, 
464, 597189605, 87.12674713134766, -65.45130157470703, -122.12581634521484, 8.296868324279785, 2.711033821105957, 1.7756507396697998, 4.066234588623047, -2.176352024078369, 0.3997870087623596, -0.54296875, -0.07421875, -0.77099609375, 0, 
465, 597197938, 87.17262268066406, -65.44815063476562, -122.14579010009766, 10.277973175048828, 5.8630475997924805, -2.1593434810638428, 6.91991662979126, -2.0343210697174072, 0.6178666353225708, -0.5419921875, -0.07861328125, -0.76611328125, 0, 
466, 597206271, 87.16075134277344, -65.4548110961914, -122.15159606933594, 10.600350379943848, 6.894315242767334, 2.676422357559204, 1.0710335969924927, -1.53087317943573, 1.8280621767044067, -0.5380859375, -0.0810546875, -0.75732421875, 0, 
467, 597214604, 87.12281036376953, -65.46121215820312, -122.13194274902344, 8.821332931518555, 4.039526462554932, -2.12934947013855, 0.7201442122459412, -0.26179027557373047, 1.8617706298828125, -0.53662109375, -0.0830078125, -0.744140625, 0, 
468, 597222937, 87.09600830078125, -65.45670318603516, -122.10751342773438, 7.4607834815979, 1.6832385063171387, 2.4314730167388916, 2.563600778579712, -0.03364429995417595, 0.5553166270256042, -0.54150390625, -0.07666015625, -0.7509765625, 0, 
469, 597231270, 87.11327362060547, -65.45075225830078, -122.125, 7.839700222015381, 2.074878454208374, -0.4742487668991089, 3.2914035320281982, -2.037471294403076, 0.28803205490112305, -0.5439453125, -0.07470703125, -0.76806640625, 0, 
470, 597239603, 87.1731948852539, -65.44597625732422, -122.148193359375, 9.664969444274902, 5.006260871887207, 0.36292481422424316, 7.849405288696289, -2.3681256771087646, 0.407471239566803, -0.54345703125, -0.076171875, -0.76611328125, 0, 
471, 597247936, 87.16499328613281, -65.4499282836914, -122.15804290771484, 10.720744132995605, 6.967903137207031, 0.6006631255149841, 0.9624548554420471, -1.833300232887268, 1.485830545425415, -0.5439453125, -0.07861328125, -0.759765625, 0, 
472, 597256269, 87.13363647460938, -65.45874786376953, -122.1341552734375, 9.577390670776367, 5.144354343414307, -1.1730579137802124, 1.9725266695022583, -0.06368979066610336, 2.161815643310547, -0.5400390625, -0.08251953125, -0.75, 0, 
473, 597264602, 87.0979995727539, -65.45811462402344, -122.12104797363281, 7.7418293952941895, 2.2756340503692627, 2.4126110076904297, 0.28511202335357666, -0.5485416054725647, 1.001234769821167, -0.5380859375, -0.07958984375, -0.74365234375, 0, 
474, 597272935, 87.1040267944336, -65.45199584960938, -122.12007904052734, 7.409860610961914, 1.3635300397872925, -1.6067878007888794, 4.203347682952881, -1.0710208415985107, 0.31118735671043396, -0.54345703125, -0.07421875, -0.7685546875, 0, 
475, 597281268, 87.16326141357422, -65.44630432128906, -122.15083312988281, 9.018566131591797, 4.091477394104004, 2.9446001052856445, 6.88264799118042, -2.6990363597869873, 0.2869819402694702, -0.541015625, -0.07666015625, -0.76953125, 0, 
476, 597289601, 87.1749038696289, -65.44646453857422, -122.1653823852539, 10.591299057006836, 6.730022430419922, -2.3093292713165283, 3.0486316680908203, -1.9434159994125366, 1.0179352760314941, -0.54296875, -0.080078125, -0.763671875, 0, 
477, 597297934, 87.15416717529297, -65.45659637451172, -122.1511459350586, 10.284653663635254, 6.119567394256592, 1.200426459312439, 2.2981090545654297, -0.5647298097610474, 2.2906041145324707, -0.54296875, -0.080078125, -0.7548828125, 0, 
478, 597306267, 87.11579895019531, -65.45880889892578, -122.1456527709961, 8.17531681060791, 3.059515953063965, 0.33653679490089417, -0.8763269782066345, -0.9435644149780273, 1.3225654363632202, -0.54150390625, -0.0830078125, -0.74267578125, 0, 
479, 597314600, 87.10779571533203, -65.45353698730469, -122.1244125366211, 7.305189609527588, 1.1659374237060547, -0.2840566635131836, 4.485769748687744, -0.11555860936641693, 0.4658717215061188, -0.5419921875, -0.07275390625, -0.76123046875, 0, 
480, 597322933, 87.13370513916016, -65.44697570800781, -122.14328002929688, 8.328289985656738, 3.1450355052948, 2.6805644035339355, 4.079937934875488, -2.2125959396362305, 0.2031208872795105, -0.5439453125, -0.07470703125, -0.77294921875, 0, 
481, 597331266, 87.18053436279297, -65.44407653808594, -122.16409301757812, 10.339741706848145, 5.917752265930176, -2.74009108543396, 6.477148056030273, -2.224839687347412, 0.6438137292861938, -0.5419921875, -0.078125, -0.7646484375, 0, 
482, 597339599, 87.16544342041016, -65.45183563232422, -122.16545104980469, 10.5198335647583, 6.835448265075684, 2.615668535232544, 1.1742589473724365, -1.3784428834915161, 1.966353416442871, -0.54296875, -0.08203125, -0.76171875, 0, 
483, 597347932, 87.12898254394531, -65.45828247070312, -122.1511459350586, 8.74644947052002, 3.8609776496887207, -1.6324163675308228, 0.3153368830680847, -0.5295102596282959, 1.84878408908844, -0.5419921875, -0.08349609375, -0.744140625, 0, 
484, 597356265, 87.10834503173828, -65.45458984375, -122.12728118896484, 7.425999641418457, 1.5952953100204468, 2.022632122039795, 2.9752981662750244, -0.1908644586801529, 0.6512930989265442, -0.5419921875, -0.07861328125, -0.75390625, 0, 
485, 597364598, 87.12027740478516, -65.4487533569336, -122.13844299316406, 7.967179775238037, 2.2508833408355713, -0.12256719917058945, 3.343092679977417, -1.7231335639953613, 0.31523436307907104, -0.54248046875, -0.07421875, -0.7705078125, 0, 
486, 597372931, 87.17442321777344, -65.44413757324219, -122.15370178222656, 9.74330997467041, 5.104564189910889, 0.1587154120206833, 7.87089729309082, -2.04274845123291, 0.4431263506412506, -0.54296875, -0.07470703125, -0.767578125, 0, 
487, 597381264, 87.16822052001953, -65.4482650756836, -122.1649398803711, 10.627392768859863, 6.790942192077637, 0.8224108219146729, 1.2062768936157227, -1.8322244882583618, 1.5022237300872803, -0.54150390625, -0.07666015625, -0.7607421875, 0, 
488, 597389597, 87.13595581054688, -65.4565200805664, -122.14057159423828, 9.482111930847168, 5.019418239593506, -1.347974419593811, 1.917199730873108, -0.03869030252099037, 2.0943992137908936, -0.53466796875, -0.080078125, -0.7529296875, 0, 
489, 597397930, 87.10087585449219, -65.45581817626953, -122.12876892089844, 7.768961429595947, 2.3495233058929443, 2.5078368186950684, 0.2074240744113922, -0.6118087768554688, 0.9899645447731018, -0.53857421875, -0.076171875, -0.75244140625, 0, 
490, 597406263, 87.10863494873047, -65.45109558105469, -122.12954711914062, 7.458737850189209, 1.4754081964492798, -1.6131160259246826, 4.31220817565918, -1.1194061040878296, 0.4799339771270752, -0.54052734375, -0.0703125, -0.77490234375, 0, 
491, 597414596, 87.16431427001953, -65.44603729248047, -122.15637969970703, 9.172283172607422, 4.173946857452393, 2.863621234893799, 6.88433837890625, -2.5084407329559326, 0.37102222442626953, -0.5400390625, -0.0732421875, -0.7802734375, 0, 
492, 597422929, 87.1702880859375, -65.44612884521484, -122.17620086669922, 10.611412048339844, 6.6973724365234375, -2.0191099643707275, 2.446927785873413, -1.9102967977523804, 1.0160654783248901, -0.537109375, -0.0751953125, -0.7744140625, 0, 
