sep=,
PacketCounter,SampleTimeFine,Euler_X,Euler_Y,Euler_Z,Acc_X,Acc_Y,Acc_Z,Gyr_X,Gyr_Y,Gyr_Z,Mag_X,Mag_Y,Mag_Z,Status,
0, 461159526, -85.4700698852539, -71.4981918334961, -56.93489074707031, 0, 0, 0, 0, 0, 0, -0.94189453125, 0.0576171875, 0.30517578125, 0, 
1, 461167859, -85.45941162109375, -71.49851989746094, -56.94621276855469, 9.60135269165039, -3.553354024887085, 0.10299475491046906, 1.5759541988372803, -0.6960155963897705, -0.08004448562860489, -0.9423828125, 0.05712890625, 0.31396484375, 0, 
2, 461176192, -85.45845794677734, -71.50145721435547, -56.95166778564453, 9.183965682983398, -3.3394155502319336, 0.2952598035335541, 1.76886785030365, -1.1631038188934326, -0.35930365324020386, -0.94140625, 0.05810546875, 0.30712890625, 0, 
3, 461184525, -85.45594024658203, -71.50389862060547, -56.95521926879883, 9.059288024902344, -2.7811083793640137, 0.38429293036460876, 1.626990556716919, -1.0470201969146729, -0.3032853305339813, -0.94287109375, 0.05908203125, 0.31298828125, 0, 
4, 461192858, -85.4608383178711, -71.50373840332031, -56.950096130371094, 9.344575881958008, -2.72662353515625, 0.2963845729827881, 1.5819607973098755, -1.3173272609710693, 0.029430754482746124, -0.94140625, 0.05712890625, 0.3134765625, 0, 
5, 461201191, -85.46446228027344, -71.50138854980469, -56.94738006591797, 9.668134689331055, -3.167874813079834, 0.12339504808187485, 1.460113763809204, -1.2050601243972778, 0.2853681743144989, -0.943359375, 0.05859375, 0.3154296875, 0, 
6, 461209524, -85.46111297607422, -71.500244140625, -56.951271057128906, 9.66300106048584, -3.5222697257995605, 0.1578831672668457, 1.5820119380950928, -0.9639531373977661, 0.12133462727069855, -0.94140625, 0.05810546875, 0.31298828125, 0, 
7, 461217857, -85.45875549316406, -71.50251007080078, -56.95235061645508, 9.254026412963867, -3.443692922592163, 0.08920823782682419, 1.7488375902175903, -1.1051902770996094, -0.27966904640197754, -0.94091796875, 0.0576171875, 0.31494140625, 0, 
8, 461226190, -85.4554214477539, -71.50582885742188, -56.9541130065918, 9.020182609558105, -2.8668060302734375, 0.3395483195781708, 1.7797026634216309, -1.0742993354797363, -0.40597277879714966, -0.943359375, 0.0556640625, 0.3134765625, 0, 
9, 461234523, -85.46189880371094, -71.5062255859375, -56.948020935058594, 9.19314193725586, -2.665085554122925, 0.3937685787677765, 1.5743534564971924, -1.368120551109314, -0.031057260930538177, -0.94140625, 0.05810546875, 0.3134765625, 0, 
10, 461242856, -85.45968627929688, -71.50342559814453, -56.952144622802734, 9.589751243591309, -3.046215534210205, 0.10165083408355713, 1.3860886096954346, -0.9416434168815613, 0.31515756249427795, -0.9423828125, 0.0595703125, 0.31298828125, 0, 
11, 461251189, -85.4610824584961, -71.50080871582031, -56.9510383605957, 9.779780387878418, -3.474625825881958, 0.17951036989688873, 1.5459471940994263, -1.1418697834014893, 0.30885645747184753, -0.943359375, 0.05859375, 0.31396484375, 0, 
12, 461259522, -85.45085906982422, -71.50247955322266, -56.96071243286133, 9.431005477905273, -3.573650360107422, 0.0831904485821724, 1.7603126764297485, -0.7753556370735168, -0.2304128259420395, -0.94140625, 0.05810546875, 0.3115234375, 0, 
13, 461267855, -85.44463348388672, -71.505615234375, -56.965415954589844, 9.075161933898926, -3.1092333793640137, 0.37509438395500183, 1.7964545488357544, -0.9744808077812195, -0.3924229145050049, -0.9404296875, 0.060546875, 0.3056640625, 0, 
14, 461276188, -85.44779968261719, -71.5069580078125, -56.962005615234375, 9.092710494995117, -2.6034061908721924, 0.3275142014026642, 1.619203805923462, -1.2610270977020264, -0.16099826991558075, -0.94140625, 0.0595703125, 0.30712890625, 0, 
15, 461284521, -85.44998168945312, -71.50476837158203, -56.955909729003906, 9.436453819274902, -2.853806972503662, 0.22689297795295715, 1.4794524908065796, -1.1404354572296143, 0.2605992257595062, -0.94384765625, 0.05859375, 0.31494140625, 0, 
16, 461292854, -85.45828247070312, -71.50138854980469, -56.94863510131836, 9.7576265335083, -3.334115505218506, 0.11639589071273804, 1.4210519790649414, -1.3690168857574463, 0.4211748540401459, -0.9404296875, 0.05859375, 0.30810546875, 0, 
17, 461301187, -85.45010375976562, -71.50133514404297, -56.95848083496094, 9.632569313049316, -3.598402261734009, 0.12401599436998367, 1.4466150999069214, -0.7496134042739868, -0.030468130484223366, -0.94140625, 0.05810546875, 0.314453125, 0, 
18, 461309520, -85.44937896728516, -71.50413513183594, -56.9556999206543, 9.174027442932129, -3.387068748474121, 0.28542232513427734, 1.8055472373962402, -1.1805087327957153, -0.33718574047088623, -0.939453125, 0.056640625, 0.3125, 0, 
19, 461317853, -85.4432601928711, -71.50770568847656, -56.96002197265625, 9.09041690826416, -2.670525550842285, 0.35499247908592224, 1.82771635055542, -0.9922186136245728, -0.44407397508621216, -0.943359375, 0.0576171875, 0.314453125, 0, 
20, 461326186, -85.44979858398438, -71.506591796875, -56.953189849853516, 9.275673866271973, -2.6887917518615723, 0.3192373514175415, 1.5474072694778442, -1.3532640933990479, 0.15209732949733734, -0.94091796875, 0.05615234375, 0.30859375, 0, 
21, 461334519, -85.45355987548828, -71.50325775146484, -56.95082473754883, 9.561796188354492, -3.1877553462982178, 0.06999562680721283, 1.5332167148590088, -1.2120269536972046, 0.4087519645690918, -0.94287109375, 0.05810546875, 0.31396484375, 0, 
22, 461342852, -85.44937133789062, -71.50118255615234, -56.95527648925781, 9.727680206298828, -3.474250316619873, 0.18068833649158478, 1.5963560342788696, -0.9379291534423828, 0.22327926754951477, -0.94189453125, 0.0576171875, 0.30810546875, 0, 
23, 461351185, -85.44740295410156, -71.50348663330078, -56.956912994384766, 9.306163787841797, -3.547645092010498, 0.13471916317939758, 1.6329841613769531, -1.0832387208938599, -0.2863287031650543, -0.94091796875, 0.0576171875, 0.31396484375, 0, 
24, 461359518, -85.44490814208984, -71.50780487060547, -56.9576416015625, 9.08125114440918, -3.019245147705078, 0.3631928861141205, 1.86668860912323, -1.1466596126556396, -0.517292320728302, -0.94189453125, 0.05908203125, 0.30908203125, 0, 
25, 461367851, -85.45245361328125, -71.50849151611328, -56.94874572753906, 9.275043487548828, -2.6182329654693604, 0.3824594020843506, 1.696123480796814, -1.469091773033142, -0.06366419047117233, -0.94091796875, 0.05810546875, 0.314453125, 0, 
26, 461376184, -85.455322265625, -71.5053482055664, -56.948211669921875, 9.559300422668457, -2.980778694152832, 0.12227219343185425, 1.3580666780471802, -1.120174527168274, 0.37468501925468445, -0.93896484375, 0.05859375, 0.3134765625, 0, 
27, 461384517, -85.46238708496094, -71.5027084350586, -56.9420280456543, 9.679165840148926, -3.458637237548828, 0.1363067775964737, 1.4064778089523315, -1.3092076778411865, 0.32978329062461853, -0.94384765625, 0.06103515625, 0.306640625, 0, 
28, 461392850, -85.45793151855469, -71.50389099121094, -56.94725036621094, 9.433494567871094, -3.5049757957458496, 0.07957082986831665, 1.5268645286560059, -0.9361362457275391, -0.16340599954128265, -0.9423828125, 0.05908203125, 0.314453125, 0, 
29, 461401183, -85.45712280273438, -71.50614166259766, -56.94620895385742, 9.110761642456055, -3.074934482574463, 0.33310434222221375, 1.8062388896942139, -1.186822772026062, -0.27183103561401367, -0.94189453125, 0.0576171875, 0.3125, 0, 
30, 461409516, -85.46281433105469, -71.50733184814453, -56.93888473510742, 9.128668785095215, -2.692479133605957, 0.34192752838134766, 1.7366963624954224, -1.399369478225708, -0.1274692267179489, -0.94091796875, 0.05712890625, 0.31591796875, 0, 
31, 461417849, -85.4678955078125, -71.50545501708984, -56.933876037597656, 9.452254295349121, -2.911562204360962, 0.20651182532310486, 1.5452938079833984, -1.2961313724517822, 0.23656027019023895, -0.9404296875, 0.05908203125, 0.31591796875, 0, 
32, 461426182, -85.47339630126953, -71.50235748291016, -56.92905044555664, 9.785613059997559, -3.3140649795532227, 0.10278866440057755, 1.4541712999343872, -1.25751793384552, 0.38065314292907715, -0.93994140625, 0.05712890625, 0.30712890625, 0, 
33, 461434515, -85.46440124511719, -71.50255584716797, -56.936927795410156, 9.608461380004883, -3.5545125007629395, 0.12290403991937637, 1.6160277128219604, -0.7631120681762695, -0.06053924188017845, -0.94091796875, 0.05810546875, 0.3125, 0, 
34, 461442848, -85.46302795410156, -71.50511932373047, -56.93817901611328, 9.13346004486084, -3.3821189403533936, 0.22730760276317596, 1.601991057395935, -1.0987865924835205, -0.310482919216156, -0.94189453125, 0.05859375, 0.31396484375, 0, 
35, 461451181, -85.45842742919922, -71.50813293457031, -56.94162368774414, 9.005412101745605, -2.722846031188965, 0.3337530791759491, 1.7500927448272705, -1.0214829444885254, -0.3782070279121399, -0.94287109375, 0.0576171875, 0.31298828125, 0, 
36, 461459514, -85.46319580078125, -71.50757598876953, -56.936824798583984, 9.317058563232422, -2.6783695220947266, 0.38164666295051575, 1.5823962688446045, -1.293941617012024, 0.07420443743467331, -0.94140625, 0.05859375, 0.3125, 0, 
37, 461467847, -85.46722412109375, -71.50406646728516, -56.934471130371094, 9.65337085723877, -3.178873300552368, 0.010317002423107624, 1.3735889196395874, -1.1822121143341064, 0.420483261346817, -0.9404296875, 0.05859375, 0.31396484375, 0, 
38, 461476180, -85.4636001586914, -71.5023422241211, -56.93897247314453, 9.761574745178223, -3.5694940090179443, 0.14712339639663696, 1.5391336679458618, -0.9350091814994812, 0.1901344656944275, -0.94287109375, 0.05712890625, 0.31494140625, 0, 
39, 461484513, -85.46255493164062, -71.50437927246094, -56.93944549560547, 9.313289642333984, -3.4930455684661865, 0.18686296045780182, 1.6570872068405151, -1.1120291948318481, -0.24985402822494507, -0.94140625, 0.0576171875, 0.31298828125, 0, 
40, 461492846, -85.45547485351562, -71.50732421875, -56.94435501098633, 9.085588455200195, -2.8593380451202393, 0.3545989394187927, 1.8759863376617432, -0.9646192193031311, -0.3723413050174713, -0.94091796875, 0.05712890625, 0.31689453125, 0, 
41, 461501179, -85.46177673339844, -71.50709533691406, -56.93675994873047, 9.17589282989502, -2.616192579269409, 0.30054956674575806, 1.6992995738983154, -1.4109729528427124, 0.04285261407494545, -0.94140625, 0.05810546875, 0.31787109375, 0, 
42, 461509512, -85.46434783935547, -71.50437927246094, -56.936119079589844, 9.498133659362793, -3.02286696434021, 0.0984659343957901, 1.4279167652130127, -1.1371824741363525, 0.3280927538871765, -0.9404296875, 0.05859375, 0.3095703125, 0, 
43, 461517845, -85.46744537353516, -71.50155639648438, -56.933837890625, 9.739215850830078, -3.4445037841796875, 0.13906104862689972, 1.479811191558838, -1.1853114366531372, 0.33534157276153564, -0.94140625, 0.0556640625, 0.31787109375, 0, 
44, 461526178, -85.4599838256836, -71.50198364257812, -56.94197463989258, 9.437021255493164, -3.6205883026123047, 0.04862549155950546, 1.5277609825134277, -0.7946688532829285, -0.08169659972190857, -0.93994140625, 0.05810546875, 0.3154296875, 0, 
45, 461534511, -85.45730590820312, -71.50497436523438, -56.94306945800781, 9.12173843383789, -3.15665340423584, 0.37766680121421814, 1.7518728971481323, -1.0890661478042603, -0.3688706159591675, -0.9384765625, 0.05810546875, 0.31689453125, 0, 
46, 461542844, -85.45780181884766, -71.50660705566406, -56.94172668457031, 9.184083938598633, -2.6025664806365967, 0.37342166900634766, 1.6795508861541748, -1.190844178199768, -0.1950395703315735, -0.9423828125, 0.05859375, 0.3173828125, 0, 
47, 461551177, -85.46027374267578, -71.5053939819336, -56.939918518066406, 9.414640426635742, -2.872131586074829, 0.21715688705444336, 1.49912428855896, -1.1797786951065063, 0.1434653252363205, -0.93896484375, 0.056640625, 0.31591796875, 0, 
48, 461559510, -85.46569061279297, -71.5030746459961, -56.93620300292969, 9.66112232208252, -3.329035520553589, 0.09052829444408417, 1.4303503036499023, -1.2533174753189087, 0.2891590893268585, -0.94091796875, 0.05859375, 0.31640625, 0, 
49, 461567843, -85.45880889892578, -71.50250244140625, -56.94318771362305, 9.58642864227295, -3.4592244625091553, 0.12699098885059357, 1.6189732551574707, -0.8530948758125305, 0.04172558709979057, -0.9404296875, 0.05810546875, 0.31689453125, 0, 
50, 461576176, -85.45982360839844, -71.50448608398438, -56.940406799316406, 9.165301322937012, -3.3613502979278564, 0.2608731687068939, 1.6713799238204956, -1.1987844705581665, -0.23730307817459106, -0.94091796875, 0.05810546875, 0.31689453125, 0, 
51, 461584509, -85.45667266845703, -71.50752258300781, -56.94223403930664, 9.089923858642578, -2.781710147857666, 0.3511615991592407, 1.7998099327087402, -1.0838792324066162, -0.369703084230423, -0.9404296875, 0.05908203125, 0.3154296875, 0, 
52, 461592842, -85.4603042602539, -71.50593566894531, -56.938232421875, 9.420873641967773, -2.7041175365448, 0.35951632261276245, 1.6125696897506714, -1.2624614238739014, 0.19430957734584808, -0.93798828125, 0.05810546875, 0.3173828125, 0, 
53, 461601175, -85.46446228027344, -71.50241088867188, -56.935081481933594, 9.662614822387695, -3.231257438659668, 0.08107147365808487, 1.4441817998886108, -1.2096961736679077, 0.42586225271224976, -0.939453125, 0.06005859375, 0.31640625, 0, 
54, 461609508, -85.45953369140625, -71.50052642822266, -56.941925048828125, 9.63224983215332, -3.5877761840820312, 0.17264604568481445, 1.6007360219955444, -0.9014545679092407, 0.2044784277677536, -0.9384765625, 0.05810546875, 0.3173828125, 0, 
55, 461617841, -85.4573745727539, -71.50323486328125, -56.943180084228516, 9.28282356262207, -3.400940179824829, 0.17302276194095612, 1.7084693908691406, -1.1020395755767822, -0.3364045321941376, -0.94091796875, 0.05615234375, 0.31103515625, 0, 
56, 461626174, -85.45210266113281, -71.50587463378906, -56.94570541381836, 9.053912162780762, -2.7829184532165527, 0.3779643476009369, 1.8024481534957886, -0.9976616501808167, -0.3303851783275604, -0.93994140625, 0.0576171875, 0.31787109375, 0, 
57, 461634507, -85.46039581298828, -71.50653839111328, -56.93513107299805, 9.159473419189453, -2.735274076461792, 0.3588786721229553, 1.6261965036392212, -1.4632771015167236, -0.05674833431839943, -0.9384765625, 0.05859375, 0.31591796875, 0, 
58, 461642840, -85.46249389648438, -71.5044174194336, -56.934059143066406, 9.5569486618042, -3.111417055130005, 0.09529000520706177, 1.4558619260787964, -1.1433809995651245, 0.2521721422672272, -0.94091796875, 0.0576171875, 0.31689453125, 0, 
59, 461651173, -85.46405792236328, -71.50191497802734, -56.933414459228516, 9.847007751464844, -3.4201865196228027, 0.16704639792442322, 1.4734076261520386, -1.1250669956207275, 0.2977142632007599, -0.93896484375, 0.0576171875, 0.31005859375, 0, 
60, 461659506, -85.45759582519531, -71.50303649902344, -56.93913650512695, 9.414896011352539, -3.5636343955993652, 0.12081591039896011, 1.5639026165008545, -0.8556050658226013, -0.16235582530498505, -0.9384765625, 0.056640625, 0.31884765625, 0, 
61, 461667839, -85.4519271850586, -71.5059585571289, -56.94252014160156, 9.041341781616211, -3.1414008140563965, 0.38784438371658325, 1.882569670677185, -1.024479866027832, -0.36527180671691895, -0.9404296875, 0.05712890625, 0.31591796875, 0, 
62, 461676172, -85.45743560791016, -71.5073471069336, -56.9362678527832, 9.123283386230469, -2.5614919662475586, 0.30029815435409546, 1.686876654624939, -1.374037265777588, -0.1519564539194107, -0.94091796875, 0.0576171875, 0.31884765625, 0, 
63, 461684505, -85.45950317382812, -71.50410461425781, -56.93658447265625, 9.477880477905273, -2.810378313064575, 0.21826663613319397, 1.493066430091858, -1.1336348056793213, 0.3898870646953583, -0.9404296875, 0.05859375, 0.31396484375, 0, 
64, 461692838, -85.4654769897461, -71.50040435791016, -56.931304931640625, 9.661619186401367, -3.3986361026763916, 0.05076959356665611, 1.477608323097229, -1.2895101308822632, 0.4519374966621399, -0.9404296875, 0.05810546875, 0.31640625, 0, 
65, 461701171, -85.4577407836914, -71.50116729736328, -56.93952941894531, 9.543062210083008, -3.6260199546813965, 0.10230835527181625, 1.5758388042449951, -0.8177728652954102, -0.12157795578241348, -0.9404296875, 0.05615234375, 0.31591796875, 0, 
66, 461709504, -85.4590835571289, -71.50452423095703, -56.936126708984375, 9.214290618896484, -3.252739191055298, 0.35061684250831604, 1.7468395233154297, -1.2516779899597168, -0.3971358835697174, -0.94091796875, 0.05908203125, 0.31591796875, 0, 
67, 461717837, -85.4568099975586, -71.5067367553711, -56.936119079589844, 9.105019569396973, -2.6946070194244385, 0.3491538166999817, 1.8647418022155762, -1.1457887887954712, -0.27067843079566956, -0.9384765625, 0.0556640625, 0.31689453125, 0, 
68, 461726170, -85.46725463867188, -71.50545501708984, -56.92670440673828, 9.296142578125, -2.8157894611358643, 0.23483888804912567, 1.4014955759048462, -1.454376220703125, 0.1751885563135147, -0.94091796875, 0.05859375, 0.3173828125, 0, 
69, 461734503, -85.47209167480469, -71.5029296875, -56.92270278930664, 9.651285171508789, -3.238145112991333, 0.08901157975196838, 1.4635716676712036, -1.2413042783737183, 0.3097529113292694, -0.93994140625, 0.05810546875, 0.31591796875, 0, 
70, 461742836, -85.46551513671875, -71.50253295898438, -56.930076599121094, 9.675479888916016, -3.4820220470428467, 0.14919441938400269, 1.5363291501998901, -0.8402238488197327, 0.021067708730697632, -0.93994140625, 0.05712890625, 0.31005859375, 0, 
71, 461751169, -85.46502685546875, -71.5041732788086, -56.93012619018555, 9.20366382598877, -3.4513018131256104, 0.12411238253116608, 1.6387603282928467, -1.136580467224121, -0.20178893208503723, -0.9404296875, 0.05908203125, 0.31494140625, 0, 
72, 461759502, -85.4612808227539, -71.50752258300781, -56.93352508544922, 9.062826156616211, -2.8071680068969727, 0.41444113850593567, 1.7369526624679565, -1.0424097776412964, -0.41583433747291565, -0.93994140625, 0.0576171875, 0.3154296875, 0, 
73, 461767835, -85.46832275390625, -71.50697326660156, -56.926422119140625, 9.296939849853516, -2.6345677375793457, 0.3927203416824341, 1.5558854341506958, -1.3886115550994873, 0.07868693023920059, -0.93896484375, 0.05712890625, 0.31591796875, 0, 
74, 461776168, -85.46964263916016, -71.50391387939453, -56.92581558227539, 9.572516441345215, -3.1297450065612793, 0.02008831314742565, 1.4142130613327026, -1.079268455505371, 0.36746180057525635, -0.94091796875, 0.05810546875, 0.3095703125, 0, 
75, 461784501, -85.47122955322266, -71.50119018554688, -56.92577362060547, 9.751948356628418, -3.5134758949279785, 0.17459136247634888, 1.5354195833206177, -1.131111741065979, 0.32153549790382385, -0.93994140625, 0.0595703125, 0.314453125, 0, 
76, 461792834, -85.46527099609375, -71.5028305053711, -56.93134689331055, 9.379013061523438, -3.488189220428467, 0.1383412629365921, 1.6630553007125854, -0.9279652833938599, -0.21665799617767334, -0.939453125, 0.05712890625, 0.31982421875, 0, 
77, 461801167, -85.45851135253906, -71.50621795654297, -56.93636703491211, 9.056266784667969, -3.082095146179199, 0.36600247025489807, 1.8276267051696777, -0.966873288154602, -0.4249529540538788, -0.94189453125, 0.06005859375, 0.31591796875, 0, 
78, 461809500, -85.46569061279297, -71.50679016113281, -56.93159103393555, 9.169565200805664, -2.6433606147766113, 0.3340931236743927, 1.559420108795166, -1.3923641443252563, -0.05286777764558792, -0.94091796875, 0.05615234375, 0.31884765625, 0, 
79, 461817833, -85.46687316894531, -71.50415802001953, -56.931739807128906, 9.528829574584961, -2.8910140991210938, 0.21023908257484436, 1.4337440729141235, -1.0952390432357788, 0.30710190534591675, -0.939453125, 0.0576171875, 0.31591796875, 0, 
80, 461826166, -85.47152709960938, -71.50030517578125, -56.93046569824219, 9.710792541503906, -3.4372451305389404, 0.11074329912662506, 1.369951605796814, -1.1877192258834839, 0.4657948315143585, -0.9423828125, 0.05810546875, 0.31591796875, 0, 
81, 461834499, -85.46014404296875, -71.50019836425781, -56.94317626953125, 9.516270637512207, -3.577376365661621, 0.06577085703611374, 1.5964198112487793, -0.654392421245575, -0.029994269832968712, -0.939453125, 0.05859375, 0.31494140625, 0, 
82, 461842832, -85.46154022216797, -71.50224304199219, -56.94040298461914, 9.167586326599121, -3.1780004501342773, 0.30985090136528015, 1.7344422340393066, -1.247554063796997, -0.24124766886234283, -0.94091796875, 0.05810546875, 0.3173828125, 0, 
83, 461851165, -85.45792388916016, -71.50476837158203, -56.94239807128906, 9.071767807006836, -2.6727230548858643, 0.3443143665790558, 1.7937135696411133, -1.0719172954559326, -0.31127697229385376, -0.93994140625, 0.05810546875, 0.314453125, 0, 
84, 461859498, -85.46416473388672, -71.50292205810547, -56.93732833862305, 9.337740898132324, -2.844012498855591, 0.2670142352581024, 1.495486855506897, -1.3108211755752563, 0.22914493083953857, -0.93896484375, 0.05712890625, 0.3173828125, 0, 
85, 461867831, -85.46986389160156, -71.49957275390625, -56.9320068359375, 9.70220947265625, -3.2391505241394043, 0.031612664461135864, 1.5103816986083984, -1.294159173965454, 0.4130423367023468, -0.9423828125, 0.05908203125, 0.31640625, 0, 
86, 461876164, -85.46347045898438, -71.4986801147461, -56.940834045410156, 9.658124923706055, -3.532144546508789, 0.1404849737882614, 1.5014806985855103, -0.8166201710700989, 0.0794297382235527, -0.94091796875, 0.05908203125, 0.3095703125, 0, 
87, 461884497, -85.46297454833984, -71.50129699707031, -56.94010925292969, 9.166829109191895, -3.4704487323760986, 0.22418051958084106, 1.7364658117294312, -1.164717435836792, -0.3188587725162506, -0.94091796875, 0.05810546875, 0.31640625, 0, 
88, 461892830, -85.45849609375, -71.50418090820312, -56.942665100097656, 9.093507766723633, -2.819735050201416, 0.393023282289505, 1.82875394821167, -1.0559340715408325, -0.3538990616798401, -0.93896484375, 0.056640625, 0.3203125, 0, 
89, 461901163, -85.46607208251953, -71.50457000732422, -56.93582534790039, 9.331185340881348, -2.631120204925537, 0.30531230568885803, 1.456963300704956, -1.3873056173324585, -0.031159719452261925, -0.9404296875, 0.0576171875, 0.31689453125, 0, 
90, 461909496, -85.46731567382812, -71.50105285644531, -56.93812942504883, 9.621384620666504, -3.1304214000701904, 0.049439165741205215, 1.4072203636169434, -1.0682799816131592, 0.41446390748023987, -0.93798828125, 0.05810546875, 0.31884765625, 0, 
91, 461917829, -85.4654312133789, -71.4991455078125, -56.940757751464844, 9.653816223144531, -3.511216640472412, 0.13758139312267303, 1.511393666267395, -1.0059350728988647, 0.21521082520484924, -0.93994140625, 0.0576171875, 0.31005859375, 0, 
92, 461926162, -85.46112060546875, -71.50177764892578, -56.94333267211914, 9.28797721862793, -3.462536096572876, 0.09755542129278183, 1.7108772993087769, -1.0050898790359497, -0.3295143246650696, -0.94287109375, 0.0595703125, 0.31298828125, 0, 
93, 461934495, -85.45663452148438, -71.50597381591797, -56.94440841674805, 9.112549781799316, -2.885186195373535, 0.37961527705192566, 1.879546880722046, -1.0689716339111328, -0.5167030692100525, -0.94189453125, 0.05859375, 0.3125, 0, 
94, 461942828, -85.4610595703125, -71.50582885742188, -56.93981170654297, 9.194735527038574, -2.6716113090515137, 0.32255566120147705, 1.5831900835037231, -1.2969639301300049, 0.02638266235589981, -0.9404296875, 0.05712890625, 0.3134765625, 0, 
95, 461951161, -85.46392822265625, -71.50321960449219, -56.9384765625, 9.508946418762207, -3.100508213043213, 0.12396418303251266, 1.3968595266342163, -1.1491315364837646, 0.30981701612472534, -0.94287109375, 0.06005859375, 0.31201171875, 0, 
96, 461959494, -85.46902465820312, -71.50035095214844, -56.934268951416016, 9.829330444335938, -3.3782663345336914, 0.1505347341299057, 1.4462052583694458, -1.2399723529815674, 0.34771326184272766, -0.94384765625, 0.05615234375, 0.31201171875, 0, 
97, 461967827, -85.46005249023438, -71.50048828125, -56.943153381347656, 9.485498428344727, -3.497577667236328, 0.05541730299592018, 1.6562931537628174, -0.7866002917289734, -0.050703372806310654, -0.9443359375, 0.0576171875, 0.31298828125, 0, 
98, 461976160, -85.45843505859375, -71.50379943847656, -56.94394302368164, 9.028119087219238, -3.270606756210327, 0.2921910583972931, 1.7201496362686157, -1.1265525817871094, -0.3958808183670044, -0.9423828125, 0.05712890625, 0.31298828125, 0, 
99, 461984493, -85.46290588378906, -71.5062255859375, -56.939632415771484, 9.085491180419922, -2.618628740310669, 0.3501697778701782, 1.5800142288208008, -1.3109239339828491, -0.2841259241104126, -0.94189453125, 0.06005859375, 0.31298828125, 0, 
100, 461992826, -85.46345520019531, -71.50321960449219, -56.9392204284668, 9.498764038085938, -2.716616153717041, 0.24528950452804565, 1.5667459964752197, -1.1097241640090942, 0.3583431839942932, -0.9404296875, 0.05810546875, 0.3076171875, 0, 
101, 462001159, -85.47084045410156, -71.50056457519531, -56.933162689208984, 9.686308860778809, -3.355647325515747, 0.037571847438812256, 1.3902384042739868, -1.3262667655944824, 0.3324727714061737, -0.94189453125, 0.05810546875, 0.31396484375, 0, 
102, 462009492, -85.46070861816406, -71.50032043457031, -56.945613861083984, 9.591252326965332, -3.593528985977173, 0.18055693805217743, 1.644715428352356, -0.7238710522651672, -0.006185837555676699, -0.94140625, 0.05712890625, 0.314453125, 0, 
103, 462017825, -85.46257019042969, -71.50355529785156, -56.942989349365234, 9.240696907043457, -3.2695326805114746, 0.26470813155174255, 1.661006212234497, -1.2524207830429077, -0.3876842260360718, -0.94287109375, 0.05712890625, 0.31396484375, 0, 
104, 462026158, -85.45870971679688, -71.50572967529297, -56.946041107177734, 9.059219360351562, -2.7386698722839355, 0.30402323603630066, 1.7167683839797974, -1.0216621160507202, -0.27577561140060425, -0.9404296875, 0.05810546875, 0.31201171875, 0, 
105, 462034491, -85.4671630859375, -71.50467681884766, -56.935951232910156, 9.276524543762207, -2.7851898670196533, 0.3018628656864166, 1.592641830444336, -1.436612606048584, 0.14861378073692322, -0.9423828125, 0.05859375, 0.3115234375, 0, 
106, 462042824, -85.46947479248047, -71.50164794921875, -56.93505096435547, 9.61132526397705, -3.1773548126220703, 0.0606287382543087, 1.4155449867248535, -1.1290113925933838, 0.3595470190048218, -0.943359375, 0.05908203125, 0.31494140625, 0, 
107, 462051157, -85.46533966064453, -71.49987030029297, -56.939144134521484, 9.698826789855957, -3.538344144821167, 0.1322692632675171, 1.6200106143951416, -0.9514663815498352, 0.19301606714725494, -0.94091796875, 0.0576171875, 0.30810546875, 0, 
108, 462059490, -85.46212005615234, -71.50292205810547, -56.94234848022461, 9.273098945617676, -3.5028460025787354, 0.10490067303180695, 1.578925371170044, -1.0126843452453613, -0.3761194050312042, -0.93994140625, 0.05810546875, 0.31201171875, 0, 
109, 462067823, -85.45792388916016, -71.50648498535156, -56.944766998291016, 9.111190795898438, -2.851261615753174, 0.4031654894351959, 1.8215562105178833, -1.0654112100601196, -0.44185832142829895, -0.9423828125, 0.05712890625, 0.31396484375, 0, 
110, 462076156, -85.46424865722656, -71.50585174560547, -56.93777084350586, 9.231733322143555, -2.6196014881134033, 0.35359328985214233, 1.545844554901123, -1.3469371795654297, 0.09226246178150177, -0.9423828125, 0.0595703125, 0.31103515625, 0, 
111, 462084489, -85.46464538574219, -71.50321960449219, -56.937931060791016, 9.511894226074219, -3.05074405670166, 0.11727945506572723, 1.4650830030441284, -1.062004566192627, 0.30813923478126526, -0.94091796875, 0.05712890625, 0.31201171875, 0, 
112, 462092822, -85.46786499023438, -71.49987030029297, -56.93526840209961, 9.751235008239746, -3.3815524578094482, 0.11936720460653305, 1.50862717628479, -1.1926116943359375, 0.40178489685058594, -0.94189453125, 0.05859375, 0.31396484375, 0, 
113, 462101155, -85.46243286132812, -71.4996337890625, -56.94131088256836, 9.389169692993164, -3.53153920173645, 0.11110623180866241, 1.5510188341140747, -0.8918749094009399, 0.0020747531671077013, -0.93994140625, 0.0615234375, 0.310546875, 0, 
114, 462109488, -85.46125793457031, -71.50223541259766, -56.940616607666016, 9.069772720336914, -3.1777782440185547, 0.39661550521850586, 1.7557532787322998, -1.1456350088119507, -0.31355664134025574, -0.94189453125, 0.056640625, 0.31298828125, 0, 
115, 462117821, -85.46726989746094, -71.5041275024414, -56.934349060058594, 9.186041831970215, -2.643810510635376, 0.34051957726478577, 1.5770684480667114, -1.3794161081314087, -0.21309761703014374, -0.9404296875, 0.05810546875, 0.306640625, 0, 
116, 462126154, -85.4688720703125, -71.50247192382812, -56.93483352661133, 9.516032218933105, -2.877096652984619, 0.21394076943397522, 1.4381624460220337, -1.1078283786773682, 0.19231165945529938, -0.94140625, 0.056640625, 0.31396484375, 0, 
117, 462134487, -85.47456359863281, -71.5002212524414, -56.930355072021484, 9.722970962524414, -3.405167818069458, 0.11644503474235535, 1.4051456451416016, -1.2586708068847656, 0.2770691514015198, -0.94287109375, 0.05712890625, 0.31396484375, 0, 
118, 462142820, -85.4658432006836, -71.50030517578125, -56.93873977661133, 9.536468505859375, -3.5762779712677, 0.11345889419317245, 1.6740951538085938, -0.8041973114013672, -0.037383973598480225, -0.94189453125, 0.05810546875, 0.31640625, 0, 
119, 462151153, -85.46723937988281, -71.50315856933594, -56.93626022338867, 9.163990020751953, -3.227654218673706, 0.23813402652740479, 1.7080597877502441, -1.2464526891708374, -0.34191158413887024, -0.94091796875, 0.0576171875, 0.31494140625, 0, 
120, 462159486, -85.46717834472656, -71.5049057006836, -56.935848236083984, 9.048700332641602, -2.6645143032073975, 0.3810018301010132, 1.609649658203125, -1.133314609527588, -0.2103569060564041, -0.9423828125, 0.05908203125, 0.306640625, 0, 
121, 462167819, -85.47189331054688, -71.50284576416016, -56.93128967285156, 9.311715126037598, -2.8484461307525635, 0.29881006479263306, 1.5380580425262451, -1.2772411108016968, 0.2530686855316162, -0.939453125, 0.05810546875, 0.3134765625, 0, 
122, 462176152, -85.48005676269531, -71.50027465820312, -56.92290115356445, 9.691488265991211, -3.291933059692383, 0.06323827803134918, 1.3666473627090454, -1.3381770849227905, 0.3223295211791992, -0.94189453125, 0.05810546875, 0.314453125, 0, 
123, 462184485, -85.47515106201172, -71.49942779541016, -56.92829132080078, 9.74735164642334, -3.503831624984741, 0.21136292815208435, 1.5738154649734497, -0.9059882164001465, 0.08483435213565826, -0.9423828125, 0.0595703125, 0.3134765625, 0, 
124, 462192818, -85.47305297851562, -71.50177764892578, -56.930381774902344, 9.23876953125, -3.470518112182617, 0.15688484907150269, 1.604296326637268, -1.0677932500839233, -0.29429471492767334, -0.9404296875, 0.056640625, 0.314453125, 0, 
125, 462201151, -85.46803283691406, -71.5053482055664, -56.933956146240234, 9.008048057556152, -2.882248878479004, 0.3434963822364807, 1.7846847772598267, -1.0225459337234497, -0.44240909814834595, -0.94140625, 0.05712890625, 0.30908203125, 0, 
126, 462209484, -85.4762191772461, -71.50565338134766, -56.9239387512207, 9.259805679321289, -2.5843212604522705, 0.3854456841945648, 1.7006700038909912, -1.4800418615341187, -0.016751710325479507, -0.9423828125, 0.05859375, 0.31005859375, 0, 
127, 462217817, -85.47583770751953, -71.50260925292969, -56.926605224609375, 9.568848609924316, -3.044584035873413, 0.04833393916487694, 1.329699158668518, -0.9943190813064575, 0.35190117359161377, -0.94189453125, 0.056640625, 0.3115234375, 0, 
128, 462226150, -85.47932434082031, -71.49991607666016, -56.92389678955078, 9.703594207763672, -3.5233471393585205, 0.11581599712371826, 1.4824494123458862, -1.1898196935653687, 0.32466045022010803, -0.94091796875, 0.05908203125, 0.3134765625, 0, 
129, 462234483, -85.47425842285156, -71.5005111694336, -56.928104400634766, 9.395919799804688, -3.5244028568267822, 0.152703657746315, 1.6627479791641235, -0.9381085634231567, -0.09122509509325027, -0.9404296875, 0.05908203125, 0.314453125, 0, 
130, 462242816, -85.470458984375, -71.5037841796875, -56.929813385009766, 9.12122917175293, -3.0484700202941895, 0.35682010650634766, 1.845608115196228, -1.0894373655319214, -0.40113168954849243, -0.94287109375, 0.0576171875, 0.31298828125, 0, 
131, 462251149, -85.47499084472656, -71.50491333007812, -56.92518997192383, 9.151795387268066, -2.6831343173980713, 0.2728511393070221, 1.5690767765045166, -1.3083621263504028, -0.12600922584533691, -0.9423828125, 0.05712890625, 0.3134765625, 0, 
132, 462259482, -85.47679901123047, -71.50344848632812, -56.92289352416992, 9.471637725830078, -2.9256319999694824, 0.1997302919626236, 1.5683342218399048, -1.1623611450195312, 0.17164099216461182, -0.94287109375, 0.05908203125, 0.31201171875, 0, 
133, 462267815, -85.48107147216797, -71.50080871582031, -56.919490814208984, 9.72087287902832, -3.33746337890625, 0.08565688878297806, 1.4638535976409912, -1.2297011613845825, 0.3201523721218109, -0.94091796875, 0.05859375, 0.3134765625, 0, 
134, 462276148, -85.47037506103516, -71.50040435791016, -56.931087493896484, 9.478589057922363, -3.547806978225708, 0.04985252395272255, 1.6191015243530273, -0.6880367398262024, 0.01155201904475689, -0.94287109375, 0.05712890625, 0.31494140625, 0, 
135, 462284481, -85.4692611694336, -71.50254821777344, -56.93046951293945, 9.137468338012695, -3.20483660697937, 0.2997030019760132, 1.7851840257644653, -1.1527045965194702, -0.25907519459724426, -0.94091796875, 0.056640625, 0.31103515625, 0, 
136, 462292814, -85.46894073486328, -71.50446319580078, -56.93057632446289, 9.106761932373047, -2.6388165950775146, 0.41085001826286316, 1.6153616905212402, -1.1381044387817383, -0.23387077450752258, -0.94091796875, 0.05810546875, 0.31103515625, 0, 
137, 462301147, -85.47471618652344, -71.5032958984375, -56.925209045410156, 9.365817070007324, -2.8504438400268555, 0.25544673204421997, 1.5070390701293945, -1.317147970199585, 0.14664149284362793, -0.94140625, 0.0595703125, 0.31591796875, 0, 
138, 462309480, -85.4774169921875, -71.50021362304688, -56.92264175415039, 9.718643188476562, -3.2891077995300293, 0.05320559814572334, 1.519743800163269, -1.1698405742645264, 0.3732762336730957, -0.9404296875, 0.0576171875, 0.31396484375, 0, 
139, 462317813, -85.4725341796875, -71.49967193603516, -56.928070068359375, 9.695768356323242, -3.4787776470184326, 0.19982527196407318, 1.5544254779815674, -0.9117002487182617, 0.043569814413785934, -0.93994140625, 0.056640625, 0.31591796875, 0, 
140, 462326146, -85.47443389892578, -71.50205993652344, -56.92570114135742, 9.144808769226074, -3.416065216064453, 0.16753831505775452, 1.6269137859344482, -1.2230925559997559, -0.28135958313941956, -0.93798828125, 0.05810546875, 0.31640625, 0, 
141, 462334479, -85.4697265625, -71.5049057006836, -56.9295768737793, 9.052634239196777, -2.781935691833496, 0.37402090430259705, 1.7560352087020874, -1.0049618482589722, -0.35669106245040894, -0.93896484375, 0.05859375, 0.30859375, 0, 
142, 462342812, -85.47679138183594, -71.5038833618164, -56.922298431396484, 9.330256462097168, -2.630373239517212, 0.3368096351623535, 1.5630574226379395, -1.3900716304779053, 0.1401098519563675, -0.9384765625, 0.05712890625, 0.31591796875, 0, 
143, 462351145, -85.47594451904297, -71.500244140625, -56.924598693847656, 9.591158866882324, -3.1932873725891113, 0.04023593291640282, 1.428147315979004, -1.002400279045105, 0.4228910207748413, -0.93994140625, 0.0576171875, 0.31982421875, 0, 
144, 462359478, -85.47462463378906, -71.49838256835938, -56.927425384521484, 9.726831436157227, -3.5560572147369385, 0.17185038328170776, 1.4710254669189453, -1.002502679824829, 0.21636344492435455, -0.9404296875, 0.05712890625, 0.31640625, 0, 
145, 462367811, -85.47012329101562, -71.49988555908203, -56.93209457397461, 9.378254890441895, -3.494095802307129, 0.15528634190559387, 1.5927058458328247, -0.959534764289856, -0.1983053982257843, -0.9384765625, 0.05859375, 0.3154296875, 0, 
146, 462376144, -85.46275329589844, -71.50323486328125, -56.938968658447266, 9.074457168579102, -2.966799020767212, 0.39688169956207275, 1.7310099601745605, -0.8967671394348145, -0.42994770407676697, -0.93994140625, 0.056640625, 0.31884765625, 0, 
147, 462384477, -85.46829223632812, -71.50346374511719, -56.931068420410156, 9.150790214538574, -2.6366631984710693, 0.370290607213974, 1.6099826097488403, -1.3401240110397339, -0.01407502219080925, -0.9384765625, 0.05908203125, 0.31201171875, 0, 
148, 462392810, -85.46965026855469, -71.50111389160156, -56.930789947509766, 9.4898099899292, -2.9507343769073486, 0.15644165873527527, 1.462496042251587, -1.1134123802185059, 0.27233055233955383, -0.93896484375, 0.05908203125, 0.31201171875, 0, 
149, 462401143, -85.4750747680664, -71.49871826171875, -56.92654037475586, 9.721769332885742, -3.386018991470337, 0.09376956522464752, 1.421026587486267, -1.2620773315429688, 0.29161807894706726, -0.93994140625, 0.05517578125, 0.31640625, 0, 
150, 462409476, -85.46829223632812, -71.49834442138672, -56.935279846191406, 9.475330352783203, -3.540675163269043, 0.09556643664836884, 1.4987530708312988, -0.807693600654602, 0.017635399475693703, -0.94091796875, 0.05810546875, 0.31689453125, 0, 
151, 462417809, -85.46633911132812, -71.50151824951172, -56.935787200927734, 9.113964080810547, -3.2627859115600586, 0.3350207805633545, 1.7651536464691162, -1.1337757110595703, -0.38558387756347656, -0.9404296875, 0.05859375, 0.31201171875, 0, 
152, 462426142, -85.46406555175781, -71.5030517578125, -56.93639373779297, 9.114855766296387, -2.670222520828247, 0.33810290694236755, 1.6999911069869995, -1.0735821723937988, -0.19273430109024048, -0.93896484375, 0.05712890625, 0.31103515625, 0, 
153, 462434475, -85.46684265136719, -71.4997329711914, -56.934722900390625, 9.467042922973633, -2.771627902984619, 0.2848508358001709, 1.5378786325454712, -1.173810601234436, 0.39947956800460815, -0.93994140625, 0.0576171875, 0.31787109375, 0, 
154, 462442808, -85.46958923339844, -71.49618530273438, -56.93365478515625, 9.684820175170898, -3.316145420074463, 0.05110364034771919, 1.3727949857711792, -1.1286016702651978, 0.42376193404197693, -0.93994140625, 0.05615234375, 0.318359375, 0, 
155, 462451141, -85.46182250976562, -71.49518585205078, -56.94197463989258, 9.534391403198242, -3.6226601600646973, 0.1542060673236847, 1.571663737297058, -0.7984597086906433, 0.09018772095441818, -0.93994140625, 0.056640625, 0.3193359375, 0, 
156, 462459474, -85.46434020996094, -71.49790954589844, -56.93837356567383, 9.195609092712402, -3.2973837852478027, 0.2619818150997162, 1.714386224746704, -1.2783936262130737, -0.32121530175209045, -0.93994140625, 0.05712890625, 0.31640625, 0, 
157, 462467807, -85.46212005615234, -71.50125885009766, -56.93959426879883, 9.096113204956055, -2.683314323425293, 0.37352558970451355, 1.716729998588562, -1.1104027032852173, -0.409187376499176, -0.93994140625, 0.0576171875, 0.3173828125, 0, 
158, 462476140, -85.46746826171875, -71.50019073486328, -56.93321990966797, 9.270187377929688, -2.8099164962768555, 0.2582653760910034, 1.5512876510620117, -1.3037389516830444, 0.13692088425159454, -0.9384765625, 0.0576171875, 0.31591796875, 0, 
159, 462484473, -85.47309875488281, -71.49703216552734, -56.927642822265625, 9.659037590026855, -3.2158544063568115, 0.10631987452507019, 1.5257760286331177, -1.2838367223739624, 0.39039936661720276, -0.93994140625, 0.05908203125, 0.3154296875, 0, 
160, 462492806, -85.46843719482422, -71.49584197998047, -56.932559967041016, 9.791111946105957, -3.455524444580078, 0.19380204379558563, 1.5860589742660522, -0.9256088137626648, 0.122026227414608, -0.9404296875, 0.056640625, 0.31591796875, 0, 
161, 462501139, -85.46483612060547, -71.49711608886719, -56.93586349487305, 9.255605697631836, -3.548614025115967, 0.11568895727396011, 1.6388754844665527, -1.009572148323059, -0.16665901243686676, -0.939453125, 0.05810546875, 0.3173828125, 0, 
162, 462509472, -85.46131896972656, -71.50019836425781, -56.93777084350586, 9.021639823913574, -2.893983840942383, 0.357931911945343, 1.7762447595596313, -1.0625935792922974, -0.38291996717453003, -0.93896484375, 0.05810546875, 0.3173828125, 0, 
163, 462517805, -85.46733856201172, -71.50019836425781, -56.931312561035156, 9.236335754394531, -2.5368878841400146, 0.3532416820526123, 1.596919298171997, -1.367633581161499, 0.015266083180904388, -0.94091796875, 0.05859375, 0.31201171875, 0, 
164, 462526138, -85.46813201904297, -71.49713134765625, -56.93220138549805, 9.490918159484863, -3.0511159896850586, 0.08685667812824249, 1.3249986171722412, -1.0249407291412354, 0.3566269874572754, -0.94140625, 0.056640625, 0.31689453125, 0, 
165, 462534471, -85.4704360961914, -71.49475860595703, -56.930946350097656, 9.75882625579834, -3.4723424911499023, 0.13033166527748108, 1.4478189945220947, -1.1347233057022095, 0.2811930477619171, -0.94189453125, 0.05810546875, 0.31640625, 0, 
166, 462542804, -85.46121978759766, -71.49484252929688, -56.94068908691406, 9.499058723449707, -3.5161914825439453, 0.11850222945213318, 1.5837280750274658, -0.7552228569984436, -0.045119475573301315, -0.9384765625, 0.05712890625, 0.31640625, 0, 
167, 462551137, -85.45887756347656, -71.49760437011719, -56.94239044189453, 9.103397369384766, -3.2251052856445312, 0.39094263315200806, 1.6762850284576416, -1.0851470232009888, -0.34269285202026367, -0.93994140625, 0.0576171875, 0.31640625, 0, 
168, 462559470, -85.4611587524414, -71.49950408935547, -56.93916702270508, 9.102542877197266, -2.686018466949463, 0.32223325967788696, 1.5918477773666382, -1.2230411767959595, -0.2201671451330185, -0.93994140625, 0.05712890625, 0.31640625, 0, 
169, 462567803, -85.46680450439453, -71.4980239868164, -56.93441390991211, 9.492945671081543, -2.761465549468994, 0.25235456228256226, 1.446691870689392, -1.2905348539352417, 0.18818777799606323, -0.9384765625, 0.05908203125, 0.31103515625, 0, 
170, 462576136, -85.47040557861328, -71.49510192871094, -56.92951965332031, 9.660658836364746, -3.3513829708099365, 0.06259685754776001, 1.4233061075210571, -1.1728885173797607, 0.3505564033985138, -0.939453125, 0.0556640625, 0.31787109375, 0, 
171, 462584469, -85.46439361572266, -71.49441528320312, -56.9367790222168, 9.538944244384766, -3.5906403064727783, 0.1066121906042099, 1.5593433380126953, -0.8540425896644592, 0.05719658359885216, -0.93896484375, 0.05615234375, 0.31787109375, 0, 
172, 462592802, -85.46940612792969, -71.49656677246094, -56.93119430541992, 9.22082805633545, -3.2504796981811523, 0.2575426995754242, 1.6228410005569458, -1.3560048341751099, -0.24829159677028656, -0.939453125, 0.05859375, 0.31884765625, 0, 
173, 462601135, -85.46744537353516, -71.49903869628906, -56.93197250366211, 9.116266250610352, -2.7025668621063232, 0.37688228487968445, 1.7394884824752808, -1.119278073310852, -0.3041049838066101, -0.939453125, 0.0576171875, 0.31005859375, 0, 
174, 462609468, -85.47632598876953, -71.49806213378906, -56.924861907958984, 9.29771900177002, -2.822535991668701, 0.28800463676452637, 1.469667911529541, -1.4190926551818848, 0.13537122309207916, -0.93896484375, 0.05615234375, 0.3154296875, 0, 
175, 462617801, -85.47931671142578, -71.49494171142578, -56.922855377197266, 9.655744552612305, -3.198744058609009, 0.04297658056020737, 1.4578598737716675, -1.17112135887146, 0.37430083751678467, -0.9404296875, 0.0576171875, 0.31689453125, 0, 
176, 462626134, -85.4778060913086, -71.49299621582031, -56.92536926269531, 9.729162216186523, -3.4694533348083496, 0.16809384524822235, 1.4599601030349731, -0.9893113970756531, 0.21982136368751526, -0.94091796875, 0.05615234375, 0.31640625, 0, 
177, 462634467, -85.4785385131836, -71.49494171142578, -56.92538070678711, 9.233378410339355, -3.513282299041748, 0.13083867728710175, 1.5176947116851807, -1.1379762887954712, -0.23494656383991241, -0.93994140625, 0.05810546875, 0.3173828125, 0, 
178, 462642800, -85.47266387939453, -71.4984359741211, -56.930519104003906, 9.02433967590332, -2.9611868858337402, 0.3848862946033478, 1.708495020866394, -0.9594194889068604, -0.43863093852996826, -0.94189453125, 0.05419921875, 0.31787109375, 0, 
179, 462651133, -85.4815673828125, -71.4991455078125, -56.92169189453125, 9.283924102783203, -2.6335651874542236, 0.3491634130477905, 1.5191034078598022, -1.4645835161209106, -0.06522664427757263, -0.93896484375, 0.05615234375, 0.3173828125, 0, 
180, 462659466, -85.48188781738281, -71.49728393554688, -56.923828125, 9.608577728271484, -3.014329195022583, 0.13964548707008362, 1.4046462774276733, -1.0446252822875977, 0.21197058260440826, -0.93896484375, 0.05615234375, 0.3173828125, 0, 
181, 462667799, -85.48249816894531, -71.49507141113281, -56.923946380615234, 9.746140480041504, -3.506154775619507, 0.1376120001077652, 1.5033122301101685, -1.0992093086242676, 0.2578712999820709, -0.9404296875, 0.0576171875, 0.31640625, 0, 
182, 462676132, -85.47663116455078, -71.49772644042969, -56.929176330566406, 9.39189624786377, -3.5341150760650635, 0.10303948074579239, 1.6553584337234497, -0.9234444499015808, -0.3374932110309601, -0.94189453125, 0.0576171875, 0.3095703125, 0, 
183, 462684465, -85.47703552246094, -71.50027465820312, -56.927467346191406, 9.128000259399414, -2.9667587280273438, 0.36268746852874756, 1.7313814163208008, -1.2139097452163696, -0.30396410822868347, -0.939453125, 0.05712890625, 0.3154296875, 0, 
184, 462692798, -85.47865295410156, -71.50102996826172, -56.92389678955078, 9.09394359588623, -2.6093857288360596, 0.31337013840675354, 1.4964091777801514, -1.1534217596054077, -0.09265949577093124, -0.9384765625, 0.056640625, 0.31689453125, 0, 
185, 462701131, -85.48187255859375, -71.49919891357422, -56.921836853027344, 9.381919860839844, -2.9777657985687256, 0.19143518805503845, 1.4452576637268066, -1.1754502058029175, 0.22094839811325073, -0.9384765625, 0.05615234375, 0.310546875, 0, 
186, 462709464, -85.48977661132812, -71.49728393554688, -56.914642333984375, 9.774250030517578, -3.3354883193969727, 0.1596302092075348, 1.455989956855774, -1.3779816627502441, 0.24494890868663788, -0.9375, 0.05712890625, 0.31640625, 0, 
187, 462717797, -85.48120880126953, -71.49763488769531, -56.92323303222656, 9.631865501403809, -3.525453805923462, 0.08971501141786575, 1.63753080368042, -0.8010082840919495, -0.0724114403128624, -0.94091796875, 0.0576171875, 0.314453125, 0, 
188, 462726130, -85.48253631591797, -71.5002212524414, -56.92177963256836, 9.11988353729248, -3.425771474838257, 0.21998296678066254, 1.6299618482589722, -1.2016533613204956, -0.31148192286491394, -0.94140625, 0.05810546875, 0.31640625, 0, 
189, 462734463, -85.47863006591797, -71.50341796875, -56.924354553222656, 9.056968688964844, -2.671128034591675, 0.4007916748523712, 1.7641547918319702, -1.0571891069412231, -0.3967260718345642, -0.94287109375, 0.05908203125, 0.30908203125, 0, 
190, 462742796, -85.48462677001953, -71.50292205810547, -56.917274475097656, 9.362916946411133, -2.6370937824249268, 0.32905861735343933, 1.5581523180007935, -1.3363714218139648, 0.07542110979557037, -0.9404296875, 0.05859375, 0.3125, 0, 
191, 462751129, -85.48786163330078, -71.49983978271484, -56.91596221923828, 9.565452575683594, -3.2550172805786133, -0.08196721225976944, 1.3884707689285278, -1.1479660272598267, 0.372328519821167, -0.94384765625, 0.05810546875, 0.3095703125, 0, 
192, 462759462, -85.48468780517578, -71.49821472167969, -56.91912078857422, 9.639395713806152, -3.5429131984710693, 0.1858958899974823, 1.621483564376831, -0.9908994436264038, 0.17228132486343384, -0.9423828125, 0.05712890625, 0.31396484375, 0, 
193, 462767795, -85.48492431640625, -71.49981689453125, -56.918243408203125, 9.299080848693848, -3.4050471782684326, 0.2285284698009491, 1.6548078060150146, -1.1718641519546509, -0.1921451836824417, -0.9423828125, 0.0556640625, 0.30859375, 0, 
194, 462776128, -85.47772979736328, -71.5026626586914, -56.9234504699707, 9.103486061096191, -2.9170022010803223, 0.32912227511405945, 1.8368991613388062, -0.9343944191932678, -0.3601745665073395, -0.94091796875, 0.05712890625, 0.31396484375, 0, 
195, 462784461, -85.48328399658203, -71.5025634765625, -56.917720794677734, 9.259245872497559, -2.699385404586792, 0.25267165899276733, 1.5744174718856812, -1.34039306640625, 0.021426310762763023, -0.9423828125, 0.05810546875, 0.31201171875, 0, 
196, 462792794, -85.47937774658203, -71.50093078613281, -56.92254638671875, 9.59756851196289, -3.0149922370910645, 0.1342281997203827, 1.5038501024246216, -0.9111238718032837, 0.17216607928276062, -0.94091796875, 0.05712890625, 0.31298828125, 0, 
197, 462801127, -85.48013305664062, -71.49906921386719, -56.92219161987305, 9.681910514831543, -3.4799017906188965, 0.14052556455135345, 1.5141726732254028, -1.1007204055786133, 0.22129416465759277, -0.9423828125, 0.05712890625, 0.314453125, 0, 
198, 462809460, -85.4729995727539, -71.49976348876953, -56.930091857910156, 9.319253921508789, -3.5325448513031006, 0.03562842309474945, 1.549494743347168, -0.8315917253494263, -0.11733882129192352, -0.94140625, 0.05810546875, 0.3056640625, 0, 
199, 462817793, -85.46884155273438, -71.502197265625, -56.932640075683594, 9.111437797546387, -2.9801244735717773, 0.3556366264820099, 1.7998096942901611, -1.0507855415344238, -0.304207444190979, -0.94091796875, 0.05810546875, 0.3125, 0, 
200, 462826126, -85.47295379638672, -71.50263977050781, -56.928165435791016, 9.163890838623047, -2.663365125656128, 0.37352755665779114, 1.5276328325271606, -1.2591572999954224, -0.04506824165582657, -0.94140625, 0.05615234375, 0.3125, 0, 
201, 462834459, -85.47631072998047, -71.50016784667969, -56.925411224365234, 9.49009895324707, -3.037745714187622, 0.21015599370002747, 1.4965884685516357, -1.2036769390106201, 0.30155640840530396, -0.9404296875, 0.0576171875, 0.3134765625, 0, 
202, 462842792, -85.4817886352539, -71.4973373413086, -56.92039108276367, 9.801009178161621, -3.3784589767456055, 0.07544423639774323, 1.43326997756958, -1.2480919361114502, 0.34269285202026367, -0.9423828125, 0.0576171875, 0.30908203125, 0, 
203, 462851125, -85.47189331054688, -71.49691772460938, -56.93086624145508, 9.531325340270996, -3.534149646759033, 0.13657410442829132, 1.5962790250778198, -0.7170576453208923, 0.01836540549993515, -0.943359375, 0.05908203125, 0.314453125, 0, 
204, 462859458, -85.46981048583984, -71.49932861328125, -56.93117904663086, 9.092084884643555, -3.3062751293182373, 0.3328356146812439, 1.8007832765579224, -1.133622169494629, -0.2943716049194336, -0.93994140625, 0.05859375, 0.3095703125, 0, 
205, 462867791, -85.46865844726562, -71.5011978149414, -56.93064498901367, 9.078109741210938, -2.642620325088501, 0.30972182750701904, 1.7896538972854614, -1.1632450819015503, -0.2283509224653244, -0.94140625, 0.0576171875, 0.31396484375, 0, 
206, 462876124, -85.47405242919922, -71.50017547607422, -56.92673110961914, 9.410572052001953, -2.74357008934021, 0.2726539373397827, 1.4566047191619873, -1.2739367485046387, 0.12999224662780762, -0.94091796875, 0.0595703125, 0.31201171875, 0, 
207, 462884457, -85.47686004638672, -71.49628448486328, -56.92466354370117, 9.681106567382812, -3.2959463596343994, 0.06285008788108826, 1.4871368408203125, -1.163027048110962, 0.46866363286972046, -0.94140625, 0.05908203125, 0.30615234375, 0, 
208, 462892790, -85.47049713134766, -71.49454498291016, -56.930973052978516, 9.643714904785156, -3.588266134262085, 0.18851865828037262, 1.5767608880996704, -0.8388789296150208, 0.1820915937423706, -0.94140625, 0.05810546875, 0.31298828125, 0, 
209, 462901123, -85.46865844726562, -71.49683380126953, -56.93148422241211, 9.241517066955566, -3.419365644454956, 0.1722361147403717, 1.7422804832458496, -1.109083652496338, -0.2804630994796753, -0.94189453125, 0.05810546875, 0.3046875, 0, 
210, 462909456, -85.46253204345703, -71.49961853027344, -56.9364013671875, 9.072141647338867, -2.767859935760498, 0.38794779777526855, 1.7666139602661133, -0.9663867354393005, -0.3557176887989044, -0.94140625, 0.05908203125, 0.31396484375, 0, 
211, 462917789, -85.47180938720703, -71.49910736083984, -56.928016662597656, 9.228730201721191, -2.6806633472442627, 0.3250308930873871, 1.4300172328948975, -1.436356782913208, 0.08137643337249756, -0.9404296875, 0.05859375, 0.30810546875, 0, 
212, 462926122, -85.46910858154297, -71.49598693847656, -56.93129348754883, 9.532818794250488, -3.152940273284912, 0.048891570419073105, 1.4687970876693726, -0.9355471134185791, 0.3569343686103821, -0.94189453125, 0.05810546875, 0.3125, 0, 
213, 462934455, -85.46863555908203, -71.49398803710938, -56.93222427368164, 9.771142959594727, -3.4532294273376465, 0.16885286569595337, 1.5376864671707153, -1.0687282085418701, 0.2307458370923996, -0.94140625, 0.05859375, 0.3154296875, 0, 
214, 462942788, -85.46353912353516, -71.4950180053711, -56.9380989074707, 9.385123252868652, -3.5569725036621094, 0.10417782515287399, 1.537635326385498, -0.9005451798439026, -0.14395199716091156, -0.9423828125, 0.05615234375, 0.3134765625, 0, 
215, 462951121, -85.45907592773438, -71.49781799316406, -56.942623138427734, 9.044215202331543, -3.1116445064544678, 0.32788118720054626, 1.6928958892822266, -0.99525386095047, -0.3528488874435425, -0.94189453125, 0.05615234375, 0.30810546875, 0, 
216, 462959454, -85.46593475341797, -71.4997329711914, -56.935359954833984, 9.213465690612793, -2.559243679046631, 0.37327873706817627, 1.5939992666244507, -1.417427659034729, -0.21445517241954803, -0.943359375, 0.0576171875, 0.310546875, 0, 
217, 462967787, -85.4659423828125, -71.49744415283203, -56.93587875366211, 9.522021293640137, -2.8541319370269775, 0.16671855747699738, 1.5302966833114624, -1.083187460899353, 0.2671308219432831, -0.94189453125, 0.0576171875, 0.306640625, 0, 
218, 462976120, -85.47288513183594, -71.49418640136719, -56.931365966796875, 9.652586936950684, -3.4171335697174072, 0.09843427687883377, 1.3575416803359985, -1.2810190916061401, 0.40105485916137695, -0.94189453125, 0.05712890625, 0.3134765625, 0, 
219, 462984453, -85.4657974243164, -71.49434661865234, -56.93759536743164, 9.447249412536621, -3.531399726867676, 0.09418997913599014, 1.7262202501296997, -0.8876997828483582, -0.04025277495384216, -0.94140625, 0.0576171875, 0.3125, 0, 
220, 462992786, -85.46627044677734, -71.49812316894531, -56.936248779296875, 9.16900634765625, -3.1444644927978516, 0.32591113448143005, 1.7563936710357666, -1.2231180667877197, -0.4528723955154419, -0.93994140625, 0.05615234375, 0.3125, 0, 
221, 463001119, -85.46735382080078, -71.50022888183594, -56.93574905395508, 9.07809066772461, -2.679335832595825, 0.31965160369873047, 1.6650787591934204, -1.2005776166915894, -0.2516726553440094, -0.93994140625, 0.0576171875, 0.31396484375, 0, 
222, 463009452, -85.47382354736328, -71.49890899658203, -56.930824279785156, 9.387404441833496, -2.8712384700775146, 0.26449716091156006, 1.374869465827942, -1.2999863624572754, 0.16741463541984558, -0.94091796875, 0.05810546875, 0.3134765625, 0, 
223, 463017785, -85.4784927368164, -71.49638366699219, -56.927276611328125, 9.745743751525879, -3.2736737728118896, 0.09590023756027222, 1.4319895505905151, -1.2347984313964844, 0.30585959553718567, -0.9423828125, 0.05712890625, 0.3076171875, 0, 
224, 463026118, -85.46852111816406, -71.49508666992188, -56.93800354003906, 9.644285202026367, -3.5530691146850586, 0.15678580105304718, 1.5609573125839233, -0.6896249055862427, 0.11649356037378311, -0.943359375, 0.05712890625, 0.31201171875, 0, 
225, 463034451, -85.4700698852539, -71.49860382080078, -56.93585205078125, 9.190858840942383, -3.470668315887451, 0.1214822456240654, 1.638209581375122, -1.2374621629714966, -0.41842132806777954, -0.9404296875, 0.05859375, 0.30712890625, 0, 
226, 463042784, -85.46591186523438, -71.50213623046875, -56.937599182128906, 9.044381141662598, -2.752427339553833, 0.35611361265182495, 1.7545493841171265, -1.0335726737976074, -0.43399477005004883, -0.9404296875, 0.0576171875, 0.31494140625, 0, 
227, 463051117, -85.47362518310547, -71.502685546875, -56.93071746826172, 9.238147735595703, -2.635713577270508, 0.3613865077495575, 1.4334237575531006, -1.3750104904174805, -0.050139863044023514, -0.9423828125, 0.05810546875, 0.31201171875, 0, 
228, 463059450, -85.47657775878906, -71.4993667602539, -56.92833709716797, 9.595683097839355, -3.12966251373291, 0.0475250668823719, 1.5025054216384888, -1.181494951248169, 0.3963802754878998, -0.9423828125, 0.056640625, 0.314453125, 0, 
229, 463067783, -85.47694396972656, -71.49701690673828, -56.92844772338867, 9.773009300231934, -3.495469570159912, 0.1852847933769226, 1.5368030071258545, -1.0983256101608276, 0.2737649381160736, -0.94140625, 0.05859375, 0.306640625, 0, 
230, 463076116, -85.47177124023438, -71.49855041503906, -56.933837890625, 9.36835765838623, -3.5235469341278076, 0.13494791090488434, 1.5895681381225586, -0.9200761318206787, -0.20052102208137512, -0.93994140625, 0.05859375, 0.31005859375, 0, 
231, 463084449, -85.46500396728516, -71.501708984375, -56.939117431640625, 9.06569766998291, -3.005157947540283, 0.37180161476135254, 1.7926121950149536, -0.9520682692527771, -0.39810922741889954, -0.94384765625, 0.05859375, 0.3134765625, 0, 
232, 463092782, -85.46920776367188, -71.50169372558594, -56.93540954589844, 9.169485092163086, -2.6033027172088623, 0.2889879047870636, 1.5827292203903198, -1.2776509523391724, 0.007197599392384291, -0.93994140625, 0.05859375, 0.31591796875, 0, 
233, 463101115, -85.4690933227539, -71.49819946289062, -56.936222076416016, 9.483823776245117, -2.9388608932495117, 0.17232371866703033, 1.3758430480957031, -1.0044493675231934, 0.4096996784210205, -0.94140625, 0.05908203125, 0.31494140625, 0, 
234, 463109448, -85.47296142578125, -71.49552154541016, -56.933414459228516, 9.708341598510742, -3.440549850463867, 0.13370445370674133, 1.4488179683685303, -1.207570195198059, 0.3196144104003906, -0.9404296875, 0.0576171875, 0.3154296875, 0, 
235, 463117781, -85.46510314941406, -71.49646759033203, -56.94188690185547, 9.525339126586914, -3.5996057987213135, 0.08098584413528442, 1.5680521726608276, -0.8097299337387085, -0.14606517553329468, -0.93994140625, 0.0576171875, 0.31005859375, 0, 
236, 463126114, -85.46575164794922, -71.4996337890625, -56.94032287597656, 9.17559814453125, -3.270228862762451, 0.29877927899360657, 1.6433581113815308, -1.1861823797225952, -0.3759017288684845, -0.93994140625, 0.05712890625, 0.31787109375, 0, 
237, 463134447, -85.46663665771484, -71.50154113769531, -56.93895721435547, 9.125741004943848, -2.661593437194824, 0.398076593875885, 1.6356481313705444, -1.191868782043457, -0.23184722661972046, -0.939453125, 0.0595703125, 0.31396484375, 0, 
238, 463142780, -85.47190856933594, -71.50043487548828, -56.93381881713867, 9.379159927368164, -2.7659995555877686, 0.2646348774433136, 1.4520965814590454, -1.268916368484497, 0.14046847820281982, -0.939453125, 0.0576171875, 0.31640625, 0, 
239, 463151113, -85.47621154785156, -71.49718475341797, -56.93058776855469, 9.666158676147461, -3.240422248840332, 0.052175845950841904, 1.4310927391052246, -1.2014740705490112, 0.3944079577922821, -0.93896484375, 0.05908203125, 0.31787109375, 0, 
240, 463159446, -85.47109985351562, -71.49629974365234, -56.9360466003418, 9.658076286315918, -3.4832723140716553, 0.18058563768863678, 1.588274598121643, -0.9079989790916443, 0.07998044788837433, -0.9384765625, 0.0576171875, 0.314453125, 0, 
241, 463167779, -85.47113037109375, -71.498779296875, -56.93524932861328, 9.226451873779297, -3.372931957244873, 0.21915362775325775, 1.6683958768844604, -1.1758726835250854, -0.29651039838790894, -0.9384765625, 0.05810546875, 0.31005859375, 0, 
242, 463176112, -85.46559143066406, -71.50186157226562, -56.940120697021484, 9.056378364562988, -2.837423324584961, 0.3046201765537262, 1.7089303731918335, -0.9646447896957397, -0.3847898542881012, -0.94091796875, 0.05615234375, 0.3173828125, 0, 
243, 463184445, -85.47126770019531, -71.50135040283203, -56.93467330932617, 9.324773788452148, -2.668576955795288, 0.3010929822921753, 1.5278633832931519, -1.3253188133239746, 0.07382022589445114, -0.9384765625, 0.056640625, 0.31298828125, 0, 
244, 463192778, -85.47325134277344, -71.49858856201172, -56.93574905395508, 9.64855670928955, -3.1107826232910156, 0.07275671511888504, 1.427993655204773, -1.1094166040420532, 0.3254545032978058, -0.9404296875, 0.056640625, 0.31591796875, 0, 
245, 463201111, -85.47077941894531, -71.49571990966797, -56.93882369995117, 9.685928344726562, -3.545276641845703, 0.15191172063350677, 1.5941530466079712, -0.9893370270729065, 0.3310127556324005, -0.94140625, 0.05712890625, 0.3173828125, 0, 
246, 463209444, -85.4658432006836, -71.49728393554688, -56.94339370727539, 9.323606491088867, -3.5066423416137695, 0.09633489698171616, 1.6707907915115356, -0.9669244885444641, -0.21145831048488617, -0.94091796875, 0.05712890625, 0.318359375, 0, 
247, 463217777, -85.46177673339844, -71.50025177001953, -56.94688415527344, 9.082450866699219, -2.938624382019043, 0.3639507591724396, 1.6793075799942017, -1.0197795629501343, -0.37017691135406494, -0.9375, 0.056640625, 0.31787109375, 0, 
248, 463226110, -85.46843719482422, -71.5008544921875, -56.93954086303711, 9.132925033569336, -2.6405622959136963, 0.3336789608001709, 1.6302179098129272, -1.3996769189834595, -0.049755651503801346, -0.9404296875, 0.05810546875, 0.31005859375, 0, 
249, 463234443, -85.46817779541016, -71.498046875, -56.94097900390625, 9.457386016845703, -2.987654447555542, 0.19661284983158112, 1.4539151191711426, -1.0434598922729492, 0.3275292217731476, -0.93994140625, 0.05712890625, 0.3173828125, 0, 
250, 463242776, -85.47245025634766, -71.49486541748047, -56.93381118774414, 9.786894798278809, -3.3612866401672363, 0.16990454494953156, 1.4729979038238525, -1.2120527029037476, 0.3844952881336212, -0.939453125, 0.05810546875, 0.31591796875, 0, 
251, 463251109, -85.4634017944336, -71.49433898925781, -56.94363784790039, 9.51766300201416, -3.56589937210083, 0.10239562392234802, 1.5551682710647583, -0.7324005961418152, 0.027330391108989716, -0.93994140625, 0.0576171875, 0.3173828125, 0, 
252, 463259442, -85.4614486694336, -71.49786376953125, -56.9443359375, 9.105676651000977, -3.280371904373169, 0.2772599756717682, 1.7490679025650024, -1.1313936710357666, -0.43348249793052673, -0.93896484375, 0.05810546875, 0.31689453125, 0, 
253, 463267775, -85.45958709716797, -71.4991683959961, -56.944339752197266, 9.101799011230469, -2.615116834640503, 0.32524365186691284, 1.814627766609192, -1.1350692510604858, -0.16277846693992615, -0.939453125, 0.05517578125, 0.318359375, 0, 
254, 463276108, -85.46351623535156, -71.49829864501953, -56.93965148925781, 9.378890991210938, -2.737053394317627, 0.28003203868865967, 1.436932921409607, -1.2139995098114014, 0.11178051680326462, -0.93994140625, 0.0576171875, 0.31103515625, 0, 
255, 463284441, -85.47005462646484, -71.4944839477539, -56.93315124511719, 9.649435997009277, -3.2829625606536865, 0.018660718575119972, 1.5423355102539062, -1.3341045379638672, 0.4712506830692291, -0.9404296875, 0.0576171875, 0.3134765625, 0, 
256, 463292774, -85.4631118774414, -71.4937973022461, -56.94110107421875, 9.647895812988281, -3.5668282508850098, 0.1379394680261612, 1.6399000883102417, -0.8428491950035095, 0.05314953625202179, -0.93994140625, 0.05810546875, 0.31640625, 0, 
257, 463301107, -85.4629898071289, -71.49650573730469, -56.94125747680664, 9.216560363769531, -3.482527732849121, 0.21528714895248413, 1.5985586643218994, -1.1339805126190186, -0.3273114860057831, -0.9404296875, 0.05810546875, 0.31591796875, 0, 
258, 463309440, -85.45877838134766, -71.49935150146484, -56.94376754760742, 9.097448348999023, -2.82939076423645, 0.36504408717155457, 1.8058803081512451, -1.0552424192428589, -0.3532843291759491, -0.9375, 0.05712890625, 0.3173828125, 0, 
259, 463317773, -85.46173095703125, -71.49816131591797, -56.94074630737305, 9.299212455749512, -2.6701574325561523, 0.32416099309921265, 1.5764538049697876, -1.2268321514129639, 0.14569377899169922, -0.94091796875, 0.05615234375, 0.31591796875, 0, 
260, 463326106, -85.46387481689453, -71.49532318115234, -56.94057083129883, 9.583443641662598, -3.1462390422821045, 0.05894199013710022, 1.42737877368927, -1.1164859533309937, 0.340105801820755, -0.93896484375, 0.05859375, 0.3173828125, 0, 
261, 463334439, -85.46456146240234, -71.49372863769531, -56.940494537353516, 9.703123092651367, -3.485741376876831, 0.18160586059093475, 1.512546181678772, -1.1103641986846924, 0.18475545942783356, -0.939453125, 0.05908203125, 0.31689453125, 0, 
262, 463342772, -85.46044158935547, -71.49613952636719, -56.947383880615234, 9.350637435913086, -3.4888131618499756, 0.07481513917446136, 1.6340343952178955, -0.9820881485939026, -0.3074604570865631, -0.94091796875, 0.0556640625, 0.31640625, 0, 
263, 463351105, -85.4560546875, -71.50008392333984, -56.949798583984375, 9.04294490814209, -3.00028657913208, 0.369405061006546, 1.7638602256774902, -1.0320487022399902, -0.48403218388557434, -0.9384765625, 0.0576171875, 0.3115234375, 0, 
264, 463359438, -85.46109771728516, -71.50112915039062, -56.943965911865234, 9.193209648132324, -2.6481070518493652, 0.39433133602142334, 1.6468544006347656, -1.3549673557281494, -0.11613493412733078, -0.93994140625, 0.05908203125, 0.31591796875, 0, 
265, 463367771, -85.46146392822266, -71.49857330322266, -56.94378662109375, 9.528973579406738, -2.962737798690796, 0.14850929379463196, 1.564491868019104, -1.103730320930481, 0.30137714743614197, -0.93798828125, 0.05859375, 0.31103515625, 0, 
266, 463376104, -85.46707916259766, -71.49607849121094, -56.93850326538086, 9.779231071472168, -3.397439956665039, 0.16609570384025574, 1.4718835353851318, -1.2740519046783447, 0.30646148324012756, -0.93798828125, 0.0576171875, 0.3173828125, 0, 
267, 463384437, -85.46057891845703, -71.49646759033203, -56.94530487060547, 9.540213584899902, -3.542844295501709, 0.11553890258073807, 1.5915019512176514, -0.8689885139465332, -0.07261635363101959, -0.9404296875, 0.056640625, 0.3154296875, 0, 
268, 463392770, -85.46240234375, -71.49881744384766, -56.94231033325195, 9.094782829284668, -3.2554287910461426, 0.30420270562171936, 1.5981488227844238, -1.2087997198104858, -0.2789517939090729, -0.94140625, 0.0576171875, 0.31298828125, 0, 
269, 463401103, -85.46297454833984, -71.50169372558594, -56.93979263305664, 9.051223754882812, -2.666221857070923, 0.32570114731788635, 1.8024225234985352, -1.232544183731079, -0.34078457951545715, -0.93798828125, 0.05810546875, 0.31591796875, 0, 
270, 463409436, -85.46847534179688, -71.49906921386719, -56.93517303466797, 9.410710334777832, -2.734126091003418, 0.32254913449287415, 1.456540822982788, -1.2735142707824707, 0.3222399055957794, -0.93994140625, 0.05908203125, 0.31689453125, 0, 
271, 463417769, -85.47216033935547, -71.49597930908203, -56.93231964111328, 9.6824312210083, -3.2930843830108643, 0.09067072719335556, 1.4643402099609375, -1.2022424936294556, 0.37132957577705383, -0.93994140625, 0.05712890625, 0.30859375, 0, 
272, 463426102, -85.46476745605469, -71.4945297241211, -56.940834045410156, 9.63541316986084, -3.647770643234253, 0.15707500278949738, 1.551095724105835, -0.786882221698761, 0.14062215387821198, -0.93994140625, 0.05810546875, 0.31640625, 0, 
273, 463434435, -85.46624755859375, -71.49647521972656, -56.93822479248047, 9.264135360717773, -3.3758058547973633, 0.21734972298145294, 1.7104417085647583, -1.240791916847229, -0.23161670565605164, -0.9423828125, 0.05810546875, 0.31689453125, 0, 
274, 463442768, -85.45948028564453, -71.49910736083984, -56.94554138183594, 9.103001594543457, -2.7182843685150146, 0.3495488464832306, 1.7766801118850708, -0.930526852607727, -0.3317427635192871, -0.939453125, 0.05908203125, 0.3173828125, 0, 
275, 463451101, -85.46477508544922, -71.49869537353516, -56.9400520324707, 9.1693115234375, -2.7181947231292725, 0.29786020517349243, 1.5056045055389404, -1.2920714616775513, 0.055762190371751785, -0.9375, 0.0576171875, 0.30810546875, 0, 
276, 463459434, -85.46537780761719, -71.49585723876953, -56.94072723388672, 9.545693397521973, -3.100679874420166, 0.05784599110484123, 1.434140920639038, -1.0704315900802612, 0.33062854409217834, -0.9404296875, 0.05712890625, 0.31640625, 0, 
277, 463467767, -85.46438598632812, -71.49359893798828, -56.94218444824219, 9.765948295593262, -3.4244112968444824, 0.2078484296798706, 1.5421178340911865, -1.046110987663269, 0.2619183659553528, -0.93896484375, 0.05859375, 0.31689453125, 0, 
278, 463476100, -85.45885467529297, -71.49507141113281, -56.94728469848633, 9.330170631408691, -3.6062912940979004, 0.1170436441898346, 1.627233862876892, -0.9179372787475586, -0.19802363216876984, -0.93994140625, 0.0556640625, 0.31884765625, 0, 
279, 463484433, -85.45720672607422, -71.4989013671875, -56.947547912597656, 9.098288536071777, -3.0747361183166504, 0.38728517293930054, 1.755292296409607, -1.1492723226547241, -0.46488553285598755, -0.9404296875, 0.05859375, 0.31591796875, 0, 
280, 463492766, -85.4620361328125, -71.50061798095703, -56.938385009765625, 9.236684799194336, -2.561612606048584, 0.32771340012550354, 1.6557811498641968, -1.3448114395141602, -0.19186344742774963, -0.9404296875, 0.05615234375, 0.3173828125, 0, 
281, 463501099, -85.462890625, -71.49800109863281, -56.93777084350586, 9.479010581970215, -2.927816152572632, 0.1664508730173111, 1.471384048461914, -1.0831106901168823, 0.31085434556007385, -0.9384765625, 0.05810546875, 0.310546875, 0, 
282, 463509432, -85.46998596191406, -71.49478912353516, -56.9320068359375, 9.662284851074219, -3.408149003982544, 0.1362134963274002, 1.3936192989349365, -1.3098224401474, 0.3967132568359375, -0.939453125, 0.0576171875, 0.31689453125, 0, 
283, 463517765, -85.463623046875, -71.49475860595703, -56.93896484375, 9.503684043884277, -3.5247976779937744, 0.1179046705365181, 1.560457706451416, -0.8610994219779968, -0.02289912849664688, -0.9404296875, 0.05810546875, 0.31591796875, 0, 
284, 463526098, -85.46312713623047, -71.49720764160156, -56.93739318847656, 9.113421440124512, -3.2162554264068604, 0.30226659774780273, 1.6741974353790283, -1.1438677310943604, -0.297496497631073, -0.939453125, 0.05810546875, 0.31298828125, 0, 
285, 463534431, -85.46573638916016, -71.49864196777344, -56.93284606933594, 9.139110565185547, -2.6951236724853516, 0.33883902430534363, 1.80319082736969, -1.3130496740341187, -0.16688953340053558, -0.94140625, 0.05712890625, 0.3134765625, 0, 
286, 463542764, -85.46920776367188, -71.49758911132812, -56.929134368896484, 9.417304039001465, -2.830554723739624, 0.23746798932552338, 1.5690511465072632, -1.2354642152786255, 0.13214382529258728, -0.94189453125, 0.056640625, 0.31103515625, 0, 
287, 463551097, -85.47501373291016, -71.49504089355469, -56.92390441894531, 9.744555473327637, -3.3046648502349854, 0.10518722981214523, 1.4321943521499634, -1.2693006992340088, 0.31305718421936035, -0.94482421875, 0.05810546875, 0.30712890625, 0, 
288, 463559430, -85.46717071533203, -71.49488067626953, -56.93281555175781, 9.624652862548828, -3.5199694633483887, 0.1642114222049713, 1.5140318870544434, -0.7829119563102722, -0.012563781812787056, -0.94189453125, 0.05859375, 0.3125, 0, 
289, 463567763, -85.4634017944336, -71.49736022949219, -56.934852600097656, 9.186522483825684, -3.370659589767456, 0.10835663974285126, 1.8115538358688354, -1.0705981254577637, -0.30908697843551636, -0.94091796875, 0.0576171875, 0.3134765625, 0, 
290, 463576096, -85.46167755126953, -71.50057220458984, -56.936607360839844, 9.01720142364502, -2.754197597503662, 0.35245397686958313, 1.7483253479003906, -1.1260913610458374, -0.38776111602783203, -0.94140625, 0.05712890625, 0.3134765625, 0, 
291, 463584429, -85.46733093261719, -71.5000228881836, -56.930965423583984, 9.281084060668945, -2.692379951477051, 0.4078538715839386, 1.5507882833480835, -1.333490014076233, 0.0749216377735138, -0.943359375, 0.05810546875, 0.31298828125, 0, 
292, 463592762, -85.4673843383789, -71.49720001220703, -56.93234634399414, 9.592846870422363, -3.1787068843841553, 0.03202366828918457, 1.415263295173645, -1.0278351306915283, 0.33157625794410706, -0.94384765625, 0.0576171875, 0.3125, 0, 
293, 463601095, -85.46531677246094, -71.49516296386719, -56.93429946899414, 9.783252716064453, -3.5119094848632812, 0.18021853268146515, 1.5254814624786377, -0.9885684847831726, 0.23121970891952515, -0.9423828125, 0.05908203125, 0.31396484375, 0, 
294, 463609428, -85.46143341064453, -71.49655151367188, -56.93766784667969, 9.358558654785156, -3.5492477416992188, 0.15477672219276428, 1.668267846107483, -1.0078177452087402, -0.1801961362361908, -0.9423828125, 0.056640625, 0.31298828125, 0, 
295, 463617761, -85.45433807373047, -71.49909973144531, -56.94343566894531, 9.088330268859863, -3.0324831008911133, 0.3916984498500824, 1.7853507995605469, -0.9295662641525269, -0.3313201665878296, -0.9404296875, 0.05712890625, 0.31005859375, 0, 
296, 463626094, -85.46340942382812, -71.50074768066406, -56.93353271484375, 9.174327850341797, -2.6084072589874268, 0.3213503956794739, 1.649902582168579, -1.5098823308944702, -0.17084695398807526, -0.939453125, 0.05859375, 0.31640625, 0, 
297, 463634427, -85.46409606933594, -71.49825286865234, -56.934837341308594, 9.534497261047363, -2.914466142654419, 0.15839779376983643, 1.3524060249328613, -1.0494279861450195, 0.29074716567993164, -0.9404296875, 0.05810546875, 0.31396484375, 0, 
298, 463642760, -85.46826934814453, -71.49520111083984, -56.930110931396484, 9.685527801513672, -3.454174041748047, 0.10906856507062912, 1.4260468482971191, -1.1926628351211548, 0.3672056794166565, -0.94140625, 0.05859375, 0.31103515625, 0, 
299, 463651093, -85.4600830078125, -71.49585723876953, -56.93921661376953, 9.471848487854004, -3.6049561500549316, 0.06833792477846146, 1.559420108795166, -0.7794027328491211, -0.11120419949293137, -0.9423828125, 0.05517578125, 0.314453125, 0, 
300, 463659426, -85.46144104003906, -71.49887084960938, -56.9363899230957, 9.201298713684082, -3.128232717514038, 0.3967496156692505, 1.74765944480896, -1.2600539922714233, -0.3574082851409912, -0.94140625, 0.0546875, 0.30712890625, 0, 
301, 463667759, -85.45976257324219, -71.50052642822266, -56.937225341796875, 9.154422760009766, -2.6516048908233643, 0.3511602580547333, 1.6928191184997559, -1.1065220832824707, -0.20736002922058105, -0.9423828125, 0.05712890625, 0.31298828125, 0, 
302, 463676092, -85.46205139160156, -71.4991683959961, -56.93778991699219, 9.386589050292969, -2.900801181793213, 0.2520839273929596, 1.4449501037597656, -1.1430991888046265, 0.16095983982086182, -0.9404296875, 0.05859375, 0.30859375, 0, 
303, 463684425, -85.46813201904297, -71.49613189697266, -56.932701110839844, 9.687628746032715, -3.243515729904175, 0.08999188989400864, 1.4305806159973145, -1.2876147031784058, 0.375248521566391, -0.9404296875, 0.05810546875, 0.31201171875, 0, 
304, 463692758, -85.45905303955078, -71.4948959350586, -56.94416046142578, 9.636746406555176, -3.4680488109588623, 0.1567760556936264, 1.5032482147216797, -0.7081952095031738, 0.10924471169710159, -0.93994140625, 0.05810546875, 0.30908203125, 0, 
305, 463701091, -85.45572662353516, -71.49762725830078, -56.948299407958984, 9.144289016723633, -3.440267562866211, 0.2123987078666687, 1.7100318670272827, -1.042486548423767, -0.33763402700424194, -0.9404296875, 0.05810546875, 0.31494140625, 0, 
306, 463709424, -85.45223236083984, -71.50061798095703, -56.950225830078125, 9.08901309967041, -2.792965888977051, 0.38196656107902527, 1.788590669631958, -1.0801138877868652, -0.3718802332878113, -0.93994140625, 0.05810546875, 0.3115234375, 0, 
307, 463717757, -85.4590835571289, -71.49969482421875, -56.943809509277344, 9.38172435760498, -2.6474485397338867, 0.3358791470527649, 1.497254490852356, -1.357285499572754, 0.12486939877271652, -0.9404296875, 0.0576171875, 0.314453125, 0, 
308, 463726090, -85.4601821899414, -71.49687194824219, -56.943294525146484, 9.624714851379395, -3.1796107292175293, 0.041752539575099945, 1.5057326555252075, -1.101988434791565, 0.33272889256477356, -0.9423828125, 0.05859375, 0.3134765625, 0, 
309, 463734423, -85.45851135253906, -71.49534606933594, -56.9454345703125, 9.6725492477417, -3.5081067085266113, 0.17447373270988464, 1.5535545349121094, -1.0297306776046753, 0.16836236417293549, -0.94140625, 0.05810546875, 0.3134765625, 0, 
310, 463742756, -85.45512390136719, -71.49597930908203, -56.947601318359375, 9.293965339660645, -3.4424304962158203, 0.15093539655208588, 1.7002984285354614, -1.0181273221969604, -0.08712681382894516, -0.94091796875, 0.05859375, 0.31298828125, 0, 
311, 463751089, -85.45232391357422, -71.49845886230469, -56.94973373413086, 9.032533645629883, -2.935722589492798, 0.3451162874698639, 1.7166147232055664, -1.0681006908416748, -0.3030548095703125, -0.93994140625, 0.0556640625, 0.31201171875, 0, 
312, 463759422, -85.4580078125, -71.49786376953125, -56.9437370300293, 9.178742408752441, -2.6480705738067627, 0.3260577917098999, 1.586571455001831, -1.3440943956375122, 0.08314381539821625, -0.94189453125, 0.0576171875, 0.31298828125, 0, 
313, 463767755, -85.46099853515625, -71.49552154541016, -56.942115783691406, 9.521010398864746, -3.0177013874053955, 0.13766507804393768, 1.4119079113006592, -1.160721778869629, 0.2797330617904663, -0.94140625, 0.05859375, 0.31396484375, 0, 
314, 463776088, -85.4646224975586, -71.49298858642578, -56.9387092590332, 9.786653518676758, -3.4459331035614014, 0.15088452398777008, 1.5639028549194336, -1.225807785987854, 0.30624380707740784, -0.9423828125, 0.05615234375, 0.3125, 0, 
315, 463784421, -85.4542007446289, -71.4930419921875, -56.949119567871094, 9.462940216064453, -3.5554888248443604, 0.09966083616018295, 1.6525535583496094, -0.7290963530540466, -0.045734211802482605, -0.93994140625, 0.05810546875, 0.31201171875, 0, 
316, 463792754, -85.45049285888672, -71.49654388427734, -56.9511833190918, 9.115457534790039, -3.1682753562927246, 0.3146952986717224, 1.7893974781036377, -1.064758062362671, -0.42921769618988037, -0.93994140625, 0.05810546875, 0.314453125, 0, 
317, 463801087, -85.45545959472656, -71.49758911132812, -56.94475555419922, 9.075875282287598, -2.5953097343444824, 0.39115095138549805, 1.6905652284622192, -1.3550059795379639, -0.10736207664012909, -0.93994140625, 0.05859375, 0.3115234375, 0, 
318, 463809420, -85.45722198486328, -71.4952621459961, -56.94469451904297, 9.401097297668457, -2.7948641777038574, 0.2857929468154907, 1.3799924850463867, -1.1035765409469604, 0.27169016003608704, -0.94140625, 0.05908203125, 0.31396484375, 0, 
319, 463817753, -85.46482849121094, -71.49268341064453, -56.93832778930664, 9.663989067077637, -3.3415396213531494, 0.031426962465047836, 1.4040955305099487, -1.3424036502838135, 0.3230211138725281, -0.9423828125, 0.05810546875, 0.314453125, 0, 
320, 463826086, -85.4583969116211, -71.49118041992188, -56.944366455078125, 9.635839462280273, -3.5901570320129395, 0.1287519484758377, 1.5915659666061401, -0.8405182957649231, 0.15294258296489716, -0.93994140625, 0.05712890625, 0.31494140625, 0, 
321, 463834419, -85.45976257324219, -71.49409484863281, -56.94203567504883, 9.192764282226562, -3.4399425983428955, 0.3201688826084137, 1.6879523992538452, -1.2378206253051758, -0.34588178992271423, -0.94384765625, 0.05859375, 0.31396484375, 0, 
322, 463842752, -85.45429992675781, -71.49773406982422, -56.94639205932617, 9.089813232421875, -2.8160319328308105, 0.34373512864112854, 1.7844924926757812, -0.9916679263114929, -0.4528212249279022, -0.94189453125, 0.05712890625, 0.314453125, 0, 
323, 463851085, -85.46096801757812, -71.49793243408203, -56.93915557861328, 9.317692756652832, -2.6792802810668945, 0.3222038745880127, 1.6294751167297363, -1.393888235092163, -0.00759462034329772, -0.9404296875, 0.0595703125, 0.31298828125, 0, 
324, 463859418, -85.46186828613281, -71.49531555175781, -56.93999099731445, 9.618041038513184, -3.081284523010254, 0.10348860174417496, 1.3883684873580933, -1.0699195861816406, 0.30552661418914795, -0.9423828125, 0.0576171875, 0.3154296875, 0, 
325, 463867751, -85.46143341064453, -71.49443054199219, -56.941429138183594, 9.671036720275879, -3.5252773761749268, 0.2088739275932312, 1.475610375404358, -1.0606725215911865, 0.09654004871845245, -0.9423828125, 0.05908203125, 0.31298828125, 0, 
326, 463876084, -85.45729064941406, -71.49540710449219, -56.94538116455078, 9.30557918548584, -3.4913277626037598, 0.11347522586584091, 1.6440496444702148, -0.9718680381774902, -0.1352047324180603, -0.94287109375, 0.05712890625, 0.3134765625, 0, 
327, 463884417, -85.45491027832031, -71.49878692626953, -56.946556091308594, 9.112322807312012, -2.902940511703491, 0.4041912257671356, 1.7438044548034668, -1.1107614040374756, -0.41415661573410034, -0.9404296875, 0.05712890625, 0.31787109375, 0, 
328, 463892750, -85.46033477783203, -71.49833679199219, -56.94070053100586, 9.201972961425781, -2.674177408218384, 0.3387342095375061, 1.5274152755737305, -1.3058136701583862, 0.0653034895658493, -0.939453125, 0.056640625, 0.3173828125, 0, 
329, 463901083, -85.46469116210938, -71.49571990966797, -56.93589782714844, 9.490126609802246, -3.071812391281128, 0.13791276514530182, 1.4958456754684448, -1.2293168306350708, 0.3220221996307373, -0.9404296875, 0.05859375, 0.31591796875, 0, 
330, 463909416, -85.46788787841797, -71.49188995361328, -56.933414459228516, 9.778244018554688, -3.366337776184082, 0.17987151443958282, 1.4880589246749878, -1.1818023920059204, 0.45923760533332825, -0.94091796875, 0.05810546875, 0.31494140625, 0, 
331, 463917749, -85.45904541015625, -71.49272918701172, -56.94316101074219, 9.485298156738281, -3.5391058921813965, 0.09905053675174713, 1.5391850471496582, -0.7614215612411499, -0.1362549066543579, -0.94140625, 0.056640625, 0.31689453125, 0, 
332, 463926082, -85.46013641357422, -71.4963607788086, -56.93996810913086, 9.046175003051758, -3.2750167846679688, 0.2956102788448334, 1.7908705472946167, -1.2551103830337524, -0.4272838830947876, -0.94140625, 0.0556640625, 0.31298828125, 0, 
333, 463934415, -85.46369171142578, -71.49754333496094, -56.934417724609375, 9.121569633483887, -2.606261730194092, 0.3878467082977295, 1.7942898273468018, -1.3461560010910034, -0.1339624524116516, -0.939453125, 0.0576171875, 0.31884765625, 0, 
334, 463942748, -85.46821594238281, -71.49598693847656, -56.93133544921875, 9.433564186096191, -2.793747901916504, 0.23865096271038055, 1.4951924085617065, -1.24728524684906, 0.19836944341659546, -0.9404296875, 0.05908203125, 0.3154296875, 0, 
335, 463951081, -85.47610473632812, -71.49291229248047, -56.92436981201172, 9.687877655029297, -3.3449525833129883, 0.06439651548862457, 1.448305606842041, -1.3500878810882568, 0.3801664412021637, -0.9404296875, 0.05712890625, 0.31201171875, 0, 
336, 463959414, -85.46880340576172, -71.49264526367188, -56.9320068359375, 9.632526397705078, -3.5475704669952393, 0.14197422564029694, 1.5972269773483276, -0.8311948180198669, 0.0028431799728423357, -0.939453125, 0.05908203125, 0.31689453125, 0, 
337, 463967747, -85.46524047851562, -71.49530029296875, -56.935054779052734, 9.207118034362793, -3.3666579723358154, 0.19313766062259674, 1.6660264730453491, -1.0321896076202393, -0.33146101236343384, -0.9404296875, 0.0576171875, 0.31591796875, 0, 
338, 463976080, -85.46187591552734, -71.49918365478516, -56.93603515625, 9.038405418395996, -2.786525011062622, 0.326098769903183, 1.8241177797317505, -1.0935612916946411, -0.47651439905166626, -0.93896484375, 0.056640625, 0.3095703125, 0, 
339, 463984413, -85.46955871582031, -71.4983901977539, -56.92914962768555, 9.290748596191406, -2.689397096633911, 0.31650540232658386, 1.44948410987854, -1.376650094985962, 0.10965454578399658, -0.939453125, 0.05615234375, 0.314453125, 0, 
340, 463992746, -85.47503662109375, -71.49579620361328, -56.924827575683594, 9.587898254394531, -3.110628604888916, 0.035010404884815216, 1.3977431058883667, -1.2421494722366333, 0.319793701171875, -0.939453125, 0.05615234375, 0.31787109375, 0, 
341, 464001079, -85.47256469726562, -71.49473571777344, -56.9256591796875, 9.713438987731934, -3.513765573501587, 0.16263172030448914, 1.5357013940811157, -0.9834713935852051, 0.11221595108509064, -0.939453125, 0.05810546875, 0.314453125, 0, 
342, 464009412, -85.47162628173828, -71.49658966064453, -56.92679977416992, 9.340359687805176, -3.5400497913360596, 0.12352374196052551, 1.5646966695785522, -1.096916913986206, -0.22851739823818207, -0.939453125, 0.0595703125, 0.31689453125, 0, 
343, 464017745, -85.46544647216797, -71.50045013427734, -56.931217193603516, 9.085808753967285, -3.004704475402832, 0.34192657470703125, 1.8303675651550293, -0.9924875497817993, -0.4806382954120636, -0.9404296875, 0.0576171875, 0.31689453125, 0, 
344, 464026078, -85.47015380859375, -71.50208282470703, -56.925262451171875, 9.229613304138184, -2.6434738636016846, 0.3472810387611389, 1.5833693742752075, -1.3124092817306519, -0.18551108241081238, -0.94091796875, 0.05615234375, 0.318359375, 0, 
345, 464034411, -85.46837615966797, -71.49930572509766, -56.927459716796875, 9.517216682434082, -2.9480361938476562, 0.14587438106536865, 1.5518640279769897, -1.0135680437088013, 0.3210744261741638, -0.9404296875, 0.05908203125, 0.314453125, 0, 
346, 464042744, -85.46918487548828, -71.49736785888672, -56.92721176147461, 9.721158027648926, -3.4047791957855225, 0.09530819207429886, 1.5031200647354126, -1.0975569486618042, 0.22701895236968994, -0.939453125, 0.0546875, 0.31591796875, 0, 
347, 464051077, -85.45919036865234, -71.49806213378906, -56.937461853027344, 9.46181583404541, -3.556807279586792, 0.08559469878673553, 1.6225593090057373, -0.7299671769142151, -0.12137304991483688, -0.939453125, 0.05712890625, 0.3154296875, 0, 
348, 464059410, -85.45764923095703, -71.50118255615234, -56.937095642089844, 9.134941101074219, -3.1594395637512207, 0.36087143421173096, 1.8184572458267212, -1.1674585342407227, -0.3787193298339844, -0.93994140625, 0.05615234375, 0.3134765625, 0, 
349, 464067743, -85.45956420898438, -71.50263977050781, -56.93428039550781, 9.161284446716309, -2.665459632873535, 0.3235286772251129, 1.6783344745635986, -1.243135690689087, -0.17164099216461182, -0.93896484375, 0.0576171875, 0.3154296875, 0, 
350, 464076076, -85.46212768554688, -71.50141143798828, -56.93153381347656, 9.417219161987305, -2.878749370574951, 0.24986466765403748, 1.5695762634277344, -1.1976959705352783, 0.1517515331506729, -0.9375, 0.0576171875, 0.3154296875, 0, 
351, 464084409, -85.46595764160156, -71.49919891357422, -56.92890548706055, 9.726802825927734, -3.2835116386413574, 0.12320218235254288, 1.429133415222168, -1.2028446197509766, 0.26670822501182556, -0.939453125, 0.05712890625, 0.31689453125, 0, 
352, 464092742, -85.4573974609375, -71.497314453125, -56.93864822387695, 9.633790016174316, -3.539949893951416, 0.15856961905956268, 1.505707025527954, -0.7235124111175537, 0.18893058598041534, -0.93896484375, 0.05810546875, 0.30859375, 0, 
353, 464101075, -85.45661926269531, -71.49961853027344, -56.93952941894531, 9.173491477966309, -3.3971314430236816, 0.19842807948589325, 1.7647182941436768, -1.1622329950332642, -0.2775430679321289, -0.94189453125, 0.05712890625, 0.3173828125, 0, 
354, 464109408, -85.45258331298828, -71.50196075439453, -56.94212341308594, 9.076277732849121, -2.691382646560669, 0.4061497151851654, 1.7765777111053467, -1.0476094484329224, -0.29150280356407166, -0.9423828125, 0.05712890625, 0.31494140625, 0, 
355, 464117741, -85.45735168457031, -71.49959564208984, -56.93724822998047, 9.300588607788086, -2.6814165115356445, 0.3567916750907898, 1.5687183141708374, -1.2875378131866455, 0.29105454683303833, -0.94091796875, 0.0576171875, 0.31640625, 0, 
356, 464126074, -85.45988464355469, -71.49723815917969, -56.936702728271484, 9.592659950256348, -3.1876091957092285, 0.04576368257403374, 1.3500237464904785, -1.1103898286819458, 0.28155165910720825, -0.94091796875, 0.05810546875, 0.31494140625, 0, 
357, 464134407, -85.4576187133789, -71.494873046875, -56.94013977050781, 9.750711441040039, -3.4442577362060547, 0.1948508769273758, 1.4654544591903687, -0.9696012735366821, 0.26606786251068115, -0.94091796875, 0.05615234375, 0.31103515625, 0, 
358, 464142740, -85.45370483398438, -71.49597930908203, -56.94384002685547, 9.377084732055664, -3.51851487159729, 0.11025054007768631, 1.6404508352279663, -0.9814093112945557, -0.14951027929782867, -0.93896484375, 0.06005859375, 0.31494140625, 0, 
359, 464151073, -85.44682312011719, -71.49800872802734, -56.9487419128418, 9.03563404083252, -3.064460277557373, 0.40167129039764404, 1.841548204421997, -0.9395045042037964, -0.2664392590522766, -0.9404296875, 0.0556640625, 0.318359375, 0, 
360, 464159406, -85.45063781738281, -71.49775695800781, -56.942996978759766, 9.208704948425293, -2.614612340927124, 0.33565258979797363, 1.7840441465377808, -1.3390865325927734, 0.043121565133333206, -0.94091796875, 0.0576171875, 0.3173828125, 0, 
361, 464167739, -85.44905853271484, -71.49542999267578, -56.94614791870117, 9.503946304321289, -2.9424123764038086, 0.14071807265281677, 1.4178375005722046, -0.9807178378105164, 0.2646847069263458, -0.9404296875, 0.05810546875, 0.3173828125, 0, 
362, 464176072, -85.4529037475586, -71.49271392822266, -56.94403076171875, 9.596077919006348, -3.4728779792785645, 0.14102262258529663, 1.4411592483520508, -1.1944814920425415, 0.3308846652507782, -0.93994140625, 0.0576171875, 0.31591796875, 0, 
363, 464184405, -85.447509765625, -71.49259948730469, -56.95012664794922, 9.399609565734863, -3.526198387145996, 0.08213082700967789, 1.5427711009979248, -0.8892878890037537, -0.012743082828819752, -0.93994140625, 0.0576171875, 0.31396484375, 0, 
364, 464192738, -85.4463882446289, -71.49495697021484, -56.949764251708984, 9.20456314086914, -3.110631227493286, 0.3739275634288788, 1.689924716949463, -1.121993064880371, -0.28635433316230774, -0.94091796875, 0.0576171875, 0.3173828125, 0, 
365, 464201071, -85.44823455810547, -71.49634552001953, -56.946800231933594, 9.146714210510254, -2.7036890983581543, 0.37264785170555115, 1.6423332691192627, -1.2167145013809204, -0.16535267233848572, -0.94091796875, 0.05908203125, 0.31591796875, 0, 
366, 464209404, -85.4500961303711, -71.49398803710938, -56.94598388671875, 9.390524864196777, -2.9028923511505127, 0.23533353209495544, 1.457373023033142, -1.1325974464416504, 0.2792976498603821, -0.9404296875, 0.05859375, 0.30859375, 0, 
367, 464217737, -85.45479583740234, -71.49110412597656, -56.94218444824219, 9.691486358642578, -3.295924186706543, 0.07384216040372849, 1.4545557498931885, -1.2395881414413452, 0.3523494601249695, -0.94091796875, 0.05908203125, 0.31494140625, 0, 
368, 464226070, -85.4471206665039, -71.49095916748047, -56.955177307128906, 9.539610862731934, -3.520636558532715, 0.12045387178659439, 1.443298101425171, -0.7536220550537109, -0.017596980556845665, -0.939453125, 0.05908203125, 0.318359375, 0, 
369, 464234403, -85.4471664428711, -71.49437713623047, -56.95417404174805, 9.143929481506348, -3.3481364250183105, 0.28866735100746155, 1.7004905939102173, -1.19749116897583, -0.4122355282306671, -0.9384765625, 0.0556640625, 0.31591796875, 0, 
370, 464242736, -85.44242858886719, -71.49694061279297, -56.96074676513672, 9.099236488342285, -2.738253116607666, 0.34364908933639526, 1.687427282333374, -0.983048677444458, -0.3174884617328644, -0.93994140625, 0.05810546875, 0.31103515625, 0, 
371, 464251069, -85.44975280761719, -71.49578094482422, -56.95561599731445, 9.372314453125, -2.7508931159973145, 0.3654858469963074, 1.401098608970642, -1.3297500610351562, 0.14799903333187103, -0.9384765625, 0.0595703125, 0.31005859375, 0, 
372, 464259402, -85.4537582397461, -71.49259185791016, -56.95289611816406, 9.667336463928223, -3.2129085063934326, 0.026427581906318665, 1.413547158241272, -1.1943020820617676, 0.3859040439128876, -0.94287109375, 0.05859375, 0.3173828125, 0, 
373, 464267735, -85.45061492919922, -71.49134826660156, -56.957305908203125, 9.666901588439941, -3.5164802074432373, 0.1762314736843109, 1.4710510969161987, -0.9462026357650757, 0.12612448632717133, -0.9404296875, 0.05712890625, 0.310546875, 0, 
374, 464276068, -85.4493179321289, -71.49388885498047, -56.956539154052734, 9.20679759979248, -3.449462890625, 0.1841573864221573, 1.7536786794662476, -1.139513373374939, -0.3070506453514099, -0.93994140625, 0.05712890625, 0.31689453125, 0, 
375, 464284401, -85.4452133178711, -71.49697875976562, -56.9597282409668, 9.087798118591309, -2.8406355381011963, 0.3814900815486908, 1.7170116901397705, -1.0317927598953247, -0.38526371121406555, -0.9404296875, 0.05859375, 0.31494140625, 0, 
376, 464292734, -85.45286560058594, -71.49630737304688, -56.95277786254883, 9.240134239196777, -2.6563432216644287, 0.2880144417285919, 1.5820889472961426, -1.4082834720611572, 0.09917832165956497, -0.939453125, 0.05712890625, 0.31640625, 0, 
377, 464301067, -85.45559692382812, -71.49382019042969, -56.950950622558594, 9.567673683166504, -3.0911054611206055, 0.15591618418693542, 1.4781334400177002, -1.1581475734710693, 0.29870039224624634, -0.94091796875, 0.0595703125, 0.31005859375, 0, 
378, 464309400, -85.45883178710938, -71.49166870117188, -56.94764709472656, 9.773931503295898, -3.4372520446777344, 0.17071346938610077, 1.5713564157485962, -1.2279078960418701, 0.26187995076179504, -0.93994140625, 0.0576171875, 0.31640625, 0, 
379, 464317733, -85.45018768310547, -71.49251556396484, -56.95547866821289, 9.398606300354004, -3.5476980209350586, 0.07398810982704163, 1.7333407402038574, -0.8346526026725769, -0.12921100854873657, -0.9404296875, 0.05615234375, 0.3154296875, 0, 
380, 464326066, -85.44798278808594, -71.49559020996094, -56.95596694946289, 9.064743041992188, -3.119109869003296, 0.3680836260318756, 1.7624129056930542, -1.1086480617523193, -0.3790522515773773, -0.94140625, 0.05859375, 0.30712890625, 0, 
381, 464334399, -85.4503402709961, -71.49615478515625, -56.951927185058594, 9.167240142822266, -2.595296859741211, 0.39031070470809937, 1.7592111825942993, -1.2812368869781494, -0.05795220285654068, -0.94189453125, 0.056640625, 0.3115234375, 0, 
382, 464342732, -85.45062255859375, -71.49330139160156, -56.9570198059082, 9.445531845092773, -2.896493911743164, 0.19616426527500153, 1.4756360054016113, -1.0599042177200317, 0.33326682448387146, -0.943359375, 0.05859375, 0.30517578125, 0, 
383, 464351065, -85.45643615722656, -71.49097442626953, -56.952327728271484, 9.689169883728027, -3.3959927558898926, 0.05170406028628349, 1.5165290832519531, -1.2968742847442627, 0.288301020860672, -0.94140625, 0.0576171875, 0.31201171875, 0, 
384, 464359398, -85.44927215576172, -71.49107360839844, -56.96006774902344, 9.583104133605957, -3.511298656463623, 0.1283448189496994, 1.5678216218948364, -0.8316813707351685, -0.039279427379369736, -0.9443359375, 0.05859375, 0.3076171875, 0, 
385, 464367731, -85.44847869873047, -71.49324035644531, -56.959808349609375, 9.186009407043457, -3.281198024749756, 0.2856837809085846, 1.708930253982544, -1.1529351472854614, -0.26366010308265686, -0.94091796875, 0.056640625, 0.31103515625, 0, 
386, 464376064, -85.44745635986328, -71.4963607788086, -56.95843505859375, 9.090096473693848, -2.758296489715576, 0.36341121792793274, 1.784697413444519, -1.166613221168518, -0.3750564455986023, -0.94189453125, 0.0576171875, 0.3125, 0, 
387, 464384397, -85.45284271240234, -71.49552154541016, -56.95318603515625, 9.413910865783691, -2.7360754013061523, 0.25446417927742004, 1.5402480363845825, -1.3153678178787231, 0.10871963202953339, -0.94140625, 0.05859375, 0.31396484375, 0, 
388, 464392730, -85.45562744140625, -71.49317169189453, -56.95252990722656, 9.675554275512695, -3.217691421508789, 0.05304459482431412, 1.395668387413025, -1.1348001956939697, 0.2820639908313751, -0.94140625, 0.056640625, 0.3115234375, 0, 
389, 464401063, -85.45106506347656, -71.4917984008789, -56.95940017700195, 9.610986709594727, -3.5813424587249756, 0.15844617784023285, 1.5882618427276611, -0.9139286279678345, 0.14226144552230835, -0.93994140625, 0.0576171875, 0.3056640625, 0, 
390, 464409396, -85.45074462890625, -71.49335479736328, -56.95912551879883, 9.24376106262207, -3.421473264694214, 0.16461768746376038, 1.6508375406265259, -1.1478122472763062, -0.18999359011650085, -0.94287109375, 0.0576171875, 0.31396484375, 0, 
391, 464417729, -85.44662475585938, -71.49559020996094, -56.96270751953125, 9.128689765930176, -2.786351203918457, 0.3893893361091614, 1.675913691520691, -1.008880615234375, -0.2833062708377838, -0.94091796875, 0.0576171875, 0.30712890625, 0, 
392, 464426062, -85.45381927490234, -71.49527740478516, -56.95668029785156, 9.244512557983398, -2.745405912399292, 0.35018011927604675, 1.4473066329956055, -1.3476033210754395, 0.04935862869024277, -0.9423828125, 0.05712890625, 0.3134765625, 0, 
393, 464434395, -85.4561996459961, -71.492431640625, -56.9549674987793, 9.609209060668945, -3.1317522525787354, 0.0920712798833847, 1.498099684715271, -1.16213059425354, 0.33943983912467957, -0.94189453125, 0.05615234375, 0.3125, 0, 
394, 464442728, -85.4544448852539, -71.49037170410156, -56.95759201049805, 9.806675910949707, -3.4135398864746094, 0.1799875646829605, 1.5498276948928833, -1.0090471506118774, 0.23479287326335907, -0.94091796875, 0.060546875, 0.314453125, 0, 
395, 464451061, -85.44541931152344, -71.49140930175781, -56.96625900268555, 9.3440580368042, -3.5343635082244873, 0.10943932086229324, 1.6294111013412476, -0.7748305797576904, -0.15176433324813843, -0.93994140625, 0.056640625, 0.3134765625, 0, 
396, 464459394, -85.44036865234375, -71.49446868896484, -56.969810485839844, 9.037443161010742, -3.0945522785186768, 0.39371028542518616, 1.7949429750442505, -1.0192288160324097, -0.3860193192958832, -0.94384765625, 0.0576171875, 0.310546875, 0, 
397, 464467727, -85.44528198242188, -71.49534606933594, -56.963775634765625, 9.169427871704102, -2.5603508949279785, 0.2919522523880005, 1.6818305253982544, -1.3587455749511719, -0.09158369153738022, -0.94140625, 0.0595703125, 0.3154296875, 0, 
398, 464476060, -85.44464111328125, -71.49268341064453, -56.96675109863281, 9.517696380615234, -2.8448634147644043, 0.20549170672893524, 1.4696424007415771, -1.0223026275634766, 0.309368759393692, -0.93896484375, 0.05859375, 0.3134765625, 0, 
399, 464484393, -85.44815826416016, -71.4895248413086, -56.96343231201172, 9.700986862182617, -3.399010419845581, 0.1022290512919426, 1.542668342590332, -1.2184562683105469, 0.38554543256759644, -0.9423828125, 0.05712890625, 0.3115234375, 0, 
400, 464492726, -85.4422836303711, -71.48896789550781, -56.969112396240234, 9.494951248168945, -3.596895933151245, 0.11462026834487915, 1.6443825960159302, -0.8902099132537842, 0.041341375559568405, -0.943359375, 0.05859375, 0.314453125, 0, 
401, 464501059, -85.44090270996094, -71.49169921875, -56.97024154663086, 9.14008903503418, -3.2166199684143066, 0.28115057945251465, 1.6299748420715332, -1.0957515239715576, -0.3357258141040802, -0.94189453125, 0.05908203125, 0.3125, 0, 
402, 464509392, -85.43895721435547, -71.49317169189453, -56.97085189819336, 9.096022605895996, -2.6599769592285156, 0.38761869072914124, 1.7507842779159546, -1.1121445894241333, -0.18485794961452484, -0.94287109375, 0.05712890625, 0.30810546875, 0, 
403, 464517725, -85.44135284423828, -71.49177551269531, -56.96957778930664, 9.320415496826172, -2.8228960037231445, 0.26368966698646545, 1.449509620666504, -1.1616438627243042, 0.16285531222820282, -0.94140625, 0.0576171875, 0.31201171875, 0, 
404, 464526058, -85.444580078125, -71.48834228515625, -56.96879196166992, 9.637012481689453, -3.284686326980591, 0.06145618110895157, 1.4427473545074463, -1.1571871042251587, 0.42009904980659485, -0.943359375, 0.06005859375, 0.3125, 0, 
405, 464534391, -85.43917846679688, -71.48698425292969, -56.975433349609375, 9.658288955688477, -3.4851980209350586, 0.17354828119277954, 1.4791451692581177, -0.8591910600662231, 0.13575543463230133, -0.94287109375, 0.05615234375, 0.31396484375, 0, 
406, 464542724, -85.43502044677734, -71.48959350585938, -56.979496002197266, 9.21131420135498, -3.470541000366211, 0.1496087908744812, 1.6465084552764893, -0.9870573282241821, -0.329719215631485, -0.94091796875, 0.05908203125, 0.3134765625, 0, 
407, 464551057, -85.43114471435547, -71.49280548095703, -56.9818000793457, 9.069817543029785, -2.871321678161621, 0.4035209119319916, 1.8075965642929077, -1.0618252754211426, -0.393754780292511, -0.9423828125, 0.0576171875, 0.31494140625, 0, 
408, 464559390, -85.43658447265625, -71.49296569824219, -56.97632598876953, 9.31903076171875, -2.5837340354919434, 0.36247026920318604, 1.56187903881073, -1.3338741064071655, -0.01187219750136137, -0.94140625, 0.05615234375, 0.31494140625, 0, 
409, 464567723, -85.43538665771484, -71.49037170410156, -56.979103088378906, 9.586429595947266, -3.0873541831970215, 0.017583582550287247, 1.4160189628601074, -0.9922698140144348, 0.29465335607528687, -0.94287109375, 0.05810546875, 0.3125, 0, 
410, 464576056, -85.43450164794922, -71.48847961425781, -56.98102951049805, 9.670801162719727, -3.5141098499298096, 0.18309292197227478, 1.4901593923568726, -1.0253506898880005, 0.2171574980020523, -0.94091796875, 0.05859375, 0.31396484375, 0, 
411, 464584389, -85.4291763305664, -71.49037170410156, -56.986297607421875, 9.323278427124023, -3.4699769020080566, 0.13440515100955963, 1.6296542882919312, -0.9407210946083069, -0.24931615591049194, -0.94189453125, 0.05615234375, 0.314453125, 0, 
412, 464592722, -85.42472839355469, -71.49402618408203, -56.990440368652344, 9.092236518859863, -3.0230600833892822, 0.33941683173179626, 1.64556086063385, -0.9866475462913513, -0.4492352604866028, -0.94091796875, 0.05908203125, 0.3134765625, 0, 
413, 464601055, -85.42969512939453, -71.49454498291016, -56.98353958129883, 9.195507049560547, -2.707807779312134, 0.32804054021835327, 1.7581610679626465, -1.3718856573104858, -0.0518047921359539, -0.94189453125, 0.05712890625, 0.3134765625, 0, 
414, 464609388, -85.42903137207031, -71.49214935302734, -56.98489761352539, 9.542339324951172, -2.9647271633148193, 0.16600438952445984, 1.5154919624328613, -1.0473276376724243, 0.2761727273464203, -0.9404296875, 0.0595703125, 0.3154296875, 0, 
415, 464617721, -85.42994689941406, -71.49031829833984, -56.98612594604492, 9.747036933898926, -3.428314208984375, 0.14444731175899506, 1.3356670141220093, -1.0595327615737915, 0.20953722298145294, -0.94140625, 0.05810546875, 0.3134765625, 0, 
416, 464626054, -85.42180633544922, -71.49105072021484, -56.99423599243164, 9.46930980682373, -3.5594804286956787, 0.06411722302436829, 1.5731751918792725, -0.7867284417152405, -0.11786390841007233, -0.943359375, 0.05810546875, 0.31396484375, 0, 
417, 464634387, -85.42056274414062, -71.49500274658203, -56.99387741088867, 9.123870849609375, -3.171440839767456, 0.31967365741729736, 1.7768850326538086, -1.1753729581832886, -0.47705233097076416, -0.943359375, 0.0576171875, 0.3134765625, 0, 
418, 464642720, -85.42200469970703, -71.49723052978516, -56.99089813232422, 9.115493774414062, -2.656435251235962, 0.326020210981369, 1.7615677118301392, -1.2450183629989624, -0.26460784673690796, -0.94189453125, 0.05859375, 0.3076171875, 0, 
419, 464651053, -85.42811584472656, -71.4957275390625, -56.98357391357422, 9.334397315979004, -2.864314079284668, 0.27281883358955383, 1.4904409646987915, -1.3092588186264038, 0.19320815801620483, -0.93994140625, 0.056640625, 0.31396484375, 0, 
420, 464659386, -85.43334197998047, -71.49317932128906, -56.97929763793945, 9.726611137390137, -3.22898530960083, 0.026169558987021446, 1.4525831937789917, -1.261565089225769, 0.3087283968925476, -0.93994140625, 0.056640625, 0.314453125, 0, 
421, 464667719, -85.42957305908203, -71.49266052246094, -56.98412322998047, 9.700729370117188, -3.479172706604004, 0.17909973859786987, 1.488161325454712, -0.9341638088226318, 0.04513227939605713, -0.94140625, 0.05859375, 0.314453125, 0, 
422, 464676052, -85.42930603027344, -71.49441528320312, -56.9837760925293, 9.187442779541016, -3.4988651275634766, 0.1881677657365799, 1.6759138107299805, -1.1480172872543335, -0.2175544947385788, -0.9404296875, 0.05859375, 0.3134765625, 0, 
423, 464684385, -85.42410278320312, -71.49728393554688, -56.987762451171875, 9.071121215820312, -2.836771011352539, 0.37522831559181213, 1.7591087818145752, -1.0004279613494873, -0.36235174536705017, -0.94189453125, 0.05712890625, 0.3134765625, 0, 
424, 464692718, -85.43302154541016, -71.4975357055664, -56.97868347167969, 9.332813262939453, -2.608205795288086, 0.3106882870197296, 1.5467156171798706, -1.457129955291748, 0.0009733409387990832, -0.939453125, 0.056640625, 0.31591796875, 0, 
425, 464701051, -85.43373107910156, -71.4954605102539, -56.97922134399414, 9.563080787658691, -3.101306915283203, 0.05929113179445267, 1.4578853845596313, -1.0749142169952393, 0.23949308693408966, -0.93798828125, 0.05810546875, 0.31591796875, 0, 
426, 464709384, -85.43280029296875, -71.49346160888672, -56.98122787475586, 9.657095909118652, -3.5445995330810547, 0.1757039725780487, 1.4691812992095947, -1.0280400514602661, 0.22837650775909424, -0.94140625, 0.056640625, 0.31787109375, 0, 
427, 464717717, -85.42948150634766, -71.49591064453125, -56.98373794555664, 9.357765197753906, -3.5107779502868652, 0.13904638588428497, 1.6939717531204224, -1.0498889684677124, -0.30331096053123474, -0.939453125, 0.0576171875, 0.31640625, 0, 
428, 464726050, -85.4268798828125, -71.49929809570312, -56.983642578125, 9.13726806640625, -2.927626371383667, 0.37140777707099915, 1.772300124168396, -1.099094033241272, -0.4159879684448242, -0.93798828125, 0.0546875, 0.31640625, 0, 
429, 464734383, -85.4293441772461, -71.49956512451172, -56.9813117980957, 9.190969467163086, -2.6648170948028564, 0.2841931879520416, 1.5529781579971313, -1.2141915559768677, -0.0294563677161932, -0.94140625, 0.0576171875, 0.31640625, 0, 
430, 464742716, -85.42925262451172, -71.49673461914062, -56.98324966430664, 9.481246948242188, -3.0240061283111572, 0.13880178332328796, 1.5314496755599976, -1.0611851215362549, 0.3303980529308319, -0.94140625, 0.05712890625, 0.318359375, 0, 
431, 464751049, -85.43360900878906, -71.49424743652344, -56.97760772705078, 9.75389289855957, -3.3663382530212402, 0.14437335729599, 1.5053741931915283, -1.234747052192688, 0.30281147360801697, -0.94140625, 0.056640625, 0.3154296875, 0, 
432, 464759382, -85.42768859863281, -71.49493408203125, -56.9839973449707, 9.458959579467773, -3.492419958114624, 0.05486568063497543, 1.575646996498108, -0.8878662586212158, -0.11088403314352036, -0.93896484375, 0.05712890625, 0.31103515625, 0, 
433, 464767715, -85.42465209960938, -71.4981918334961, -56.9865608215332, 9.100198745727539, -3.206972360610962, 0.25498294830322266, 1.6575868129730225, -1.0563567876815796, -0.3990441858768463, -0.9384765625, 0.05615234375, 0.3154296875, 0, 
434, 464776048, -85.42840576171875, -71.50019836425781, -56.981876373291016, 9.121865272521973, -2.6589243412017822, 0.40270867943763733, 1.7571364641189575, -1.3368710279464722, -0.22675001621246338, -0.939453125, 0.05810546875, 0.318359375, 0, 
435, 464784381, -85.42908477783203, -71.49851989746094, -56.98257064819336, 9.47722339630127, -2.799962043762207, 0.2798868715763092, 1.4351656436920166, -1.0836741924285889, 0.1894172579050064, -0.93896484375, 0.05859375, 0.3173828125, 0, 
436, 464792714, -85.43252563476562, -71.4948501586914, -56.980804443359375, 9.68259334564209, -3.3459041118621826, 0.04863172397017479, 1.3935167789459229, -1.1482220888137817, 0.4400269389152527, -0.9384765625, 0.056640625, 0.31689453125, 0, 
437, 464801047, -85.42341613769531, -71.49369049072266, -56.989891052246094, 9.558185577392578, -3.578881025314331, 0.14317046105861664, 1.5583957433700562, -0.7249213457107544, 0.103814497590065, -0.93994140625, 0.05859375, 0.31787109375, 0, 
438, 464809380, -85.4264907836914, -71.49610137939453, -56.985267639160156, 9.18657112121582, -3.3564224243164062, 0.2766006886959076, 1.7448928356170654, -1.3217841386795044, -0.2800276279449463, -0.9404296875, 0.0576171875, 0.310546875, 0, 
439, 464817713, -85.41988372802734, -71.49847412109375, -56.990638732910156, 9.085315704345703, -2.7417805194854736, 0.29270845651626587, 1.7637449502944946, -0.9405930638313293, -0.30185091495513916, -0.93994140625, 0.0576171875, 0.30908203125, 0, 
440, 464826046, -85.42523956298828, -71.49800109863281, -56.98432540893555, 9.288119316101074, -2.7931594848632812, 0.27467140555381775, 1.5817430019378662, -1.3188512325286865, 0.06579015403985977, -0.9384765625, 0.05859375, 0.31201171875, 0, 
441, 464834379, -85.42652130126953, -71.49578094482422, -56.984127044677734, 9.635734558105469, -3.1819565296173096, 0.07869965583086014, 1.4572066068649292, -1.1100952625274658, 0.2600741386413574, -0.9404296875, 0.05615234375, 0.31640625, 0, 
442, 464842712, -85.42430114746094, -71.49394989013672, -56.986671447753906, 9.73922348022461, -3.457573890686035, 0.1760079264640808, 1.5320513248443604, -0.9852258563041687, 0.20556701719760895, -0.94091796875, 0.05712890625, 0.31640625, 0, 
443, 464851045, -85.41897583007812, -71.496337890625, -56.99160385131836, 9.26622486114502, -3.49897837638855, 0.11584527045488358, 1.6015044450759888, -0.924763560295105, -0.3103804886341095, -0.9384765625, 0.05859375, 0.31640625, 0, 
444, 464859378, -85.41119384765625, -71.49948120117188, -56.997623443603516, 9.078742980957031, -2.920949935913086, 0.369182288646698, 1.8357208967208862, -0.9244818091392517, -0.39626502990722656, -0.9423828125, 0.05712890625, 0.31640625, 0, 
445, 464867711, -85.41668701171875, -71.49976348876953, -56.991661071777344, 9.21838092803955, -2.5884788036346436, 0.3342832922935486, 1.6093679666519165, -1.353520154953003, -0.02414141595363617, -0.939453125, 0.05712890625, 0.31884765625, 0, 
446, 464876044, -85.41473388671875, -71.49677276611328, -56.9937744140625, 9.516351699829102, -3.0409932136535645, 0.10170101374387741, 1.5434625148773193, -0.9895931482315063, 0.34643250703811646, -0.93798828125, 0.05810546875, 0.3154296875, 0, 
447, 464884377, -85.41656494140625, -71.49382019042969, -56.9920654296875, 9.711594581604004, -3.422262668609619, 0.11079789698123932, 1.5600862503051758, -1.1599023342132568, 0.3540143668651581, -0.94287109375, 0.0595703125, 0.31591796875, 0, 
448, 464892710, -85.40746307373047, -71.49418640136719, -57.002071380615234, 9.418899536132812, -3.5158157348632812, 0.11007516086101532, 1.4463332891464233, -0.7008182406425476, -0.07818745076656342, -0.939453125, 0.05712890625, 0.3095703125, 0, 
449, 464901043, -85.40360260009766, -71.4974136352539, -57.00514221191406, 9.07301139831543, -3.19450044631958, 0.400371253490448, 1.8111183643341064, -1.0616077184677124, -0.3971487283706665, -0.9404296875, 0.056640625, 0.31591796875, 0, 
450, 464909376, -85.4084243774414, -71.49933624267578, -56.999351501464844, 9.171143531799316, -2.6649746894836426, 0.3285505175590515, 1.6698817014694214, -1.3611916303634644, -0.220384880900383, -0.93994140625, 0.0576171875, 0.3173828125, 0, 
451, 464917709, -85.412109375, -71.49816131591797, -56.99671173095703, 9.490554809570312, -2.8792941570281982, 0.2171589583158493, 1.4481136798858643, -1.2123730182647705, 0.1414802372455597, -0.939453125, 0.0576171875, 0.31591796875, 0, 
452, 464926042, -85.4148941040039, -71.49504089355469, -56.99287796020508, 9.679192543029785, -3.4114596843719482, 0.10362815111875534, 1.4965629577636719, -1.1622843742370605, 0.3762475252151489, -0.9404296875, 0.05810546875, 0.31640625, 0, 
453, 464934375, -85.4068374633789, -71.49552154541016, -57.00149154663086, 9.53355598449707, -3.5359878540039062, 0.11069784313440323, 1.5736618041992188, -0.8007650971412659, -0.08943210542201996, -0.94091796875, 0.05712890625, 0.31201171875, 0, 
454, 464942708, -85.40784454345703, -71.49950408935547, -56.9997444152832, 9.181392669677734, -3.241727113723755, 0.240081787109375, 1.6682934761047363, -1.2155234813690186, -0.4756050705909729, -0.9404296875, 0.056640625, 0.31640625, 0, 
455, 464951041, -85.40577697753906, -71.50116729736328, -57.00117874145508, 9.088252067565918, -2.6983885765075684, 0.4164193272590637, 1.707073450088501, -1.0835076570510864, -0.2075009047985077, -0.9404296875, 0.05712890625, 0.3125, 0, 
456, 464959374, -85.41216278076172, -71.50074768066406, -56.99446487426758, 9.35408878326416, -2.7961642742156982, 0.3035774827003479, 1.5858796834945679, -1.3748055696487427, 0.06365137547254562, -0.9384765625, 0.05712890625, 0.318359375, 0, 
457, 464967707, -85.41771697998047, -71.4977798461914, -56.98973846435547, 9.680218696594238, -3.2508676052093506, 0.07286243885755539, 1.4532108306884766, -1.2715673446655273, 0.3671160042285919, -0.93896484375, 0.0576171875, 0.31787109375, 0, 
458, 464976040, -85.41121673583984, -71.49638366699219, -56.997413635253906, 9.727668762207031, -3.508880376815796, 0.20003558695316315, 1.5593689680099487, -0.8274294137954712, 0.1356273740530014, -0.94091796875, 0.05810546875, 0.3173828125, 0, 
459, 464984373, -85.41047668457031, -71.49838256835938, -56.99637222290039, 9.230734825134277, -3.4707095623016357, 0.1730608344078064, 1.7948405742645264, -1.1812388896942139, -0.24055609107017517, -0.9404296875, 0.05859375, 0.318359375, 0, 
460, 464992706, -85.40505981445312, -71.50064849853516, -56.998069763183594, 9.069363594055176, -2.8452391624450684, 0.35188162326812744, 1.8167152404785156, -0.9935890436172485, -0.28794243931770325, -0.93994140625, 0.05712890625, 0.31103515625, 0, 
461, 465001039, -85.41575622558594, -71.50105285644531, -56.988765716552734, 9.249712944030762, -2.610240936279297, 0.39015674591064453, 1.5378786325454712, -1.5267235040664673, -0.018839269876480103, -0.93994140625, 0.05859375, 0.3125, 0, 
462, 465009372, -85.41497039794922, -71.49848937988281, -56.99065399169922, 9.590620994567871, -3.0597407817840576, 0.06505873054265976, 1.4647499322891235, -1.0265800952911377, 0.29481980204582214, -0.9404296875, 0.056640625, 0.31787109375, 0, 
463, 465017705, -85.41541290283203, -71.4954833984375, -56.99083709716797, 9.743261337280273, -3.5202465057373047, 0.13661815226078033, 1.517028570175171, -1.0762205123901367, 0.3587273955345154, -0.94091796875, 0.05712890625, 0.3154296875, 0, 
464, 465026038, -85.40692901611328, -71.49678802490234, -56.99922180175781, 9.404911994934082, -3.5530803203582764, 0.1085701733827591, 1.6528096199035645, -0.8182339072227478, -0.18635636568069458, -0.93798828125, 0.0576171875, 0.3154296875, 0, 
465, 465034371, -85.4038314819336, -71.5007553100586, -57.0007438659668, 9.138296127319336, -2.9836461544036865, 0.40321406722068787, 1.7839032411575317, -1.1029103994369507, -0.48486462235450745, -0.93798828125, 0.05859375, 0.31103515625, 0, 
466, 465042704, -85.4081802368164, -71.50208282470703, -56.995914459228516, 9.148282051086426, -2.613011598587036, 0.2895048260688782, 1.5948446989059448, -1.2989106178283691, -0.1534164547920227, -0.9384765625, 0.05810546875, 0.31689453125, 0, 
467, 465051037, -85.40840148925781, -71.50039672851562, -56.99635314941406, 9.445541381835938, -2.935281753540039, 0.17267903685569763, 1.5122132301330566, -1.0916658639907837, 0.19466818869113922, -0.93896484375, 0.05712890625, 0.3134765625, 0, 
468, 465059370, -85.4101791381836, -71.49794006347656, -56.99510955810547, 9.732975006103516, -3.311161994934082, 0.11031980067491531, 1.478632926940918, -1.1222748756408691, 0.2923097014427185, -0.93994140625, 0.05810546875, 0.31591796875, 0, 
469, 465067703, -85.4017105102539, -71.49689483642578, -57.004634857177734, 9.532403945922852, -3.5272562503814697, 0.11566537618637085, 1.5208451747894287, -0.7383430600166321, 0.08918876200914383, -0.9384765625, 0.0576171875, 0.310546875, 0, 
470, 465076036, -85.40260314941406, -71.49920654296875, -57.002845764160156, 9.129470825195312, -3.307145833969116, 0.23321105539798737, 1.6824452877044678, -1.2118990421295166, -0.2744693160057068, -0.9404296875, 0.0576171875, 0.31689453125, 0, 
471, 465084369, -85.39960479736328, -71.5009994506836, -57.00362777709961, 9.139671325683594, -2.6435346603393555, 0.4073930084705353, 1.8550597429275513, -1.1102617979049683, -0.2227797955274582, -0.93994140625, 0.0595703125, 0.31640625, 0, 
472, 465092702, -85.40562438964844, -71.49950408935547, -56.996665954589844, 9.395108222961426, -2.7616052627563477, 0.2864222526550293, 1.4801955223083496, -1.300268292427063, 0.19021131098270416, -0.9384765625, 0.05859375, 0.3173828125, 0, 
473, 465101035, -85.40879821777344, -71.49681091308594, -56.994224548339844, 9.62336254119873, -3.2925467491149902, 0.018703116104006767, 1.481911540031433, -1.1894866228103638, 0.3266327381134033, -0.94091796875, 0.05615234375, 0.31689453125, 0, 
474, 465109368, -85.40352630615234, -71.49443817138672, -56.99942398071289, 9.612581253051758, -3.496875047683716, 0.11567515879869461, 1.4795806407928467, -0.8395450115203857, 0.2543237805366516, -0.939453125, 0.0576171875, 0.3173828125, 0, 
475, 465117701, -85.40263366699219, -71.49675750732422, -56.99997329711914, 9.189151763916016, -3.372856855392456, 0.23892630636692047, 1.6459962129592896, -1.118278980255127, -0.2814876139163971, -0.93994140625, 0.05859375, 0.3154296875, 0, 
476, 465126034, -85.39926147460938, -71.49944305419922, -57.002174377441406, 9.030609130859375, -2.8317623138427734, 0.39199763536453247, 1.7379260063171387, -1.063900113105774, -0.3342529833316803, -0.94189453125, 0.05810546875, 0.314453125, 0, 
477, 465134367, -85.40303039550781, -71.49860382080078, -56.998680114746094, 9.329888343811035, -2.6873817443847656, 0.32083573937416077, 1.5356885194778442, -1.2484890222549438, 0.10508239269256592, -0.94140625, 0.05810546875, 0.3076171875, 0, 
478, 465142700, -85.40323638916016, -71.49527740478516, -56.99988555908203, 9.657136917114258, -3.140190362930298, 0.04887327551841736, 1.442542314529419, -1.0398483276367188, 0.3898230195045471, -0.943359375, 0.056640625, 0.31201171875, 0, 
479, 465151033, -85.40009307861328, -71.49398803710938, -57.0029296875, 9.702189445495605, -3.526390790939331, 0.18085886538028717, 1.619293451309204, -0.9940371513366699, 0.13753563165664673, -0.94189453125, 0.05859375, 0.3115234375, 0, 
480, 465159366, -85.3992919921875, -71.49581909179688, -57.00423812866211, 9.285242080688477, -3.473531484603882, 0.09699320048093796, 1.540939450263977, -1.0830979347229004, -0.22381716966629028, -0.94140625, 0.05810546875, 0.3076171875, 0, 
481, 465167699, -85.39356994628906, -71.49845886230469, -57.00840759277344, 9.038104057312012, -2.949841260910034, 0.36158066987991333, 1.769277572631836, -0.9675905704498291, -0.3305644989013672, -0.94189453125, 0.0576171875, 0.314453125, 0, 
482, 465176032, -85.4006118774414, -71.49915313720703, -57.002105712890625, 9.154245376586914, -2.6622302532196045, 0.37720608711242676, 1.4573473930358887, -1.3697338104248047, -0.0707337036728859, -0.94091796875, 0.05908203125, 0.3076171875, 0, 
483, 465184365, -85.40247344970703, -71.49679565429688, -57.00204086303711, 9.523016929626465, -3.008512020111084, 0.15323515236377716, 1.3711812496185303, -1.101245641708374, 0.27568599581718445, -0.93994140625, 0.05908203125, 0.31298828125, 0, 
484, 465192698, -85.4089584350586, -71.49407958984375, -56.99995803833008, 9.788866996765137, -3.434687852859497, 0.12979555130004883, 1.3609610795974731, -1.266764760017395, 0.3357001543045044, -0.94384765625, 0.0576171875, 0.31298828125, 0, 
485, 465201031, -85.39881134033203, -71.4946060180664, -57.01018524169922, 9.485806465148926, -3.5665621757507324, 0.1169799193739891, 1.6402076482772827, -0.7402130365371704, -0.10149641335010529, -0.94140625, 0.05712890625, 0.3154296875, 0, 
486, 465209364, -85.39786529541016, -71.4980239868164, -57.008575439453125, 9.08878231048584, -3.24509859085083, 0.346445232629776, 1.8322374820709229, -1.1887438297271729, -0.40848302841186523, -0.94140625, 0.0576171875, 0.30908203125, 0, 
487, 465217697, -85.39788818359375, -71.5000228881836, -57.00553512573242, 9.08732795715332, -2.6727941036224365, 0.3218213617801666, 1.7792928218841553, -1.1917662620544434, -0.24227222800254822, -0.93994140625, 0.056640625, 0.30810546875, 0, 
488, 465226030, -85.40357971191406, -71.49901580810547, -57.00111389160156, 9.42018985748291, -2.784870147705078, 0.30156031250953674, 1.4065032005310059, -1.2821333408355713, 0.12971048057079315, -0.94189453125, 0.05859375, 0.30859375, 0, 
489, 465234363, -85.40907287597656, -71.49673461914062, -56.99740982055664, 9.671466827392578, -3.310516119003296, 0.05717241391539574, 1.3535587787628174, -1.2423288822174072, 0.27673622965812683, -0.9423828125, 0.0576171875, 0.3076171875, 0, 
