sep=,
PacketCounter,SampleTimeFine,Euler_X,Euler_Y,Euler_Z,Acc_X,Acc_Y,Acc_Z,Gyr_X,Gyr_Y,Gyr_Z,
0, 461159526, -80.76158142089844, -74.39872741699219, -43.42918014526367, 0, 0, 0, 0, 0, 0, 
1, 461167859, -80.7538833618164, -74.39913177490234, -43.43914031982422, 9.747702598571777, -2.8615524768829346, 0.41301578283309937, 2.142092704772949, 0.6640490889549255, 1.1303561925888062, 
2, 461176192, -80.748291015625, -74.40241241455078, -43.444217681884766, 9.327911376953125, -2.777022123336792, 0.4837301969528198, 2.214888572692871, 0.5266543626785278, 0.8058751821517944, 
3, 461184525, -80.74710083007812, -74.40531158447266, -43.444602966308594, 9.221319198608398, -2.411532163619995, 0.4086953103542328, 2.2572033405303955, 0.3679485023021698, 0.8723697066307068, 
4, 461192858, -80.75423431396484, -74.40497589111328, -43.43625259399414, 9.442244529724121, -2.2980637550354004, 0.5852843523025513, 2.2358410358428955, 0.17023220658302307, 1.3054039478302002, 
5, 461201191, -80.7549819946289, -74.40180206298828, -43.43532180786133, 9.823568344116211, -2.6779041290283203, 0.26405611634254456, 2.080336809158325, 0.4704822599887848, 1.5984562635421753, 
6, 461209524, -80.75301361083984, -74.40003204345703, -43.43766403198242, 9.801302909851074, -2.816715955734253, 0.4640384018421173, 2.095782518386841, 0.5381551384925842, 1.4183626174926758, 
7, 461217857, -80.74336242675781, -74.4013442993164, -43.449066162109375, 9.450791358947754, -2.8726019859313965, 0.2837353050708771, 2.182332992553711, 0.6996015906333923, 1.014784812927246, 
8, 461226190, -80.74268341064453, -74.40446472167969, -43.44857406616211, 9.181593894958496, -2.410306215286255, 0.5097556114196777, 2.269472360610962, 0.35324588418006897, 0.8537735342979431, 
9, 461234523, -80.74934387207031, -74.40421295166016, -43.44081497192383, 9.302679061889648, -2.320193290710449, 0.5475192070007324, 2.0947062969207764, 0.21487781405448914, 1.281326413154602, 
10, 461242856, -80.75663757324219, -74.40089416503906, -43.43461990356445, 9.733482360839844, -2.6017987728118896, 0.3434635102748871, 1.9628443717956543, 0.2966896891593933, 1.647558569908142, 
11, 461251189, -80.75570678710938, -74.3968734741211, -43.43708801269531, 9.900290489196777, -2.8102755546569824, 0.517322838306427, 2.0415310859680176, 0.5546506643295288, 1.681702733039856, 
12, 461259522, -80.74995422363281, -74.39775848388672, -43.44369125366211, 9.638019561767578, -2.95727276802063, 0.2465059459209442, 2.056387424468994, 0.6223490834236145, 1.080869436264038, 
13, 461267855, -80.74346923828125, -74.40129089355469, -43.44949722290039, 9.210711479187012, -2.545795440673828, 0.6459492444992065, 2.289989471435547, 0.5210191011428833, 0.7722436189651489, 
14, 461276188, -80.7444076538086, -74.40287017822266, -43.447914123535156, 9.246402740478516, -2.3007092475891113, 0.33782005310058594, 2.1945250034332275, 0.34976235032081604, 1.0436519384384155, 
15, 461284521, -80.74822235107422, -74.40045166015625, -43.445369720458984, 9.520240783691406, -2.410278558731079, 0.5604972243309021, 1.968889594078064, 0.38536620140075684, 1.5209990739822388, 
16, 461292854, -80.7517318725586, -74.3971939086914, -43.44343948364258, 9.888320922851562, -2.7803657054901123, 0.36985448002815247, 1.9341309070587158, 0.42880794405937195, 1.6153106689453125, 
17, 461301187, -80.74825286865234, -74.39696502685547, -43.44632339477539, 9.793221473693848, -2.9139177799224854, 0.3768218457698822, 2.1382765769958496, 0.5383087992668152, 1.2306104898452759, 
18, 461309520, -80.7414321899414, -74.39932250976562, -43.45188522338867, 9.312529563903809, -2.8019819259643555, 0.4660918414592743, 2.30238676071167, 0.5602858066558838, 0.9103043675422668, 
19, 461317853, -80.74304962158203, -74.40260314941406, -43.448368072509766, 9.227272033691406, -2.322744846343994, 0.4209592640399933, 2.312709331512451, 0.2544005811214447, 0.8513660430908203, 
20, 461326186, -80.75062561035156, -74.40113067626953, -43.441463470458984, 9.378421783447266, -2.261740207672119, 0.5740850567817688, 2.029953718185425, 0.23413974046707153, 1.4232805967330933, 
21, 461334519, -80.75402069091797, -74.39793395996094, -43.43970489501953, 9.731521606445312, -2.7061350345611572, 0.22657987475395203, 1.9875110387802124, 0.41113409399986267, 1.6146190166473389, 
22, 461342852, -80.75308990478516, -74.39657592773438, -43.44091033935547, 9.849594116210938, -2.7955591678619385, 0.5434149503707886, 2.106694221496582, 0.4925617575645447, 1.3676719665527344, 
23, 461351185, -80.74708557128906, -74.39827728271484, -43.448184967041016, 9.525736808776855, -2.9391937255859375, 0.233565554022789, 2.144423484802246, 0.5809820294380188, 0.9940115213394165, 
24, 461359518, -80.74211883544922, -74.4017562866211, -43.45223617553711, 9.2206392288208, -2.538545846939087, 0.5589483380317688, 2.262223720550537, 0.4913322925567627, 0.7845897078514099, 
25, 461367851, -80.74649810791016, -74.40322875976562, -43.44928741455078, 9.38482666015625, -2.2704873085021973, 0.5420434474945068, 2.133179187774658, 0.2453075498342514, 1.0699578523635864, 
26, 461376184, -80.752197265625, -74.40059661865234, -43.445247650146484, 9.692070007324219, -2.5368688106536865, 0.34777408838272095, 1.9156373739242554, 0.351222425699234, 1.5490976572036743, 
27, 461384517, -80.75264739990234, -74.39813232421875, -43.44688415527344, 9.793514251708984, -2.8171019554138184, 0.4818738102912903, 1.9317231178283691, 0.5073155760765076, 1.5098823308944702, 
28, 461392850, -80.74951934814453, -74.39949035644531, -43.44961929321289, 9.586173057556152, -2.904217004776001, 0.25256046652793884, 2.1966512203216553, 0.48779749870300293, 1.0395281314849854, 
29, 461401183, -80.7444839477539, -74.4027099609375, -43.453731536865234, 9.2150297164917, -2.5200905799865723, 0.6129892468452454, 2.296905040740967, 0.48047173023223877, 0.8217558860778809, 
30, 461409516, -80.74681854248047, -74.40361022949219, -43.45052719116211, 9.261463165283203, -2.3588318824768066, 0.4228435754776001, 2.2230336666107178, 0.3076781630516052, 1.12979257106781, 
31, 461417849, -80.75137329101562, -74.40239715576172, -43.44624328613281, 9.561556816101074, -2.4430816173553467, 0.5384953022003174, 2.0472946166992188, 0.3157210648059845, 1.3822466135025024, 
32, 461426182, -80.752685546875, -74.39854431152344, -43.445735931396484, 9.927688598632812, -2.7791647911071777, 0.4051063656806946, 2.0253686904907227, 0.4877718687057495, 1.6803961992263794, 
33, 461434515, -80.74906158447266, -74.39852905273438, -43.44956588745117, 9.79654598236084, -2.8714537620544434, 0.3379191756248474, 2.1252899169921875, 0.5440975427627563, 1.2030494213104248, 
34, 461442848, -80.74512481689453, -74.40142059326172, -43.452938079833984, 9.269865036010742, -2.7974624633789062, 0.4646068215370178, 2.2101244926452637, 0.4814195930957794, 0.8603053689002991, 
35, 461451181, -80.7439956665039, -74.4046859741211, -43.45378112792969, 9.165953636169434, -2.3600807189941406, 0.36824798583984375, 2.2098679542541504, 0.374019056558609, 0.8283131122589111, 
36, 461459514, -80.74996185302734, -74.40438079833984, -43.447837829589844, 9.391090393066406, -2.271631956100464, 0.6736782193183899, 2.1022629737854004, 0.24638333916664124, 1.283990502357483, 
37, 461467847, -80.7566909790039, -74.40096282958984, -43.4427375793457, 9.828779220581055, -2.7139549255371094, 0.18049027025699615, 1.965508222579956, 0.3088052272796631, 1.6616979837417603, 
38, 461476180, -80.75373077392578, -74.39910888671875, -43.4466667175293, 9.87247085571289, -2.868274450302124, 0.5782461762428284, 2.038790702819824, 0.5862329602241516, 1.415570616722107, 
39, 461484513, -80.74786376953125, -74.40130615234375, -43.45223617553711, 9.50707721710205, -2.9056313037872314, 0.23499728739261627, 2.1876091957092285, 0.555675208568573, 0.9361746311187744, 
40, 461492846, -80.74066162109375, -74.40486145019531, -43.45789337158203, 9.222521781921387, -2.4261577129364014, 0.5810366272926331, 2.348825454711914, 0.5374122858047485, 0.7633811235427856, 
41, 461501179, -80.74215698242188, -74.4038314819336, -43.45585250854492, 9.281014442443848, -2.2752373218536377, 0.43378379940986633, 2.2223422527313232, 0.3662579655647278, 1.3600391149520874, 
42, 461509512, -80.74749755859375, -74.40094757080078, -43.451316833496094, 9.619529724121094, -2.5609402656555176, 0.39255791902542114, 2.011460542678833, 0.33995214104652405, 1.5826011896133423, 
43, 461517845, -80.74907684326172, -74.39813995361328, -43.45068359375, 9.880247116088867, -2.789231538772583, 0.4580173194408417, 1.993274211883545, 0.4606720507144928, 1.5508395433425903, 
44, 461526178, -80.74701690673828, -74.39925384521484, -43.45378875732422, 9.655584335327148, -2.9916629791259766, 0.2164871096611023, 2.0242159366607666, 0.5039344429969788, 1.0692918300628662, 
45, 461534511, -80.73728942871094, -74.40361022949219, -43.463134765625, 9.256914138793945, -2.6257028579711914, 0.6043568253517151, 2.209432601928711, 0.6346182823181152, 0.664484441280365, 
46, 461542844, -80.7438735961914, -74.40493774414062, -43.45567321777344, 9.301361083984375, -2.3029074668884277, 0.4344777762889862, 2.20625638961792, 0.16306020319461823, 1.098082184791565, 
47, 461551177, -80.7513198852539, -74.40275573730469, -43.448814392089844, 9.500054359436035, -2.4155685901641846, 0.4622475504875183, 2.091991424560547, 0.22619929909706116, 1.517592191696167, 
48, 461559510, -80.75142669677734, -74.39909362792969, -43.448936462402344, 9.82421875, -2.77233624458313, 0.318805068731308, 2.104645013809204, 0.5038576722145081, 1.6521694660186768, 
49, 461567843, -80.74785614013672, -74.3991470336914, -43.45223617553711, 9.759699821472168, -2.8171823024749756, 0.38579216599464417, 2.0929648876190186, 0.5496559143066406, 1.1958774328231812, 
50, 461576176, -80.74486541748047, -74.40241241455078, -43.455322265625, 9.284738540649414, -2.789555311203003, 0.45870551466941833, 2.133563756942749, 0.46261873841285706, 0.81486576795578, 
51, 461584509, -80.74262237548828, -74.40569305419922, -43.45675277709961, 9.213481903076172, -2.427255630493164, 0.4105021357536316, 2.304641008377075, 0.3828047215938568, 0.8294146060943604, 
52, 461592842, -80.74786376953125, -74.40406799316406, -43.450843811035156, 9.506248474121094, -2.2694597244262695, 0.6236662268638611, 2.187788486480713, 0.27107542753219604, 1.439622402191162, 
53, 461601175, -80.75105285644531, -74.40007781982422, -43.4500617980957, 9.829318046569824, -2.7469658851623535, 0.27124735713005066, 1.9530085325241089, 0.4415893852710724, 1.700554609298706, 
54, 461609508, -80.74695587158203, -74.39849853515625, -43.453948974609375, 9.774516105651855, -2.8765838146209717, 0.4604668915271759, 2.1660420894622803, 0.5859256386756897, 1.3893417119979858, 
55, 461617841, -80.7424087524414, -74.4013442993164, -43.45749282836914, 9.463155746459961, -2.799177646636963, 0.3154022991657257, 2.165555477142334, 0.508186399936676, 0.854977548122406, 
56, 461626174, -80.74108123779297, -74.4045181274414, -43.45796203613281, 9.194860458374023, -2.3642077445983887, 0.5761112570762634, 2.2381718158721924, 0.3813447654247284, 0.8414020538330078, 
57, 461634507, -80.74686431884766, -74.40335083007812, -43.45302200317383, 9.285317420959473, -2.3644046783447266, 0.5641316175460815, 2.1192193031311035, 0.2559886574745178, 1.3924152851104736, 
58, 461642840, -80.75272369384766, -74.40023803710938, -43.44709396362305, 9.72236156463623, -2.6446821689605713, 0.26629215478897095, 2.119142532348633, 0.29868757724761963, 1.6125696897506714, 
59, 461651173, -80.75059509277344, -74.39765930175781, -43.45009231567383, 9.956278800964355, -2.756098508834839, 0.585600733757019, 1.999319314956665, 0.5775754451751709, 1.5088578462600708, 
60, 461659506, -80.74469757080078, -74.39849853515625, -43.457366943359375, 9.63167667388916, -2.941025495529175, 0.19125111401081085, 2.0031867027282715, 0.6431221961975098, 1.0799217224121094, 
61, 461667839, -80.7401351928711, -74.40192413330078, -43.46110534667969, 9.17986011505127, -2.6071085929870605, 0.657207190990448, 2.2678589820861816, 0.46825382113456726, 0.7977553009986877, 
62, 461676172, -80.7455825805664, -74.40279388427734, -43.45431137084961, 9.297810554504395, -2.256502151489258, 0.3797453045845032, 2.26107120513916, 0.19487310945987701, 1.153613805770874, 
63, 461684505, -80.75291442871094, -74.4010009765625, -43.44854736328125, 9.56236743927002, -2.3697917461395264, 0.5405351519584656, 2.0334887504577637, 0.23928821086883545, 1.4659795761108398, 
64, 461692838, -80.75200653076172, -74.3968505859375, -43.45154571533203, 9.826358795166016, -2.82045316696167, 0.26762109994888306, 1.8985016345977783, 0.6033689379692078, 1.6918460130691528, 
65, 461701171, -80.74713134765625, -74.39707946777344, -43.45645523071289, 9.696430206298828, -2.9552736282348633, 0.4179399311542511, 2.1342294216156006, 0.5756031274795532, 1.1710060834884644, 
66, 461709504, -80.7413330078125, -74.39925384521484, -43.461517333984375, 9.348100662231445, -2.6798996925354004, 0.535341203212738, 2.236635208129883, 0.5496302247047424, 0.9377884268760681, 
67, 461717837, -80.74388885498047, -74.40209197998047, -43.45812225341797, 9.255266189575195, -2.343301296234131, 0.43397951126098633, 2.178004026412964, 0.2686420977115631, 0.8996999263763428, 
68, 461726170, -80.75027465820312, -74.40050506591797, -43.4520263671875, 9.422725677490234, -2.3925020694732666, 0.5559647083282471, 2.07065486907959, 0.2657220959663391, 1.439391851425171, 
69, 461734503, -80.75493621826172, -74.39774322509766, -43.448486328125, 9.819271087646484, -2.7151682376861572, 0.2700881063938141, 2.029543876647949, 0.3478669226169586, 1.5624940395355225, 
70, 461742836, -80.74903106689453, -74.3970947265625, -43.45551681518555, 9.805652618408203, -2.810617208480835, 0.46188977360725403, 2.021577835083008, 0.6662774085998535, 1.262166976928711, 
71, 461751169, -80.7412338256836, -74.39862823486328, -43.46307373046875, 9.396456718444824, -2.8862857818603516, 0.28612393140792847, 2.230743646621704, 0.6191729307174683, 0.999851644039154, 
72, 461759502, -80.73780822753906, -74.40206909179688, -43.46513366699219, 9.185712814331055, -2.411133050918579, 0.564274251461029, 2.295445442199707, 0.43090832233428955, 0.8059519529342651, 
73, 461767835, -80.74104309082031, -74.40182495117188, -43.46076583862305, 9.387247085571289, -2.2779452800750732, 0.5961776375770569, 2.180591106414795, 0.3031444847583771, 1.2683913707733154, 
74, 461776168, -80.74577331542969, -74.39903259277344, -43.45701217651367, 9.727394104003906, -2.6740217208862305, 0.23321248590946198, 2.001829147338867, 0.36277440190315247, 1.567053198814392, 
75, 461784501, -80.7456283569336, -74.3961181640625, -43.456886291503906, 9.869147300720215, -2.809767007827759, 0.5613545179367065, 2.1140964031219482, 0.4857740104198456, 1.5663105249404907, 
76, 461792834, -80.74125671386719, -74.39824676513672, -43.46148681640625, 9.587674140930176, -2.8860280513763428, 0.23484531044960022, 2.125187635421753, 0.5345691442489624, 0.9392740726470947, 
77, 461801167, -80.7396240234375, -74.40220642089844, -43.46364212036133, 9.172268867492676, -2.545929431915283, 0.6585085988044739, 2.325157880783081, 0.34579217433929443, 0.753032922744751, 
78, 461809500, -80.7432632446289, -74.40337371826172, -43.4600830078125, 9.313299179077148, -2.314066171646118, 0.40250980854034424, 2.1145832538604736, 0.29036298394203186, 1.0944706201553345, 
79, 461817833, -80.75001525878906, -74.4013442993164, -43.45448303222656, 9.636292457580566, -2.459575653076172, 0.4625565707683563, 2.046321392059326, 0.25949782133102417, 1.4950006008148193, 
80, 461826166, -80.75173950195312, -74.39849853515625, -43.45421600341797, 9.878047943115234, -2.841301918029785, 0.4269651472568512, 1.9538027048110962, 0.47491350769996643, 1.5586518049240112, 
81, 461834499, -80.7441177368164, -74.39892578125, -43.46250534057617, 9.704920768737793, -2.9028725624084473, 0.2814371883869171, 2.1660678386688232, 0.6543412804603577, 1.1299463510513306, 
82, 461842832, -80.73711395263672, -74.4016342163086, -43.46918869018555, 9.330448150634766, -2.6345553398132324, 0.5763587355613708, 2.2081010341644287, 0.5863098502159119, 0.8586916327476501, 
83, 461851165, -80.73789978027344, -74.40353393554688, -43.46859359741211, 9.23147201538086, -2.3223893642425537, 0.36114585399627686, 2.1689367294311523, 0.3465862274169922, 1.0084068775177002, 
84, 461859498, -80.74565887451172, -74.40210723876953, -43.46101760864258, 9.43243408203125, -2.4094653129577637, 0.5886995792388916, 2.0805163383483887, 0.21331536769866943, 1.4236905574798584, 
85, 461867831, -80.74896240234375, -74.39954376220703, -43.45923614501953, 9.849600791931152, -2.7356882095336914, 0.2212829291820526, 2.035972833633423, 0.38628828525543213, 1.5439748764038086, 
86, 461876164, -80.74665832519531, -74.39866638183594, -43.462337493896484, 9.812765121459961, -2.8472869396209717, 0.5106725692749023, 2.049010992050171, 0.544148862361908, 1.303995132446289, 
87, 461884497, -80.74064636230469, -74.40070343017578, -43.46790313720703, 9.381210327148438, -2.887017250061035, 0.35030147433280945, 2.2321524620056152, 0.5537541508674622, 0.9489818215370178, 
88, 461892830, -80.73812103271484, -74.4038314819336, -43.46965789794922, 9.230252265930176, -2.4018807411193848, 0.4973691999912262, 2.2332794666290283, 0.4239668548107147, 0.8402238488197327, 
89, 461901163, -80.74563598632812, -74.4038314819336, -43.46324920654297, 9.427946090698242, -2.270812511444092, 0.5285230875015259, 2.091709852218628, 0.18380776047706604, 1.2585042715072632, 
90, 461909496, -80.753662109375, -74.40121459960938, -43.456329345703125, 9.741214752197266, -2.659358263015747, 0.2881849706172943, 1.9698882102966309, 0.2583451569080353, 1.5619046688079834, 
91, 461917829, -80.75382232666016, -74.39923858642578, -43.45660400390625, 9.793875694274902, -2.831688404083252, 0.4796213209629059, 2.110766649246216, 0.4572397768497467, 1.4574244022369385, 
92, 461926162, -80.75089263916016, -74.4007339477539, -43.45951461791992, 9.5039644241333, -2.86165189743042, 0.22070737183094025, 2.1489574909210205, 0.4922542870044708, 1.0266953706741333, 
93, 461934495, -80.7457046508789, -74.40361022949219, -43.46275329589844, 9.209491729736328, -2.430522918701172, 0.6560099124908447, 2.2869412899017334, 0.4932277500629425, 0.859229564666748, 
94, 461942828, -80.74688720703125, -74.40380859375, -43.461246490478516, 9.328473091125488, -2.317896604537964, 0.4576594829559326, 2.1646077632904053, 0.3769647181034088, 1.204406976699829, 
95, 461951161, -80.75396728515625, -74.40119171142578, -43.455589294433594, 9.635653495788574, -2.620164155960083, 0.3604462146759033, 1.9139981269836426, 0.29776546359062195, 1.5585747957229614, 
96, 461959494, -80.7554702758789, -74.39805603027344, -43.45466232299805, 9.939541816711426, -2.757189989089966, 0.5162983536720276, 2.0641233921051025, 0.45854610204696655, 1.5909514427185059, 
97, 461967827, -80.74958801269531, -74.39845275878906, -43.46157455444336, 9.672211647033691, -2.8649303913116455, 0.25215044617652893, 2.1256229877471924, 0.608696699142456, 1.1427534818649292, 
98, 461976160, -80.7411117553711, -74.40182495117188, -43.468994140625, 9.18122673034668, -2.700469970703125, 0.5864681601524353, 2.2871975898742676, 0.5999366641044617, 0.7825661301612854, 
99, 461984493, -80.74180603027344, -74.40401458740234, -43.46705627441406, 9.237842559814453, -2.2797224521636963, 0.4326210618019104, 2.225620985031128, 0.3294503092765808, 0.9734435081481934, 
100, 461992826, -80.74967193603516, -74.40170288085938, -43.45941925048828, 9.586394309997559, -2.3177196979522705, 0.5743520855903625, 2.0689642429351807, 0.23006707429885864, 1.532012939453125, 
101, 462001159, -80.7527847290039, -74.39857482910156, -43.45888900756836, 9.875450134277344, -2.8202924728393555, 0.2882043719291687, 1.8451982736587524, 0.45611268281936646, 1.5950496196746826, 
102, 462009492, -80.74774932861328, -74.3985366821289, -43.46360778808594, 9.753405570983887, -2.890244722366333, 0.42123639583587646, 2.1842539310455322, 0.5800856351852417, 1.1997708082199097, 
103, 462017825, -80.74234771728516, -74.40117645263672, -43.46891403198242, 9.394623756408691, -2.692800760269165, 0.4866994321346283, 2.1784651279449463, 0.5375915765762329, 0.8762118220329285, 
104, 462026158, -80.7410888671875, -74.403564453125, -43.469058990478516, 9.204708099365234, -2.35854172706604, 0.4512607157230377, 2.2757222652435303, 0.3838549256324768, 0.9313848614692688, 
105, 462034491, -80.74594116210938, -74.40164947509766, -43.46604919433594, 9.3656005859375, -2.3762331008911133, 0.5648010969161987, 2.1060023307800293, 0.3027602434158325, 1.4815528392791748, 
106, 462042824, -80.75460815429688, -74.39873504638672, -43.45896911621094, 9.789052963256836, -2.6981849670410156, 0.24771879613399506, 1.911462426185608, 0.25865253806114197, 1.5963046550750732, 
107, 462051157, -80.74760437011719, -74.396728515625, -43.467769622802734, 9.83220100402832, -2.874577522277832, 0.5329995155334473, 1.9773931503295898, 0.7340526580810547, 1.4124712944030762, 
108, 462059490, -80.74008178710938, -74.39889526367188, -43.47574996948242, 9.484874725341797, -2.922079086303711, 0.1914123296737671, 2.1042094230651855, 0.6430197954177856, 0.9226248264312744, 
109, 462067823, -80.73597717285156, -74.40209197998047, -43.47776794433594, 9.22368335723877, -2.396855592727661, 0.6289545297622681, 2.2972893714904785, 0.44837716221809387, 0.8245478272438049, 
110, 462076156, -80.73793029785156, -74.40140533447266, -43.475990295410156, 9.339338302612305, -2.2876510620117188, 0.4909541606903076, 2.103851079940796, 0.3856479227542877, 1.3104243278503418, 
111, 462084489, -80.7419204711914, -74.39810943603516, -43.47273254394531, 9.653233528137207, -2.602914810180664, 0.29070672392845154, 2.0304148197174072, 0.38003841042518616, 1.6291933059692383, 
112, 462092822, -80.74339294433594, -74.39567565917969, -43.47166442871094, 9.862898826599121, -2.7621653079986572, 0.4137926995754242, 2.079312562942505, 0.44210174679756165, 1.5112143754959106, 
113, 462101155, -80.73497009277344, -74.3967514038086, -43.47998046875, 9.59809398651123, -2.886357069015503, 0.2685292065143585, 2.055363178253174, 0.7003188133239746, 1.0506703853607178, 
114, 462109488, -80.73328399658203, -74.3994140625, -43.480411529541016, 9.189556121826172, -2.640136480331421, 0.6413958668708801, 2.285327911376953, 0.38979747891426086, 0.8997513055801392, 
115, 462117821, -80.73650360107422, -74.40047454833984, -43.474491119384766, 9.33043098449707, -2.3459410667419434, 0.393038809299469, 2.261122465133667, 0.25788411498069763, 1.1203666925430298, 
116, 462126154, -80.74234008789062, -74.39868927001953, -43.46859359741211, 9.62355899810791, -2.4322824478149414, 0.5483914017677307, 2.1201672554016113, 0.2734832167625427, 1.4572452306747437, 
117, 462134487, -80.74129486083984, -74.39532470703125, -43.47079086303711, 9.891780853271484, -2.8401904106140137, 0.4162299633026123, 2.0398664474487305, 0.5443793535232544, 1.610366940498352, 
118, 462142820, -80.73785400390625, -74.39478302001953, -43.474159240722656, 9.699236869812012, -2.8825910091400146, 0.37494316697120667, 2.155745506286621, 0.5463260412216187, 1.2652920484542847, 
119, 462151153, -80.73147583007812, -74.3980941772461, -43.47945785522461, 9.313850402832031, -2.706063747406006, 0.5143174529075623, 2.195344924926758, 0.5493229627609253, 0.8004961013793945, 
120, 462159486, -80.72821044921875, -74.4001235961914, -43.4825553894043, 9.19483757019043, -2.3120779991149902, 0.46703585982322693, 2.1714725494384766, 0.48690104484558105, 0.9580236673355103, 
121, 462167819, -80.733642578125, -74.39907836914062, -43.47701644897461, 9.429081916809082, -2.410741090774536, 0.6108445525169373, 2.0915305614471436, 0.27243301272392273, 1.3729486465454102, 
122, 462176152, -80.74012756347656, -74.39710235595703, -43.47119903564453, 9.86117935180664, -2.765373468399048, 0.22330577671527863, 2.0302867889404297, 0.2813723683357239, 1.4829872846603394, 
123, 462184485, -80.7376708984375, -74.39598846435547, -43.474571228027344, 9.88732624053955, -2.8040237426757812, 0.5093490481376648, 2.134946346282959, 0.5222486257553101, 1.3424676656723022, 
124, 462192818, -80.73231506347656, -74.39818572998047, -43.480194091796875, 9.430296897888184, -2.8794291019439697, 0.3092450499534607, 2.1273133754730225, 0.5628984570503235, 0.9278757572174072, 
125, 462201151, -80.73004913330078, -74.40090942382812, -43.48244094848633, 9.163113594055176, -2.4460997581481934, 0.5102555155754089, 2.233612537384033, 0.41489943861961365, 0.8948589563369751, 
126, 462209484, -80.73515319824219, -74.400390625, -43.476627349853516, 9.379196166992188, -2.2298922538757324, 0.5941799879074097, 2.1973683834075928, 0.2518135607242584, 1.308067798614502, 
127, 462217817, -80.74254608154297, -74.39725494384766, -43.47099304199219, 9.723597526550293, -2.5908126831054688, 0.2295248955488205, 1.930314540863037, 0.29236090183258057, 1.623968243598938, 
128, 462226150, -80.7418212890625, -74.39522552490234, -43.47336196899414, 9.823861122131348, -2.849332094192505, 0.4852767884731293, 1.950524091720581, 0.5425094962120056, 1.4445148706436157, 
129, 462234483, -80.73609924316406, -74.39655303955078, -43.47916793823242, 9.613266944885254, -2.9290618896484375, 0.2537165582180023, 2.13517689704895, 0.5804185271263123, 1.0335087776184082, 
130, 462242816, -80.73241424560547, -74.3993148803711, -43.48166275024414, 9.257092475891113, -2.549532651901245, 0.6833785772323608, 2.292525291442871, 0.4547038972377777, 0.8773900270462036, 
131, 462251149, -80.73606872558594, -74.40103912353516, -43.47673034667969, 9.299518585205078, -2.354229688644409, 0.3511698842048645, 2.213531255722046, 0.24471841752529144, 1.034302830696106, 
132, 462259482, -80.73927307128906, -74.39971160888672, -43.47378921508789, 9.58488655090332, -2.4536659717559814, 0.4944016635417938, 2.0794148445129395, 0.36223649978637695, 1.397666573524475, 
133, 462267815, -80.73580932617188, -74.39703369140625, -43.478431701660156, 9.859529495239258, -2.7558836936950684, 0.39761510491371155, 2.0043392181396484, 0.6197107434272766, 1.5181044340133667, 
134, 462276148, -80.7317886352539, -74.39707946777344, -43.48331069946289, 9.671005249023438, -2.89774489402771, 0.26254087686538696, 2.0540311336517334, 0.5836203098297119, 1.18496572971344, 
135, 462284481, -80.72699737548828, -74.39978790283203, -43.48756408691406, 9.268878936767578, -2.676527976989746, 0.5433189272880554, 2.257613182067871, 0.4923568665981293, 0.877851128578186, 
136, 462292814, -80.72782897949219, -74.40129089355469, -43.486270904541016, 9.291461944580078, -2.285038948059082, 0.43320927023887634, 2.1828196048736572, 0.3581894636154175, 1.0427812337875366, 
137, 462301147, -80.73602294921875, -74.40018463134766, -43.47840881347656, 9.468247413635254, -2.4301869869232178, 0.5584785342216492, 2.0735747814178467, 0.18583127856254578, 1.4019439220428467, 
138, 462309480, -80.73807525634766, -74.39743041992188, -43.4770393371582, 9.881216049194336, -2.7593889236450195, 0.28125810623168945, 2.0508291721343994, 0.4367739260196686, 1.5472279787063599, 
139, 462317813, -80.73184204101562, -74.39641571044922, -43.484676361083984, 9.828700065612793, -2.808777332305908, 0.4900617003440857, 2.043811082839966, 0.6719382405281067, 1.3017922639846802, 
140, 462326146, -80.7261734008789, -74.39895629882812, -43.490074157714844, 9.352831840515137, -2.868840217590332, 0.304548442363739, 2.18630313873291, 0.5502450466156006, 0.8919901847839355, 
141, 462334479, -80.72393798828125, -74.40184020996094, -43.49045181274414, 9.181047439575195, -2.3811025619506836, 0.5533643364906311, 2.4002845287323, 0.3641575872898102, 0.8789012432098389, 
142, 462342812, -80.728759765625, -74.40071868896484, -43.48530578613281, 9.41322135925293, -2.278102397918701, 0.5754964351654053, 2.1458327770233154, 0.2867257595062256, 1.377636194229126, 
143, 462351145, -80.7341079711914, -74.39753723144531, -43.48136520385742, 9.75246524810791, -2.711203098297119, 0.2602192163467407, 2.0063631534576416, 0.3392605781555176, 1.6274006366729736, 
144, 462359478, -80.73003387451172, -74.3950424194336, -43.486427307128906, 9.840873718261719, -2.880258560180664, 0.5456460118293762, 2.0392775535583496, 0.6366418600082397, 1.483986496925354, 
145, 462367811, -80.72516632080078, -74.3963851928711, -43.49180221557617, 9.574140548706055, -2.880584478378296, 0.22106628119945526, 2.156872272491455, 0.5498608350753784, 1.0378632545471191, 
146, 462376144, -80.72407531738281, -74.39942932128906, -43.492374420166016, 9.207060813903809, -2.503455400466919, 0.6492481827735901, 2.2006471157073975, 0.3871847987174988, 0.8543372750282288, 
147, 462384477, -80.72429656982422, -74.4010238647461, -43.489898681640625, 9.296859741210938, -2.31378436088562, 0.44459736347198486, 2.1766719818115234, 0.37194427847862244, 1.0385035276412964, 
148, 462392810, -80.72920989990234, -74.3982925415039, -43.485801696777344, 9.641469955444336, -2.4777159690856934, 0.4106180965900421, 2.017735719680786, 0.34999290108680725, 1.5633392333984375, 
149, 462401143, -80.72945404052734, -74.39563751220703, -43.48662567138672, 9.864006996154785, -2.8021881580352783, 0.40604907274246216, 1.9658668041229248, 0.5104148387908936, 1.526813268661499, 
150, 462409476, -80.72348022460938, -74.39608764648438, -43.493247985839844, 9.663664817810059, -2.886136293411255, 0.25949233770370483, 2.0839486122131348, 0.6313652992248535, 1.1332250833511353, 
151, 462417809, -80.71556091308594, -74.39944458007812, -43.499427795410156, 9.246025085449219, -2.6969780921936035, 0.609551727771759, 2.2949328422546387, 0.5739125609397888, 0.7828991413116455, 
152, 462426142, -80.7161636352539, -74.40142822265625, -43.497711181640625, 9.266511917114258, -2.33355712890625, 0.3372386395931244, 2.2568957805633545, 0.3342657685279846, 0.9891961216926575, 
153, 462434475, -80.72464752197266, -74.39981079101562, -43.488319396972656, 9.5389986038208, -2.3550009727478027, 0.6444414258003235, 2.0303890705108643, 0.19912506639957428, 1.459012508392334, 
154, 462442808, -80.72813415527344, -74.3961410522461, -43.48596954345703, 9.861942291259766, -2.7994706630706787, 0.23980587720870972, 1.9833617210388184, 0.42417171597480774, 1.6664109230041504, 
155, 462451141, -80.72344207763672, -74.39561462402344, -43.4908332824707, 9.700050354003906, -2.8982348442077637, 0.4516597092151642, 2.165222644805908, 0.578318178653717, 1.2570186853408813, 
156, 462459474, -80.71955871582031, -74.3986587524414, -43.49407958984375, 9.362983703613281, -2.7253003120422363, 0.40360987186431885, 2.219268798828125, 0.47347918152809143, 0.8426058292388916, 
157, 462467807, -80.71796417236328, -74.40149688720703, -43.49329376220703, 9.239394187927246, -2.3009772300720215, 0.5405101180076599, 2.296597957611084, 0.37348121404647827, 0.8846132755279541, 
158, 462476140, -80.72503662109375, -74.39974212646484, -43.486717224121094, 9.383408546447754, -2.4062068462371826, 0.5229772329330444, 2.042837619781494, 0.2534272372722626, 1.4606516361236572, 
159, 462484473, -80.7307357788086, -74.39675903320312, -43.48222351074219, 9.82602596282959, -2.7158656120300293, 0.3196262717247009, 1.9770348072052002, 0.3308334946632385, 1.5964840650558472, 
160, 462492806, -80.7296142578125, -74.3951416015625, -43.483154296875, 9.898415565490723, -2.7565150260925293, 0.540131151676178, 2.159152030944824, 0.48961612582206726, 1.4101661443710327, 
161, 462501139, -80.72176361083984, -74.39707946777344, -43.49183654785156, 9.437032699584961, -2.938504457473755, 0.22563862800598145, 2.06343150138855, 0.6601812839508057, 0.9405802488327026, 
162, 462509472, -80.7191162109375, -74.40045166015625, -43.49300765991211, 9.150622367858887, -2.432513475418091, 0.5693879723548889, 2.3187286853790283, 0.40014559030532837, 0.8114846348762512, 
163, 462517805, -80.72430419921875, -74.40096282958984, -43.48613739013672, 9.341413497924805, -2.2092678546905518, 0.5538626313209534, 2.206333637237549, 0.21856628358364105, 1.193060040473938, 
164, 462526138, -80.73268127441406, -74.3981704711914, -43.47844314575195, 9.625786781311035, -2.5934362411499023, 0.3188856840133667, 2.018068790435791, 0.23641939461231232, 1.5889791250228882, 
165, 462534471, -80.732177734375, -74.39496612548828, -43.48023986816406, 9.87498950958252, -2.846275568008423, 0.47870540618896484, 1.9819271564483643, 0.5405884385108948, 1.5905417203903198, 
166, 462542804, -80.7285385131836, -74.39522552490234, -43.48512268066406, 9.706992149353027, -2.875267744064331, 0.3007735013961792, 2.001906156539917, 0.5802904963493347, 1.1648072004318237, 
167, 462551137, -80.72306823730469, -74.39805603027344, -43.48844909667969, 9.219902992248535, -2.6841914653778076, 0.669243574142456, 2.330075740814209, 0.49128106236457825, 0.8638145327568054, 
168, 462559470, -80.72474670410156, -74.40055847167969, -43.48493957519531, 9.26480770111084, -2.3643958568573, 0.360035240650177, 2.336735486984253, 0.26877015829086304, 0.9405034184455872, 
169, 462567803, -80.73023986816406, -74.3991928100586, -43.47740173339844, 9.585137367248535, -2.3281710147857666, 0.5792019963264465, 2.1131234169006348, 0.2718694806098938, 1.4095256328582764, 
170, 462576136, -80.73172760009766, -74.39588165283203, -43.477447509765625, 9.819334983825684, -2.785409688949585, 0.3146669566631317, 1.9408928155899048, 0.4938168227672577, 1.6126720905303955, 
171, 462584469, -80.7258529663086, -74.39601135253906, -43.48438262939453, 9.700145721435547, -2.915335178375244, 0.4312764108181, 2.0892508029937744, 0.6248592138290405, 1.1755141019821167, 
172, 462592802, -80.72206115722656, -74.39900207519531, -43.48789596557617, 9.386231422424316, -2.699455738067627, 0.4583790898323059, 2.18430495262146, 0.4813171327114105, 0.8424265384674072, 
173, 462601135, -80.72200012207031, -74.40164947509766, -43.48738479614258, 9.243098258972168, -2.3328354358673096, 0.47307273745536804, 2.254129409790039, 0.33846649527549744, 0.9122509360313416, 
174, 462609468, -80.72872161865234, -74.4002685546875, -43.480445861816406, 9.384361267089844, -2.3811888694763184, 0.5678640604019165, 2.12943959236145, 0.232526034116745, 1.4175173044204712, 
175, 462617801, -80.73050689697266, -74.39799499511719, -43.47938919067383, 9.831360816955566, -2.709000587463379, 0.24711647629737854, 1.9606926441192627, 0.45383304357528687, 1.4969727993011475, 
176, 462626134, -80.72956848144531, -74.39601135253906, -43.481056213378906, 9.847875595092773, -2.7759766578674316, 0.4992358088493347, 2.0511109828948975, 0.5188931822776794, 1.4416972398757935, 
177, 462634467, -80.7242202758789, -74.39801025390625, -43.487403869628906, 9.413274765014648, -2.9338126182556152, 0.27822843194007874, 2.080157518386841, 0.5753725171089172, 0.9522090554237366, 
178, 462642800, -80.7233657836914, -74.40140533447266, -43.487831115722656, 9.142284393310547, -2.4922220706939697, 0.5655902028083801, 2.184330701828003, 0.37458255887031555, 0.8165305256843567, 
179, 462651133, -80.72710418701172, -74.40190887451172, -43.482261657714844, 9.392316818237305, -2.306513547897339, 0.5357855558395386, 2.181385040283203, 0.2767105996608734, 1.177998661994934, 
180, 462659466, -80.73076629638672, -74.40042114257812, -43.47917938232422, 9.76303768157959, -2.5561161041259766, 0.34574851393699646, 2.0482423305511475, 0.3591372072696686, 1.4137009382247925, 
181, 462667799, -80.73396301269531, -74.39801025390625, -43.47647476196289, 9.859952926635742, -2.83754301071167, 0.5186102986335754, 2.0568485260009766, 0.3812422454357147, 1.5238419771194458, 
182, 462676132, -80.72730255126953, -74.39976501464844, -43.48362731933594, 9.595664978027344, -2.8970954418182373, 0.2455773502588272, 2.108999252319336, 0.6213501691818237, 0.9686791300773621, 
183, 462684465, -80.7275390625, -74.4042739868164, -43.483070373535156, 9.250312805175781, -2.458508014678955, 0.6410359144210815, 2.2649643421173096, 0.2887236773967743, 0.7017020583152771, 
184, 462692798, -80.72956848144531, -74.40516662597656, -43.480892181396484, 9.249520301818848, -2.2918601036071777, 0.3896752595901489, 2.144987106323242, 0.3409254252910614, 1.1201361417770386, 
185, 462701131, -80.73734283447266, -74.40345001220703, -43.47421646118164, 9.497851371765137, -2.5145621299743652, 0.4407775104045868, 1.9886125326156616, 0.23831485211849213, 1.4615483283996582, 
186, 462709464, -80.740234375, -74.4005126953125, -43.471248626708984, 9.929560661315918, -2.773077964782715, 0.41419294476509094, 2.1307973861694336, 0.3900536000728607, 1.578477382659912, 
187, 462717797, -80.73917388916016, -74.39988708496094, -43.4730339050293, 9.820535659790039, -2.87542462348938, 0.36850419640541077, 2.0516490936279297, 0.4901540279388428, 1.2861419916152954, 
188, 462726130, -80.73465728759766, -74.40298461914062, -43.477386474609375, 9.293581008911133, -2.834482431411743, 0.4646918773651123, 2.1729836463928223, 0.5075716972351074, 0.8279545903205872, 
189, 462734463, -80.73236846923828, -74.40605926513672, -43.47854995727539, 9.223488807678223, -2.332979202270508, 0.45232194662094116, 2.2910141944885254, 0.392025887966156, 0.8566681742668152, 
190, 462742796, -80.73690032958984, -74.40470886230469, -43.47420883178711, 9.450474739074707, -2.222186326980591, 0.6260464191436768, 2.0851268768310547, 0.31712985038757324, 1.402866005897522, 
191, 462751129, -80.74036407470703, -74.4021224975586, -43.47219467163086, 9.752843856811523, -2.761852264404297, 0.12717337906360626, 1.989764928817749, 0.39394691586494446, 1.540081262588501, 
192, 462759462, -80.73977661132812, -74.39997100830078, -43.47219467163086, 9.782722473144531, -2.83891224861145, 0.5475326180458069, 2.2107133865356445, 0.46812576055526733, 1.4708205461502075, 
193, 462767795, -80.73360443115234, -74.40160369873047, -43.47750473022461, 9.493674278259277, -2.8311336040496826, 0.3053928017616272, 2.2462403774261475, 0.5619250535964966, 1.0006712675094604, 
194, 462776128, -80.73333740234375, -74.40455627441406, -43.475833892822266, 9.240994453430176, -2.474198818206787, 0.5616908073425293, 2.360992193222046, 0.31607967615127563, 0.8766472935676575, 
195, 462784461, -80.73516845703125, -74.40436553955078, -43.4725341796875, 9.372973442077637, -2.320054531097412, 0.4569556415081024, 2.2713167667388916, 0.32483971118927, 1.2631915807724, 
196, 462792794, -80.74042510986328, -74.40148162841797, -43.46847152709961, 9.744434356689453, -2.559382677078247, 0.3590933680534363, 1.9706825017929077, 0.3549876809120178, 1.5798604488372803, 
197, 462801127, -80.73924255371094, -74.39854431152344, -43.47044372558594, 9.811005592346191, -2.785306215286255, 0.4787887632846832, 2.155156135559082, 0.5094159245491028, 1.561418056488037, 
198, 462809460, -80.73523712158203, -74.39958953857422, -43.475032806396484, 9.53270435333252, -2.9180850982666016, 0.14897383749485016, 2.0863564014434814, 0.5539590716362, 1.0710848569869995, 
199, 462817793, -80.73452758789062, -74.40355682373047, -43.47403335571289, 9.224451065063477, -2.4866042137145996, 0.6161714792251587, 2.3247735500335693, 0.31180208921432495, 0.7604354619979858, 
200, 462826126, -80.73853302001953, -74.40415954589844, -43.46961975097656, 9.28434944152832, -2.332723617553711, 0.48352500796318054, 2.168142557144165, 0.27435407042503357, 1.1667540073394775, 
201, 462834459, -80.75047302246094, -74.4017105102539, -43.456668853759766, 9.5993070602417, -2.5478973388671875, 0.4782196283340454, 2.0294415950775146, 0.10097131878137589, 1.5728164911270142, 
202, 462842792, -80.75030517578125, -74.39835357666016, -43.45780944824219, 9.951458930969238, -2.791585922241211, 0.3679066300392151, 2.0139448642730713, 0.5306501388549805, 1.6130051612854004, 
203, 462851125, -80.74280548095703, -74.39892578125, -43.4674072265625, 9.702577590942383, -2.890582323074341, 0.2996487319469452, 1.9833614826202393, 0.6996272206306458, 1.1027952432632446, 
204, 462859458, -80.73663330078125, -74.40218353271484, -43.47261428833008, 9.218864440917969, -2.7388644218444824, 0.5552588105201721, 2.2667319774627686, 0.5319308638572693, 0.8111259937286377, 
205, 462867791, -80.73824310302734, -74.40595245361328, -43.4693717956543, 9.224544525146484, -2.325287342071533, 0.3550415337085724, 2.353461742401123, 0.2363937795162201, 0.793016791343689, 
206, 462876124, -80.74555969238281, -74.40371704101562, -43.46255874633789, 9.496885299682617, -2.325894355773926, 0.6006149053573608, 2.0416338443756104, 0.25329917669296265, 1.5183093547821045, 
207, 462884457, -80.74685668945312, -74.39972686767578, -43.46283721923828, 9.860690116882324, -2.7729852199554443, 0.27261149883270264, 1.9195053577423096, 0.5127713680267334, 1.691794753074646, 
208, 462892790, -80.74333190917969, -74.39907836914062, -43.467018127441406, 9.809221267700195, -2.8838610649108887, 0.5332525372505188, 2.0791330337524414, 0.5721195340156555, 1.270363450050354, 
209, 462901123, -80.73797607421875, -74.4018783569336, -43.472286224365234, 9.42862606048584, -2.8569626808166504, 0.3378734588623047, 2.180616617202759, 0.5299329161643982, 0.8638913631439209, 
210, 462909456, -80.73284912109375, -74.40422821044922, -43.476016998291016, 9.18001651763916, -2.3620705604553223, 0.5738180875778198, 2.315680980682373, 0.5028586983680725, 0.9220356345176697, 
211, 462917789, -80.73973846435547, -74.40406799316406, -43.46885299682617, 9.326571464538574, -2.300673246383667, 0.5417407155036926, 2.046372413635254, 0.2183869630098343, 1.2775098085403442, 
212, 462926122, -80.74153137207031, -74.40043640136719, -43.4684944152832, 9.709860801696777, -2.6869888305664062, 0.25184571743011475, 1.9661743640899658, 0.48538973927497864, 1.6439727544784546, 
213, 462934455, -80.74272918701172, -74.39881896972656, -43.468624114990234, 9.881051063537598, -2.798215866088867, 0.5641168355941772, 2.0315163135528564, 0.4426908493041992, 1.4140338897705078, 
214, 462942788, -80.7348403930664, -74.39949035644531, -43.47736740112305, 9.599661827087402, -2.929208755493164, 0.230717733502388, 2.066249132156372, 0.694273829460144, 1.0964430570602417, 
215, 462951121, -80.72760009765625, -74.40336608886719, -43.48398971557617, 9.20106029510498, -2.5970189571380615, 0.6177577972412109, 2.2982115745544434, 0.5376428365707397, 0.7345393896102905, 
216, 462959454, -80.7348403930664, -74.40440368652344, -43.47541809082031, 9.338675498962402, -2.256439447402954, 0.5137297511100769, 2.2591497898101807, 0.1342698037624359, 1.1382966041564941, 
217, 462967787, -80.74150848388672, -74.4020004272461, -43.46939468383789, 9.625414848327637, -2.4158647060394287, 0.3869211673736572, 2.091120719909668, 0.2571925222873688, 1.539543628692627, 
218, 462976120, -80.74385070800781, -74.39828491210938, -43.468685150146484, 9.804471969604492, -2.8063173294067383, 0.3728432357311249, 1.9295203685760498, 0.4788069427013397, 1.6639518737792969, 
219, 462984453, -80.74020385742188, -74.39944458007812, -43.476905822753906, 9.659639358520508, -2.8862810134887695, 0.28928452730178833, 2.067657947540283, 0.5363109111785889, 1.0608391761779785, 
220, 462992786, -80.73809814453125, -74.40312194824219, -43.47845458984375, 9.300769805908203, -2.5979321002960205, 0.5849799513816833, 2.2009544372558594, 0.4057295024394989, 0.7783910632133484, 
221, 463001119, -80.74260711669922, -74.40518188476562, -43.472076416015625, 9.23301887512207, -2.3656506538391113, 0.3429659307003021, 2.2512097358703613, 0.2009180635213852, 1.0051538944244385, 
222, 463009452, -80.74797058105469, -74.40313720703125, -43.46744918823242, 9.492753028869629, -2.41816782951355, 0.616316020488739, 2.0260093212127686, 0.3188716173171997, 1.486291766166687, 
223, 463017785, -80.74987030029297, -74.39964294433594, -43.46632766723633, 9.892871856689453, -2.7495410442352295, 0.28630536794662476, 2.090787410736084, 0.43800345063209534, 1.6369287967681885, 
224, 463026118, -80.74406433105469, -74.39862823486328, -43.47240447998047, 9.79024600982666, -2.8582358360290527, 0.505316972732544, 2.1248035430908203, 0.6419951915740967, 1.309502363204956, 
225, 463034451, -80.7386474609375, -74.40047454833984, -43.477840423583984, 9.362183570861816, -2.8746938705444336, 0.3240245580673218, 2.1481893062591553, 0.5580573678016663, 0.9760561585426331, 
226, 463042784, -80.7324447631836, -74.40348815917969, -43.48252868652344, 9.176375389099121, -2.362752676010132, 0.4936663508415222, 2.3313310146331787, 0.5187650918960571, 0.8382514715194702, 
227, 463051117, -80.74188995361328, -74.4024429321289, -43.473388671875, 9.348034858703613, -2.26955509185791, 0.5937875509262085, 2.005645751953125, 0.16375179588794708, 1.392287254333496, 
228, 463059450, -80.74549865722656, -74.39925384521484, -43.47046661376953, 9.763962745666504, -2.690788507461548, 0.26470914483070374, 2.0442206859588623, 0.3953301012516022, 1.605654001235962, 
229, 463067783, -80.73928833007812, -74.39715576171875, -43.478572845458984, 9.907718658447266, -2.7903099060058594, 0.5511912703514099, 1.9793658256530762, 0.7077212929725647, 1.4302990436553955, 
230, 463076116, -80.72956085205078, -74.3982925415039, -43.48888397216797, 9.563557624816895, -2.9211068153381348, 0.25893837213516235, 2.1113815307617188, 0.7342064380645752, 1.0286420583724976, 
231, 463084449, -80.72441101074219, -74.40113067626953, -43.492881774902344, 9.174043655395508, -2.5035102367401123, 0.6508355736732483, 2.342473268508911, 0.4784483015537262, 0.8682200908660889, 
232, 463092782, -80.72820281982422, -74.40215301513672, -43.488861083984375, 9.311117172241211, -2.273638963699341, 0.3682384192943573, 2.1426050662994385, 0.2797074317932129, 1.116652488708496, 
233, 463101115, -80.73641204833984, -74.39971160888672, -43.481258392333984, 9.587526321411133, -2.504110336303711, 0.47318556904792786, 1.9690688848495483, 0.24220822751522064, 1.5501735210418701, 
234, 463109448, -80.74109649658203, -74.39659118652344, -43.47734069824219, 9.854581832885742, -2.8248980045318604, 0.4167698323726654, 2.0190162658691406, 0.3643624782562256, 1.6094961166381836, 
235, 463117781, -80.7369155883789, -74.39696502685547, -43.48308181762695, 9.714970588684082, -2.9269063472747803, 0.3105456233024597, 2.03456449508667, 0.5785744190216064, 1.145007610321045, 
236, 463126114, -80.72694396972656, -74.39997863769531, -43.49348449707031, 9.283102035522461, -2.717902421951294, 0.5308253169059753, 2.1181178092956543, 0.702957034111023, 0.8122785687446594, 
237, 463134447, -80.7300796508789, -74.40251159667969, -43.48929214477539, 9.285797119140625, -2.3261656761169434, 0.4593249559402466, 2.2332026958465576, 0.240082249045372, 0.9414513111114502, 
238, 463142780, -80.7343978881836, -74.40103912353516, -43.48483657836914, 9.48078441619873, -2.3457322120666504, 0.5395953059196472, 2.1287224292755127, 0.3152856230735779, 1.4153659343719482, 
239, 463151113, -80.73866271972656, -74.3982925415039, -43.48106384277344, 9.827157020568848, -2.7580673694610596, 0.26373791694641113, 2.0805933475494385, 0.34673991799354553, 1.5709723234176636, 
240, 463159446, -80.7339096069336, -74.39720916748047, -43.486480712890625, 9.788907051086426, -2.8051624298095703, 0.4391694962978363, 2.080183506011963, 0.6210939884185791, 1.3168022632598877, 
241, 463167779, -80.73352813720703, -74.400390625, -43.48801803588867, 9.412848472595215, -2.8188867568969727, 0.4066959023475647, 2.0805160999298096, 0.3860321342945099, 0.8417862057685852, 
242, 463176112, -80.7309799194336, -74.40266418457031, -43.49000549316406, 9.198427200317383, -2.4382474422454834, 0.46771958470344543, 2.208587646484375, 0.4471989572048187, 0.9376859664916992, 
243, 463184445, -80.73646545410156, -74.4019775390625, -43.486324310302734, 9.414402961730957, -2.277489423751831, 0.599036455154419, 2.1288504600524902, 0.25363215804100037, 1.334194302558899, 
244, 463192778, -80.74044036865234, -74.39945983886719, -43.48432540893555, 9.80314826965332, -2.660733461380005, 0.24318674206733704, 1.8916881084442139, 0.4115695357322693, 1.5234322547912598, 
245, 463201111, -80.73654174804688, -74.39820861816406, -43.48878479003906, 9.829826354980469, -2.8608248233795166, 0.5667309165000916, 2.0522122383117676, 0.5980923771858215, 1.3448240756988525, 
246, 463209444, -80.73355865478516, -74.39917755126953, -43.49135208129883, 9.55335521697998, -2.9321036338806152, 0.21791940927505493, 2.1922712326049805, 0.4916140139102936, 1.0924984216690063, 
247, 463217777, -80.73002624511719, -74.40160369873047, -43.493499755859375, 9.236481666564941, -2.455310106277466, 0.5891947746276855, 2.302028179168701, 0.4442533254623413, 0.9204220175743103, 
248, 463226110, -80.73514556884766, -74.40098571777344, -43.487823486328125, 9.27192497253418, -2.3128249645233154, 0.4493619203567505, 2.1790285110473633, 0.2571925222873688, 1.3213615417480469, 
249, 463234443, -80.7387466430664, -74.39836883544922, -43.485565185546875, 9.601043701171875, -2.5267014503479004, 0.42002353072166443, 2.05930757522583, 0.3715088665485382, 1.5488927364349365, 
250, 463242776, -80.74053955078125, -74.3950424194336, -43.48432540893555, 9.93027114868164, -2.761354923248291, 0.4922329783439636, 2.0618178844451904, 0.4522193670272827, 1.6202541589736938, 
251, 463251109, -80.73462677001953, -74.39512634277344, -43.491241455078125, 9.728964805603027, -2.908149480819702, 0.289497971534729, 2.0530576705932617, 0.6372565627098083, 1.1762057542800903, 
252, 463259442, -80.73334503173828, -74.39805603027344, -43.492435455322266, 9.244251251220703, -2.7194321155548096, 0.5653599500656128, 2.1492905616760254, 0.41108283400535583, 0.8624568581581116, 
253, 463267775, -80.72763061523438, -74.40000915527344, -43.4941291809082, 9.250788688659668, -2.306628465652466, 0.3346406817436218, 2.3382465839385986, 0.5151535272598267, 0.9670909643173218, 
254, 463276108, -80.73157501220703, -74.398193359375, -43.490657806396484, 9.449874877929688, -2.3130431175231934, 0.5674982070922852, 2.0601274967193604, 0.35437294840812683, 1.4500987529754639, 
255, 463284441, -80.73300170898438, -74.39480590820312, -43.48999786376953, 9.79748249053955, -2.7734625339508057, 0.22874648869037628, 2.0055947303771973, 0.4739914536476135, 1.6275544166564941, 
256, 463292774, -80.73075103759766, -74.39341735839844, -43.4930419921875, 9.788702011108398, -2.875654697418213, 0.49179258942604065, 2.0439393520355225, 0.5529600977897644, 1.366929292678833, 
257, 463301107, -80.72554779052734, -74.39488983154297, -43.49814987182617, 9.411845207214355, -2.888015031814575, 0.3436518907546997, 2.1925785541534424, 0.5500144362449646, 1.0233142375946045, 
258, 463309440, -80.72797393798828, -74.39786529541016, -43.494842529296875, 9.21657657623291, -2.4298410415649414, 0.5119198560714722, 2.2181930541992188, 0.26556840538978577, 0.8870722651481628, 
259, 463317773, -80.7324447631836, -74.39723205566406, -43.49039840698242, 9.395280838012695, -2.287033796310425, 0.5195543169975281, 2.156846523284912, 0.2803221642971039, 1.3170583248138428, 
260, 463326106, -80.7372055053711, -74.39415740966797, -43.485984802246094, 9.71995735168457, -2.674412965774536, 0.2617380619049072, 2.075009346008301, 0.3469960391521454, 1.6013251543045044, 
261, 463334439, -80.73455810546875, -74.3926010131836, -43.4911003112793, 9.830101013183594, -2.814505100250244, 0.4901962876319885, 2.0459113121032715, 0.5632314085960388, 1.387574315071106, 
262, 463342772, -80.7308120727539, -74.39496612548828, -43.494998931884766, 9.544758796691895, -2.902723550796509, 0.237060084939003, 2.128875970840454, 0.5065470933914185, 0.9186545014381409, 
263, 463351105, -80.72213745117188, -74.3988265991211, -43.50279235839844, 9.194924354553223, -2.506335496902466, 0.5748898983001709, 2.257049798965454, 0.6006026864051819, 0.7206053137779236, 
264, 463359438, -80.72726440429688, -74.39984130859375, -43.496604919433594, 9.310514450073242, -2.2911503314971924, 0.5237545967102051, 2.2304108142852783, 0.21060025691986084, 1.1313296556472778, 
265, 463367771, -80.73322296142578, -74.39846801757812, -43.490848541259766, 9.636425971984863, -2.50549054145813, 0.3640550374984741, 2.0738565921783447, 0.26533788442611694, 1.4178760051727295, 
266, 463376104, -80.73362731933594, -74.39531707763672, -43.4914436340332, 9.925454139709473, -2.789022207260132, 0.5275598764419556, 2.01665997505188, 0.5073923468589783, 1.5868786573410034, 
267, 463384437, -80.72867584228516, -74.39490509033203, -43.497520446777344, 9.730716705322266, -2.9081995487213135, 0.30063778162002563, 2.087944507598877, 0.6053668856620789, 1.2377567291259766, 
268, 463392770, -80.7242202758789, -74.39730072021484, -43.501182556152344, 9.232512474060059, -2.6927037239074707, 0.5384805798530579, 2.2366604804992676, 0.4995543956756592, 0.9158369302749634, 
269, 463401103, -80.72730255126953, -74.39954376220703, -43.49662399291992, 9.216215133666992, -2.360435724258423, 0.37538689374923706, 2.2780022621154785, 0.23752081394195557, 0.9825876951217651, 
270, 463409436, -80.73524475097656, -74.39778900146484, -43.48893356323242, 9.48691177368164, -2.334765911102295, 0.6758507490158081, 2.0654807090759277, 0.21654276549816132, 1.4644941091537476, 
271, 463417769, -80.7401351928711, -74.3944320678711, -43.484004974365234, 9.858580589294434, -2.7734038829803467, 0.30093395709991455, 2.0315420627593994, 0.3500954210758209, 1.6422054767608643, 
272, 463426102, -80.7406997680664, -74.39425659179688, -43.484619140625, 9.801508903503418, -2.9178149700164795, 0.46536242961883545, 1.9908921718597412, 0.45214250683784485, 1.2400363683700562, 
273, 463434435, -80.73587036132812, -74.39667510986328, -43.49095153808594, 9.445234298706055, -2.791076898574829, 0.38064199686050415, 2.268883466720581, 0.4967881143093109, 0.9109959006309509, 
274, 463442768, -80.73416137695312, -74.39942932128906, -43.492122650146484, 9.23144245147705, -2.30940318107605, 0.5236630439758301, 2.206768751144409, 0.4110316336154938, 0.8867904543876648, 
275, 463451101, -80.74180603027344, -74.39910888671875, -43.484222412109375, 9.277054786682129, -2.3417766094207764, 0.5138193964958191, 2.0924267768859863, 0.1860617995262146, 1.2990002632141113, 
276, 463459434, -80.74664306640625, -74.39631652832031, -43.4809455871582, 9.741841316223145, -2.6378579139709473, 0.25438016653060913, 1.933516263961792, 0.37709280848503113, 1.5627758502960205, 
277, 463467767, -80.7464828491211, -74.3945083618164, -43.480953216552734, 9.905749320983887, -2.742966890335083, 0.5793472528457642, 2.004211187362671, 0.49543049931526184, 1.4332958459854126, 
278, 463476100, -80.74479675292969, -74.39537811279297, -43.483436584472656, 9.556208610534668, -2.9867091178894043, 0.2152041643857956, 2.0476534366607666, 0.49110177159309387, 1.103743076324463, 
279, 463484433, -80.7432861328125, -74.3993148803711, -43.4825553894043, 9.210972785949707, -2.546555280685425, 0.6363580822944641, 2.2716243267059326, 0.35772839188575745, 0.755978524684906, 
280, 463492766, -80.74710083007812, -74.40050506591797, -43.47825241088867, 9.374959945678711, -2.2486519813537598, 0.5036723613739014, 2.1720871925354004, 0.26733580231666565, 1.0959819555282593, 
281, 463501099, -80.74949645996094, -74.3985595703125, -43.476219177246094, 9.607906341552734, -2.482445240020752, 0.39201682806015015, 2.0164806842803955, 0.4136955142021179, 1.4599344730377197, 
282, 463509432, -80.74991607666016, -74.39521026611328, -43.47764205932617, 9.819677352905273, -2.8237905502319336, 0.3774603009223938, 1.9164825677871704, 0.5389747023582458, 1.6089069843292236, 
283, 463517765, -80.74622344970703, -74.39591217041016, -43.481300354003906, 9.679964065551758, -2.8640029430389404, 0.308807909488678, 2.1651713848114014, 0.5203787684440613, 1.1170111894607544, 
284, 463526098, -80.74212646484375, -74.39854431152344, -43.48407745361328, 9.257768630981445, -2.672743320465088, 0.5263485312461853, 2.3039493560791016, 0.4648471474647522, 0.8904533386230469, 
285, 463534431, -80.7420654296875, -74.40139770507812, -43.48416519165039, 9.257097244262695, -2.358619213104248, 0.3682861030101776, 2.167783737182617, 0.35900911688804626, 0.8876100182533264, 
286, 463542764, -80.74862670898438, -74.39942932128906, -43.47749328613281, 9.523394584655762, -2.3791563510894775, 0.5238052010536194, 2.1138148307800293, 0.2546311318874359, 1.4861379861831665, 
287, 463551097, -80.74788665771484, -74.39643096923828, -43.48073959350586, 9.867995262145996, -2.767246961593628, 0.37041035294532776, 1.9628958702087402, 0.5485288500785828, 1.5660288333892822, 
288, 463559430, -80.74417114257812, -74.39507293701172, -43.485191345214844, 9.804859161376953, -2.81868577003479, 0.41734856367111206, 2.068323850631714, 0.5940709114074707, 1.3557357788085938, 
289, 463567763, -80.73851776123047, -74.39697265625, -43.49043273925781, 9.372645378112793, -2.800412654876709, 0.3887363374233246, 2.1986749172210693, 0.5552909970283508, 0.9671679139137268, 
290, 463576096, -80.7363510131836, -74.4002685546875, -43.49113464355469, 9.17979621887207, -2.366363286972046, 0.45667707920074463, 2.3149633407592773, 0.38598087430000305, 0.8259053230285645, 
291, 463584429, -80.74256134033203, -74.39976501464844, -43.485084533691406, 9.383195877075195, -2.312861204147339, 0.6744012236595154, 2.1039533615112305, 0.23508745431900024, 1.3103474378585815, 
292, 463592762, -80.74617767333984, -74.39762878417969, -43.48208999633789, 9.757057189941406, -2.718261480331421, 0.1811012476682663, 2.042043685913086, 0.37391653656959534, 1.486573338508606, 
293, 463601095, -80.74471282958984, -74.39534759521484, -43.484886169433594, 9.89829158782959, -2.837996482849121, 0.5863950252532959, 2.0438363552093506, 0.538436770439148, 1.4821419715881348, 
294, 463609428, -80.73889923095703, -74.39678192138672, -43.48965072631836, 9.574934005737305, -2.934598684310913, 0.253826379776001, 2.273007392883301, 0.5535748600959778, 1.0266698598861694, 
295, 463617761, -80.73452758789062, -74.40010833740234, -43.49184036254883, 9.195845603942871, -2.546143054962158, 0.634128212928772, 2.365602493286133, 0.43516021966934204, 0.8170428276062012, 
296, 463626094, -80.73686218261719, -74.40140533447266, -43.48855209350586, 9.29554271697998, -2.301109552383423, 0.4132014811038971, 2.2370448112487793, 0.2988668978214264, 1.0820733308792114, 
297, 463634427, -80.73455047607422, -74.39928436279297, -43.49455642700195, 9.634130477905273, -2.464557409286499, 0.46468061208724976, 1.926702857017517, 0.5939173698425293, 1.4458211660385132, 
298, 463642760, -80.73700714111328, -74.39598846435547, -43.4935302734375, 9.85004997253418, -2.840390920639038, 0.4026259779930115, 1.9539052248001099, 0.4596986770629883, 1.616335153579712, 
299, 463651093, -80.73477172851562, -74.39678192138672, -43.49539566040039, 9.688775062561035, -2.9517362117767334, 0.25005903840065, 2.142143964767456, 0.4760661721229553, 1.1156535148620605, 
300, 463659426, -80.7304458618164, -74.3994140625, -43.49845504760742, 9.310163497924805, -2.6010220050811768, 0.6118019819259644, 2.295804023742676, 0.47486233711242676, 0.8908374905586243, 
301, 463667759, -80.7301025390625, -74.40067291259766, -43.49915313720703, 9.308038711547852, -2.3417203426361084, 0.4121374785900116, 2.2580997943878174, 0.3745313584804535, 1.0718790292739868, 
302, 463676092, -80.73715209960938, -74.3987808227539, -43.49138641357422, 9.455976486206055, -2.434842586517334, 0.5330166816711426, 2.183459997177124, 0.21702940762043, 1.4832178354263306, 
303, 463684425, -80.74021911621094, -74.3963851928711, -43.49092102050781, 9.859662055969238, -2.7378017902374268, 0.27630478143692017, 2.0202460289001465, 0.39561185240745544, 1.5163114070892334, 
304, 463692758, -80.73648071289062, -74.39543914794922, -43.49565505981445, 9.763629913330078, -2.7822444438934326, 0.4573047459125519, 2.031874895095825, 0.597375214099884, 1.306300401687622, 
305, 463701091, -80.72865295410156, -74.39635467529297, -43.503047943115234, 9.322352409362793, -2.8757286071777344, 0.384456992149353, 2.203566789627075, 0.6421232223510742, 1.0771809816360474, 
306, 463709424, -80.72860717773438, -74.39907836914062, -43.50190734863281, 9.224920272827148, -2.401076316833496, 0.5203335285186768, 2.267167091369629, 0.33974722027778625, 0.9014930129051208, 
307, 463717757, -80.7315902709961, -74.39797973632812, -43.49916076660156, 9.464614868164062, -2.255825996398926, 0.5743076205253601, 2.1322054862976074, 0.34548479318618774, 1.3678001165390015, 
308, 463726090, -80.73255920410156, -74.39404296875, -43.499488830566406, 9.802720069885254, -2.6922547817230225, 0.23767200112342834, 1.97350013256073, 0.5147181153297424, 1.6883881092071533, 
309, 463734423, -80.72785186767578, -74.390869140625, -43.50533676147461, 9.81358528137207, -2.801363706588745, 0.49442610144615173, 2.088533401489258, 0.6512418985366821, 1.5641075372695923, 
310, 463742756, -80.7230453491211, -74.39218139648438, -43.50923156738281, 9.488791465759277, -2.8594491481781006, 0.27555862069129944, 2.2613272666931152, 0.5258603096008301, 1.0422945022583008, 
311, 463751089, -80.71710205078125, -74.39524841308594, -43.5139274597168, 9.15188980102539, -2.4497408866882324, 0.583648681640625, 2.314220666885376, 0.5079047083854675, 0.8332822918891907, 
312, 463759422, -80.72578430175781, -74.39530181884766, -43.50410461425781, 9.293665885925293, -2.337064027786255, 0.5235281586647034, 2.227362632751465, 0.1135479062795639, 1.2623463869094849, 
313, 463767755, -80.72632598876953, -74.39224243164062, -43.50469207763672, 9.662592887878418, -2.5575077533721924, 0.34092429280281067, 2.0107431411743164, 0.49658313393592834, 1.5841892957687378, 
314, 463776088, -80.72901916503906, -74.38983154296875, -43.50360107421875, 9.905008316040039, -2.787297487258911, 0.5366547107696533, 1.9392281770706177, 0.4393097758293152, 1.5078332424163818, 
315, 463784421, -80.72187805175781, -74.38993835449219, -43.511085510253906, 9.666682243347168, -2.9190399646759033, 0.2689926028251648, 2.1631479263305664, 0.6475279331207275, 1.1700838804244995, 
316, 463792754, -80.71392059326172, -74.39271545410156, -43.51774597167969, 9.24083137512207, -2.5946457386016846, 0.5748776793479919, 2.3192408084869385, 0.5860024094581604, 0.8548494577407837, 
317, 463801087, -80.71830749511719, -74.39462280273438, -43.51343536376953, 9.224909782409668, -2.287710666656494, 0.3958362936973572, 2.1884546279907227, 0.2220498025417328, 1.0217262506484985, 
318, 463809420, -80.72689819335938, -74.39302825927734, -43.50529098510742, 9.481999397277832, -2.374901533126831, 0.5735086798667908, 2.044912576675415, 0.20004719495773315, 1.4522759914398193, 
319, 463817753, -80.72781372070312, -74.38867950439453, -43.505672454833984, 9.839689254760742, -2.822819232940674, 0.25294816493988037, 1.950549602508545, 0.5245539546012878, 1.7326750755310059, 
320, 463826086, -80.7256088256836, -74.38755798339844, -43.50864791870117, 9.811695098876953, -2.902956962585449, 0.43650761246681213, 2.0580782890319824, 0.5441744327545166, 1.334296703338623, 
321, 463834419, -80.71871948242188, -74.38943481445312, -43.51525115966797, 9.372162818908691, -2.8451004028320312, 0.48003414273262024, 2.2207798957824707, 0.5877442359924316, 0.9705491065979004, 
322, 463842752, -80.7154541015625, -74.39247131347656, -43.516380310058594, 9.229854583740234, -2.4319138526916504, 0.47524574398994446, 2.40071964263916, 0.4044487476348877, 0.8478055000305176, 
323, 463851085, -80.7238540649414, -74.3924789428711, -43.507240295410156, 9.398072242736816, -2.2816755771636963, 0.5795608162879944, 2.1858932971954346, 0.12771259248256683, 1.2744618654251099, 
324, 463859418, -80.7286605834961, -74.39022064208984, -43.50396728515625, 9.7905855178833, -2.6156325340270996, 0.27129244804382324, 1.9354630708694458, 0.36715444922447205, 1.499687910079956, 
325, 463867751, -80.72624969482422, -74.38867950439453, -43.507225036621094, 9.789480209350586, -2.804274797439575, 0.5385351181030273, 2.0159170627593994, 0.5637180209159851, 1.3836809396743774, 
326, 463876084, -80.72599029541016, -74.39110565185547, -43.50734329223633, 9.485074996948242, -2.903130531311035, 0.2242698073387146, 2.1463446617126465, 0.3860577344894409, 0.9283366799354553, 
327, 463884417, -80.7251968383789, -74.39462280273438, -43.506683349609375, 9.237541198730469, -2.4179534912109375, 0.6437325477600098, 2.236046075820923, 0.3508125841617584, 0.8097941279411316, 
328, 463892750, -80.7317886352539, -74.39412689208984, -43.49932861328125, 9.319522857666016, -2.320195198059082, 0.47115668654441833, 2.191220998764038, 0.2034282684326172, 1.3152655363082886, 
329, 463901083, -80.73578643798828, -74.39155578613281, -43.49581527709961, 9.627942085266113, -2.607166051864624, 0.40287211537361145, 2.034179925918579, 0.3668982982635498, 1.5354965925216675, 
330, 463909416, -80.73326873779297, -74.3886947631836, -43.4990119934082, 9.929773330688477, -2.735363245010376, 0.5512659549713135, 2.0528018474578857, 0.5881540775299072, 1.543898105621338, 
331, 463917749, -80.73112487792969, -74.38976287841797, -43.50164031982422, 9.6887788772583, -2.9101972579956055, 0.2921728491783142, 2.0473201274871826, 0.49630141258239746, 1.0794862508773804, 
332, 463926082, -80.7238998413086, -74.39293670654297, -43.50770568847656, 9.196110725402832, -2.703467607498169, 0.5373086333274841, 2.296597719192505, 0.5597734451293945, 0.8118943572044373, 
333, 463934415, -80.7286148071289, -74.3944320678711, -43.500911712646484, 9.27397346496582, -2.3186967372894287, 0.41473639011383057, 2.273263454437256, 0.1983054131269455, 1.076848030090332, 
334, 463942748, -80.73612213134766, -74.39218139648438, -43.49397659301758, 9.530680656433105, -2.339327573776245, 0.5477621555328369, 2.035460948944092, 0.24807389080524445, 1.520922064781189, 
335, 463951081, -80.73491668701172, -74.38839721679688, -43.49668884277344, 9.842723846435547, -2.8080732822418213, 0.3017691373825073, 1.9408930540084839, 0.5844655632972717, 1.6558576822280884, 
336, 463959414, -80.73421478271484, -74.38697814941406, -43.49824523925781, 9.810992240905762, -2.852586269378662, 0.43971341848373413, 2.0387649536132812, 0.5055481195449829, 1.3754843473434448, 
337, 463967747, -80.73089599609375, -74.38957214355469, -43.50185012817383, 9.393119812011719, -2.805659055709839, 0.42083901166915894, 2.1777992248535156, 0.4673573076725006, 0.9021590352058411, 
338, 463976080, -80.72843933105469, -74.39171600341797, -43.50282669067383, 9.19706916809082, -2.405064582824707, 0.3874436616897583, 2.3189592361450195, 0.4166411757469177, 0.9559745192527771, 
339, 463984413, -80.73060607910156, -74.3906478881836, -43.50050735473633, 9.38503360748291, -2.2684195041656494, 0.5573354363441467, 2.149905204772949, 0.36566880345344543, 1.359552264213562, 
340, 463992746, -80.7341537475586, -74.38773345947266, -43.498374938964844, 9.750975608825684, -2.6613917350769043, 0.24374224245548248, 1.9435570240020752, 0.41899770498275757, 1.579373836517334, 
341, 464001079, -80.73628234863281, -74.3857421875, -43.49455261230469, 9.851949691772461, -2.827091693878174, 0.48886585235595703, 2.0727808475494385, 0.4072663486003876, 1.4629826545715332, 
342, 464009412, -80.73051452636719, -74.38746643066406, -43.50065994262695, 9.543973922729492, -2.9514620304107666, 0.20640675723552704, 2.113020896911621, 0.5905874967575073, 0.9853284358978271, 
343, 464017745, -80.72821807861328, -74.39119720458984, -43.50214385986328, 9.206995010375977, -2.529118537902832, 0.5458690524101257, 2.262018918991089, 0.3896437883377075, 0.7715520262718201, 
344, 464026078, -80.7320556640625, -74.39130401611328, -43.49732208251953, 9.330799102783203, -2.3106396198272705, 0.4619804620742798, 2.2355082035064697, 0.2713828384876251, 1.230687141418457, 
345, 464034411, -80.7326889038086, -74.3891830444336, -43.49740982055664, 9.652631759643555, -2.5030786991119385, 0.4092663526535034, 2.073241949081421, 0.4566762149333954, 1.4747653007507324, 
346, 464042744, -80.73248291015625, -74.38594818115234, -43.49905014038086, 9.853700637817383, -2.7788584232330322, 0.4239729940891266, 1.9681721925735474, 0.5424069762229919, 1.5926932096481323, 
347, 464051077, -80.72626495361328, -74.38776397705078, -43.50638198852539, 9.650409698486328, -2.9116523265838623, 0.25467219948768616, 2.013432264328003, 0.6228356957435608, 0.971086859703064, 
348, 464059410, -80.7220687866211, -74.39020538330078, -43.51051712036133, 9.267163276672363, -2.61055064201355, 0.5842066407203674, 2.159228801727295, 0.513027548789978, 0.9017748236656189, 
349, 464067743, -80.72069549560547, -74.39142608642578, -43.511756896972656, 9.296026229858398, -2.3456695079803467, 0.40212270617485046, 2.184638023376465, 0.43003740906715393, 1.0720582008361816, 
350, 464076076, -80.7261962890625, -74.38943481445312, -43.50680923461914, 9.529439926147461, -2.3956027030944824, 0.5567448139190674, 2.041992664337158, 0.30824172496795654, 1.481066346168518, 
351, 464084409, -80.72700500488281, -74.3853530883789, -43.50696563720703, 9.900996208190918, -2.753284215927124, 0.3850432336330414, 2.015994071960449, 0.5071106553077698, 1.7060872316360474, 
352, 464092742, -80.72439575195312, -74.38477325439453, -43.50926971435547, 9.770787239074707, -2.8487589359283447, 0.44438353180885315, 2.176826000213623, 0.5125152468681335, 1.2768696546554565, 
353, 464101075, -80.71488952636719, -74.38679504394531, -43.518577575683594, 9.346430778503418, -2.8145647048950195, 0.434745192527771, 2.1769795417785645, 0.6864871382713318, 0.9282855987548828, 
354, 464109408, -80.7104263305664, -74.3900146484375, -43.52219772338867, 9.212142944335938, -2.3313145637512207, 0.5064771175384521, 2.251798629760742, 0.47988268733024597, 0.8182722926139832, 
355, 464117741, -80.71532440185547, -74.3880386352539, -43.51576232910156, 9.402234077453613, -2.2819159030914307, 0.6319165825843811, 2.1398134231567383, 0.29576757550239563, 1.4881871938705444, 
356, 464126074, -80.71724700927734, -74.38384246826172, -43.5155143737793, 9.734025001525879, -2.752234697341919, 0.25032949447631836, 1.934950590133667, 0.5005277395248413, 1.7150267362594604, 
357, 464134407, -80.71585083007812, -74.38145446777344, -43.51636505126953, 9.874114036560059, -2.7745232582092285, 0.5980465412139893, 2.1446032524108887, 0.5105941891670227, 1.498714566230774, 
358, 464142740, -80.70926666259766, -74.38288879394531, -43.5238151550293, 9.561676025390625, -2.907252550125122, 0.2468092441558838, 2.0620996952056885, 0.6372053027153015, 1.0089191198349, 
359, 464151073, -80.70421600341797, -74.38621520996094, -43.52863693237305, 9.150492668151855, -2.564767360687256, 0.6164388060569763, 2.208869218826294, 0.5035758018493652, 0.8003167510032654, 
360, 464159406, -80.7065200805664, -74.38722229003906, -43.526058197021484, 9.33891773223877, -2.2623887062072754, 0.5063570141792297, 2.151365280151367, 0.32752925157546997, 1.112964153289795, 
361, 464167739, -80.71137237548828, -74.3846435546875, -43.52267074584961, 9.64503288269043, -2.500528573989868, 0.36285632848739624, 1.9831053018569946, 0.34948062896728516, 1.5483548641204834, 
362, 464176072, -80.70915985107422, -74.38164520263672, -43.5261116027832, 9.762520790100098, -2.8149335384368896, 0.41492795944213867, 1.9989861249923706, 0.5951980352401733, 1.5551939010620117, 
363, 464184405, -80.70336151123047, -74.38141632080078, -43.53197479248047, 9.60894775390625, -2.8960201740264893, 0.23782891035079956, 2.0556962490081787, 0.6406888961791992, 1.213807463645935, 
364, 464192738, -80.69644927978516, -74.38418579101562, -43.53786849975586, 9.308676719665527, -2.5886027812957764, 0.6514812707901001, 2.280768394470215, 0.5617969632148743, 0.8565912246704102, 
365, 464201071, -80.69793701171875, -74.38491821289062, -43.534507751464844, 9.307398796081543, -2.3720526695251465, 0.35147666931152344, 2.178029775619507, 0.34843048453330994, 1.14585280418396, 
366, 464209404, -80.70425415039062, -74.3829116821289, -43.52949905395508, 9.526708602905273, -2.452343463897705, 0.5451077222824097, 1.9502935409545898, 0.3081904947757721, 1.482680082321167, 
367, 464217737, -80.71113586425781, -74.38027954101562, -43.52055358886719, 9.838289260864258, -2.733506917953491, 0.3159569203853607, 2.039712905883789, 0.2683091163635254, 1.5720480680465698, 
368, 464226070, -80.70689392089844, -74.38007354736328, -43.52621078491211, 9.7040376663208, -2.8449528217315674, 0.3688265383243561, 1.986153483390808, 0.6126669645309448, 1.2139867544174194, 
369, 464234403, -80.70279693603516, -74.38258361816406, -43.531978607177734, 9.306244850158691, -2.772467613220215, 0.4550888240337372, 2.188634157180786, 0.49443158507347107, 0.9032604098320007, 
370, 464242736, -80.7026596069336, -74.38557434082031, -43.53133010864258, 9.242828369140625, -2.345590591430664, 0.44686776399612427, 2.22180438041687, 0.34804627299308777, 0.8663503527641296, 
371, 464251069, -80.70891571044922, -74.38458251953125, -43.52545928955078, 9.459967613220215, -2.338088274002075, 0.6765792965888977, 2.002469539642334, 0.2715620994567871, 1.3650593757629395, 
372, 464259402, -80.71268463134766, -74.38233184814453, -43.523319244384766, 9.849910736083984, -2.69970703125, 0.18021763861179352, 1.921118974685669, 0.4052172005176544, 1.4988683462142944, 
373, 464267735, -80.70860290527344, -74.3810043334961, -43.52827072143555, 9.792276382446289, -2.8329617977142334, 0.5527710318565369, 1.9659181833267212, 0.6301870346069336, 1.3429031372070312, 
374, 464276068, -80.6990737915039, -74.38302612304688, -43.538177490234375, 9.427770614624023, -2.8740527629852295, 0.2905823886394501, 2.135202646255493, 0.7033156752586365, 0.9253655672073364, 
375, 464284401, -80.69730377197266, -74.38721466064453, -43.53999328613281, 9.189364433288574, -2.4088387489318848, 0.6339672207832336, 2.2436017990112305, 0.36892181634902954, 0.7237557768821716, 
376, 464292734, -80.70101165771484, -74.38751220703125, -43.53704071044922, 9.36960506439209, -2.3147757053375244, 0.4325459599494934, 2.0239086151123047, 0.3291172981262207, 1.1975679397583008, 
377, 464301067, -80.70499420166016, -74.38491821289062, -43.5333251953125, 9.694745063781738, -2.5968055725097656, 0.3499535620212555, 1.9487309455871582, 0.3923332095146179, 1.545614242553711, 
378, 464309400, -80.70579528808594, -74.38262939453125, -43.53367233276367, 9.903335571289062, -2.7995941638946533, 0.548256516456604, 1.990200400352478, 0.4857740104198456, 1.4887762069702148, 
379, 464317733, -80.70068359375, -74.3834457397461, -43.539852142333984, 9.622236251831055, -2.9125165939331055, 0.21315565705299377, 2.0283143520355225, 0.6027284860610962, 1.0958281755447388, 
380, 464326066, -80.69969177246094, -74.3873062133789, -43.53936767578125, 9.196484565734863, -2.6107337474823, 0.5487501621246338, 2.3100454807281494, 0.33672478795051575, 0.7613575458526611, 
381, 464334399, -80.70661926269531, -74.38906860351562, -43.528743743896484, 9.296226501464844, -2.278555393218994, 0.44903209805488586, 2.2857887744903564, 0.11667285114526749, 1.0593279600143433, 
382, 464342732, -80.71234130859375, -74.38634490966797, -43.52387237548828, 9.556496620178223, -2.442560911178589, 0.42922353744506836, 2.014098644256592, 0.32281622290611267, 1.5643895864486694, 
383, 464351065, -80.71019744873047, -74.38329315185547, -43.52870559692383, 9.846002578735352, -2.835935115814209, 0.30670928955078125, 2.0450661182403564, 0.5745272636413574, 1.563493013381958, 
384, 464359398, -80.70556640625, -74.38275909423828, -43.53443908691406, 9.747331619262695, -2.8347318172454834, 0.34862220287323, 2.0178892612457275, 0.6230663061141968, 1.2558404207229614, 
385, 464367731, -80.6971435546875, -74.38462829589844, -43.54213333129883, 9.312637329101562, -2.738633871078491, 0.4944394826889038, 2.2245965003967285, 0.6382042169570923, 0.9587152600288391, 
386, 464376064, -80.69599151611328, -74.38761901855469, -43.54240798950195, 9.249932289123535, -2.3857550621032715, 0.3978985548019409, 2.2401697635650635, 0.37939801812171936, 0.8585890531539917, 
387, 464384397, -80.70218658447266, -74.38634490966797, -43.5355224609375, 9.501282691955566, -2.309534788131714, 0.5926364660263062, 2.1905548572540283, 0.225200355052948, 1.4120357036590576, 
388, 464392730, -80.70664978027344, -74.3833999633789, -43.5328483581543, 9.83394718170166, -2.736029624938965, 0.24944345653057098, 1.904239296913147, 0.3991210460662842, 1.5797325372695923, 
389, 464401063, -80.70317077636719, -74.3826904296875, -43.5407829284668, 9.74525260925293, -2.9056265354156494, 0.43580400943756104, 2.0323359966278076, 0.5801880955696106, 1.2820693254470825, 
390, 464409396, -80.69779968261719, -74.38497924804688, -43.5455436706543, 9.438159942626953, -2.844034194946289, 0.3260343372821808, 2.2269527912139893, 0.5359266400337219, 0.9212158918380737, 
391, 464417729, -80.69556427001953, -74.38834381103516, -43.548194885253906, 9.231916427612305, -2.363192319869995, 0.5257186889648438, 2.2897331714630127, 0.386544406414032, 0.8174014687538147, 
392, 464426062, -80.7031478881836, -74.38863372802734, -43.54018020629883, 9.352229118347168, -2.3544321060180664, 0.5750651359558105, 2.147318124771118, 0.16610832512378693, 1.2235920429229736, 
393, 464434395, -80.70996856689453, -74.386474609375, -43.53361129760742, 9.745176315307617, -2.647566556930542, 0.28973257541656494, 2.087841749191284, 0.25109636783599854, 1.5178483724594116, 
394, 464442728, -80.70864868164062, -74.38439178466797, -43.53496551513672, 9.920530319213867, -2.75514817237854, 0.5939335823059082, 2.129260301589966, 0.5124384164810181, 1.4583466053009033, 
395, 464451061, -80.70219421386719, -74.38623809814453, -43.54118728637695, 9.554292678833008, -2.9121532440185547, 0.2334030121564865, 2.1613802909851074, 0.5922779440879822, 0.9700621962547302, 
396, 464459394, -80.6985855102539, -74.38948059082031, -43.54390335083008, 9.13611125946045, -2.566291332244873, 0.6349977850914001, 2.251312017440796, 0.4521169066429138, 0.8177345395088196, 
397, 464467727, -80.70211791992188, -74.38971710205078, -43.541656494140625, 9.314035415649414, -2.236625909805298, 0.41542795300483704, 2.195524215698242, 0.28178220987319946, 1.2147808074951172, 
398, 464476060, -80.7084732055664, -74.3868179321289, -43.536312103271484, 9.615938186645508, -2.415975332260132, 0.544999361038208, 1.9798011779785156, 0.31590035557746887, 1.5933079719543457, 
399, 464484393, -80.70904541015625, -74.38243865966797, -43.53688430786133, 9.856853485107422, -2.8035523891448975, 0.37408778071403503, 1.9893553256988525, 0.5283448100090027, 1.7363632917404175, 
400, 464492726, -80.7090072631836, -74.3824234008789, -43.536964416503906, 9.681533813476562, -2.9335219860076904, 0.37189939618110657, 2.1282358169555664, 0.4307289719581604, 1.2201085090637207, 
401, 464501059, -80.70637512207031, -74.38566589355469, -43.539608001708984, 9.314092636108398, -2.6770882606506348, 0.5624372959136963, 2.212249994277954, 0.4239412248134613, 0.8234207630157471, 
402, 464509392, -80.70909118652344, -74.3867416381836, -43.53567123413086, 9.23372745513916, -2.3062949180603027, 0.4428236186504364, 2.2600462436676025, 0.28188464045524597, 1.1099417209625244, 
403, 464517725, -80.71503448486328, -74.38473510742188, -43.53162384033203, 9.42917251586914, -2.399615526199341, 0.5321886539459229, 2.0481655597686768, 0.2879296541213989, 1.48800790309906, 
404, 464526058, -80.71785736083984, -74.3818359375, -43.52956771850586, 9.786026000976562, -2.7692818641662598, 0.28077349066734314, 2.0214242935180664, 0.41948434710502625, 1.5759159326553345, 
405, 464534391, -80.71408081054688, -74.37979125976562, -43.534088134765625, 9.807539939880371, -2.792489767074585, 0.5063035488128662, 2.093681812286377, 0.5990144610404968, 1.4398273229599, 
406, 464542724, -80.712646484375, -74.38126373291016, -43.534584045410156, 9.408614158630371, -2.892057418823242, 0.3421703577041626, 2.2376081943511963, 0.4171534478664398, 1.044369101524353, 
407, 464551057, -80.70918273925781, -74.38497161865234, -43.53733444213867, 9.210872650146484, -2.423868417739868, 0.5234249830245972, 2.345341920852661, 0.40565264225006104, 0.7712703347206116, 
408, 464559390, -80.71194458007812, -74.38514709472656, -43.53400802612305, 9.409727096557617, -2.2378482818603516, 0.6131522059440613, 2.180591106414795, 0.3212280869483948, 1.2152161598205566, 
409, 464567723, -80.71796417236328, -74.38224792480469, -43.529232025146484, 9.718526840209961, -2.6322782039642334, 0.21977093815803528, 1.913895606994629, 0.3397984206676483, 1.5845990180969238, 
410, 464576056, -80.7150650024414, -74.3802261352539, -43.53343200683594, 9.79684829711914, -2.8452258110046387, 0.4673698842525482, 1.9956306219100952, 0.6018064022064209, 1.43747079372406, 
411, 464584389, -80.70992279052734, -74.38179779052734, -43.538482666015625, 9.551300048828125, -2.8725461959838867, 0.2745709717273712, 2.2396061420440674, 0.5310087203979492, 1.0119928121566772, 
412, 464592722, -80.7056884765625, -74.38477325439453, -43.54198455810547, 9.221090316772461, -2.526931047439575, 0.6449450254440308, 2.2346115112304688, 0.48162445425987244, 0.8476262092590332, 
413, 464601055, -80.70853424072266, -74.38603210449219, -43.53914260864258, 9.310433387756348, -2.3591232299804688, 0.4216231107711792, 2.156846761703491, 0.29517844319343567, 1.0872474908828735, 
414, 464609388, -80.7142562866211, -74.38475036621094, -43.5344352722168, 9.640386581420898, -2.4988338947296143, 0.4908565282821655, 1.9774445295333862, 0.30806243419647217, 1.4003559350967407, 
415, 464617721, -80.71366882324219, -74.38202667236328, -43.53731918334961, 9.89268970489502, -2.8061881065368652, 0.4976832866668701, 1.9765225648880005, 0.5365926623344421, 1.5263011455535889, 
416, 464626054, -80.71053314208984, -74.38235473632812, -43.54097366333008, 9.672304153442383, -2.914309024810791, 0.2641640603542328, 2.0799529552459717, 0.540229856967926, 1.162450909614563, 
417, 464634387, -80.70557403564453, -74.38648986816406, -43.5461311340332, 9.262054443359375, -2.6246964931488037, 0.5421993732452393, 2.220984697341919, 0.48154765367507935, 0.7125624418258667, 
418, 464642720, -80.7079849243164, -74.38866424560547, -43.5433349609375, 9.280378341674805, -2.320777654647827, 0.3892556130886078, 2.166451930999756, 0.297176331281662, 0.9777977466583252, 
419, 464651053, -80.71939849853516, -74.38658142089844, -43.531639099121094, 9.440113067626953, -2.4052670001983643, 0.6021462082862854, 2.118758201599121, 0.08883016556501389, 1.5277098417282104, 
420, 464659386, -80.72347259521484, -74.38373565673828, -43.528564453125, 9.864449501037598, -2.7401747703552246, 0.24321238696575165, 2.0017526149749756, 0.3835219442844391, 1.5708441734313965, 
421, 464667719, -80.72150421142578, -74.38292694091797, -43.532188415527344, 9.8479642868042, -2.7897872924804688, 0.47904765605926514, 2.0643537044525146, 0.5196871757507324, 1.3030216693878174, 
422, 464676052, -80.71694946289062, -74.3847885131836, -43.53760528564453, 9.374846458435059, -2.900010585784912, 0.4182741343975067, 2.0559775829315186, 0.5632826089859009, 0.9662201404571533, 
423, 464684385, -80.71707153320312, -74.38710021972656, -43.5357551574707, 9.20111083984375, -2.417253255844116, 0.5101767778396606, 2.3497984409332275, 0.31431224942207336, 0.9619169235229492, 
424, 464692718, -80.72737121582031, -74.3860855102539, -43.525634765625, 9.432315826416016, -2.2497618198394775, 0.5157521963119507, 2.06712007522583, 0.12312763184309006, 1.3889832496643066, 
425, 464701051, -80.73149871826172, -74.38311767578125, -43.52284622192383, 9.748763084411621, -2.6462631225585938, 0.2654075622558594, 1.974191665649414, 0.38598090410232544, 1.5936152935028076, 
426, 464709384, -80.73249053955078, -74.38111877441406, -43.52318572998047, 9.799670219421387, -2.8620622158050537, 0.5266213417053223, 1.9731158018112183, 0.4789094030857086, 1.4525833129882812, 
427, 464717717, -80.72846984863281, -74.3828353881836, -43.527889251708984, 9.550140380859375, -2.911973714828491, 0.23493647575378418, 2.07956862449646, 0.5341079831123352, 0.9930382370948792, 
428, 464726050, -80.72908020019531, -74.38631439208984, -43.52617263793945, 9.261453628540039, -2.4465227127075195, 0.6174764037132263, 2.2511837482452393, 0.30726832151412964, 0.8208337426185608, 
429, 464734383, -80.7355728149414, -74.38715362548828, -43.520565032958984, 9.327681541442871, -2.324390172958374, 0.47826287150382996, 2.192988395690918, 0.1738182008266449, 1.1563290357589722, 
430, 464742716, -80.74354553222656, -74.3840560913086, -43.51312255859375, 9.600955963134766, -2.558969020843506, 0.3640560805797577, 2.0341286659240723, 0.2505328357219696, 1.624249815940857, 
431, 464751049, -80.74516296386719, -74.3814926147461, -43.512176513671875, 9.872902870178223, -2.7633132934570312, 0.46410486102104187, 2.0730626583099365, 0.4337770938873291, 1.5314240455627441, 
432, 464759382, -80.74185943603516, -74.38172912597656, -43.515865325927734, 9.663700103759766, -2.8596866130828857, 0.25416088104248047, 2.1051058769226074, 0.5410494804382324, 1.168188452720642, 
433, 464767715, -80.7382583618164, -74.38456726074219, -43.519718170166016, 9.241013526916504, -2.688946008682251, 0.557892382144928, 2.2266452312469482, 0.4598267376422882, 0.8726513385772705, 
434, 464776048, -80.74152374267578, -74.38623809814453, -43.5151252746582, 9.271100044250488, -2.322338581085205, 0.4204377830028534, 2.2669625282287598, 0.2508402168750763, 1.0442668199539185, 
435, 464784381, -80.74658203125, -74.38433074951172, -43.51027297973633, 9.556804656982422, -2.3705086708068848, 0.5386524796485901, 2.1059510707855225, 0.2989949882030487, 1.4749703407287598, 
436, 464792714, -80.7474136352539, -74.3809585571289, -43.51033020019531, 9.844762802124023, -2.8125650882720947, 0.2616002857685089, 2.0285964012145996, 0.4947902262210846, 1.6164631843566895, 
437, 464801047, -80.74124145507812, -74.37973022460938, -43.51514434814453, 9.724491119384766, -2.8869380950927734, 0.39821434020996094, 2.0346925258636475, 0.6781625747680664, 1.3299167156219482, 
438, 464809380, -80.73787689208984, -74.38111877441406, -43.517887115478516, 9.335558891296387, -2.760690689086914, 0.4167488217353821, 2.2125062942504883, 0.4899490475654602, 1.0420382022857666, 
439, 464817713, -80.73917388916016, -74.38336944580078, -43.517513275146484, 9.232709884643555, -2.364321231842041, 0.4151390790939331, 2.2176036834716797, 0.3121863305568695, 0.963377058506012, 
440, 464826046, -80.74596405029297, -74.38221740722656, -43.510719299316406, 9.384082794189453, -2.367295742034912, 0.5670844316482544, 2.10666823387146, 0.23349936306476593, 1.3913394212722778, 
441, 464834379, -80.7506332397461, -74.38020324707031, -43.50732421875, 9.80622386932373, -2.697551727294922, 0.2611211836338043, 1.988919734954834, 0.34389668703079224, 1.479606032371521, 
442, 464842712, -80.74972534179688, -74.37875366210938, -43.5088996887207, 9.861811637878418, -2.776357889175415, 0.5710324048995972, 2.0577452182769775, 0.5071618556976318, 1.381350040435791, 
443, 464851045, -80.74598693847656, -74.38046264648438, -43.51145553588867, 9.473270416259766, -2.9186346530914307, 0.2220502346754074, 2.1395058631896973, 0.5093390345573425, 0.9996211528778076, 
444, 464859378, -80.74451446533203, -74.38406372070312, -43.51192092895508, 9.183655738830566, -2.451371431350708, 0.5955643653869629, 2.2562553882598877, 0.3722260594367981, 0.788815975189209, 
445, 464867711, -80.75125122070312, -74.38504028320312, -43.50486373901367, 9.359978675842285, -2.2866978645324707, 0.4812091588973999, 2.1240603923797607, 0.18180982768535614, 1.142932653427124, 
446, 464876044, -80.75723266601562, -74.38314819335938, -43.499759674072266, 9.647193908691406, -2.5650227069854736, 0.35462048649787903, 2.0066702365875244, 0.301172137260437, 1.4679005146026611, 
447, 464884377, -80.75732421875, -74.37984466552734, -43.4997673034668, 9.864462852478027, -2.7953853607177734, 0.43177250027656555, 2.0121006965637207, 0.5156401991844177, 1.6123906373977661, 
448, 464892710, -80.75375366210938, -74.38108825683594, -43.50396728515625, 9.607033729553223, -2.894237756729126, 0.2661094069480896, 2.0772886276245117, 0.5375915765762329, 1.047827124595642, 
449, 464901043, -80.74990844726562, -74.38387298583984, -43.50536346435547, 9.213186264038086, -2.6568691730499268, 0.6021236777305603, 2.256230115890503, 0.4605439603328705, 0.8763141632080078, 
450, 464909376, -80.74966430664062, -74.38631439208984, -43.50487518310547, 9.340572357177734, -2.3355157375335693, 0.39852872490882874, 2.2176804542541504, 0.36515653133392334, 0.9323069453239441, 
451, 464917709, -80.75247955322266, -74.38481140136719, -43.50028610229492, 9.59060001373291, -2.410350799560547, 0.5485926270484924, 2.0115113258361816, 0.393280953168869, 1.4116772413253784, 
452, 464926042, -80.75297546386719, -74.38190460205078, -43.50127029418945, 9.838298797607422, -2.8322551250457764, 0.3196389377117157, 1.9682235717773438, 0.5140008926391602, 1.5534266233444214, 
453, 464934375, -80.74764251708984, -74.3818588256836, -43.50768280029297, 9.68028736114502, -2.878692865371704, 0.34737080335617065, 2.1442956924438477, 0.5945832133293152, 1.1977728605270386, 
454, 464942708, -80.74439239501953, -74.38471984863281, -43.50962829589844, 9.310131072998047, -2.6953494548797607, 0.4483618438243866, 2.298877716064453, 0.43300867080688477, 0.871780514717102, 
455, 464951041, -80.74130249023438, -74.38677215576172, -43.51177215576172, 9.229070663452148, -2.3252346515655518, 0.45732325315475464, 2.188045024871826, 0.470098078250885, 0.9668861627578735, 
456, 464959374, -80.74908447265625, -74.38507080078125, -43.503910064697266, 9.466771125793457, -2.38576602935791, 0.5648086667060852, 2.101186990737915, 0.21075394749641418, 1.4614202976226807, 
457, 464967707, -80.75688934326172, -74.38224792480469, -43.49726867675781, 9.86153793334961, -2.7447688579559326, 0.24148525297641754, 1.973038911819458, 0.26290449500083923, 1.588876485824585, 
458, 464976040, -80.75382995605469, -74.38091278076172, -43.501346588134766, 9.846822738647461, -2.796889066696167, 0.5075820684432983, 2.0211427211761475, 0.5861049294471741, 1.3594499826431274, 
459, 464984373, -80.7491226196289, -74.38331604003906, -43.50468444824219, 9.432265281677246, -2.9097390174865723, 0.31742480397224426, 2.188429117202759, 0.5158451199531555, 0.9089468717575073, 
460, 464992706, -80.74720001220703, -74.3866958618164, -43.5048713684082, 9.184802055358887, -2.427206039428711, 0.5146724581718445, 2.342806100845337, 0.368358314037323, 0.8187334537506104, 
461, 465001039, -80.75350189208984, -74.38713836669922, -43.49681854248047, 9.370888710021973, -2.275381565093994, 0.5496012568473816, 2.181487798690796, 0.1893148124217987, 1.206865906715393, 
462, 465009372, -80.76103210449219, -74.3842544555664, -43.49070739746094, 9.72447681427002, -2.6070027351379395, 0.2741878032684326, 1.9430699348449707, 0.28751975297927856, 1.5851624011993408, 
463, 465017705, -80.7587890625, -74.38243103027344, -43.493465423583984, 9.85519027709961, -2.8715224266052246, 0.5076600909233093, 2.0832314491271973, 0.5440464019775391, 1.4323482513427734, 
464, 465026038, -80.75675964355469, -74.38488006591797, -43.49650573730469, 9.610280990600586, -2.9551212787628174, 0.18596363067626953, 2.0223207473754883, 0.47808972001075745, 0.9121230244636536, 
465, 465034371, -80.7518310546875, -74.38875579833984, -43.50001907348633, 9.264798164367676, -2.4975149631500244, 0.6814193725585938, 2.337017297744751, 0.4551137685775757, 0.7460145950317383, 
466, 465042704, -80.75276184082031, -74.39019012451172, -43.49946212768555, 9.295132637023926, -2.3115663528442383, 0.34955036640167236, 2.0843584537506104, 0.3819594383239746, 1.0498762130737305, 
467, 465051037, -80.76002502441406, -74.38839721679688, -43.4920768737793, 9.554444313049316, -2.4702866077423096, 0.5046795606613159, 2.1012895107269287, 0.22578948736190796, 1.4711536169052124, 
468, 465059370, -80.75993347167969, -74.3846435546875, -43.4930534362793, 9.871746063232422, -2.743443012237549, 0.3522259294986725, 2.024446725845337, 0.5326992869377136, 1.6601353883743286, 
469, 465067703, -80.75799560546875, -74.38382720947266, -43.49594497680664, 9.694595336914062, -2.853376626968384, 0.36191102862358093, 2.0419669151306152, 0.5264750123023987, 1.3056598901748657, 
470, 465076036, -80.75234985351562, -74.38581085205078, -43.50027847290039, 9.261091232299805, -2.7429704666137695, 0.4602801203727722, 2.3099687099456787, 0.5265006422996521, 0.9631465673446655, 
471, 465084369, -80.75263977050781, -74.38738250732422, -43.497840881347656, 9.289656639099121, -2.2814693450927734, 0.46990665793418884, 2.27984619140625, 0.34164267778396606, 1.0374277830123901, 
472, 465092702, -80.76168060302734, -74.3853988647461, -43.48905563354492, 9.493851661682129, -2.328179121017456, 0.5330477356910706, 2.0632779598236084, 0.1846017837524414, 1.4972801208496094, 
473, 465101035, -80.76712799072266, -74.38177490234375, -43.483238220214844, 9.777351379394531, -2.760693311691284, 0.26102277636528015, 1.9684027433395386, 0.35711365938186646, 1.6736598014831543, 
474, 465109368, -80.76478576660156, -74.38065338134766, -43.485877990722656, 9.744561195373535, -2.787729263305664, 0.454438716173172, 2.1053621768951416, 0.5337750911712646, 1.3347834348678589, 
475, 465117701, -80.76008605957031, -74.38272094726562, -43.4906120300293, 9.37316608428955, -2.8059048652648926, 0.3527123034000397, 2.1754939556121826, 0.5269873142242432, 0.957741916179657, 
476, 465126034, -80.75711822509766, -74.38520050048828, -43.49254608154297, 9.178702354431152, -2.4304609298706055, 0.5010971426963806, 2.2661681175231934, 0.43936097621917725, 0.9149148464202881, 
477, 465134367, -80.76609802246094, -74.3841323852539, -43.48301315307617, 9.439172744750977, -2.3168394565582275, 0.5505309700965881, 2.1570773124694824, 0.1400074064731598, 1.393798589706421, 
478, 465142700, -80.77176666259766, -74.38166809082031, -43.479026794433594, 9.79404067993164, -2.6854629516601562, 0.27696493268013, 1.9074409008026123, 0.34863534569740295, 1.5353941917419434, 
479, 465151033, -80.77043914794922, -74.3794937133789, -43.481998443603516, 9.846185684204102, -2.827073335647583, 0.5074976682662964, 2.079338312149048, 0.5222486257553101, 1.4704622030258179, 
480, 465159366, -80.7677230834961, -74.3812255859375, -43.48465347290039, 9.51291561126709, -2.868919610977173, 0.2304219901561737, 2.151954412460327, 0.479729026556015, 0.997853696346283, 
481, 465167699, -80.7632827758789, -74.38459777832031, -43.48814010620117, 9.174482345581055, -2.4437472820281982, 0.6113762259483337, 2.3209571838378906, 0.4531414806842804, 0.8081035614013672, 
482, 465176032, -80.7684555053711, -74.3852767944336, -43.483028411865234, 9.279075622558594, -2.32010555267334, 0.5178300142288208, 2.09311842918396, 0.25299182534217834, 1.1685726642608643, 
483, 465184365, -80.77560424804688, -74.38285064697266, -43.47713851928711, 9.663500785827637, -2.5651776790618896, 0.3681787848472595, 2.015738010406494, 0.26408278942108154, 1.538698434829712, 
484, 465192698, -80.77786254882812, -74.3797607421875, -43.47547912597656, 9.924771308898926, -2.8128504753112793, 0.49511510133743286, 2.050957441329956, 0.4350321590900421, 1.5922578573226929, 
485, 465201031, -80.7719497680664, -74.38153076171875, -43.480342864990234, 9.695178985595703, -2.908893585205078, 0.2892455458641052, 2.176006317138672, 0.5714792013168335, 0.9837403893470764, 
486, 465209364, -80.76930236816406, -74.38505554199219, -43.48176193237305, 9.242403030395508, -2.70017409324646, 0.6312001347541809, 2.2797181606292725, 0.40580636262893677, 0.7967051863670349, 
487, 465217697, -80.77143096923828, -74.38755798339844, -43.47826385498047, 9.242081642150879, -2.343010425567627, 0.312433660030365, 2.2401957511901855, 0.2745845913887024, 0.9395301938056946, 
488, 465226030, -80.77660369873047, -74.38597106933594, -43.473846435546875, 9.507588386535645, -2.360196828842163, 0.644661545753479, 2.019272565841675, 0.3176421523094177, 1.4304783344268799, 
489, 465234363, -80.78005981445312, -74.38300323486328, -43.472782135009766, 9.85372257232666, -2.8054299354553223, 0.2110934555530548, 1.9667119979858398, 0.4098789393901825, 1.5814995765686035, 
490, 465242696, -80.77806854248047, -74.3829345703125, -43.47551727294922, 9.745138168334961, -2.9079298973083496, 0.4328199625015259, 2.0470128059387207, 0.5187907218933105, 1.2163944244384766, 
491, 465251029, -80.7727279663086, -74.3854751586914, -43.479759216308594, 9.401841163635254, -2.789306879043579, 0.4025121033191681, 2.279205799102783, 0.5091341733932495, 0.896984875202179, 
492, 465259362, -80.77201080322266, -74.38823699951172, -43.4793701171875, 9.264870643615723, -2.3534841537475586, 0.5691443085670471, 2.2687554359436035, 0.3614424765110016, 0.8920157551765442, 
493, 465267695, -80.78260040283203, -74.38739776611328, -43.46918869018555, 9.404500961303711, -2.350430965423584, 0.49935945868492126, 2.083846092224121, 0.10053587704896927, 1.370797038078308, 
494, 465276028, -80.78618621826172, -74.38489532470703, -43.46648406982422, 9.76734447479248, -2.674668788909912, 0.2904242277145386, 2.0107944011688232, 0.39238449931144714, 1.5340880155563354, 
495, 465284361, -80.7844467163086, -74.38385009765625, -43.468570709228516, 9.822476387023926, -2.7697463035583496, 0.5458053350448608, 2.148240089416504, 0.4934070110321045, 1.3357055187225342, 
496, 465292694, -80.77981567382812, -74.38549041748047, -43.4739990234375, 9.461057662963867, -2.9266488552093506, 0.19391776621341705, 2.062201976776123, 0.570377767086029, 0.9961374402046204, 
497, 465301027, -80.77886199951172, -74.38947296142578, -43.475852966308594, 9.202577590942383, -2.4474990367889404, 0.5650234222412109, 2.2886576652526855, 0.3315506875514984, 0.7516241073608398, 
498, 465309360, -80.7867660522461, -74.38956451416016, -43.46753692626953, 9.374604225158691, -2.2423369884490967, 0.5178479552268982, 2.147599935531616, 0.16111356019973755, 1.2482585906982422, 
499, 465317693, -80.79415893554688, -74.38606262207031, -43.462528228759766, 9.682584762573242, -2.6000053882598877, 0.3409174382686615, 1.9298276901245117, 0.3008647859096527, 1.6700737476348877, 
500, 465326026, -80.79306030273438, -74.38304138183594, -43.46479797363281, 9.86936092376709, -2.8222367763519287, 0.4351194202899933, 1.9987810850143433, 0.5589281916618347, 1.5635952949523926, 
501, 465334359, -80.7889175415039, -74.3840560913086, -43.46925735473633, 9.645025253295898, -2.8565378189086914, 0.26589512825012207, 2.151083469390869, 0.5342617034912109, 1.0847116708755493, 
502, 465342692, -80.78453826904297, -74.38755798339844, -43.472110748291016, 9.227088928222656, -2.593712091445923, 0.5573526620864868, 2.3304598331451416, 0.4506824016571045, 0.7877657413482666, 
503, 465351025, -80.78791046142578, -74.38874053955078, -43.467742919921875, 9.250617027282715, -2.324594020843506, 0.3538135588169098, 2.270573854446411, 0.25286373496055603, 1.1057409048080444, 
504, 465359358, -80.79669952392578, -74.38729095458984, -43.459007263183594, 9.57951545715332, -2.3741328716278076, 0.5354052782058716, 2.0833849906921387, 0.17650768160820007, 1.4365230798721313, 
505, 465367691, -80.79793548583984, -74.38323211669922, -43.45766830444336, 9.879892349243164, -2.7819736003875732, 0.3361327052116394, 1.9564409255981445, 0.5074179768562317, 1.700119137763977, 
506, 465376024, -80.7967529296875, -74.38227844238281, -43.45848083496094, 9.742807388305664, -2.8952150344848633, 0.37135282158851624, 2.1792078018188477, 0.4727874994277954, 1.3289176225662231, 
507, 465384357, -80.78846740722656, -74.3836669921875, -43.4651985168457, 9.333968162536621, -2.742661952972412, 0.4339521825313568, 2.2548978328704834, 0.6350281238555908, 1.0143237113952637, 
508, 465392690, -80.78514099121094, -74.3858871459961, -43.467376708984375, 9.200324058532715, -2.33109974861145, 0.43198516964912415, 2.277617931365967, 0.4550369083881378, 0.9464460611343384, 
509, 465401023, -80.7888412475586, -74.38421630859375, -43.46489334106445, 9.392316818237305, -2.3413820266723633, 0.609536349773407, 2.090506076812744, 0.3425903618335724, 1.436497449874878, 
510, 465409356, -80.79338073730469, -74.38178253173828, -43.460914611816406, 9.788885116577148, -2.7083466053009033, 0.17863771319389343, 2.0425050258636475, 0.35001853108406067, 1.5297077894210815, 
511, 465417689, -80.79322052001953, -74.3797607421875, -43.463375091552734, 9.851497650146484, -2.8010799884796143, 0.5247902870178223, 2.012331008911133, 0.4982992708683014, 1.4564509391784668, 
512, 465426022, -80.78628540039062, -74.38097381591797, -43.470088958740234, 9.467592239379883, -2.91459584236145, 0.2781795561313629, 2.1905038356781006, 0.6173030734062195, 1.0438569784164429, 
513, 465434355, -80.78231811523438, -74.38375854492188, -43.473575592041016, 9.194637298583984, -2.483994483947754, 0.5871598124504089, 2.2675259113311768, 0.4630797803401947, 0.873394250869751, 
514, 465442688, -80.787109375, -74.38292694091797, -43.468929290771484, 9.360051155090332, -2.287724733352661, 0.469448059797287, 2.098522901535034, 0.29522964358329773, 1.3405978679656982, 
515, 465451021, -80.79268646240234, -74.38050079345703, -43.462852478027344, 9.711332321166992, -2.574974298477173, 0.39884912967681885, 2.079030752182007, 0.29848265647888184, 1.533191204071045, 
516, 465459354, -80.79234313964844, -74.37749481201172, -43.46392822265625, 9.86111068725586, -2.8274824619293213, 0.4602523446083069, 2.0404810905456543, 0.5215827226638794, 1.576786756515503, 
517, 465467687, -80.78461456298828, -74.37825775146484, -43.47574996948242, 9.58477783203125, -2.9327635765075684, 0.24942569434642792, 2.069220781326294, 0.6820046305656433, 1.0865814685821533, 
518, 465476020, -80.77955627441406, -74.38196563720703, -43.4796257019043, 9.233847618103027, -2.557849884033203, 0.6030306816101074, 2.2920641899108887, 0.4807279706001282, 0.7571568489074707, 
519, 465484353, -80.784423828125, -74.383056640625, -43.47492218017578, 9.296835899353027, -2.3054001331329346, 0.4310801923274994, 2.2017483711242676, 0.2168501317501068, 1.1246185302734375, 
520, 465492686, -80.79104614257812, -74.380859375, -43.46864318847656, 9.547079086303711, -2.5060181617736816, 0.4703086018562317, 2.0612542629241943, 0.2712291479110718, 1.5103946924209595, 
521, 465501019, -80.79401397705078, -74.37751007080078, -43.465938568115234, 9.897377014160156, -2.777592658996582, 0.41918063163757324, 2.127134084701538, 0.3907707631587982, 1.6291676759719849, 
522, 465509352, -80.79287719726562, -74.37760925292969, -43.46766662597656, 9.78734302520752, -2.8452062606811523, 0.3932013511657715, 2.0623812675476074, 0.48300760984420776, 1.2022039890289307, 
523, 465517685, -80.7881088256836, -74.37957763671875, -43.47276306152344, 9.279614448547363, -2.8525924682617188, 0.47689998149871826, 2.19262957572937, 0.5221717357635498, 0.9652724266052246, 
524, 465526018, -80.79157257080078, -74.3821029663086, -43.46697235107422, 9.15676212310791, -2.362095594406128, 0.40915074944496155, 2.385274648666382, 0.19546224176883698, 0.9486744403839111, 
525, 465534351, -80.80032348632812, -74.3810043334961, -43.45864486694336, 9.45671272277832, -2.2243151664733887, 0.6969619393348694, 2.0755984783172607, 0.16823430359363556, 1.4017390012741089, 
526, 465542684, -80.80623626708984, -74.37737274169922, -43.454673767089844, 9.797060012817383, -2.7547481060028076, 0.21660377085208893, 1.881724238395691, 0.37138083577156067, 1.6690236330032349, 
527, 465551017, -80.80400085449219, -74.37522888183594, -43.45833206176758, 9.80370807647705, -2.8932554721832275, 0.5241405963897705, 2.0497536659240723, 0.5596198439598083, 1.4643148183822632, 
528, 465559350, -80.79920959472656, -74.37710571289062, -43.4627685546875, 9.51193904876709, -2.8296358585357666, 0.3073992133140564, 2.198136806488037, 0.5336469411849976, 0.9710612297058105, 
529, 465567683, -80.79422760009766, -74.38030242919922, -43.46653366088867, 9.199898719787598, -2.4603161811828613, 0.5651827454566956, 2.3617348670959473, 0.4626955986022949, 0.8250601291656494, 
530, 465576016, -80.79891204833984, -74.38030242919922, -43.46149444580078, 9.272353172302246, -2.35660719871521, 0.49671509861946106, 2.15720534324646, 0.2651841640472412, 1.2395752668380737, 
531, 465584349, -80.80440521240234, -74.37815856933594, -43.4563102722168, 9.68745231628418, -2.5618720054626465, 0.3113166093826294, 2.071218490600586, 0.2981241047382355, 1.5107789039611816, 
532, 465592682, -80.8062515258789, -74.37545013427734, -43.45590591430664, 9.873780250549316, -2.7877795696258545, 0.5441153645515442, 1.9565176963806152, 0.46651211380958557, 1.5404914617538452, 
533, 465601015, -80.80146789550781, -74.37669372558594, -43.462310791015625, 9.628644943237305, -2.9644315242767334, 0.21135303378105164, 1.959488868713379, 0.605469286441803, 1.039886713027954, 
534, 465609348, -80.79876708984375, -74.37984466552734, -43.46343231201172, 9.21922492980957, -2.6233909130096436, 0.6070674657821655, 2.3221609592437744, 0.4036547541618347, 0.8405311703681946, 
535, 465617681, -80.8038330078125, -74.3815689086914, -43.4565544128418, 9.292187690734863, -2.279008626937866, 0.37845903635025024, 2.238069534301758, 0.19274714589118958, 1.0444717407226562, 
536, 465626014, -80.81180572509766, -74.37956237792969, -43.4491081237793, 9.534268379211426, -2.3824973106384277, 0.5208686590194702, 2.0306708812713623, 0.2300414741039276, 1.4960250854492188, 
537, 465634347, -80.81477355957031, -74.3753890991211, -43.4473762512207, 9.84835433959961, -2.744036912918091, 0.27058160305023193, 2.0228073596954346, 0.4345967471599579, 1.727372646331787, 
538, 465642680, -80.81122589111328, -74.37471008300781, -43.45159912109375, 9.721573829650879, -2.8635613918304443, 0.42389586567878723, 2.070603609085083, 0.575526237487793, 1.277868628501892, 
539, 465651013, -80.80718994140625, -74.3766098022461, -43.45610809326172, 9.315034866333008, -2.7780635356903076, 0.4347432255744934, 2.154003381729126, 0.5103892683982849, 0.978310227394104, 
540, 465659346, -80.80891418457031, -74.3801498413086, -43.45353317260742, 9.210083961486816, -2.3737447261810303, 0.4031982719898224, 2.225954055786133, 0.2781706154346466, 0.8119456768035889, 
541, 465667679, -80.81446075439453, -74.37986755371094, -43.448455810546875, 9.422167778015137, -2.322922468185425, 0.5274505615234375, 2.0569512844085693, 0.264748752117157, 1.283939242362976, 
542, 465676012, -80.81810760498047, -74.37708282470703, -43.44619369506836, 9.831978797912598, -2.7124717235565186, 0.3032093346118927, 1.962357997894287, 0.4081116318702698, 1.5567563772201538, 
543, 465684345, -80.8145523071289, -74.37542724609375, -43.44912338256836, 9.829024314880371, -2.8398869037628174, 0.5619446039199829, 2.1051316261291504, 0.5797013640403748, 1.4006119966506958, 
544, 465692678, -80.80741119384766, -74.37686920166016, -43.4561653137207, 9.481340408325195, -2.8713300228118896, 0.22604697942733765, 2.174187421798706, 0.6236041784286499, 1.0127867460250854, 
545, 465701011, -80.80406951904297, -74.3803939819336, -43.4583625793457, 9.198519706726074, -2.3549015522003174, 0.5414555072784424, 2.2736988067626953, 0.42681005597114563, 0.7913774847984314, 
546, 465709344, -80.80339813232422, -74.38150787353516, -43.45902633666992, 9.287924766540527, -2.263476848602295, 0.5300632119178772, 2.1360223293304443, 0.4271942377090454, 1.082227110862732, 
547, 465717677, -80.80646514892578, -74.37860107421875, -43.457359313964844, 9.630660057067871, -2.622223138809204, 0.2555265724658966, 2.035921812057495, 0.404551237821579, 1.5793483257293701, 
548, 465726010, -80.8064956665039, -74.37580871582031, -43.45863723754883, 9.947197914123535, -2.7720351219177246, 0.49759459495544434, 1.981389045715332, 0.5212496519088745, 1.5431807041168213, 
549, 465734343, -80.80072784423828, -74.37557220458984, -43.46726989746094, 9.710677146911621, -2.868929624557495, 0.2589248716831207, 2.1070783138275146, 0.6248592734336853, 1.2203646898269653, 
550, 465742676, -80.7965087890625, -74.37875366210938, -43.47114562988281, 9.184081077575684, -2.7461183071136475, 0.5996281504631042, 2.1855344772338867, 0.49064067006111145, 0.8223448991775513, 
551, 465751009, -80.7995376586914, -74.38206481933594, -43.4676399230957, 9.273355484008789, -2.3386483192443848, 0.38220611214637756, 2.289426326751709, 0.21574872732162476, 0.8477544188499451, 
552, 465759342, -80.80377960205078, -74.38042449951172, -43.46240234375, 9.575161933898926, -2.2854831218719482, 0.5540196895599365, 2.228515386581421, 0.29225844144821167, 1.439622402191162, 
553, 465767675, -80.80482482910156, -74.37654113769531, -43.46322250366211, 9.811809539794922, -2.7987656593322754, 0.3069959580898285, 1.9493458271026611, 0.5153071880340576, 1.6801657676696777, 
554, 465776008, -80.80252075195312, -74.37571716308594, -43.46565628051758, 9.733855247497559, -2.9412662982940674, 0.41158226132392883, 2.1238813400268555, 0.520967960357666, 1.3029193878173828, 
555, 465784341, -80.796630859375, -74.37857818603516, -43.47165298461914, 9.421372413635254, -2.6969494819641113, 0.46837785840034485, 2.304103374481201, 0.5142313838005066, 0.8606640100479126, 
556, 465792674, -80.79634094238281, -74.38136291503906, -43.47172927856445, 9.239925384521484, -2.3636789321899414, 0.4597712755203247, 2.1567697525024414, 0.37763068079948425, 0.888532280921936, 
557, 465801007, -80.80083465576172, -74.37986755371094, -43.4677734375, 9.373270988464355, -2.4022843837738037, 0.5301928520202637, 2.0689897537231445, 0.31964001059532166, 1.4186445474624634, 
558, 465809340, -80.80521392822266, -74.37741088867188, -43.463523864746094, 9.819229125976562, -2.6585352420806885, 0.31805548071861267, 2.093425989151001, 0.3410535454750061, 1.5320899486541748, 
559, 465817673, -80.80012512207031, -74.3740005493164, -43.46977996826172, 9.850371360778809, -2.784496784210205, 0.5025758147239685, 2.089378595352173, 0.668454647064209, 1.6010175943374634, 
560, 465826006, -80.79566192626953, -74.37541961669922, -43.47495651245117, 9.475021362304688, -2.962219715118408, 0.23751172423362732, 2.074983835220337, 0.5639486908912659, 1.0202406644821167, 
561, 465834339, -80.79352569580078, -74.37890625, -43.476966857910156, 9.173399925231934, -2.442770481109619, 0.5665138363838196, 2.278386354446411, 0.38756901025772095, 0.8068996667861938, 
562, 465842672, -80.7985610961914, -74.3791732788086, -43.471256256103516, 9.339250564575195, -2.26511812210083, 0.5362089276313782, 2.180591106414795, 0.2412092536687851, 1.2159078121185303, 
563, 465851005, -80.80549621582031, -74.37649536132812, -43.46638107299805, 9.679818153381348, -2.5831258296966553, 0.3760963976383209, 1.9571583271026611, 0.29274511337280273, 1.5656956434249878, 
564, 465859338, -80.80480194091797, -74.3731689453125, -43.468109130859375, 9.881353378295898, -2.7687768936157227, 0.5011553168296814, 2.0156097412109375, 0.5472225546836853, 1.604757308959961, 
565, 465867671, -80.79875946044922, -74.37428283691406, -43.47541809082031, 9.646203994750977, -2.90629506111145, 0.2728561460971832, 2.036818504333496, 0.6290087699890137, 1.0531038045883179, 
566, 465876004, -80.79839324951172, -74.37779998779297, -43.474708557128906, 9.205382347106934, -2.620008707046509, 0.6052817702293396, 2.2584328651428223, 0.33723700046539307, 0.8049017190933228, 
567, 465884337, -80.79969787597656, -74.38017272949219, -43.473175048828125, 9.277300834655762, -2.283811330795288, 0.35368725657463074, 2.214401960372925, 0.3121863007545471, 0.9526447057723999, 
568, 465892670, -80.80757904052734, -74.37786102294922, -43.46596908569336, 9.519123077392578, -2.3821303844451904, 0.5601890683174133, 2.0208609104156494, 0.24233628809452057, 1.5281965732574463, 
569, 465901003, -80.80772399902344, -74.37419128417969, -43.46835708618164, 9.8497896194458, -2.792178153991699, 0.37326937913894653, 1.9827979803085327, 0.5286009907722473, 1.6514010429382324, 
570, 465909336, -80.80298614501953, -74.37364196777344, -43.47367477416992, 9.790426254272461, -2.8482985496520996, 0.40505921840667725, 2.08789324760437, 0.6088247895240784, 1.2558146715164185, 
571, 465917669, -80.79537963867188, -74.376953125, -43.48090744018555, 9.360590934753418, -2.818425178527832, 0.4302283525466919, 2.181436538696289, 0.5939942002296448, 0.7915824055671692, 
572, 465926002, -80.79485321044922, -74.3789291381836, -43.47947692871094, 9.199738502502441, -2.366245746612549, 0.49028757214546204, 2.3543319702148438, 0.34676551818847656, 0.9957020282745361, 
573, 465934335, -80.80229187011719, -74.3775405883789, -43.47187423706055, 9.395289421081543, -2.280855655670166, 0.6242302060127258, 2.2144274711608887, 0.17896665632724762, 1.4315026998519897, 
574, 465942668, -80.80909729003906, -74.3752670288086, -43.466312408447266, 9.76533031463623, -2.7157633304595947, 0.21498800814151764, 1.9629212617874146, 0.29266828298568726, 1.5156968832015991, 
575, 465951001, -80.80680847167969, -74.37310028076172, -43.468841552734375, 9.819070816040039, -2.784867763519287, 0.5112980008125305, 2.0124337673187256, 0.5729904174804688, 1.4613434076309204, 
576, 465959334, -80.80235290527344, -74.37505340576172, -43.47283172607422, 9.490142822265625, -2.9060091972351074, 0.29596325755119324, 2.205872058868408, 0.5180479288101196, 0.963377058506012, 
577, 465967667, -80.7984390258789, -74.37885284423828, -43.47592544555664, 9.200898170471191, -2.5206289291381836, 0.5598229765892029, 2.295086622238159, 0.43400755524635315, 0.7616137266159058, 
578, 465976000, -80.80770111083984, -74.37969207763672, -43.4658088684082, 9.361954689025879, -2.276707410812378, 0.5228655934333801, 2.191810369491577, 0.08964981883764267, 1.172363519668579, 
579, 465984333, -80.81535339355469, -74.37733459472656, -43.458072662353516, 9.717459678649902, -2.4863369464874268, 0.3562915027141571, 2.0467565059661865, 0.23841728270053864, 1.538185954093933, 
580, 465992666, -80.80875396728516, -74.37406158447266, -43.466102600097656, 9.798003196716309, -2.852597713470459, 0.4815133810043335, 1.9915580749511719, 0.7470135688781738, 1.566054344177246, 
581, 466000999, -80.80180358886719, -74.37484741210938, -43.47537612915039, 9.60277271270752, -2.9235525131225586, 0.233490452170372, 2.149930715560913, 0.6324410438537598, 1.0898088216781616, 
582, 466009332, -80.79923248291016, -74.37816619873047, -43.47689437866211, 9.280721664428711, -2.4894134998321533, 0.6112382411956787, 2.266526937484741, 0.41287586092948914, 0.8154035210609436, 
583, 466017665, -80.80175018310547, -74.38005828857422, -43.47297286987305, 9.27772331237793, -2.3432230949401855, 0.4044990539550781, 2.252976894378662, 0.2669771909713745, 1.0222641229629517, 
584, 466025998, -80.80853271484375, -74.37815856933594, -43.46630096435547, 9.499075889587402, -2.470170497894287, 0.5362952947616577, 2.0880467891693115, 0.25327354669570923, 1.4819625616073608, 
585, 466034331, -80.81080627441406, -74.37416076660156, -43.465965270996094, 9.905691146850586, -2.74950909614563, 0.34628960490226746, 2.0327203273773193, 0.4505287706851959, 1.695969581604004, 
586, 466042664, -80.80593872070312, -74.37417602539062, -43.472679138183594, 9.809210777282715, -2.855154514312744, 0.41961365938186646, 1.9340797662734985, 0.6435320377349854, 1.1857341527938843, 
587, 466050997, -80.7965316772461, -74.37688446044922, -43.482112884521484, 9.28216552734375, -2.8550405502319336, 0.42794468998908997, 2.199981212615967, 0.6643564701080322, 0.8552849888801575, 
588, 466059330, -80.79674530029297, -74.38008117675781, -43.480682373046875, 9.229524612426758, -2.370075225830078, 0.41873466968536377, 2.274313449859619, 0.3215867280960083, 0.8422472476959229, 
589, 466067663, -80.80824279785156, -74.37864685058594, -43.468902587890625, 9.430621147155762, -2.2655818462371826, 0.6037610173225403, 2.148573160171509, 0.06406120210886002, 1.4549143314361572, 
590, 466075996, -80.81433868408203, -74.37557220458984, -43.46388244628906, 9.791974067687988, -2.7058603763580322, 0.24200278520584106, 1.977111577987671, 0.3272218406200409, 1.610213279724121, 
591, 466084329, -80.81622314453125, -74.37408447265625, -43.46345901489258, 9.839752197265625, -2.8384432792663574, 0.5387882590293884, 2.102108955383301, 0.39614975452423096, 1.411523699760437, 
592, 466092662, -80.81079864501953, -74.37602996826172, -43.46808624267578, 9.550919532775879, -2.917022705078125, 0.2525598406791687, 2.2462148666381836, 0.5395382642745972, 0.9645551443099976, 
593, 466100995, -80.81085968017578, -74.3784408569336, -43.46712112426758, 9.233345985412598, -2.4018185138702393, 0.6174792051315308, 2.260174512863159, 0.3392605483531952, 0.93809574842453, 
594, 466109328, -80.81775665283203, -74.37804412841797, -43.46004104614258, 9.310210227966309, -2.301823139190674, 0.4362352788448334, 2.126621961593628, 0.20955005288124084, 1.3007421493530273, 
595, 466117661, -80.82141876220703, -74.37522888183594, -43.458160400390625, 9.623655319213867, -2.585200786590576, 0.36703380942344666, 2.0087451934814453, 0.3893876075744629, 1.5704599618911743, 
596, 466125994, -80.82235717773438, -74.3727035522461, -43.45785140991211, 9.84826946258545, -2.810967445373535, 0.4695624113082886, 2.0532116889953613, 0.4650264382362366, 1.518488883972168, 
597, 466134327, -80.8187484741211, -74.37360382080078, -43.4627799987793, 9.660787582397461, -2.933199167251587, 0.21014897525310516, 1.9836688041687012, 0.5675089359283447, 1.0927799940109253, 
598, 466142660, -80.81700134277344, -74.37669372558594, -43.46405029296875, 9.250822067260742, -2.686493396759033, 0.5557774901390076, 2.198469877243042, 0.4091874361038208, 0.8430926203727722, 
599, 466150993, -80.82012176513672, -74.37877655029297, -43.46028518676758, 9.281583786010742, -2.309968948364258, 0.4963896572589874, 2.2188332080841064, 0.2526332139968872, 0.9981355667114258, 
600, 466159326, -80.82633209228516, -74.37710571289062, -43.4542121887207, 9.546297073364258, -2.3555524349212646, 0.5172398090362549, 2.0871758460998535, 0.2665417194366455, 1.4494839906692505, 
601, 466167659, -80.82611083984375, -74.37364196777344, -43.45576477050781, 9.82037353515625, -2.7785375118255615, 0.26939937472343445, 2.0205276012420654, 0.526167631149292, 1.6237632036209106, 
602, 466175992, -80.8221664428711, -74.373291015625, -43.4608268737793, 9.739002227783203, -2.824026346206665, 0.4557199776172638, 2.0195798873901367, 0.5962737798690796, 1.2336326837539673, 
603, 466184325, -80.81581115722656, -74.37532806396484, -43.46913146972656, 9.314663887023926, -2.794154644012451, 0.4842440187931061, 2.159766912460327, 0.5868221521377563, 0.9487000703811646, 
604, 466192658, -80.81539154052734, -74.37890625, -43.46866989135742, 9.194254875183105, -2.425487518310547, 0.361090749502182, 2.2459075450897217, 0.3437686562538147, 0.7931448221206665, 
605, 466200991, -80.82041931152344, -74.3776626586914, -43.464996337890625, 9.462105751037598, -2.2809038162231445, 0.6305294632911682, 2.0735490322113037, 0.29400020837783813, 1.3977177143096924, 
606, 466209324, -80.82077026367188, -74.3745346069336, -43.46595001220703, 9.836478233337402, -2.6636600494384766, 0.32075315713882446, 1.980415940284729, 0.5194054841995239, 1.5849833488464355, 
607, 466217657, -80.81749725341797, -74.37297821044922, -43.469181060791016, 9.785550117492676, -2.8796443939208984, 0.5304992198944092, 2.1616878509521484, 0.5505011677742004, 1.393670678138733, 
608, 466225990, -80.81334686279297, -74.3765640258789, -43.47256851196289, 9.495804786682129, -2.8985304832458496, 0.25359252095222473, 2.2387609481811523, 0.4677928388118744, 0.7755734920501709, 
609, 466234323, -80.80935668945312, -74.380859375, -43.47650909423828, 9.224763870239258, -2.3471004962921143, 0.5916534662246704, 2.311095714569092, 0.4214054048061371, 0.6972706913948059, 
610, 466242656, -80.81169891357422, -74.38032531738281, -43.47350311279297, 9.230815887451172, -2.3404717445373535, 0.49178704619407654, 2.191041946411133, 0.34392234683036804, 1.2987698316574097, 
611, 466250989, -80.81844329833984, -74.37825775146484, -43.46829605102539, 9.613326072692871, -2.6328847408294678, 0.3251688778400421, 1.9297252893447876, 0.29569077491760254, 1.4932074546813965, 
612, 466259322, -80.82414245605469, -74.37483978271484, -43.4627685546875, 9.973392486572266, -2.7279350757598877, 0.5302379727363586, 2.085383176803589, 0.31828248500823975, 1.653578281402588, 
613, 466267655, -80.81482696533203, -74.37484741210938, -43.47391128540039, 9.694908142089844, -2.9579882621765137, 0.22256074845790863, 2.051239252090454, 0.7538013458251953, 1.164013385772705, 
