sep=,
PacketCounter,SampleTimeFine,Euler_X,Euler_Y,Euler_Z,Acc_X,Acc_Y,Acc_Z,Gyr_X,Gyr_Y,Gyr_Z,Mag_X,Mag_Y,Mag_Z,Status,
0, 593339759, 81.80438995361328, -63.17401123046875, -129.84695434570312, 0, 0, 0, 0, 0, 0, -1.130859375, 0.333984375, -1.013671875, 0, 
1, 593348092, 81.84233093261719, -63.180946350097656, -129.89129638671875, 10.21871566772461, 7.952707767486572, 0.28879666328430176, 2.5671098232269287, -1.894928216934204, 0.6869737505912781, -1.126953125, 0.33154296875, -1.00146484375, 0, 
2, 593356425, 81.78165435791016, -63.186607360839844, -129.83973693847656, 9.81777286529541, 5.919992446899414, 0.0376528836786747, 0.9105604887008667, 3.208132028579712, 1.288703441619873, -1.11474609375, 0.32861328125, -0.9873046875, 0, 
3, 593364758, 81.78345489501953, -63.188594818115234, -129.8605194091797, 7.998945713043213, 2.431959390640259, 0.894591748714447, 0.7524950504302979, -0.5454423427581787, 0.2822176516056061, -1.111328125, 0.32763671875, -0.98291015625, 0, 
4, 593373091, 81.75589752197266, -63.18048858642578, -129.82484436035156, 6.771799087524414, 1.3888193368911743, 0.8866277933120728, 3.260897397994995, 2.6323750019073486, -0.46345117688179016, -1.12744140625, 0.3369140625, -1.017578125, 0, 
5, 593381424, 81.80546569824219, -63.178409576416016, -129.85629272460938, 8.731310844421387, 3.8393492698669434, 1.8182041645050049, 5.343103885650635, -1.0471996068954468, -0.2825378179550171, -1.1298828125, 0.33740234375, -1.017578125, 0, 
6, 593389757, 81.83667755126953, -63.180301666259766, -129.87741088867188, 9.938704490661621, 7.478213310241699, -0.5243266224861145, 4.271839618682861, -0.5656520128250122, 0.2858036458492279, -1.123046875, 0.33935546875, -1.0078125, 0, 
7, 593398090, 81.80298614501953, -63.18711853027344, -129.85638427734375, 10.58486557006836, 7.041195869445801, 0.27998507022857666, 0.9689096212387085, 1.6124416589736938, 1.1774095296859741, -1.1201171875, 0.34033203125, -1.0048828125, 0, 
8, 593406423, 81.78860473632812, -63.191864013671875, -129.864990234375, 7.994239330291748, 3.394080877304077, 0.5760043859481812, 0.4956866204738617, 0.23542043566703796, 0.7524436712265015, -1.1083984375, 0.33349609375, -0.984375, 0, 
9, 593414756, 81.74847412109375, -63.18286895751953, -129.82421875, 7.226892948150635, 1.2752249240875244, 1.1013890504837036, 2.311326026916504, 2.9392077922821045, -0.5474913716316223, -1.1162109375, 0.3447265625, -1.01904296875, 0, 
10, 593423089, 81.80937957763672, -63.18150329589844, -129.87416076660156, 8.034460067749023, 2.7473466396331787, 1.5762065649032593, 4.598114013671875, -2.1236379146575928, -0.33545684814453125, -1.13134765625, 0.34619140625, -1.03662109375, 0, 
11, 593431422, 81.82132720947266, -63.176639556884766, -129.85989379882812, 9.681315422058105, 6.428974628448486, -0.32130610942840576, 5.727163791656494, 1.4489717483520508, -0.2622513473033905, -1.1279296875, 0.34326171875, -1.02099609375, 0, 
12, 593439755, 81.83616638183594, -63.185997009277344, -129.8885040283203, 10.563592910766602, 7.802619457244873, 0.9699547290802002, 1.4651342630386353, -1.109365463256836, 1.116140365600586, -1.12158203125, 0.33935546875, -1.0087890625, 0, 
13, 593448088, 81.79449462890625, -63.19026184082031, -129.86265563964844, 8.459541320800781, 4.388887882232666, -0.02347932569682598, 0.5302914381027222, 1.9137932062149048, 0.9098432064056396, -1.111328125, 0.33544921875, -0.99169921875, 0, 
14, 593456421, 81.76839447021484, -63.18561553955078, -129.84619140625, 7.8193135261535645, 1.6799319982528687, 1.03600013256073, 1.3864473104476929, 1.5468692779541016, -0.19701188802719116, -1.111328125, 0.33740234375, -1.00732421875, 0, 
15, 593464754, 81.80162048339844, -63.18253707885742, -129.87156677246094, 7.065587043762207, 1.9759042263031006, 1.1658931970596313, 4.029477596282959, -0.7029697895050049, -0.35320746898651123, -1.1279296875, 0.3447265625, -1.03271484375, 0, 
16, 593473087, 81.81653594970703, -63.17647933959961, -129.8574676513672, 9.526651382446289, 5.250751972198486, 0.6791936755180359, 6.015503406524658, 1.4214876890182495, -0.3943183720111847, -1.126953125, 0.3427734375, -1.017578125, 0, 
17, 593481420, 81.85307312011719, -63.184051513671875, -129.90365600585938, 10.39158821105957, 7.995046138763428, 0.25215792655944824, 2.2014667987823486, -2.002328872680664, 0.751854658126831, -1.119140625, 0.34130859375, -1.01611328125, 0, 
18, 593489753, 81.79143524169922, -63.18867492675781, -129.8524932861328, 9.422037124633789, 5.669764995574951, 0.12440868467092514, 0.8370220065116882, 3.247372627258301, 1.1683422327041626, -1.1171875, 0.33544921875, -0.99365234375, 0, 
19, 593498086, 81.7911376953125, -63.189849853515625, -129.86849975585938, 8.015318870544434, 2.2660348415374756, 0.9551477432250977, 1.014349341392517, -0.27567318081855774, 0.22169120609760284, -1.10888671875, 0.33544921875, -0.994140625, 0, 
20, 593506419, 81.77490234375, -63.181182861328125, -129.84417724609375, 6.788582801818848, 1.4420647621154785, 0.8293732404708862, 3.336740732192993, 2.000727891921997, -0.6199028491973877, -1.1240234375, 0.34375, -1.03662109375, 0, 
21, 593514752, 81.81995391845703, -63.17887496948242, -129.86929321289062, 8.949191093444824, 4.153725624084473, 1.6447504758834839, 5.477194309234619, -0.7061971426010132, -0.26437729597091675, -1.1318359375, 0.34619140625, -1.0263671875, 0, 
22, 593523085, 81.8515396118164, -63.18147659301758, -129.89268493652344, 9.92259693145752, 7.474487781524658, -0.3609737157821655, 4.005425930023193, -0.7305307388305664, 0.35050517320632935, -1.12451171875, 0.34228515625, -1.01708984375, 0, 
23, 593531418, 81.81509399414062, -63.188087463378906, -129.867431640625, 10.540046691894531, 6.780515670776367, 0.12805497646331787, 1.0939072370529175, 1.8424832820892334, 1.1857341527938843, -1.11962890625, 0.33642578125, -1.0009765625, 0, 
24, 593539751, 81.80742645263672, -63.19119644165039, -129.8794403076172, 7.89572286605835, 3.286588191986084, 0.808063805103302, 0.36443936824798584, -0.20687338709831238, 0.4857739508152008, -1.109375, 0.33349609375, -0.986328125, 0, 
25, 593548084, 81.76602172851562, -63.181907653808594, -129.83534240722656, 7.282626152038574, 1.3143110275268555, 0.8846770524978638, 2.515599250793457, 3.1235790252685547, -0.5545865893363953, -1.1162109375, 0.341796875, -1.01904296875, 0, 
26, 593556417, 81.83173370361328, -63.18068313598633, -129.89007568359375, 8.095515251159668, 2.765932559967041, 1.7624326944351196, 4.786506175994873, -2.321251630783081, -0.34129688143730164, -1.12939453125, 0.345703125, -1.03076171875, 0, 
27, 593564750, 81.84062194824219, -63.176273345947266, -129.8764190673828, 9.581897735595703, 6.8014702796936035, -0.4972328543663025, 5.292823314666748, 1.4099868535995483, -0.21340502798557281, -1.12451171875, 0.33935546875, -1.01806640625, 0, 
28, 593573083, 81.8431625366211, -63.18517303466797, -129.89447021484375, 10.730457305908203, 7.811614036560059, 0.7569026947021484, 1.176282525062561, -0.5115802884101868, 1.1445976495742798, -1.1220703125, 0.33740234375, -1.00927734375, 0, 
29, 593581416, 81.81114196777344, -63.190528869628906, -129.87908935546875, 8.362297058105469, 4.035555362701416, 0.28069227933883667, 0.5686360001564026, 1.3332465887069702, 0.9584078788757324, -1.1103515625, 0.33154296875, -0.98779296875, 0, 
30, 593589749, 81.77127838134766, -63.18211364746094, -129.84500122070312, 7.754750728607178, 1.4617524147033691, 1.066726803779602, 1.6520925760269165, 2.5738208293914795, -0.5042546987533569, -1.11181640625, 0.33544921875, -1.00634765625, 0, 
31, 593598082, 81.81681823730469, -63.180389404296875, -129.88291931152344, 7.360148906707764, 2.2966887950897217, 1.2321707010269165, 4.168102264404297, -1.4001127481460571, -0.29204073548316956, -1.1259765625, 0.34521484375, -1.03466796875, 0, 
32, 593606415, 81.83134460449219, -63.17455291748047, -129.86907958984375, 9.321297645568848, 5.500422954559326, 0.648421585559845, 5.980949878692627, 1.4305552244186401, -0.3670136332511902, -1.12841796875, 0.3427734375, -1.01904296875, 0, 
33, 593614748, 81.8629379272461, -63.18207931518555, -129.90957641601562, 10.549697875976562, 7.873788833618164, 0.2139529436826706, 2.219550371170044, -1.6970840692520142, 0.790967583656311, -1.12255859375, 0.34375, -1.00927734375, 0, 
34, 593623081, 81.80754852294922, -63.18586730957031, -129.86778259277344, 9.181912422180176, 5.435420989990234, 0.022363629192113876, 0.48620936274528503, 2.711702346801758, 0.9908353686332703, -1.11669921875, 0.33447265625, -0.99462890625, 0, 
35, 593631414, 81.7970962524414, -63.186668395996094, -129.87242126464844, 7.8981547355651855, 2.222445487976074, 0.932365894317627, 1.0116853713989258, 0.3390556275844574, 0.26503047347068787, -1.10791015625, 0.33544921875, -0.994140625, 0, 
36, 593639747, 81.78716278076172, -63.180213928222656, -129.85482788085938, 6.829596519470215, 1.5519193410873413, 0.9411214590072632, 3.4473941326141357, 1.6375436782836914, -0.4081500172615051, -1.123046875, 0.34326171875, -1.0302734375, 0, 
37, 593648080, 81.82818603515625, -63.177032470703125, -129.8739013671875, 9.193448066711426, 4.262060642242432, 1.3721656799316406, 5.640587329864502, -0.3668086528778076, -0.31829527020454407, -1.12841796875, 0.34228515625, -1.025390625, 0, 
38, 593656413, 81.86158752441406, -63.1797981262207, -129.90493774414062, 9.954108238220215, 7.715871810913086, 0.01070332806557417, 3.398522138595581, -1.143688440322876, 0.31336453557014465, -1.1220703125, 0.33935546875, -1.0126953125, 0, 
39, 593664746, 81.81275177001953, -63.18634033203125, -129.86590576171875, 10.388760566711426, 6.586517810821533, 0.09887631237506866, 1.0804340839385986, 2.580864667892456, 1.280173897743225, -1.11669921875, 0.33740234375, -1, 0, 
40, 593673079, 81.81400299072266, -63.19011688232422, -129.8875274658203, 7.917102813720703, 2.9180526733398438, 0.809401273727417, 0.6477071046829224, -0.6070701479911804, 0.5135142207145691, -1.109375, 0.3349609375, -0.9853515625, 0, 
41, 593681412, 81.77092742919922, -63.181304931640625, -129.8412628173828, 6.969478607177734, 1.3102633953094482, 0.8594778776168823, 2.5499227046966553, 3.231210231781006, -0.4858379662036896, -1.11669921875, 0.341796875, -1.01953125, 0, 
42, 593689745, 81.82808685302734, -63.18086242675781, -129.8848114013672, 8.375414848327637, 3.295173406600952, 1.6550357341766357, 4.68763542175293, -1.871747374534607, -0.18064439296722412, -1.13037109375, 0.3427734375, -1.0263671875, 0, 
43, 593698078, 81.84635162353516, -63.17849349975586, -129.88365173339844, 9.75242805480957, 6.765514850616455, -0.49654266238212585, 5.074230670928955, 0.702649712562561, -0.06725016981363297, -1.1240234375, 0.3388671875, -1.01318359375, 0, 
44, 593706411, 81.83687591552734, -63.186012268066406, -129.8859405517578, 10.654326438903809, 7.529396057128906, 0.8739349842071533, 1.2829145193099976, 0.2855986952781677, 1.0912176370620728, -1.12109375, 0.337890625, -1.0078125, 0, 
45, 593714744, 81.8093032836914, -63.1919059753418, -129.87657165527344, 8.317819595336914, 4.059617519378662, 0.22728131711483002, 0.45690667629241943, 1.0046159029006958, 0.9787967205047607, -1.1123046875, 0.3310546875, -0.9853515625, 0, 
46, 593723077, 81.77483367919922, -63.18453598022461, -129.8453369140625, 7.5884623527526855, 1.5141335725784302, 1.0915826559066772, 1.7960702180862427, 2.3039493560791016, -0.42041921615600586, -1.11083984375, 0.33642578125, -1.00830078125, 0, 
47, 593731410, 81.82014465332031, -63.18136978149414, -129.88320922851562, 7.398135185241699, 2.1342060565948486, 1.366081953048706, 4.14417839050293, -1.374037265777588, -0.45758554339408875, -1.12841796875, 0.34423828125, -1.03125, 0, 
48, 593739743, 81.83097839355469, -63.17567825317383, -129.8640594482422, 9.472562789916992, 5.681430339813232, 0.3165954053401947, 6.0275421142578125, 1.6690491437911987, -0.31314682960510254, -1.12841796875, 0.3408203125, -1.01611328125, 0, 
49, 593748076, 81.8629150390625, -63.18400573730469, -129.908203125, 10.459892272949219, 7.9544677734375, 0.582448422908783, 1.8653823137283325, -1.9079147577285767, 0.8527747988700867, -1.12158203125, 0.34130859375, -1.00634765625, 0, 
50, 593756409, 81.80443572998047, -63.18854522705078, -129.86582946777344, 9.08463191986084, 5.309684753417969, 0.025580203160643578, 0.5797526240348816, 2.932189464569092, 1.1153206825256348, -1.11572265625, 0.33349609375, -0.9853515625, 0, 
51, 593764742, 81.79164123535156, -63.186885833740234, -129.8687286376953, 8.061933517456055, 2.0832011699676514, 0.8648788332939148, 0.9166821241378784, 0.474478155374527, -0.0165339894592762, -1.1064453125, 0.3359375, -0.98828125, 0, 
52, 593773075, 81.79048156738281, -63.180519104003906, -129.85877990722656, 6.798046588897705, 1.640250325202942, 1.0539857149124146, 3.6482863426208496, 1.2138327360153198, -0.4537432789802551, -1.1220703125, 0.34375, -1.02685546875, 0, 
53, 593781408, 81.82584381103516, -63.176368713378906, -129.8707275390625, 9.096001625061035, 4.320602893829346, 1.4874110221862793, 5.727599143981934, 0.03153112158179283, -0.3796413540840149, -1.12841796875, 0.34228515625, -1.02099609375, 0, 
54, 593789741, 81.86412811279297, -63.18031692504883, -129.90640258789062, 10.125795364379883, 7.728077411651611, -0.25819018483161926, 3.472931146621704, -1.419143795967102, 0.4154115915298462, -1.123046875, 0.3388671875, -1.00927734375, 0, 
55, 593798074, 81.81371307373047, -63.18611526489258, -129.8668975830078, 10.122588157653809, 6.479360580444336, 0.18191322684288025, 0.9454982876777649, 2.6197471618652344, 1.1967482566833496, -1.11767578125, 0.3349609375, -1.0029296875, 0, 
56, 593806407, 81.81037139892578, -63.189727783203125, -129.88095092773438, 7.900980472564697, 2.9225800037384033, 0.7758045196533203, 0.7625357508659363, -0.2716773748397827, 0.5382062792778015, -1.10888671875, 0.3310546875, -0.986328125, 0, 
57, 593814740, 81.77439880371094, -63.181053161621094, -129.84100341796875, 7.039636611938477, 1.3649386167526245, 0.8806458711624146, 2.7229979038238525, 2.890566349029541, -0.5163701772689819, -1.11669921875, 0.34033203125, -1.021484375, 0, 
58, 593823073, 81.83146667480469, -63.17959976196289, -129.88414001464844, 8.4225492477417, 3.2755019664764404, 1.7212762832641602, 4.748290061950684, -1.8158057928085327, -0.29757338762283325, -1.1376953125, 0.3330078125, -1.01025390625, 0, 
59, 593831406, 81.84831237792969, -63.177459716796875, -129.88067626953125, 9.902392387390137, 6.734598636627197, -0.4783845841884613, 5.152790069580078, 0.8231902718544006, -0.022399647161364555, -1.13037109375, 0.32958984375, -0.99853515625, 0, 
60, 593839739, 81.84235382080078, -63.1856575012207, -129.88319396972656, 10.522765159606934, 7.395692348480225, 0.8666065335273743, 1.3613711595535278, 0.10617101192474365, 1.1533067226409912, -1.12451171875, 0.3251953125, -0.986328125, 0, 
61, 593848072, 81.81599426269531, -63.19040298461914, -129.8743133544922, 8.128976821899414, 4.084960460662842, 0.2699628472328186, 0.5513207912445068, 0.9963168501853943, 0.837380588054657, -1.1123046875, 0.32275390625, -0.9697265625, 0, 
62, 593856405, 81.78292083740234, -63.184749603271484, -129.84609985351562, 7.654583930969238, 1.6715806722640991, 0.9390022158622742, 1.793406367301941, 2.1907856464385986, -0.23220586776733398, -1.1142578125, 0.32666015625, -0.98876953125, 0, 
63, 593864738, 81.82771301269531, -63.1820182800293, -129.88336181640625, 7.41701602935791, 2.177428722381592, 1.2823811769485474, 4.151939868927002, -1.3482438325881958, -0.4033345878124237, -1.12939453125, 0.33447265625, -1.015625, 0, 
64, 593873071, 81.83695983886719, -63.1772575378418, -129.8627471923828, 9.614541053771973, 5.628493785858154, 0.283541738986969, 5.950442790985107, 1.715590238571167, -0.19281116127967834, -1.1298828125, 0.32958984375, -1.0068359375, 0, 
65, 593881404, 81.86990356445312, -63.18489074707031, -129.90737915039062, 10.361516952514648, 7.924452304840088, 0.6874861717224121, 1.9377425909042358, -1.9188264608383179, 0.7727558612823486, -1.12548828125, 0.3310546875, -0.99951171875, 0, 
66, 593889737, 81.8145751953125, -63.19047164916992, -129.86473083496094, 9.11662769317627, 5.291549205780029, -0.03397208824753761, 0.7329001426696777, 2.800020217895508, 1.2184691429138184, -1.119140625, 0.32666015625, -0.98291015625, 0, 
67, 593898070, 81.8072509765625, -63.18983840942383, -129.87159729003906, 8.058614730834961, 2.1172773838043213, 0.9349409341812134, 1.1496435403823853, 0.24553804099559784, 0.07694515585899353, -1.109375, 0.32666015625, -0.98046875, 0, 
68, 593906403, 81.80404663085938, -63.183143615722656, -129.8603057861328, 6.846112251281738, 1.6083428859710693, 1.0051177740097046, 3.5715718269348145, 1.3014593124389648, -0.48191899061203003, -1.1259765625, 0.33544921875, -1.01806640625, 0, 
69, 593914736, 81.83695220947266, -63.17817687988281, -129.87008666992188, 9.074519157409668, 4.374538898468018, 1.4256551265716553, 5.664306163787842, 0.16139529645442963, -0.4616837501525879, -1.1318359375, 0.33544921875, -1.00927734375, 0, 
70, 593923069, 81.87370300292969, -63.18183898925781, -129.90306091308594, 10.012203216552734, 7.665963649749756, -0.25850802659988403, 3.577181339263916, -1.2736549377441406, 0.4031168222427368, -1.1240234375, 0.333984375, -1.0029296875, 0, 
71, 593931402, 81.82469940185547, -63.187625885009766, -129.8645782470703, 10.263589859008789, 6.566970348358154, 0.05390743166208267, 1.001977562904358, 2.565060615539551, 1.1889615058898926, -1.125, 0.32763671875, -0.99267578125, 0, 
72, 593939735, 81.81879425048828, -63.19205856323242, -129.87940979003906, 7.925564765930176, 3.066330671310425, 0.8986188173294067, 0.5850803852081299, -0.2185022234916687, 0.6481682658195496, -1.1083984375, 0.32763671875, -0.9716796875, 0, 
73, 593948068, 81.77900695800781, -63.182865142822266, -129.83689880371094, 7.147846221923828, 1.367749810218811, 0.8408446907997131, 2.54244327545166, 3.0379765033721924, -0.556456446647644, -1.1162109375, 0.33447265625, -1.00732421875, 0, 
74, 593956401, 81.8369140625, -63.18186569213867, -129.8832550048828, 8.375307083129883, 3.109766721725464, 1.8056483268737793, 4.841577053070068, -1.8306877613067627, -0.24777927994728088, -1.1328125, 0.3359375, -1.021484375, 0, 
75, 593964734, 81.85360717773438, -63.17873001098633, -129.8778839111328, 9.705459594726562, 6.616352081298828, -0.4971880316734314, 5.34123420715332, 0.9406315684318542, -0.1257018744945526, -1.12939453125, 0.33251953125, -1.0029296875, 0, 
76, 593973067, 81.8486328125, -63.18620300292969, -129.8858184814453, 10.525623321533203, 7.5817131996154785, 0.8591565489768982, 1.3027399778366089, 0.030762694776058197, 1.051464319229126, -1.12109375, 0.33056640625, -0.9990234375, 0, 
77, 593981400, 81.82250213623047, -63.19191360473633, -129.87704467773438, 8.217329025268555, 4.079659938812256, 0.2195994257926941, 0.567944347858429, 0.9746984243392944, 0.9522603750228882, -1.1103515625, 0.3251953125, -0.974609375, 0, 
78, 593989733, 81.78656768798828, -63.18458557128906, -129.8461151123047, 7.623383522033691, 1.6643010377883911, 0.9998263120651245, 1.760876178741455, 2.3685991764068604, -0.407817006111145, -1.1123046875, 0.33154296875, -0.99267578125, 0, 
79, 593998066, 81.8297348022461, -63.1829948425293, -129.8832244873047, 7.490201950073242, 2.254695415496826, 1.2977173328399658, 3.9664671421051025, -1.3593858480453491, -0.267374187707901, -1.1279296875, 0.33740234375, -1.01953125, 0, 
80, 594006399, 81.84264373779297, -63.1768798828125, -129.86614990234375, 9.550920486450195, 5.469951629638672, 0.4551607668399811, 5.938532829284668, 1.5072698593139648, -0.3864803910255432, -1.12939453125, 0.333984375, -1.00732421875, 0, 
81, 594014732, 81.87193298339844, -63.18476867675781, -129.90594482421875, 10.489973068237305, 7.880940914154053, 0.46506673097610474, 2.015225648880005, -1.666346788406372, 0.8372012972831726, -1.1220703125, 0.33349609375, -0.99951171875, 0, 
82, 594023065, 81.81822204589844, -63.18958282470703, -129.86099243164062, 9.108980178833008, 5.366138935089111, 0.09370758384466171, 0.6953240633010864, 2.692875862121582, 1.110505223274231, -1.1171875, 0.32763671875, -0.98291015625, 0, 
83, 594031398, 81.80963897705078, -63.19040298461914, -129.8666229248047, 7.928955078125, 2.1850218772888184, 0.8771031498908997, 1.1286145448684692, 0.28721240162849426, 0.2632118761539459, -1.11083984375, 0.328125, -0.982421875, 0, 
84, 594039731, 81.80422973632812, -63.18244552612305, -129.85340881347656, 6.868688583374023, 1.5991337299346924, 0.8830450177192688, 3.528411865234375, 1.4358315467834473, -0.6211836338043213, -1.12744140625, 0.33447265625, -1.017578125, 0, 
85, 594048064, 81.83911895751953, -63.17881393432617, -129.86610412597656, 9.05770206451416, 4.308526515960693, 1.5553940534591675, 5.589768409729004, -0.017865927889943123, -0.3238535523414612, -1.1328125, 0.3359375, -1.017578125, 0, 
86, 594056397, 81.87134552001953, -63.18053436279297, -129.8925018310547, 10.06716251373291, 7.5854268074035645, -0.24586492776870728, 3.5672426223754883, -0.9758638143539429, 0.20888403058052063, -1.12646484375, 0.33349609375, -1.00390625, 0, 
87, 594064730, 81.82675170898438, -63.18778991699219, -129.8596649169922, 10.291425704956055, 6.634873390197754, 0.11087682843208313, 0.9267742037773132, 2.2372751235961914, 1.320618748664856, -1.119140625, 0.33154296875, -0.9892578125, 0, 
88, 594073063, 81.81864929199219, -63.19195556640625, -129.86607360839844, 7.878592014312744, 3.1307992935180664, 0.9079675674438477, 0.5654086470603943, -0.09340230375528336, 0.6323385834693909, -1.11083984375, 0.32666015625, -0.97607421875, 0, 
89, 594081396, 81.77971649169922, -63.18416213989258, -129.82464599609375, 7.195631504058838, 1.3227026462554932, 0.9053899049758911, 2.5275871753692627, 2.956650972366333, -0.39790430665016174, -1.11962890625, 0.33251953125, -1.005859375, 0, 
90, 594089729, 81.83716583251953, -63.18254852294922, -129.86851501464844, 8.310022354125977, 2.9311506748199463, 1.667710781097412, 4.859917640686035, -1.7816622257232666, -0.3133517801761627, -1.1357421875, 0.33447265625, -1.02197265625, 0, 
91, 594098062, 81.8510971069336, -63.178916931152344, -129.86106872558594, 9.64823055267334, 6.900192737579346, -0.49843692779541016, 5.229094505310059, 1.061556339263916, -0.1697327196598053, -1.13037109375, 0.33447265625, -1.00732421875, 0, 
92, 594106395, 81.8490982055664, -63.18665313720703, -129.8740997314453, 10.596708297729492, 7.659535884857178, 0.8657801151275635, 1.2307894229888916, -0.18766269087791443, 1.0531036853790283, -1.125, 0.33056640625, -1.0029296875, 0, 
93, 594114728, 81.81941986083984, -63.1920166015625, -129.86160278320312, 8.252958297729492, 3.9284985065460205, 0.30244338512420654, 0.5402041673660278, 1.178434133529663, 0.9349451065063477, -1.1162109375, 0.32861328125, -0.978515625, 0, 
94, 594123061, 81.78034210205078, -63.18507766723633, -129.82701110839844, 7.831850051879883, 1.515952467918396, 0.9124547839164734, 1.623660683631897, 2.481942653656006, -0.3376084268093109, -1.11376953125, 0.3310546875, -0.99560546875, 0, 
95, 594131394, 81.82511901855469, -63.1827278137207, -129.86502075195312, 7.32749080657959, 2.3513386249542236, 1.3558083772659302, 4.062955856323242, -1.394349455833435, -0.36652693152427673, -1.1318359375, 0.3369140625, -1.021484375, 0, 
96, 594139727, 81.83700561523438, -63.177310943603516, -129.8435516357422, 9.427178382873535, 5.4609270095825195, 0.5673945546150208, 5.944271087646484, 1.5550403594970703, -0.29665130376815796, -1.13134765625, 0.3330078125, -1.009765625, 0, 
97, 594148060, 81.86947631835938, -63.18436813354492, -129.88487243652344, 10.439987182617188, 7.791876792907715, 0.34283214807510376, 2.2317426204681396, -1.7317655086517334, 0.7295190691947937, -1.12548828125, 0.33349609375, -1.00146484375, 0, 
98, 594156393, 81.81617736816406, -63.188812255859375, -129.84320068359375, 9.136724472045898, 5.450254917144775, 0.07273964583873749, 0.5644608736038208, 2.612600564956665, 1.0530781745910645, -1.11865234375, 0.32666015625, -0.9833984375, 0, 
99, 594164726, 81.80642700195312, -63.18876647949219, -129.84727478027344, 7.871460437774658, 2.32163405418396, 0.9074311256408691, 1.1557399034500122, 0.38224124908447266, 0.16662059724330902, -1.1103515625, 0.326171875, -0.9853515625, 0, 
100, 594173059, 81.79661560058594, -63.18220901489258, -129.8318328857422, 6.968952178955078, 1.6973329782485962, 0.8990690112113953, 3.2122812271118164, 1.5190008878707886, -0.43412286043167114, -1.12841796875, 0.3369140625, -1.01806640625, 0, 
101, 594181392, 81.83543395996094, -63.17801284790039, -129.8477783203125, 9.148241996765137, 4.102663516998291, 1.4928361177444458, 5.71299934387207, -0.18174582719802856, -0.4147073030471802, -1.134765625, 0.3369140625, -1.01416015625, 0, 
102, 594189725, 81.86566162109375, -63.1796875, -129.8725128173828, 9.983366012573242, 7.545495510101318, -0.13022401928901672, 3.6425232887268066, -0.8150321245193481, 0.22563578188419342, -1.126953125, 0.3369140625, -1.0146484375, 0, 
103, 594198058, 81.8238296508789, -63.18558883666992, -129.84002685546875, 10.362650871276855, 6.583010196685791, 0.04867420345544815, 1.2192634344100952, 2.2433459758758545, 1.160248041152954, -1.11962890625, 0.33837890625, -1.00146484375, 0, 
104, 594206391, 81.82280731201172, -63.189823150634766, -129.85711669921875, 7.792178153991699, 3.187342405319214, 0.8649075627326965, 0.6492183804512024, -0.4823288023471832, 0.5822371244430542, -1.111328125, 0.330078125, -0.986328125, 0, 
105, 594214724, 81.78401947021484, -63.18075942993164, -129.81436157226562, 7.111813068389893, 1.370397686958313, 0.7870937585830688, 2.684525489807129, 3.047043800354004, -0.538859486579895, -1.1181640625, 0.33837890625, -1.0166015625, 0, 
106, 594223057, 81.84440612792969, -63.17976379394531, -129.8632354736328, 8.346516609191895, 3.1172280311584473, 1.773255705833435, 4.711225986480713, -2.0437469482421875, -0.2773381173610687, -1.12939453125, 0.3427734375, -1.02880859375, 0, 
107, 594231390, 81.85614013671875, -63.176551818847656, -129.85411071777344, 9.735876083374023, 6.785337924957275, -0.5438727140426636, 5.1483330726623535, 1.1449562311172485, -0.10818172246217728, -1.123046875, 0.34130859375, -1.01611328125, 0, 
108, 594239723, 81.85110473632812, -63.1850700378418, -129.86183166503906, 10.653916358947754, 7.666925430297852, 0.7641735076904297, 1.1827116012573242, -0.0433264784514904, 1.1714414358139038, -1.1181640625, 0.3359375, -1.0078125, 0, 
109, 594248056, 81.82110595703125, -63.19088363647461, -129.84906005859375, 8.199790000915527, 3.9479830265045166, 0.34228500723838806, 0.5292669534683228, 1.1882699728012085, 0.9944470524787903, -1.111328125, 0.33203125, -0.9892578125, 0, 
110, 594256389, 81.7850570678711, -63.183387756347656, -129.8195037841797, 7.70850133895874, 1.4565812349319458, 1.0398237705230713, 1.8745522499084473, 2.4352991580963135, -0.41895923018455505, -1.11083984375, 0.33740234375, -1.0068359375, 0, 
111, 594264722, 81.83229064941406, -63.1807861328125, -129.85833740234375, 7.474341869354248, 2.211665630340576, 1.3007309436798096, 4.270841121673584, -1.4346150159835815, -0.40200263261795044, -1.12890625, 0.34423828125, -1.03271484375, 0, 
112, 594273055, 81.84302520751953, -63.174251556396484, -129.83750915527344, 9.437960624694824, 5.698816776275635, 0.4158710241317749, 6.0116868019104, 1.68239426612854, -0.41173604130744934, -1.13037109375, 0.341796875, -1.02294921875, 0, 
113, 594281388, 81.87274169921875, -63.18275451660156, -129.8778533935547, 10.417969703674316, 8.002570152282715, 0.5538589358329773, 2.005927562713623, -1.7069966793060303, 0.9038494825363159, -1.12158203125, 0.34033203125, -1.01513671875, 0, 
114, 594289721, 81.81568908691406, -63.18709945678711, -129.83389282226562, 9.056150436401367, 5.291390895843506, -0.060504280030727386, 0.5374635457992554, 2.8292717933654785, 1.074696660041809, -1.1162109375, 0.33349609375, -0.99267578125, 0, 
115, 594298054, 81.80447387695312, -63.185543060302734, -129.83897399902344, 8.100702285766602, 2.04599928855896, 0.8760301470756531, 0.87172931432724, 0.3557817339897156, -0.019044185057282448, -1.10693359375, 0.33740234375, -0.99365234375, 0, 
116, 594306387, 81.79857635498047, -63.17909240722656, -129.82481384277344, 6.806057453155518, 1.533128023147583, 1.094056248664856, 3.5168087482452393, 1.4291462898254395, -0.436658650636673, -1.12451171875, 0.3447265625, -1.02978515625, 0, 
117, 594314720, 81.83749389648438, -63.17471694946289, -129.8395538330078, 9.200284004211426, 4.432077407836914, 1.2697839736938477, 5.854311943054199, -0.11640387028455734, -0.4295891225337982, -1.13134765625, 0.34228515625, -1.0263671875, 0, 
118, 594323053, 81.8748779296875, -63.17960739135742, -129.87664794921875, 9.940363883972168, 7.907279968261719, -0.16335314512252808, 3.2332844734191895, -1.5049258470535278, 0.5202507376670837, -1.125, 0.3388671875, -1.0126953125, 0, 
119, 594331386, 81.8183364868164, -63.18644332885742, -129.8313446044922, 10.14792537689209, 6.4443817138671875, 0.214275062084198, 0.8276726603507996, 2.911954164505005, 1.364495873451233, -1.1171875, 0.3349609375, -1.001953125, 0, 
120, 594339719, 81.82527923583984, -63.19150924682617, -129.85641479492188, 7.984447002410889, 2.6337056159973145, 0.8547074198722839, 0.8647622466087341, -0.8622136116027832, 0.6339267492294312, -1.11181640625, 0.33154296875, -0.98974609375, 0, 
121, 594348052, 81.784912109375, -63.18156051635742, -129.8113555908203, 6.991948127746582, 1.3678736686706543, 0.8142950534820557, 2.744232654571533, 3.1851558685302734, -0.6276384592056274, -1.12109375, 0.34228515625, -1.02294921875, 0, 
122, 594356385, 81.83849334716797, -63.17959213256836, -129.8515625, 8.507376670837402, 3.587867498397827, 1.7438851594924927, 4.777259826660156, -1.587327003479004, -0.3266967833042145, -1.12939453125, 0.3427734375, -1.02783203125, 0, 
123, 594364718, 81.8592529296875, -63.17769241333008, -129.85360717773438, 9.81189250946045, 6.77773904800415, -0.49918460845947266, 5.031198978424072, 0.5233756303787231, -0.03587273508310318, -1.12353515625, 0.34033203125, -1.0146484375, 0, 
124, 594373051, 81.84334564208984, -63.185157775878906, -129.84991455078125, 10.561690330505371, 7.239338397979736, 0.7418082356452942, 1.2480535507202148, 0.6556475758552551, 1.1379379034042358, -1.11962890625, 0.337890625, -1.005859375, 0, 
125, 594381384, 81.82090759277344, -63.188785552978516, -129.8466033935547, 8.203766822814941, 4.027236461639404, 0.21924178302288055, 0.4255805015563965, 0.7155848145484924, 0.6594128012657166, -1.109375, 0.333984375, -0.98681640625, 0, 
126, 594389717, 81.79110717773438, -63.18247604370117, -129.81849670410156, 7.419307231903076, 1.6457915306091309, 1.1677532196044922, 1.993120551109314, 2.1025445461273193, -0.3170914351940155, -1.11328125, 0.337890625, -1.01123046875, 0, 
127, 594398050, 81.8395767211914, -63.181182861328125, -129.85833740234375, 7.667525291442871, 2.1909899711608887, 1.2094738483428955, 4.313232421875, -1.5110478401184082, -0.2530558407306671, -1.12744140625, 0.3466796875, -1.02978515625, 0, 
128, 594406383, 81.84651184082031, -63.17597961425781, -129.8336181640625, 9.608473777770996, 5.899478435516357, 0.12604744732379913, 5.917759418487549, 1.8374629020690918, -0.2313862144947052, -1.1279296875, 0.34130859375, -1.01904296875, 0, 
129, 594414716, 81.87435150146484, -63.18422317504883, -129.87399291992188, 10.45821475982666, 7.943042278289795, 0.8307315111160278, 1.77911376953125, -1.702309250831604, 0.8747773766517639, -1.11962890625, 0.337890625, -1.0087890625, 0, 
130, 594423049, 81.81968688964844, -63.1881103515625, -129.83038330078125, 8.929426193237305, 4.9805378913879395, -0.02806832082569599, 0.7148933410644531, 2.7799642086029053, 1.0138882398605347, -1.11474609375, 0.33447265625, -0.99267578125, 0, 
131, 594431382, 81.80342864990234, -63.18431091308594, -129.82809448242188, 8.063257217407227, 1.9005533456802368, 0.8637487292289734, 1.0549991130828857, 0.7904040217399597, -0.22593039274215698, -1.1103515625, 0.33642578125, -0.99755859375, 0, 
132, 594439715, 81.81745910644531, -63.17808151245117, -129.83245849609375, 6.791441917419434, 1.744655966758728, 1.246293067932129, 3.8439788818359375, 0.39215388894081116, -0.5589921474456787, -1.125, 0.34423828125, -1.03173828125, 0, 
133, 594448048, 81.84548950195312, -63.172733306884766, -129.83494567871094, 9.208955764770508, 4.7077507972717285, 1.145711898803711, 5.859922409057617, 0.5595685839653015, -0.4481850564479828, -1.12841796875, 0.34375, -1.0234375, 0, 
134, 594456381, 81.88536834716797, -63.17873764038086, -129.87794494628906, 10.25786018371582, 7.961183071136475, -0.17462851107120514, 2.8485846519470215, -1.8675721883773804, 0.5974776148796082, -1.12109375, 0.34033203125, -1.0146484375, 0, 
135, 594464714, 81.82777404785156, -63.185020446777344, -129.83172607421875, 9.90239429473877, 6.224095821380615, 0.09274379909038544, 0.8031344413757324, 2.972813844680786, 1.3105010986328125, -1.115234375, 0.33837890625, -0.998046875, 0, 
136, 594473047, 81.82379150390625, -63.1872673034668, -129.84225463867188, 7.921537399291992, 2.5898804664611816, 0.9124093651771545, 0.6320825219154358, -0.2748279571533203, 0.37430083751678467, -1.10693359375, 0.33349609375, -0.99169921875, 0, 
137, 594481380, 81.79097747802734, -63.178466796875, -129.80422973632812, 7.005690574645996, 1.2399561405181885, 0.8099055886268616, 2.8962273597717285, 2.787776231765747, -0.5471584796905518, -1.12109375, 0.345703125, -1.02978515625, 0, 
138, 594489713, 81.84867095947266, -63.17680358886719, -129.8432159423828, 8.586359977722168, 3.5273571014404297, 1.8750519752502441, 5.337904453277588, -1.5600991249084473, -0.28960737586021423, -1.13525390625, 0.34521484375, -1.03125, 0, 
139, 594498046, 81.87275695800781, -63.176170349121094, -129.85116577148438, 9.758444786071777, 7.301063537597656, -0.49095669388771057, 4.800159454345703, 0.18598495423793793, 0.07046475261449814, -1.12451171875, 0.3408203125, -1.017578125, 0, 
140, 594506379, 81.84986114501953, -63.18342208862305, -129.84120178222656, 10.691332817077637, 7.272261619567871, 0.4286854565143585, 1.1215193271636963, 1.0214701890945435, 1.1695972681045532, -1.12109375, 0.33935546875, -1.00390625, 0, 
141, 594514712, 81.83370971679688, -63.189605712890625, -129.84423828125, 7.985291004180908, 3.5304858684539795, 0.4620450437068939, 0.5002203583717346, 0.3335229754447937, 0.9134804010391235, -1.11181640625, 0.33251953125, -0.984375, 0, 
142, 594523045, 81.78998565673828, -63.18041229248047, -129.79986572265625, 7.390603542327881, 1.4174638986587524, 1.0886317491531372, 2.161226511001587, 3.0699172019958496, -0.5294333696365356, -1.1171875, 0.34033203125, -1.01318359375, 0, 
143, 594531378, 81.84861755371094, -63.180049896240234, -129.8508758544922, 7.786284446716309, 2.608731985092163, 1.4337660074234009, 4.338334083557129, -2.1249442100524902, -0.2301311194896698, -1.12841796875, 0.34521484375, -1.0302734375, 0, 
144, 594539711, 81.85577392578125, -63.17475128173828, -129.8282012939453, 9.64139175415039, 6.115379333496094, -0.14014509320259094, 5.736615180969238, 1.738822340965271, -0.25446459650993347, -1.12451171875, 0.3388671875, -1.017578125, 0, 
145, 594548044, 81.87452697753906, -63.18423080444336, -129.8604278564453, 10.559782981872559, 7.872398853302002, 0.8541831970214844, 1.562929391860962, -1.2877941131591797, 1.083815097808838, -1.12109375, 0.33984375, -1.01220703125, 0, 
146, 594556377, 81.82721710205078, -63.189483642578125, -129.8247528076172, 8.708928108215332, 4.694426536560059, 0.02081029862165451, 0.615074634552002, 2.264605760574341, 1.1049213409423828, -1.1142578125, 0.3330078125, -0.98876953125, 0, 
147, 594564710, 81.80546569824219, -63.18516540527344, -129.81259155273438, 7.8329386711120605, 1.7636349201202393, 1.040891408920288, 1.4550421237945557, 1.3269965648651123, -0.21028004586696625, -1.107421875, 0.337890625, -0.9990234375, 0, 
148, 594573043, 81.82503509521484, -63.181095123291016, -129.82513427734375, 6.958335876464844, 1.9460164308547974, 1.1109448671340942, 3.819671392440796, 0.01203869003802538, -0.3489811420440674, -1.12744140625, 0.345703125, -1.03271484375, 0, 
149, 594581376, 81.84727478027344, -63.17668914794922, -129.820068359375, 9.328315734863281, 4.989648818969727, 1.0414079427719116, 5.973342418670654, 0.9470608234405518, -0.2794385552406311, -1.1298828125, 0.34326171875, -1.02099609375, 0, 
150, 594589709, 81.88689422607422, -63.18309783935547, -129.86587524414062, 10.326271057128906, 7.84914493560791, 0.08321220427751541, 2.6281228065490723, -1.9699777364730835, 0.6343621015548706, -1.12255859375, 0.33935546875, -1.0078125, 0, 
151, 594598042, 81.82534790039062, -63.18754959106445, -129.81385803222656, 9.778674125671387, 5.97350549697876, -0.04186641797423363, 0.9474961161613464, 3.31307315826416, 1.1323028802871704, -1.1162109375, 0.3359375, -0.99658203125, 0, 
152, 594606375, 81.82184600830078, -63.1887092590332, -129.8292694091797, 7.882883548736572, 2.539609670639038, 0.9899606108665466, 0.5788305401802063, -0.31212225556373596, 0.23506180942058563, -1.1083984375, 0.33154296875, -0.9931640625, 0, 
153, 594614708, 81.79463195800781, -63.180458068847656, -129.79373168945312, 6.868875980377197, 1.2922157049179077, 0.8708205819129944, 3.3025972843170166, 2.645617723464966, -0.4991830587387085, -1.12353515625, 0.34619140625, -1.0263671875, 0, 
154, 594623041, 81.8490982055664, -63.17879867553711, -129.8278350830078, 8.87582778930664, 3.689387798309326, 1.6666152477264404, 5.3893890380859375, -1.3415584564208984, -0.2535937428474426, -1.13232421875, 0.33251953125, -1.01513671875, 0, 
155, 594631374, 81.8766860961914, -63.18067169189453, -129.84683227539062, 9.726669311523438, 7.6789398193359375, -0.38411107659339905, 4.0387492179870605, -0.44813379645347595, 0.28101369738578796, -1.13134765625, 0.32861328125, -0.99755859375, 0, 
156, 594639707, 81.83898162841797, -63.18824768066406, -129.81430053710938, 10.653528213500977, 7.1183953285217285, 0.26752832531929016, 1.0887842178344727, 1.889792561531067, 1.330966830253601, -1.12451171875, 0.32666015625, -0.986328125, 0, 
157, 594648040, 81.83500671386719, -63.19395065307617, -129.83029174804688, 7.982036113739014, 3.1134607791900635, 0.7221152782440186, 0.5729904174804688, -0.3525415062904358, 0.7608964443206787, -1.11279296875, 0.32470703125, -0.97802734375, 0, 
158, 594656373, 81.78502655029297, -63.18375778198242, -129.77810668945312, 7.200900077819824, 1.1513972282409668, 0.9691413044929504, 2.3399882316589355, 3.550645589828491, -0.5866299867630005, -1.12109375, 0.33203125, -1.00439453125, 0, 
159, 594664706, 81.84727478027344, -63.18156433105469, -129.83009338378906, 8.114948272705078, 3.0408997535705566, 1.5708297491073608, 4.662891864776611, -2.1456916332244873, -0.4520016014575958, -1.13427734375, 0.3359375, -1.0166015625, 0, 
160, 594673039, 81.860107421875, -63.177024841308594, -129.81814575195312, 9.621801376342773, 6.431346416473389, -0.2973233759403229, 5.548965930938721, 1.2899073362350464, -0.2250850945711136, -1.1279296875, 0.32958984375, -1.00341796875, 0, 
161, 594681372, 81.86627960205078, -63.18558120727539, -129.836669921875, 10.578725814819336, 7.746238708496094, 0.9229943156242371, 1.520076870918274, -0.5364261269569397, 1.082355260848999, -1.12353515625, 0.32763671875, -0.99951171875, 0, 
162, 594689705, 81.82879638671875, -63.19084167480469, -129.81948852539062, 8.55803394317627, 4.38746976852417, -0.04068807139992714, 0.34394797682762146, 1.539979100227356, 0.9995698928833008, -1.1142578125, 0.3232421875, -0.9736328125, 0, 
163, 594698038, 81.80249786376953, -63.18631362915039, -129.80062866210938, 7.655738353729248, 1.696631908416748, 1.2335896492004395, 1.6249927282333374, 1.6902576684951782, -0.19048024713993073, -1.11279296875, 0.3291015625, -0.9951171875, 0, 
164, 594706371, 81.833251953125, -63.18321228027344, -129.82386779785156, 7.184042453765869, 1.9106298685073853, 1.160788893699646, 3.9946165084838867, -0.5913941860198975, -0.32070302963256836, -1.13134765625, 0.3359375, -1.021484375, 0, 
165, 594714704, 81.85057830810547, -63.17767333984375, -129.8110809326172, 9.505982398986816, 5.389113903045654, 0.6291442513465881, 6.2118611335754395, 1.3822976350784302, -0.3518242835998535, -1.13134765625, 0.33544921875, -1.0078125, 0, 
166, 594723037, 81.88878631591797, -63.18514633178711, -129.8591766357422, 10.386723518371582, 7.9338579177856445, 0.31220191717147827, 2.214914083480835, -2.1061689853668213, 0.7452461123466492, -1.12646484375, 0.33056640625, -0.998046875, 0, 
167, 594731370, 81.82636260986328, -63.188880920410156, -129.8065948486328, 9.393948554992676, 5.5516557693481445, -0.025754444301128387, 0.9029273390769958, 3.3549013137817383, 1.0536671876907349, -1.1171875, 0.32958984375, -0.978515625, 0, 
168, 594739703, 81.82378387451172, -63.18926239013672, -129.82113647460938, 8.004239082336426, 2.2154858112335205, 0.9500477313995361, 0.7866131067276001, -0.2489575445652008, 0.15304505825042725, -1.11376953125, 0.32763671875, -0.98095703125, 0, 
169, 594748036, 81.81243133544922, -63.1827278137207, -129.80108642578125, 6.71621036529541, 1.5333874225616455, 1.0058307647705078, 3.547187328338623, 1.7862341403961182, -0.4160904288291931, -1.12744140625, 0.337890625, -1.01806640625, 0, 
170, 594756369, 81.85591125488281, -63.17972183227539, -129.82127380371094, 9.058591842651367, 4.220849990844727, 1.6235320568084717, 5.676370143890381, -0.5126047730445862, -0.30082637071609497, -1.13330078125, 0.33544921875, -1.0126953125, 0, 
171, 594764702, 81.89398956298828, -63.183040618896484, -129.8561248779297, 10.045085906982422, 7.822807788848877, -0.2922285199165344, 3.5992865562438965, -1.3238075971603394, 0.3325752019882202, -1.1279296875, 0.33203125, -1.005859375, 0, 
172, 594773035, 81.84333038330078, -63.1893196105957, -129.8164825439453, 10.37914752960205, 6.661682605743408, 0.14754784107208252, 0.8607150912284851, 2.573641538619995, 1.268954873085022, -1.123046875, 0.328125, -0.9912109375, 0, 
173, 594781368, 81.838134765625, -63.19378662109375, -129.83006286621094, 7.911144256591797, 2.9186174869537354, 0.8143654465675354, 0.6847196817398071, -0.20318490266799927, 0.633901059627533, -1.1123046875, 0.32861328125, -0.97802734375, 0, 
174, 594789701, 81.79692840576172, -63.183773040771484, -129.78392028808594, 7.068276882171631, 1.1051193475723267, 0.7684527039527893, 2.734703779220581, 3.2194273471832275, -0.61296147108078, -1.12353515625, 0.3349609375, -1.013671875, 0, 
175, 594798034, 81.85869598388672, -63.18233871459961, -129.83255004882812, 8.26638126373291, 3.1746785640716553, 1.788856863975525, 4.966830730438232, -1.9793528318405151, -0.33678877353668213, -1.1328125, 0.33740234375, -1.02001953125, 0, 
176, 594806367, 81.87252807617188, -63.17937469482422, -129.82469177246094, 9.733489990234375, 6.926112174987793, -0.48828184604644775, 5.08724308013916, 0.9733409285545349, -0.08080010116100311, -1.12646484375, 0.33544921875, -1.005859375, 0, 
177, 594814700, 81.86726379394531, -63.187984466552734, -129.8326873779297, 10.72563362121582, 7.617227554321289, 0.7871410250663757, 1.2733092308044434, 0.02471773698925972, 1.167752981185913, -1.1240234375, 0.3310546875, -0.99755859375, 0, 
178, 594823033, 81.83651733398438, -63.19300842285156, -129.8218231201172, 8.303034782409668, 4.0240678787231445, 0.2028045505285263, 0.15762999653816223, 1.0477503538131714, 0.9012624621391296, -1.1123046875, 0.32470703125, -0.9736328125, 0, 
179, 594831366, 81.80071258544922, -63.18684387207031, -129.79037475585938, 7.647557258605957, 1.4799834489822388, 1.1557178497314453, 1.8359001874923706, 2.3930866718292236, -0.28176939487457275, -1.11767578125, 0.33154296875, -0.998046875, 0, 
180, 594839699, 81.85092163085938, -63.184059143066406, -129.83184814453125, 7.324199199676514, 2.109752893447876, 1.2884598970413208, 4.325552940368652, -1.5955748558044434, -0.42648985981941223, -1.13330078125, 0.33642578125, -1.021484375, 0, 
181, 594848032, 81.85787963867188, -63.17759704589844, -129.8095245361328, 9.511175155639648, 5.769350528717041, 0.12689800560474396, 5.988096714019775, 1.9061602354049683, -0.3926790654659271, -1.13330078125, 0.333984375, -1.01318359375, 0, 
182, 594856365, 81.89090728759766, -63.186161041259766, -129.8566131591797, 10.424121856689453, 8.038512229919434, 0.7073597311973572, 1.6911799907684326, -2.0786845684051514, 0.881334662437439, -1.12646484375, 0.33251953125, -1.001953125, 0, 
183, 594864698, 81.83206176757812, -63.18998718261719, -129.80914306640625, 9.058406829833984, 5.046547889709473, -0.012152780778706074, 0.7830528616905212, 3.081444025039673, 1.026541829109192, -1.11962890625, 0.32861328125, -0.98291015625, 0, 
184, 594873031, 81.81968688964844, -63.187896728515625, -129.81060791015625, 8.03971004486084, 1.945258617401123, 0.933631956577301, 1.086965560913086, 0.5319051742553711, -0.03497623652219772, -1.11376953125, 0.32763671875, -0.9892578125, 0, 
185, 594881364, 81.82525634765625, -63.181724548339844, -129.8083038330078, 6.802895545959473, 1.7827305793762207, 1.0714830160140991, 3.6786651611328125, 0.8299267888069153, -0.5082248449325562, -1.126953125, 0.337890625, -1.02001953125, 0, 
186, 594889697, 81.85613250732422, -63.177555084228516, -129.81314086914062, 9.174439430236816, 4.5714006423950195, 1.4124341011047363, 5.786306858062744, 0.316694438457489, -0.3223167359828949, -1.13232421875, 0.333984375, -1.0126953125, 0, 
187, 594898030, 81.89239501953125, -63.183048248291016, -129.85012817382812, 10.219491958618164, 7.819202423095703, -0.20682133734226227, 3.1546237468719482, -1.4729593992233276, 0.5740150213241577, -1.1259765625, 0.33203125, -1.0029296875, 0, 
188, 594906363, 81.84083557128906, -63.188472747802734, -129.80670166015625, 10.099623680114746, 6.313436508178711, 0.05286155268549919, 0.9241104125976562, 2.671513557434082, 1.1788952350616455, -1.11865234375, 0.3271484375, -0.98974609375, 0, 
189, 594914696, 81.83734130859375, -63.19189453125, -129.822509765625, 7.815274715423584, 2.7757680416107178, 0.8992911577224731, 0.6471949815750122, -0.3037208318710327, 0.4944571852684021, -1.109375, 0.32666015625, -0.98046875, 0, 
190, 594923029, 81.80274200439453, -63.18277359008789, -129.7822265625, 6.962690353393555, 1.349204659461975, 0.7838637232780457, 2.978320837020874, 2.931318759918213, -0.540242612361908, -1.12353515625, 0.3330078125, -1.0166015625, 0, 
191, 594931362, 81.86311340332031, -63.18181228637695, -129.8280029296875, 8.542265892028809, 3.3989243507385254, 1.920338749885559, 5.103226661682129, -1.8360925912857056, -0.26209768652915955, -1.13330078125, 0.337890625, -1.021484375, 0, 
192, 594939695, 81.88169860839844, -63.180782318115234, -129.82986450195312, 9.735274314880371, 7.149723529815674, -0.4814002811908722, 4.816705703735352, 0.5181247591972351, 0.090213343501091, -1.1298828125, 0.33349609375, -1.01025390625, 0, 
193, 594948028, 81.86430358886719, -63.18886184692383, -129.82614135742188, 10.773685455322266, 7.404562950134277, 0.5329869389533997, 1.072672963142395, 0.6638697385787964, 1.1945455074310303, -1.1240234375, 0.3310546875, -0.99853515625, 0, 
194, 594956361, 81.8446044921875, -63.19397735595703, -129.8278350830078, 8.04226303100586, 3.6859171390533447, 0.4578820765018463, 0.37366044521331787, 0.4890013039112091, 0.8297731280326843, -1.115234375, 0.326171875, -0.97802734375, 0, 
195, 594964694, 81.80352783203125, -63.18521499633789, -129.78857421875, 7.45151424407959, 1.3401333093643188, 1.1134456396102905, 2.038892984390259, 2.8553214073181152, -0.5320460796356201, -1.1181640625, 0.33154296875, -1.00732421875, 0, 
196, 594973027, 81.86200714111328, -63.18378448486328, -129.8386688232422, 7.692934989929199, 2.425651788711548, 1.3694149255752563, 4.438665390014648, -2.060063362121582, -0.3297448754310608, -1.13427734375, 0.3349609375, -1.0234375, 0, 
197, 594981360, 81.87056732177734, -63.178466796875, -129.81883239746094, 9.537887573242188, 6.102909088134766, -0.0317562036216259, 5.915147304534912, 1.7541910409927368, -0.27362409234046936, -1.12841796875, 0.33544921875, -1.0087890625, 0, 
198, 594989693, 81.8918685913086, -63.18730163574219, -129.85299682617188, 10.569465637207031, 8.05868148803711, 0.790901243686676, 1.6449205875396729, -1.398831844329834, 1.0131455659866333, -1.123046875, 0.33740234375, -1.00732421875, 0, 
199, 594998026, 81.8412094116211, -63.191551208496094, -129.81675720214844, 8.853287696838379, 4.803313732147217, -0.008314907550811768, 0.5616176724433899, 2.4708261489868164, 0.9883764386177063, -1.1123046875, 0.333984375, -0.98974609375, 0, 
200, 595006359, 81.82223510742188, -63.188148498535156, -129.80735778808594, 7.928218364715576, 1.7236275672912598, 1.0543506145477295, 1.2993589639663696, 1.0508239269256592, -0.11998989433050156, -1.11181640625, 0.33740234375, -1.00146484375, 0, 
201, 595014692, 81.83808135986328, -63.18278121948242, -129.8152313232422, 6.884240627288818, 1.7973788976669312, 1.1527132987976074, 3.820772886276245, 0.2732270359992981, -0.49103766679763794, -1.12890625, 0.34423828125, -1.03515625, 0, 
202, 595023025, 81.86317443847656, -63.17750930786133, -129.80844116210938, 9.278669357299805, 4.911995887756348, 1.072862982749939, 6.032895088195801, 0.8060288429260254, -0.3849691152572632, -1.12939453125, 0.3427734375, -1.025390625, 0, 
203, 595031358, 81.90219116210938, -63.18349075317383, -129.85289001464844, 10.233138084411621, 7.9073920249938965, 0.012353930622339249, 2.683116912841797, -1.8828383684158325, 0.575526237487793, -1.1240234375, 0.33984375, -1.01513671875, 0, 
204, 595039691, 81.83877563476562, -63.18769836425781, -129.79872131347656, 9.795028686523438, 6.018795013427734, -0.04315107315778732, 0.8709350824356079, 3.3743162155151367, 1.1338139772415161, -1.11669921875, 0.33544921875, -0.998046875, 0, 
205, 595048024, 81.83833312988281, -63.18932342529297, -129.8195037841797, 7.959991931915283, 2.519674777984619, 0.9261500835418701, 0.4812146723270416, -0.5415233969688416, 0.23992854356765747, -1.10888671875, 0.3369140625, -0.9921875, 0, 
206, 595056357, 81.80607604980469, -63.18101119995117, -129.7783966064453, 6.8414692878723145, 1.3885308504104614, 0.8810974955558777, 3.1548285484313965, 2.863389730453491, -0.4516942501068115, -1.12255859375, 0.34228515625, -1.03076171875, 0, 
207, 595064690, 81.85920715332031, -63.179771423339844, -129.81436157226562, 8.84633731842041, 3.737718343734741, 1.7534692287445068, 5.284575939178467, -1.304033637046814, -0.2164275050163269, -1.12939453125, 0.34375, -1.02734375, 0, 
208, 595073023, 81.885498046875, -63.181007385253906, -129.83010864257812, 9.785944938659668, 7.497304916381836, -0.4113919734954834, 4.228475093841553, -0.2791055142879486, 0.2484324723482132, -1.125, 0.3369140625, -1.01611328125, 0, 
209, 595081356, 81.85115814208984, -63.187835693359375, -129.8075714111328, 10.615581512451172, 7.090665817260742, 0.40371033549308777, 1.0535646677017212, 1.6934082508087158, 1.1899605989456177, -1.119140625, 0.33642578125, -1.0009765625, 0, 
210, 595089689, 81.8409194946289, -63.192604064941406, -129.8159637451172, 7.969332695007324, 3.2921462059020996, 0.6208808422088623, 0.6070061326026917, 0.044312626123428345, 0.7264708876609802, -1.10888671875, 0.333984375, -0.98388671875, 0, 
211, 595098022, 81.79422760009766, -63.18359375, -129.76800537109375, 7.231379508972168, 1.2307170629501343, 0.9564283490180969, 2.2967002391815186, 3.3257007598876953, -0.4941369891166687, -1.11572265625, 0.3408203125, -1.0146484375, 0, 
212, 595106355, 81.85340118408203, -63.181854248046875, -129.8168487548828, 7.960500717163086, 2.8847672939300537, 1.542946696281433, 4.459976673126221, -2.0865485668182373, -0.373084157705307, -1.130859375, 0.34423828125, -1.0302734375, 0, 
213, 595114688, 81.86588287353516, -63.17884063720703, -129.8046112060547, 9.639928817749023, 6.318488597869873, -0.25940537452697754, 5.570559024810791, 1.308759331703186, -0.055544473230838776, -1.12548828125, 0.33984375, -1.0166015625, 0, 
214, 595123021, 81.87931060791016, -63.18782424926758, -129.8310089111328, 10.67872142791748, 7.779826641082764, 0.8786167502403259, 1.5328326225280762, -0.9838043451309204, 1.0890147686004639, -1.1201171875, 0.3388671875, -1.009765625, 0, 
215, 595131354, 81.83879089355469, -63.19281005859375, -129.80873107910156, 8.627172470092773, 4.589621067047119, 0.02794860489666462, 0.2852657437324524, 1.7112869024276733, 0.9674239754676819, -1.11083984375, 0.333984375, -0.98876953125, 0, 
216, 595139687, 81.81336212158203, -63.188438415527344, -129.7903289794922, 7.803251266479492, 1.7207438945770264, 1.0769553184509277, 1.5521458387374878, 1.5801165103912354, -0.15953826904296875, -1.109375, 0.3349609375, -1.00341796875, 0, 
217, 595148020, 81.84187316894531, -63.18546676635742, -129.81044006347656, 6.9745354652404785, 1.7510952949523926, 1.196940302848816, 4.0295796394348145, -0.42487606406211853, -0.30100560188293457, -1.12744140625, 0.3466796875, -1.033203125, 0, 
218, 595156353, 81.854248046875, -63.17953109741211, -129.79295349121094, 9.383295059204102, 5.269997596740723, 0.6138534545898438, 6.168829441070557, 1.6545770168304443, -0.34214210510253906, -1.12890625, 0.34228515625, -1.0205078125, 0, 
219, 595164686, 81.8927230834961, -63.187721252441406, -129.8409423828125, 10.334741592407227, 8.097471237182617, 0.3135533928871155, 2.2413992881774902, -2.1103951930999756, 0.8107930421829224, -1.125, 0.34033203125, -1.01123046875, 0, 
220, 595173019, 81.83069610595703, -63.19189453125, -129.78981018066406, 9.551443099975586, 5.662588596343994, 0.007323544006794691, 0.9245458245277405, 3.3222944736480713, 1.1223902702331543, -1.11669921875, 0.33349609375, -0.994140625, 0, 
221, 595181352, 81.82710266113281, -63.19352722167969, -129.80380249023438, 8.109356880187988, 2.1999993324279785, 0.879506528377533, 0.8336409330368042, -0.17536787688732147, 0.29225844144821167, -1.1083984375, 0.333984375, -0.9931640625, 0, 
222, 595189685, 81.81454467773438, -63.185768127441406, -129.78330993652344, 6.744311809539795, 1.4996614456176758, 0.9584322571754456, 3.4303090572357178, 1.8097734451293945, -0.5381677746772766, -1.123046875, 0.3408203125, -1.02734375, 0, 
223, 595198018, 81.85989379882812, -63.18202209472656, -129.8079376220703, 8.863253593444824, 4.073766231536865, 1.7264829874038696, 5.566357612609863, -0.65476393699646, -0.42997339367866516, -1.13134765625, 0.34375, -1.02685546875, 0, 
224, 595206351, 81.89327239990234, -63.18425750732422, -129.83358764648438, 10.057331085205078, 7.669713973999023, -0.42728787660598755, 3.9617531299591064, -0.8540424704551697, 0.29148998856544495, -1.125, 0.33837890625, -1.0126953125, 0, 
225, 595214684, 81.85122680664062, -63.19002914428711, -129.80369567871094, 10.422463417053223, 6.74298620223999, 0.18826286494731903, 0.9201657772064209, 2.105285167694092, 1.1202130317687988, -1.12060546875, 0.33740234375, -1.00146484375, 0, 
226, 595223017, 81.83934020996094, -63.193294525146484, -129.8064422607422, 7.872583389282227, 3.0884902477264404, 0.704833984375, 0.7514960169792175, 0.24310468137264252, 0.5744760632514954, -1.109375, 0.33251953125, -0.98486328125, 0, 
227, 595231350, 81.79936218261719, -63.18476867675781, -129.76426696777344, 7.129756927490234, 1.2951669692993164, 0.9727007746696472, 2.4817376136779785, 3.0052406787872314, -0.48296913504600525, -1.11767578125, 0.34033203125, -1.02099609375, 0, 
228, 595239683, 81.8580093383789, -63.18352508544922, -129.81002807617188, 8.209183692932129, 3.016268014907837, 1.66301429271698, 4.751081943511963, -1.9158037900924683, -0.2901708483695984, -1.13134765625, 0.3447265625, -1.03125, 0, 
229, 595248016, 81.8714828491211, -63.179195404052734, -129.7990264892578, 9.79758358001709, 6.645194053649902, -0.403351366519928, 5.555957794189453, 1.2643954753875732, -0.22254927456378937, -1.12451171875, 0.3408203125, -1.017578125, 0, 
230, 595256349, 81.87779235839844, -63.18766403198242, -129.81837463378906, 10.615254402160645, 7.63967227935791, 0.9195839166641235, 1.4485876560211182, -0.5904722213745117, 1.0851471424102783, -1.1201171875, 0.3369140625, -1.005859375, 0, 
231, 595264682, 81.84146881103516, -63.191471099853516, -129.7984161376953, 8.31900691986084, 4.203454494476318, 0.05458378046751022, 0.5411263108253479, 1.6059613227844238, 0.8096147179603577, -1.11279296875, 0.3349609375, -0.9833984375, 0, 
232, 595273015, 81.81082916259766, -63.18501663208008, -129.77392578125, 7.667447566986084, 1.651497721672058, 1.0809777975082397, 1.6630809307098389, 1.9831565618515015, -0.3542576730251312, -1.11279296875, 0.33837890625, -1.00537109375, 0, 
233, 595281348, 81.85298919677734, -63.18242645263672, -129.80809020996094, 7.1902241706848145, 2.0540478229522705, 1.27449631690979, 4.160853385925293, -1.1850043535232544, -0.36445218324661255, -1.12646484375, 0.3447265625, -1.03076171875, 0, 
234, 595289681, 81.8627700805664, -63.176612854003906, -129.78591918945312, 9.62662124633789, 5.552558898925781, 0.29647013545036316, 6.078948974609375, 1.7580585479736328, -0.3126601278781891, -1.12744140625, 0.3388671875, -1.0185546875, 0, 
235, 595298014, 81.89734649658203, -63.185794830322266, -129.83290100097656, 10.469503402709961, 8.080643653869629, 0.5441571474075317, 1.8820829391479492, -2.0732030868530273, 0.9353293180465698, -1.12255859375, 0.33935546875, -1.01171875, 0, 
236, 595306347, 81.836181640625, -63.19035720825195, -129.78114318847656, 9.215185165405273, 5.338571548461914, 0.12424849718809128, 0.810613751411438, 3.2068769931793213, 1.1543567180633545, -1.115234375, 0.33544921875, -0.9912109375, 0, 
237, 595314680, 81.83445739746094, -63.19074630737305, -129.79437255859375, 8.124856948852539, 2.020113229751587, 0.921758234500885, 1.1379122734069824, -0.11468774825334549, 0.15327556431293488, -1.1083984375, 0.33447265625, -0.99365234375, 0, 
238, 595323013, 81.82893371582031, -63.18293380737305, -129.781005859375, 6.647456645965576, 1.5625312328338623, 0.9490506052970886, 3.55010724067688, 1.4484080076217651, -0.60017991065979, -1.1220703125, 0.34375, -1.02783203125, 0, 
239, 595331346, 81.86311340332031, -63.17841720581055, -129.79376220703125, 9.04768180847168, 4.48953914642334, 1.5318803787231445, 5.495816230773926, -0.006493208464235067, -0.42876946926116943, -1.12890625, 0.34130859375, -1.02099609375, 0, 
240, 595339679, 81.90065002441406, -63.18110275268555, -129.82669067382812, 10.055668830871582, 7.606953144073486, -0.31517326831817627, 3.7089152336120605, -1.2368472814559937, 0.28795522451400757, -1.1220703125, 0.3388671875, -1.00830078125, 0, 
241, 595348012, 81.84941864013672, -63.187042236328125, -129.7874298095703, 10.340456008911133, 6.60529088973999, 0.0579528845846653, 0.8208593726158142, 2.6044812202453613, 1.213781714439392, -1.1162109375, 0.33447265625, -1.0009765625, 0, 
242, 595356345, 81.8390121459961, -63.1912841796875, -129.7982940673828, 7.86320686340332, 3.0921385288238525, 0.9058001637458801, 0.24576856195926666, -0.1185554787516594, 0.6394850015640259, -1.10498046875, 0.3310546875, -0.98388671875, 0, 
243, 595364678, 81.8010025024414, -63.18257141113281, -129.7578582763672, 7.167513847351074, 1.385348916053772, 0.8728540539741516, 2.531480312347412, 2.914797306060791, -0.5181887149810791, -1.11669921875, 0.34228515625, -1.0185546875, 0, 
244, 595373011, 81.86128234863281, -63.181724548339844, -129.80564880371094, 8.311314582824707, 2.920693874359131, 1.8997403383255005, 4.910197734832764, -1.94595205783844, -0.24209293723106384, -1.12939453125, 0.3427734375, -1.03173828125, 0, 
245, 595381344, 81.87390899658203, -63.179134368896484, -129.797119140625, 9.690618515014648, 6.9539265632629395, -0.52813321352005, 5.190494060516357, 1.1033843755722046, -0.03507869318127632, -1.12548828125, 0.33935546875, -1.0166015625, 0, 
246, 595389677, 81.87120056152344, -63.18836212158203, -129.8091278076172, 10.692418098449707, 7.581667900085449, 0.6350309252738953, 1.2394214868545532, -0.1653526872396469, 1.2369370460510254, -1.1181640625, 0.33837890625, -1.00341796875, 0, 
247, 595398010, 81.84400939941406, -63.1934928894043, -129.79783630371094, 8.128477096557617, 3.7749555110931396, 0.25670096278190613, 0.7085154056549072, 1.1173186302185059, 0.8981887698173523, -1.109375, 0.3349609375, -0.98876953125, 0, 
248, 595406343, 81.80097198486328, -63.18443298339844, -129.7579803466797, 7.5049848556518555, 1.5435878038406372, 1.1929019689559937, 1.7238636016845703, 2.8065004348754883, -0.5510774850845337, -1.11376953125, 0.337890625, -1.01123046875, 0, 
249, 595414676, 81.85237884521484, -63.1835823059082, -129.80360412597656, 7.592813968658447, 2.4784016609191895, 1.223451018333435, 4.047484874725342, -1.8276909589767456, -0.24304068088531494, -1.13232421875, 0.34326171875, -1.0322265625, 0, 
250, 595423009, 81.8663101196289, -63.17889404296875, -129.78712463378906, 9.566417694091797, 5.697476863861084, 0.4256075322628021, 5.95687198638916, 1.4306317567825317, -0.22600719332695007, -1.1318359375, 0.3349609375, -1.00634765625, 0, 
251, 595431342, 81.89274597167969, -63.187984466552734, -129.82505798339844, 10.592595100402832, 7.8705596923828125, 0.4604383707046509, 1.8735277652740479, -1.586993932723999, 0.9948825836181641, -1.126953125, 0.326171875, -0.99462890625, 0, 
252, 595439675, 81.83905792236328, -63.19283676147461, -129.77980041503906, 8.953478813171387, 5.195493221282959, 0.03844958171248436, 0.5085963010787964, 2.6044299602508545, 1.1036405563354492, -1.1171875, 0.322265625, -0.97412109375, 0, 
253, 595448008, 81.82601165771484, -63.192222595214844, -129.78038024902344, 7.797199726104736, 1.9788984060287476, 0.9659127593040466, 1.1338653564453125, 0.5793939828872681, 0.1277638077735901, -1.11279296875, 0.3271484375, -0.98095703125, 0, 
254, 595456341, 81.8260726928711, -63.1856575012207, -129.77227783203125, 6.891551971435547, 1.5719892978668213, 1.040385127067566, 3.6440088748931885, 1.1383990049362183, -0.49124258756637573, -1.1298828125, 0.3330078125, -1.0185546875, 0, 
255, 595464674, 81.86505889892578, -63.18246841430664, -129.7845458984375, 9.304747581481934, 4.540684700012207, 1.190912127494812, 6.127719402313232, -0.004572140984237194, -0.2676047384738922, -1.1328125, 0.33447265625, -1.01513671875, 0, 
256, 595473007, 81.9001235961914, -63.18621063232422, -129.82046508789062, 10.026150703430176, 7.955894470214844, 0.03037402406334877, 3.0281407833099365, -1.4520070552825928, 0.3867749869823456, -1.13037109375, 0.33056640625, -1.001953125, 0, 
257, 595481340, 81.84827423095703, -63.191627502441406, -129.77708435058594, 10.218804359436035, 6.375548362731934, 0.04881282523274422, 1.185503602027893, 2.833395481109619, 1.18437659740448, -1.11767578125, 0.3271484375, -0.9921875, 0, 
258, 595489673, 81.85169219970703, -63.19340896606445, -129.80166625976562, 7.858521461486816, 2.667874336242676, 0.9780153036117554, 0.4859532415866852, -0.78598552942276, 0.24533313512802124, -1.11279296875, 0.3271484375, -0.9794921875, 0, 
259, 595498006, 81.81147766113281, -63.18379211425781, -129.75462341308594, 7.0516133308410645, 1.2347108125686646, 0.6967123746871948, 2.9766814708709717, 3.286357879638672, -0.5746169686317444, -1.1220703125, 0.33642578125, -1.0126953125, 0, 
260, 595506339, 81.87223815917969, -63.1820182800293, -129.8013458251953, 8.465500831604004, 3.473625421524048, 1.8547807931900024, 5.0574798583984375, -1.8826847076416016, -0.34495970606803894, -1.13232421875, 0.3359375, -1.0185546875, 0, 
261, 595514672, 81.89222717285156, -63.17976379394531, -129.80467224121094, 9.760208129882812, 7.229494571685791, -0.6897013783454895, 4.805538177490234, 0.4601597785949707, -0.09107141941785812, -1.12841796875, 0.33544921875, -1.00244140625, 0, 
262, 595523005, 81.87264251708984, -63.18775939941406, -129.8009033203125, 10.670546531677246, 7.436373233795166, 0.650587260723114, 0.9314103722572327, 0.7143296599388123, 1.2158565521240234, -1.12353515625, 0.3310546875, -0.9970703125, 0, 
263, 595531338, 81.85444641113281, -63.19414138793945, -129.8018341064453, 8.185484886169434, 3.624338388442993, 0.42672431468963623, 0.4790630638599396, 0.4429726302623749, 0.9544889330863953, -1.11376953125, 0.326171875, -0.9775390625, 0, 
264, 595539671, 81.80912780761719, -63.18514633178711, -129.75753784179688, 7.4633636474609375, 1.3561780452728271, 1.1749335527420044, 2.0000360012054443, 3.082698345184326, -0.5033068060874939, -1.1171875, 0.33349609375, -1, 0, 
265, 595548004, 81.86590576171875, -63.18342208862305, -129.8061065673828, 7.724894046783447, 2.501361131668091, 1.410855770111084, 4.375218391418457, -1.9733591079711914, -0.3737757205963135, -1.13330078125, 0.33837890625, -1.02587890625, 0, 
266, 595556337, 81.8766098022461, -63.177207946777344, -129.78564453125, 9.530942916870117, 6.04142427444458, 0.0562407411634922, 6.030897617340088, 1.6882343292236328, -0.37249505519866943, -1.12939453125, 0.333984375, -1.01318359375, 0, 
267, 595564670, 81.90168762207031, -63.18635940551758, -129.8235321044922, 10.485273361206055, 7.850247859954834, 0.7114673256874084, 1.71502685546875, -1.584560751914978, 1.005563735961914, -1.125, 0.33203125, -1.00048828125, 0, 
268, 595573003, 81.8510513305664, -63.19103240966797, -129.78662109375, 8.801939010620117, 4.883516311645508, -0.08087094873189926, 0.629341721534729, 2.4823522567749023, 1.0644251108169556, -1.11767578125, 0.326171875, -0.98095703125, 0, 
269, 595581336, 81.83370971679688, -63.18836212158203, -129.7810516357422, 7.97026252746582, 1.9886119365692139, 0.9306134581565857, 1.2794053554534912, 0.9448066353797913, -0.07040072977542877, -1.11083984375, 0.32763671875, -0.99072265625, 0, 
270, 595589669, 81.8454360961914, -63.184146881103516, -129.7853240966797, 6.871238708496094, 1.7802653312683105, 1.1432592868804932, 3.6962618827819824, 0.42383873462677, -0.30866435170173645, -1.1298828125, 0.3369140625, -1.0205078125, 0, 
271, 595598002, 81.86979675292969, -63.17976379394531, -129.7833709716797, 9.376577377319336, 4.771925449371338, 1.0597164630889893, 5.896627902984619, 0.7801584005355835, -0.30082640051841736, -1.130859375, 0.33544921875, -1.0107421875, 0, 
272, 595606335, 81.90956115722656, -63.1860466003418, -129.82818603515625, 10.27286434173584, 7.909923553466797, 0.023203551769256592, 2.7036337852478027, -1.936833381652832, 0.6262936592102051, -1.1259765625, 0.33154296875, -1.001953125, 0, 
273, 595614668, 81.85124969482422, -63.1912727355957, -129.7798309326172, 9.809937477111816, 6.121178150177002, 0.1122957170009613, 0.9436797499656677, 3.104138135910034, 1.196671485900879, -1.11865234375, 0.328125, -0.98876953125, 0, 
274, 595623001, 81.85326385498047, -63.19483184814453, -129.79922485351562, 7.980906009674072, 2.59602427482605, 0.8500009179115295, 0.7741901874542236, -0.5857334733009338, 0.4909992516040802, -1.1103515625, 0.32861328125, -0.9794921875, 0, 
275, 595631334, 81.8239974975586, -63.18647003173828, -129.76402282714844, 6.807034969329834, 1.3266443014144897, 0.8430016040802002, 3.0203793048858643, 2.629096031188965, -0.5162932872772217, -1.123046875, 0.33642578125, -1.01318359375, 0, 
276, 595639667, 81.8759765625, -63.1840934753418, -129.798828125, 8.677570343017578, 3.7477548122406006, 1.7500094175338745, 5.202661037445068, -1.2713241577148438, -0.33033397793769836, -1.13037109375, 0.3359375, -1.01318359375, 0, 
277, 595648000, 81.90315246582031, -63.185150146484375, -129.81202697753906, 9.904794692993164, 7.276549339294434, -0.47952622175216675, 4.609128475189209, -0.12480536848306656, 0.23047688603401184, -1.126953125, 0.3369140625, -1.00341796875, 0, 
278, 595656333, 81.87588500976562, -63.19309616088867, -129.79942321777344, 10.597457885742188, 7.151715278625488, 0.4511108696460724, 1.0400148630142212, 1.2256922721862793, 1.2795591354370117, -1.11962890625, 0.3310546875, -0.99365234375, 0, 
279, 595664666, 81.86003875732422, -63.19829177856445, -129.80296325683594, 8.053908348083496, 3.5281972885131836, 0.5261127352714539, 0.4809584617614746, 0.32281622290611267, 0.7939900755882263, -1.111328125, 0.32568359375, -0.97705078125, 0, 
280, 595672999, 81.8212890625, -63.1897087097168, -129.76400756835938, 7.331732273101807, 1.3509516716003418, 1.085047960281372, 2.231128215789795, 2.796818733215332, -0.49557143449783325, -1.11572265625, 0.33203125, -1.00146484375, 0, 
281, 595681332, 81.88024139404297, -63.189605712890625, -129.81253051757812, 7.8212480545043945, 2.417391300201416, 1.5108810663223267, 4.638942718505859, -1.9970265626907349, -0.17785243690013885, -1.1318359375, 0.33642578125, -1.0205078125, 0, 
282, 595689665, 81.88854217529297, -63.18358612060547, -129.7906036376953, 9.61933708190918, 6.333323001861572, -0.25540778040885925, 5.9031596183776855, 1.7633097171783447, -0.337941437959671, -1.12939453125, 0.33203125, -1.0107421875, 0, 
283, 595697998, 81.90748596191406, -63.19232177734375, -129.82376098632812, 10.600539207458496, 8.029125213623047, 0.8643724918365479, 1.4863171577453613, -1.3245505094528198, 0.9920649528503418, -1.12646484375, 0.33056640625, -1.00048828125, 0, 
284, 595706331, 81.86153411865234, -63.197669982910156, -129.7926483154297, 8.631299018859863, 4.516427040100098, 0.12649103999137878, 0.46005725860595703, 2.1056435108184814, 1.0912944078445435, -1.11474609375, 0.32666015625, -0.98046875, 0, 
285, 595714664, 81.837646484375, -63.19377899169922, -129.77886962890625, 8.001188278198242, 1.649891972541809, 0.8615773320198059, 1.3733583688735962, 1.404991865158081, -0.1516234576702118, -1.11376953125, 0.32568359375, -0.98681640625, 0, 
286, 595722997, 81.86132049560547, -63.18817901611328, -129.79444885253906, 6.886385440826416, 1.9741636514663696, 1.2295615673065186, 3.921487331390381, -0.1604091227054596, -0.5619121789932251, -1.12890625, 0.33837890625, -1.0205078125, 0, 
287, 595731330, 81.88518524169922, -63.18152618408203, -129.79244995117188, 9.24140453338623, 4.990239143371582, 1.096244215965271, 5.8394060134887695, 0.8212435841560364, -0.5688281655311584, -1.13134765625, 0.3359375, -1.00732421875, 0, 
288, 595739663, 81.9225845336914, -63.1858024597168, -129.83407592773438, 10.389246940612793, 7.849588394165039, -0.1227155402302742, 2.7611632347106934, -1.731022834777832, 0.4115695059299469, -1.126953125, 0.330078125, -1.00048828125, 0, 
289, 595747996, 81.86715698242188, -63.190364837646484, -129.79196166992188, 9.699292182922363, 5.989446640014648, 0.1749987006187439, 0.6219648718833923, 2.7793750762939453, 1.0698810815811157, -1.119140625, 0.32763671875, -0.98291015625, 0, 
290, 595756329, 81.86076354980469, -63.191593170166016, -129.8008575439453, 7.830689430236816, 2.5868468284606934, 0.8768598437309265, 0.9116618633270264, 0.02671564742922783, 0.2958187758922577, -1.111328125, 0.3251953125, -0.9765625, 0, 
291, 595764662, 81.83677673339844, -63.18340301513672, -129.7723846435547, 7.016910552978516, 1.5368373394012451, 0.7653602957725525, 2.9349558353424072, 2.2652459144592285, -0.550334632396698, -1.12451171875, 0.33544921875, -1.0126953125, 0, 
292, 595772995, 81.88737487792969, -63.181339263916016, -129.8045196533203, 8.724796295166016, 3.5553858280181885, 1.8198498487472534, 5.254273414611816, -1.167893886566162, -0.2766977846622467, -1.13525390625, 0.33349609375, -1.01513671875, 0, 
293, 595781328, 81.910888671875, -63.180137634277344, -129.81451416015625, 9.933034896850586, 7.224270820617676, -0.3817397952079773, 4.514407157897949, 0.0865505114197731, -0.010898858308792114, -1.1259765625, 0.33544921875, -1.00390625, 0, 
294, 595789661, 81.88851928710938, -63.187957763671875, -129.8054656982422, 10.676817893981934, 7.068842887878418, 0.3714331090450287, 1.1626300811767578, 0.997700035572052, 1.2338120937347412, -1.12353515625, 0.33251953125, -1.00390625, 0, 
295, 595797994, 81.87628936767578, -63.19219970703125, -129.8121795654297, 7.829394817352295, 3.604825496673584, 0.6178768873214722, 0.5748346447944641, 0.16818305850028992, 0.657568633556366, -1.1103515625, 0.3310546875, -0.98876953125, 0, 
296, 595806327, 81.83312225341797, -63.183048248291016, -129.76910400390625, 7.28934383392334, 1.450907826423645, 0.9920977354049683, 2.1892998218536377, 3.048247814178467, -0.5333011746406555, -1.1142578125, 0.3388671875, -1.01025390625, 0, 
297, 595814660, 81.89105224609375, -63.18189239501953, -129.81869506835938, 7.897542476654053, 2.6685547828674316, 1.3874651193618774, 4.40155029296875, -2.037599802017212, -0.31032925844192505, -1.12890625, 0.34326171875, -1.0302734375, 0, 
298, 595822993, 81.89865112304688, -63.176368713378906, -129.7992706298828, 9.711256980895996, 6.175113677978516, -0.1597832292318344, 5.668276309967041, 1.679345965385437, -0.2926042079925537, -1.12841796875, 0.3388671875, -1.01904296875, 0, 
299, 595831326, 81.91432189941406, -63.18476867675781, -129.82843017578125, 10.57944107055664, 7.9503254890441895, 0.9508357048034668, 1.5194875001907349, -1.1018346548080444, 0.9838939905166626, -1.12451171875, 0.34033203125, -1.0087890625, 0, 
300, 595839659, 81.86983489990234, -63.189613342285156, -129.8005828857422, 8.643888473510742, 4.599725246429443, 0.05689883977174759, 0.5769350528717041, 2.082104444503784, 1.0252610445022583, -1.1142578125, 0.33251953125, -0.9853515625, 0, 
301, 595847992, 81.8478012084961, -63.18628692626953, -129.78753662109375, 7.884550094604492, 1.7153239250183105, 1.0038429498672485, 1.516337275505066, 1.3564788103103638, -0.0923008993268013, -1.109375, 0.337890625, -1, 0, 
302, 595856325, 81.87164306640625, -63.181793212890625, -129.80409240722656, 6.990996360778809, 1.7963825464248657, 1.204053282737732, 3.878763198852539, -0.20940916240215302, -0.4306136965751648, -1.1259765625, 0.3447265625, -1.0302734375, 0, 
303, 595864658, 81.89572143554688, -63.17667007446289, -129.79942321777344, 9.343277931213379, 5.081063747406006, 0.9193106889724731, 6.151566982269287, 0.9374555349349976, -0.3675259053707123, -1.12841796875, 0.3427734375, -1.021484375, 0, 
304, 595872991, 81.93228912353516, -63.18235778808594, -129.84091186523438, 10.285194396972656, 7.9438276290893555, 0.056224968284368515, 2.7047863006591797, -1.7346599102020264, 0.5848242044448853, -1.1259765625, 0.33740234375, -1.0126953125, 0, 
305, 595881324, 81.87037658691406, -63.18821716308594, -129.79042053222656, 9.726271629333496, 5.9833984375, 0.02656131610274315, 0.7405588626861572, 3.20841383934021, 1.288703441619873, -1.11376953125, 0.3349609375, -0.99609375, 0, 
306, 595889657, 81.86690521240234, -63.18998718261719, -129.80335998535156, 7.969325542449951, 2.4549410343170166, 0.9407491683959961, 0.6978853940963745, -0.2664520740509033, 0.3171042501926422, -1.10693359375, 0.33203125, -0.9892578125, 0, 
307, 595897990, 81.8404769897461, -63.18142318725586, -129.76991271972656, 6.906886577606201, 1.3622277975082397, 0.8185501098632812, 3.172783851623535, 2.5377557277679443, -0.5544585585594177, -1.11962890625, 0.3447265625, -1.025390625, 0, 
308, 595906323, 81.89370727539062, -63.178367614746094, -129.80323791503906, 8.766715049743652, 3.7376222610473633, 1.8168836832046509, 5.3129048347473145, -1.2797000408172607, -0.41145431995391846, -1.1328125, 0.34423828125, -1.029296875, 0, 
309, 595914656, 81.92288208007812, -63.178096771240234, -129.81918334960938, 9.812506675720215, 7.363774299621582, -0.44509175419807434, 4.557618141174316, -0.24726703763008118, 0.0526372566819191, -1.12548828125, 0.3408203125, -1.015625, 0, 
310, 595922989, 81.89085388183594, -63.18473434448242, -129.80038452148438, 10.569467544555664, 7.110658168792725, 0.4264948070049286, 0.9364820122718811, 1.4827313423156738, 1.158121943473816, -1.119140625, 0.33740234375, -1.0078125, 0, 
311, 595931322, 81.87979888916016, -63.19062805175781, -129.80770874023438, 7.951021671295166, 3.3029754161834717, 0.5984426140785217, 0.6502173542976379, 0.10806645452976227, 0.848420262336731, -1.10791015625, 0.33447265625, -0.9892578125, 0, 
312, 595939655, 81.83766174316406, -63.182010650634766, -129.7655792236328, 7.2665534019470215, 1.4357019662857056, 0.9383941292762756, 2.187224864959717, 2.9738123416900635, -0.4777950644493103, -1.1142578125, 0.3408203125, -1.01513671875, 0, 
313, 595947988, 81.89361572265625, -63.181312561035156, -129.8131866455078, 8.004483222961426, 2.8450534343719482, 1.4923909902572632, 4.37680721282959, -1.9374480247497559, -0.2397364377975464, -1.12841796875, 0.34375, -1.03369140625, 0, 
314, 595956321, 81.90946960449219, -63.17681121826172, -129.80380249023438, 9.707965850830078, 6.102560043334961, -0.11289870738983154, 5.707184791564941, 1.183685064315796, -0.23666271567344666, -1.1259765625, 0.34033203125, -1.017578125, 0, 
315, 595964654, 81.92294311523438, -63.18470001220703, -129.82904052734375, 10.517618179321289, 7.699770450592041, 0.8575810194015503, 1.6754270792007446, -0.8857017755508423, 0.9496733546257019, -1.119140625, 0.3388671875, -1.00830078125, 0, 
316, 595972987, 81.88352966308594, -63.18928909301758, -129.80618286132812, 8.61980152130127, 4.68089485168457, 0.07538319379091263, 0.6299309134483337, 1.8087749481201172, 0.9579979777336121, -1.11083984375, 0.333984375, -0.9873046875, 0, 
317, 595981320, 81.86344146728516, -63.18621826171875, -129.79640197753906, 7.739884853363037, 1.8898216485977173, 0.900526225566864, 1.3986396789550781, 1.1771022081375122, -0.08387381583452225, -1.109375, 0.33984375, -1.00048828125, 0, 
318, 595989653, 81.8819580078125, -63.18132019042969, -129.8068389892578, 7.049398422241211, 1.9429835081100464, 1.0829461812973022, 3.8527138233184814, 0.10299482941627502, -0.4375039339065552, -1.12744140625, 0.345703125, -1.03125, 0, 
319, 595997986, 81.90679931640625, -63.17758560180664, -129.8048553466797, 9.4417142868042, 4.918848037719727, 0.9419186115264893, 5.959305763244629, 0.7708092927932739, -0.223035991191864, -1.126953125, 0.341796875, -1.021484375, 0, 
320, 596006319, 81.9414291381836, -63.182865142822266, -129.8450927734375, 10.241073608398438, 7.837915420532227, 0.18023324012756348, 2.582939624786377, -1.6722124814987183, 0.544404923915863, -1.125, 0.33984375, -1.01513671875, 0, 
321, 596014652, 81.88495635986328, -63.18888854980469, -129.7985076904297, 9.71170711517334, 6.009722709655762, 0.042278166860342026, 0.9727775454521179, 2.99678897857666, 1.275307297706604, -1.11669921875, 0.333984375, -0.99365234375, 0, 
322, 596022985, 81.88768768310547, -63.19115447998047, -129.81944274902344, 7.953332424163818, 2.5489656925201416, 0.9797893166542053, 0.7977553606033325, -0.6012045741081238, 0.33303630352020264, -1.1083984375, 0.333984375, -0.98779296875, 0, 
323, 596031318, 81.85969543457031, -63.18241882324219, -129.78515625, 6.904890060424805, 1.3529189825057983, 0.8109610676765442, 3.0734519958496094, 2.5855774879455566, -0.5719018578529358, -1.11865234375, 0.345703125, -1.0244140625, 0, 
324, 596039651, 81.91152954101562, -63.179359436035156, -129.8196563720703, 8.79350757598877, 3.7465453147888184, 1.7316807508468628, 5.346561908721924, -1.1820073127746582, -0.3948562741279602, -1.12939453125, 0.34375, -1.0234375, 0, 
325, 596047984, 81.93933868408203, -63.18092346191406, -129.83554077148438, 9.78248119354248, 7.4452996253967285, -0.4977286159992218, 4.3990397453308105, -0.27841392159461975, 0.2673613727092743, -1.12451171875, 0.33935546875, -1.013671875, 0, 
326, 596056317, 81.90802001953125, -63.1881217956543, -129.81785583496094, 10.59232234954834, 7.179258346557617, 0.34969019889831543, 0.9138389825820923, 1.4225889444351196, 1.2175981998443604, -1.1201171875, 0.33740234375, -1.00439453125, 0, 
327, 596064650, 81.8965072631836, -63.194618225097656, -129.82540893554688, 8.00076961517334, 3.348396062850952, 0.7069011926651001, 0.5711718797683716, 0.08667857944965363, 0.9208062291145325, -1.109375, 0.3330078125, -0.9853515625, 0, 
328, 596072983, 81.85380554199219, -63.18631362915039, -129.78025817871094, 7.357056140899658, 1.31141197681427, 0.9230613112449646, 2.2516448497772217, 3.038923978805542, -0.43225300312042236, -1.11279296875, 0.33935546875, -1.0146484375, 0, 
329, 596081316, 81.9092788696289, -63.18453598022461, -129.82666015625, 7.899703025817871, 2.7510178089141846, 1.489001750946045, 4.449679374694824, -1.8562510013580322, -0.35827913880348206, -1.12841796875, 0.34521484375, -1.0302734375, 0, 
330, 596089649, 81.92515563964844, -63.17899703979492, -129.8111572265625, 9.591501235961914, 6.106854438781738, -0.11232646554708481, 5.907053470611572, 1.3014339208602905, -0.3455488681793213, -1.12841796875, 0.34228515625, -1.01513671875, 0, 
331, 596097982, 81.9418716430664, -63.18708419799805, -129.83853149414062, 10.51408863067627, 7.760401248931885, 0.7997358441352844, 1.832903265953064, -1.0026819705963135, 0.9613021612167358, -1.1201171875, 0.33984375, -1.00830078125, 0, 
332, 596106315, 81.90171813964844, -63.19223403930664, -129.81358337402344, 8.673003196716309, 4.738173961639404, -0.015885138884186745, 0.4526803493499756, 1.760005235671997, 1.0183963775634766, -1.11376953125, 0.33154296875, -0.9853515625, 0, 
333, 596114648, 81.87767028808594, -63.18906021118164, -129.80062866210938, 7.7884039878845215, 1.9033750295639038, 0.9932974576950073, 1.26444673538208, 1.3465659618377686, -0.0726291611790657, -1.10791015625, 0.3369140625, -0.998046875, 0, 
334, 596122981, 81.89712524414062, -63.18621826171875, -129.8129119873047, 7.084974765777588, 1.862850308418274, 1.200899600982666, 3.7880890369415283, -0.01778908632695675, -0.2082308977842331, -1.1240234375, 0.34326171875, -1.03271484375, 0, 
335, 596131314, 81.92024993896484, -63.18170166015625, -129.80865478515625, 9.467358589172363, 4.915963172912598, 0.9386641979217529, 5.992988586425781, 0.9056426286697388, -0.29767587780952454, -1.12744140625, 0.341796875, -1.0205078125, 0, 
336, 596139647, 81.95467376708984, -63.1877555847168, -129.8498077392578, 10.288278579711914, 7.915994167327881, 0.11969280987977982, 2.4425480365753174, -1.7436251640319824, 0.6274719834327698, -1.123046875, 0.33837890625, -1.0107421875, 0, 
337, 596147980, 81.895263671875, -63.192569732666016, -129.79957580566406, 9.726922035217285, 5.927821636199951, 0.14008912444114685, 1.0131455659866333, 3.2099249362945557, 1.156943917274475, -1.11474609375, 0.3330078125, -0.994140625, 0, 
338, 596156313, 81.89588165283203, -63.19463348388672, -129.81484985351562, 7.951386451721191, 2.4473023414611816, 0.8415319919586182, 0.8706790208816528, -0.42951229214668274, 0.33600756525993347, -1.10693359375, 0.33251953125, -0.990234375, 0, 
339, 596164646, 81.87051391601562, -63.18548583984375, -129.78323364257812, 6.810273170471191, 1.437910556793213, 0.8048079013824463, 3.1059563159942627, 2.45035982131958, -0.6414188742637634, -1.12109375, 0.34228515625, -1.02490234375, 0, 
340, 596172979, 81.91862487792969, -63.18400573730469, -129.81057739257812, 8.738487243652344, 3.8460211753845215, 1.812052607536316, 5.261932373046875, -1.0277328491210938, -0.1866893619298935, -1.12890625, 0.3427734375, -1.0224609375, 0, 
341, 596181312, 81.94507598876953, -63.185184478759766, -129.8252716064453, 10.009828567504883, 7.296900272369385, -0.4838722348213196, 4.361412525177002, -0.20477302372455597, 0.23667556047439575, -1.1220703125, 0.337890625, -1.0146484375, 0, 
342, 596189645, 81.91207885742188, -63.192665100097656, -129.80445861816406, 10.568235397338867, 7.066915035247803, 0.3379994034767151, 0.9222660660743713, 1.5205633640289307, 1.265881061553955, -1.12060546875, 0.33740234375, -0.99951171875, 0, 
343, 596197978, 81.89498138427734, -63.19807434082031, -129.8062286376953, 7.956535339355469, 3.513368606567383, 0.6154666543006897, 0.5189443826675415, 0.41392600536346436, 0.8361254334449768, -1.10791015625, 0.32958984375, -0.98193359375, 0, 
344, 596206311, 81.85633850097656, -63.189945220947266, -129.76820373535156, 7.257713317871094, 1.3489346504211426, 1.0653612613677979, 2.217449903488159, 2.772613048553467, -0.44815951585769653, -1.11474609375, 0.33740234375, -1.0107421875, 0, 
345, 596214644, 81.91145324707031, -63.18719482421875, -129.81283569335938, 7.908416748046875, 2.5492513179779053, 1.3799070119857788, 4.596500396728516, -1.7430360317230225, -0.4603518843650818, -1.12841796875, 0.3447265625, -1.02783203125, 0, 
346, 596222977, 81.9205322265625, -63.182037353515625, -129.79396057128906, 9.585193634033203, 6.403979778289795, -0.14137175679206848, 5.760615825653076, 1.6318315267562866, -0.2530045509338379, -1.12939453125, 0.3349609375, -1.00927734375, 0, 
347, 596231310, 81.93839263916016, -63.190006256103516, -129.82518005371094, 10.543903350830078, 7.8993988037109375, 0.8904865980148315, 1.563185691833496, -1.2065969705581665, 0.9178861975669861, -1.12890625, 0.32421875, -0.99365234375, 0, 
348, 596239643, 81.89327239990234, -63.19623565673828, -129.7955322265625, 8.648143768310547, 4.501326560974121, 0.024219105020165443, 0.5348252058029175, 2.0762641429901123, 1.1936490535736084, -1.11767578125, 0.3212890625, -0.9697265625, 0, 
349, 596247976, 81.86709594726562, -63.19120407104492, -129.78048706054688, 7.979867935180664, 1.721088171005249, 0.8912200927734375, 1.2324801683425903, 1.4922341108322144, -0.2802581787109375, -1.1123046875, 0.326171875, -0.98388671875, 0, 
350, 596256309, 81.89030456542969, -63.187007904052734, -129.79495239257812, 6.928369045257568, 1.998092532157898, 1.2784100770950317, 4.003120422363281, -0.11589159816503525, -0.38117820024490356, -1.13232421875, 0.33154296875, -1.01513671875, 0, 
351, 596264642, 81.91382598876953, -63.1808967590332, -129.79177856445312, 9.335759162902832, 5.004786491394043, 0.9160388708114624, 5.924674987792969, 0.8736504316329956, -0.4982353150844574, -1.1318359375, 0.33154296875, -1.0078125, 0, 
352, 596272975, 81.95317077636719, -63.18757629394531, -129.8374786376953, 10.3645658493042, 7.916455268859863, -0.027342474088072777, 2.590674877166748, -1.97305166721344, 0.6705806851387024, -1.13037109375, 0.32958984375, -0.99658203125, 0, 
353, 596281308, 81.89754486083984, -63.191593170166016, -129.7932891845703, 9.574907302856445, 5.877793788909912, 0.18972301483154297, 0.8175039887428284, 2.899454355239868, 1.0184988975524902, -1.119140625, 0.3251953125, -0.984375, 0, 
354, 596289641, 81.89275360107422, -63.19293212890625, -129.8057861328125, 7.900307655334473, 2.446401357650757, 0.8606942892074585, 0.8278264403343201, -0.11361195147037506, 0.2890310287475586, -1.11328125, 0.32763671875, -0.97998046875, 0, 
355, 596297974, 81.86477661132812, -63.18425750732422, -129.7716522216797, 6.898732662200928, 1.4986416101455688, 0.8088082671165466, 3.0578272342681885, 2.575972557067871, -0.5620659589767456, -1.125, 0.33447265625, -1.01611328125, 0, 
356, 596306307, 81.91415405273438, -63.181846618652344, -129.8025360107422, 8.900321960449219, 3.8281919956207275, 1.723617672920227, 5.307372093200684, -1.0658724308013916, -0.30456602573394775, -1.134765625, 0.333984375, -1.01513671875, 0, 
357, 596314640, 81.94357299804688, -63.18150329589844, -129.81971740722656, 9.923751831054688, 7.313592910766602, -0.31029871106147766, 4.455083847045898, -0.3140689730644226, 0.032811835408210754, -1.12744140625, 0.3291015625, -1.00341796875, 0, 
358, 596322973, 81.91443634033203, -63.18814468383789, -129.80291748046875, 10.590877532958984, 6.981448650360107, 0.3151979446411133, 1.0396562814712524, 1.3637531995773315, 1.1406787633895874, -1.123046875, 0.330078125, -0.99560546875, 0, 
359, 596331306, 81.9019775390625, -63.19290542602539, -129.80894470214844, 7.865974426269531, 3.5128114223480225, 0.538000762462616, 0.6202999353408813, 0.19669170677661896, 0.726624608039856, -1.11376953125, 0.32470703125, -0.9765625, 0, 
360, 596339639, 81.86200714111328, -63.184749603271484, -129.76878356933594, 7.222179412841797, 1.424564242362976, 1.0274587869644165, 2.24116849899292, 2.864823818206787, -0.43630000948905945, -1.11962890625, 0.33349609375, -1.00341796875, 0, 
361, 596347972, 81.92427825927734, -63.184078216552734, -129.82212829589844, 7.981749057769775, 2.6158809661865234, 1.5531374216079712, 4.521936893463135, -2.2472777366638184, -0.2821023762226105, -1.1337890625, 0.33740234375, -1.0224609375, 0, 
362, 596356305, 81.9303970336914, -63.17864227294922, -129.80258178710938, 9.744174003601074, 6.460435390472412, -0.3515624403953552, 5.643136501312256, 1.7558175325393677, -0.2694617807865143, -1.13134765625, 0.33203125, -1.0068359375, 0, 
363, 596364638, 81.9411849975586, -63.18825912475586, -129.82711791992188, 10.620916366577148, 7.890151500701904, 0.8521239161491394, 1.4308112859725952, -0.8770955204963684, 1.1628094911575317, -1.126953125, 0.32861328125, -1.0009765625, 0, 
364, 596372971, 81.89631652832031, -63.193538665771484, -129.79705810546875, 8.482283592224121, 4.354092121124268, 0.18542852997779846, 0.6173286437988281, 2.1189889907836914, 1.0866069793701172, -1.1162109375, 0.32666015625, -0.9814453125, 0, 
365, 596381304, 81.8703384399414, -63.188804626464844, -129.77879333496094, 7.912176609039307, 1.5501487255096436, 0.9658600091934204, 1.602400779724121, 1.660314679145813, -0.21727272868156433, -1.11376953125, 0.32958984375, -0.99658203125, 0, 
366, 596389637, 81.90462493896484, -63.183921813964844, -129.80477905273438, 7.051209449768066, 1.9902251958847046, 1.2485606670379639, 4.078452110290527, -0.7311967611312866, -0.5546378493309021, -1.130859375, 0.33935546875, -1.02490234375, 0, 
367, 596397970, 81.92353057861328, -63.17869186401367, -129.79495239257812, 9.342691421508789, 5.335102081298828, 0.8135555982589722, 6.085660457611084, 1.2148832082748413, -0.34155306220054626, -1.12939453125, 0.33447265625, -1.01025390625, 0, 
368, 596406303, 81.96076965332031, -63.185630798339844, -129.84039306640625, 10.392589569091797, 8.009259223937988, 0.10884604603052139, 2.3994903564453125, -1.9459006786346436, 0.7095911502838135, -1.12890625, 0.3330078125, -1.001953125, 0, 
369, 596414636, 81.89823913574219, -63.19009017944336, -129.7916717529297, 9.542197227478027, 5.744955062866211, -0.0018677394837141037, 0.47734692692756653, 3.137615919113159, 1.1065094470977783, -1.11962890625, 0.3291015625, -0.986328125, 0, 
370, 596422969, 81.89456939697266, -63.191932678222656, -129.80364990234375, 8.032964706420898, 2.365445137023926, 1.0432063341140747, 0.7793387770652771, -0.21343062818050385, 0.3340608775615692, -1.11083984375, 0.3251953125, -0.978515625, 0, 
371, 596431302, 81.87449645996094, -63.185020446777344, -129.7764434814453, 6.850543975830078, 1.3570255041122437, 0.822744607925415, 3.270117998123169, 2.176492691040039, -0.4069973826408386, -1.12158203125, 0.33642578125, -1.0126953125, 0, 
372, 596439635, 81.92292785644531, -63.18159484863281, -129.80369567871094, 8.91092300415039, 3.9407119750976562, 1.6469943523406982, 5.582596778869629, -0.8557843565940857, -0.3954453468322754, -1.1318359375, 0.33642578125, -1.01708984375, 0, 
373, 596447968, 81.9560775756836, -63.18340301513672, -129.82949829101562, 9.774591445922852, 7.507011413574219, -0.3836624324321747, 3.9791200160980225, -0.8107802271842957, 0.22576384246349335, -1.1279296875, 0.33251953125, -1.00341796875, 0, 
374, 596456301, 81.91597747802734, -63.18918228149414, -129.80177307128906, 10.56638240814209, 6.890024185180664, 0.2708876430988312, 0.9998517632484436, 2.0164809226989746, 1.1268726587295532, -1.11962890625, 0.328125, -0.99169921875, 0, 
375, 596464634, 81.9120101928711, -63.19473648071289, -129.81642150878906, 8.016884803771973, 3.1747751235961914, 0.6160958409309387, 0.7167887687683105, -0.2769027054309845, 0.75346839427948, -1.11083984375, 0.32763671875, -0.97802734375, 0, 
376, 596472967, 81.8682632446289, -63.18521499633789, -129.7697296142578, 7.122442722320557, 1.4624550342559814, 1.0307871103286743, 2.3558437824249268, 3.1744232177734375, -0.5561747550964355, -1.1201171875, 0.33203125, -1.00634765625, 0, 
377, 596481300, 81.92809295654297, -63.185028076171875, -129.81951904296875, 8.11384105682373, 2.8825106620788574, 1.6092920303344727, 4.61125373840332, -2.065262794494629, -0.1963202953338623, -1.1318359375, 0.33935546875, -1.02001953125, 0, 
378, 596489633, 81.94248962402344, -63.18157196044922, -129.80728149414062, 9.804556846618652, 6.4373087882995605, -0.41424545645713806, 5.453552722930908, 1.128230333328247, -0.11963129788637161, -1.12646484375, 0.3330078125, -1.0068359375, 0, 
379, 596497966, 81.9450454711914, -63.18930435180664, -129.8228302001953, 10.636272430419922, 7.671449661254883, 0.8875144124031067, 1.402840495109558, -0.3620700538158417, 1.0098412036895752, -1.12060546875, 0.3330078125, -0.9970703125, 0, 
380, 596506299, 81.91120910644531, -63.193660736083984, -129.79994201660156, 8.4302978515625, 4.4142937660217285, 0.12055664509534836, 0.6349768042564392, 1.4840375185012817, 0.8823078870773315, -1.11474609375, 0.32666015625, -0.974609375, 0, 
381, 596514632, 81.88290405273438, -63.18904495239258, -129.77883911132812, 7.711236000061035, 1.7193673849105835, 0.8669266104698181, 1.627272367477417, 1.8081859350204468, -0.18602338433265686, -1.111328125, 0.33203125, -0.98779296875, 0, 
382, 596522965, 81.91481018066406, -63.18524169921875, -129.80442810058594, 7.116260051727295, 2.019357681274414, 1.2498350143432617, 3.8572728633880615, -0.7182871699333191, -0.42195606231689453, -1.1279296875, 0.337890625, -1.0205078125, 0, 
383, 596531298, 81.92988586425781, -63.18013000488281, -129.79168701171875, 9.454052925109863, 5.269796848297119, 0.7588847875595093, 5.937636375427246, 1.370874047279358, -0.30418190360069275, -1.1298828125, 0.33544921875, -1.00830078125, 0, 
384, 596539631, 81.96505737304688, -63.187625885009766, -129.83396911621094, 10.486327171325684, 7.968441963195801, 0.2654506266117096, 2.3440866470336914, -1.8603746891021729, 0.7899429798126221, -1.1240234375, 0.33251953125, -1.00048828125, 0, 
385, 596547964, 81.90428924560547, -63.19303512573242, -129.78607177734375, 9.456709861755371, 5.768025875091553, 0.09053265303373337, 0.6010380387306213, 3.0780885219573975, 1.2127315998077393, -1.1162109375, 0.32666015625, -0.98828125, 0, 
386, 596556297, 81.89620971679688, -63.19320297241211, -129.79356384277344, 7.901280879974365, 2.290698289871216, 0.8819169402122498, 0.89654940366745, 0.1367800086736679, 0.18462739884853363, -1.1103515625, 0.32763671875, -0.98046875, 0, 
387, 596564630, 81.88125610351562, -63.186614990234375, -129.77162170410156, 6.813790798187256, 1.3733961582183838, 0.8453064560890198, 3.3223965167999268, 1.8890751600265503, -0.40868788957595825, -1.12353515625, 0.33544921875, -1.01513671875, 0, 
388, 596572963, 81.9249038696289, -63.1834716796875, -129.79246520996094, 8.842556953430176, 3.9061365127563477, 1.6633433103561401, 5.563694000244141, -0.5791250467300415, -0.3230595886707306, -1.13427734375, 0.337890625, -1.01806640625, 0, 
389, 596581296, 81.9564437866211, -63.18541717529297, -129.8155059814453, 10.023324966430664, 7.702620983123779, -0.4021107256412506, 4.0789899826049805, -0.6671867370605469, 0.26093223690986633, -1.1279296875, 0.33203125, -1.00146484375, 0, 
390, 596589629, 81.91570281982422, -63.19197463989258, -129.7854766845703, 10.574172973632812, 6.934222221374512, 0.1704060584306717, 0.8791062235832214, 1.9791865348815918, 1.2201341390609741, -1.12255859375, 0.33447265625, -0.99365234375, 0, 
391, 596597962, 81.90457916259766, -63.19728088378906, -129.7939910888672, 7.9722371101379395, 3.1507487297058105, 0.7875351905822754, 0.5162036418914795, 0.05624885484576225, 0.7699894905090332, -1.10791015625, 0.33251953125, -0.98291015625, 0, 
392, 596606295, 81.8639144897461, -63.18905258178711, -129.752685546875, 7.120923042297363, 1.2380971908569336, 1.0039236545562744, 2.357738971710205, 2.9651038646698, -0.4350961744785309, -1.11474609375, 0.341796875, -1.009765625, 0, 
393, 596614628, 81.92110443115234, -63.18742752075195, -129.79978942871094, 8.05121898651123, 2.9395601749420166, 1.5537207126617432, 4.577520847320557, -1.8945955038070679, -0.34403762221336365, -1.12939453125, 0.34814453125, -1.0322265625, 0, 
394, 596622961, 81.93486022949219, -63.18256378173828, -129.7872772216797, 9.770130157470703, 6.379370212554932, -0.39568760991096497, 5.638846397399902, 1.2785857915878296, -0.2683219313621521, -1.125, 0.34130859375, -1.0185546875, 0, 
395, 596631294, 81.94279479980469, -63.19023895263672, -129.80784606933594, 10.477269172668457, 7.723384380340576, 0.9725885987281799, 1.5128535032272339, -0.6285605430603027, 0.9643502831459045, -1.12060546875, 0.33984375, -1.0107421875, 0, 
396, 596639627, 81.90298461914062, -63.194801330566406, -129.78359985351562, 8.49386215209961, 4.336857318878174, 0.04013517498970032, 0.5117980241775513, 1.7743748426437378, 0.9453957080841064, -1.111328125, 0.33447265625, -0.994140625, 0, 
397, 596647960, 81.8761215209961, -63.18990707397461, -129.76547241210938, 7.704366207122803, 1.7707690000534058, 0.9371402263641357, 1.4801185131072998, 1.6551661491394043, -0.23338410258293152, -1.10986328125, 0.33984375, -1.00439453125, 0, 
398, 596656293, 81.90507507324219, -63.185089111328125, -129.7874755859375, 7.146320819854736, 2.0902538299560547, 1.243759036064148, 3.8244354724884033, -0.5359138250350952, -0.5203147530555725, -1.12841796875, 0.34423828125, -1.0322265625, 0, 
399, 596664626, 81.92627716064453, -63.180423736572266, -129.78085327148438, 9.549227714538574, 5.0948591232299805, 0.7600825428962708, 6.0165791511535645, 1.0346616506576538, -0.29613903164863586, -1.1298828125, 0.3427734375, -1.02197265625, 0, 
400, 596672959, 81.96027374267578, -63.185787200927734, -129.8234405517578, 10.38443374633789, 7.900197982788086, 0.2222580760717392, 2.2921154499053955, -1.7822002172470093, 0.5361828804016113, -1.123046875, 0.3388671875, -1.01220703125, 0, 
401, 596681292, 81.90209197998047, -63.189884185791016, -129.7755584716797, 9.463504791259766, 5.722804546356201, 0.16676388680934906, 0.9103555679321289, 3.0969150066375732, 1.0564591884613037, -1.11669921875, 0.3369140625, -0.99462890625, 0, 
402, 596689625, 81.90022277832031, -63.191436767578125, -129.7903594970703, 7.853492736816406, 2.4286906719207764, 0.87225341796875, 1.0397074222564697, -0.18863603472709656, 0.30667924880981445, -1.11083984375, 0.3349609375, -0.9912109375, 0, 
403, 596697958, 81.8767318725586, -63.182640075683594, -129.7606658935547, 6.861530780792236, 1.4921019077301025, 0.7654511332511902, 3.1238865852355957, 2.3420119285583496, -0.6141396760940552, -1.12060546875, 0.34375, -1.02978515625, 0, 
404, 596706291, 81.92473602294922, -63.17973709106445, -129.78955078125, 8.900172233581543, 3.996220111846924, 1.820183515548706, 5.31992244720459, -0.9619553089141846, -0.3466758728027344, -1.13232421875, 0.34130859375, -1.02734375, 0, 
405, 596714624, 81.95345306396484, -63.180931091308594, -129.8081512451172, 9.981782913208008, 7.373678684234619, -0.4626938998699188, 4.217973709106445, -0.41813963651657104, 0.20557984709739685, -1.12353515625, 0.341796875, -1.017578125, 0, 
406, 596722957, 81.91783905029297, -63.18745422363281, -129.78550720214844, 10.523975372314453, 6.986139297485352, 0.36624783277511597, 0.9302834868431091, 1.7022451162338257, 1.1747455596923828, -1.125, 0.33837890625, -1.0029296875, 0, 
407, 596731290, 81.90644836425781, -63.191627502441406, -129.79344177246094, 7.798108100891113, 3.3697829246520996, 0.7111928462982178, 0.5453526973724365, 0.10676012933254242, 0.6420207619667053, -1.11083984375, 0.33349609375, -0.984375, 0, 
408, 596739623, 81.86612701416016, -63.18359375, -129.75035095214844, 7.273288726806641, 1.3899234533309937, 0.9658791422843933, 2.275235414505005, 2.9010169506073, -0.4184725284576416, -1.11572265625, 0.341796875, -1.01806640625, 0, 
409, 596747956, 81.92847442626953, -63.18254852294922, -129.80270385742188, 8.106610298156738, 2.6612720489501953, 1.5953446626663208, 4.635920524597168, -2.185905933380127, -0.31304436922073364, -1.1318359375, 0.3447265625, -1.03369140625, 0, 
410, 596756289, 81.93708038330078, -63.17782974243164, -129.78248596191406, 9.668135643005371, 6.469798564910889, -0.2914711534976959, 5.781671047210693, 1.657317876815796, -0.19813892245292664, -1.12939453125, 0.34033203125, -1.015625, 0, 
411, 596764622, 81.94967651367188, -63.186702728271484, -129.80841064453125, 10.538616180419922, 7.847562789916992, 0.8825562000274658, 1.4976385831832886, -0.939337968826294, 1.0621711015701294, -1.1240234375, 0.33984375, -1.0078125, 0, 
412, 596772955, 81.91191864013672, -63.19243240356445, -129.78575134277344, 8.417010307312012, 4.384925842285156, 0.08030352741479874, 0.4873363971710205, 1.6165399551391602, 1.0662693977355957, -1.11376953125, 0.33349609375, -0.9892578125, 0, 
413, 596781288, 81.88052368164062, -63.18743133544922, -129.76263427734375, 7.866678714752197, 1.6144675016403198, 0.9780640602111816, 1.4699242115020752, 1.925268530845642, -0.2094092071056366, -1.11083984375, 0.337890625, -1.0009765625, 0, 
414, 596789621, 81.91197967529297, -63.18450164794922, -129.78697204589844, 7.137072563171387, 2.0056912899017334, 1.245357632637024, 3.9510467052459717, -0.6566849946975708, -0.30648714303970337, -1.12841796875, 0.34423828125, -1.03173828125, 0, 
415, 596797954, 81.9294662475586, -63.17927169799805, -129.77603149414062, 9.412273406982422, 5.241761684417725, 0.7440725564956665, 6.0350470542907715, 1.2756401300430298, -0.33338209986686707, -1.12744140625, 0.337890625, -1.01806640625, 0, 
416, 596806287, 81.96576690673828, -63.18626022338867, -129.82229614257812, 10.36320972442627, 8.004084587097168, 0.2286556214094162, 2.155207395553589, -2.015878677368164, 0.7032644152641296, -1.1240234375, 0.3359375, -1.01318359375, 0, 
417, 596814620, 81.90800476074219, -63.19137954711914, -129.77671813964844, 9.382322311401367, 5.689306259155273, 0.09491807967424393, 0.7122550010681152, 2.958930730819702, 1.1618105173110962, -1.11767578125, 0.3349609375, -0.99365234375, 0, 
418, 596822953, 81.90644836425781, -63.19220733642578, -129.79087829589844, 8.000161170959473, 2.2069668769836426, 0.8890912532806396, 1.0446765422821045, -0.19363079965114594, 0.21700377762317657, -1.11083984375, 0.33349609375, -0.99365234375, 0, 
419, 596831286, 81.89022064208984, -63.184303283691406, -129.76800537109375, 6.8226494789123535, 1.4860780239105225, 0.8753718137741089, 3.263483762741089, 1.9601550102233887, -0.5592739582061768, -1.12353515625, 0.34326171875, -1.0263671875, 0, 
420, 596839619, 81.93663024902344, -63.18141555786133, -129.79013061523438, 8.969118118286133, 4.119393825531006, 1.6386284828186035, 5.667021751403809, -0.6991533041000366, -0.3104060888290405, -1.1298828125, 0.34375, -1.025390625, 0, 
421, 596847952, 81.96981811523438, -63.18368911743164, -129.8150634765625, 9.99690055847168, 7.509609222412109, -0.31778281927108765, 4.0723042488098145, -0.7739725112915039, 0.2883138060569763, -1.12255859375, 0.33935546875, -1.01025390625, 0, 
422, 596856285, 81.93047332763672, -63.19013214111328, -129.7850799560547, 10.460938453674316, 6.765266418457031, 0.1770278364419937, 1.0739279985427856, 1.996424674987793, 1.207147479057312, -1.1181640625, 0.3359375, -0.99951171875, 0, 
423, 596864618, 81.9205551147461, -63.19416809082031, -129.7959442138672, 7.8885345458984375, 3.302081346511841, 0.6877673268318176, 0.40818843245506287, -0.04806511104106903, 0.6038042902946472, -1.107421875, 0.3330078125, -0.986328125, 0, 
424, 596872951, 81.88241577148438, -63.185794830322266, -129.7547607421875, 7.178078651428223, 1.3513103723526, 0.9683191180229187, 2.487679958343506, 2.87847638130188, -0.4660893976688385, -1.11865234375, 0.33935546875, -1.0166015625, 0, 
425, 596881284, 81.94547271728516, -63.185150146484375, -129.8057098388672, 8.130060195922852, 2.837566375732422, 1.7162303924560547, 4.874440670013428, -2.118438243865967, -0.25530990958213806, -1.12841796875, 0.34326171875, -1.02978515625, 0, 
426, 596889617, 81.9550552368164, -63.1815185546875, -129.79052734375, 9.707862854003906, 6.826800346374512, -0.4989338517189026, 5.337571144104004, 1.3609355688095093, -0.1068497821688652, -1.12646484375, 0.34033203125, -1.01708984375, 0, 
427, 596897950, 81.9570083618164, -63.19137954711914, -129.8076171875, 10.735138893127441, 7.78575325012207, 0.7661504149436951, 1.167752981185913, -0.48066389560699463, 1.2497953176498413, -1.1201171875, 0.33837890625, -1.00830078125, 0, 
428, 596906283, 81.92350006103516, -63.196537017822266, -129.79026794433594, 8.297250747680664, 3.978363513946533, 0.2472846806049347, 0.5507060885429382, 1.4066057205200195, 0.9706259369850159, -1.11279296875, 0.3330078125, -0.9873046875, 0, 
429, 596914616, 81.8874282836914, -63.18892288208008, -129.7584228515625, 7.73312520980835, 1.4120954275131226, 1.0322562456130981, 1.8418941497802734, 2.436067581176758, -0.4574317932128906, -1.1123046875, 0.34033203125, -1.01220703125, 0, 
430, 596922949, 81.93428802490234, -63.185672760009766, -129.795654296875, 7.253971576690674, 2.166618824005127, 1.2789521217346191, 4.272044658660889, -1.4153530597686768, -0.45512655377388, -1.12744140625, 0.345703125, -1.03515625, 0, 
431, 596931282, 81.94924926757812, -63.17915344238281, -129.781005859375, 9.402710914611816, 5.674155235290527, 0.48085954785346985, 6.1305623054504395, 1.4951285123825073, -0.4582771062850952, -1.1298828125, 0.34033203125, -1.0185546875, 0, 
432, 596939615, 81.98179626464844, -63.187679290771484, -129.82508850097656, 10.587345123291016, 8.070342063903809, 0.27758169174194336, 1.9704517126083374, -1.9055583477020264, 0.9095872044563293, -1.12353515625, 0.34326171875, -1.01171875, 0, 
433, 596947948, 81.92215728759766, -63.19204330444336, -129.77957153320312, 9.216306686401367, 5.366316318511963, 0.05863591283559799, 0.48270025849342346, 2.9683055877685547, 1.0691895484924316, -1.1162109375, 0.33642578125, -0.99462890625, 0, 
434, 596956281, 81.91200256347656, -63.19120407104492, -129.781494140625, 8.001276969909668, 2.018332004547119, 0.9310426712036133, 1.0634005069732666, 0.35898348689079285, 0.08867648243904114, -1.1083984375, 0.3349609375, -0.99462890625, 0, 
435, 596964614, 81.90447998046875, -63.18437957763672, -129.7644500732422, 6.731414794921875, 1.5215240716934204, 1.0605168342590332, 3.684223175048828, 1.6296800374984741, -0.4724161624908447, -1.1240234375, 0.3466796875, -1.0302734375, 0, 
436, 596972947, 81.94236755371094, -63.18048095703125, -129.77413940429688, 9.107522964477539, 4.354769706726074, 1.368072271347046, 5.915300369262695, -0.045734211802482605, -0.33952948451042175, -1.12939453125, 0.34326171875, -1.02392578125, 0, 
437, 596981280, 81.97820281982422, -63.183231353759766, -129.80770874023438, 9.992737770080566, 7.84913444519043, -0.20292340219020844, 3.4702162742614746, -1.2451207637786865, 0.2790670692920685, -1.123046875, 0.3427734375, -1.01806640625, 0, 
438, 596989613, 81.92816925048828, -63.18828582763672, -129.7664794921875, 10.365262985229492, 6.519638538360596, 0.07384013384580612, 1.1192395687103271, 2.6826303005218506, 1.1372720003128052, -1.119140625, 0.337890625, -1.001953125, 0, 
439, 596997946, 81.93016815185547, -63.1922607421875, -129.78857421875, 7.915393352508545, 2.842954635620117, 0.8691848516464233, 0.6325435042381287, -0.6493593454360962, 0.5118492841720581, -1.107421875, 0.3349609375, -0.98583984375, 0, 
440, 597006279, 81.88932800292969, -63.182010650634766, -129.74127197265625, 6.968964099884033, 1.277866005897522, 0.8225700259208679, 2.786649465560913, 3.2254981994628906, -0.6408810019493103, -1.1181640625, 0.34033203125, -1.02294921875, 0, 
441, 597014612, 81.94850158691406, -63.18050765991211, -129.7877960205078, 8.371574401855469, 3.3324391841888428, 1.7723010778427124, 4.881714344024658, -1.8689810037612915, -0.32936063408851624, -1.1279296875, 0.34326171875, -1.02783203125, 0, 
442, 597022945, 81.9661636352539, -63.17709732055664, -129.78338623046875, 9.821561813354492, 6.866755485534668, -0.5246132016181946, 5.081966400146484, 0.7439910769462585, -0.1639951467514038, -1.1220703125, 0.3359375, -1.0048828125, 0, 
443, 597031278, 81.95730590820312, -63.18534469604492, -129.7878875732422, 10.665473937988281, 7.45754337310791, 0.8147828578948975, 1.2160100936889648, 0.22230592370033264, 1.1496692895889282, -1.12451171875, 0.32421875, -0.9873046875, 0, 
444, 597039611, 81.93112182617188, -63.1894416809082, -129.7765350341797, 8.230183601379395, 3.938476800918579, 0.18563033640384674, 0.578318178653717, 0.9979050755500793, 0.7831040024757385, -1.11572265625, 0.32373046875, -0.97119140625, 0, 
445, 597047944, 81.89749145507812, -63.18335723876953, -129.74765014648438, 7.432890892028809, 1.5707405805587769, 1.237467646598816, 1.8209673166275024, 2.251337766647339, -0.30049338936805725, -1.11865234375, 0.33056640625, -0.9970703125, 0, 
446, 597056277, 81.94477081298828, -63.18143081665039, -129.7865447998047, 7.501147747039795, 2.2467145919799805, 1.2603408098220825, 4.23795223236084, -1.482667326927185, -0.29926392436027527, -1.13330078125, 0.33642578125, -1.017578125, 0, 
447, 597064610, 81.9564208984375, -63.176307678222656, -129.76913452148438, 9.603851318359375, 5.864352226257324, 0.2165219634771347, 6.025954723358154, 1.6208945512771606, -0.27088335156440735, -1.130859375, 0.32958984375, -1.005859375, 0, 
448, 597072943, 81.98627471923828, -63.18525314331055, -129.81185913085938, 10.542948722839355, 7.969454765319824, 0.6561421751976013, 1.7611578702926636, -1.8597341775894165, 0.9645039439201355, -1.12744140625, 0.3310546875, -0.998046875, 0, 
449, 597081276, 81.9276123046875, -63.188968658447266, -129.76556396484375, 8.911859512329102, 5.095558166503906, -0.040471743792295456, 0.6806214451789856, 3.0197389125823975, 0.9994161128997803, -1.11669921875, 0.32568359375, -0.9755859375, 0, 
450, 597089609, 81.91617584228516, -63.186763763427734, -129.76901245117188, 8.020668983459473, 1.9057962894439697, 0.9090333580970764, 0.9988271594047546, 0.42975565791130066, -0.062281012535095215, -1.1123046875, 0.32763671875, -0.98681640625, 0, 
451, 597097942, 81.92373657226562, -63.18170928955078, -129.76670837402344, 6.671102046966553, 1.541861891746521, 1.2071303129196167, 3.9147000312805176, 0.8101269006729126, -0.3787704408168793, -1.1298828125, 0.33544921875, -1.0205078125, 0, 
452, 597106275, 81.95362091064453, -63.17662048339844, -129.76951599121094, 9.28461742401123, 4.67830228805542, 1.1858513355255127, 6.026569366455078, 0.5049591064453125, -0.4036675989627838, -1.13427734375, 0.33349609375, -1.0107421875, 0, 
453, 597114608, 81.99606323242188, -63.183258056640625, -129.81692504882812, 10.215653419494629, 8.167948722839355, -0.14561663568019867, 2.77484130859375, -2.051046848297119, 0.6389726996421814, -1.12646484375, 0.33203125, -1.0029296875, 0, 
454, 597122941, 81.93528747558594, -63.18827438354492, -129.76797485351562, 9.986598014831543, 6.32982063293457, 0.22166821360588074, 0.7321317791938782, 3.1362838745117188, 1.1935979127883911, -1.1220703125, 0.32470703125, -0.9912109375, 0, 
455, 597131274, 81.93733978271484, -63.19286346435547, -129.7880096435547, 8.050782203674316, 2.4492053985595703, 0.9105281829833984, 0.8626106381416321, -0.5515641570091248, 0.5983997583389282, -1.11279296875, 0.32763671875, -0.98046875, 0, 
456, 597139607, 81.90361022949219, -63.1831169128418, -129.7473602294922, 6.858165740966797, 1.2043113708496094, 0.7955127358436584, 2.945099115371704, 2.8726108074188232, -0.6317622661590576, -1.12353515625, 0.33544921875, -1.0126953125, 0, 
457, 597147940, 81.95658874511719, -63.18071746826172, -129.78517150878906, 8.499066352844238, 3.7045297622680664, 1.8193330764770508, 5.073949337005615, -1.3842060565948486, -0.36422160267829895, -1.1337890625, 0.3369140625, -1.01806640625, 0, 
458, 597156273, 81.98236083984375, -63.17996597290039, -129.791015625, 9.897571563720703, 7.0758771896362305, -0.5959405303001404, 4.936579704284668, 0.13967444002628326, 0.07125880569219589, -1.1279296875, 0.33447265625, -1.0048828125, 0, 
459, 597164606, 81.96398162841797, -63.1867561340332, -129.78550720214844, 10.637602806091309, 7.214895248413086, 0.6282029747962952, 1.1474666595458984, 0.7814134955406189, 1.054486870765686, -1.1259765625, 0.3310546875, -0.99462890625, 0, 
460, 597172939, 81.94379425048828, -63.19131088256836, -129.78582763671875, 8.172874450683594, 3.7629175186157227, 0.29374581575393677, 0.40093961358070374, 0.5418179035186768, 0.7699382305145264, -1.111328125, 0.3232421875, -0.97314453125, 0, 
461, 597181272, 81.91065216064453, -63.18416213989258, -129.755859375, 7.339882850646973, 1.5438611507415771, 1.269019365310669, 1.9952976703643799, 2.326643466949463, -0.41498902440071106, -1.11767578125, 0.3330078125, -1.00048828125, 0, 
462, 597189605, 81.96485900878906, -63.1829948425293, -129.80152893066406, 7.653907775878906, 2.3686065673828125, 1.3488526344299316, 4.450268745422363, -1.8031526803970337, -0.25559166073799133, -1.130859375, 0.33544921875, -1.01904296875, 0, 
463, 597197938, 81.97075653076172, -63.17759704589844, -129.77957153320312, 9.680363655090332, 6.070240497589111, -0.028804313391447067, 5.8228840827941895, 1.866407036781311, -0.27044790983200073, -1.12841796875, 0.33447265625, -1.00390625, 0, 
464, 597206271, 81.99622344970703, -63.185760498046875, -129.8192901611328, 10.566935539245605, 7.907552242279053, 0.7810961604118347, 1.6400538682937622, -1.6423975229263306, 0.9018516540527344, -1.1259765625, 0.3310546875, -1.00048828125, 0, 
465, 597214604, 81.94246673583984, -63.189727783203125, -129.77694702148438, 8.760010719299316, 4.775364398956299, 0.020554320886731148, 0.8466785550117493, 2.804041624069214, 0.997136652469635, -1.1171875, 0.3271484375, -0.97802734375, 0, 
466, 597222937, 81.92264556884766, -63.18659210205078, -129.76841735839844, 7.9390549659729, 1.8253482580184937, 0.8418323993682861, 1.2015892267227173, 1.047545313835144, -0.08922718465328217, -1.115234375, 0.32666015625, -0.98583984375, 0, 
467, 597231270, 81.94037628173828, -63.18120574951172, -129.77865600585938, 6.870667457580566, 1.9283417463302612, 1.1943520307540894, 3.795133113861084, 0.14359338581562042, -0.5085834264755249, -1.12890625, 0.3369140625, -1.017578125, 0, 
468, 597239603, 81.96543884277344, -63.176395416259766, -129.77618408203125, 9.314518928527832, 4.853924751281738, 1.16712486743927, 5.814841270446777, 0.6914562582969666, -0.34390953183174133, -1.130859375, 0.3349609375, -1.009765625, 0, 
469, 597247936, 82.00303649902344, -63.182281494140625, -129.81849670410156, 10.380623817443848, 7.94944429397583, -0.05410962179303169, 2.7426187992095947, -1.7675485610961914, 0.5837996602058411, -1.125, 0.33447265625, -0.99755859375, 0, 
470, 597256269, 81.94525909423828, -63.18696212768555, -129.76904296875, 9.820335388183594, 6.085121154785156, 0.033927012234926224, 0.8405055999755859, 3.0126185417175293, 1.1370415687561035, -1.11865234375, 0.32373046875, -0.9833984375, 0, 
471, 597264602, 81.94184875488281, -63.18968200683594, -129.78416442871094, 7.802313804626465, 2.558350086212158, 0.9381167888641357, 0.7325927019119263, -0.2562575936317444, 0.41205617785453796, -1.10986328125, 0.32763671875, -0.97705078125, 0, 
472, 597272935, 81.91091918945312, -63.18054962158203, -129.74774169921875, 6.924957752227783, 1.268190622329712, 0.7682859897613525, 2.9585721492767334, 2.6991512775421143, -0.5772808790206909, -1.12255859375, 0.3359375, -1.0166015625, 0, 
473, 597281268, 81.96489715576172, -63.178218841552734, -129.78309631347656, 8.702688217163086, 3.607985019683838, 1.805904746055603, 5.457675933837891, -1.254341959953308, -0.33714738488197327, -1.13330078125, 0.33544921875, -1.01611328125, 0, 
474, 597289601, 81.98856353759766, -63.1779670715332, -129.79254150390625, 9.815665245056152, 7.441030025482178, -0.5074360370635986, 4.520605564117432, 0.046387381851673126, 0.11385527998209, -1.13134765625, 0.33349609375, -1.0068359375, 0, 
475, 597297934, 81.95975494384766, -63.185150146484375, -129.7767333984375, 10.736503601074219, 7.3030266761779785, 0.37352457642555237, 0.9965217113494873, 1.3296860456466675, 1.1818920373916626, -1.12255859375, 0.33154296875, -0.990234375, 0, 
476, 597306267, 81.94725036621094, -63.19049835205078, -129.78240966796875, 7.941308975219727, 3.395819664001465, 0.6065821051597595, 0.4154628813266754, 0.0745118111371994, 0.800726592540741, -1.11279296875, 0.326171875, -0.97509765625, 0, 
477, 597314600, 81.90198516845703, -63.182098388671875, -129.73666381835938, 7.370328426361084, 1.2552388906478882, 0.9871121048927307, 2.232818126678467, 3.1923015117645264, -0.44290846586227417, -1.11767578125, 0.33203125, -1.0048828125, 0, 
478, 597322933, 81.96116638183594, -63.18056106567383, -129.7884979248047, 7.808870315551758, 2.677412509918213, 1.5173366069793701, 4.348042011260986, -2.148637294769287, -0.3491348624229431, -1.1328125, 0.3349609375, -1.021484375, 0, 
479, 597331266, 81.96959686279297, -63.1745719909668, -129.76986694335938, 9.663851737976074, 6.235264301300049, -0.3169144093990326, 5.771733283996582, 1.6997349262237549, -0.3669367730617523, -1.13134765625, 0.33349609375, -1.00732421875, 0, 
480, 597339599, 81.98514556884766, -63.18317794799805, -129.80038452148438, 10.544975280761719, 7.902989387512207, 0.8911638259887695, 1.5252764225006104, -1.1064196825027466, 1.0337135791778564, -1.126953125, 0.33056640625, -1.00048828125, 0, 
481, 597347932, 81.94147491455078, -63.1883544921875, -129.7741241455078, 8.701189041137695, 4.534689426422119, 0.048072751611471176, 0.33505979180336, 1.9206064939498901, 1.0196770429611206, -1.11572265625, 0.32861328125, -0.97900390625, 0, 
482, 597356265, 81.91768646240234, -63.18472671508789, -129.75819396972656, 7.832067012786865, 1.7241369485855103, 1.0917739868164062, 1.4161856174468994, 1.4048895835876465, -0.09757743030786514, -1.1162109375, 0.330078125, -0.98828125, 0, 
483, 597364598, 81.93988037109375, -63.181209564208984, -129.77284240722656, 7.052911758422852, 2.005986213684082, 1.0800085067749023, 3.8571956157684326, -0.12680324912071228, -0.3246219754219055, -1.12939453125, 0.3369140625, -1.02197265625, 0, 
484, 597372931, 81.9613037109375, -63.176239013671875, -129.7641143798828, 9.33202075958252, 5.043920040130615, 1.1154205799102783, 5.914403915405273, 0.9613022804260254, -0.325569748878479, -1.130859375, 0.33447265625, -1.01025390625, 0, 
485, 597381264, 81.99706268310547, -63.18232345581055, -129.80479431152344, 10.346419334411621, 7.701827049255371, 0.05273018777370453, 2.6961543560028076, -1.6837646961212158, 0.6225027441978455, -1.12353515625, 0.3330078125, -1.0048828125, 0, 
486, 597389597, 81.93748474121094, -63.18735122680664, -129.75271606445312, 9.772331237792969, 5.93872594833374, -0.10605823248624802, 0.8563351631164551, 3.124706268310547, 1.1945711374282837, -1.11865234375, 0.33251953125, -0.994140625, 0, 
487, 597397930, 81.93328857421875, -63.189029693603516, -129.7672576904297, 7.82522439956665, 2.6707422733306885, 1.0562819242477417, 0.7007030248641968, -0.20515723526477814, 0.295306533575058, -1.10595703125, 0.333984375, -0.99169921875, 0, 
488, 597406263, 81.90735626220703, -63.18132781982422, -129.7352752685547, 6.922695636749268, 1.4089460372924805, 0.8069925904273987, 3.2292633056640625, 2.506685972213745, -0.4347120225429535, -1.11865234375, 0.34423828125, -1.02587890625, 0, 
489, 597414596, 81.95891571044922, -63.180091857910156, -129.77020263671875, 8.889002799987793, 3.67364501953125, 1.7278659343719482, 5.210806369781494, -1.25221586227417, -0.20922988653182983, -1.130859375, 0.34423828125, -1.03076171875, 0, 
490, 597422929, 81.98486328125, -63.18038558959961, -129.78431701660156, 9.794564247131348, 7.4737372398376465, -0.3546831011772156, 4.29356050491333, -0.21068990230560303, 0.14771731197834015, -1.1240234375, 0.3388671875, -1.017578125, 0, 
491, 597431262, 81.95204162597656, -63.1874885559082, -129.76275634765625, 10.629921913146973, 7.1318864822387695, 0.33701884746551514, 1.1364011764526367, 1.6388756036758423, 1.2161381244659424, -1.1201171875, 0.3359375, -1.00341796875, 0, 
492, 597439595, 81.940673828125, -63.192779541015625, -129.76986694335938, 7.96669340133667, 3.2881479263305664, 0.5732858180999756, 0.539948046207428, 0.07018300145864487, 0.7955012321472168, -1.10791015625, 0.33447265625, -0.9912109375, 0, 
493, 597447928, 81.89617919921875, -63.1827392578125, -129.7237548828125, 7.23329496383667, 1.2483737468719482, 1.0701409578323364, 2.363015651702881, 3.242095947265625, -0.637371838092804, -1.1162109375, 0.341796875, -1.01953125, 0, 
