DeviceID;Timestamp;Temperature;GyroX;GyroY;GyroZ;AccelX;AccelY;AccelZ;Dist1;Dist2;Dist3;Err1;Err2;Err3
2.0;1753877732.95065;15.960938;0.84;-1.68;-0.35;0.994788;-0.075396;0.027206;97.0;0.0;0.0;4.0;0.0;0.0
2.0;1753877732.955255;15.95293;0.87;-1.71;1.19;0.999433;-0.087649;0.025524;101.7;0.0;0.3;4.7;0.0;0.0
2.0;1753877732.959501;15.953125;0.91;-1.68;-0.35;0.996008;-0.077226;0.0305;106.0;0.0;0.0;5.0;0.0;0.0
2.0;1753877732.968173;15.953125;0.84;-1.68;-0.21;0.995276;-0.078934;0.03111;106.0;0.0;0.0;5.0;0.0;0.0
2.0;1753877732.972547;15.953125;0.84;-1.68;-0.35;0.994422;-0.076372;0.031476;106.0;0.0;0.0;5.0;0.0;0.0
2.0;1753877732.977097;15.992188;0.84;-1.75;-0.28;0.994056;-0.07442;0.03172;106.0;0.0;0.0;5.0;0.0;0.0
2.0;1753877732.981759;15.992188;0.84;-1.75;-0.28;0.996374;-0.077348;0.032086;106.0;0.0;0.0;5.0;0.0;0.0
2.0;1753877732.986279;15.992188;0.91;-1.61;-0.35;0.996984;-0.076494;0.029768;106.0;0.0;0.0;5.0;0.0;0.0
2.0;1753877732.990848;15.992188;0.91;-1.68;-0.42;0.995398;-0.076494;0.030256;106.0;0.0;0.0;5.0;0.0;0.0
2.0;1753877732.995402;15.953125;0.91;-1.61;-0.35;0.995764;-0.07564;0.029646;106.0;0.0;0.0;5.0;0.0;0.0
2.0;1753877733.000007;15.955843;0.92;-1.82;-0.1;0.994621;-0.075776;0.035552;106.2;0.0;0.6;5.3;0.0;0.2
2.0;1753877733.004612;15.953775;0.77;-1.55;-0.45;0.999209;-0.059059;0.030108;106.5;0.0;1.5;4.9;0.0;-0.1
2.0;1753877733.009216;15.953956;0.76;-1.85;0.52;0.986348;-0.073421;0.021869;106.3;0.0;-0.3;4.9;0.0;0.1
2.0;1753877733.013821;15.955118;0.79;-1.37;-1.17;1.002034;-0.065544;0.036047;105.6;0.0;1.4;5.0;0.0;0.2
2.0;1753877733.018426;15.951344;0.7;-1.52;0.39;1.001066;-0.074556;0.035805;106.3;0.0;0.5;5.1;0.0;-0.1
2.0;1753877733.023031;15.952387;1.01;-1.71;-0.41;0.988193;-0.072354;0.028025;106.7;0.0;-1.1;5.1;0.0;-0.0
2.0;1753877733.027636;15.952439;1.02;-1.47;-1.83;0.994362;-0.06647;0.031679;106.4;0.0;-0.2;5.1;0.0;-0.1
2.0;1753877733.032241;15.953879;0.82;-1.59;-0.17;1.000113;-0.071293;0.024379;106.6;0.0;0.3;4.9;0.0;-0.2
2.0;1753877733.036846;15.952037;1.01;-1.43;-0.6;0.989105;-0.074958;0.026588;106.1;0.0;-0.2;5.2;0.0;-0.0
2.0;1753877733.04145;15.954202;1.09;-1.68;-0.47;1.014788;-0.086024;0.031076;106.9;0.0;0.9;5.0;0.0;-0.1
2.0;1753877733.046055;15.95236;0.73;-1.52;-1.15;0.991603;-0.078685;0.031438;105.9;0.0;0.7;5.1;0.0;-0.1
2.0;1753877733.05066;15.952497;0.73;-1.5;-0.28;1.003032;-0.072879;0.026262;106.4;0.0;0.8;5.0;0.0;-0.1
2.0;1753877733.055265;15.954919;0.77;-1.54;-0.39;0.996002;-0.084055;0.032948;105.9;0.0;0.8;5.1;0.0;0.1
2.0;1753877733.05987;15.951926;1.0;-1.63;-1.55;0.996719;-0.072262;0.029862;106.4;0.0;0.1;5.1;0.0;0.1
2.0;1753877733.064474;15.95377;0.95;-1.26;-1.03;0.994853;-0.071909;0.041146;106.4;0.0;-1.3;5.1;0.0;0.1
2.0;1753877733.069079;15.952163;1.01;-1.44;-0.94;1.007273;-0.082974;0.020449;106.1;0.0;0.4;4.9;0.0;0.4
2.0;1753877733.073684;15.953441;0.73;-1.69;0.65;0.99437;-0.097092;0.032792;105.2;0.0;0.1;4.8;0.0;-0.1
2.0;1753877733.078289;15.95444;0.76;-1.57;0.12;1.004447;-0.06465;0.032218;105.7;0.0;-1.4;4.7;0.0;0.2
2.0;1753877733.082894;15.954356;0.87;-1.7;-0.86;0.995954;-0.075509;0.026133;105.9;0.0;0.9;4.9;0.0;0.1
2.0;1753877733.087498;15.950955;0.89;-1.69;0.23;0.993308;-0.087229;0.026741;106.9;0.0;1.0;5.1;0.0;0.1
2.0;1753877733.092103;15.951519;0.7;-1.55;-0.03;0.991778;-0.080252;0.032779;106.1;0.0;-0.9;5.0;0.0;0.2
2.0;1753877733.096708;15.95563;0.96;-1.64;-0.51;0.996109;-0.09478;0.025411;104.6;0.0;-0.3;5.0;0.0;-0.1
2.0;1753877733.101313;15.953394;1.06;-1.53;-1.03;1.002826;-0.074479;0.028958;107.0;0.0;-0.5;5.1;0.0;-0.0
2.0;1753877733.105918;15.956101;0.85;-1.68;-0.6;0.99535;-0.081567;0.033789;105.1;0.0;-1.3;5.0;0.0;-0.2
2.0;1753877733.110522;15.952813;0.93;-1.45;-0.67;1.007689;-0.083395;0.026643;106.3;0.0;0.6;4.9;0.0;-0.0
2.0;1753877733.115127;15.954401;0.82;-1.63;-0.64;0.978123;-0.088338;0.025996;106.5;0.0;-0.6;5.1;0.0;-0.1
2.0;1753877733.119732;15.95568;0.98;-1.61;-0.58;0.984876;-0.065842;0.033296;105.6;0.0;-0.2;5.0;0.0;-0.1
2.0;1753877733.124337;15.955469;0.69;-1.63;1.13;0.998489;-0.073884;0.030941;106.6;0.0;0.3;4.9;0.0;0.3
2.0;1753877733.128942;15.951265;0.81;-1.34;-0.16;0.99294;-0.072456;0.031322;106.5;0.0;0.2;5.1;0.0;-0.1
2.0;1753877733.133546;15.956166;0.84;-1.68;-0.93;1.0068;-0.077252;0.03515;105.6;0.0;0.0;5.1;0.0;-0.1
2.0;1753877733.138152;15.953169;1.03;-1.75;0.61;0.992895;-0.084084;0.014595;104.3;0.0;-0.7;5.0;0.0;0.1
2.0;1753877733.142756;15.95381;0.97;-1.7;-0.51;0.995137;-0.082714;0.035617;107.2;0.0;0.3;5.0;0.0;0.1
2.0;1753877733.147361;15.95344;0.83;-1.53;-0.49;0.987498;-0.074818;0.025823;106.0;0.0;-0.9;5.1;0.0;-0.2
2.0;1753877733.151966;15.951679;0.82;-1.8;0.33;0.987521;-0.084489;0.024362;105.5;0.0;-0.9;4.9;0.0;0.0
2.0;1753877733.156571;15.957992;0.85;-1.53;-1.49;0.990274;-0.076072;0.026923;105.4;0.0;1.3;4.8;0.0;0.0
2.0;1753877733.161176;15.952383;1.1;-1.68;-0.9;1.003036;-0.084269;0.041712;106.6;0.0;-0.9;5.3;0.0;0.1
2.0;1753877733.16578;15.953478;0.8;-1.61;-1.11;0.999826;-0.070126;0.028817;106.1;0.0;0.9;5.1;0.0;0.2
2.0;1753877733.170385;15.956128;0.95;-1.66;-0.78;0.988281;-0.08251;0.020405;105.9;0.0;0.6;5.0;0.0;-0.3
2.0;1753877733.17499;15.953401;0.86;-1.61;-2.34;1.003143;-0.080643;0.031959;106.5;0.0;-0.1;5.0;0.0;-0.1
2.0;1753877733.179595;15.952499;0.81;-1.39;0.37;1.000183;-0.082039;0.026642;106.4;0.0;-0.6;5.0;0.0;0.1
2.0;1753877733.1842;15.953266;1.01;-1.57;0.55;0.998583;-0.06876;0.030468;106.3;0.0;-0.6;5.0;0.0;-0.0
2.0;1753877733.188804;15.954396;0.66;-1.6;-1.14;1.002911;-0.088571;0.028579;105.4;0.0;0.9;5.1;0.0;-0.1
2.0;1753877733.193409;15.954521;0.75;-1.54;-0.12;0.994531;-0.081328;0.028191;107.3;0.0;-0.2;5.1;0.0;0.0
2.0;1753877733.198014;15.952392;0.88;-1.67;-0.63;1.000594;-0.0675;0.029142;106.3;0.0;-0.4;4.9;0.0;-0.0
2.0;1753877733.202619;15.953347;0.8;-1.65;-0.91;1.01707;-0.084386;0.03239;105.6;0.0;-2.1;5.1;0.0;-0.1
2.0;1753877733.207224;15.953623;1.13;-1.72;0.22;0.993469;-0.066035;0.036832;106.4;0.0;-0.1;5.0;0.0;-0.1
2.0;1753877733.211828;15.95587;1.0;-1.55;-1.03;0.995931;-0.061791;0.03543;105.6;0.0;0.4;5.3;0.0;-0.0
2.0;1753877733.216433;15.953978;1.02;-1.54;-0.11;0.998132;-0.072306;0.032111;105.9;0.0;0.3;4.9;0.0;0.1
2.0;1753877733.221038;15.954884;0.97;-1.85;0.13;0.99438;-0.077822;0.028281;106.1;0.0;-0.4;5.1;0.0;0.1
2.0;1753877733.225643;15.952083;0.9;-1.6;-1.31;0.998677;-0.078758;0.036078;105.8;0.0;-0.3;5.1;0.0;-0.0
2.0;1753877733.230248;15.953772;0.82;-1.68;-0.06;0.989005;-0.073059;0.041745;106.6;0.0;-0.5;4.9;0.0;-0.0
2.0;1753877733.234852;15.951816;0.84;-1.68;-2.24;0.992234;-0.070841;0.024219;105.3;0.0;0.2;5.1;0.0;-0.2
2.0;1753877733.239457;15.952713;0.78;-1.48;-0.53;1.002742;-0.066891;0.033645;105.7;0.0;0.2;4.9;0.0;0.1
2.0;1753877733.244062;15.955031;1.07;-1.56;-0.7;0.993647;-0.088034;0.033365;106.1;0.0;-0.7;5.0;0.0;0.0
2.0;1753877733.248667;15.954745;0.82;-1.53;-0.61;0.994965;-0.080159;0.030057;105.3;0.0;0.7;5.1;0.0;-0.0
2.0;1753877733.253272;15.952588;0.89;-1.59;-0.54;0.997593;-0.059614;0.029724;106.2;0.0;-0.3;5.1;0.0;0.1
2.0;1753877733.257877;15.953994;1.05;-1.45;0.3;0.987684;-0.076614;0.034972;105.8;0.0;-0.0;4.9;0.0;-0.1
2.0;1753877733.262482;15.954655;0.95;-1.42;-0.06;1.011911;-0.06159;0.031311;106.7;0.0;-1.1;5.1;0.0;-0.1
2.0;1753877733.267086;15.952938;1.01;-1.66;0.34;0.989691;-0.078042;0.028362;105.4;0.0;-0.2;5.2;0.0;-0.2
2.0;1753877733.271691;15.953521;0.8;-1.56;-1.08;0.994795;-0.071069;0.0314;106.4;0.0;-0.3;5.1;0.0;-0.1
2.0;1753877733.276296;15.953326;0.99;-1.47;-0.48;0.999194;-0.080211;0.028018;106.0;0.0;-0.7;5.0;0.0;-0.0
2.0;1753877733.280901;15.951659;1.06;-1.64;-0.56;0.993198;-0.07849;0.037496;106.1;0.0;0.6;5.1;0.0;0.2
2.0;1753877733.285506;15.954373;0.98;-1.5;-0.49;0.984743;-0.075802;0.032398;106.2;0.0;0.4;5.0;0.0;0.1
2.0;1753877733.29011;15.952837;0.87;-1.44;-0.38;0.969628;-0.071237;0.033905;105.4;0.0;0.5;5.1;0.0;-0.1
2.0;1753877733.294715;15.953256;0.93;-1.46;-0.12;1.001233;-0.08896;0.034203;105.9;0.0;1.2;5.0;0.0;0.0
2.0;1753877733.29932;15.949511;0.85;-1.61;-0.41;0.992311;-0.074647;0.030437;105.3;0.0;-0.5;4.9;0.0;-0.1
2.0;1753877733.303925;15.956152;0.63;-1.55;-0.32;1.000841;-0.077074;0.034179;106.6;0.0;0.1;4.8;0.0;0.3
2.0;1753877733.30853;15.953088;0.85;-1.55;-1.18;0.985064;-0.078639;0.031742;105.6;0.0;0.2;5.0;0.0;0.1
2.0;1753877733.313134;15.956222;0.83;-1.64;-0.26;1.006365;-0.080342;0.035221;105.4;0.0;-0.4;5.1;0.0;-0.2
2.0;1753877733.317739;15.952247;1.08;-1.74;-0.06;0.982787;-0.068645;0.029592;105.5;0.0;-0.4;4.9;0.0;-0.1
2.0;1753877733.322344;15.952593;0.96;-1.69;-0.72;1.000265;-0.07423;0.02479;105.1;0.0;0.3;5.2;0.0;-0.3
2.0;1753877733.326949;15.954498;0.92;-1.52;-0.68;1.001477;-0.079852;0.031444;105.2;0.0;-0.6;4.9;0.0;0.1
2.0;1753877733.331554;15.954061;1.01;-1.6;0.35;0.98649;-0.090772;0.027954;105.1;0.0;-0.6;5.0;0.0;-0.1
2.0;1753877733.336;15.953125;0.91;-1.54;-0.35;0.995764;-0.077592;0.030012;106.0;0.0;0.0;5.0;0.0;0.0
2.0;1753877733.340605;15.954891;0.86;-1.63;-0.33;0.998418;-0.094225;0.033269;106.5;0.0;1.2;5.0;0.0;0.2
2.0;1753877733.34521;15.951601;0.97;-1.47;-0.46;0.984941;-0.087182;0.031119;105.4;0.0;-0.0;4.9;0.0;-0.3
2.0;1753877733.349814;15.953352;0.89;-1.6;-1.18;0.986422;-0.070839;0.029555;104.6;0.0;-1.0;5.1;0.0;0.0
2.0;1753877733.354419;15.952584;0.73;-1.35;-0.24;0.999066;-0.077976;0.035245;104.0;0.0;0.2;5.0;0.0;-0.1
2.0;1753877733.359024;15.953241;0.91;-1.39;-0.34;0.995791;-0.083855;0.030796;105.9;0.0;0.2;5.2;0.0;0.1
2.0;1753877733.363629;15.951815;0.95;-1.77;1.62;0.985387;-0.082298;0.0364;105.5;0.0;-0.6;4.9;0.0;-0.1
2.0;1753877733.368234;15.951595;0.71;-1.61;0.03;0.98553;-0.088946;0.030254;104.6;0.0;0.8;5.1;0.0;0.0
2.0;1753877733.372838;15.951057;1.09;-1.66;0.0;0.988264;-0.076559;0.032524;104.7;0.0;1.0;4.7;0.0;-0.1
2.0;1753877733.377443;15.95416;1.01;-1.54;-0.35;0.986148;-0.076616;0.036026;104.3;0.0;0.1;5.1;0.0;0.2
2.0;1753877733.382048;15.951082;0.99;-1.4;0.16;0.994429;-0.091284;0.021201;105.4;0.0;1.1;5.2;0.0;-0.1
2.0;1753877733.386653;15.954659;0.88;-1.73;0.02;0.971715;-0.082267;0.038482;104.7;0.0;-0.3;4.9;0.0;0.1
2.0;1753877733.391258;15.951569;0.79;-1.66;-0.97;0.991338;-0.079673;0.036854;105.2;0.0;0.7;5.1;0.0;0.1
2.0;1753877733.395862;15.953538;1.07;-1.7;0.44;1.009298;-0.072216;0.022586;104.3;0.0;0.7;5.0;0.0;-0.1
2.0;1753877733.400468;15.953682;0.77;-1.41;-0.63;1.002245;-0.07303;0.032749;104.4;0.0;0.4;5.0;0.0;0.0
2.0;1753877733.405072;15.950918;0.95;-1.47;-0.48;0.987325;-0.077245;0.029665;105.2;0.0;0.2;5.0;0.0;0.0
2.0;1753877733.409677;15.954604;1.06;-1.41;-0.05;1.004827;-0.089297;0.039293;104.2;0.0;1.0;5.1;0.0;0.1
2.0;1753877733.414282;15.95306;0.83;-1.39;-0.71;0.990782;-0.066805;0.034303;103.4;0.0;-1.2;5.0;0.0;0.0
2.0;1753877733.418887;15.95641;0.9;-1.56;-0.51;0.979692;-0.085878;0.031598;104.9;0.0;-0.7;4.9;0.0;0.0
2.0;1753877733.423492;15.953374;0.85;-1.47;0.74;0.984656;-0.080939;0.033757;104.4;0.0;-0.9;5.3;0.0;0.0
2.0;1753877733.428096;15.954035;1.03;-1.43;-0.77;0.994639;-0.073126;0.025348;103.8;0.0;0.5;4.8;0.0;0.1
2.0;1753877733.432701;15.951421;0.97;-1.62;-1.53;0.993725;-0.085364;0.020601;104.9;0.0;-0.3;5.0;0.0;-0.1
2.0;1753877733.437306;15.953942;1.06;-1.45;-0.18;0.992837;-0.068918;0.030256;103.1;0.0;0.1;4.8;0.0;-0.1
2.0;1753877733.441911;15.952891;1.13;-1.54;0.37;0.998295;-0.0824;0.029216;103.4;0.0;-0.1;4.8;0.0;0.0
2.0;1753877733.446516;15.953606;0.92;-1.74;-0.64;1.001501;-0.067166;0.031471;103.7;0.0;0.0;5.0;0.0;-0.0
2.0;1753877733.45112;15.95223;1.2;-1.54;-1.09;1.003292;-0.060278;0.015917;104.2;0.0;-0.2;5.1;0.0;-0.1
2.0;1753877733.455725;15.952547;1.03;-1.52;-0.78;0.992393;-0.089647;0.036824;103.6;0.0;-0.1;4.9;0.0;-0.0
2.0;1753877733.46033;15.954409;1.03;-1.71;-0.72;1.00077;-0.074495;0.024264;103.6;0.0;0.5;4.8;0.0;0.1
2.0;1753877733.464935;15.952477;1.01;-1.47;-0.96;0.99373;-0.065682;0.021618;103.3;0.0;0.3;5.1;0.0;0.1
2.0;1753877733.46954;15.951129;1.09;-1.75;0.06;1.004;-0.090486;0.033386;103.9;0.0;-0.4;4.8;0.0;-0.0
2.0;1753877733.474144;15.949368;0.86;-1.7;-0.49;0.983286;-0.075357;0.030556;104.0;0.0;0.5;5.2;0.0;-0.1
2.0;1753877733.478749;15.951914;1.1;-1.71;1.07;0.981725;-0.077965;0.033622;103.8;0.0;-0.3;5.0;0.0;-0.0
2.0;1753877733.483354;15.953942;0.94;-1.46;0.33;0.997905;-0.070768;0.023625;103.8;0.0;-2.2;4.8;0.0;0.0
2.0;1753877733.487959;15.952409;0.95;-1.59;-0.44;0.979221;-0.08125;0.029783;103.0;0.0;-0.8;5.1;0.0;-0.0
2.0;1753877733.492564;15.952225;0.87;-1.36;-0.27;1.00903;-0.07531;0.032944;103.3;0.0;-1.1;5.2;0.0;-0.0
2.0;1753877733.497168;15.952811;1.01;-1.59;-0.32;1.004223;-0.085315;0.036612;102.1;0.0;-0.7;5.1;0.0;-0.1
2.0;1753877733.501773;15.953856;0.97;-1.75;0.34;0.984169;-0.075006;0.02883;103.0;0.0;-0.1;5.0;0.0;-0.0
2.0;1753877733.506378;15.952821;0.76;-1.48;0.3;0.99044;-0.089278;0.030771;103.3;0.0;1.1;4.9;0.0;-0.1
2.0;1753877733.510983;15.950674;0.95;-1.51;0.73;0.988176;-0.066177;0.028479;102.6;0.0;0.4;5.0;0.0;-0.1
2.0;1753877733.515588;15.954825;1.08;-1.5;0.03;0.996774;-0.061288;0.030495;102.0;0.0;0.0;5.1;0.0;-0.3
2.0;1753877733.520192;15.952552;0.86;-1.81;0.32;1.001653;-0.074404;0.022582;101.3;0.0;-0.0;5.0;0.0;-0.0
2.0;1753877733.524798;15.95119;0.86;-1.9;-0.65;1.00166;-0.066974;0.033405;102.6;0.0;0.3;4.9;0.0;0.1
2.0;1753877733.529402;15.95611;0.8;-1.56;0.22;0.990335;-0.066662;0.028815;101.8;0.0;-0.4;5.1;0.0;0.0
2.0;1753877733.534007;15.953937;0.96;-1.71;-0.41;0.990975;-0.076674;0.029173;101.4;0.0;-0.2;5.1;0.0;0.0
2.0;1753877733.538612;15.953709;0.82;-1.49;0.04;0.998798;-0.086351;0.032059;102.1;0.0;-1.2;5.0;0.0;-0.2
2.0;1753877733.543217;15.95309;0.86;-1.34;0.06;0.987731;-0.053346;0.031422;101.6;0.0;0.6;4.9;0.0;-0.0
2.0;1753877733.547822;15.951976;0.98;-1.7;0.2;0.983393;-0.083483;0.032097;100.9;0.0;-0.5;4.9;0.0;0.1
2.0;1753877733.552426;15.955107;1.1;-1.38;-0.45;0.995218;-0.053191;0.036369;102.7;0.0;-0.7;5.0;0.0;-0.1
2.0;1753877733.557031;15.953001;0.7;-1.86;-0.81;0.998521;-0.063722;0.032003;101.0;0.0;-0.1;5.0;0.0;0.1
2.0;1753877733.561636;15.948832;0.64;-1.7;-0.31;0.995667;-0.075342;0.025993;102.2;0.0;0.9;5.1;0.0;-0.2
2.0;1753877733.566241;15.95363;0.85;-1.4;-1.14;1.000334;-0.089107;0.024705;100.3;0.0;-0.1;5.0;0.0;0.1
2.0;1753877733.570846;15.954755;0.92;-1.77;-1.18;1.009449;-0.070932;0.024326;101.9;0.0;-2.0;5.0;0.0;-0.1
2.0;1753877733.57545;15.953731;0.87;-1.74;-0.25;0.997459;-0.07123;0.030296;101.3;0.0;0.1;4.9;0.0;-0.1
2.0;1753877733.580055;15.95599;0.93;-1.43;-0.54;0.988879;-0.096042;0.030307;100.8;0.0;-0.5;5.1;0.0;0.0
2.0;1753877733.58466;15.951843;0.9;-1.47;-0.79;0.99687;-0.059906;0.030355;100.3;0.0;-0.7;5.1;0.0;-0.1
2.0;1753877733.589265;15.953947;1.07;-1.53;-0.84;1.005552;-0.075534;0.037219;100.5;0.0;0.2;5.2;0.0;0.1
2.0;1753877733.59387;15.955778;0.81;-1.47;0.2;0.996389;-0.064196;0.026219;99.3;0.0;-1.0;5.0;0.0;-0.1
2.0;1753877733.598474;15.953104;0.84;-1.65;0.29;1.013466;-0.078188;0.036331;100.3;0.0;0.6;5.1;0.0;0.0
2.0;1753877733.603079;15.948292;0.81;-1.27;-1.46;0.990831;-0.065102;0.023134;99.2;0.0;-0.0;5.0;0.0;0.2
2.0;1753877733.607684;15.953067;1.11;-1.57;0.84;1.006544;-0.093471;0.029478;101.1;0.0;-1.7;5.1;0.0;-0.1
2.0;1753877733.612289;15.953013;1.05;-1.54;0.51;1.00877;-0.07886;0.032007;101.3;0.0;1.7;4.9;0.0;-0.1
2.0;1753877733.616894;15.951802;0.73;-1.48;-0.57;0.994264;-0.076315;0.038228;100.7;0.0;-0.5;5.0;0.0;-0.0
2.0;1753877733.621498;15.949883;0.86;-1.35;-0.51;1.001623;-0.088606;0.029576;98.9;0.0;1.5;5.0;0.0;0.1
2.0;1753877733.626104;15.955021;0.8;-1.48;-0.94;1.005195;-0.069061;0.023185;100.4;0.0;-0.1;4.9;0.0;0.1
2.0;1753877733.630708;15.956267;0.78;-1.55;-1.58;0.997017;-0.068506;0.033559;100.3;0.0;0.2;5.1;0.0;-0.0
2.0;1753877733.635313;15.953991;1.08;-1.6;-0.47;0.996843;-0.07468;0.027823;99.7;0.0;0.1;4.7;0.0;0.0
2.0;1753877733.639918;15.954617;0.72;-1.77;0.74;0.994849;-0.089093;0.030023;100.4;0.0;1.7;4.9;0.0;0.1
2.0;1753877733.644523;15.95083;0.98;-1.36;0.68;0.992336;-0.068285;0.032592;99.9;0.0;-0.2;5.0;0.0;-0.1
2.0;1753877733.649128;15.951842;0.94;-1.79;0.11;0.997249;-0.068213;0.030497;98.5;0.0;-0.1;4.9;0.0;-0.0
2.0;1753877733.653732;15.955745;0.98;-1.61;-0.8;1.002057;-0.073687;0.028684;99.3;0.0;-0.6;5.1;0.0;0.1
2.0;1753877733.658337;15.953588;0.93;-1.49;-0.52;1.008773;-0.07989;0.025617;98.9;0.0;-0.7;5.0;0.0;0.1
2.0;1753877733.662942;15.954585;0.81;-1.42;-0.34;0.985832;-0.061615;0.03416;99.7;0.0;1.2;5.1;0.0;0.1
2.0;1753877733.667547;15.952492;0.98;-1.47;-0.42;0.994512;-0.095811;0.032596;99.2;0.0;0.4;5.2;0.0;-0.1
2.0;1753877733.672152;15.954266;0.9;-1.65;0.12;0.990597;-0.085527;0.035683;99.4;0.0;-0.2;4.8;0.0;-0.1
2.0;1753877733.676756;15.951843;0.77;-1.76;0.49;0.987277;-0.084799;0.031792;98.6;0.0;-1.3;5.1;0.0;0.0
2.0;1753877733.681361;15.950984;0.92;-1.38;-0.61;0.989665;-0.08428;0.035705;99.3;0.0;-0.0;5.2;0.0;-0.1
2.0;1753877733.685966;15.955093;0.8;-1.84;0.23;1.023298;-0.080532;0.029018;98.5;0.0;0.6;4.9;0.0;0.0
2.0;1753877733.690571;15.955164;0.72;-1.52;-0.48;0.995794;-0.094503;0.021119;98.7;0.0;0.5;5.1;0.0;-0.2
2.0;1753877733.695176;15.953204;0.88;-1.71;-1.06;0.994167;-0.079414;0.026824;97.7;0.0;-1.3;5.0;0.0;0.1
2.0;1753877733.69978;15.951208;0.74;-1.72;-1.19;1.001864;-0.071183;0.025225;97.5;0.0;1.4;5.1;0.0;-0.2
2.0;1753877733.704385;15.953687;0.85;-1.63;-0.37;1.00468;-0.065862;0.033136;98.3;0.0;0.1;5.1;0.0;0.1
2.0;1753877733.70899;15.953505;0.83;-1.64;0.69;0.997379;-0.078876;0.02944;98.2;0.0;-1.6;5.1;0.0;-0.2
2.0;1753877733.713595;15.95378;0.57;-1.5;0.42;1.000473;-0.077213;0.02216;97.6;0.0;0.1;4.8;0.0;0.2
2.0;1753877733.7182;15.952702;0.94;-1.57;-0.5;1.011343;-0.072014;0.026592;97.2;0.0;0.9;4.9;0.0;0.1
2.0;1753877733.722804;15.951414;0.88;-1.7;0.7;1.004868;-0.065584;0.033045;97.6;0.0;-0.3;5.0;0.0;-0.1
2.0;1753877733.727409;15.956213;0.86;-1.31;-0.64;0.994561;-0.079343;0.02539;99.0;0.0;-1.0;5.1;0.0;0.1
2.0;1753877733.732014;15.954582;0.95;-1.99;0.06;1.003751;-0.078159;0.032645;97.3;0.0;-1.1;4.9;0.0;0.1
2.0;1753877733.736619;15.955703;1.0;-1.56;0.26;0.999518;-0.078172;0.032911;96.7;0.0;-0.1;5.1;0.0;0.1
2.0;1753877733.741224;15.953787;0.79;-1.55;-0.21;0.990755;-0.070267;0.026408;96.7;0.0;0.5;4.9;0.0;0.3
2.0;1753877733.745829;15.95447;0.85;-1.52;-0.81;1.000733;-0.065929;0.030727;97.0;0.0;-0.8;5.0;0.0;-0.2
2.0;1753877733.750434;15.955218;0.8;-1.45;-0.7;0.997755;-0.074468;0.035941;96.4;0.0;-0.7;4.9;0.0;0.1
2.0;1753877733.755038;15.954776;0.92;-1.66;-0.67;0.974281;-0.071595;0.02237;97.2;0.0;0.3;4.8;0.0;-0.1
2.0;1753877733.759643;15.95478;0.76;-1.63;-1.33;1.006541;-0.086953;0.027855;97.5;0.0;0.3;5.1;0.0;-0.0
2.0;1753877733.7664;15.953125;0.91;-1.61;-0.21;0.996008;-0.074786;0.02989;97.0;0.0;0.0;5.0;0.0;0.0
2.0;1753877733.771005;15.952611;0.69;-1.9;-0.18;0.980843;-0.095734;0.026217;98.3;0.0;-1.1;4.9;0.0;0.0
2.0;1753877733.77561;15.952368;0.85;-1.79;-0.6;1.0009;-0.085272;0.033575;96.6;0.0;0.8;5.0;0.0;-0.1
2.0;1753877733.780214;15.952604;1.05;-1.47;0.18;1.01165;-0.079113;0.020352;96.6;0.0;-0.6;5.0;0.0;-0.1
2.0;1753877733.784819;15.953364;1.19;-1.51;-0.9;0.990187;-0.0857;0.021028;96.8;0.0;1.0;4.9;0.0;0.0
2.0;1753877733.789424;15.955955;1.1;-1.65;-0.44;0.9942;-0.072212;0.038347;96.7;0.0;0.2;5.0;0.0;-0.2
2.0;1753877733.794029;15.953824;0.91;-1.65;-1.14;0.990598;-0.078363;0.026809;96.9;0.0;0.0;4.9;0.0;-0.1
2.0;1753877733.798634;15.95147;0.73;-1.74;-0.11;1.000492;-0.07598;0.02803;97.6;0.0;0.7;5.1;0.0;0.1
2.0;1753877733.803239;15.953385;0.93;-1.59;-0.56;0.99554;-0.079718;0.028066;97.1;0.0;-0.6;5.0;0.0;-0.1
2.0;1753877733.807844;15.951926;0.82;-1.65;-0.33;0.983061;-0.07513;0.02452;96.0;0.0;-0.2;4.9;0.0;-0.1
2.0;1753877733.812448;15.954158;1.06;-1.64;-0.13;1.004858;-0.064952;0.028537;96.7;0.0;1.1;5.0;0.0;0.0
2.0;1753877733.817053;15.952953;0.8;-1.63;0.31;1.00043;-0.071163;0.035811;97.0;0.0;0.8;4.7;0.0;0.0
2.0;1753877733.821658;15.954044;0.91;-1.62;-0.36;1.002494;-0.069835;0.030389;96.8;0.0;0.3;4.8;0.0;0.0
2.0;1753877733.826263;15.953288;0.97;-1.52;-0.34;1.00323;-0.066653;0.031006;97.1;0.0;0.2;5.1;0.0;-0.0
2.0;1753877733.830868;15.949906;0.82;-1.75;-0.53;0.997526;-0.083221;0.026879;96.9;0.0;-0.9;4.9;0.0;-0.0
2.0;1753877733.835472;15.952411;0.7;-1.66;0.52;1.003758;-0.079673;0.029835;96.4;0.0;-0.2;5.0;0.0;0.1
2.0;1753877733.840077;15.955111;1.07;-1.6;-0.68;1.001341;-0.072695;0.029912;96.4;0.0;0.0;4.9;0.0;0.1
2.0;1753877733.844682;15.952355;1.03;-1.54;0.21;1.000604;-0.079276;0.029758;97.9;0.0;-0.9;4.9;0.0;0.0
2.0;1753877733.849287;15.95692;0.98;-1.61;-0.11;0.993484;-0.084717;0.026763;97.9;0.0;0.8;5.1;0.0;0.0
2.0;1753877733.853892;15.952564;0.96;-1.46;-0.7;1.009255;-0.072345;0.031024;96.1;0.0;1.0;4.8;0.0;-0.1
2.0;1753877733.858496;15.954198;1.1;-1.57;-0.39;1.000831;-0.067474;0.033023;96.2;0.0;-0.4;4.8;0.0;0.1
2.0;1753877733.863101;15.952909;1.09;-1.52;-1.24;0.996031;-0.082905;0.037013;96.9;0.0;0.7;5.1;0.0;-0.0
2.0;1753877733.867706;15.954102;0.86;-1.58;0.33;0.99514;-0.091619;0.032686;97.0;0.0;-1.0;4.9;0.0;0.2
2.0;1753877733.872311;15.954809;1.2;-1.65;-0.98;0.991389;-0.082959;0.033171;97.2;0.0;-0.1;5.0;0.0;-0.2
2.0;1753877733.876916;15.954048;1.11;-1.46;0.92;0.995001;-0.080939;0.022282;96.5;0.0;0.4;5.0;0.0;-0.0
2.0;1753877733.88152;15.952368;0.86;-1.79;0.19;0.998797;-0.060257;0.029495;97.2;0.0;-0.4;4.9;0.0;0.2
2.0;1753877733.886125;15.952322;0.86;-1.32;-0.39;0.993172;-0.063373;0.028149;97.5;0.0;-0.6;5.2;0.0;-0.0
2.0;1753877733.89073;15.954953;1.0;-1.58;-0.25;0.9988;-0.06968;0.03325;97.0;0.0;-0.5;5.0;0.0;0.1
2.0;1753877733.895335;15.954926;1.11;-1.54;-0.16;1.003607;-0.074878;0.017859;98.1;0.0;-0.4;5.0;0.0;0.2
2.0;1753877733.89994;15.954505;0.96;-1.62;-0.31;0.992238;-0.076738;0.036657;97.1;0.0;-0.1;5.0;0.0;-0.1
2.0;1753877733.904544;15.954883;1.06;-1.79;0.48;0.995051;-0.090579;0.029212;97.1;0.0;-1.1;5.0;0.0;-0.0
2.0;1753877733.909;15.953125;0.98;-1.61;-0.28;0.99552;-0.07808;0.030988;97.0;0.0;0.0;5.0;0.0;0.0
2.0;1753877733.913605;15.972166;0.98;-1.56;-0.25;0.996081;-0.07673;0.03022;97.9;0.0;0.0;5.9;0.0;0.0
2.0;1753877733.91797;15.992188;0.91;-1.61;-0.21;0.996618;-0.077714;0.031964;100.0;0.0;0.0;6.0;0.0;0.0
2.0;1753877733.922575;15.988234;0.9;-1.68;-0.25;0.997905;-0.077795;0.029765;99.8;0.0;0.0;5.6;0.0;0.0
2.0;1753877733.92718;15.98396;0.79;-1.64;-0.21;0.994822;-0.079296;0.03294;98.3;0.0;0.0;6.0;0.0;0.0
2.0;1753877733.931784;16.003979;0.87;-1.69;-0.22;0.994925;-0.077053;0.028098;99.4;0.0;0.0;6.2;0.0;0.0
2.0;1753877733.936389;15.990055;0.86;-1.62;-0.26;0.996812;-0.07672;0.029837;101.3;0.0;0.0;5.4;0.0;0.0
2.0;1753877733.940994;15.986536;0.92;-1.61;-0.3;0.996579;-0.074543;0.029119;101.2;0.0;0.0;6.6;0.0;0.0
2.0;1753877733.945599;15.986486;0.9;-1.52;-0.28;0.995619;-0.078344;0.027532;98.0;0.0;0.0;6.4;0.0;0.0
2.0;1753877733.950204;15.985336;0.72;-1.59;-0.2;0.996074;-0.078151;0.027064;99.9;0.0;0.0;6.5;0.0;0.0
2.0;1753877733.954808;15.995057;0.85;-1.6;-0.33;0.995558;-0.072077;0.030714;98.5;0.0;0.0;6.0;0.0;0.0
2.0;1753877733.9604;15.992188;0.84;-1.61;-0.28;0.99552;-0.074908;0.029036;100.0;0.0;0.0;6.0;0.0;0.0
2.0;1753877733.961269;15.945312;0.91;-1.75;-0.35;0.99674;-0.075762;0.031476;97.0;0.0;0.0;6.0;0.0;0.0
2.0;1753877733.966155;15.96875;1.05;-1.68;-0.35;0.994422;-0.077348;0.030744;97.0;0.0;0.0;6.0;0.0;0.0
2.0;1753877733.969764;15.96875;0.98;-1.68;-0.42;0.995642;-0.077104;0.030988;97.0;0.0;0.0;6.0;0.0;0.0
2.0;1753877733.974415;15.96875;0.84;-1.68;-0.35;0.99491;-0.075274;0.029402;97.0;0.0;0.0;6.0;0.0;0.0
2.0;1753877733.978843;15.96875;0.84;-1.75;-0.28;0.993324;-0.07808;0.030866;97.0;0.0;0.0;6.0;0.0;0.0
2.0;1753877733.985757;15.96875;0.91;-1.75;-0.28;0.995398;-0.075762;0.02928;102.0;0.0;0.0;5.0;0.0;0.0
2.0;1753877733.987893;15.96875;0.98;-1.61;-0.28;0.995398;-0.075762;0.02928;102.0;0.0;0.0;5.0;0.0;0.0
2.0;1753877733.992511;15.96875;0.98;-1.68;-0.28;0.994788;-0.076128;0.030744;102.0;0.0;0.0;5.0;0.0;0.0
2.0;1753877733.997116;15.962832;0.86;-1.65;-0.3;0.995619;-0.074858;0.030506;99.2;0.0;0.0;5.0;0.0;0.0
2.0;1753877734.001721;15.977205;1.03;-1.69;-0.35;0.994878;-0.075033;0.029583;99.7;0.0;0.0;5.4;0.0;0.0
2.0;1753877734.006326;15.994765;0.97;-1.65;-0.38;0.996374;-0.077422;0.030686;99.2;0.0;0.0;4.2;0.0;0.0
2.0;1753877734.01093;15.960716;0.94;-1.6;-0.31;0.995486;-0.077717;0.031279;102.4;0.0;0.0;4.8;0.0;0.0
2.0;1753877734.015535;15.964716;0.99;-1.65;-0.26;0.994107;-0.075886;0.029825;103.5;0.0;0.0;5.0;0.0;0.0
2.0;1753877734.02014;15.962275;0.9;-1.68;-0.34;0.994452;-0.07517;0.033259;101.3;0.0;0.0;4.2;0.0;0.0
2.0;1753877734.024745;15.943044;0.99;-1.64;-0.29;0.995293;-0.076533;0.030449;101.4;0.0;0.0;5.3;0.0;0.0
2.0;1753877734.02935;15.967399;0.97;-1.7;-0.3;0.995643;-0.074063;0.031687;103.2;0.0;0.0;5.8;0.0;0.0
2.0;1753877734.033954;15.94138;0.99;-1.67;-0.26;0.995748;-0.076102;0.0302;103.9;0.0;0.0;5.1;0.0;0.0
2.0;1753877734.038559;15.997495;1.06;-1.75;-0.29;0.994861;-0.073263;0.032827;103.9;0.0;0.0;5.4;0.0;0.0
2.0;1753877734.043164;15.973848;0.92;-1.65;-0.24;0.99724;-0.074383;0.0297;101.1;0.0;0.0;5.3;0.0;0.0
2.0;1753877734.047769;15.977657;0.93;-1.67;-0.29;0.994651;-0.076655;0.030637;100.8;0.0;0.0;4.5;0.0;0.0
2.0;1753877734.052374;15.968272;1.01;-1.65;-0.31;0.997241;-0.077028;0.031071;99.3;0.0;0.0;5.2;0.0;0.0
2.0;1753877734.056978;15.957383;0.91;-1.65;-0.36;0.995711;-0.074647;0.030667;100.0;0.0;0.0;4.9;0.0;0.0
2.0;1753877734.061583;15.955775;0.77;-1.78;-0.25;0.996237;-0.075617;0.030138;101.4;0.0;0.0;5.2;0.0;0.0
2.0;1753877734.066188;15.952351;0.9;-1.64;-0.25;0.994846;-0.075576;0.032955;102.2;0.0;0.0;4.4;0.0;0.0
2.0;1753877734.070793;15.952357;0.96;-1.69;-0.33;0.994785;-0.076111;0.031107;103.0;0.0;0.0;5.5;0.0;0.0
2.0;1753877734.075398;15.97088;0.8;-1.65;-0.4;0.99551;-0.076496;0.028519;109.2;0.0;0.0;5.2;0.0;0.0
2.0;1753877734.080002;15.971089;0.94;-1.56;-0.27;0.994573;-0.075836;0.030788;99.7;0.0;0.0;4.4;0.0;0.0
2.0;1753877734.084607;15.955229;0.91;-1.61;-0.31;0.996165;-0.07683;0.031172;102.1;0.0;0.0;4.4;0.0;0.0
2.0;1753877734.089212;15.987726;0.96;-1.63;-0.2;0.996141;-0.075048;0.031676;103.9;0.0;0.0;5.0;0.0;0.0
2.0;1753877734.093817;15.947463;0.94;-1.64;-0.22;0.992415;-0.07473;0.030259;100.9;0.0;0.0;5.7;0.0;0.0
2.0;1753877734.098422;15.984864;0.91;-1.67;-0.34;0.9951;-0.074777;0.030492;100.1;0.0;0.0;4.8;0.0;0.0
2.0;1753877734.103027;15.971006;0.94;-1.67;-0.31;0.997732;-0.075193;0.030696;100.7;0.0;0.0;5.4;0.0;0.0
2.0;1753877734.107632;15.94373;0.85;-1.62;-0.3;0.995805;-0.076106;0.031154;96.2;0.0;0.0;5.2;0.0;0.0
2.0;1753877734.112236;15.978357;0.85;-1.61;-0.3;0.995323;-0.077213;0.029401;103.2;0.0;0.0;6.1;0.0;0.0
2.0;1753877734.116841;15.944155;1.03;-1.57;-0.31;0.996129;-0.077406;0.028744;99.4;0.0;0.0;4.5;0.0;0.0
2.0;1753877734.121446;15.940413;1.0;-1.58;-0.34;0.995667;-0.077407;0.029163;102.2;0.0;0.0;4.8;0.0;0.0
2.0;1753877734.126051;15.968604;0.88;-1.53;-0.33;0.995818;-0.076368;0.031345;104.9;0.0;0.0;4.3;0.0;0.0
2.0;1753877734.130656;15.943043;0.85;-1.68;-0.19;0.997002;-0.076737;0.030327;106.7;0.0;0.0;5.3;0.0;0.0
2.0;1753877734.13526;15.968841;0.98;-1.68;-0.34;0.996262;-0.078163;0.029932;102.0;0.0;0.0;5.0;0.0;0.0
2.0;1753877734.139865;15.971408;0.86;-1.62;-0.39;0.995363;-0.076059;0.029276;104.6;0.0;0.0;5.4;0.0;0.0
2.0;1753877734.14447;15.951076;0.93;-1.61;-0.33;0.996273;-0.074644;0.030766;101.9;0.0;0.0;5.2;0.0;0.0
2.0;1753877734.149075;15.957507;0.91;-1.63;-0.29;0.997241;-0.075504;0.031447;102.8;0.0;0.0;4.7;0.0;0.0
2.0;1753877734.15368;15.989526;0.75;-1.72;-0.3;0.995393;-0.076011;0.031129;105.5;0.0;0.0;4.4;0.0;0.0
2.0;1753877734.158284;15.950835;0.89;-1.61;-0.22;0.996704;-0.076522;0.03133;104.1;0.0;0.0;3.9;0.0;0.0
2.0;1753877734.162889;15.95971;0.8;-1.68;-0.4;0.995469;-0.075049;0.029052;97.2;0.0;0.0;5.6;0.0;0.0
2.0;1753877734.167494;15.944257;0.91;-1.56;-0.27;0.996987;-0.075741;0.028558;102.1;0.0;0.0;5.9;0.0;0.0
2.0;1753877734.172099;15.967874;0.94;-1.67;-0.33;0.996739;-0.075263;0.032223;104.4;0.0;0.0;5.3;0.0;0.0
2.0;1753877734.176704;15.955842;0.92;-1.64;-0.28;0.996916;-0.077092;0.02955;104.8;0.0;0.0;5.0;0.0;0.0
2.0;1753877734.181308;15.953536;0.91;-1.59;-0.29;0.995159;-0.075387;0.031582;99.8;0.0;0.0;4.8;0.0;0.0
2.0;1753877734.185913;15.969295;0.81;-1.69;-0.35;0.997162;-0.076557;0.029576;100.8;0.0;0.0;5.1;0.0;0.0
2.0;1753877734.190518;15.953776;0.86;-1.67;-0.38;0.996531;-0.074884;0.03026;103.5;0.0;0.0;5.0;0.0;0.0
2.0;1753877734.195123;15.98146;0.92;-1.59;-0.32;0.998262;-0.076238;0.028718;100.8;0.0;0.0;6.0;0.0;0.0
2.0;1753877734.199728;15.937433;0.82;-1.69;-0.38;0.998023;-0.076089;0.029671;105.6;0.0;0.0;4.7;0.0;0.0
2.0;1753877734.204332;15.954537;0.69;-1.62;-0.27;0.995373;-0.076739;0.032115;100.5;0.0;0.0;5.4;0.0;0.0
2.0;1753877734.208938;15.978124;0.83;-1.62;-0.35;0.997246;-0.076535;0.030541;100.0;0.0;0.0;5.1;0.0;0.0
2.0;1753877734.213542;15.978359;0.88;-1.61;-0.37;0.997056;-0.074899;0.029623;100.0;0.0;0.0;5.3;0.0;0.0
2.0;1753877734.218147;15.97635;0.86;-1.61;-0.39;0.998159;-0.073706;0.030365;101.1;0.0;0.0;5.2;0.0;0.0
2.0;1753877734.222752;15.942847;0.83;-1.69;-0.28;0.996312;-0.075853;0.028106;104.0;0.0;0.0;5.0;0.0;0.0
2.0;1753877734.227357;15.968615;0.87;-1.57;-0.38;0.996326;-0.075573;0.029777;100.4;0.0;0.0;5.4;0.0;0.0
2.0;1753877734.231962;15.965207;0.79;-1.76;-0.36;0.998557;-0.074935;0.028851;101.5;0.0;0.0;4.8;0.0;0.0
2.0;1753877734.236566;15.971733;0.76;-1.6;-0.35;0.998521;-0.077409;0.030239;106.3;0.0;0.0;5.4;0.0;0.0
2.0;1753877734.241171;15.985055;0.91;-1.7;-0.43;0.998262;-0.074976;0.032535;101.9;0.0;0.0;4.6;0.0;0.0
2.0;1753877734.245776;15.953178;0.9;-1.61;-0.35;0.997855;-0.074597;0.030607;99.2;0.0;0.0;5.0;0.0;0.0
2.0;1753877734.250381;15.946508;0.83;-1.57;-0.38;0.998656;-0.074428;0.02949;105.8;0.0;0.0;5.7;0.0;0.0
2.0;1753877734.2573;15.960938;0.84;-1.61;-0.35;0.99735;-0.07564;0.02989;102.0;0.0;0.0;5.0;0.0;0.0
2.0;1753877734.261905;15.950826;0.81;-1.51;-0.29;0.997313;-0.076057;0.029612;103.2;0.0;0.0;5.5;0.0;0.0
2.0;1753877734.26651;15.954886;0.77;-1.64;-0.37;0.997252;-0.075136;0.029384;101.0;0.0;0.0;4.6;0.0;0.0
2.0;1753877734.271114;15.938638;0.8;-1.65;-0.36;0.998682;-0.075825;0.028356;101.8;0.0;0.0;4.7;0.0;0.0
2.0;1753877734.275719;15.972918;0.9;-1.67;-0.3;0.998081;-0.075378;0.028497;101.4;0.0;0.0;4.6;0.0;0.0
2.0;1753877734.280324;15.954835;0.91;-1.62;-0.28;0.998283;-0.075634;0.030228;98.6;0.0;0.0;4.7;0.0;0.0
2.0;1753877734.284929;15.948357;0.81;-1.6;-0.36;0.996963;-0.073976;0.029884;101.2;0.0;0.0;5.7;0.0;0.0
2.0;1753877734.289534;15.953187;0.87;-1.68;-0.38;0.995269;-0.074388;0.0296;103.8;0.0;0.0;4.3;0.0;0.0
2.0;1753877734.294138;15.981571;0.77;-1.55;-0.29;0.996695;-0.076155;0.030498;102.3;0.0;0.0;4.9;0.0;0.0
2.0;1753877734.298743;15.932869;0.87;-1.65;-0.35;0.996477;-0.076365;0.028967;101.6;0.0;0.0;5.3;0.0;0.0
2.0;1753877734.303348;15.996175;0.85;-1.55;-0.36;0.997319;-0.077342;0.028511;99.8;0.0;0.0;5.3;0.0;0.0
2.0;1753877734.307953;15.944117;0.79;-1.6;-0.36;0.997489;-0.072456;0.028272;100.4;0.0;0.0;5.4;0.0;0.0
2.0;1753877734.312558;15.95358;0.88;-1.57;-0.36;0.996698;-0.075322;0.026495;98.5;0.0;0.0;5.6;0.0;0.0
2.0;1753877734.317162;15.959018;0.86;-1.61;-0.32;0.99776;-0.075776;0.030143;102.3;0.0;0.0;5.0;0.0;0.0
2.0;1753877734.321767;15.96718;0.88;-1.6;-0.37;0.996164;-0.076025;0.02969;100.0;0.0;0.0;4.6;0.0;0.0
2.0;1753877734.326372;15.972232;0.85;-1.77;-0.38;0.997338;-0.074519;0.03033;102.4;0.0;0.0;5.6;0.0;0.0
2.0;1753877734.330977;15.991759;0.73;-1.58;-0.38;0.994602;-0.074497;0.031044;102.1;0.0;0.0;5.6;0.0;0.0
2.0;1753877734.335582;15.950949;0.78;-1.57;-0.39;0.997818;-0.076159;0.029474;103.2;0.0;0.0;5.3;0.0;0.0
2.0;1753877734.340186;15.968284;0.85;-1.5;-0.43;0.99543;-0.074834;0.031967;102.8;0.0;0.0;4.6;0.0;0.0
2.0;1753877734.344792;15.950236;0.88;-1.65;-0.42;0.996276;-0.075084;0.029751;103.0;0.0;0.0;5.1;0.0;0.0
2.0;1753877734.349396;15.946468;0.93;-1.61;-0.37;0.997139;-0.074583;0.030991;101.0;0.0;0.0;5.2;0.0;0.0
2.0;1753877734.354001;15.96514;0.85;-1.46;-0.36;0.995931;-0.075812;0.0286;102.2;0.0;0.0;5.3;0.0;0.0
2.0;1753877734.358606;15.946623;0.78;-1.62;-0.27;0.997298;-0.075105;0.029679;102.6;0.0;0.0;4.2;0.0;0.0
2.0;1753877734.363211;15.967207;0.89;-1.66;-0.27;0.997883;-0.074744;0.029533;101.9;0.0;0.0;4.4;0.0;0.0
2.0;1753877734.367816;15.949146;0.64;-1.56;-0.38;0.997524;-0.075295;0.0306;106.6;0.0;0.0;5.2;0.0;0.0
2.0;1753877734.37242;15.946948;0.82;-1.7;-0.39;0.99447;-0.075187;0.029315;104.3;0.0;0.0;4.1;0.0;0.0
2.0;1753877734.377025;15.949211;0.91;-1.65;-0.31;0.997235;-0.077148;0.030398;106.2;0.0;0.0;4.5;0.0;0.0
2.0;1753877734.38163;15.955624;0.82;-1.53;-0.33;0.996873;-0.076835;0.029986;105.2;0.0;0.0;5.3;0.0;0.0
2.0;1753877734.386235;15.951799;0.84;-1.54;-0.39;0.997143;-0.074277;0.030121;103.0;0.0;0.0;4.7;0.0;0.0
2.0;1753877734.39084;15.961865;0.71;-1.64;-0.33;0.997934;-0.075435;0.027771;102.0;0.0;0.0;4.1;0.0;0.0
2.0;1753877734.395444;15.972274;0.76;-1.54;-0.3;0.997201;-0.074332;0.031501;99.4;0.0;0.0;5.1;0.0;0.0
2.0;1753877734.400049;15.982962;0.8;-1.58;-0.39;0.99711;-0.075435;0.028731;103.8;0.0;0.0;4.7;0.0;0.0
2.0;1753877734.404654;15.966948;0.91;-1.66;-0.32;0.994865;-0.075861;0.030032;101.1;0.0;0.0;5.0;0.0;0.0
2.0;1753877734.409259;15.938431;0.77;-1.58;-0.26;0.996457;-0.074609;0.031906;101.0;0.0;0.0;4.8;0.0;0.0
2.0;1753877734.413864;15.965259;0.89;-1.55;-0.24;0.996595;-0.076109;0.029249;100.1;0.0;0.0;6.4;0.0;0.0
2.0;1753877734.418468;15.965492;0.82;-1.65;-0.27;0.9969;-0.073846;0.029457;102.5;0.0;0.0;4.7;0.0;0.0
2.0;1753877734.423073;15.952682;0.79;-1.67;-0.26;0.995654;-0.073291;0.031338;97.9;0.0;0.0;5.0;0.0;0.0
2.0;1753877734.427678;15.974308;0.76;-1.46;-0.36;0.997496;-0.074911;0.030483;101.0;0.0;0.0;5.0;0.0;0.0
2.0;1753877734.432283;15.954028;0.75;-1.55;-0.33;0.997827;-0.075364;0.029181;99.2;0.0;0.0;5.1;0.0;0.0
2.0;1753877734.436888;15.981709;0.9;-1.65;-0.41;0.995219;-0.077022;0.027994;100.7;0.0;0.0;5.1;0.0;0.0
2.0;1753877734.441492;15.982244;0.81;-1.45;-0.3;0.995682;-0.076224;0.028825;103.4;0.0;0.0;5.5;0.0;0.0
2.0;1753877734.446097;15.951902;0.88;-1.56;-0.29;0.995993;-0.076903;0.029813;99.9;0.0;0.0;4.9;0.0;0.0
2.0;1753877734.450702;15.956886;0.77;-1.56;-0.32;0.998239;-0.075098;0.030647;97.8;0.0;0.0;4.8;0.0;0.0
2.0;1753877734.455307;15.959467;0.89;-1.48;-0.3;0.996466;-0.076541;0.028222;103.3;0.0;0.0;3.6;0.0;0.0
2.0;1753877734.459912;15.972267;0.85;-1.54;-0.42;0.997593;-0.075408;0.030961;106.7;0.0;0.0;5.0;0.0;0.0
2.0;1753877734.464517;15.958087;0.88;-1.56;-0.37;0.996846;-0.076508;0.029048;102.8;0.0;0.0;5.3;0.0;0.0
2.0;1753877734.469122;15.919968;0.87;-1.59;-0.36;0.996971;-0.074514;0.029994;99.6;0.0;0.0;4.7;0.0;0.0
2.0;1753877734.473726;15.982945;0.82;-1.49;-0.32;0.996742;-0.077423;0.028802;97.7;0.0;0.0;4.4;0.0;0.0
2.0;1753877734.478331;15.949029;0.88;-1.55;-0.4;0.997431;-0.075849;0.032183;101.5;0.0;0.0;4.7;0.0;0.0
2.0;1753877734.482936;15.955583;0.9;-1.62;-0.35;0.997786;-0.074944;0.027481;105.2;0.0;0.0;5.5;0.0;0.0
2.0;1753877734.487541;15.946509;0.84;-1.64;-0.38;0.996511;-0.075776;0.030253;106.1;0.0;0.0;5.3;0.0;0.0
2.0;1753877734.492146;15.957542;0.92;-1.57;-0.44;0.996937;-0.075428;0.030132;103.8;0.0;0.0;4.4;0.0;0.0
2.0;1753877734.49675;15.95915;0.84;-1.57;-0.36;0.997743;-0.07412;0.03109;100.2;0.0;0.0;4.2;0.0;0.0
2.0;1753877734.501355;15.963349;0.79;-1.55;-0.31;0.99581;-0.074575;0.030441;103.2;0.0;0.0;4.7;0.0;0.0
2.0;1753877734.50596;15.970053;0.93;-1.49;-0.42;0.994978;-0.075849;0.030395;104.2;0.0;0.0;6.1;0.0;0.0
2.0;1753877734.510565;15.954079;0.95;-1.49;-0.37;0.996687;-0.07681;0.03035;101.1;0.0;0.0;4.7;0.0;0.0
2.0;1753877734.51517;15.95266;0.8;-1.51;-0.26;0.998173;-0.075408;0.028282;100.1;0.0;0.0;5.5;0.0;0.0
2.0;1753877734.519774;15.932561;0.8;-1.54;-0.44;0.997155;-0.07629;0.029145;97.8;0.0;0.0;5.5;0.0;0.0
2.0;1753877734.524379;15.953336;0.8;-1.63;-0.35;0.996954;-0.073648;0.029318;101.5;0.0;0.0;4.8;0.0;0.0
2.0;1753877734.528984;15.966524;0.85;-1.63;-0.29;0.996435;-0.074529;0.030788;99.4;0.0;0.0;4.0;0.0;0.0
2.0;1753877734.533589;15.967034;0.78;-1.6;-0.3;0.996113;-0.075893;0.032142;105.4;0.0;0.0;5.7;0.0;0.0
2.0;1753877734.538194;15.958205;0.82;-1.46;-0.25;0.994953;-0.075537;0.02945;106.1;0.0;0.0;5.0;0.0;0.0
2.0;1753877734.542798;15.97684;0.79;-1.51;-0.36;0.996639;-0.076966;0.028619;106.5;0.0;0.0;4.5;0.0;0.0
2.0;1753877734.547403;15.962811;0.92;-1.46;-0.23;0.9965;-0.074208;0.030138;98.5;0.0;0.0;4.6;0.0;0.0
2.0;1753877734.552008;15.967153;0.7;-1.54;-0.3;0.996695;-0.076465;0.02859;99.3;0.0;0.0;6.4;0.0;0.0
2.0;1753877734.556613;15.951405;0.81;-1.45;-0.26;0.996212;-0.076325;0.031434;99.2;0.0;0.0;5.0;0.0;0.0
2.0;1753877734.561218;15.964887;0.88;-1.64;-0.39;0.996729;-0.076175;0.029183;103.5;0.0;0.0;5.8;0.0;0.0
2.0;1753877734.565822;15.963871;0.89;-1.54;-0.34;0.996621;-0.075544;0.029684;101.6;0.0;0.0;5.4;0.0;0.0
2.0;1753877734.570428;15.949083;1.0;-1.58;-0.31;0.996904;-0.076344;0.030714;103.1;0.0;0.0;5.4;0.0;0.0
2.0;1753877734.575032;15.962308;0.78;-1.57;-0.37;0.99681;-0.076726;0.029717;101.9;0.0;0.0;5.1;0.0;0.0
2.0;1753877734.579637;15.94351;0.7;-1.59;-0.31;0.996186;-0.074493;0.02874;100.2;0.0;0.0;4.3;0.0;0.0
2.0;1753877734.584242;15.962016;0.85;-1.45;-0.16;0.995792;-0.075583;0.029537;101.8;0.0;0.0;5.1;0.0;0.0
2.0;1753877734.588847;15.947767;0.86;-1.57;-0.44;0.995341;-0.076753;0.031118;104.6;0.0;0.0;3.6;0.0;0.0
2.0;1753877734.593452;15.959707;0.76;-1.47;-0.39;0.995491;-0.075607;0.030346;101.1;0.0;0.0;5.8;0.0;0.0
2.0;1753877734.598056;15.950039;0.88;-1.62;-0.4;0.997132;-0.075054;0.028595;101.1;0.0;0.0;5.1;0.0;0.0
2.0;1753877734.602661;15.958257;0.93;-1.49;-0.36;0.996907;-0.074916;0.030491;104.9;0.0;0.0;4.0;0.0;0.0
2.0;1753877734.607266;15.975219;0.84;-1.55;-0.42;0.997157;-0.076938;0.030687;103.0;0.0;0.0;5.0;0.0;0.0
2.0;1753877734.611871;15.954228;0.84;-1.56;-0.38;0.995478;-0.075281;0.030102;95.1;0.0;0.0;4.8;0.0;0.0
2.0;1753877734.616476;15.940771;1.0;-1.49;-0.31;0.995675;-0.076001;0.030804;105.2;0.0;0.0;4.6;0.0;0.0
2.0;1753877734.62108;15.965935;0.92;-1.6;-0.3;0.996281;-0.075011;0.030613;101.6;0.0;0.0;4.5;0.0;0.0
2.0;1753877734.625685;15.940716;0.83;-1.66;-0.34;0.996307;-0.074622;0.030419;104.9;0.0;0.0;5.0;0.0;0.0
2.0;1753877734.63029;15.966308;0.84;-1.39;-0.32;0.996292;-0.076662;0.029605;103.2;0.0;0.0;4.6;0.0;0.0
2.0;1753877734.634895;15.947379;0.88;-1.56;-0.43;0.996474;-0.075961;0.029475;104.3;0.0;0.0;5.1;0.0;0.0
2.0;1753877734.642;15.960938;0.84;-1.54;-0.35;0.996496;-0.075884;0.02989;102.0;0.0;0.0;5.0;0.0;0.0
2.0;1753877734.646605;15.962853;0.86;-1.55;-0.42;0.996929;-0.076435;0.0309;101.3;0.0;0.0;4.6;0.0;0.0
2.0;1753877734.65121;15.936783;1.01;-1.48;-0.35;0.997812;-0.077722;0.03024;102.1;0.0;0.0;5.4;0.0;0.0
2.0;1753877734.655814;15.966775;0.85;-1.63;-0.32;0.995998;-0.076467;0.029943;101.2;0.0;0.0;6.1;0.0;0.0
2.0;1753877734.660419;15.985474;0.9;-1.65;-0.29;0.996013;-0.076529;0.029965;105.2;0.0;0.0;4.9;0.0;0.0
2.0;1753877734.665024;15.958459;0.89;-1.63;-0.25;0.996497;-0.075137;0.030559;102.0;0.0;0.0;5.8;0.0;0.0
2.0;1753877734.669629;15.995185;0.9;-1.58;-0.28;0.994705;-0.074951;0.031207;101.3;0.0;0.0;6.4;0.0;0.0
2.0;1753877734.67383;15.992188;0.91;-1.61;-0.28;0.99491;-0.076128;0.030988;103.0;0.0;0.0;6.0;0.0;0.0
2.0;1753877734.678435;16.012995;0.95;-1.49;-0.25;0.996192;-0.077351;0.031643;102.0;0.0;0.0;6.7;0.0;0.0
2.0;1753877734.68304;15.985536;1.02;-1.62;-0.26;0.994943;-0.076254;0.030265;102.5;0.0;0.0;6.7;0.0;0.0
2.0;1753877734.687644;15.958787;0.96;-1.72;-0.29;0.99513;-0.073714;0.029377;100.4;0.0;0.0;6.5;0.0;0.0
2.0;1753877734.692249;16.007843;1.07;-1.81;-0.23;0.995212;-0.073269;0.032134;103.3;0.0;0.0;5.0;0.0;0.0
2.0;1753877734.696854;16.03356;0.93;-1.81;-0.31;0.996347;-0.076978;0.030475;101.6;0.0;0.0;6.1;0.0;0.0
2.0;1753877734.7021;15.992188;0.91;-1.75;-0.28;0.995642;-0.074542;0.0305;103.0;0.0;0.0;6.0;0.0;0.0
2.0;1753877734.706705;16.011063;0.93;-1.8;-0.17;0.995256;-0.074126;0.030225;103.5;0.0;0.0;5.6;0.0;0.0
2.0;1753877734.71131;16.028321;1.06;-1.66;-0.32;0.994526;-0.07698;0.031311;103.6;0.0;0.0;5.5;0.0;0.0
2.0;1753877734.715914;15.989908;0.82;-1.72;-0.33;0.994055;-0.075163;0.030594;102.7;0.0;0.0;6.4;0.0;0.0
2.0;1753877734.720519;15.970096;0.92;-1.68;-0.34;0.995868;-0.074884;0.030952;102.7;0.0;0.0;6.2;0.0;0.0
2.0;1753877734.725124;16.019527;0.83;-1.72;-0.28;0.993419;-0.075965;0.031429;102.3;0.0;0.0;6.2;0.0;0.0
2.0;1753877734.729729;15.971356;0.82;-1.77;-0.38;0.993586;-0.078113;0.031958;103.3;0.0;0.0;6.1;0.0;0.0
2.0;1753877734.734334;15.938514;1.02;-1.76;-0.32;0.994466;-0.075209;0.03205;102.3;0.0;0.0;6.0;0.0;0.0
2.0;1753877734.738938;15.952943;0.87;-1.69;-0.28;0.994148;-0.079373;0.031459;102.5;0.0;0.0;6.5;0.0;0.0
2.0;1753877734.743544;15.936008;0.77;-1.61;-0.38;0.992884;-0.079509;0.031668;103.5;0.0;0.0;6.0;0.0;0.0
2.0;1753877734.74789;15.953125;0.91;-1.68;-0.35;0.993568;-0.078934;0.032574;103.0;0.0;0.0;6.0;0.0;0.0
2.0;1753877734.752495;15.895194;0.92;-1.6;-0.33;0.994267;-0.080741;0.031791;100.9;0.0;0.0;5.8;0.0;0.0
2.0;1753877734.7571;15.980741;0.82;-1.67;-0.42;0.99356;-0.07806;0.031722;102.2;0.0;0.0;5.0;0.0;0.0
2.0;1753877734.761704;15.968936;1.05;-1.71;-0.3;0.993343;-0.07729;0.03276;100.3;0.0;0.0;5.9;0.0;0.0
2.0;1753877734.766309;15.919338;0.97;-1.69;-0.34;0.99555;-0.077262;0.030785;102.4;0.0;0.0;4.9;0.0;0.0
2.0;1753877734.770914;15.974911;0.99;-1.73;-0.41;0.994257;-0.078311;0.030323;100.0;0.0;0.0;5.3;0.0;0.0
2.0;1753877734.775519;15.952379;1.02;-1.73;-0.26;0.993674;-0.07629;0.030674;100.5;0.0;0.0;4.8;0.0;0.0
2.0;1753877734.780124;15.931722;0.85;-1.74;-0.44;0.994498;-0.076028;0.03184;100.4;0.0;0.0;5.5;0.0;0.0
2.0;1753877734.784728;15.938;0.87;-1.56;-0.26;0.995259;-0.074834;0.030995;98.4;0.0;0.0;6.0;0.0;0.0
2.0;1753877734.789333;15.962168;0.76;-1.61;-0.37;0.994939;-0.076465;0.029329;99.3;0.0;0.0;4.5;0.0;0.0
2.0;1753877734.793938;15.947721;0.82;-1.74;-0.42;0.994946;-0.076521;0.030094;98.6;0.0;0.0;6.0;0.0;0.0
2.0;1753877734.798543;15.968408;0.85;-1.62;-0.4;0.996282;-0.076839;0.028064;97.4;0.0;0.0;5.5;0.0;0.0
2.0;1753877734.803148;15.94365;0.98;-1.65;-0.36;0.994402;-0.076819;0.030324;99.3;0.0;0.0;5.7;0.0;0.0
2.0;1753877734.807752;15.939243;0.81;-1.7;-0.35;0.995754;-0.074164;0.030197;98.8;0.0;0.0;6.3;0.0;0.0
2.0;1753877734.812358;15.987874;1.04;-1.69;-0.39;0.995028;-0.074776;0.027941;99.0;0.0;0.0;5.1;0.0;0.0
2.0;1753877734.816962;15.917692;0.95;-1.59;-0.34;0.994804;-0.074823;0.029194;97.7;0.0;0.0;5.6;0.0;0.0
2.0;1753877734.821567;15.939162;0.92;-1.6;-0.36;0.995702;-0.073836;0.03079;97.6;0.0;0.0;4.6;0.0;0.0
2.0;1753877734.826172;15.938018;0.83;-1.75;-0.45;0.994846;-0.075306;0.028706;96.3;0.0;0.0;6.1;0.0;0.0
2.0;1753877734.83351;15.953125;0.91;-1.68;-0.35;0.996008;-0.07381;0.028182;96.0;0.0;0.0;5.0;0.0;0.0
2.0;1753877734.83933;15.953125;0.98;-1.61;-0.35;0.997228;-0.079666;0.03172;96.0;0.0;0.0;5.0;0.0;0.0
2.0;1753877734.843935;15.988351;1.05;-1.64;-0.42;0.995883;-0.080502;0.030428;97.4;0.0;0.0;5.3;0.0;0.0
2.0;1753877734.84854;15.953237;0.92;-1.5;-0.28;0.997441;-0.076436;0.03171;94.5;0.0;0.0;5.7;0.0;0.0
2.0;1753877734.853144;15.959335;0.97;-1.64;-0.31;0.996139;-0.07711;0.031945;98.9;0.0;0.0;4.5;0.0;0.0
2.0;1753877734.857749;15.966053;0.94;-1.72;-0.35;0.996142;-0.077793;0.031131;97.0;0.0;0.0;4.6;0.0;0.0
2.0;1753877734.862354;15.99332;1.02;-1.71;-0.39;0.997099;-0.073599;0.03314;98.5;0.0;0.0;5.1;0.0;0.0
2.0;1753877734.866959;15.950257;0.89;-1.72;-0.31;0.995527;-0.077068;0.028774;96.1;0.0;0.0;5.7;0.0;0.0
2.0;1753877734.871564;15.931067;0.89;-1.65;-0.41;0.994349;-0.078096;0.030399;94.1;0.0;0.0;5.0;0.0;0.0
2.0;1753877734.876168;15.919438;0.95;-1.59;-0.42;0.996025;-0.07969;0.028513;94.4;0.0;0.0;5.6;0.0;0.0
2.0;1753877734.880773;15.96552;0.92;-1.69;-0.35;0.995702;-0.077118;0.033478;93.6;0.0;0.0;5.0;0.0;0.0
2.0;1753877734.885378;15.94023;0.82;-1.56;-0.34;0.994972;-0.076056;0.028133;98.6;0.0;0.0;5.2;0.0;0.0
2.0;1753877734.889983;15.94997;0.85;-1.63;-0.38;0.996846;-0.075157;0.027991;94.8;0.0;0.0;4.9;0.0;0.0
2.0;1753877734.89546;15.953125;0.84;-1.61;-0.35;0.995154;-0.07442;0.02867;96.0;0.0;0.0;5.0;0.0;0.0
2.0;1753877734.900065;15.96069;0.83;-1.51;-0.35;0.994569;-0.073082;0.027443;98.5;0.0;0.0;5.2;0.0;0.0
2.0;1753877734.90467;15.973767;0.85;-1.7;-0.34;0.994031;-0.070589;0.028056;95.8;0.0;0.0;5.2;0.0;0.0
2.0;1753877734.909274;15.955617;0.84;-1.54;-0.37;0.995589;-0.076133;0.029723;93.9;0.0;0.0;4.7;0.0;0.0
2.0;1753877734.913879;15.964474;0.87;-1.67;-0.28;0.99578;-0.072929;0.030282;97.0;0.0;0.0;5.6;0.0;0.0
2.0;1753877734.918484;15.980951;0.8;-1.68;-0.36;0.996264;-0.078347;0.028806;97.7;0.0;0.0;4.3;0.0;0.0
2.0;1753877734.923089;15.95173;0.89;-1.5;-0.4;0.996088;-0.077605;0.029251;99.9;0.0;0.0;5.3;0.0;0.0
2.0;1753877734.927694;15.957148;0.9;-1.65;-0.32;0.996563;-0.080253;0.027799;99.1;0.0;0.0;5.6;0.0;0.0
2.0;1753877734.932298;15.939429;0.82;-1.64;-0.35;0.995844;-0.072912;0.029649;97.9;0.0;0.0;4.9;0.0;0.0
2.0;1753877734.936903;15.998792;0.87;-1.6;-0.35;0.995802;-0.077207;0.028878;98.0;0.0;0.0;5.5;0.0;0.0
2.0;1753877734.941508;15.961894;0.96;-1.77;-0.39;0.9962;-0.078681;0.031545;95.6;0.0;0.0;4.6;0.0;0.0
2.0;1753877734.94842;15.953125;0.91;-1.61;-0.35;0.996862;-0.07869;0.030744;96.0;0.0;0.0;5.0;0.0;0.0
2.0;1753877734.953025;15.949957;0.96;-1.51;-0.34;0.997226;-0.078823;0.032124;96.5;0.0;0.0;4.1;0.0;0.0
2.0;1753877734.95763;15.927231;0.97;-1.5;-0.28;0.997545;-0.077508;0.030679;90.7;0.0;0.0;4.9;0.0;0.0
2.0;1753877734.962234;15.978318;0.91;-1.65;-0.33;0.995877;-0.080668;0.030412;91.2;0.0;0.0;5.7;0.0;0.0
2.0;1753877734.966839;15.95601;1.02;-1.67;-0.31;0.996;-0.0784;0.030793;91.3;0.0;0.0;4.7;0.0;0.0
2.0;1753877734.971444;15.996056;0.91;-1.72;-0.31;0.996825;-0.077249;0.030651;102.8;0.0;0.0;6.7;0.0;0.0
2.0;1753877734.976049;15.975892;0.8;-1.76;-0.34;0.99579;-0.074924;0.029263;89.1;0.0;0.0;5.6;0.0;0.0
2.0;1753877734.980654;15.941189;0.93;-1.67;-0.25;0.996084;-0.077207;0.030655;94.9;0.0;0.0;5.3;0.0;0.0
2.0;1753877734.985258;15.9398;0.88;-1.59;-0.31;0.996074;-0.076904;0.029435;98.4;0.0;0.0;4.4;0.0;0.0
2.0;1753877734.989864;15.940765;0.86;-1.72;-0.29;0.997586;-0.07419;0.030727;94.8;0.0;0.0;4.4;0.0;0.0
2.0;1753877734.99686;15.953125;0.84;-1.75;-0.21;0.995398;-0.074542;0.0305;96.0;0.0;0.0;5.0;0.0;0.0
2.0;1753877734.999684;15.957031;0.98;-1.75;-0.42;0.994056;-0.07503;0.02928;95.0;0.0;0.0;5.0;0.0;0.0
2.0;1753877735.004289;15.951779;1.02;-1.71;-0.5;0.993521;-0.074384;0.028543;89.7;0.0;0.0;3.7;0.0;0.0
2.0;1753877735.008894;15.980268;1.06;-1.75;-0.3;0.994663;-0.071948;0.028838;89.2;0.0;0.0;6.2;0.0;0.0
2.0;1753877735.013498;15.94959;0.99;-1.77;-0.43;0.99359;-0.071423;0.031311;97.5;0.0;0.0;2.4;0.0;0.0
2.0;1753877735.018103;15.941535;1.1;-1.74;-0.41;0.99458;-0.076045;0.029999;95.5;0.0;0.0;8.3;0.0;0.0
2.0;1753877735.022708;15.96329;1.07;-1.61;-0.47;0.995501;-0.077045;0.03026;97.9;0.0;0.0;7.8;0.0;0.0
2.0;1753877735.027313;15.946489;0.88;-1.65;-0.41;0.993083;-0.075965;0.03011;95.5;0.0;0.0;3.7;0.0;0.0
2.0;1753877735.031918;15.966404;0.91;-1.76;-0.42;0.994528;-0.076469;0.02953;93.1;0.0;0.0;8.0;0.0;0.0
2.0;1753877735.036523;15.982321;1.07;-1.79;-0.41;0.994988;-0.074265;0.030878;89.5;0.0;0.0;9.3;0.0;0.0
2.0;1753877735.041128;16.012343;1.08;-1.74;-0.38;0.994598;-0.076419;0.028111;93.8;0.0;0.0;2.1;0.0;0.0
2.0;1753877735.045732;15.968623;0.96;-1.57;-0.38;0.994482;-0.073453;0.029959;93.8;0.0;0.0;5.1;0.0;0.0
2.0;1753877735.050337;15.925411;0.93;-1.75;-0.48;0.99411;-0.072612;0.029282;94.5;0.0;0.0;5.8;0.0;0.0
2.0;1753877735.054942;15.933725;1.01;-1.68;-0.37;0.993487;-0.075058;0.029976;96.2;0.0;0.0;1.2;0.0;0.0
2.0;1753877735.059547;15.936343;0.97;-1.75;-0.4;0.993657;-0.075411;0.029651;99.5;0.0;0.0;3.4;0.0;0.0
2.0;1753877735.064152;15.965836;1.05;-1.7;-0.47;0.993845;-0.076898;0.029249;95.4;0.0;0.0;3.6;0.0;0.0
2.0;1753877735.068756;15.985054;0.93;-1.69;-0.43;0.994634;-0.075064;0.03015;97.5;0.0;0.0;8.2;0.0;0.0
2.0;1753877735.073361;15.938799;0.86;-1.74;-0.4;0.994519;-0.074912;0.028542;100.0;0.0;0.0;5.7;0.0;0.0
2.0;1753877735.077966;15.941735;1.07;-1.75;-0.27;0.994881;-0.079823;0.029512;90.1;0.0;0.0;4.8;0.0;0.0
2.0;1753877735.082571;15.974534;1.1;-1.73;-0.43;0.995147;-0.076561;0.029399;95.3;0.0;0.0;6.4;0.0;0.0
2.0;1753877735.087176;15.979981;0.94;-1.76;-0.48;0.994018;-0.072204;0.02828;97.3;0.0;0.0;8.7;0.0;0.0
2.0;1753877735.09178;15.988365;0.99;-1.69;-0.47;0.995799;-0.073117;0.0288;92.7;0.0;0.0;4.9;0.0;0.0
2.0;1753877735.096385;15.972078;0.92;-1.74;-0.46;0.993993;-0.075615;0.027729;97.5;0.0;0.0;4.8;0.0;0.0
2.0;1753877735.10099;15.954919;0.93;-1.74;-0.39;0.99405;-0.076021;0.030001;97.5;0.0;0.0;4.8;0.0;0.0
2.0;1753877735.105595;15.977904;0.9;-1.79;-0.28;0.995994;-0.076611;0.029252;94.2;0.0;0.0;5.0;0.0;0.0
2.0;1753877735.1102;15.979681;0.94;-1.6;-0.33;0.995142;-0.075603;0.030604;94.9;0.0;0.0;5.3;0.0;0.0
2.0;1753877735.114804;15.949484;1.02;-1.64;-0.38;0.993917;-0.072363;0.030141;103.1;0.0;0.0;9.3;0.0;0.0
2.0;1753877735.119409;15.960785;0.9;-1.77;-0.45;0.995407;-0.072592;0.030462;95.1;0.0;0.0;5.8;0.0;0.0
2.0;1753877735.124014;16.011355;0.85;-1.67;-0.33;0.995335;-0.078156;0.029339;92.5;0.0;0.0;3.5;0.0;0.0
2.0;1753877735.128619;15.909205;0.93;-1.77;-0.38;0.994281;-0.079887;0.030424;96.2;0.0;0.0;8.2;0.0;0.0
2.0;1753877735.133224;15.973544;0.97;-1.64;-0.42;0.994655;-0.075668;0.031386;95.3;0.0;0.0;1.7;0.0;0.0
2.0;1753877735.137828;15.951359;0.98;-1.7;-0.4;0.994723;-0.0768;0.028521;94.7;0.0;0.0;8.9;0.0;0.0
2.0;1753877735.142434;15.962861;0.99;-1.79;-0.39;0.995485;-0.074969;0.030929;96.1;0.0;0.0;6.4;0.0;0.0
2.0;1753877735.147038;15.971471;0.97;-1.78;-0.43;0.994781;-0.07674;0.03037;93.9;0.0;0.0;5.7;0.0;0.0
2.0;1753877735.151643;15.977242;0.82;-1.63;-0.4;0.994023;-0.079409;0.031333;93.9;0.0;0.0;5.2;0.0;0.0
2.0;1753877735.156248;15.955093;1.03;-1.76;-0.51;0.996575;-0.075389;0.030061;98.5;0.0;0.0;8.2;0.0;0.0
2.0;1753877735.160853;15.948349;1.06;-1.64;-0.45;0.994254;-0.07882;0.028985;95.6;0.0;0.0;4.9;0.0;0.0
2.0;1753877735.165458;15.954317;1.2;-1.7;-0.35;0.996051;-0.074808;0.030602;101.1;0.0;0.0;5.6;0.0;0.0
2.0;1753877735.170062;15.985202;0.99;-1.75;-0.41;0.994603;-0.077932;0.029235;91.8;0.0;0.0;7.9;0.0;0.0
2.0;1753877735.174667;15.945554;1.1;-1.72;-0.32;0.995355;-0.080083;0.029433;94.3;0.0;0.0;5.9;0.0;0.0
2.0;1753877735.179272;15.960423;0.93;-1.76;-0.39;0.995585;-0.077903;0.03149;95.9;0.0;0.0;6.9;0.0;0.0
2.0;1753877735.183877;15.936431;0.93;-1.77;-0.37;0.993441;-0.077143;0.030678;96.5;0.0;0.0;2.7;0.0;0.0
2.0;1753877735.188482;15.970748;1.07;-1.72;-0.38;0.994908;-0.077986;0.029051;94.7;0.0;0.0;8.4;0.0;0.0
2.0;1753877735.193086;15.967021;1.13;-1.74;-0.43;0.994458;-0.078505;0.029686;90.7;0.0;0.0;3.3;0.0;0.0
2.0;1753877735.197691;15.920106;0.87;-1.74;-0.4;0.994527;-0.073502;0.029868;97.1;0.0;0.0;2.5;0.0;0.0
2.0;1753877735.202296;15.97954;0.92;-1.66;-0.4;0.99469;-0.078821;0.030359;91.5;0.0;0.0;4.4;0.0;0.0
2.0;1753877735.206901;15.971691;1.03;-1.65;-0.29;0.994694;-0.076442;0.03001;99.9;0.0;0.0;5.4;0.0;0.0
2.0;1753877735.211506;15.956743;1.11;-1.65;-0.36;0.995436;-0.079068;0.029395;93.3;0.0;0.0;1.8;0.0;0.0
2.0;1753877735.21611;15.962171;0.94;-1.69;-0.45;0.993279;-0.078726;0.029583;92.3;0.0;0.0;4.5;0.0;0.0
2.0;1753877735.220715;15.916787;1.02;-1.73;-0.34;0.995861;-0.07544;0.030539;96.0;0.0;0.0;6.9;0.0;0.0
2.0;1753877735.22532;15.948465;1.02;-1.65;-0.43;0.994519;-0.077663;0.029922;91.0;0.0;0.0;0.8;0.0;0.0
2.0;1753877735.229925;15.950672;1.0;-1.66;-0.39;0.995697;-0.078542;0.030772;98.1;0.0;0.0;6.6;0.0;0.0
2.0;1753877735.23453;15.985429;1.01;-1.74;-0.32;0.994735;-0.077102;0.032575;97.7;0.0;0.0;3.0;0.0;0.0
2.0;1753877735.239134;15.990602;0.83;-1.7;-0.4;0.995092;-0.077471;0.032032;102.0;0.0;0.0;5.6;0.0;0.0
2.0;1753877735.243739;15.964286;0.88;-1.72;-0.39;0.996032;-0.075212;0.02908;93.3;0.0;0.0;5.0;0.0;0.0
2.0;1753877735.248344;15.925683;0.9;-1.68;-0.36;0.994895;-0.078466;0.030736;100.7;0.0;0.0;8.2;0.0;0.0
2.0;1753877735.252949;16.001961;1.0;-1.67;-0.34;0.996322;-0.080244;0.032771;96.8;0.0;0.0;8.8;0.0;0.0
2.0;1753877735.257554;15.972186;0.9;-1.72;-0.48;0.99603;-0.079826;0.029471;95.6;0.0;0.0;4.6;0.0;0.0
2.0;1753877735.262159;15.936583;0.9;-1.76;-0.34;0.994759;-0.075347;0.030102;95.4;0.0;0.0;7.2;0.0;0.0
2.0;1753877735.266764;15.961012;1.01;-1.77;-0.39;0.995149;-0.07693;0.029776;95.3;0.0;0.0;3.6;0.0;0.0
2.0;1753877735.271368;15.93053;1.15;-1.71;-0.39;0.995881;-0.077036;0.030641;91.6;0.0;0.0;4.9;0.0;0.0
2.0;1753877735.275973;15.926049;1.02;-1.71;-0.29;0.995202;-0.077576;0.030827;92.5;0.0;0.0;5.4;0.0;0.0
2.0;1753877735.280578;15.979482;0.93;-1.73;-0.37;0.994917;-0.079229;0.030271;93.2;0.0;0.0;4.2;0.0;0.0
2.0;1753877735.285183;16.01383;0.99;-1.66;-0.38;0.994015;-0.075532;0.030264;90.7;0.0;0.0;7.6;0.0;0.0
2.0;1753877735.289788;15.95831;1.16;-1.71;-0.35;0.994402;-0.076906;0.030147;96.6;0.0;0.0;3.5;0.0;0.0
2.0;1753877735.294392;15.976395;0.99;-1.63;-0.38;0.994166;-0.075922;0.030579;98.5;0.0;0.0;6.9;0.0;0.0
2.0;1753877735.298997;15.979469;0.99;-1.68;-0.34;0.993971;-0.078021;0.031771;97.5;0.0;0.0;5.2;0.0;0.0
2.0;1753877735.303602;15.966711;0.94;-1.73;-0.39;0.995666;-0.079228;0.031105;89.7;0.0;0.0;8.1;0.0;0.0
2.0;1753877735.308207;15.976437;0.98;-1.69;-0.41;0.994221;-0.079718;0.03178;96.7;0.0;0.0;4.8;0.0;0.0
2.0;1753877735.312812;15.939073;0.91;-1.73;-0.36;0.9954;-0.078632;0.031447;93.5;0.0;0.0;4.2;0.0;0.0
2.0;1753877735.317416;15.942545;0.99;-1.67;-0.42;0.994541;-0.078398;0.029761;92.0;0.0;0.0;3.9;0.0;0.0
2.0;1753877735.322021;15.974999;0.99;-1.75;-0.37;0.995616;-0.081225;0.029894;90.9;0.0;0.0;6.1;0.0;0.0
2.0;1753877735.3295;15.957031;0.98;-1.68;-0.35;0.995276;-0.078202;0.030256;95.0;0.0;0.0;5.0;0.0;0.0
2.0;1753877735.334105;16.015703;1.03;-1.77;-0.4;0.99667;-0.080674;0.02993;100.0;0.0;0.0;4.0;0.0;0.0
2.0;1753877735.33871;15.966511;0.93;-1.57;-0.39;0.99586;-0.080827;0.031081;97.7;0.0;0.0;4.6;0.0;0.0
2.0;1753877735.343314;15.926145;0.92;-1.66;-0.43;0.995838;-0.075201;0.030048;94.9;0.0;0.0;8.9;0.0;0.0
2.0;1753877735.347919;15.936654;0.97;-1.67;-0.3;0.995251;-0.076384;0.030716;102.5;0.0;0.0;7.0;0.0;0.0
2.0;1753877735.352524;15.946259;0.84;-1.62;-0.31;0.995001;-0.075847;0.030504;97.4;0.0;0.0;6.2;0.0;0.0
2.0;1753877735.357129;15.986351;0.88;-1.63;-0.36;0.998232;-0.074025;0.030152;104.3;0.0;0.0;7.9;0.0;0.0
2.0;1753877735.36521;15.914062;0.91;-1.61;-0.42;0.996984;-0.07503;0.029768;104.0;0.0;0.0;7.0;0.0;0.0
2.0;1753877735.369815;15.915677;0.98;-1.58;-0.4;0.996977;-0.074014;0.030023;104.4;0.0;0.0;6.5;0.0;0.0
2.0;1753877735.37442;15.894995;0.72;-1.63;-0.37;0.996941;-0.077822;0.029985;104.6;0.0;0.0;6.9;0.0;0.0
2.0;1753877735.379024;15.926468;0.92;-1.6;-0.27;0.995535;-0.07652;0.03042;101.8;0.0;0.0;5.2;0.0;0.0
2.0;1753877735.383629;15.902183;0.97;-1.6;-0.33;0.995784;-0.075367;0.03068;106.8;0.0;0.0;6.1;0.0;0.0
2.0;1753877735.388234;15.906276;0.95;-1.74;-0.47;0.995399;-0.075785;0.029913;104.8;0.0;0.0;5.7;0.0;0.0
2.0;1753877735.392839;15.957581;1.05;-1.66;-0.26;0.994065;-0.075666;0.029953;98.6;0.0;0.0;8.9;0.0;0.0
2.0;1753877735.39893;15.914062;0.98;-1.68;-0.35;0.99491;-0.074786;0.030012;104.0;0.0;0.0;7.0;0.0;0.0
2.0;1753877735.403535;15.922845;1.08;-1.63;-0.26;0.99432;-0.077776;0.030001;104.5;0.0;0.0;6.0;0.0;0.0
2.0;1753877735.40814;15.895809;0.9;-1.71;-0.43;0.994293;-0.075501;0.030033;104.8;0.0;0.0;3.7;0.0;0.0
2.0;1753877735.412744;15.919783;0.94;-1.56;-0.41;0.997069;-0.07572;0.030213;103.1;0.0;0.0;5.6;0.0;0.0
2.0;1753877735.417349;15.916048;1.0;-1.63;-0.37;0.994622;-0.076867;0.031096;100.0;0.0;0.0;9.9;0.0;0.0
2.0;1753877735.421954;15.887318;1.11;-1.62;-0.42;0.995219;-0.075594;0.030327;107.0;0.0;0.0;6.9;0.0;0.0
2.0;1753877735.426559;15.945118;1.09;-1.58;-0.48;0.995449;-0.078368;0.030739;100.4;0.0;0.0;4.6;0.0;0.0
2.0;1753877735.431164;15.955403;1.0;-1.62;-0.34;0.995422;-0.074375;0.030977;104.5;0.0;0.0;4.4;0.0;0.0
2.0;1753877735.435768;15.931465;1.1;-1.64;-0.43;0.994446;-0.076645;0.031933;107.0;0.0;0.0;7.4;0.0;0.0
2.0;1753877735.440374;15.917952;1.09;-1.61;-0.37;0.995316;-0.078461;0.031431;105.9;0.0;0.0;6.8;0.0;0.0
2.0;1753877735.444978;15.938057;1.06;-1.63;-0.25;0.995394;-0.077283;0.030897;108.4;0.0;0.0;6.8;0.0;0.0
2.0;1753877735.453;15.933594;1.12;-1.61;-0.35;0.995032;-0.076982;0.031598;104.0;0.0;0.0;7.0;0.0;0.0
2.0;1753877735.457605;15.94598;1.11;-1.54;-0.39;0.995462;-0.078879;0.031366;103.8;0.0;0.0;8.9;0.0;0.0
2.0;1753877735.46221;15.926402;1.0;-1.57;-0.32;0.99445;-0.076201;0.032001;102.7;0.0;0.0;7.2;0.0;0.0
2.0;1753877735.466814;15.908257;0.98;-1.54;-0.32;0.996525;-0.077695;0.031124;114.6;0.0;0.0;5.9;0.0;0.0
2.0;1753877735.471419;15.887771;1.01;-1.59;-0.31;0.994719;-0.076788;0.031988;105.5;0.0;0.0;5.2;0.0;0.0
2.0;1753877735.476024;15.925306;1.11;-1.63;-0.42;0.996195;-0.077106;0.031905;109.0;0.0;0.0;6.7;0.0;0.0
2.0;1753877735.480629;15.916025;0.95;-1.67;-0.34;0.994383;-0.078414;0.030845;100.3;0.0;0.0;6.8;0.0;0.0
2.0;1753877735.485234;15.901014;0.99;-1.53;-0.32;0.996168;-0.076347;0.031346;101.5;0.0;0.0;7.4;0.0;0.0
2.0;1753877735.489838;15.917261;1.08;-1.57;-0.29;0.996226;-0.077071;0.031837;109.7;0.0;0.0;7.4;0.0;0.0
2.0;1753877735.494444;15.915684;0.99;-1.59;-0.4;0.995569;-0.078133;0.029836;106.6;0.0;0.0;7.3;0.0;0.0
2.0;1753877735.499048;15.943328;0.85;-1.58;-0.42;0.995499;-0.078874;0.030318;102.0;0.0;0.0;7.4;0.0;0.0
2.0;1753877735.50358;15.933594;0.98;-1.61;-0.35;0.995764;-0.076738;0.030134;104.0;0.0;0.0;7.0;0.0;0.0
2.0;1753877735.508185;15.955252;1.07;-1.62;-0.33;0.995371;-0.075328;0.030202;104.8;0.0;0.0;7.9;0.0;0.0
2.0;1753877735.51279;15.939828;1.06;-1.67;-0.3;0.995984;-0.074366;0.028858;108.0;0.0;0.0;8.2;0.0;0.0
2.0;1753877735.517394;15.947757;0.98;-1.64;-0.2;0.995307;-0.073063;0.028491;106.6;0.0;0.0;5.3;0.0;0.0
2.0;1753877735.521999;15.951661;0.93;-1.61;-0.25;0.995047;-0.074687;0.029781;103.7;0.0;0.0;7.2;0.0;0.0
2.0;1753877735.526604;15.940473;0.84;-1.72;-0.29;0.994599;-0.074615;0.030162;105.3;0.0;0.0;6.6;0.0;0.0
2.0;1753877735.531209;15.929035;0.85;-1.65;-0.3;0.994172;-0.073601;0.029581;106.1;0.0;0.0;8.7;0.0;0.0
2.0;1753877735.53642;15.933594;0.91;-1.68;-0.28;0.99491;-0.073688;0.029158;104.0;0.0;0.0;7.0;0.0;0.0
2.0;1753877735.541025;15.950914;1.03;-1.67;-0.3;0.994462;-0.07346;0.030014;96.5;0.0;0.0;5.5;0.0;0.0
2.0;1753877735.54563;15.915393;0.84;-1.67;-0.21;0.994704;-0.075461;0.028986;111.6;0.0;0.0;7.4;0.0;0.0
2.0;1753877735.550234;15.896649;0.89;-1.69;-0.29;0.994987;-0.074417;0.030079;100.5;0.0;0.0;7.0;0.0;0.0
2.0;1753877735.554839;15.914997;0.87;-1.67;-0.24;0.99515;-0.07423;0.029975;106.9;0.0;0.0;7.7;0.0;0.0
2.0;1753877735.559444;15.958577;0.76;-1.66;-0.28;0.995171;-0.075532;0.029188;108.0;0.0;0.0;4.7;0.0;0.0
2.0;1753877735.564049;15.945653;0.78;-1.69;-0.24;0.995985;-0.07659;0.029555;111.3;0.0;0.0;5.8;0.0;0.0
2.0;1753877735.568654;15.947731;0.89;-1.65;-0.38;0.997269;-0.075928;0.029237;104.8;0.0;0.0;7.6;0.0;0.0
2.0;1753877735.573259;15.940342;0.79;-1.74;-0.28;0.996465;-0.077663;0.031255;110.6;0.0;0.0;7.9;0.0;0.0
2.0;1753877735.577864;15.949749;0.97;-1.67;-0.19;0.996066;-0.076542;0.030288;107.2;0.0;0.0;8.0;0.0;0.0
2.0;1753877735.582468;15.940222;0.85;-1.58;-0.25;0.995943;-0.077913;0.03077;89.3;0.0;0.0;7.5;0.0;0.0
2.0;1753877735.587073;15.934055;0.82;-1.72;-0.32;0.9956;-0.078482;0.031867;100.9;0.0;0.0;7.0;0.0;0.0
2.0;1753877735.591678;15.926594;0.88;-1.74;-0.43;0.995611;-0.076467;0.029665;102.0;0.0;0.0;5.9;0.0;0.0
2.0;1753877735.596283;15.942906;0.82;-1.64;-0.24;0.996495;-0.077903;0.032693;103.0;0.0;0.0;5.7;0.0;0.0
2.0;1753877735.600888;15.925956;0.92;-1.69;-0.24;0.995548;-0.078612;0.0318;105.5;0.0;0.0;6.9;0.0;0.0
2.0;1753877735.60801;15.933594;0.84;-1.68;-0.28;0.996252;-0.079178;0.031598;101.0;0.0;0.0;6.0;0.0;0.0
2.0;1753877735.612615;15.918083;0.91;-1.73;-0.22;0.996395;-0.080291;0.031736;97.4;0.0;0.0;6.8;0.0;0.0
2.0;1753877735.61722;15.95507;0.82;-1.72;-0.18;0.994229;-0.077281;0.029865;103.8;0.0;0.0;6.4;0.0;0.0
2.0;1753877735.621824;15.962412;0.9;-1.67;-0.18;0.995474;-0.077776;0.029621;102.0;0.0;0.0;5.0;0.0;0.0
2.0;1753877735.626429;15.948083;1.08;-1.67;-0.31;0.995451;-0.075691;0.030081;98.7;0.0;0.0;6.2;0.0;0.0
2.0;1753877735.63102;15.945312;0.91;-1.68;-0.28;0.994422;-0.074786;0.029646;101.0;0.0;0.0;6.0;0.0;0.0
2.0;1753877735.635625;15.949032;0.74;-1.61;-0.25;0.99481;-0.077555;0.029426;103.0;0.0;0.0;6.0;0.0;0.0
2.0;1753877735.64023;15.951175;0.85;-1.6;-0.21;0.994084;-0.0752;0.031041;105.2;0.0;0.0;5.9;0.0;0.0
2.0;1753877735.644834;15.957457;0.86;-1.61;-0.27;0.995392;-0.075902;0.028939;97.6;0.0;0.0;6.1;0.0;0.0
2.0;1753877735.649439;15.928705;1.01;-1.64;-0.19;0.995361;-0.074517;0.029145;106.3;0.0;0.0;6.4;0.0;0.0
2.0;1753877735.654044;15.958852;0.95;-1.7;-0.17;0.995759;-0.078846;0.029892;105.5;0.0;0.0;6.3;0.0;0.0
2.0;1753877735.658649;15.943325;0.93;-1.57;-0.22;0.994325;-0.078542;0.029332;107.2;0.0;0.0;6.7;0.0;0.0
2.0;1753877735.663254;15.985452;0.93;-1.65;-0.21;0.995814;-0.080156;0.029299;104.7;0.0;0.0;7.5;0.0;0.0
2.0;1753877735.667858;15.943103;0.85;-1.64;-0.31;0.99405;-0.075399;0.030566;93.8;0.0;0.0;5.2;0.0;0.0
2.0;1753877735.67349;15.945312;0.91;-1.61;-0.28;0.995032;-0.07808;0.030012;101.0;0.0;0.0;6.0;0.0;0.0
2.0;1753877735.678095;15.924884;0.94;-1.61;-0.37;0.996184;-0.080895;0.03101;102.2;0.0;0.0;5.5;0.0;0.0
2.0;1753877735.6827;15.951564;0.95;-1.69;-0.2;0.995083;-0.078647;0.028624;101.5;0.0;0.0;5.3;0.0;0.0
2.0;1753877735.687304;15.955941;0.93;-1.57;-0.34;0.995108;-0.079515;0.029137;102.7;0.0;0.0;6.7;0.0;0.0
2.0;1753877735.691909;15.948346;0.95;-1.64;-0.33;0.995083;-0.078252;0.030628;98.9;0.0;0.0;5.6;0.0;0.0
2.0;1753877735.696514;15.94509;0.82;-1.63;-0.38;0.995929;-0.077397;0.031018;100.5;0.0;0.0;3.8;0.0;0.0
2.0;1753877735.701119;15.947608;0.83;-1.61;-0.28;0.99463;-0.076426;0.030335;98.5;0.0;0.0;6.0;0.0;0.0
2.0;1753877735.705724;15.928476;0.94;-1.63;-0.13;0.99606;-0.076436;0.029556;98.8;0.0;0.0;5.7;0.0;0.0
2.0;1753877735.710328;15.942679;0.99;-1.57;-0.36;0.995265;-0.075832;0.029187;103.8;0.0;0.0;6.6;0.0;0.0
2.0;1753877735.714934;15.962292;1.09;-1.61;-0.37;0.99422;-0.077188;0.029818;97.1;0.0;0.0;5.8;0.0;0.0
2.0;1753877735.72175;15.945312;0.98;-1.61;-0.35;0.995032;-0.075518;0.029768;101.0;0.0;0.0;6.0;0.0;0.0
2.0;1753877735.726355;15.955743;1.0;-1.55;-0.48;0.995301;-0.074381;0.029092;103.2;0.0;0.0;8.1;0.0;0.0
2.0;1753877735.73096;15.944404;0.95;-1.61;-0.36;0.99572;-0.076527;0.030252;103.2;0.0;0.0;5.3;0.0;0.0
2.0;1753877735.735564;15.942892;1.06;-1.6;-0.47;0.994696;-0.075799;0.030001;104.2;0.0;0.0;5.2;0.0;0.0
2.0;1753877735.740169;15.963984;0.96;-1.58;-0.49;0.995616;-0.076752;0.028448;112.2;0.0;0.0;6.7;0.0;0.0
2.0;1753877735.744774;15.95423;0.96;-1.54;-0.45;0.995458;-0.076141;0.030163;104.9;0.0;0.0;4.5;0.0;0.0
2.0;1753877735.749379;15.939306;0.94;-1.63;-0.34;0.994731;-0.074512;0.028859;105.4;0.0;0.0;7.0;0.0;0.0
2.0;1753877735.753984;15.940079;0.9;-1.63;-0.36;0.99454;-0.078447;0.029173;101.2;0.0;0.0;6.1;0.0;0.0
2.0;1753877735.758588;15.934652;0.94;-1.63;-0.4;0.994166;-0.074221;0.029657;99.9;0.0;0.0;4.7;0.0;0.0
2.0;1753877735.765;15.945312;0.98;-1.61;-0.42;0.995032;-0.07564;0.029768;101.0;0.0;0.0;6.0;0.0;0.0
2.0;1753877735.769605;15.94763;0.93;-1.63;-0.48;0.993273;-0.074607;0.030097;98.5;0.0;0.0;6.4;0.0;0.0
2.0;1753877735.77421;15.937781;0.99;-1.58;-0.33;0.995406;-0.075942;0.029012;100.4;0.0;0.0;5.3;0.0;0.0
2.0;1753877735.778814;15.930904;1.08;-1.58;-0.37;0.994972;-0.075255;0.029824;101.5;0.0;0.0;6.5;0.0;0.0
2.0;1753877735.783419;15.958749;0.9;-1.64;-0.41;0.996045;-0.077512;0.029628;96.4;0.0;0.0;4.6;0.0;0.0
2.0;1753877735.788024;15.931569;1.01;-1.58;-0.35;0.994933;-0.075869;0.030341;102.3;0.0;0.0;5.7;0.0;0.0
2.0;1753877735.792629;15.933067;0.92;-1.59;-0.33;0.993474;-0.075577;0.030848;106.2;0.0;0.0;5.5;0.0;0.0
2.0;1753877735.797234;15.963076;0.86;-1.57;-0.3;0.994976;-0.076866;0.030232;100.3;0.0;0.0;5.2;0.0;0.0
2.0;1753877735.801839;15.946414;0.76;-1.64;-0.44;0.993927;-0.077793;0.031228;105.4;0.0;0.0;6.6;0.0;0.0
2.0;1753877735.806444;15.951471;1.0;-1.62;-0.44;0.99514;-0.074206;0.030351;99.9;0.0;0.0;6.9;0.0;0.0
2.0;1753877735.811048;15.947626;0.93;-1.6;-0.42;0.995133;-0.075899;0.03127;95.1;0.0;0.0;6.4;0.0;0.0
2.0;1753877735.815653;15.968904;0.87;-1.54;-0.35;0.994883;-0.079463;0.030381;102.8;0.0;0.0;5.9;0.0;0.0
2.0;1753877735.820258;15.939065;0.99;-1.65;-0.41;0.993946;-0.075648;0.029278;97.0;0.0;0.0;3.8;0.0;0.0
2.0;1753877735.824863;15.959577;0.83;-1.68;-0.27;0.994016;-0.077868;0.031113;104.3;0.0;0.0;4.8;0.0;0.0
2.0;1753877735.829468;15.974525;0.82;-1.58;-0.34;0.994126;-0.074947;0.031198;97.1;0.0;0.0;5.6;0.0;0.0
2.0;1753877735.834072;15.957718;0.9;-1.66;-0.3;0.993596;-0.077193;0.031235;102.9;0.0;0.0;5.5;0.0;0.0
2.0;1753877735.838677;15.955127;0.91;-1.58;-0.27;0.993017;-0.077157;0.029677;99.7;0.0;0.0;4.7;0.0;0.0
2.0;1753877735.843282;15.94229;0.97;-1.67;-0.26;0.994179;-0.076948;0.030659;98.9;0.0;0.0;4.2;0.0;0.0
2.0;1753877735.847887;15.957949;0.88;-1.56;-0.43;0.994155;-0.078053;0.030181;102.3;0.0;0.0;6.3;0.0;0.0
2.0;1753877735.852492;15.953809;0.91;-1.66;-0.23;0.993514;-0.07824;0.030311;108.6;0.0;0.0;5.5;0.0;0.0
2.0;1753877735.86099;15.960938;0.84;-1.61;-0.28;0.993934;-0.07808;0.030866;101.0;0.0;0.0;6.0;0.0;0.0
2.0;1753877735.865595;15.97867;0.76;-1.59;-0.24;0.994728;-0.077991;0.031464;97.0;0.0;0.0;5.8;0.0;0.0
2.0;1753877735.8702;15.959035;0.77;-1.69;-0.31;0.992353;-0.079354;0.029887;98.8;0.0;0.0;6.0;0.0;0.0
2.0;1753877735.874804;15.997314;0.83;-1.57;-0.31;0.993708;-0.078645;0.029836;103.6;0.0;0.0;6.5;0.0;0.0
2.0;1753877735.879409;15.986284;0.77;-1.61;-0.27;0.995518;-0.073377;0.029387;103.0;0.0;0.0;6.2;0.0;0.0
2.0;1753877735.884014;15.978576;0.73;-1.55;-0.4;0.994165;-0.076892;0.029776;98.2;0.0;0.0;5.2;0.0;0.0
2.0;1753877735.888619;15.943709;0.94;-1.55;-0.25;0.994949;-0.076074;0.030401;100.0;0.0;0.0;5.5;0.0;0.0
2.0;1753877735.893224;15.968712;0.97;-1.57;-0.19;0.99626;-0.076969;0.029652;103.4;0.0;0.0;7.1;0.0;0.0
2.0;1753877735.897828;15.976862;0.87;-1.59;-0.32;0.996966;-0.076748;0.029337;104.3;0.0;0.0;6.5;0.0;0.0
2.0;1753877735.902434;15.969158;0.78;-1.6;-0.23;0.995979;-0.074672;0.028312;98.8;0.0;0.0;6.7;0.0;0.0
2.0;1753877735.907038;15.99544;0.79;-1.6;-0.28;0.99591;-0.075263;0.029487;100.4;0.0;0.0;5.0;0.0;0.0
2.0;1753877735.91131;15.960938;0.91;-1.61;-0.28;0.995764;-0.074054;0.028548;101.0;0.0;0.0;6.0;0.0;0.0
2.0;1753877735.915915;15.919936;0.87;-1.6;-0.28;0.995901;-0.073544;0.029317;99.6;0.0;0.0;6.4;0.0;0.0
2.0;1753877735.92052;15.956451;0.78;-1.63;-0.32;0.995606;-0.076161;0.030558;103.1;0.0;0.0;5.8;0.0;0.0
2.0;1753877735.925124;15.977019;0.9;-1.59;-0.22;0.995374;-0.07319;0.028304;97.6;0.0;0.0;4.9;0.0;0.0
2.0;1753877735.929729;15.961136;0.86;-1.52;-0.24;0.995692;-0.075555;0.029419;101.2;0.0;0.0;5.8;0.0;0.0
2.0;1753877735.934334;15.968146;0.91;-1.63;-0.19;0.996097;-0.076623;0.029842;99.4;0.0;0.0;5.7;0.0;0.0
2.0;1753877735.938939;15.930964;0.89;-1.59;-0.22;0.996229;-0.07894;0.029537;102.4;0.0;0.0;5.9;0.0;0.0
2.0;1753877735.943544;15.960329;0.9;-1.59;-0.32;0.994686;-0.073468;0.03024;99.5;0.0;0.0;5.4;0.0;0.0
2.0;1753877735.948148;15.944724;0.91;-1.6;-0.23;0.99429;-0.076708;0.029955;97.8;0.0;0.0;5.7;0.0;0.0
2.0;1753877735.95663;15.960938;0.91;-1.61;-0.21;0.995642;-0.077226;0.030134;101.0;0.0;0.0;6.0;0.0;0.0
2.0;1753877735.961235;15.944017;0.83;-1.73;-0.15;0.99561;-0.078137;0.029392;100.5;0.0;0.0;6.5;0.0;0.0
2.0;1753877735.96584;15.951236;0.88;-1.6;-0.39;0.995143;-0.076165;0.031637;106.8;0.0;0.0;5.3;0.0;0.0
2.0;1753877735.970444;15.966008;0.82;-1.59;-0.28;0.995478;-0.076581;0.029977;97.2;0.0;0.0;6.2;0.0;0.0
2.0;1753877735.975049;15.948384;0.91;-1.61;-0.3;0.995503;-0.07617;0.030385;101.4;0.0;0.0;5.6;0.0;0.0
2.0;1753877735.979654;15.962005;0.9;-1.68;-0.21;0.995727;-0.076633;0.030261;100.9;0.0;0.0;4.7;0.0;0.0
2.0;1753877735.984259;15.952848;0.98;-1.64;-0.15;0.995825;-0.072862;0.031417;98.8;0.0;0.0;5.6;0.0;0.0
2.0;1753877735.988864;15.938706;0.95;-1.71;-0.15;0.995851;-0.075939;0.030321;97.2;0.0;0.0;4.5;0.0;0.0
2.0;1753877735.99542;15.945312;0.98;-1.68;-0.21;0.99552;-0.075274;0.03111;101.0;0.0;0.0;6.0;0.0;0.0
2.0;1753877735.995817;15.945312;0.91;-1.68;-0.28;0.994422;-0.078934;0.030256;109.0;0.0;0.0;9.0;0.0;0.0
2.0;1753877736.000422;15.950559;0.92;-1.61;-0.34;0.992788;-0.079326;0.029574;112.8;0.0;0.0;8.4;0.0;0.0
2.0;1753877736.005026;15.958469;0.75;-1.74;-0.29;0.99552;-0.076681;0.030975;110.9;0.0;0.0;10.1;0.0;0.0
2.0;1753877736.009632;15.941556;0.89;-1.6;-0.33;0.995275;-0.077462;0.031201;113.2;0.0;0.0;8.3;0.0;0.0
2.0;1753877736.014236;15.945458;1.0;-1.69;-0.28;0.993896;-0.08024;0.029876;109.7;0.0;0.0;8.7;0.0;0.0
2.0;1753877736.018841;15.941883;0.94;-1.68;-0.28;0.995125;-0.07693;0.031704;107.7;0.0;0.0;8.8;0.0;0.0
2.0;1753877736.023446;15.934918;0.93;-1.74;-0.33;0.993814;-0.079692;0.030414;111.1;0.0;0.0;6.3;0.0;0.0
2.0;1753877736.028051;15.948642;1.04;-1.69;-0.31;0.995009;-0.078922;0.03203;107.8;0.0;0.0;9.2;0.0;0.0
2.0;1753877736.032656;15.942524;0.99;-1.65;-0.27;0.996028;-0.077108;0.030719;106.0;0.0;0.0;8.0;0.0;0.0
2.0;1753877736.03726;15.964584;0.87;-1.68;-0.3;0.994705;-0.079858;0.031102;108.4;0.0;0.0;8.6;0.0;0.0
2.0;1753877736.041865;15.933217;1.0;-1.71;-0.22;0.994454;-0.079918;0.030598;110.4;0.0;0.0;8.1;0.0;0.0
2.0;1753877736.04647;15.943602;0.96;-1.67;-0.22;0.994319;-0.075978;0.02973;105.7;0.0;0.0;9.1;0.0;0.0
2.0;1753877736.051075;15.940984;0.96;-1.72;-0.32;0.99465;-0.078234;0.030279;112.2;0.0;0.0;10.0;0.0;0.0
2.0;1753877736.05568;15.958911;0.77;-1.69;-0.27;0.995198;-0.076519;0.030725;107.6;0.0;0.0;8.7;0.0;0.0
2.0;1753877736.060284;15.943649;0.87;-1.66;-0.25;0.994479;-0.076665;0.030346;113.9;0.0;0.0;9.7;0.0;0.0
2.0;1753877736.064889;15.937276;0.98;-1.62;-0.31;0.994677;-0.081255;0.031773;111.5;0.0;0.0;10.1;0.0;0.0
2.0;1753877736.069494;15.92676;1.0;-1.63;-0.36;0.995169;-0.075709;0.030062;112.4;0.0;0.0;8.2;0.0;0.0
2.0;1753877736.074099;15.965246;1.03;-1.65;-0.22;0.995376;-0.081153;0.030874;105.3;0.0;0.0;7.8;0.0;0.0
2.0;1753877736.078704;15.941153;1.04;-1.68;-0.3;0.995537;-0.081461;0.028495;109.3;0.0;0.0;9.1;0.0;0.0
2.0;1753877736.083308;15.939831;0.96;-1.66;-0.32;0.994669;-0.079829;0.030535;112.3;0.0;0.0;7.8;0.0;0.0
2.0;1753877736.087913;15.930147;0.98;-1.63;-0.34;0.996015;-0.079623;0.029851;110.4;0.0;0.0;10.6;0.0;0.0
2.0;1753877736.092518;15.955039;0.9;-1.7;-0.23;0.994993;-0.073068;0.031997;112.9;0.0;0.0;9.3;0.0;0.0
2.0;1753877736.097123;15.937324;0.97;-1.76;-0.31;0.995425;-0.076662;0.028773;111.4;0.0;0.0;7.1;0.0;0.0
2.0;1753877736.101728;15.941363;1.0;-1.68;-0.25;0.994092;-0.07436;0.030746;106.6;0.0;0.0;8.4;0.0;0.0
2.0;1753877736.106332;15.959465;0.88;-1.64;-0.24;0.993366;-0.077073;0.02979;105.0;0.0;0.0;8.8;0.0;0.0
2.0;1753877736.110937;15.9459;0.89;-1.65;-0.38;0.994268;-0.081448;0.029328;110.0;0.0;0.0;7.2;0.0;0.0
2.0;1753877736.115542;15.931852;0.96;-1.64;-0.36;0.996356;-0.080175;0.02922;111.1;0.0;0.0;10.1;0.0;0.0
2.0;1753877736.120147;15.939536;0.96;-1.66;-0.35;0.994893;-0.077565;0.030966;105.2;0.0;0.0;9.4;0.0;0.0
2.0;1753877736.124752;15.942046;0.93;-1.62;-0.26;0.995068;-0.079464;0.029833;103.1;0.0;0.0;7.5;0.0;0.0
2.0;1753877736.129356;15.949777;0.97;-1.6;-0.32;0.994819;-0.082541;0.029699;110.0;0.0;0.0;9.4;0.0;0.0
2.0;1753877736.133962;15.940874;0.98;-1.65;-0.28;0.994529;-0.079374;0.030208;106.8;0.0;0.0;10.6;0.0;0.0
2.0;1753877736.138566;15.954434;0.75;-1.66;-0.31;0.994505;-0.074429;0.030318;109.3;0.0;0.0;10.4;0.0;0.0
2.0;1753877736.143171;15.963322;0.96;-1.72;-0.23;0.993781;-0.07958;0.029845;104.7;0.0;0.0;10.9;0.0;0.0
2.0;1753877736.147776;15.93988;0.98;-1.69;-0.26;0.996351;-0.077313;0.029486;106.0;0.0;0.0;9.3;0.0;0.0
2.0;1753877736.152381;15.942564;0.92;-1.71;-0.3;0.99715;-0.075621;0.029642;107.3;0.0;0.0;9.0;0.0;0.0
2.0;1753877736.156986;15.932599;0.94;-1.74;-0.33;0.996498;-0.079163;0.030275;113.9;0.0;0.0;10.3;0.0;0.0
2.0;1753877736.16159;15.930072;0.95;-1.71;-0.31;0.99461;-0.0781;0.029753;109.5;0.0;0.0;9.9;0.0;0.0
2.0;1753877736.166195;15.942393;0.93;-1.74;-0.27;0.995077;-0.077126;0.030525;103.9;0.0;0.0;7.8;0.0;0.0
2.0;1753877736.1708;15.942288;1.0;-1.68;-0.34;0.995291;-0.075468;0.030505;110.0;0.0;0.0;8.8;0.0;0.0
2.0;1753877736.175405;15.939718;0.97;-1.68;-0.41;0.994905;-0.077891;0.030393;106.3;0.0;0.0;7.9;0.0;0.0
2.0;1753877736.18001;15.913943;0.95;-1.75;-0.28;0.995878;-0.076456;0.030655;110.1;0.0;0.0;9.0;0.0;0.0
2.0;1753877736.184614;15.937795;0.97;-1.55;-0.32;0.994865;-0.078708;0.031092;111.7;0.0;0.0;8.9;0.0;0.0
2.0;1753877736.189219;15.944471;0.94;-1.69;-0.27;0.99601;-0.076985;0.029847;108.2;0.0;0.0;7.5;0.0;0.0
2.0;1753877736.193824;15.931303;0.94;-1.68;-0.35;0.995881;-0.076256;0.031181;111.6;0.0;0.0;9.4;0.0;0.0
2.0;1753877736.198429;15.941707;0.94;-1.72;-0.35;0.996698;-0.075021;0.029734;108.4;0.0;0.0;9.4;0.0;0.0
2.0;1753877736.203034;15.94091;0.99;-1.68;-0.38;0.995358;-0.075902;0.030059;101.2;0.0;0.0;9.3;0.0;0.0
2.0;1753877736.207638;15.938293;0.97;-1.71;-0.31;0.995958;-0.078381;0.031317;111.1;0.0;0.0;10.3;0.0;0.0
2.0;1753877736.212243;15.944331;0.95;-1.69;-0.27;0.995258;-0.080719;0.029714;119.1;0.0;0.0;9.2;0.0;0.0
2.0;1753877736.216848;15.928161;1.05;-1.65;-0.3;0.997188;-0.074828;0.029967;119.2;0.0;0.0;8.5;0.0;0.0
2.0;1753877736.221453;15.955555;1.04;-1.61;-0.3;0.993739;-0.080181;0.029317;105.6;0.0;0.0;9.8;0.0;0.0
2.0;1753877736.226058;15.939892;1.0;-1.66;-0.23;0.996991;-0.077055;0.029982;111.8;0.0;0.0;8.8;0.0;0.0
2.0;1753877736.230662;15.962711;1.04;-1.71;-0.41;0.997684;-0.077752;0.030132;112.8;0.0;0.0;7.1;0.0;0.0
2.0;1753877736.235268;15.961019;0.98;-1.62;-0.26;0.995151;-0.079504;0.02964;111.9;0.0;0.0;8.3;0.0;0.0
2.0;1753877736.239872;15.93623;0.97;-1.67;-0.31;0.995932;-0.075932;0.030497;112.8;0.0;0.0;9.2;0.0;0.0
2.0;1753877736.244477;15.942008;1.01;-1.65;-0.31;0.99583;-0.074049;0.030523;111.5;0.0;0.0;8.6;0.0;0.0
2.0;1753877736.249082;15.957039;0.78;-1.63;-0.36;0.994616;-0.077577;0.029535;115.2;0.0;0.0;9.6;0.0;0.0
2.0;1753877736.253687;15.957544;0.96;-1.72;-0.36;0.996116;-0.074884;0.030612;108.7;0.0;0.0;9.7;0.0;0.0
2.0;1753877736.258292;15.95106;0.87;-1.62;-0.28;0.994576;-0.075654;0.030213;108.6;0.0;0.0;8.6;0.0;0.0
2.0;1753877736.262896;15.952109;0.95;-1.63;-0.37;0.996537;-0.075629;0.030512;110.0;0.0;0.0;8.8;0.0;0.0
2.0;1753877736.267501;15.92761;0.93;-1.65;-0.34;0.995162;-0.078573;0.029891;111.4;0.0;0.0;9.6;0.0;0.0
2.0;1753877736.272106;15.949336;1.0;-1.73;-0.23;0.996807;-0.078668;0.030243;106.8;0.0;0.0;7.7;0.0;0.0
2.0;1753877736.276711;15.935253;0.98;-1.65;-0.34;0.997235;-0.075898;0.029093;110.5;0.0;0.0;10.2;0.0;0.0
2.0;1753877736.281316;15.96144;0.97;-1.7;-0.29;0.995037;-0.076152;0.027686;112.7;0.0;0.0;8.5;0.0;0.0
2.0;1753877736.28592;15.941336;0.97;-1.66;-0.37;0.995499;-0.075813;0.029694;111.5;0.0;0.0;10.0;0.0;0.0
2.0;1753877736.290525;15.938866;0.93;-1.65;-0.35;0.995815;-0.077422;0.030475;119.3;0.0;0.0;8.1;0.0;0.0
2.0;1753877736.29513;15.944155;1.02;-1.66;-0.41;0.996892;-0.076557;0.029895;107.9;0.0;0.0;8.1;0.0;0.0
2.0;1753877736.299735;15.939382;0.89;-1.66;-0.34;0.995903;-0.075872;0.031503;111.9;0.0;0.0;9.8;0.0;0.0
2.0;1753877736.30434;15.950524;1.03;-1.68;-0.33;0.996591;-0.079444;0.029877;106.4;0.0;0.0;8.2;0.0;0.0
2.0;1753877736.308944;15.939286;0.98;-1.68;-0.36;0.997866;-0.074789;0.030237;108.8;0.0;0.0;9.0;0.0;0.0
2.0;1753877736.313549;15.927015;0.96;-1.63;-0.33;0.996685;-0.076416;0.029108;104.0;0.0;0.0;8.7;0.0;0.0
2.0;1753877736.318154;15.941396;0.92;-1.7;-0.33;0.995726;-0.073568;0.030356;107.5;0.0;0.0;8.9;0.0;0.0
2.0;1753877736.322759;15.934077;1.03;-1.68;-0.37;0.996344;-0.073977;0.029882;107.1;0.0;0.0;10.1;0.0;0.0
2.0;1753877736.327364;15.973332;1.05;-1.63;-0.4;0.996302;-0.076942;0.029577;109.7;0.0;0.0;8.1;0.0;0.0
2.0;1753877736.331968;15.942756;0.99;-1.6;-0.32;0.994699;-0.074454;0.030348;105.8;0.0;0.0;9.9;0.0;0.0
2.0;1753877736.336573;15.944008;1.0;-1.65;-0.36;0.997003;-0.076306;0.028937;105.5;0.0;0.0;9.2;0.0;0.0
2.0;1753877736.341178;15.957605;1.02;-1.65;-0.27;0.996932;-0.075643;0.029656;108.4;0.0;0.0;10.6;0.0;0.0
2.0;1753877736.345783;15.931089;1.02;-1.72;-0.32;0.996611;-0.074642;0.030514;113.4;0.0;0.0;8.4;0.0;0.0
2.0;1753877736.350388;15.944098;0.98;-1.65;-0.39;0.995633;-0.074064;0.030165;96.4;0.0;0.0;10.7;0.0;0.0
2.0;1753877736.354993;15.935845;1.05;-1.66;-0.36;0.996629;-0.074976;0.030013;118.0;0.0;0.0;8.6;0.0;0.0
2.0;1753877736.359598;15.956774;1.05;-1.77;-0.27;0.996831;-0.074825;0.031037;108.0;0.0;0.0;10.2;0.0;0.0
2.0;1753877736.364202;15.951686;1.08;-1.74;-0.33;0.997141;-0.075768;0.030265;116.7;0.0;0.0;8.1;0.0;0.0
2.0;1753877736.371;15.945312;0.98;-1.68;-0.35;0.996618;-0.075518;0.02989;109.0;0.0;0.0;9.0;0.0;0.0
2.0;1753877736.375605;15.939068;1.01;-1.67;-0.44;0.99673;-0.079441;0.029494;113.0;0.0;0.0;9.1;0.0;0.0
2.0;1753877736.38021;15.930596;0.97;-1.74;-0.3;0.996085;-0.075357;0.030221;109.9;0.0;0.0;8.5;0.0;0.0
2.0;1753877736.384814;15.973912;1.03;-1.72;-0.33;0.996018;-0.0778;0.02922;108.4;0.0;0.0;8.4;0.0;0.0
2.0;1753877736.389419;15.969295;1.11;-1.7;-0.36;0.997087;-0.077767;0.031035;115.5;0.0;0.0;9.8;0.0;0.0
2.0;1753877736.394024;15.960627;0.78;-1.76;-0.32;0.997348;-0.076283;0.029437;115.9;0.0;0.0;7.5;0.0;0.0
2.0;1753877736.398629;15.948873;0.98;-1.77;-0.41;0.997082;-0.075876;0.029338;106.1;0.0;0.0;8.0;0.0;0.0
2.0;1753877736.403234;15.932045;0.92;-1.68;-0.37;0.997744;-0.074701;0.030232;108.2;0.0;0.0;8.4;0.0;0.0
2.0;1753877736.407838;15.946714;0.92;-1.69;-0.34;0.997749;-0.075352;0.029056;104.1;0.0;0.0;9.8;0.0;0.0
2.0;1753877736.412444;15.952609;0.87;-1.65;-0.26;0.996811;-0.076285;0.029897;104.6;0.0;0.0;9.4;0.0;0.0
2.0;1753877736.417048;15.935968;1.12;-1.75;-0.36;0.995576;-0.075508;0.030327;107.4;0.0;0.0;8.6;0.0;0.0
2.0;1753877736.421653;15.930801;1.04;-1.67;-0.38;0.995899;-0.07403;0.030887;112.0;0.0;0.0;10.4;0.0;0.0
2.0;1753877736.426258;15.948096;0.96;-1.66;-0.3;0.996267;-0.076054;0.030958;114.8;0.0;0.0;8.3;0.0;0.0
2.0;1753877736.430863;15.965552;1.03;-1.68;-0.33;0.996273;-0.07666;0.030323;108.8;0.0;0.0;11.2;0.0;0.0
2.0;1753877736.435468;15.941176;1.06;-1.69;-0.3;0.996735;-0.074933;0.030541;107.1;0.0;0.0;9.0;0.0;0.0
2.0;1753877736.440072;15.953565;0.92;-1.62;-0.33;0.996583;-0.075043;0.029736;116.0;0.0;0.0;9.6;0.0;0.0
2.0;1753877736.444677;15.952915;0.99;-1.67;-0.38;0.997895;-0.076191;0.029882;111.3;0.0;0.0;10.2;0.0;0.0
2.0;1753877736.449282;15.934077;1.07;-1.73;-0.3;0.99625;-0.074519;0.030101;101.7;0.0;0.0;6.2;0.0;0.0
2.0;1753877736.453887;15.94267;0.93;-1.75;-0.32;0.996226;-0.074432;0.029384;108.7;0.0;0.0;9.4;0.0;0.0
2.0;1753877736.458492;15.94013;1.05;-1.6;-0.38;0.997121;-0.074981;0.030749;106.8;0.0;0.0;8.0;0.0;0.0
2.0;1753877736.463096;15.92766;0.93;-1.71;-0.38;0.996118;-0.076845;0.030413;111.8;0.0;0.0;9.4;0.0;0.0
2.0;1753877736.467701;15.935345;0.98;-1.69;-0.31;0.996431;-0.073638;0.03138;100.7;0.0;0.0;10.3;0.0;0.0
2.0;1753877736.472306;15.949238;1.12;-1.64;-0.33;0.996683;-0.07775;0.029215;113.7;0.0;0.0;7.3;0.0;0.0
2.0;1753877736.476911;15.943185;1.06;-1.66;-0.4;0.994595;-0.078247;0.029674;110.5;0.0;0.0;10.0;0.0;0.0
2.0;1753877736.481516;15.963495;0.87;-1.6;-0.29;0.995543;-0.073431;0.027972;104.5;0.0;0.0;8.7;0.0;0.0
2.0;1753877736.48612;15.939601;0.98;-1.68;-0.33;0.995775;-0.077397;0.029614;105.1;0.0;0.0;9.9;0.0;0.0
2.0;1753877736.490725;15.95112;0.94;-1.66;-0.31;0.996925;-0.073242;0.029759;110.9;0.0;0.0;9.4;0.0;0.0
2.0;1753877736.49533;15.947718;1.0;-1.64;-0.31;0.997292;-0.078698;0.028816;113.1;0.0;0.0;10.3;0.0;0.0
2.0;1753877736.499935;15.940256;1.09;-1.67;-0.31;0.995628;-0.075178;0.030002;116.9;0.0;0.0;9.8;0.0;0.0
2.0;1753877736.50454;15.942996;0.99;-1.66;-0.38;0.995736;-0.07567;0.029824;108.0;0.0;0.0;6.6;0.0;0.0
2.0;1753877736.509144;15.923222;0.88;-1.73;-0.27;0.995351;-0.078082;0.029008;105.1;0.0;0.0;9.6;0.0;0.0
2.0;1753877736.513749;15.93904;0.9;-1.71;-0.31;0.995639;-0.072896;0.030484;104.5;0.0;0.0;7.0;0.0;0.0
2.0;1753877736.518354;15.939567;0.95;-1.67;-0.33;0.99647;-0.075346;0.029291;109.2;0.0;0.0;10.2;0.0;0.0
2.0;1753877736.522959;15.936683;0.99;-1.7;-0.3;0.996326;-0.078722;0.030499;108.5;0.0;0.0;8.3;0.0;0.0
2.0;1753877736.527564;15.951205;0.97;-1.68;-0.37;0.996609;-0.078054;0.030227;102.0;0.0;0.0;9.0;0.0;0.0
2.0;1753877736.532169;15.964335;0.93;-1.59;-0.36;0.996049;-0.072601;0.029361;113.1;0.0;0.0;8.4;0.0;0.0
2.0;1753877736.536774;15.968993;0.96;-1.66;-0.37;0.99658;-0.075932;0.030106;115.4;0.0;0.0;10.5;0.0;0.0
2.0;1753877736.541378;15.941307;1.02;-1.69;-0.25;0.995991;-0.077727;0.029118;109.3;0.0;0.0;7.7;0.0;0.0
2.0;1753877736.545983;15.952734;0.94;-1.64;-0.31;0.996115;-0.076754;0.030188;106.8;0.0;0.0;9.7;0.0;0.0
2.0;1753877736.550588;15.944112;1.05;-1.67;-0.28;0.997662;-0.079301;0.02943;111.7;0.0;0.0;7.3;0.0;0.0
2.0;1753877736.555193;15.926686;1.02;-1.65;-0.31;0.996562;-0.074673;0.030617;110.6;0.0;0.0;8.3;0.0;0.0
2.0;1753877736.559798;15.947491;0.98;-1.65;-0.34;0.994387;-0.074191;0.03003;101.5;0.0;0.0;7.8;0.0;0.0
2.0;1753877736.564402;15.963268;0.96;-1.68;-0.39;0.994625;-0.07436;0.030002;106.5;0.0;0.0;8.8;0.0;0.0
2.0;1753877736.569007;15.950947;1.05;-1.63;-0.26;0.994901;-0.075792;0.029386;104.5;0.0;0.0;8.2;0.0;0.0
2.0;1753877736.573612;15.953427;1.03;-1.63;-0.31;0.9971;-0.075958;0.030787;115.3;0.0;0.0;9.7;0.0;0.0
2.0;1753877736.578217;15.932174;0.91;-1.71;-0.39;0.995175;-0.076933;0.030944;112.3;0.0;0.0;9.0;0.0;0.0
2.0;1753877736.582822;15.938137;0.94;-1.68;-0.24;0.99614;-0.07942;0.029415;102.6;0.0;0.0;8.0;0.0;0.0
2.0;1753877736.587426;15.93455;0.85;-1.62;-0.27;0.995424;-0.076488;0.029322;107.7;0.0;0.0;8.5;0.0;0.0
2.0;1753877736.592031;15.935926;0.97;-1.6;-0.28;0.995701;-0.074899;0.02969;111.7;0.0;0.0;8.2;0.0;0.0
2.0;1753877736.596636;15.952009;1.04;-1.69;-0.33;0.995703;-0.075598;0.028916;111.6;0.0;0.0;8.2;0.0;0.0
2.0;1753877736.601241;15.946743;1.04;-1.68;-0.36;0.996408;-0.078098;0.029089;106.0;0.0;0.0;7.5;0.0;0.0
2.0;1753877736.6088;15.945312;0.98;-1.68;-0.28;0.99613;-0.07686;0.02989;109.0;0.0;0.0;9.0;0.0;0.0
2.0;1753877736.613405;15.956496;0.88;-1.72;-0.27;0.996465;-0.076174;0.029717;104.5;0.0;0.0;9.5;0.0;0.0
2.0;1753877736.61801;15.932167;0.95;-1.79;-0.25;0.997398;-0.077164;0.030486;105.1;0.0;0.0;9.2;0.0;0.0
2.0;1753877736.622614;15.974896;0.96;-1.65;-0.22;0.995342;-0.076547;0.029363;110.2;0.0;0.0;9.1;0.0;0.0
2.0;1753877736.627219;15.938884;0.95;-1.64;-0.32;0.995247;-0.07687;0.029967;109.8;0.0;0.0;8.2;0.0;0.0
2.0;1753877736.631824;15.91733;0.93;-1.64;-0.3;0.995383;-0.074372;0.030329;109.6;0.0;0.0;7.6;0.0;0.0
2.0;1753877736.636429;15.956988;0.97;-1.77;-0.23;0.997008;-0.074599;0.030191;98.1;0.0;0.0;8.8;0.0;0.0
2.0;1753877736.641034;15.962489;0.91;-1.66;-0.26;0.993281;-0.076424;0.02981;96.4;0.0;0.0;9.2;0.0;0.0
2.0;1753877736.645638;15.969279;0.94;-1.75;-0.28;0.995252;-0.077275;0.031066;105.1;0.0;0.0;7.6;0.0;0.0
2.0;1753877736.650243;15.933957;0.87;-1.67;-0.29;0.994018;-0.076044;0.029551;112.2;0.0;0.0;5.8;0.0;0.0
2.0;1753877736.654848;15.928789;0.86;-1.69;-0.29;0.993554;-0.076172;0.02941;99.3;0.0;0.0;6.4;0.0;0.0
2.0;1753877736.659453;15.974708;0.86;-1.64;-0.22;0.992401;-0.077034;0.031816;99.1;0.0;0.0;7.9;0.0;0.0
2.0;1753877736.664058;15.956054;0.85;-1.73;-0.3;0.992656;-0.075109;0.031164;106.2;0.0;0.0;6.5;0.0;0.0
2.0;1753877736.67274;15.953125;0.84;-1.68;-0.28;0.99369;-0.076372;0.030744;98.0;0.0;0.0;6.0;0.0;0.0
2.0;1753877736.677345;15.96169;0.85;-1.75;-0.31;0.994928;-0.074852;0.030906;101.7;0.0;0.0;4.5;0.0;0.0
2.0;1753877736.68195;15.961601;1.0;-1.63;-0.26;0.995575;-0.074852;0.030718;102.4;0.0;0.0;5.1;0.0;0.0
2.0;1753877736.686554;15.967358;0.91;-1.6;-0.32;0.995201;-0.075502;0.029804;99.0;0.0;0.0;6.9;0.0;0.0
2.0;1753877736.691159;15.936131;0.81;-1.6;-0.35;0.994795;-0.075792;0.030023;89.1;0.0;0.0;4.9;0.0;0.0
2.0;1753877736.695764;15.948819;0.86;-1.54;-0.34;0.995275;-0.075848;0.030758;90.0;0.0;0.0;7.2;0.0;0.0
2.0;1753877736.700369;15.917215;0.88;-1.58;-0.4;0.99494;-0.078817;0.030596;103.2;0.0;0.0;3.0;0.0;0.0
2.0;1753877736.70846;15.945312;0.91;-1.54;-0.42;0.996374;-0.076494;0.030622;98.0;0.0;0.0;6.0;0.0;0.0
2.0;1753877736.713065;15.953576;0.96;-1.56;-0.48;0.995254;-0.076007;0.030103;94.4;0.0;0.0;8.4;0.0;0.0
2.0;1753877736.71767;15.892846;0.94;-1.58;-0.4;0.996181;-0.07725;0.030482;99.0;0.0;0.0;5.4;0.0;0.0
2.0;1753877736.722274;15.959591;0.91;-1.54;-0.33;0.995543;-0.075237;0.030052;99.4;0.0;0.0;5.7;0.0;0.0
2.0;1753877736.726879;15.951683;0.94;-1.68;-0.38;0.996751;-0.07375;0.030307;111.6;0.0;0.0;7.6;0.0;0.0
2.0;1753877736.731484;15.951658;0.92;-1.62;-0.41;0.994454;-0.075897;0.029879;107.9;0.0;0.0;6.7;0.0;0.0
2.0;1753877736.736089;15.919836;0.89;-1.64;-0.39;0.995722;-0.074417;0.029805;95.3;0.0;0.0;7.6;0.0;0.0
2.0;1753877736.74094;15.945312;0.91;-1.61;-0.35;0.99552;-0.07442;0.029768;98.0;0.0;0.0;6.0;0.0;0.0
2.0;1753877736.745545;15.95254;0.91;-1.55;-0.36;0.994778;-0.072575;0.030089;93.6;0.0;0.0;3.9;0.0;0.0
2.0;1753877736.75015;15.952027;1.0;-1.61;-0.34;0.995548;-0.074643;0.029923;94.9;0.0;0.0;5.5;0.0;0.0
2.0;1753877736.754754;15.923704;0.96;-1.51;-0.29;0.994446;-0.074532;0.031037;95.0;0.0;0.0;6.3;0.0;0.0
2.0;1753877736.759359;15.956175;0.91;-1.61;-0.35;0.995446;-0.075345;0.030205;90.8;0.0;0.0;6.6;0.0;0.0
2.0;1753877736.763964;15.942956;0.84;-1.54;-0.29;0.995175;-0.074918;0.030222;95.9;0.0;0.0;9.0;0.0;0.0
2.0;1753877736.768569;15.93112;0.86;-1.7;-0.22;0.995759;-0.077156;0.029915;95.1;0.0;0.0;5.2;0.0;0.0
2.0;1753877736.773174;15.949244;0.89;-1.61;-0.25;0.994725;-0.074618;0.031518;106.2;0.0;0.0;6.5;0.0;0.0
2.0;1753877736.78158;15.945312;0.91;-1.61;-0.28;0.994422;-0.07686;0.030378;98.0;0.0;0.0;6.0;0.0;0.0
2.0;1753877736.786185;15.9295;0.9;-1.62;-0.22;0.994557;-0.077106;0.030187;96.1;0.0;0.0;8.2;0.0;0.0
2.0;1753877736.79079;15.937805;0.94;-1.63;-0.2;0.9941;-0.075524;0.03125;105.0;0.0;0.0;6.5;0.0;0.0
2.0;1753877736.795394;15.941331;0.94;-1.64;-0.2;0.994316;-0.077567;0.028839;105.2;0.0;0.0;8.9;0.0;0.0
2.0;1753877736.799999;15.942361;0.98;-1.65;-0.25;0.994878;-0.078146;0.030765;90.2;0.0;0.0;4.5;0.0;0.0
2.0;1753877736.804604;15.936442;0.93;-1.63;-0.37;0.993231;-0.076247;0.029732;94.6;0.0;0.0;7.7;0.0;0.0
2.0;1753877736.809209;15.94676;0.97;-1.63;-0.21;0.995229;-0.075104;0.029915;101.5;0.0;0.0;6.8;0.0;0.0
2.0;1753877736.813814;15.945101;0.8;-1.61;-0.37;0.994801;-0.076892;0.03026;97.2;0.0;0.0;4.6;0.0;0.0
2.0;1753877736.818418;15.949551;0.91;-1.57;-0.26;0.992741;-0.07725;0.030969;109.1;0.0;0.0;4.7;0.0;0.0
2.0;1753877736.823023;15.93651;1.0;-1.6;-0.31;0.994728;-0.075817;0.030838;101.2;0.0;0.0;3.6;0.0;0.0
2.0;1753877736.827628;15.949925;0.92;-1.52;-0.31;0.994555;-0.07967;0.029417;92.6;0.0;0.0;7.5;0.0;0.0
2.0;1753877736.832233;15.961108;0.94;-1.51;-0.31;0.995747;-0.076876;0.030893;94.6;0.0;0.0;9.6;0.0;0.0
2.0;1753877736.836838;15.922018;0.98;-1.69;-0.3;0.995014;-0.076697;0.029624;101.9;0.0;0.0;5.8;0.0;0.0
2.0;1753877736.841442;15.94174;0.94;-1.69;-0.37;0.994431;-0.077103;0.030923;109.2;0.0;0.0;6.8;0.0;0.0
2.0;1753877736.846048;15.968432;0.88;-1.66;-0.34;0.995716;-0.07621;0.031118;97.2;0.0;0.0;7.7;0.0;0.0
2.0;1753877736.850652;15.926961;0.94;-1.66;-0.33;0.993447;-0.077036;0.030689;102.0;0.0;0.0;4.4;0.0;0.0
2.0;1753877736.855257;15.937497;0.95;-1.73;-0.32;0.994821;-0.075737;0.030252;112.2;0.0;0.0;7.3;0.0;0.0
2.0;1753877736.859862;15.954139;0.9;-1.55;-0.3;0.99524;-0.077625;0.030247;98.6;0.0;0.0;6.5;0.0;0.0
2.0;1753877736.864467;15.943683;0.93;-1.7;-0.3;0.995;-0.075619;0.029845;99.3;0.0;0.0;8.3;0.0;0.0
2.0;1753877736.86908;15.945312;0.91;-1.61;-0.28;0.995276;-0.076738;0.030134;101.0;0.0;0.0;7.0;0.0;0.0
2.0;1753877736.87256;15.9375;0.91;-1.61;-0.28;0.99491;-0.076738;0.029768;101.0;0.0;0.0;7.0;0.0;0.0
2.0;1753877736.877165;15.906441;0.93;-1.57;-0.3;0.994685;-0.077121;0.030426;97.9;0.0;0.0;7.1;0.0;0.0
2.0;1753877736.88177;15.929267;0.82;-1.68;-0.25;0.996139;-0.074816;0.031176;106.8;0.0;0.0;8.1;0.0;0.0
2.0;1753877736.886374;15.927363;0.94;-1.59;-0.32;0.9948;-0.076054;0.0308;109.6;0.0;0.0;6.4;0.0;0.0
2.0;1753877736.890979;15.935425;0.88;-1.7;-0.31;0.99505;-0.076876;0.030004;98.8;0.0;0.0;9.4;0.0;0.0
2.0;1753877736.895584;15.925859;0.92;-1.59;-0.33;0.996739;-0.075814;0.030092;100.1;0.0;0.0;7.1;0.0;0.0
2.0;1753877736.900189;15.928277;0.84;-1.74;-0.27;0.993701;-0.076277;0.029722;100.1;0.0;0.0;7.1;0.0;0.0
2.0;1753877736.904794;15.957471;0.86;-1.65;-0.47;0.995616;-0.075197;0.031196;101.1;0.0;0.0;8.8;0.0;0.0
2.0;1753877736.909398;15.937984;0.81;-1.74;-0.29;0.994131;-0.075221;0.029825;100.4;0.0;0.0;6.8;0.0;0.0
2.0;1753877736.914003;15.949872;0.68;-1.69;-0.28;0.99459;-0.075591;0.031099;103.1;0.0;0.0;5.0;0.0;0.0
2.0;1753877736.92153;15.9375;0.84;-1.75;-0.35;0.995398;-0.07564;0.0305;101.0;0.0;0.0;7.0;0.0;0.0
2.0;1753877736.926135;15.949525;0.86;-1.64;-0.33;0.994892;-0.077142;0.028842;94.4;0.0;0.0;6.3;0.0;0.0
2.0;1753877736.93074;15.941285;0.87;-1.67;-0.42;0.994981;-0.076886;0.031087;104.3;0.0;0.0;5.8;0.0;0.0
2.0;1753877736.935344;15.953625;0.86;-1.74;-0.32;0.993948;-0.075876;0.032044;101.5;0.0;0.0;6.4;0.0;0.0
2.0;1753877736.939949;15.932966;0.91;-1.62;-0.29;0.995583;-0.075756;0.030175;101.6;0.0;0.0;6.1;0.0;0.0
2.0;1753877736.944554;15.942456;0.92;-1.7;-0.33;0.993514;-0.07531;0.028311;105.7;0.0;0.0;7.0;0.0;0.0
2.0;1753877736.949159;15.914207;0.81;-1.65;-0.33;0.993677;-0.077137;0.030136;94.5;0.0;0.0;5.5;0.0;0.0
2.0;1753877736.953764;15.926913;0.99;-1.74;-0.36;0.99508;-0.075183;0.029846;96.5;0.0;0.0;6.3;0.0;0.0
2.0;1753877736.958368;15.922169;0.96;-1.67;-0.36;0.993584;-0.076588;0.030327;103.4;0.0;0.0;5.0;0.0;0.0
2.0;1753877736.962973;15.921651;0.93;-1.73;-0.28;0.994211;-0.07674;0.029096;104.1;0.0;0.0;8.6;0.0;0.0
2.0;1753877736.96987;15.9375;0.91;-1.61;-0.28;0.994056;-0.077226;0.028792;101.0;0.0;0.0;7.0;0.0;0.0
2.0;1753877736.970004;15.953125;0.84;-1.68;-0.35;0.995276;-0.077714;0.029646;95.0;0.0;0.0;6.0;0.0;0.0
2.0;1753877736.974634;15.953125;0.91;-1.75;-0.35;0.995886;-0.07503;0.028914;95.0;0.0;0.0;6.0;0.0;0.0
2.0;1753877736.979722;15.953125;0.84;-1.68;-0.28;0.99613;-0.077348;0.029646;95.0;0.0;0.0;6.0;0.0;0.0
2.0;1753877736.984452;15.96875;0.84;-1.61;-0.28;0.995642;-0.07442;0.030378;95.0;0.0;0.0;6.0;0.0;0.0
2.0;1753877736.988294;15.96875;0.91;-1.68;-0.42;0.996984;-0.076128;0.029646;95.0;0.0;0.0;6.0;0.0;0.0
2.0;1753877736.994209;15.96875;0.91;-1.75;-0.28;0.995154;-0.074542;0.030744;95.0;0.0;0.0;6.0;0.0;0.0
2.0;1753877736.998814;15.969405;0.83;-1.73;-0.38;0.995415;-0.074375;0.029921;94.3;0.0;0.0;6.9;0.0;0.0
2.0;1753877737.003419;15.950088;0.89;-1.78;-0.33;0.995759;-0.070381;0.030574;99.8;0.0;0.0;5.0;0.0;0.0
2.0;1753877737.008024;15.956898;0.98;-1.85;-0.25;0.993576;-0.070164;0.030754;90.9;0.0;0.0;4.8;0.0;0.0
2.0;1753877737.012628;15.977988;0.82;-1.8;-0.33;0.995792;-0.072397;0.031767;96.0;0.0;0.0;5.4;0.0;0.0
2.0;1753877737.017233;15.978798;0.91;-1.74;-0.25;0.996664;-0.076162;0.029166;90.1;0.0;0.0;5.6;0.0;0.0
2.0;1753877737.021838;15.976945;0.91;-1.76;-0.23;0.994919;-0.075159;0.030211;87.8;0.0;0.0;5.3;0.0;0.0
2.0;1753877737.026443;15.948906;0.89;-1.78;-0.28;0.992868;-0.074242;0.030345;94.6;0.0;0.0;8.0;0.0;0.0
2.0;1753877737.031048;15.945532;0.8;-1.79;-0.28;0.995388;-0.072384;0.032341;88.9;0.0;0.0;6.9;0.0;0.0
2.0;1753877737.035652;15.980023;0.91;-1.82;-0.23;0.994861;-0.076672;0.030849;93.2;0.0;0.0;6.1;0.0;0.0
2.0;1753877737.040257;15.962423;0.9;-1.7;-0.36;0.995167;-0.07498;0.030079;93.9;0.0;0.0;7.3;0.0;0.0
2.0;1753877737.044862;15.967215;0.94;-1.72;-0.39;0.995501;-0.074026;0.030301;102.3;0.0;0.0;6.4;0.0;0.0
2.0;1753877737.049467;15.968288;0.94;-1.79;-0.28;0.996625;-0.075121;0.03219;94.5;0.0;0.0;5.7;0.0;0.0
2.0;1753877737.054072;15.921799;0.83;-1.69;-0.32;0.996019;-0.073717;0.030738;102.2;0.0;0.0;5.8;0.0;0.0
2.0;1753877737.058676;15.971699;0.93;-1.7;-0.3;0.994502;-0.076443;0.031472;87.5;0.0;0.0;4.2;0.0;0.0
2.0;1753877737.063281;15.951993;0.85;-1.67;-0.26;0.995753;-0.075633;0.032244;94.5;0.0;0.0;5.8;0.0;0.0
2.0;1753877737.067886;15.939223;0.94;-1.72;-0.26;0.994909;-0.073725;0.030214;97.0;0.0;0.0;5.0;0.0;0.0
2.0;1753877737.072491;15.972307;0.94;-1.78;-0.23;0.99427;-0.073907;0.031158;95.5;0.0;0.0;5.0;0.0;0.0
2.0;1753877737.077096;15.966376;0.9;-1.68;-0.28;0.996181;-0.071775;0.030285;95.5;0.0;0.0;5.6;0.0;0.0
2.0;1753877737.0817;15.981865;1.09;-1.72;-0.31;0.994121;-0.077687;0.03073;94.4;0.0;0.0;5.4;0.0;0.0
2.0;1753877737.086306;15.954329;0.96;-1.74;-0.26;0.993967;-0.075097;0.029492;98.1;0.0;0.0;7.4;0.0;0.0
2.0;1753877737.09091;15.987222;0.9;-1.75;-0.3;0.99485;-0.074554;0.030592;105.4;0.0;0.0;6.9;0.0;0.0
2.0;1753877737.095515;15.972945;0.87;-1.72;-0.36;0.995878;-0.075481;0.031529;93.7;0.0;0.0;7.2;0.0;0.0
2.0;1753877737.10012;15.961555;0.85;-1.7;-0.22;0.995591;-0.079536;0.029844;97.1;0.0;0.0;4.9;0.0;0.0
2.0;1753877737.104725;16.002818;0.76;-1.78;-0.28;0.996412;-0.072933;0.02916;93.4;0.0;0.0;6.0;0.0;0.0
2.0;1753877737.10933;15.984695;1.04;-1.72;-0.31;0.995177;-0.07322;0.031531;94.6;0.0;0.0;5.4;0.0;0.0
2.0;1753877737.113934;15.951612;0.91;-1.69;-0.29;0.994403;-0.074827;0.032017;89.6;0.0;0.0;6.3;0.0;0.0
2.0;1753877737.118539;15.967699;0.88;-1.72;-0.31;0.995619;-0.075732;0.031702;101.1;0.0;0.0;6.1;0.0;0.0
2.0;1753877737.123144;15.95543;0.9;-1.74;-0.32;0.993173;-0.0749;0.030401;94.9;0.0;0.0;6.5;0.0;0.0
2.0;1753877737.127749;15.960319;0.88;-1.78;-0.41;0.996537;-0.076984;0.030272;95.0;0.0;0.0;4.0;0.0;0.0
2.0;1753877737.132354;15.954561;0.96;-1.72;-0.26;0.995636;-0.075301;0.030444;100.3;0.0;0.0;4.2;0.0;0.0
2.0;1753877737.136958;15.989908;0.93;-1.65;-0.3;0.995283;-0.076169;0.031437;92.8;0.0;0.0;4.6;0.0;0.0
2.0;1753877737.141563;15.995469;1.02;-1.74;-0.34;0.995579;-0.071995;0.029933;95.8;0.0;0.0;7.3;0.0;0.0
2.0;1753877737.146168;15.954817;0.86;-1.71;-0.26;0.994272;-0.072744;0.030153;93.1;0.0;0.0;7.0;0.0;0.0
2.0;1753877737.150773;15.94695;0.9;-1.73;-0.26;0.995341;-0.076896;0.031229;103.1;0.0;0.0;5.9;0.0;0.0
2.0;1753877737.155378;15.974652;0.93;-1.74;-0.34;0.995315;-0.070476;0.029959;97.8;0.0;0.0;6.0;0.0;0.0
2.0;1753877737.159982;15.966599;0.87;-1.72;-0.33;0.996851;-0.071058;0.029893;93.0;0.0;0.0;5.5;0.0;0.0
2.0;1753877737.164587;15.972414;1.05;-1.69;-0.31;0.995133;-0.075111;0.029193;89.3;0.0;0.0;7.6;0.0;0.0
2.0;1753877737.169192;15.935737;1.01;-1.75;-0.24;0.996566;-0.072938;0.028879;87.6;0.0;0.0;6.6;0.0;0.0
2.0;1753877737.173797;15.951091;0.93;-1.7;-0.28;0.99508;-0.074145;0.032171;91.9;0.0;0.0;4.8;0.0;0.0
2.0;1753877737.178402;15.966186;1.04;-1.66;-0.29;0.994451;-0.073775;0.030228;94.4;0.0;0.0;4.2;0.0;0.0
2.0;1753877737.183006;15.956363;0.91;-1.71;-0.29;0.994794;-0.069792;0.02926;97.0;0.0;0.0;5.1;0.0;0.0
2.0;1753877737.187611;15.96137;1.03;-1.65;-0.36;0.996857;-0.076258;0.030353;97.4;0.0;0.0;7.4;0.0;0.0
2.0;1753877737.192216;15.965478;0.94;-1.63;-0.29;0.995264;-0.071502;0.031449;98.8;0.0;0.0;5.8;0.0;0.0
2.0;1753877737.196821;15.974182;1.05;-1.73;-0.4;0.995239;-0.07313;0.031452;94.0;0.0;0.0;7.2;0.0;0.0
2.0;1753877737.201426;15.983804;1.02;-1.7;-0.31;0.995101;-0.073687;0.030488;92.8;0.0;0.0;3.9;0.0;0.0
2.0;1753877737.20603;15.937038;0.96;-1.7;-0.35;0.995398;-0.071939;0.029142;97.0;0.0;0.0;4.7;0.0;0.0
2.0;1753877737.210636;15.946145;0.94;-1.73;-0.31;0.993996;-0.071466;0.028936;95.0;0.0;0.0;7.9;0.0;0.0
2.0;1753877737.21524;15.95754;0.92;-1.65;-0.37;0.993877;-0.072468;0.029547;97.8;0.0;0.0;3.4;0.0;0.0
2.0;1753877737.219845;15.931741;0.97;-1.72;-0.38;0.993727;-0.069292;0.030934;96.4;0.0;0.0;6.8;0.0;0.0
2.0;1753877737.22445;15.987188;0.92;-1.7;-0.31;0.995391;-0.069644;0.031338;98.9;0.0;0.0;5.3;0.0;0.0
2.0;1753877737.229055;15.973038;0.83;-1.69;-0.4;0.994493;-0.07144;0.030166;97.1;0.0;0.0;4.8;0.0;0.0
2.0;1753877737.23366;15.949645;0.93;-1.7;-0.36;0.994745;-0.073357;0.029529;91.6;0.0;0.0;5.8;0.0;0.0
2.0;1753877737.238264;15.951075;0.98;-1.73;-0.23;0.99493;-0.072025;0.029349;92.3;0.0;0.0;5.3;0.0;0.0
2.0;1753877737.242869;15.938245;1.02;-1.73;-0.33;0.994459;-0.070787;0.029876;96.7;0.0;0.0;4.9;0.0;0.0
2.0;1753877737.247474;15.947898;0.97;-1.77;-0.4;0.995399;-0.072704;0.032819;93.3;0.0;0.0;8.1;0.0;0.0
2.0;1753877737.252079;15.961488;1.01;-1.69;-0.29;0.994161;-0.071474;0.031197;99.3;0.0;0.0;5.4;0.0;0.0
2.0;1753877737.256684;15.963516;1.07;-1.67;-0.3;0.993948;-0.069682;0.028867;97.5;0.0;0.0;5.2;0.0;0.0
2.0;1753877737.261288;15.938738;0.93;-1.77;-0.33;0.994769;-0.071756;0.030015;91.7;0.0;0.0;7.0;0.0;0.0
2.0;1753877737.265893;15.961112;1.05;-1.71;-0.36;0.995059;-0.072189;0.031726;96.3;0.0;0.0;5.5;0.0;0.0
2.0;1753877737.270498;15.93661;1.03;-1.63;-0.33;0.993823;-0.071547;0.028929;86.5;0.0;0.0;5.4;0.0;0.0
2.0;1753877737.275103;15.938264;0.93;-1.7;-0.34;0.994984;-0.071587;0.031872;93.6;0.0;0.0;6.4;0.0;0.0
2.0;1753877737.279708;15.956161;0.81;-1.73;-0.46;0.994824;-0.072392;0.031305;92.8;0.0;0.0;4.8;0.0;0.0
2.0;1753877737.284312;15.93172;0.87;-1.73;-0.32;0.995015;-0.072223;0.032527;89.7;0.0;0.0;7.7;0.0;0.0
2.0;1753877737.288917;15.924259;1.02;-1.67;-0.3;0.995957;-0.072186;0.03157;96.9;0.0;0.0;6.2;0.0;0.0
2.0;1753877737.293522;15.957457;0.89;-1.7;-0.3;0.995361;-0.069253;0.031058;92.1;0.0;0.0;5.9;0.0;0.0
2.0;1753877737.298127;15.93582;1.13;-1.64;-0.21;0.994336;-0.075678;0.02819;92.6;0.0;0.0;5.2;0.0;0.0
2.0;1753877737.302732;15.948904;0.83;-1.74;-0.38;0.995172;-0.074872;0.030755;92.8;0.0;0.0;6.5;0.0;0.0
2.0;1753877737.307336;15.939374;0.96;-1.76;-0.37;0.995072;-0.074182;0.031035;95.9;0.0;0.0;6.3;0.0;0.0
2.0;1753877737.311942;15.945553;0.9;-1.73;-0.35;0.993843;-0.074673;0.031375;97.9;0.0;0.0;6.7;0.0;0.0
2.0;1753877737.316546;15.982747;0.92;-1.7;-0.19;0.994749;-0.070487;0.030853;96.6;0.0;0.0;6.1;0.0;0.0
2.0;1753877737.321151;15.954052;0.87;-1.79;-0.42;0.994854;-0.074782;0.031324;91.9;0.0;0.0;6.4;0.0;0.0
2.0;1753877737.325756;15.930478;0.96;-1.71;-0.35;0.99443;-0.071055;0.031082;92.1;0.0;0.0;7.3;0.0;0.0
2.0;1753877737.330361;15.929417;0.87;-1.66;-0.35;0.994559;-0.075257;0.02987;94.1;0.0;0.0;5.4;0.0;0.0
2.0;1753877737.334966;15.959569;0.97;-1.67;-0.41;0.994873;-0.070779;0.030992;99.7;0.0;0.0;4.8;0.0;0.0
2.0;1753877737.33957;15.963483;0.99;-1.68;-0.34;0.993854;-0.072716;0.027937;86.9;0.0;0.0;5.7;0.0;0.0
2.0;1753877737.344175;15.935345;1.0;-1.72;-0.36;0.995307;-0.073814;0.027997;104.4;0.0;0.0;6.0;0.0;0.0
2.0;1753877737.34878;15.97033;0.89;-1.67;-0.41;0.994677;-0.072919;0.029198;92.3;0.0;0.0;5.7;0.0;0.0
2.0;1753877737.353385;15.95582;1.01;-1.76;-0.27;0.994577;-0.075727;0.031092;96.1;0.0;0.0;5.9;0.0;0.0
2.0;1753877737.35799;15.949134;0.94;-1.71;-0.29;0.992551;-0.07128;0.028419;90.8;0.0;0.0;4.5;0.0;0.0
2.0;1753877737.362594;15.956775;1.02;-1.71;-0.37;0.994984;-0.072571;0.0325;95.1;0.0;0.0;5.4;0.0;0.0
2.0;1753877737.367199;15.947081;0.99;-1.68;-0.31;0.994154;-0.069587;0.030335;93.1;0.0;0.0;5.2;0.0;0.0
2.0;1753877737.371804;15.954967;0.95;-1.73;-0.29;0.994376;-0.071095;0.029811;92.5;0.0;0.0;4.8;0.0;0.0
2.0;1753877737.376409;15.942927;0.97;-1.75;-0.32;0.996533;-0.072997;0.028831;90.9;0.0;0.0;6.1;0.0;0.0
2.0;1753877737.381014;15.946576;0.98;-1.63;-0.3;0.995001;-0.070108;0.029944;99.3;0.0;0.0;5.0;0.0;0.0
2.0;1753877737.385618;15.978636;0.93;-1.65;-0.37;0.994962;-0.075091;0.030037;99.5;0.0;0.0;6.1;0.0;0.0
2.0;1753877737.390223;15.927808;0.9;-1.71;-0.37;0.994428;-0.068104;0.033167;98.0;0.0;0.0;6.7;0.0;0.0
2.0;1753877737.394828;15.944201;0.94;-1.66;-0.32;0.995243;-0.072658;0.029573;98.2;0.0;0.0;4.7;0.0;0.0
2.0;1753877737.4019;15.953125;0.98;-1.68;-0.35;0.994788;-0.07198;0.02989;95.0;0.0;0.0;6.0;0.0;0.0
2.0;1753877737.406505;15.967331;1.01;-1.68;-0.37;0.994933;-0.071367;0.029398;90.2;0.0;0.0;5.9;0.0;0.0
2.0;1753877737.41111;15.953202;1.05;-1.69;-0.42;0.995831;-0.070006;0.029428;91.2;0.0;0.0;5.0;0.0;0.0
2.0;1753877737.415714;15.959852;0.87;-1.73;-0.34;0.993273;-0.071604;0.02959;95.0;0.0;0.0;5.9;0.0;0.0
2.0;1753877737.420319;15.925434;0.93;-1.72;-0.31;0.994814;-0.072887;0.030898;93.1;0.0;0.0;5.1;0.0;0.0
2.0;1753877737.424924;15.944019;0.91;-1.73;-0.39;0.995208;-0.071523;0.033365;89.8;0.0;0.0;7.2;0.0;0.0
2.0;1753877737.429529;15.967177;1.02;-1.72;-0.28;0.994282;-0.072293;0.030719;99.2;0.0;0.0;4.6;0.0;0.0
2.0;1753877737.434134;15.948413;1.01;-1.73;-0.32;0.994576;-0.072957;0.031586;95.8;0.0;0.0;6.5;0.0;0.0
2.0;1753877737.438738;15.946484;0.98;-1.73;-0.36;0.995062;-0.069963;0.031275;98.5;0.0;0.0;4.5;0.0;0.0
2.0;1753877737.443344;15.964191;0.91;-1.66;-0.31;0.994307;-0.074076;0.029556;91.0;0.0;0.0;7.2;0.0;0.0
2.0;1753877737.447948;15.923334;0.9;-1.71;-0.29;0.995392;-0.071301;0.030083;103.8;0.0;0.0;5.5;0.0;0.0
2.0;1753877737.452553;15.973118;1.08;-1.58;-0.41;0.995085;-0.073733;0.02839;95.1;0.0;0.0;6.9;0.0;0.0
2.0;1753877737.457158;15.963452;1.03;-1.65;-0.41;0.997022;-0.076543;0.02973;93.9;0.0;0.0;5.4;0.0;0.0
2.0;1753877737.461763;15.946521;0.95;-1.73;-0.4;0.994016;-0.070508;0.026237;89.1;0.0;0.0;5.5;0.0;0.0
2.0;1753877737.466368;15.964419;0.91;-1.64;-0.34;0.994875;-0.073645;0.030347;97.3;0.0;0.0;5.4;0.0;0.0
2.0;1753877737.470972;15.962594;0.92;-1.67;-0.42;0.994336;-0.072117;0.029275;94.6;0.0;0.0;5.4;0.0;0.0
2.0;1753877737.475577;15.950765;0.96;-1.68;-0.39;0.993996;-0.075637;0.028097;95.7;0.0;0.0;5.4;0.0;0.0
2.0;1753877737.480182;15.955707;0.93;-1.65;-0.35;0.994233;-0.069544;0.030178;97.3;0.0;0.0;5.7;0.0;0.0
2.0;1753877737.484787;15.959094;0.87;-1.65;-0.31;0.995929;-0.072544;0.031568;97.2;0.0;0.0;4.4;0.0;0.0
2.0;1753877737.489392;15.944184;0.88;-1.7;-0.46;0.995696;-0.073492;0.03021;96.8;0.0;0.0;5.9;0.0;0.0
2.0;1753877737.493996;15.950659;0.86;-1.71;-0.33;0.994472;-0.074624;0.029541;100.4;0.0;0.0;4.8;0.0;0.0
2.0;1753877737.498601;15.971278;0.91;-1.64;-0.37;0.996471;-0.073953;0.03134;95.5;0.0;0.0;5.7;0.0;0.0
2.0;1753877737.503206;15.962773;0.99;-1.67;-0.33;0.996539;-0.076936;0.029177;95.1;0.0;0.0;6.8;0.0;0.0
2.0;1753877737.507811;15.963385;0.88;-1.69;-0.26;0.996022;-0.073649;0.030186;93.6;0.0;0.0;5.1;0.0;0.0
2.0;1753877737.512416;15.961015;0.91;-1.69;-0.28;0.994702;-0.072929;0.029441;85.5;0.0;0.0;5.4;0.0;0.0
2.0;1753877737.51702;15.941558;1.0;-1.74;-0.3;0.995675;-0.071776;0.028879;92.8;0.0;0.0;5.6;0.0;0.0
2.0;1753877737.521625;15.938322;0.96;-1.76;-0.32;0.995111;-0.076181;0.030248;90.5;0.0;0.0;3.9;0.0;0.0
2.0;1753877737.52623;15.945697;0.98;-1.63;-0.33;0.9959;-0.07403;0.028195;100.4;0.0;0.0;6.2;0.0;0.0
2.0;1753877737.530835;15.921641;0.84;-1.74;-0.26;0.9946;-0.072344;0.030705;100.6;0.0;0.0;5.7;0.0;0.0
2.0;1753877737.53544;15.973805;0.93;-1.71;-0.25;0.994718;-0.077495;0.027999;87.2;0.0;0.0;6.4;0.0;0.0
2.0;1753877737.540044;15.942453;0.87;-1.67;-0.39;0.996176;-0.075018;0.028683;99.3;0.0;0.0;5.9;0.0;0.0
2.0;1753877737.544649;15.960006;0.88;-1.65;-0.31;0.994706;-0.076993;0.03071;93.6;0.0;0.0;6.9;0.0;0.0
2.0;1753877737.549254;15.958161;0.82;-1.67;-0.23;0.996394;-0.080684;0.029706;98.0;0.0;0.0;6.6;0.0;0.0
2.0;1753877737.553859;15.937954;0.88;-1.71;-0.34;0.996993;-0.071598;0.030751;89.4;0.0;0.0;6.5;0.0;0.0
2.0;1753877737.558464;15.956742;0.93;-1.67;-0.29;0.99496;-0.076874;0.030365;100.0;0.0;0.0;4.9;0.0;0.0
2.0;1753877737.563069;15.946383;0.78;-1.66;-0.39;0.994884;-0.075077;0.030357;99.5;0.0;0.0;5.9;0.0;0.0
2.0;1753877737.567674;15.940544;0.87;-1.69;-0.27;0.996513;-0.0766;0.030082;95.6;0.0;0.0;5.6;0.0;0.0
2.0;1753877737.572278;15.954908;0.87;-1.63;-0.37;0.997033;-0.075995;0.028192;95.4;0.0;0.0;6.6;0.0;0.0
2.0;1753877737.576883;15.956536;0.93;-1.64;-0.38;0.993881;-0.07868;0.029759;98.3;0.0;0.0;5.8;0.0;0.0
2.0;1753877737.581488;15.925482;0.89;-1.6;-0.27;0.995306;-0.074202;0.030256;90.0;0.0;0.0;5.7;0.0;0.0
2.0;1753877737.586093;15.943259;0.98;-1.68;-0.24;0.995389;-0.078288;0.030043;96.2;0.0;0.0;6.8;0.0;0.0
2.0;1753877737.590698;15.947989;0.98;-1.65;-0.31;0.994419;-0.078308;0.028831;101.6;0.0;0.0;5.4;0.0;0.0
2.0;1753877737.595302;15.942569;0.95;-1.69;-0.37;0.996116;-0.076992;0.029123;95.0;0.0;0.0;6.8;0.0;0.0
2.0;1753877737.599907;15.948384;0.86;-1.68;-0.32;0.995211;-0.07575;0.029313;91.8;0.0;0.0;5.9;0.0;0.0
2.0;1753877737.604512;15.948216;0.88;-1.68;-0.34;0.995924;-0.079694;0.029497;87.5;0.0;0.0;4.8;0.0;0.0
2.0;1753877737.609117;15.950759;0.9;-1.57;-0.26;0.995205;-0.07523;0.027615;95.8;0.0;0.0;5.6;0.0;0.0
2.0;1753877737.613722;15.950917;0.91;-1.67;-0.36;0.996127;-0.078791;0.028542;96.2;0.0;0.0;4.9;0.0;0.0
2.0;1753877737.618326;15.926359;0.83;-1.7;-0.33;0.995065;-0.077856;0.029546;94.6;0.0;0.0;7.1;0.0;0.0
2.0;1753877737.622931;15.958763;0.87;-1.72;-0.35;0.997036;-0.076936;0.029273;93.0;0.0;0.0;6.8;0.0;0.0
2.0;1753877737.627536;15.927823;0.81;-1.69;-0.31;0.99486;-0.078858;0.029465;89.5;0.0;0.0;5.1;0.0;0.0
2.0;1753877737.632141;15.958775;0.94;-1.61;-0.39;0.996071;-0.078411;0.029135;96.5;0.0;0.0;8.5;0.0;0.0
2.0;1753877737.636746;15.948957;1.0;-1.69;-0.26;0.996016;-0.077269;0.030609;86.1;0.0;0.0;6.2;0.0;0.0
2.0;1753877737.64135;15.946536;0.88;-1.7;-0.3;0.995087;-0.081435;0.029093;96.1;0.0;0.0;5.9;0.0;0.0
2.0;1753877737.645955;15.942486;0.69;-1.75;-0.18;0.996216;-0.081386;0.030381;96.8;0.0;0.0;6.4;0.0;0.0
2.0;1753877737.65056;15.956995;0.91;-1.7;-0.35;0.995423;-0.078254;0.028937;93.3;0.0;0.0;6.9;0.0;0.0
2.0;1753877737.655165;15.963326;0.78;-1.61;-0.3;0.99573;-0.076501;0.028684;96.4;0.0;0.0;6.3;0.0;0.0
2.0;1753877737.65977;15.924342;0.91;-1.72;-0.18;0.996494;-0.078397;0.026899;97.5;0.0;0.0;4.4;0.0;0.0
2.0;1753877737.664374;15.961578;0.83;-1.69;-0.38;0.996295;-0.075748;0.028011;89.7;0.0;0.0;8.5;0.0;0.0
2.0;1753877737.66898;15.942655;0.86;-1.77;-0.35;0.9961;-0.07868;0.027534;97.7;0.0;0.0;5.3;0.0;0.0
2.0;1753877737.673584;15.958992;0.74;-1.66;-0.31;0.996162;-0.07922;0.028891;92.0;0.0;0.0;6.1;0.0;0.0
2.0;1753877737.678189;15.96223;0.96;-1.66;-0.32;0.997033;-0.082112;0.028311;93.1;0.0;0.0;5.0;0.0;0.0
2.0;1753877737.6843;15.953125;0.84;-1.68;-0.28;0.995886;-0.07869;0.029158;95.0;0.0;0.0;6.0;0.0;0.0
2.0;1753877737.688905;15.944455;0.87;-1.79;-0.34;0.996623;-0.077036;0.028669;95.0;0.0;0.0;7.0;0.0;0.0
2.0;1753877737.69351;15.951591;0.71;-1.72;-0.33;0.996575;-0.075997;0.028365;94.4;0.0;0.0;6.5;0.0;0.0
2.0;1753877737.698114;15.946281;0.84;-1.63;-0.27;0.99532;-0.080017;0.029286;101.2;0.0;0.0;8.9;0.0;0.0
2.0;1753877737.702719;15.949808;0.76;-1.78;-0.28;0.99577;-0.075503;0.030836;104.8;0.0;0.0;7.3;0.0;0.0
2.0;1753877737.7069;15.945312;0.84;-1.75;-0.35;0.99552;-0.079178;0.030256;102.0;0.0;0.0;9.0;0.0;0.0
2.0;1753877737.711505;15.942098;0.79;-1.92;-0.32;0.996191;-0.081731;0.031322;98.7;0.0;0.0;9.8;0.0;0.0
2.0;1753877737.71611;15.944944;0.82;-1.6;-0.43;0.996153;-0.075125;0.0304;102.2;0.0;0.0;9.7;0.0;0.0
2.0;1753877737.720714;15.938818;0.89;-1.75;-0.35;0.995123;-0.080082;0.029354;96.9;0.0;0.0;9.3;0.0;0.0
2.0;1753877737.725319;15.95791;0.88;-1.76;-0.34;0.995941;-0.078517;0.028986;102.7;0.0;0.0;11.7;0.0;0.0
2.0;1753877737.729924;15.934711;0.83;-1.68;-0.38;0.995865;-0.077467;0.029154;98.0;0.0;0.0;9.2;0.0;0.0
2.0;1753877737.734529;15.949303;0.79;-1.82;-0.37;0.995944;-0.078712;0.029352;106.5;0.0;0.0;6.5;0.0;0.0
2.0;1753877737.739134;15.958811;0.86;-1.73;-0.42;0.996605;-0.074562;0.030236;103.2;0.0;0.0;9.8;0.0;0.0
2.0;1753877737.743738;15.953414;0.95;-1.83;-0.36;0.99642;-0.074984;0.029927;103.3;0.0;0.0;9.6;0.0;0.0
2.0;1753877737.75245;15.960938;0.84;-1.75;-0.35;0.996252;-0.074542;0.02928;102.0;0.0;0.0;9.0;0.0;0.0
2.0;1753877737.757055;15.954015;0.83;-1.84;-0.33;0.99619;-0.07689;0.030324;100.7;0.0;0.0;7.7;0.0;0.0
2.0;1753877737.76166;15.962604;0.81;-1.76;-0.34;0.996599;-0.071689;0.028789;98.8;0.0;0.0;9.7;0.0;0.0
2.0;1753877737.766264;15.950754;0.82;-1.64;-0.33;0.997648;-0.075967;0.030489;98.5;0.0;0.0;8.1;0.0;0.0
2.0;1753877737.770869;15.968945;0.85;-1.7;-0.33;0.99452;-0.073111;0.031072;101.0;0.0;0.0;8.1;0.0;0.0
2.0;1753877737.775474;15.946246;0.88;-1.73;-0.42;0.995426;-0.07655;0.028896;102.6;0.0;0.0;8.6;0.0;0.0
2.0;1753877737.780079;15.971855;0.77;-1.72;-0.38;0.995546;-0.073079;0.030788;105.3;0.0;0.0;9.7;0.0;0.0
2.0;1753877737.784684;15.980273;0.86;-1.71;-0.33;0.997447;-0.074927;0.031793;101.9;0.0;0.0;9.6;0.0;0.0
2.0;1753877737.789288;15.973214;0.98;-1.66;-0.36;0.996849;-0.077672;0.030561;98.8;0.0;0.0;8.8;0.0;0.0
2.0;1753877737.793893;15.960372;0.91;-1.69;-0.34;0.995451;-0.075773;0.030508;99.9;0.0;0.0;10.5;0.0;0.0
2.0;1753877737.798498;15.962996;0.87;-1.78;-0.34;0.99467;-0.07538;0.031077;101.8;0.0;0.0;9.7;0.0;0.0
2.0;1753877737.80687;15.960938;0.91;-1.68;-0.35;0.99552;-0.074664;0.03111;102.0;0.0;0.0;9.0;0.0;0.0
2.0;1753877737.811475;15.964732;0.83;-1.83;-0.37;0.995073;-0.074579;0.031082;100.4;0.0;0.0;8.0;0.0;0.0
2.0;1753877737.81608;15.971308;0.95;-1.76;-0.42;0.994829;-0.07485;0.029466;105.4;0.0;0.0;9.7;0.0;0.0
2.0;1753877737.820684;15.968071;0.85;-1.67;-0.29;0.997931;-0.073202;0.029057;104.3;0.0;0.0;9.9;0.0;0.0
2.0;1753877737.825289;15.964009;0.96;-1.64;-0.32;0.997294;-0.075797;0.029784;100.2;0.0;0.0;8.2;0.0;0.0
2.0;1753877737.829894;15.939472;0.89;-1.56;-0.33;0.996049;-0.073472;0.03058;99.1;0.0;0.0;9.0;0.0;0.0
2.0;1753877737.834499;15.978521;0.89;-1.67;-0.33;0.997019;-0.075827;0.029943;101.4;0.0;0.0;7.9;0.0;0.0
2.0;1753877737.839104;15.944777;0.93;-1.76;-0.36;0.996735;-0.075635;0.030725;105.8;0.0;0.0;9.2;0.0;0.0
2.0;1753877737.84501;15.960938;0.91;-1.75;-0.35;0.996618;-0.07686;0.02928;102.0;0.0;0.0;9.0;0.0;0.0
2.0;1753877737.849615;15.957309;0.95;-1.69;-0.37;0.996848;-0.075275;0.029754;102.3;0.0;0.0;7.4;0.0;0.0
2.0;1753877737.85422;15.948746;0.85;-1.69;-0.3;0.996419;-0.073742;0.029278;101.3;0.0;0.0;9.9;0.0;0.0
2.0;1753877737.858824;15.964924;0.83;-1.8;-0.34;0.995666;-0.07533;0.030969;102.4;0.0;0.0;9.8;0.0;0.0
2.0;1753877737.863429;15.962355;0.92;-1.64;-0.35;0.995762;-0.075092;0.028786;99.0;0.0;0.0;11.3;0.0;0.0
2.0;1753877737.868034;15.964439;0.81;-1.66;-0.27;0.997128;-0.076224;0.029694;102.2;0.0;0.0;10.9;0.0;0.0
2.0;1753877737.872639;15.952353;0.86;-1.66;-0.32;0.996232;-0.076847;0.029005;106.2;0.0;0.0;9.4;0.0;0.0
2.0;1753877737.877244;15.955082;0.87;-1.64;-0.34;0.995135;-0.075256;0.028781;101.7;0.0;0.0;7.4;0.0;0.0
2.0;1753877737.881848;15.964241;0.81;-1.61;-0.31;0.995001;-0.072879;0.031594;106.4;0.0;0.0;8.4;0.0;0.0
2.0;1753877737.88967;15.960938;0.84;-1.68;-0.28;0.994422;-0.074542;0.02989;102.0;0.0;0.0;9.0;0.0;0.0
2.0;1753877737.894275;15.970696;0.84;-1.57;-0.29;0.995898;-0.075612;0.029348;99.5;0.0;0.0;8.2;0.0;0.0
2.0;1753877737.89888;15.964373;0.86;-1.67;-0.27;0.994626;-0.073677;0.029373;99.4;0.0;0.0;6.6;0.0;0.0
2.0;1753877737.903484;15.975308;0.84;-1.77;-0.26;0.995261;-0.076722;0.029803;102.7;0.0;0.0;7.3;0.0;0.0
2.0;1753877737.908089;15.958841;0.86;-1.7;-0.27;0.993849;-0.07474;0.029841;102.2;0.0;0.0;8.3;0.0;0.0
2.0;1753877737.912694;15.960699;0.91;-1.83;-0.3;0.995345;-0.080252;0.028972;98.3;0.0;0.0;10.6;0.0;0.0
2.0;1753877737.917299;15.98711;1.02;-1.7;-0.27;0.994373;-0.079529;0.029235;104.2;0.0;0.0;9.9;0.0;0.0
2.0;1753877737.921904;15.984261;0.96;-1.77;-0.29;0.995472;-0.072481;0.030749;101.4;0.0;0.0;9.7;0.0;0.0
2.0;1753877737.926508;15.991001;1.03;-1.73;-0.26;0.995362;-0.07869;0.03005;98.1;0.0;0.0;7.7;0.0;0.0
2.0;1753877737.931113;15.974159;0.94;-1.8;-0.27;0.995312;-0.075864;0.029298;100.9;0.0;0.0;9.5;0.0;0.0
2.0;1753877737.93528;15.976562;0.98;-1.75;-0.28;0.996008;-0.077592;0.029646;102.0;0.0;0.0;9.0;0.0;0.0
2.0;1753877737.938542;15.976562;0.14;-1.61;12.53;0.984784;-0.101748;0.046848;107.0;0.0;0.0;8.0;0.0;0.0
2.0;1753877737.939656;15.976562;-0.21;-1.47;12.32;1.006012;-0.098332;0.034648;107.0;0.0;0.0;8.0;0.0;0.0
2.0;1753877737.948251;15.976562;-0.14;-1.82;14.21;0.993812;-0.047946;0.031476;96.0;0.0;0.0;6.0;0.0;0.0
2.0;1753877737.948786;15.976562;0.35;-1.68;14.49;0.991616;-0.104676;0.041114;96.0;0.0;0.0;6.0;0.0;0.0
2.0;1753877737.955074;15.96875;-0.07;-1.68;14.28;0.992104;-0.091012;0.035624;96.0;0.0;0.0;6.0;0.0;0.0
2.0;1753877737.959163;15.96875;0.0;-1.82;15.05;1.0004;-0.072834;0.031476;96.0;0.0;0.0;6.0;0.0;0.0
2.0;1753877737.963364;15.96875;0.14;-2.03;16.24;0.993202;-0.08479;0.030378;96.0;0.0;0.0;6.0;0.0;0.0
2.0;1753877737.967213;15.96875;0.0;-1.96;16.94;0.99369;-0.07259;0.027694;96.0;0.0;0.0;6.0;0.0;0.0
2.0;1753877737.971672;15.984375;-0.7;-1.68;18.2;0.992104;-0.074542;-0.027084;96.0;0.0;0.0;6.0;0.0;0.0
2.0;1753877737.976285;15.984375;-2.38;-1.75;24.5;1.049322;0.083692;-0.00732;96.0;0.0;0.0;6.0;0.0;0.0
2.0;1753877737.980864;15.984375;2.38;-2.94;31.99;0.965996;0.191296;0.094428;96.0;0.0;0.0;6.0;0.0;0.0
2.0;1753877737.987484;15.984375;2.66;-2.66;29.26;0.975268;-0.39833;0.033672;96.0;0.0;0.0;6.0;0.0;0.0
2.0;1753877737.990124;15.96875;-2.38;-2.73;29.61;1.040538;0.18178;0.08845;96.0;0.0;0.0;6.0;0.0;0.0
2.0;1753877737.994712;15.96875;2.94;-2.66;40.11;1.034194;0.177388;0.022814;102.0;0.0;0.0;7.0;0.0;0.0
2.0;1753877737.999317;15.961881;4.02;-2.65;35.32;1.03783;0.113927;0.012144;106.0;0.0;0.0;6.9;0.0;0.0
2.0;1753877738.003922;15.966179;1.54;-2.41;50.58;1.006693;0.250762;0.020327;92.6;0.0;0.0;7.5;0.0;0.0
2.0;1753877738.008526;15.952671;5.41;-2.17;40.52;0.992981;0.004658;-0.003545;90.7;0.0;0.0;6.8;0.0;0.0
2.0;1753877738.013132;15.976818;3.89;-3.15;31.6;1.052283;0.31531;-0.019384;108.2;0.0;0.0;6.3;0.0;0.0
2.0;1753877738.017736;15.946959;3.36;-2.25;38.07;1.052401;0.272696;0.022884;99.4;0.0;0.0;7.9;0.0;0.0
2.0;1753877738.022341;15.976279;1.41;-2.84;46.02;1.05832;0.162491;0.018828;110.6;0.0;0.0;6.2;0.0;0.0
2.0;1753877738.026946;15.963539;0.86;-1.43;34.64;1.053063;0.152138;0.054629;102.9;0.0;0.0;6.1;0.0;0.0
2.0;1753877738.031551;15.978357;2.76;-2.81;29.98;1.034981;0.256317;0.026228;102.3;0.0;0.0;7.3;0.0;0.0
2.0;1753877738.036156;15.96846;3.05;-2.32;55.24;1.041321;0.219129;-0.037422;100.9;0.0;0.0;6.6;0.0;0.0
2.0;1753877738.04076;15.955967;4.09;-2.42;38.48;1.06244;0.085265;0.037768;95.6;0.0;0.0;6.6;0.0;0.0
2.0;1753877738.045365;15.962921;2.26;-2.25;59.02;1.037889;0.213053;0.013818;96.2;0.0;0.0;8.9;0.0;0.0
2.0;1753877738.04997;15.972861;3.48;-2.81;56.54;1.016968;0.146186;0.001735;106.5;0.0;0.0;6.8;0.0;0.0
2.0;1753877738.054575;15.977182;3.78;-2.4;42.63;1.019815;0.216803;0.027152;94.6;0.0;0.0;5.2;0.0;0.0
2.0;1753877738.05918;15.96541;1.95;-2.69;51.26;1.03658;0.248465;0.03735;112.5;0.0;0.0;7.7;0.0;0.0
2.0;1753877738.063784;15.953521;2.25;-2.79;49.72;1.033242;-0.04788;0.045265;104.9;0.0;0.0;7.4;0.0;0.0
2.0;1753877738.068389;15.965053;1.05;-2.8;69.54;0.987925;0.204126;0.007663;108.9;0.0;0.0;7.7;0.0;0.0
2.0;1753877738.072994;15.969468;2.6;-2.88;35.3;1.007123;0.08834;0.035817;101.6;0.0;0.0;6.3;0.0;0.0
2.0;1753877738.077599;15.956193;5.5;-2.3;21.07;1.00495;0.044294;-0.026105;102.6;0.0;0.0;6.8;0.0;0.0
2.0;1753877738.082204;15.985674;4.44;-2.58;41.03;1.009814;0.439928;0.038044;96.6;0.0;0.0;6.6;0.0;0.0
2.0;1753877738.086808;15.960376;2.42;-3.18;59.94;1.026939;-0.11498;0.001779;105.5;0.0;0.0;7.5;0.0;0.0
2.0;1753877738.091413;15.983394;-0.13;-2.51;46.56;1.040772;-0.100106;0.039267;101.0;0.0;0.0;8.7;0.0;0.0
2.0;1753877738.096018;15.948733;3.91;-2.37;35.0;0.983236;0.313469;0.054202;94.9;0.0;0.0;7.4;0.0;0.0
2.0;1753877738.100623;15.954933;2.64;-2.42;41.21;1.004868;-0.161316;0.057114;98.3;0.0;0.0;7.1;0.0;0.0
2.0;1753877738.105228;15.945148;4.1;-3.2;43.28;1.01696;0.380378;0.053926;98.2;0.0;0.0;7.9;0.0;0.0
2.0;1753877738.109832;15.962091;4.56;-2.34;30.07;1.000586;-0.080987;-0.015715;101.1;0.0;0.0;5.4;0.0;0.0
2.0;1753877738.114437;15.960113;3.16;-2.85;43.53;1.047265;0.201679;0.042264;107.1;0.0;0.0;6.5;0.0;0.0
2.0;1753877738.119042;15.966723;3.64;-2.78;66.65;1.06262;0.193743;0.016128;111.3;0.0;0.0;7.7;0.0;0.0
2.0;1753877738.123647;15.96671;1.53;-3.4;40.13;1.010125;0.116073;0.0514;99.4;0.0;0.0;6.2;0.0;0.0
2.0;1753877738.128252;15.967413;2.26;-2.52;40.56;1.044891;0.200757;0.009652;100.4;0.0;0.0;6.8;0.0;0.0
2.0;1753877738.132856;15.967851;2.5;-3.14;20.32;0.969058;0.068286;0.029815;91.9;0.0;0.0;7.3;0.0;0.0
2.0;1753877738.137462;15.972383;0.07;-2.9;40.99;1.030863;0.146917;0.00774;91.0;0.0;0.0;6.6;0.0;0.0
2.0;1753877738.142066;15.97814;3.36;-2.5;28.89;1.041706;-0.001221;0.016696;94.7;0.0;0.0;6.7;0.0;0.0
2.0;1753877738.146671;15.979347;0.57;-2.57;29.1;1.007461;-0.011423;0.056732;102.6;0.0;0.0;7.1;0.0;0.0
2.0;1753877738.151276;15.970561;4.08;-1.95;38.46;0.996836;-0.036504;0.03107;94.8;0.0;0.0;7.1;0.0;0.0
2.0;1753877738.155881;15.9673;2.46;-3.28;27.59;0.999564;0.313375;-0.012937;111.8;0.0;0.0;6.2;0.0;0.0
2.0;1753877738.160486;15.990997;2.4;-1.83;27.16;1.027266;0.036574;0.054361;100.0;0.0;0.0;7.5;0.0;0.0
2.0;1753877738.16509;15.975796;2.7;-1.87;51.72;1.019637;-0.069755;0.002534;102.2;0.0;0.0;5.6;0.0;0.0
2.0;1753877738.169695;15.961051;4.64;-2.59;32.15;1.012691;-0.048579;-0.030164;105.4;0.0;0.0;5.1;0.0;0.0
2.0;1753877738.1743;15.959156;2.09;-2.87;50.64;1.010286;0.058822;0.036474;102.3;0.0;0.0;7.6;0.0;0.0
2.0;1753877738.178905;15.95298;4.38;-2.75;34.52;1.010181;0.148734;-0.011183;102.5;0.0;0.0;7.5;0.0;0.0
2.0;1753877738.18351;15.978285;0.91;-2.53;38.89;1.053791;-0.07225;0.022;101.3;0.0;0.0;5.7;0.0;0.0
2.0;1753877738.188114;15.975696;2.54;-2.6;40.7;0.96109;0.15407;0.001543;109.7;0.0;0.0;6.0;0.0;0.0
2.0;1753877738.192719;15.944118;2.07;-2.84;27.05;0.997363;0.245898;0.035776;112.3;0.0;0.0;5.8;0.0;0.0
2.0;1753877738.197324;15.967243;3.05;-2.63;44.58;1.009426;-0.036639;0.0174;105.1;0.0;0.0;7.2;0.0;0.0
2.0;1753877738.201929;15.98149;5.35;-2.5;35.04;1.005786;0.145082;0.058995;97.3;0.0;0.0;7.9;0.0;0.0
2.0;1753877738.206534;15.975041;1.89;-2.95;42.18;1.017667;-0.133339;0.069622;98.1;0.0;0.0;6.4;0.0;0.0
2.0;1753877738.211138;15.986115;3.16;-2.05;54.43;0.981781;-0.055874;0.047737;103.3;0.0;0.0;6.3;0.0;0.0
2.0;1753877738.215743;15.994694;3.17;-2.33;30.6;1.029852;-0.007614;0.071155;108.4;0.0;0.0;7.4;0.0;0.0
2.0;1753877738.220348;15.955777;2.17;-3.03;42.85;0.989573;0.145196;0.067437;103.5;0.0;0.0;6.9;0.0;0.0
2.0;1753877738.224953;15.971647;3.63;-2.38;41.2;0.983944;0.122125;0.054571;97.3;0.0;0.0;7.7;0.0;0.0
2.0;1753877738.229558;15.971376;0.41;-2.53;36.1;0.993983;0.236452;0.014486;101.9;0.0;0.0;7.5;0.0;0.0
2.0;1753877738.234162;15.970432;2.53;-3.19;49.47;1.028611;-0.050692;0.03087;115.5;0.0;0.0;8.5;0.0;0.0
2.0;1753877738.238768;15.98283;0.64;-2.01;56.33;1.003888;0.006234;0.022121;99.8;0.0;0.0;7.3;0.0;0.0
2.0;1753877738.243372;15.955209;3.18;-2.73;25.21;1.008016;0.07873;0.040276;100.5;0.0;0.0;6.8;0.0;0.0
2.0;1753877738.247977;15.964607;3.36;-3.4;37.73;1.010488;-0.12377;0.019372;103.7;0.0;0.0;7.4;0.0;0.0
2.0;1753877738.252582;15.964763;4.01;-2.6;27.35;0.989398;-0.038602;0.02724;99.3;0.0;0.0;6.4;0.0;0.0
2.0;1753877738.257187;15.950091;5.17;-2.91;35.7;0.993684;0.017706;0.055099;106.7;0.0;0.0;8.3;0.0;0.0
2.0;1753877738.261792;15.98141;0.52;-2.34;28.15;1.024293;-0.086038;-0.010274;107.3;0.0;0.0;5.8;0.0;0.0
2.0;1753877738.266396;15.954895;2.97;-2.52;42.69;1.021594;-0.107253;0.024707;102.2;0.0;0.0;5.3;0.0;0.0
2.0;1753877738.271001;15.99975;3.63;-2.17;35.28;0.978883;-0.160125;0.04621;103.4;0.0;0.0;5.8;0.0;0.0
2.0;1753877738.275606;15.96272;3.36;-2.65;34.12;0.988258;-0.063784;0.051093;115.6;0.0;0.0;7.9;0.0;0.0
2.0;1753877738.280211;15.978069;2.5;-2.4;33.35;0.908716;-0.000181;0.070621;105.4;0.0;0.0;7.9;0.0;0.0
2.0;1753877738.284816;15.954839;1.4;-2.9;31.1;0.981472;-0.048028;-0.001289;99.1;0.0;0.0;7.6;0.0;0.0
2.0;1753877738.28942;15.953942;1.81;-2.16;34.93;0.997632;-0.277649;0.062484;104.3;0.0;0.0;7.9;0.0;0.0
2.0;1753877738.294025;15.952171;4.33;-3.74;45.72;0.949898;0.367165;0.0503;97.2;0.0;0.0;6.5;0.0;0.0
2.0;1753877738.29863;15.954447;4.8;-2.92;40.08;0.960547;0.052736;-0.017264;97.5;0.0;0.0;4.6;0.0;0.0
2.0;1753877738.303235;15.968634;5.71;-2.77;49.43;0.965746;0.15273;0.056319;94.7;0.0;0.0;5.2;0.0;0.0
2.0;1753877738.30784;15.961215;4.54;-2.73;47.86;1.02799;-0.084509;0.032436;100.2;0.0;0.0;5.5;0.0;0.0
2.0;1753877738.312444;15.95525;2.4;-1.89;25.72;0.996445;-0.06512;0.034029;99.7;0.0;0.0;6.7;0.0;0.0
2.0;1753877738.317049;15.957153;3.59;-2.47;43.62;0.973593;0.101775;0.050808;96.9;0.0;0.0;6.6;0.0;0.0
2.0;1753877738.321654;15.955819;-1.83;-2.07;51.6;0.986486;0.010577;0.007345;105.6;0.0;0.0;8.4;0.0;0.0
2.0;1753877738.326259;15.987947;3.16;-2.12;57.09;0.927489;-0.053214;0.026157;106.5;0.0;0.0;6.9;0.0;0.0
2.0;1753877738.330864;15.961533;4.41;-2.03;51.48;0.973882;0.123171;0.013818;105.0;0.0;0.0;5.7;0.0;0.0
2.0;1753877738.335468;15.971685;2.71;-3.28;45.66;0.979344;0.068471;0.007819;101.5;0.0;0.0;7.1;0.0;0.0
2.0;1753877738.340073;15.971289;4.6;-2.45;19.91;1.000041;-0.155336;-0.014054;95.6;0.0;0.0;7.6;0.0;0.0
2.0;1753877738.344678;15.958691;1.75;-1.87;50.85;0.976386;-0.192854;0.053452;97.5;0.0;0.0;6.4;0.0;0.0
2.0;1753877738.349283;15.977626;5.28;-1.82;44.97;0.976868;-0.010415;0.073676;102.0;0.0;0.0;5.1;0.0;0.0
2.0;1753877738.353888;15.989989;3.59;-2.92;37.2;0.978453;-0.136997;0.033757;106.0;0.0;0.0;7.5;0.0;0.0
2.0;1753877738.358492;15.969172;4.45;-2.2;61.43;0.948496;-0.084927;0.008763;92.9;0.0;0.0;7.5;0.0;0.0
2.0;1753877738.363098;15.959767;2.96;-1.7;29.1;0.969356;0.086709;0.025177;103.6;0.0;0.0;5.8;0.0;0.0
2.0;1753877738.367702;15.961604;1.89;-1.9;39.73;0.986881;-0.112811;0.072365;91.1;0.0;0.0;6.4;0.0;0.0
2.0;1753877738.372307;15.969306;3.04;-2.84;53.44;0.915365;-0.15249;0.007644;98.5;0.0;0.0;7.8;0.0;0.0
2.0;1753877738.376912;15.987678;3.07;-1.93;36.84;0.992186;-0.205392;0.054121;99.1;0.0;0.0;7.7;0.0;0.0
2.0;1753877738.381517;16.000384;5.31;-1.92;29.79;0.979429;0.021904;0.013452;110.3;0.0;0.0;8.3;0.0;0.0
2.0;1753877738.386122;15.955545;2.09;-2.55;34.66;0.992182;0.091631;0.02336;99.8;0.0;0.0;5.9;0.0;0.0
2.0;1753877738.390726;16.00338;3.87;-2.37;41.34;0.964641;-0.032451;0.037661;105.0;0.0;0.0;6.4;0.0;0.0
2.0;1753877738.395331;15.974273;2.76;-2.34;31.16;0.951624;0.070568;0.045008;104.2;0.0;0.0;7.1;0.0;0.0
2.0;1753877738.399936;15.989474;1.17;-2.26;42.03;0.975484;-0.026364;0.045741;98.2;0.0;0.0;8.1;0.0;0.0
2.0;1753877738.404541;15.966813;2.22;-2.92;35.57;0.957053;0.057231;0.043499;103.5;0.0;0.0;6.4;0.0;0.0
2.0;1753877738.409146;15.970378;7.74;-2.49;40.7;0.931933;-0.109263;0.029973;97.1;0.0;0.0;6.2;0.0;0.0
2.0;1753877738.41375;15.953111;2.12;-3.04;22.72;0.977279;-0.016042;0.017824;96.4;0.0;0.0;6.6;0.0;0.0
2.0;1753877738.418355;15.969815;2.61;-1.84;43.24;0.950537;-0.097836;0.047082;99.4;0.0;0.0;6.3;0.0;0.0
2.0;1753877738.42296;15.963085;4.27;-1.94;49.22;0.938277;-0.021995;0.039643;100.0;0.0;0.0;6.5;0.0;0.0
2.0;1753877738.427565;15.964036;4.64;-1.86;46.63;1.027081;-0.124902;0.007433;104.8;0.0;0.0;6.0;0.0;0.0
2.0;1753877738.43217;15.983506;2.89;-3.34;32.52;0.976692;-0.153503;0.05493;100.3;0.0;0.0;7.4;0.0;0.0
2.0;1753877738.436774;15.977419;4.86;-2.02;63.56;0.950279;-0.06264;-0.007547;107.1;0.0;0.0;7.9;0.0;0.0
