DeviceID;Timestamp;Temperature;GyroX;GyroY;GyroZ;AccelX;AccelY;AccelZ;Dist1;Dist2;Dist3;Err1;Err2;Err3
3.0;1753877732.952021;14.203125;0.77;-1.26;-0.21;0.317078;0.932202;0.006222;0.0;0.0;0.0;0.0;0.0;0.0
3.0;1753877732.957452;14.246094;0.7;-1.33;-0.14;0.318298;0.93269;0.00732;0.0;0.0;0.0;0.0;0.0;0.0
3.0;1753877732.960214;14.246094;0.84;-1.33;-0.28;0.317688;0.933056;0.007808;0.0;0.0;0.0;0.0;0.0;0.0
3.0;1753877732.966844;14.246094;0.77;-1.33;-0.21;0.317932;0.932446;0.00549;0.0;0.0;0.0;0.0;0.0;0.0
3.0;1753877732.969621;14.246094;0.77;-1.33;-0.21;0.317078;0.933178;0.006588;0.0;0.0;0.0;0.0;0.0;0.0
3.0;1753877732.974352;14.21678;0.74;-1.35;-0.43;0.313098;0.936231;0.009406;-0.4;-0.1;0.0;-0.1;0.0;-0.0
3.0;1753877732.978659;14.1875;0.7;-1.19;-0.28;0.31781;0.93269;0.007198;0.0;0.0;0.0;0.0;0.0;0.0
3.0;1753877732.978922;14.1875;0.7;-1.33;-0.28;0.317078;0.93208;0.007198;0.0;0.0;0.0;0.0;0.0;0.0
3.0;1753877732.983761;14.1875;0.7;-1.4;-0.14;0.31842;0.93147;0.006954;0.0;0.0;0.0;0.0;0.0;0.0
3.0;1753877732.988492;14.186629;0.71;-1.43;0.39;0.318724;0.942532;0.007342;0.4;0.1;0.1;-0.0;0.0;-0.0
3.0;1753877732.995082;14.1875;0.7;-1.33;-0.21;0.31842;0.93086;0.00732;0.0;0.0;0.0;0.0;0.0;0.0
3.0;1753877732.997592;14.1875;0.7;-1.4;-0.21;0.31842;0.93086;0.00732;0.0;0.0;0.0;0.0;0.0;0.0
3.0;1753877733.002323;14.18749;0.53;-1.55;-1.63;0.312495;0.943236;0.006487;-0.1;-0.0;-0.1;0.1;0.0;0.0
3.0;1753877733.007054;14.190132;0.7;-1.44;-0.76;0.322551;0.927205;0.004594;-1.2;0.0;0.2;-0.1;-0.0;0.0
3.0;1753877733.011785;14.185173;0.75;-1.31;-0.5;0.324652;0.94198;0.00929;-0.2;-0.1;0.1;-0.1;0.0;-0.0
3.0;1753877733.016516;14.188321;0.61;-1.44;-0.18;0.312324;0.930328;0.008645;-0.8;-0.0;-0.0;0.1;-0.0;0.0
3.0;1753877733.021247;14.192048;0.36;-1.37;0.58;0.317125;0.925092;0.0078;0.0;0.1;0.0;-0.1;-0.0;-0.0
3.0;1753877733.025978;14.185612;0.71;-1.2;-0.63;0.320449;0.941343;0.010051;0.5;0.0;-0.0;0.0;0.0;-0.0
3.0;1753877733.030708;14.186366;0.79;-1.31;-0.33;0.304937;0.932957;0.003925;-0.5;-0.0;0.0;0.0;0.0;0.0
3.0;1753877733.03544;14.188074;0.72;-1.48;-0.8;0.323745;0.933185;0.00839;-0.2;0.0;0.1;0.2;0.0;0.0
3.0;1753877733.04017;14.189754;0.72;-1.43;1.19;0.309535;0.937034;0.004933;0.0;0.0;-0.0;0.2;-0.0;-0.0
3.0;1753877733.044901;14.186735;0.87;-1.49;-0.19;0.307469;0.929788;0.007961;-0.0;-0.1;-0.1;0.0;0.0;-0.0
3.0;1753877733.049632;14.188517;0.77;-1.38;0.05;0.316067;0.93352;0.004778;0.8;-0.0;-0.0;-0.1;-0.0;0.0
3.0;1753877733.054363;14.184701;0.78;-1.47;0.86;0.321716;0.929947;0.003978;-0.9;0.1;-0.2;-0.0;0.0;-0.0
3.0;1753877733.059094;14.186502;0.81;-1.37;0.44;0.320534;0.941497;0.004968;-0.6;-0.0;-0.0;-0.2;0.0;0.0
3.0;1753877733.063825;14.185385;0.85;-1.57;0.2;0.324479;0.930654;0.004351;0.0;-0.1;0.0;-0.2;-0.0;-0.0
3.0;1753877733.068556;14.186862;0.73;-1.35;-0.54;0.326184;0.93863;0.006685;0.9;0.1;0.2;0.0;0.0;-0.0
3.0;1753877733.073287;14.186659;0.64;-1.58;0.22;0.319484;0.934221;0.00901;-0.4;-0.0;-0.1;0.2;-0.0;0.0
3.0;1753877733.078018;14.184738;0.71;-1.57;-1.6;0.319219;0.927061;0.014455;0.6;-0.1;0.1;-0.1;-0.0;-0.0
3.0;1753877733.082749;14.185477;0.66;-1.52;-0.21;0.318631;0.947169;0.007771;-0.7;0.0;0.0;-0.1;-0.0;-0.0
3.0;1753877733.08748;14.186699;0.71;-1.3;-0.34;0.326707;0.929609;0.004405;-0.2;0.0;0.0;-0.2;-0.0;0.0
3.0;1753877733.092211;14.185114;0.64;-1.55;-0.24;0.317028;0.923812;0.011169;0.6;-0.0;0.1;-0.2;-0.0;0.0
3.0;1753877733.096942;14.187171;0.87;-1.2;-1.47;0.313818;0.936612;0.013764;-1.5;-0.0;0.1;-0.2;-0.0;-0.0
3.0;1753877733.101673;14.187359;0.79;-1.24;-0.53;0.328383;0.922681;0.006683;0.3;-0.0;0.0;-0.2;-0.0;0.0
3.0;1753877733.106404;14.187517;0.76;-1.43;-0.22;0.321913;0.924532;0.002703;-0.4;0.1;0.2;-0.3;-0.0;0.0
3.0;1753877733.111134;14.19;0.7;-1.36;0.59;0.320538;0.929869;0.006919;0.3;0.0;0.0;0.2;0.0;-0.0
3.0;1753877733.115866;14.186791;0.86;-1.14;0.3;0.323761;0.935937;0.006711;0.9;-0.1;-0.2;-0.1;0.0;-0.0
3.0;1753877733.120596;14.189838;0.87;-1.42;0.71;0.33008;0.938352;0.010747;0.4;-0.1;0.1;0.1;-0.0;-0.0
3.0;1753877733.125327;14.189872;0.84;-1.42;0.45;0.317866;0.93259;0.004996;-0.4;-0.1;-0.2;-0.3;-0.0;-0.0
3.0;1753877733.130058;14.187109;0.67;-1.28;0.22;0.320236;0.935665;0.004333;-0.6;0.0;-0.1;0.2;-0.0;0.0
3.0;1753877733.134789;14.188131;0.87;-1.37;-0.38;0.31679;0.925005;0.007144;1.0;-0.1;-0.0;0.1;0.0;-0.0
3.0;1753877733.13952;14.189002;0.71;-1.32;-0.55;0.317191;0.935913;0.009628;0.3;-0.0;0.0;0.1;0.0;-0.0
3.0;1753877733.144251;14.189665;0.74;-1.23;1.01;0.322486;0.921714;0.002343;0.3;0.0;-0.1;-0.1;-0.0;0.0
3.0;1753877733.148982;14.191495;0.75;-1.19;-0.07;0.317361;0.929177;0.00901;-0.4;0.1;0.1;-0.1;0.0;-0.0
3.0;1753877733.153713;14.18854;0.77;-1.29;0.64;0.313495;0.925811;0.003326;-0.3;0.0;0.1;-0.2;0.0;0.0
3.0;1753877733.158444;14.184674;0.87;-1.39;0.22;0.320585;0.930237;0.010446;-0.2;0.0;-0.1;-0.0;-0.0;0.0
3.0;1753877733.163175;14.184764;0.74;-1.31;-0.4;0.324917;0.925737;0.007978;0.4;-0.0;-0.0;-0.2;-0.0;-0.0
3.0;1753877733.167906;14.188369;0.55;-1.35;-0.47;0.315142;0.929282;0.005593;0.6;0.0;-0.0;0.0;-0.0;0.0
3.0;1753877733.172637;14.186759;0.72;-1.47;0.08;0.325702;0.931531;0.011037;0.4;-0.1;0.1;-0.1;0.0;-0.0
3.0;1753877733.177368;14.186436;0.68;-1.31;-0.32;0.312471;0.93545;0.000656;-0.4;-0.1;0.2;-0.2;0.0;-0.0
3.0;1753877733.182099;14.188974;0.69;-1.39;-0.26;0.329698;0.936059;0.007715;0.1;0.0;0.1;-0.1;-0.0;0.0
3.0;1753877733.18683;14.1876;0.84;-1.18;1.21;0.315318;0.916328;0.008973;0.6;0.0;-0.2;0.0;-0.0;0.0
3.0;1753877733.19156;14.186098;0.54;-1.3;-1.47;0.318819;0.932601;0.004233;0.5;0.1;0.1;0.2;-0.0;0.0
3.0;1753877733.196292;14.184211;0.7;-1.48;0.1;0.317521;0.925306;0.011025;0.1;-0.0;-0.0;0.0;-0.0;-0.0
3.0;1753877733.201022;14.189101;0.8;-1.39;-0.66;0.315443;0.937877;0.010203;-0.6;-0.0;-0.0;0.3;0.0;-0.0
3.0;1753877733.205753;14.188643;0.88;-1.12;-0.22;0.315147;0.919393;0.007501;1.4;0.1;-0.1;-0.0;-0.0;-0.0
3.0;1753877733.210484;14.189053;0.68;-1.53;-0.17;0.333487;0.919955;0.008913;1.5;0.0;-0.1;0.2;-0.0;0.0
3.0;1753877733.215215;14.185816;0.74;-1.29;-1.54;0.328533;0.925846;0.004812;0.1;0.1;0.2;-0.1;0.0;-0.0
3.0;1753877733.219946;14.185634;0.75;-1.32;-1.34;0.320368;0.919397;0.011896;-0.1;0.0;0.1;-0.1;0.0;0.0
3.0;1753877733.224677;14.190218;0.87;-1.29;-0.13;0.331742;0.921715;0.008789;-1.0;0.0;0.1;-0.0;0.0;-0.0
3.0;1753877733.229408;14.189283;0.79;-1.27;-0.63;0.320073;0.938835;0.010481;0.6;-0.0;-0.1;0.0;0.0;0.0
3.0;1753877733.2345;14.1875;0.77;-1.33;-0.21;0.320738;0.93086;0.007076;0.0;0.0;0.0;0.0;0.0;0.0
3.0;1753877733.239231;14.184604;0.84;-1.35;-0.28;0.324862;0.93155;0.006461;1.0;-0.0;0.1;0.0;0.0;0.0
3.0;1753877733.243962;14.186037;0.69;-1.46;-0.18;0.32042;0.943347;0.005211;1.5;-0.1;0.1;0.2;-0.0;-0.0
3.0;1753877733.248693;14.186741;0.84;-1.54;-1.08;0.329571;0.935288;0.01218;0.2;-0.0;0.2;0.1;-0.0;-0.0
3.0;1753877733.253424;14.18479;0.92;-1.37;0.84;0.320198;0.945536;0.002729;0.6;-0.1;-0.0;-0.1;-0.0;-0.0
3.0;1753877733.258155;14.185617;0.64;-1.38;0.25;0.325929;0.928187;0.005678;0.6;-0.1;0.1;0.0;-0.0;-0.0
3.0;1753877733.262886;14.185686;0.75;-1.19;-0.95;0.319849;0.933765;0.01424;0.2;-0.1;0.1;-0.2;-0.0;0.0
3.0;1753877733.267616;14.183177;0.8;-1.42;0.94;0.317315;0.937376;0.008319;-0.9;0.0;0.2;-0.0;0.0;-0.0
3.0;1753877733.272348;14.189228;0.68;-1.16;0.2;0.323641;0.931624;0.00747;-0.4;-0.0;-0.0;-0.2;-0.0;0.0
3.0;1753877733.277078;14.186518;0.56;-1.19;0.04;0.320485;0.933658;0.010179;0.5;-0.1;-0.0;0.2;-0.0;0.0
3.0;1753877733.281809;14.186428;0.71;-1.25;-0.7;0.33615;0.93335;0.004423;0.1;-0.1;-0.1;0.1;0.0;0.0
3.0;1753877733.28654;14.186107;0.73;-1.33;-1.82;0.324541;0.924605;0.007317;0.4;-0.1;0.0;0.1;-0.0;0.0
3.0;1753877733.291271;14.186756;0.64;-1.44;0.71;0.319558;0.925082;0.011175;0.5;-0.1;0.1;-0.1;0.0;0.0
3.0;1753877733.296002;14.190679;0.89;-1.58;1.1;0.330098;0.937725;0.004875;-0.7;-0.0;0.0;-0.3;-0.0;0.0
3.0;1753877733.300733;14.189312;0.85;-1.36;-1.01;0.322098;0.923602;0.004619;0.5;0.0;-0.1;0.1;-0.0;0.0
3.0;1753877733.305464;14.186889;0.82;-1.33;0.39;0.314727;0.927944;0.010163;0.9;0.1;0.0;0.1;0.0;-0.0
3.0;1753877733.310195;14.188615;0.86;-1.39;-0.06;0.320455;0.92283;0.005213;-1.4;-0.0;0.1;0.1;0.0;0.0
3.0;1753877733.314926;14.187436;0.73;-1.33;-0.38;0.315748;0.922536;0.005005;0.2;0.1;0.1;0.1;0.0;0.0
3.0;1753877733.319657;14.187089;0.89;-1.23;-0.73;0.31466;0.92666;0.00498;-0.1;-0.1;-0.0;-0.1;-0.0;0.0
3.0;1753877733.324388;14.188064;0.84;-1.36;0.94;0.321082;0.926549;0.005649;-0.8;-0.1;0.1;-0.0;-0.0;0.0
3.0;1753877733.329119;14.185787;0.68;-1.25;-0.73;0.329034;0.927349;0.003371;0.0;-0.1;0.0;-0.0;0.0;0.0
3.0;1753877733.33385;14.186293;0.78;-1.24;-0.38;0.320331;0.930722;0.007614;-0.2;0.0;-0.1;-0.1;-0.0;-0.0
3.0;1753877733.33858;14.18597;0.83;-1.39;0.02;0.323872;0.935692;0.008686;-0.0;0.0;0.0;0.1;0.0;-0.0
3.0;1753877733.343312;14.185973;0.76;-1.4;0.03;0.321631;0.939482;0.003288;-1.0;0.1;0.2;-0.3;0.0;-0.0
3.0;1753877733.348042;14.189864;0.69;-1.49;0.38;0.31805;0.928219;0.011043;-0.2;0.0;-0.2;0.2;0.0;-0.0
3.0;1753877733.352774;14.188351;0.71;-1.36;0.28;0.320897;0.930012;0.004292;0.8;0.1;0.1;-0.1;-0.0;0.0
3.0;1753877733.357504;14.187135;0.83;-1.56;-0.21;0.321147;0.923958;0.007081;-0.8;-0.1;-0.1;0.0;-0.0;-0.0
3.0;1753877733.362235;14.184961;0.75;-1.59;-0.28;0.31395;0.930154;0.002239;-1.1;-0.1;0.1;0.1;0.0;0.0
3.0;1753877733.366966;14.188483;0.78;-1.54;-0.03;0.313709;0.929887;0.006528;-1.1;-0.1;-0.0;-0.0;0.0;0.0
3.0;1753877733.371697;14.190499;0.73;-1.28;0.14;0.32779;0.931014;0.005669;0.3;-0.0;-0.0;0.0;0.0;0.0
3.0;1753877733.376428;14.18871;0.61;-1.29;0.49;0.312319;0.928927;0.008493;0.7;0.0;-0.0;-0.2;0.0;-0.0
3.0;1753877733.381159;14.189762;0.46;-1.33;0.67;0.319615;0.927973;0.008498;-0.9;0.0;0.0;0.3;0.0;-0.0
3.0;1753877733.38589;14.187834;0.61;-1.33;-0.51;0.315569;0.932985;0.00968;0.6;0.0;-0.2;0.0;-0.0;-0.0
3.0;1753877733.390621;14.18705;0.92;-1.22;0.06;0.313828;0.938655;0.003898;-0.3;0.1;0.0;0.1;0.0;-0.0
3.0;1753877733.395352;14.185854;0.79;-1.41;0.01;0.324287;0.943539;0.009556;-0.4;-0.0;-0.0;0.0;-0.0;-0.0
3.0;1753877733.400083;14.19199;0.71;-1.37;-0.4;0.312161;0.936651;0.00793;-0.4;0.0;0.1;0.2;-0.0;0.0
3.0;1753877733.404814;14.18705;0.79;-1.44;1.22;0.3206;0.934963;0.005906;-0.6;-0.0;0.1;0.0;-0.0;0.0
3.0;1753877733.409545;14.187773;0.81;-1.46;-0.58;0.315129;0.921523;0.008116;0.4;0.1;-0.0;0.1;-0.0;0.0
3.0;1753877733.414276;14.188427;0.81;-1.45;-0.39;0.315501;0.93358;0.006558;-0.2;-0.0;-0.1;-0.2;-0.0;-0.0
3.0;1753877733.419006;14.189053;0.76;-1.44;-0.39;0.321598;0.934978;0.002222;-0.4;0.0;-0.1;-0.2;-0.0;-0.0
3.0;1753877733.423738;14.187284;0.82;-1.23;-0.71;0.319508;0.934788;0.010111;0.9;0.0;-0.2;-0.1;-0.0;-0.0
3.0;1753877733.428468;14.186577;0.72;-1.39;-0.11;0.304385;0.924274;0.00507;-0.5;0.0;-0.0;0.2;0.0;0.0
3.0;1753877733.4332;14.189425;0.74;-1.25;-0.42;0.322206;0.936105;0.007621;0.3;0.0;-0.1;0.2;-0.0;0.0
3.0;1753877733.43793;14.186889;0.72;-1.35;-0.44;0.317526;0.92884;0.008529;-0.0;0.1;-0.1;-0.0;-0.0;-0.0
3.0;1753877733.442661;14.188123;0.71;-1.34;-0.12;0.326744;0.933813;0.006422;-0.1;0.0;0.1;-0.2;-0.0;0.0
3.0;1753877733.447392;14.185157;0.64;-1.36;-0.53;0.326813;0.938121;0.014317;0.0;0.1;-0.1;-0.0;-0.0;0.0
3.0;1753877733.452123;14.189184;0.61;-1.34;-0.32;0.327941;0.92601;0.008677;-0.5;0.0;0.1;-0.1;-0.0;-0.0
3.0;1753877733.456854;14.189652;0.61;-1.48;-0.73;0.316885;0.94046;0.003482;0.1;0.0;0.2;-0.2;-0.0;-0.0
3.0;1753877733.461585;14.190801;0.92;-1.49;-0.08;0.321554;0.924402;0.002752;0.9;0.0;0.1;0.0;0.0;-0.0
3.0;1753877733.466316;14.186918;0.74;-1.22;0.28;0.322867;0.924067;0.009201;-0.3;-0.0;-0.0;-0.1;-0.0;-0.0
3.0;1753877733.471047;14.19009;0.5;-1.44;0.1;0.310829;0.940374;0.006797;0.3;0.0;-0.0;0.0;0.0;0.0
3.0;1753877733.475778;14.187256;0.58;-1.56;0.73;0.3315;0.931754;0.005066;-0.0;-0.0;-0.1;-0.1;-0.0;0.0
3.0;1753877733.480509;14.186795;0.68;-1.4;0.14;0.308122;0.916338;0.006916;-0.1;-0.0;0.1;-0.1;-0.0;0.0
3.0;1753877733.48524;14.188083;0.72;-1.32;0.41;0.318741;0.933518;0.009859;-0.2;0.0;0.1;0.3;0.0;-0.0
3.0;1753877733.489971;14.185888;0.71;-1.26;0.5;0.313746;0.944674;0.010896;-0.2;0.1;0.1;-0.0;-0.0;-0.0
3.0;1753877733.494702;14.187272;0.72;-1.36;0.88;0.313098;0.933512;0.003002;-0.4;0.0;0.1;0.1;0.0;0.0
3.0;1753877733.499432;14.18591;0.58;-1.4;0.5;0.318767;0.935748;0.004822;0.8;0.1;-0.0;-0.2;-0.0;-0.0
3.0;1753877733.504164;14.185768;0.79;-1.16;0.2;0.315333;0.924926;0.013619;-0.1;0.0;0.0;-0.0;-0.0;0.0
3.0;1753877733.508894;14.186227;0.79;-1.46;-0.2;0.306565;0.93407;0.00273;-0.0;0.1;-0.1;-0.1;-0.0;-0.0
3.0;1753877733.513626;14.189222;0.71;-1.53;-1.21;0.312049;0.942931;0.00913;-0.0;0.0;-0.0;0.0;0.0;-0.0
3.0;1753877733.518356;14.189012;0.74;-1.43;-0.69;0.314706;0.935991;0.010791;-0.0;-0.0;0.0;-0.0;0.0;0.0
3.0;1753877733.523087;14.185964;0.73;-1.24;0.2;0.320672;0.921341;0.00133;0.3;0.0;-0.0;-0.1;0.0;-0.0
3.0;1753877733.527818;14.188893;0.74;-1.44;0.22;0.319968;0.935104;0.011047;1.2;-0.0;0.1;-0.1;-0.0;-0.0
3.0;1753877733.532549;14.187908;0.63;-1.36;-0.03;0.313545;0.933535;0.007047;0.3;-0.0;0.1;-0.0;-0.0;-0.0
3.0;1753877733.53728;14.188263;0.77;-1.34;1.17;0.315249;0.931971;0.005209;0.1;-0.1;0.2;0.3;0.0;0.0
3.0;1753877733.542011;14.188203;0.68;-1.34;-2.0;0.320088;0.933026;0.009219;-0.6;0.0;0.0;0.1;-0.0;-0.0
3.0;1753877733.546742;14.189235;0.8;-1.38;-0.23;0.313205;0.93442;0.006831;-0.5;0.1;-0.0;-0.1;0.0;0.0
3.0;1753877733.551473;14.18305;0.73;-1.34;-0.03;0.32248;0.946109;0.012532;0.0;-0.0;-0.1;0.0;-0.0;0.0
3.0;1753877733.556204;14.186419;0.69;-1.36;-0.12;0.310697;0.940353;0.004219;0.5;-0.0;0.0;0.1;-0.0;-0.0
3.0;1753877733.560935;14.185836;0.7;-1.39;0.09;0.320267;0.935904;0.006705;-0.4;0.0;-0.1;0.1;0.0;-0.0
3.0;1753877733.565666;14.185669;0.7;-1.43;-0.54;0.314154;0.92742;0.012607;1.0;0.0;0.0;0.0;0.0;-0.0
3.0;1753877733.570397;14.186529;0.6;-1.3;-0.24;0.31146;0.936046;0.00316;0.3;0.0;-0.2;0.1;0.0;-0.0
3.0;1753877733.575128;14.18643;0.76;-1.35;0.37;0.32214;0.934775;0.012826;0.4;0.0;0.1;0.0;0.0;0.0
3.0;1753877733.579858;14.188696;0.86;-1.49;-0.44;0.306001;0.933251;0.000396;0.1;0.1;-0.1;-0.1;0.0;-0.0
3.0;1753877733.58459;14.185989;0.77;-1.44;0.13;0.309692;0.934992;0.001759;0.7;-0.0;-0.0;-0.0;0.0;0.0
3.0;1753877733.58932;14.186524;0.74;-1.23;1.02;0.32248;0.93085;0.007358;0.4;0.1;0.1;0.2;0.0;-0.0
3.0;1753877733.594051;14.184849;0.93;-1.48;-0.46;0.332998;0.929449;0.006839;-0.8;-0.1;0.0;0.3;0.0;-0.0
3.0;1753877733.598782;14.187163;0.81;-1.56;1.19;0.327982;0.924729;0.004852;0.9;-0.1;-0.0;-0.1;0.0;-0.0
3.0;1753877733.603513;14.18753;0.89;-1.37;-0.44;0.329617;0.932168;0.005797;0.3;-0.0;-0.0;-0.1;0.0;-0.0
3.0;1753877733.608244;14.182998;0.67;-1.48;-1.03;0.321219;0.935276;0.002137;-0.6;0.1;0.1;-0.2;-0.0;0.0
3.0;1753877733.612975;14.189245;0.63;-1.59;-0.38;0.321549;0.932889;0.006872;-0.5;0.0;-0.1;-0.1;-0.0;0.0
3.0;1753877733.617706;14.187833;0.75;-1.31;0.44;0.328897;0.943574;0.003364;1.1;0.1;-0.0;0.1;0.0;-0.0
3.0;1753877733.622437;14.186908;0.57;-1.14;-0.2;0.318203;0.932219;-0.000412;-0.7;-0.0;-0.2;0.1;-0.0;0.0
3.0;1753877733.627168;14.190068;0.7;-1.33;0.32;0.333976;0.938368;0.007361;0.3;0.0;0.1;-0.1;-0.0;0.0
3.0;1753877733.631899;14.187172;0.79;-1.28;0.05;0.316201;0.930668;0.005385;0.9;0.0;-0.1;-0.0;0.0;-0.0
3.0;1753877733.63663;14.18528;0.67;-1.28;0.16;0.301595;0.938997;0.006302;0.6;0.0;0.1;-0.1;0.0;-0.0
3.0;1753877733.641361;14.187306;0.5;-1.31;-1.11;0.311855;0.923914;0.006237;0.2;-0.0;0.0;-0.1;-0.0;0.0
3.0;1753877733.646092;14.187687;0.67;-1.28;-0.34;0.317566;0.926941;0.007003;1.0;-0.0;0.1;0.2;-0.0;-0.0
3.0;1753877733.650823;14.186702;0.78;-1.41;-0.51;0.312814;0.926831;0.003101;-0.2;-0.0;-0.0;-0.0;0.0;-0.0
3.0;1753877733.655554;14.189634;0.64;-1.48;-0.1;0.317696;0.933219;0.005625;1.3;0.0;-0.1;0.4;-0.0;0.0
3.0;1753877733.660284;14.188644;0.87;-1.38;-0.34;0.317845;0.93582;0.005386;-0.3;0.1;-0.0;0.2;0.0;0.0
3.0;1753877733.665016;14.188631;0.91;-1.55;-0.6;0.315339;0.933665;0.003856;-1.4;0.1;0.1;0.1;0.0;0.0
3.0;1753877733.669746;14.188571;0.75;-1.36;1.19;0.315163;0.941071;0.007395;0.6;0.0;-0.0;-0.0;-0.0;0.0
3.0;1753877733.674477;14.188807;0.62;-1.49;-0.64;0.319283;0.937376;0.005081;-0.4;0.0;-0.0;0.0;-0.0;-0.0
3.0;1753877733.679208;14.185779;0.73;-1.43;-0.18;0.316707;0.938922;0.003803;-0.1;-0.1;-0.2;-0.1;-0.0;0.0
3.0;1753877733.683939;14.187197;0.63;-1.41;-0.6;0.32064;0.928758;0.005261;-0.6;0.0;-0.0;0.1;0.0;0.0
3.0;1753877733.68867;14.186875;0.8;-1.5;-0.53;0.31584;0.929649;0.004558;-0.2;-0.1;-0.1;-0.1;-0.0;0.0
3.0;1753877733.693401;14.188141;0.73;-1.5;-0.61;0.322978;0.933851;0.005406;0.6;-0.1;0.1;0.0;0.0;-0.0
3.0;1753877733.698132;14.187238;0.75;-1.51;0.21;0.3217;0.931566;-0.000474;-0.4;-0.0;-0.1;0.1;-0.0;0.0
3.0;1753877733.702863;14.184055;0.89;-1.56;-0.39;0.30812;0.936308;0.003001;-0.2;-0.1;-0.1;0.1;0.0;-0.0
3.0;1753877733.707594;14.185957;0.68;-1.48;0.53;0.319861;0.933391;0.002495;-0.4;0.1;0.2;0.2;0.0;0.0
3.0;1753877733.712325;14.185973;0.69;-1.44;-1.08;0.328677;0.941645;0.006163;-0.5;-0.0;0.0;-0.1;0.0;0.0
3.0;1753877733.717056;14.187994;0.65;-1.41;-0.65;0.327094;0.926446;0.008643;0.0;0.1;-0.0;-0.3;-0.0;0.0
3.0;1753877733.721787;14.18841;0.68;-1.31;-1.14;0.310382;0.932685;0.013466;0.4;-0.0;0.0;0.1;0.0;0.0
3.0;1753877733.726518;14.183811;0.84;-1.42;-0.84;0.308465;0.919159;0.001385;0.4;-0.0;-0.0;-0.1;0.0;-0.0
3.0;1753877733.731248;14.186009;0.67;-1.24;-0.88;0.326826;0.937854;0.00754;-0.4;0.0;0.1;0.1;-0.0;-0.0
3.0;1753877733.73598;14.188806;0.65;-1.38;0.95;0.313725;0.935066;0.002836;0.3;-0.0;-0.0;-0.1;0.0;-0.0
3.0;1753877733.74071;14.189406;0.71;-1.44;1.11;0.301677;0.936758;0.016033;0.5;-0.0;-0.0;0.1;-0.0;-0.0
3.0;1753877733.745442;14.183896;0.7;-1.22;0.57;0.31782;0.939834;0.008044;0.2;-0.0;-0.0;0.2;0.0;0.0
3.0;1753877733.750172;14.188014;0.84;-1.4;0.38;0.318445;0.935684;0.010438;0.5;0.1;0.1;-0.1;-0.0;0.0
3.0;1753877733.7581;14.1875;0.7;-1.4;-0.21;0.317932;0.933056;0.005734;0.0;0.0;0.0;0.0;0.0;0.0
3.0;1753877733.762831;14.199168;0.69;-1.32;-0.21;0.319828;0.933058;0.006019;0.0;0.0;0.0;0.0;0.0;0.0
3.0;1753877733.767562;14.230518;0.68;-1.38;-0.21;0.318612;0.932995;0.007165;0.0;0.0;0.0;0.0;0.0;0.0
3.0;1753877733.77184;14.234375;0.84;-1.33;-0.21;0.318664;0.931836;0.007076;0.0;0.0;0.0;0.0;0.0;0.0
3.0;1753877733.776571;14.236341;0.78;-1.34;-0.25;0.317862;0.932596;0.007685;0.0;0.0;0.0;0.0;0.0;0.0
3.0;1753877733.781302;14.242637;0.85;-1.32;-0.24;0.316716;0.93226;0.006685;0.0;0.0;0.0;0.0;0.0;0.0
3.0;1753877733.786033;14.230481;0.83;-1.28;-0.22;0.317631;0.931831;0.007393;0.0;0.0;0.0;0.0;0.0;0.0
3.0;1753877733.790764;14.278001;0.79;-1.36;-0.2;0.318679;0.932475;0.006872;0.0;0.0;0.0;0.0;0.0;0.0
3.0;1753877733.795495;14.239449;0.83;-1.36;-0.18;0.318005;0.930996;0.007075;0.0;0.0;0.0;0.0;0.0;0.0
3.0;1753877733.800226;14.215854;0.88;-1.31;-0.14;0.317342;0.931559;0.008464;0.0;0.0;0.0;0.0;0.0;0.0
3.0;1753877733.804957;14.207842;0.84;-1.32;-0.15;0.318663;0.932482;0.008768;0.0;0.0;0.0;0.0;0.0;0.0
3.0;1753877733.809688;14.247795;0.77;-1.28;-0.18;0.318333;0.932271;0.007099;0.0;0.0;0.0;0.0;0.0;0.0
3.0;1753877733.814418;14.220737;0.71;-1.31;-0.26;0.319885;0.931581;0.00736;0.0;0.0;0.0;0.0;0.0;0.0
3.0;1753877733.81915;14.196588;0.76;-1.27;-0.21;0.31839;0.931321;0.006602;0.0;0.0;0.0;0.0;0.0;0.0
3.0;1753877733.82388;14.210936;0.77;-1.34;-0.13;0.318461;0.930547;0.007366;0.0;0.0;0.0;0.0;0.0;0.0
3.0;1753877733.828611;14.222955;0.72;-1.38;-0.15;0.317521;0.929735;0.007837;0.0;0.0;0.0;0.0;0.0;0.0
3.0;1753877733.833342;14.243497;0.79;-1.33;-0.13;0.31961;0.93065;0.007433;0.0;0.0;0.0;0.0;0.0;0.0
3.0;1753877733.838073;14.199337;0.8;-1.31;-0.17;0.318431;0.931003;0.008643;0.0;0.0;0.0;0.0;0.0;0.0
3.0;1753877733.842804;14.235479;0.74;-1.33;-0.11;0.318908;0.932701;0.007846;0.0;0.0;0.0;0.0;0.0;0.0
3.0;1753877733.847535;14.23484;0.77;-1.33;-0.16;0.318059;0.93247;0.008055;0.0;0.0;0.0;0.0;0.0;0.0
3.0;1753877733.852266;14.225344;0.75;-1.29;-0.06;0.317843;0.93183;0.007624;0.0;0.0;0.0;0.0;0.0;0.0
3.0;1753877733.856997;14.22595;0.87;-1.3;-0.16;0.31962;0.931467;0.007274;0.0;0.0;0.0;0.0;0.0;0.0
3.0;1753877733.86178;14.234375;0.77;-1.33;-0.14;0.31842;0.931348;0.007808;0.0;0.0;0.0;0.0;0.0;0.0
3.0;1753877733.866511;14.247385;0.79;-1.34;-0.2;0.318721;0.930515;0.009442;0.0;0.0;0.0;0.0;0.0;0.0
3.0;1753877733.871242;14.203474;0.75;-1.38;-0.16;0.319973;0.931905;0.007256;0.0;0.0;0.0;0.0;0.0;0.0
3.0;1753877733.875973;14.239237;0.81;-1.34;-0.22;0.319239;0.931724;0.006801;0.0;0.0;0.0;0.0;0.0;0.0
3.0;1753877733.880704;14.220057;0.87;-1.34;-0.24;0.31848;0.93146;0.008047;0.0;0.0;0.0;0.0;0.0;0.0
3.0;1753877733.885435;14.22379;0.77;-1.32;-0.25;0.319237;0.930895;0.008001;0.0;0.0;0.0;0.0;0.0;0.0
3.0;1753877733.890166;14.223084;0.66;-1.34;-0.22;0.319132;0.93267;0.009735;0.0;0.0;0.0;0.0;0.0;0.0
3.0;1753877733.894896;14.216039;0.81;-1.3;-0.2;0.317519;0.930358;0.00938;0.0;0.0;0.0;0.0;0.0;0.0
3.0;1753877733.899628;14.226382;0.78;-1.35;-0.18;0.320054;0.932909;0.008831;0.0;0.0;0.0;0.0;0.0;0.0
3.0;1753877733.904358;14.215611;0.69;-1.33;-0.21;0.317837;0.932754;0.008054;0.0;0.0;0.0;0.0;0.0;0.0
3.0;1753877733.909089;14.214356;0.78;-1.35;-0.18;0.317257;0.933107;0.007714;0.0;0.0;0.0;0.0;0.0;0.0
3.0;1753877733.91382;14.200191;0.82;-1.34;-0.26;0.319152;0.931517;0.006994;0.0;0.0;0.0;0.0;0.0;0.0
3.0;1753877733.918551;14.224753;0.71;-1.31;-0.27;0.320124;0.931918;0.008843;0.0;0.0;0.0;0.0;0.0;0.0
3.0;1753877733.923282;14.22611;0.84;-1.32;-0.29;0.318844;0.932363;0.008798;0.0;0.0;0.0;0.0;0.0;0.0
3.0;1753877733.92979;14.21875;0.77;-1.33;-0.28;0.319152;0.932202;0.00854;0.0;0.0;0.0;0.0;0.0;0.0
3.0;1753877733.934521;14.215512;0.77;-1.33;-0.26;0.319943;0.930706;0.006839;0.0;0.0;0.0;0.0;0.0;0.0
3.0;1753877733.939252;14.219718;0.73;-1.35;-0.2;0.317833;0.931412;0.008536;0.0;0.0;0.0;0.0;0.0;0.0
3.0;1753877733.943983;14.223092;0.75;-1.35;-0.18;0.316218;0.93344;0.008977;0.0;0.0;0.0;0.0;0.0;0.0
3.0;1753877733.948714;14.222821;0.84;-1.31;-0.16;0.318641;0.932988;0.008591;0.0;0.0;0.0;0.0;0.0;0.0
3.0;1753877733.953445;14.213687;0.75;-1.28;-0.16;0.317629;0.930768;0.008708;0.0;0.0;0.0;0.0;0.0;0.0
3.0;1753877733.958176;14.212298;0.72;-1.3;-0.16;0.318087;0.932706;0.007535;0.0;0.0;0.0;0.0;0.0;0.0
3.0;1753877733.962906;14.221835;0.64;-1.39;-0.16;0.317378;0.932432;0.007732;0.0;0.0;0.0;0.0;0.0;0.0
3.0;1753877733.96846;14.21875;0.7;-1.33;-0.14;0.316224;0.93269;0.007564;0.0;0.0;0.0;0.0;0.0;0.0
3.0;1753877733.974069;14.226562;0.77;-1.26;-0.21;0.317932;0.931714;0.007808;0.0;0.0;0.0;0.0;0.0;0.0
3.0;1753877733.975547;14.226562;0.77;-1.33;-0.21;0.317322;0.93147;0.006954;0.0;0.0;0.0;0.0;0.0;0.0
3.0;1753877733.980697;14.226562;0.7;-1.26;-0.14;0.318908;0.933056;0.007198;0.0;0.0;0.0;0.0;0.0;0.0
3.0;1753877733.985337;14.1875;0.7;-1.26;-0.07;0.317444;0.9333;0.00671;0.0;0.0;0.0;0.0;0.0;0.0
3.0;1753877733.989701;14.1875;0.7;-1.26;-0.21;0.31781;0.931226;0.005612;0.0;0.0;0.0;0.0;0.0;0.0
3.0;1753877733.994428;14.1875;0.77;-1.33;-0.14;0.31781;0.931226;0.005612;0.0;0.0;0.0;0.0;0.0;0.0
3.0;1753877733.999106;14.1875;0.77;-1.33;-0.21;0.318054;0.931226;0.007686;0.0;0.0;0.0;0.0;0.0;0.0
3.0;1753877734.003837;14.17468;0.8;-1.27;-0.28;0.317819;0.93344;0.007947;0.0;0.0;0.0;0.0;0.0;0.0
3.0;1753877734.008568;14.185779;0.74;-1.26;-0.28;0.318381;0.932303;0.008802;0.0;0.0;0.0;0.0;0.0;0.0
3.0;1753877734.013299;14.167664;0.77;-1.35;-0.26;0.317375;0.928292;0.007995;0.0;0.0;0.0;0.0;0.0;0.0
3.0;1753877734.01803;14.186622;0.73;-1.39;-0.23;0.318407;0.93241;0.008745;0.0;0.0;0.0;0.0;0.0;0.0
3.0;1753877734.022761;14.179105;0.78;-1.35;-0.23;0.318764;0.930288;0.007464;0.0;0.0;0.0;0.0;0.0;0.0
3.0;1753877734.027492;14.168029;0.73;-1.35;-0.24;0.31868;0.931231;0.007106;0.0;0.0;0.0;0.0;0.0;0.0
3.0;1753877734.032222;14.218371;0.83;-1.29;-0.15;0.318568;0.931015;0.006708;0.0;0.0;0.0;0.0;0.0;0.0
3.0;1753877734.036954;14.163776;0.85;-1.27;-0.19;0.320045;0.930185;0.007145;0.0;0.0;0.0;0.0;0.0;0.0
3.0;1753877734.041684;14.166017;0.85;-1.35;-0.24;0.318072;0.932011;0.006789;0.0;0.0;0.0;0.0;0.0;0.0
3.0;1753877734.046415;14.170692;0.78;-1.33;-0.29;0.316873;0.931483;0.009863;0.0;0.0;0.0;0.0;0.0;0.0
3.0;1753877734.051146;14.228548;0.73;-1.25;-0.17;0.319165;0.92979;0.006415;0.0;0.0;0.0;0.0;0.0;0.0
3.0;1753877734.055877;14.184803;0.72;-1.31;-0.15;0.317848;0.931215;0.007574;0.0;0.0;0.0;0.0;0.0;0.0
3.0;1753877734.060608;14.193631;0.76;-1.37;-0.19;0.317136;0.930375;0.009421;0.0;0.0;0.0;0.0;0.0;0.0
3.0;1753877734.065339;14.208284;0.78;-1.44;-0.18;0.317784;0.932191;0.006913;0.0;0.0;0.0;0.0;0.0;0.0
3.0;1753877734.07007;14.162145;0.82;-1.37;-0.15;0.318391;0.930143;0.006396;0.0;0.0;0.0;0.0;0.0;0.0
3.0;1753877734.074801;14.190976;0.82;-1.37;-0.29;0.318932;0.931161;0.009068;0.0;0.0;0.0;0.0;0.0;0.0
3.0;1753877734.079532;14.19905;0.78;-1.4;-0.41;0.318024;0.932798;0.007892;0.0;0.0;0.0;0.0;0.0;0.0
3.0;1753877734.084263;14.161757;0.82;-1.36;-0.14;0.317568;0.930082;0.008497;0.0;0.0;0.0;0.0;0.0;0.0
3.0;1753877734.088994;14.20725;0.82;-1.27;-0.14;0.318172;0.929338;0.006273;0.0;0.0;0.0;0.0;0.0;0.0
3.0;1753877734.093725;14.146864;0.82;-1.31;-0.29;0.317153;0.92877;0.006795;0.0;0.0;0.0;0.0;0.0;0.0
3.0;1753877734.098456;14.177216;0.72;-1.38;-0.24;0.320066;0.932385;0.007245;0.0;0.0;0.0;0.0;0.0;0.0
3.0;1753877734.103186;14.171212;0.73;-1.33;-0.13;0.317446;0.930448;0.00904;0.0;0.0;0.0;0.0;0.0;0.0
3.0;1753877734.107918;14.182602;0.82;-1.41;-0.29;0.31838;0.933566;0.007731;0.0;0.0;0.0;0.0;0.0;0.0
3.0;1753877734.112648;14.188937;0.75;-1.38;-0.21;0.319113;0.93044;0.008654;0.0;0.0;0.0;0.0;0.0;0.0
3.0;1753877734.11738;14.178962;0.79;-1.35;-0.19;0.319051;0.930997;0.007165;0.0;0.0;0.0;0.0;0.0;0.0
3.0;1753877734.12211;14.182338;0.79;-1.34;-0.29;0.318437;0.932199;0.007133;0.0;0.0;0.0;0.0;0.0;0.0
3.0;1753877734.126841;14.109902;0.76;-1.34;-0.2;0.317923;0.932359;0.005975;0.0;0.0;0.0;0.0;0.0;0.0
3.0;1753877734.131572;14.19709;0.74;-1.41;-0.29;0.317131;0.933213;0.007886;0.0;0.0;0.0;0.0;0.0;0.0
3.0;1753877734.136303;14.154818;0.74;-1.43;-0.27;0.318731;0.931169;0.00699;0.0;0.0;0.0;0.0;0.0;0.0
3.0;1753877734.141034;14.173146;0.8;-1.32;-0.19;0.317868;0.931998;0.006949;0.0;0.0;0.0;0.0;0.0;0.0
3.0;1753877734.145765;14.205437;0.79;-1.4;-0.31;0.319163;0.932023;0.007281;0.0;0.0;0.0;0.0;0.0;0.0
3.0;1753877734.150496;14.200724;0.75;-1.35;-0.22;0.319054;0.932312;0.007622;0.0;0.0;0.0;0.0;0.0;0.0
3.0;1753877734.155227;14.171488;0.74;-1.35;-0.33;0.317497;0.932761;0.005102;0.0;0.0;0.0;0.0;0.0;0.0
3.0;1753877734.159958;14.203055;0.71;-1.35;-0.15;0.318952;0.931684;0.007711;0.0;0.0;0.0;0.0;0.0;0.0
3.0;1753877734.164689;14.20536;0.77;-1.39;-0.27;0.319168;0.931282;0.006391;0.0;0.0;0.0;0.0;0.0;0.0
3.0;1753877734.16942;14.16917;0.85;-1.31;-0.26;0.319466;0.932734;0.006565;0.0;0.0;0.0;0.0;0.0;0.0
3.0;1753877734.174151;14.209856;0.71;-1.35;-0.2;0.318537;0.931323;0.006284;0.0;0.0;0.0;0.0;0.0;0.0
3.0;1753877734.178882;14.148889;0.81;-1.33;-0.23;0.31827;0.931494;0.008282;0.0;0.0;0.0;0.0;0.0;0.0
3.0;1753877734.183612;14.193489;0.8;-1.39;-0.33;0.318986;0.932469;0.008516;0.0;0.0;0.0;0.0;0.0;0.0
3.0;1753877734.188344;14.172651;0.76;-1.38;-0.26;0.319483;0.93021;0.006529;0.0;0.0;0.0;0.0;0.0;0.0
3.0;1753877734.193074;14.164456;0.85;-1.37;-0.31;0.317204;0.930655;0.005655;0.0;0.0;0.0;0.0;0.0;0.0
3.0;1753877734.197806;14.184151;0.81;-1.34;-0.2;0.317507;0.930947;0.00801;0.0;0.0;0.0;0.0;0.0;0.0
3.0;1753877734.202536;14.176389;0.69;-1.42;-0.32;0.320026;0.931143;0.00589;0.0;0.0;0.0;0.0;0.0;0.0
3.0;1753877734.207267;14.195282;0.76;-1.31;-0.32;0.318225;0.931992;0.007487;0.0;0.0;0.0;0.0;0.0;0.0
3.0;1753877734.211998;14.157119;0.73;-1.31;-0.22;0.319932;0.930952;0.006488;0.0;0.0;0.0;0.0;0.0;0.0
3.0;1753877734.216729;14.165854;0.76;-1.38;-0.31;0.317559;0.931383;0.0063;0.0;0.0;0.0;0.0;0.0;0.0
3.0;1753877734.22146;14.133061;0.77;-1.3;-0.21;0.317423;0.929999;0.007621;0.0;0.0;0.0;0.0;0.0;0.0
3.0;1753877734.226191;14.216935;0.8;-1.42;-0.29;0.318701;0.930156;0.007805;0.0;0.0;0.0;0.0;0.0;0.0
3.0;1753877734.230922;14.168501;0.77;-1.35;-0.21;0.316844;0.93126;0.006442;0.0;0.0;0.0;0.0;0.0;0.0
3.0;1753877734.235653;14.20932;0.72;-1.38;-0.19;0.318512;0.931674;0.006237;0.0;0.0;0.0;0.0;0.0;0.0
3.0;1753877734.240384;14.157326;0.8;-1.34;-0.28;0.316576;0.930483;0.007521;0.0;0.0;0.0;0.0;0.0;0.0
3.0;1753877734.245115;14.164777;0.8;-1.31;-0.23;0.319744;0.930569;0.008478;0.0;0.0;0.0;0.0;0.0;0.0
3.0;1753877734.249846;14.183756;0.85;-1.28;-0.24;0.319579;0.93036;0.006357;0.0;0.0;0.0;0.0;0.0;0.0
3.0;1753877734.254577;14.160358;0.8;-1.35;-0.18;0.318753;0.93099;0.007078;0.0;0.0;0.0;0.0;0.0;0.0
3.0;1753877734.259308;14.169386;0.8;-1.44;-0.16;0.319516;0.931298;0.007554;0.0;0.0;0.0;0.0;0.0;0.0
3.0;1753877734.264038;14.212181;0.82;-1.46;-0.24;0.31917;0.932465;0.005575;0.0;0.0;0.0;0.0;0.0;0.0
3.0;1753877734.26877;14.170335;0.83;-1.28;-0.21;0.317791;0.932372;0.005886;0.0;0.0;0.0;0.0;0.0;0.0
3.0;1753877734.2735;14.203177;0.75;-1.4;-0.29;0.317757;0.931603;0.005878;0.0;0.0;0.0;0.0;0.0;0.0
3.0;1753877734.278232;14.188857;0.76;-1.32;-0.26;0.318992;0.931865;0.005836;0.0;0.0;0.0;0.0;0.0;0.0
3.0;1753877734.282962;14.172144;0.73;-1.34;-0.22;0.318444;0.931319;0.008749;0.0;0.0;0.0;0.0;0.0;0.0
3.0;1753877734.287693;14.179892;0.81;-1.41;-0.32;0.319061;0.931835;0.007781;0.0;0.0;0.0;0.0;0.0;0.0
3.0;1753877734.292424;14.180355;0.86;-1.39;-0.28;0.318011;0.930286;0.007308;0.0;0.0;0.0;0.0;0.0;0.0
3.0;1753877734.297155;14.188463;0.72;-1.45;-0.22;0.317941;0.93189;0.008143;0.0;0.0;0.0;0.0;0.0;0.0
3.0;1753877734.301886;14.187615;0.8;-1.34;-0.22;0.318349;0.932782;0.005785;0.0;0.0;0.0;0.0;0.0;0.0
3.0;1753877734.306617;14.187251;0.74;-1.35;-0.3;0.318967;0.932688;0.004928;0.0;0.0;0.0;0.0;0.0;0.0
3.0;1753877734.311348;14.15937;0.75;-1.32;-0.19;0.320444;0.931719;0.006724;0.0;0.0;0.0;0.0;0.0;0.0
3.0;1753877734.316079;14.170676;0.77;-1.32;-0.35;0.318871;0.93315;0.006638;0.0;0.0;0.0;0.0;0.0;0.0
3.0;1753877734.32081;14.183855;0.78;-1.37;-0.23;0.318557;0.931886;0.008147;0.0;0.0;0.0;0.0;0.0;0.0
3.0;1753877734.325541;14.171551;0.8;-1.42;-0.24;0.31937;0.932566;0.008961;0.0;0.0;0.0;0.0;0.0;0.0
3.0;1753877734.330272;14.160383;0.76;-1.42;-0.25;0.318583;0.932516;0.008401;0.0;0.0;0.0;0.0;0.0;0.0
3.0;1753877734.335003;14.167685;0.69;-1.43;-0.24;0.319675;0.930029;0.008193;0.0;0.0;0.0;0.0;0.0;0.0
3.0;1753877734.339734;14.156775;0.77;-1.31;-0.19;0.319152;0.933025;0.008083;0.0;0.0;0.0;0.0;0.0;0.0
3.0;1753877734.344464;14.184847;0.74;-1.33;-0.24;0.318396;0.931095;0.005075;0.0;0.0;0.0;0.0;0.0;0.0
3.0;1753877734.349196;14.148962;0.75;-1.42;-0.18;0.320425;0.929394;0.004239;0.0;0.0;0.0;0.0;0.0;0.0
3.0;1753877734.353926;14.159213;0.83;-1.44;-0.17;0.320792;0.931793;0.006308;0.0;0.0;0.0;0.0;0.0;0.0
3.0;1753877734.358657;14.14148;0.85;-1.43;-0.26;0.318864;0.932487;0.005194;0.0;0.0;0.0;0.0;0.0;0.0
3.0;1753877734.363388;14.156386;0.77;-1.3;-0.23;0.318668;0.932652;0.007305;0.0;0.0;0.0;0.0;0.0;0.0
3.0;1753877734.368119;14.181237;0.75;-1.37;-0.3;0.317667;0.933464;0.004975;0.0;0.0;0.0;0.0;0.0;0.0
3.0;1753877734.37285;14.210872;0.83;-1.45;-0.24;0.318677;0.931666;0.005892;0.0;0.0;0.0;0.0;0.0;0.0
3.0;1753877734.377581;14.175385;0.75;-1.36;-0.31;0.318746;0.932527;0.008063;0.0;0.0;0.0;0.0;0.0;0.0
3.0;1753877734.382312;14.181403;0.65;-1.47;-0.23;0.319199;0.931775;0.006642;0.0;0.0;0.0;0.0;0.0;0.0
3.0;1753877734.387043;14.195967;0.79;-1.44;-0.27;0.318363;0.931617;0.00588;0.0;0.0;0.0;0.0;0.0;0.0
3.0;1753877734.391774;14.160067;0.78;-1.36;-0.31;0.319249;0.932897;0.005868;0.0;0.0;0.0;0.0;0.0;0.0
3.0;1753877734.396505;14.183906;0.89;-1.45;-0.27;0.31895;0.931643;0.006969;0.0;0.0;0.0;0.0;0.0;0.0
3.0;1753877734.401236;14.169369;0.75;-1.35;-0.26;0.318945;0.931823;0.006906;0.0;0.0;0.0;0.0;0.0;0.0
3.0;1753877734.405967;14.161088;0.74;-1.28;-0.25;0.318554;0.931737;0.005413;0.0;0.0;0.0;0.0;0.0;0.0
3.0;1753877734.410698;14.161438;0.72;-1.28;-0.33;0.318663;0.932351;0.006768;0.0;0.0;0.0;0.0;0.0;0.0
3.0;1753877734.415429;14.202455;0.77;-1.37;-0.28;0.318569;0.93196;0.007207;0.0;0.0;0.0;0.0;0.0;0.0
3.0;1753877734.42016;14.193441;0.77;-1.39;-0.18;0.318776;0.931713;0.004775;0.0;0.0;0.0;0.0;0.0;0.0
3.0;1753877734.42489;14.195925;0.79;-1.36;-0.22;0.319712;0.930857;0.005883;0.0;0.0;0.0;0.0;0.0;0.0
3.0;1753877734.429622;14.180246;0.77;-1.4;-0.29;0.318509;0.932132;0.00637;0.0;0.0;0.0;0.0;0.0;0.0
3.0;1753877734.434352;14.206443;0.76;-1.4;-0.26;0.318513;0.932395;0.006896;0.0;0.0;0.0;0.0;0.0;0.0
3.0;1753877734.439083;14.189639;0.85;-1.31;-0.26;0.318904;0.931646;0.006865;0.0;0.0;0.0;0.0;0.0;0.0
3.0;1753877734.443814;14.146452;0.79;-1.43;-0.19;0.319473;0.930577;0.006565;0.0;0.0;0.0;0.0;0.0;0.0
3.0;1753877734.448545;14.177869;0.79;-1.47;-0.27;0.319909;0.931643;0.00701;0.0;0.0;0.0;0.0;0.0;0.0
3.0;1753877734.453276;14.143725;0.81;-1.43;-0.26;0.31992;0.932199;0.00767;0.0;0.0;0.0;0.0;0.0;0.0
3.0;1753877734.458007;14.148932;0.69;-1.3;-0.19;0.319767;0.930581;0.007148;0.0;0.0;0.0;0.0;0.0;0.0
3.0;1753877734.462738;14.177402;0.81;-1.39;-0.24;0.319623;0.932498;0.007013;0.0;0.0;0.0;0.0;0.0;0.0
3.0;1753877734.467469;14.168566;0.8;-1.46;-0.28;0.318936;0.932914;0.005538;0.0;0.0;0.0;0.0;0.0;0.0
3.0;1753877734.4722;14.183189;0.73;-1.42;-0.28;0.319104;0.932;0.007477;0.0;0.0;0.0;0.0;0.0;0.0
3.0;1753877734.476931;14.175482;0.79;-1.42;-0.24;0.320458;0.93178;0.007009;0.0;0.0;0.0;0.0;0.0;0.0
3.0;1753877734.481662;14.162042;0.77;-1.4;-0.31;0.319217;0.932259;0.006473;0.0;0.0;0.0;0.0;0.0;0.0
3.0;1753877734.486393;14.167542;0.82;-1.37;-0.16;0.318687;0.931862;0.005897;0.0;0.0;0.0;0.0;0.0;0.0
3.0;1753877734.491124;14.181401;0.72;-1.38;-0.32;0.318235;0.931216;0.0072;0.0;0.0;0.0;0.0;0.0;0.0
3.0;1753877734.495854;14.141919;0.8;-1.36;-0.3;0.319316;0.931809;0.006603;0.0;0.0;0.0;0.0;0.0;0.0
3.0;1753877734.500586;14.164689;0.76;-1.38;-0.19;0.320918;0.932008;0.006246;0.0;0.0;0.0;0.0;0.0;0.0
3.0;1753877734.505316;14.191077;0.79;-1.31;-0.2;0.319952;0.931334;0.007598;0.0;0.0;0.0;0.0;0.0;0.0
3.0;1753877734.510048;14.174151;0.74;-1.34;-0.27;0.318247;0.930366;0.006729;0.0;0.0;0.0;0.0;0.0;0.0
3.0;1753877734.514778;14.172863;0.72;-1.44;-0.3;0.32;0.931438;0.005601;0.0;0.0;0.0;0.0;0.0;0.0
3.0;1753877734.519509;14.163104;0.74;-1.42;-0.28;0.320264;0.93171;0.006275;0.0;0.0;0.0;0.0;0.0;0.0
3.0;1753877734.52424;14.172332;0.74;-1.43;-0.31;0.31859;0.932547;0.005921;0.0;0.0;0.0;0.0;0.0;0.0
3.0;1753877734.5324;14.164062;0.77;-1.4;-0.28;0.319396;0.931714;0.0061;0.0;0.0;0.0;0.0;0.0;0.0
3.0;1753877734.537131;14.177431;0.8;-1.4;-0.34;0.318322;0.931502;0.008978;0.0;0.0;0.0;0.0;0.0;0.0
3.0;1753877734.541862;14.153453;0.8;-1.29;-0.33;0.319138;0.9299;0.006592;0.0;0.0;0.0;0.0;0.0;0.0
3.0;1753877734.546593;14.168904;0.76;-1.54;-0.27;0.318148;0.933348;0.005809;0.0;0.0;0.0;0.0;0.0;0.0
3.0;1753877734.551324;14.1567;0.8;-1.34;-0.3;0.320006;0.931596;0.005829;0.0;0.0;0.0;0.0;0.0;0.0
3.0;1753877734.556054;14.136832;0.76;-1.46;-0.3;0.318269;0.932658;0.006013;0.0;0.0;0.0;0.0;0.0;0.0
3.0;1753877734.560786;14.160028;0.82;-1.46;-0.27;0.318789;0.932518;0.004222;0.0;0.0;0.0;0.0;0.0;0.0
3.0;1753877734.565516;14.175538;0.78;-1.41;-0.32;0.318948;0.932216;0.00521;0.0;0.0;0.0;0.0;0.0;0.0
3.0;1753877734.570248;14.180555;0.74;-1.46;-0.28;0.319125;0.930949;0.005104;0.0;0.0;0.0;0.0;0.0;0.0
3.0;1753877734.574978;14.169322;0.82;-1.38;-0.28;0.320415;0.932022;0.004536;0.0;0.0;0.0;0.0;0.0;0.0
3.0;1753877734.579709;14.155046;0.75;-1.37;-0.31;0.318564;0.932136;0.004996;0.0;0.0;0.0;0.0;0.0;0.0
3.0;1753877734.58444;14.180619;0.78;-1.43;-0.26;0.316253;0.93238;0.00569;0.0;0.0;0.0;0.0;0.0;0.0
3.0;1753877734.589171;14.16388;0.8;-1.37;-0.29;0.318385;0.931639;0.00607;0.0;0.0;0.0;0.0;0.0;0.0
3.0;1753877734.593902;14.171133;0.73;-1.37;-0.27;0.318624;0.93275;0.004471;0.0;0.0;0.0;0.0;0.0;0.0
3.0;1753877734.598633;14.149244;0.77;-1.39;-0.25;0.317633;0.930915;0.006594;0.0;0.0;0.0;0.0;0.0;0.0
3.0;1753877734.603364;14.128038;0.79;-1.43;-0.35;0.318792;0.931851;0.006884;0.0;0.0;0.0;0.0;0.0;0.0
3.0;1753877734.608095;14.152874;0.76;-1.44;-0.28;0.318687;0.932776;0.004635;0.0;0.0;0.0;0.0;0.0;0.0
3.0;1753877734.612826;14.143577;0.8;-1.3;-0.33;0.318069;0.931247;0.005455;0.0;0.0;0.0;0.0;0.0;0.0
3.0;1753877734.617557;14.167659;0.72;-1.45;-0.22;0.318442;0.932095;0.004849;0.0;0.0;0.0;0.0;0.0;0.0
3.0;1753877734.622288;14.140642;0.76;-1.4;-0.28;0.319081;0.932995;0.005647;0.0;0.0;0.0;0.0;0.0;0.0
3.0;1753877734.627019;14.176863;0.8;-1.41;-0.2;0.318902;0.932132;0.005269;0.0;0.0;0.0;0.0;0.0;0.0
3.0;1753877734.63175;14.15527;0.73;-1.41;-0.3;0.319165;0.932414;0.005978;0.0;0.0;0.0;0.0;0.0;0.0
3.0;1753877734.63648;14.160707;0.77;-1.43;-0.23;0.317357;0.932724;0.006444;0.0;0.0;0.0;0.0;0.0;0.0
3.0;1753877734.641212;14.130929;0.74;-1.46;-0.21;0.319656;0.932212;0.006107;0.0;0.0;0.0;0.0;0.0;0.0
3.0;1753877734.645942;14.179879;0.79;-1.34;-0.34;0.318777;0.932191;0.006028;0.0;0.0;0.0;0.0;0.0;0.0
3.0;1753877734.650674;14.15768;0.72;-1.37;-0.24;0.319439;0.932788;0.005788;0.0;0.0;0.0;0.0;0.0;0.0
3.0;1753877734.655404;14.172764;0.73;-1.41;-0.2;0.316902;0.932947;0.006213;0.0;0.0;0.0;0.0;0.0;0.0
3.0;1753877734.660135;14.125338;0.77;-1.45;-0.3;0.318183;0.932284;0.00685;0.0;0.0;0.0;0.0;0.0;0.0
3.0;1753877734.664866;14.210938;0.74;-1.38;-0.33;0.318092;0.932568;0.006271;0.0;0.0;0.0;0.0;0.0;0.0
3.0;1753877734.669597;14.169901;0.72;-1.35;-0.35;0.320076;0.933984;0.006265;0.0;0.0;0.0;0.0;0.0;0.0
3.0;1753877734.674328;14.160821;0.76;-1.45;-0.28;0.319552;0.932018;0.004452;0.0;0.0;0.0;0.0;0.0;0.0
3.0;1753877734.679059;14.125905;0.75;-1.36;-0.24;0.318492;0.932916;0.006866;0.0;0.0;0.0;0.0;0.0;0.0
3.0;1753877734.68379;14.146116;0.79;-1.41;-0.3;0.3187;0.933245;0.007119;0.0;0.0;0.0;0.0;0.0;0.0
3.0;1753877734.688521;14.163553;0.76;-1.42;-0.21;0.321055;0.930936;0.00715;0.0;0.0;0.0;0.0;0.0;0.0
3.0;1753877734.693252;14.189653;0.7;-1.27;-0.21;0.317712;0.930963;0.006307;0.0;0.0;0.0;0.0;0.0;0.0
3.0;1753877734.697983;14.160994;0.77;-1.42;-0.26;0.317329;0.932511;0.006065;0.0;0.0;0.0;0.0;0.0;0.0
3.0;1753877734.702714;14.178716;0.76;-1.43;-0.25;0.317606;0.930903;0.005934;0.0;0.0;0.0;0.0;0.0;0.0
3.0;1753877734.707445;14.176071;0.74;-1.45;-0.18;0.317385;0.932397;0.005324;0.0;0.0;0.0;0.0;0.0;0.0
3.0;1753877734.712176;14.149438;0.77;-1.37;-0.26;0.31842;0.931734;0.005024;0.0;0.0;0.0;0.0;0.0;0.0
3.0;1753877734.716906;14.160101;0.74;-1.47;-0.26;0.318768;0.932996;0.005818;0.0;0.0;0.0;0.0;0.0;0.0
3.0;1753877734.721638;14.129578;0.76;-1.36;-0.27;0.318234;0.932337;0.007064;0.0;0.0;0.0;0.0;0.0;0.0
3.0;1753877734.726368;14.170601;0.66;-1.35;-0.26;0.318022;0.932039;0.006776;0.0;0.0;0.0;0.0;0.0;0.0
3.0;1753877734.731099;14.177329;0.67;-1.32;-0.21;0.317444;0.932049;0.006471;0.0;0.0;0.0;0.0;0.0;0.0
3.0;1753877734.73583;14.171184;0.73;-1.37;-0.27;0.319878;0.932643;0.005039;0.0;0.0;0.0;0.0;0.0;0.0
3.0;1753877734.740561;14.119462;0.72;-1.38;-0.23;0.317393;0.9345;0.004776;0.0;0.0;0.0;0.0;0.0;0.0
3.0;1753877734.745292;14.17484;0.75;-1.46;-0.24;0.316912;0.9338;0.005189;0.0;0.0;0.0;0.0;0.0;0.0
3.0;1753877734.750023;14.128895;0.74;-1.42;-0.3;0.317167;0.932697;0.005611;0.0;0.0;0.0;0.0;0.0;0.0
3.0;1753877734.754754;14.185982;0.74;-1.48;-0.25;0.317845;0.933419;0.00512;0.0;0.0;0.0;0.0;0.0;0.0
3.0;1753877734.759485;14.176128;0.67;-1.5;-0.27;0.317397;0.932236;0.005804;0.0;0.0;0.0;0.0;0.0;0.0
3.0;1753877734.764216;14.142841;0.62;-1.34;-0.23;0.316712;0.931686;0.004275;0.0;0.0;0.0;0.0;0.0;0.0
3.0;1753877734.768947;14.174062;0.76;-1.44;-0.38;0.319208;0.932016;0.004929;0.0;0.0;0.0;0.0;0.0;0.0
3.0;1753877734.773678;14.166624;0.71;-1.33;-0.21;0.317921;0.932825;0.006016;0.0;0.0;0.0;0.0;0.0;0.0
3.0;1753877734.778409;14.151065;0.76;-1.35;-0.29;0.317491;0.933381;0.005811;0.0;0.0;0.0;0.0;0.0;0.0
3.0;1753877734.78314;14.173147;0.7;-1.51;-0.33;0.317392;0.933928;0.005189;0.0;0.0;0.0;0.0;0.0;0.0
3.0;1753877734.787871;14.200098;0.72;-1.34;-0.18;0.317883;0.931924;0.006728;0.0;0.0;0.0;0.0;0.0;0.0
3.0;1753877734.792602;14.181475;0.7;-1.37;-0.24;0.317517;0.933389;0.005065;0.0;0.0;0.0;0.0;0.0;0.0
3.0;1753877734.797332;14.125206;0.75;-1.41;-0.21;0.317192;0.932943;0.00652;0.0;0.0;0.0;0.0;0.0;0.0
3.0;1753877734.802064;14.145567;0.7;-1.38;-0.31;0.316268;0.931818;0.008037;0.0;0.0;0.0;0.0;0.0;0.0
3.0;1753877734.806794;14.184325;0.75;-1.34;-0.3;0.318242;0.931907;0.006275;0.0;0.0;0.0;0.0;0.0;0.0
3.0;1753877734.811525;14.18151;0.74;-1.47;-0.36;0.31804;0.931384;0.003374;0.0;0.0;0.0;0.0;0.0;0.0
3.0;1753877734.816256;14.122563;0.69;-1.41;-0.19;0.31722;0.93315;0.005267;0.0;0.0;0.0;0.0;0.0;0.0
3.0;1753877734.820987;14.195549;0.76;-1.4;-0.21;0.318544;0.93373;0.004461;0.0;0.0;0.0;0.0;0.0;0.0
3.0;1753877734.825718;14.129648;0.63;-1.36;-0.23;0.317877;0.934168;0.006739;0.0;0.0;0.0;0.0;0.0;0.0
3.0;1753877734.830449;14.145984;0.74;-1.31;-0.28;0.318063;0.932918;0.005295;0.0;0.0;0.0;0.0;0.0;0.0
3.0;1753877734.83518;14.136508;0.76;-1.45;-0.11;0.319379;0.932048;0.004714;0.0;0.0;0.0;0.0;0.0;0.0
3.0;1753877734.839911;14.155104;0.71;-1.38;-0.3;0.317842;0.932229;0.008022;0.0;0.0;0.0;0.0;0.0;0.0
3.0;1753877734.844642;14.171338;0.62;-1.49;-0.23;0.317068;0.932604;0.004842;0.0;0.0;0.0;0.0;0.0;0.0
3.0;1753877734.849373;14.183629;0.76;-1.4;-0.23;0.317757;0.932456;0.005269;0.0;0.0;0.0;0.0;0.0;0.0
3.0;1753877734.854104;14.175481;0.73;-1.36;-0.21;0.316456;0.931001;0.004357;0.0;0.0;0.0;0.0;0.0;0.0
3.0;1753877734.858835;14.179425;0.8;-1.39;-0.29;0.317002;0.932753;0.005181;0.0;0.0;0.0;0.0;0.0;0.0
3.0;1753877734.863566;14.177586;0.69;-1.37;-0.29;0.316863;0.931847;0.005331;0.0;0.0;0.0;0.0;0.0;0.0
3.0;1753877734.868296;14.172852;0.77;-1.33;-0.24;0.316792;0.930927;0.005158;0.0;0.0;0.0;0.0;0.0;0.0
3.0;1753877734.873028;14.177993;0.73;-1.5;-0.25;0.315851;0.932766;0.006532;0.0;0.0;0.0;0.0;0.0;0.0
3.0;1753877734.877758;14.188847;0.72;-1.41;-0.21;0.316731;0.93256;0.003085;0.0;0.0;0.0;0.0;0.0;0.0
3.0;1753877734.88249;14.17619;0.75;-1.45;-0.21;0.315297;0.932988;0.003975;0.0;0.0;0.0;0.0;0.0;0.0
3.0;1753877734.88722;14.151256;0.74;-1.37;-0.21;0.317329;0.930772;0.003859;0.0;0.0;0.0;0.0;0.0;0.0
3.0;1753877734.891951;14.155293;0.71;-1.43;-0.23;0.316889;0.933275;0.005618;0.0;0.0;0.0;0.0;0.0;0.0
3.0;1753877734.896682;14.152597;0.72;-1.34;-0.17;0.314986;0.932374;0.006504;0.0;0.0;0.0;0.0;0.0;0.0
3.0;1753877734.901413;14.141372;0.69;-1.42;-0.18;0.317574;0.932201;0.004187;0.0;0.0;0.0;0.0;0.0;0.0
3.0;1753877734.906144;14.168137;0.7;-1.36;-0.27;0.317508;0.932454;0.007722;0.0;0.0;0.0;0.0;0.0;0.0
3.0;1753877734.910875;14.159344;0.71;-1.3;-0.2;0.317752;0.932973;0.00289;0.0;0.0;0.0;0.0;0.0;0.0
3.0;1753877734.915606;14.144053;0.7;-1.44;-0.28;0.317259;0.932525;0.003889;0.0;0.0;0.0;0.0;0.0;0.0
3.0;1753877734.920337;14.173428;0.71;-1.38;-0.23;0.316597;0.931485;0.007463;0.0;0.0;0.0;0.0;0.0;0.0
3.0;1753877734.925068;14.170122;0.68;-1.4;-0.19;0.316724;0.933228;0.004958;0.0;0.0;0.0;0.0;0.0;0.0
3.0;1753877734.929799;14.156724;0.66;-1.42;-0.26;0.315117;0.931873;0.005817;0.0;0.0;0.0;0.0;0.0;0.0
3.0;1753877734.93453;14.154574;0.69;-1.37;-0.27;0.316928;0.932227;0.003542;0.0;0.0;0.0;0.0;0.0;0.0
3.0;1753877734.939261;14.166812;0.73;-1.29;-0.22;0.316168;0.931791;0.006122;0.0;0.0;0.0;0.0;0.0;0.0
3.0;1753877734.943992;14.162808;0.69;-1.4;-0.23;0.316143;0.933702;0.002889;0.0;0.0;0.0;0.0;0.0;0.0
3.0;1753877734.948722;14.188868;0.77;-1.43;-0.16;0.315426;0.93315;0.003646;0.0;0.0;0.0;0.0;0.0;0.0
3.0;1753877734.953454;14.149125;0.75;-1.48;-0.26;0.316296;0.933292;0.005719;0.0;0.0;0.0;0.0;0.0;0.0
3.0;1753877734.958184;14.183584;0.65;-1.48;-0.26;0.314743;0.933152;0.004371;0.0;0.0;0.0;0.0;0.0;0.0
3.0;1753877734.962916;14.124536;0.63;-1.29;-0.34;0.315859;0.932302;0.003472;0.0;0.0;0.0;0.0;0.0;0.0
3.0;1753877734.967646;14.124977;0.71;-1.44;-0.15;0.316059;0.933863;0.003484;0.0;0.0;0.0;0.0;0.0;0.0
3.0;1753877734.972377;14.164076;0.68;-1.45;-0.19;0.316158;0.932296;0.004074;0.0;0.0;0.0;0.0;0.0;0.0
3.0;1753877734.977108;14.145002;0.75;-1.39;-0.18;0.316163;0.934701;0.004881;0.0;0.0;0.0;0.0;0.0;0.0
3.0;1753877734.983;14.164062;0.7;-1.4;-0.21;0.31598;0.933056;0.004758;0.0;0.0;0.0;0.0;0.0;0.0
3.0;1753877734.985404;14.1875;0.77;-1.4;-0.28;0.316956;0.931836;0.006466;0.0;0.0;0.0;0.0;0.0;0.0
3.0;1753877734.986616;14.1875;0.7;-1.26;-0.28;0.318054;0.931348;0.007808;0.0;0.0;0.0;0.0;0.0;0.0
3.0;1753877734.993811;14.1875;0.77;-1.4;-0.21;0.318054;0.931714;0.007442;0.0;0.0;0.0;0.0;0.0;0.0
3.0;1753877734.995572;14.179688;0.77;-1.4;-0.21;0.3172;0.932202;0.007442;0.0;0.0;0.0;0.0;0.0;0.0
3.0;1753877735.000303;14.178152;0.79;-1.38;-0.22;0.314852;0.931001;0.0082;0.0;0.0;0.0;0.0;0.0;0.0
3.0;1753877735.005034;14.178638;0.87;-1.42;-0.13;0.317182;0.93113;0.007046;0.0;0.0;0.0;0.0;0.0;0.0
3.0;1753877735.009765;14.182123;0.75;-1.38;-0.23;0.315896;0.932692;0.006558;0.0;0.0;0.0;0.0;0.0;0.0
3.0;1753877735.014496;14.187786;0.64;-1.31;-0.18;0.315673;0.933857;0.007747;0.0;0.0;0.0;0.0;0.0;0.0
3.0;1753877735.019227;14.175842;0.74;-1.44;-0.22;0.317626;0.929231;0.007862;0.0;0.0;0.0;0.0;0.0;0.0
3.0;1753877735.023958;14.158808;0.76;-1.38;-0.19;0.318495;0.931628;0.007009;0.0;0.0;0.0;0.0;0.0;0.0
3.0;1753877735.028689;14.177915;0.74;-1.4;-0.21;0.316913;0.932593;0.006394;0.0;0.0;0.0;0.0;0.0;0.0
3.0;1753877735.03342;14.188778;0.83;-1.38;-0.27;0.317994;0.931841;0.007516;0.0;0.0;0.0;0.0;0.0;0.0
3.0;1753877735.03815;14.184214;0.76;-1.46;-0.28;0.316336;0.933589;0.007512;0.0;0.0;0.0;0.0;0.0;0.0
3.0;1753877735.042882;14.169086;0.71;-1.43;-0.24;0.318079;0.93186;0.007724;0.0;0.0;0.0;0.0;0.0;0.0
3.0;1753877735.047612;14.186579;0.82;-1.4;-0.23;0.318122;0.931477;0.007039;0.0;0.0;0.0;0.0;0.0;0.0
3.0;1753877735.052343;14.172216;0.82;-1.43;-0.22;0.31838;0.932033;0.006957;0.0;0.0;0.0;0.0;0.0;0.0
3.0;1753877735.057074;14.196655;0.67;-1.41;-0.19;0.317334;0.932213;0.008173;0.0;0.0;0.0;0.0;0.0;0.0
3.0;1753877735.061805;14.176875;0.86;-1.47;-0.21;0.317443;0.932376;0.006665;0.0;0.0;0.0;0.0;0.0;0.0
3.0;1753877735.066536;14.152411;0.7;-1.27;-0.18;0.315858;0.931477;0.006504;0.0;0.0;0.0;0.0;0.0;0.0
3.0;1753877735.071267;14.185467;0.66;-1.48;-0.21;0.317839;0.931904;0.008395;0.0;0.0;0.0;0.0;0.0;0.0
3.0;1753877735.075998;14.176698;0.69;-1.49;-0.21;0.318073;0.931921;0.006683;0.0;0.0;0.0;0.0;0.0;0.0
3.0;1753877735.080729;14.188467;0.8;-1.4;-0.23;0.315633;0.931385;0.007175;0.0;0.0;0.0;0.0;0.0;0.0
3.0;1753877735.08546;14.142216;0.68;-1.38;-0.27;0.316775;0.931749;0.006571;0.0;0.0;0.0;0.0;0.0;0.0
3.0;1753877735.090191;14.185608;0.78;-1.27;-0.12;0.318042;0.931769;0.007438;0.0;0.0;0.0;0.0;0.0;0.0
3.0;1753877735.094922;14.1922;0.8;-1.42;-0.06;0.319471;0.931502;0.007783;0.0;0.0;0.0;0.0;0.0;0.0
3.0;1753877735.099653;14.167167;0.71;-1.38;-0.22;0.315764;0.932926;0.007246;0.0;0.0;0.0;0.0;0.0;0.0
3.0;1753877735.104384;14.199138;0.68;-1.32;-0.24;0.318743;0.931772;0.00572;0.0;0.0;0.0;0.0;0.0;0.0
3.0;1753877735.109115;14.15361;0.71;-1.37;-0.26;0.317182;0.931208;0.007983;0.0;0.0;0.0;0.0;0.0;0.0
3.0;1753877735.113846;14.134625;0.72;-1.38;-0.24;0.316308;0.932519;0.007066;0.0;0.0;0.0;0.0;0.0;0.0
3.0;1753877735.118576;14.170214;0.76;-1.36;-0.26;0.319188;0.933837;0.008601;0.0;0.0;0.0;0.0;0.0;0.0
3.0;1753877735.123308;14.207778;0.8;-1.39;-0.22;0.317988;0.931591;0.007914;0.0;0.0;0.0;0.0;0.0;0.0
3.0;1753877735.128038;14.166023;0.75;-1.43;-0.17;0.316016;0.932958;0.007955;0.0;0.0;0.0;0.0;0.0;0.0
3.0;1753877735.132769;14.174325;0.81;-1.4;-0.28;0.317217;0.931983;0.007769;0.0;0.0;0.0;0.0;0.0;0.0
3.0;1753877735.1375;14.190982;0.74;-1.37;-0.18;0.317856;0.932271;0.007731;0.0;0.0;0.0;0.0;0.0;0.0
3.0;1753877735.142231;14.172382;0.84;-1.34;-0.13;0.318305;0.931859;0.00806;0.0;0.0;0.0;0.0;0.0;0.0
3.0;1753877735.146962;14.206798;0.61;-1.42;-0.21;0.317207;0.932798;0.007686;0.0;0.0;0.0;0.0;0.0;0.0
3.0;1753877735.151693;14.199597;0.64;-1.37;-0.2;0.315245;0.930953;0.007173;0.0;0.0;0.0;0.0;0.0;0.0
3.0;1753877735.156424;14.171559;0.71;-1.34;-0.1;0.317176;0.930973;0.007963;0.0;0.0;0.0;0.0;0.0;0.0
3.0;1753877735.161155;14.16466;0.76;-1.42;-0.11;0.318141;0.932161;0.006892;0.0;0.0;0.0;0.0;0.0;0.0
3.0;1753877735.165886;14.184743;0.82;-1.33;-0.27;0.317777;0.93414;0.006908;0.0;0.0;0.0;0.0;0.0;0.0
3.0;1753877735.170617;14.196013;0.69;-1.39;-0.17;0.315384;0.932117;0.007305;0.0;0.0;0.0;0.0;0.0;0.0
3.0;1753877735.175348;14.193346;0.69;-1.31;-0.25;0.316061;0.931899;0.007944;0.0;0.0;0.0;0.0;0.0;0.0
3.0;1753877735.180079;14.170598;0.79;-1.37;-0.14;0.317004;0.932405;0.007261;0.0;0.0;0.0;0.0;0.0;0.0
3.0;1753877735.18481;14.154023;0.59;-1.5;-0.24;0.31756;0.933594;0.007476;0.0;0.0;0.0;0.0;0.0;0.0
3.0;1753877735.18954;14.167524;0.75;-1.31;-0.14;0.318672;0.932901;0.006574;0.0;0.0;0.0;0.0;0.0;0.0
3.0;1753877735.194272;14.196559;0.61;-1.3;-0.26;0.317642;0.932385;0.008123;0.0;0.0;0.0;0.0;0.0;0.0
3.0;1753877735.199002;14.20231;0.74;-1.32;-0.24;0.316879;0.931386;0.007677;0.0;0.0;0.0;0.0;0.0;0.0
3.0;1753877735.203734;14.203176;0.75;-1.37;-0.22;0.316941;0.932315;0.006887;0.0;0.0;0.0;0.0;0.0;0.0
3.0;1753877735.208464;14.179286;0.83;-1.35;-0.13;0.317716;0.9325;0.007214;0.0;0.0;0.0;0.0;0.0;0.0
3.0;1753877735.213195;14.181319;0.75;-1.43;-0.23;0.316599;0.932366;0.007309;0.0;0.0;0.0;0.0;0.0;0.0
3.0;1753877735.217926;14.167379;0.61;-1.41;-0.12;0.317902;0.933662;0.00807;0.0;0.0;0.0;0.0;0.0;0.0
3.0;1753877735.222657;14.201248;0.71;-1.31;-0.23;0.316504;0.931907;0.008511;0.0;0.0;0.0;0.0;0.0;0.0
3.0;1753877735.227388;14.190871;0.75;-1.4;-0.2;0.318633;0.933304;0.007594;0.0;0.0;0.0;0.0;0.0;0.0
3.0;1753877735.232119;14.186766;0.8;-1.24;-0.23;0.318672;0.932302;0.007906;0.0;0.0;0.0;0.0;0.0;0.0
3.0;1753877735.23685;14.142871;0.77;-1.32;-0.21;0.317762;0.931128;0.006739;0.0;0.0;0.0;0.0;0.0;0.0
3.0;1753877735.241581;14.18084;0.65;-1.42;-0.22;0.317956;0.932799;0.006944;0.0;0.0;0.0;0.0;0.0;0.0
3.0;1753877735.246312;14.16883;0.67;-1.33;-0.21;0.317157;0.932985;0.007027;0.0;0.0;0.0;0.0;0.0;0.0
3.0;1753877735.251043;14.167771;0.69;-1.37;-0.2;0.317813;0.93399;0.006806;0.0;0.0;0.0;0.0;0.0;0.0
3.0;1753877735.255774;14.207363;0.74;-1.33;-0.17;0.317466;0.933421;0.008124;0.0;0.0;0.0;0.0;0.0;0.0
3.0;1753877735.260505;14.186254;0.74;-1.38;-0.18;0.315905;0.931904;0.006694;0.0;0.0;0.0;0.0;0.0;0.0
3.0;1753877735.265236;14.17982;0.76;-1.3;-0.17;0.31647;0.931623;0.006567;0.0;0.0;0.0;0.0;0.0;0.0
3.0;1753877735.269966;14.186891;0.67;-1.38;-0.21;0.317813;0.933471;0.005878;0.0;0.0;0.0;0.0;0.0;0.0
3.0;1753877735.274698;14.187502;0.66;-1.37;-0.22;0.317463;0.931839;0.007657;0.0;0.0;0.0;0.0;0.0;0.0
3.0;1753877735.279428;14.192174;0.69;-1.34;-0.29;0.318916;0.932449;0.008284;0.0;0.0;0.0;0.0;0.0;0.0
3.0;1753877735.28416;14.16999;0.6;-1.3;-0.24;0.317914;0.93226;0.008453;0.0;0.0;0.0;0.0;0.0;0.0
3.0;1753877735.28889;14.186764;0.66;-1.32;-0.3;0.318061;0.931604;0.007635;0.0;0.0;0.0;0.0;0.0;0.0
3.0;1753877735.293621;14.189723;0.68;-1.34;-0.2;0.31777;0.932411;0.007579;0.0;0.0;0.0;0.0;0.0;0.0
3.0;1753877735.298352;14.18861;0.65;-1.39;-0.18;0.31702;0.931349;0.008106;0.0;0.0;0.0;0.0;0.0;0.0
3.0;1753877735.303083;14.214472;0.63;-1.37;-0.21;0.318119;0.933522;0.007526;0.0;0.0;0.0;0.0;0.0;0.0
3.0;1753877735.307814;14.187418;0.64;-1.24;-0.24;0.317478;0.934187;0.007249;0.0;0.0;0.0;0.0;0.0;0.0
3.0;1753877735.313;14.179688;0.7;-1.33;-0.21;0.3172;0.93269;0.00732;0.0;0.0;0.0;0.0;0.0;0.0
3.0;1753877735.317731;14.157727;0.67;-1.37;-0.19;0.316745;0.933013;0.008102;0.0;0.0;0.0;0.0;0.0;0.0
3.0;1753877735.322462;14.182227;0.66;-1.41;-0.23;0.318173;0.933654;0.008594;0.0;0.0;0.0;0.0;0.0;0.0
3.0;1753877735.327193;14.197445;0.81;-1.22;-0.19;0.316673;0.933121;0.006702;0.0;0.0;0.0;0.0;0.0;0.0
3.0;1753877735.331924;14.158217;0.68;-1.34;-0.26;0.318104;0.931703;0.006059;0.0;0.0;0.0;0.0;0.0;0.0
3.0;1753877735.336655;14.189667;0.67;-1.28;-0.14;0.316072;0.934036;0.006794;0.0;0.0;0.0;0.0;0.0;0.0
3.0;1753877735.341386;14.186535;0.67;-1.4;-0.13;0.31638;0.932541;0.007182;0.0;0.0;0.0;0.0;0.0;0.0
3.0;1753877735.346116;14.202181;0.66;-1.38;-0.23;0.316037;0.933582;0.007845;0.0;0.0;0.0;0.0;0.0;0.0
3.0;1753877735.350848;14.17356;0.65;-1.38;-0.12;0.316838;0.930994;0.007152;0.0;0.0;0.0;0.0;0.0;0.0
3.0;1753877735.355578;14.161251;0.69;-1.36;-0.19;0.31898;0.929913;0.00737;0.0;0.0;0.0;0.0;0.0;0.0
3.0;1753877735.360309;14.176865;0.75;-1.32;-0.09;0.318157;0.933885;0.007167;0.0;0.0;0.0;0.0;0.0;0.0
3.0;1753877735.36504;14.198881;0.73;-1.35;-0.23;0.317454;0.933104;0.006847;0.0;0.0;0.0;0.0;0.0;0.0
3.0;1753877735.369771;14.170639;0.78;-1.31;-0.15;0.318183;0.931675;0.007873;0.0;0.0;0.0;0.0;0.0;0.0
3.0;1753877735.374502;14.191387;0.66;-1.36;-0.33;0.318688;0.932675;0.007323;0.0;0.0;0.0;0.0;0.0;0.0
3.0;1753877735.379233;14.167574;0.71;-1.32;-0.24;0.318628;0.931924;0.007571;0.0;0.0;0.0;0.0;0.0;0.0
3.0;1753877735.383964;14.164362;0.78;-1.31;-0.18;0.317533;0.931572;0.006803;0.0;0.0;0.0;0.0;0.0;0.0
3.0;1753877735.388695;14.174999;0.71;-1.38;-0.22;0.317944;0.932656;0.007242;0.0;0.0;0.0;0.0;0.0;0.0
3.0;1753877735.393426;14.173167;0.77;-1.31;-0.25;0.319313;0.933278;0.008871;0.0;0.0;0.0;0.0;0.0;0.0
3.0;1753877735.398157;14.171448;0.75;-1.34;-0.19;0.318684;0.932093;0.007351;0.0;0.0;0.0;0.0;0.0;0.0
3.0;1753877735.402888;14.165705;0.73;-1.39;-0.28;0.317712;0.931294;0.007442;0.0;0.0;0.0;0.0;0.0;0.0
3.0;1753877735.407619;14.18303;0.67;-1.3;-0.26;0.317743;0.930328;0.007134;0.0;0.0;0.0;0.0;0.0;0.0
3.0;1753877735.41235;14.188076;0.84;-1.37;-0.25;0.318028;0.932968;0.008204;0.0;0.0;0.0;0.0;0.0;0.0
3.0;1753877735.417081;14.195791;0.8;-1.27;-0.24;0.317509;0.933171;0.007345;0.0;0.0;0.0;0.0;0.0;0.0
3.0;1753877735.421812;14.176853;0.71;-1.4;-0.31;0.317041;0.933688;0.006998;0.0;0.0;0.0;0.0;0.0;0.0
3.0;1753877735.426542;14.165168;0.77;-1.33;-0.16;0.317138;0.93124;0.007007;0.0;0.0;0.0;0.0;0.0;0.0
3.0;1753877735.431274;14.185326;0.73;-1.36;-0.16;0.317135;0.931883;0.007055;0.0;0.0;0.0;0.0;0.0;0.0
3.0;1753877735.436004;14.195898;0.75;-1.25;-0.17;0.319546;0.931645;0.007869;0.0;0.0;0.0;0.0;0.0;0.0
3.0;1753877735.440735;14.18221;0.67;-1.4;-0.24;0.318671;0.934212;0.006744;0.0;0.0;0.0;0.0;0.0;0.0
3.0;1753877735.445466;14.173339;0.67;-1.29;-0.14;0.317566;0.933455;0.007495;0.0;0.0;0.0;0.0;0.0;0.0
3.0;1753877735.450197;14.198774;0.7;-1.28;-0.16;0.316321;0.931603;0.007934;0.0;0.0;0.0;0.0;0.0;0.0
3.0;1753877735.454928;14.172941;0.73;-1.38;-0.18;0.316141;0.932501;0.007607;0.0;0.0;0.0;0.0;0.0;0.0
3.0;1753877735.459659;14.166875;0.66;-1.27;-0.19;0.318793;0.932848;0.007457;0.0;0.0;0.0;0.0;0.0;0.0
3.0;1753877735.46439;14.196665;0.8;-1.31;-0.15;0.318014;0.934553;0.006799;0.0;0.0;0.0;0.0;0.0;0.0
3.0;1753877735.469121;14.20563;0.77;-1.32;-0.17;0.318862;0.930175;0.006229;0.0;0.0;0.0;0.0;0.0;0.0
3.0;1753877735.473852;14.165286;0.69;-1.33;-0.25;0.318445;0.931132;0.007512;0.0;0.0;0.0;0.0;0.0;0.0
3.0;1753877735.478583;14.194653;0.8;-1.38;-0.28;0.320474;0.932098;0.006379;0.0;0.0;0.0;0.0;0.0;0.0
3.0;1753877735.483314;14.182214;0.69;-1.31;-0.2;0.317812;0.930431;0.006679;0.0;0.0;0.0;0.0;0.0;0.0
3.0;1753877735.488045;14.1887;0.73;-1.25;-0.16;0.317862;0.930706;0.006955;0.0;0.0;0.0;0.0;0.0;0.0
3.0;1753877735.492776;14.182345;0.8;-1.3;-0.3;0.319422;0.932751;0.007144;0.0;0.0;0.0;0.0;0.0;0.0
3.0;1753877735.497506;14.171535;0.89;-1.29;-0.19;0.317827;0.933165;0.008262;0.0;0.0;0.0;0.0;0.0;0.0
3.0;1753877735.502238;14.161289;0.8;-1.4;-0.13;0.317713;0.93253;0.006995;0.0;0.0;0.0;0.0;0.0;0.0
3.0;1753877735.506968;14.171306;0.72;-1.26;-0.27;0.31947;0.93251;0.007414;0.0;0.0;0.0;0.0;0.0;0.0
3.0;1753877735.5117;14.200891;0.8;-1.35;-0.31;0.315981;0.93192;0.00716;0.0;0.0;0.0;0.0;0.0;0.0
3.0;1753877735.51643;14.161278;0.74;-1.32;-0.22;0.320028;0.932423;0.00761;0.0;0.0;0.0;0.0;0.0;0.0
3.0;1753877735.521161;14.168445;0.81;-1.3;-0.25;0.317315;0.932827;0.007981;0.0;0.0;0.0;0.0;0.0;0.0
3.0;1753877735.525892;14.169857;0.86;-1.38;-0.19;0.31716;0.929852;0.007435;0.0;0.0;0.0;0.0;0.0;0.0
3.0;1753877735.530623;14.177216;0.73;-1.35;-0.25;0.319979;0.929357;0.00763;0.0;0.0;0.0;0.0;0.0;0.0
3.0;1753877735.535354;14.181003;0.79;-1.34;-0.19;0.317406;0.931691;0.007109;0.0;0.0;0.0;0.0;0.0;0.0
3.0;1753877735.540085;14.184523;0.84;-1.28;-0.18;0.318097;0.932548;0.008227;0.0;0.0;0.0;0.0;0.0;0.0
3.0;1753877735.544816;14.194014;0.81;-1.33;-0.24;0.317783;0.932001;0.006266;0.0;0.0;0.0;0.0;0.0;0.0
3.0;1753877735.549547;14.179043;0.76;-1.39;-0.11;0.317228;0.932974;0.007596;0.0;0.0;0.0;0.0;0.0;0.0
3.0;1753877735.554278;14.178718;0.88;-1.21;-0.18;0.319684;0.932576;0.008037;0.0;0.0;0.0;0.0;0.0;0.0
3.0;1753877735.559009;14.188977;0.78;-1.35;-0.18;0.317332;0.932478;0.007637;0.0;0.0;0.0;0.0;0.0;0.0
3.0;1753877735.56374;14.195671;0.82;-1.3;-0.16;0.319975;0.93191;0.007048;0.0;0.0;0.0;0.0;0.0;0.0
3.0;1753877735.568471;14.203592;0.86;-1.35;-0.3;0.318647;0.931571;0.00673;0.0;0.0;0.0;0.0;0.0;0.0
3.0;1753877735.573202;14.178157;0.74;-1.42;-0.2;0.320277;0.931721;0.007038;0.0;0.0;0.0;0.0;0.0;0.0
3.0;1753877735.577932;14.181443;0.74;-1.34;-0.17;0.320117;0.931099;0.007059;0.0;0.0;0.0;0.0;0.0;0.0
3.0;1753877735.582664;14.212336;0.76;-1.35;-0.31;0.316227;0.932825;0.007083;0.0;0.0;0.0;0.0;0.0;0.0
3.0;1753877735.587394;14.177567;0.87;-1.34;-0.22;0.317251;0.932567;0.007627;0.0;0.0;0.0;0.0;0.0;0.0
3.0;1753877735.592126;14.199327;0.83;-1.39;-0.2;0.319693;0.933001;0.007351;0.0;0.0;0.0;0.0;0.0;0.0
3.0;1753877735.596856;14.203821;0.91;-1.25;-0.22;0.317658;0.932994;0.006531;0.0;0.0;0.0;0.0;0.0;0.0
3.0;1753877735.601587;14.159054;0.85;-1.34;-0.27;0.3172;0.931186;0.007922;0.0;0.0;0.0;0.0;0.0;0.0
3.0;1753877735.606318;14.180973;0.77;-1.34;-0.22;0.318728;0.931957;0.007212;0.0;0.0;0.0;0.0;0.0;0.0
3.0;1753877735.611049;14.187654;0.87;-1.32;-0.26;0.318198;0.930878;0.00872;0.0;0.0;0.0;0.0;0.0;0.0
3.0;1753877735.61578;14.190087;0.85;-1.38;-0.27;0.318377;0.931185;0.007803;0.0;0.0;0.0;0.0;0.0;0.0
3.0;1753877735.620511;14.217462;0.79;-1.31;-0.2;0.318703;0.931401;0.00733;0.0;0.0;0.0;0.0;0.0;0.0
3.0;1753877735.625242;14.179964;0.8;-1.25;-0.26;0.320742;0.933293;0.008389;0.0;0.0;0.0;0.0;0.0;0.0
3.0;1753877735.629973;14.205288;0.84;-1.38;-0.22;0.317451;0.933938;0.007124;0.0;0.0;0.0;0.0;0.0;0.0
3.0;1753877735.634704;14.198289;0.77;-1.38;-0.26;0.31988;0.933633;0.007433;0.0;0.0;0.0;0.0;0.0;0.0
3.0;1753877735.639435;14.187289;0.82;-1.33;-0.21;0.318842;0.932528;0.008033;0.0;0.0;0.0;0.0;0.0;0.0
3.0;1753877735.644166;14.180488;0.82;-1.33;-0.19;0.319083;0.931482;0.007085;0.0;0.0;0.0;0.0;0.0;0.0
3.0;1753877735.648897;14.198972;0.78;-1.31;-0.28;0.317957;0.931558;0.006503;0.0;0.0;0.0;0.0;0.0;0.0
3.0;1753877735.653628;14.21103;0.8;-1.21;-0.26;0.319018;0.932496;0.007148;0.0;0.0;0.0;0.0;0.0;0.0
3.0;1753877735.658358;14.16222;0.79;-1.33;-0.25;0.31798;0.932016;0.006918;0.0;0.0;0.0;0.0;0.0;0.0
3.0;1753877735.66309;14.159284;0.79;-1.28;-0.21;0.317569;0.932982;0.007422;0.0;0.0;0.0;0.0;0.0;0.0
3.0;1753877735.66782;14.174596;0.91;-1.31;-0.3;0.318914;0.93254;0.007945;0.0;0.0;0.0;0.0;0.0;0.0
3.0;1753877735.6749;14.179688;0.84;-1.33;-0.21;0.318786;0.931958;0.007564;0.0;0.0;0.0;0.0;0.0;0.0
3.0;1753877735.679631;14.195746;0.83;-1.21;-0.22;0.316035;0.932206;0.006934;0.0;0.0;0.0;0.0;0.0;0.0
3.0;1753877735.684362;14.181059;0.79;-1.36;-0.26;0.319632;0.934013;0.008551;0.0;0.0;0.0;0.0;0.0;0.0
3.0;1753877735.689093;14.20276;0.87;-1.33;-0.16;0.318475;0.93086;0.005978;0.0;0.0;0.0;0.0;0.0;0.0
3.0;1753877735.693824;14.170396;0.82;-1.34;-0.26;0.318373;0.932244;0.00727;0.0;0.0;0.0;0.0;0.0;0.0
3.0;1753877735.698555;14.170617;0.86;-1.25;-0.13;0.320195;0.930935;0.007408;0.0;0.0;0.0;0.0;0.0;0.0
3.0;1753877735.703286;14.193425;0.76;-1.34;-0.28;0.318512;0.933017;0.008073;0.0;0.0;0.0;0.0;0.0;0.0
3.0;1753877735.708017;14.175447;0.73;-1.33;-0.24;0.316792;0.933348;0.007801;0.0;0.0;0.0;0.0;0.0;0.0
3.0;1753877735.712748;14.186095;0.82;-1.34;-0.13;0.318427;0.931653;0.007089;0.0;0.0;0.0;0.0;0.0;0.0
3.0;1753877735.717478;14.194531;0.72;-1.35;-0.23;0.317518;0.931206;0.006755;0.0;0.0;0.0;0.0;0.0;0.0
3.0;1753877735.72221;14.203776;0.84;-1.36;-0.15;0.318481;0.931582;0.007406;0.0;0.0;0.0;0.0;0.0;0.0
3.0;1753877735.72694;14.167695;0.97;-1.28;-0.22;0.319505;0.932278;0.007715;0.0;0.0;0.0;0.0;0.0;0.0
3.0;1753877735.731671;14.163267;0.83;-1.26;-0.1;0.316995;0.933312;0.007614;0.0;0.0;0.0;0.0;0.0;0.0
3.0;1753877735.736402;14.165484;0.89;-1.29;-0.23;0.320541;0.930922;0.007062;0.0;0.0;0.0;0.0;0.0;0.0
3.0;1753877735.741133;14.167592;0.91;-1.32;-0.21;0.31941;0.934202;0.007253;0.0;0.0;0.0;0.0;0.0;0.0
3.0;1753877735.745864;14.182536;0.84;-1.24;-0.13;0.316843;0.931458;0.006489;0.0;0.0;0.0;0.0;0.0;0.0
3.0;1753877735.750595;14.193432;0.8;-1.31;-0.22;0.319956;0.934104;0.007057;0.0;0.0;0.0;0.0;0.0;0.0
3.0;1753877735.755326;14.166617;0.85;-1.34;-0.15;0.316615;0.930256;0.00786;0.0;0.0;0.0;0.0;0.0;0.0
3.0;1753877735.760057;14.198813;0.78;-1.38;-0.24;0.319508;0.930878;0.006918;0.0;0.0;0.0;0.0;0.0;0.0
3.0;1753877735.764788;14.142514;0.75;-1.33;-0.21;0.318875;0.93177;0.007726;0.0;0.0;0.0;0.0;0.0;0.0
3.0;1753877735.769519;14.183546;0.85;-1.33;-0.2;0.318631;0.93285;0.005835;0.0;0.0;0.0;0.0;0.0;0.0
3.0;1753877735.77425;14.148934;0.75;-1.25;-0.16;0.31904;0.932882;0.007064;0.0;0.0;0.0;0.0;0.0;0.0
3.0;1753877735.778981;14.170196;0.73;-1.29;-0.24;0.318838;0.932605;0.006848;0.0;0.0;0.0;0.0;0.0;0.0
3.0;1753877735.783712;14.195865;0.84;-1.28;-0.23;0.320587;0.934085;0.007612;0.0;0.0;0.0;0.0;0.0;0.0
3.0;1753877735.788442;14.1511;0.82;-1.3;-0.16;0.318935;0.932623;0.005854;0.0;0.0;0.0;0.0;0.0;0.0
3.0;1753877735.793174;14.170563;0.81;-1.33;-0.14;0.319563;0.931042;0.006848;0.0;0.0;0.0;0.0;0.0;0.0
3.0;1753877735.797904;14.164752;0.85;-1.32;-0.24;0.317502;0.933448;0.006805;0.0;0.0;0.0;0.0;0.0;0.0
3.0;1753877735.802636;14.168645;0.89;-1.29;-0.18;0.317472;0.931735;0.006424;0.0;0.0;0.0;0.0;0.0;0.0
3.0;1753877735.807366;14.188695;0.78;-1.27;-0.18;0.317553;0.932118;0.007735;0.0;0.0;0.0;0.0;0.0;0.0
3.0;1753877735.812097;14.188769;0.82;-1.27;-0.22;0.317551;0.932337;0.006816;0.0;0.0;0.0;0.0;0.0;0.0
3.0;1753877735.816828;14.166643;0.79;-1.27;-0.25;0.316835;0.933285;0.00709;0.0;0.0;0.0;0.0;0.0;0.0
3.0;1753877735.821559;14.190861;0.93;-1.32;-0.19;0.317114;0.931209;0.0075;0.0;0.0;0.0;0.0;0.0;0.0
3.0;1753877735.82629;14.197534;0.85;-1.34;-0.18;0.315491;0.933449;0.006535;0.0;0.0;0.0;0.0;0.0;0.0
3.0;1753877735.831021;14.190493;0.85;-1.34;-0.16;0.318488;0.932963;0.007675;0.0;0.0;0.0;0.0;0.0;0.0
3.0;1753877735.835752;14.162593;0.76;-1.31;-0.21;0.319784;0.934218;0.007518;0.0;0.0;0.0;0.0;0.0;0.0
3.0;1753877735.840483;14.186324;0.84;-1.35;-0.21;0.317189;0.933909;0.007199;0.0;0.0;0.0;0.0;0.0;0.0
3.0;1753877735.845214;14.151621;0.79;-1.29;-0.21;0.3183;0.93324;0.005834;0.0;0.0;0.0;0.0;0.0;0.0
3.0;1753877735.849945;14.186581;0.92;-1.23;-0.17;0.316808;0.934318;0.008231;0.0;0.0;0.0;0.0;0.0;0.0
3.0;1753877735.854676;14.180736;0.9;-1.34;-0.21;0.318441;0.935836;0.00638;0.0;0.0;0.0;0.0;0.0;0.0
3.0;1753877735.859407;14.180258;0.85;-1.26;-0.1;0.316567;0.933105;0.007095;0.0;0.0;0.0;0.0;0.0;0.0
3.0;1753877735.864138;14.195781;0.82;-1.35;-0.2;0.318001;0.932854;0.006532;0.0;0.0;0.0;0.0;0.0;0.0
3.0;1753877735.868868;14.177595;0.86;-1.29;-0.08;0.316053;0.932614;0.007403;0.0;0.0;0.0;0.0;0.0;0.0
3.0;1753877735.8736;14.195866;0.78;-1.23;-0.31;0.317867;0.933618;0.005829;0.0;0.0;0.0;0.0;0.0;0.0
3.0;1753877735.87833;14.192638;0.91;-1.25;-0.17;0.318531;0.932444;0.006792;0.0;0.0;0.0;0.0;0.0;0.0
3.0;1753877735.883062;14.164314;0.8;-1.32;-0.12;0.317469;0.93335;0.008134;0.0;0.0;0.0;0.0;0.0;0.0
3.0;1753877735.887792;14.175873;0.78;-1.37;-0.24;0.320188;0.934186;0.006725;0.0;0.0;0.0;0.0;0.0;0.0
3.0;1753877735.892523;14.17213;0.87;-1.37;-0.25;0.316015;0.931392;0.00716;0.0;0.0;0.0;0.0;0.0;0.0
3.0;1753877735.897254;14.188047;0.83;-1.27;-0.22;0.31675;0.932235;0.006568;0.0;0.0;0.0;0.0;0.0;0.0
3.0;1753877735.901985;14.166278;0.83;-1.31;-0.21;0.316501;0.933211;0.006536;0.0;0.0;0.0;0.0;0.0;0.0
3.0;1753877735.906716;14.159059;0.85;-1.27;-0.18;0.315333;0.933386;0.005376;0.0;0.0;0.0;0.0;0.0;0.0
3.0;1753877735.911447;14.192416;0.9;-1.25;-0.15;0.317661;0.932781;0.006979;0.0;0.0;0.0;0.0;0.0;0.0
3.0;1753877735.916178;14.161934;0.87;-1.23;-0.16;0.318422;0.935056;0.006392;0.0;0.0;0.0;0.0;0.0;0.0
3.0;1753877735.920909;14.185365;0.84;-1.12;-0.19;0.316754;0.932394;0.006618;0.0;0.0;0.0;0.0;0.0;0.0
3.0;1753877735.92564;14.210838;0.85;-1.25;-0.23;0.315168;0.933565;0.006643;0.0;0.0;0.0;0.0;0.0;0.0
3.0;1753877735.930371;14.167274;0.75;-1.18;-0.28;0.31656;0.933078;0.006634;0.0;0.0;0.0;0.0;0.0;0.0
3.0;1753877735.935102;14.174282;0.79;-1.38;-0.22;0.315107;0.933002;0.006159;0.0;0.0;0.0;0.0;0.0;0.0
3.0;1753877735.939833;14.191928;0.79;-1.23;-0.15;0.317113;0.93229;0.006152;0.0;0.0;0.0;0.0;0.0;0.0
3.0;1753877735.944564;14.187686;0.89;-1.27;-0.11;0.315428;0.932697;0.006738;0.0;0.0;0.0;0.0;0.0;0.0
3.0;1753877735.949294;14.162287;0.87;-1.21;-0.16;0.31591;0.932023;0.006441;0.0;0.0;0.0;0.0;0.0;0.0
3.0;1753877735.954026;14.191342;0.78;-1.34;-0.12;0.317052;0.931697;0.007689;0.0;0.0;0.0;0.0;0.0;0.0
3.0;1753877735.958756;14.178475;0.93;-1.28;-0.25;0.316148;0.931802;0.007362;0.0;0.0;0.0;0.0;0.0;0.0
3.0;1753877735.9643;14.179688;0.84;-1.26;-0.21;0.31659;0.9333;0.006344;0.0;0.0;0.0;0.0;0.0;0.0
3.0;1753877735.969975;14.179688;0.63;-1.26;-0.21;0.316834;0.931104;0.0061;0.0;0.0;0.0;0.0;0.0;0.0
3.0;1753877735.974351;14.179688;0.7;-1.33;-0.21;0.317566;0.9333;0.00732;0.0;0.0;0.0;0.0;0.0;0.0
3.0;1753877735.978194;14.179688;0.63;-1.33;-0.21;0.318542;0.932324;0.006832;0.0;0.0;0.0;0.0;0.0;0.0
3.0;1753877735.982889;14.179688;0.77;-1.33;-0.14;0.317444;0.931836;0.007808;0.0;0.0;0.0;0.0;0.0;0.0
3.0;1753877735.989757;14.195312;0.77;-1.33;-0.21;0.317078;0.932202;0.007198;0.0;0.0;0.0;0.0;0.0;0.0
3.0;1753877735.993333;14.195312;0.63;-1.26;-0.21;0.318908;0.93208;0.00549;0.0;0.0;0.0;0.0;0.0;0.0
3.0;1753877735.996823;14.195312;0.63;-1.4;-0.21;0.318908;0.93208;0.00549;0.0;0.0;0.0;0.0;0.0;0.0
3.0;1753877736.001554;14.199782;0.53;-1.39;-0.21;0.318155;0.931221;0.005101;0.0;0.0;0.0;0.0;0.0;0.0
3.0;1753877736.006285;14.21332;0.55;-1.44;-0.24;0.318393;0.932088;0.00541;0.0;0.0;0.0;0.0;0.0;0.0
3.0;1753877736.011016;14.198231;0.67;-1.38;-0.23;0.318636;0.932357;0.005388;0.0;0.0;0.0;0.0;0.0;0.0
3.0;1753877736.015747;14.188798;0.55;-1.3;-0.17;0.3197;0.93188;0.006251;0.0;0.0;0.0;0.0;0.0;0.0
3.0;1753877736.020478;14.166701;0.6;-1.48;-0.21;0.318507;0.932492;0.005204;0.0;0.0;0.0;0.0;0.0;0.0
3.0;1753877736.025209;14.188225;0.52;-1.36;-0.26;0.318081;0.932074;0.005946;0.0;0.0;0.0;0.0;0.0;0.0
3.0;1753877736.02994;14.185061;0.66;-1.38;-0.28;0.318496;0.93248;0.004838;0.0;0.0;0.0;0.0;0.0;0.0
3.0;1753877736.03467;14.19672;0.6;-1.41;-0.24;0.317746;0.932117;0.005032;0.0;0.0;0.0;0.0;0.0;0.0
3.0;1753877736.039402;14.207899;0.64;-1.36;-0.26;0.320666;0.932007;0.005474;0.0;0.0;0.0;0.0;0.0;0.0
3.0;1753877736.044132;14.187801;0.66;-1.32;-0.23;0.318993;0.931771;0.006538;0.0;0.0;0.0;0.0;0.0;0.0
3.0;1753877736.048864;14.192007;0.67;-1.28;-0.25;0.317723;0.934066;0.006574;0.0;0.0;0.0;0.0;0.0;0.0
3.0;1753877736.053594;14.208247;0.6;-1.43;-0.19;0.317787;0.932089;0.006475;0.0;0.0;0.0;0.0;0.0;0.0
3.0;1753877736.058325;14.19424;0.64;-1.37;-0.25;0.319457;0.932707;0.00504;0.0;0.0;0.0;0.0;0.0;0.0
3.0;1753877736.063056;14.205742;0.6;-1.32;-0.25;0.320583;0.932583;0.005756;0.0;0.0;0.0;0.0;0.0;0.0
3.0;1753877736.067787;14.194175;0.59;-1.37;-0.23;0.31668;0.931473;0.005995;0.0;0.0;0.0;0.0;0.0;0.0
3.0;1753877736.072518;14.18712;0.56;-1.37;-0.25;0.318758;0.933206;0.003971;0.0;0.0;0.0;0.0;0.0;0.0
3.0;1753877736.077249;14.20329;0.54;-1.33;-0.22;0.319617;0.932952;0.00615;0.0;0.0;0.0;0.0;0.0;0.0
3.0;1753877736.08198;14.203121;0.69;-1.38;-0.22;0.317608;0.933632;0.005564;0.0;0.0;0.0;0.0;0.0;0.0
3.0;1753877736.086711;14.192963;0.59;-1.38;-0.27;0.318218;0.933175;0.005274;0.0;0.0;0.0;0.0;0.0;0.0
3.0;1753877736.091442;14.202625;0.76;-1.33;-0.25;0.317287;0.933082;0.005094;0.0;0.0;0.0;0.0;0.0;0.0
3.0;1753877736.096173;14.203612;0.55;-1.38;-0.25;0.317872;0.934152;0.00574;0.0;0.0;0.0;0.0;0.0;0.0
3.0;1753877736.100904;14.203879;0.69;-1.39;-0.27;0.320225;0.932981;0.006388;0.0;0.0;0.0;0.0;0.0;0.0
3.0;1753877736.105635;14.200058;0.63;-1.32;-0.25;0.316559;0.935413;0.006883;0.0;0.0;0.0;0.0;0.0;0.0
3.0;1753877736.110366;14.200129;0.56;-1.34;-0.29;0.318148;0.933075;0.005006;0.0;0.0;0.0;0.0;0.0;0.0
3.0;1753877736.115096;14.207336;0.68;-1.35;-0.28;0.319465;0.931652;0.005349;0.0;0.0;0.0;0.0;0.0;0.0
3.0;1753877736.119828;14.193336;0.55;-1.35;-0.31;0.319007;0.932977;0.004966;0.0;0.0;0.0;0.0;0.0;0.0
3.0;1753877736.124558;14.192956;0.59;-1.38;-0.29;0.31829;0.931725;0.004967;0.0;0.0;0.0;0.0;0.0;0.0
3.0;1753877736.12929;14.204906;0.69;-1.34;-0.28;0.31838;0.933618;0.005836;0.0;0.0;0.0;0.0;0.0;0.0
3.0;1753877736.13402;14.170776;0.58;-1.32;-0.26;0.317836;0.932152;0.005026;0.0;0.0;0.0;0.0;0.0;0.0
3.0;1753877736.138751;14.209665;0.52;-1.33;-0.27;0.316307;0.934114;0.006416;0.0;0.0;0.0;0.0;0.0;0.0
3.0;1753877736.143482;14.189314;0.61;-1.35;-0.25;0.31842;0.933945;0.007173;0.0;0.0;0.0;0.0;0.0;0.0
3.0;1753877736.148213;14.191833;0.59;-1.36;-0.19;0.317077;0.933325;0.005815;0.0;0.0;0.0;0.0;0.0;0.0
3.0;1753877736.152944;14.198449;0.7;-1.31;-0.25;0.316259;0.932854;0.005032;0.0;0.0;0.0;0.0;0.0;0.0
3.0;1753877736.1603;14.195312;0.63;-1.33;-0.28;0.317566;0.933788;0.005612;0.0;0.0;0.0;0.0;0.0;0.0
3.0;1753877736.165031;14.20282;0.64;-1.37;-0.27;0.316551;0.932709;0.006291;0.0;0.0;0.0;0.0;0.0;0.0
3.0;1753877736.169762;14.17172;0.73;-1.25;-0.27;0.316291;0.934049;0.005594;0.0;0.0;0.0;0.0;0.0;0.0
3.0;1753877736.174493;14.202137;0.69;-1.27;-0.32;0.31664;0.932569;0.006321;0.0;0.0;0.0;0.0;0.0;0.0
3.0;1753877736.179224;14.182749;0.73;-1.29;-0.3;0.317339;0.934268;0.005489;0.0;0.0;0.0;0.0;0.0;0.0
3.0;1753877736.183955;14.18504;0.62;-1.31;-0.32;0.317032;0.935554;0.005716;0.0;0.0;0.0;0.0;0.0;0.0
3.0;1753877736.188686;14.183249;0.64;-1.33;-0.28;0.318017;0.932562;0.006739;0.0;0.0;0.0;0.0;0.0;0.0
3.0;1753877736.193416;14.19718;0.5;-1.37;-0.3;0.318119;0.932536;0.006843;0.0;0.0;0.0;0.0;0.0;0.0
3.0;1753877736.198148;14.186361;0.6;-1.33;-0.29;0.316455;0.933218;0.005085;0.0;0.0;0.0;0.0;0.0;0.0
3.0;1753877736.202878;14.204322;0.71;-1.34;-0.28;0.318659;0.933364;0.006821;0.0;0.0;0.0;0.0;0.0;0.0
3.0;1753877736.20761;14.183127;0.75;-1.36;-0.28;0.31866;0.932711;0.005309;0.0;0.0;0.0;0.0;0.0;0.0
3.0;1753877736.21234;14.203646;0.63;-1.32;-0.3;0.318129;0.933605;0.005508;0.0;0.0;0.0;0.0;0.0;0.0
3.0;1753877736.217071;14.200716;0.51;-1.27;-0.29;0.316385;0.932906;0.006424;0.0;0.0;0.0;0.0;0.0;0.0
3.0;1753877736.221802;14.214461;0.61;-1.3;-0.31;0.316395;0.934414;0.005198;0.0;0.0;0.0;0.0;0.0;0.0
3.0;1753877736.226533;14.194621;0.65;-1.31;-0.28;0.31694;0.933226;0.005602;0.0;0.0;0.0;0.0;0.0;0.0
3.0;1753877736.231264;14.208227;0.73;-1.37;-0.34;0.317738;0.933312;0.005571;0.0;0.0;0.0;0.0;0.0;0.0
3.0;1753877736.235995;14.173468;0.67;-1.3;-0.33;0.316566;0.933984;0.004167;0.0;0.0;0.0;0.0;0.0;0.0
3.0;1753877736.240726;14.206941;0.69;-1.35;-0.35;0.31752;0.931843;0.005326;0.0;0.0;0.0;0.0;0.0;0.0
3.0;1753877736.245457;14.201687;0.57;-1.31;-0.29;0.316533;0.934659;0.006113;0.0;0.0;0.0;0.0;0.0;0.0
3.0;1753877736.250188;14.190485;0.52;-1.27;-0.21;0.31742;0.932699;0.005208;0.0;0.0;0.0;0.0;0.0;0.0
3.0;1753877736.254919;14.177686;0.8;-1.26;-0.33;0.316132;0.932304;0.005707;0.0;0.0;0.0;0.0;0.0;0.0
3.0;1753877736.25965;14.194921;0.59;-1.3;-0.27;0.318105;0.930716;0.006582;0.0;0.0;0.0;0.0;0.0;0.0
3.0;1753877736.264381;14.213724;0.58;-1.39;-0.34;0.31715;0.932094;0.007208;0.0;0.0;0.0;0.0;0.0;0.0
3.0;1753877736.269112;14.201106;0.52;-1.25;-0.26;0.316718;0.933069;0.005999;0.0;0.0;0.0;0.0;0.0;0.0
3.0;1753877736.273842;14.19569;0.6;-1.26;-0.28;0.317786;0.93361;0.006817;0.0;0.0;0.0;0.0;0.0;0.0
3.0;1753877736.278574;14.236026;0.53;-1.28;-0.34;0.318199;0.93311;0.005472;0.0;0.0;0.0;0.0;0.0;0.0
3.0;1753877736.283304;14.182239;0.7;-1.25;-0.29;0.316562;0.933174;0.005948;0.0;0.0;0.0;0.0;0.0;0.0
3.0;1753877736.288036;14.192659;0.72;-1.33;-0.31;0.316747;0.933485;0.006223;0.0;0.0;0.0;0.0;0.0;0.0
3.0;1753877736.292766;14.210619;0.64;-1.32;-0.32;0.316648;0.931595;0.005928;0.0;0.0;0.0;0.0;0.0;0.0
3.0;1753877736.297497;14.205122;0.7;-1.31;-0.23;0.317029;0.932865;0.00761;0.0;0.0;0.0;0.0;0.0;0.0
3.0;1753877736.302228;14.20393;0.59;-1.3;-0.27;0.316974;0.933317;0.0055;0.0;0.0;0.0;0.0;0.0;0.0
3.0;1753877736.306959;14.185045;0.65;-1.27;-0.34;0.317816;0.932183;0.005207;0.0;0.0;0.0;0.0;0.0;0.0
3.0;1753877736.31169;14.206666;0.64;-1.29;-0.24;0.31703;0.932356;0.004638;0.0;0.0;0.0;0.0;0.0;0.0
3.0;1753877736.316421;14.210051;0.65;-1.33;-0.25;0.317088;0.932209;0.005572;0.0;0.0;0.0;0.0;0.0;0.0
3.0;1753877736.321152;14.203794;0.69;-1.2;-0.29;0.316996;0.93296;0.00782;0.0;0.0;0.0;0.0;0.0;0.0
3.0;1753877736.325883;14.203601;0.76;-1.23;-0.29;0.31673;0.932348;0.007679;0.0;0.0;0.0;0.0;0.0;0.0
3.0;1753877736.330614;14.224868;0.59;-1.28;-0.33;0.316683;0.932794;0.006059;0.0;0.0;0.0;0.0;0.0;0.0
3.0;1753877736.335345;14.185355;0.63;-1.3;-0.24;0.317376;0.932317;0.00695;0.0;0.0;0.0;0.0;0.0;0.0
3.0;1753877736.340076;14.195228;0.65;-1.35;-0.25;0.317618;0.933403;0.005723;0.0;0.0;0.0;0.0;0.0;0.0
3.0;1753877736.344807;14.196597;0.66;-1.33;-0.29;0.318614;0.930904;0.007226;0.0;0.0;0.0;0.0;0.0;0.0
3.0;1753877736.349538;14.193062;0.55;-1.29;-0.24;0.317858;0.932876;0.006213;0.0;0.0;0.0;0.0;0.0;0.0
3.0;1753877736.354268;14.176746;0.63;-1.35;-0.3;0.318398;0.932385;0.005608;0.0;0.0;0.0;0.0;0.0;0.0
3.0;1753877736.359;14.210485;0.69;-1.27;-0.18;0.317809;0.931426;0.00575;0.0;0.0;0.0;0.0;0.0;0.0
3.0;1753877736.36373;14.216771;0.69;-1.27;-0.31;0.317586;0.933376;0.005995;0.0;0.0;0.0;0.0;0.0;0.0
3.0;1753877736.368461;14.213344;0.7;-1.26;-0.26;0.316191;0.932367;0.006211;0.0;0.0;0.0;0.0;0.0;0.0
3.0;1753877736.373192;14.207101;0.75;-1.22;-0.38;0.31758;0.932222;0.007456;0.0;0.0;0.0;0.0;0.0;0.0
3.0;1753877736.377923;14.196268;0.74;-1.22;-0.3;0.31747;0.932397;0.006365;0.0;0.0;0.0;0.0;0.0;0.0
3.0;1753877736.382654;14.185503;0.66;-1.3;-0.22;0.315894;0.931199;0.005536;0.0;0.0;0.0;0.0;0.0;0.0
3.0;1753877736.387385;14.215378;0.77;-1.14;-0.31;0.31753;0.931568;0.005825;0.0;0.0;0.0;0.0;0.0;0.0
3.0;1753877736.392116;14.199366;0.5;-1.25;-0.3;0.317522;0.93214;0.006731;0.0;0.0;0.0;0.0;0.0;0.0
3.0;1753877736.396847;14.228606;0.7;-1.22;-0.23;0.318771;0.931795;0.005749;0.0;0.0;0.0;0.0;0.0;0.0
3.0;1753877736.401578;14.193192;0.82;-1.28;-0.21;0.318381;0.933925;0.006848;0.0;0.0;0.0;0.0;0.0;0.0
3.0;1753877736.406309;14.205502;0.69;-1.26;-0.21;0.318834;0.932373;0.006982;0.0;0.0;0.0;0.0;0.0;0.0
3.0;1753877736.41104;14.211414;0.59;-1.19;-0.31;0.316245;0.931488;0.006323;0.0;0.0;0.0;0.0;0.0;0.0
3.0;1753877736.415771;14.216499;0.58;-1.3;-0.35;0.317149;0.930823;0.007059;0.0;0.0;0.0;0.0;0.0;0.0
3.0;1753877736.420502;14.181937;0.52;-1.38;-0.34;0.316704;0.932064;0.005096;0.0;0.0;0.0;0.0;0.0;0.0
3.0;1753877736.425233;14.206785;0.7;-1.18;-0.28;0.317921;0.931977;0.005553;0.0;0.0;0.0;0.0;0.0;0.0
3.0;1753877736.429964;14.196896;0.67;-1.29;-0.22;0.317202;0.932298;0.00622;0.0;0.0;0.0;0.0;0.0;0.0
3.0;1753877736.434694;14.209993;0.6;-1.33;-0.32;0.317992;0.930236;0.006391;0.0;0.0;0.0;0.0;0.0;0.0
3.0;1753877736.439426;14.186025;0.74;-1.22;-0.26;0.319234;0.931429;0.008913;0.0;0.0;0.0;0.0;0.0;0.0
3.0;1753877736.444156;14.198861;0.63;-1.26;-0.25;0.317074;0.932223;0.007809;0.0;0.0;0.0;0.0;0.0;0.0
3.0;1753877736.448887;14.207745;0.54;-1.23;-0.18;0.316451;0.930212;0.006568;0.0;0.0;0.0;0.0;0.0;0.0
3.0;1753877736.453618;14.221404;0.68;-1.24;-0.17;0.318956;0.93141;0.008326;0.0;0.0;0.0;0.0;0.0;0.0
3.0;1753877736.458349;14.218086;0.6;-1.3;-0.26;0.316705;0.93139;0.006124;0.0;0.0;0.0;0.0;0.0;0.0
3.0;1753877736.46308;14.207784;0.6;-1.22;-0.31;0.317067;0.931706;0.007309;0.0;0.0;0.0;0.0;0.0;0.0
3.0;1753877736.467811;14.196594;0.82;-1.29;-0.31;0.317652;0.930804;0.007919;0.0;0.0;0.0;0.0;0.0;0.0
3.0;1753877736.472542;14.221699;0.63;-1.26;-0.34;0.317932;0.930683;0.006787;0.0;0.0;0.0;0.0;0.0;0.0
3.0;1753877736.477273;14.205167;0.63;-1.22;-0.21;0.317745;0.93174;0.007528;0.0;0.0;0.0;0.0;0.0;0.0
3.0;1753877736.482004;14.205337;0.65;-1.25;-0.29;0.319424;0.930568;0.006428;0.0;0.0;0.0;0.0;0.0;0.0
3.0;1753877736.486735;14.199103;0.72;-1.21;-0.28;0.316728;0.929832;0.005799;0.0;0.0;0.0;0.0;0.0;0.0
3.0;1753877736.491466;14.18443;0.65;-1.28;-0.28;0.319564;0.932041;0.007207;0.0;0.0;0.0;0.0;0.0;0.0
3.0;1753877736.496197;14.196143;0.7;-1.33;-0.31;0.315889;0.931528;0.007773;0.0;0.0;0.0;0.0;0.0;0.0
3.0;1753877736.500928;14.207387;0.71;-1.28;-0.21;0.31725;0.932349;0.007014;0.0;0.0;0.0;0.0;0.0;0.0
3.0;1753877736.505659;14.201807;0.79;-1.2;-0.27;0.317538;0.93109;0.007958;0.0;0.0;0.0;0.0;0.0;0.0
3.0;1753877736.51039;14.190545;0.61;-1.24;-0.25;0.31649;0.929925;0.006607;0.0;0.0;0.0;0.0;0.0;0.0
3.0;1753877736.51512;14.206225;0.68;-1.33;-0.32;0.316602;0.931216;0.005999;0.0;0.0;0.0;0.0;0.0;0.0
3.0;1753877736.519852;14.193166;0.67;-1.21;-0.27;0.317513;0.932487;0.006329;0.0;0.0;0.0;0.0;0.0;0.0
3.0;1753877736.524582;14.231217;0.63;-1.22;-0.25;0.317579;0.933361;0.005852;0.0;0.0;0.0;0.0;0.0;0.0
3.0;1753877736.529313;14.221748;0.83;-1.29;-0.2;0.317957;0.931054;0.007838;0.0;0.0;0.0;0.0;0.0;0.0
3.0;1753877736.534044;14.202711;0.76;-1.23;-0.34;0.317458;0.932458;0.007802;0.0;0.0;0.0;0.0;0.0;0.0
3.0;1753877736.538775;14.206711;0.63;-1.24;-0.26;0.316652;0.930737;0.007807;0.0;0.0;0.0;0.0;0.0;0.0
3.0;1753877736.543506;14.200878;0.8;-1.22;-0.34;0.318137;0.930284;0.007226;0.0;0.0;0.0;0.0;0.0;0.0
3.0;1753877736.548237;14.207731;0.79;-1.16;-0.27;0.316813;0.930872;0.007115;0.0;0.0;0.0;0.0;0.0;0.0
3.0;1753877736.552968;14.1738;0.68;-1.2;-0.24;0.317515;0.92948;0.007858;0.0;0.0;0.0;0.0;0.0;0.0
3.0;1753877736.557699;14.213186;0.74;-1.27;-0.3;0.315716;0.931135;0.007139;0.0;0.0;0.0;0.0;0.0;0.0
3.0;1753877736.56243;14.210124;0.62;-1.17;-0.31;0.319698;0.928966;0.006905;0.0;0.0;0.0;0.0;0.0;0.0
3.0;1753877736.567161;14.199837;0.71;-1.2;-0.36;0.317579;0.931083;0.007589;0.0;0.0;0.0;0.0;0.0;0.0
3.0;1753877736.571892;14.231695;0.74;-1.17;-0.23;0.317896;0.929246;0.007095;0.0;0.0;0.0;0.0;0.0;0.0
3.0;1753877736.576623;14.189579;0.62;-1.21;-0.31;0.317222;0.931197;0.007676;0.0;0.0;0.0;0.0;0.0;0.0
3.0;1753877736.581354;14.177626;0.67;-1.26;-0.28;0.316265;0.931213;0.007509;0.0;0.0;0.0;0.0;0.0;0.0
3.0;1753877736.586084;14.184244;0.76;-1.23;-0.31;0.315977;0.930729;0.008595;0.0;0.0;0.0;0.0;0.0;0.0
3.0;1753877736.590816;14.18746;0.68;-1.21;-0.26;0.317011;0.930647;0.007174;0.0;0.0;0.0;0.0;0.0;0.0
3.0;1753877736.595546;14.189096;0.66;-1.16;-0.24;0.316853;0.930778;0.007849;0.0;0.0;0.0;0.0;0.0;0.0
3.0;1753877736.600278;14.200908;0.7;-1.17;-0.27;0.318148;0.93023;0.008656;0.0;0.0;0.0;0.0;0.0;0.0
3.0;1753877736.605008;14.221478;0.74;-1.19;-0.26;0.317937;0.930023;0.008953;0.0;0.0;0.0;0.0;0.0;0.0
3.0;1753877736.609739;14.209437;0.71;-1.22;-0.23;0.318748;0.930163;0.007614;0.0;0.0;0.0;0.0;0.0;0.0
3.0;1753877736.61447;14.211993;0.74;-1.21;-0.28;0.316153;0.931559;0.008057;0.0;0.0;0.0;0.0;0.0;0.0
3.0;1753877736.6232;14.210938;0.7;-1.19;-0.28;0.317322;0.930494;0.007442;0.0;0.0;0.0;0.0;0.0;0.0
3.0;1753877736.627931;14.214138;0.76;-1.14;-0.28;0.316891;0.930784;0.008509;0.0;0.0;0.0;0.0;0.0;0.0
3.0;1753877736.632662;14.212451;0.76;-1.2;-0.25;0.317387;0.93156;0.006761;0.0;0.0;0.0;0.0;0.0;0.0
3.0;1753877736.637393;14.199345;0.72;-1.2;-0.32;0.317626;0.930756;0.007367;0.0;0.0;0.0;0.0;0.0;0.0
3.0;1753877736.642124;14.188934;0.71;-1.22;-0.34;0.318614;0.930905;0.006243;0.0;0.0;0.0;0.0;0.0;0.0
3.0;1753877736.646855;14.183342;0.71;-1.09;-0.23;0.319207;0.932372;0.007104;0.0;0.0;0.0;0.0;0.0;0.0
3.0;1753877736.651586;14.199264;0.71;-1.25;-0.22;0.316883;0.931367;0.007684;0.0;0.0;0.0;0.0;0.0;0.0
3.0;1753877736.656316;14.152465;0.71;-1.21;-0.18;0.317447;0.931364;0.007442;0.0;0.0;0.0;0.0;0.0;0.0
3.0;1753877736.661048;14.17819;0.66;-1.19;-0.25;0.317705;0.931583;0.007544;0.0;0.0;0.0;0.0;0.0;0.0
3.0;1753877736.665778;14.159894;0.75;-1.12;-0.24;0.318261;0.930786;0.007012;0.0;0.0;0.0;0.0;0.0;0.0
3.0;1753877736.670509;14.156773;0.75;-1.29;-0.18;0.317446;0.931104;0.008713;0.0;0.0;0.0;0.0;0.0;0.0
3.0;1753877736.67883;14.15625;0.7;-1.26;-0.21;0.317688;0.931958;0.006832;0.0;0.0;0.0;0.0;0.0;0.0
3.0;1753877736.683561;14.143767;0.67;-1.33;-0.27;0.315654;0.932041;0.006804;0.0;0.0;0.0;0.0;0.0;0.0
3.0;1753877736.688292;14.177742;0.69;-1.16;-0.21;0.318926;0.93298;0.00653;0.0;0.0;0.0;0.0;0.0;0.0
3.0;1753877736.693023;14.15697;0.75;-1.2;-0.11;0.317215;0.932225;0.00689;0.0;0.0;0.0;0.0;0.0;0.0
3.0;1753877736.697754;14.140314;0.62;-1.26;-0.13;0.318629;0.931683;0.00652;0.0;0.0;0.0;0.0;0.0;0.0
3.0;1753877736.702484;14.190783;0.62;-1.22;-0.25;0.317982;0.931644;0.005976;0.0;0.0;0.0;0.0;0.0;0.0
3.0;1753877736.707216;14.152941;0.78;-1.19;-0.26;0.318178;0.932396;0.004633;0.0;0.0;0.0;0.0;0.0;0.0
3.0;1753877736.711946;14.158752;0.66;-1.17;-0.27;0.318594;0.931917;0.00747;0.0;0.0;0.0;0.0;0.0;0.0
3.0;1753877736.71777;14.15625;0.7;-1.19;-0.21;0.318176;0.931714;0.00671;0.0;0.0;0.0;0.0;0.0;0.0
3.0;1753877736.722501;14.140332;0.7;-1.26;-0.24;0.317821;0.931675;0.007109;0.0;0.0;0.0;0.0;0.0;0.0
3.0;1753877736.727232;14.159121;0.75;-1.3;-0.19;0.319871;0.931711;0.00601;0.0;0.0;0.0;0.0;0.0;0.0
3.0;1753877736.731963;14.18842;0.76;-1.25;-0.16;0.31631;0.932399;0.006775;0.0;0.0;0.0;0.0;0.0;0.0
3.0;1753877736.736694;14.157008;0.63;-1.16;-0.21;0.317368;0.933131;0.006741;0.0;0.0;0.0;0.0;0.0;0.0
3.0;1753877736.741425;14.162894;0.67;-1.29;-0.15;0.317351;0.931485;0.005245;0.0;0.0;0.0;0.0;0.0;0.0
3.0;1753877736.746156;14.147522;0.77;-1.25;-0.14;0.317602;0.931582;0.007667;0.0;0.0;0.0;0.0;0.0;0.0
3.0;1753877736.750887;14.129642;0.77;-1.25;-0.17;0.317785;0.930452;0.007413;0.0;0.0;0.0;0.0;0.0;0.0
3.0;1753877736.755618;14.131022;0.78;-1.18;-0.1;0.318852;0.93218;0.006379;0.0;0.0;0.0;0.0;0.0;0.0
3.0;1753877736.760348;14.174085;0.61;-1.27;-0.11;0.31803;0.931395;0.007111;0.0;0.0;0.0;0.0;0.0;0.0
3.0;1753877736.76799;14.15625;0.77;-1.26;-0.14;0.3172;0.932202;0.00671;0.0;0.0;0.0;0.0;0.0;0.0
3.0;1753877736.772721;14.17337;0.78;-1.24;-0.13;0.319406;0.932662;0.007269;0.0;0.0;0.0;0.0;0.0;0.0
3.0;1753877736.777452;14.161151;0.75;-1.25;-0.15;0.318475;0.931841;0.006576;0.0;0.0;0.0;0.0;0.0;0.0
3.0;1753877736.782183;14.147201;0.73;-1.25;-0.23;0.31873;0.931648;0.007536;0.0;0.0;0.0;0.0;0.0;0.0
3.0;1753877736.786914;14.131482;0.78;-1.23;-0.14;0.316585;0.931648;0.006913;0.0;0.0;0.0;0.0;0.0;0.0
3.0;1753877736.791645;14.153979;0.71;-1.3;-0.17;0.318592;0.93262;0.008096;0.0;0.0;0.0;0.0;0.0;0.0
3.0;1753877736.796376;14.183857;0.78;-1.19;-0.24;0.318828;0.931819;0.006685;0.0;0.0;0.0;0.0;0.0;0.0
3.0;1753877736.801107;14.174472;0.71;-1.24;-0.16;0.318095;0.9316;0.005794;0.0;0.0;0.0;0.0;0.0;0.0
3.0;1753877736.805838;14.15451;0.77;-1.31;-0.21;0.318827;0.933174;0.006525;0.0;0.0;0.0;0.0;0.0;0.0
3.0;1753877736.81147;14.171875;0.7;-1.26;-0.21;0.31903;0.932446;0.006344;0.0;0.0;0.0;0.0;0.0;0.0
3.0;1753877736.816201;14.170636;0.73;-1.18;-0.11;0.319129;0.932968;0.006631;0.0;0.0;0.0;0.0;0.0;0.0
3.0;1753877736.820932;14.150217;0.7;-1.29;-0.21;0.319263;0.931736;0.005858;0.0;0.0;0.0;0.0;0.0;0.0
3.0;1753877736.825663;14.147293;0.8;-1.28;-0.3;0.319172;0.932259;0.007333;0.0;0.0;0.0;0.0;0.0;0.0
3.0;1753877736.830394;14.16663;0.78;-1.19;-0.24;0.318397;0.932859;0.006322;0.0;0.0;0.0;0.0;0.0;0.0
3.0;1753877736.835125;14.153506;0.84;-1.26;-0.16;0.318421;0.932424;0.006995;0.0;0.0;0.0;0.0;0.0;0.0
3.0;1753877736.839856;14.172695;0.7;-1.31;-0.38;0.317584;0.931647;0.007118;0.0;0.0;0.0;0.0;0.0;0.0
3.0;1753877736.844586;14.167669;0.76;-1.28;-0.28;0.318482;0.931613;0.006772;0.0;0.0;0.0;0.0;0.0;0.0
3.0;1753877736.849318;14.198248;0.88;-1.34;-0.25;0.318796;0.931169;0.00643;0.0;0.0;0.0;0.0;0.0;0.0
3.0;1753877736.854048;14.18737;0.8;-1.29;-0.24;0.315691;0.931397;0.006964;0.0;0.0;0.0;0.0;0.0;0.0
3.0;1753877736.85878;14.170964;0.78;-1.37;-0.33;0.31787;0.932132;0.008962;0.0;0.0;0.0;0.0;0.0;0.0
3.0;1753877736.86351;14.150829;0.87;-1.33;-0.35;0.317652;0.932633;0.008505;0.0;0.0;0.0;0.0;0.0;0.0
3.0;1753877736.87075;14.171875;0.84;-1.33;-0.28;0.318176;0.932202;0.007808;0.0;0.0;0.0;0.0;0.0;0.0
3.0;1753877736.875481;14.187324;0.77;-1.28;-0.3;0.318296;0.931711;0.007692;0.0;0.0;0.0;0.0;0.0;0.0
3.0;1753877736.880212;14.190321;0.71;-1.41;-0.16;0.317702;0.932578;0.00752;0.0;0.0;0.0;0.0;0.0;0.0
3.0;1753877736.884943;14.159093;0.76;-1.35;-0.22;0.317054;0.932442;0.007668;0.0;0.0;0.0;0.0;0.0;0.0
3.0;1753877736.889674;14.197848;0.82;-1.28;-0.18;0.318034;0.931509;0.00771;0.0;0.0;0.0;0.0;0.0;0.0
3.0;1753877736.894405;14.182448;0.84;-1.26;-0.23;0.317889;0.932896;0.006342;0.0;0.0;0.0;0.0;0.0;0.0
3.0;1753877736.899136;14.170562;0.78;-1.19;-0.2;0.318817;0.93137;0.006329;0.0;0.0;0.0;0.0;0.0;0.0
3.0;1753877736.903866;14.160627;0.79;-1.35;-0.18;0.317833;0.932292;0.007501;0.0;0.0;0.0;0.0;0.0;0.0
3.0;1753877736.908598;14.180481;0.78;-1.35;-0.16;0.319177;0.931824;0.007585;0.0;0.0;0.0;0.0;0.0;0.0
3.0;1753877736.91585;14.171875;0.77;-1.33;-0.14;0.31842;0.931104;0.005856;0.0;0.0;0.0;0.0;0.0;0.0
3.0;1753877736.920581;14.173987;0.83;-1.4;-0.25;0.316733;0.930466;0.006439;0.0;0.0;0.0;0.0;0.0;0.0
3.0;1753877736.925312;14.177212;0.76;-1.36;-0.14;0.31799;0.930548;0.005256;0.0;0.0;0.0;0.0;0.0;0.0
3.0;1753877736.930043;14.177427;0.8;-1.28;-0.13;0.319092;0.93106;0.005307;0.0;0.0;0.0;0.0;0.0;0.0
3.0;1753877736.934774;14.193781;0.79;-1.27;-0.17;0.315296;0.930583;0.005257;0.0;0.0;0.0;0.0;0.0;0.0
3.0;1753877736.939504;14.139365;0.69;-1.24;-0.23;0.3189;0.931412;0.00647;0.0;0.0;0.0;0.0;0.0;0.0
3.0;1753877736.944236;14.17433;0.83;-1.21;-0.2;0.318177;0.932981;0.005269;0.0;0.0;0.0;0.0;0.0;0.0
3.0;1753877736.948966;14.136831;0.82;-1.3;-0.24;0.318882;0.931948;0.005022;0.0;0.0;0.0;0.0;0.0;0.0
3.0;1753877736.95733;14.171875;0.77;-1.26;-0.21;0.317932;0.931714;0.007198;0.0;0.0;0.0;0.0;0.0;0.0
3.0;1753877736.962061;14.180247;0.76;-1.41;-0.12;0.317934;0.931947;0.00686;0.0;0.0;0.0;0.0;0.0;0.0
3.0;1753877736.966792;14.165415;0.78;-1.3;-0.19;0.318711;0.932071;0.007166;0.0;0.0;0.0;0.0;0.0;0.0
3.0;1753877736.971523;14.171473;0.8;-1.23;-0.29;0.317163;0.933108;0.007357;0.0;0.0;0.0;0.0;0.0;0.0
3.0;1753877736.976254;14.159029;0.74;-1.44;-0.27;0.316826;0.931263;0.00859;0.0;0.0;0.0;0.0;0.0;0.0
3.0;1753877736.980985;14.161771;0.76;-1.36;-0.17;0.317818;0.931606;0.008281;0.0;0.0;0.0;0.0;0.0;0.0
3.0;1753877736.985716;14.183949;0.86;-1.32;-0.26;0.316253;0.930951;0.00718;0.0;0.0;0.0;0.0;0.0;0.0
3.0;1753877736.990446;14.158443;0.73;-1.38;-0.22;0.317003;0.931275;0.006827;0.0;0.0;0.0;0.0;0.0;0.0
3.0;1753877736.995178;14.144012;0.79;-1.31;-0.22;0.316073;0.930831;0.008041;0.0;0.0;0.0;0.0;0.0;0.0
3.0;1753877736.99988;14.148438;0.77;-1.33;-0.21;0.316224;0.931226;0.00732;0.0;0.0;0.0;0.0;0.0;0.0
3.0;1753877737.004611;14.107325;0.73;-1.34;-0.2;0.316127;0.931752;0.007691;0.0;0.0;0.0;0.0;0.0;0.0
3.0;1753877737.009342;14.17116;0.86;-1.24;-0.18;0.316559;0.93228;0.006825;0.0;0.0;0.0;0.0;0.0;0.0
3.0;1753877737.014073;14.147846;0.72;-1.32;-0.22;0.316364;0.931366;0.006832;0.0;0.0;0.0;0.0;0.0;0.0
3.0;1753877737.018804;14.150869;0.8;-1.35;-0.12;0.315071;0.930535;0.007001;0.0;0.0;0.0;0.0;0.0;0.0
3.0;1753877737.023535;14.154446;0.77;-1.29;-0.07;0.31709;0.929776;0.007686;0.0;0.0;0.0;0.0;0.0;0.0
3.0;1753877737.028266;14.145398;0.76;-1.28;-0.28;0.317604;0.93176;0.007799;0.0;0.0;0.0;0.0;0.0;0.0
3.0;1753877737.032997;14.160459;0.72;-1.29;-0.15;0.315074;0.930919;0.006738;0.0;0.0;0.0;0.0;0.0;0.0
3.0;1753877737.037728;14.15247;0.81;-1.32;-0.13;0.315955;0.929982;0.007637;0.0;0.0;0.0;0.0;0.0;0.0
3.0;1753877737.042458;14.14632;0.76;-1.31;-0.22;0.316449;0.931698;0.006435;0.0;0.0;0.0;0.0;0.0;0.0
3.0;1753877737.04719;14.166228;0.77;-1.28;-0.28;0.317016;0.930783;0.00842;0.0;0.0;0.0;0.0;0.0;0.0
3.0;1753877737.05192;14.161257;0.77;-1.43;-0.18;0.317618;0.932092;0.006916;0.0;0.0;0.0;0.0;0.0;0.0
3.0;1753877737.056651;14.13898;0.64;-1.4;-0.13;0.316808;0.931765;0.007562;0.0;0.0;0.0;0.0;0.0;0.0
3.0;1753877737.061382;14.159024;0.7;-1.28;-0.25;0.316449;0.93104;0.007792;0.0;0.0;0.0;0.0;0.0;0.0
3.0;1753877737.066113;14.139837;0.71;-1.31;-0.2;0.316511;0.932586;0.007624;0.0;0.0;0.0;0.0;0.0;0.0
3.0;1753877737.070844;14.138263;0.78;-1.31;-0.19;0.318928;0.932596;0.006978;0.0;0.0;0.0;0.0;0.0;0.0
3.0;1753877737.075575;14.162561;0.69;-1.45;-0.23;0.318216;0.932169;0.007438;0.0;0.0;0.0;0.0;0.0;0.0
3.0;1753877737.080306;14.170765;0.66;-1.24;-0.2;0.316;0.931124;0.008214;0.0;0.0;0.0;0.0;0.0;0.0
3.0;1753877737.085037;14.179629;0.72;-1.29;-0.21;0.315771;0.931094;0.007065;0.0;0.0;0.0;0.0;0.0;0.0
3.0;1753877737.089768;14.177062;0.78;-1.29;-0.24;0.316835;0.932085;0.007853;0.0;0.0;0.0;0.0;0.0;0.0
3.0;1753877737.094499;14.173731;0.74;-1.32;-0.19;0.317413;0.93194;0.006968;0.0;0.0;0.0;0.0;0.0;0.0
3.0;1753877737.09923;14.177916;0.78;-1.29;-0.16;0.316408;0.931691;0.007329;0.0;0.0;0.0;0.0;0.0;0.0
3.0;1753877737.103961;14.156616;0.79;-1.22;-0.13;0.316628;0.932551;0.00828;0.0;0.0;0.0;0.0;0.0;0.0
3.0;1753877737.108692;14.167513;0.73;-1.32;-0.15;0.318847;0.931615;0.007085;0.0;0.0;0.0;0.0;0.0;0.0
3.0;1753877737.113423;14.166724;0.69;-1.29;-0.19;0.31807;0.93132;0.007876;0.0;0.0;0.0;0.0;0.0;0.0
3.0;1753877737.118154;14.164365;0.74;-1.36;-0.23;0.317276;0.931163;0.008294;0.0;0.0;0.0;0.0;0.0;0.0
3.0;1753877737.122884;14.17681;0.75;-1.37;-0.23;0.31748;0.933167;0.008094;0.0;0.0;0.0;0.0;0.0;0.0
3.0;1753877737.127616;14.178565;0.82;-1.25;-0.21;0.317003;0.932638;0.006598;0.0;0.0;0.0;0.0;0.0;0.0
3.0;1753877737.132346;14.17861;0.76;-1.24;-0.21;0.317584;0.931781;0.007952;0.0;0.0;0.0;0.0;0.0;0.0
3.0;1753877737.137077;14.182994;0.74;-1.31;-0.14;0.317524;0.931643;0.007379;0.0;0.0;0.0;0.0;0.0;0.0
3.0;1753877737.141808;14.178097;0.66;-1.23;-0.18;0.316076;0.931349;0.007131;0.0;0.0;0.0;0.0;0.0;0.0
3.0;1753877737.146539;14.171512;0.74;-1.27;-0.24;0.315727;0.931496;0.007491;0.0;0.0;0.0;0.0;0.0;0.0
3.0;1753877737.15127;14.193856;0.76;-1.31;-0.15;0.317363;0.932901;0.007492;0.0;0.0;0.0;0.0;0.0;0.0
3.0;1753877737.156001;14.173306;0.74;-1.33;-0.09;0.316177;0.930449;0.00793;0.0;0.0;0.0;0.0;0.0;0.0
3.0;1753877737.160732;14.184916;0.7;-1.33;-0.22;0.316755;0.932329;0.007671;0.0;0.0;0.0;0.0;0.0;0.0
3.0;1753877737.165463;14.173332;0.7;-1.27;-0.12;0.317093;0.929877;0.007102;0.0;0.0;0.0;0.0;0.0;0.0
3.0;1753877737.170194;14.194222;0.69;-1.37;-0.18;0.316254;0.932822;0.00827;0.0;0.0;0.0;0.0;0.0;0.0
3.0;1753877737.174925;14.192272;0.78;-1.36;-0.26;0.317383;0.932062;0.007473;0.0;0.0;0.0;0.0;0.0;0.0
3.0;1753877737.179656;14.18815;0.71;-1.28;-0.2;0.317046;0.930363;0.00686;0.0;0.0;0.0;0.0;0.0;0.0
3.0;1753877737.184387;14.170972;0.68;-1.36;-0.25;0.317293;0.932807;0.007757;0.0;0.0;0.0;0.0;0.0;0.0
3.0;1753877737.189118;14.178401;0.77;-1.34;-0.28;0.317066;0.930889;0.006779;0.0;0.0;0.0;0.0;0.0;0.0
3.0;1753877737.193848;14.198973;0.79;-1.42;-0.16;0.318227;0.933025;0.007919;0.0;0.0;0.0;0.0;0.0;0.0
3.0;1753877737.19858;14.179691;0.68;-1.28;-0.2;0.317343;0.931665;0.007686;0.0;0.0;0.0;0.0;0.0;0.0
3.0;1753877737.20331;14.172029;0.69;-1.28;-0.26;0.316961;0.931805;0.007737;0.0;0.0;0.0;0.0;0.0;0.0
3.0;1753877737.208042;14.197333;0.73;-1.25;-0.21;0.316744;0.933019;0.007679;0.0;0.0;0.0;0.0;0.0;0.0
3.0;1753877737.212772;14.17882;0.82;-1.38;-0.16;0.316803;0.932482;0.007564;0.0;0.0;0.0;0.0;0.0;0.0
3.0;1753877737.217503;14.16065;0.64;-1.36;-0.14;0.31685;0.931648;0.007494;0.0;0.0;0.0;0.0;0.0;0.0
3.0;1753877737.222234;14.178729;0.71;-1.35;-0.25;0.318504;0.930667;0.008137;0.0;0.0;0.0;0.0;0.0;0.0
3.0;1753877737.226965;14.18656;0.76;-1.35;-0.24;0.319359;0.930292;0.007409;0.0;0.0;0.0;0.0;0.0;0.0
3.0;1753877737.231696;14.186166;0.68;-1.33;-0.2;0.318356;0.931314;0.007501;0.0;0.0;0.0;0.0;0.0;0.0
3.0;1753877737.236427;14.195321;0.7;-1.32;-0.15;0.319119;0.932346;0.007318;0.0;0.0;0.0;0.0;0.0;0.0
3.0;1753877737.241158;14.172728;0.65;-1.36;-0.07;0.315858;0.931432;0.00776;0.0;0.0;0.0;0.0;0.0;0.0
3.0;1753877737.245889;14.176054;0.7;-1.31;-0.24;0.31823;0.932004;0.006763;0.0;0.0;0.0;0.0;0.0;0.0
3.0;1753877737.25062;14.202575;0.68;-1.39;-0.12;0.317266;0.933181;0.007168;0.0;0.0;0.0;0.0;0.0;0.0
3.0;1753877737.255351;14.191829;0.71;-1.31;-0.29;0.318641;0.933499;0.007661;0.0;0.0;0.0;0.0;0.0;0.0
3.0;1753877737.260082;14.19477;0.74;-1.4;-0.13;0.318815;0.93253;0.006925;0.0;0.0;0.0;0.0;0.0;0.0
3.0;1753877737.264813;14.191289;0.68;-1.26;-0.13;0.317984;0.932443;0.006918;0.0;0.0;0.0;0.0;0.0;0.0
3.0;1753877737.269544;14.215639;0.68;-1.32;-0.21;0.317824;0.934555;0.006832;0.0;0.0;0.0;0.0;0.0;0.0
3.0;1753877737.274274;14.207494;0.69;-1.28;-0.09;0.318168;0.93206;0.006851;0.0;0.0;0.0;0.0;0.0;0.0
3.0;1753877737.279006;14.195902;0.66;-1.34;-0.14;0.319178;0.933233;0.00697;0.0;0.0;0.0;0.0;0.0;0.0
3.0;1753877737.2877;14.203125;0.7;-1.33;-0.14;0.318054;0.932446;0.007198;0.0;0.0;0.0;0.0;0.0;0.0
3.0;1753877737.292431;14.210518;0.69;-1.28;-0.18;0.318224;0.932391;0.007967;0.0;0.0;0.0;0.0;0.0;0.0
3.0;1753877737.297162;14.174769;0.69;-1.23;-0.11;0.317776;0.931587;0.006628;0.0;0.0;0.0;0.0;0.0;0.0
3.0;1753877737.301893;14.212843;0.75;-1.32;-0.12;0.317535;0.931694;0.007047;0.0;0.0;0.0;0.0;0.0;0.0
3.0;1753877737.306624;14.209495;0.74;-1.32;-0.18;0.318723;0.931297;0.005369;0.0;0.0;0.0;0.0;0.0;0.0
3.0;1753877737.311355;14.181517;0.68;-1.29;-0.09;0.316506;0.933276;0.007985;0.0;0.0;0.0;0.0;0.0;0.0
3.0;1753877737.316086;14.224918;0.69;-1.34;-0.11;0.318004;0.933096;0.007107;0.0;0.0;0.0;0.0;0.0;0.0
3.0;1753877737.320816;14.228705;0.68;-1.32;-0.11;0.317521;0.932234;0.006504;0.0;0.0;0.0;0.0;0.0;0.0
3.0;1753877737.325548;14.189437;0.68;-1.27;-0.21;0.319342;0.932564;0.007125;0.0;0.0;0.0;0.0;0.0;0.0
3.0;1753877737.330278;14.193653;0.72;-1.32;-0.22;0.316452;0.932662;0.007625;0.0;0.0;0.0;0.0;0.0;0.0
3.0;1753877737.335009;14.209225;0.68;-1.34;-0.19;0.317894;0.933443;0.00653;0.0;0.0;0.0;0.0;0.0;0.0
3.0;1753877737.33974;14.200774;0.7;-1.28;-0.07;0.317116;0.931149;0.007246;0.0;0.0;0.0;0.0;0.0;0.0
3.0;1753877737.344471;14.199732;0.71;-1.32;-0.1;0.317871;0.93096;0.007816;0.0;0.0;0.0;0.0;0.0;0.0
3.0;1753877737.349202;14.1811;0.71;-1.34;-0.14;0.317928;0.931956;0.007521;0.0;0.0;0.0;0.0;0.0;0.0
3.0;1753877737.353933;14.225309;0.67;-1.32;-0.11;0.317377;0.930768;0.008078;0.0;0.0;0.0;0.0;0.0;0.0
3.0;1753877737.358664;14.183687;0.74;-1.34;-0.08;0.317758;0.931318;0.006739;0.0;0.0;0.0;0.0;0.0;0.0
3.0;1753877737.363395;14.192879;0.79;-1.34;-0.12;0.317291;0.932367;0.007648;0.0;0.0;0.0;0.0;0.0;0.0
3.0;1753877737.368126;14.207195;0.72;-1.33;-0.21;0.319554;0.932402;0.007632;0.0;0.0;0.0;0.0;0.0;0.0
3.0;1753877737.372857;14.210657;0.72;-1.29;-0.22;0.318209;0.931204;0.008611;0.0;0.0;0.0;0.0;0.0;0.0
3.0;1753877737.377588;14.162364;0.71;-1.32;-0.23;0.317432;0.932634;0.007536;0.0;0.0;0.0;0.0;0.0;0.0
3.0;1753877737.382319;14.202646;0.59;-1.4;-0.16;0.317727;0.93379;0.007591;0.0;0.0;0.0;0.0;0.0;0.0
3.0;1753877737.38705;14.186441;0.69;-1.27;-0.17;0.317806;0.933802;0.007271;0.0;0.0;0.0;0.0;0.0;0.0
3.0;1753877737.39178;14.191366;0.69;-1.36;-0.1;0.318879;0.932373;0.006616;0.0;0.0;0.0;0.0;0.0;0.0
3.0;1753877737.396512;14.215714;0.69;-1.3;-0.13;0.318373;0.933144;0.007917;0.0;0.0;0.0;0.0;0.0;0.0
3.0;1753877737.401242;14.213425;0.74;-1.21;-0.03;0.318102;0.933175;0.006764;0.0;0.0;0.0;0.0;0.0;0.0
3.0;1753877737.405974;14.186779;0.65;-1.35;-0.14;0.319673;0.931792;0.007416;0.0;0.0;0.0;0.0;0.0;0.0
3.0;1753877737.410704;14.194471;0.67;-1.27;-0.16;0.317543;0.932295;0.008087;0.0;0.0;0.0;0.0;0.0;0.0
3.0;1753877737.415435;14.211362;0.69;-1.26;-0.22;0.319202;0.932095;0.006843;0.0;0.0;0.0;0.0;0.0;0.0
3.0;1753877737.420166;14.202271;0.71;-1.32;-0.1;0.318773;0.932882;0.007627;0.0;0.0;0.0;0.0;0.0;0.0
3.0;1753877737.424897;14.213222;0.71;-1.38;-0.23;0.318132;0.932543;0.006854;0.0;0.0;0.0;0.0;0.0;0.0
3.0;1753877737.429628;14.186488;0.69;-1.38;-0.09;0.317618;0.932982;0.007779;0.0;0.0;0.0;0.0;0.0;0.0
3.0;1753877737.434359;14.199575;0.72;-1.41;-0.12;0.318064;0.932985;0.006995;0.0;0.0;0.0;0.0;0.0;0.0
3.0;1753877737.43909;14.224646;0.73;-1.3;-0.17;0.319054;0.932151;0.007594;0.0;0.0;0.0;0.0;0.0;0.0
3.0;1753877737.443821;14.232408;0.67;-1.35;-0.14;0.317271;0.933057;0.007649;0.0;0.0;0.0;0.0;0.0;0.0
3.0;1753877737.448552;14.207491;0.7;-1.3;-0.14;0.318294;0.932374;0.006513;0.0;0.0;0.0;0.0;0.0;0.0
3.0;1753877737.453283;14.186469;0.86;-1.27;-0.2;0.318911;0.930577;0.00785;0.0;0.0;0.0;0.0;0.0;0.0
3.0;1753877737.458014;14.22945;0.77;-1.43;-0.07;0.317087;0.932844;0.0079;0.0;0.0;0.0;0.0;0.0;0.0
3.0;1753877737.462745;14.212036;0.7;-1.42;-0.24;0.318001;0.931999;0.007295;0.0;0.0;0.0;0.0;0.0;0.0
3.0;1753877737.467476;14.200307;0.74;-1.38;-0.13;0.319077;0.932473;0.008938;0.0;0.0;0.0;0.0;0.0;0.0
3.0;1753877737.472206;14.194569;0.79;-1.31;-0.17;0.318684;0.931317;0.007235;0.0;0.0;0.0;0.0;0.0;0.0
3.0;1753877737.476938;14.187769;0.72;-1.36;-0.17;0.319244;0.930855;0.007848;0.0;0.0;0.0;0.0;0.0;0.0
3.0;1753877737.481668;14.208053;0.79;-1.27;-0.21;0.319069;0.932015;0.007746;0.0;0.0;0.0;0.0;0.0;0.0
3.0;1753877737.4864;14.215002;0.78;-1.32;-0.15;0.31822;0.933116;0.007298;0.0;0.0;0.0;0.0;0.0;0.0
3.0;1753877737.49113;14.205205;0.77;-1.43;-0.1;0.318755;0.932996;0.007876;0.0;0.0;0.0;0.0;0.0;0.0
3.0;1753877737.495861;14.206169;0.78;-1.38;-0.11;0.318302;0.932781;0.007578;0.0;0.0;0.0;0.0;0.0;0.0
3.0;1753877737.500592;14.207221;0.74;-1.32;-0.26;0.317581;0.932123;0.008398;0.0;0.0;0.0;0.0;0.0;0.0
3.0;1753877737.505323;14.21783;0.74;-1.34;-0.16;0.318198;0.933189;0.008395;0.0;0.0;0.0;0.0;0.0;0.0
3.0;1753877737.510054;14.192332;0.82;-1.3;-0.09;0.318779;0.932745;0.00717;0.0;0.0;0.0;0.0;0.0;0.0
3.0;1753877737.514785;14.195378;0.72;-1.37;-0.2;0.319113;0.931479;0.007648;0.0;0.0;0.0;0.0;0.0;0.0
3.0;1753877737.519516;14.183809;0.77;-1.4;-0.1;0.319127;0.931133;0.006823;0.0;0.0;0.0;0.0;0.0;0.0
3.0;1753877737.524247;14.201003;0.65;-1.44;-0.15;0.318034;0.932142;0.007385;0.0;0.0;0.0;0.0;0.0;0.0
3.0;1753877737.528978;14.203854;0.74;-1.25;-0.07;0.318834;0.931688;0.007467;0.0;0.0;0.0;0.0;0.0;0.0
3.0;1753877737.533709;14.234461;0.77;-1.32;-0.17;0.318471;0.931354;0.00746;0.0;0.0;0.0;0.0;0.0;0.0
3.0;1753877737.53844;14.18742;0.78;-1.28;-0.21;0.320273;0.931654;0.007209;0.0;0.0;0.0;0.0;0.0;0.0
3.0;1753877737.543171;14.191057;0.77;-1.4;-0.12;0.318447;0.931433;0.007216;0.0;0.0;0.0;0.0;0.0;0.0
3.0;1753877737.547902;14.21594;0.72;-1.32;-0.12;0.318232;0.932866;0.007437;0.0;0.0;0.0;0.0;0.0;0.0
3.0;1753877737.552632;14.215867;0.72;-1.36;-0.06;0.318274;0.933128;0.0079;0.0;0.0;0.0;0.0;0.0;0.0
3.0;1753877737.557364;14.197202;0.78;-1.36;-0.22;0.319016;0.932298;0.006746;0.0;0.0;0.0;0.0;0.0;0.0
3.0;1753877737.562094;14.209148;0.78;-1.27;-0.11;0.318738;0.931545;0.0083;0.0;0.0;0.0;0.0;0.0;0.0
3.0;1753877737.566826;14.203795;0.78;-1.35;-0.17;0.318327;0.931295;0.007205;0.0;0.0;0.0;0.0;0.0;0.0
3.0;1753877737.571556;14.193981;0.81;-1.33;-0.12;0.320674;0.931854;0.006834;0.0;0.0;0.0;0.0;0.0;0.0
3.0;1753877737.576287;14.230932;0.68;-1.34;-0.06;0.318;0.930929;0.006979;0.0;0.0;0.0;0.0;0.0;0.0
3.0;1753877737.581018;14.209564;0.85;-1.38;-0.12;0.319061;0.932198;0.008489;0.0;0.0;0.0;0.0;0.0;0.0
3.0;1753877737.585749;14.214742;0.75;-1.26;-0.17;0.317159;0.932545;0.007797;0.0;0.0;0.0;0.0;0.0;0.0
3.0;1753877737.59048;14.206576;0.77;-1.34;-0.22;0.320443;0.930634;0.007836;0.0;0.0;0.0;0.0;0.0;0.0
3.0;1753877737.595211;14.187396;0.73;-1.27;-0.15;0.317994;0.933267;0.006942;0.0;0.0;0.0;0.0;0.0;0.0
3.0;1753877737.599942;14.199967;0.76;-1.34;-0.18;0.317551;0.930546;0.009056;0.0;0.0;0.0;0.0;0.0;0.0
3.0;1753877737.604673;14.219075;0.76;-1.35;-0.23;0.317449;0.932305;0.007359;0.0;0.0;0.0;0.0;0.0;0.0
3.0;1753877737.609404;14.197311;0.68;-1.34;-0.12;0.318245;0.932457;0.008533;0.0;0.0;0.0;0.0;0.0;0.0
3.0;1753877737.614135;14.198283;0.68;-1.28;-0.12;0.31854;0.931636;0.007692;0.0;0.0;0.0;0.0;0.0;0.0
3.0;1753877737.618866;14.193524;0.74;-1.29;-0.13;0.317941;0.932115;0.008157;0.0;0.0;0.0;0.0;0.0;0.0
3.0;1753877737.623597;14.204977;0.7;-1.4;-0.29;0.318109;0.932902;0.007957;0.0;0.0;0.0;0.0;0.0;0.0
3.0;1753877737.628328;14.194589;0.7;-1.37;-0.07;0.319731;0.931494;0.007774;0.0;0.0;0.0;0.0;0.0;0.0
3.0;1753877737.633058;14.207922;0.73;-1.25;-0.06;0.319311;0.931111;0.008344;0.0;0.0;0.0;0.0;0.0;0.0
3.0;1753877737.63779;14.18188;0.78;-1.3;-0.17;0.317841;0.930802;0.008084;0.0;0.0;0.0;0.0;0.0;0.0
3.0;1753877737.64252;14.185963;0.73;-1.33;-0.2;0.317365;0.931653;0.008782;0.0;0.0;0.0;0.0;0.0;0.0
3.0;1753877737.647251;14.196858;0.78;-1.3;-0.21;0.318286;0.932085;0.008626;0.0;0.0;0.0;0.0;0.0;0.0
3.0;1753877737.651982;14.197712;0.81;-1.21;-0.09;0.318653;0.9325;0.00717;0.0;0.0;0.0;0.0;0.0;0.0
3.0;1753877737.656713;14.202381;0.75;-1.36;-0.18;0.318758;0.931635;0.008591;0.0;0.0;0.0;0.0;0.0;0.0
3.0;1753877737.661444;14.209151;0.67;-1.32;-0.14;0.31981;0.931397;0.007606;0.0;0.0;0.0;0.0;0.0;0.0
3.0;1753877737.666175;14.209906;0.79;-1.34;-0.16;0.317548;0.931598;0.008765;0.0;0.0;0.0;0.0;0.0;0.0
3.0;1753877737.670906;14.19579;0.76;-1.37;-0.07;0.318313;0.93029;0.007747;0.0;0.0;0.0;0.0;0.0;0.0
3.0;1753877737.675637;14.239502;0.76;-1.34;-0.1;0.320612;0.932206;0.00756;0.0;0.0;0.0;0.0;0.0;0.0
3.0;1753877737.680368;14.190714;0.87;-1.33;-0.08;0.319079;0.931383;0.008489;0.0;0.0;0.0;0.0;0.0;0.0
3.0;1753877737.685099;14.189556;0.68;-1.36;-0.2;0.319811;0.93193;0.007619;0.0;0.0;0.0;0.0;0.0;0.0
3.0;1753877737.68983;14.200645;0.75;-1.38;-0.1;0.318629;0.931375;0.008522;0.0;0.0;0.0;0.0;0.0;0.0
3.0;1753877737.694561;14.215039;0.74;-1.32;-0.05;0.318812;0.932281;0.008251;0.0;0.0;0.0;0.0;0.0;0.0
3.0;1753877737.699292;14.200733;0.75;-1.37;-0.21;0.318545;0.929997;0.006889;0.0;0.0;0.0;0.0;0.0;0.0
3.0;1753877737.704023;14.201633;0.79;-1.28;-0.1;0.31821;0.932959;0.008869;0.0;0.0;0.0;0.0;0.0;0.0
3.0;1753877737.708754;14.211956;0.81;-1.32;-0.16;0.319241;0.931158;0.007324;0.0;0.0;0.0;0.0;0.0;0.0
3.0;1753877737.713484;14.187327;0.71;-1.38;-0.14;0.319079;0.930256;0.00805;0.0;0.0;0.0;0.0;0.0;0.0
3.0;1753877737.718216;14.211442;0.76;-1.27;-0.16;0.317718;0.931629;0.008553;0.0;0.0;0.0;0.0;0.0;0.0
3.0;1753877737.722946;14.205343;0.74;-1.3;-0.18;0.318784;0.930772;0.006329;0.0;0.0;0.0;0.0;0.0;0.0
3.0;1753877737.727677;14.212335;0.74;-1.37;-0.14;0.319269;0.930418;0.007066;0.0;0.0;0.0;0.0;0.0;0.0
3.0;1753877737.732408;14.211492;0.77;-1.36;-0.21;0.318316;0.931592;0.007708;0.0;0.0;0.0;0.0;0.0;0.0
3.0;1753877737.737139;14.201863;0.72;-1.36;-0.15;0.317316;0.93223;0.007988;0.0;0.0;0.0;0.0;0.0;0.0
3.0;1753877737.74187;14.24604;0.83;-1.34;-0.13;0.31852;0.930441;0.008913;0.0;0.0;0.0;0.0;0.0;0.0
3.0;1753877737.746601;14.21344;0.78;-1.3;-0.2;0.317822;0.93069;0.006508;0.0;0.0;0.0;0.0;0.0;0.0
3.0;1753877737.751332;14.211761;0.8;-1.37;-0.09;0.318963;0.931935;0.008458;0.0;0.0;0.0;0.0;0.0;0.0
3.0;1753877737.756063;14.2204;0.76;-1.27;-0.15;0.319302;0.931503;0.007021;0.0;0.0;0.0;0.0;0.0;0.0
3.0;1753877737.760794;14.21569;0.79;-1.3;-0.19;0.318126;0.930916;0.007501;0.0;0.0;0.0;0.0;0.0;0.0
3.0;1753877737.765525;14.202059;0.72;-1.33;-0.17;0.318801;0.931004;0.008454;0.0;0.0;0.0;0.0;0.0;0.0
3.0;1753877737.770256;14.216103;0.72;-1.22;-0.06;0.318893;0.93205;0.007865;0.0;0.0;0.0;0.0;0.0;0.0
3.0;1753877737.774987;14.203326;0.74;-1.29;-0.1;0.318116;0.93093;0.008207;0.0;0.0;0.0;0.0;0.0;0.0
3.0;1753877737.779718;14.199066;0.82;-1.26;-0.1;0.318616;0.931966;0.007676;0.0;0.0;0.0;0.0;0.0;0.0
3.0;1753877737.784448;14.210127;0.75;-1.38;-0.09;0.31985;0.931508;0.00645;0.0;0.0;0.0;0.0;0.0;0.0
3.0;1753877737.78918;14.222477;0.73;-1.41;-0.01;0.318533;0.930783;0.007126;0.0;0.0;0.0;0.0;0.0;0.0
3.0;1753877737.79391;14.192655;0.78;-1.34;-0.14;0.319938;0.931059;0.007838;0.0;0.0;0.0;0.0;0.0;0.0
3.0;1753877737.798642;14.199159;0.7;-1.27;-0.09;0.318065;0.930751;0.007863;0.0;0.0;0.0;0.0;0.0;0.0
3.0;1753877737.803372;14.194805;0.88;-1.29;-0.06;0.316939;0.929443;0.00753;0.0;0.0;0.0;0.0;0.0;0.0
3.0;1753877737.808103;14.200873;0.77;-1.33;-0.12;0.319266;0.930286;0.008665;0.0;0.0;0.0;0.0;0.0;0.0
3.0;1753877737.812834;14.205487;0.71;-1.25;-0.16;0.318584;0.93101;0.008136;0.0;0.0;0.0;0.0;0.0;0.0
3.0;1753877737.817565;14.215635;0.71;-1.39;-0.18;0.319785;0.930899;0.007403;0.0;0.0;0.0;0.0;0.0;0.0
3.0;1753877737.8237;14.203125;0.77;-1.33;-0.14;0.318908;0.931104;0.008174;0.0;0.0;0.0;0.0;0.0;0.0
3.0;1753877737.82413;14.21875;0.77;-1.33;-0.21;0.317322;0.932568;0.006588;0.0;0.0;0.0;0.0;0.0;0.0
3.0;1753877737.828861;14.201045;0.79;-1.27;-0.21;0.317275;0.932282;0.006752;0.0;0.0;0.0;0.0;0.0;0.0
3.0;1753877737.833592;14.205985;0.79;-1.28;-0.28;0.317868;0.933175;0.005458;0.0;0.0;0.0;0.0;0.0;0.0
3.0;1753877737.838323;14.206633;0.74;-1.39;-0.28;0.317108;0.932983;0.006789;0.0;0.0;0.0;0.0;0.0;0.0
3.0;1753877737.843054;14.238437;0.83;-1.28;-0.25;0.317554;0.931989;0.006739;0.0;0.0;0.0;0.0;0.0;0.0
3.0;1753877737.847785;14.218488;0.7;-1.34;-0.27;0.317911;0.932491;0.006773;0.0;0.0;0.0;0.0;0.0;0.0
3.0;1753877737.852516;14.193879;0.8;-1.37;-0.18;0.316488;0.933035;0.006067;0.0;0.0;0.0;0.0;0.0;0.0
3.0;1753877737.857247;14.201813;0.76;-1.32;-0.18;0.314974;0.93299;0.00664;0.0;0.0;0.0;0.0;0.0;0.0
3.0;1753877737.861978;14.211739;0.81;-1.31;-0.27;0.316349;0.931748;0.005666;0.0;0.0;0.0;0.0;0.0;0.0
3.0;1753877737.866708;14.215737;0.79;-1.27;-0.11;0.316075;0.931609;0.00757;0.0;0.0;0.0;0.0;0.0;0.0
3.0;1753877737.87144;14.200311;0.69;-1.29;-0.22;0.315175;0.933286;0.007188;0.0;0.0;0.0;0.0;0.0;0.0
3.0;1753877737.87617;14.211315;0.79;-1.31;-0.26;0.31882;0.932547;0.00816;0.0;0.0;0.0;0.0;0.0;0.0
3.0;1753877737.880901;14.224842;0.67;-1.22;-0.2;0.31724;0.932095;0.007829;0.0;0.0;0.0;0.0;0.0;0.0
3.0;1753877737.885632;14.216228;0.77;-1.23;-0.17;0.317465;0.932153;0.007314;0.0;0.0;0.0;0.0;0.0;0.0
3.0;1753877737.890363;14.201678;0.78;-1.33;-0.2;0.315655;0.931943;0.008388;0.0;0.0;0.0;0.0;0.0;0.0
3.0;1753877737.895094;14.214505;0.81;-1.2;-0.3;0.32013;0.932208;0.007117;0.0;0.0;0.0;0.0;0.0;0.0
3.0;1753877737.899825;14.205495;0.8;-1.28;-0.17;0.318083;0.93262;0.006834;0.0;0.0;0.0;0.0;0.0;0.0
3.0;1753877737.904556;14.187909;0.71;-1.26;-0.28;0.316532;0.932013;0.00701;0.0;0.0;0.0;0.0;0.0;0.0
3.0;1753877737.909287;14.19195;0.71;-1.29;-0.16;0.319452;0.931912;0.007132;0.0;0.0;0.0;0.0;0.0;0.0
3.0;1753877737.914018;14.178843;0.8;-1.26;-0.33;0.319117;0.932296;0.008552;0.0;0.0;0.0;0.0;0.0;0.0
3.0;1753877737.918749;14.217648;0.81;-1.25;-0.13;0.318348;0.932334;0.007808;0.0;0.0;0.0;0.0;0.0;0.0
3.0;1753877737.92348;14.18452;0.77;-1.21;-0.25;0.317532;0.931909;0.00825;0.0;0.0;0.0;0.0;0.0;0.0
3.0;1753877737.928211;14.19921;0.78;-1.24;-0.16;0.317695;0.932987;0.008575;0.0;0.0;0.0;0.0;0.0;0.0
3.0;1753877737.932942;14.182557;0.79;-1.26;-0.26;0.319726;0.932257;0.00728;0.0;0.0;0.0;0.0;0.0;0.0
3.0;1753877737.937672;14.189345;0.71;-1.21;-0.14;0.316359;0.93161;0.007771;0.0;0.0;0.0;0.0;0.0;0.0
3.0;1753877737.942404;14.194269;0.77;-1.1;-0.26;0.31803;0.931665;0.007639;0.0;0.0;0.0;0.0;0.0;0.0
3.0;1753877737.947134;14.17802;0.66;-1.24;-0.21;0.318589;0.932428;0.006605;0.0;0.0;0.0;0.0;0.0;0.0
3.0;1753877737.951866;14.199338;0.85;-1.16;-0.2;0.318251;0.93258;0.006492;0.0;0.0;0.0;0.0;0.0;0.0
3.0;1753877737.95825;14.1875;0.77;-1.19;-0.21;0.318054;0.931836;0.007808;0.0;0.0;0.0;0.0;0.0;0.0
3.0;1753877737.96427;14.1875;0.77;-1.26;-0.28;0.318908;0.932202;0.008174;0.0;0.0;0.0;0.0;0.0;0.0
3.0;1753877737.969001;14.189327;0.81;-0.02;0.39;0.292355;0.929022;0.00395;0.0;0.0;0.0;0.0;0.0;0.0
3.0;1753877737.975634;14.21875;1.47;0.77;-26.18;0.14335;0.992226;0.00183;0.0;0.0;0.0;0.0;0.0;0.0
3.0;1753877737.976079;14.21875;1.54;1.54;-25.48;0.459696;0.866444;-0.083082;0.0;0.0;0.0;0.0;0.0;0.0
3.0;1753877737.981514;14.21875;-0.28;-1.05;-28.63;0.395768;0.890478;-0.035136;0.0;0.0;0.0;0.0;0.0;0.0
3.0;1753877737.985658;14.21875;-1.12;-1.96;-30.8;0.280722;0.958066;-0.021106;0.0;0.0;0.0;0.0;0.0;0.0
3.0;1753877737.990172;14.195312;-1.05;-1.4;-30.1;0.419314;0.900116;-0.015128;0.0;0.0;0.0;0.0;0.0;0.0
3.0;1753877737.99484;14.195312;-0.77;-1.89;-33.6;0.410286;0.909998;0.010736;0.0;0.0;0.0;0.0;0.0;0.0
3.0;1753877737.999492;14.195312;-0.35;-2.03;-36.68;0.357826;0.93513;0.033062;0.0;0.0;0.0;0.0;0.0;0.0
3.0;1753877738.004223;14.240042;0.59;-3.21;-16.57;0.429852;0.96879;0.037553;0.0;0.0;0.0;0.0;0.0;0.0
3.0;1753877738.008954;14.206264;0.0;-1.11;-31.97;0.262407;0.912542;0.051813;0.0;0.0;0.0;0.0;0.0;0.0
3.0;1753877738.013685;14.198288;0.32;-1.11;-40.68;0.318045;0.935983;0.038709;0.0;0.0;0.0;0.0;0.0;0.0
3.0;1753877738.018416;14.165612;0.22;-2.04;-42.86;0.423981;0.941354;0.044458;0.0;0.0;0.0;0.0;0.0;0.0
3.0;1753877738.023147;14.202785;0.77;-1.91;-34.37;0.474779;0.890555;0.015667;0.0;0.0;0.0;0.0;0.0;0.0
3.0;1753877738.027878;14.199481;0.79;-2.91;-29.96;0.278267;0.895225;0.013867;0.0;0.0;0.0;0.0;0.0;0.0
3.0;1753877738.032608;14.166206;-0.8;-2.67;-43.46;0.429263;0.915235;0.037006;0.0;0.0;0.0;0.0;0.0;0.0
3.0;1753877738.03734;14.227133;0.54;-1.58;-29.74;0.362427;0.964492;0.074386;0.0;0.0;0.0;0.0;0.0;0.0
3.0;1753877738.04207;14.189365;-0.31;-3.47;-37.36;0.392746;0.939043;0.065602;0.0;0.0;0.0;0.0;0.0;0.0
3.0;1753877738.046801;14.198752;0.11;-1.45;-23.34;0.373124;0.969249;0.046339;0.0;0.0;0.0;0.0;0.0;0.0
3.0;1753877738.051532;14.237862;-0.36;-1.75;-33.4;0.303086;0.897661;0.06756;0.0;0.0;0.0;0.0;0.0;0.0
3.0;1753877738.056263;14.201412;0.74;-3.58;-35.6;0.314037;0.983713;0.033054;0.0;0.0;0.0;0.0;0.0;0.0
3.0;1753877738.060994;14.180431;-0.7;-2.34;-28.22;0.355973;0.888892;0.069579;0.0;0.0;0.0;0.0;0.0;0.0
3.0;1753877738.065725;14.221347;0.69;-0.5;-45.92;0.390894;0.9437;0.016235;0.0;0.0;0.0;0.0;0.0;0.0
3.0;1753877738.070456;14.214043;-1.39;-1.35;-35.9;0.275354;0.943244;0.029747;0.0;0.0;0.0;0.0;0.0;0.0
3.0;1753877738.075187;14.201775;0.51;-1.19;-26.46;0.397;0.922471;0.049024;0.0;0.0;0.0;0.0;0.0;0.0
3.0;1753877738.079918;14.158945;-0.75;-3.62;-36.07;0.376165;0.912443;0.010837;0.0;0.0;0.0;0.0;0.0;0.0
3.0;1753877738.084649;14.152327;-0.58;-1.66;-38.54;0.366143;0.956058;0.059326;0.0;0.0;0.0;0.0;0.0;0.0
3.0;1753877738.08938;14.19301;-0.9;-2.86;-31.93;0.442361;0.978762;0.067211;0.0;0.0;0.0;0.0;0.0;0.0
3.0;1753877738.094111;14.194424;-1.35;-2.26;-42.8;0.433795;0.881006;0.000701;0.0;0.0;0.0;0.0;0.0;0.0
3.0;1753877738.098842;14.173639;-0.31;-3.17;-43.83;0.385839;0.929952;0.042635;0.0;0.0;0.0;0.0;0.0;0.0
3.0;1753877738.103572;14.189627;-0.7;-3.42;-23.02;0.355719;0.917485;0.032632;0.0;0.0;0.0;0.0;0.0;0.0
3.0;1753877738.108304;14.179022;0.41;-1.62;-33.66;0.254022;0.895152;0.001317;0.0;0.0;0.0;0.0;0.0;0.0
3.0;1753877738.113034;14.200473;-1.36;-2.98;-38.34;0.448337;0.927439;-0.06244;0.0;0.0;0.0;0.0;0.0;0.0
3.0;1753877738.117766;14.152172;-0.57;-2.28;-33.1;0.472913;0.927593;0.059513;0.0;0.0;0.0;0.0;0.0;0.0
3.0;1753877738.122496;14.19486;-0.5;-1.51;-41.45;0.395351;0.938269;0.037895;0.0;0.0;0.0;0.0;0.0;0.0
3.0;1753877738.127227;14.194829;0.13;-2.47;-18.87;0.287877;0.919293;-0.013962;0.0;0.0;0.0;0.0;0.0;0.0
3.0;1753877738.131958;14.204816;0.82;-1.58;-49.61;0.413594;0.925628;0.015589;0.0;0.0;0.0;0.0;0.0;0.0
3.0;1753877738.136689;14.188221;-0.3;-2.79;-35.74;0.280927;0.850473;0.084361;0.0;0.0;0.0;0.0;0.0;0.0
3.0;1753877738.14142;14.193492;-0.23;-1.85;-43.83;0.400871;0.895909;0.039245;0.0;0.0;0.0;0.0;0.0;0.0
3.0;1753877738.146151;14.245069;-0.1;-2.86;-30.44;0.39463;0.9619;-0.04298;0.0;0.0;0.0;0.0;0.0;0.0
3.0;1753877738.150882;14.208733;0.48;-2.78;-31.34;0.28542;0.913283;0.004478;0.0;0.0;0.0;0.0;0.0;0.0
3.0;1753877738.155613;14.192629;0.17;-1.55;-51.43;0.493836;0.925982;0.025644;0.0;0.0;0.0;0.0;0.0;0.0
3.0;1753877738.160344;14.197317;0.3;-2.06;-30.62;0.453197;0.951004;0.069291;0.0;0.0;0.0;0.0;0.0;0.0
3.0;1753877738.165075;14.243028;-0.98;-0.82;-38.42;0.434354;0.925914;-0.039086;0.0;0.0;0.0;0.0;0.0;0.0
3.0;1753877738.169806;14.217731;-0.14;-0.62;-43.53;0.358531;0.937241;0.009519;0.0;0.0;0.0;0.0;0.0;0.0
3.0;1753877738.174537;14.202405;0.48;-2.72;-49.68;0.328483;0.993651;0.070137;0.0;0.0;0.0;0.0;0.0;0.0
3.0;1753877738.179268;14.119732;-0.0;-2.68;-21.84;0.340734;0.929246;0.0306;0.0;0.0;0.0;0.0;0.0;0.0
3.0;1753877738.183998;14.210475;-0.67;-1.15;-34.33;0.319093;0.917092;0.060972;0.0;0.0;0.0;0.0;0.0;0.0
3.0;1753877738.18873;14.202701;-0.49;-2.96;-39.8;0.312809;0.970183;0.025323;0.0;0.0;0.0;0.0;0.0;0.0
3.0;1753877738.19346;14.187953;-0.26;-2.71;-41.12;0.309279;0.918165;0.017762;0.0;0.0;0.0;0.0;0.0;0.0
3.0;1753877738.198192;14.157189;0.42;-2.09;-32.33;0.459702;0.932908;-0.00101;0.0;0.0;0.0;0.0;0.0;0.0
3.0;1753877738.202922;14.18516;0.19;-2.2;-29.74;0.371775;0.884186;0.028587;0.0;0.0;0.0;0.0;0.0;0.0
3.0;1753877738.207653;14.191975;-0.92;-3.59;-30.31;0.453354;0.902157;0.043849;0.0;0.0;0.0;0.0;0.0;0.0
3.0;1753877738.212384;14.189257;0.15;-2.23;-21.35;0.298521;0.870168;0.006501;0.0;0.0;0.0;0.0;0.0;0.0
3.0;1753877738.217115;14.196447;-0.1;-3.02;-43.63;0.401945;0.952002;-0.000567;0.0;0.0;0.0;0.0;0.0;0.0
3.0;1753877738.221846;14.200582;-0.67;-1.76;-33.16;0.36515;0.937896;0.004039;0.0;0.0;0.0;0.0;0.0;0.0
3.0;1753877738.226577;14.181659;-0.23;-2.74;-40.8;0.442459;0.945552;-0.035481;0.0;0.0;0.0;0.0;0.0;0.0
3.0;1753877738.231308;14.189839;0.29;-2.12;-53.09;0.493892;0.925222;-0.055982;0.0;0.0;0.0;0.0;0.0;0.0
3.0;1753877738.236039;14.175553;-0.18;-2.8;-43.09;0.33086;0.92606;0.045188;0.0;0.0;0.0;0.0;0.0;0.0
3.0;1753877738.24077;14.194984;-0.15;-2.39;-45.98;0.444931;0.932376;0.01029;0.0;0.0;0.0;0.0;0.0;0.0
3.0;1753877738.245501;14.20873;0.53;-2.62;-28.88;0.452774;0.901301;0.018206;0.0;0.0;0.0;0.0;0.0;0.0
3.0;1753877738.250232;14.192521;0.07;-2.82;-22.95;0.399468;0.893907;0.028969;0.0;0.0;0.0;0.0;0.0;0.0
3.0;1753877738.254963;14.198896;-0.37;-0.76;-37.46;0.424966;0.899054;0.020185;0.0;0.0;0.0;0.0;0.0;0.0
3.0;1753877738.259694;14.196768;2.52;-0.55;-37.71;0.33914;0.927586;0.003867;0.0;0.0;0.0;0.0;0.0;0.0
3.0;1753877738.264424;14.227492;0.32;-2.45;-24.91;0.386697;0.915882;0.024141;0.0;0.0;0.0;0.0;0.0;0.0
3.0;1753877738.269156;14.202273;-0.08;-2.99;-49.49;0.390344;0.921446;0.011056;0.0;0.0;0.0;0.0;0.0;0.0
3.0;1753877738.273886;14.191022;-1.28;-2.09;-37.54;0.337007;0.923132;0.01929;0.0;0.0;0.0;0.0;0.0;0.0
3.0;1753877738.278618;14.215216;1.62;-2.13;-33.91;0.408138;0.936557;0.000603;0.0;0.0;0.0;0.0;0.0;0.0
3.0;1753877738.283348;14.158799;-0.47;-0.23;-36.59;0.389906;0.934991;0.056766;0.0;0.0;0.0;0.0;0.0;0.0
3.0;1753877738.288079;14.164548;0.29;-1.58;-33.34;0.340089;0.928835;-0.040446;0.0;0.0;0.0;0.0;0.0;0.0
3.0;1753877738.29281;14.196957;-0.62;-1.27;-30.89;0.316086;0.908576;0.049167;0.0;0.0;0.0;0.0;0.0;0.0
3.0;1753877738.297541;14.165962;1.12;-1.13;-34.61;0.343154;0.906485;-0.000528;0.0;0.0;0.0;0.0;0.0;0.0
3.0;1753877738.302272;14.203436;0.22;-2.06;-29.08;0.306171;0.880706;-0.012134;0.0;0.0;0.0;0.0;0.0;0.0
3.0;1753877738.307003;14.202279;-0.45;-1.37;-46.03;0.282968;0.964108;0.012769;0.0;0.0;0.0;0.0;0.0;0.0
3.0;1753877738.311734;14.186328;-0.2;-1.44;-30.53;0.406975;0.928901;0.015335;0.0;0.0;0.0;0.0;0.0;0.0
3.0;1753877738.316465;14.179399;-0.05;-1.83;-28.16;0.396533;0.892751;0.031138;0.0;0.0;0.0;0.0;0.0;0.0
3.0;1753877738.321196;14.234454;0.03;-2.57;-35.59;0.447107;0.904084;-0.026878;0.0;0.0;0.0;0.0;0.0;0.0
3.0;1753877738.325927;14.175583;-0.18;-2.06;-42.9;0.343074;0.847549;0.016389;0.0;0.0;0.0;0.0;0.0;0.0
3.0;1753877738.330658;14.227593;-0.44;-3.75;-44.15;0.395401;0.908272;0.001804;0.0;0.0;0.0;0.0;0.0;0.0
3.0;1753877738.335389;14.210829;0.79;-0.99;-37.94;0.3231;0.896684;0.020854;0.0;0.0;0.0;0.0;0.0;0.0
3.0;1753877738.34012;14.176197;-0.59;-1.36;-39.13;0.403635;0.957139;0.007426;0.0;0.0;0.0;0.0;0.0;0.0
3.0;1753877738.34485;14.182982;-1.33;-2.2;-62.69;0.34414;0.924748;-0.000487;0.0;0.0;0.0;0.0;0.0;0.0
3.0;1753877738.349582;14.201739;-0.1;-1.23;-49.06;0.42461;0.956816;0.028511;0.0;0.0;0.0;0.0;0.0;0.0
3.0;1753877738.354312;14.158566;-2.08;-2.74;-22.31;0.427156;0.919139;0.02622;0.0;0.0;0.0;0.0;0.0;0.0
3.0;1753877738.359043;14.241872;0.21;-1.13;-35.91;0.366629;0.902324;0.022096;0.0;0.0;0.0;0.0;0.0;0.0
3.0;1753877738.363774;14.187896;-0.79;-0.68;-42.07;0.305144;0.944629;0.022857;0.0;0.0;0.0;0.0;0.0;0.0
3.0;1753877738.368505;14.183521;-0.59;-1.05;-22.88;0.470758;0.921197;0.018827;0.0;0.0;0.0;0.0;0.0;0.0
3.0;1753877738.373236;14.195525;1.1;-2.25;-29.3;0.391023;0.910546;0.021232;0.0;0.0;0.0;0.0;0.0;0.0
3.0;1753877738.377967;14.126088;-1.25;-2.87;-41.41;0.281547;0.942165;0.015076;0.0;0.0;0.0;0.0;0.0;0.0
3.0;1753877738.382698;14.203852;0.94;-0.45;-38.6;0.3953;0.936466;0.002324;0.0;0.0;0.0;0.0;0.0;0.0
3.0;1753877738.387429;14.185353;-0.07;-2.66;-38.75;0.296749;0.947084;0.015242;0.0;0.0;0.0;0.0;0.0;0.0
3.0;1753877738.39216;14.202296;-1.15;-2.3;-42.58;0.35225;0.952602;0.011518;0.0;0.0;0.0;0.0;0.0;0.0
3.0;1753877738.396891;14.167556;-0.63;-2.17;-44.55;0.240112;0.958556;0.004444;0.0;0.0;0.0;0.0;0.0;0.0
3.0;1753877738.401622;14.243497;-0.89;-1.29;-38.23;0.388381;0.913083;-0.015965;0.0;0.0;0.0;0.0;0.0;0.0
3.0;1753877738.406353;14.158013;-0.27;-1.86;-35.18;0.36759;0.940265;0.0558;0.0;0.0;0.0;0.0;0.0;0.0
3.0;1753877738.411084;14.239026;1.08;-1.27;-52.31;0.377394;0.95233;0.031989;0.0;0.0;0.0;0.0;0.0;0.0
3.0;1753877738.415815;14.192753;-0.74;-2.48;-40.46;0.330274;0.889013;0.004286;0.0;0.0;0.0;0.0;0.0;0.0
3.0;1753877738.420546;14.239429;-0.24;-0.02;-43.99;0.361719;0.910272;0.001512;0.0;0.0;0.0;0.0;0.0;0.0
3.0;1753877738.425276;14.178189;1.04;-1.78;-28.52;0.306981;0.927609;-0.022534;0.0;0.0;0.0;0.0;0.0;0.0
3.0;1753877738.430008;14.184827;0.66;-2.17;-39.46;0.356177;0.895091;-0.015312;0.0;0.0;0.0;0.0;0.0;0.0
3.0;1753877738.434738;14.200763;2.15;-2.29;-39.42;0.383718;0.915503;-0.007054;0.0;0.0;0.0;0.0;0.0;0.0
3.0;1753877738.439469;14.21662;0.21;-1.15;-41.16;0.373612;0.950064;0.00943;0.0;0.0;0.0;0.0;0.0;0.0
3.0;1753877738.4442;14.165965;0.93;-0.92;-24.33;0.372631;0.896559;0.015348;0.0;0.0;0.0;0.0;0.0;0.0
3.0;1753877738.448931;14.21385;0.57;-1.57;-42.12;0.293643;0.921994;-0.025154;0.0;0.0;0.0;0.0;0.0;0.0
3.0;1753877738.453662;14.165112;-0.48;-1.29;-34.75;0.332068;0.92929;-0.044384;0.0;0.0;0.0;0.0;0.0;0.0
3.0;1753877738.458393;14.169626;0.23;-3.13;-38.4;0.447971;0.915599;0.018031;0.0;0.0;0.0;0.0;0.0;0.0
3.0;1753877738.463124;14.200902;-0.21;-2.27;-30.26;0.542326;0.907964;-0.004234;0.0;0.0;0.0;0.0;0.0;0.0
3.0;1753877738.467855;14.169815;-0.3;-1.11;-38.91;0.303374;0.877529;0.004464;0.0;0.0;0.0;0.0;0.0;0.0
3.0;1753877738.472586;14.208026;0.15;-3.16;-41.32;0.350089;0.922952;-0.013934;0.0;0.0;0.0;0.0;0.0;0.0
3.0;1753877738.477317;14.21685;0.27;-1.13;-34.96;0.374901;0.918656;-0.022226;0.0;0.0;0.0;0.0;0.0;0.0
3.0;1753877738.482048;14.171203;0.47;0.23;-44.05;0.310014;0.931728;0.032159;0.0;0.0;0.0;0.0;0.0;0.0
3.0;1753877738.486779;14.208248;-0.71;-2.9;-19.06;0.408379;0.94281;0.024224;0.0;0.0;0.0;0.0;0.0;0.0
3.0;1753877738.49151;14.169834;1.3;-0.98;-47.81;0.379562;0.899054;-0.01734;0.0;0.0;0.0;0.0;0.0;0.0
3.0;1753877738.49624;14.206294;-0.17;0.64;-43.57;0.366241;0.933417;-0.05529;0.0;0.0;0.0;0.0;0.0;0.0
3.0;1753877738.500972;14.218757;0.18;-0.95;-40.33;0.267889;0.902042;-0.018267;0.0;0.0;0.0;0.0;0.0;0.0
3.0;1753877738.505702;14.232293;-0.63;-2.18;-30.68;0.454021;0.905674;0.003216;0.0;0.0;0.0;0.0;0.0;0.0
3.0;1753877738.510434;14.245503;1.27;-1.8;-57.42;0.275199;0.954328;-0.015096;0.0;0.0;0.0;0.0;0.0;0.0
3.0;1753877738.515164;14.165186;-0.51;-1.3;-47.62;0.387568;0.866662;0.012718;0.0;0.0;0.0;0.0;0.0;0.0
3.0;1753877738.519895;14.189637;-0.63;-1.31;-48.29;0.350943;0.962591;0.023471;0.0;0.0;0.0;0.0;0.0;0.0
3.0;1753877738.524626;14.143332;0.59;-0.88;-46.17;0.280463;0.897981;-0.018688;0.0;0.0;0.0;0.0;0.0;0.0
3.0;1753877738.529357;14.204855;-0.09;-0.24;-37.78;0.357285;0.97291;-0.03701;0.0;0.0;0.0;0.0;0.0;0.0
3.0;1753877738.534088;14.181526;0.49;-2.06;-35.84;0.426782;0.95191;-0.026993;0.0;0.0;0.0;0.0;0.0;0.0
3.0;1753877738.538819;14.201696;0.66;-2.78;-32.69;0.413399;0.922418;-0.003397;0.0;0.0;0.0;0.0;0.0;0.0
3.0;1753877738.54355;14.159825;-0.76;-2.17;-50.16;0.404421;0.917793;-0.025823;0.0;0.0;0.0;0.0;0.0;0.0
3.0;1753877738.548281;14.177034;0.43;-3.18;-29.6;0.409818;0.87493;0.032122;0.0;0.0;0.0;0.0;0.0;0.0
3.0;1753877738.553012;14.190112;0.39;-1.15;-31.08;0.399943;0.928341;-0.028771;0.0;0.0;0.0;0.0;0.0;0.0
3.0;1753877738.557743;14.176713;-0.38;-2.07;-42.9;0.314673;0.895827;-0.054278;0.0;0.0;0.0;0.0;0.0;0.0
3.0;1753877738.562474;14.237095;-0.95;-2.85;-38.28;0.329685;0.934466;-0.016597;0.0;0.0;0.0;0.0;0.0;0.0
3.0;1753877738.567205;14.194598;-0.15;-2.0;-57.6;0.43606;0.884755;0.036218;0.0;0.0;0.0;0.0;0.0;0.0
3.0;1753877738.571936;14.214746;-0.14;-2.57;-39.36;0.302602;0.883775;0.041949;0.0;0.0;0.0;0.0;0.0;0.0
3.0;1753877738.576666;14.201636;-0.04;-0.4;-40.54;0.305874;0.9319;-0.067355;0.0;0.0;0.0;0.0;0.0;0.0
3.0;1753877738.581398;14.202041;1.38;-1.12;-35.56;0.4674;0.960464;0.029623;0.0;0.0;0.0;0.0;0.0;0.0
3.0;1753877738.586128;14.244828;0.95;-2.0;-46.84;0.427137;0.897607;0.050033;0.0;0.0;0.0;0.0;0.0;0.0
3.0;1753877738.59086;14.237797;-1.26;-1.33;-28.13;0.389642;0.922882;-0.014403;0.0;0.0;0.0;0.0;0.0;0.0
3.0;1753877738.59559;14.221404;-0.82;-1.72;-36.56;0.38941;0.951822;0.024636;0.0;0.0;0.0;0.0;0.0;0.0
3.0;1753877738.600321;14.182681;0.55;-1.22;-41.17;0.292472;0.907969;0.011606;0.0;0.0;0.0;0.0;0.0;0.0
3.0;1753877738.605052;14.183594;1.85;-3.89;-35.01;0.359012;0.897576;0.007955;0.0;0.0;0.0;0.0;0.0;0.0
3.0;1753877738.609783;14.226402;0.02;-1.46;-40.11;0.317343;0.952675;0.00531;0.0;0.0;0.0;0.0;0.0;0.0
3.0;1753877738.614514;14.19618;0.74;-2.56;-30.61;0.47451;0.893823;-0.049465;0.0;0.0;0.0;0.0;0.0;0.0
3.0;1753877738.619245;14.199615;-1.16;-2.02;-33.78;0.421594;0.907382;-0.012647;0.0;0.0;0.0;0.0;0.0;0.0
3.0;1753877738.623976;14.172456;-0.12;-1.45;-53.03;0.437585;0.920429;-0.001818;0.0;0.0;0.0;0.0;0.0;0.0
3.0;1753877738.628707;14.172366;0.29;-1.59;-48.81;0.283932;0.924429;-0.006718;0.0;0.0;0.0;0.0;0.0;0.0
3.0;1753877738.633438;14.173884;0.71;-0.88;-47.27;0.382431;0.881298;-0.058246;0.0;0.0;0.0;0.0;0.0;0.0
3.0;1753877738.638169;14.173247;-0.18;-1.9;-45.98;0.375228;0.91743;-0.005681;0.0;0.0;0.0;0.0;0.0;0.0
3.0;1753877738.6429;14.185922;0.42;-1.17;-26.42;0.387402;0.940921;0.010783;0.0;0.0;0.0;0.0;0.0;0.0
3.0;1753877738.647631;14.161688;-0.77;-2.28;-42.35;0.360777;0.897626;-0.02679;0.0;0.0;0.0;0.0;0.0;0.0
3.0;1753877738.652362;14.216946;0.43;-2.09;-34.97;0.400153;0.919531;0.019769;0.0;0.0;0.0;0.0;0.0;0.0
3.0;1753877738.657092;14.159802;-0.82;-2.97;-31.05;0.331921;0.918258;0.004747;0.0;0.0;0.0;0.0;0.0;0.0
3.0;1753877738.661824;14.212275;0.86;-3.44;-23.33;0.416785;0.927517;-0.033503;0.0;0.0;0.0;0.0;0.0;0.0
