sep=,
PacketCounter,SampleTimeFine,Euler_X,Euler_Y,Euler_Z,Acc_X,Acc_Y,Acc_Z,Gyr_X,Gyr_Y,Gyr_Z,Mag_X,Mag_Y,Mag_Z,Status,
0, 2300021489, -90.52051544189453, -75.56777954101562, -41.008689880371094, 0, 0, 0, 0, 0, 0, -0.44580078125, 0.1279296875, 0.20654296875, 0, 
1, 2300029822, -90.50212860107422, -75.56097412109375, -41.0387077331543, 10.593955993652344, -2.11675763130188, 0.02820347249507904, 1.7793185710906982, -0.6664440035820007, 1.9116414785385132, -0.44677734375, 0.123046875, 0.21533203125, 0, 
2, 2300038155, -90.48274993896484, -75.5648193359375, -41.06279373168945, 8.206169128417969, -3.300961494445801, 0.2954593002796173, 1.8931736946105957, -0.7368318438529968, 0.6530860662460327, -0.447265625, 0.12353515625, 0.22265625, 0, 
3, 2300046488, -90.45513153076172, -75.57011413574219, -41.0859260559082, 7.2541913986206055, -3.0078940391540527, 0.5944404006004333, 4.230600833892822, -1.0815227031707764, 0.4746830463409424, -0.4453125, 0.13037109375, 0.203125, 0, 
4, 2300054821, -90.52449035644531, -75.57283782958984, -41.0014533996582, 9.51032829284668, -2.1044349670410156, 0.4044211506843567, 4.554492950439453, -4.084536075592041, 0.7380486130714417, -0.44677734375, 0.13037109375, 0.201171875, 0, 
5, 2300063154, -90.53388977050781, -75.57137298583984, -40.98658752441406, 11.584356307983398, -1.8812416791915894, -0.6584009528160095, 3.6663448810577393, -2.004941701889038, 1.2564295530319214, -0.44775390625, 0.12646484375, 0.20654296875, 0, 
6, 2300071487, -90.51522827148438, -75.56336975097656, -41.03221130371094, 11.338372230529785, -1.9884281158447266, -0.1983877718448639, 1.4405444860458374, -0.6570946574211121, 2.0736515522003174, -0.44677734375, 0.1259765625, 0.21240234375, 0, 
7, 2300079820, -90.49417877197266, -75.56167602539062, -41.06597137451172, 9.059052467346191, -2.8892035484313965, -0.0038696436677128077, 1.6637213230133057, -0.5488746166229248, 1.2982574701309204, -0.447265625, 0.123046875, 0.2255859375, 0, 
8, 2300088153, -90.45531463623047, -75.56710815429688, -41.1029052734375, 7.38347053527832, -3.1706409454345703, 0.8865620493888855, 3.5867867469787598, -0.5676754117012024, 0.4633358120918274, -0.4443359375, 0.12890625, 0.21240234375, 0, 
9, 2300096486, -90.50665283203125, -75.57041931152344, -41.031837463378906, 8.3967866897583, -2.537853240966797, 0.7063982486724854, 4.767014026641846, -3.665384292602539, 0.6863334774971008, -0.44580078125, 0.130859375, 0.19677734375, 0, 
10, 2300104819, -90.54299926757812, -75.5718765258789, -40.98537826538086, 11.051875114440918, -1.961139440536499, -0.6292343735694885, 4.102837085723877, -2.9465208053588867, 0.8990085124969482, -0.447265625, 0.13037109375, 0.203125, 0, 
11, 2300113152, -90.52171325683594, -75.56459045410156, -41.01693344116211, 11.638982772827148, -1.7704930305480957, -0.3307048976421356, 1.9425066709518433, -0.6215678453445435, 1.9697601795196533, -0.4482421875, 0.126953125, 0.2080078125, 0, 
12, 2300121485, -90.4951400756836, -75.56041717529297, -41.066162109375, 9.935396194458008, -2.434152364730835, -0.20356357097625732, 1.5121619701385498, -0.4250554144382477, 1.6169241666793823, -0.4462890625, 0.12548828125, 0.22119140625, 0, 
13, 2300129818, -90.46769714355469, -75.56558227539062, -41.098331451416016, 7.718201160430908, -3.3890817165374756, 0.8997310996055603, 2.6194911003112793, -0.5872959494590759, 0.47396576404571533, -0.4462890625, 0.126953125, 0.21875, 0, 
14, 2300138151, -90.4900131225586, -75.56975555419922, -41.08217239379883, 7.568914413452148, -2.820969581604004, 0.517241358757019, 4.720703601837158, -2.753107786178589, 0.5930207967758179, -0.44091796875, 0.130859375, 0.19677734375, 0, 
15, 2300146484, -90.54537963867188, -75.57190704345703, -41.02671432495117, 10.405909538269043, -2.0943591594696045, 0.1038641557097435, 4.236722469329834, -3.6547796726226807, 0.8293120861053467, -0.4462890625, 0.13134765625, 0.19677734375, 0, 
16, 2300154817, -90.53858184814453, -75.5671615600586, -41.03836441040039, 11.917983055114746, -1.756928563117981, -0.7980232834815979, 2.5313010215759277, -1.2149728536605835, 1.6557296514511108, -0.44140625, 0.12939453125, 0.20166015625, 0, 
17, 2300163150, -90.52215576171875, -75.56092071533203, -41.06851577758789, 10.499222755432129, -2.1136624813079834, 0.01941595785319805, 1.5262497663497925, -0.6610649228096008, 1.8455055952072144, -0.44677734375, 0.12744140625, 0.21044921875, 0, 
18, 2300171483, -90.50125885009766, -75.56343841552734, -41.11200714111328, 8.179161071777344, -3.35036039352417, 0.22442859411239624, 1.8638709783554077, -0.6832725405693054, 0.812688410282135, -0.443359375, 0.12451171875, 0.21630859375, 0, 
19, 2300179816, -90.4874038696289, -75.56918334960938, -41.117923736572266, 7.227947235107422, -2.9664037227630615, 0.8535065054893494, 4.034472942352295, -1.3741909265518188, 0.39848068356513977, -0.44384765625, 0.134765625, 0.1953125, 0, 
20, 2300188149, -90.54743194580078, -75.57134246826172, -41.018611907958984, 9.507962226867676, -2.152244806289673, 0.14098042249679565, 4.515789985656738, -3.8716816902160645, 0.8246759176254272, -0.4404296875, 0.13134765625, 0.18896484375, 0, 
21, 2300196482, -90.55902099609375, -75.57064819335938, -40.99578857421875, 11.733781814575195, -1.880609393119812, -0.306704580783844, 3.6152703762054443, -2.1448721885681152, 1.1798429489135742, -0.4443359375, 0.1318359375, 0.19677734375, 0, 
22, 2300204815, -90.54492950439453, -75.5626449584961, -41.02481460571289, 11.323797225952148, -1.99983811378479, -0.34615856409072876, 1.3823491334915161, -0.6988204717636108, 2.0551326274871826, -0.44580078125, 0.1259765625, 0.20263671875, 0, 
23, 2300213148, -90.52655792236328, -75.56085205078125, -41.054813385009766, 8.976265907287598, -2.911229133605957, 0.1297803670167923, 1.779113531112671, -0.660808801651001, 1.3071199655532837, -0.44580078125, 0.126953125, 0.2158203125, 0, 
24, 2300221481, -90.49501037597656, -75.56681060791016, -41.07185363769531, 7.386085033416748, -3.0924232006073, 0.7365210056304932, 3.364583730697632, -0.7406740784645081, 0.4044743776321411, -0.44140625, 0.13134765625, 0.20556640625, 0, 
25, 2300229814, -90.54573822021484, -75.5708236694336, -41.00571823120117, 8.350973129272461, -2.5273284912109375, 0.6212852597236633, 4.659049987792969, -3.532984495162964, 0.5886663794517517, -0.44287109375, 0.13671875, 0.18798828125, 0, 
26, 2300238147, -90.58029174804688, -75.57288360595703, -40.956871032714844, 11.032180786132812, -2.0735890865325928, -0.5702981948852539, 4.300450801849365, -3.0270514488220215, 0.838814914226532, -0.4423828125, 0.13427734375, 0.19287109375, 0, 
27, 2300246480, -90.56454467773438, -75.56652069091797, -40.98999786376953, 11.604798316955566, -1.8506336212158203, -0.19414809346199036, 1.7112358808517456, -0.8164921998977661, 1.876652717590332, -0.44189453125, 0.13232421875, 0.1982421875, 0, 
28, 2300254813, -90.53853607177734, -75.56108856201172, -41.029056549072266, 10.050631523132324, -2.3659980297088623, -0.31978756189346313, 1.6443827152252197, -0.3941134512424469, 1.7488629817962646, -0.44287109375, 0.13037109375, 0.2099609375, 0, 
29, 2300263146, -90.51831817626953, -75.5666732788086, -41.05664825439453, 7.873471260070801, -3.2783803939819336, 0.9593619704246521, 2.2776436805725098, -0.7241016626358032, 0.4275016188621521, -0.44287109375, 0.1279296875, 0.2119140625, 0, 
30, 2300271479, -90.52887725830078, -75.56983947753906, -41.05727005004883, 7.4634222984313965, -2.9109222888946533, 0.507041871547699, 4.709228515625, -2.3837759494781494, 0.7073370814323425, -0.43994140625, 0.13525390625, 0.18798828125, 0, 
31, 2300279812, -90.57827758789062, -75.57312774658203, -40.99390411376953, 10.14871883392334, -2.148790121078491, 0.00439605163410306, 4.498755931854248, -3.4508650302886963, 0.6723736524581909, -0.443359375, 0.13427734375, 0.18798828125, 0, 
32, 2300288145, -90.5727310180664, -75.56964111328125, -41.021697998046875, 11.947278022766113, -1.7307840585708618, -0.6372153162956238, 2.686267375946045, -1.3807225227355957, 1.5244826078414917, -0.443359375, 0.13134765625, 0.193359375, 0, 
33, 2300296478, -90.55867767333984, -75.5625228881836, -41.053070068359375, 10.695775032043457, -2.008373260498047, -0.045164983719587326, 1.5983281135559082, -0.8383409976959229, 1.9674806594848633, -0.4453125, 0.12841796875, 0.205078125, 0, 
34, 2300304811, -90.52996063232422, -75.56416320800781, -41.095096588134766, 8.389756202697754, -3.3225767612457275, 0.23208753764629364, 1.6181279420852661, -0.29680493474006653, 0.905616819858551, -0.44287109375, 0.1318359375, 0.212890625, 0, 
35, 2300313144, -90.50944519042969, -75.56918334960938, -41.108131408691406, 7.29304838180542, -3.0630874633789062, 0.8714959621429443, 4.009396553039551, -1.1613367795944214, 0.4871571660041809, -0.44482421875, 0.13525390625, 0.1943359375, 0, 
36, 2300321477, -90.57365417480469, -75.5720443725586, -41.013004302978516, 9.309253692626953, -2.1865899562835693, 0.3517962098121643, 4.560742378234863, -4.012073040008545, 0.7369215488433838, -0.443359375, 0.13525390625, 0.18701171875, 0, 
37, 2300329810, -90.59192657470703, -75.57198333740234, -40.986961364746094, 11.568981170654297, -1.910200834274292, -0.4920791685581207, 3.8969500064849854, -2.3384132385253906, 1.0842249393463135, -0.44287109375, 0.1357421875, 0.19189453125, 0, 
38, 2300338143, -90.57279205322266, -75.564453125, -41.01530838012695, 11.391500473022461, -1.9126060009002686, -0.39928704500198364, 1.6079591512680054, -0.6853985786437988, 2.0132789611816406, -0.44580078125, 0.13427734375, 0.2001953125, 0, 
39, 2300346476, -90.54622650146484, -75.56291961669922, -41.05588912963867, 9.132301330566406, -2.82312273979187, -0.028530264273285866, 1.5283246040344238, -0.3445242941379547, 1.2861418724060059, -0.4453125, 0.12841796875, 0.2138671875, 0, 
40, 2300354809, -90.50284576416016, -75.56901550292969, -41.099327087402344, 7.288280487060547, -3.120767116546631, 0.8720729947090149, 3.4281070232391357, -0.388785719871521, 0.38738974928855896, -0.439453125, 0.1337890625, 0.201171875, 0, 
41, 2300363142, -90.54920196533203, -75.57246398925781, -41.03816223144531, 8.291728973388672, -2.5886473655700684, 0.6589107513427734, 4.612842082977295, -3.3870086669921875, 0.6545461416244507, -0.44140625, 0.1357421875, 0.18310546875, 0, 
42, 2300371475, -90.59508514404297, -75.57420349121094, -40.97837448120117, 11.138910293579102, -2.100492238998413, -0.3969108462333679, 4.019514083862305, -3.3090133666992188, 0.8829483985900879, -0.44482421875, 0.13427734375, 0.193359375, 0, 
43, 2300379808, -90.57256317138672, -75.56755828857422, -41.01033020019531, 11.802778244018555, -1.7908650636672974, -0.37167197465896606, 1.7845183610916138, -0.6259990930557251, 1.902753472328186, -0.4443359375, 0.134765625, 0.19580078125, 0, 
44, 2300388141, -90.55301666259766, -75.5616455078125, -41.04129409790039, 9.956669807434082, -2.3863353729248047, 0.0466802753508091, 1.8109009265899658, -0.6390367150306702, 1.8045740127563477, -0.44580078125, 0.12890625, 0.20556640625, 0, 
45, 2300396474, -90.53227996826172, -75.5658950805664, -41.06888198852539, 7.785684108734131, -3.3272316455841064, 0.721802830696106, 2.3406031131744385, -0.725382387638092, 0.5894860625267029, -0.4443359375, 0.1298828125, 0.20654296875, 0, 
46, 2300404807, -90.53064727783203, -75.57030487060547, -41.0562744140625, 7.4561262130737305, -2.8400793075561523, 0.3765552341938019, 4.4567742347717285, -1.9483084678649902, 0.5760385990142822, -0.44140625, 0.1396484375, 0.18359375, 0, 
47, 2300413140, -90.589111328125, -75.5720443725586, -40.98284149169922, 10.103042602539062, -2.103628635406494, 0.2650100588798523, 4.5840253829956055, -3.754240036010742, 0.8514171242713928, -0.43994140625, 0.13720703125, 0.18505859375, 0, 
48, 2300421473, -90.59075164794922, -75.56988525390625, -40.980491638183594, 11.771450996398926, -1.8211617469787598, -0.7656295299530029, 2.93070387840271, -1.6633754968643188, 1.3641372919082642, -0.44775390625, 0.134765625, 0.19189453125, 0, 
49, 2300429806, -90.56525421142578, -75.56250762939453, -41.019439697265625, 10.935486793518066, -2.035468101501465, -0.05910983309149742, 1.509652018547058, -0.4658845365047455, 2.0008304119110107, -0.44287109375, 0.13037109375, 0.19921875, 0, 
50, 2300438139, -90.54564666748047, -75.56551361083984, -41.05278778076172, 8.605423927307129, -3.121795415878296, 0.16182862222194672, 1.536521315574646, -0.5549452304840088, 0.7418139576911926, -0.44482421875, 0.130859375, 0.2109375, 0, 
51, 2300446472, -90.52191925048828, -75.57123565673828, -41.07212829589844, 7.21638822555542, -3.1708154678344727, 0.8844090104103088, 3.655970573425293, -0.971586287021637, 0.4059343636035919, -0.44384765625, 0.13525390625, 0.18798828125, 0, 
52, 2300454805, -90.57527160644531, -75.5744857788086, -40.99684143066406, 9.018999099731445, -2.353142261505127, 0.4640320837497711, 4.696805477142334, -3.708697557449341, 0.6869737505912781, -0.44189453125, 0.13623046875, 0.18115234375, 0, 
53, 2300463138, -90.599853515625, -75.57479858398438, -40.96774673461914, 11.503812789916992, -1.7268108129501343, -0.6778676509857178, 3.4988534450531006, -2.4304709434509277, 1.0386316776275635, -0.44287109375, 0.1328125, 0.1875, 0, 
54, 2300471471, -90.57821655273438, -75.5663833618164, -41.00007247924805, 11.433330535888672, -1.8755146265029907, -0.18342901766300201, 1.8220174312591553, -0.6671355962753296, 2.1198339462280273, -0.44482421875, 0.134765625, 0.193359375, 0, 
55, 2300479804, -90.55411529541016, -75.56495666503906, -41.039852142333984, 9.2322998046875, -2.828792095184326, -0.25499358773231506, 1.4634181261062622, -0.48824578523635864, 1.2888314723968506, -0.443359375, 0.13427734375, 0.2060546875, 0, 
56, 2300488137, -90.51127624511719, -75.57064819335938, -41.078834533691406, 7.429845809936523, -3.3513453006744385, 1.1893645524978638, 3.6711339950561523, -0.3828943371772766, 0.41392597556114197, -0.44091796875, 0.13720703125, 0.19677734375, 0, 
57, 2300496470, -90.57125854492188, -75.5741195678711, -41.00299835205078, 8.241278648376465, -2.453714370727539, 0.5689902901649475, 4.678056240081787, -3.8239364624023438, 0.6523178219795227, -0.44140625, 0.14111328125, 0.17822265625, 0, 
58, 2300504803, -90.60218811035156, -75.5757827758789, -40.96223449707031, 10.940978050231934, -2.099235773086548, -0.450529009103775, 4.071305274963379, -2.8591504096984863, 0.8893005847930908, -0.44287109375, 0.1328125, 0.18310546875, 0, 
59, 2300513136, -90.57799530029297, -75.56983947753906, -40.9962043762207, 11.802729606628418, -1.8242772817611694, -0.49293091893196106, 2.02004075050354, -0.5497198104858398, 1.8084161281585693, -0.4453125, 0.134765625, 0.1904296875, 0, 
60, 2300521469, -90.56108856201172, -75.56520080566406, -41.028682708740234, 9.939108848571777, -2.309784412384033, -0.03491969406604767, 1.212628960609436, -0.6527915000915527, 1.674889087677002, -0.44482421875, 0.13330078125, 0.201171875, 0, 
61, 2300529802, -90.52477264404297, -75.56995391845703, -41.06707000732422, 7.756467342376709, -3.2542614936828613, 0.5447620153427124, 2.68601131439209, -0.4146048128604889, 0.5438671112060547, -0.44189453125, 0.13232421875, 0.1982421875, 0, 
62, 2300538135, -90.53355407714844, -75.57592010498047, -41.04848098754883, 7.60074520111084, -2.810868501663208, 0.6607929468154907, 4.168614387512207, -2.110856294631958, 0.36525899171829224, -0.4384765625, 0.13671875, 0.17822265625, 0, 
63, 2300546468, -90.59041595458984, -75.5777359008789, -40.97568893432617, 10.10258960723877, -2.261347770690918, 0.19370689988136292, 4.697933197021484, -3.733928680419922, 0.8493937849998474, -0.43994140625, 0.1376953125, 0.18115234375, 0, 
64, 2300554801, -90.590087890625, -75.57571411132812, -40.97746276855469, 11.869516372680664, -1.7333860397338867, -0.6372806429862976, 2.7942824363708496, -1.5673736333847046, 1.3430569171905518, -0.44140625, 0.13623046875, 0.18359375, 0, 
65, 2300563134, -90.5704574584961, -75.56816101074219, -41.00851821899414, 10.909398078918457, -2.1024117469787598, -0.038929712027311325, 1.8033192157745361, -0.6377560496330261, 2.0068752765655518, -0.4423828125, 0.130859375, 0.1962890625, 0, 
66, 2300571467, -90.55426025390625, -75.57074737548828, -41.037376403808594, 8.458269119262695, -3.1517274379730225, 0.06405556946992874, 1.6211506128311157, -0.769490122795105, 0.7995996475219727, -0.443359375, 0.13330078125, 0.203125, 0, 
67, 2300579800, -90.51677703857422, -75.57538604736328, -41.067108154296875, 7.212619781494141, -3.124345064163208, 0.7953622937202454, 4.006731986999512, -0.7235381007194519, 0.559440553188324, -0.44482421875, 0.13818359375, 0.18701171875, 0, 
68, 2300588133, -90.58575439453125, -75.57846069335938, -40.98301696777344, 9.141406059265137, -2.185077667236328, 0.4185492992401123, 4.558591842651367, -4.07016658782959, 0.6923785209655762, -0.4482421875, 0.13623046875, 0.1865234375, 0, 
69, 2300596466, -90.60693359375, -75.5772933959961, -40.956016540527344, 11.475085258483887, -1.881678581237793, -0.5498087406158447, 3.6625027656555176, -2.367178201675415, 1.2130645513534546, -0.451171875, 0.13427734375, 0.1953125, 0, 
70, 2300604799, -90.5843505859375, -75.5697250366211, -40.99102783203125, 11.512640953063965, -1.9083043336868286, -0.36456549167633057, 1.602016806602478, -0.581302285194397, 2.0173516273498535, -0.44921875, 0.13330078125, 0.19775390625, 0, 
71, 2300613132, -90.564697265625, -75.5674819946289, -41.02552032470703, 9.270387649536133, -2.8365888595581055, 0.14592918753623962, 1.407912015914917, -0.527153730392456, 1.368209958076477, -0.44921875, 0.13134765625, 0.21142578125, 0, 
72, 2300621465, -90.52665710449219, -75.57441711425781, -41.061561584472656, 7.295755386352539, -3.241391658782959, 0.8164242506027222, 3.496419668197632, -0.5736435651779175, 0.2888004779815674, -0.44580078125, 0.13623046875, 0.19775390625, 0, 
73, 2300629798, -90.57196044921875, -75.57891082763672, -41.001129150390625, 8.189898490905762, -2.569182872772217, 0.8166911602020264, 4.6807451248168945, -3.455577850341797, 0.5456856489181519, -0.44677734375, 0.1376953125, 0.17626953125, 0, 
74, 2300638131, -90.61418914794922, -75.58073425292969, -40.94639205932617, 10.986230850219727, -1.990605354309082, -0.6506589651107788, 4.356930255889893, -3.1947739124298096, 0.8510330319404602, -0.44580078125, 0.1376953125, 0.181640625, 0, 
75, 2300646464, -90.59664916992188, -75.57462310791016, -40.974796295166016, 11.769987106323242, -1.7476322650909424, -0.23775625228881836, 1.8612842559814453, -0.7152647376060486, 1.8300858736038208, -0.447265625, 0.134765625, 0.181640625, 0, 
76, 2300654797, -90.55977630615234, -75.56901550292969, -41.024879455566406, 10.078776359558105, -2.3512539863586426, -0.49186140298843384, 1.6974811553955078, -0.15751473605632782, 1.7901533842086792, -0.4443359375, 0.13671875, 0.1953125, 0, 
77, 2300663130, -90.53556823730469, -75.57386016845703, -41.05678939819336, 7.817286491394043, -3.429933786392212, 1.1534875631332397, 2.256178855895996, -0.596952497959137, 0.5154608488082886, -0.4462890625, 0.13720703125, 0.19384765625, 0, 
78, 2300671463, -90.53909301757812, -75.5783920288086, -41.0402717590332, 7.3967461585998535, -2.9392073154449463, 0.17247062921524048, 4.547524929046631, -2.130194902420044, 0.5581597685813904, -0.44580078125, 0.1396484375, 0.169921875, 0, 
79, 2300679796, -90.59215545654297, -75.58091735839844, -40.97364807128906, 10.161238670349121, -2.091726303100586, 0.42685040831565857, 4.407723426818848, -3.628140926361084, 0.773088812828064, -0.4482421875, 0.13916015625, 0.16748046875, 0, 
80, 2300688129, -90.5953369140625, -75.57734680175781, -40.974613189697266, 11.884380340576172, -1.6920653581619263, -0.9151266813278198, 2.5608601570129395, -1.5322051048278809, 1.5193595886230469, -0.44775390625, 0.13818359375, 0.1708984375, 0, 
81, 2300696462, -90.57572174072266, -75.56986999511719, -41.006343841552734, 10.729620933532715, -2.065778970718384, 0.17015990614891052, 1.7321628332138062, -0.6184428930282593, 1.9927107095718384, -0.44482421875, 0.13623046875, 0.17724609375, 0, 
82, 2300704795, -90.54779815673828, -75.57218933105469, -41.04695510864258, 8.39665699005127, -3.299713611602783, 0.014070575125515461, 1.6657191514968872, -0.4185749590396881, 0.8374574184417725, -0.4462890625, 0.13525390625, 0.18505859375, 0, 
83, 2300713128, -90.52384185791016, -75.57810974121094, -41.06400680541992, 7.315177917480469, -3.0156607627868652, 0.9245970845222473, 3.95796275138855, -1.0419740676879883, 0.38096049427986145, -0.4443359375, 0.1416015625, 0.16357421875, 0, 
84, 2300721461, -90.58971405029297, -75.58033752441406, -40.984092712402344, 9.262686729431152, -2.1806838512420654, 0.32287147641181946, 4.420965671539307, -4.027210712432861, 0.8130982518196106, -0.44189453125, 0.14208984375, 0.14990234375, 0, 
85, 2300729794, -90.59941101074219, -75.58047485351562, -40.96604919433594, 11.556802749633789, -1.9559252262115479, -0.47208237648010254, 3.9559013843536377, -2.17621111869812, 1.0770658254623413, -0.4443359375, 0.14111328125, 0.15478515625, 0, 
86, 2300738127, -90.58526611328125, -75.57271575927734, -40.995384216308594, 11.365409851074219, -1.975975751876831, -0.2640135586261749, 1.361140489578247, -0.6915971636772156, 2.0197594165802, -0.44580078125, 0.13818359375, 0.150390625, 0, 
87, 2300746460, -90.56787872314453, -75.57167053222656, -41.02504348754883, 9.179142951965332, -2.7638626098632812, -0.13356731832027435, 1.7011692523956299, -0.6715412139892578, 1.2220039367675781, -0.4462890625, 0.134765625, 0.15966796875, 0, 
88, 2300754793, -90.52967071533203, -75.57754516601562, -41.06013870239258, 7.349334716796875, -3.1198606491088867, 0.9777629375457764, 3.5251848697662354, -0.5794579982757568, 0.4178450405597687, -0.4423828125, 0.13623046875, 0.1435546875, 0, 
89, 2300763126, -90.57659149169922, -75.58098602294922, -40.99871826171875, 8.26712703704834, -2.5832431316375732, 0.5015767216682434, 4.538893222808838, -3.4719197750091553, 0.6735262870788574, -0.4423828125, 0.14111328125, 0.11767578125, 0, 
90, 2300771459, -90.61844635009766, -75.5820541381836, -40.94476318359375, 11.000495910644531, -2.093080759048462, -0.47404441237449646, 4.314640998840332, -3.1705429553985596, 0.9421939849853516, -0.44482421875, 0.1376953125, 0.11669921875, 0, 
91, 2300779792, -90.60423278808594, -75.57600402832031, -40.970062255859375, 11.7344388961792, -1.7896448373794556, -0.2307434231042862, 1.8195583820343018, -0.8089615702629089, 1.8248093128204346, -0.4453125, 0.138671875, 0.11279296875, 0, 
92, 2300788125, -90.57746124267578, -75.57038879394531, -41.01011657714844, 10.024560928344727, -2.2960567474365234, -0.274668425321579, 1.59451162815094, -0.446725070476532, 1.7859009504318237, -0.4453125, 0.13427734375, 0.1171875, 0, 
93, 2300796458, -90.56472778320312, -75.57609558105469, -41.028961181640625, 7.796156883239746, -3.3384008407592773, 1.0399630069732666, 2.3949055671691895, -0.9861096143722534, 0.40619057416915894, -0.44482421875, 0.13623046875, 0.10205078125, 0, 
94, 2300804791, -90.57378387451172, -75.57987976074219, -41.00736999511719, 7.468170642852783, -2.8724329471588135, 0.30501848459243774, 4.469402313232422, -2.281395435333252, 0.639305591583252, -0.44189453125, 0.1396484375, 0.0712890625, 0, 
95, 2300813124, -90.6314926147461, -75.5821533203125, -40.93390655517578, 10.165887832641602, -2.124248504638672, 0.3101384937763214, 4.644040584564209, -3.833362579345703, 0.8086670637130737, -0.44287109375, 0.134765625, 0.05517578125, 0, 
96, 2300821457, -90.63550567626953, -75.57730865478516, -40.93418502807617, 11.911330223083496, -1.6760761737823486, -0.8916915655136108, 2.554354190826416, -1.5572047233581543, 1.663516640663147, -0.4423828125, 0.1318359375, 0.0498046875, 0, 
97, 2300829790, -90.61121368408203, -75.5693130493164, -40.970455169677734, 10.731741905212402, -2.0486972332000732, 0.07319518178701401, 1.7615933418273926, -0.48299485445022583, 2.05533766746521, -0.44384765625, 0.1259765625, 0.04638671875, 0, 
98, 2300838123, -90.59214782714844, -75.57112884521484, -41.002906799316406, 8.359904289245605, -3.2893917560577393, 0.30416589975357056, 1.5459729433059692, -0.6634215116500854, 0.8982657194137573, -0.4404296875, 0.1240234375, 0.04296875, 0, 
99, 2300846456, -90.57319641113281, -75.57658386230469, -41.01372528076172, 7.297338962554932, -3.1409523487091064, 0.6886770725250244, 4.0807576179504395, -1.2270371913909912, 0.43562132120132446, -0.44189453125, 0.12353515625, 0.0029296875, 0, 
100, 2300854789, -90.64717102050781, -75.57852935791016, -40.92526626586914, 9.260641098022461, -2.195289373397827, 0.6744828224182129, 4.4210686683654785, -4.283020973205566, 0.8468323945999146, -0.44189453125, 0.1181640625, -0.0146484375, 0, 
101, 2300863122, -90.65689849853516, -75.57759094238281, -40.90653991699219, 11.546591758728027, -1.8488341569900513, -0.8542732000350952, 4.08126974105835, -2.211315631866455, 1.205764651298523, -0.4443359375, 0.11083984375, -0.02294921875, 0, 
102, 2300871455, -90.64702606201172, -75.56956481933594, -40.930233001708984, 11.309538841247559, -1.9285563230514526, -0.04963761568069458, 1.489877700805664, -0.8598571419715881, 2.057950019836426, -0.4443359375, 0.099609375, -0.025390625, 0, 
103, 2300879788, -90.63102722167969, -75.56707000732422, -40.96112823486328, 9.14814281463623, -2.8332173824310303, -0.4319438338279724, 1.3993823528289795, -0.6367825865745544, 1.3935935497283936, -0.44482421875, 0.09375, -0.02001953125, 0, 
104, 2300888121, -90.59564971923828, -75.57213592529297, -40.99419021606445, 7.371534824371338, -3.2246358394622803, 1.2338895797729492, 3.425161361694336, -0.6411114931106567, 0.5107991099357605, -0.44482421875, 0.09033203125, -0.0400390625, 0, 
105, 2300896454, -90.64989471435547, -75.57515716552734, -40.92424392700195, 8.286698341369629, -2.5166633129119873, 0.4037131667137146, 4.6741108894348145, -3.6476590633392334, 0.7034693360328674, -0.4462890625, 0.08349609375, -0.05859375, 0, 
106, 2300904787, -90.69342803955078, -75.57624053955078, -40.87177276611328, 11.129947662353516, -2.055436134338379, -0.29750022292137146, 3.9137778282165527, -3.2097065448760986, 0.9556413292884827, -0.44921875, 0.07568359375, -0.0546875, 0, 
107, 2300913120, -90.6693344116211, -75.57074737548828, -40.906494140625, 11.82043170928955, -1.7874349355697632, -0.6476175785064697, 1.8881535530090332, -0.6082741022109985, 1.7728126049041748, -0.44921875, 0.0634765625, -0.044921875, 0, 
108, 2300921453, -90.65077209472656, -75.5647964477539, -40.937950134277344, 9.869852066040039, -2.4567246437072754, 0.23204895853996277, 1.632497787475586, -0.6239500045776367, 1.8115155696868896, -0.453125, 0.0537109375, -0.01904296875, 0, 
109, 2300929786, -90.63298797607422, -75.56954956054688, -40.9608154296875, 7.678057670593262, -3.3761861324310303, 0.45898768305778503, 2.5325818061828613, -0.8671827912330627, 0.5269104838371277, -0.45263671875, 0.05078125, -0.00048828125, 0, 
110, 2300938119, -90.64259338378906, -75.5743637084961, -40.93718338012695, 7.61924409866333, -2.783482074737549, 0.6149247288703918, 4.637124061584473, -2.339693784713745, 0.5175099968910217, -0.44677734375, 0.04931640625, 0.00244140625, 0, 
111, 2300946452, -90.70462036132812, -75.57573699951172, -40.860877990722656, 10.204876899719238, -2.075636863708496, 0.08002030849456787, 4.4878315925598145, -3.8406755924224854, 0.8956915140151978, -0.44775390625, 0.04345703125, 0.03173828125, 0, 
112, 2300954785, -90.6995849609375, -75.57123565673828, -40.867950439453125, 12.004253387451172, -1.8013943433761597, -0.6909786462783813, 2.8121867179870605, -1.4350758790969849, 1.6448948383331299, -0.439453125, 0.04345703125, 0.07275390625, 0, 
113, 2300963118, -90.67664337158203, -75.5643539428711, -40.90668487548828, 10.809349060058594, -2.0769197940826416, -0.21972228586673737, 1.3001528978347778, -0.4909864366054535, 1.9389208555221558, -0.43701171875, 0.044921875, 0.123046875, 0, 
114, 2300971451, -90.6571273803711, -75.56687927246094, -40.93625259399414, 8.364471435546875, -3.2213947772979736, 0.2395733743906021, 1.9658411741256714, -0.6699018478393555, 0.7961415648460388, -0.427734375, 0.0498046875, 0.16064453125, 0, 
115, 2300979784, -90.64859008789062, -75.57213592529297, -40.938663482666016, 7.161801815032959, -3.152174949645996, 0.9973382949829102, 3.8091952800750732, -1.4784919023513794, 0.4532182812690735, -0.4208984375, 0.05859375, 0.1728515625, 0, 
116, 2300988117, -90.6944351196289, -75.57526397705078, -40.874359130859375, 9.2100191116333, -2.293804407119751, 0.09322827309370041, 5.0246171951293945, -3.5656938552856445, 0.7105646133422852, -0.4130859375, 0.06591796875, 0.1884765625, 0, 
117, 2300996450, -90.716552734375, -75.57496643066406, -40.84798812866211, 11.756753921508789, -1.683510184288025, -0.4794872999191284, 3.477107048034668, -2.348453998565674, 1.1108125448226929, -0.408203125, 0.0693359375, 0.208984375, 0, 
118, 2301004783, -90.69348907470703, -75.56671142578125, -40.882347106933594, 11.365114212036133, -1.9155193567276, -0.3389507234096527, 1.788488507270813, -0.6201335191726685, 2.1079492568969727, -0.404296875, 0.0703125, 0.224609375, 0, 
119, 2301013116, -90.66676330566406, -75.5661392211914, -40.92316436767578, 9.067683219909668, -2.9572784900665283, -0.1309918463230133, 1.512392520904541, -0.4208034574985504, 1.182250738143921, -0.39892578125, 0.0712890625, 0.24072265625, 0, 
120, 2301021449, -90.63272857666016, -75.5712661743164, -40.95461654663086, 7.322967529296875, -3.3208231925964355, 1.002126932144165, 3.4908618927001953, -0.609144926071167, 0.4805486798286438, -0.39697265625, 0.07666015625, 0.22900390625, 0, 
121, 2301029782, -90.68800354003906, -75.5740737915039, -40.881343841552734, 8.397845268249512, -2.411238193511963, 0.4664066731929779, 4.940576553344727, -3.7474520206451416, 0.7268807888031006, -0.390625, 0.07861328125, 0.2109375, 0, 
122, 2301038115, -90.72527313232422, -75.57583618164062, -40.836788177490234, 11.203947067260742, -2.0323288440704346, -0.45129284262657166, 3.73883318901062, -2.971545934677124, 0.8766728639602661, -0.39306640625, 0.07861328125, 0.21728515625, 0, 
123, 2301046448, -90.70183563232422, -75.57011413574219, -40.86882400512695, 11.737192153930664, -1.854280948638916, -0.6800575852394104, 2.1512882709503174, -0.6088375449180603, 1.7859783172607422, -0.3935546875, 0.07470703125, 0.22509765625, 0, 
124, 2301054781, -90.68563842773438, -75.56632995605469, -40.903106689453125, 9.727532386779785, -2.45395565032959, 0.1862913817167282, 0.9960095882415771, -0.6196980476379395, 1.5674375295639038, -0.39306640625, 0.07177734375, 0.24462890625, 0, 
125, 2301063114, -90.64483642578125, -75.57170104980469, -40.94708251953125, 7.548810005187988, -3.2784101963043213, 0.36869627237319946, 2.8228681087493896, -0.3164510726928711, 0.4764247536659241, -0.3916015625, 0.07373046875, 0.25830078125, 0, 
126, 2301071447, -90.6695556640625, -75.57649230957031, -40.910396575927734, 7.6785736083984375, -2.71016001701355, 1.013063669204712, 4.357979774475098, -2.6498053073883057, 0.5000923275947571, -0.3916015625, 0.0849609375, 0.25732421875, 0, 
127, 2301079780, -90.72767639160156, -75.57771301269531, -40.8382682800293, 10.333949089050293, -2.2611873149871826, -0.25284045934677124, 4.465919017791748, -3.715050458908081, 0.916041910648346, -0.3896484375, 0.0888671875, 0.27734375, 0, 
128, 2301088113, -90.70732879638672, -75.5748519897461, -40.86188507080078, 12.09852409362793, -1.772572636604309, -0.4239276051521301, 2.74507737159729, -0.9400807023048401, 1.4498937129974365, -0.390625, 0.09814453125, 0.3095703125, 0, 
129, 2301096446, -90.6888198852539, -75.56877136230469, -40.89506912231445, 10.727714538574219, -2.0969207286834717, -0.20354756712913513, 1.4232548475265503, -0.5742583274841309, 1.8312894105911255, -0.390625, 0.10400390625, 0.33203125, 0, 
130, 2301104779, -90.66157531738281, -75.57295989990234, -40.93152618408203, 8.154718399047852, -3.2311737537384033, 0.32295405864715576, 2.0574378967285156, -0.5380910634994507, 0.6146648526191711, -0.39208984375, 0.11669921875, 0.34765625, 0, 
131, 2301113112, -90.6384506225586, -75.57813262939453, -40.94852066040039, 7.186298847198486, -3.104588747024536, 0.834934413433075, 3.84643816947937, -1.125809669494629, 0.4813683032989502, -0.39306640625, 0.13037109375, 0.3291015625, 0, 
132, 2301121445, -90.69921875, -75.5813217163086, -40.869205474853516, 9.401118278503418, -2.1789650917053223, 0.2756883203983307, 4.985452175140381, -3.926675319671631, 0.6791614890098572, -0.396484375, 0.13525390625, 0.31884765625, 0, 
133, 2301129778, -90.71592712402344, -75.58080291748047, -40.84865188598633, 11.683154106140137, -1.8200829029083252, -0.5692367553710938, 3.4443464279174805, -2.17525053024292, 1.1416778564453125, -0.4052734375, 0.13671875, 0.326171875, 0, 
134, 2301138111, -90.6932373046875, -75.57334899902344, -40.88426208496094, 11.468210220336914, -1.9436763525009155, -0.25687405467033386, 1.6215091943740845, -0.5855029821395874, 2.00715708732605, -0.40966796875, 0.13818359375, 0.32958984375, 0, 
135, 2301146444, -90.66816711425781, -75.57266235351562, -40.92327117919922, 9.030468940734863, -2.893717050552368, 0.09074298292398453, 1.5404143333435059, -0.39257654547691345, 1.1815334558486938, -0.4111328125, 0.14111328125, 0.34375, 0, 
136, 2301154777, -90.62676239013672, -75.57911682128906, -40.96107864379883, 7.22589111328125, -3.2572760581970215, 0.9946579337120056, 3.6024880409240723, -0.5001307129859924, 0.35104307532310486, -0.412109375, 0.14990234375, 0.3291015625, 0, 
137, 2301163110, -90.68019104003906, -75.58313751220703, -40.891544342041016, 8.395633697509766, -2.511974811553955, 0.6273016929626465, 4.726696968078613, -3.630472183227539, 0.5831592679023743, -0.4189453125, 0.15869140625, 0.31005859375, 0, 
138, 2301171443, -90.71348571777344, -75.58514404296875, -40.847694396972656, 11.154224395751953, -1.8901766538619995, -0.6039645075798035, 4.135802268981934, -2.9483392238616943, 0.8409152626991272, -0.41796875, 0.15576171875, 0.3115234375, 0, 
139, 2301179776, -90.69436645507812, -75.57844543457031, -40.87824249267578, 11.690709114074707, -1.7398639917373657, -0.34493446350097656, 1.8094919919967651, -0.655404269695282, 1.900345802307129, -0.41943359375, 0.15673828125, 0.31005859375, 0, 
140, 2301188109, -90.67029571533203, -75.57392883300781, -40.91686248779297, 9.867535591125488, -2.505436658859253, -0.2422349601984024, 1.426098108291626, -0.4917548894882202, 1.6621332168579102, -0.42041015625, 0.154296875, 0.31884765625, 0, 
141, 2301196442, -90.62914276123047, -75.57896423339844, -40.961551666259766, 7.608412742614746, -3.416161298751831, 0.9978107213973999, 2.782909870147705, -0.29401299357414246, 0.5103636384010315, -0.421875, 0.15966796875, 0.30419921875, 0, 
142, 2301204775, -90.65196990966797, -75.5823974609375, -40.9229850769043, 7.616156101226807, -2.7671334743499756, 0.4862438440322876, 4.811403274536133, -2.710562229156494, 0.6603349447250366, -0.4189453125, 0.16259765625, 0.275390625, 0, 
143, 2301213108, -90.70719909667969, -75.58511352539062, -40.853492736816406, 10.450794219970703, -2.068875551223755, 0.11111518740653992, 4.501497268676758, -3.631880521774292, 0.7411478757858276, -0.423828125, 0.16259765625, 0.2685546875, 0, 
144, 2301221441, -90.69584655761719, -75.58009338378906, -40.871788024902344, 11.873333930969238, -1.689475655555725, -0.7669427990913391, 2.2725977897644043, -1.1030642986297607, 1.7078804969787598, -0.42578125, 0.15771484375, 0.2646484375, 0, 
145, 2301229774, -90.67218017578125, -75.5735092163086, -40.90706253051758, 10.444526672363281, -2.125246047973633, -0.02514469251036644, 1.8020126819610596, -0.5123744010925293, 1.892354130744934, -0.42529296875, 0.15380859375, 0.26611328125, 0, 
146, 2301238107, -90.66033172607422, -75.57662963867188, -40.92935562133789, 8.114435195922852, -3.3869636058807373, 0.4123207926750183, 1.8666373491287231, -0.9677442312240601, 0.7343088388442993, -0.427734375, 0.15234375, 0.26416015625, 0, 
147, 2301246440, -90.63255310058594, -75.58196258544922, -40.94766616821289, 7.267382621765137, -3.0014636516571045, 0.6899415850639343, 4.243587017059326, -1.0849806070327759, 0.46894538402557373, -0.4306640625, 0.15771484375, 0.234375, 0, 
148, 2301254773, -90.69538116455078, -75.5848388671875, -40.87075424194336, 9.631959915161133, -2.103856325149536, 0.28007015585899353, 4.454264163970947, -3.8542895317077637, 0.7222189903259277, -0.42822265625, 0.1513671875, 0.22314453125, 0, 
149, 2301263106, -90.71060180664062, -75.5839614868164, -40.85116195678711, 11.718247413635254, -1.8693571090698242, -0.5546519160270691, 3.517500638961792, -2.146946907043457, 1.1805857419967651, -0.43359375, 0.150390625, 0.22607421875, 0, 
150, 2301271439, -90.68907165527344, -75.57589721679688, -40.88657760620117, 11.203701972961426, -1.9878084659576416, -0.13672016561031342, 1.5196412801742554, -0.5973367691040039, 2.0791075229644775, -0.43310546875, 0.1484375, 0.22802734375, 0, 
151, 2301279772, -90.66930389404297, -75.57441711425781, -40.91767120361328, 8.882716178894043, -2.9585204124450684, 0.08032473921775818, 1.8245787620544434, -0.6312243938446045, 1.2742056846618652, -0.4365234375, 0.14404296875, 0.2392578125, 0, 
152, 2301288105, -90.63902282714844, -75.58010864257812, -40.943443298339844, 7.34487247467041, -3.100546360015869, 0.8340245485305786, 3.665781021118164, -0.8598825931549072, 0.43305984139442444, -0.43359375, 0.146484375, 0.2216796875, 0, 
153, 2301296438, -90.68727111816406, -75.58321380615234, -40.881195068359375, 8.591939926147461, -2.513113498687744, 0.5980322957038879, 4.475318908691406, -3.498584508895874, 0.7082079648971558, -0.4345703125, 0.1494140625, 0.20361328125, 0, 
154, 2301304771, -90.7187271118164, -75.58385467529297, -40.83692932128906, 11.188114166259766, -1.9778354167938232, -0.5733044743537903, 4.431006908416748, -2.8824338912963867, 0.9956508874893188, -0.43896484375, 0.1474609375, 0.20556640625, 0, 
155, 2301313104, -90.70932006835938, -75.57669067382812, -40.8607292175293, 11.534966468811035, -1.8603882789611816, -0.07073426246643066, 1.4277888536453247, -0.8583970069885254, 1.9536746740341187, -0.43994140625, 0.14306640625, 0.212890625, 0, 
156, 2301321437, -90.6830825805664, -75.57288360595703, -40.89961242675781, 9.753433227539062, -2.443009376525879, -0.4648113548755646, 1.6625688076019287, -0.4817909896373749, 1.5742253065109253, -0.435546875, 0.14013671875, 0.2255859375, 0, 
157, 2301329770, -90.65884399414062, -75.5779037475586, -40.928470611572266, 7.798087120056152, -3.2707390785217285, 1.2007920742034912, 2.618466377258301, -0.6882160902023315, 0.4921262860298157, -0.4375, 0.1416015625, 0.21875, 0, 
158, 2301338103, -90.6816177368164, -75.5816879272461, -40.8908805847168, 7.623035430908203, -2.8482701778411865, 0.19917862117290497, 4.681180953979492, -2.762636423110962, 0.6320568919181824, -0.4384765625, 0.14453125, 0.19775390625, 0, 
159, 2301346436, -90.73429107666016, -75.58448028564453, -40.826019287109375, 10.395565032958984, -2.1403090953826904, 0.19561456143856049, 4.2423577308654785, -3.576503038406372, 0.7469367980957031, -0.4365234375, 0.142578125, 0.19677734375, 0, 
160, 2301354769, -90.72709655761719, -75.57948303222656, -40.84019470214844, 11.992180824279785, -1.6564884185791016, -0.8256986141204834, 2.2837395668029785, -1.1432528495788574, 1.6888490915298462, -0.439453125, 0.1435546875, 0.203125, 0, 
161, 2301363102, -90.70446014404297, -75.57131958007812, -40.877071380615234, 10.508453369140625, -2.0885558128356934, 0.10863571614027023, 1.492797613143921, -0.4677543640136719, 2.0770325660705566, -0.44091796875, 0.14013671875, 0.21435546875, 0, 
162, 2301371435, -90.68109130859375, -75.57359313964844, -40.911705017089844, 8.180744171142578, -3.390505313873291, 0.2849830389022827, 1.804753303527832, -0.6004872918128967, 0.850571870803833, -0.4384765625, 0.1376953125, 0.21923828125, 0, 
163, 2301379768, -90.66571807861328, -75.57870483398438, -40.91640090942383, 7.3899688720703125, -3.0408689975738525, 0.840549647808075, 4.357212066650391, -1.409256935119629, 0.47463181614875793, -0.44189453125, 0.14111328125, 0.2021484375, 0, 
164, 2301388101, -90.7398681640625, -75.58129119873047, -40.826534271240234, 9.551017761230469, -2.1646878719329834, 0.3741360902786255, 4.576905250549316, -4.325847148895264, 0.7596925497055054, -0.44677734375, 0.140625, 0.20654296875, 0, 
165, 2301396434, -90.75276184082031, -75.58113098144531, -40.806434631347656, 11.628265380859375, -1.8618396520614624, -0.7548415660858154, 3.8108348846435547, -2.2433078289031982, 1.1160635948181152, -0.45166015625, 0.1396484375, 0.21484375, 0, 
166, 2301404767, -90.7387466430664, -75.57340240478516, -40.83454895019531, 11.21155834197998, -1.9556533098220825, -0.1452907919883728, 1.4833714962005615, -0.7293782234191895, 2.0223464965820312, -0.4462890625, 0.13671875, 0.22021484375, 0, 
167, 2301413100, -90.71795654296875, -75.57183837890625, -40.86958312988281, 8.941274642944336, -2.8678324222564697, -0.2416430115699768, 1.4829362630844116, -0.5141929388046265, 1.2876275777816772, -0.4501953125, 0.1337890625, 0.23388671875, 0, 
168, 2301421433, -90.67427825927734, -75.57637023925781, -40.909854888916016, 7.363518238067627, -3.1497480869293213, 0.9590426087379456, 3.6065609455108643, -0.4293842315673828, 0.5678163766860962, -0.44189453125, 0.1357421875, 0.21728515625, 0, 
169, 2301429766, -90.73040008544922, -75.58085632324219, -40.83824157714844, 8.521805763244629, -2.5110979080200195, 0.5884937047958374, 4.644936561584473, -3.6938414573669434, 0.5265005826950073, -0.44580078125, 0.13671875, 0.20263671875, 0, 
170, 2301438099, -90.76893615722656, -75.58277893066406, -40.7910270690918, 11.239327430725098, -2.039724826812744, -0.43298423290252686, 3.8890607357025146, -3.052999258041382, 0.8559252023696899, -0.44580078125, 0.13427734375, 0.20654296875, 0, 
171, 2301446432, -90.74149322509766, -75.57732391357422, -40.830570220947266, 11.690128326416016, -1.7962112426757812, -0.508239209651947, 1.7326494455337524, -0.4681386649608612, 1.7728381156921387, -0.44677734375, 0.134765625, 0.21630859375, 0, 
172, 2301454765, -90.72637939453125, -75.57182312011719, -40.85618591308594, 9.80667781829834, -2.5095577239990234, 0.24394720792770386, 1.903496503829956, -0.8014822602272034, 1.752935767173767, -0.4453125, 0.13134765625, 0.22607421875, 0, 
173, 2301463098, -90.70481872558594, -75.57711791992188, -40.88283920288086, 7.5959153175354, -3.3330211639404297, 0.47847428917884827, 2.5397284030914307, -0.7507660388946533, 0.46792083978652954, -0.44677734375, 0.13427734375, 0.2236328125, 0, 
174, 2301471431, -90.70597839355469, -75.58087158203125, -40.86705017089844, 7.729998588562012, -2.774385690689087, 0.5260494351387024, 4.745601177215576, -2.1101648807525635, 0.6417390704154968, -0.44482421875, 0.13720703125, 0.201171875, 0, 
175, 2301479764, -90.7698974609375, -75.58317565917969, -40.79051971435547, 10.390342712402344, -2.1041982173919678, 0.14747482538223267, 4.292715549468994, -3.8446836471557617, 0.7768797278404236, -0.44580078125, 0.13671875, 0.203125, 0, 
176, 2301488097, -90.75990295410156, -75.5797348022461, -40.803524017333984, 11.84365177154541, -1.8411420583724976, -0.7117946147918701, 2.7132394313812256, -1.2610785961151123, 1.523406744003296, -0.44580078125, 0.1357421875, 0.20947265625, 0, 
177, 2301496430, -90.72920989990234, -75.57227325439453, -40.84804153442383, 10.70418930053711, -2.0978844165802, -0.18850329518318176, 1.5377248525619507, -0.3186282813549042, 2.018913984298706, -0.44921875, 0.1298828125, 0.2177734375, 0, 
178, 2301504763, -90.70985412597656, -75.57579803466797, -40.87883758544922, 8.344746589660645, -3.1988868713378906, 0.3047889173030853, 1.8035240173339844, -0.6321209669113159, 0.6751400232315063, -0.447265625, 0.130859375, 0.23046875, 0, 
179, 2301513096, -90.68984985351562, -75.58119201660156, -40.89230728149414, 7.162140369415283, -3.1020519733428955, 0.7773905992507935, 3.888599157333374, -1.1471718549728394, 0.4490174949169159, -0.4443359375, 0.13427734375, 0.20654296875, 0, 
180, 2301521429, -90.7416763305664, -75.58446502685547, -40.82211685180664, 9.297222137451172, -2.330021381378174, 0.31795191764831543, 4.976718425750732, -3.737309217453003, 0.6809033155441284, -0.44677734375, 0.1376953125, 0.1982421875, 0, 
181, 2301529762, -90.75778198242188, -75.58370208740234, -40.80225372314453, 11.648138999938965, -1.732191562652588, -0.6568072438240051, 3.436969518661499, -2.1546311378479004, 1.1716721057891846, -0.44970703125, 0.13525390625, 0.20556640625, 0, 
182, 2301538095, -90.73216247558594, -75.5746078491211, -40.8394889831543, 11.33586311340332, -1.8824514150619507, -0.09001889079809189, 1.792893886566162, -0.5423685908317566, 2.198213815689087, -0.4453125, 0.1328125, 0.2109375, 0, 
183, 2301546428, -90.70967864990234, -75.57276916503906, -40.875797271728516, 9.0855712890625, -2.9484171867370605, -0.23507346212863922, 1.4975361824035645, -0.5556111335754395, 1.3401110172271729, -0.4482421875, 0.12939453125, 0.22607421875, 0, 
184, 2301554761, -90.66902923583984, -75.57781982421875, -40.91096496582031, 7.430571556091309, -3.300171375274658, 1.0991284847259521, 3.847641944885254, -0.49721071124076843, 0.49668559432029724, -0.4453125, 0.13330078125, 0.21728515625, 0, 
185, 2301563094, -90.72420501708984, -75.58216094970703, -40.84007263183594, 8.385252952575684, -2.3844945430755615, 0.5622756481170654, 4.680335521697998, -3.676039934158325, 0.5395894050598145, -0.447265625, 0.1357421875, 0.2001953125, 0, 
186, 2301571427, -90.7505874633789, -75.58391571044922, -40.802982330322266, 11.042223930358887, -2.138683557510376, -0.5244149565696716, 4.181984901428223, -2.748112678527832, 0.8761093020439148, -0.44677734375, 0.134765625, 0.20849609375, 0, 
187, 2301579760, -90.7244873046875, -75.57847595214844, -40.839752197265625, 11.712852478027344, -1.8158977031707764, -0.44531702995300293, 1.9186086654663086, -0.4675750732421875, 1.756137728691101, -0.44873046875, 0.1328125, 0.21337890625, 0, 
188, 2301588093, -90.70557403564453, -75.57337188720703, -40.874061584472656, 9.860237121582031, -2.354686975479126, -0.033706218004226685, 1.313395380973816, -0.6231302618980408, 1.7282180786132812, -0.44775390625, 0.12841796875, 0.2236328125, 0, 
189, 2301596426, -90.67362213134766, -75.57832336425781, -40.91124725341797, 7.677373886108398, -3.2868711948394775, 0.6097524166107178, 2.580326795578003, -0.43978363275527954, 0.5043187141418457, -0.44677734375, 0.1298828125, 0.22412109375, 0, 
190, 2301604759, -90.68305969238281, -75.58319091796875, -40.88999557495117, 7.600870132446289, -2.820464849472046, 0.6463370323181152, 4.371273517608643, -2.2717394828796387, 0.5101843476295471, -0.44580078125, 0.13427734375, 0.2001953125, 0, 
191, 2301613092, -90.74122619628906, -75.58528137207031, -40.81647491455078, 10.218372344970703, -2.2853682041168213, 0.17964664101600647, 4.62288236618042, -3.754598617553711, 0.8109979629516602, -0.4462890625, 0.13427734375, 0.2021484375, 0, 
192, 2301621425, -90.72868347167969, -75.5838394165039, -40.83089065551758, 11.871292114257812, -1.7624406814575195, -0.6273365616798401, 2.8727643489837646, -1.2161766290664673, 1.2789186239242554, -0.4462890625, 0.13330078125, 0.2109375, 0, 
193, 2301629758, -90.7100601196289, -75.57624053955078, -40.862606048583984, 10.803107261657715, -2.07047700881958, 0.02198219485580921, 1.5835744142532349, -0.7041738033294678, 2.028749704360962, -0.447265625, 0.12939453125, 0.21923828125, 0, 
194, 2301638091, -90.69039916992188, -75.57823181152344, -40.89377212524414, 8.411043167114258, -3.1367697715759277, 0.05916200205683708, 1.7973508834838867, -0.6240012049674988, 0.8603565096855164, -0.44677734375, 0.1328125, 0.22802734375, 0, 
195, 2301646424, -90.66170501708984, -75.58353424072266, -40.915863037109375, 7.3018951416015625, -3.1046595573425293, 0.7728694081306458, 3.9286856651306152, -0.8890316486358643, 0.4619014859199524, -0.44482421875, 0.13525390625, 0.2060546875, 0, 
196, 2301654757, -90.72586059570312, -75.58639526367188, -40.83574676513672, 9.17403793334961, -2.223665952682495, 0.595944881439209, 4.652133941650391, -4.0347418785095215, 0.7267270684242249, -0.4501953125, 0.13720703125, 0.19921875, 0, 
197, 2301663090, -90.74455261230469, -75.58615112304688, -40.81023406982422, 11.491341590881348, -1.90818452835083, -0.6414794921875, 3.7892420291900635, -2.322429656982422, 1.1011561155319214, -0.4482421875, 0.13427734375, 0.2060546875, 0, 
198, 2301671423, -90.72802734375, -75.57769775390625, -40.84113693237305, 11.407844543457031, -1.9419546127319336, -0.18071788549423218, 1.4241515398025513, -0.7332971096038818, 2.129490613937378, -0.44775390625, 0.13037109375, 0.21435546875, 0, 
199, 2301679756, -90.70806121826172, -75.5747299194336, -40.874732971191406, 9.236784934997559, -2.8119726181030273, -0.11856035143136978, 1.5196926593780518, -0.6411371231079102, 1.4764814376831055, -0.451171875, 0.12939453125, 0.22900390625, 0, 
200, 2301688089, -90.6726303100586, -75.58007049560547, -40.908058166503906, 7.366482257843018, -3.2199740409851074, 1.03396475315094, 3.4449610710144043, -0.5529986023902893, 0.4535512924194336, -0.44775390625, 0.13134765625, 0.21923828125, 0, 
201, 2301696422, -90.72137451171875, -75.58428955078125, -40.845027923583984, 8.190247535705566, -2.5847666263580322, 0.5834965109825134, 4.538457870483398, -3.437673568725586, 0.5582366585731506, -0.44189453125, 0.134765625, 0.197265625, 0, 
202, 2301704755, -90.7636947631836, -75.5865707397461, -40.78789138793945, 10.913280487060547, -2.062187910079956, -0.3747222125530243, 4.588687419891357, -3.3503034114837646, 0.8113052248954773, -0.4501953125, 0.13427734375, 0.20458984375, 0, 
203, 2301713088, -90.7516860961914, -75.58033752441406, -40.811607360839844, 11.751380920410156, -1.7109330892562866, -0.3442990481853485, 1.7501440048217773, -0.8585762977600098, 1.8399986028671265, -0.4482421875, 0.13134765625, 0.20947265625, 0, 
204, 2301721421, -90.72232818603516, -75.57379913330078, -40.85438919067383, 10.141340255737305, -2.2863380908966064, -0.30250445008277893, 1.5984306335449219, -0.3766188621520996, 1.8995516300201416, -0.44970703125, 0.12841796875, 0.22265625, 0, 
205, 2301729754, -90.70581817626953, -75.57788848876953, -40.87990951538086, 7.927918910980225, -3.3666415214538574, 0.9499881863594055, 2.039686918258667, -0.8701539635658264, 0.6284196376800537, -0.44921875, 0.13134765625, 0.22412109375, 0, 
206, 2301738087, -90.70794677734375, -75.58222961425781, -40.86640930175781, 7.461133003234863, -2.954028606414795, 0.28950801491737366, 4.376601696014404, -1.9569659233093262, 0.5599015355110168, -0.44580078125, 0.13525390625, 0.203125, 0, 
207, 2301746420, -90.76740264892578, -75.58427429199219, -40.790042877197266, 9.984354972839355, -2.1781067848205566, 0.4416257441043854, 4.8028740882873535, -3.840944528579712, 0.8109210729598999, -0.44384765625, 0.1357421875, 0.1982421875, 0, 
208, 2301754753, -90.76902770996094, -75.58085632324219, -40.78879165649414, 11.792293548583984, -1.6804133653640747, -0.9473759531974792, 2.983750820159912, -1.6846097707748413, 1.5066293478012085, -0.44482421875, 0.1357421875, 0.20068359375, 0, 
209, 2301763086, -90.75523376464844, -75.57271575927734, -40.81410598754883, 10.800167083740234, -2.0279054641723633, 0.2176409363746643, 1.7740418910980225, -0.8163129091262817, 2.07611083984375, -0.4443359375, 0.13037109375, 0.20751953125, 0, 
210, 2301771419, -90.73587799072266, -75.573486328125, -40.847599029541016, 8.548041343688965, -3.1723015308380127, -0.22495508193969727, 1.4665685892105103, -0.6379865407943726, 1.0218544006347656, -0.4443359375, 0.130859375, 0.2216796875, 0, 
211, 2301779752, -90.699951171875, -75.57937622070312, -40.877506256103516, 7.355643272399902, -3.097212553024292, 0.9927552938461304, 3.8760735988616943, -0.7397774457931519, 0.40368029475212097, -0.443359375, 0.13623046875, 0.2001953125, 0, 
212, 2301788085, -90.76848602294922, -75.58149719238281, -40.79501724243164, 9.049163818359375, -2.216946840286255, 0.4256797134876251, 4.413562774658203, -4.023702144622803, 0.8071301579475403, -0.443359375, 0.13671875, 0.18603515625, 0, 
213, 2301796418, -90.79016876220703, -75.58272552490234, -40.7647819519043, 11.493756294250488, -2.0587756633758545, -0.4511982202529907, 3.966313123703003, -2.4604392051696777, 0.9296429753303528, -0.443359375, 0.1328125, 0.19921875, 0, 
214, 2301804751, -90.76918029785156, -75.57427978515625, -40.799930572509766, 11.48591423034668, -1.9028838872909546, -0.4875456392765045, 1.4331165552139282, -0.5956462621688843, 2.1224212646484375, -0.44384765625, 0.13330078125, 0.20166015625, 0, 
215, 2301813084, -90.7503662109375, -75.57106018066406, -40.83157730102539, 9.343636512756348, -2.6545329093933105, 0.043275073170661926, 1.6518621444702148, -0.6175208687782288, 1.4827824831008911, -0.44580078125, 0.1279296875, 0.21875, 0, 
216, 2301821417, -90.71807861328125, -75.57625579833984, -40.864341735839844, 7.405577659606934, -3.212938070297241, 0.821287214756012, 3.1124112606048584, -0.6578119993209839, 0.4962502419948578, -0.4453125, 0.1318359375, 0.20654296875, 0, 
217, 2301829750, -90.74769592285156, -75.58104705810547, -40.821346282958984, 8.062016487121582, -2.693382740020752, 0.4847485423088074, 4.465726852416992, -2.922379493713379, 0.5072771310806274, -0.44140625, 0.1357421875, 0.1904296875, 0, 
218, 2301838083, -90.79817962646484, -75.5817642211914, -40.75640869140625, 10.80561351776123, -2.156226873397827, -0.05039222911000252, 4.549113750457764, -3.499404191970825, 0.9771319031715393, -0.443359375, 0.1337890625, 0.19287109375, 0, 
219, 2301846416, -90.79208374023438, -75.57743072509766, -40.77227783203125, 11.75204849243164, -1.6992290019989014, -0.5710011720657349, 1.9553905725479126, -1.092690348625183, 1.6123135089874268, -0.44287109375, 0.13330078125, 0.20361328125, 0, 
220, 2301854749, -90.75927734375, -75.57015991210938, -40.81840133666992, 10.348125457763672, -2.225787401199341, -0.2145284116268158, 1.6622869968414307, -0.28996598720550537, 1.9957842826843262, -0.4443359375, 0.13037109375, 0.212890625, 0, 
221, 2301863082, -90.74478912353516, -75.57392883300781, -40.8437385559082, 8.0960054397583, -3.2789804935455322, 0.7169485092163086, 1.8559564352035522, -0.7938492298126221, 0.6427381038665771, -0.4423828125, 0.13037109375, 0.2158203125, 0, 
222, 2301871415, -90.73312377929688, -75.57947540283203, -40.84807586669922, 7.293208122253418, -3.1010265350341797, 0.4857034683227539, 4.129962921142578, -1.558895230293274, 0.44158944487571716, -0.443359375, 0.1357421875, 0.19873046875, 0, 
223, 2301879748, -90.78270721435547, -75.58309173583984, -40.7813606262207, 9.7706937789917, -2.1786251068115234, 0.2611744701862335, 4.886785984039307, -3.6465070247650146, 0.6367698311805725, -0.44482421875, 0.13427734375, 0.19287109375, 0, 
224, 2301888081, -90.79774475097656, -75.5818099975586, -40.76554489135742, 11.76624584197998, -1.6878536939620972, -0.7001901268959045, 3.099475622177124, -2.0356526374816895, 1.2326079607009888, -0.44482421875, 0.13330078125, 0.19970703125, 0, 
225, 2301896414, -90.77947998046875, -75.57447052001953, -40.797061920166016, 11.062331199645996, -1.9782648086547852, -0.005269540008157492, 1.591028094291687, -0.6272029876708984, 1.9788789749145508, -0.44189453125, 0.1337890625, 0.20654296875, 0, 
226, 2301904747, -90.75407409667969, -75.57394409179688, -40.8370475769043, 8.831809043884277, -3.1023266315460205, -0.08414042741060257, 1.4798368215560913, -0.46124833822250366, 1.1849912405014038, -0.44580078125, 0.12939453125, 0.21728515625, 0, 
227, 2301913080, -90.7234878540039, -75.5787353515625, -40.86177062988281, 7.391538143157959, -3.1758947372436523, 0.9860550165176392, 3.857656717300415, -0.8115741610527039, 0.5209422707557678, -0.44189453125, 0.13525390625, 0.20556640625, 0, 
228, 2301921413, -90.7820053100586, -75.58267211914062, -40.78634262084961, 8.718589782714844, -2.404649496078491, 0.5819224715232849, 4.768423080444336, -3.8922243118286133, 0.6021906137466431, -0.44091796875, 0.13671875, 0.1865234375, 0, 
229, 2301929746, -90.81383514404297, -75.58352661132812, -40.74562072753906, 11.231132507324219, -2.0463132858276367, -0.5167356729507446, 4.098200798034668, -2.904000997543335, 0.9839964509010315, -0.4443359375, 0.1337890625, 0.1982421875, 0, 
230, 2301938079, -90.7884750366211, -75.57708740234375, -40.78111267089844, 11.525135040283203, -1.8462650775909424, -0.5455354452133179, 1.9876644611358643, -0.5093518495559692, 1.866381287574768, -0.4423828125, 0.1328125, 0.20458984375, 0, 
231, 2301946412, -90.76998138427734, -75.57379913330078, -40.81354904174805, 9.597679138183594, -2.4872913360595703, 0.006367831956595182, 1.5114703178405762, -0.5931360125541687, 1.4943089485168457, -0.4453125, 0.12841796875, 0.21875, 0, 
232, 2301954745, -90.73262786865234, -75.57878875732422, -40.852455139160156, 7.617980480194092, -3.2242817878723145, 0.5868488550186157, 3.006649971008301, -0.47379928827285767, 0.5187650918960571, -0.443359375, 0.13134765625, 0.21240234375, 0, 
233, 2301963078, -90.75715637207031, -75.58255004882812, -40.81382751464844, 7.7999701499938965, -2.697946548461914, 0.7433570623397827, 4.601853847503662, -2.7078731060028076, 0.6227589845657349, -0.443359375, 0.13671875, 0.1943359375, 0, 
234, 2301971411, -90.80740356445312, -75.58502960205078, -40.751258850097656, 10.583999633789062, -2.2482752799987793, -0.11601848900318146, 4.2816243171691895, -3.5144906044006348, 0.7796972990036011, -0.44384765625, 0.13525390625, 0.19580078125, 0, 
235, 2301979744, -90.78617095947266, -75.5811767578125, -40.776695251464844, 11.9683256149292, -1.7586010694503784, -0.5530449748039246, 2.428178310394287, -0.8407745361328125, 1.5701013803482056, -0.4443359375, 0.1328125, 0.19921875, 0, 
236, 2301988077, -90.77385711669922, -75.5740737915039, -40.801963806152344, 10.45327091217041, -2.1834280490875244, 0.07247459143400192, 1.602042317390442, -0.8132647275924683, 1.952368140220642, -0.44384765625, 0.13037109375, 0.20849609375, 0, 
237, 2301996410, -90.7502212524414, -75.576171875, -40.83376693725586, 8.104364395141602, -3.2610995769500732, 0.14105448126792908, 2.198469877243042, -0.6035866737365723, 0.848061740398407, -0.4443359375, 0.13134765625, 0.2177734375, 0, 
238, 2302004743, -90.72433471679688, -75.58279418945312, -40.847503662109375, 7.327289581298828, -2.9391937255859375, 0.7194536924362183, 3.9984588623046875, -1.0843145847320557, 0.3194863498210907, -0.44287109375, 0.13623046875, 0.1953125, 0, 
239, 2302013076, -90.78719329833984, -75.5854721069336, -40.76671600341797, 9.540457725524902, -2.1863365173339844, 0.41180551052093506, 4.6773905754089355, -4.0040812492370605, 0.7435557246208191, -0.44140625, 0.1318359375, 0.1904296875, 0, 
240, 2302021409, -90.79690551757812, -75.58478546142578, -40.75065612792969, 11.516687393188477, -1.9661778211593628, -0.6433513760566711, 3.7482848167419434, -2.0385475158691406, 1.1718255281448364, -0.44189453125, 0.1318359375, 0.19775390625, 0, 
241, 2302029742, -90.77804565429688, -75.57666778564453, -40.783782958984375, 11.324284553527832, -1.9826014041900635, -0.2257283478975296, 1.4814503192901611, -0.5839149355888367, 2.071218252182007, -0.4423828125, 0.13232421875, 0.20458984375, 0, 
242, 2302038075, -90.75761413574219, -75.5745849609375, -40.81822204589844, 9.069846153259277, -2.7568306922912598, 0.02668694779276848, 1.351919412612915, -0.5811998248100281, 1.3596802949905396, -0.4443359375, 0.1279296875, 0.21923828125, 0, 
243, 2302046408, -90.71719360351562, -75.57913208007812, -40.85615921020508, 7.389420986175537, -3.160027027130127, 0.7062350511550903, 3.495574474334717, -0.41632091999053955, 0.561310350894928, -0.44189453125, 0.1318359375, 0.205078125, 0, 
244, 2302054741, -90.76084899902344, -75.58222961425781, -40.79973220825195, 8.340865135192871, -2.6620781421661377, 0.780157208442688, 4.546911239624023, -3.3759946823120117, 0.7056465744972229, -0.44140625, 0.1337890625, 0.18896484375, 0, 
245, 2302063074, -90.79283142089844, -75.58401489257812, -40.755577087402344, 11.017317771911621, -1.9877581596374512, -0.6697608232498169, 4.394942283630371, -2.9823038578033447, 0.8679383993148804, -0.447265625, 0.1328125, 0.1962890625, 0, 
246, 2302071407, -90.77603912353516, -75.57820129394531, -40.78385925292969, 11.628721237182617, -1.6850517988204956, -0.14703720808029175, 1.7837239503860474, -0.7219244241714478, 1.7981960773468018, -0.44384765625, 0.13134765625, 0.2001953125, 0, 
247, 2302079740, -90.74986267089844, -75.57192993164062, -40.8226318359375, 10.017207145690918, -2.395826578140259, -0.4083520174026489, 1.6935107707977295, -0.4103528559207916, 1.8585175275802612, -0.44384765625, 0.1279296875, 0.2138671875, 0, 
248, 2302088073, -90.72454833984375, -75.57586669921875, -40.852989196777344, 7.867147922515869, -3.4097557067871094, 1.0605090856552124, 2.364962339401245, -0.6805574297904968, 0.6392032504081726, -0.443359375, 0.1328125, 0.21533203125, 0, 
249, 2302096406, -90.73597717285156, -75.58057403564453, -40.827754974365234, 7.501375198364258, -2.908456563949585, 0.3300550878047943, 4.630311012268066, -2.3084702491760254, 0.5112600922584534, -0.443359375, 0.1357421875, 0.19384765625, 0, 
250, 2302104739, -90.77997589111328, -75.58401489257812, -40.76791763305664, 10.206822395324707, -2.107588768005371, 0.27486708760261536, 4.651878356933594, -3.4176180362701416, 0.6701708436012268, -0.4453125, 0.13720703125, 0.1962890625, 0, 
251, 2302113072, -90.78358459472656, -75.58172607421875, -40.77145004272461, 11.868371963500977, -1.7804797887802124, -0.7108275294303894, 2.836674213409424, -1.7093020677566528, 1.3723852634429932, -0.44189453125, 0.130859375, 0.19873046875, 0, 
252, 2302121405, -90.76799011230469, -75.57451629638672, -40.801876068115234, 10.657617568969727, -1.9757674932479858, -0.014551025815308094, 1.4074510335922241, -0.6638569235801697, 1.9593865871429443, -0.4443359375, 0.12890625, 0.2099609375, 0, 
253, 2302129738, -90.7427749633789, -75.5751953125, -40.838871002197266, 8.417705535888672, -3.243114709854126, 0.19030874967575073, 1.788872480392456, -0.44972190260887146, 1.0174485445022583, -0.44384765625, 0.12841796875, 0.216796875, 0, 
254, 2302138071, -90.72208404541016, -75.58061218261719, -40.85955810546875, 7.3412628173828125, -3.012661933898926, 0.7923124432563782, 3.733991861343384, -1.1766026020050049, 0.46261870861053467, -0.44189453125, 0.13623046875, 0.19775390625, 0, 
255, 2302146404, -90.7848129272461, -75.58364868164062, -40.78230285644531, 9.155065536499023, -2.3433730602264404, 0.5461877584457397, 4.5116143226623535, -3.8652007579803467, 0.6930955648422241, -0.44287109375, 0.13427734375, 0.18896484375, 0, 
256, 2302154737, -90.80228424072266, -75.58428955078125, -40.75387954711914, 11.475069046020508, -1.9376776218414307, -0.5139175653457642, 4.093948841094971, -2.4582879543304443, 1.0146310329437256, -0.44091796875, 0.1337890625, 0.19873046875, 0, 
257, 2302163070, -90.78640747070312, -75.5767593383789, -40.78446578979492, 11.428900718688965, -1.9459950923919678, -0.2511965334415436, 1.480656385421753, -0.7687472701072693, 2.012510299682617, -0.4453125, 0.130859375, 0.205078125, 0, 
258, 2302171403, -90.76600646972656, -75.57386779785156, -40.818119049072266, 9.266040802001953, -2.6614229679107666, -0.15199331939220428, 1.5962022542953491, -0.5557647943496704, 1.4505341053009033, -0.44287109375, 0.12841796875, 0.21875, 0, 
259, 2302179736, -90.73621368408203, -75.578857421875, -40.847354888916016, 7.4631242752075195, -3.1915082931518555, 1.0135655403137207, 3.2399702072143555, -0.6769970655441284, 0.4973260462284088, -0.4453125, 0.1318359375, 0.2109375, 0, 
260, 2302188069, -90.78260040283203, -75.58302307128906, -40.78525924682617, 8.112344741821289, -2.6807212829589844, 0.39767172932624817, 4.43174934387207, -3.429861545562744, 0.5821347236633301, -0.44970703125, 0.13623046875, 0.201171875, 0, 
261, 2302196402, -90.82576751708984, -75.58467864990234, -40.72815704345703, 10.819337844848633, -2.1146485805511475, -0.1588241308927536, 4.52050256729126, -3.266903877258301, 0.8630973696708679, -0.455078125, 0.1337890625, 0.20751953125, 0, 
262, 2302204735, -90.81684112548828, -75.58033752441406, -40.7454833984375, 11.742395401000977, -1.7240118980407715, -0.4350450932979584, 1.9470916986465454, -1.0972753763198853, 1.6319084167480469, -0.44775390625, 0.13330078125, 0.2138671875, 0, 
263, 2302213068, -90.78956604003906, -75.57392883300781, -40.785770416259766, 10.263895988464355, -2.248335838317871, -0.1919165402650833, 1.6299362182617188, -0.45317986607551575, 1.8863604068756104, -0.4501953125, 0.12744140625, 0.22705078125, 0, 
264, 2302221401, -90.76943969726562, -75.57869720458984, -40.81577682495117, 8.023735046386719, -3.2560276985168457, 0.7247853875160217, 1.986588954925537, -0.6514853239059448, 0.5282168388366699, -0.4482421875, 0.12841796875, 0.22802734375, 0, 
265, 2302229734, -90.77191162109375, -75.58360290527344, -40.80328369140625, 7.401566505432129, -3.0240530967712402, 0.613985538482666, 4.213362693786621, -1.9265108108520508, 0.4950975775718689, -0.44580078125, 0.1328125, 0.20458984375, 0, 
266, 2302238067, -90.82989501953125, -75.58639526367188, -40.72891616821289, 9.803136825561523, -2.2111411094665527, 0.17538902163505554, 4.717861175537109, -3.864100217819214, 0.7337454557418823, -0.44580078125, 0.13232421875, 0.20263671875, 0, 
267, 2302246400, -90.84008026123047, -75.58361053466797, -40.71833801269531, 11.81125259399414, -1.7057369947433472, -0.7088351249694824, 3.0682780742645264, -1.8810452222824097, 1.412522554397583, -0.44921875, 0.1328125, 0.21240234375, 0, 
268, 2302254733, -90.81986999511719, -75.57524108886719, -40.751136779785156, 11.051918029785156, -1.9031190872192383, -0.05853002145886421, 1.6240705251693726, -0.6728475093841553, 2.120756149291992, -0.44921875, 0.12939453125, 0.21923828125, 0, 
269, 2302263066, -90.79509735107422, -75.57659912109375, -40.78995895385742, 8.70236587524414, -3.1515748500823975, -0.043852828443050385, 1.4731258153915405, -0.47892215847969055, 0.9637611508369446, -0.4521484375, 0.12744140625, 0.22998046875, 0, 
270, 2302271399, -90.76068878173828, -75.58084869384766, -40.818119049072266, 7.300600051879883, -3.2176802158355713, 0.9343600273132324, 3.926790237426758, -0.7095271348953247, 0.584542453289032, -0.4453125, 0.13134765625, 0.2138671875, 0, 
271, 2302279732, -90.82356262207031, -75.58389282226562, -40.73929214477539, 8.857216835021973, -2.3811514377593994, 0.5209102630615234, 4.678516864776611, -3.912510395050049, 0.6872299313545227, -0.447265625, 0.1357421875, 0.20068359375, 0, 
272, 2302288065, -90.8509750366211, -75.58463287353516, -40.70210266113281, 11.341187477111816, -1.9260262250900269, -0.6307732462882996, 4.065696716308594, -2.7589993476867676, 0.9948825836181641, -0.44873046875, 0.1328125, 0.20849609375, 0, 
273, 2302296398, -90.83379364013672, -75.57771301269531, -40.73222732543945, 11.522900581359863, -1.8406678438186646, -0.3959723711013794, 1.6327282190322876, -0.6712594032287598, 1.9242181777954102, -0.4501953125, 0.1298828125, 0.21630859375, 0, 
274, 2302304731, -90.8125, -75.57443237304688, -40.76808166503906, 9.471054077148438, -2.6479368209838867, -0.1543259620666504, 1.4193615913391113, -0.5808156132698059, 1.5159529447555542, -0.44970703125, 0.12646484375, 0.228515625, 0, 
275, 2302313064, -90.77749633789062, -75.58078002929688, -40.803794860839844, 7.4830732345581055, -3.235623359680176, 0.8889541625976562, 3.0961718559265137, -0.5682646036148071, 0.3542192578315735, -0.447265625, 0.1298828125, 0.22216796875, 0, 
276, 2302321397, -90.81339263916016, -75.5845718383789, -40.75223922729492, 7.913145542144775, -2.627016305923462, 0.5486118197441101, 4.74118185043335, -3.0947375297546387, 0.6134481430053711, -0.44677734375, 0.13330078125, 0.201171875, 0, 
277, 2302329730, -90.87335968017578, -75.58667755126953, -40.68165969848633, 10.812228202819824, -2.1403701305389404, -0.1537335216999054, 4.075685977935791, -3.667997360229492, 0.7998300790786743, -0.447265625, 0.13037109375, 0.2080078125, 0, 
278, 2302338063, -90.8536605834961, -75.58129119873047, -40.708961486816406, 11.98918628692627, -1.8299669027328491, -0.6509775519371033, 2.227926015853882, -0.8420807719230652, 1.7607736587524414, -0.4482421875, 0.1318359375, 0.21142578125, 0, 
279, 2302346396, -90.83785247802734, -75.57526397705078, -40.74025344848633, 10.279999732971191, -2.2122581005096436, 0.12183524668216705, 1.3189281225204468, -0.6347335577011108, 1.8230931758880615, -0.44775390625, 0.1279296875, 0.22119140625, 0, 
280, 2302354729, -90.81316375732422, -75.5792007446289, -40.77223205566406, 7.950747013092041, -3.2961487770080566, 0.3046315908432007, 2.258176565170288, -0.6755369901657104, 0.6449919939041138, -0.44775390625, 0.1259765625, 0.2265625, 0, 
281, 2302363062, -90.80670928955078, -75.58495330810547, -40.77039337158203, 7.368561744689941, -2.913559675216675, 0.6798930764198303, 4.016107082366943, -1.6914234161376953, 0.4148481786251068, -0.4482421875, 0.134765625, 0.2041015625, 0, 
282, 2302371395, -90.87061309814453, -75.58643341064453, -40.68988037109375, 9.73781681060791, -2.207822322845459, 0.2865927517414093, 4.759995937347412, -3.9647634029388428, 0.8679895997047424, -0.44580078125, 0.1318359375, 0.20458984375, 0, 
283, 2302379728, -90.87714385986328, -75.58448028564453, -40.679664611816406, 11.659937858581543, -1.7741433382034302, -0.7164175510406494, 3.4610977172851562, -1.8698264360427856, 1.3196965456008911, -0.44873046875, 0.13330078125, 0.20751953125, 0, 
284, 2302388061, -90.85526275634766, -75.5768051147461, -40.71456527709961, 11.22730827331543, -2.0535075664520264, -0.10849915444850922, 1.552555799484253, -0.6030231714248657, 2.0351791381835938, -0.45068359375, 0.12939453125, 0.21630859375, 0, 
285, 2302396394, -90.83963012695312, -75.57685852050781, -40.744102478027344, 8.78958511352539, -2.9096999168395996, 0.0585775263607502, 1.5060913562774658, -0.6741538643836975, 1.09429132938385, -0.44921875, 0.12548828125, 0.2275390625, 0, 
286, 2302404727, -90.80175018310547, -75.58203887939453, -40.77742004394531, 7.29194450378418, -3.2082505226135254, 0.7948576211929321, 3.639526605606079, -0.6259222626686096, 0.49566102027893066, -0.44580078125, 0.13037109375, 0.2119140625, 0, 
287, 2302413060, -90.85953521728516, -75.58557891845703, -40.70323181152344, 8.714112281799316, -2.451068878173828, 0.6910671591758728, 4.753669738769531, -3.7726566791534424, 0.6282660365104675, -0.44580078125, 0.13427734375, 0.19970703125, 0, 
288, 2302421393, -90.88616180419922, -75.58634185791016, -40.66970443725586, 11.271805763244629, -1.879524827003479, -0.6774098873138428, 3.727306842803955, -2.6464757919311523, 0.9978538155555725, -0.4482421875, 0.130859375, 0.2041015625, 0, 
289, 2302429726, -90.86233520507812, -75.57917022705078, -40.70524215698242, 11.58774185180664, -1.80216646194458, -0.2869150638580322, 1.7908449172973633, -0.5096848607063293, 1.9616405963897705, -0.44677734375, 0.13037109375, 0.20849609375, 0, 
290, 2302438059, -90.83915710449219, -75.5742416381836, -40.742523193359375, 9.630560874938965, -2.6725056171417236, -0.14937183260917664, 1.4267386198043823, -0.527742862701416, 1.7127726078033447, -0.44482421875, 0.12744140625, 0.22265625, 0, 
291, 2302446392, -90.80972290039062, -75.57989501953125, -40.77403259277344, 7.564177513122559, -3.415127992630005, 0.9824036955833435, 2.872328996658325, -0.6849886775016785, 0.43902796506881714, -0.44775390625, 0.13037109375, 0.21875, 0, 
292, 2302454725, -90.84307098388672, -75.5844497680664, -40.72582244873047, 7.846269607543945, -2.6317014694213867, 0.38786303997039795, 4.659306049346924, -2.9939587116241455, 0.5181759595870972, -0.44384765625, 0.1337890625, 0.201171875, 0, 
293, 2302463058, -90.8904037475586, -75.58717346191406, -40.66410827636719, 10.564303398132324, -2.1087088584899902, 0.11329498142004013, 4.5508551597595215, -3.401045083999634, 0.7371264696121216, -0.44580078125, 0.13330078125, 0.2041015625, 0, 
294, 2302471391, -90.87760925292969, -75.58313751220703, -40.68162536621094, 11.813100814819336, -1.8605782985687256, -0.709585964679718, 2.5963354110717773, -1.1454813480377197, 1.5886971950531006, -0.44921875, 0.13330078125, 0.20947265625, 0, 
295, 2302479724, -90.85398864746094, -75.5768814086914, -40.72029113769531, 10.437631607055664, -2.105412006378174, -0.17113865911960602, 1.4156218767166138, -0.4158855378627777, 1.8452239036560059, -0.447265625, 0.126953125, 0.2197265625, 0, 
296, 2302488057, -90.82755279541016, -75.5801773071289, -40.75577926635742, 8.182903289794922, -3.191951036453247, 0.400787353515625, 2.0528783798217773, -0.5741302371025085, 0.731440007686615, -0.4482421875, 0.12646484375, 0.228515625, 0, 
297, 2302496390, -90.81370544433594, -75.58486938476562, -40.763633728027344, 7.331188201904297, -2.9959592819213867, 0.7664050459861755, 3.7973358631134033, -1.407053828239441, 0.5394101142883301, -0.4462890625, 0.13427734375, 0.20654296875, 0, 
298, 2302504723, -90.8672103881836, -75.58805084228516, -40.693885803222656, 9.584038734436035, -2.380753993988037, 0.30186140537261963, 4.738249778747559, -3.639514207839966, 0.6792639493942261, -0.44384765625, 0.13134765625, 0.19921875, 0, 
299, 2302513056, -90.88507843017578, -75.58729553222656, -40.672393798828125, 11.751806259155273, -1.7430752515792847, -0.5387652516365051, 3.413327217102051, -2.2036056518554688, 1.1701351404190063, -0.44580078125, 0.1318359375, 0.2060546875, 0, 
300, 2302521389, -90.86947631835938, -75.5798110961914, -40.70076370239258, 11.203925132751465, -2.011971950531006, 0.08320009708404541, 1.670125126838684, -0.825610876083374, 1.9967577457427979, -0.44921875, 0.12890625, 0.216796875, 0, 
301, 2302529722, -90.8494644165039, -75.57926940917969, -40.73210144042969, 8.862022399902344, -2.9240455627441406, -0.296030730009079, 1.8129243850708008, -0.6224130392074585, 1.1690850257873535, -0.4482421875, 0.12646484375, 0.22802734375, 0, 
302, 2302538055, -90.81312561035156, -75.58502197265625, -40.7658576965332, 7.386332035064697, -3.1063942909240723, 1.1172629594802856, 3.5850322246551514, -0.6571075320243835, 0.43181756138801575, -0.4453125, 0.1318359375, 0.21435546875, 0, 
303, 2302546388, -90.8700180053711, -75.58889770507812, -40.692867279052734, 8.57619857788086, -2.4644956588745117, 0.3780796229839325, 4.6975998878479, -3.8255245685577393, 0.6031384468078613, -0.4443359375, 0.13623046875, 0.197265625, 0, 
304, 2302554721, -90.90418243408203, -75.58973693847656, -40.64857482910156, 11.10866928100586, -2.1030149459838867, -0.3753436803817749, 4.104783535003662, -2.882280111312866, 0.9694987535476685, -0.44384765625, 0.1328125, 0.1982421875, 0, 
305, 2302563054, -90.88663482666016, -75.58328247070312, -40.677955627441406, 11.646987915039062, -1.8567668199539185, -0.5315566658973694, 1.7541395425796509, -0.6933133602142334, 1.874449610710144, -0.443359375, 0.130859375, 0.203125, 0, 
306, 2302571387, -90.85810852050781, -75.57759094238281, -40.722328186035156, 9.8131742477417, -2.3235039710998535, 0.1157858818769455, 1.3234108686447144, -0.3370961844921112, 1.8043437004089355, -0.44580078125, 0.1279296875, 0.21728515625, 0, 
307, 2302579720, -90.82122802734375, -75.58226013183594, -40.76171112060547, 7.680404186248779, -3.27359676361084, 0.5467414259910583, 2.9042701721191406, -0.3714960813522339, 0.5465309619903564, -0.4423828125, 0.130859375, 0.21630859375, 0, 
308, 2302588053, -90.8392105102539, -75.58677673339844, -40.733543395996094, 7.728800296783447, -2.8563766479492188, 0.8123603463172913, 4.2184343338012695, -2.4974777698516846, 0.5461723208427429, -0.44091796875, 0.13525390625, 0.1923828125, 0, 
309, 2302596386, -90.89042663574219, -75.58827209472656, -40.66571044921875, 10.236995697021484, -2.2052395343780518, -0.1094270870089531, 4.927462100982666, -3.7172532081604004, 0.8907606601715088, -0.4423828125, 0.13671875, 0.19482421875, 0, 
310, 2302604719, -90.88579559326172, -75.58483123779297, -40.67536926269531, 11.759675979614258, -1.5412958860397339, -0.4539714455604553, 2.4965169429779053, -1.2756786346435547, 1.5058352947235107, -0.44140625, 0.1318359375, 0.19775390625, 0, 
311, 2302613052, -90.85917663574219, -75.57484436035156, -40.712196350097656, 10.748015403747559, -2.176485776901245, -0.31595516204833984, 1.9813123941421509, -0.47718045115470886, 2.300414562225342, -0.44482421875, 0.13134765625, 0.2109375, 0, 
312, 2302621385, -90.84574890136719, -75.57714080810547, -40.7412109375, 8.321893692016602, -3.2923803329467773, 0.6344634294509888, 1.2944411039352417, -0.7822971940040588, 0.8362792730331421, -0.44384765625, 0.1298828125, 0.21875, 0, 
313, 2302629718, -90.80989074707031, -75.58113098144531, -40.767662048339844, 7.252658367156982, -3.177607297897339, 0.4734318256378174, 4.28848934173584, -0.7620619535446167, 0.6205304861068726, -0.44384765625, 0.13525390625, 0.19775390625, 0, 
314, 2302638051, -90.87226104736328, -75.58393096923828, -40.6895866394043, 9.40750789642334, -2.086075782775879, 0.6496688723564148, 4.5417375564575195, -3.9585654735565186, 0.7331050634384155, -0.44189453125, 0.13330078125, 0.1923828125, 0, 
315, 2302646384, -90.89595031738281, -75.58316040039062, -40.66201400756836, 11.474983215332031, -1.9505040645599365, -0.7426878213882446, 3.471830368041992, -2.4937379360198975, 1.1734650135040283, -0.44189453125, 0.13427734375, 0.19970703125, 0, 
316, 2302654717, -90.87369537353516, -75.57571411132812, -40.6966667175293, 11.258919715881348, -1.9271656274795532, -0.2887166142463684, 1.702168583869934, -0.5354527235031128, 1.9978591203689575, -0.4453125, 0.13427734375, 0.20556640625, 0, 
317, 2302663050, -90.85567474365234, -75.57254028320312, -40.72986602783203, 9.174121856689453, -2.845219135284424, 0.02472815290093422, 1.3614476919174194, -0.5713382959365845, 1.4834227561950684, -0.443359375, 0.1279296875, 0.2177734375, 0, 
318, 2302671383, -90.81967163085938, -75.57852935791016, -40.765228271484375, 7.30156946182251, -3.099513292312622, 0.8339139223098755, 3.491271734237671, -0.643647313117981, 0.39971014857292175, -0.44384765625, 0.13427734375, 0.2099609375, 0, 
319, 2302679716, -90.86701965332031, -75.58262634277344, -40.70520782470703, 8.34753131866455, -2.578618049621582, 0.6275505423545837, 4.361950874328613, -3.347947120666504, 0.5661002397537231, -0.44091796875, 0.13525390625, 0.1923828125, 0, 
320, 2302688049, -90.90804290771484, -75.58474731445312, -40.64963150024414, 11.095529556274414, -2.10640549659729, -0.34250885248184204, 4.470580577850342, -3.283270835876465, 0.8276471495628357, -0.4443359375, 0.1337890625, 0.1943359375, 0, 
321, 2302696382, -90.89501190185547, -75.57948303222656, -40.67888259887695, 11.7059907913208, -1.7691279649734497, -0.3700987696647644, 1.691051721572876, -0.9085241556167603, 1.732521414756775, -0.443359375, 0.1318359375, 0.20166015625, 0, 
322, 2302704715, -90.8694839477539, -75.5736083984375, -40.71547317504883, 10.00901985168457, -2.302981376647949, -0.11819172650575638, 1.8679182529449463, -0.4755154252052307, 1.8147940635681152, -0.443359375, 0.12646484375, 0.21435546875, 0, 
323, 2302713048, -90.85639953613281, -75.57785034179688, -40.7366828918457, 7.849085807800293, -3.2078781127929688, 0.7025057077407837, 2.1664905548095703, -0.9182447791099548, 0.5857335329055786, -0.44189453125, 0.1318359375, 0.2177734375, 0, 
324, 2302721381, -90.8567123413086, -75.58241271972656, -40.74281311035156, 7.485907554626465, -2.983231782913208, 0.37590470910072327, 4.294994831085205, -1.9729751348495483, 0.5500656962394714, -0.44140625, 0.13525390625, 0.19580078125, 0, 
325, 2302729714, -90.91433715820312, -75.58448028564453, -40.66999816894531, 10.057209968566895, -2.1968204975128174, 0.29412320256233215, 4.6083855628967285, -3.734184503555298, 0.8039795756340027, -0.44287109375, 0.1337890625, 0.19140625, 0, 
326, 2302738047, -90.91129302978516, -75.58319091796875, -40.680442810058594, 11.827616691589355, -1.7186710834503174, -0.7876336574554443, 2.8938450813293457, -1.5231634378433228, 1.256557583808899, -0.44482421875, 0.13427734375, 0.19580078125, 0, 
327, 2302746380, -90.88610076904297, -75.57508850097656, -40.71804428100586, 10.936083793640137, -2.03328537940979, 0.06457041203975677, 1.653245210647583, -0.5288187265396118, 2.093348741531372, -0.44580078125, 0.1298828125, 0.20703125, 0, 
328, 2302754713, -90.87103271484375, -75.57611083984375, -40.74561309814453, 8.558199882507324, -3.1577532291412354, 0.16642089188098907, 1.6686136722564697, -0.7343472838401794, 0.9771317839622498, -0.44189453125, 0.13134765625, 0.21484375, 0, 
329, 2302763046, -90.84635162353516, -75.58206939697266, -40.76323699951172, 7.276370048522949, -3.1576626300811768, 0.8559222221374512, 3.9683878421783447, -1.0203814506530762, 0.3799615204334259, -0.443359375, 0.134765625, 0.19775390625, 0, 
330, 2302771379, -90.89901733398438, -75.58554077148438, -40.68437576293945, 9.05411434173584, -2.2900569438934326, 0.4372837245464325, 4.752645015716553, -3.7134368419647217, 0.6597203016281128, -0.4423828125, 0.13525390625, 0.1875, 0, 
331, 2302779712, -90.92535400390625, -75.58592224121094, -40.65121078491211, 11.388216972351074, -1.8679368495941162, -0.6069601774215698, 3.7603235244750977, -2.5517029762268066, 1.0225715637207031, -0.44384765625, 0.13330078125, 0.19287109375, 0, 
332, 2302788045, -90.90116882324219, -75.57888793945312, -40.688907623291016, 11.481728553771973, -1.862420916557312, -0.3442595899105072, 1.6429740190505981, -0.5583775043487549, 1.9575936794281006, -0.443359375, 0.130859375, 0.19970703125, 0, 
333, 2302796378, -90.87349700927734, -75.5756607055664, -40.73589324951172, 9.355730056762695, -2.7258083820343018, -0.1455589383840561, 1.269210934638977, -0.3461891710758209, 1.5105483531951904, -0.4453125, 0.12841796875, 0.21484375, 0, 
334, 2302804711, -90.8402099609375, -75.5805892944336, -40.76773452758789, 7.444124698638916, -3.304107427597046, 1.003629207611084, 3.3538765907287598, -0.5990785360336304, 0.511721134185791, -0.4423828125, 0.13330078125, 0.205078125, 0, 
335, 2302813044, -90.88489532470703, -75.5843734741211, -40.70745849609375, 8.022350311279297, -2.675658702850342, 0.608133852481842, 4.701671600341797, -3.3549649715423584, 0.6046239733695984, -0.43994140625, 0.13720703125, 0.18701171875, 0, 
336, 2302821377, -90.92416381835938, -75.58609771728516, -40.656471252441406, 10.852595329284668, -2.0768883228302, -0.39054298400878906, 4.405007839202881, -3.213728427886963, 0.876186192035675, -0.44091796875, 0.13525390625, 0.19140625, 0, 
337, 2302829710, -90.90702056884766, -75.58121490478516, -40.68284225463867, 11.807389259338379, -1.73151695728302, -0.6028301119804382, 2.053518772125244, -0.7815287113189697, 1.6851091384887695, -0.4443359375, 0.1318359375, 0.2001953125, 0, 
338, 2302838043, -90.88249969482422, -75.57465362548828, -40.7225341796875, 10.172056198120117, -2.2793502807617188, -0.03397759422659874, 1.519461989402771, -0.5128098130226135, 1.9024972915649414, -0.44384765625, 0.13037109375, 0.21142578125, 0, 
339, 2302846376, -90.85305786132812, -75.57876586914062, -40.76036834716797, 7.887263774871826, -3.3047847747802734, 0.45302602648735046, 2.195242166519165, -0.4197532534599304, 0.6128461360931396, -0.44384765625, 0.13037109375, 0.21240234375, 0, 
340, 2302854709, -90.84799194335938, -75.58324432373047, -40.751495361328125, 7.448598384857178, -2.9121830463409424, 0.7719196081161499, 4.435540199279785, -1.845467448234558, 0.561156690120697, -0.44189453125, 0.1357421875, 0.1923828125, 0, 
341, 2302863042, -90.90874481201172, -75.58552551269531, -40.67821502685547, 10.009446144104004, -2.171340227127075, 0.09868105500936508, 4.2826995849609375, -3.748425006866455, 0.78359055519104, -0.443359375, 0.134765625, 0.1865234375, 0, 
342, 2302871375, -90.91065979003906, -75.58293914794922, -40.6824836730957, 11.902180671691895, -1.8196371793746948, -0.5135621428489685, 3.0712358951568604, -1.7213531732559204, 1.4012136459350586, -0.44384765625, 0.13427734375, 0.1923828125, 0, 
343, 2302879708, -90.88806915283203, -75.57622528076172, -40.720497131347656, 11.009672164916992, -2.0295865535736084, -0.193428635597229, 1.3985756635665894, -0.5432267189025879, 1.9261263608932495, -0.44287109375, 0.130859375, 0.19970703125, 0, 
344, 2302888041, -90.86461639404297, -75.57760620117188, -40.7545166015625, 8.613788604736328, -3.0917978286743164, 0.15706348419189453, 1.9225531816482544, -0.5403963327407837, 0.9355599284172058, -0.4404296875, 0.12744140625, 0.212890625, 0, 
345, 2302896374, -90.84115600585938, -75.58393096923828, -40.77402114868164, 7.279272556304932, -3.0411694049835205, 0.743396520614624, 3.607252597808838, -0.9642350077629089, 0.33995211124420166, -0.44140625, 0.13427734375, 0.1943359375, 0, 
346, 2302904707, -90.89503479003906, -75.5871810913086, -40.708763122558594, 8.9072904586792, -2.3868248462677, 0.5954506993293762, 4.7272868156433105, -3.742790937423706, 0.6768817901611328, -0.44091796875, 0.14013671875, 0.181640625, 0, 
347, 2302913040, -90.92086029052734, -75.58763885498047, -40.67427062988281, 11.37103271484375, -1.9464913606643677, -0.5828233361244202, 3.978198528289795, -2.5920968055725098, 1.0116342306137085, -0.4423828125, 0.13525390625, 0.18701171875, 0, 
348, 2302921373, -90.90142822265625, -75.57998657226562, -40.70626449584961, 11.543701171875, -1.9144701957702637, -0.31828832626342773, 1.6502227783203125, -0.7110639214515686, 2.039482355117798, -0.44384765625, 0.1318359375, 0.19287109375, 0, 
349, 2302929706, -90.87371826171875, -75.57601928710938, -40.74948501586914, 9.494894981384277, -2.586470603942871, -0.0942077711224556, 1.3918519020080566, -0.37638840079307556, 1.59223210811615, -0.447265625, 0.13134765625, 0.205078125, 0, 
350, 2302938039, -90.836669921875, -75.58208465576172, -40.78673553466797, 7.52366304397583, -3.2713701725006104, 0.8660692572593689, 3.1691980361938477, -0.43391790986061096, 0.38190820813179016, -0.4404296875, 0.13330078125, 0.20068359375, 0, 
351, 2302946372, -90.87537384033203, -75.58582305908203, -40.733036041259766, 7.908499717712402, -2.7392773628234863, 0.8075061440467834, 4.662841320037842, -3.1619365215301514, 0.6116167902946472, -0.44140625, 0.1357421875, 0.17724609375, 0, 
352, 2302954705, -90.92279815673828, -75.588623046875, -40.67201614379883, 10.700181007385254, -2.0537197589874268, -0.4580060541629791, 4.562381744384766, -3.5025036334991455, 0.7413527965545654, -0.44287109375, 0.13525390625, 0.1826171875, 0, 
353, 2302963038, -90.90885162353516, -75.58313751220703, -40.69520568847656, 11.8779935836792, -1.6010136604309082, -0.3693676292896271, 2.0341033935546875, -0.8762246370315552, 1.7565219402313232, -0.44384765625, 0.134765625, 0.1884765625, 0, 
354, 2302971371, -90.8763198852539, -75.57573699951172, -40.73914337158203, 10.304743766784668, -2.2522478103637695, -0.2706281840801239, 1.846760869026184, -0.35313066840171814, 2.0037760734558105, -0.4443359375, 0.1298828125, 0.1962890625, 0, 
355, 2302979704, -90.859130859375, -75.58039855957031, -40.76662826538086, 7.927058219909668, -3.477342367172241, 0.9553197026252747, 1.864613652229309, -0.8078088164329529, 0.5601577162742615, -0.4423828125, 0.12890625, 0.20361328125, 0, 
356, 2302988037, -90.84721374511719, -75.5854263305664, -40.76654815673828, 7.3368425369262695, -3.0138893127441406, 0.3585330843925476, 4.4972968101501465, -1.5541054010391235, 0.48395541310310364, -0.44580078125, 0.134765625, 0.19189453125, 0, 
357, 2302996370, -90.90607452392578, -75.58747100830078, -40.692378997802734, 9.93368148803711, -2.040356397628784, 0.5151186585426331, 4.622626781463623, -3.774526834487915, 0.8045431971549988, -0.45068359375, 0.1337890625, 0.19189453125, 0, 
358, 2303004703, -90.91949462890625, -75.58660888671875, -40.67580032348633, 11.6830415725708, -1.8181394338607788, -0.840916097164154, 3.3421707153320312, -2.1455891132354736, 1.1911131143569946, -0.44677734375, 0.13037109375, 0.197265625, 0, 
359, 2303013036, -90.89849090576172, -75.57964324951172, -40.71023178100586, 11.009660720825195, -1.9983755350112915, -0.04307333007454872, 1.5713181495666504, -0.543124258518219, 1.945183515548706, -0.4482421875, 0.12890625, 0.20703125, 0, 
360, 2303021369, -90.86862182617188, -75.5807876586914, -40.75351333618164, 8.772927284240723, -3.0377988815307617, -0.0625540167093277, 1.630704641342163, -0.3649131953716278, 0.9838427901268005, -0.447265625, 0.12451171875, 0.216796875, 0, 
361, 2303029702, -90.83766174316406, -75.58676147460938, -40.779930114746094, 7.267518520355225, -3.041360378265381, 0.9404512643814087, 3.652794599533081, -0.8422088027000427, 0.39299920201301575, -0.4501953125, 0.13134765625, 0.19970703125, 0, 
362, 2303038035, -90.8929214477539, -75.58936309814453, -40.71006774902344, 8.842049598693848, -2.5048470497131348, 0.557742178440094, 4.553083896636963, -3.6450717449188232, 0.7435811758041382, -0.44580078125, 0.13330078125, 0.18359375, 0, 
363, 2303046368, -90.92224884033203, -75.59046173095703, -40.67106628417969, 11.416088104248047, -1.8932923078536987, -0.5892144441604614, 4.0801682472229, -2.7243683338165283, 0.9326399564743042, -0.44970703125, 0.1298828125, 0.193359375, 0, 
364, 2303054701, -90.90966033935547, -75.58335876464844, -40.69643020629883, 11.550525665283203, -1.8823292255401611, -0.10584752261638641, 1.4669017791748047, -0.8738681077957153, 1.965815782546997, -0.447265625, 0.1259765625, 0.19580078125, 0, 
365, 2303063034, -90.88349151611328, -75.57923889160156, -40.732810974121094, 9.471385955810547, -2.6046438217163086, -0.33313727378845215, 1.9661484956741333, -0.48163723945617676, 1.6015812158584595, -0.44970703125, 0.12646484375, 0.21044921875, 0, 
366, 2303071367, -90.8504409790039, -75.58566284179688, -40.76561737060547, 7.545576572418213, -3.246623992919922, 1.164035677909851, 3.0232737064361572, -0.6151642203330994, 0.3523750305175781, -0.4462890625, 0.126953125, 0.203125, 0, 
367, 2303079700, -90.88195037841797, -75.59090423583984, -40.719329833984375, 7.899921894073486, -2.677748441696167, 0.13442738354206085, 4.669090270996094, -3.036170244216919, 0.4524753987789154, -0.44482421875, 0.13134765625, 0.1845703125, 0, 
368, 2303088033, -90.92765045166016, -75.59265899658203, -40.660804748535156, 10.636415481567383, -2.159071207046509, 0.10671638697385788, 4.372093677520752, -3.30696439743042, 0.8523649573326111, -0.4482421875, 0.12939453125, 0.1875, 0, 
369, 2303096366, -90.91545104980469, -75.5875244140625, -40.681556701660156, 11.881514549255371, -1.7479914426803589, -0.6848372220993042, 2.1163761615753174, -0.9501215815544128, 1.7096221446990967, -0.44677734375, 0.12890625, 0.1923828125, 0, 
370, 2303104699, -90.88386535644531, -75.58073425292969, -40.7271842956543, 10.373923301696777, -2.1038382053375244, -0.056408338248729706, 1.5608546733856201, -0.30751171708106995, 1.9305707216262817, -0.4453125, 0.123046875, 0.205078125, 0, 
371, 2303113032, -90.8619155883789, -75.58411407470703, -40.758338928222656, 7.993149280548096, -3.2904741764068604, 0.5572242736816406, 2.0807979106903076, -0.6239756345748901, 0.6928906440734863, -0.44921875, 0.12548828125, 0.20849609375, 0, 
372, 2303121365, -90.85547637939453, -75.58985900878906, -40.75758361816406, 7.4177446365356445, -3.0186243057250977, 0.6371062994003296, 4.056347370147705, -1.706510066986084, 0.41653871536254883, -0.4443359375, 0.130859375, 0.1845703125, 0, 
373, 2303129698, -90.91557312011719, -75.59307098388672, -40.67775344848633, 9.714141845703125, -2.2566864490509033, 0.41378435492515564, 4.93366003036499, -3.9897632598876953, 0.6815179586410522, -0.44921875, 0.13037109375, 0.18359375, 0, 
374, 2303138031, -90.9227066040039, -75.59172821044922, -40.669795989990234, 11.678495407104492, -1.5926352739334106, -0.9843906760215759, 3.128138303756714, -1.8014875650405884, 1.2446211576461792, -0.44775390625, 0.12890625, 0.1904296875, 0, 
375, 2303146364, -90.89692687988281, -75.58272552490234, -40.707515716552734, 11.075285911560059, -1.9647117853164673, 0.17431136965751648, 1.7725818157196045, -0.4490559697151184, 2.1829988956451416, -0.44775390625, 0.125, 0.19677734375, 0, 
376, 2303154697, -90.89034271240234, -75.58377075195312, -40.731021881103516, 8.71878719329834, -3.0620980262756348, -0.12972089648246765, 1.0331757068634033, -0.9306548833847046, 0.9866603016853333, -0.447265625, 0.123046875, 0.20849609375, 0, 
377, 2303163030, -90.84640502929688, -75.58946990966797, -40.76615905761719, 7.38742208480835, -3.2394325733184814, 0.8502715826034546, 4.246917247772217, -0.4979279339313507, 0.42191770672798157, -0.4462890625, 0.13037109375, 0.1953125, 0, 
378, 2303171363, -90.92330932617188, -75.5938949584961, -40.67728042602539, 8.828436851501465, -2.2753899097442627, 0.8866209387779236, 4.202425956726074, -4.317727565765381, 0.5297792553901672, -0.44677734375, 0.12841796875, 0.185546875, 0, 
379, 2303179696, -90.94412231445312, -75.59394073486328, -40.646305084228516, 11.265249252319336, -1.95261812210083, -0.9152330756187439, 4.345583438873291, -2.63297700881958, 1.0846091508865356, -0.44677734375, 0.12744140625, 0.19384765625, 0, 
380, 2303188029, -90.92635345458984, -75.58698272705078, -40.678531646728516, 11.487678527832031, -1.818143606185913, -0.131622314453125, 1.447742223739624, -0.610374391078949, 1.9346944093704224, -0.4453125, 0.1240234375, 0.20068359375, 0, 
381, 2303196362, -90.90866088867188, -75.58232879638672, -40.710716247558594, 9.547357559204102, -2.597290515899658, -0.21351735293865204, 1.439955472946167, -0.6077617406845093, 1.6625430583953857, -0.447265625, 0.12109375, 0.21142578125, 0, 
382, 2303204695, -90.87972259521484, -75.58782958984375, -40.74216842651367, 7.414833068847656, -3.255836009979248, 1.2200331687927246, 3.155315399169922, -0.7749971151351929, 0.45216813683509827, -0.44482421875, 0.12646484375, 0.20166015625, 0, 
383, 2303213028, -90.90836334228516, -75.5908203125, -40.70103073120117, 8.01346492767334, -2.677769660949707, 0.1559188812971115, 4.407338619232178, -2.784766435623169, 0.7055953145027161, -0.44580078125, 0.1298828125, 0.185546875, 0, 
384, 2303221361, -90.95760345458984, -75.59207916259766, -40.63786697387695, 10.686710357666016, -2.1157033443450928, 0.31699126958847046, 4.531824111938477, -3.558880567550659, 0.9225736260414124, -0.44677734375, 0.12744140625, 0.1923828125, 0, 
385, 2303229694, -90.96084594726562, -75.58665466308594, -40.646575927734375, 11.844999313354492, -1.757560133934021, -0.7448447346687317, 1.976343035697937, -1.4912221431732178, 1.7532174587249756, -0.4453125, 0.125, 0.19873046875, 0, 
386, 2303238027, -90.93313598632812, -75.57952880859375, -40.68490982055664, 10.306516647338867, -2.2019338607788086, -0.02317703515291214, 1.9341052770614624, -0.4290512800216675, 1.9587973356246948, -0.44873046875, 0.1220703125, 0.21337890625, 0, 
387, 2303246360, -90.92440795898438, -75.58234405517578, -40.7039909362793, 8.089193344116211, -3.294008255004883, 0.6552676558494568, 1.8856176137924194, -0.9840605854988098, 0.7625870108604431, -0.44921875, 0.12548828125, 0.2158203125, 0, 
388, 2303254693, -90.90805053710938, -75.5865249633789, -40.714393615722656, 7.383444309234619, -3.0126864910125732, 0.4027388393878937, 4.343739032745361, -1.4723447561264038, 0.5946345329284668, -0.4462890625, 0.1279296875, 0.1943359375, 0, 
389, 2303263026, -90.968505859375, -75.58843231201172, -40.64036178588867, 9.741673469543457, -2.1827192306518555, 0.5216757655143738, 4.565404415130615, -3.912997007369995, 0.8406335711479187, -0.44677734375, 0.12939453125, 0.19189453125, 0, 
390, 2303271359, -90.98220825195312, -75.58637237548828, -40.624969482421875, 11.75817584991455, -1.7123947143554688, -0.8960232138633728, 3.206005573272705, -2.0238447189331055, 1.3250242471694946, -0.447265625, 0.1240234375, 0.20361328125, 0, 
391, 2303279692, -90.95867919921875, -75.57780456542969, -40.6622428894043, 11.124246597290039, -2.0173916816711426, 0.17273907363414764, 1.549187183380127, -0.4638994634151459, 2.136291027069092, -0.4462890625, 0.12353515625, 0.20654296875, 0, 
392, 2303288025, -90.93762969970703, -75.57766723632812, -40.69723892211914, 8.738123893737793, -3.075202226638794, -0.1351514756679535, 1.5675781965255737, -0.6241932511329651, 1.1328791379928589, -0.4462890625, 0.12060546875, 0.22265625, 0, 
393, 2303296358, -90.91114044189453, -75.58296966552734, -40.71736145019531, 7.30926513671875, -3.233315944671631, 1.0243711471557617, 3.902418375015259, -0.9490842223167419, 0.45966020226478577, -0.4423828125, 0.12890625, 0.20654296875, 0, 
394, 2303304691, -90.97068786621094, -75.58670806884766, -40.645355224609375, 8.806230545043945, -2.387826681137085, 0.4898078143596649, 4.590878009796143, -3.883784294128418, 0.6189039945602417, -0.44482421875, 0.12890625, 0.19677734375, 0, 
395, 2303313024, -90.9939956665039, -75.58757019042969, -40.617286682128906, 11.295880317687988, -1.9060522317886353, -0.6405407190322876, 3.8796346187591553, -2.589458465576172, 0.9808459281921387, -0.4453125, 0.12646484375, 0.201171875, 0, 
396, 2303321357, -90.97222137451172, -75.57869720458984, -40.651763916015625, 11.619391441345215, -1.852583408355713, -0.4281409978866577, 1.6705859899520874, -0.5474914908409119, 2.1650943756103516, -0.44580078125, 0.12744140625, 0.20947265625, 0, 
397, 2303329690, -90.94563293457031, -75.57503509521484, -40.6938362121582, 9.565320014953613, -2.628115653991699, -0.06870068609714508, 1.3609869480133057, -0.3082033395767212, 1.5503785610198975, -0.44970703125, 0.12451171875, 0.22216796875, 0, 
398, 2303338023, -90.9109878540039, -75.57971954345703, -40.7227897644043, 7.514853477478027, -3.360388994216919, 0.9175878167152405, 3.0523459911346436, -0.5789201855659485, 0.5534468293190002, -0.4462890625, 0.1259765625, 0.21484375, 0, 
399, 2303346356, -90.94938659667969, -75.58360290527344, -40.66791534423828, 7.877501010894775, -2.734020471572876, 0.5899304151535034, 4.834764003753662, -3.1944921016693115, 0.5941990613937378, -0.4423828125, 0.13037109375, 0.19970703125, 0, 
400, 2303354689, -90.99398803710938, -75.5854263305664, -40.61088562011719, 10.718544960021973, -2.1072375774383545, -0.15515531599521637, 4.375808238983154, -3.376532554626465, 0.8577439785003662, -0.44287109375, 0.13037109375, 0.19921875, 0, 
401, 2303363022, -90.97477722167969, -75.58026885986328, -40.641502380371094, 11.874441146850586, -1.7265571355819702, -0.7371053099632263, 2.2078702449798584, -0.8580385446548462, 1.7360047101974487, -0.443359375, 0.12744140625, 0.205078125, 0, 
402, 2303371355, -90.94979095458984, -75.57474517822266, -40.678958892822266, 10.311726570129395, -2.242164373397827, -0.07432802021503448, 1.7143608331680298, -0.45195043087005615, 1.7647696733474731, -0.4404296875, 0.125, 0.21630859375, 0, 
403, 2303379688, -90.92090606689453, -75.57894134521484, -40.71723556518555, 7.97113037109375, -3.3269896507263184, 0.4290372431278229, 2.0791330337524414, -0.40702295303344727, 0.6039068102836609, -0.44384765625, 0.125, 0.21923828125, 0, 
404, 2303388021, -90.909423828125, -75.58422088623047, -40.720394134521484, 7.311324119567871, -2.986440896987915, 0.7826923727989197, 4.302244186401367, -1.6177568435668945, 0.47337672114372253, -0.4375, 0.1328125, 0.19873046875, 0, 
405, 2303396354, -90.96263885498047, -75.58769226074219, -40.65285873413086, 9.802030563354492, -2.1111345291137695, -0.04948027431964874, 4.52163028717041, -3.5737621784210205, 0.6387678384780884, -0.44189453125, 0.130859375, 0.197265625, 0, 
406, 2303404687, -90.9666976928711, -75.5860595703125, -40.6457405090332, 11.894471168518066, -1.832411289215088, -0.3999769985675812, 3.3312079906463623, -1.8567373752593994, 1.2863980531692505, -0.43994140625, 0.1298828125, 0.2021484375, 0, 
407, 2303413020, -90.94854736328125, -75.57870483398438, -40.673912048339844, 11.121586799621582, -2.0111000537872314, -0.2287580370903015, 1.4325531721115112, -0.6940305233001709, 2.0003182888031006, -0.43896484375, 0.12744140625, 0.2060546875, 0, 
408, 2303421353, -90.92020416259766, -75.5798110961914, -40.71247482299805, 8.684120178222656, -3.0674855709075928, 0.14685504138469696, 1.9741661548614502, -0.40533247590065, 0.9736483693122864, -0.44287109375, 0.1240234375, 0.224609375, 0, 
409, 2303429686, -90.89170837402344, -75.58665466308594, -40.73692321777344, 7.291729927062988, -3.0758249759674072, 0.7538231015205383, 3.638937473297119, -0.8168507218360901, 0.2811930477619171, -0.439453125, 0.1328125, 0.2060546875, 0, 
410, 2303438019, -90.93863677978516, -75.59088134765625, -40.67866897583008, 8.747881889343262, -2.4121575355529785, 0.6350815296173096, 4.662123680114746, -3.5116219520568848, 0.563026487827301, -0.43798828125, 0.1298828125, 0.1923828125, 0, 
411, 2303446352, -90.96371459960938, -75.591796875, -40.64210891723633, 11.272037506103516, -1.9905134439468384, -0.7044334411621094, 4.302371978759766, -2.6527512073516846, 0.9595860838890076, -0.44482421875, 0.130859375, 0.19970703125, 0, 
412, 2303454685, -90.94183349609375, -75.58612823486328, -40.68063735961914, 11.592754364013672, -1.9135912656784058, -0.11861706525087357, 1.5232529640197754, -0.5999751091003418, 1.792253851890564, -0.43994140625, 0.1259765625, 0.20556640625, 0, 
413, 2303463018, -90.91117858886719, -75.58224487304688, -40.72103500366211, 9.62039852142334, -2.500011444091797, -0.3377588093280792, 1.2926478385925293, -0.2677071690559387, 1.5928980112075806, -0.44091796875, 0.1259765625, 0.2197265625, 0, 
414, 2303471351, -90.87557220458984, -75.58827209472656, -40.75728225708008, 7.591065883636475, -3.2454564571380615, 1.0585343837738037, 3.1147677898406982, -0.46485990285873413, 0.3834195137023926, -0.43701171875, 0.12890625, 0.21337890625, 0, 
415, 2303479684, -90.90666198730469, -75.5928955078125, -40.71253204345703, 7.793953895568848, -2.779970169067383, 0.4285924434661865, 4.524933815002441, -2.8881969451904297, 0.5153327584266663, -0.43896484375, 0.13232421875, 0.1953125, 0, 
416, 2303488017, -90.9434585571289, -75.59504699707031, -40.660972595214844, 10.550458908081055, -2.0762975215911865, -0.07409681379795074, 4.609383583068848, -3.1901121139526367, 0.8159926533699036, -0.44140625, 0.1318359375, 0.19580078125, 0, 
417, 2303496350, -90.9338607788086, -75.58978271484375, -40.67953109741211, 11.89659595489502, -1.6404227018356323, -0.5900928378105164, 2.0525197982788086, -1.0168980360031128, 1.7300621271133423, -0.44140625, 0.12939453125, 0.203125, 0, 
418, 2303504683, -90.90129852294922, -75.58248138427734, -40.71060562133789, 10.451486587524414, -2.1821255683898926, -0.10356307774782181, 1.826423168182373, -0.3520292341709137, 1.991045594215393, -0.4375, 0.1279296875, 0.21435546875, 0, 
419, 2303513016, -90.8765869140625, -75.58570098876953, -40.733245849609375, 8.073529243469238, -3.433170795440674, 0.8015428781509399, 1.7071630954742432, -0.5446994304656982, 0.7365117073059082, -0.4384765625, 0.12939453125, 0.2158203125, 0, 
420, 2303521349, -90.8558578491211, -75.59102630615234, -40.74184036254883, 7.434322357177734, -3.026334285736084, 0.2938966155052185, 4.554877758026123, -1.295196771621704, 0.4490687847137451, -0.435546875, 0.13427734375, 0.19921875, 0, 
421, 2303529682, -90.92130279541016, -75.59384155273438, -40.66169738769531, 9.763118743896484, -2.0627830028533936, 0.7055631279945374, 4.521091938018799, -3.9521870613098145, 0.7147397398948669, -0.43701171875, 0.13232421875, 0.19775390625, 0, 
422, 2303538015, -90.93024444580078, -75.5920639038086, -40.64786911010742, 11.484355926513672, -1.8470369577407837, -0.9605385065078735, 3.6068685054779053, -2.0798118114471436, 1.3002296686172485, -0.4345703125, 0.13134765625, 0.201171875, 0, 
423, 2303546348, -90.9081039428711, -75.58442687988281, -40.68245315551758, 11.123917579650879, -1.9889765977859497, 0.03458381071686745, 1.6851862668991089, -0.5400890111923218, 2.026444673538208, -0.43701171875, 0.12890625, 0.21240234375, 0, 
424, 2303554681, -90.88031005859375, -75.58428955078125, -40.73054885864258, 8.893383979797363, -2.899871826171875, -0.24993982911109924, 1.3945670127868652, -0.373698890209198, 1.1308172941207886, -0.43798828125, 0.1240234375, 0.22607421875, 0, 
425, 2303563014, -90.83841705322266, -75.58870697021484, -40.76689147949219, 7.331055641174316, -3.093630075454712, 1.0795592069625854, 3.7982840538024902, -0.5466206073760986, 0.5899214148521423, -0.4375, 0.13232421875, 0.20751953125, 0, 
426, 2303571347, -90.89739990234375, -75.59136962890625, -40.69546127319336, 8.725496292114258, -2.574467182159424, 0.5684999823570251, 4.282649040222168, -3.693969964981079, 0.7378693222999573, -0.43505859375, 0.13427734375, 0.19580078125, 0, 
427, 2303579680, -90.92221069335938, -75.59212493896484, -40.659549713134766, 11.252754211425781, -1.936741590499878, -0.6489383578300476, 4.255779266357422, -2.632362127304077, 0.9835610389709473, -0.4375, 0.12939453125, 0.2021484375, 0, 
428, 2303588013, -90.90885925292969, -75.58455657958984, -40.69797897338867, 11.518964767456055, -1.7860033512115479, -0.042215876281261444, 1.4404934644699097, -0.8485612869262695, 2.021245002746582, -0.4375, 0.130859375, 0.2099609375, 0, 
429, 2303596346, -90.88526153564453, -75.57913208007812, -40.731876373291016, 9.577701568603516, -2.5500333309173584, -0.23944002389907837, 1.9548273086547852, -0.5566869378089905, 1.750553846359253, -0.435546875, 0.12646484375, 0.2216796875, 0, 
430, 2303604679, -90.86206817626953, -75.58399963378906, -40.7654914855957, 7.611011028289795, -3.333921194076538, 1.1026395559310913, 2.8303730487823486, -0.8760195970535278, 0.5281655788421631, -0.43310546875, 0.13232421875, 0.21728515625, 0, 
431, 2303613012, -90.88634490966797, -75.58841705322266, -40.726776123046875, 7.867605209350586, -2.7138705253601074, 0.07318609952926636, 4.52544641494751, -2.7782351970672607, 0.5540871024131775, -0.43115234375, 0.13232421875, 0.1982421875, 0, 
432, 2303621345, -90.93621826171875, -75.58971405029297, -40.66264343261719, 10.451006889343262, -2.1080615520477295, 0.2776716649532318, 4.521603584289551, -3.4755308628082275, 0.9057704210281372, -0.4326171875, 0.13232421875, 0.19677734375, 0, 
433, 2303629678, -90.93873596191406, -75.58454132080078, -40.66686248779297, 11.745389938354492, -1.8007299900054932, -0.821370005607605, 2.2713935375213623, -1.4453473091125488, 1.7095197439193726, -0.4306640625, 0.13330078125, 0.20361328125, 0, 
434, 2303638011, -90.91058349609375, -75.57662963867188, -40.7078971862793, 10.486361503601074, -2.0698604583740234, -0.0551476813852787, 1.608932614326477, -0.4336361885070801, 2.0661466121673584, -0.43310546875, 0.1298828125, 0.21533203125, 0, 
435, 2303646344, -90.89818572998047, -75.57899475097656, -40.731956481933594, 8.17890739440918, -3.2545785903930664, 0.5263171792030334, 1.7583403587341309, -0.8373421430587769, 0.8160439133644104, -0.4345703125, 0.13134765625, 0.22216796875, 0, 
436, 2303654677, -90.8823471069336, -75.58378601074219, -40.74190902709961, 7.424047470092773, -3.0998291969299316, 0.5047744512557983, 4.059165000915527, -1.4187597036361694, 0.5295487642288208, -0.43017578125, 0.1337890625, 0.20263671875, 0, 
437, 2303663010, -90.94672393798828, -75.58699035644531, -40.662193298339844, 9.536613464355469, -2.276503086090088, 0.636776864528656, 4.600803375244141, -3.938816547393799, 0.6621279716491699, -0.4287109375, 0.1328125, 0.19384765625, 0, 
438, 2303671343, -90.95929718017578, -75.58628845214844, -40.645748138427734, 11.540700912475586, -1.666310429573059, -0.9587132334709167, 3.4601759910583496, -2.157487154006958, 1.183095932006836, -0.4296875, 0.130859375, 0.20263671875, 0, 
439, 2303679676, -90.94278717041016, -75.57760620117188, -40.674705505371094, 11.1443510055542, -2.007582426071167, 0.24067693948745728, 1.6738390922546387, -0.7139328122138977, 2.145678997039795, -0.4306640625, 0.1337890625, 0.2060546875, 0, 
440, 2303688009, -90.93051147460938, -75.57637023925781, -40.70298767089844, 8.968758583068848, -2.9631152153015137, -0.41694027185440063, 1.194622278213501, -0.7985621690750122, 1.2518188953399658, -0.42724609375, 0.12890625, 0.2197265625, 0, 
441, 2303696342, -90.88785552978516, -75.5816879272461, -40.73784255981445, 7.450658798217773, -3.2468440532684326, 1.1481225490570068, 4.078579902648926, -0.5966963768005371, 0.48813048005104065, -0.42626953125, 0.13720703125, 0.2041015625, 0, 
442, 2303704675, -90.96418762207031, -75.58578491210938, -40.64848327636719, 8.61076545715332, -2.452183485031128, 0.626302182674408, 4.291102409362793, -4.225823879241943, 0.5523966550827026, -0.4248046875, 0.1357421875, 0.185546875, 0, 
443, 2303713008, -90.98666381835938, -75.58702087402344, -40.614017486572266, 11.109959602355957, -2.03719162940979, -0.725667417049408, 4.370607852935791, -2.5901241302490234, 0.9173994064331055, -0.42822265625, 0.13330078125, 0.1884765625, 0, 
444, 2303721341, -90.96382141113281, -75.5805435180664, -40.651126861572266, 11.56081771850586, -1.82278311252594, -0.36349955201148987, 1.4852285385131836, -0.5643840432167053, 1.8931350708007812, -0.4267578125, 0.13330078125, 0.19189453125, 0, 
445, 2303729674, -90.9444580078125, -75.57545471191406, -40.68557357788086, 9.665481567382812, -2.5196447372436523, -0.07934223860502243, 1.3830406665802002, -0.5409342050552368, 1.7153596878051758, -0.4287109375, 0.13134765625, 0.201171875, 0, 
446, 2303738007, -90.91963958740234, -75.58084869384766, -40.71437454223633, 7.65957498550415, -3.2841784954071045, 0.8409443497657776, 2.661677837371826, -0.7830144166946411, 0.4739658236503601, -0.42578125, 0.1328125, 0.1953125, 0, 
447, 2303746340, -90.93376922607422, -75.58585357666016, -40.685943603515625, 7.7764506340026855, -2.7523646354675293, 0.3115459084510803, 4.623804569244385, -2.4916629791259766, 0.4872083365917206, -0.4248046875, 0.134765625, 0.17041015625, 0, 
448, 2303754673, -90.9907455444336, -75.58695220947266, -40.61516571044922, 10.42050838470459, -2.161224603652954, 0.3373580276966095, 4.449038982391357, -3.6747844219207764, 0.9169129133224487, -0.42138671875, 0.1298828125, 0.16943359375, 0, 
449, 2303763006, -90.9873046875, -75.58417510986328, -40.62210464477539, 11.92308521270752, -1.7627216577529907, -0.8626127243041992, 2.6635472774505615, -1.357951283454895, 1.4262516498565674, -0.421875, 0.1298828125, 0.17333984375, 0, 
450, 2303771339, -90.96714782714844, -75.57711791992188, -40.65618896484375, 10.610003471374512, -2.121525287628174, 0.0932062566280365, 1.4752264022827148, -0.6472846269607544, 1.960616111755371, -0.421875, 0.12353515625, 0.18212890625, 0, 
451, 2303779672, -90.95723724365234, -75.57965087890625, -40.67670440673828, 8.257875442504883, -3.228851318359375, 0.10267091542482376, 1.8647929430007935, -0.9422323703765869, 0.7954244017601013, -0.421875, 0.12548828125, 0.1875, 0, 
452, 2303788005, -90.9365005493164, -75.58472442626953, -40.68963623046875, 7.308374881744385, -3.0558950901031494, 0.7985551357269287, 4.012085914611816, -1.254777431488037, 0.49576351046562195, -0.42529296875, 0.12353515625, 0.1767578125, 0, 
453, 2303796338, -90.99662017822266, -75.58794403076172, -40.6137580871582, 9.429008483886719, -2.2202224731445312, 0.3193991482257843, 4.624931812286377, -3.917454242706299, 0.680288553237915, -0.4267578125, 0.1259765625, 0.16748046875, 0, 
454, 2303804671, -91.02104949951172, -75.58776092529297, -40.583377838134766, 11.584541320800781, -1.8027993440628052, -0.641304075717926, 3.6561248302459717, -2.469353437423706, 1.0942401885986328, -0.4228515625, 0.1240234375, 0.173828125, 0, 
455, 2303813004, -91.01070404052734, -75.57951354980469, -40.606689453125, 11.380525588989258, -2.0261049270629883, -0.15646778047084808, 1.5878136157989502, -0.8806942105293274, 2.0905954837799072, -0.42431640625, 0.12109375, 0.17626953125, 0, 
456, 2303821337, -90.98101043701172, -75.57809448242188, -40.6501350402832, 9.109431266784668, -2.8007936477661133, -0.19269271194934845, 1.5571917295455933, -0.35979029536247253, 1.2890362739562988, -0.42041015625, 0.11474609375, 0.18310546875, 0, 
457, 2303829670, -90.95027923583984, -75.58451843261719, -40.67778778076172, 7.409702777862549, -3.1999731063842773, 1.0195828676223755, 3.532177686691284, -0.7182103991508484, 0.32834890484809875, -0.42041015625, 0.12060546875, 0.1708984375, 0, 
458, 2303838003, -91.00151824951172, -75.58843231201172, -40.610557556152344, 8.40034008026123, -2.545536994934082, 0.5506057143211365, 4.6871232986450195, -3.6546263694763184, 0.5997829437255859, -0.4208984375, 0.12255859375, 0.14892578125, 0, 
459, 2303846336, -91.03557586669922, -75.58951568603516, -40.56595230102539, 11.106588363647461, -1.996650218963623, -0.5582655668258667, 4.103669166564941, -2.979985475540161, 0.9469965696334839, -0.4208984375, 0.12060546875, 0.15283203125, 0, 
460, 2303854669, -91.01661682128906, -75.58304595947266, -40.595611572265625, 11.761433601379395, -1.7361618280410767, -0.48046112060546875, 1.896272897720337, -0.6921862959861755, 1.8751670122146606, -0.41943359375, 0.1181640625, 0.154296875, 0, 
461, 2303863002, -90.99072265625, -75.57658386230469, -40.63542938232422, 9.957664489746094, -2.403369903564453, -0.12018335610628128, 1.537904143333435, -0.3837140202522278, 1.8833378553390503, -0.42236328125, 0.11181640625, 0.1669921875, 0, 
462, 2303871335, -90.9640121459961, -75.58094024658203, -40.66756820678711, 7.7438740730285645, -3.3479127883911133, 0.7527214884757996, 2.490882158279419, -0.6826834678649902, 0.5970165729522705, -0.42041015625, 0.11376953125, 0.16552734375, 0, 
463, 2303879668, -90.9750747680664, -75.58502960205078, -40.642513275146484, 7.5388503074646, -2.8521745204925537, 0.4609839916229248, 4.642887592315674, -2.3023228645324707, 0.5858488082885742, -0.421875, 0.1201171875, 0.140625, 0, 
464, 2303888001, -91.02243041992188, -75.58769226074219, -40.579383850097656, 10.179067611694336, -2.1329867839813232, 0.19194646179676056, 4.675879001617432, -3.5341880321502686, 0.7495750188827515, -0.41943359375, 0.119140625, 0.14501953125, 0, 
465, 2303896334, -91.01812744140625, -75.58511352539062, -40.58540344238281, 11.829516410827637, -1.7389118671417236, -0.775972843170166, 2.8396711349487305, -1.478236198425293, 1.4093722105026245, -0.4189453125, 0.115234375, 0.14892578125, 0, 
466, 2303904667, -90.99880981445312, -75.57749938964844, -40.61753845214844, 10.748013496398926, -2.0494563579559326, -0.12652067840099335, 1.6444082260131836, -0.6170340776443481, 2.0173258781433105, -0.42236328125, 0.1123046875, 0.15771484375, 0, 
467, 2303913000, -90.97434997558594, -75.57856750488281, -40.654178619384766, 8.38582706451416, -3.1857595443725586, 0.06432992219924927, 1.7362865209579468, -0.4629644751548767, 0.9776184558868408, -0.41943359375, 0.11181640625, 0.17138671875, 0, 
468, 2303921333, -90.94268798828125, -75.58422088623047, -40.68032455444336, 7.25004243850708, -3.0728399753570557, 0.8394788503646851, 3.78529691696167, -0.8578846454620361, 0.4383619427680969, -0.41650390625, 0.119140625, 0.15478515625, 0, 
469, 2303929666, -90.99604797363281, -75.58639526367188, -40.611961364746094, 9.201903343200684, -2.301652193069458, 0.27814459800720215, 4.5985236167907715, -3.599837064743042, 0.7926837205886841, -0.416015625, 0.12109375, 0.14501953125, 0, 
470, 2303937999, -91.01103210449219, -75.58585357666016, -40.590965270996094, 11.541077613830566, -1.9322727918624878, -0.3581692576408386, 3.6697006225585938, -2.2841882705688477, 1.1541517972946167, -0.41552734375, 0.1171875, 0.15380859375, 0, 
471, 2303946332, -90.98828887939453, -75.57896423339844, -40.62544631958008, 11.448572158813477, -1.9556467533111572, -0.307769238948822, 1.7489655017852783, -0.636629045009613, 1.944581389427185, -0.416015625, 0.1181640625, 0.158203125, 0, 
472, 2303954665, -90.96180725097656, -75.57579803466797, -40.66352844238281, 9.208532333374023, -2.7287790775299072, -0.08856599777936935, 1.8132829666137695, -0.4287695288658142, 1.4885457754135132, -0.41650390625, 0.11474609375, 0.17333984375, 0, 
473, 2303962998, -90.92758178710938, -75.58170318603516, -40.69676208496094, 7.331260681152344, -3.2039120197296143, 0.9541576504707336, 3.299318790435791, -0.5556624531745911, 0.3960217237472534, -0.41357421875, 0.12060546875, 0.1630859375, 0, 
474, 2303971331, -90.96383666992188, -75.58582305908203, -40.645870208740234, 8.18698787689209, -2.5601816177368164, 0.4702530801296234, 4.59837007522583, -3.1674692630767822, 0.5786768198013306, -0.412109375, 0.12548828125, 0.14501953125, 0, 
475, 2303979664, -91.00737762451172, -75.58734893798828, -40.58903121948242, 10.89636516571045, -2.189669609069824, -0.2903909385204315, 4.440022945404053, -3.2570934295654297, 0.8763911128044128, -0.41259765625, 0.12451171875, 0.14892578125, 0, 
476, 2303987997, -90.98845672607422, -75.58262634277344, -40.61811065673828, 11.752938270568848, -1.7703906297683716, -0.43168142437934875, 1.9129221439361572, -0.7947712540626526, 1.6792691946029663, -0.41162109375, 0.12353515625, 0.15673828125, 0, 
477, 2303996330, -90.95660400390625, -75.57620239257812, -40.66505432128906, 10.244487762451172, -2.1953771114349365, -0.12058477103710175, 1.3875999450683594, -0.2620464563369751, 1.8994747400283813, -0.41259765625, 0.1220703125, 0.169921875, 0, 
478, 2304004663, -90.93663787841797, -75.58050537109375, -40.692440032958984, 7.943747043609619, -3.279871940612793, 0.7496211528778076, 2.2724695205688477, -0.7330152988433838, 0.5857463479042053, -0.41162109375, 0.12255859375, 0.17236328125, 0, 
479, 2304012996, -90.9349365234375, -75.58519744873047, -40.68491744995117, 7.40645694732666, -3.0223379135131836, 0.5537497997283936, 4.137211322784424, -1.7761296033859253, 0.5222230553627014, -0.4140625, 0.12890625, 0.1513671875, 0, 
480, 2304021329, -90.97888946533203, -75.58851623535156, -40.62259292602539, 9.917938232421875, -2.240351915359497, 0.3464236855506897, 4.9925737380981445, -3.5099833011627197, 0.6716309189796448, -0.412109375, 0.13037109375, 0.150390625, 0, 
481, 2304029662, -90.98995208740234, -75.58684539794922, -40.612037658691406, 11.7335786819458, -1.6032265424728394, -0.8031456470489502, 2.9587767124176025, -1.8803024291992188, 1.283913493156433, -0.416015625, 0.1279296875, 0.15380859375, 0, 
482, 2304037995, -90.96574401855469, -75.57799530029297, -40.64736557006836, 10.958332061767578, -2.027299165725708, 0.1803043782711029, 1.8271403312683105, -0.6187246441841125, 2.1786186695098877, -0.41845703125, 0.12744140625, 0.15869140625, 0, 
483, 2304046328, -90.93875885009766, -75.57894134521484, -40.6899528503418, 8.722355842590332, -3.093257427215576, -0.11172159761190414, 1.3265355825424194, -0.378130167722702, 1.0072797536849976, -0.4208984375, 0.12890625, 0.16943359375, 0, 
484, 2304054661, -90.90410614013672, -75.58451843261719, -40.71538543701172, 7.382159233093262, -3.1962904930114746, 0.9846150875091553, 4.253679275512695, -0.7888800501823425, 0.4325476288795471, -0.41845703125, 0.1318359375, 0.14697265625, 0, 
485, 2304062994, -90.97421264648438, -75.58821868896484, -40.62971878051758, 8.914373397827148, -2.295170545578003, 0.6141241788864136, 4.6101274490356445, -4.11678409576416, 0.6019089818000793, -0.42333984375, 0.13330078125, 0.1328125, 0, 
486, 2304071327, -90.99536895751953, -75.58952331542969, -40.598262786865234, 11.293194770812988, -2.042492151260376, -0.6815205812454224, 4.132626533508301, -2.5927627086639404, 0.9297455549240112, -0.42529296875, 0.130859375, 0.1376953125, 0, 
487, 2304079660, -90.979248046875, -75.58335876464844, -40.627052307128906, 11.452945709228516, -1.839503526687622, -0.3015606999397278, 1.6478662490844727, -0.7133949398994446, 1.8432772159576416, -0.4326171875, 0.12646484375, 0.13818359375, 0, 
488, 2304087993, -90.96038055419922, -75.58000183105469, -40.66032028198242, 9.439169883728027, -2.6203057765960693, -0.07745357602834702, 1.4299144744873047, -0.6661621928215027, 1.518872857093811, -0.4296875, 0.1220703125, 0.15185546875, 0, 
489, 2304096326, -90.92072296142578, -75.58557891845703, -40.70035934448242, 7.4777679443359375, -3.1726837158203125, 0.8733913898468018, 3.1681735515594482, -0.3523366153240204, 0.4379521608352661, -0.431640625, 0.12451171875, 0.14697265625, 0, 
490, 2304104659, -90.95270538330078, -75.5904769897461, -40.6546745300293, 8.014172554016113, -2.6615378856658936, 0.4465562701225281, 4.507593154907227, -3.011913776397705, 0.48467257618904114, -0.4326171875, 0.12890625, 0.1240234375, 0, 
