sep=,
PacketCounter,SampleTimeFine,Euler_X,Euler_Y,Euler_Z,Acc_X,Acc_Y,Acc_Z,Gyr_X,Gyr_Y,Gyr_Z,Mag_X,Mag_Y,Mag_Z,Status,
0, 2167149617, -93.67835235595703, 32.633792877197266, 56.69060516357422, 0, 0, 0, 0, 0, 0, -0.4765625, 0.56494140625, -0.43310546875, 0, 
1, 2167157950, -93.6795654296875, 32.63613510131836, 56.67798614501953, -5.237727165222168, -8.070616722106934, -0.5023536086082458, 1.503119945526123, -1.084801197052002, 0.2508145868778229, -0.47509765625, 0.56396484375, -0.43359375, 0, 
2, 2167166283, -93.67887115478516, 32.6380615234375, 56.67947769165039, -5.403285980224609, -8.383975982666016, -0.5389240980148315, 1.7033464908599854, -1.1297284364700317, 0.1987152248620987, -0.47802734375, 0.5654296875, -0.43017578125, 0, 
3, 2167174616, -93.6790771484375, 32.6375617980957, 56.67771530151367, -5.554821968078613, -8.23003101348877, -0.57649827003479, 1.6846483945846558, -0.9787071943283081, -0.07329513132572174, -0.4775390625, 0.564453125, -0.43212890625, 0, 
4, 2167182949, -93.67930603027344, 32.633872985839844, 56.67916488647461, -5.2287750244140625, -8.009737014770508, -0.5395119190216064, 1.4739198684692383, -1.2769591808319092, -0.47618141770362854, -0.4765625, 0.5634765625, -0.435546875, 0, 
5, 2167191282, -93.67919158935547, 32.63243865966797, 56.680152893066406, -4.857630729675293, -8.076271057128906, -0.48263511061668396, 1.505604863166809, -1.2993718385696411, -0.21742644906044006, -0.474609375, 0.564453125, -0.4365234375, 0, 
6, 2167199615, -93.68046569824219, 32.633460998535156, 56.67742919921875, -5.030932426452637, -8.123271942138672, -0.5162447094917297, 1.6185890436172485, -0.8928993940353394, 0.11462370306253433, -0.4775390625, 0.56787109375, -0.43310546875, 0, 
7, 2167207948, -93.68061065673828, 32.636802673339844, 56.65583038330078, -5.50499963760376, -8.161626815795898, -0.49405935406684875, 1.6239681243896484, -1.1064709424972534, 0.36899861693382263, -0.474609375, 0.56494140625, -0.4375, 0, 
8, 2167216281, -93.68049621582031, 32.63652420043945, 56.67281723022461, -5.4595537185668945, -8.31772518157959, -0.5227963924407959, 1.6055772304534912, -1.1541132926940918, -0.0690687820315361, -0.4736328125, 0.56298828125, -0.43896484375, 0, 
9, 2167224614, -93.67970275878906, 32.63351058959961, 56.673805236816406, -5.195093154907227, -8.078362464904785, -0.5922611951828003, 1.624685287475586, -1.2352080345153809, -0.3929607570171356, -0.4755859375, 0.5634765625, -0.43701171875, 0, 
10, 2167232947, -93.67972564697266, 32.631980895996094, 56.674678802490234, -4.9989776611328125, -7.918586730957031, -0.5274583697319031, 1.5380579233169556, -1.2369496822357178, -0.21445517241954803, -0.47412109375, 0.564453125, -0.4365234375, 0, 
11, 2167241280, -93.68119812011719, 32.63254928588867, 56.649837493896484, -4.963362693786621, -8.093811988830566, -0.507364809513092, 1.471973180770874, -1.0680750608444214, 0.03757608309388161, -0.47705078125, 0.56396484375, -0.431640625, 0, 
12, 2167249613, -93.68060302734375, 32.63475036621094, 56.6492805480957, -5.338735580444336, -8.273836135864258, -0.41100940108299255, 1.7009131908416748, -1.1220698356628418, 0.24154222011566162, -0.47705078125, 0.564453125, -0.431640625, 0, 
13, 2167257946, -93.67989349365234, 32.63613510131836, 56.6446533203125, -5.57095193862915, -8.299022674560547, -0.53228759765625, 1.7430486679077148, -1.0658724308013916, 0.13829125463962555, -0.47509765625, 0.5634765625, -0.4306640625, 0, 
14, 2167266279, -93.67861938476562, 32.63401412963867, 56.64651107788086, -5.416172981262207, -8.189984321594238, -0.5692389607429504, 1.5568586587905884, -1.4251375198364258, -0.307101845741272, -0.4755859375, 0.56640625, -0.4296875, 0, 
15, 2167274612, -93.67962646484375, 32.631900787353516, 56.647029876708984, -4.943805694580078, -8.02174186706543, -0.5054053068161011, 1.4401092529296875, -1.1974526643753052, -0.28248655796051025, -0.47509765625, 0.56591796875, -0.43115234375, 0, 
16, 2167282945, -93.68096923828125, 32.63222122192383, 56.64679718017578, -4.900536060333252, -7.917268753051758, -0.49826040863990784, 1.4468200206756592, -1.1385142803192139, 0.01244851853698492, -0.47607421875, 0.56591796875, -0.43798828125, 0, 
17, 2167291278, -93.68135070800781, 32.63521194458008, 56.640750885009766, -5.235206604003906, -8.158598899841309, -0.49480757117271423, 1.660058617591858, -1.0074462890625, 0.3353159427642822, -0.4736328125, 0.5654296875, -0.4375, 0, 
18, 2167299611, -93.67943572998047, 32.63707733154297, 56.64162826538086, -5.508170127868652, -8.375845909118652, -0.519903302192688, 1.7683812379837036, -1.2619494199752808, 0.1917225569486618, -0.47607421875, 0.56298828125, -0.43115234375, 0, 
19, 2167307944, -93.67838287353516, 32.63593673706055, 56.60591125488281, -5.569079875946045, -8.225146293640137, -0.4879837930202484, 1.7131824493408203, -1.1539597511291504, -0.17150011658668518, -0.47509765625, 0.56591796875, -0.435546875, 0, 
20, 2167316277, -93.67771911621094, 32.6325569152832, 56.609100341796875, -5.161776065826416, -8.063103675842285, -0.5174995064735413, 1.6082665920257568, -1.233850359916687, -0.44531625509262085, -0.47509765625, 0.56591796875, -0.42919921875, 0, 
21, 2167324610, -93.67728424072266, 32.63093566894531, 56.60905075073242, -4.8419647216796875, -8.01015853881836, -0.5359374284744263, 1.6496846675872803, -1.1428686380386353, -0.22106364369392395, -0.4755859375, 0.5654296875, -0.43310546875, 0, 
22, 2167332943, -93.67719268798828, 32.6330451965332, 56.607547760009766, -5.056612968444824, -8.015687942504883, -0.565156877040863, 1.7011181116104126, -1.0251967906951904, 0.2371109277009964, -0.47607421875, 0.56640625, -0.435546875, 0, 
23, 2167341276, -93.67729187011719, 32.635337829589844, 56.611183166503906, -5.4106011390686035, -8.247937202453613, -0.47160160541534424, 1.5843429565429688, -1.1744766235351562, 0.23931379616260529, -0.4765625, 0.5654296875, -0.431640625, 0, 
24, 2167349609, -93.67707061767578, 32.63572692871094, 56.6103515625, -5.515793800354004, -8.368386268615723, -0.5622764229774475, 1.6735572814941406, -1.0807286500930786, 0.026792488992214203, -0.47509765625, 0.56396484375, -0.43212890625, 0, 
25, 2167357942, -93.67599487304688, 32.63374710083008, 56.61570358276367, -5.368266582489014, -8.07957935333252, -0.5226073265075684, 1.654961347579956, -1.245428204536438, -0.27838829159736633, -0.47607421875, 0.56591796875, -0.43115234375, 0, 
26, 2167366275, -93.67514038085938, 32.63176345825195, 56.6170654296875, -4.97358512878418, -8.008271217346191, -0.5188695788383484, 1.5992504358291626, -1.2943000793457031, -0.2824097275733948, -0.474609375, 0.5625, -0.43359375, 0, 
27, 2167374608, -93.67544555664062, 32.632713317871094, 56.617637634277344, -4.8873291015625, -8.105441093444824, -0.4680054485797882, 1.517848253250122, -1.2271651029586792, 0.08368170261383057, -0.47509765625, 0.56640625, -0.43310546875, 0, 
28, 2167382941, -93.67662048339844, 32.635345458984375, 56.61563491821289, -5.346017360687256, -8.151765823364258, -0.5068918466567993, 1.5848039388656616, -0.9774519205093384, 0.3010697364807129, -0.47607421875, 0.56494140625, -0.431640625, 0, 
29, 2167391274, -93.67630767822266, 32.636898040771484, 56.62184524536133, -5.498291492462158, -8.285008430480957, -0.5539600849151611, 1.6567798852920532, -1.1236836910247803, 0.15588822960853577, -0.47509765625, 0.56591796875, -0.4267578125, 0, 
30, 2167399607, -93.67536926269531, 32.635135650634766, 56.62222671508789, -5.350951194763184, -8.180256843566895, -0.4839874804019928, 1.681933045387268, -1.1853113174438477, -0.24076099693775177, -0.474609375, 0.56494140625, -0.42919921875, 0, 
31, 2167407940, -93.6759262084961, 32.632835388183594, 56.60258865356445, -5.039613723754883, -7.958061218261719, -0.5152668356895447, 1.4738174676895142, -1.2100292444229126, -0.3166816234588623, -0.47607421875, 0.5654296875, -0.4306640625, 0, 
32, 2167416273, -93.67631530761719, 32.63302993774414, 56.60137939453125, -4.946200370788574, -7.9908342361450195, -0.47571849822998047, 1.5153383016586304, -1.2030366659164429, -0.012282026931643486, -0.4755859375, 0.564453125, -0.435546875, 0, 
33, 2167424606, -93.67623901367188, 32.636329650878906, 56.60124206542969, -5.210544109344482, -8.23327350616455, -0.4433542490005493, 1.6119294166564941, -1.1733241081237793, 0.3710990250110626, -0.4765625, 0.564453125, -0.4296875, 0, 
34, 2167432939, -93.67559814453125, 32.637943267822266, 56.60029602050781, -5.544482707977295, -8.307909965515137, -0.49365103244781494, 1.7326748371124268, -1.077296257019043, 0.17284484207630157, -0.47509765625, 0.56640625, -0.435546875, 0, 
35, 2167441272, -93.6744613647461, 32.63698196411133, 56.59400177001953, -5.5140862464904785, -8.230341911315918, -0.5532124638557434, 1.6209713220596313, -1.3133316040039062, -0.15951266884803772, -0.47607421875, 0.564453125, -0.43115234375, 0, 
36, 2167449605, -93.67316436767578, 32.634376525878906, 56.596275329589844, -4.995480537414551, -8.100547790527344, -0.5100301504135132, 1.603451132774353, -1.3703231811523438, -0.3533099591732025, -0.474609375, 0.56396484375, -0.431640625, 0, 
37, 2167457938, -93.67416381835938, 32.6336555480957, 56.595314025878906, -4.862504005432129, -7.915289878845215, -0.5273951888084412, 1.537084698677063, -1.0580856800079346, -0.11525125056505203, -0.47607421875, 0.56298828125, -0.42578125, 0, 
38, 2167466271, -93.67483520507812, 32.63541030883789, 56.55421829223633, -5.094554901123047, -8.01691722869873, -0.5344276428222656, 1.531423807144165, -1.1320081949234009, 0.17876173555850983, -0.47314453125, 0.564453125, -0.431640625, 0, 
39, 2167474604, -93.67479705810547, 32.63848114013672, 56.55359649658203, -5.428242206573486, -8.32958698272705, -0.46207860112190247, 1.6391572952270508, -1.121122121810913, 0.346355676651001, -0.47705078125, 0.56396484375, -0.42626953125, 0, 
40, 2167482937, -93.67469024658203, 32.63883972167969, 56.55229187011719, -5.570374011993408, -8.344433784484863, -0.5180246829986572, 1.692486047744751, -1.0307295322418213, 0.024000538513064384, -0.47509765625, 0.56396484375, -0.42724609375, 0, 
41, 2167491270, -93.67312622070312, 32.635765075683594, 56.57168197631836, -5.426762580871582, -8.04902172088623, -0.50018709897995, 1.6756319999694824, -1.2945561408996582, -0.4118896722793579, -0.474609375, 0.5654296875, -0.4296875, 0, 
42, 2167499603, -93.67362976074219, 32.6330680847168, 56.572994232177734, -4.915624141693115, -8.040861129760742, -0.5453624725341797, 1.44874107837677, -1.2716569900512695, -0.35687029361724854, -0.474609375, 0.564453125, -0.42578125, 0, 
43, 2167507936, -93.67425537109375, 32.633689880371094, 56.56418991088867, -4.848536968231201, -8.046161651611328, -0.5823853611946106, 1.6223033666610718, -1.0043725967407227, 0.050050217658281326, -0.4755859375, 0.56396484375, -0.42626953125, 0, 
44, 2167516269, -93.6749496459961, 32.636634826660156, 56.57217788696289, -5.301926612854004, -8.103572845458984, -0.48821404576301575, 1.6301155090332031, -0.9868781566619873, 0.3312176764011383, -0.4765625, 0.5654296875, -0.42529296875, 0, 
45, 2167524602, -93.67475891113281, 32.63800811767578, 56.57246398925781, -5.457424640655518, -8.343016624450684, -0.49250251054763794, 1.5990710258483887, -1.1985796689987183, 0.13680562376976013, -0.47607421875, 0.56396484375, -0.42431640625, 0, 
46, 2167532935, -93.67447662353516, 32.63739776611328, 56.57184982299805, -5.455291748046875, -8.194443702697754, -0.49800267815589905, 1.6692026853561401, -1.0939198732376099, -0.09588687866926193, -0.4755859375, 0.56591796875, -0.42529296875, 0, 
47, 2167541268, -93.67391967773438, 32.63525390625, 56.605628967285156, -5.149720191955566, -7.98853874206543, -0.5855650305747986, 1.6371337175369263, -1.175117015838623, -0.29168209433555603, -0.4755859375, 0.5654296875, -0.42333984375, 0, 
48, 2167549601, -93.6755142211914, 32.634273529052734, 56.60581970214844, -4.885764122009277, -8.074173927307129, -0.49670225381851196, 1.3919031620025635, -1.17171049118042, -0.14416973292827606, -0.47412109375, 0.56640625, -0.42626953125, 0, 
49, 2167557934, -93.6758041381836, 32.63618087768555, 56.60452651977539, -5.1731414794921875, -8.18198013305664, -0.43660804629325867, 1.642845869064331, -1.039669156074524, 0.20265984535217285, -0.47509765625, 0.5634765625, -0.4267578125, 0, 
50, 2167566267, -93.67488861083984, 32.637977600097656, 56.604061126708984, -5.587619304656982, -8.208905220031738, -0.5118197202682495, 1.732469916343689, -1.1244263648986816, 0.18214282393455505, -0.4755859375, 0.56494140625, -0.4287109375, 0, 
51, 2167574600, -93.67506408691406, 32.63612365722656, 56.60484313964844, -5.474579334259033, -8.27991008758545, -0.611318051815033, 1.5225356817245483, -1.2252953052520752, -0.2530045807361603, -0.4765625, 0.564453125, -0.421875, 0, 
52, 2167582933, -93.67388916015625, 32.63302993774414, 56.60602569580078, -5.037132263183594, -8.071399688720703, -0.5378751158714294, 1.6600843667984009, -1.253061294555664, -0.40307843685150146, -0.47607421875, 0.56396484375, -0.42431640625, 0, 
53, 2167591266, -93.67372131347656, 32.632808685302734, 56.60678482055664, -4.953444957733154, -7.873863220214844, -0.49085724353790283, 1.5608289241790771, -1.2350287437438965, -0.06719894707202911, -0.474609375, 0.56396484375, -0.42138671875, 0, 
54, 2167599599, -93.67530059814453, 32.63432312011719, 56.6058235168457, -5.077060222625732, -8.09375, -0.5208997130393982, 1.4682334661483765, -1.073659062385559, 0.16165143251419067, -0.47607421875, 0.5654296875, -0.423828125, 0, 
55, 2167607932, -93.67574310302734, 32.636558532714844, 56.604454040527344, -5.427693843841553, -8.35585880279541, -0.48397311568260193, 1.6262987852096558, -1.037491798400879, 0.24192644655704498, -0.4736328125, 0.5654296875, -0.427734375, 0, 
56, 2167616265, -93.67579650878906, 32.63701248168945, 56.60365295410156, -5.623137474060059, -8.303356170654297, -0.49532070755958557, 1.636519193649292, -1.0806775093078613, 0.026049677282571793, -0.4755859375, 0.564453125, -0.4208984375, 0, 
57, 2167624598, -93.67435455322266, 32.63446807861328, 56.606754302978516, -5.33611536026001, -8.092938423156738, -0.5030257105827332, 1.5688718557357788, -1.4507774114608765, -0.3509534001350403, -0.47412109375, 0.56494140625, -0.4267578125, 0, 
58, 2167632931, -93.675048828125, 32.63222885131836, 56.607810974121094, -4.86196231842041, -7.999472618103027, -0.5463330149650574, 1.4426707029342651, -1.2508584260940552, -0.30228644609451294, -0.47509765625, 0.564453125, -0.41943359375, 0, 
59, 2167641264, -93.67581176757812, 32.63356399536133, 56.60751724243164, -4.864761829376221, -7.977842807769775, -0.5246714949607849, 1.5199487209320068, -1.136465311050415, 0.12978734076023102, -0.4765625, 0.56494140625, -0.4208984375, 0, 
60, 2167649597, -93.67615509033203, 32.636592864990234, 56.606178283691406, -5.3307976722717285, -8.16098403930664, -0.48269492387771606, 1.6416419744491577, -1.0470972061157227, 0.3455360531806946, -0.4765625, 0.56494140625, -0.42822265625, 0, 
61, 2167657930, -93.67569732666016, 32.63922882080078, 56.605224609375, -5.507136344909668, -8.386320114135742, -0.5225548148155212, 1.7097501754760742, -1.0823677778244019, 0.2864183485507965, -0.4755859375, 0.56689453125, -0.4189453125, 0, 
62, 2167666263, -93.67486572265625, 32.63778305053711, 56.60612869262695, -5.524775981903076, -8.181196212768555, -0.5102194547653198, 1.6295264959335327, -1.2375901937484741, -0.21427586674690247, -0.47607421875, 0.5654296875, -0.42041015625, 0, 
63, 2167674596, -93.67461395263672, 32.635658264160156, 56.608150482177734, -5.096914291381836, -8.036579132080078, -0.5074394941329956, 1.494027018547058, -1.346886157989502, -0.2936544120311737, -0.47412109375, 0.56591796875, -0.419921875, 0, 
64, 2167682929, -93.67481231689453, 32.634700775146484, 56.608299255371094, -4.841246128082275, -7.990288257598877, -0.5262997150421143, 1.5613924264907837, -1.1666898727416992, -0.14145460724830627, -0.4736328125, 0.564453125, -0.4169921875, 0, 
65, 2167691262, -93.67561340332031, 32.6380729675293, 56.60657501220703, -5.141739845275879, -8.066385269165039, -0.4990798234939575, 1.6084715127944946, -1.0103663206100464, 0.38098615407943726, -0.47509765625, 0.56640625, -0.41943359375, 0, 
66, 2167699595, -93.67598724365234, 32.64046859741211, 56.60601806640625, -5.444167613983154, -8.250804901123047, -0.5284357070922852, 1.5831902027130127, -1.1233762502670288, 0.26428765058517456, -0.47607421875, 0.56591796875, -0.41748046875, 0, 
67, 2167707928, -93.67667388916016, 32.64036178588867, 56.60532760620117, -5.512033462524414, -8.301410675048828, -0.5738179683685303, 1.5573710203170776, -1.0844424962997437, -0.04191769286990166, -0.47509765625, 0.56591796875, -0.42333984375, 0, 
68, 2167716261, -93.67591094970703, 32.63764953613281, 56.606689453125, -5.26040506362915, -8.039466857910156, -0.5812557935714722, 1.596381664276123, -1.2754480838775635, -0.3671928644180298, -0.47607421875, 0.56494140625, -0.41455078125, 0, 
69, 2167724594, -93.67681121826172, 32.63562774658203, 56.607276916503906, -4.9441914558410645, -7.995350360870361, -0.4757606089115143, 1.4466663599014282, -1.2038817405700684, -0.2737521231174469, -0.47509765625, 0.56640625, -0.41455078125, 0, 
70, 2167732927, -93.67781066894531, 32.63721466064453, 56.60665512084961, -4.968069553375244, -8.142104148864746, -0.4810251295566559, 1.5165674686431885, -1.109339714050293, 0.1687977910041809, -0.4765625, 0.5654296875, -0.41748046875, 0, 
71, 2167741260, -93.67776489257812, 32.640533447265625, 56.6053581237793, -5.469719886779785, -8.182095527648926, -0.4558524489402771, 1.6794484853744507, -1.051758885383606, 0.37207233905792236, -0.47509765625, 0.56396484375, -0.41259765625, 0, 
72, 2167749593, -93.67713928222656, 32.64041519165039, 56.60601806640625, -5.538215637207031, -8.243070602416992, -0.5906052589416504, 1.6275798082351685, -1.2258589267730713, -0.045964743942022324, -0.47314453125, 0.56591796875, -0.4140625, 0, 
73, 2167757926, -93.67572784423828, 32.63778305053711, 56.60773849487305, -5.212699890136719, -8.184440612792969, -0.5530999898910522, 1.6497873067855835, -1.3093101978302002, -0.3598671853542328, -0.47509765625, 0.5634765625, -0.41259765625, 0, 
74, 2167766259, -93.67677307128906, 32.636016845703125, 56.60912322998047, -4.957114219665527, -7.943282604217529, -0.5020313858985901, 1.3781993389129639, -1.2822612524032593, -0.25507932901382446, -0.4755859375, 0.5654296875, -0.412109375, 0, 
75, 2167774592, -93.67804718017578, 32.636558532714844, 56.6087760925293, -4.986739158630371, -7.99351692199707, -0.5466747879981995, 1.4617531299591064, -1.1315984725952148, 0.04067540541291237, -0.47509765625, 0.5654296875, -0.41015625, 0, 
76, 2167782925, -93.67798614501953, 32.63882827758789, 56.60885238647461, -5.28421688079834, -8.298380851745605, -0.43947479128837585, 1.598225712776184, -1.183954119682312, 0.24625524878501892, -0.47509765625, 0.5654296875, -0.40966796875, 0, 
77, 2167791258, -93.67752838134766, 32.64052963256836, 56.60798645019531, -5.54205846786499, -8.356602668762207, -0.569276750087738, 1.6871839761734009, -1.1083662509918213, 0.17302414774894714, -0.47607421875, 0.564453125, -0.40869140625, 0, 
78, 2167799591, -93.6755599975586, 32.638938903808594, 56.61054611206055, -5.526210308074951, -8.154763221740723, -0.5350419282913208, 1.66566801071167, -1.4046717882156372, -0.23256444931030273, -0.47607421875, 0.56591796875, -0.40869140625, 0, 
79, 2167807924, -93.6760025024414, 32.635704040527344, 56.611148834228516, -4.995841026306152, -8.01852035522461, -0.49868813157081604, 1.500712275505066, -1.1955316066741943, -0.4249529540538788, -0.47509765625, 0.5634765625, -0.4072265625, 0, 
80, 2167816257, -93.6756591796875, 32.635372161865234, 56.611839294433594, -4.836822032928467, -7.93255090713501, -0.49800747632980347, 1.5910537242889404, -1.2232460975646973, -0.079416923224926, -0.47119140625, 0.564453125, -0.404296875, 0, 
81, 2167824590, -93.67705535888672, 32.638545989990234, 56.609981536865234, -5.188209533691406, -8.08593463897705, -0.4942556619644165, 1.5450761318206787, -0.998045802116394, 0.36684706807136536, -0.47314453125, 0.56396484375, -0.4091796875, 0, 
82, 2167832923, -93.67743682861328, 32.64127731323242, 56.60960388183594, -5.483706474304199, -8.344239234924316, -0.5169801712036133, 1.5738922357559204, -1.1432015895843506, 0.3027346432209015, -0.47119140625, 0.56396484375, -0.40283203125, 0, 
83, 2167841256, -93.67748260498047, 32.64113235473633, 56.60882568359375, -5.5398406982421875, -8.29674243927002, -0.4733719527721405, 1.641257643699646, -1.0714818239212036, -0.04581105709075928, -0.47216796875, 0.5654296875, -0.40283203125, 0, 
84, 2167849589, -93.67707061767578, 32.63821029663086, 56.610843658447266, -5.261138439178467, -8.034810066223145, -0.5044927597045898, 1.5130072832107544, -1.342121958732605, -0.3882734179496765, -0.47216796875, 0.5654296875, -0.40576171875, 0, 
85, 2167857922, -93.67755889892578, 32.63624954223633, 56.61106872558594, -4.854304313659668, -8.052467346191406, -0.527622401714325, 1.5178227424621582, -1.1675095558166504, -0.2722921073436737, -0.47119140625, 0.5625, -0.4033203125, 0, 
86, 2167866255, -93.67898559570312, 32.63809585571289, 56.609256744384766, -4.942426681518555, -8.083514213562012, -0.5663542747497559, 1.5382628440856934, -0.9912068843841553, 0.19912505149841309, -0.470703125, 0.56396484375, -0.4013671875, 0, 
87, 2167874588, -93.67877197265625, 32.641231536865234, 56.60768127441406, -5.450789451599121, -8.15873908996582, -0.463387131690979, 1.7213789224624634, -1.026503324508667, 0.36016175150871277, -0.47119140625, 0.56396484375, -0.3974609375, 0, 
88, 2167882921, -93.678955078125, 32.64104461669922, 56.607120513916016, -5.5342488288879395, -8.329365730285645, -0.594697117805481, 1.6102644205093384, -1.0999648571014404, -0.04511947184801102, -0.46923828125, 0.5615234375, -0.3984375, 0, 
89, 2167891254, -93.67859649658203, 32.638973236083984, 56.60859298706055, -5.323129653930664, -8.17204761505127, -0.5014682412147522, 1.5367259979248047, -1.2926863431930542, -0.2925017476081848, -0.46826171875, 0.56103515625, -0.39794921875, 0, 
90, 2167899587, -93.67866516113281, 32.636810302734375, 56.6093864440918, -4.99733829498291, -7.961105823516846, -0.5207365155220032, 1.5370333194732666, -1.2228107452392578, -0.2902988791465759, -0.46923828125, 0.56103515625, -0.40087890625, 0, 
91, 2167907920, -93.67872619628906, 32.637664794921875, 56.61002731323242, -4.928690433502197, -8.035347938537598, -0.48074063658714294, 1.5439491271972656, -1.2298802137374878, 0.06482962518930435, -0.4697265625, 0.5615234375, -0.392578125, 0, 
92, 2167916253, -93.679443359375, 32.640567779541016, 56.608463287353516, -5.295226573944092, -8.217169761657715, -0.49025779962539673, 1.608087182044983, -1.02040696144104, 0.32548007369041443, -0.4677734375, 0.56005859375, -0.3935546875, 0, 
93, 2167924586, -93.67878723144531, 32.64150619506836, 56.608299255371094, -5.538491249084473, -8.286883354187012, -0.5891698598861694, 1.6854934692382812, -1.1497845649719238, 0.08734454959630966, -0.46630859375, 0.56103515625, -0.39453125, 0, 
94, 2167932919, -93.67827606201172, 32.639259338378906, 56.60990524291992, -5.390609264373779, -8.144448280334473, -0.48940402269363403, 1.5515308380126953, -1.3050323724746704, -0.3061029016971588, -0.4638671875, 0.56005859375, -0.388671875, 0, 
95, 2167941252, -93.67890167236328, 32.63705062866211, 56.60995864868164, -5.027242183685303, -8.000718116760254, -0.529137372970581, 1.51400625705719, -1.1456352472305298, -0.2993151545524597, -0.46435546875, 0.5576171875, -0.38525390625, 0, 
96, 2167949585, -93.68048858642578, 32.63587188720703, 56.60916519165039, -4.906400680541992, -7.980014324188232, -0.521632194519043, 1.4570403099060059, -1.070508599281311, -0.1632523387670517, -0.46337890625, 0.55810546875, -0.3857421875, 0, 
97, 2167957918, -93.68211364746094, 32.63833236694336, 56.60757827758789, -5.189743995666504, -8.194499015808105, -0.5149192810058594, 1.4977668523788452, -1.019024133682251, 0.2702302038669586, -0.4599609375, 0.55712890625, -0.38427734375, 0, 
98, 2167966251, -93.68212127685547, 32.64082717895508, 56.60709762573242, -5.4785308837890625, -8.332422256469727, -0.4560295343399048, 1.6216883659362793, -1.1273207664489746, 0.26733577251434326, -0.46240234375, 0.55517578125, -0.38330078125, 0, 
99, 2167974584, -93.68222045898438, 32.63945770263672, 56.60670471191406, -5.530846118927002, -8.216512680053711, -0.560961902141571, 1.6078054904937744, -1.108186960220337, -0.1864844262599945, -0.45947265625, 0.556640625, -0.380859375, 0, 
100, 2167982917, -93.68147277832031, 32.63649368286133, 56.60911560058594, -5.092963695526123, -8.060599327087402, -0.5616836547851562, 1.5276587009429932, -1.3811581134796143, -0.3957015573978424, -0.4560546875, 0.55322265625, -0.3876953125, 0, 
101, 2167991250, -93.68099975585938, 32.636409759521484, 56.610347747802734, -4.86312198638916, -7.964784622192383, -0.5264185667037964, 1.570562481880188, -1.2801356315612793, -0.05226585268974304, -0.455078125, 0.55322265625, -0.38037109375, 0, 
102, 2167999583, -93.68199157714844, 32.63813018798828, 56.609474182128906, -5.082741737365723, -8.01262378692627, -0.5435347557067871, 1.5328069925308228, -1.0846986770629883, 0.18524211645126343, -0.4541015625, 0.5517578125, -0.38037109375, 0, 
103, 2168007916, -93.68177032470703, 32.64102554321289, 56.60902404785156, -5.48837947845459, -8.278692245483398, -0.4322930872440338, 1.6470720767974854, -1.135901689529419, 0.31636136770248413, -0.4541015625, 0.55126953125, -0.3876953125, 0, 
104, 2168016249, -93.6810302734375, 32.642826080322266, 56.60883331298828, -5.519003868103027, -8.384902000427246, -0.5193132162094116, 1.693203330039978, -1.1513726711273193, 0.18234772980213165, -0.45263671875, 0.54931640625, -0.380859375, 0, 
105, 2168024582, -93.67909240722656, 32.64114761352539, 56.611331939697266, -5.389682769775391, -8.06148910522461, -0.511244535446167, 1.6658986806869507, -1.3999075889587402, -0.24250274896621704, -0.453125, 0.55126953125, -0.3828125, 0, 
106, 2168032915, -93.67961120605469, 32.639381408691406, 56.6124382019043, -4.972967624664307, -7.983197212219238, -0.5312912464141846, 1.460856556892395, -1.2558274269104004, -0.24467997252941132, -0.45263671875, 0.5478515625, -0.38623046875, 0, 
107, 2168041248, -93.67980194091797, 32.6392936706543, 56.61113739013672, -4.8145976066589355, -8.094988822937012, -0.5872554183006287, 1.6535526514053345, -1.0277327299118042, -0.03687169402837753, -0.45068359375, 0.5498046875, -0.39013671875, 0, 
108, 2168049581, -93.67898559570312, 32.641448974609375, 56.610652923583984, -5.3031392097473145, -8.129178047180176, -0.5056170225143433, 1.7251698970794678, -1.126910924911499, 0.2341909408569336, -0.4501953125, 0.5498046875, -0.392578125, 0, 
109, 2168057914, -93.67781066894531, 32.644004821777344, 56.61115646362305, -5.520620822906494, -8.28164291381836, -0.5248011946678162, 1.699735164642334, -1.2269859313964844, 0.26992282271385193, -0.45166015625, 0.54736328125, -0.38818359375, 0, 
110, 2168066247, -93.67859649658203, 32.64371109008789, 56.61164855957031, -5.417862415313721, -8.237581253051758, -0.5217947363853455, 1.4653903245925903, -1.2044708728790283, -0.07065686583518982, -0.451171875, 0.5478515625, -0.39697265625, 0, 
111, 2168074580, -93.67762756347656, 32.64124298095703, 56.61286544799805, -5.100139617919922, -7.990019798278809, -0.5634563565254211, 1.6333173513412476, -1.2652790546417236, -0.33071818947792053, -0.44970703125, 0.54736328125, -0.3935546875, 0, 
112, 2168082913, -93.67754364013672, 32.64082717895508, 56.613746643066406, -4.9762468338012695, -8.007454872131348, -0.5182340145111084, 1.5489695072174072, -1.2434301376342773, -0.08126115798950195, -0.45263671875, 0.54541015625, -0.3974609375, 0, 
113, 2168091246, -93.67644500732422, 32.643436431884766, 56.61400604248047, -5.19223165512085, -8.173372268676758, -0.41625452041625977, 1.7040895223617554, -1.2080570459365845, 0.27550676465034485, -0.451171875, 0.54541015625, -0.40576171875, 0, 
114, 2168099579, -93.67518615722656, 32.645477294921875, 56.61325454711914, -5.5059075355529785, -8.282198905944824, -0.5183635354042053, 1.7954552173614502, -1.1001441478729248, 0.22358664870262146, -0.45166015625, 0.5478515625, -0.4052734375, 0, 
115, 2168107912, -93.67334747314453, 32.643795013427734, 56.614322662353516, -5.5184550285339355, -8.200331687927246, -0.5623739957809448, 1.7434583902359009, -1.2495263814926147, -0.24327120184898376, -0.453125, 0.5439453125, -0.408203125, 0, 
116, 2168116245, -93.67233276367188, 32.64118194580078, 56.616092681884766, -5.087644100189209, -8.076882362365723, -0.5417170524597168, 1.599557638168335, -1.3145865201950073, -0.3572545051574707, -0.45458984375, 0.54541015625, -0.41259765625, 0, 
117, 2168124578, -93.67153930664062, 32.640438079833984, 56.61765670776367, -4.937375068664551, -7.96314001083374, -0.5067493319511414, 1.5910537242889404, -1.310744285583496, -0.12534326314926147, -0.45849609375, 0.5478515625, -0.4189453125, 0, 
118, 2168132911, -93.67183685302734, 32.641937255859375, 56.61714553833008, -5.12671422958374, -8.108648300170898, -0.5122194290161133, 1.591207504272461, -1.1185864210128784, 0.15829597413539886, -0.4599609375, 0.54736328125, -0.421875, 0, 
119, 2168141244, -93.67107391357422, 32.64476776123047, 56.616790771484375, -5.406524181365967, -8.366573333740234, -0.4375329315662384, 1.7042944431304932, -1.1448923349380493, 0.30591079592704773, -0.46240234375, 0.54736328125, -0.43017578125, 0, 
120, 2168149577, -93.66983032226562, 32.64466094970703, 56.61598205566406, -5.515193939208984, -8.280595779418945, -0.48686614632606506, 1.795276165008545, -1.0770403146743774, -0.0337979830801487, -0.46337890625, 0.55029296875, -0.435546875, 0, 
121, 2168157910, -93.66822052001953, 32.6436653137207, 56.61775588989258, -5.3544464111328125, -8.042916297912598, -0.49877023696899414, 1.6738646030426025, -1.3287770748138428, -0.1623045951128006, -0.4638671875, 0.548828125, -0.43310546875, 0, 
122, 2168166243, -93.66748809814453, 32.64188003540039, 56.6196403503418, -4.932044982910156, -8.020426750183105, -0.5184386372566223, 1.5576272010803223, -1.3317736387252808, -0.26007410883903503, -0.466796875, 0.55078125, -0.43798828125, 0, 
123, 2168174576, -93.66850280761719, 32.642852783203125, 56.61763381958008, -4.952356815338135, -8.083380699157715, -0.5280627012252808, 1.6012226343154907, -0.9676417708396912, 0.10325098037719727, -0.46923828125, 0.5517578125, -0.44091796875, 0, 
124, 2168182909, -93.6678237915039, 32.64602279663086, 56.617774963378906, -5.3893232345581055, -8.138001441955566, -0.4430150091648102, 1.6662827730178833, -1.1984261274337769, 0.352016419172287, -0.4716796875, 0.55126953125, -0.4453125, 0, 
125, 2168191242, -93.66708374023438, 32.64701843261719, 56.617950439453125, -5.509922981262207, -8.310187339782715, -0.5388843417167664, 1.670714020729065, -1.1823402643203735, 0.08457820117473602, -0.47216796875, 0.55126953125, -0.45458984375, 0, 
126, 2168199575, -93.66597747802734, 32.645286560058594, 56.618961334228516, -5.427783012390137, -8.231849670410156, -0.4630626440048218, 1.6617237329483032, -1.2486300468444824, -0.2392497956752777, -0.47314453125, 0.552734375, -0.45654296875, 0, 
127, 2168207908, -93.66527557373047, 32.643699645996094, 56.61918640136719, -5.079268455505371, -8.019495010375977, -0.48531049489974976, 1.6604939699172974, -1.166894793510437, -0.22646823525428772, -0.4755859375, 0.55419921875, -0.455078125, 0, 
128, 2168216241, -93.66416931152344, 32.642852783203125, 56.620479583740234, -4.9177374839782715, -8.001053810119629, -0.5366510152816772, 1.6413601636886597, -1.2796744108200073, -0.1425303965806961, -0.47705078125, 0.5537109375, -0.45654296875, 0, 
129, 2168224574, -93.6640396118164, 32.64497375488281, 56.61968231201172, -5.144104957580566, -8.112211227416992, -0.4646230638027191, 1.6615185737609863, -1.0978645086288452, 0.23301267623901367, -0.4814453125, 0.5546875, -0.46044921875, 0, 
130, 2168232907, -93.66322326660156, 32.6471061706543, 56.619815826416016, -5.402370929718018, -8.194441795349121, -0.5135080814361572, 1.6854678392410278, -1.1885132789611816, 0.22858145833015442, -0.482421875, 0.55517578125, -0.4609375, 0, 
131, 2168241240, -93.66314697265625, 32.64789581298828, 56.620365142822266, -5.451855659484863, -8.192512512207031, -0.5312134027481079, 1.5662590265274048, -1.220274806022644, 0.05727342516183853, -0.48291015625, 0.556640625, -0.46435546875, 0, 
132, 2168249573, -93.66242980957031, 32.64583969116211, 56.62158203125, -5.221155643463135, -8.114399909973145, -0.520422637462616, 1.6012482643127441, -1.2665342092514038, -0.2796946167945862, -0.484375, 0.5576171875, -0.466796875, 0, 
133, 2168257906, -93.66307830810547, 32.64414978027344, 56.622196197509766, -4.987867832183838, -8.05532455444336, -0.4569287896156311, 1.4746626615524292, -1.2044196128845215, -0.23950590193271637, -0.48486328125, 0.5576171875, -0.47021484375, 0, 
134, 2168266239, -93.66327667236328, 32.64535140991211, 56.62137222290039, -5.079764366149902, -8.157034873962402, -0.5023784041404724, 1.620356559753418, -1.0850318670272827, 0.1141626387834549, -0.48828125, 0.56005859375, -0.46728515625, 0, 
135, 2168274572, -93.6624755859375, 32.64799880981445, 56.6204948425293, -5.3781819343566895, -8.17326831817627, -0.49125373363494873, 1.74750554561615, -1.090590000152588, 0.29776546359062195, -0.4873046875, 0.56005859375, -0.46630859375, 0, 
136, 2168282905, -93.6620101928711, 32.64862060546875, 56.620723724365234, -5.420508861541748, -8.136914253234863, -0.5688683390617371, 1.635520100593567, -1.1895378828048706, 0.046310536563396454, -0.48876953125, 0.5615234375, -0.46728515625, 0, 
137, 2168291238, -93.66056823730469, 32.64766311645508, 56.62375259399414, -5.229747772216797, -8.079522132873535, -0.46185606718063354, 1.5699477195739746, -1.452954649925232, -0.16760674118995667, -0.490234375, 0.560546875, -0.46826171875, 0, 
138, 2168299571, -93.66170501708984, 32.645912170410156, 56.62297821044922, -4.981265068054199, -8.096653938293457, -0.4795387387275696, 1.5082685947418213, -1.0704059600830078, -0.2321033775806427, -0.4912109375, 0.5625, -0.47412109375, 0, 
139, 2168307904, -93.66217803955078, 32.64725112915039, 56.622169494628906, -5.069464683532715, -8.092185974121094, -0.5692999958992004, 1.5857774019241333, -1.0834693908691406, 0.13345016539096832, -0.4931640625, 0.56640625, -0.47021484375, 0, 
140, 2168316237, -93.66258239746094, 32.64963912963867, 56.62229537963867, -5.3087477684021, -8.226187705993652, -0.4543907940387726, 1.5341901779174805, -1.1895122528076172, 0.25201845169067383, -0.49267578125, 0.56396484375, -0.46923828125, 0, 
141, 2168324570, -93.66312408447266, 32.6517219543457, 56.621620178222656, -5.420449256896973, -8.316451072692871, -0.5128433108329773, 1.5752241611480713, -1.107188105583191, 0.22735194861888885, -0.4921875, 0.56201171875, -0.4697265625, 0, 
142, 2168332903, -93.66290283203125, 32.64946746826172, 56.62290573120117, -5.425415992736816, -8.051050186157227, -0.5169058442115784, 1.536751627922058, -1.2719389200210571, -0.3035670816898346, -0.49365234375, 0.56494140625, -0.4677734375, 0, 
143, 2168341236, -93.66277313232422, 32.64697265625, 56.623905181884766, -5.010612487792969, -8.015470504760742, -0.5107498168945312, 1.5438467264175415, -1.2405102252960205, -0.3385305404663086, -0.4921875, 0.56591796875, -0.4736328125, 0, 
144, 2168349569, -93.66307830810547, 32.64597702026367, 56.62419128417969, -4.891410827636719, -8.060503005981445, -0.4740886688232422, 1.5396203994750977, -1.180009365081787, -0.1479606330394745, -0.494140625, 0.5654296875, -0.46630859375, 0, 
145, 2168357902, -93.66488647460938, 32.64929962158203, 56.62154769897461, -5.218611717224121, -8.120055198669434, -0.5179630517959595, 1.5458958148956299, -0.9146459102630615, 0.38147279620170593, -0.49462890625, 0.5673828125, -0.46728515625, 0, 
146, 2168366235, -93.66529083251953, 32.649688720703125, 56.62179946899414, -5.527980327606201, -8.27382755279541, -0.5060427784919739, 1.528427004814148, -1.1862335205078125, 0.012550975196063519, -0.49560546875, 0.5673828125, -0.4658203125, 0, 
147, 2168374568, -93.66571807861328, 32.64818572998047, 56.621273040771484, -5.463111877441406, -8.226054191589355, -0.44158580899238586, 1.57676100730896, -1.0965838432312012, -0.20233964920043945, -0.494140625, 0.56689453125, -0.46337890625, 0, 
148, 2168382901, -93.66626739501953, 32.64571762084961, 56.621315002441406, -5.174430847167969, -8.060382843017578, -0.4986824095249176, 1.5269415378570557, -1.1442009210586548, -0.32185569405555725, -0.49365234375, 0.56640625, -0.46337890625, 0, 
149, 2168391234, -93.66753387451172, 32.64421081542969, 56.62177276611328, -4.9194231033325195, -7.99969482421875, -0.5000230669975281, 1.4064264297485352, -1.1917662620544434, -0.21957804262638092, -0.4951171875, 0.56884765625, -0.4619140625, 0, 
150, 2168399567, -93.66934204101562, 32.646766662597656, 56.620113372802734, -5.032423496246338, -8.114599227905273, -0.5577266216278076, 1.485241413116455, -1.0121848583221436, 0.29200229048728943, -0.49169921875, 0.5654296875, -0.466796875, 0, 
151, 2168407900, -93.6700668334961, 32.64883041381836, 56.6195182800293, -5.4317474365234375, -8.188414573669434, -0.46284058690071106, 1.544179916381836, -1.1121317148208618, 0.21856625378131866, -0.4931640625, 0.56787109375, -0.458984375, 0, 
152, 2168416233, -93.67311096191406, 32.649173736572266, 56.61775588989258, -5.526021957397461, -8.24594783782959, -0.54023277759552, 1.3409563302993774, -0.982036828994751, 0.018672775477170944, -0.49072265625, 0.5693359375, -0.46240234375, 0, 
153, 2168424566, -93.67371368408203, 32.64617919921875, 56.61963653564453, -5.291103839874268, -8.133687973022461, -0.5118786096572876, 1.3995361328125, -1.3266252279281616, -0.39644429087638855, -0.4931640625, 0.56884765625, -0.45751953125, 0, 
154, 2168432899, -93.6740951538086, 32.64432144165039, 56.62051773071289, -4.9793853759765625, -8.038511276245117, -0.5544202327728271, 1.492746353149414, -1.2333894968032837, -0.2536705732345581, -0.4912109375, 0.5673828125, -0.453125, 0, 
155, 2168441232, -93.67583465576172, 32.64450454711914, 56.620059967041016, -5.026880741119385, -8.040923118591309, -0.5566037893295288, 1.414443850517273, -1.1117987632751465, -0.008030063472688198, -0.4912109375, 0.56640625, -0.45361328125, 0, 
156, 2168449565, -93.6763916015625, 32.64686584472656, 56.618492126464844, -5.304482936859131, -8.209179878234863, -0.485392302274704, 1.6279127597808838, -1.0206120014190674, 0.2660294771194458, -0.48828125, 0.57177734375, -0.45361328125, 0, 
157, 2168457898, -93.67743682861328, 32.648555755615234, 56.617347717285156, -5.457242012023926, -8.26143741607666, -0.6083236336708069, 1.5387495756149292, -1.0520918369293213, 0.17627714574337006, -0.49072265625, 0.568359375, -0.45263671875, 0, 
158, 2168466231, -93.67752075195312, 32.646575927734375, 56.618682861328125, -5.432684898376465, -8.086950302124023, -0.5239872336387634, 1.496383547782898, -1.2783936262130737, -0.27851635217666626, -0.490234375, 0.56884765625, -0.4521484375, 0, 
159, 2168474564, -93.67921447753906, 32.64360809326172, 56.61912536621094, -5.0236287117004395, -8.051751136779785, -0.5138171315193176, 1.3622419834136963, -1.1809059381484985, -0.38350915908813477, -0.48974609375, 0.56884765625, -0.45361328125, 0, 
160, 2168482897, -93.68144226074219, 32.642913818359375, 56.61814498901367, -4.970654010772705, -8.068597793579102, -0.5426280498504639, 1.3924154043197632, -1.0563181638717651, -0.10387852787971497, -0.4892578125, 0.568359375, -0.4501953125, 0, 
161, 2168491230, -93.68165588378906, 32.644798278808594, 56.61708450317383, -5.253523826599121, -8.150537490844727, -0.5218424201011658, 1.6318061351776123, -1.0666152238845825, 0.1990482360124588, -0.48779296875, 0.56982421875, -0.44873046875, 0, 
162, 2168499563, -93.68291473388672, 32.64631652832031, 56.6161994934082, -5.455987453460693, -8.302051544189453, -0.4847969114780426, 1.499585509300232, -1.0823167562484741, 0.16047319769859314, -0.4892578125, 0.5703125, -0.44873046875, 0, 
163, 2168507896, -93.68276977539062, 32.644569396972656, 56.61641311645508, -5.4241557121276855, -8.211485862731934, -0.5669800043106079, 1.5978161096572876, -1.1646665334701538, -0.2436298131942749, -0.48876953125, 0.568359375, -0.44580078125, 0, 
164, 2168516229, -93.68238067626953, 32.64212417602539, 56.61775207519531, -5.126552581787109, -8.05484390258789, -0.605922520160675, 1.55194091796875, -1.2728354930877686, -0.334560364484787, -0.48876953125, 0.56640625, -0.44921875, 0, 
165, 2168524562, -93.68270874023438, 32.64132308959961, 56.61820602416992, -4.916237831115723, -8.062474250793457, -0.5303082466125488, 1.5258142948150635, -1.201089859008789, -0.1251639574766159, -0.4853515625, 0.56787109375, -0.4501953125, 0, 
166, 2168532895, -93.6836166381836, 32.643592834472656, 56.61732864379883, -5.087671279907227, -8.123156547546387, -0.5474123358726501, 1.542899250984192, -1.0897449254989624, 0.25068655610084534, -0.4873046875, 0.5673828125, -0.44482421875, 0, 
167, 2168541228, -93.683837890625, 32.64628219604492, 56.616790771484375, -5.493383884429932, -8.204694747924805, -0.47864049673080444, 1.60232412815094, -1.1210709810256958, 0.2930268347263336, -0.48583984375, 0.56982421875, -0.44091796875, 0, 
168, 2168549561, -93.68334197998047, 32.6463508605957, 56.616294860839844, -5.5071234703063965, -8.28879451751709, -0.5480636358261108, 1.6867231130599976, -1.1120038032531738, -0.013870108872652054, -0.48291015625, 0.56787109375, -0.4423828125, 0, 
169, 2168557894, -93.68130493164062, 32.64468002319336, 56.61806106567383, -5.294958114624023, -8.10176944732666, -0.5642103552818298, 1.721788763999939, -1.3185311555862427, -0.24334803223609924, -0.48583984375, 0.568359375, -0.4404296875, 0, 
170, 2168566227, -93.68048095703125, 32.64289093017578, 56.61925506591797, -4.971508979797363, -8.036321640014648, -0.555134654045105, 1.6107511520385742, -1.2646644115447998, -0.2574358582496643, -0.48486328125, 0.5693359375, -0.44091796875, 0, 
171, 2168574560, -93.67961883544922, 32.64332962036133, 56.61994934082031, -4.919394016265869, -8.102875709533691, -0.5548961162567139, 1.6540648937225342, -1.233466386795044, 0.02248929627239704, -0.48291015625, 0.5703125, -0.44482421875, 0, 
172, 2168582893, -93.67839813232422, 32.64628982543945, 56.620174407958984, -5.286457538604736, -8.185867309570312, -0.46946510672569275, 1.7273728847503662, -1.2058286666870117, 0.32658150792121887, -0.48291015625, 0.56884765625, -0.4443359375, 0, 
173, 2168591226, -93.67708587646484, 32.648841857910156, 56.620574951171875, -5.456879615783691, -8.251020431518555, -0.5416051149368286, 1.7221473455429077, -1.2194552421569824, 0.2701020836830139, -0.482421875, 0.56884765625, -0.4453125, 0, 
174, 2168599559, -93.67591857910156, 32.647804260253906, 56.621429443359375, -5.42294454574585, -8.170472145080566, -0.5511445999145508, 1.6786032915115356, -1.239050269126892, -0.15579858422279358, -0.484375, 0.56884765625, -0.43798828125, 0, 
175, 2168607892, -93.67415618896484, 32.64542770385742, 56.622901916503906, -5.064072608947754, -8.050694465637207, -0.5497454404830933, 1.7077778577804565, -1.2873841524124146, -0.32738834619522095, -0.48388671875, 0.56689453125, -0.4443359375, 0, 
176, 2168616225, -93.67259979248047, 32.64569854736328, 56.623897552490234, -4.968088150024414, -8.0482177734375, -0.5068441033363342, 1.715999960899353, -1.2578765153884888, -0.007056721020489931, -0.4814453125, 0.5673828125, -0.43505859375, 0, 
177, 2168624558, -93.67129516601562, 32.648406982421875, 56.624698638916016, -5.25261926651001, -8.162689208984375, -0.4395691156387329, 1.6995046138763428, -1.2613602876663208, 0.2936672270298004, -0.48486328125, 0.56982421875, -0.43798828125, 0, 
178, 2168632891, -93.66960144042969, 32.651126861572266, 56.62523651123047, -5.467345714569092, -8.268365859985352, -0.5465212464332581, 1.7643852233886719, -1.233696699142456, 0.2952040433883667, -0.4833984375, 0.56982421875, -0.43896484375, 0, 
179, 2168641224, -93.66897583007812, 32.64966583251953, 56.62522888183594, -5.4755425453186035, -8.201667785644531, -0.5907302498817444, 1.6361860036849976, -1.1881290674209595, -0.21030566096305847, -0.48095703125, 0.56591796875, -0.44384765625, 0, 
180, 2168649557, -93.66624450683594, 32.647377014160156, 56.62766647338867, -5.09446382522583, -8.023282051086426, -0.48882856965065, 1.7658196687698364, -1.3877663612365723, -0.31670719385147095, -0.4814453125, 0.56884765625, -0.43798828125, 0, 
181, 2168657890, -93.66597747802734, 32.64698791503906, 56.629661560058594, -4.937883377075195, -7.98918342590332, -0.4574721157550812, 1.5636978149414062, -1.2506022453308105, -0.08423241227865219, -0.48291015625, 0.56640625, -0.435546875, 0, 
182, 2168666223, -93.66587829589844, 32.64970397949219, 56.630699157714844, -5.137848377227783, -8.108125686645508, -0.4825211465358734, 1.6250437498092651, -1.1459934711456299, 0.2934366464614868, -0.48291015625, 0.56787109375, -0.435546875, 0, 
183, 2168674556, -93.66552734375, 32.653072357177734, 56.63029861450195, -5.435690879821777, -8.268970489501953, -0.4309634864330292, 1.6622360944747925, -1.1437909603118896, 0.3792700171470642, -0.48291015625, 0.568359375, -0.439453125, 0, 
184, 2168682889, -93.66425323486328, 32.65364074707031, 56.629486083984375, -5.50978422164917, -8.297947883605957, -0.4876009225845337, 1.8008086681365967, -1.0830594301223755, 0.04784739390015602, -0.482421875, 0.56884765625, -0.44482421875, 0, 
185, 2168691222, -93.66376495361328, 32.651885986328125, 56.63077163696289, -5.334146499633789, -8.0632905960083, -0.5658893585205078, 1.542412281036377, -1.3143303394317627, -0.2556172311306, -0.484375, 0.57080078125, -0.44091796875, 0, 
186, 2168699555, -93.66364288330078, 32.65073013305664, 56.63243865966797, -4.944944381713867, -7.968369483947754, -0.5116842985153198, 1.5024542808532715, -1.3176090717315674, -0.17577768862247467, -0.482421875, 0.568359375, -0.43896484375, 0, 
187, 2168707888, -93.66450500488281, 32.652488708496094, 56.63088607788086, -4.860559463500977, -8.089614868164062, -0.4941645562648773, 1.5929235219955444, -1.0125690698623657, 0.18890495598316193, -0.48193359375, 0.56689453125, -0.44384765625, 0, 
188, 2168716221, -93.66497802734375, 32.65607452392578, 56.6297607421875, -5.366933345794678, -8.167510986328125, -0.4624052047729492, 1.632472038269043, -1.0324201583862305, 0.4050634801387787, -0.48291015625, 0.56591796875, -0.4365234375, 0, 
189, 2168724554, -93.6649169921875, 32.65699768066406, 56.6291389465332, -5.56372594833374, -8.27488899230957, -0.5156472325325012, 1.643332600593567, -1.1018092632293701, 0.08977789431810379, -0.482421875, 0.5693359375, -0.43798828125, 0, 
190, 2168732887, -93.66452026367188, 32.654605865478516, 56.63082504272461, -5.4347310066223145, -8.221321105957031, -0.4720316231250763, 1.5336012840270996, -1.3108214139938354, -0.3228546380996704, -0.48388671875, 0.5673828125, -0.435546875, 0, 
191, 2168741220, -93.66532897949219, 32.65196228027344, 56.62824630737305, -5.052185535430908, -8.036784172058105, -0.5036055445671082, 1.5440516471862793, -1.0592894554138184, -0.3459586501121521, -0.48095703125, 0.5673828125, -0.44384765625, 0, 
192, 2168749553, -93.6659164428711, 32.651729583740234, 56.628761291503906, -4.959169387817383, -7.943117141723633, -0.5464420914649963, 1.4909535646438599, -1.2112587690353394, -0.05562131479382515, -0.4833984375, 0.56787109375, -0.435546875, 0, 
193, 2168757886, -93.66658020019531, 32.65320587158203, 56.62417221069336, -5.131749153137207, -8.144902229309082, -0.46594083309173584, 1.5494052171707153, -1.1081103086471558, 0.14659027755260468, -0.4814453125, 0.56787109375, -0.435546875, 0, 
194, 2168766219, -93.6665267944336, 32.655269622802734, 56.61628723144531, -5.403244972229004, -8.296481132507324, -0.4985523819923401, 1.6681525707244873, -1.0645148754119873, 0.22151190042495728, -0.48193359375, 0.568359375, -0.4375, 0, 
195, 2168774552, -93.66583251953125, 32.65469741821289, 56.616790771484375, -5.555181503295898, -8.18332576751709, -0.516269862651825, 1.6442033052444458, -1.2058029174804688, -0.09709075093269348, -0.48193359375, 0.568359375, -0.4384765625, 0, 
196, 2168782885, -93.66555786132812, 32.65193176269531, 56.61914825439453, -5.167532920837402, -8.101458549499512, -0.5706858038902283, 1.4763020277023315, -1.3747800588607788, -0.3731866180896759, -0.48046875, 0.56640625, -0.43994140625, 0, 
197, 2168791218, -93.66585540771484, 32.65053939819336, 56.61940002441406, -4.848993301391602, -8.03438949584961, -0.49535372853279114, 1.5194364786148071, -1.202268123626709, -0.20318493247032166, -0.48193359375, 0.5673828125, -0.4365234375, 0, 
198, 2168799551, -93.66725158691406, 32.65206527709961, 56.616912841796875, -5.047717571258545, -8.035369873046875, -0.4871058464050293, 1.5882618427276611, -0.9207932949066162, 0.1723325550556183, -0.48193359375, 0.56640625, -0.43212890625, 0, 
199, 2168807884, -93.66716003417969, 32.654197692871094, 56.61766052246094, -5.437808513641357, -8.225547790527344, -0.4912276268005371, 1.5925906896591187, -1.1911002397537231, 0.22107645869255066, -0.482421875, 0.568359375, -0.4365234375, 0, 
200, 2168816217, -93.66627502441406, 32.65406036376953, 56.61827087402344, -5.456121444702148, -8.284403800964355, -0.5901621580123901, 1.7111845016479492, -1.13487708568573, -0.049115292727947235, -0.48046875, 0.56640625, -0.43408203125, 0, 
201, 2168824550, -93.66560363769531, 32.65138626098633, 56.619529724121094, -5.30298376083374, -8.087728500366211, -0.5147384405136108, 1.5948446989059448, -1.2639472484588623, -0.3543089032173157, -0.4794921875, 0.5654296875, -0.43701171875, 0, 
202, 2168832883, -93.6657485961914, 32.65009689331055, 56.620601654052734, -4.980362892150879, -7.973445892333984, -0.5040585994720459, 1.5077306032180786, -1.2577228546142578, -0.18727846443653107, -0.47998046875, 0.56982421875, -0.4345703125, 0, 
203, 2168841216, -93.66633605957031, 32.650325775146484, 56.63136672973633, -4.91410493850708, -8.077753067016602, -0.5465603470802307, 1.5567563772201538, -1.1016043424606323, -0.002087560249492526, -0.4814453125, 0.5673828125, -0.4345703125, 0, 
204, 2168849549, -93.66624450683594, 32.6529655456543, 56.63020706176758, -5.321276664733887, -8.206483840942383, -0.46614646911621094, 1.6801401376724243, -1.0639512538909912, 0.2975349426269531, -0.47900390625, 0.5673828125, -0.43408203125, 0, 
205, 2168857882, -93.66748809814453, 32.65447998046875, 56.63578414916992, -5.510190010070801, -8.365347862243652, -0.5105159282684326, 1.4944881200790405, -1.0923830270767212, 0.153634175658226, -0.47705078125, 0.56787109375, -0.43359375, 0, 
206, 2168866215, -93.66747283935547, 32.65354919433594, 56.640647888183594, -5.440090656280518, -8.179450988769531, -0.5094717144966125, 1.5649528503417969, -1.1963768005371094, -0.14637254178524017, -0.4794921875, 0.56884765625, -0.43603515625, 0, 
207, 2168874548, -93.66768646240234, 32.65044403076172, 56.64161682128906, -5.054816722869873, -7.978121757507324, -0.5639693737030029, 1.506142497062683, -1.233978509902954, -0.40338578820228577, -0.4794921875, 0.5673828125, -0.43310546875, 0, 
208, 2168882881, -93.66888427734375, 32.64990997314453, 56.6416015625, -4.850301265716553, -7.984282970428467, -0.4833069145679474, 1.4522502422332764, -1.154932975769043, -0.0912507176399231, -0.48095703125, 0.56591796875, -0.43701171875, 0, 
209, 2168891214, -93.67033386230469, 32.65239715576172, 56.636146545410156, -5.159563064575195, -8.132582664489746, -0.4672834277153015, 1.564799189567566, -0.9486103057861328, 0.278990238904953, -0.47998046875, 0.568359375, -0.43603515625, 0, 
210, 2168899547, -93.67103576660156, 32.65416717529297, 56.63459777832031, -5.530886173248291, -8.246456146240234, -0.5530409216880798, 1.6109049320220947, -1.0170516967773438, 0.19656366109848022, -0.478515625, 0.56787109375, -0.4345703125, 0, 
211, 2168907880, -93.67050170898438, 32.65373611450195, 56.63976287841797, -5.561849594116211, -8.282415390014648, -0.4687198996543884, 1.659008502960205, -1.148017168045044, -0.08318222314119339, -0.478515625, 0.56689453125, -0.43359375, 0, 
212, 2168916213, -93.66999816894531, 32.650020599365234, 56.63911056518555, -5.184372425079346, -8.100577354431152, -0.5121972560882568, 1.5692559480667114, -1.2564677000045776, -0.4865295886993408, -0.48046875, 0.56591796875, -0.43359375, 0, 
213, 2168924546, -93.67112731933594, 32.6488151550293, 56.63924026489258, -4.9083404541015625, -7.972431182861328, -0.5591113567352295, 1.4505853652954102, -1.164896845817566, -0.1710902750492096, -0.478515625, 0.5673828125, -0.435546875, 0, 
214, 2168932879, -93.67253112792969, 32.64976119995117, 56.63794708251953, -4.990329265594482, -8.01519775390625, -0.5512619018554688, 1.510650634765625, -1.037747859954834, 0.09497758001089096, -0.478515625, 0.56640625, -0.43359375, 0, 
215, 2168941212, -93.67139434814453, 32.652042388916016, 56.637996673583984, -5.370466709136963, -8.229598999023438, -0.45317506790161133, 1.7695850133895874, -1.1063940525054932, 0.24500013887882233, -0.4775390625, 0.56884765625, -0.43798828125, 0, 
216, 2168949545, -93.67086791992188, 32.652435302734375, 56.63630676269531, -5.551225185394287, -8.290764808654785, -0.5690372586250305, 1.7685091495513916, -0.991565465927124, 0.031889721751213074, -0.47998046875, 0.568359375, -0.431640625, 0, 
217, 2168957878, -93.66974639892578, 32.64972686767578, 56.62252426147461, -5.3924031257629395, -8.13768196105957, -0.543582558631897, 1.6092911958694458, -1.313689947128296, -0.369907945394516, -0.47998046875, 0.56591796875, -0.4375, 0, 
218, 2168966211, -93.67011260986328, 32.64580154418945, 56.624202728271484, -4.96447229385376, -8.052946090698242, -0.5103252530097961, 1.479324460029602, -1.2342090606689453, -0.5105301737785339, -0.478515625, 0.5673828125, -0.43115234375, 0, 
219, 2168974544, -93.67005920410156, 32.644996643066406, 56.623966217041016, -4.933935642242432, -8.008009910583496, -0.5273885130882263, 1.6158995628356934, -1.1317778825759888, -0.12032286822795868, -0.4765625, 0.56689453125, -0.43310546875, 0, 
220, 2168982877, -93.67150115966797, 32.64714050292969, 56.62248611450195, -5.297998428344727, -8.14793872833252, -0.4776034355163574, 1.5168492794036865, -1.0258115530014038, 0.24085064232349396, -0.47900390625, 0.5693359375, -0.43701171875, 0, 
221, 2168991210, -93.67108154296875, 32.64861297607422, 56.621307373046875, -5.452489852905273, -8.336260795593262, -0.5701955556869507, 1.6102900505065918, -1.2247061729431152, 0.13859862089157104, -0.478515625, 0.5673828125, -0.43212890625, 0, 
222, 2168999543, -93.66910552978516, 32.64739227294922, 56.622501373291016, -5.473810195922852, -8.186017990112305, -0.549298107624054, 1.753550410270691, -1.2700433731079102, -0.17954297363758087, -0.478515625, 0.56591796875, -0.43701171875, 0, 
223, 2169007876, -93.6693344116211, 32.64323806762695, 56.63299560546875, -5.147737979888916, -7.984097003936768, -0.5661954879760742, 1.4361132383346558, -1.32985258102417, -0.5431626439094543, -0.48046875, 0.56689453125, -0.43408203125, 0, 
224, 2169016209, -93.66934967041016, 32.641937255859375, 56.62661361694336, -4.873442649841309, -8.072600364685059, -0.5126486420631409, 1.523944616317749, -1.2526768445968628, -0.1947578340768814, -0.4775390625, 0.56591796875, -0.4326171875, 0, 
225, 2169024542, -93.67082977294922, 32.644962310791016, 56.62398910522461, -5.163311004638672, -8.150057792663574, -0.4617198705673218, 1.5863919258117676, -0.9189490079879761, 0.35383501648902893, -0.47998046875, 0.56591796875, -0.4306640625, 0, 
226, 2169032875, -93.66983795166016, 32.64719772338867, 56.623104095458984, -5.5262346267700195, -8.2698335647583, -0.4789751172065735, 1.7714548110961914, -1.0874650478363037, 0.24838121235370636, -0.4794921875, 0.56640625, -0.43359375, 0, 
227, 2169041208, -93.66888427734375, 32.64793395996094, 56.61625289916992, -5.4896721839904785, -8.32631778717041, -0.5679175853729248, 1.7182540893554688, -1.144815444946289, 0.05678675323724747, -0.4794921875, 0.56884765625, -0.43408203125, 0, 
228, 2169049541, -93.66739654541016, 32.64591979980469, 56.618194580078125, -5.15089225769043, -8.058226585388184, -0.5654401183128357, 1.648199200630188, -1.3400214910507202, -0.28061676025390625, -0.4775390625, 0.56787109375, -0.43359375, 0, 
229, 2169057874, -93.666748046875, 32.64427185058594, 56.6192626953125, -4.9261474609375, -7.905899524688721, -0.49097126722335815, 1.6014275550842285, -1.2476565837860107, -0.23579181730747223, -0.478515625, 0.56640625, -0.43017578125, 0, 
230, 2169066207, -93.66793823242188, 32.64574432373047, 56.59999465942383, -4.973504066467285, -8.077821731567383, -0.5422214269638062, 1.4745090007781982, -1.1327253580093384, 0.1457706093788147, -0.47705078125, 0.5673828125, -0.42919921875, 0, 
231, 2169074540, -93.66759490966797, 32.65031433105469, 56.59834289550781, -5.403635025024414, -8.267985343933105, -0.4575856626033783, 1.7416142225265503, -1.0284242630004883, 0.5316489934921265, -0.47802734375, 0.56787109375, -0.4296875, 0, 
232, 2169082873, -93.66561889648438, 32.65171432495117, 56.5989990234375, -5.60590934753418, -8.305855751037598, -0.5387824773788452, 1.790486216545105, -1.2371803522109985, 0.13639581203460693, -0.478515625, 0.5654296875, -0.4296875, 0, 
233, 2169091206, -93.6629409790039, 32.65021896362305, 56.5911979675293, -5.406619548797607, -8.201245307922363, -0.49322041869163513, 1.7098782062530518, -1.4636870622634888, -0.22974689304828644, -0.47607421875, 0.5673828125, -0.435546875, 0, 
234, 2169099539, -93.66230010986328, 32.647518157958984, 56.592742919921875, -4.939784526824951, -8.046990394592285, -0.5222711563110352, 1.5700244903564453, -1.2966055870056152, -0.36004650592803955, -0.4775390625, 0.56640625, -0.43115234375, 0, 
235, 2169107872, -93.66207885742188, 32.648094177246094, 56.591854095458984, -4.856211185455322, -7.971283435821533, -0.563866913318634, 1.59635591506958, -1.1956596374511719, 0.03227393329143524, -0.47802734375, 0.56884765625, -0.43017578125, 0, 
236, 2169116205, -93.66104888916016, 32.651729583740234, 56.58342361450195, -5.2148566246032715, -8.125605583190918, -0.47105422616004944, 1.6907185316085815, -1.2205308675765991, 0.4002736508846283, -0.4755859375, 0.56689453125, -0.4296875, 0, 
237, 2169124538, -93.65982055664062, 32.65458297729492, 56.583133697509766, -5.440404891967773, -8.309849739074707, -0.4794107973575592, 1.7625924348831177, -1.1527814865112305, 0.31777021288871765, -0.47607421875, 0.56787109375, -0.4306640625, 0, 
238, 2169132871, -93.65884399414062, 32.65412139892578, 56.583492279052734, -5.538397312164307, -8.189093589782715, -0.5061094164848328, 1.6888489723205566, -1.1910490989685059, -0.08200396597385406, -0.478515625, 0.5654296875, -0.4296875, 0, 
239, 2169141204, -93.6580810546875, 32.65233612060547, 56.58755874633789, -5.195065498352051, -8.058143615722656, -0.48629969358444214, 1.5521202087402344, -1.3504464626312256, -0.26066330075263977, -0.4794921875, 0.56640625, -0.4306640625, 0, 
240, 2169149537, -93.6580581665039, 32.65045928955078, 56.58852005004883, -4.860755443572998, -8.045570373535156, -0.46953684091567993, 1.535598874092102, -1.2428412437438965, -0.2557709217071533, -0.47705078125, 0.56591796875, -0.4326171875, 0, 
241, 2169157870, -93.6590805053711, 32.65345764160156, 56.610225677490234, -5.118949890136719, -8.072052001953125, -0.4725852906703949, 1.5991991758346558, -0.9837018847465515, 0.33943983912467957, -0.474609375, 0.56591796875, -0.43310546875, 0, 
242, 2169166203, -93.65754699707031, 32.656227111816406, 56.615631103515625, -5.4636712074279785, -8.221879005432129, -0.46596917510032654, 1.7664858102798462, -1.1913052797317505, 0.2970995306968689, -0.47705078125, 0.56689453125, -0.431640625, 0, 
243, 2169174536, -93.65734100341797, 32.65602111816406, 56.61565399169922, -5.465490818023682, -8.276312828063965, -0.5637162327766418, 1.6182305812835693, -1.1613879203796387, -0.049934953451156616, -0.4765625, 0.5654296875, -0.42919921875, 0, 
244, 2169182869, -93.65631866455078, 32.653480529785156, 56.61806106567383, -5.223209857940674, -8.03624439239502, -0.5189783573150635, 1.5618536472320557, -1.381926417350769, -0.3459586501121521, -0.47705078125, 0.56591796875, -0.427734375, 0, 
245, 2169191202, -93.65616607666016, 32.651493072509766, 56.60768127441406, -4.976423263549805, -7.97056245803833, -0.46305304765701294, 1.517182469367981, -1.2814162969589233, -0.2804374694824219, -0.4775390625, 0.56640625, -0.43505859375, 0, 
246, 2169199535, -93.65773010253906, 32.65277862548828, 56.60636901855469, -4.938179969787598, -8.125955581665039, -0.5512664318084717, 1.4934892654418945, -1.0364670753479004, 0.13721545040607452, -0.4775390625, 0.56591796875, -0.43359375, 0, 
247, 2169207868, -93.6571273803711, 32.655914306640625, 56.601783752441406, -5.381943225860596, -8.239363670349121, -0.46068862080574036, 1.721481442451477, -1.093894362449646, 0.34750834107398987, -0.4755859375, 0.56689453125, -0.43408203125, 0, 
248, 2169216201, -93.65636444091797, 32.657230377197266, 56.605552673339844, -5.555843353271484, -8.301268577575684, -0.5052539706230164, 1.6787314414978027, -1.1751682758331299, 0.12499748170375824, -0.47705078125, 0.56689453125, -0.4296875, 0, 
249, 2169224534, -93.6567153930664, 32.65449523925781, 56.6062126159668, -5.359472274780273, -8.145949363708496, -0.5481693744659424, 1.5087296962738037, -1.2061359882354736, -0.3580229878425598, -0.47802734375, 0.56689453125, -0.4345703125, 0, 
250, 2169232867, -93.6568374633789, 32.651206970214844, 56.606727600097656, -4.99630069732666, -7.95348596572876, -0.5376049876213074, 1.547202229499817, -1.1864129304885864, -0.42451751232147217, -0.47607421875, 0.56640625, -0.43408203125, 0, 
251, 2169241200, -93.65747833251953, 32.65166091918945, 56.6035041809082, -4.870785713195801, -7.960004806518555, -0.49950942397117615, 1.452378273010254, -1.2595415115356445, 0.01785312034189701, -0.47607421875, 0.56640625, -0.43505859375, 0, 
252, 2169249533, -93.65931701660156, 32.65376281738281, 56.60126876831055, -5.236485481262207, -8.178648948669434, -0.42597392201423645, 1.5188729763031006, -0.9520682692527771, 0.24021030962467194, -0.47802734375, 0.56640625, -0.42919921875, 0, 
253, 2169257866, -93.65924072265625, 32.65596389770508, 56.598148345947266, -5.57997989654541, -8.321593284606934, -0.5263313055038452, 1.6245572566986084, -1.136900544166565, 0.2334737479686737, -0.4775390625, 0.568359375, -0.43017578125, 0, 
254, 2169266199, -93.65985870361328, 32.654991149902344, 56.60086441040039, -5.569391250610352, -8.244585037231445, -0.47702521085739136, 1.5513261556625366, -1.0916146039962769, -0.14562973380088806, -0.47705078125, 0.5673828125, -0.4296875, 0, 
255, 2169274532, -93.65948486328125, 32.651397705078125, 56.60072326660156, -5.0804572105407715, -8.134480476379395, -0.5083742737770081, 1.6489931344985962, -1.1180996894836426, -0.45474231243133545, -0.47607421875, 0.56591796875, -0.43017578125, 0, 
256, 2169282865, -93.66138458251953, 32.649681091308594, 56.60065460205078, -4.867271423339844, -7.940146446228027, -0.5583216547966003, 1.371975302696228, -1.1404355764389038, -0.2320265769958496, -0.4765625, 0.56640625, -0.43017578125, 0, 
257, 2169291198, -93.6618423461914, 32.651268005371094, 56.59935760498047, -5.0405731201171875, -8.008077621459961, -0.5433785319328308, 1.5795787572860718, -1.1020909547805786, 0.16149775683879852, -0.4765625, 0.56640625, -0.42919921875, 0, 
258, 2169299531, -93.6613998413086, 32.654048919677734, 56.599220275878906, -5.344404697418213, -8.300444602966309, -0.4572847783565521, 1.6580092906951904, -1.1661263704299927, 0.3082929253578186, -0.47705078125, 0.564453125, -0.4306640625, 0, 
259, 2169307864, -93.6620864868164, 32.65513610839844, 56.60908508300781, -5.57469367980957, -8.300093650817871, -0.5194017887115479, 1.624377965927124, -0.9844958782196045, 0.10952647030353546, -0.47802734375, 0.56689453125, -0.4326171875, 0, 
260, 2169316197, -93.66256713867188, 32.653072357177734, 56.60955047607422, -5.45095157623291, -8.087687492370605, -0.576479434967041, 1.4695401191711426, -1.2413811683654785, -0.28553473949432373, -0.47705078125, 0.5654296875, -0.431640625, 0, 
261, 2169324530, -93.66377258300781, 32.6508674621582, 56.610557556152344, -4.9449896812438965, -8.087679862976074, -0.5278109908103943, 1.3860373497009277, -1.2449157238006592, -0.2957291305065155, -0.4775390625, 0.564453125, -0.42919921875, 0, 
262, 2169332863, -93.66487884521484, 32.651954650878906, 56.60859298706055, -4.885814666748047, -8.057201385498047, -0.48773860931396484, 1.5882874727249146, -0.9705873727798462, 0.11593002825975418, -0.474609375, 0.56884765625, -0.43017578125, 0, 
263, 2169341196, -93.66502380371094, 32.65440368652344, 56.60076904296875, -5.3548150062561035, -8.114666938781738, -0.5049286484718323, 1.6504274606704712, -1.061569094657898, 0.2670539915561676, -0.47607421875, 0.56689453125, -0.43115234375, 0, 
264, 2169349529, -93.66490936279297, 32.65585708618164, 56.6014518737793, -5.4673237800598145, -8.345356941223145, -0.5898030400276184, 1.5658239126205444, -1.2369498014450073, 0.1446179747581482, -0.4755859375, 0.5673828125, -0.4306640625, 0, 
265, 2169357862, -93.66515350341797, 32.654998779296875, 56.603084564208984, -5.386899471282959, -8.207905769348145, -0.565294086933136, 1.5771454572677612, -1.1300104856491089, -0.13366790115833282, -0.4765625, 0.568359375, -0.43310546875, 0, 
266, 2169366195, -93.66514587402344, 32.65159225463867, 56.59711456298828, -5.125765323638916, -7.959939002990723, -0.5576295256614685, 1.5343438386917114, -1.2194552421569824, -0.4458029270172119, -0.4775390625, 0.5654296875, -0.431640625, 0, 
267, 2169374528, -93.66651916503906, 32.65149688720703, 56.59696578979492, -4.868837833404541, -8.054203987121582, -0.499606728553772, 1.4391356706619263, -1.1447898149490356, -0.03697414696216583, -0.47607421875, 0.56494140625, -0.43017578125, 0, 
268, 2169382861, -93.66788482666016, 32.654571533203125, 56.59431457519531, -5.188234329223633, -8.17954158782959, -0.4733229875564575, 1.6035023927688599, -0.9144923090934753, 0.36026424169540405, -0.4755859375, 0.56689453125, -0.43359375, 0, 
269, 2169391194, -93.66779327392578, 32.657833099365234, 56.59464645385742, -5.531919002532959, -8.28160285949707, -0.46650242805480957, 1.6527074575424194, -1.1041145324707031, 0.36277446150779724, -0.474609375, 0.56689453125, -0.42919921875, 0, 
270, 2169399527, -93.66715240478516, 32.65748977661133, 56.59479904174805, -5.537823677062988, -8.300034523010254, -0.535843014717102, 1.6606475114822388, -1.1737850904464722, -0.06794175505638123, -0.4775390625, 0.5673828125, -0.4306640625, 0, 
271, 2169407860, -93.66570281982422, 32.6549186706543, 56.59624481201172, -5.101070880889893, -8.0643892288208, -0.5733389258384705, 1.6376205682754517, -1.3381260633468628, -0.3547699451446533, -0.47998046875, 0.56494140625, -0.4296875, 0, 
272, 2169416193, -93.66573333740234, 32.65347671508789, 56.60193634033203, -4.880126953125, -7.892707824707031, -0.5058245658874512, 1.5635696649551392, -1.1896402835845947, -0.20613054931163788, -0.4765625, 0.56494140625, -0.43115234375, 0, 
273, 2169424526, -93.66670227050781, 32.65557861328125, 56.601043701171875, -4.989970684051514, -8.059761047363281, -0.5152269601821899, 1.5357015132904053, -1.0861331224441528, 0.23078425228595734, -0.47900390625, 0.56884765625, -0.4296875, 0, 
274, 2169432859, -93.66658782958984, 32.65818405151367, 56.60042190551758, -5.413856029510498, -8.264510154724121, -0.49093347787857056, 1.649940848350525, -1.1156665086746216, 0.29033732414245605, -0.47607421875, 0.56689453125, -0.43310546875, 0, 
275, 2169441192, -93.6662368774414, 32.659393310546875, 56.604461669921875, -5.630190849304199, -8.316930770874023, -0.497639536857605, 1.6441010236740112, -1.1518594026565552, 0.11216474324464798, -0.47509765625, 0.56640625, -0.4296875, 0, 
276, 2169449525, -93.66596221923828, 32.65660858154297, 56.606475830078125, -5.416818618774414, -8.153167724609375, -0.5042900443077087, 1.4978948831558228, -1.341225504875183, -0.3710862398147583, -0.4775390625, 0.5673828125, -0.43017578125, 0, 
277, 2169457858, -93.66590881347656, 32.65386199951172, 56.61309814453125, -4.9655303955078125, -8.018269538879395, -0.5371463298797607, 1.4965628385543823, -1.2939926385879517, -0.3718802332878113, -0.47705078125, 0.56787109375, -0.4287109375, 0, 
278, 2169466191, -93.6664047241211, 32.654510498046875, 56.610870361328125, -4.841355323791504, -7.967814922332764, -0.5482431650161743, 1.5761208534240723, -1.0897449254989624, 0.04961477965116501, -0.47705078125, 0.56298828125, -0.43017578125, 0, 
279, 2169474524, -93.66641998291016, 32.657264709472656, 56.61046600341797, -5.2358012199401855, -8.13630485534668, -0.44390368461608887, 1.618179202079773, -1.1404609680175781, 0.30616694688796997, -0.47705078125, 0.5654296875, -0.43359375, 0, 
280, 2169482857, -93.6660385131836, 32.659664154052734, 56.610103607177734, -5.485280513763428, -8.3370361328125, -0.5464664101600647, 1.6643617153167725, -1.1410244703292847, 0.2646206319332123, -0.47705078125, 0.56689453125, -0.43505859375, 0, 
281, 2169491190, -93.664306640625, 32.65953826904297, 56.62755584716797, -5.535132884979248, -8.239529609680176, -0.6008597016334534, 1.751936674118042, -1.2351566553115845, -0.05290620028972626, -0.47900390625, 0.568359375, -0.435546875, 0, 
282, 2169499523, -93.66319274902344, 32.6567268371582, 56.62956619262695, -5.154471397399902, -8.024599075317383, -0.5291770100593567, 1.6001213788986206, -1.3391505479812622, -0.3761066198348999, -0.4794921875, 0.568359375, -0.4326171875, 0, 
283, 2169507856, -93.66295623779297, 32.65595245361328, 56.6354866027832, -4.87069845199585, -8.023200988769531, -0.4938132166862488, 1.4968703985214233, -1.3423012495040894, -0.13745880126953125, -0.4775390625, 0.56787109375, -0.43310546875, 0, 
284, 2169516189, -93.66260528564453, 32.65772247314453, 56.63398742675781, -5.1192121505737305, -8.0746488571167, -0.4625263214111328, 1.7085206508636475, -1.0508625507354736, 0.18729127943515778, -0.4775390625, 0.5693359375, -0.43896484375, 0, 
285, 2169524522, -93.6615982055664, 32.6595573425293, 56.63465118408203, -5.475438117980957, -8.244093894958496, -0.4746367335319519, 1.6747097969055176, -1.238793969154358, 0.1898270845413208, -0.47900390625, 0.56689453125, -0.43359375, 0, 
286, 2169532855, -93.66112518310547, 32.65886688232422, 56.63523483276367, -5.5070953369140625, -8.325515747070312, -0.589465320110321, 1.6124671697616577, -1.2128980159759521, -0.11181893944740295, -0.47705078125, 0.56494140625, -0.43798828125, 0, 
287, 2169541188, -93.65927124023438, 32.65630340576172, 56.631961822509766, -5.2318339347839355, -8.057472229003906, -0.5866671800613403, 1.703167200088501, -1.3160209655761719, -0.3515169620513916, -0.47900390625, 0.56591796875, -0.43359375, 0, 
288, 2169549521, -93.65965270996094, 32.654048919677734, 56.63291931152344, -4.902394771575928, -7.957407474517822, -0.4826062321662903, 1.4876747131347656, -1.2378718852996826, -0.30087757110595703, -0.47705078125, 0.5654296875, -0.431640625, 0, 
289, 2169557854, -93.65988159179688, 32.655601501464844, 56.632774353027344, -4.9651665687561035, -8.106761932373047, -0.533089280128479, 1.6352895498275757, -1.0580599308013916, 0.15985843539237976, -0.47900390625, 0.56640625, -0.43359375, 0, 
290, 2169566187, -93.66072845458984, 32.65789794921875, 56.63496017456055, -5.430908679962158, -8.233075141906738, -0.4837377369403839, 1.611724615097046, -0.9893625974655151, 0.25642409920692444, -0.47900390625, 0.56689453125, -0.43359375, 0, 
291, 2169574520, -93.66039276123047, 32.660186767578125, 56.63413619995117, -5.5868635177612305, -8.324901580810547, -0.49490460753440857, 1.6882598400115967, -1.0939199924468994, 0.2525050938129425, -0.478515625, 0.56591796875, -0.43310546875, 0, 
292, 2169582853, -93.65895080566406, 32.658172607421875, 56.636470794677734, -5.34823751449585, -8.20504093170166, -0.5076786875724792, 1.6183584928512573, -1.379441738128662, -0.28174376487731934, -0.4755859375, 0.56640625, -0.43212890625, 0, 
293, 2169591186, -93.65831756591797, 32.65654754638672, 56.63795852661133, -4.98937463760376, -7.933396816253662, -0.5082039833068848, 1.555526852607727, -1.3119995594024658, -0.2384813129901886, -0.47802734375, 0.56689453125, -0.4306640625, 0, 
294, 2169599519, -93.65884399414062, 32.65689468383789, 56.63796615600586, -4.8684916496276855, -7.959714412689209, -0.524541437625885, 1.5304762125015259, -1.1626430749893188, 0.014984328299760818, -0.47705078125, 0.56591796875, -0.4365234375, 0, 
295, 2169607852, -93.65885925292969, 32.659873962402344, 56.63007354736328, -5.21141242980957, -8.19462776184082, -0.4611824154853821, 1.62309730052948, -1.1163835525512695, 0.3293222486972809, -0.47802734375, 0.5654296875, -0.43310546875, 0, 
296, 2169616185, -93.65861511230469, 32.662071228027344, 56.62514877319336, -5.523341655731201, -8.309890747070312, -0.5286728143692017, 1.6754014492034912, -1.1041144132614136, 0.23255164921283722, -0.4775390625, 0.56689453125, -0.43115234375, 0, 
297, 2169624518, -93.65699005126953, 32.660186767578125, 56.62636947631836, -5.560113430023193, -8.230484008789062, -0.48041263222694397, 1.7112101316452026, -1.2674051523208618, -0.25820428133010864, -0.47705078125, 0.5673828125, -0.435546875, 0, 
298, 2169632851, -93.65614318847656, 32.657352447509766, 56.6276969909668, -5.104880332946777, -8.103245735168457, -0.49595341086387634, 1.6097265481948853, -1.2719389200210571, -0.37259745597839355, -0.4794921875, 0.56689453125, -0.4306640625, 0, 
299, 2169641184, -93.65705108642578, 32.656455993652344, 56.631351470947266, -4.834827899932861, -7.972082614898682, -0.547154426574707, 1.551044225692749, -1.0399250984191895, -0.13336050510406494, -0.4775390625, 0.5654296875, -0.43212890625, 0, 
300, 2169649517, -93.65714263916016, 32.65808868408203, 56.63022232055664, -5.0828094482421875, -7.979915618896484, -0.5149721503257751, 1.6569079160690308, -1.0577781200408936, 0.17658451199531555, -0.478515625, 0.568359375, -0.4365234375, 0, 
301, 2169657850, -93.65703582763672, 32.660804748535156, 56.627601623535156, -5.3659443855285645, -8.261818885803223, -0.4911050796508789, 1.6499663591384888, -1.1144113540649414, 0.2968945801258087, -0.47900390625, 0.5673828125, -0.43017578125, 0, 
302, 2169666183, -93.65642547607422, 32.66184997558594, 56.634185791015625, -5.519787788391113, -8.26350212097168, -0.5318512916564941, 1.7025525569915771, -1.1059585809707642, 0.09846111387014389, -0.4775390625, 0.56689453125, -0.43310546875, 0, 
303, 2169674516, -93.65636444091797, 32.65953826904297, 56.63473892211914, -5.3562164306640625, -8.084221839904785, -0.5419826507568359, 1.5671812295913696, -1.1974525451660156, -0.30863869190216064, -0.47900390625, 0.56591796875, -0.431640625, 0, 
304, 2169682849, -93.65711975097656, 32.657711029052734, 56.63528823852539, -4.9676384925842285, -8.077532768249512, -0.5091323852539062, 1.4696680307388306, -1.201397180557251, -0.24611437320709229, -0.47705078125, 0.56591796875, -0.43310546875, 0, 
305, 2169691182, -93.65850830078125, 32.65909957885742, 56.63814926147461, -4.954493045806885, -8.07996654510498, -0.5093131065368652, 1.5000977516174316, -1.0453298091888428, 0.14226144552230835, -0.478515625, 0.56591796875, -0.431640625, 0, 
306, 2169699515, -93.65873718261719, 32.661964416503906, 56.63661575317383, -5.395647048950195, -8.148127555847168, -0.4871802031993866, 1.6670001745224, -1.0281938314437866, 0.32694011926651, -0.47705078125, 0.568359375, -0.43359375, 0, 
307, 2169707848, -93.65869140625, 32.662174224853516, 56.63532638549805, -5.507664680480957, -8.283524513244629, -0.5488671660423279, 1.6444337368011475, -1.0900777578353882, -0.0021900166757404804, -0.4755859375, 0.5673828125, -0.43798828125, 0, 
308, 2169716181, -93.65799713134766, 32.659793853759766, 56.64236068725586, -5.311420917510986, -8.139403343200684, -0.5105800032615662, 1.6036303043365479, -1.2442240715026855, -0.3251086473464966, -0.47607421875, 0.564453125, -0.43212890625, 0, 
309, 2169724514, -93.65731811523438, 32.65707778930664, 56.643123626708984, -5.034423351287842, -7.948973178863525, -0.5169664025306702, 1.6269137859344482, -1.2154849767684937, -0.3566398024559021, -0.47900390625, 0.56640625, -0.43603515625, 0, 
310, 2169732847, -93.6585922241211, 32.65639877319336, 56.6425666809082, -4.927969455718994, -8.024490356445312, -0.5128450393676758, 1.4773266315460205, -1.0991708040237427, -0.1035967692732811, -0.4755859375, 0.5673828125, -0.4375, 0, 
311, 2169741180, -93.65962219238281, 32.65934371948242, 56.64082717895508, -5.217354774475098, -8.2244234085083, -0.44049903750419617, 1.519180417060852, -1.1008614301681519, 0.3248397409915924, -0.47705078125, 0.56640625, -0.43359375, 0, 
312, 2169749513, -93.66015625, 32.66117477416992, 56.64016342163086, -5.535456657409668, -8.324581146240234, -0.5089768171310425, 1.5715869665145874, -1.106598973274231, 0.19897136092185974, -0.47802734375, 0.56689453125, -0.431640625, 0, 
313, 2169757846, -93.66040802001953, 32.66060256958008, 56.628074645996094, -5.527320861816406, -8.243488311767578, -0.5324034094810486, 1.5798090696334839, -1.1218905448913574, -0.10019008070230484, -0.4794921875, 0.56591796875, -0.43603515625, 0, 
314, 2169766179, -93.66014862060547, 32.656524658203125, 56.637908935546875, -5.098773956298828, -8.029195785522461, -0.5527411699295044, 1.5395950078964233, -1.2562118768692017, -0.5296127796173096, -0.4755859375, 0.5654296875, -0.4326171875, 0, 
315, 2169774512, -93.6606216430664, 32.655216217041016, 56.638221740722656, -4.881246089935303, -7.9268975257873535, -0.5372492074966431, 1.5195900201797485, -1.1800860166549683, -0.1833338737487793, -0.47802734375, 0.56591796875, -0.4296875, 0, 
316, 2169782845, -93.66217041015625, 32.65650939941406, 56.63706970214844, -5.066491603851318, -8.071671485900879, -0.4856134057044983, 1.483934998512268, -1.0522454977035522, 0.13544806838035583, -0.4775390625, 0.5654296875, -0.431640625, 0, 
317, 2169791178, -93.66284942626953, 32.65971374511719, 56.62571334838867, -5.491987228393555, -8.292708396911621, -0.4682699739933014, 1.605628252029419, -1.0382089614868164, 0.3618778884410858, -0.47705078125, 0.56689453125, -0.439453125, 0, 
318, 2169799511, -93.66248321533203, 32.659515380859375, 56.626487731933594, -5.624375343322754, -8.30465030670166, -0.5051149129867554, 1.5891839265823364, -1.235617995262146, -0.05636413022875786, -0.4775390625, 0.56640625, -0.4306640625, 0, 
319, 2169807844, -93.66203308105469, 32.65699005126953, 56.596534729003906, -5.282270431518555, -8.144793510437012, -0.4910435974597931, 1.5273511409759521, -1.3229625225067139, -0.3458305597305298, -0.478515625, 0.56689453125, -0.43115234375, 0, 
320, 2169816177, -93.66349029541016, 32.65524673461914, 56.59130859375, -4.9174017906188965, -8.03407096862793, -0.49799150228500366, 1.37648344039917, -1.2062640190124512, -0.24421896040439606, -0.47900390625, 0.56689453125, -0.4365234375, 0, 
321, 2169824510, -93.66436767578125, 32.6549186706543, 56.59012222290039, -4.939156532287598, -7.951123237609863, -0.6069325804710388, 1.5657469034194946, -1.0381064414978027, -0.05966835841536522, -0.4765625, 0.56884765625, -0.43212890625, 0, 
322, 2169832843, -93.66569519042969, 32.65718460083008, 56.58980941772461, -5.281131267547607, -8.179984092712402, -0.4771197438240051, 1.456399917602539, -1.1455326080322266, 0.24797143042087555, -0.478515625, 0.56689453125, -0.43359375, 0, 
323, 2169841176, -93.66680908203125, 32.65879440307617, 56.588871002197266, -5.495219707489014, -8.373857498168945, -0.544798731803894, 1.5805007219314575, -0.9817295670509338, 0.17420239746570587, -0.47705078125, 0.56689453125, -0.435546875, 0, 
324, 2169849509, -93.66610717773438, 32.657169342041016, 56.59006881713867, -5.551848888397217, -8.158039093017578, -0.5840827822685242, 1.6019654273986816, -1.2683783769607544, -0.22890159487724304, -0.4775390625, 0.56689453125, -0.43505859375, 0, 
325, 2169857842, -93.66622924804688, 32.65364074707031, 56.61003112792969, -5.090879917144775, -8.03469467163086, -0.5491994023323059, 1.4760969877243042, -1.2870255708694458, -0.4641939699649811, -0.4765625, 0.564453125, -0.427734375, 0, 
326, 2169866175, -93.6662826538086, 32.65314865112305, 56.59232711791992, -4.817036151885986, -8.077573776245117, -0.5018982887268066, 1.5622888803482056, -1.1864640712738037, -0.09414511173963547, -0.4765625, 0.56494140625, -0.4287109375, 0, 
327, 2169874508, -93.66732025146484, 32.655277252197266, 56.58979034423828, -5.209993362426758, -8.076971054077148, -0.48451969027519226, 1.6355968713760376, -0.921203076839447, 0.24469278752803802, -0.4775390625, 0.5673828125, -0.4326171875, 0, 
328, 2169882841, -93.66676330566406, 32.6571044921875, 56.58976364135742, -5.492832183837891, -8.23714542388916, -0.5673324465751648, 1.662901520729065, -1.1709932088851929, 0.19277271628379822, -0.47705078125, 0.5673828125, -0.43017578125, 0, 
329, 2169891174, -93.66679382324219, 32.65664291381836, 56.589317321777344, -5.4285664558410645, -8.333202362060547, -0.5310429334640503, 1.6222518682479858, -1.1041913032531738, -0.08415556699037552, -0.4765625, 0.56640625, -0.43115234375, 0, 
330, 2169899507, -93.66674041748047, 32.65370559692383, 56.58991241455078, -5.181800842285156, -8.019145965576172, -0.576891303062439, 1.5649529695510864, -1.1949682235717773, -0.38107579946517944, -0.4765625, 0.5634765625, -0.43115234375, 0, 
331, 2169907840, -93.66612243652344, 32.65210723876953, 56.58917236328125, -4.936061859130859, -7.990533351898193, -0.5235038995742798, 1.567078948020935, -1.2956318855285645, -0.23241077363491058, -0.4775390625, 0.5673828125, -0.42724609375, 0, 
332, 2169916173, -93.66769409179688, 32.65360641479492, 56.53574752807617, -5.004326820373535, -8.16171932220459, -0.5399709939956665, 1.5157994031906128, -0.9896700978279114, 0.1579117625951767, -0.4755859375, 0.56640625, -0.43212890625, 0, 
333, 2169924506, -93.66732025146484, 32.65644836425781, 56.53428268432617, -5.415096759796143, -8.27940845489502, -0.4583658277988434, 1.7350826263427734, -1.0341362953186035, 0.32332852482795715, -0.47607421875, 0.56640625, -0.4326171875, 0, 
334, 2169932839, -93.66651916503906, 32.65724182128906, 56.53388214111328, -5.581292152404785, -8.294646263122559, -0.589152991771698, 1.7159743309020996, -1.1261426210403442, 0.07118196040391922, -0.4755859375, 0.56591796875, -0.4287109375, 0, 
335, 2169941172, -93.66516876220703, 32.6565055847168, 56.540184020996094, -5.249331474304199, -8.1670560836792, -0.5257313251495361, 1.5844197273254395, -1.427391767501831, -0.13694651424884796, -0.47607421875, 0.5673828125, -0.43212890625, 0, 
336, 2169949505, -93.66497039794922, 32.65531539916992, 56.53998947143555, -4.887629508972168, -7.927579402923584, -0.5462645888328552, 1.6304230690002441, -1.129933476448059, -0.16624920070171356, -0.47705078125, 0.56689453125, -0.43115234375, 0, 
337, 2169957838, -93.66445922851562, 32.6566276550293, 56.539791107177734, -4.899601936340332, -7.944172382354736, -0.5132721066474915, 1.5770173072814941, -1.291200876235962, 0.11493107676506042, -0.47802734375, 0.56591796875, -0.42626953125, 0, 
338, 2169966171, -93.66439819335938, 32.660648345947266, 56.54655075073242, -5.293028831481934, -8.199821472167969, -0.46376287937164307, 1.723249077796936, -1.0011708736419678, 0.4643092751502991, -0.4765625, 0.56591796875, -0.42724609375, 0, 
339, 2169974504, -93.66275024414062, 32.66321563720703, 56.54684066772461, -5.548852443695068, -8.31185245513916, -0.5053526163101196, 1.7735296487808228, -1.2077239751815796, 0.27947691082954407, -0.4765625, 0.56640625, -0.427734375, 0, 
340, 2169982837, -93.66233825683594, 32.66231918334961, 56.546661376953125, -5.566534042358398, -8.194060325622559, -0.4944799244403839, 1.6563959121704102, -1.1350820064544678, -0.1307990998029709, -0.4765625, 0.5654296875, -0.42578125, 0, 
341, 2169991170, -93.66080474853516, 32.659996032714844, 56.54743957519531, -5.1418328285217285, -8.058635711669922, -0.5203636288642883, 1.5894914865493774, -1.4303117990493774, -0.329719215631485, -0.47705078125, 0.56494140625, -0.42626953125, 0, 
342, 2169999503, -93.6611328125, 32.65840148925781, 56.5489387512207, -4.800927639007568, -8.004517555236816, -0.5467742085456848, 1.4585514068603516, -1.2984496355056763, -0.22728794813156128, -0.4765625, 0.56640625, -0.4267578125, 0, 
343, 2170007836, -93.66166687011719, 32.66074752807617, 56.55955123901367, -5.149725437164307, -7.997267246246338, -0.47382205724716187, 1.6092653274536133, -1.0506831407546997, 0.2585757076740265, -0.47607421875, 0.56640625, -0.43115234375, 0, 
344, 2170016169, -93.66142272949219, 32.663909912109375, 56.5590705871582, -5.434781551361084, -8.28836727142334, -0.4628061056137085, 1.680216908454895, -1.097070574760437, 0.35083815455436707, -0.47607421875, 0.56640625, -0.4248046875, 0, 
345, 2170024502, -93.66020965576172, 32.66312026977539, 56.559879302978516, -5.5474395751953125, -8.314764022827148, -0.5385834574699402, 1.6880805492401123, -1.235156774520874, -0.12352463603019714, -0.4765625, 0.56396484375, -0.4296875, 0, 
346, 2170032835, -93.65864562988281, 32.660064697265625, 56.562381744384766, -5.261870384216309, -8.060790061950684, -0.5635573863983154, 1.6208430528640747, -1.3885347843170166, -0.4100198745727539, -0.4765625, 0.56689453125, -0.4248046875, 0, 
347, 2170041168, -93.65760803222656, 32.65771484375, 56.56218719482422, -4.950654029846191, -7.993478775024414, -0.4856885075569153, 1.5746606588363647, -1.3606408834457397, -0.3252367377281189, -0.4765625, 0.5654296875, -0.42578125, 0, 
348, 2170049501, -93.65885162353516, 32.65781784057617, 56.56095886230469, -4.9864583015441895, -8.05598258972168, -0.4902704358100891, 1.5258656740188599, -1.0370820760726929, -0.007338478695601225, -0.4775390625, 0.56640625, -0.42529296875, 0, 
349, 2170057834, -93.65897369384766, 32.66065216064453, 56.5732307434082, -5.4337592124938965, -8.17379093170166, -0.4516056776046753, 1.684545636177063, -1.0132094621658325, 0.3184617757797241, -0.4775390625, 0.56689453125, -0.423828125, 0, 
350, 2170066167, -93.65817260742188, 32.66180419921875, 56.55351638793945, -5.569177150726318, -8.318686485290527, -0.5319275856018066, 1.62478768825531, -1.2658425569534302, 0.10002358257770538, -0.4755859375, 0.56494140625, -0.42578125, 0, 
351, 2170074500, -93.65861511230469, 32.65810775756836, 56.55320358276367, -5.379173755645752, -8.181238174438477, -0.5222072601318359, 1.5602912902832031, -1.1016812324523926, -0.4661150574684143, -0.47509765625, 0.56591796875, -0.4267578125, 0, 
352, 2170082833, -93.658935546875, 32.654720306396484, 56.554588317871094, -5.046086311340332, -8.01055908203125, -0.5379546880722046, 1.4670809507369995, -1.2727328538894653, -0.4414997398853302, -0.47607421875, 0.56494140625, -0.42724609375, 0, 
353, 2170091166, -93.65910339355469, 32.65410232543945, 56.54449462890625, -4.864672660827637, -8.058879852294922, -0.47485896944999695, 1.6551148891448975, -1.0218158960342407, -0.09808970987796783, -0.47509765625, 0.564453125, -0.42626953125, 0, 
354, 2170099499, -93.65998077392578, 32.656837463378906, 56.54399490356445, -5.238409042358398, -8.220452308654785, -0.4832214117050171, 1.5202817916870117, -1.1323412656784058, 0.3045276403427124, -0.47607421875, 0.564453125, -0.42529296875, 0, 
355, 2170107832, -93.66075897216797, 32.658485412597656, 56.535762786865234, -5.516297817230225, -8.282313346862793, -0.5230742692947388, 1.5609314441680908, -1.0695607662200928, 0.1716153621673584, -0.4765625, 0.56494140625, -0.42333984375, 0, 
356, 2170116165, -93.6590805053711, 32.65768814086914, 56.51455307006836, -5.486057281494141, -8.290079116821289, -0.547226071357727, 1.6660009622573853, -1.3495498895645142, -0.1395847499370575, -0.4765625, 0.56396484375, -0.4248046875, 0, 
357, 2170124498, -93.65812683105469, 32.655067443847656, 56.51557922363281, -5.012033462524414, -8.063624382019043, -0.5386185646057129, 1.643742322921753, -1.2424312829971313, -0.3466246426105499, -0.4755859375, 0.56591796875, -0.4296875, 0, 
358, 2170132831, -93.65863037109375, 32.65549087524414, 56.515525817871094, -4.894758224487305, -7.9152421951293945, -0.5302701592445374, 1.5377250909805298, -1.1577250957489014, 0.023616326972842216, -0.47509765625, 0.564453125, -0.42236328125, 0, 
359, 2170141164, -93.65892791748047, 32.658538818359375, 56.514137268066406, -5.102681636810303, -8.087241172790527, -0.49150675535202026, 1.5723555088043213, -1.1538572311401367, 0.33669912815093994, -0.4775390625, 0.564453125, -0.4287109375, 0, 
360, 2170149497, -93.65848541259766, 32.66107177734375, 56.51350402832031, -5.44347620010376, -8.295328140258789, -0.5013824701309204, 1.6891562938690186, -1.1164348125457764, 0.28093692660331726, -0.47314453125, 0.56494140625, -0.42822265625, 0, 
361, 2170157830, -93.65806579589844, 32.6615104675293, 56.509605407714844, -5.571103096008301, -8.269190788269043, -0.5606111288070679, 1.638670563697815, -1.1649994850158691, 0.01997910439968109, -0.4736328125, 0.56494140625, -0.4228515625, 0, 
362, 2170166163, -93.65665435791016, 32.658687591552734, 56.51013946533203, -5.286811828613281, -8.116357803344727, -0.527259111404419, 1.6125954389572144, -1.3710659742355347, -0.3843544125556946, -0.47412109375, 0.56494140625, -0.4296875, 0, 
363, 2170174496, -93.65669250488281, 32.656639099121094, 56.51127243041992, -4.842512607574463, -8.044963836669922, -0.5435190796852112, 1.5162090063095093, -1.2587475776672363, -0.28018128871917725, -0.47265625, 0.56396484375, -0.423828125, 0, 
364, 2170182829, -93.65679168701172, 32.657955169677734, 56.51088333129883, -4.923558712005615, -7.965731620788574, -0.6015311479568481, 1.6068834066390991, -1.1318801641464233, 0.13462843000888824, -0.4755859375, 0.5625, -0.42919921875, 0, 
365, 2170191162, -93.65763854980469, 32.661312103271484, 56.5185546875, -5.319406032562256, -8.139203071594238, -0.47605282068252563, 1.5912073850631714, -1.027655839920044, 0.38129347562789917, -0.4736328125, 0.56396484375, -0.4228515625, 0, 
366, 2170199495, -93.65778350830078, 32.66340637207031, 56.517005920410156, -5.456682205200195, -8.30517864227295, -0.5031324625015259, 1.6785520315170288, -1.0179224014282227, 0.23385797441005707, -0.47509765625, 0.564453125, -0.4248046875, 0, 
367, 2170207828, -93.65753936767578, 32.660911560058594, 56.505855560302734, -5.494670867919922, -8.107044219970703, -0.5112243294715881, 1.6218931674957275, -1.137054204940796, -0.3319220244884491, -0.47412109375, 0.56298828125, -0.4228515625, 0, 
368, 2170216161, -93.65660095214844, 32.65846252441406, 56.50686264038086, -5.096534729003906, -8.033973693847656, -0.5147684216499329, 1.5925650596618652, -1.3166356086730957, -0.33473965525627136, -0.474609375, 0.56396484375, -0.42333984375, 0, 
369, 2170224494, -93.65702819824219, 32.658023834228516, 56.50674819946289, -4.866883277893066, -8.106464385986328, -0.45618361234664917, 1.5501222610473633, -1.1442006826400757, -0.077342189848423, -0.47412109375, 0.56396484375, -0.4208984375, 0, 
370, 2170232827, -93.657470703125, 32.66057205200195, 56.50482177734375, -5.265202522277832, -8.0958251953125, -0.48479029536247253, 1.667845368385315, -0.985008180141449, 0.29064473509788513, -0.47705078125, 0.56494140625, -0.4248046875, 0, 
371, 2170241160, -93.65818786621094, 32.66228485107422, 56.521968841552734, -5.535279273986816, -8.209895133972168, -0.49396800994873047, 1.49794602394104, -1.1824170351028442, 0.17279362678527832, -0.4755859375, 0.5634765625, -0.4248046875, 0, 
372, 2170249493, -93.65848541259766, 32.6615104675293, 56.52213668823242, -5.374399185180664, -8.2517728805542, -0.5335028767585754, 1.548892855644226, -1.1699687242507935, -0.11983620375394821, -0.4736328125, 0.56396484375, -0.4287109375, 0, 
373, 2170257826, -93.65884399414062, 32.658626556396484, 56.520450592041016, -5.10918664932251, -8.033990859985352, -0.5329279899597168, 1.6042451858520508, -1.0491974353790283, -0.37185466289520264, -0.4716796875, 0.5625, -0.4228515625, 0, 
374, 2170266159, -93.65929412841797, 32.657615661621094, 56.52070999145508, -4.976280689239502, -7.968996524810791, -0.47572222352027893, 1.5199743509292603, -1.1763720512390137, -0.15449224412441254, -0.47412109375, 0.564453125, -0.4248046875, 0, 
375, 2170274492, -93.66010284423828, 32.658409118652344, 56.51951599121094, -5.0976996421813965, -8.141664505004883, -0.4428224265575409, 1.5764024257659912, -1.0449711084365845, 0.07822587341070175, -0.4716796875, 0.56396484375, -0.4248046875, 0, 
376, 2170282825, -93.66026306152344, 32.66025924682617, 56.51805877685547, -5.455076217651367, -8.277304649353027, -0.42011886835098267, 1.6700482368469238, -1.0263751745224, 0.20504195988178253, -0.47509765625, 0.564453125, -0.427734375, 0, 
377, 2170291158, -93.6611099243164, 32.660213470458984, 56.51421356201172, -5.603074073791504, -8.260038375854492, -0.5550986528396606, 1.5510187149047852, -1.0668712854385376, -0.032594114542007446, -0.4736328125, 0.56298828125, -0.43212890625, 0, 
378, 2170299491, -93.66053009033203, 32.65552520751953, 56.515777587890625, -5.231877326965332, -8.12381362915039, -0.5323201417922974, 1.561571717262268, -1.2830297946929932, -0.5976954102516174, -0.4755859375, 0.56494140625, -0.4296875, 0, 
379, 2170307824, -93.66263580322266, 32.65266799926758, 56.52986145019531, -4.940488338470459, -8.060684204101562, -0.5380206108093262, 1.311371922492981, -1.176474690437317, -0.3755943477153778, -0.47509765625, 0.56591796875, -0.42919921875, 0, 
380, 2170316157, -93.6641845703125, 32.65230178833008, 56.525936126708984, -4.9649200439453125, -8.0133638381958, -0.5677289962768555, 1.483934998512268, -1.032394528388977, -0.06996528059244156, -0.4765625, 0.564453125, -0.4287109375, 0, 
381, 2170324490, -93.66452026367188, 32.65409851074219, 56.52582550048828, -5.303287029266357, -8.187437057495117, -0.47326382994651794, 1.5628525018692017, -1.1631039381027222, 0.19103096425533295, -0.4736328125, 0.564453125, -0.43310546875, 0, 
382, 2170332823, -93.66484069824219, 32.65523147583008, 56.524696350097656, -5.512819290161133, -8.284881591796875, -0.5267449021339417, 1.62957763671875, -1.0542948246002197, 0.1177230179309845, -0.47705078125, 0.564453125, -0.43408203125, 0, 
383, 2170341156, -93.6650161743164, 32.65289306640625, 56.51750946044922, -5.458827495574951, -8.160361289978027, -0.5044094920158386, 1.4885969161987305, -1.267225980758667, -0.32229113578796387, -0.474609375, 0.56201171875, -0.431640625, 0, 
384, 2170349489, -93.66503143310547, 32.65011215209961, 56.519691467285156, -5.003810405731201, -8.120813369750977, -0.5179558396339417, 1.4519941806793213, -1.356824517250061, -0.37246939539909363, -0.47509765625, 0.56396484375, -0.43017578125, 0, 
385, 2170357822, -93.6664047241211, 32.64959716796875, 56.522884368896484, -4.919552803039551, -8.03480052947998, -0.5414271354675293, 1.4097048044204712, -1.1853883266448975, -0.09529774636030197, -0.47412109375, 0.56591796875, -0.4326171875, 0, 
386, 2170366155, -93.66709899902344, 32.651180267333984, 56.51925277709961, -5.187809467315674, -8.066155433654785, -0.5108091831207275, 1.5889277458190918, -1.0470969676971436, 0.16613392531871796, -0.474609375, 0.56298828125, -0.42919921875, 0, 
387, 2170374488, -93.66785430908203, 32.65396499633789, 56.518943786621094, -5.390300750732422, -8.272042274475098, -0.5381296277046204, 1.5254045724868774, -1.1489393711090088, 0.30831852555274963, -0.47802734375, 0.5634765625, -0.4296875, 0, 
388, 2170382821, -93.66752624511719, 32.65337371826172, 56.51955032348633, -5.501025199890137, -8.241212844848633, -0.5830368399620056, 1.5943580865859985, -1.216432809829712, -0.10111218690872192, -0.47705078125, 0.564453125, -0.4287109375, 0, 
389, 2170391154, -93.6675796508789, 32.65090560913086, 56.518131256103516, -5.206286907196045, -8.04671859741211, -0.52519690990448, 1.5523762702941895, -1.1907672882080078, -0.32895079255104065, -0.4765625, 0.564453125, -0.431640625, 0, 
390, 2170399487, -93.6687240600586, 32.65053939819336, 56.5181770324707, -4.917736053466797, -8.108307838439941, -0.4862217903137207, 1.455836296081543, -1.1611316204071045, -0.07006773352622986, -0.4765625, 0.56298828125, -0.431640625, 0, 
391, 2170407820, -93.66967010498047, 32.65214157104492, 56.51653289794922, -5.082715034484863, -8.155601501464844, -0.5124707818031311, 1.5749424695968628, -1.017435908317566, 0.16854166984558105, -0.47802734375, 0.5634765625, -0.43017578125, 0, 
392, 2170416153, -93.66934967041016, 32.65422439575195, 56.51724624633789, -5.479272842407227, -8.165761947631836, -0.5494650602340698, 1.6888490915298462, -1.0828546285629272, 0.22537967562675476, -0.4765625, 0.56396484375, -0.43212890625, 0, 
393, 2170424486, -93.66926574707031, 32.65372085571289, 56.51813507080078, -5.443523406982422, -8.266878128051758, -0.5185065865516663, 1.548738956451416, -1.2458635568618774, -0.0928131714463234, -0.4765625, 0.5615234375, -0.43017578125, 0, 
394, 2170432819, -93.6692123413086, 32.65132141113281, 56.518890380859375, -5.216476917266846, -8.083669662475586, -0.5788201093673706, 1.5517617464065552, -1.2165353298187256, -0.3181416094303131, -0.47607421875, 0.56396484375, -0.43505859375, 0, 
395, 2170441152, -93.66891479492188, 32.65011978149414, 56.5220947265625, -4.97515344619751, -7.994392395019531, -0.5343844294548035, 1.5301686525344849, -1.299397349357605, -0.18379493057727814, -0.4775390625, 0.564453125, -0.4306640625, 0, 
396, 2170449485, -93.66867065429688, 32.65143585205078, 56.52164077758789, -5.02279806137085, -8.121188163757324, -0.5347968339920044, 1.654116153717041, -1.125784158706665, 0.13314278423786163, -0.478515625, 0.56396484375, -0.43359375, 0, 
397, 2170457818, -93.66825866699219, 32.654640197753906, 56.520015716552734, -5.380194187164307, -8.274499893188477, -0.42989853024482727, 1.633137822151184, -1.1897683143615723, 0.35227257013320923, -0.47900390625, 0.5634765625, -0.431640625, 0, 
398, 2170466151, -93.66732025146484, 32.65507507324219, 56.51831817626953, -5.553581714630127, -8.260540962219238, -0.6370557546615601, 1.8194814920425415, -0.9775032997131348, 0.03237639367580414, -0.47607421875, 0.56298828125, -0.43408203125, 0, 
399, 2170474484, -93.66454315185547, 32.65305709838867, 56.52082824707031, -5.362730026245117, -8.12845516204834, -0.5623072981834412, 1.7669469118118286, -1.3976024389266968, -0.2841002941131592, -0.47802734375, 0.56298828125, -0.439453125, 0, 
400, 2170482817, -93.66419219970703, 32.650516510009766, 56.521644592285156, -4.967935085296631, -7.99077844619751, -0.4917459189891815, 1.5835999250411987, -1.2227083444595337, -0.33686563372612, -0.47998046875, 0.5634765625, -0.4375, 0, 
401, 2170491150, -93.66350555419922, 32.65178298950195, 56.46366882324219, -4.933789253234863, -7.978736400604248, -0.5597371459007263, 1.6519132852554321, -1.2051881551742554, 0.11872199177742004, -0.4765625, 0.5634765625, -0.43408203125, 0, 
402, 2170499483, -93.66370391845703, 32.65435028076172, 56.462554931640625, -5.299793243408203, -8.20528507232666, -0.48131754994392395, 1.6434093713760376, -1.066051721572876, 0.2889029383659363, -0.4775390625, 0.5625, -0.43408203125, 0, 
403, 2170507816, -93.66302490234375, 32.65589141845703, 56.47977828979492, -5.496248722076416, -8.362608909606934, -0.5711418986320496, 1.6685112714767456, -1.1809570789337158, 0.15219980478286743, -0.47802734375, 0.56298828125, -0.43310546875, 0, 
404, 2170516149, -93.66172790527344, 32.65415954589844, 56.4803352355957, -5.541000843048096, -8.211094856262207, -0.4965696632862091, 1.785593867301941, -1.0798064470291138, -0.23310232162475586, -0.47705078125, 0.56201171875, -0.4345703125, 0, 
405, 2170524482, -93.66024017333984, 32.65082931518555, 56.482425689697266, -5.180619716644287, -8.005025863647461, -0.5065600275993347, 1.6375691890716553, -1.344683289527893, -0.4399116635322571, -0.47998046875, 0.564453125, -0.435546875, 0, 
406, 2170532815, -93.65986633300781, 32.64943313598633, 56.483917236328125, -4.8231425285339355, -8.091787338256836, -0.5109102129936218, 1.5422074794769287, -1.2996021509170532, -0.20349226891994476, -0.4794921875, 0.56201171875, -0.4326171875, 0, 
407, 2170541148, -93.65962982177734, 32.65208435058594, 56.481441497802734, -5.143122673034668, -8.076827049255371, -0.5151399970054626, 1.708648681640625, -1.0440233945846558, 0.2956906855106354, -0.47998046875, 0.564453125, -0.43505859375, 0, 
408, 2170549481, -93.65961456298828, 32.6539192199707, 56.48032760620117, -5.4769392013549805, -8.243308067321777, -0.4484871029853821, 1.6695612668991089, -1.0633876323699951, 0.20199385285377502, -0.47900390625, 0.56396484375, -0.4404296875, 0, 
409, 2170557814, -93.6589126586914, 32.65361022949219, 56.4802131652832, -5.5126566886901855, -8.308930397033691, -0.5227975249290466, 1.6894123554229736, -1.133263349533081, -0.06714771687984467, -0.4794921875, 0.56103515625, -0.4345703125, 0, 
410, 2170566147, -93.65736389160156, 32.65191650390625, 56.47649002075195, -5.232448101043701, -8.098416328430176, -0.5435308218002319, 1.6762722730636597, -1.301676869392395, -0.2445519119501114, -0.4814453125, 0.56201171875, -0.44091796875, 0, 
411, 2170574480, -93.65679931640625, 32.65001678466797, 56.4771614074707, -4.986105442047119, -7.9765944480896, -0.4606926143169403, 1.6187940835952759, -1.2144604921340942, -0.2594338059425354, -0.48095703125, 0.56396484375, -0.44091796875, 0, 
412, 2170582813, -93.65802764892578, 32.65047836303711, 56.476463317871094, -5.002837657928467, -8.119033813476562, -0.47331488132476807, 1.493540644645691, -1.090743899345398, 0.0354757159948349, -0.48193359375, 0.5615234375, -0.43994140625, 0, 
413, 2170591146, -93.65901947021484, 32.65477752685547, 56.4837760925293, -5.348630905151367, -8.233059883117676, -0.42381078004837036, 1.5980464220046997, -0.9970213770866394, 0.4947902262210846, -0.4833984375, 0.56201171875, -0.43505859375, 0, 
414, 2170599479, -93.65827178955078, 32.65579605102539, 56.483455657958984, -5.503366947174072, -8.213048934936523, -0.5585225224494934, 1.7037309408187866, -1.1355431079864502, 0.09897341579198837, -0.48095703125, 0.56396484375, -0.435546875, 0, 
415, 2170607812, -93.65856170654297, 32.65481185913086, 56.49219512939453, -5.312414169311523, -8.184366226196289, -0.4617786407470703, 1.4361132383346558, -1.3412253856658936, -0.16192036867141724, -0.48046875, 0.5615234375, -0.4365234375, 0, 
416, 2170616145, -93.65833282470703, 32.653011322021484, 56.49443054199219, -5.017196178436279, -7.989648818969727, -0.4455213248729706, 1.5908230543136597, -1.1879240274429321, -0.2514421343803406, -0.48095703125, 0.560546875, -0.4384765625, 0, 
417, 2170624478, -93.65908813476562, 32.65372085571289, 56.49471664428711, -4.937963962554932, -8.02988052368164, -0.5139831304550171, 1.4851902723312378, -1.1951731443405151, 0.05642816051840782, -0.4833984375, 0.5634765625, -0.439453125, 0, 
418, 2170632811, -93.6600570678711, 32.65647888183594, 56.493263244628906, -5.230467796325684, -8.183303833007812, -0.405661940574646, 1.5725603103637695, -1.0333678722381592, 0.3153880834579468, -0.48095703125, 0.56103515625, -0.4365234375, 0, 
419, 2170641144, -93.65972900390625, 32.65957260131836, 56.47555923461914, -5.412870407104492, -8.201471328735352, -0.5412879586219788, 1.6575994491577148, -1.1465314626693726, 0.34161704778671265, -0.48095703125, 0.56298828125, -0.43994140625, 0, 
420, 2170649477, -93.6606216430664, 32.659664154052734, 56.475650787353516, -5.484305381774902, -8.169747352600098, -0.525800347328186, 1.4810662269592285, -1.1705832481384277, -0.015765560790896416, -0.482421875, 0.56103515625, -0.43505859375, 0, 
421, 2170657810, -93.66114807128906, 32.6571044921875, 56.47583770751953, -5.12064266204834, -8.109508514404297, -0.5137069225311279, 1.4673370122909546, -1.229957103729248, -0.3458305597305298, -0.48095703125, 0.560546875, -0.439453125, 0, 
422, 2170666143, -93.66108703613281, 32.65606689453125, 56.495662689208984, -4.878389358520508, -8.037940979003906, -0.5393486618995667, 1.5905927419662476, -1.1644102334976196, -0.15441541373729706, -0.48193359375, 0.5634765625, -0.44091796875, 0, 
423, 2170674476, -93.66219329833984, 32.65748977661133, 56.49480438232422, -5.149106502532959, -7.9910359382629395, -0.5120104551315308, 1.5167980194091797, -1.087721347808838, 0.14886993169784546, -0.4814453125, 0.56201171875, -0.43505859375, 0, 
424, 2170682809, -93.66329956054688, 32.65946960449219, 56.49312973022461, -5.369110584259033, -8.228643417358398, -0.44114673137664795, 1.5702039003372192, -1.0052179098129272, 0.22286947071552277, -0.48291015625, 0.56201171875, -0.43603515625, 0, 
425, 2170691142, -93.66255950927734, 32.65986251831055, 56.49260330200195, -5.478243350982666, -8.221010208129883, -0.5473570227622986, 1.641001582145691, -1.2250134944915771, 0.009759022854268551, -0.48046875, 0.56201171875, -0.43603515625, 0, 
426, 2170699475, -93.66151428222656, 32.6567497253418, 56.494239807128906, -5.260101795196533, -8.061460494995117, -0.4965227544307709, 1.6159250736236572, -1.2988849878311157, -0.4076121151447296, -0.48046875, 0.5634765625, -0.43408203125, 0, 
427, 2170707808, -93.66275787353516, 32.65378952026367, 56.49403762817383, -4.949028968811035, -8.083102226257324, -0.5248363018035889, 1.4166721105575562, -1.1742974519729614, -0.39088600873947144, -0.48291015625, 0.560546875, -0.4365234375, 0, 
428, 2170716141, -93.6632080078125, 32.654354095458984, 56.49711608886719, -4.919430255889893, -8.064190864562988, -0.5566672086715698, 1.570229411125183, -1.1131563186645508, 0.04103400558233261, -0.48291015625, 0.5634765625, -0.43798828125, 0, 
429, 2170724474, -93.66392517089844, 32.655521392822266, 56.49591064453125, -5.3189377784729, -8.098332405090332, -0.5066087245941162, 1.5867249965667725, -1.047583818435669, 0.12033567577600479, -0.48046875, 0.56396484375, -0.435546875, 0, 
430, 2170732807, -93.66433715820312, 32.654972076416016, 56.49563217163086, -5.438009738922119, -8.23678970336914, -0.5071403980255127, 1.564671277999878, -1.1263477802276611, -0.08879175037145615, -0.48388671875, 0.5625, -0.43896484375, 0, 
431, 2170741140, -93.66488647460938, 32.652164459228516, 56.49401092529297, -5.418595790863037, -8.1686372756958, -0.5509535074234009, 1.5723296403884888, -1.0653855800628662, -0.3645033538341522, -0.4833984375, 0.5625, -0.43603515625, 0, 
432, 2170749473, -93.6644515991211, 32.647647857666016, 56.496116638183594, -5.2003865242004395, -8.098857879638672, -0.5577459931373596, 1.510650873184204, -1.3369224071502686, -0.5792531967163086, -0.48291015625, 0.5615234375, -0.43408203125, 0, 
433, 2170757806, -93.6651840209961, 32.6454963684082, 56.501792907714844, -4.960865020751953, -8.14113998413086, -0.46508052945137024, 1.4782743453979492, -1.1820839643478394, -0.29137471318244934, -0.4814453125, 0.5625, -0.43408203125, 0, 
434, 2170766139, -93.66506958007812, 32.64617919921875, 56.50141143798828, -5.169201374053955, -8.094888687133789, -0.46645933389663696, 1.6519644260406494, -1.089258074760437, 0.05384112149477005, -0.4814453125, 0.5615234375, -0.4345703125, 0, 
435, 2170774472, -93.66548919677734, 32.64716720581055, 56.50005340576172, -5.422363758087158, -8.10306167602539, -0.6032090783119202, 1.6316778659820557, -1.0299612283706665, 0.1005614846944809, -0.482421875, 0.5615234375, -0.4384765625, 0, 
436, 2170782805, -93.66607666015625, 32.64595031738281, 56.500911712646484, -5.458260536193848, -8.249996185302734, -0.5792823433876038, 1.4693604707717896, -1.2369496822357178, -0.17605942487716675, -0.48193359375, 0.56201171875, -0.4345703125, 0, 
437, 2170791138, -93.66746520996094, 32.64225769042969, 56.49896240234375, -5.263537406921387, -8.253432273864746, -0.5272470116615295, 1.4013291597366333, -1.1679195165634155, -0.47682175040245056, -0.482421875, 0.56201171875, -0.43408203125, 0, 
438, 2170799471, -93.66907501220703, 32.63840866088867, 56.49903106689453, -5.1897077560424805, -8.167816162109375, -0.5395257472991943, 1.397948145866394, -1.1368494033813477, -0.4865295886993408, -0.4833984375, 0.560546875, -0.4345703125, 0, 
439, 2170807804, -93.66999053955078, 32.63707733154297, 56.49654006958008, -5.127957344055176, -8.092079162597656, -0.5306548476219177, 1.4905179738998413, -1.133724570274353, -0.19053149223327637, -0.4853515625, 0.5625, -0.43505859375, 0, 
440, 2170816137, -93.67086791992188, 32.636966705322266, 56.506858825683594, -5.164231777191162, -8.125345230102539, -0.4746101200580597, 1.5373919010162354, -1.0779879093170166, -0.03935627266764641, -0.48291015625, 0.56103515625, -0.43408203125, 0, 
441, 2170824470, -93.669921875, 32.63750457763672, 56.506534576416016, -5.480625629425049, -8.048981666564941, -0.5290773510932922, 1.7312148809432983, -1.1320081949234009, 0.040701013058423996, -0.484375, 0.560546875, -0.4326171875, 0, 
442, 2170832803, -93.67037200927734, 32.636165618896484, 56.50732421875, -5.42317533493042, -8.16930103302002, -0.5571104884147644, 1.491798758506775, -1.2278568744659424, -0.19188906252384186, -0.4833984375, 0.56298828125, -0.43603515625, 0, 
443, 2170841136, -93.6710433959961, 32.63323211669922, 56.49714660644531, -5.086060523986816, -8.259568214416504, -0.4989224970340729, 1.4492788314819336, -1.2297778129577637, -0.3899126350879669, -0.48388671875, 0.56103515625, -0.44140625, 0, 
444, 2170849469, -93.67164611816406, 32.63361358642578, 56.49577713012695, -5.038917541503906, -8.173015594482422, -0.5529425144195557, 1.6105718612670898, -1.0243515968322754, 0.028944088146090508, -0.4853515625, 0.5615234375, -0.4345703125, 0, 
445, 2170857802, -93.67102813720703, 32.63571548461914, 56.472450256347656, -5.3397393226623535, -8.133658409118652, -0.4632960557937622, 1.6693819761276245, -1.170762538909912, 0.22105084359645844, -0.484375, 0.5625, -0.435546875, 0, 
446, 2170866135, -93.671142578125, 32.63545227050781, 56.458946228027344, -5.400551795959473, -8.20077896118164, -0.5545003414154053, 1.5890557765960693, -1.138027548789978, -0.06263960897922516, -0.4853515625, 0.56103515625, -0.4375, 0, 
447, 2170874468, -93.67122650146484, 32.63290786743164, 56.460140228271484, -5.390999794006348, -8.1378173828125, -0.4898868501186371, 1.5090625286102295, -1.2604637145996094, -0.3379926383495331, -0.48486328125, 0.56103515625, -0.43701171875, 0, 
448, 2170882801, -93.67294311523438, 32.6309928894043, 56.45961380004883, -5.139292240142822, -8.059165954589844, -0.5143238306045532, 1.4349608421325684, -1.0684338808059692, -0.2560015022754669, -0.4853515625, 0.56298828125, -0.4345703125, 0, 
449, 2170891134, -93.67224884033203, 32.63179016113281, 56.46015930175781, -4.934079647064209, -8.167283058166504, -0.5694049000740051, 1.6424871683120728, -1.2213764190673828, 0.06513699889183044, -0.484375, 0.56298828125, -0.439453125, 0, 
450, 2170899467, -93.67276763916016, 32.63435363769531, 56.45977020263672, -5.199624061584473, -8.130866050720215, -0.48379069566726685, 1.5573198795318604, -1.1403071880340576, 0.2841387391090393, -0.48583984375, 0.560546875, -0.4345703125, 0, 
451, 2170907800, -93.67140197753906, 32.63536071777344, 56.459007263183594, -5.3431477546691895, -8.142443656921387, -0.5297232270240784, 1.7424851655960083, -1.1853114366531372, 0.08836910873651505, -0.48486328125, 0.56298828125, -0.435546875, 0, 
452, 2170916133, -93.67080688476562, 32.63555908203125, 56.4598503112793, -5.381799221038818, -8.192261695861816, -0.5755898356437683, 1.6107769012451172, -1.2463760375976562, -0.007927605882287025, -0.48486328125, 0.56201171875, -0.43017578125, 0, 
453, 2170924466, -93.66966247558594, 32.6343879699707, 56.453773498535156, -5.20737886428833, -8.083775520324707, -0.5661230683326721, 1.7022451162338257, -1.2001677751541138, -0.17605943977832794, -0.482421875, 0.5595703125, -0.435546875, 0, 
454, 2170932799, -93.66927337646484, 32.63521194458008, 56.45380783081055, -4.960864543914795, -8.103200912475586, -0.5315392017364502, 1.5416696071624756, -1.3123068809509277, 0.05929695442318916, -0.48193359375, 0.5615234375, -0.43310546875, 0, 
455, 2170941132, -93.66986083984375, 32.63697814941406, 56.45270538330078, -5.067526340484619, -8.142712593078613, -0.49684569239616394, 1.596688985824585, -1.0607237815856934, 0.19123588502407074, -0.48388671875, 0.5615234375, -0.43310546875, 0, 
456, 2170949465, -93.66868591308594, 32.638980865478516, 56.452030181884766, -5.2995100021362305, -8.15245532989502, -0.5311563014984131, 1.7792418003082275, -1.1071369647979736, 0.21889926493167877, -0.4833984375, 0.5615234375, -0.43212890625, 0, 
457, 2170957798, -93.66773986816406, 32.64035415649414, 56.459327697753906, -5.387146472930908, -8.143681526184082, -0.5858346819877625, 1.6694077253341675, -1.2271140813827515, 0.12927503883838654, -0.484375, 0.5615234375, -0.4326171875, 0, 
458, 2170966131, -93.66618347167969, 32.63919448852539, 56.45985412597656, -5.238855838775635, -8.086494445800781, -0.52385014295578, 1.747915506362915, -1.2043172121047974, -0.1673249900341034, -0.48291015625, 0.56298828125, -0.4345703125, 0, 
459, 2170974464, -93.66552734375, 32.63811492919922, 56.4606819152832, -5.043488025665283, -8.074237823486328, -0.5287488102912903, 1.5672837495803833, -1.3113079071044922, -0.17185868322849274, -0.482421875, 0.5615234375, -0.42822265625, 0, 
460, 2170982797, -93.6648178100586, 32.63865280151367, 56.444427490234375, -5.009945869445801, -8.112317085266113, -0.5861352682113647, 1.5764538049697876, -1.3229368925094604, 0.024922652170062065, -0.484375, 0.5615234375, -0.43017578125, 0, 
461, 2170991130, -93.6640625, 32.64044189453125, 56.44417953491211, -5.276698589324951, -8.257549285888672, -0.40982863306999207, 1.7009388208389282, -1.1494516134262085, 0.18967340886592865, -0.482421875, 0.56201171875, -0.42919921875, 0, 
462, 2170999463, -93.66424560546875, 32.641361236572266, 56.44295120239258, -5.478531837463379, -8.193272590637207, -0.5381289124488831, 1.653065800666809, -1.0436391830444336, 0.09203194081783295, -0.48388671875, 0.56103515625, -0.43115234375, 0, 
463, 2171007796, -93.66156768798828, 32.64033889770508, 56.45677185058594, -5.3451762199401855, -8.103729248046875, -0.5455214381217957, 1.728294849395752, -1.435280680656433, -0.17372854053974152, -0.484375, 0.56396484375, -0.43505859375, 0, 
464, 2171016129, -93.6603775024414, 32.63788604736328, 56.457374572753906, -5.008743762969971, -8.069709777832031, -0.5065364241600037, 1.698249340057373, -1.202396273612976, -0.3228033483028412, -0.48291015625, 0.56103515625, -0.4287109375, 0, 
465, 2171024462, -93.65899658203125, 32.63832473754883, 56.461700439453125, -4.914778709411621, -8.06592845916748, -0.4837930202484131, 1.6777323484420776, -1.2860522270202637, 0.013882914558053017, -0.482421875, 0.5615234375, -0.42919921875, 0, 
466, 2171032795, -93.65802001953125, 32.640933990478516, 56.45866012573242, -5.291184425354004, -8.13893985748291, -0.4222598969936371, 1.7646414041519165, -1.0881054401397705, 0.28772467374801636, -0.4814453125, 0.56201171875, -0.431640625, 0, 
467, 2171041128, -93.65565490722656, 32.64240264892578, 56.460845947265625, -5.474686145782471, -8.29023551940918, -0.5063655972480774, 1.735466718673706, -1.3925564289093018, 0.13549929857254028, -0.4833984375, 0.5625, -0.43505859375, 0, 
468, 2171049461, -93.65412139892578, 32.64155578613281, 56.46062469482422, -5.485702037811279, -8.218472480773926, -0.43836259841918945, 1.7938930988311768, -1.1312655210494995, -0.12629100680351257, -0.48486328125, 0.5625, -0.43408203125, 0, 
469, 2171057794, -93.65351867675781, 32.638824462890625, 56.45667266845703, -5.226205825805664, -7.979930400848389, -0.5075171589851379, 1.5673093795776367, -1.2938902378082275, -0.368063747882843, -0.4853515625, 0.5625, -0.4296875, 0, 
470, 2171066127, -93.65293884277344, 32.63741683959961, 56.45817947387695, -4.934987545013428, -8.054290771484375, -0.45454636216163635, 1.5672837495803833, -1.3014464378356934, -0.2034410536289215, -0.48388671875, 0.5634765625, -0.42919921875, 0, 
471, 2171074460, -93.65446472167969, 32.63896560668945, 56.47193145751953, -5.058536052703857, -8.143208503723145, -0.49757784605026245, 1.598712682723999, -0.8737912774085999, 0.17207644879817963, -0.4853515625, 0.56103515625, -0.43310546875, 0, 
472, 2171082793, -93.65373229980469, 32.642608642578125, 56.47219467163086, -5.436391830444336, -8.187417030334473, -0.45055344700813293, 1.6598279476165771, -1.2115660905838013, 0.40355226397514343, -0.48291015625, 0.5625, -0.4326171875, 0, 
473, 2171091126, -93.6536865234375, 32.64288330078125, 56.471832275390625, -5.528687000274658, -8.256200790405273, -0.5113997459411621, 1.6253255605697632, -1.124733805656433, 0.00932358019053936, -0.484375, 0.564453125, -0.43310546875, 0, 
474, 2171099459, -93.65265655517578, 32.641258239746094, 56.473453521728516, -5.263180732727051, -8.132508277893066, -0.5455376505851746, 1.6110073328018188, -1.3112053871154785, -0.2321033775806427, -0.48388671875, 0.56298828125, -0.43017578125, 0, 
475, 2171107792, -93.65149688720703, 32.639564514160156, 56.47528839111328, -5.00519323348999, -7.985591411590576, -0.5301131010055542, 1.6181793212890625, -1.3236027956008911, -0.2453971952199936, -0.48486328125, 0.564453125, -0.4345703125, 0, 
476, 2171116125, -93.65196228027344, 32.640167236328125, 56.47632598876953, -5.013460636138916, -8.068246841430664, -0.5132984519004822, 1.4714864492416382, -1.2695567607879639, 0.03867749497294426, -0.48583984375, 0.5654296875, -0.43017578125, 0, 
477, 2171124458, -93.6524658203125, 32.64253234863281, 56.480308532714844, -5.326913356781006, -8.245776176452637, -0.4481654763221741, 1.5643893480300903, -1.125322937965393, 0.25642409920692444, -0.4833984375, 0.5634765625, -0.4287109375, 0, 
478, 2171132791, -93.6526107788086, 32.6448974609375, 56.46174240112305, -5.5052809715271, -8.216876029968262, -0.59820556640625, 1.577452540397644, -1.1748353242874146, 0.25122442841529846, -0.4833984375, 0.56396484375, -0.4267578125, 0, 
479, 2171141124, -93.65117645263672, 32.64277267456055, 56.46392059326172, -5.398802280426025, -8.111434936523438, -0.5228316783905029, 1.625095248222351, -1.3622034788131714, -0.29378244280815125, -0.48388671875, 0.56494140625, -0.427734375, 0, 
480, 2171149457, -93.6523208618164, 32.63984298706055, 56.46446990966797, -5.0074286460876465, -8.042037963867188, -0.5347126722335815, 1.4231525659561157, -1.1927653551101685, -0.3808196485042572, -0.48193359375, 0.5625, -0.42626953125, 0, 
481, 2171157790, -93.653076171875, 32.63982009887695, 56.47199249267578, -4.9420084953308105, -8.005549430847168, -0.5175839066505432, 1.5130327939987183, -1.1381044387817383, -0.03290148451924324, -0.4814453125, 0.56298828125, -0.4248046875, 0, 
482, 2171166123, -93.65436553955078, 32.64171600341797, 56.4714469909668, -5.246540546417236, -8.176091194152832, -0.4670598804950714, 1.4758152961730957, -1.1199183464050293, 0.20440159738063812, -0.4794921875, 0.5634765625, -0.42578125, 0, 
483, 2171174456, -93.65524291992188, 32.644412994384766, 56.48798751831055, -5.446615219116211, -8.329999923706055, -0.5096664428710938, 1.5505832433700562, -1.0798320770263672, 0.2985594868659973, -0.48095703125, 0.56396484375, -0.4267578125, 0, 
484, 2171182789, -93.6568832397461, 32.64349365234375, 56.481964111328125, -5.481595516204834, -8.24868392944336, -0.5202039480209351, 1.4833714962005615, -1.0134398937225342, -0.13274575769901276, -0.47802734375, 0.56396484375, -0.42626953125, 0, 
485, 2171191122, -93.65755462646484, 32.6401252746582, 56.48261260986328, -5.172119140625, -7.99326753616333, -0.5538978576660156, 1.470948576927185, -1.1994761228561401, -0.43268847465515137, -0.48095703125, 0.5634765625, -0.42724609375, 0, 
486, 2171199455, -93.65837097167969, 32.638145446777344, 56.48320770263672, -4.853530406951904, -8.03136157989502, -0.5000367760658264, 1.4604979753494263, -1.203395128250122, -0.2679120898246765, -0.4794921875, 0.5615234375, -0.4248046875, 0, 
487, 2171207788, -93.66061401367188, 32.640037536621094, 56.47534942626953, -5.045287609100342, -8.082962036132812, -0.5580958724021912, 1.5050410032272339, -0.8884168863296509, 0.2138020098209381, -0.47998046875, 0.56298828125, -0.427734375, 0, 
