DeviceID;Timestamp;Temperature;GyroX;GyroY;GyroZ;AccelX;AccelY;AccelZ;Dist1;Dist2;Dist3;Err1;Err2;Err3
2.0;1753876068.862976;17.21875;0.91;-1.68;-0.35;-0.728828;-0.715652;-0.014152;0.0;0.0;89.0;0.0;0.0;4.0
2.0;1753876068.869686;17.21875;0.84;-1.68;-0.28;-0.730414;-0.711992;-0.015372;0.0;0.0;89.0;0.0;0.0;4.0
2.0;1753876068.872102;17.21875;0.91;-1.75;-0.35;-0.731146;-0.713212;-0.013786;0.0;0.0;89.0;0.0;0.0;4.0
2.0;1753876068.876759;17.21875;0.98;-1.61;-0.28;-0.72834;-0.715408;-0.014152;0.0;0.0;89.0;0.0;0.0;4.0
2.0;1753876068.881248;17.25;0.91;-1.68;-0.35;-0.732244;-0.712724;-0.014152;0.0;0.0;89.0;0.0;0.0;4.0
2.0;1753876068.886083;17.25;0.91;-1.68;-0.28;-0.726998;-0.7137;-0.013176;0.0;0.0;89.0;0.0;0.0;4.0
2.0;1753876068.890423;17.25;0.91;-1.61;-0.35;-0.732;-0.713212;-0.012932;0.0;0.0;89.0;0.0;0.0;4.0
2.0;1753876068.894981;17.25;0.84;-1.54;-0.35;-0.729804;-0.714188;-0.013054;0.0;0.0;89.0;0.0;0.0;4.0
2.0;1753876068.899982;17.21875;0.91;-1.68;-0.28;-0.73139;-0.7137;-0.014518;0.0;0.0;89.0;0.0;0.0;4.0
2.0;1753876068.908459;17.21875;1.05;-1.68;-0.35;-0.730414;-0.71309;-0.013786;0.0;0.0;89.0;0.0;0.0;4.0
2.0;1753876068.908678;17.21875;0.91;-1.68;-0.35;-0.729682;-0.711626;-0.014274;0.0;0.0;89.0;0.0;0.0;4.0
2.0;1753876068.913409;17.21875;0.84;-1.61;-0.42;-0.732122;-0.71309;-0.01281;0.0;0.0;89.0;0.0;0.0;4.0
2.0;1753876068.918022;17.25;0.98;-1.68;-0.28;-0.726998;-0.717116;-0.015006;0.0;0.0;94.0;0.0;0.0;4.0
2.0;1753876068.922766;17.25;0.98;-1.75;-0.28;-0.73261;-0.710528;-0.013054;0.0;0.0;94.0;0.0;0.0;4.0
2.0;1753876068.927015;17.25;0.98;-1.68;-0.42;-0.726266;-0.715896;-0.01403;0.0;0.0;94.0;0.0;0.0;4.0
2.0;1753876068.931584;17.25;0.84;-1.75;-0.28;-0.732122;-0.714188;-0.013664;0.0;0.0;94.0;0.0;0.0;4.0
2.0;1753876068.936162;17.21875;0.91;-1.68;-0.42;-0.729316;-0.713578;-0.014274;0.0;0.0;94.0;0.0;0.0;4.0
2.0;1753876068.940737;17.21875;0.84;-1.61;-0.35;-0.729072;-0.7137;-0.014396;0.0;0.0;94.0;0.0;0.0;4.0
2.0;1753876068.945308;17.21875;0.84;-1.68;-0.35;-0.729438;-0.713944;-0.013298;0.0;0.0;94.0;0.0;0.0;4.0
2.0;1753876068.949874;17.21875;0.84;-1.68;-0.28;-0.730414;-0.71309;-0.013298;0.0;0.0;94.0;0.0;0.0;4.0
2.0;1753876068.955308;17.234375;0.91;-1.68;-0.28;-0.72956;-0.713456;-0.014762;0.0;0.0;94.0;0.0;0.0;4.0
2.0;1753876068.959959;17.234375;0.98;-1.68;-0.35;-0.729804;-0.714188;-0.014884;0.0;0.0;94.0;0.0;0.0;4.0
2.0;1753876068.968135;17.234375;0.91;-1.68;-0.35;-0.72956;-0.715896;-0.013908;0.0;0.0;95.0;0.0;0.0;5.0
2.0;1753876068.972652;17.257812;0.77;-1.68;-0.35;-0.72956;-0.715896;-0.013908;0.0;0.0;95.0;0.0;0.0;5.0
2.0;1753876068.97733;17.257812;0.98;-1.61;-0.35;-0.729926;-0.712358;-0.013786;0.0;0.0;95.0;0.0;0.0;5.0
2.0;1753876068.981886;17.257812;0.98;-1.68;-0.35;-0.73017;-0.714676;-0.013786;0.0;0.0;95.0;0.0;0.0;5.0
2.0;1753876068.986453;17.257812;0.84;-1.61;-0.28;-0.729438;-0.714188;-0.0122;0.0;0.0;95.0;0.0;0.0;5.0
2.0;1753876068.991905;17.234375;0.91;-1.54;-0.35;-0.730902;-0.714554;-0.01464;0.0;0.0;95.0;0.0;0.0;5.0
2.0;1753876068.995519;17.234375;0.84;-1.61;-0.21;-0.730902;-0.714554;-0.01464;0.0;0.0;95.0;0.0;0.0;5.0
2.0;1753876069.000112;17.2318;0.85;-1.66;-0.25;-0.731042;-0.712521;-0.013876;0.0;0.0;95.9;0.0;0.0;4.5
2.0;1753876069.004705;17.251932;0.82;-1.6;-0.19;-0.731631;-0.712927;-0.015627;0.0;0.0;92.8;0.0;0.0;4.7
2.0;1753876069.009298;17.25017;0.96;-1.6;-0.29;-0.732304;-0.714422;-0.014476;0.0;0.0;96.3;0.0;0.0;5.3
2.0;1753876069.01389;17.230808;0.82;-1.56;-0.13;-0.72866;-0.713963;-0.014269;0.0;0.0;93.1;0.0;0.0;4.8
2.0;1753876069.018484;17.211938;0.89;-1.55;-0.24;-0.731719;-0.712235;-0.014951;0.0;0.0;90.2;0.0;0.0;5.0
2.0;1753876069.023076;17.219791;0.79;-1.69;-0.33;-0.731778;-0.71587;-0.01352;0.0;0.0;94.3;0.0;0.0;4.9
2.0;1753876069.027669;17.238908;0.8;-1.66;-0.21;-0.731498;-0.716518;-0.014445;0.0;0.0;93.7;0.0;0.0;4.9
2.0;1753876069.032262;17.252526;0.88;-1.71;-0.26;-0.727204;-0.716692;-0.015697;0.0;0.0;95.6;0.0;0.0;4.7
2.0;1753876069.036855;17.249673;0.88;-1.6;-0.2;-0.730679;-0.713788;-0.014565;0.0;0.0;94.5;0.0;0.0;4.2
2.0;1753876069.041448;17.259205;0.76;-1.59;-0.11;-0.733041;-0.716199;-0.014897;0.0;0.0;94.7;0.0;0.0;4.2
2.0;1753876069.046041;17.261187;0.9;-1.6;-0.23;-0.728626;-0.715024;-0.015;0.0;0.0;95.9;0.0;0.0;4.8
2.0;1753876069.050634;17.232816;0.73;-1.61;-0.13;-0.730608;-0.712761;-0.012843;0.0;0.0;95.3;0.0;0.0;5.5
2.0;1753876069.055226;17.21581;0.86;-1.61;-0.19;-0.729744;-0.714844;-0.014485;0.0;0.0;96.0;0.0;0.0;5.6
2.0;1753876069.05982;17.255205;0.87;-1.6;-0.13;-0.732135;-0.714572;-0.014204;0.0;0.0;95.7;0.0;0.0;5.3
2.0;1753876069.064412;17.204887;0.79;-1.47;-0.28;-0.7304;-0.715469;-0.014265;0.0;0.0;95.2;0.0;0.0;5.5
2.0;1753876069.069005;17.247695;0.84;-1.55;-0.13;-0.730433;-0.715833;-0.015477;0.0;0.0;97.2;0.0;0.0;4.7
2.0;1753876069.073598;17.241034;0.84;-1.65;-0.34;-0.731996;-0.713258;-0.015271;0.0;0.0;93.6;0.0;0.0;5.1
2.0;1753876069.078191;17.234241;0.88;-1.66;-0.15;-0.732018;-0.714764;-0.014848;0.0;0.0;93.1;0.0;0.0;5.0
2.0;1753876069.082784;17.215116;0.73;-1.74;-0.19;-0.728105;-0.713124;-0.015865;0.0;0.0;94.5;0.0;0.0;4.5
2.0;1753876069.087377;17.251855;0.9;-1.57;-0.17;-0.728554;-0.714085;-0.015739;0.0;0.0;94.4;0.0;0.0;5.2
2.0;1753876069.09197;17.275587;0.8;-1.67;-0.21;-0.729157;-0.715709;-0.01342;0.0;0.0;93.8;0.0;0.0;5.0
2.0;1753876069.096562;17.229609;0.76;-1.56;-0.21;-0.732661;-0.715729;-0.015156;0.0;0.0;92.9;0.0;0.0;5.3
2.0;1753876069.101156;17.245199;0.82;-1.63;-0.19;-0.734179;-0.712513;-0.01483;0.0;0.0;97.8;0.0;0.0;5.7
2.0;1753876069.105748;17.221556;0.95;-1.62;-0.24;-0.730396;-0.714797;-0.014973;0.0;0.0;98.2;0.0;0.0;5.4
2.0;1753876069.110341;17.228497;0.93;-1.67;-0.25;-0.72912;-0.713917;-0.015201;0.0;0.0;93.9;0.0;0.0;5.1
2.0;1753876069.114934;17.225658;0.8;-1.63;-0.13;-0.731331;-0.714746;-0.014234;0.0;0.0;96.2;0.0;0.0;5.1
2.0;1753876069.119527;17.211096;0.85;-1.72;-0.34;-0.731556;-0.712889;-0.015162;0.0;0.0;93.1;0.0;0.0;4.6
2.0;1753876069.12412;17.249882;0.8;-1.67;-0.28;-0.730678;-0.713111;-0.014099;0.0;0.0;94.5;0.0;0.0;5.2
2.0;1753876069.128713;17.225388;0.98;-1.62;-0.23;-0.732885;-0.715855;-0.014138;0.0;0.0;94.0;0.0;0.0;4.4
2.0;1753876069.133306;17.220775;1.0;-1.6;-0.27;-0.72881;-0.717367;-0.015079;0.0;0.0;96.3;0.0;0.0;4.6
2.0;1753876069.137899;17.243444;0.92;-1.55;-0.26;-0.726081;-0.712794;-0.014751;0.0;0.0;96.4;0.0;0.0;6.0
2.0;1753876069.142492;17.202365;0.87;-1.6;-0.23;-0.732763;-0.715355;-0.014592;0.0;0.0;93.3;0.0;0.0;6.0
2.0;1753876069.147084;17.232178;0.8;-1.6;-0.31;-0.728139;-0.716628;-0.013853;0.0;0.0;92.9;0.0;0.0;5.4
2.0;1753876069.151677;17.228402;0.89;-1.68;-0.29;-0.731334;-0.713799;-0.015044;0.0;0.0;94.4;0.0;0.0;6.0
2.0;1753876069.15627;17.251878;0.78;-1.54;-0.28;-0.734419;-0.713686;-0.015447;0.0;0.0;96.0;0.0;0.0;4.6
2.0;1753876069.160863;17.254046;0.95;-1.65;-0.3;-0.728942;-0.716941;-0.014423;0.0;0.0;96.6;0.0;0.0;4.7
2.0;1753876069.165456;17.233359;0.88;-1.68;-0.3;-0.730418;-0.715786;-0.016504;0.0;0.0;96.6;0.0;0.0;5.6
2.0;1753876069.170049;17.258116;0.97;-1.61;-0.25;-0.731939;-0.713787;-0.01398;0.0;0.0;95.5;0.0;0.0;6.0
2.0;1753876069.174642;17.241033;0.84;-1.68;-0.32;-0.731384;-0.714199;-0.015487;0.0;0.0;97.4;0.0;0.0;4.2
2.0;1753876069.179235;17.203199;0.84;-1.61;-0.23;-0.728843;-0.716135;-0.014534;0.0;0.0;95.9;0.0;0.0;5.4
2.0;1753876069.183828;17.234688;0.94;-1.66;-0.28;-0.730995;-0.716173;-0.015709;0.0;0.0;94.7;0.0;0.0;4.8
2.0;1753876069.18842;17.228696;0.86;-1.66;-0.27;-0.729286;-0.712454;-0.013627;0.0;0.0;94.7;0.0;0.0;5.5
2.0;1753876069.193014;17.240079;0.83;-1.6;-0.28;-0.728766;-0.713411;-0.014527;0.0;0.0;94.5;0.0;0.0;4.6
2.0;1753876069.197606;17.252749;0.91;-1.57;-0.29;-0.730934;-0.716635;-0.01521;0.0;0.0;96.7;0.0;0.0;5.4
2.0;1753876069.202199;17.229383;0.9;-1.63;-0.29;-0.728954;-0.712148;-0.015393;0.0;0.0;95.4;0.0;0.0;4.0
2.0;1753876069.206792;17.241858;0.86;-1.59;-0.35;-0.730057;-0.714049;-0.014934;0.0;0.0;91.6;0.0;0.0;4.9
2.0;1753876069.211385;17.220431;0.9;-1.69;-0.29;-0.73206;-0.714504;-0.017898;0.0;0.0;95.4;0.0;0.0;5.3
2.0;1753876069.215978;17.246421;0.96;-1.59;-0.37;-0.731497;-0.716397;-0.014801;0.0;0.0;99.1;0.0;0.0;5.5
2.0;1753876069.220571;17.23496;0.87;-1.69;-0.28;-0.730507;-0.711934;-0.013487;0.0;0.0;93.6;0.0;0.0;4.4
2.0;1753876069.225164;17.249589;0.95;-1.7;-0.23;-0.730502;-0.714222;-0.014576;0.0;0.0;94.6;0.0;0.0;5.5
2.0;1753876069.229756;17.249018;0.96;-1.69;-0.27;-0.732337;-0.716694;-0.014785;0.0;0.0;95.1;0.0;0.0;4.1
2.0;1753876069.23435;17.220477;0.87;-1.61;-0.33;-0.730074;-0.715794;-0.015002;0.0;0.0;97.1;0.0;0.0;5.7
2.0;1753876069.238942;17.251504;1.03;-1.67;-0.32;-0.731133;-0.711897;-0.016346;0.0;0.0;96.1;0.0;0.0;5.7
2.0;1753876069.243535;17.232101;0.8;-1.68;-0.34;-0.732727;-0.714401;-0.014858;0.0;0.0;96.0;0.0;0.0;4.1
2.0;1753876069.248128;17.250927;0.83;-1.62;-0.26;-0.73255;-0.71199;-0.01452;0.0;0.0;95.5;0.0;0.0;5.2
2.0;1753876069.252721;17.24224;0.86;-1.67;-0.31;-0.729937;-0.715234;-0.014917;0.0;0.0;95.0;0.0;0.0;4.7
2.0;1753876069.257314;17.213985;0.77;-1.65;-0.38;-0.730973;-0.712468;-0.013735;0.0;0.0;92.6;0.0;0.0;5.5
2.0;1753876069.261907;17.23421;0.87;-1.69;-0.33;-0.731627;-0.713937;-0.014754;0.0;0.0;96.3;0.0;0.0;5.8
2.0;1753876069.2665;17.211489;0.96;-1.56;-0.47;-0.73031;-0.715087;-0.014585;0.0;0.0;93.8;0.0;0.0;5.2
2.0;1753876069.271093;17.244705;0.8;-1.65;-0.26;-0.732236;-0.71448;-0.015527;0.0;0.0;94.7;0.0;0.0;4.5
2.0;1753876069.275686;17.249268;0.88;-1.62;-0.22;-0.732391;-0.712845;-0.014573;0.0;0.0;97.3;0.0;0.0;4.0
2.0;1753876069.280278;17.230621;0.9;-1.65;-0.33;-0.728332;-0.712042;-0.01442;0.0;0.0;96.6;0.0;0.0;5.0
2.0;1753876069.284871;17.262117;0.8;-1.65;-0.24;-0.734018;-0.712968;-0.015869;0.0;0.0;95.0;0.0;0.0;5.5
2.0;1753876069.289464;17.230449;0.87;-1.62;-0.26;-0.731388;-0.713574;-0.014341;0.0;0.0;96.4;0.0;0.0;5.2
2.0;1753876069.294057;17.233454;0.85;-1.64;-0.22;-0.729295;-0.711329;-0.014554;0.0;0.0;99.8;0.0;0.0;4.9
2.0;1753876069.29865;17.22348;0.8;-1.71;-0.37;-0.728963;-0.713026;-0.015135;0.0;0.0;94.1;0.0;0.0;4.8
2.0;1753876069.303243;17.260827;0.94;-1.72;-0.37;-0.728891;-0.71499;-0.015605;0.0;0.0;93.8;0.0;0.0;4.9
2.0;1753876069.307836;17.210616;0.96;-1.71;-0.21;-0.729503;-0.71446;-0.014215;0.0;0.0;95.5;0.0;0.0;5.1
2.0;1753876069.312429;17.238922;0.91;-1.62;-0.26;-0.732212;-0.711717;-0.015694;0.0;0.0;94.6;0.0;0.0;5.9
2.0;1753876069.317022;17.236814;0.9;-1.62;-0.32;-0.730931;-0.71465;-0.015834;0.0;0.0;96.2;0.0;0.0;4.9
2.0;1753876069.321614;17.239335;0.87;-1.66;-0.3;-0.73219;-0.713684;-0.014598;0.0;0.0;92.7;0.0;0.0;4.5
2.0;1753876069.326208;17.26815;0.89;-1.58;-0.41;-0.730018;-0.712167;-0.015624;0.0;0.0;95.6;0.0;0.0;5.1
2.0;1753876069.3308;17.240089;0.88;-1.66;-0.31;-0.73245;-0.714045;-0.015122;0.0;0.0;95.6;0.0;0.0;5.0
2.0;1753876069.335393;17.229323;0.98;-1.67;-0.37;-0.731419;-0.712286;-0.014448;0.0;0.0;93.7;0.0;0.0;4.9
2.0;1753876069.339986;17.249001;0.86;-1.71;-0.45;-0.729449;-0.712595;-0.013543;0.0;0.0;95.4;0.0;0.0;4.9
2.0;1753876069.344579;17.238699;0.78;-1.59;-0.3;-0.730021;-0.714413;-0.016027;0.0;0.0;95.8;0.0;0.0;5.9
2.0;1753876069.349172;17.232311;0.89;-1.68;-0.37;-0.72956;-0.713886;-0.014524;0.0;0.0;97.6;0.0;0.0;5.1
2.0;1753876069.353765;17.207994;0.85;-1.67;-0.28;-0.729868;-0.713543;-0.015263;0.0;0.0;95.5;0.0;0.0;4.3
2.0;1753876069.358358;17.256028;0.88;-1.61;-0.26;-0.730599;-0.70944;-0.016474;0.0;0.0;93.4;0.0;0.0;5.3
2.0;1753876069.36295;17.227043;0.96;-1.68;-0.34;-0.73261;-0.71168;-0.013959;0.0;0.0;93.0;0.0;0.0;5.0
2.0;1753876069.367544;17.219262;1.01;-1.67;-0.37;-0.730865;-0.71607;-0.014637;0.0;0.0;92.5;0.0;0.0;4.6
2.0;1753876069.372136;17.249548;0.88;-1.67;-0.39;-0.732305;-0.713478;-0.014725;0.0;0.0;99.9;0.0;0.0;5.5
2.0;1753876069.376729;17.225026;0.94;-1.69;-0.38;-0.730682;-0.712714;-0.014571;0.0;0.0;97.2;0.0;0.0;4.6
2.0;1753876069.381322;17.239225;0.95;-1.7;-0.38;-0.731723;-0.711636;-0.015452;0.0;0.0;99.1;0.0;0.0;4.8
2.0;1753876069.385915;17.2326;0.98;-1.66;-0.26;-0.733306;-0.714033;-0.014045;0.0;0.0;95.9;0.0;0.0;5.2
2.0;1753876069.390508;17.240187;0.91;-1.7;-0.32;-0.731507;-0.712576;-0.014799;0.0;0.0;91.1;0.0;0.0;5.8
2.0;1753876069.395101;17.231754;0.87;-1.71;-0.38;-0.731786;-0.715339;-0.013973;0.0;0.0;92.9;0.0;0.0;5.4
2.0;1753876069.399694;17.239754;0.92;-1.65;-0.34;-0.733407;-0.715195;-0.014367;0.0;0.0;93.6;0.0;0.0;5.2
2.0;1753876069.404286;17.236018;0.99;-1.7;-0.42;-0.731716;-0.712988;-0.014367;0.0;0.0;93.8;0.0;0.0;5.0
2.0;1753876069.40888;17.232274;0.95;-1.67;-0.3;-0.730225;-0.713577;-0.015666;0.0;0.0;88.6;0.0;0.0;4.6
2.0;1753876069.4142;17.234375;0.91;-1.68;-0.35;-0.731024;-0.713212;-0.015128;0.0;0.0;95.0;0.0;0.0;5.0
2.0;1753876069.418793;17.250038;0.88;-1.67;-0.41;-0.733382;-0.713358;-0.014475;0.0;0.0;97.5;0.0;0.0;4.9
2.0;1753876069.423386;17.23695;0.95;-1.75;-0.37;-0.730891;-0.713709;-0.015939;0.0;0.0;96.9;0.0;0.0;4.0
2.0;1753876069.427979;17.238926;0.93;-1.72;-0.38;-0.729458;-0.710792;-0.014539;0.0;0.0;95.8;0.0;0.0;5.6
2.0;1753876069.432572;17.233049;0.94;-1.63;-0.37;-0.73415;-0.711198;-0.015292;0.0;0.0;96.0;0.0;0.0;5.1
2.0;1753876069.437164;17.240801;0.84;-1.65;-0.34;-0.731349;-0.71278;-0.015196;0.0;0.0;95.8;0.0;0.0;5.0
2.0;1753876069.441758;17.197777;0.93;-1.65;-0.41;-0.729626;-0.712303;-0.013933;0.0;0.0;93.3;0.0;0.0;4.6
2.0;1753876069.44635;17.251375;0.83;-1.65;-0.3;-0.72894;-0.715047;-0.016233;0.0;0.0;96.2;0.0;0.0;4.8
2.0;1753876069.450943;17.258685;0.84;-1.7;-0.48;-0.729589;-0.709317;-0.013659;0.0;0.0;96.9;0.0;0.0;4.9
2.0;1753876069.455536;17.234983;0.97;-1.55;-0.38;-0.731503;-0.712572;-0.014698;0.0;0.0;93.5;0.0;0.0;4.9
2.0;1753876069.460129;17.230753;0.9;-1.62;-0.35;-0.731905;-0.712425;-0.014517;0.0;0.0;95.4;0.0;0.0;4.6
2.0;1753876069.4655;17.234375;0.91;-1.61;-0.35;-0.731024;-0.713212;-0.015128;0.0;0.0;95.0;0.0;0.0;5.0
2.0;1753876069.470093;17.244539;0.85;-1.69;-0.38;-0.730722;-0.715041;-0.014851;0.0;0.0;94.0;0.0;0.0;4.9
2.0;1753876069.474686;17.262141;0.79;-1.56;-0.37;-0.732314;-0.711888;-0.01536;0.0;0.0;95.0;0.0;0.0;4.0
2.0;1753876069.479279;17.212717;0.88;-1.63;-0.28;-0.733092;-0.715191;-0.01559;0.0;0.0;94.7;0.0;0.0;5.5
2.0;1753876069.483872;17.247564;0.96;-1.61;-0.37;-0.732242;-0.71391;-0.015995;0.0;0.0;95.0;0.0;0.0;3.6
2.0;1753876069.488464;17.237296;0.9;-1.62;-0.36;-0.73021;-0.712712;-0.013827;0.0;0.0;94.4;0.0;0.0;5.9
2.0;1753876069.493058;17.231677;0.79;-1.62;-0.3;-0.73171;-0.715523;-0.015965;0.0;0.0;94.2;0.0;0.0;6.1
2.0;1753876069.49765;17.240609;0.84;-1.61;-0.34;-0.732606;-0.711432;-0.0146;0.0;0.0;95.3;0.0;0.0;5.3
2.0;1753876069.502243;17.244382;0.95;-1.62;-0.36;-0.727603;-0.714041;-0.01511;0.0;0.0;95.4;0.0;0.0;4.8
2.0;1753876069.506836;17.238577;0.88;-1.65;-0.34;-0.731493;-0.715737;-0.014845;0.0;0.0;95.4;0.0;0.0;5.5
2.0;1753876069.511429;17.219604;0.91;-1.59;-0.39;-0.730082;-0.712261;-0.014797;0.0;0.0;95.0;0.0;0.0;4.8
2.0;1753876069.516022;17.247524;0.93;-1.62;-0.36;-0.728383;-0.710524;-0.015652;0.0;0.0;94.7;0.0;0.0;4.9
2.0;1753876069.520615;17.235898;0.89;-1.54;-0.38;-0.731871;-0.711223;-0.015033;0.0;0.0;95.0;0.0;0.0;5.1
2.0;1753876069.525208;17.247154;0.85;-1.57;-0.33;-0.729941;-0.713999;-0.014859;0.0;0.0;94.5;0.0;0.0;4.4
2.0;1753876069.529801;17.218913;0.91;-1.68;-0.42;-0.733534;-0.713797;-0.014638;0.0;0.0;94.6;0.0;0.0;6.0
2.0;1753876069.534394;17.271117;0.77;-1.63;-0.29;-0.731654;-0.710161;-0.015734;0.0;0.0;95.6;0.0;0.0;5.6
2.0;1753876069.538986;17.260298;0.87;-1.67;-0.32;-0.730465;-0.712468;-0.014918;0.0;0.0;94.4;0.0;0.0;4.3
2.0;1753876069.543579;17.238073;0.8;-1.62;-0.35;-0.733644;-0.712135;-0.016455;0.0;0.0;94.7;0.0;0.0;5.6
2.0;1753876069.548172;17.251704;0.94;-1.68;-0.37;-0.732048;-0.713363;-0.015115;0.0;0.0;95.2;0.0;0.0;4.5
2.0;1753876069.552765;17.246211;0.73;-1.57;-0.26;-0.731894;-0.713189;-0.014395;0.0;0.0;95.2;0.0;0.0;5.7
2.0;1753876069.557358;17.210264;0.84;-1.64;-0.34;-0.730909;-0.709879;-0.013664;0.0;0.0;94.9;0.0;0.0;4.6
2.0;1753876069.561951;17.261367;0.91;-1.55;-0.43;-0.733413;-0.709084;-0.014419;0.0;0.0;95.1;0.0;0.0;5.3
2.0;1753876069.566544;17.204151;0.85;-1.59;-0.29;-0.729629;-0.711557;-0.014933;0.0;0.0;95.0;0.0;0.0;4.9
2.0;1753876069.571137;17.236451;0.94;-1.52;-0.26;-0.73154;-0.711808;-0.015273;0.0;0.0;95.1;0.0;0.0;4.1
2.0;1753876069.57573;17.243747;0.89;-1.74;-0.43;-0.730269;-0.712865;-0.014422;0.0;0.0;95.7;0.0;0.0;4.8
2.0;1753876069.580322;17.242509;0.92;-1.65;-0.28;-0.731509;-0.712621;-0.015107;0.0;0.0;95.5;0.0;0.0;5.0
2.0;1753876069.584916;17.209048;0.89;-1.61;-0.39;-0.733544;-0.717536;-0.014716;0.0;0.0;95.7;0.0;0.0;5.7
2.0;1753876069.589508;17.237174;0.89;-1.63;-0.34;-0.730739;-0.71225;-0.014608;0.0;0.0;95.0;0.0;0.0;5.5
2.0;1753876069.594101;17.245105;0.9;-1.64;-0.32;-0.733918;-0.713921;-0.015952;0.0;0.0;94.8;0.0;0.0;4.9
2.0;1753876069.598694;17.240241;0.86;-1.62;-0.33;-0.73312;-0.714499;-0.015343;0.0;0.0;94.8;0.0;0.0;4.8
2.0;1753876069.603287;17.243958;0.95;-1.65;-0.37;-0.731121;-0.713562;-0.015146;0.0;0.0;94.9;0.0;0.0;5.4
2.0;1753876069.60788;17.262617;1.03;-1.56;-0.28;-0.729484;-0.710467;-0.015395;0.0;0.0;94.6;0.0;0.0;4.3
2.0;1753876069.612473;17.246167;0.82;-1.67;-0.33;-0.736031;-0.71058;-0.013773;0.0;0.0;94.7;0.0;0.0;4.5
2.0;1753876069.617066;17.238277;0.95;-1.63;-0.32;-0.732933;-0.714138;-0.014679;0.0;0.0;95.0;0.0;0.0;5.4
2.0;1753876069.621658;17.248122;0.98;-1.65;-0.39;-0.730106;-0.710903;-0.013792;0.0;0.0;95.8;0.0;0.0;5.3
2.0;1753876069.626252;17.259351;0.86;-1.55;-0.35;-0.733067;-0.712829;-0.014801;0.0;0.0;95.6;0.0;0.0;4.6
2.0;1753876069.630844;17.222202;0.88;-1.64;-0.35;-0.732369;-0.711297;-0.014521;0.0;0.0;94.9;0.0;0.0;4.4
2.0;1753876069.635437;17.242349;0.77;-1.62;-0.33;-0.733811;-0.710987;-0.014868;0.0;0.0;94.7;0.0;0.0;5.6
2.0;1753876069.64003;17.247753;0.99;-1.66;-0.35;-0.729803;-0.7118;-0.014385;0.0;0.0;94.9;0.0;0.0;4.4
2.0;1753876069.644623;17.251612;0.92;-1.61;-0.31;-0.728365;-0.710417;-0.014148;0.0;0.0;93.9;0.0;0.0;5.9
2.0;1753876069.649216;17.24311;0.81;-1.51;-0.34;-0.730531;-0.713107;-0.012889;0.0;0.0;95.1;0.0;0.0;4.6
2.0;1753876069.653809;17.2662;0.95;-1.59;-0.31;-0.730525;-0.714766;-0.014409;0.0;0.0;94.9;0.0;0.0;4.5
2.0;1753876069.658402;17.217317;0.72;-1.65;-0.34;-0.732083;-0.712495;-0.015327;0.0;0.0;95.3;0.0;0.0;5.4
2.0;1753876069.662994;17.247719;0.83;-1.6;-0.4;-0.734295;-0.711093;-0.013968;0.0;0.0;94.7;0.0;0.0;5.0
2.0;1753876069.667588;17.22978;0.81;-1.71;-0.3;-0.73127;-0.71178;-0.015061;0.0;0.0;94.4;0.0;0.0;4.7
2.0;1753876069.67218;17.242274;0.81;-1.63;-0.35;-0.73246;-0.711314;-0.01443;0.0;0.0;95.0;0.0;0.0;4.8
2.0;1753876069.676773;17.233669;0.74;-1.66;-0.4;-0.73077;-0.71139;-0.01419;0.0;0.0;95.6;0.0;0.0;5.0
2.0;1753876069.681366;17.241727;0.85;-1.63;-0.31;-0.734277;-0.71271;-0.014978;0.0;0.0;95.6;0.0;0.0;4.6
2.0;1753876069.685959;17.246834;0.93;-1.61;-0.35;-0.734415;-0.711764;-0.01441;0.0;0.0;94.3;0.0;0.0;5.3
2.0;1753876069.690552;17.232363;0.83;-1.7;-0.36;-0.733876;-0.714117;-0.013493;0.0;0.0;94.6;0.0;0.0;4.7
2.0;1753876069.695145;17.239709;0.81;-1.7;-0.4;-0.731015;-0.712639;-0.015707;0.0;0.0;95.0;0.0;0.0;5.6
2.0;1753876069.699738;17.248298;0.73;-1.55;-0.38;-0.731347;-0.71192;-0.015186;0.0;0.0;94.6;0.0;0.0;5.3
2.0;1753876069.704331;17.241432;0.82;-1.66;-0.34;-0.732422;-0.713126;-0.01495;0.0;0.0;94.8;0.0;0.0;4.9
2.0;1753876069.708924;17.227824;0.85;-1.63;-0.38;-0.731275;-0.710057;-0.01468;0.0;0.0;95.1;0.0;0.0;4.2
2.0;1753876069.713516;17.221086;0.78;-1.71;-0.4;-0.729463;-0.709878;-0.016099;0.0;0.0;94.6;0.0;0.0;4.8
2.0;1753876069.718109;17.246965;0.9;-1.68;-0.46;-0.733926;-0.712651;-0.014462;0.0;0.0;95.0;0.0;0.0;5.1
2.0;1753876069.722702;17.244096;0.84;-1.6;-0.34;-0.729894;-0.711175;-0.014291;0.0;0.0;95.4;0.0;0.0;5.0
2.0;1753876069.727295;17.246616;0.88;-1.73;-0.38;-0.728874;-0.71288;-0.014162;0.0;0.0;95.3;0.0;0.0;5.5
2.0;1753876069.731888;17.239587;0.91;-1.58;-0.31;-0.730234;-0.710041;-0.014439;0.0;0.0;95.1;0.0;0.0;5.9
2.0;1753876069.736481;17.240588;0.82;-1.65;-0.33;-0.732634;-0.711619;-0.014613;0.0;0.0;94.4;0.0;0.0;5.2
2.0;1753876069.741074;17.234428;0.82;-1.74;-0.39;-0.735934;-0.712932;-0.014531;0.0;0.0;94.9;0.0;0.0;4.6
2.0;1753876069.745667;17.238515;0.8;-1.63;-0.43;-0.732863;-0.71443;-0.014314;0.0;0.0;94.3;0.0;0.0;4.9
2.0;1753876069.75026;17.206801;0.81;-1.66;-0.41;-0.73042;-0.713639;-0.015721;0.0;0.0;94.3;0.0;0.0;5.6
2.0;1753876069.754852;17.259758;0.88;-1.63;-0.47;-0.729199;-0.713089;-0.014371;0.0;0.0;95.6;0.0;0.0;5.0
2.0;1753876069.759446;17.252014;0.9;-1.6;-0.39;-0.73023;-0.713015;-0.013803;0.0;0.0;95.5;0.0;0.0;5.6
2.0;1753876069.764038;17.241638;0.83;-1.62;-0.3;-0.733053;-0.715353;-0.013449;0.0;0.0;94.8;0.0;0.0;5.5
2.0;1753876069.768631;17.221946;0.8;-1.71;-0.42;-0.731692;-0.711587;-0.015436;0.0;0.0;94.5;0.0;0.0;5.1
2.0;1753876069.773224;17.260361;0.72;-1.67;-0.33;-0.73286;-0.71382;-0.014168;0.0;0.0;95.3;0.0;0.0;5.4
2.0;1753876069.777817;17.244184;0.85;-1.7;-0.44;-0.728981;-0.711968;-0.015194;0.0;0.0;94.9;0.0;0.0;5.2
2.0;1753876069.78241;17.24247;0.81;-1.65;-0.32;-0.730655;-0.711439;-0.015266;0.0;0.0;94.8;0.0;0.0;5.2
2.0;1753876069.787003;17.248419;0.75;-1.7;-0.26;-0.730516;-0.711101;-0.012199;0.0;0.0;94.2;0.0;0.0;5.1
2.0;1753876069.791596;17.25685;0.84;-1.62;-0.26;-0.730765;-0.710472;-0.014434;0.0;0.0;95.1;0.0;0.0;5.5
2.0;1753876069.796188;17.215966;0.84;-1.78;-0.38;-0.732279;-0.712293;-0.014623;0.0;0.0;94.9;0.0;0.0;4.4
2.0;1753876069.800782;17.261451;0.86;-1.67;-0.37;-0.734658;-0.713005;-0.015534;0.0;0.0;95.0;0.0;0.0;5.2
2.0;1753876069.805374;17.260574;0.77;-1.59;-0.35;-0.731477;-0.71349;-0.013936;0.0;0.0;95.4;0.0;0.0;4.9
2.0;1753876069.809967;17.241029;0.72;-1.67;-0.36;-0.729352;-0.713513;-0.014742;0.0;0.0;95.1;0.0;0.0;4.6
2.0;1753876069.81456;17.24441;0.93;-1.62;-0.3;-0.732255;-0.71214;-0.014966;0.0;0.0;95.3;0.0;0.0;5.7
2.0;1753876069.819153;17.247714;0.85;-1.71;-0.32;-0.733554;-0.714991;-0.014844;0.0;0.0;95.4;0.0;0.0;4.2
2.0;1753876069.823746;17.269432;0.89;-1.64;-0.34;-0.730952;-0.712702;-0.014108;0.0;0.0;93.9;0.0;0.0;5.4
2.0;1753876069.828339;17.255135;0.77;-1.7;-0.46;-0.728905;-0.70936;-0.015374;0.0;0.0;95.8;0.0;0.0;5.4
2.0;1753876069.832932;17.262432;0.89;-1.7;-0.37;-0.735475;-0.711778;-0.016436;0.0;0.0;95.2;0.0;0.0;5.3
2.0;1753876069.837525;17.267682;0.87;-1.65;-0.28;-0.731306;-0.712415;-0.015112;0.0;0.0;94.2;0.0;0.0;4.4
2.0;1753876069.842118;17.240272;0.82;-1.73;-0.32;-0.73388;-0.713124;-0.015186;0.0;0.0;94.8;0.0;0.0;4.1
2.0;1753876069.84671;17.288365;0.79;-1.67;-0.34;-0.730017;-0.715059;-0.01416;0.0;0.0;95.3;0.0;0.0;4.5
2.0;1753876069.851303;17.244596;0.88;-1.63;-0.42;-0.734597;-0.713397;-0.014623;0.0;0.0;96.2;0.0;0.0;5.0
2.0;1753876069.855896;17.242551;0.76;-1.76;-0.31;-0.731458;-0.713199;-0.015053;0.0;0.0;95.1;0.0;0.0;5.3
2.0;1753876069.860489;17.265756;0.75;-1.62;-0.33;-0.732665;-0.711015;-0.014589;0.0;0.0;95.8;0.0;0.0;5.3
2.0;1753876069.865082;17.269573;0.75;-1.62;-0.34;-0.734685;-0.710567;-0.013287;0.0;0.0;95.5;0.0;0.0;5.2
2.0;1753876069.869675;17.238817;0.94;-1.64;-0.36;-0.73362;-0.709975;-0.014863;0.0;0.0;94.5;0.0;0.0;4.1
2.0;1753876069.874268;17.263016;0.76;-1.7;-0.32;-0.73354;-0.713319;-0.014354;0.0;0.0;96.0;0.0;0.0;4.9
2.0;1753876069.878861;17.270091;0.89;-1.66;-0.31;-0.731701;-0.710828;-0.013034;0.0;0.0;95.0;0.0;0.0;5.4
2.0;1753876069.883454;17.256392;0.77;-1.68;-0.42;-0.734429;-0.709945;-0.014013;0.0;0.0;95.2;0.0;0.0;5.2
2.0;1753876069.888046;17.252795;0.83;-1.59;-0.43;-0.731674;-0.709348;-0.014387;0.0;0.0;95.8;0.0;0.0;4.9
2.0;1753876069.89264;17.255314;0.82;-1.77;-0.25;-0.732494;-0.710378;-0.013189;0.0;0.0;95.0;0.0;0.0;5.2
2.0;1753876069.897232;17.289756;0.79;-1.7;-0.27;-0.733132;-0.711377;-0.014481;0.0;0.0;94.7;0.0;0.0;5.6
2.0;1753876069.901825;17.251843;0.79;-1.73;-0.31;-0.732467;-0.712256;-0.014095;0.0;0.0;94.7;0.0;0.0;5.4
2.0;1753876069.906418;17.25704;0.8;-1.59;-0.33;-0.731639;-0.712968;-0.014415;0.0;0.0;94.7;0.0;0.0;4.9
2.0;1753876069.911011;17.24224;0.73;-1.66;-0.31;-0.731471;-0.711351;-0.015972;0.0;0.0;94.8;0.0;0.0;4.5
2.0;1753876069.915604;17.263711;0.83;-1.66;-0.4;-0.732948;-0.711423;-0.013266;0.0;0.0;94.5;0.0;0.0;5.4
2.0;1753876069.920197;17.255406;0.73;-1.58;-0.34;-0.736454;-0.706759;-0.013569;0.0;0.0;95.2;0.0;0.0;4.7
2.0;1753876069.92479;17.242646;0.72;-1.76;-0.39;-0.730742;-0.711389;-0.013364;0.0;0.0;95.4;0.0;0.0;3.9
2.0;1753876069.929382;17.260647;0.8;-1.65;-0.32;-0.730325;-0.708745;-0.013357;0.0;0.0;94.0;0.0;0.0;4.6
2.0;1753876069.9336;17.257812;0.77;-1.68;-0.35;-0.732488;-0.71126;-0.014152;0.0;0.0;95.0;0.0;0.0;5.0
2.0;1753876069.938193;17.260314;0.73;-1.73;-0.28;-0.735195;-0.710524;-0.013232;0.0;0.0;90.8;0.0;0.0;5.3
2.0;1753876069.942786;17.238477;0.92;-1.72;-0.31;-0.732169;-0.712885;-0.014361;0.0;0.0;94.0;0.0;0.0;5.0
2.0;1753876069.947379;17.233899;0.79;-1.64;-0.31;-0.732393;-0.711263;-0.013934;0.0;0.0;93.3;0.0;0.0;4.6
2.0;1753876069.951972;17.23054;0.9;-1.6;-0.27;-0.729768;-0.715087;-0.013948;0.0;0.0;92.3;0.0;0.0;4.8
2.0;1753876069.956564;17.241851;0.9;-1.63;-0.29;-0.727461;-0.71564;-0.013162;0.0;0.0;97.3;0.0;0.0;4.8
2.0;1753876069.96418;17.234375;0.91;-1.61;-0.28;-0.727974;-0.71431;-0.013542;0.0;0.0;88.0;0.0;0.0;5.0
2.0;1753876069.965192;17.195312;0.91;-1.68;-0.42;-0.734562;-0.709796;-0.012078;0.0;0.0;99.0;0.0;0.0;5.0
2.0;1753876069.969829;17.195312;0.84;-1.68;-0.35;-0.731146;-0.713944;-0.01403;0.0;0.0;99.0;0.0;0.0;5.0
2.0;1753876069.974406;17.195312;0.77;-1.68;-0.28;-0.730902;-0.712358;-0.012932;0.0;0.0;99.0;0.0;0.0;5.0
2.0;1753876069.978999;17.154991;0.69;-1.78;-0.21;-0.728862;-0.709515;-0.014762;0.0;0.0;108.5;0.0;0.0;4.9
2.0;1753876069.983473;17.175781;0.77;-1.75;-0.28;-0.729682;-0.714554;-0.014152;0.0;0.0;99.0;0.0;0.0;5.0
2.0;1753876069.988174;17.175781;0.84;-1.68;-0.21;-0.729316;-0.713456;-0.013542;0.0;0.0;99.0;0.0;0.0;5.0
2.0;1753876069.993353;17.175781;0.98;-1.68;-0.28;-0.731756;-0.712602;-0.014152;0.0;0.0;99.0;0.0;0.0;5.0
2.0;1753876069.997946;17.143385;1.03;-1.72;-0.26;-0.733227;-0.713802;-0.011995;0.0;0.0;102.1;0.0;0.0;4.2
2.0;1753876070.002539;17.189228;0.98;-1.72;-0.4;-0.732316;-0.714031;-0.015401;0.0;0.0;98.2;0.0;0.0;5.1
2.0;1753876070.007132;17.15843;0.95;-1.64;-0.32;-0.729058;-0.711303;-0.014558;0.0;0.0;98.9;0.0;0.0;4.4
2.0;1753876070.011724;17.18203;0.98;-1.69;-0.36;-0.729002;-0.713013;-0.015922;0.0;0.0;97.8;0.0;0.0;5.1
2.0;1753876070.016317;17.20023;0.9;-1.63;-0.38;-0.731809;-0.716241;-0.014454;0.0;0.0;96.6;0.0;0.0;4.9
2.0;1753876070.02091;17.186684;0.96;-1.65;-0.4;-0.729575;-0.7115;-0.014497;0.0;0.0;94.5;0.0;0.0;4.4
2.0;1753876070.025503;17.158336;0.96;-1.68;-0.23;-0.730076;-0.716102;-0.013735;0.0;0.0;101.5;0.0;0.0;4.6
2.0;1753876070.030096;17.151901;0.94;-1.68;-0.26;-0.731288;-0.717771;-0.014598;0.0;0.0;96.5;0.0;0.0;5.1
2.0;1753876070.034689;17.263777;0.97;-1.67;-0.22;-0.729568;-0.71439;-0.015143;0.0;0.0;96.9;0.0;0.0;4.4
2.0;1753876070.039282;17.204936;0.99;-1.71;-0.29;-0.728997;-0.714875;-0.013641;0.0;0.0;97.0;0.0;0.0;4.6
2.0;1753876070.043875;17.148623;1.06;-1.63;-0.32;-0.731803;-0.716647;-0.014219;0.0;0.0;103.4;0.0;0.0;4.4
2.0;1753876070.048468;17.227551;0.87;-1.6;-0.25;-0.731568;-0.714644;-0.013729;0.0;0.0;94.0;0.0;0.0;4.1
2.0;1753876070.05306;17.186349;0.98;-1.7;-0.33;-0.732488;-0.713352;-0.013746;0.0;0.0;94.5;0.0;0.0;4.8
2.0;1753876070.057654;17.156923;0.97;-1.65;-0.27;-0.729046;-0.715166;-0.013659;0.0;0.0;102.4;0.0;0.0;4.2
2.0;1753876070.062246;17.133773;1.04;-1.67;-0.4;-0.730094;-0.715685;-0.013551;0.0;0.0;95.6;0.0;0.0;4.0
2.0;1753876070.066839;17.152989;0.9;-1.71;-0.29;-0.731622;-0.716373;-0.012615;0.0;0.0;100.6;0.0;0.0;4.8
2.0;1753876070.071432;17.150789;0.94;-1.65;-0.29;-0.728527;-0.716445;-0.014763;0.0;0.0;96.4;0.0;0.0;4.6
2.0;1753876070.076025;17.177633;0.92;-1.63;-0.34;-0.727432;-0.715836;-0.013979;0.0;0.0;99.1;0.0;0.0;3.8
2.0;1753876070.080618;17.194188;0.95;-1.74;-0.39;-0.727349;-0.71238;-0.012654;0.0;0.0;98.8;0.0;0.0;3.8
2.0;1753876070.085211;17.17686;0.87;-1.69;-0.27;-0.730077;-0.716903;-0.014931;0.0;0.0;97.6;0.0;0.0;4.4
2.0;1753876070.089804;17.207673;1.04;-1.68;-0.27;-0.726287;-0.714646;-0.014591;0.0;0.0;95.3;0.0;0.0;4.8
2.0;1753876070.094396;17.183922;0.9;-1.71;-0.37;-0.725766;-0.713515;-0.013838;0.0;0.0;98.2;0.0;0.0;4.2
2.0;1753876070.09899;17.183961;0.99;-1.67;-0.43;-0.727516;-0.716488;-0.013852;0.0;0.0;96.5;0.0;0.0;4.1
2.0;1753876070.103582;17.169783;0.94;-1.74;-0.4;-0.727234;-0.7182;-0.013713;0.0;0.0;98.5;0.0;0.0;4.3
2.0;1753876070.108175;17.184541;0.94;-1.68;-0.31;-0.724124;-0.718329;-0.014768;0.0;0.0;95.8;0.0;0.0;4.2
2.0;1753876070.1166;17.175781;0.91;-1.68;-0.35;-0.727364;-0.716872;-0.014396;0.0;0.0;93.0;0.0;0.0;4.0
2.0;1753876070.121193;17.139693;0.87;-1.62;-0.3;-0.727228;-0.717637;-0.013959;0.0;0.0;98.9;0.0;0.0;3.9
2.0;1753876070.125786;17.181882;0.93;-1.68;-0.37;-0.731325;-0.718322;-0.015292;0.0;0.0;98.9;0.0;0.0;4.6
2.0;1753876070.130379;17.179291;0.87;-1.68;-0.32;-0.72602;-0.715648;-0.013769;0.0;0.0;93.2;0.0;0.0;3.7
2.0;1753876070.134972;17.124901;0.78;-1.71;-0.35;-0.728118;-0.716324;-0.014051;0.0;0.0;94.8;0.0;0.0;3.5
2.0;1753876070.139564;17.171802;0.87;-1.66;-0.41;-0.72883;-0.713327;-0.012244;0.0;0.0;94.8;0.0;0.0;3.8
2.0;1753876070.144158;17.162145;0.82;-1.66;-0.4;-0.732095;-0.718482;-0.013245;0.0;0.0;89.5;0.0;0.0;4.1
2.0;1753876070.14875;17.208278;0.88;-1.6;-0.3;-0.730722;-0.715443;-0.012754;0.0;0.0;96.3;0.0;0.0;5.0
2.0;1753876070.153343;17.211476;0.79;-1.71;-0.34;-0.729585;-0.711487;-0.013795;0.0;0.0;96.0;0.0;0.0;3.4
2.0;1753876070.157936;17.167781;0.76;-1.69;-0.31;-0.730965;-0.715133;-0.014262;0.0;0.0;92.7;0.0;0.0;3.9
2.0;1753876070.162529;17.153688;0.81;-1.69;-0.38;-0.730762;-0.711556;-0.013529;0.0;0.0;88.1;0.0;0.0;4.1
2.0;1753876070.167122;17.170392;0.82;-1.67;-0.3;-0.731662;-0.71538;-0.012877;0.0;0.0;95.4;0.0;0.0;4.6
2.0;1753876070.171715;17.144733;0.75;-1.76;-0.28;-0.728874;-0.713212;-0.012939;0.0;0.0;92.0;0.0;0.0;4.3
2.0;1753876070.176308;17.137446;0.78;-1.66;-0.3;-0.733802;-0.712889;-0.011309;0.0;0.0;89.2;0.0;0.0;3.4
2.0;1753876070.1846;17.175781;0.77;-1.68;-0.28;-0.73322;-0.71187;-0.011956;0.0;0.0;93.0;0.0;0.0;4.0
2.0;1753876070.189193;17.187583;0.8;-1.71;-0.26;-0.734137;-0.709806;-0.011215;0.0;0.0;89.8;0.0;0.0;3.7
2.0;1753876070.193786;17.191828;0.83;-1.74;-0.26;-0.734248;-0.7134;-0.010696;0.0;0.0;88.5;0.0;0.0;3.8
2.0;1753876070.198379;17.151738;0.76;-1.68;-0.23;-0.729408;-0.711587;-0.010613;0.0;0.0;90.4;0.0;0.0;4.4
2.0;1753876070.202972;17.204723;0.84;-1.62;-0.21;-0.731976;-0.713276;-0.012699;0.0;0.0;92.9;0.0;0.0;4.4
2.0;1753876070.207564;17.178923;0.82;-1.7;-0.25;-0.730265;-0.710617;-0.012674;0.0;0.0;96.3;0.0;0.0;3.6
2.0;1753876070.212158;17.186402;0.73;-1.71;-0.12;-0.73416;-0.714772;-0.011416;0.0;0.0;88.7;0.0;0.0;3.0
2.0;1753876070.21675;17.15638;0.73;-1.67;-0.3;-0.731927;-0.710466;-0.01086;0.0;0.0;88.6;0.0;0.0;4.6
2.0;1753876070.221343;17.205712;0.77;-1.73;-0.29;-0.732265;-0.711899;-0.011389;0.0;0.0;93.2;0.0;0.0;3.4
2.0;1753876070.225936;17.14788;0.84;-1.68;-0.25;-0.735178;-0.714583;-0.012609;0.0;0.0;97.0;0.0;0.0;4.4
2.0;1753876070.230529;17.172167;0.73;-1.72;-0.3;-0.731567;-0.713514;-0.010998;0.0;0.0;94.1;0.0;0.0;4.6
2.0;1753876070.235122;17.182251;0.76;-1.64;-0.29;-0.732297;-0.711058;-0.013984;0.0;0.0;98.5;0.0;0.0;3.5
2.0;1753876070.239715;17.192198;0.82;-1.69;-0.36;-0.734436;-0.714039;-0.013051;0.0;0.0;90.5;0.0;0.0;3.7
2.0;1753876070.244308;17.205542;0.69;-1.64;-0.41;-0.732102;-0.712845;-0.01174;0.0;0.0;90.9;0.0;0.0;4.6
2.0;1753876070.248901;17.189476;0.83;-1.63;-0.27;-0.733939;-0.715466;-0.013331;0.0;0.0;90.0;0.0;0.0;3.5
2.0;1753876070.253494;17.146456;0.84;-1.6;-0.35;-0.734552;-0.712394;-0.009575;0.0;0.0;97.3;0.0;0.0;4.6
2.0;1753876070.258086;17.177904;0.73;-1.72;-0.2;-0.731898;-0.710296;-0.010616;0.0;0.0;91.4;0.0;0.0;4.5
2.0;1753876070.262679;17.164532;0.78;-1.72;-0.3;-0.731169;-0.713392;-0.012732;0.0;0.0;94.3;0.0;0.0;3.3
2.0;1753876070.267272;17.163626;0.86;-1.63;-0.26;-0.730953;-0.709556;-0.01221;0.0;0.0;93.2;0.0;0.0;3.5
2.0;1753876070.271865;17.188699;0.79;-1.57;-0.26;-0.731129;-0.712765;-0.012386;0.0;0.0;92.8;0.0;0.0;3.7
2.0;1753876070.276458;17.155679;0.86;-1.69;-0.24;-0.731056;-0.711222;-0.012176;0.0;0.0;83.4;0.0;0.0;4.0
2.0;1753876070.281051;17.225536;0.71;-1.71;-0.25;-0.733973;-0.711662;-0.013575;0.0;0.0;92.3;0.0;0.0;4.0
2.0;1753876070.285644;17.182384;0.73;-1.7;-0.44;-0.73096;-0.713455;-0.012694;0.0;0.0;92.0;0.0;0.0;5.0
2.0;1753876070.290237;17.146196;0.81;-1.73;-0.31;-0.731259;-0.712024;-0.012787;0.0;0.0;89.6;0.0;0.0;4.3
2.0;1753876070.29483;17.184159;0.81;-1.65;-0.25;-0.731223;-0.710802;-0.012276;0.0;0.0;91.4;0.0;0.0;3.7
2.0;1753876070.299422;17.168329;0.74;-1.7;-0.29;-0.733983;-0.71356;-0.013087;0.0;0.0;89.9;0.0;0.0;3.8
2.0;1753876070.304016;17.173709;0.8;-1.75;-0.29;-0.725488;-0.710795;-0.01207;0.0;0.0;95.6;0.0;0.0;3.7
2.0;1753876070.308608;17.175618;0.88;-1.65;-0.29;-0.73046;-0.710686;-0.010099;0.0;0.0;89.6;0.0;0.0;3.8
2.0;1753876070.313201;17.202546;0.66;-1.67;-0.3;-0.731672;-0.714865;-0.013738;0.0;0.0;90.0;0.0;0.0;3.1
2.0;1753876070.317794;17.217839;0.81;-1.75;-0.28;-0.730983;-0.713323;-0.012026;0.0;0.0;93.0;0.0;0.0;4.0
2.0;1753876070.322387;17.145243;0.84;-1.6;-0.22;-0.732948;-0.709714;-0.011645;0.0;0.0;96.8;0.0;0.0;4.6
2.0;1753876070.32698;17.190244;0.83;-1.66;-0.38;-0.730754;-0.710509;-0.012287;0.0;0.0;99.7;0.0;0.0;4.4
2.0;1753876070.331573;17.168888;0.78;-1.72;-0.33;-0.73179;-0.712393;-0.012281;0.0;0.0;88.0;0.0;0.0;4.8
2.0;1753876070.336166;17.176829;0.8;-1.63;-0.25;-0.732401;-0.71231;-0.013804;0.0;0.0;89.7;0.0;0.0;3.8
2.0;1753876070.340758;17.172068;0.88;-1.69;-0.29;-0.732935;-0.714022;-0.012559;0.0;0.0;87.9;0.0;0.0;4.3
2.0;1753876070.345352;17.229743;0.86;-1.64;-0.22;-0.732721;-0.711689;-0.011374;0.0;0.0;96.8;0.0;0.0;4.3
2.0;1753876070.349944;17.161184;0.79;-1.78;-0.36;-0.73069;-0.710222;-0.013479;0.0;0.0;96.3;0.0;0.0;5.3
2.0;1753876070.354537;17.197776;0.82;-1.67;-0.32;-0.727331;-0.709198;-0.012759;0.0;0.0;93.0;0.0;0.0;3.9
2.0;1753876070.35913;17.164059;0.89;-1.63;-0.26;-0.732438;-0.709779;-0.012121;0.0;0.0;93.7;0.0;0.0;4.0
2.0;1753876070.363723;17.159282;0.83;-1.75;-0.33;-0.732963;-0.712046;-0.011144;0.0;0.0;89.1;0.0;0.0;4.6
2.0;1753876070.368316;17.158708;0.82;-1.66;-0.28;-0.726593;-0.709167;-0.013385;0.0;0.0;93.0;0.0;0.0;3.7
2.0;1753876070.372909;17.213569;0.79;-1.67;-0.24;-0.732246;-0.714379;-0.012875;0.0;0.0;94.4;0.0;0.0;3.5
2.0;1753876070.377502;17.172069;0.78;-1.68;-0.23;-0.729009;-0.712439;-0.013063;0.0;0.0;90.9;0.0;0.0;4.1
2.0;1753876070.382094;17.192342;0.78;-1.69;-0.27;-0.73064;-0.711283;-0.013457;0.0;0.0;96.8;0.0;0.0;4.6
2.0;1753876070.386688;17.182803;0.79;-1.7;-0.34;-0.731768;-0.712544;-0.01231;0.0;0.0;95.9;0.0;0.0;4.6
2.0;1753876070.39128;17.155132;0.85;-1.72;-0.29;-0.729497;-0.709768;-0.014416;0.0;0.0;96.0;0.0;0.0;3.8
2.0;1753876070.395873;17.1681;0.76;-1.62;-0.36;-0.731484;-0.715127;-0.012139;0.0;0.0;94.2;0.0;0.0;4.0
2.0;1753876070.400466;17.222275;0.85;-1.7;-0.28;-0.732149;-0.711234;-0.012805;0.0;0.0;94.7;0.0;0.0;4.2
2.0;1753876070.405059;17.180488;0.81;-1.72;-0.31;-0.731528;-0.714297;-0.013259;0.0;0.0;98.5;0.0;0.0;3.5
2.0;1753876070.409652;17.183053;0.76;-1.64;-0.27;-0.731414;-0.714001;-0.013829;0.0;0.0;91.9;0.0;0.0;5.0
2.0;1753876070.414245;17.146339;0.83;-1.65;-0.29;-0.730205;-0.711403;-0.011976;0.0;0.0;91.1;0.0;0.0;3.0
2.0;1753876070.418838;17.171571;0.79;-1.67;-0.31;-0.730044;-0.712526;-0.013017;0.0;0.0;85.9;0.0;0.0;3.1
2.0;1753876070.423431;17.163728;0.75;-1.68;-0.2;-0.728267;-0.710846;-0.012848;0.0;0.0;90.6;0.0;0.0;4.2
2.0;1753876070.428024;17.210328;0.86;-1.68;-0.27;-0.729721;-0.714915;-0.011859;0.0;0.0;92.7;0.0;0.0;4.6
2.0;1753876070.432616;17.204483;0.83;-1.67;-0.28;-0.729767;-0.711926;-0.012256;0.0;0.0;98.9;0.0;0.0;4.1
2.0;1753876070.437209;17.12927;0.81;-1.66;-0.28;-0.731036;-0.715076;-0.012895;0.0;0.0;92.3;0.0;0.0;4.8
2.0;1753876070.441802;17.208192;0.82;-1.67;-0.38;-0.728908;-0.709665;-0.012414;0.0;0.0;98.3;0.0;0.0;3.9
2.0;1753876070.446395;17.175397;0.83;-1.7;-0.22;-0.730596;-0.71103;-0.013226;0.0;0.0;94.0;0.0;0.0;4.5
2.0;1753876070.450988;17.218288;0.83;-1.74;-0.32;-0.734571;-0.713884;-0.011545;0.0;0.0;93.0;0.0;0.0;4.5
2.0;1753876070.455581;17.201516;0.83;-1.63;-0.23;-0.728297;-0.711104;-0.011643;0.0;0.0;90.0;0.0;0.0;4.3
2.0;1753876070.460174;17.152915;0.84;-1.65;-0.36;-0.730973;-0.708022;-0.012156;0.0;0.0;89.7;0.0;0.0;4.3
2.0;1753876070.464767;17.200089;0.74;-1.67;-0.31;-0.729437;-0.712825;-0.01302;0.0;0.0;90.6;0.0;0.0;4.0
2.0;1753876070.46936;17.174685;0.86;-1.62;-0.32;-0.730443;-0.712161;-0.011534;0.0;0.0;88.6;0.0;0.0;4.4
2.0;1753876070.473952;17.155068;0.75;-1.66;-0.33;-0.730217;-0.710338;-0.011785;0.0;0.0;88.0;0.0;0.0;3.9
2.0;1753876070.478546;17.160267;0.87;-1.61;-0.37;-0.728398;-0.710974;-0.011901;0.0;0.0;93.3;0.0;0.0;3.8
2.0;1753876070.483138;17.185289;0.81;-1.72;-0.25;-0.730514;-0.710384;-0.012301;0.0;0.0;92.8;0.0;0.0;3.3
2.0;1753876070.487731;17.186252;0.75;-1.74;-0.27;-0.729151;-0.715019;-0.014027;0.0;0.0;87.9;0.0;0.0;4.0
2.0;1753876070.492324;17.150529;0.8;-1.68;-0.28;-0.731083;-0.715046;-0.012824;0.0;0.0;91.2;0.0;0.0;3.7
2.0;1753876070.496917;17.140291;0.77;-1.69;-0.39;-0.726685;-0.710448;-0.012682;0.0;0.0;89.1;0.0;0.0;3.2
2.0;1753876070.50151;17.149513;0.8;-1.71;-0.36;-0.728979;-0.714329;-0.013797;0.0;0.0;90.5;0.0;0.0;3.7
2.0;1753876070.506103;17.201522;0.71;-1.63;-0.28;-0.724581;-0.710852;-0.014026;0.0;0.0;94.5;0.0;0.0;4.3
2.0;1753876070.510696;17.180436;0.89;-1.59;-0.33;-0.729547;-0.713269;-0.013465;0.0;0.0;90.7;0.0;0.0;5.3
2.0;1753876070.515288;17.217782;0.73;-1.65;-0.3;-0.729521;-0.713062;-0.011641;0.0;0.0;86.5;0.0;0.0;3.7
2.0;1753876070.519882;17.206376;0.85;-1.65;-0.3;-0.730533;-0.713856;-0.011894;0.0;0.0;92.3;0.0;0.0;3.9
2.0;1753876070.524474;17.155178;0.79;-1.7;-0.4;-0.7315;-0.716573;-0.012623;0.0;0.0;96.8;0.0;0.0;4.9
2.0;1753876070.529067;17.151939;0.86;-1.79;-0.34;-0.725849;-0.71658;-0.011392;0.0;0.0;94.1;0.0;0.0;2.9
2.0;1753876070.53366;17.208297;0.79;-1.65;-0.3;-0.729034;-0.715576;-0.013446;0.0;0.0;97.0;0.0;0.0;4.6
2.0;1753876070.538253;17.180585;0.8;-1.65;-0.47;-0.727932;-0.709289;-0.013735;0.0;0.0;94.7;0.0;0.0;4.0
2.0;1753876070.542846;17.183568;0.8;-1.68;-0.19;-0.728435;-0.712348;-0.011492;0.0;0.0;94.6;0.0;0.0;4.0
2.0;1753876070.547439;17.162312;0.84;-1.63;-0.46;-0.728783;-0.712641;-0.012983;0.0;0.0;93.3;0.0;0.0;3.7
2.0;1753876070.552032;17.186531;0.8;-1.7;-0.27;-0.728299;-0.710746;-0.011978;0.0;0.0;94.8;0.0;0.0;4.0
2.0;1753876070.556625;17.164572;0.76;-1.69;-0.39;-0.729724;-0.713934;-0.013185;0.0;0.0;91.8;0.0;0.0;4.7
2.0;1753876070.561218;17.157268;0.82;-1.61;-0.39;-0.729172;-0.713364;-0.014349;0.0;0.0;94.5;0.0;0.0;4.4
2.0;1753876070.56581;17.182899;0.9;-1.69;-0.35;-0.725265;-0.712823;-0.013296;0.0;0.0;92.0;0.0;0.0;4.1
2.0;1753876070.570403;17.215563;0.92;-1.65;-0.34;-0.72688;-0.713252;-0.009577;0.0;0.0;97.9;0.0;0.0;3.6
2.0;1753876070.574996;17.158174;0.72;-1.68;-0.32;-0.728524;-0.714118;-0.012927;0.0;0.0;92.2;0.0;0.0;4.0
2.0;1753876070.579589;17.19652;0.88;-1.7;-0.28;-0.728501;-0.714081;-0.012028;0.0;0.0;96.6;0.0;0.0;3.9
2.0;1753876070.584182;17.191926;0.85;-1.67;-0.34;-0.728028;-0.712932;-0.013913;0.0;0.0;94.5;0.0;0.0;4.7
2.0;1753876070.588775;17.190132;0.93;-1.68;-0.37;-0.728319;-0.71204;-0.01385;0.0;0.0;90.7;0.0;0.0;3.1
2.0;1753876070.593368;17.18054;0.91;-1.67;-0.34;-0.722809;-0.710648;-0.013019;0.0;0.0;91.8;0.0;0.0;2.5
2.0;1753876070.597961;17.192198;0.88;-1.62;-0.38;-0.731259;-0.713494;-0.013345;0.0;0.0;93.3;0.0;0.0;3.3
2.0;1753876070.602554;17.190778;0.78;-1.61;-0.33;-0.727284;-0.7135;-0.014152;0.0;0.0;93.2;0.0;0.0;3.8
2.0;1753876070.607146;17.191044;0.92;-1.69;-0.38;-0.728987;-0.711883;-0.01369;0.0;0.0;97.5;0.0;0.0;3.7
2.0;1753876070.61174;17.147104;0.91;-1.71;-0.38;-0.727052;-0.709216;-0.013031;0.0;0.0;95.4;0.0;0.0;3.9
2.0;1753876070.616332;17.161378;0.83;-1.73;-0.43;-0.726559;-0.714798;-0.012102;0.0;0.0;95.7;0.0;0.0;4.0
2.0;1753876070.620925;17.177723;0.93;-1.63;-0.27;-0.725714;-0.713263;-0.013164;0.0;0.0;94.1;0.0;0.0;3.7
2.0;1753876070.625518;17.181811;0.86;-1.62;-0.3;-0.723908;-0.711815;-0.01382;0.0;0.0;98.5;0.0;0.0;4.4
2.0;1753876070.630111;17.182295;0.97;-1.63;-0.22;-0.726169;-0.710828;-0.012293;0.0;0.0;101.7;0.0;0.0;2.8
2.0;1753876070.634704;17.186401;0.81;-1.62;-0.35;-0.728045;-0.711566;-0.012895;0.0;0.0;102.2;0.0;0.0;4.4
2.0;1753876070.6427;17.175781;0.84;-1.68;-0.35;-0.727608;-0.713334;-0.013298;0.0;0.0;93.0;0.0;0.0;4.0
2.0;1753876070.647293;17.124606;0.87;-1.6;-0.41;-0.730892;-0.715471;-0.012884;0.0;0.0;94.6;0.0;0.0;4.6
2.0;1753876070.651886;17.152201;0.87;-1.78;-0.3;-0.728942;-0.714757;-0.014223;0.0;0.0;86.4;0.0;0.0;4.7
2.0;1753876070.65819;17.132812;0.84;-1.61;-0.28;-0.730658;-0.713944;-0.013664;0.0;0.0;84.0;0.0;0.0;5.0
2.0;1753876070.662783;17.13642;0.85;-1.54;-0.27;-0.73026;-0.713992;-0.014171;0.0;0.0;84.1;0.0;0.0;5.6
2.0;1753876070.667376;17.126056;0.88;-1.61;-0.29;-0.729965;-0.713126;-0.013756;0.0;0.0;87.0;0.0;0.0;5.3
2.0;1753876070.671969;17.122009;0.85;-1.58;-0.33;-0.729197;-0.714086;-0.01361;0.0;0.0;81.3;0.0;0.0;4.3
2.0;1753876070.676562;17.182676;0.78;-1.66;-0.3;-0.730842;-0.712664;-0.012622;0.0;0.0;78.3;0.0;0.0;4.9
2.0;1753876070.681154;17.166395;0.8;-1.62;-0.27;-0.731568;-0.713075;-0.013489;0.0;0.0;83.3;0.0;0.0;5.2
2.0;1753876070.685748;17.173378;0.97;-1.58;-0.41;-0.73027;-0.714766;-0.014233;0.0;0.0;88.8;0.0;0.0;6.0
2.0;1753876070.69034;17.155414;0.88;-1.6;-0.37;-0.729917;-0.713312;-0.013753;0.0;0.0;84.3;0.0;0.0;4.7
2.0;1753876070.694933;17.12698;0.95;-1.66;-0.29;-0.731253;-0.713563;-0.012609;0.0;0.0;84.1;0.0;0.0;5.6
2.0;1753876070.699526;17.178123;0.84;-1.61;-0.36;-0.731126;-0.713907;-0.01336;0.0;0.0;77.1;0.0;0.0;5.5
2.0;1753876070.70457;17.179688;0.91;-1.61;-0.35;-0.730414;-0.71492;-0.01342;0.0;0.0;84.0;0.0;0.0;5.0
2.0;1753876070.709163;17.164804;0.9;-1.67;-0.41;-0.730299;-0.714054;-0.014004;0.0;0.0;86.9;0.0;0.0;5.1
2.0;1753876070.713756;17.176817;0.94;-1.62;-0.36;-0.732477;-0.713607;-0.013732;0.0;0.0;72.9;0.0;0.0;4.1
2.0;1753876070.718349;17.216682;0.87;-1.63;-0.36;-0.728648;-0.714965;-0.01318;0.0;0.0;74.1;0.0;0.0;4.8
2.0;1753876070.722942;17.210414;0.87;-1.62;-0.41;-0.731417;-0.712998;-0.01243;0.0;0.0;80.9;0.0;0.0;4.6
2.0;1753876070.727534;17.158937;0.86;-1.65;-0.39;-0.729373;-0.714356;-0.01333;0.0;0.0;73.9;0.0;0.0;4.8
2.0;1753876070.732128;17.147358;0.82;-1.56;-0.4;-0.731047;-0.71379;-0.013486;0.0;0.0;87.2;0.0;0.0;3.7
2.0;1753876070.73672;17.174326;0.73;-1.71;-0.34;-0.729461;-0.711748;-0.013322;0.0;0.0;87.0;0.0;0.0;5.2
2.0;1753876070.741313;17.15541;0.95;-1.73;-0.28;-0.729973;-0.712277;-0.014243;0.0;0.0;87.7;0.0;0.0;6.1
2.0;1753876070.745906;17.210606;0.86;-1.67;-0.33;-0.7294;-0.71203;-0.013743;0.0;0.0;83.7;0.0;0.0;4.6
2.0;1753876070.75029;17.179688;0.84;-1.68;-0.35;-0.729804;-0.712358;-0.014274;0.0;0.0;84.0;0.0;0.0;5.0
2.0;1753876070.754883;17.19072;0.84;-1.69;-0.36;-0.726066;-0.711552;-0.014329;0.0;0.0;76.8;0.0;0.0;4.5
2.0;1753876070.759476;17.205713;0.86;-1.63;-0.33;-0.726587;-0.709763;-0.014765;0.0;0.0;79.7;0.0;0.0;5.2
2.0;1753876070.764068;17.172397;0.85;-1.63;-0.41;-0.731386;-0.712532;-0.014671;0.0;0.0;87.9;0.0;0.0;5.1
2.0;1753876070.768662;17.165227;0.78;-1.7;-0.42;-0.729754;-0.711804;-0.014901;0.0;0.0;88.9;0.0;0.0;4.6
2.0;1753876070.773254;17.212595;0.8;-1.72;-0.39;-0.727768;-0.714095;-0.013796;0.0;0.0;79.4;0.0;0.0;5.1
2.0;1753876070.777847;17.174796;0.84;-1.67;-0.38;-0.727972;-0.712626;-0.01469;0.0;0.0;86.1;0.0;0.0;5.0
2.0;1753876070.78244;17.156008;0.85;-1.69;-0.29;-0.727757;-0.715575;-0.014775;0.0;0.0;84.9;0.0;0.0;4.9
2.0;1753876070.787033;17.164956;0.95;-1.69;-0.32;-0.72766;-0.714991;-0.014123;0.0;0.0;84.7;0.0;0.0;4.4
2.0;1753876070.791626;17.214575;0.83;-1.62;-0.37;-0.72437;-0.713922;-0.014151;0.0;0.0;84.0;0.0;0.0;5.0
2.0;1753876070.79795;17.179688;0.84;-1.68;-0.35;-0.72834;-0.714554;-0.014274;0.0;0.0;84.0;0.0;0.0;5.0
2.0;1753876070.802543;17.095036;0.79;-1.65;-0.32;-0.728259;-0.714861;-0.014959;0.0;0.0;73.7;0.0;0.0;4.4
2.0;1753876070.807136;17.199839;0.95;-1.65;-0.32;-0.730118;-0.714233;-0.014704;0.0;0.0;87.0;0.0;0.0;5.7
2.0;1753876070.811729;17.1894;0.84;-1.67;-0.32;-0.72754;-0.714895;-0.012884;0.0;0.0;79.0;0.0;0.0;4.7
2.0;1753876070.816322;17.151031;0.98;-1.63;-0.35;-0.729571;-0.711379;-0.015273;0.0;0.0;86.2;0.0;0.0;5.0
2.0;1753876070.820914;17.180352;0.85;-1.69;-0.39;-0.727676;-0.713834;-0.013709;0.0;0.0;81.6;0.0;0.0;5.2
2.0;1753876070.825508;17.22865;0.83;-1.65;-0.32;-0.727781;-0.712225;-0.015137;0.0;0.0;95.3;0.0;0.0;5.7
2.0;1753876070.8301;17.203845;0.93;-1.7;-0.33;-0.73007;-0.714152;-0.015697;0.0;0.0;75.3;0.0;0.0;4.6
2.0;1753876070.834693;17.181843;0.99;-1.65;-0.37;-0.727993;-0.714132;-0.014576;0.0;0.0;89.8;0.0;0.0;5.6
2.0;1753876070.8423;17.179688;0.91;-1.61;-0.35;-0.729438;-0.71248;-0.01464;0.0;0.0;84.0;0.0;0.0;5.0
2.0;1753876070.846893;17.190179;0.94;-1.6;-0.34;-0.73216;-0.711535;-0.014071;0.0;0.0;85.2;0.0;0.0;5.2
2.0;1753876070.851486;17.189509;0.85;-1.58;-0.4;-0.727874;-0.712854;-0.015125;0.0;0.0;83.7;0.0;0.0;4.8
2.0;1753876070.856078;17.161079;0.93;-1.64;-0.38;-0.729277;-0.712836;-0.014681;0.0;0.0;74.7;0.0;0.0;4.4
2.0;1753876070.860672;17.179573;0.85;-1.62;-0.33;-0.728649;-0.712749;-0.014211;0.0;0.0;95.0;0.0;0.0;5.3
2.0;1753876070.865264;17.170263;0.83;-1.61;-0.31;-0.730595;-0.712598;-0.015054;0.0;0.0;87.7;0.0;0.0;5.3
2.0;1753876070.869857;17.172768;0.85;-1.68;-0.34;-0.729026;-0.713905;-0.015289;0.0;0.0;72.3;0.0;0.0;5.4
2.0;1753876070.87445;17.175537;0.94;-1.74;-0.29;-0.731182;-0.711774;-0.014391;0.0;0.0;80.9;0.0;0.0;4.6
2.0;1753876070.879043;17.124539;0.9;-1.64;-0.37;-0.730383;-0.712104;-0.014368;0.0;0.0;84.3;0.0;0.0;4.8
2.0;1753876070.88753;17.15625;0.91;-1.68;-0.35;-0.730048;-0.712724;-0.01464;0.0;0.0;84.0;0.0;0.0;5.0
2.0;1753876070.892123;17.191088;0.92;-1.72;-0.39;-0.728726;-0.712109;-0.013884;0.0;0.0;83.4;0.0;0.0;4.6
2.0;1753876070.896716;17.167127;0.89;-1.71;-0.4;-0.732646;-0.712881;-0.014908;0.0;0.0;85.0;0.0;0.0;5.7
2.0;1753876070.901309;17.160698;0.9;-1.69;-0.36;-0.729624;-0.71195;-0.013763;0.0;0.0;86.4;0.0;0.0;4.4
2.0;1753876070.905902;17.199979;0.86;-1.71;-0.33;-0.7292;-0.711835;-0.014884;0.0;0.0;74.7;0.0;0.0;4.4
2.0;1753876070.910494;17.142556;0.94;-1.75;-0.4;-0.729918;-0.713577;-0.014457;0.0;0.0;79.2;0.0;0.0;5.1
2.0;1753876070.915088;17.160297;1.05;-1.77;-0.37;-0.732214;-0.714157;-0.014779;0.0;0.0;83.1;0.0;0.0;4.8
2.0;1753876070.91968;17.169747;0.92;-1.69;-0.35;-0.733687;-0.712766;-0.01492;0.0;0.0;80.7;0.0;0.0;5.5
2.0;1753876070.924273;17.17563;0.96;-1.68;-0.37;-0.733417;-0.712715;-0.014625;0.0;0.0;77.2;0.0;0.0;5.1
2.0;1753876070.928866;17.160066;0.83;-1.69;-0.34;-0.735211;-0.711814;-0.014677;0.0;0.0;81.2;0.0;0.0;5.1
2.0;1753876070.93327;17.15625;0.91;-1.75;-0.35;-0.73261;-0.71248;-0.01403;0.0;0.0;84.0;0.0;0.0;5.0
2.0;1753876070.937863;17.094518;0.88;-1.53;-0.3;-0.729985;-0.713892;-0.01382;0.0;0.0;86.5;0.0;0.0;6.3
2.0;1753876070.942456;17.169799;0.98;-1.59;-0.35;-0.734538;-0.713882;-0.013872;0.0;0.0;84.5;0.0;0.0;4.7
2.0;1753876070.947049;17.124992;0.91;-1.71;-0.26;-0.736048;-0.713963;-0.014341;0.0;0.0;84.0;0.0;0.0;4.4
2.0;1753876070.951642;17.199709;0.83;-1.69;-0.36;-0.730253;-0.712151;-0.014035;0.0;0.0;89.7;0.0;0.0;3.9
2.0;1753876070.956234;17.157894;0.83;-1.6;-0.26;-0.728602;-0.71347;-0.01432;0.0;0.0;86.6;0.0;0.0;4.4
2.0;1753876070.960827;17.186095;0.82;-1.51;-0.21;-0.731168;-0.714449;-0.013055;0.0;0.0;85.5;0.0;0.0;4.7
2.0;1753876070.96542;17.157569;0.85;-1.69;-0.29;-0.731513;-0.714786;-0.014165;0.0;0.0;77.6;0.0;0.0;4.8
2.0;1753876070.970013;17.138526;0.88;-1.68;-0.32;-0.73037;-0.715291;-0.014448;0.0;0.0;85.1;0.0;0.0;3.9
2.0;1753876070.974606;17.171035;0.89;-1.61;-0.25;-0.728129;-0.713368;-0.01399;0.0;0.0;91.8;0.0;0.0;3.8
2.0;1753876070.979199;17.143171;0.89;-1.68;-0.23;-0.726537;-0.716261;-0.013495;0.0;0.0;93.5;0.0;0.0;4.2
2.0;1753876070.983792;17.163861;0.81;-1.53;-0.23;-0.726906;-0.714445;-0.014331;0.0;0.0;85.2;0.0;0.0;4.2
2.0;1753876070.988385;17.135891;0.86;-1.52;-0.23;-0.72906;-0.713958;-0.014229;0.0;0.0;89.3;0.0;0.0;3.9
2.0;1753876070.99354;17.15625;0.84;-1.54;-0.21;-0.727608;-0.71553;-0.01403;0.0;0.0;90.0;0.0;0.0;4.0
2.0;1753876070.995523;17.121094;0.98;-1.68;-0.35;-0.732122;-0.710894;-0.014762;0.0;0.0;87.0;0.0;0.0;4.0
2.0;1753876071.000116;17.081699;0.87;-1.6;-0.29;-0.730621;-0.711143;-0.013869;0.0;0.0;88.4;0.0;0.0;3.3
2.0;1753876071.004709;17.129327;1.05;-1.77;-0.29;-0.732048;-0.712015;-0.01583;0.0;0.0;88.7;0.0;0.0;5.3
2.0;1753876071.009302;17.064301;0.87;-1.61;-0.35;-0.732983;-0.711536;-0.014163;0.0;0.0;86.5;0.0;0.0;5.0
2.0;1753876071.013894;17.134759;1.02;-1.71;-0.4;-0.732771;-0.708394;-0.014522;0.0;0.0;85.2;0.0;0.0;4.1
2.0;1753876071.018488;17.127034;1.02;-1.65;-0.39;-0.731096;-0.708258;-0.016525;0.0;0.0;89.9;0.0;0.0;3.5
2.0;1753876071.02308;17.154969;0.87;-1.62;-0.36;-0.732758;-0.710976;-0.014451;0.0;0.0;84.7;0.0;0.0;3.8
2.0;1753876071.027673;17.142413;0.97;-1.71;-0.4;-0.73314;-0.711802;-0.014898;0.0;0.0;77.3;0.0;0.0;3.7
2.0;1753876071.032266;17.133329;0.89;-1.7;-0.38;-0.729662;-0.710565;-0.015937;0.0;0.0;86.8;0.0;0.0;4.2
2.0;1753876071.036859;17.117809;1.06;-1.72;-0.39;-0.732148;-0.712258;-0.014671;0.0;0.0;87.0;0.0;0.0;3.8
2.0;1753876071.041452;17.066481;1.0;-1.64;-0.35;-0.733417;-0.708702;-0.015379;0.0;0.0;89.0;0.0;0.0;3.8
2.0;1753876071.046045;17.132107;1.02;-1.64;-0.31;-0.730383;-0.710231;-0.01523;0.0;0.0;90.4;0.0;0.0;4.7
2.0;1753876071.050638;17.13232;0.99;-1.72;-0.3;-0.734123;-0.71233;-0.015035;0.0;0.0;84.8;0.0;0.0;3.5
2.0;1753876071.05523;17.123043;0.96;-1.77;-0.45;-0.730563;-0.709195;-0.015534;0.0;0.0;87.0;0.0;0.0;3.9
2.0;1753876071.059824;17.105828;0.9;-1.62;-0.34;-0.734476;-0.71005;-0.014943;0.0;0.0;91.0;0.0;0.0;4.4
2.0;1753876071.064416;17.126627;0.89;-1.75;-0.26;-0.732278;-0.709758;-0.015134;0.0;0.0;79.2;0.0;0.0;4.2
2.0;1753876071.069009;17.133919;0.97;-1.75;-0.37;-0.734063;-0.711378;-0.015569;0.0;0.0;87.1;0.0;0.0;3.6
2.0;1753876071.073602;17.160432;0.99;-1.65;-0.48;-0.72777;-0.711688;-0.014826;0.0;0.0;81.5;0.0;0.0;4.2
2.0;1753876071.078195;17.093646;0.92;-1.7;-0.2;-0.735462;-0.71296;-0.015129;0.0;0.0;87.6;0.0;0.0;4.0
2.0;1753876071.082788;17.135396;1.07;-1.69;-0.44;-0.733275;-0.711504;-0.015409;0.0;0.0;87.9;0.0;0.0;4.3
2.0;1753876071.087381;17.127868;0.9;-1.64;-0.34;-0.731131;-0.71029;-0.014743;0.0;0.0;87.1;0.0;0.0;3.5
2.0;1753876071.091974;17.106879;0.98;-1.8;-0.36;-0.733794;-0.712015;-0.012857;0.0;0.0;88.5;0.0;0.0;4.6
2.0;1753876071.096567;17.073572;0.93;-1.63;-0.36;-0.73434;-0.713646;-0.015581;0.0;0.0;88.8;0.0;0.0;5.7
2.0;1753876071.10116;17.112975;0.94;-1.66;-0.38;-0.732208;-0.711297;-0.013216;0.0;0.0;87.2;0.0;0.0;3.9
2.0;1753876071.105752;17.111158;0.87;-1.74;-0.31;-0.733575;-0.712498;-0.016259;0.0;0.0;82.1;0.0;0.0;3.9
2.0;1753876071.110345;17.147881;0.9;-1.77;-0.27;-0.73216;-0.710896;-0.015479;0.0;0.0;84.4;0.0;0.0;3.3
2.0;1753876071.114938;17.113886;1.01;-1.62;-0.27;-0.731878;-0.710429;-0.014208;0.0;0.0;85.5;0.0;0.0;5.1
2.0;1753876071.119531;17.1221;0.93;-1.83;-0.41;-0.732851;-0.710145;-0.015142;0.0;0.0;91.0;0.0;0.0;3.8
2.0;1753876071.124124;17.104926;0.94;-1.71;-0.39;-0.732431;-0.713102;-0.014113;0.0;0.0;86.1;0.0;0.0;4.2
2.0;1753876071.128717;17.109779;0.87;-1.63;-0.29;-0.735842;-0.711161;-0.01544;0.0;0.0;92.7;0.0;0.0;3.6
2.0;1753876071.13331;17.165476;1.03;-1.7;-0.36;-0.731904;-0.709952;-0.01373;0.0;0.0;97.4;0.0;0.0;4.3
2.0;1753876071.137903;17.111179;0.89;-1.68;-0.31;-0.730524;-0.711454;-0.015485;0.0;0.0;85.8;0.0;0.0;4.7
2.0;1753876071.142496;17.108313;0.92;-1.7;-0.38;-0.729059;-0.710821;-0.014285;0.0;0.0;87.5;0.0;0.0;4.2
2.0;1753876071.147088;17.152202;0.94;-1.65;-0.36;-0.729671;-0.708634;-0.016983;0.0;0.0;93.5;0.0;0.0;4.2
2.0;1753876071.151682;17.160964;1.02;-1.68;-0.39;-0.736103;-0.709137;-0.014289;0.0;0.0;88.5;0.0;0.0;3.6
2.0;1753876071.156274;17.127461;0.91;-1.63;-0.4;-0.733267;-0.712165;-0.015729;0.0;0.0;84.0;0.0;0.0;4.8
2.0;1753876071.160867;17.110124;0.95;-1.72;-0.31;-0.734328;-0.711202;-0.013652;0.0;0.0;84.5;0.0;0.0;3.8
2.0;1753876071.16546;17.11371;1.02;-1.65;-0.34;-0.732319;-0.710079;-0.015079;0.0;0.0;97.3;0.0;0.0;4.3
2.0;1753876071.170053;17.122057;1.0;-1.73;-0.39;-0.730593;-0.70873;-0.014951;0.0;0.0;88.9;0.0;0.0;3.2
2.0;1753876071.174646;17.073891;0.88;-1.78;-0.29;-0.726868;-0.713722;-0.013942;0.0;0.0;80.4;0.0;0.0;4.7
2.0;1753876071.179239;17.092582;1.01;-1.75;-0.35;-0.732805;-0.710481;-0.014849;0.0;0.0;89.8;0.0;0.0;5.3
2.0;1753876071.183832;17.110777;0.87;-1.55;-0.39;-0.731554;-0.712042;-0.014865;0.0;0.0;81.2;0.0;0.0;4.7
2.0;1753876071.188424;17.168085;0.94;-1.67;-0.3;-0.731033;-0.708952;-0.015281;0.0;0.0;88.6;0.0;0.0;4.2
2.0;1753876071.193018;17.13928;0.92;-1.8;-0.29;-0.732901;-0.711194;-0.015898;0.0;0.0;90.9;0.0;0.0;3.7
2.0;1753876071.19761;17.112228;0.87;-1.75;-0.38;-0.731689;-0.709484;-0.012548;0.0;0.0;85.1;0.0;0.0;3.5
2.0;1753876071.202203;17.107581;1.03;-1.66;-0.31;-0.734518;-0.712411;-0.014747;0.0;0.0;94.1;0.0;0.0;4.6
2.0;1753876071.206796;17.155809;0.99;-1.59;-0.27;-0.732592;-0.711607;-0.014018;0.0;0.0;90.7;0.0;0.0;4.0
2.0;1753876071.211389;17.137812;0.97;-1.62;-0.41;-0.730133;-0.709795;-0.013656;0.0;0.0;87.5;0.0;0.0;3.5
2.0;1753876071.215982;17.101205;0.91;-1.67;-0.38;-0.735057;-0.71063;-0.016034;0.0;0.0;91.1;0.0;0.0;4.1
2.0;1753876071.220575;17.177998;1.01;-1.58;-0.33;-0.731441;-0.709429;-0.013945;0.0;0.0;90.9;0.0;0.0;4.0
2.0;1753876071.225168;17.155;1.02;-1.67;-0.25;-0.732902;-0.710324;-0.014631;0.0;0.0;81.6;0.0;0.0;3.6
2.0;1753876071.229761;17.125703;1.03;-1.78;-0.35;-0.733676;-0.711948;-0.01432;0.0;0.0;84.3;0.0;0.0;4.5
2.0;1753876071.234354;17.081228;0.98;-1.66;-0.32;-0.732186;-0.711452;-0.014101;0.0;0.0;94.0;0.0;0.0;4.1
2.0;1753876071.238946;17.07906;0.91;-1.7;-0.45;-0.73202;-0.713191;-0.015026;0.0;0.0;85.0;0.0;0.0;4.1
2.0;1753876071.243539;17.109425;0.96;-1.55;-0.43;-0.733209;-0.712384;-0.014398;0.0;0.0;89.9;0.0;0.0;4.8
2.0;1753876071.248132;17.140136;0.99;-1.59;-0.32;-0.7338;-0.71153;-0.014364;0.0;0.0;90.4;0.0;0.0;3.5
2.0;1753876071.252725;17.146685;0.93;-1.57;-0.29;-0.733537;-0.710838;-0.014564;0.0;0.0;89.5;0.0;0.0;3.6
2.0;1753876071.257318;17.117869;0.96;-1.59;-0.29;-0.731079;-0.70987;-0.015956;0.0;0.0;87.6;0.0;0.0;3.8
2.0;1753876071.261911;17.105655;0.96;-1.59;-0.38;-0.729611;-0.710411;-0.014288;0.0;0.0;84.8;0.0;0.0;3.9
2.0;1753876071.266504;17.099787;0.94;-1.7;-0.32;-0.735294;-0.711874;-0.014998;0.0;0.0;84.8;0.0;0.0;4.7
2.0;1753876071.271097;17.07079;0.94;-1.57;-0.31;-0.731646;-0.709347;-0.015873;0.0;0.0;92.5;0.0;0.0;3.5
2.0;1753876071.27569;17.150067;0.94;-1.47;-0.27;-0.735573;-0.711651;-0.015245;0.0;0.0;88.0;0.0;0.0;4.4
2.0;1753876071.280282;17.088023;0.95;-1.67;-0.31;-0.735853;-0.711927;-0.016033;0.0;0.0;81.9;0.0;0.0;5.1
2.0;1753876071.284876;17.150875;0.94;-1.65;-0.3;-0.732048;-0.710826;-0.015467;0.0;0.0;89.9;0.0;0.0;3.9
2.0;1753876071.289468;17.133038;0.92;-1.72;-0.28;-0.734458;-0.711781;-0.015242;0.0;0.0;88.4;0.0;0.0;3.9
2.0;1753876071.294061;17.136757;1.03;-1.6;-0.3;-0.734116;-0.709754;-0.01465;0.0;0.0;92.9;0.0;0.0;4.0
2.0;1753876071.298654;17.127549;0.9;-1.62;-0.3;-0.737211;-0.710984;-0.013917;0.0;0.0;88.0;0.0;0.0;3.2
2.0;1753876071.303247;17.092464;0.93;-1.64;-0.28;-0.73321;-0.711809;-0.014444;0.0;0.0;86.7;0.0;0.0;4.3
2.0;1753876071.30784;17.097249;0.83;-1.74;-0.26;-0.731365;-0.711317;-0.014493;0.0;0.0;92.0;0.0;0.0;3.6
2.0;1753876071.312433;17.135349;0.94;-1.68;-0.33;-0.733685;-0.711825;-0.015512;0.0;0.0;82.4;0.0;0.0;3.6
2.0;1753876071.317026;17.114223;0.95;-1.62;-0.35;-0.733984;-0.71228;-0.015211;0.0;0.0;86.5;0.0;0.0;3.8
2.0;1753876071.321618;17.109753;0.89;-1.71;-0.31;-0.733049;-0.709304;-0.013392;0.0;0.0;86.1;0.0;0.0;3.5
2.0;1753876071.326212;17.10067;0.87;-1.4;-0.36;-0.732617;-0.712037;-0.015988;0.0;0.0;92.6;0.0;0.0;4.9
2.0;1753876071.330804;17.145012;0.82;-1.7;-0.39;-0.729066;-0.711859;-0.014605;0.0;0.0;87.3;0.0;0.0;4.1
2.0;1753876071.335397;17.158905;0.95;-1.64;-0.44;-0.734157;-0.707156;-0.016231;0.0;0.0;90.6;0.0;0.0;4.1
2.0;1753876071.33999;17.14308;0.87;-1.53;-0.33;-0.731341;-0.71104;-0.013808;0.0;0.0;84.5;0.0;0.0;3.9
2.0;1753876071.344583;17.103197;1.0;-1.82;-0.41;-0.730627;-0.71084;-0.014313;0.0;0.0;81.2;0.0;0.0;4.7
2.0;1753876071.349176;17.075151;0.96;-1.66;-0.41;-0.732796;-0.709262;-0.015221;0.0;0.0;85.5;0.0;0.0;3.7
2.0;1753876071.353769;17.096018;0.87;-1.65;-0.36;-0.734189;-0.71042;-0.014041;0.0;0.0;83.8;0.0;0.0;3.5
2.0;1753876071.358362;17.142544;1.0;-1.62;-0.39;-0.73148;-0.711372;-0.014085;0.0;0.0;85.6;0.0;0.0;4.3
2.0;1753876071.362954;17.092624;0.9;-1.58;-0.33;-0.736178;-0.711224;-0.014728;0.0;0.0;88.5;0.0;0.0;3.5
2.0;1753876071.367548;17.129116;0.88;-1.63;-0.36;-0.731413;-0.708405;-0.016199;0.0;0.0;86.2;0.0;0.0;3.9
2.0;1753876071.37214;17.075892;0.88;-1.58;-0.26;-0.733071;-0.708821;-0.013692;0.0;0.0;90.9;0.0;0.0;3.8
2.0;1753876071.376733;17.138647;0.97;-1.7;-0.24;-0.735991;-0.71076;-0.015319;0.0;0.0;88.3;0.0;0.0;4.2
2.0;1753876071.381326;17.127572;0.9;-1.69;-0.36;-0.732425;-0.71178;-0.015169;0.0;0.0;92.4;0.0;0.0;3.7
2.0;1753876071.385919;17.148743;0.98;-1.73;-0.31;-0.732242;-0.710328;-0.01496;0.0;0.0;89.4;0.0;0.0;4.1
2.0;1753876071.390512;17.101767;0.93;-1.7;-0.25;-0.730286;-0.711341;-0.013202;0.0;0.0;86.0;0.0;0.0;2.9
2.0;1753876071.395105;17.138656;0.88;-1.61;-0.36;-0.730258;-0.711482;-0.015066;0.0;0.0;81.8;0.0;0.0;5.1
2.0;1753876071.399698;17.135684;0.96;-1.58;-0.3;-0.733207;-0.712776;-0.014401;0.0;0.0;90.7;0.0;0.0;4.3
2.0;1753876071.404291;17.087004;0.96;-1.6;-0.36;-0.733356;-0.711418;-0.01541;0.0;0.0;84.5;0.0;0.0;4.4
2.0;1753876071.408884;17.085702;0.94;-1.63;-0.35;-0.731662;-0.712593;-0.013373;0.0;0.0;85.1;0.0;0.0;3.9
2.0;1753876071.413476;17.160503;0.88;-1.51;-0.35;-0.731611;-0.710307;-0.014862;0.0;0.0;80.7;0.0;0.0;4.4
2.0;1753876071.418069;17.142563;0.89;-1.76;-0.34;-0.730504;-0.71287;-0.013508;0.0;0.0;84.4;0.0;0.0;4.0
2.0;1753876071.422662;17.104278;0.96;-1.63;-0.43;-0.733778;-0.710725;-0.015271;0.0;0.0;90.2;0.0;0.0;4.4
2.0;1753876071.427255;17.099194;0.94;-1.67;-0.36;-0.73065;-0.710713;-0.015778;0.0;0.0;85.4;0.0;0.0;3.5
2.0;1753876071.431848;17.15532;0.95;-1.53;-0.37;-0.734692;-0.712568;-0.014517;0.0;0.0;80.7;0.0;0.0;4.1
2.0;1753876071.436441;17.115914;0.9;-1.57;-0.33;-0.730059;-0.709053;-0.015495;0.0;0.0;85.8;0.0;0.0;3.3
2.0;1753876071.441034;17.11713;0.91;-1.69;-0.27;-0.732501;-0.709108;-0.015198;0.0;0.0;90.1;0.0;0.0;3.8
2.0;1753876071.445627;17.118506;0.89;-1.71;-0.26;-0.729899;-0.71213;-0.015261;0.0;0.0;86.9;0.0;0.0;5.7
2.0;1753876071.45022;17.168364;0.82;-1.74;-0.31;-0.729836;-0.712063;-0.013475;0.0;0.0;87.0;0.0;0.0;4.9
2.0;1753876071.454812;17.103617;0.92;-1.76;-0.38;-0.731981;-0.710761;-0.013592;0.0;0.0;89.0;0.0;0.0;4.6
2.0;1753876071.459406;17.076854;0.87;-1.59;-0.31;-0.730293;-0.710272;-0.013752;0.0;0.0;84.3;0.0;0.0;3.4
2.0;1753876071.463998;17.166744;0.9;-1.65;-0.39;-0.731003;-0.711108;-0.015855;0.0;0.0;88.2;0.0;0.0;4.5
2.0;1753876071.468591;17.145093;0.91;-1.54;-0.36;-0.731104;-0.710647;-0.01457;0.0;0.0;85.3;0.0;0.0;4.7
2.0;1753876071.473184;17.122306;0.93;-1.65;-0.34;-0.73424;-0.71004;-0.015066;0.0;0.0;88.8;0.0;0.0;3.8
2.0;1753876071.477777;17.157181;0.92;-1.65;-0.38;-0.733785;-0.709779;-0.015376;0.0;0.0;87.6;0.0;0.0;4.2
2.0;1753876071.48237;17.12416;0.97;-1.52;-0.32;-0.734092;-0.709712;-0.014615;0.0;0.0;85.4;0.0;0.0;4.6
2.0;1753876071.486963;17.119696;1.01;-1.73;-0.31;-0.734163;-0.711857;-0.014238;0.0;0.0;83.5;0.0;0.0;3.8
2.0;1753876071.491556;17.163684;0.93;-1.74;-0.35;-0.730647;-0.710252;-0.014873;0.0;0.0;88.2;0.0;0.0;3.7
2.0;1753876071.496148;17.130396;0.93;-1.56;-0.39;-0.73623;-0.713128;-0.013895;0.0;0.0;89.4;0.0;0.0;3.9
2.0;1753876071.500742;17.155702;0.96;-1.57;-0.38;-0.732189;-0.709522;-0.01528;0.0;0.0;90.5;0.0;0.0;4.0
2.0;1753876071.505334;17.105895;0.9;-1.69;-0.24;-0.732838;-0.709991;-0.014179;0.0;0.0;84.9;0.0;0.0;3.4
2.0;1753876071.509927;17.108831;0.93;-1.63;-0.42;-0.73429;-0.712432;-0.01366;0.0;0.0;80.0;0.0;0.0;4.4
2.0;1753876071.51452;17.131661;0.95;-1.74;-0.38;-0.730647;-0.709111;-0.015297;0.0;0.0;92.4;0.0;0.0;3.5
2.0;1753876071.519113;17.076255;0.93;-1.45;-0.4;-0.733623;-0.710544;-0.015279;0.0;0.0;90.7;0.0;0.0;3.3
2.0;1753876071.523706;17.113625;0.94;-1.62;-0.33;-0.733283;-0.712161;-0.013934;0.0;0.0;83.9;0.0;0.0;4.3
2.0;1753876071.53;17.121094;0.91;-1.61;-0.35;-0.732122;-0.710894;-0.014762;0.0;0.0;87.0;0.0;0.0;4.0
2.0;1753876071.53806;17.15625;0.91;-1.75;-0.35;-0.72834;-0.71431;-0.012932;0.0;0.0;97.0;0.0;0.0;4.0
2.0;1753876071.542653;17.149623;0.88;-1.69;-0.32;-0.725129;-0.712875;-0.012555;0.0;0.0;105.0;0.0;0.0;4.3
2.0;1753876071.547246;17.115804;0.97;-1.68;-0.31;-0.72586;-0.715312;-0.013877;0.0;0.0;96.2;0.0;0.0;3.9
2.0;1753876071.551839;17.135911;0.9;-1.78;-0.29;-0.727876;-0.71566;-0.013409;0.0;0.0;105.0;0.0;0.0;4.2
2.0;1753876071.556432;17.090295;1.01;-1.75;-0.28;-0.731459;-0.715693;-0.014447;0.0;0.0;91.6;0.0;0.0;4.3
2.0;1753876071.561024;17.121925;0.93;-1.64;-0.31;-0.729035;-0.713433;-0.013777;0.0;0.0;103.5;0.0;0.0;3.7
2.0;1753876071.565617;17.147469;0.91;-1.74;-0.35;-0.727449;-0.713288;-0.013581;0.0;0.0;93.7;0.0;0.0;4.3
2.0;1753876071.57021;17.177916;0.9;-1.72;-0.32;-0.731206;-0.71342;-0.012983;0.0;0.0;90.9;0.0;0.0;3.5
2.0;1753876071.574803;17.170259;0.89;-1.73;-0.26;-0.730154;-0.711431;-0.012466;0.0;0.0;96.2;0.0;0.0;3.9
2.0;1753876071.579396;17.14067;0.87;-1.68;-0.26;-0.728317;-0.715121;-0.013256;0.0;0.0;102.7;0.0;0.0;3.9
2.0;1753876071.583989;17.208781;0.98;-1.65;-0.35;-0.72971;-0.711152;-0.014116;0.0;0.0;96.3;0.0;0.0;4.1
2.0;1753876071.588582;17.160336;0.94;-1.57;-0.27;-0.732642;-0.712562;-0.014009;0.0;0.0;99.4;0.0;0.0;3.4
2.0;1753876071.593175;17.141641;0.96;-1.68;-0.29;-0.730131;-0.714194;-0.0147;0.0;0.0;98.3;0.0;0.0;3.4
2.0;1753876071.60184;17.160156;0.98;-1.61;-0.28;-0.730048;-0.711992;-0.014274;0.0;0.0;97.0;0.0;0.0;4.0
2.0;1753876071.606433;17.129235;1.05;-1.61;-0.33;-0.730061;-0.712151;-0.013383;0.0;0.0;97.6;0.0;0.0;3.8
2.0;1753876071.611026;17.198225;0.9;-1.61;-0.23;-0.731282;-0.713281;-0.015088;0.0;0.0;101.1;0.0;0.0;3.7
2.0;1753876071.615619;17.139915;1.05;-1.64;-0.27;-0.731683;-0.714685;-0.014666;0.0;0.0;100.2;0.0;0.0;3.4
2.0;1753876071.620212;17.189275;0.84;-1.64;-0.25;-0.729537;-0.715367;-0.012564;0.0;0.0;88.5;0.0;0.0;3.9
2.0;1753876071.624804;17.151271;0.95;-1.67;-0.35;-0.729164;-0.714478;-0.014253;0.0;0.0;98.3;0.0;0.0;3.8
2.0;1753876071.629398;17.138886;0.94;-1.65;-0.26;-0.73183;-0.712891;-0.012889;0.0;0.0;92.2;0.0;0.0;3.8
2.0;1753876071.63399;17.210609;0.9;-1.68;-0.26;-0.728391;-0.714064;-0.014042;0.0;0.0;95.5;0.0;0.0;4.5
2.0;1753876071.6411;17.160156;0.91;-1.68;-0.28;-0.730414;-0.714066;-0.01342;0.0;0.0;97.0;0.0;0.0;4.0
2.0;1753876071.645693;17.115755;0.99;-1.68;-0.25;-0.732806;-0.71438;-0.013654;0.0;0.0;92.9;0.0;0.0;4.4
2.0;1753876071.650286;17.164107;0.93;-1.71;-0.29;-0.729066;-0.713784;-0.013295;0.0;0.0;105.7;0.0;0.0;4.0
2.0;1753876071.654878;17.178751;0.9;-1.61;-0.26;-0.729939;-0.714242;-0.01253;0.0;0.0;100.1;0.0;0.0;4.2
2.0;1753876071.659472;17.115864;0.96;-1.69;-0.27;-0.730015;-0.714691;-0.013466;0.0;0.0;96.2;0.0;0.0;4.5
2.0;1753876071.664064;17.210498;0.92;-1.68;-0.33;-0.731434;-0.714897;-0.013589;0.0;0.0;98.0;0.0;0.0;4.1
2.0;1753876071.668657;17.084504;0.91;-1.76;-0.37;-0.730982;-0.711328;-0.013501;0.0;0.0;96.6;0.0;0.0;3.6
2.0;1753876071.67325;17.135984;1.06;-1.74;-0.23;-0.731256;-0.713844;-0.013727;0.0;0.0;97.8;0.0;0.0;4.0
2.0;1753876071.677843;17.21317;0.97;-1.72;-0.27;-0.729221;-0.712489;-0.013594;0.0;0.0;97.8;0.0;0.0;4.0
2.0;1753876071.682436;17.186088;0.94;-1.64;-0.24;-0.730924;-0.714585;-0.013061;0.0;0.0;98.0;0.0;0.0;4.0
2.0;1753876071.69048;17.160156;0.98;-1.75;-0.28;-0.730658;-0.713334;-0.014152;0.0;0.0;97.0;0.0;0.0;4.0
2.0;1753876071.695073;17.187462;0.99;-1.72;-0.37;-0.72995;-0.709375;-0.015289;0.0;0.0;100.9;0.0;0.0;4.2
2.0;1753876071.699666;17.196595;0.93;-1.74;-0.26;-0.730893;-0.709838;-0.014099;0.0;0.0;87.5;0.0;0.0;4.2
2.0;1753876071.704259;17.193533;0.98;-1.73;-0.24;-0.72975;-0.712589;-0.01437;0.0;0.0;93.9;0.0;0.0;4.3
2.0;1753876071.708852;17.182362;0.96;-1.75;-0.27;-0.730847;-0.713324;-0.013054;0.0;0.0;88.8;0.0;0.0;4.0
2.0;1753876071.713444;17.18461;0.89;-1.81;-0.25;-0.727184;-0.713605;-0.014483;0.0;0.0;98.1;0.0;0.0;3.9
2.0;1753876071.718037;17.16267;0.92;-1.74;-0.26;-0.731687;-0.711998;-0.015023;0.0;0.0;105.4;0.0;0.0;3.9
2.0;1753876071.72263;17.097308;0.9;-1.71;-0.25;-0.727601;-0.71512;-0.012763;0.0;0.0;90.7;0.0;0.0;3.9
2.0;1753876071.727223;17.148582;1.02;-1.67;-0.23;-0.729934;-0.713488;-0.014519;0.0;0.0;90.2;0.0;0.0;3.7
2.0;1753876071.73166;17.160156;0.91;-1.68;-0.28;-0.728706;-0.713578;-0.013542;0.0;0.0;97.0;0.0;0.0;4.0
2.0;1753876071.736253;17.133403;0.99;-1.7;-0.35;-0.727253;-0.714214;-0.012891;0.0;0.0;102.7;0.0;0.0;4.0
2.0;1753876071.740846;17.150112;0.91;-1.56;-0.34;-0.727042;-0.715222;-0.013543;0.0;0.0;92.7;0.0;0.0;4.0
2.0;1753876071.745438;17.176733;0.95;-1.67;-0.34;-0.731655;-0.710852;-0.015734;0.0;0.0;102.8;0.0;0.0;4.0
2.0;1753876071.750032;17.190793;0.93;-1.68;-0.34;-0.729583;-0.713447;-0.012847;0.0;0.0;89.1;0.0;0.0;4.0
2.0;1753876071.754624;17.151323;0.87;-1.67;-0.27;-0.730326;-0.71339;-0.014939;0.0;0.0;92.7;0.0;0.0;4.0
2.0;1753876071.759217;17.175844;1.0;-1.61;-0.29;-0.731123;-0.713579;-0.013959;0.0;0.0;95.2;0.0;0.0;4.0
2.0;1753876071.76733;17.136719;0.91;-1.61;-0.35;-0.73139;-0.713578;-0.014518;0.0;0.0;97.0;0.0;0.0;4.0
2.0;1753876071.771923;17.149848;0.89;-1.62;-0.34;-0.730633;-0.714282;-0.015162;0.0;0.0;106.4;0.0;0.0;4.0
2.0;1753876071.776516;17.108916;0.8;-1.55;-0.32;-0.727112;-0.714389;-0.01545;0.0;0.0;86.9;0.0;0.0;4.0
2.0;1753876071.781108;17.101775;0.92;-1.6;-0.41;-0.729435;-0.714982;-0.013401;0.0;0.0;94.1;0.0;0.0;4.0
2.0;1753876071.785702;17.091923;0.95;-1.55;-0.32;-0.728653;-0.714389;-0.012962;0.0;0.0;97.3;0.0;0.0;4.0
2.0;1753876071.790294;17.158609;0.8;-1.66;-0.27;-0.732089;-0.711678;-0.012833;0.0;0.0;98.5;0.0;0.0;4.0
2.0;1753876071.794887;17.143201;0.9;-1.62;-0.32;-0.730138;-0.714393;-0.014187;0.0;0.0;99.2;0.0;0.0;4.0
2.0;1753876071.79948;17.149864;0.87;-1.63;-0.2;-0.729768;-0.711744;-0.014306;0.0;0.0;91.1;0.0;0.0;4.0
2.0;1753876071.804073;17.142791;0.79;-1.58;-0.31;-0.730926;-0.713043;-0.012988;0.0;0.0;99.7;0.0;0.0;4.0
2.0;1753876071.808666;17.141293;0.82;-1.56;-0.25;-0.727874;-0.712644;-0.013205;0.0;0.0;96.2;0.0;0.0;4.0
2.0;1753876071.813259;17.134016;0.81;-1.53;-0.3;-0.727121;-0.71372;-0.012524;0.0;0.0;92.7;0.0;0.0;4.0
2.0;1753876071.817852;17.178607;0.82;-1.6;-0.38;-0.729561;-0.714085;-0.012256;0.0;0.0;95.8;0.0;0.0;4.0
2.0;1753876071.822445;17.135332;0.78;-1.58;-0.38;-0.729604;-0.715002;-0.014417;0.0;0.0;88.5;0.0;0.0;4.0
2.0;1753876071.827038;17.079129;0.83;-1.64;-0.28;-0.730116;-0.711658;-0.011812;0.0;0.0;94.5;0.0;0.0;4.0
2.0;1753876071.83163;17.147579;0.87;-1.54;-0.38;-0.730034;-0.711791;-0.014269;0.0;0.0;100.2;0.0;0.0;4.0
2.0;1753876071.836223;17.147241;0.8;-1.53;-0.41;-0.729794;-0.714204;-0.012817;0.0;0.0;85.3;0.0;0.0;4.0
2.0;1753876071.84482;17.136719;0.84;-1.61;-0.35;-0.727242;-0.7137;-0.01281;0.0;0.0;93.0;0.0;0.0;4.0
2.0;1753876071.849413;17.133811;0.82;-1.67;-0.32;-0.731141;-0.713707;-0.011446;0.0;0.0;92.0;0.0;0.0;4.0
2.0;1753876071.854006;17.178878;0.94;-1.68;-0.35;-0.728569;-0.712976;-0.013685;0.0;0.0;93.4;0.0;0.0;4.0
2.0;1753876071.858599;17.127376;0.91;-1.7;-0.29;-0.727396;-0.712335;-0.012937;0.0;0.0;90.6;0.0;0.0;4.0
2.0;1753876071.86411;17.136719;0.84;-1.68;-0.35;-0.732244;-0.712968;-0.012444;0.0;0.0;93.0;0.0;0.0;4.0
2.0;1753876071.868703;17.131086;0.89;-1.68;-0.33;-0.730691;-0.715688;-0.013577;0.0;0.0;90.4;0.0;0.0;4.0
2.0;1753876071.873296;17.136805;0.9;-1.72;-0.26;-0.731058;-0.714362;-0.012668;0.0;0.0;96.8;0.0;0.0;4.0
2.0;1753876071.877889;17.115204;0.82;-1.63;-0.29;-0.73016;-0.709631;-0.013945;0.0;0.0;87.6;0.0;0.0;4.0
2.0;1753876071.882482;17.0775;0.95;-1.7;-0.33;-0.725463;-0.715007;-0.012382;0.0;0.0;96.8;0.0;0.0;4.0
2.0;1753876071.887074;17.145561;0.84;-1.7;-0.4;-0.724927;-0.713709;-0.013614;0.0;0.0;91.2;0.0;0.0;4.0
2.0;1753876071.891667;17.12244;0.82;-1.68;-0.26;-0.726703;-0.713395;-0.016262;0.0;0.0;84.9;0.0;0.0;4.0
2.0;1753876071.89626;17.092469;0.88;-1.64;-0.35;-0.730355;-0.712927;-0.012952;0.0;0.0;85.2;0.0;0.0;4.0
2.0;1753876071.900853;17.16125;0.84;-1.66;-0.37;-0.730135;-0.714851;-0.013225;0.0;0.0;91.6;0.0;0.0;4.0
2.0;1753876071.90502;17.136719;0.84;-1.68;-0.35;-0.726632;-0.713334;-0.01464;0.0;0.0;93.0;0.0;0.0;4.0
2.0;1753876071.909613;17.119245;0.86;-1.63;-0.36;-0.725893;-0.712827;-0.014064;0.0;0.0;95.7;0.0;0.0;4.0
2.0;1753876071.914206;17.112283;0.97;-1.63;-0.36;-0.726829;-0.713109;-0.013341;0.0;0.0;94.4;0.0;0.0;4.0
2.0;1753876071.918799;17.150482;0.75;-1.66;-0.32;-0.726906;-0.71412;-0.013575;0.0;0.0;90.1;0.0;0.0;4.0
2.0;1753876071.923392;17.120121;0.86;-1.64;-0.37;-0.728708;-0.714602;-0.015335;0.0;0.0;98.6;0.0;0.0;4.0
2.0;1753876071.927984;17.139653;0.81;-1.61;-0.44;-0.730063;-0.71363;-0.01453;0.0;0.0;93.2;0.0;0.0;4.0
2.0;1753876071.932577;17.111394;0.83;-1.56;-0.42;-0.729955;-0.710726;-0.013932;0.0;0.0;91.1;0.0;0.0;4.0
2.0;1753876071.93717;17.143822;0.8;-1.59;-0.34;-0.730183;-0.714332;-0.013886;0.0;0.0;100.4;0.0;0.0;4.0
2.0;1753876071.941763;17.177517;0.96;-1.65;-0.34;-0.730784;-0.711099;-0.014144;0.0;0.0;91.2;0.0;0.0;4.0
2.0;1753876071.946356;17.109465;0.86;-1.6;-0.4;-0.730788;-0.712364;-0.01457;0.0;0.0;94.1;0.0;0.0;4.0
2.0;1753876071.950949;17.119402;0.95;-1.58;-0.44;-0.730685;-0.711339;-0.014463;0.0;0.0;86.5;0.0;0.0;4.0
2.0;1753876071.95677;17.136719;0.91;-1.61;-0.42;-0.731146;-0.712114;-0.01403;0.0;0.0;93.0;0.0;0.0;4.0
2.0;1753876071.961363;17.137874;0.84;-1.7;-0.39;-0.729523;-0.711697;-0.014387;0.0;0.0;92.7;0.0;0.0;4.0
2.0;1753876071.965956;17.147851;0.99;-1.66;-0.42;-0.731357;-0.713228;-0.013563;0.0;0.0;99.1;0.0;0.0;4.0
2.0;1753876071.970549;17.132006;0.81;-1.56;-0.37;-0.729514;-0.713443;-0.013543;0.0;0.0;98.7;0.0;0.0;4.0
2.0;1753876071.975142;17.120669;0.89;-1.59;-0.33;-0.727769;-0.714328;-0.014476;0.0;0.0;95.0;0.0;0.0;4.0
2.0;1753876071.979734;17.129713;0.78;-1.57;-0.37;-0.727147;-0.711499;-0.01377;0.0;0.0;101.2;0.0;0.0;4.0
2.0;1753876071.984327;17.174183;0.73;-1.61;-0.3;-0.726916;-0.714076;-0.014498;0.0;0.0;93.1;0.0;0.0;4.0
2.0;1753876071.98892;17.188095;0.72;-1.65;-0.37;-0.72694;-0.716402;-0.01584;0.0;0.0;86.0;0.0;0.0;4.0
2.0;1753876071.9962;17.136719;0.77;-1.61;-0.28;-0.727364;-0.715042;-0.014884;0.0;0.0;93.0;0.0;0.0;4.0
2.0;1753876072.000793;17.132134;0.68;-1.59;-0.35;-0.725996;-0.712671;-0.014421;0.0;0.0;88.8;0.0;0.0;4.4
2.0;1753876072.005386;17.166112;0.69;-1.58;-0.19;-0.726569;-0.716126;-0.014025;0.0;0.0;88.6;0.0;0.0;3.8
2.0;1753876072.009979;17.135897;0.79;-1.62;-0.31;-0.72701;-0.714813;-0.014326;0.0;0.0;94.1;0.0;0.0;4.4
2.0;1753876072.014572;17.14668;0.63;-1.75;-0.33;-0.727683;-0.715462;-0.015553;0.0;0.0;94.5;0.0;0.0;3.8
2.0;1753876072.019164;17.145461;0.79;-1.65;-0.29;-0.728571;-0.714337;-0.013442;0.0;0.0;88.8;0.0;0.0;4.0
2.0;1753876072.023758;17.150527;0.84;-1.6;-0.25;-0.728108;-0.713232;-0.014123;0.0;0.0;89.2;0.0;0.0;4.0
2.0;1753876072.02835;17.12996;0.85;-1.59;-0.31;-0.726286;-0.713414;-0.015037;0.0;0.0;82.5;0.0;0.0;4.0
2.0;1753876072.032943;17.158593;0.73;-1.63;-0.31;-0.725016;-0.715631;-0.014974;0.0;0.0;96.2;0.0;0.0;4.0
2.0;1753876072.037536;17.166048;0.81;-1.61;-0.33;-0.726003;-0.711943;-0.015537;0.0;0.0;88.4;0.0;0.0;3.9
2.0;1753876072.042129;17.118977;0.77;-1.65;-0.34;-0.726805;-0.71595;-0.015857;0.0;0.0;95.3;0.0;0.0;3.1
2.0;1753876072.046722;17.151465;0.84;-1.6;-0.33;-0.726387;-0.715613;-0.014723;0.0;0.0;90.1;0.0;0.0;3.8
2.0;1753876072.051315;17.120619;0.68;-1.58;-0.32;-0.725099;-0.715031;-0.015982;0.0;0.0;90.9;0.0;0.0;4.0
2.0;1753876072.055908;17.14013;0.75;-1.61;-0.33;-0.728416;-0.718346;-0.015057;0.0;0.0;97.4;0.0;0.0;4.4
2.0;1753876072.0605;17.112189;0.8;-1.56;-0.33;-0.729623;-0.71445;-0.014847;0.0;0.0;92.4;0.0;0.0;4.0
2.0;1753876072.065094;17.138832;0.82;-1.66;-0.3;-0.728923;-0.714958;-0.015773;0.0;0.0;91.9;0.0;0.0;3.9
2.0;1753876072.069686;17.104686;0.67;-1.59;-0.27;-0.728196;-0.711816;-0.014511;0.0;0.0;91.6;0.0;0.0;4.2
2.0;1753876072.074279;17.155151;0.78;-1.51;-0.35;-0.728073;-0.715369;-0.013927;0.0;0.0;93.0;0.0;0.0;3.7
2.0;1753876072.078872;17.124761;0.75;-1.52;-0.3;-0.727204;-0.71452;-0.015365;0.0;0.0;96.6;0.0;0.0;3.9
2.0;1753876072.083465;17.095693;0.84;-1.61;-0.34;-0.728813;-0.714244;-0.014837;0.0;0.0;95.5;0.0;0.0;4.1
2.0;1753876072.088058;17.144782;0.73;-1.64;-0.22;-0.72613;-0.714857;-0.015809;0.0;0.0;91.2;0.0;0.0;4.2
2.0;1753876072.092651;17.091506;0.82;-1.59;-0.27;-0.725813;-0.71564;-0.014948;0.0;0.0;95.9;0.0;0.0;4.0
2.0;1753876072.097244;17.115841;0.74;-1.55;-0.3;-0.727881;-0.717038;-0.016374;0.0;0.0;90.0;0.0;0.0;3.8
2.0;1753876072.101837;17.113339;0.78;-1.69;-0.32;-0.728179;-0.716055;-0.016091;0.0;0.0;94.1;0.0;0.0;4.1
2.0;1753876072.10643;17.143027;0.76;-1.66;-0.31;-0.729352;-0.715007;-0.015703;0.0;0.0;99.0;0.0;0.0;4.4
2.0;1753876072.111022;17.143768;0.91;-1.63;-0.43;-0.72522;-0.711494;-0.013371;0.0;0.0;93.1;0.0;0.0;4.0
2.0;1753876072.115615;17.130483;0.74;-1.58;-0.31;-0.727656;-0.715;-0.015394;0.0;0.0;95.4;0.0;0.0;4.1
2.0;1753876072.120208;17.191168;0.76;-1.64;-0.23;-0.727709;-0.714844;-0.015824;0.0;0.0;85.4;0.0;0.0;4.2
2.0;1753876072.124801;17.162451;0.76;-1.71;-0.27;-0.727578;-0.713731;-0.014233;0.0;0.0;96.3;0.0;0.0;4.3
2.0;1753876072.129394;17.145709;0.84;-1.6;-0.18;-0.725934;-0.716651;-0.014585;0.0;0.0;92.1;0.0;0.0;3.6
2.0;1753876072.133987;17.118453;0.84;-1.64;-0.36;-0.725248;-0.715789;-0.016087;0.0;0.0;98.3;0.0;0.0;3.9
2.0;1753876072.13858;17.107165;0.85;-1.66;-0.26;-0.725037;-0.7161;-0.015038;0.0;0.0;96.3;0.0;0.0;3.8
2.0;1753876072.143173;17.167266;0.73;-1.55;-0.33;-0.725915;-0.714035;-0.016507;0.0;0.0;91.4;0.0;0.0;4.5
2.0;1753876072.147766;17.093597;0.86;-1.72;-0.33;-0.729725;-0.71357;-0.015114;0.0;0.0;90.0;0.0;0.0;4.2
2.0;1753876072.152358;17.131936;0.82;-1.65;-0.31;-0.728676;-0.716813;-0.014381;0.0;0.0;98.5;0.0;0.0;4.4
2.0;1753876072.156952;17.13581;0.7;-1.58;-0.25;-0.726662;-0.71659;-0.014269;0.0;0.0;90.3;0.0;0.0;4.1
2.0;1753876072.161544;17.136793;0.82;-1.59;-0.3;-0.730089;-0.714205;-0.014586;0.0;0.0;100.8;0.0;0.0;3.8
2.0;1753876072.166137;17.106979;0.72;-1.64;-0.37;-0.728295;-0.71964;-0.016585;0.0;0.0;94.6;0.0;0.0;4.5
2.0;1753876072.17073;17.162328;0.72;-1.67;-0.3;-0.727753;-0.714259;-0.01465;0.0;0.0;90.2;0.0;0.0;4.1
2.0;1753876072.175323;17.154712;0.68;-1.68;-0.32;-0.727251;-0.715225;-0.014249;0.0;0.0;91.9;0.0;0.0;3.9
2.0;1753876072.179916;17.164998;0.76;-1.68;-0.35;-0.725782;-0.715416;-0.015827;0.0;0.0;90.3;0.0;0.0;4.6
2.0;1753876072.184509;17.153357;0.75;-1.65;-0.3;-0.726692;-0.716846;-0.015148;0.0;0.0;90.5;0.0;0.0;4.7
2.0;1753876072.189102;17.036714;0.75;-1.59;-0.27;-0.726682;-0.715007;-0.01269;0.0;0.0;92.1;0.0;0.0;4.7
2.0;1753876072.193694;17.132133;0.87;-1.49;-0.29;-0.729846;-0.713699;-0.015167;0.0;0.0;100.8;0.0;0.0;4.4
2.0;1753876072.198288;17.13147;0.82;-1.55;-0.32;-0.726477;-0.715594;-0.015352;0.0;0.0;94.1;0.0;0.0;4.5
2.0;1753876072.20288;17.042198;0.89;-1.55;-0.35;-0.728989;-0.716381;-0.014347;0.0;0.0;92.4;0.0;0.0;3.9
2.0;1753876072.207473;17.100779;0.74;-1.68;-0.28;-0.73117;-0.713724;-0.013702;0.0;0.0;99.5;0.0;0.0;4.1
2.0;1753876072.212066;17.176728;0.74;-1.62;-0.3;-0.727773;-0.714036;-0.015003;0.0;0.0;85.6;0.0;0.0;4.3
2.0;1753876072.216659;17.093473;0.78;-1.64;-0.27;-0.726801;-0.713197;-0.015557;0.0;0.0;95.2;0.0;0.0;4.4
2.0;1753876072.221252;17.071127;0.9;-1.63;-0.37;-0.727557;-0.715248;-0.014078;0.0;0.0;96.7;0.0;0.0;4.0
2.0;1753876072.225845;17.135608;0.77;-1.5;-0.32;-0.727472;-0.716128;-0.015267;0.0;0.0;89.3;0.0;0.0;4.6
2.0;1753876072.230438;17.166885;0.83;-1.71;-0.26;-0.727924;-0.716103;-0.014997;0.0;0.0;97.7;0.0;0.0;3.9
2.0;1753876072.235031;17.119672;0.78;-1.53;-0.32;-0.7277;-0.715205;-0.014557;0.0;0.0;97.3;0.0;0.0;4.7
2.0;1753876072.239624;17.151695;0.71;-1.67;-0.29;-0.72797;-0.717283;-0.015087;0.0;0.0;92.0;0.0;0.0;4.5
2.0;1753876072.244216;17.115263;0.78;-1.7;-0.3;-0.72797;-0.713963;-0.014773;0.0;0.0;96.4;0.0;0.0;4.1
2.0;1753876072.248809;17.119726;0.7;-1.61;-0.27;-0.727509;-0.714138;-0.014475;0.0;0.0;102.7;0.0;0.0;3.5
2.0;1753876072.253402;17.150595;0.81;-1.64;-0.33;-0.728457;-0.713479;-0.015142;0.0;0.0;95.7;0.0;0.0;3.8
2.0;1753876072.257995;17.117019;0.87;-1.68;-0.29;-0.723673;-0.713559;-0.014635;0.0;0.0;97.8;0.0;0.0;4.2
2.0;1753876072.262588;17.138982;0.85;-1.56;-0.32;-0.726576;-0.714386;-0.015398;0.0;0.0;89.1;0.0;0.0;4.1
2.0;1753876072.267181;17.152432;0.8;-1.51;-0.31;-0.725201;-0.715751;-0.014621;0.0;0.0;86.8;0.0;0.0;4.5
2.0;1753876072.271774;17.098498;0.84;-1.55;-0.3;-0.72951;-0.711348;-0.013535;0.0;0.0;97.7;0.0;0.0;4.5
2.0;1753876072.276367;17.118206;0.77;-1.63;-0.38;-0.72885;-0.712849;-0.01411;0.0;0.0;95.2;0.0;0.0;4.7
2.0;1753876072.28096;17.071667;0.92;-1.63;-0.28;-0.730205;-0.714602;-0.015375;0.0;0.0;92.5;0.0;0.0;3.9
2.0;1753876072.285552;17.124548;0.82;-1.59;-0.32;-0.726409;-0.713777;-0.015047;0.0;0.0;98.8;0.0;0.0;4.2
2.0;1753876072.290146;17.216562;0.81;-1.66;-0.3;-0.729212;-0.713121;-0.014154;0.0;0.0;89.8;0.0;0.0;4.1
2.0;1753876072.294738;17.183795;0.86;-1.58;-0.36;-0.728785;-0.715591;-0.014087;0.0;0.0;88.2;0.0;0.0;4.0
2.0;1753876072.299331;17.120848;0.79;-1.58;-0.32;-0.730315;-0.7134;-0.014648;0.0;0.0;94.1;0.0;0.0;4.4
2.0;1753876072.303924;17.081324;0.78;-1.68;-0.3;-0.725286;-0.71683;-0.013285;0.0;0.0;103.7;0.0;0.0;4.2
2.0;1753876072.308517;17.137385;0.88;-1.6;-0.32;-0.730733;-0.714968;-0.013798;0.0;0.0;94.8;0.0;0.0;4.7
2.0;1753876072.31311;17.144273;0.86;-1.51;-0.23;-0.727865;-0.713985;-0.014851;0.0;0.0;94.4;0.0;0.0;4.8
2.0;1753876072.317703;17.120808;0.81;-1.52;-0.3;-0.727044;-0.713302;-0.015351;0.0;0.0;97.5;0.0;0.0;5.0
2.0;1753876072.322296;17.141965;0.7;-1.56;-0.3;-0.728149;-0.714943;-0.015415;0.0;0.0;95.1;0.0;0.0;4.3
2.0;1753876072.326888;17.114897;0.89;-1.64;-0.34;-0.729655;-0.712607;-0.01346;0.0;0.0;91.0;0.0;0.0;4.5
2.0;1753876072.331482;17.101131;0.88;-1.66;-0.34;-0.728001;-0.715148;-0.014104;0.0;0.0;96.5;0.0;0.0;4.2
2.0;1753876072.336074;17.108139;0.7;-1.62;-0.4;-0.726679;-0.714142;-0.01381;0.0;0.0;92.9;0.0;0.0;4.6
2.0;1753876072.340667;17.188785;0.83;-1.61;-0.33;-0.726837;-0.714195;-0.01409;0.0;0.0;94.0;0.0;0.0;4.6
2.0;1753876072.34526;17.111642;0.81;-1.63;-0.31;-0.726833;-0.715351;-0.013194;0.0;0.0;89.1;0.0;0.0;4.5
2.0;1753876072.349853;17.189272;0.89;-1.57;-0.38;-0.729367;-0.713348;-0.015978;0.0;0.0;94.7;0.0;0.0;4.9
2.0;1753876072.354446;17.111943;0.76;-1.64;-0.33;-0.729491;-0.714225;-0.013981;0.0;0.0;91.7;0.0;0.0;4.5
2.0;1753876072.359039;17.165285;0.84;-1.6;-0.29;-0.728978;-0.716055;-0.013884;0.0;0.0;100.0;0.0;0.0;4.0
2.0;1753876072.363632;17.135242;0.73;-1.67;-0.25;-0.728788;-0.715598;-0.015869;0.0;0.0;95.2;0.0;0.0;4.4
2.0;1753876072.368224;17.130288;0.87;-1.68;-0.29;-0.730614;-0.714719;-0.013487;0.0;0.0;104.4;0.0;0.0;4.1
2.0;1753876072.372818;17.133714;0.86;-1.56;-0.3;-0.728927;-0.713931;-0.014551;0.0;0.0;96.7;0.0;0.0;4.6
2.0;1753876072.37741;17.154992;0.87;-1.56;-0.33;-0.728161;-0.716213;-0.014719;0.0;0.0;98.4;0.0;0.0;4.2
2.0;1753876072.382003;17.162701;0.9;-1.52;-0.33;-0.730178;-0.713384;-0.014037;0.0;0.0;95.1;0.0;0.0;4.5
2.0;1753876072.386596;17.123481;0.78;-1.65;-0.33;-0.726304;-0.713926;-0.015409;0.0;0.0;99.9;0.0;0.0;4.1
2.0;1753876072.391189;17.112214;0.8;-1.55;-0.33;-0.727721;-0.716274;-0.01483;0.0;0.0;94.3;0.0;0.0;3.8
2.0;1753876072.395782;17.167535;0.78;-1.61;-0.31;-0.726504;-0.714076;-0.015073;0.0;0.0;97.7;0.0;0.0;4.6
2.0;1753876072.400375;17.145081;0.83;-1.55;-0.32;-0.727402;-0.7168;-0.015953;0.0;0.0;96.8;0.0;0.0;4.7
2.0;1753876072.404968;17.113147;0.81;-1.64;-0.27;-0.729261;-0.713239;-0.014798;0.0;0.0;96.0;0.0;0.0;4.6
2.0;1753876072.409561;17.139501;0.8;-1.64;-0.26;-0.72846;-0.714803;-0.014341;0.0;0.0;94.8;0.0;0.0;4.2
2.0;1753876072.414154;17.113451;0.85;-1.71;-0.33;-0.72771;-0.714797;-0.014071;0.0;0.0;99.0;0.0;0.0;4.3
2.0;1753876072.418746;17.151013;0.83;-1.58;-0.29;-0.728129;-0.714843;-0.016068;0.0;0.0;100.4;0.0;0.0;4.8
2.0;1753876072.423339;17.107971;0.92;-1.65;-0.32;-0.731432;-0.713157;-0.0146;0.0;0.0;95.2;0.0;0.0;4.4
2.0;1753876072.427932;17.191207;0.85;-1.56;-0.42;-0.729773;-0.712247;-0.015447;0.0;0.0;92.5;0.0;0.0;4.0
2.0;1753876072.432525;17.129296;0.8;-1.63;-0.3;-0.725023;-0.715438;-0.015601;0.0;0.0;99.5;0.0;0.0;4.2
2.0;1753876072.437118;17.110317;0.71;-1.67;-0.32;-0.729142;-0.712935;-0.015207;0.0;0.0;90.0;0.0;0.0;4.3
2.0;1753876072.441711;17.162553;0.84;-1.59;-0.3;-0.729497;-0.71415;-0.013766;0.0;0.0;89.8;0.0;0.0;4.3
2.0;1753876072.446304;17.106155;0.9;-1.61;-0.32;-0.730174;-0.713863;-0.014944;0.0;0.0;102.4;0.0;0.0;4.8
2.0;1753876072.450897;17.065822;0.8;-1.63;-0.27;-0.728866;-0.715056;-0.013481;0.0;0.0;99.9;0.0;0.0;4.8
2.0;1753876072.45549;17.074771;0.86;-1.5;-0.32;-0.730192;-0.714753;-0.014531;0.0;0.0;90.9;0.0;0.0;4.0
2.0;1753876072.460082;17.13888;0.83;-1.67;-0.33;-0.727594;-0.715408;-0.013959;0.0;0.0;93.1;0.0;0.0;3.8
2.0;1753876072.464676;17.097127;0.84;-1.6;-0.34;-0.728784;-0.712546;-0.014733;0.0;0.0;101.9;0.0;0.0;4.7
2.0;1753876072.469268;17.167724;0.87;-1.72;-0.3;-0.730385;-0.715144;-0.015024;0.0;0.0;101.0;0.0;0.0;4.8
2.0;1753876072.473861;17.071011;0.74;-1.65;-0.29;-0.726998;-0.715619;-0.014108;0.0;0.0;98.4;0.0;0.0;4.6
2.0;1753876072.478454;17.126652;0.84;-1.6;-0.37;-0.72876;-0.711337;-0.015442;0.0;0.0;93.8;0.0;0.0;4.5
2.0;1753876072.483047;17.167922;0.78;-1.59;-0.31;-0.727226;-0.715604;-0.013813;0.0;0.0;93.2;0.0;0.0;4.6
2.0;1753876072.48764;17.164114;0.74;-1.63;-0.35;-0.730361;-0.714903;-0.014527;0.0;0.0;96.7;0.0;0.0;4.5
2.0;1753876072.492233;17.190511;0.8;-1.57;-0.33;-0.728991;-0.715897;-0.013478;0.0;0.0;101.4;0.0;0.0;4.9
2.0;1753876072.496826;17.119233;0.88;-1.69;-0.3;-0.730514;-0.715405;-0.014828;0.0;0.0;97.9;0.0;0.0;4.8
2.0;1753876072.501418;17.063043;0.91;-1.68;-0.34;-0.727975;-0.712588;-0.013179;0.0;0.0;101.0;0.0;0.0;4.5
2.0;1753876072.506012;17.213583;0.8;-1.64;-0.3;-0.72626;-0.71325;-0.014211;0.0;0.0;94.1;0.0;0.0;4.6
2.0;1753876072.510604;17.18253;0.84;-1.61;-0.24;-0.728217;-0.712737;-0.014287;0.0;0.0;98.9;0.0;0.0;4.8
2.0;1753876072.515197;17.141215;0.8;-1.65;-0.22;-0.727228;-0.710823;-0.0166;0.0;0.0;101.0;0.0;0.0;4.7
2.0;1753876072.51979;17.173044;0.81;-1.67;-0.33;-0.727302;-0.714011;-0.01479;0.0;0.0;99.7;0.0;0.0;4.1
2.0;1753876072.524383;17.140633;0.82;-1.6;-0.33;-0.729282;-0.71347;-0.013232;0.0;0.0;104.0;0.0;0.0;4.4
2.0;1753876072.528976;17.163827;0.82;-1.6;-0.26;-0.731164;-0.714524;-0.014054;0.0;0.0;99.2;0.0;0.0;4.3
2.0;1753876072.533569;17.149377;0.82;-1.6;-0.17;-0.727328;-0.71501;-0.013785;0.0;0.0;90.9;0.0;0.0;5.0
2.0;1753876072.538162;17.117;0.86;-1.66;-0.33;-0.728255;-0.715678;-0.015285;0.0;0.0;105.3;0.0;0.0;4.6
2.0;1753876072.542755;17.121737;0.83;-1.67;-0.36;-0.727487;-0.71437;-0.014304;0.0;0.0;100.1;0.0;0.0;4.9
2.0;1753876072.547348;17.140616;0.93;-1.65;-0.25;-0.730591;-0.715665;-0.013227;0.0;0.0;94.8;0.0;0.0;4.4
2.0;1753876072.55194;17.155628;0.84;-1.62;-0.22;-0.728534;-0.715454;-0.014883;0.0;0.0;102.6;0.0;0.0;4.7
2.0;1753876072.556533;17.086164;0.82;-1.56;-0.36;-0.729785;-0.713181;-0.014283;0.0;0.0;98.3;0.0;0.0;4.5
2.0;1753876072.561126;17.125752;0.85;-1.61;-0.33;-0.730595;-0.713597;-0.014964;0.0;0.0;103.4;0.0;0.0;4.4
2.0;1753876072.565719;17.153969;0.91;-1.68;-0.24;-0.728812;-0.710942;-0.014018;0.0;0.0;92.9;0.0;0.0;4.1
2.0;1753876072.570312;17.155124;0.87;-1.61;-0.32;-0.730254;-0.714075;-0.01462;0.0;0.0;101.3;0.0;0.0;5.0
2.0;1753876072.574905;17.156329;0.82;-1.57;-0.28;-0.731311;-0.712898;-0.014452;0.0;0.0;96.7;0.0;0.0;4.4
2.0;1753876072.579498;17.100919;0.95;-1.69;-0.31;-0.729286;-0.714612;-0.014387;0.0;0.0;98.1;0.0;0.0;4.6
2.0;1753876072.584091;17.126588;0.84;-1.68;-0.22;-0.730323;-0.713073;-0.015222;0.0;0.0;106.3;0.0;0.0;4.1
2.0;1753876072.588684;17.153205;0.81;-1.68;-0.28;-0.730058;-0.714014;-0.015277;0.0;0.0;100.5;0.0;0.0;4.8
2.0;1753876072.593276;17.158208;0.78;-1.56;-0.4;-0.729615;-0.71277;-0.014543;0.0;0.0;93.6;0.0;0.0;4.4
2.0;1753876072.59787;17.065882;0.84;-1.7;-0.35;-0.730064;-0.713095;-0.01398;0.0;0.0;101.5;0.0;0.0;4.2
2.0;1753876072.602462;17.103755;0.81;-1.5;-0.31;-0.73081;-0.712858;-0.013236;0.0;0.0;100.1;0.0;0.0;4.9
2.0;1753876072.607055;17.158223;0.86;-1.64;-0.34;-0.728562;-0.713098;-0.014636;0.0;0.0;105.3;0.0;0.0;4.8
2.0;1753876072.611648;17.116069;0.85;-1.63;-0.35;-0.728247;-0.71565;-0.015002;0.0;0.0;100.6;0.0;0.0;5.2
2.0;1753876072.616241;17.117204;0.93;-1.67;-0.37;-0.728944;-0.716214;-0.01504;0.0;0.0;97.7;0.0;0.0;4.5
2.0;1753876072.620834;17.130928;0.86;-1.58;-0.35;-0.729597;-0.713838;-0.015364;0.0;0.0;97.2;0.0;0.0;4.9
2.0;1753876072.625427;17.193246;0.87;-1.65;-0.31;-0.727607;-0.714018;-0.015142;0.0;0.0;105.3;0.0;0.0;4.5
2.0;1753876072.63002;17.08065;0.88;-1.63;-0.31;-0.725935;-0.713967;-0.015379;0.0;0.0;95.1;0.0;0.0;4.3
2.0;1753876072.634612;17.138248;0.81;-1.52;-0.36;-0.730116;-0.714172;-0.014973;0.0;0.0;95.6;0.0;0.0;4.5
2.0;1753876072.639206;17.114139;0.77;-1.6;-0.34;-0.728462;-0.71213;-0.014152;0.0;0.0;99.4;0.0;0.0;4.8
2.0;1753876072.643798;17.140679;0.91;-1.64;-0.39;-0.728336;-0.715438;-0.013461;0.0;0.0;106.8;0.0;0.0;4.5
2.0;1753876072.648391;17.15283;0.85;-1.63;-0.28;-0.730891;-0.712084;-0.014161;0.0;0.0;102.9;0.0;0.0;5.1
2.0;1753876072.652984;17.107095;0.94;-1.59;-0.31;-0.728956;-0.714736;-0.015445;0.0;0.0;92.3;0.0;0.0;5.0
2.0;1753876072.657577;17.169477;0.81;-1.65;-0.35;-0.728503;-0.712726;-0.015473;0.0;0.0;96.8;0.0;0.0;4.9
2.0;1753876072.66217;17.147695;0.89;-1.67;-0.31;-0.730023;-0.713478;-0.013764;0.0;0.0;98.3;0.0;0.0;4.7
2.0;1753876072.666763;17.130063;0.91;-1.63;-0.37;-0.728549;-0.712253;-0.014017;0.0;0.0;90.9;0.0;0.0;4.9
2.0;1753876072.671356;17.04367;0.93;-1.59;-0.31;-0.728497;-0.715036;-0.014395;0.0;0.0;105.2;0.0;0.0;5.1
2.0;1753876072.675948;17.135134;0.88;-1.6;-0.39;-0.731299;-0.714285;-0.01319;0.0;0.0;103.5;0.0;0.0;4.7
2.0;1753876072.680542;17.151105;0.9;-1.54;-0.37;-0.727675;-0.712854;-0.01521;0.0;0.0;106.7;0.0;0.0;4.8
2.0;1753876072.685134;17.122108;0.91;-1.66;-0.36;-0.731198;-0.7163;-0.016462;0.0;0.0;105.2;0.0;0.0;4.4
2.0;1753876072.689727;17.163057;0.99;-1.59;-0.33;-0.728714;-0.71212;-0.014702;0.0;0.0;100.6;0.0;0.0;4.9
2.0;1753876072.69432;17.095829;0.87;-1.64;-0.32;-0.731212;-0.715224;-0.014658;0.0;0.0;97.6;0.0;0.0;5.3
2.0;1753876072.698913;17.174452;0.93;-1.6;-0.26;-0.728115;-0.715499;-0.01376;0.0;0.0;93.6;0.0;0.0;4.2
2.0;1753876072.703506;17.103356;0.86;-1.61;-0.31;-0.730213;-0.714423;-0.014853;0.0;0.0;100.5;0.0;0.0;4.8
2.0;1753876072.708099;17.099847;0.9;-1.69;-0.38;-0.727154;-0.71481;-0.014221;0.0;0.0;103.0;0.0;0.0;4.5
2.0;1753876072.712692;17.169399;0.83;-1.61;-0.38;-0.731692;-0.7138;-0.014941;0.0;0.0;108.5;0.0;0.0;5.1
2.0;1753876072.717285;17.116536;0.89;-1.59;-0.29;-0.730016;-0.716193;-0.014753;0.0;0.0;97.2;0.0;0.0;4.5
2.0;1753876072.721878;17.143635;0.86;-1.7;-0.46;-0.730852;-0.714628;-0.01405;0.0;0.0;102.7;0.0;0.0;5.3
2.0;1753876072.72647;17.076109;0.87;-1.6;-0.33;-0.729746;-0.711942;-0.015747;0.0;0.0;104.7;0.0;0.0;4.9
2.0;1753876072.731063;17.10968;0.96;-1.6;-0.37;-0.728781;-0.715204;-0.014082;0.0;0.0;105.3;0.0;0.0;4.6
2.0;1753876072.735656;17.102638;0.94;-1.52;-0.39;-0.728586;-0.715024;-0.014442;0.0;0.0;94.7;0.0;0.0;4.8
2.0;1753876072.740249;17.116337;0.86;-1.65;-0.34;-0.728542;-0.711957;-0.014706;0.0;0.0;102.5;0.0;0.0;5.0
2.0;1753876072.744842;17.190228;0.79;-1.59;-0.38;-0.731315;-0.712546;-0.013097;0.0;0.0;101.8;0.0;0.0;4.9
2.0;1753876072.749435;17.140876;0.83;-1.58;-0.28;-0.731955;-0.714971;-0.014361;0.0;0.0;103.0;0.0;0.0;5.0
2.0;1753876072.754028;17.088447;0.88;-1.69;-0.2;-0.730497;-0.713207;-0.015096;0.0;0.0;97.9;0.0;0.0;5.0
2.0;1753876072.758621;17.154356;0.8;-1.58;-0.38;-0.731669;-0.714813;-0.014187;0.0;0.0;101.0;0.0;0.0;4.9
2.0;1753876072.763214;17.094086;0.97;-1.6;-0.25;-0.728712;-0.712467;-0.01387;0.0;0.0;102.1;0.0;0.0;4.8
2.0;1753876072.767806;17.065998;0.87;-1.58;-0.27;-0.728322;-0.712556;-0.0143;0.0;0.0;104.5;0.0;0.0;4.8
2.0;1753876072.7724;17.134304;0.84;-1.56;-0.32;-0.730498;-0.712632;-0.015296;0.0;0.0;104.9;0.0;0.0;5.3
2.0;1753876072.776992;17.080553;1.0;-1.54;-0.35;-0.730218;-0.715447;-0.014152;0.0;0.0;95.4;0.0;0.0;4.8
2.0;1753876072.781585;17.12582;0.94;-1.55;-0.32;-0.726781;-0.713386;-0.013649;0.0;0.0;99.1;0.0;0.0;4.7
2.0;1753876072.786178;17.135398;0.93;-1.68;-0.43;-0.728085;-0.714617;-0.015636;0.0;0.0;103.9;0.0;0.0;4.5
2.0;1753876072.790771;17.130461;0.86;-1.64;-0.3;-0.729413;-0.713026;-0.013427;0.0;0.0;94.5;0.0;0.0;5.5
2.0;1753876072.795364;17.085329;0.94;-1.66;-0.36;-0.728601;-0.713356;-0.013886;0.0;0.0;97.2;0.0;0.0;5.3
2.0;1753876072.799957;17.124289;0.96;-1.59;-0.34;-0.732743;-0.711449;-0.014759;0.0;0.0;102.3;0.0;0.0;4.8
2.0;1753876072.80455;17.093084;0.86;-1.6;-0.33;-0.730089;-0.713746;-0.013976;0.0;0.0;98.8;0.0;0.0;4.8
2.0;1753876072.809142;17.148188;0.98;-1.65;-0.37;-0.729053;-0.712368;-0.013542;0.0;0.0;101.1;0.0;0.0;4.9
2.0;1753876072.813736;17.080803;0.91;-1.64;-0.37;-0.727796;-0.712958;-0.01521;0.0;0.0;102.8;0.0;0.0;4.9
2.0;1753876072.818328;17.144904;0.9;-1.68;-0.31;-0.729093;-0.712821;-0.015579;0.0;0.0;103.6;0.0;0.0;5.3
2.0;1753876072.822921;17.155797;0.94;-1.53;-0.3;-0.731985;-0.712879;-0.015513;0.0;0.0;97.2;0.0;0.0;5.9
2.0;1753876072.827514;17.153053;0.78;-1.66;-0.35;-0.730388;-0.714192;-0.014676;0.0;0.0;96.4;0.0;0.0;5.0
2.0;1753876072.832107;17.141287;0.9;-1.64;-0.31;-0.732748;-0.714136;-0.013396;0.0;0.0;100.7;0.0;0.0;5.4
2.0;1753876072.8367;17.170675;0.86;-1.56;-0.33;-0.727698;-0.715227;-0.014895;0.0;0.0;102.3;0.0;0.0;4.4
2.0;1753876072.841293;17.048815;0.92;-1.64;-0.36;-0.731566;-0.712513;-0.014116;0.0;0.0;106.0;0.0;0.0;5.0
2.0;1753876072.845886;17.135094;0.93;-1.69;-0.38;-0.728238;-0.714922;-0.013721;0.0;0.0;104.9;0.0;0.0;5.0
2.0;1753876072.850479;17.103897;0.92;-1.6;-0.37;-0.731947;-0.713576;-0.013831;0.0;0.0;100.9;0.0;0.0;5.1
2.0;1753876072.855072;17.134923;0.93;-1.64;-0.28;-0.730198;-0.712241;-0.014122;0.0;0.0;99.3;0.0;0.0;4.6
2.0;1753876072.859664;17.205362;0.88;-1.64;-0.3;-0.724704;-0.715081;-0.014179;0.0;0.0;109.2;0.0;0.0;4.8
2.0;1753876072.864257;17.161637;0.93;-1.47;-0.23;-0.726612;-0.711137;-0.0138;0.0;0.0;94.7;0.0;0.0;4.5
2.0;1753876072.86885;17.111316;0.98;-1.64;-0.39;-0.728142;-0.714808;-0.013315;0.0;0.0;98.0;0.0;0.0;4.5
2.0;1753876072.873443;17.177976;1.0;-1.65;-0.34;-0.728117;-0.71266;-0.015935;0.0;0.0;108.5;0.0;0.0;4.8
2.0;1753876072.878036;17.13919;0.93;-1.56;-0.4;-0.728849;-0.71266;-0.013925;0.0;0.0;107.3;0.0;0.0;4.8
2.0;1753876072.882629;17.060443;0.83;-1.64;-0.39;-0.729433;-0.71272;-0.015438;0.0;0.0;96.6;0.0;0.0;5.3
2.0;1753876072.887222;17.106744;0.87;-1.54;-0.38;-0.732827;-0.711218;-0.01386;0.0;0.0;102.6;0.0;0.0;5.2
2.0;1753876072.891815;17.18744;0.9;-1.59;-0.34;-0.731496;-0.714607;-0.013439;0.0;0.0;107.6;0.0;0.0;5.1
2.0;1753876072.896;17.128906;0.91;-1.61;-0.35;-0.729926;-0.713578;-0.014274;0.0;0.0;102.0;0.0;0.0;5.0
2.0;1753876072.900593;17.129318;0.92;-1.6;-0.41;-0.729377;-0.713711;-0.013179;0.0;0.0;105.4;0.0;0.0;5.0
2.0;1753876072.905186;17.158306;0.99;-1.66;-0.39;-0.727579;-0.712489;-0.015518;0.0;0.0;94.2;0.0;0.0;5.0
2.0;1753876072.909778;17.179403;0.87;-1.69;-0.34;-0.729977;-0.712344;-0.013661;0.0;0.0;97.4;0.0;0.0;5.0
2.0;1753876072.914372;17.166009;1.02;-1.53;-0.43;-0.731852;-0.712856;-0.014094;0.0;0.0;102.1;0.0;0.0;5.0
2.0;1753876072.918964;17.161698;0.98;-1.67;-0.34;-0.733051;-0.714255;-0.014152;0.0;0.0;109.3;0.0;0.0;5.0
2.0;1753876072.923557;17.12423;0.96;-1.64;-0.4;-0.728999;-0.714109;-0.013955;0.0;0.0;100.3;0.0;0.0;5.0
2.0;1753876072.92815;17.199395;0.8;-1.59;-0.41;-0.729167;-0.713421;-0.014443;0.0;0.0;97.9;0.0;0.0;5.0
2.0;1753876072.932743;17.10851;0.99;-1.61;-0.32;-0.727328;-0.712848;-0.013558;0.0;0.0;103.7;0.0;0.0;5.0
2.0;1753876072.937336;17.149082;0.93;-1.63;-0.37;-0.731618;-0.713887;-0.013427;0.0;0.0;103.0;0.0;0.0;5.0
2.0;1753876072.941929;17.196686;0.99;-1.67;-0.41;-0.73091;-0.713467;-0.014178;0.0;0.0;102.7;0.0;0.0;5.0
2.0;1753876072.946522;17.099411;0.91;-1.51;-0.34;-0.730382;-0.714489;-0.013235;0.0;0.0;90.1;0.0;0.0;5.0
2.0;1753876072.951115;17.171099;0.9;-1.66;-0.36;-0.72995;-0.712728;-0.013112;0.0;0.0;100.5;0.0;0.0;5.0
2.0;1753876072.955708;17.134254;0.88;-1.56;-0.38;-0.73296;-0.711787;-0.013638;0.0;0.0;95.0;0.0;0.0;5.0
2.0;1753876072.9603;17.103331;0.91;-1.57;-0.3;-0.733312;-0.714557;-0.01314;0.0;0.0;102.9;0.0;0.0;5.0
2.0;1753876072.964893;17.154436;0.85;-1.56;-0.34;-0.73197;-0.711251;-0.014504;0.0;0.0;108.1;0.0;0.0;5.0
2.0;1753876072.969486;17.149402;0.96;-1.69;-0.29;-0.730552;-0.715471;-0.014449;0.0;0.0;101.2;0.0;0.0;5.0
2.0;1753876072.974079;17.145997;0.86;-1.57;-0.33;-0.730169;-0.715327;-0.013854;0.0;0.0;108.3;0.0;0.0;5.0
2.0;1753876072.9824;17.152344;0.91;-1.61;-0.35;-0.732244;-0.712968;-0.013664;0.0;0.0;102.0;0.0;0.0;5.0
2.0;1753876072.984127;17.128906;0.84;-1.68;-0.21;-0.731024;-0.714676;-0.015738;0.0;0.0;88.0;0.0;0.0;4.0
2.0;1753876072.990061;17.128906;0.98;-1.75;-0.35;-0.730536;-0.713944;-0.013664;0.0;0.0;88.0;0.0;0.0;4.0
2.0;1753876072.993274;17.128906;0.98;-1.75;-0.35;-0.729438;-0.714432;-0.014884;0.0;0.0;88.0;0.0;0.0;4.0
2.0;1753876072.99781;17.113281;0.98;-1.68;-0.42;-0.732;-0.713456;-0.013908;0.0;0.0;88.0;0.0;0.0;4.0
2.0;1753876073.002403;17.12455;0.88;-1.62;-0.39;-0.730809;-0.714965;-0.014025;0.0;0.0;87.0;0.0;0.0;3.5
2.0;1753876073.006996;17.106564;0.94;-1.72;-0.44;-0.732188;-0.710843;-0.013483;0.0;0.0;86.9;0.0;0.0;4.1
2.0;1753876073.011588;17.131868;1.01;-1.71;-0.38;-0.730921;-0.713251;-0.014981;0.0;0.0;89.2;0.0;0.0;4.0
2.0;1753876073.016182;17.110792;1.01;-1.59;-0.42;-0.732488;-0.712507;-0.013512;0.0;0.0;85.1;0.0;0.0;3.6
2.0;1753876073.020774;17.116955;1.0;-1.76;-0.48;-0.732414;-0.711978;-0.013907;0.0;0.0;85.2;0.0;0.0;4.4
2.0;1753876073.025367;17.114797;0.96;-1.6;-0.47;-0.732083;-0.712621;-0.014626;0.0;0.0;88.7;0.0;0.0;5.1
2.0;1753876073.02996;17.110573;1.01;-1.67;-0.45;-0.7317;-0.713274;-0.012964;0.0;0.0;86.8;0.0;0.0;4.4
2.0;1753876073.034553;17.106144;1.07;-1.59;-0.35;-0.732245;-0.712903;-0.012996;0.0;0.0;82.7;0.0;0.0;3.6
2.0;1753876073.039146;17.120495;1.06;-1.59;-0.38;-0.730868;-0.714215;-0.015231;0.0;0.0;88.6;0.0;0.0;4.2
2.0;1753876073.043739;17.109132;1.0;-1.65;-0.42;-0.731969;-0.711282;-0.014436;0.0;0.0;88.7;0.0;0.0;4.4
2.0;1753876073.048332;17.104367;1.0;-1.67;-0.41;-0.731769;-0.712743;-0.014458;0.0;0.0;91.9;0.0;0.0;3.5
2.0;1753876073.052925;17.119134;1.03;-1.66;-0.34;-0.731207;-0.714481;-0.013406;0.0;0.0;87.2;0.0;0.0;4.1
2.0;1753876073.057518;17.118602;0.95;-1.75;-0.4;-0.732268;-0.715671;-0.014133;0.0;0.0;89.3;0.0;0.0;4.0
2.0;1753876073.06211;17.113675;0.93;-1.69;-0.42;-0.732291;-0.712564;-0.013945;0.0;0.0;89.9;0.0;0.0;3.5
2.0;1753876073.066703;17.10815;0.83;-1.69;-0.41;-0.732966;-0.712684;-0.013656;0.0;0.0;84.8;0.0;0.0;3.7
2.0;1753876073.071296;17.111955;0.96;-1.68;-0.4;-0.731589;-0.713738;-0.014635;0.0;0.0;86.0;0.0;0.0;4.4
2.0;1753876073.075889;17.0967;1.06;-1.66;-0.36;-0.733621;-0.713563;-0.013635;0.0;0.0;84.9;0.0;0.0;4.5
2.0;1753876073.080482;17.121713;1.03;-1.72;-0.32;-0.733603;-0.713253;-0.012044;0.0;0.0;85.2;0.0;0.0;3.6
2.0;1753876073.085075;17.12698;0.91;-1.62;-0.36;-0.730508;-0.714529;-0.014325;0.0;0.0;88.5;0.0;0.0;3.0
2.0;1753876073.089668;17.114277;0.94;-1.68;-0.43;-0.732213;-0.713541;-0.012199;0.0;0.0;89.7;0.0;0.0;2.9
2.0;1753876073.094261;17.13291;0.94;-1.6;-0.28;-0.731;-0.715749;-0.013615;0.0;0.0;84.9;0.0;0.0;3.7
2.0;1753876073.098854;17.097011;0.9;-1.64;-0.46;-0.732681;-0.714011;-0.013373;0.0;0.0;85.3;0.0;0.0;4.1
2.0;1753876073.103446;17.101177;1.0;-1.66;-0.44;-0.731708;-0.713361;-0.013483;0.0;0.0;85.5;0.0;0.0;4.1
2.0;1753876073.10804;17.095405;1.13;-1.66;-0.39;-0.732243;-0.713355;-0.012091;0.0;0.0;93.0;0.0;0.0;5.2
2.0;1753876073.112632;17.144218;1.01;-1.71;-0.33;-0.731008;-0.711765;-0.014907;0.0;0.0;89.3;0.0;0.0;3.5
2.0;1753876073.117225;17.105069;1.04;-1.65;-0.33;-0.732608;-0.713948;-0.013904;0.0;0.0;89.1;0.0;0.0;4.4
2.0;1753876073.121818;17.111082;0.99;-1.68;-0.38;-0.731992;-0.712908;-0.012334;0.0;0.0;87.8;0.0;0.0;3.8
2.0;1753876073.126411;17.121896;1.04;-1.72;-0.4;-0.731581;-0.713409;-0.014832;0.0;0.0;84.1;0.0;0.0;3.8
2.0;1753876073.131004;17.097657;0.92;-1.65;-0.41;-0.732848;-0.713728;-0.013468;0.0;0.0;88.3;0.0;0.0;3.8
2.0;1753876073.135597;17.081056;0.96;-1.72;-0.4;-0.731677;-0.713846;-0.014051;0.0;0.0;85.4;0.0;0.0;3.9
2.0;1753876073.14019;17.11914;0.92;-1.64;-0.36;-0.730509;-0.712943;-0.01406;0.0;0.0;87.7;0.0;0.0;3.8
2.0;1753876073.144782;17.110531;0.95;-1.65;-0.37;-0.73144;-0.712844;-0.014524;0.0;0.0;86.1;0.0;0.0;4.4
2.0;1753876073.149376;17.109216;0.96;-1.62;-0.45;-0.732304;-0.713406;-0.013894;0.0;0.0;85.7;0.0;0.0;3.4
2.0;1753876073.153968;17.107353;1.0;-1.64;-0.34;-0.734006;-0.714215;-0.013893;0.0;0.0;94.9;0.0;0.0;3.9
2.0;1753876073.158561;17.113667;0.96;-1.64;-0.48;-0.730433;-0.714126;-0.014535;0.0;0.0;91.7;0.0;0.0;4.1
2.0;1753876073.163154;17.122155;0.98;-1.71;-0.45;-0.730693;-0.713914;-0.013901;0.0;0.0;89.7;0.0;0.0;4.0
2.0;1753876073.167747;17.106117;0.9;-1.7;-0.28;-0.731864;-0.713864;-0.013055;0.0;0.0;89.7;0.0;0.0;4.7
2.0;1753876073.17234;17.121455;1.03;-1.75;-0.47;-0.731139;-0.714158;-0.014519;0.0;0.0;86.3;0.0;0.0;3.4
2.0;1753876073.176933;17.102221;1.09;-1.67;-0.4;-0.731628;-0.713508;-0.014523;0.0;0.0;85.6;0.0;0.0;4.1
2.0;1753876073.181526;17.097923;0.93;-1.59;-0.43;-0.731707;-0.714728;-0.013365;0.0;0.0;88.2;0.0;0.0;3.8
2.0;1753876073.186118;17.122721;1.05;-1.71;-0.3;-0.731088;-0.713613;-0.017073;0.0;0.0;91.5;0.0;0.0;4.7
2.0;1753876073.190712;17.117367;0.99;-1.46;-0.5;-0.732219;-0.711871;-0.013827;0.0;0.0;91.0;0.0;0.0;3.4
2.0;1753876073.195304;17.098628;0.95;-1.62;-0.36;-0.733537;-0.714007;-0.012879;0.0;0.0;92.6;0.0;0.0;4.8
2.0;1753876073.199897;17.132787;0.96;-1.52;-0.37;-0.732587;-0.712606;-0.012247;0.0;0.0;97.0;0.0;0.0;3.9
2.0;1753876073.20449;17.122307;0.94;-1.59;-0.32;-0.731603;-0.713936;-0.015022;0.0;0.0;87.5;0.0;0.0;4.0
2.0;1753876073.209083;17.08857;0.94;-1.67;-0.32;-0.7323;-0.713393;-0.013964;0.0;0.0;95.9;0.0;0.0;3.9
2.0;1753876073.213676;17.122001;0.98;-1.6;-0.33;-0.732664;-0.715936;-0.013842;0.0;0.0;91.5;0.0;0.0;5.1
2.0;1753876073.218269;17.118905;0.94;-1.66;-0.44;-0.73291;-0.714516;-0.01403;0.0;0.0;83.8;0.0;0.0;4.3
2.0;1753876073.222862;17.111681;0.88;-1.77;-0.32;-0.731982;-0.713369;-0.014828;0.0;0.0;94.2;0.0;0.0;4.2
2.0;1753876073.227455;17.112901;0.95;-1.71;-0.47;-0.733949;-0.713887;-0.015183;0.0;0.0;93.6;0.0;0.0;3.6
2.0;1753876073.232048;17.118208;0.91;-1.67;-0.37;-0.731711;-0.713342;-0.013866;0.0;0.0;94.1;0.0;0.0;4.3
2.0;1753876073.23664;17.088532;0.88;-1.71;-0.35;-0.730832;-0.716731;-0.013846;0.0;0.0;91.3;0.0;0.0;3.3
2.0;1753876073.241233;17.114071;0.91;-1.55;-0.26;-0.732199;-0.71146;-0.013249;0.0;0.0;90.1;0.0;0.0;4.0
2.0;1753876073.245826;17.121987;0.97;-1.67;-0.31;-0.730968;-0.713478;-0.01431;0.0;0.0;89.8;0.0;0.0;3.4
2.0;1753876073.250419;17.110367;1.0;-1.61;-0.4;-0.731504;-0.714388;-0.016187;0.0;0.0;90.4;0.0;0.0;4.1
2.0;1753876073.255012;17.093996;1.05;-1.64;-0.34;-0.733177;-0.714033;-0.013401;0.0;0.0;88.4;0.0;0.0;4.1
2.0;1753876073.259605;17.110545;0.91;-1.6;-0.41;-0.7319;-0.713347;-0.013118;0.0;0.0;95.0;0.0;0.0;3.2
2.0;1753876073.264198;17.105715;0.87;-1.75;-0.31;-0.731191;-0.712376;-0.013747;0.0;0.0;89.3;0.0;0.0;3.5
2.0;1753876073.268791;17.092135;0.97;-1.77;-0.28;-0.731675;-0.713351;-0.015403;0.0;0.0;82.7;0.0;0.0;4.3
2.0;1753876073.273384;17.134598;0.9;-1.56;-0.29;-0.732077;-0.710753;-0.013962;0.0;0.0;87.5;0.0;0.0;3.8
2.0;1753876073.277976;17.108126;1.02;-1.65;-0.36;-0.730035;-0.714383;-0.013866;0.0;0.0;96.8;0.0;0.0;3.8
2.0;1753876073.28257;17.113999;0.93;-1.7;-0.34;-0.730384;-0.713147;-0.013021;0.0;0.0;94.4;0.0;0.0;3.4
2.0;1753876073.287162;17.124318;0.85;-1.6;-0.3;-0.732731;-0.713681;-0.013384;0.0;0.0;86.6;0.0;0.0;4.1
2.0;1753876073.291755;17.133049;0.93;-1.57;-0.35;-0.73164;-0.714563;-0.013657;0.0;0.0;93.5;0.0;0.0;4.2
2.0;1753876073.296348;17.106748;1.03;-1.64;-0.31;-0.732043;-0.713524;-0.013109;0.0;0.0;90.1;0.0;0.0;3.9
2.0;1753876073.300941;17.121904;0.95;-1.75;-0.38;-0.731816;-0.715408;-0.013447;0.0;0.0;93.9;0.0;0.0;4.3
2.0;1753876073.305534;17.111312;0.87;-1.69;-0.41;-0.730014;-0.715041;-0.015709;0.0;0.0;86.6;0.0;0.0;4.2
2.0;1753876073.310127;17.111268;1.01;-1.65;-0.32;-0.731479;-0.71227;-0.01314;0.0;0.0;84.6;0.0;0.0;4.8
2.0;1753876073.31472;17.10634;0.94;-1.64;-0.36;-0.73266;-0.714179;-0.015954;0.0;0.0;89.7;0.0;0.0;4.1
2.0;1753876073.319312;17.126404;0.9;-1.68;-0.38;-0.730506;-0.712743;-0.01389;0.0;0.0;91.2;0.0;0.0;3.4
2.0;1753876073.323906;17.12043;0.9;-1.66;-0.37;-0.731526;-0.712463;-0.01445;0.0;0.0;88.0;0.0;0.0;4.0
2.0;1753876073.328498;17.124554;1.14;-1.6;-0.33;-0.73104;-0.713095;-0.015194;0.0;0.0;79.5;0.0;0.0;4.2
2.0;1753876073.333091;17.107339;1.0;-1.64;-0.32;-0.729473;-0.714327;-0.013205;0.0;0.0;93.4;0.0;0.0;3.9
2.0;1753876073.337684;17.113708;0.96;-1.7;-0.41;-0.731728;-0.71217;-0.013883;0.0;0.0;88.1;0.0;0.0;3.6
2.0;1753876073.342277;17.100519;0.91;-1.77;-0.37;-0.732193;-0.713361;-0.015354;0.0;0.0;90.8;0.0;0.0;3.8
2.0;1753876073.34687;17.119088;0.94;-1.64;-0.27;-0.733511;-0.714245;-0.014022;0.0;0.0;89.6;0.0;0.0;4.2
2.0;1753876073.351463;17.132282;0.92;-1.68;-0.41;-0.731475;-0.712818;-0.014663;0.0;0.0;91.9;0.0;0.0;4.2
2.0;1753876073.356056;17.10659;0.82;-1.65;-0.37;-0.732032;-0.712028;-0.012287;0.0;0.0;93.6;0.0;0.0;2.3
2.0;1753876073.360649;17.13078;0.96;-1.75;-0.41;-0.732823;-0.713441;-0.013801;0.0;0.0;92.4;0.0;0.0;4.8
2.0;1753876073.365242;17.105492;0.94;-1.57;-0.34;-0.732499;-0.714166;-0.013637;0.0;0.0;89.5;0.0;0.0;3.8
2.0;1753876073.369834;17.10458;0.9;-1.62;-0.41;-0.731814;-0.714306;-0.013316;0.0;0.0;92.7;0.0;0.0;4.0
2.0;1753876073.374427;17.113053;1.02;-1.56;-0.34;-0.731092;-0.712973;-0.013776;0.0;0.0;97.3;0.0;0.0;4.3
2.0;1753876073.37902;17.110453;0.88;-1.63;-0.28;-0.733262;-0.714609;-0.013919;0.0;0.0;85.5;0.0;0.0;3.5
2.0;1753876073.383613;17.119991;0.99;-1.62;-0.31;-0.732728;-0.714177;-0.014042;0.0;0.0;94.6;0.0;0.0;3.4
2.0;1753876073.388206;17.100259;0.84;-1.66;-0.46;-0.729772;-0.713773;-0.014215;0.0;0.0;94.2;0.0;0.0;4.7
2.0;1753876073.392799;17.114454;0.89;-1.58;-0.36;-0.730596;-0.712084;-0.014005;0.0;0.0;88.9;0.0;0.0;4.8
2.0;1753876073.397392;17.114703;1.03;-1.6;-0.38;-0.731291;-0.713602;-0.013659;0.0;0.0;96.7;0.0;0.0;4.2
2.0;1753876073.401985;17.128693;0.94;-1.61;-0.35;-0.732618;-0.71231;-0.013236;0.0;0.0;87.0;0.0;0.0;4.5
2.0;1753876073.406578;17.114075;0.97;-1.63;-0.39;-0.731381;-0.714107;-0.014373;0.0;0.0;96.3;0.0;0.0;4.3
2.0;1753876073.41117;17.114194;0.86;-1.6;-0.33;-0.732549;-0.714015;-0.013455;0.0;0.0;89.0;0.0;0.0;4.3
2.0;1753876073.415764;17.10995;0.94;-1.54;-0.39;-0.734166;-0.713521;-0.014363;0.0;0.0;91.7;0.0;0.0;4.2
2.0;1753876073.420356;17.12571;0.87;-1.68;-0.32;-0.733004;-0.713126;-0.014247;0.0;0.0;90.2;0.0;0.0;4.0
2.0;1753876073.424949;17.106417;1.02;-1.63;-0.36;-0.730373;-0.71525;-0.015035;0.0;0.0;90.1;0.0;0.0;3.4
2.0;1753876073.429542;17.121552;0.95;-1.67;-0.23;-0.732289;-0.712637;-0.014782;0.0;0.0;88.4;0.0;0.0;4.2
2.0;1753876073.434135;17.110774;0.89;-1.61;-0.33;-0.731687;-0.714217;-0.015178;0.0;0.0;97.5;0.0;0.0;4.5
2.0;1753876073.438728;17.107141;0.99;-1.57;-0.31;-0.733738;-0.712008;-0.012407;0.0;0.0;103.5;0.0;0.0;3.9
2.0;1753876073.443321;17.08475;0.91;-1.55;-0.24;-0.732156;-0.713293;-0.014378;0.0;0.0;88.8;0.0;0.0;3.7
2.0;1753876073.447914;17.106476;1.01;-1.63;-0.31;-0.732468;-0.713609;-0.012873;0.0;0.0;91.3;0.0;0.0;3.5
2.0;1753876073.452506;17.123144;0.93;-1.59;-0.28;-0.733214;-0.713056;-0.014571;0.0;0.0;85.9;0.0;0.0;3.2
2.0;1753876073.4571;17.121753;1.0;-1.57;-0.41;-0.731726;-0.713806;-0.014757;0.0;0.0;94.2;0.0;0.0;3.5
2.0;1753876073.461692;17.11144;0.99;-1.66;-0.31;-0.732502;-0.71611;-0.013457;0.0;0.0;92.6;0.0;0.0;5.2
2.0;1753876073.466285;17.137983;0.91;-1.56;-0.38;-0.731955;-0.713235;-0.014275;0.0;0.0;95.6;0.0;0.0;3.7
2.0;1753876073.470878;17.137929;0.9;-1.63;-0.32;-0.732433;-0.713361;-0.01383;0.0;0.0;87.6;0.0;0.0;4.8
2.0;1753876073.475471;17.102043;0.99;-1.7;-0.3;-0.733427;-0.713583;-0.014152;0.0;0.0;90.9;0.0;0.0;4.0
2.0;1753876073.480064;17.084278;0.93;-1.57;-0.39;-0.731567;-0.713207;-0.013304;0.0;0.0;99.2;0.0;0.0;3.9
2.0;1753876073.484657;17.129277;0.91;-1.65;-0.37;-0.73188;-0.713088;-0.014475;0.0;0.0;93.4;0.0;0.0;4.5
2.0;1753876073.48925;17.10369;0.91;-1.61;-0.33;-0.733145;-0.715099;-0.013815;0.0;0.0;91.1;0.0;0.0;4.0
2.0;1753876073.493842;17.102476;0.94;-1.6;-0.24;-0.731762;-0.714166;-0.014805;0.0;0.0;94.4;0.0;0.0;3.8
2.0;1753876073.498436;17.112742;0.98;-1.49;-0.29;-0.731846;-0.713386;-0.013417;0.0;0.0;89.8;0.0;0.0;3.7
2.0;1753876073.503028;17.110718;0.91;-1.59;-0.31;-0.732829;-0.713547;-0.014487;0.0;0.0;97.4;0.0;0.0;4.4
2.0;1753876073.507621;17.112678;0.97;-1.73;-0.37;-0.730898;-0.715111;-0.01237;0.0;0.0;90.5;0.0;0.0;4.9
2.0;1753876073.512214;17.095549;0.92;-1.6;-0.27;-0.731834;-0.714485;-0.015103;0.0;0.0;87.6;0.0;0.0;2.8
2.0;1753876073.516807;17.122055;0.99;-1.6;-0.29;-0.731188;-0.712249;-0.0138;0.0;0.0;100.4;0.0;0.0;3.7
2.0;1753876073.5214;17.119875;1.03;-1.58;-0.29;-0.733384;-0.714322;-0.01542;0.0;0.0;92.9;0.0;0.0;3.7
2.0;1753876073.525993;17.12478;0.93;-1.63;-0.35;-0.729721;-0.712586;-0.014163;0.0;0.0;94.1;0.0;0.0;3.1
2.0;1753876073.530586;17.100652;0.85;-1.63;-0.34;-0.729418;-0.713819;-0.015964;0.0;0.0;91.2;0.0;0.0;4.6
2.0;1753876073.535179;17.13693;0.85;-1.49;-0.26;-0.732028;-0.71376;-0.013813;0.0;0.0;92.4;0.0;0.0;3.2
2.0;1753876073.539772;17.1245;0.92;-1.61;-0.36;-0.733667;-0.715254;-0.01415;0.0;0.0;96.9;0.0;0.0;3.9
2.0;1753876073.544364;17.096394;0.97;-1.54;-0.36;-0.731959;-0.713954;-0.013363;0.0;0.0;99.0;0.0;0.0;3.4
2.0;1753876073.548957;17.11599;0.94;-1.57;-0.37;-0.731013;-0.712953;-0.014895;0.0;0.0;96.4;0.0;0.0;3.7
2.0;1753876073.55355;17.113911;0.79;-1.61;-0.36;-0.732087;-0.713693;-0.014022;0.0;0.0;94.9;0.0;0.0;3.9
2.0;1753876073.558143;17.118813;1.04;-1.65;-0.31;-0.731467;-0.712753;-0.014648;0.0;0.0;90.2;0.0;0.0;3.8
2.0;1753876073.562736;17.129391;0.98;-1.59;-0.33;-0.73081;-0.712292;-0.013736;0.0;0.0;90.1;0.0;0.0;3.8
2.0;1753876073.567329;17.13069;0.87;-1.62;-0.28;-0.731798;-0.714327;-0.013942;0.0;0.0;93.7;0.0;0.0;3.3
2.0;1753876073.571922;17.094393;0.88;-1.62;-0.3;-0.731787;-0.713179;-0.013486;0.0;0.0;95.5;0.0;0.0;4.2
2.0;1753876073.576515;17.110607;0.94;-1.6;-0.26;-0.732898;-0.714902;-0.014245;0.0;0.0;97.8;0.0;0.0;4.6
2.0;1753876073.581108;17.089693;0.95;-1.63;-0.33;-0.732338;-0.713029;-0.014046;0.0;0.0;89.1;0.0;0.0;4.7
2.0;1753876073.5857;17.120211;0.97;-1.61;-0.26;-0.732293;-0.712938;-0.013774;0.0;0.0;96.1;0.0;0.0;4.1
2.0;1753876073.590294;17.116089;0.84;-1.6;-0.24;-0.732809;-0.710713;-0.015216;0.0;0.0;90.6;0.0;0.0;3.5
2.0;1753876073.594886;17.114455;0.84;-1.57;-0.25;-0.730351;-0.714759;-0.01392;0.0;0.0;94.4;0.0;0.0;4.3
2.0;1753876073.599479;17.116191;0.9;-1.59;-0.25;-0.732426;-0.713236;-0.013959;0.0;0.0;91.2;0.0;0.0;4.4
2.0;1753876073.604072;17.114134;1.04;-1.62;-0.32;-0.731815;-0.714564;-0.01405;0.0;0.0;99.4;0.0;0.0;4.5
2.0;1753876073.608665;17.107049;0.9;-1.57;-0.29;-0.731833;-0.713544;-0.015394;0.0;0.0;102.6;0.0;0.0;4.1
2.0;1753876073.613258;17.127882;0.97;-1.72;-0.29;-0.731035;-0.714601;-0.012751;0.0;0.0;94.2;0.0;0.0;4.4
2.0;1753876073.617851;17.113805;1.04;-1.67;-0.33;-0.731602;-0.713914;-0.013467;0.0;0.0;87.7;0.0;0.0;4.2
2.0;1753876073.622444;17.116035;0.96;-1.57;-0.32;-0.732785;-0.714163;-0.01397;0.0;0.0;98.0;0.0;0.0;4.0
2.0;1753876073.627036;17.127195;0.93;-1.59;-0.27;-0.731217;-0.711881;-0.012979;0.0;0.0;96.4;0.0;0.0;4.9
2.0;1753876073.63163;17.099312;1.01;-1.65;-0.34;-0.730478;-0.714296;-0.013393;0.0;0.0;89.3;0.0;0.0;3.5
2.0;1753876073.636222;17.142327;0.78;-1.55;-0.32;-0.732487;-0.712272;-0.013254;0.0;0.0;92.4;0.0;0.0;4.3
2.0;1753876073.640815;17.102306;0.86;-1.71;-0.26;-0.732028;-0.714352;-0.014509;0.0;0.0;94.4;0.0;0.0;3.8
2.0;1753876073.645408;17.128175;0.85;-1.58;-0.29;-0.732286;-0.713879;-0.015201;0.0;0.0;91.9;0.0;0.0;3.7
2.0;1753876073.650001;17.104646;0.84;-1.56;-0.27;-0.732711;-0.713002;-0.01415;0.0;0.0;92.8;0.0;0.0;3.7
2.0;1753876073.654594;17.120552;0.89;-1.6;-0.38;-0.732056;-0.714627;-0.013442;0.0;0.0;94.2;0.0;0.0;5.1
2.0;1753876073.659187;17.094369;0.93;-1.65;-0.31;-0.731923;-0.714205;-0.013861;0.0;0.0;90.4;0.0;0.0;3.8
2.0;1753876073.66378;17.119602;0.89;-1.58;-0.35;-0.732417;-0.713318;-0.013215;0.0;0.0;95.6;0.0;0.0;3.8
2.0;1753876073.668373;17.118271;0.91;-1.71;-0.25;-0.73224;-0.712968;-0.01422;0.0;0.0;91.6;0.0;0.0;3.2
2.0;1753876073.672966;17.11016;0.94;-1.59;-0.38;-0.732731;-0.713094;-0.012305;0.0;0.0;90.8;0.0;0.0;3.4
2.0;1753876073.677558;17.116061;0.85;-1.68;-0.35;-0.733009;-0.71075;-0.013743;0.0;0.0;93.7;0.0;0.0;4.3
2.0;1753876073.682151;17.109466;0.77;-1.55;-0.21;-0.730045;-0.714491;-0.01524;0.0;0.0;93.0;0.0;0.0;3.0
2.0;1753876073.686744;17.133064;0.92;-1.59;-0.23;-0.732518;-0.715172;-0.013269;0.0;0.0;93.5;0.0;0.0;2.9
2.0;1753876073.691337;17.123184;0.74;-1.63;-0.31;-0.733635;-0.713599;-0.014017;0.0;0.0;97.5;0.0;0.0;3.1
2.0;1753876073.69593;17.096506;0.97;-1.55;-0.23;-0.732704;-0.712598;-0.012825;0.0;0.0;98.0;0.0;0.0;3.4
2.0;1753876073.700523;17.11051;1.02;-1.57;-0.27;-0.730637;-0.713759;-0.013866;0.0;0.0;96.0;0.0;0.0;3.3
2.0;1753876073.7069;17.113281;0.91;-1.61;-0.28;-0.732122;-0.713822;-0.014152;0.0;0.0;94.0;0.0;0.0;4.0
2.0;1753876073.71033;17.113281;0.98;-1.68;-0.35;-0.727608;-0.715652;-0.014518;0.0;0.0;95.0;0.0;0.0;4.0
2.0;1753876073.714923;17.098693;0.94;-1.62;-0.4;-0.72865;-0.714526;-0.016276;0.0;0.0;94.6;0.0;0.0;4.0
2.0;1753876073.719516;17.110292;0.82;-1.75;-0.32;-0.725275;-0.718538;-0.014591;0.0;0.0;94.1;0.0;0.0;4.0
2.0;1753876073.724109;17.112634;0.96;-1.65;-0.46;-0.728462;-0.714752;-0.016023;0.0;0.0;93.4;0.0;0.0;4.0
2.0;1753876073.728702;17.130138;0.99;-1.56;-0.38;-0.727527;-0.715381;-0.01675;0.0;0.0;97.6;0.0;0.0;4.0
2.0;1753876073.733294;17.123362;0.97;-1.55;-0.32;-0.725626;-0.716502;-0.015479;0.0;0.0;95.9;0.0;0.0;4.0
2.0;1753876073.737888;17.104698;1.0;-1.52;-0.29;-0.726589;-0.716487;-0.013781;0.0;0.0;95.6;0.0;0.0;4.0
2.0;1753876073.74248;17.110148;0.98;-1.61;-0.2;-0.727051;-0.71729;-0.013047;0.0;0.0;94.8;0.0;0.0;4.0
2.0;1753876073.747073;17.124425;0.82;-1.57;-0.34;-0.727961;-0.718402;-0.013419;0.0;0.0;97.4;0.0;0.0;4.0
2.0;1753876073.751666;17.096738;1.03;-1.59;-0.38;-0.726762;-0.715604;-0.015156;0.0;0.0;95.0;0.0;0.0;4.0
2.0;1753876073.756259;17.129161;0.98;-1.38;-0.35;-0.730424;-0.716682;-0.012985;0.0;0.0;95.7;0.0;0.0;4.0
2.0;1753876073.76427;17.113281;0.98;-1.54;-0.28;-0.727608;-0.715652;-0.014518;0.0;0.0;95.0;0.0;0.0;4.0
2.0;1753876073.768863;17.13492;1.06;-1.52;-0.22;-0.728326;-0.715574;-0.014221;0.0;0.0;93.4;0.0;0.0;4.0
2.0;1753876073.773456;17.11843;1.02;-1.64;-0.21;-0.727863;-0.715295;-0.01642;0.0;0.0;92.0;0.0;0.0;4.0
2.0;1753876073.778049;17.130851;0.98;-1.59;-0.31;-0.727774;-0.713207;-0.014974;0.0;0.0;93.7;0.0;0.0;4.0
2.0;1753876073.782642;17.128414;0.91;-1.68;-0.26;-0.730687;-0.71362;-0.015228;0.0;0.0;93.4;0.0;0.0;4.0
2.0;1753876073.787234;17.103459;1.02;-1.65;-0.22;-0.727372;-0.714227;-0.013841;0.0;0.0;90.8;0.0;0.0;4.0
2.0;1753876073.791828;17.122577;0.95;-1.59;-0.31;-0.727874;-0.714091;-0.014899;0.0;0.0;95.3;0.0;0.0;4.0
2.0;1753876073.79642;17.134343;1.02;-1.67;-0.36;-0.728597;-0.711567;-0.014686;0.0;0.0;97.2;0.0;0.0;4.0
2.0;1753876073.80158;17.113281;0.91;-1.68;-0.28;-0.72956;-0.712358;-0.014152;0.0;0.0;95.0;0.0;0.0;4.0
2.0;1753876073.806173;17.122926;0.96;-1.61;-0.26;-0.731604;-0.711722;-0.013541;0.0;0.0;97.0;0.0;0.0;4.0
2.0;1753876073.810766;17.118256;0.91;-1.7;-0.34;-0.728562;-0.714393;-0.015555;0.0;0.0;92.5;0.0;0.0;4.0
2.0;1753876073.815359;17.106359;0.93;-1.68;-0.34;-0.729992;-0.713008;-0.013506;0.0;0.0;94.0;0.0;0.0;4.0
2.0;1753876073.819952;17.111264;1.01;-1.63;-0.25;-0.729103;-0.711068;-0.013857;0.0;0.0;92.2;0.0;0.0;4.0
2.0;1753876073.824544;17.108241;1.02;-1.69;-0.3;-0.729301;-0.713409;-0.014479;0.0;0.0;94.2;0.0;0.0;4.0
2.0;1753876073.829137;17.145151;0.79;-1.66;-0.35;-0.729371;-0.713127;-0.014646;0.0;0.0;95.5;0.0;0.0;4.0
2.0;1753876073.83373;17.095165;1.02;-1.71;-0.4;-0.729112;-0.713456;-0.012516;0.0;0.0;92.8;0.0;0.0;4.0
2.0;1753876073.838323;17.130391;1.05;-1.72;-0.29;-0.730887;-0.715165;-0.0131;0.0;0.0;99.1;0.0;0.0;4.0
2.0;1753876073.842916;17.117487;1.02;-1.7;-0.37;-0.728976;-0.71433;-0.014051;0.0;0.0;95.5;0.0;0.0;4.0
2.0;1753876073.84744;17.113281;0.98;-1.68;-0.35;-0.729926;-0.715896;-0.013908;0.0;0.0;95.0;0.0;0.0;4.0
2.0;1753876073.852033;17.116675;0.93;-1.66;-0.32;-0.731047;-0.714258;-0.014745;0.0;0.0;95.9;0.0;0.0;4.0
2.0;1753876073.856626;17.107318;0.98;-1.63;-0.36;-0.731273;-0.718223;-0.014908;0.0;0.0;99.0;0.0;0.0;4.0
2.0;1753876073.861219;17.100432;1.06;-1.6;-0.35;-0.732141;-0.714958;-0.014808;0.0;0.0;92.7;0.0;0.0;4.0
2.0;1753876073.865812;17.12666;0.92;-1.71;-0.36;-0.728306;-0.714535;-0.015872;0.0;0.0;92.7;0.0;0.0;4.0
2.0;1753876073.870404;17.13365;1.09;-1.63;-0.32;-0.728799;-0.712769;-0.014633;0.0;0.0;95.3;0.0;0.0;4.0
2.0;1753876073.874998;17.116879;1.0;-1.61;-0.4;-0.727897;-0.714285;-0.013518;0.0;0.0;93.2;0.0;0.0;4.0
2.0;1753876073.87959;17.144867;1.02;-1.63;-0.32;-0.728083;-0.714116;-0.014715;0.0;0.0;94.1;0.0;0.0;4.0
2.0;1753876073.884183;17.142024;1.2;-1.62;-0.3;-0.733149;-0.713019;-0.015629;0.0;0.0;93.6;0.0;0.0;4.0
2.0;1753876073.888776;17.120536;0.98;-1.59;-0.35;-0.728006;-0.71054;-0.016501;0.0;0.0;94.6;0.0;0.0;4.0
2.0;1753876073.89319;17.136719;1.05;-1.61;-0.35;-0.730048;-0.71309;-0.015372;0.0;0.0;95.0;0.0;0.0;4.0
2.0;1753876073.897783;17.132702;1.02;-1.61;-0.37;-0.731383;-0.712047;-0.014732;0.0;0.0;95.7;0.0;0.0;4.0
2.0;1753876073.902376;17.139668;0.89;-1.53;-0.38;-0.728686;-0.715972;-0.014684;0.0;0.0;96.3;0.0;0.0;4.0
2.0;1753876073.906968;17.12515;1.08;-1.69;-0.26;-0.730412;-0.713871;-0.013869;0.0;0.0;94.3;0.0;0.0;4.0
2.0;1753876073.911562;17.158832;1.06;-1.63;-0.35;-0.730065;-0.712881;-0.01501;0.0;0.0;94.1;0.0;0.0;4.0
2.0;1753876073.916154;17.119896;1.02;-1.64;-0.33;-0.728989;-0.71468;-0.014521;0.0;0.0;93.1;0.0;0.0;4.0
2.0;1753876073.920747;17.128255;1.16;-1.56;-0.35;-0.730552;-0.713862;-0.015078;0.0;0.0;95.2;0.0;0.0;4.0
2.0;1753876073.92534;17.138628;1.09;-1.67;-0.28;-0.731161;-0.712854;-0.014923;0.0;0.0;93.6;0.0;0.0;4.0
2.0;1753876073.929933;17.142794;1.0;-1.7;-0.3;-0.731276;-0.713659;-0.014696;0.0;0.0;96.0;0.0;0.0;4.0
2.0;1753876073.934526;17.130236;1.12;-1.65;-0.27;-0.73082;-0.714158;-0.014568;0.0;0.0;97.0;0.0;0.0;4.0
2.0;1753876073.93899;17.136719;0.98;-1.68;-0.28;-0.73017;-0.714554;-0.014152;0.0;0.0;95.0;0.0;0.0;4.0
2.0;1753876073.941323;17.171875;0.98;-1.61;-0.28;-0.73017;-0.713944;-0.012322;0.0;0.0;99.0;0.0;0.0;4.0
2.0;1753876073.945781;17.171875;0.98;-1.61;-0.35;-0.728096;-0.714188;-0.013664;0.0;0.0;99.0;0.0;0.0;4.0
2.0;1753876073.949232;17.148438;0.91;-1.68;-0.35;-0.731756;-0.713822;-0.014762;0.0;0.0;99.0;0.0;0.0;4.0
2.0;1753876073.9547;17.148438;0.98;-1.61;-0.28;-0.72956;-0.713578;-0.014518;0.0;0.0;99.0;0.0;0.0;4.0
2.0;1753876073.958365;17.148438;0.84;-1.61;-0.35;-0.731024;-0.713334;-0.01525;0.0;0.0;99.0;0.0;0.0;4.0
2.0;1753876073.962954;17.148438;0.84;-1.61;-0.35;-0.729682;-0.714798;-0.014274;0.0;0.0;99.0;0.0;0.0;4.0
2.0;1753876073.967477;17.113281;0.91;-1.61;-0.42;-0.732244;-0.711748;-0.015006;0.0;0.0;99.0;0.0;0.0;4.0
2.0;1753876073.972572;17.113281;0.91;-1.68;-0.28;-0.732244;-0.711748;-0.015006;0.0;0.0;99.0;0.0;0.0;4.0
2.0;1753876073.976959;17.113281;0.91;-1.61;-0.35;-0.730658;-0.711992;-0.014396;0.0;0.0;99.0;0.0;0.0;4.0
2.0;1753876073.982526;17.113281;0.91;-1.68;-0.35;-0.72956;-0.713456;-0.01464;0.0;0.0;99.0;0.0;0.0;4.0
2.0;1753876073.99048;17.105469;0.91;-1.68;-0.21;-0.729926;-0.7137;-0.014762;0.0;0.0;93.0;0.0;0.0;4.0
2.0;1753876073.996737;17.105469;0.98;-1.68;-0.28;-0.729438;-0.712358;-0.015616;0.0;0.0;93.0;0.0;0.0;4.0
2.0;1753876073.999544;17.105469;0.98;-1.68;-0.35;-0.730292;-0.713212;-0.015128;0.0;0.0;93.0;0.0;0.0;4.0
2.0;1753876074.004137;17.069455;0.91;-1.66;-0.33;-0.72909;-0.711306;-0.014534;0.0;0.0;99.2;0.0;0.0;4.0
2.0;1753876074.00873;17.122646;1.01;-1.74;-0.43;-0.730158;-0.711842;-0.015601;0.0;0.0;91.2;0.0;0.0;4.7
2.0;1753876074.013322;17.133029;0.95;-1.69;-0.24;-0.729367;-0.711966;-0.015251;0.0;0.0;89.6;0.0;0.0;4.3
2.0;1753876074.017916;17.121793;0.92;-1.66;-0.35;-0.728813;-0.713136;-0.014701;0.0;0.0;89.4;0.0;0.0;4.4
2.0;1753876074.022508;17.067052;1.03;-1.73;-0.34;-0.730095;-0.712187;-0.014545;0.0;0.0;93.6;0.0;0.0;4.2
2.0;1753876074.027101;17.107767;0.99;-1.68;-0.49;-0.73071;-0.713669;-0.015846;0.0;0.0;93.1;0.0;0.0;4.8
2.0;1753876074.031694;17.056733;0.93;-1.65;-0.42;-0.729838;-0.711953;-0.014192;0.0;0.0;91.5;0.0;0.0;3.8
2.0;1753876074.036287;17.126535;0.97;-1.68;-0.3;-0.730106;-0.715807;-0.015883;0.0;0.0;92.3;0.0;0.0;3.9
2.0;1753876074.04088;17.132978;0.99;-1.61;-0.31;-0.731405;-0.710384;-0.01411;0.0;0.0;96.7;0.0;0.0;4.0
2.0;1753876074.045473;17.100581;1.02;-1.62;-0.35;-0.730942;-0.71163;-0.015281;0.0;0.0;95.0;0.0;0.0;3.2
2.0;1753876074.050066;17.105514;1.03;-1.66;-0.32;-0.730451;-0.713271;-0.016356;0.0;0.0;92.3;0.0;0.0;3.1
2.0;1753876074.054659;17.135568;1.06;-1.7;-0.34;-0.729063;-0.713057;-0.015132;0.0;0.0;89.6;0.0;0.0;3.8
2.0;1753876074.059252;17.093342;0.94;-1.72;-0.32;-0.730423;-0.715505;-0.016308;0.0;0.0;97.8;0.0;0.0;4.2
2.0;1753876074.063844;17.133825;0.98;-1.71;-0.22;-0.728853;-0.712529;-0.01547;0.0;0.0;91.4;0.0;0.0;3.7
2.0;1753876074.068437;17.133261;1.01;-1.65;-0.3;-0.727559;-0.711428;-0.015837;0.0;0.0;94.6;0.0;0.0;3.9
2.0;1753876074.07303;17.055564;0.94;-1.66;-0.27;-0.733035;-0.711689;-0.0148;0.0;0.0;97.5;0.0;0.0;4.9
2.0;1753876074.077623;17.163262;1.02;-1.64;-0.33;-0.731252;-0.714162;-0.015604;0.0;0.0;92.8;0.0;0.0;4.3
2.0;1753876074.082216;17.114071;0.92;-1.69;-0.37;-0.731381;-0.71003;-0.015033;0.0;0.0;95.6;0.0;0.0;4.6
2.0;1753876074.086809;17.082509;0.99;-1.65;-0.31;-0.731036;-0.713978;-0.015011;0.0;0.0;91.9;0.0;0.0;4.3
2.0;1753876074.091402;17.153857;0.87;-1.71;-0.32;-0.728128;-0.711973;-0.014556;0.0;0.0;91.0;0.0;0.0;3.8
2.0;1753876074.095995;17.087891;1.02;-1.67;-0.31;-0.729287;-0.713725;-0.015993;0.0;0.0;92.8;0.0;0.0;4.6
2.0;1753876074.100588;17.126131;0.94;-1.69;-0.34;-0.731398;-0.71296;-0.014212;0.0;0.0;89.7;0.0;0.0;3.9
2.0;1753876074.10518;17.126687;1.01;-1.66;-0.25;-0.731363;-0.715208;-0.015537;0.0;0.0;94.5;0.0;0.0;3.7
2.0;1753876074.109774;17.102788;1.04;-1.59;-0.32;-0.73215;-0.712294;-0.014548;0.0;0.0;92.5;0.0;0.0;3.7
2.0;1753876074.114366;17.124067;0.94;-1.61;-0.28;-0.727951;-0.713729;-0.015227;0.0;0.0;88.7;0.0;0.0;4.0
2.0;1753876074.118959;17.129314;0.97;-1.68;-0.35;-0.729071;-0.713061;-0.013854;0.0;0.0;91.5;0.0;0.0;4.2
2.0;1753876074.123552;17.136201;0.98;-1.64;-0.43;-0.731555;-0.713408;-0.014834;0.0;0.0;92.0;0.0;0.0;3.9
2.0;1753876074.128145;17.118954;0.95;-1.63;-0.35;-0.730693;-0.714985;-0.013785;0.0;0.0;89.0;0.0;0.0;4.3
2.0;1753876074.132738;17.115796;1.0;-1.65;-0.3;-0.73304;-0.712934;-0.014872;0.0;0.0;91.9;0.0;0.0;4.9
2.0;1753876074.137331;17.107989;0.98;-1.64;-0.34;-0.730281;-0.714427;-0.015397;0.0;0.0;95.2;0.0;0.0;3.7
2.0;1753876074.141924;17.106876;0.97;-1.65;-0.33;-0.73071;-0.713982;-0.015301;0.0;0.0;93.7;0.0;0.0;4.6
2.0;1753876074.146516;17.107642;0.93;-1.68;-0.4;-0.727237;-0.714646;-0.014818;0.0;0.0;93.8;0.0;0.0;3.2
2.0;1753876074.15111;17.085981;0.94;-1.69;-0.38;-0.730364;-0.7163;-0.014518;0.0;0.0;91.4;0.0;0.0;4.1
2.0;1753876074.155702;17.13238;1.05;-1.69;-0.32;-0.730533;-0.712057;-0.015345;0.0;0.0;94.5;0.0;0.0;3.5
2.0;1753876074.160295;17.108156;0.99;-1.59;-0.3;-0.730452;-0.712527;-0.014407;0.0;0.0;90.9;0.0;0.0;3.6
2.0;1753876074.164888;17.124729;0.97;-1.6;-0.29;-0.731149;-0.714522;-0.014838;0.0;0.0;87.7;0.0;0.0;3.4
2.0;1753876074.169481;17.099714;0.96;-1.59;-0.39;-0.731654;-0.71118;-0.015392;0.0;0.0;96.7;0.0;0.0;3.9
2.0;1753876074.174074;17.118146;1.08;-1.61;-0.33;-0.728688;-0.714771;-0.013528;0.0;0.0;89.8;0.0;0.0;5.0
2.0;1753876074.178667;17.095346;0.96;-1.66;-0.38;-0.729531;-0.711509;-0.014284;0.0;0.0;92.2;0.0;0.0;4.7
2.0;1753876074.18326;17.127925;0.94;-1.67;-0.23;-0.730234;-0.712225;-0.015305;0.0;0.0;96.2;0.0;0.0;4.6
2.0;1753876074.187852;17.126182;0.91;-1.66;-0.35;-0.729;-0.712989;-0.01412;0.0;0.0;98.0;0.0;0.0;3.9
2.0;1753876074.192446;17.079765;0.98;-1.67;-0.39;-0.730945;-0.713391;-0.015025;0.0;0.0;96.3;0.0;0.0;3.7
2.0;1753876074.197038;17.127234;0.98;-1.61;-0.24;-0.732363;-0.714287;-0.01424;0.0;0.0;94.0;0.0;0.0;4.1
2.0;1753876074.201631;17.126427;0.97;-1.7;-0.37;-0.730939;-0.716546;-0.014976;0.0;0.0;93.8;0.0;0.0;4.5
2.0;1753876074.206224;17.151768;1.01;-1.68;-0.29;-0.728584;-0.712797;-0.0146;0.0;0.0;95.5;0.0;0.0;3.6
2.0;1753876074.210817;17.116928;1.03;-1.64;-0.42;-0.72998;-0.711378;-0.016061;0.0;0.0;97.3;0.0;0.0;3.5
2.0;1753876074.21541;17.125871;0.95;-1.67;-0.3;-0.728553;-0.714157;-0.014045;0.0;0.0;92.8;0.0;0.0;3.6
2.0;1753876074.220003;17.096381;0.87;-1.64;-0.3;-0.72921;-0.713545;-0.014555;0.0;0.0;91.9;0.0;0.0;4.3
2.0;1753876074.224596;17.147431;0.88;-1.63;-0.42;-0.727996;-0.715019;-0.013917;0.0;0.0;96.0;0.0;0.0;4.1
2.0;1753876074.229189;17.127135;0.9;-1.63;-0.44;-0.731135;-0.711679;-0.015169;0.0;0.0;94.7;0.0;0.0;4.4
2.0;1753876074.233782;17.116681;0.98;-1.62;-0.35;-0.727684;-0.713973;-0.01536;0.0;0.0;91.6;0.0;0.0;3.8
2.0;1753876074.238374;17.115112;1.03;-1.63;-0.31;-0.728787;-0.711635;-0.015259;0.0;0.0;94.5;0.0;0.0;4.0
2.0;1753876074.242967;17.07789;0.97;-1.7;-0.44;-0.73044;-0.71207;-0.014875;0.0;0.0;90.3;0.0;0.0;3.4
2.0;1753876074.24756;17.116734;0.96;-1.58;-0.29;-0.72877;-0.711422;-0.013864;0.0;0.0;91.8;0.0;0.0;3.3
2.0;1753876074.252153;17.132046;0.93;-1.63;-0.28;-0.729366;-0.714101;-0.014708;0.0;0.0;90.7;0.0;0.0;4.6
