DeviceID;Timestamp;Temperature;GyroX;GyroY;GyroZ;AccelX;AccelY;AccelZ;Dist1;Dist2;Dist3;Err1;Err2;Err3
3.0;1753876068.863548;19.441406;0.7;-1.33;-0.28;0.877302;0.45506;0.033062;180.0;0.0;0.0;17.0;0.0;0.0
3.0;1753876068.86813;19.441406;0.84;-1.33;-0.21;0.877302;0.45506;0.033062;180.0;0.0;0.0;17.0;0.0;0.0
3.0;1753876068.872906;19.441406;0.7;-1.26;-0.21;0.875716;0.456158;0.033184;180.0;0.0;0.0;17.0;0.0;0.0
3.0;1753876068.877574;19.441406;0.7;-1.33;-0.21;0.875594;0.455182;0.030744;180.0;0.0;0.0;17.0;0.0;0.0
3.0;1753876068.882362;19.441406;0.77;-1.33;-0.21;0.87535;0.455182;0.032452;180.0;0.0;0.0;17.0;0.0;0.0
3.0;1753876068.886946;19.441406;0.84;-1.33;-0.14;0.875228;0.455182;0.032086;180.0;0.0;0.0;17.0;0.0;0.0
3.0;1753876068.894387;19.472656;0.84;-1.4;-0.21;0.87657;0.454206;0.032452;180.0;0.0;0.0;17.0;0.0;0.0
3.0;1753876068.899677;19.472656;0.7;-1.33;-0.28;0.8784;0.454328;0.031842;180.0;0.0;0.0;17.0;0.0;0.0
3.0;1753876068.906324;19.472656;0.7;-1.4;-0.21;0.876448;0.455548;0.031354;171.0;0.0;0.0;28.0;0.0;0.0
3.0;1753876068.910368;19.449219;0.7;-1.33;-0.21;0.877424;0.455304;0.031232;171.0;0.0;0.0;28.0;0.0;0.0
3.0;1753876068.914931;19.449219;0.77;-1.33;-0.21;0.877424;0.455304;0.031232;171.0;0.0;0.0;28.0;0.0;0.0
3.0;1753876068.919899;19.449219;0.77;-1.33;-0.14;0.877424;0.454938;0.031232;171.0;0.0;0.0;28.0;0.0;0.0
3.0;1753876068.924386;19.449219;0.7;-1.33;-0.14;0.876204;0.454572;0.031476;171.0;0.0;0.0;28.0;0.0;0.0
3.0;1753876068.929075;19.417969;0.7;-1.33;-0.21;0.87596;0.454694;0.030988;171.0;0.0;0.0;28.0;0.0;0.0
3.0;1753876068.933746;19.417969;0.7;-1.33;-0.21;0.877302;0.454694;0.031354;171.0;0.0;0.0;28.0;0.0;0.0
3.0;1753876068.941933;19.417969;0.7;-1.26;-0.14;0.877302;0.454938;0.03172;171.0;0.0;0.0;28.0;0.0;0.0
3.0;1753876068.94306;19.417969;0.77;-1.26;-0.21;0.875472;0.455182;0.031232;171.0;0.0;0.0;28.0;0.0;0.0
3.0;1753876068.948439;19.386719;0.77;-1.26;-0.21;0.876814;0.455304;0.032574;171.0;0.0;0.0;28.0;0.0;0.0
3.0;1753876068.956362;19.386719;0.7;-1.4;-0.21;0.87657;0.455182;0.031842;177.0;0.0;0.0;23.0;0.0;0.0
3.0;1753876068.957087;19.386719;0.84;-1.33;-0.21;0.876692;0.455304;0.031598;177.0;0.0;0.0;23.0;0.0;0.0
3.0;1753876068.961795;19.386719;0.77;-1.19;-0.21;0.877058;0.454938;0.031842;177.0;0.0;0.0;23.0;0.0;0.0
3.0;1753876068.966501;19.445312;0.77;-1.33;-0.14;0.877546;0.45567;0.031232;177.0;0.0;0.0;23.0;0.0;0.0
3.0;1753876068.971183;19.445312;0.7;-1.33;-0.07;0.87657;0.45506;0.030744;177.0;0.0;0.0;23.0;0.0;0.0
3.0;1753876068.975859;19.445312;0.63;-1.33;-0.21;0.877302;0.455182;0.030988;177.0;0.0;0.0;23.0;0.0;0.0
3.0;1753876068.980836;19.445312;0.7;-1.4;-0.14;0.876936;0.453962;0.030988;177.0;0.0;0.0;23.0;0.0;0.0
3.0;1753876068.985221;19.417969;0.63;-1.33;-0.14;0.875716;0.45567;0.030866;177.0;0.0;0.0;23.0;0.0;0.0
3.0;1753876068.991262;19.417969;0.63;-1.33;-0.14;0.876204;0.455182;0.03172;177.0;0.0;0.0;23.0;0.0;0.0
3.0;1753876068.997546;19.417969;0.84;-1.26;-0.21;0.875228;0.455426;0.03294;177.0;0.0;0.0;23.0;0.0;0.0
3.0;1753876069.002275;19.428094;0.88;-1.29;-0.17;0.875874;0.455391;0.032243;179.7;0.0;0.0;25.1;0.0;0.0
3.0;1753876069.007004;19.391842;0.91;-1.33;-0.16;0.876689;0.455228;0.032467;178.7;0.0;0.0;21.8;0.0;0.0
3.0;1753876069.011733;19.435489;1.02;-1.2;-0.21;0.876003;0.455155;0.032405;175.2;0.0;0.0;20.3;0.0;0.0
3.0;1753876069.016462;19.417331;0.91;-1.28;-0.19;0.875899;0.455206;0.032984;174.8;0.0;0.0;21.8;0.0;0.0
3.0;1753876069.021191;19.378781;0.66;-1.33;-0.15;0.875848;0.455073;0.032999;181.9;0.0;0.0;23.6;0.0;0.0
3.0;1753876069.02592;19.425685;0.91;-1.32;-0.25;0.874855;0.455685;0.032655;174.9;0.0;0.0;18.8;0.0;0.0
3.0;1753876069.030649;19.463818;0.87;-1.29;-0.23;0.876126;0.455024;0.032594;171.6;0.0;0.0;23.7;0.0;0.0
3.0;1753876069.035378;19.418464;0.74;-1.28;-0.27;0.876111;0.454937;0.03317;175.1;0.0;0.0;22.1;0.0;0.0
3.0;1753876069.040107;19.43823;0.86;-1.3;-0.27;0.875946;0.45531;0.032646;175.9;0.0;0.0;21.6;0.0;0.0
3.0;1753876069.044836;19.421253;0.92;-1.28;-0.22;0.875834;0.455832;0.033922;170.9;0.0;0.0;22.3;0.0;0.0
3.0;1753876069.049565;19.418131;0.8;-1.26;-0.17;0.874849;0.454967;0.032399;179.0;0.0;0.0;23.2;0.0;0.0
3.0;1753876069.054294;19.443688;0.86;-1.22;-0.28;0.875042;0.455289;0.03294;181.0;0.0;0.0;24.7;0.0;0.0
3.0;1753876069.059024;19.44956;0.81;-1.24;-0.26;0.874655;0.455295;0.03285;175.3;0.0;0.0;24.3;0.0;0.0
3.0;1753876069.063752;19.427329;0.82;-1.21;-0.19;0.875948;0.454992;0.032861;177.0;0.0;0.0;22.7;0.0;0.0
3.0;1753876069.068482;19.40481;0.89;-1.23;-0.26;0.875355;0.455877;0.033111;175.3;0.0;0.0;26.8;0.0;0.0
3.0;1753876069.07321;19.434715;0.71;-1.26;-0.13;0.874377;0.454836;0.033122;171.5;0.0;0.0;24.9;0.0;0.0
3.0;1753876069.07794;19.389825;0.8;-1.27;-0.27;0.875878;0.455847;0.032508;172.7;0.0;0.0;21.5;0.0;0.0
3.0;1753876069.082668;19.407174;0.83;-1.32;-0.23;0.875892;0.455409;0.032274;178.3;0.0;0.0;26.4;0.0;0.0
3.0;1753876069.087398;19.429171;0.76;-1.36;-0.24;0.875174;0.455529;0.032699;173.6;0.0;0.0;24.8;0.0;0.0
3.0;1753876069.092126;19.401972;0.83;-1.29;-0.21;0.875729;0.455439;0.032304;179.3;0.0;0.0;24.3;0.0;0.0
3.0;1753876069.096856;19.429331;0.78;-1.3;-0.26;0.876429;0.455205;0.031697;166.9;0.0;0.0;22.4;0.0;0.0
3.0;1753876069.101585;19.397301;0.92;-1.23;-0.23;0.87553;0.454961;0.031591;174.0;0.0;0.0;20.4;0.0;0.0
3.0;1753876069.106314;19.408905;0.79;-1.23;-0.18;0.875503;0.455016;0.033046;174.3;0.0;0.0;22.5;0.0;0.0
3.0;1753876069.111043;19.42337;0.79;-1.25;-0.28;0.876541;0.456194;0.031634;176.5;0.0;0.0;18.3;0.0;0.0
3.0;1753876069.115772;19.389388;0.74;-1.3;-0.2;0.876049;0.455575;0.033597;174.1;0.0;0.0;23.6;0.0;0.0
3.0;1753876069.120501;19.447679;0.77;-1.28;-0.22;0.875909;0.455465;0.033439;176.5;0.0;0.0;23.1;0.0;0.0
3.0;1753876069.12523;19.374736;0.84;-1.27;-0.22;0.874683;0.455186;0.033122;173.1;0.0;0.0;25.7;0.0;0.0
3.0;1753876069.129959;19.406682;0.77;-1.2;-0.21;0.875982;0.455095;0.031738;176.2;0.0;0.0;25.6;0.0;0.0
3.0;1753876069.134688;19.425608;0.75;-1.26;-0.3;0.8761;0.455576;0.032272;173.0;0.0;0.0;23.1;0.0;0.0
3.0;1753876069.139417;19.453592;0.76;-1.23;-0.18;0.876468;0.454893;0.033841;171.7;0.0;0.0;19.7;0.0;0.0
3.0;1753876069.144146;19.410622;0.7;-1.21;-0.19;0.876048;0.454982;0.033949;171.7;0.0;0.0;23.9;0.0;0.0
3.0;1753876069.148875;19.3896;0.86;-1.27;-0.18;0.875956;0.455631;0.031352;173.4;0.0;0.0;24.8;0.0;0.0
3.0;1753876069.153604;19.399381;0.69;-1.26;-0.23;0.876255;0.45582;0.032382;173.4;0.0;0.0;23.5;0.0;0.0
3.0;1753876069.158333;19.435162;0.8;-1.25;-0.3;0.875958;0.455626;0.032599;170.5;0.0;0.0;23.8;0.0;0.0
3.0;1753876069.163062;19.378221;0.82;-1.28;-0.19;0.876933;0.455694;0.033139;169.6;0.0;0.0;24.3;0.0;0.0
3.0;1753876069.167791;19.438311;0.77;-1.27;-0.2;0.875685;0.455032;0.032323;172.4;0.0;0.0;22.6;0.0;0.0
3.0;1753876069.17252;19.435347;0.82;-1.25;-0.24;0.876781;0.455173;0.032745;170.5;0.0;0.0;23.1;0.0;0.0
3.0;1753876069.177249;19.453677;0.71;-1.31;-0.23;0.876756;0.455978;0.032987;171.6;0.0;0.0;23.3;0.0;0.0
3.0;1753876069.181978;19.423347;0.75;-1.24;-0.23;0.876559;0.455629;0.031954;172.8;0.0;0.0;21.4;0.0;0.0
3.0;1753876069.186707;19.415436;0.81;-1.32;-0.14;0.87543;0.455743;0.032106;173.2;0.0;0.0;25.7;0.0;0.0
3.0;1753876069.191436;19.441397;0.72;-1.26;-0.16;0.875751;0.456079;0.032238;173.4;0.0;0.0;25.4;0.0;0.0
3.0;1753876069.196165;19.387761;0.82;-1.29;-0.21;0.875696;0.455925;0.031914;170.3;0.0;0.0;29.2;0.0;0.0
3.0;1753876069.200894;19.400205;0.86;-1.31;-0.17;0.875309;0.455982;0.032956;171.8;0.0;0.0;21.7;0.0;0.0
3.0;1753876069.205624;19.386165;0.8;-1.3;-0.32;0.875179;0.455082;0.031781;167.3;0.0;0.0;23.6;0.0;0.0
3.0;1753876069.210352;19.436204;0.79;-1.26;-0.19;0.875596;0.455232;0.032796;172.6;0.0;0.0;20.4;0.0;0.0
3.0;1753876069.215082;19.444044;0.72;-1.34;-0.24;0.876789;0.455572;0.033196;174.0;0.0;0.0;21.1;0.0;0.0
3.0;1753876069.21981;19.397492;0.7;-1.19;-0.18;0.876382;0.455786;0.032606;178.7;0.0;0.0;27.2;0.0;0.0
3.0;1753876069.22454;19.454856;0.68;-1.32;-0.2;0.87523;0.455634;0.031719;173.3;0.0;0.0;23.5;0.0;0.0
3.0;1753876069.229268;19.424441;0.82;-1.23;-0.25;0.876473;0.455759;0.031959;175.1;0.0;0.0;22.1;0.0;0.0
3.0;1753876069.233998;19.432953;0.8;-1.2;-0.21;0.876535;0.4562;0.031776;173.8;0.0;0.0;22.9;0.0;0.0
3.0;1753876069.238726;19.441416;0.7;-1.24;-0.2;0.876303;0.455233;0.031929;175.9;0.0;0.0;19.4;0.0;0.0
3.0;1753876069.243456;19.420293;0.66;-1.3;-0.23;0.875765;0.454829;0.034076;169.9;0.0;0.0;22.2;0.0;0.0
3.0;1753876069.248185;19.420747;0.66;-1.2;-0.14;0.875706;0.455811;0.03345;172.7;0.0;0.0;22.4;0.0;0.0
3.0;1753876069.252914;19.417228;0.82;-1.34;-0.15;0.87642;0.455236;0.03219;170.2;0.0;0.0;26.2;0.0;0.0
3.0;1753876069.257643;19.420261;0.81;-1.32;-0.28;0.876256;0.455413;0.033144;174.0;0.0;0.0;26.3;0.0;0.0
3.0;1753876069.262372;19.463562;0.73;-1.26;-0.24;0.876763;0.455752;0.033144;173.0;0.0;0.0;22.4;0.0;0.0
3.0;1753876069.267101;19.370599;0.68;-1.24;-0.25;0.877315;0.455851;0.032502;172.1;0.0;0.0;20.2;0.0;0.0
3.0;1753876069.27183;19.42258;0.81;-1.34;-0.29;0.876181;0.455426;0.031696;174.8;0.0;0.0;25.8;0.0;0.0
3.0;1753876069.276559;19.412502;0.63;-1.25;-0.22;0.875646;0.455674;0.032518;172.1;0.0;0.0;22.7;0.0;0.0
3.0;1753876069.281288;19.466674;0.75;-1.34;-0.27;0.877435;0.455524;0.032948;171.0;0.0;0.0;21.9;0.0;0.0
3.0;1753876069.286017;19.398559;0.83;-1.3;-0.16;0.876794;0.455732;0.031875;172.0;0.0;0.0;22.4;0.0;0.0
3.0;1753876069.290746;19.402036;0.76;-1.21;-0.16;0.877044;0.45546;0.033169;170.9;0.0;0.0;17.7;0.0;0.0
3.0;1753876069.295475;19.409115;0.64;-1.33;-0.23;0.876372;0.455203;0.032708;169.5;0.0;0.0;25.0;0.0;0.0
3.0;1753876069.300204;19.44563;0.7;-1.18;-0.23;0.875558;0.456056;0.032709;169.1;0.0;0.0;27.0;0.0;0.0
3.0;1753876069.304933;19.447055;0.69;-1.31;-0.23;0.876666;0.455763;0.03252;170.0;0.0;0.0;20.8;0.0;0.0
3.0;1753876069.309662;19.443992;0.68;-1.19;-0.24;0.877228;0.455309;0.032757;169.8;0.0;0.0;24.4;0.0;0.0
3.0;1753876069.314391;19.406081;0.73;-1.24;-0.15;0.876127;0.455631;0.03256;173.4;0.0;0.0;24.2;0.0;0.0
3.0;1753876069.31912;19.385815;0.77;-1.35;-0.24;0.875769;0.455831;0.032811;175.8;0.0;0.0;24.9;0.0;0.0
3.0;1753876069.323849;19.402436;0.77;-1.21;-0.18;0.877017;0.455552;0.032866;171.8;0.0;0.0;23.8;0.0;0.0
3.0;1753876069.328578;19.428646;0.76;-1.26;-0.16;0.87704;0.455496;0.032094;176.1;0.0;0.0;27.2;0.0;0.0
3.0;1753876069.333307;19.397831;0.74;-1.29;-0.23;0.877295;0.455481;0.032341;171.4;0.0;0.0;21.5;0.0;0.0
3.0;1753876069.338036;19.389897;0.66;-1.31;-0.19;0.876871;0.456138;0.032752;172.5;0.0;0.0;22.4;0.0;0.0
3.0;1753876069.342765;19.414576;0.67;-1.35;-0.26;0.876436;0.456278;0.032881;171.3;0.0;0.0;24.0;0.0;0.0
3.0;1753876069.347494;19.380105;0.77;-1.24;-0.28;0.876508;0.455984;0.032924;168.7;0.0;0.0;23.1;0.0;0.0
3.0;1753876069.3557;19.417969;0.7;-1.26;-0.21;0.876814;0.45567;0.03233;170.0;0.0;0.0;23.0;0.0;0.0
3.0;1753876069.360429;19.408787;0.69;-1.23;-0.16;0.876151;0.455504;0.032164;176.1;0.0;0.0;22.8;0.0;0.0
3.0;1753876069.365158;19.424291;0.74;-1.3;-0.1;0.877562;0.455011;0.03196;167.2;0.0;0.0;21.9;0.0;0.0
3.0;1753876069.369887;19.414698;0.67;-1.19;-0.24;0.877784;0.454661;0.030684;168.8;0.0;0.0;20.8;0.0;0.0
3.0;1753876069.374616;19.406733;0.74;-1.26;-0.14;0.878071;0.455222;0.031192;172.5;0.0;0.0;22.1;0.0;0.0
3.0;1753876069.379345;19.420981;0.67;-1.28;-0.19;0.879868;0.454284;0.030656;170.5;0.0;0.0;17.1;0.0;0.0
3.0;1753876069.384074;19.390357;0.82;-1.28;-0.12;0.877191;0.454651;0.031403;168.7;0.0;0.0;26.9;0.0;0.0
3.0;1753876069.3896;19.402344;0.77;-1.26;-0.14;0.878034;0.454572;0.030744;170.0;0.0;0.0;23.0;0.0;0.0
3.0;1753876069.394329;19.393757;0.75;-1.26;-0.1;0.877831;0.454876;0.030612;172.9;0.0;0.0;23.9;0.0;0.0
3.0;1753876069.399058;19.39682;0.68;-1.21;-0.13;0.878445;0.453937;0.030393;169.2;0.0;0.0;20.7;0.0;0.0
3.0;1753876069.403787;19.426545;0.8;-1.33;-0.14;0.878708;0.454738;0.030214;168.8;0.0;0.0;19.7;0.0;0.0
3.0;1753876069.408516;19.394112;0.77;-1.24;-0.16;0.878846;0.455382;0.031532;171.1;0.0;0.0;28.2;0.0;0.0
3.0;1753876069.413245;19.407245;0.67;-1.27;-0.18;0.877031;0.45521;0.030021;168.2;0.0;0.0;25.8;0.0;0.0
3.0;1753876069.417974;19.436579;0.67;-1.3;-0.08;0.878085;0.454775;0.030782;164.6;0.0;0.0;21.8;0.0;0.0
3.0;1753876069.422703;19.404816;0.83;-1.28;-0.14;0.877628;0.454014;0.030903;169.1;0.0;0.0;19.7;0.0;0.0
3.0;1753876069.427432;19.400068;0.76;-1.26;-0.11;0.87691;0.453958;0.030252;167.0;0.0;0.0;21.7;0.0;0.0
3.0;1753876069.432161;19.422067;0.91;-1.35;-0.15;0.877615;0.454745;0.029399;169.7;0.0;0.0;18.2;0.0;0.0
3.0;1753876069.43689;19.449943;0.79;-1.3;-0.12;0.87714;0.454853;0.031585;166.8;0.0;0.0;26.6;0.0;0.0
3.0;1753876069.44162;19.378731;0.72;-1.26;-0.18;0.877495;0.455027;0.030771;172.2;0.0;0.0;23.6;0.0;0.0
3.0;1753876069.446348;19.409329;0.75;-1.29;-0.13;0.877935;0.454095;0.030979;169.9;0.0;0.0;20.3;0.0;0.0
3.0;1753876069.451078;19.398986;0.82;-1.27;-0.14;0.877645;0.454615;0.030506;171.2;0.0;0.0;21.5;0.0;0.0
3.0;1753876069.455806;19.421429;0.76;-1.33;-0.11;0.877349;0.454351;0.030983;167.9;0.0;0.0;22.9;0.0;0.0
3.0;1753876069.460536;19.397667;0.81;-1.34;-0.19;0.878295;0.454952;0.032035;171.9;0.0;0.0;25.0;0.0;0.0
3.0;1753876069.465264;19.350076;0.73;-1.2;-0.2;0.876653;0.454937;0.030774;168.2;0.0;0.0;23.0;0.0;0.0
3.0;1753876069.469994;19.428926;0.83;-1.2;-0.04;0.8783;0.454059;0.031038;174.5;0.0;0.0;24.8;0.0;0.0
3.0;1753876069.474722;19.38992;0.7;-1.22;-0.09;0.877418;0.454928;0.030992;166.7;0.0;0.0;20.4;0.0;0.0
3.0;1753876069.479452;19.423943;0.68;-1.24;-0.16;0.878052;0.454601;0.030553;172.3;0.0;0.0;23.9;0.0;0.0
3.0;1753876069.484181;19.421405;0.76;-1.26;-0.17;0.878867;0.454476;0.032179;172.5;0.0;0.0;23.3;0.0;0.0
3.0;1753876069.48891;19.38963;0.84;-1.23;-0.15;0.877308;0.455199;0.031033;168.1;0.0;0.0;26.0;0.0;0.0
3.0;1753876069.493639;19.409401;0.74;-1.28;-0.19;0.876913;0.454929;0.031254;171.7;0.0;0.0;20.5;0.0;0.0
3.0;1753876069.498368;19.369018;0.72;-1.14;-0.14;0.878794;0.454417;0.030734;166.8;0.0;0.0;22.2;0.0;0.0
3.0;1753876069.503097;19.419225;0.7;-1.2;-0.11;0.878414;0.454656;0.030915;164.8;0.0;0.0;23.9;0.0;0.0
3.0;1753876069.507826;19.44715;0.71;-1.32;-0.16;0.877641;0.455355;0.031258;172.8;0.0;0.0;22.3;0.0;0.0
3.0;1753876069.512555;19.392541;0.64;-1.27;-0.18;0.877128;0.45493;0.031106;170.9;0.0;0.0;25.7;0.0;0.0
3.0;1753876069.517284;19.398514;0.77;-1.12;-0.13;0.877692;0.455222;0.031723;169.2;0.0;0.0;27.5;0.0;0.0
3.0;1753876069.522013;19.397271;0.83;-1.22;-0.13;0.87767;0.454127;0.030566;169.5;0.0;0.0;26.4;0.0;0.0
3.0;1753876069.526742;19.385418;0.73;-1.13;-0.12;0.878354;0.45481;0.030762;169.7;0.0;0.0;22.1;0.0;0.0
3.0;1753876069.531471;19.449473;0.73;-1.21;-0.18;0.877258;0.455125;0.031889;168.9;0.0;0.0;22.2;0.0;0.0
3.0;1753876069.5362;19.410451;0.78;-1.21;-0.11;0.878129;0.454973;0.031476;168.0;0.0;0.0;26.2;0.0;0.0
3.0;1753876069.540929;19.346066;0.84;-1.26;-0.08;0.878724;0.455226;0.030784;172.5;0.0;0.0;24.0;0.0;0.0
3.0;1753876069.545658;19.420383;0.78;-1.22;-0.16;0.877706;0.453783;0.030241;173.5;0.0;0.0;24.6;0.0;0.0
3.0;1753876069.550387;19.437715;0.81;-1.27;-0.15;0.877408;0.454408;0.030879;166.7;0.0;0.0;23.0;0.0;0.0
3.0;1753876069.555116;19.436012;0.63;-1.31;-0.18;0.877049;0.454358;0.030725;173.3;0.0;0.0;23.4;0.0;0.0
3.0;1753876069.559845;19.41259;0.74;-1.26;-0.13;0.877454;0.454642;0.031211;165.6;0.0;0.0;24.0;0.0;0.0
3.0;1753876069.564574;19.414035;0.77;-1.32;-0.12;0.877409;0.454833;0.031874;173.0;0.0;0.0;22.6;0.0;0.0
3.0;1753876069.569303;19.362689;0.84;-1.26;-0.12;0.877729;0.454736;0.03105;159.8;0.0;0.0;27.3;0.0;0.0
3.0;1753876069.574032;19.41243;0.69;-1.33;-0.2;0.878823;0.454654;0.031519;166.2;0.0;0.0;23.7;0.0;0.0
3.0;1753876069.578761;19.39979;0.57;-1.3;-0.15;0.878541;0.455068;0.031886;171.1;0.0;0.0;22.6;0.0;0.0
3.0;1753876069.58349;19.458006;0.72;-1.34;-0.1;0.878034;0.454151;0.031388;171.5;0.0;0.0;21.5;0.0;0.0
3.0;1753876069.58822;19.411309;0.72;-1.22;-0.14;0.877489;0.455146;0.030939;167.3;0.0;0.0;25.3;0.0;0.0
3.0;1753876069.592948;19.431068;0.78;-1.13;-0.22;0.877396;0.454226;0.031891;173.1;0.0;0.0;26.1;0.0;0.0
3.0;1753876069.597678;19.404613;0.7;-1.27;-0.19;0.87839;0.454726;0.031513;172.1;0.0;0.0;23.4;0.0;0.0
3.0;1753876069.602406;19.38928;0.66;-1.29;-0.1;0.877542;0.454082;0.031404;162.2;0.0;0.0;23.4;0.0;0.0
3.0;1753876069.607136;19.424195;0.85;-1.31;-0.12;0.877436;0.455091;0.03097;168.5;0.0;0.0;23.6;0.0;0.0
3.0;1753876069.611864;19.374668;0.76;-1.22;-0.13;0.877947;0.455024;0.030991;173.8;0.0;0.0;20.5;0.0;0.0
3.0;1753876069.616594;19.414349;0.69;-1.22;-0.18;0.876962;0.454901;0.031425;165.8;0.0;0.0;26.5;0.0;0.0
3.0;1753876069.621323;19.380128;0.88;-1.22;-0.16;0.877266;0.454808;0.031811;168.0;0.0;0.0;24.4;0.0;0.0
3.0;1753876069.626052;19.385245;0.82;-1.29;-0.14;0.877573;0.45437;0.030927;170.4;0.0;0.0;18.4;0.0;0.0
3.0;1753876069.630781;19.405366;0.72;-1.26;-0.13;0.876718;0.455008;0.030961;171.3;0.0;0.0;23.2;0.0;0.0
3.0;1753876069.63551;19.416392;0.81;-1.22;-0.13;0.877179;0.454971;0.03192;174.9;0.0;0.0;25.2;0.0;0.0
3.0;1753876069.640239;19.394624;0.7;-1.28;-0.19;0.87724;0.455241;0.031533;169.0;0.0;0.0;25.3;0.0;0.0
3.0;1753876069.644968;19.396055;0.6;-1.25;-0.2;0.876819;0.454948;0.031013;168.6;0.0;0.0;23.1;0.0;0.0
3.0;1753876069.649697;19.420825;0.83;-1.28;-0.14;0.877378;0.454551;0.032273;169.3;0.0;0.0;25.2;0.0;0.0
3.0;1753876069.654426;19.400961;0.74;-1.26;-0.17;0.877437;0.455038;0.031055;166.7;0.0;0.0;21.5;0.0;0.0
3.0;1753876069.659155;19.393151;0.71;-1.38;-0.13;0.877778;0.45413;0.031648;170.2;0.0;0.0;25.1;0.0;0.0
3.0;1753876069.663884;19.410702;0.81;-1.24;-0.14;0.879198;0.454223;0.031334;178.5;0.0;0.0;27.6;0.0;0.0
3.0;1753876069.668613;19.399733;0.78;-1.2;-0.15;0.878444;0.454487;0.032229;168.6;0.0;0.0;24.0;0.0;0.0
3.0;1753876069.673342;19.376637;0.6;-1.31;-0.22;0.877045;0.454601;0.031954;171.6;0.0;0.0;25.8;0.0;0.0
3.0;1753876069.678071;19.418794;0.69;-1.17;-0.12;0.877361;0.454967;0.03207;164.5;0.0;0.0;22.9;0.0;0.0
3.0;1753876069.6828;19.437143;0.75;-1.36;-0.16;0.876062;0.454853;0.032386;162.0;0.0;0.0;21.1;0.0;0.0
3.0;1753876069.687529;19.429602;0.78;-1.27;-0.15;0.87589;0.454965;0.030585;177.3;0.0;0.0;23.9;0.0;0.0
3.0;1753876069.692258;19.392664;0.71;-1.22;-0.15;0.87716;0.454994;0.033165;168.3;0.0;0.0;21.7;0.0;0.0
3.0;1753876069.696987;19.383336;0.69;-1.27;-0.15;0.877215;0.455026;0.030847;167.1;0.0;0.0;24.6;0.0;0.0
3.0;1753876069.701716;19.380286;0.71;-1.35;-0.17;0.876438;0.454893;0.032225;168.1;0.0;0.0;25.5;0.0;0.0
3.0;1753876069.706445;19.427874;0.75;-1.29;-0.14;0.877312;0.454584;0.032245;172.5;0.0;0.0;21.2;0.0;0.0
3.0;1753876069.711174;19.389999;0.84;-1.2;-0.08;0.878504;0.454958;0.030904;165.8;0.0;0.0;29.2;0.0;0.0
3.0;1753876069.715903;19.391411;0.8;-1.21;-0.1;0.876745;0.455413;0.03149;161.3;0.0;0.0;21.8;0.0;0.0
3.0;1753876069.720632;19.420439;0.74;-1.25;-0.1;0.878609;0.454507;0.031873;167.8;0.0;0.0;22.2;0.0;0.0
3.0;1753876069.725361;19.386199;0.77;-1.32;-0.18;0.877942;0.454531;0.031923;174.2;0.0;0.0;24.6;0.0;0.0
3.0;1753876069.73009;19.428841;0.7;-1.3;-0.1;0.877755;0.455056;0.031835;173.4;0.0;0.0;24.6;0.0;0.0
3.0;1753876069.73482;19.43845;0.69;-1.32;-0.04;0.877659;0.455018;0.03068;172.4;0.0;0.0;22.6;0.0;0.0
3.0;1753876069.739548;19.403684;0.77;-1.3;-0.08;0.877835;0.455375;0.031454;173.0;0.0;0.0;24.8;0.0;0.0
3.0;1753876069.744278;19.3858;0.73;-1.29;-0.14;0.877275;0.455431;0.030914;168.4;0.0;0.0;24.2;0.0;0.0
3.0;1753876069.749006;19.397626;0.73;-1.27;-0.17;0.877885;0.454649;0.033412;166.2;0.0;0.0;20.1;0.0;0.0
3.0;1753876069.753736;19.437229;0.67;-1.22;-0.12;0.877415;0.454616;0.031195;170.0;0.0;0.0;18.7;0.0;0.0
3.0;1753876069.758464;19.412607;0.62;-1.3;-0.1;0.87726;0.454972;0.031576;170.7;0.0;0.0;20.1;0.0;0.0
3.0;1753876069.763194;19.410696;0.7;-1.29;-0.09;0.876657;0.454359;0.032167;167.4;0.0;0.0;23.9;0.0;0.0
3.0;1753876069.767923;19.411854;0.69;-1.31;-0.2;0.875872;0.454559;0.032261;165.6;0.0;0.0;18.6;0.0;0.0
3.0;1753876069.772652;19.39654;0.65;-1.29;-0.16;0.877372;0.45483;0.031716;174.7;0.0;0.0;20.3;0.0;0.0
3.0;1753876069.777381;19.437887;0.66;-1.29;-0.15;0.87791;0.455554;0.032252;164.7;0.0;0.0;20.8;0.0;0.0
3.0;1753876069.78211;19.435991;0.77;-1.28;-0.1;0.878351;0.454944;0.031095;172.4;0.0;0.0;22.3;0.0;0.0
3.0;1753876069.786839;19.425323;0.61;-1.16;-0.15;0.876893;0.455514;0.032541;174.1;0.0;0.0;26.6;0.0;0.0
3.0;1753876069.791568;19.402802;0.76;-1.24;-0.12;0.876925;0.455626;0.031637;174.2;0.0;0.0;25.4;0.0;0.0
3.0;1753876069.796297;19.410554;0.6;-1.29;-0.08;0.876592;0.455072;0.031849;169.0;0.0;0.0;22.5;0.0;0.0
3.0;1753876069.801026;19.385989;0.72;-1.24;-0.17;0.87659;0.454669;0.031483;173.7;0.0;0.0;22.3;0.0;0.0
3.0;1753876069.805755;19.44444;0.84;-1.25;-0.18;0.87713;0.455449;0.032732;171.6;0.0;0.0;21.4;0.0;0.0
3.0;1753876069.810484;19.426012;0.71;-1.26;-0.17;0.876203;0.455031;0.031332;171.6;0.0;0.0;23.5;0.0;0.0
3.0;1753876069.815213;19.419144;0.7;-1.35;-0.22;0.875593;0.454913;0.032699;173.1;0.0;0.0;21.1;0.0;0.0
3.0;1753876069.819942;19.432082;0.64;-1.27;-0.12;0.878127;0.454401;0.032669;172.5;0.0;0.0;20.1;0.0;0.0
3.0;1753876069.824671;19.408242;0.63;-1.29;-0.13;0.877474;0.454843;0.032354;170.3;0.0;0.0;19.0;0.0;0.0
3.0;1753876069.8294;19.385371;0.76;-1.31;-0.19;0.877431;0.455109;0.032738;170.5;0.0;0.0;24.3;0.0;0.0
3.0;1753876069.834129;19.37512;0.66;-1.24;-0.11;0.877395;0.455211;0.032433;164.8;0.0;0.0;24.1;0.0;0.0
3.0;1753876069.838858;19.437781;0.71;-1.25;-0.19;0.877805;0.455649;0.031225;167.9;0.0;0.0;20.2;0.0;0.0
3.0;1753876069.843587;19.362877;0.63;-1.17;-0.06;0.876777;0.455068;0.032953;173.4;0.0;0.0;29.3;0.0;0.0
3.0;1753876069.848316;19.422371;0.74;-1.28;-0.11;0.876664;0.454786;0.032881;170.0;0.0;0.0;23.7;0.0;0.0
3.0;1753876069.853045;19.448477;0.84;-1.26;-0.09;0.877661;0.4545;0.032964;165.3;0.0;0.0;23.6;0.0;0.0
3.0;1753876069.857774;19.391625;0.74;-1.28;-0.14;0.876394;0.454822;0.032445;166.5;0.0;0.0;23.1;0.0;0.0
3.0;1753876069.862503;19.412625;0.71;-1.2;-0.08;0.87699;0.454078;0.031906;172.1;0.0;0.0;21.8;0.0;0.0
3.0;1753876069.867232;19.419571;0.65;-1.17;-0.21;0.876499;0.454916;0.031304;176.2;0.0;0.0;23.3;0.0;0.0
3.0;1753876069.871961;19.444072;0.66;-1.34;-0.16;0.876052;0.455103;0.031953;168.9;0.0;0.0;19.8;0.0;0.0
3.0;1753876069.87669;19.441457;0.68;-1.27;-0.13;0.87776;0.454664;0.031841;172.1;0.0;0.0;21.7;0.0;0.0
3.0;1753876069.88142;19.416354;0.76;-1.34;-0.13;0.878047;0.454794;0.032033;172.6;0.0;0.0;19.7;0.0;0.0
3.0;1753876069.886148;19.380763;0.67;-1.31;-0.15;0.876193;0.455199;0.031651;172.3;0.0;0.0;26.4;0.0;0.0
3.0;1753876069.890878;19.360257;0.63;-1.22;-0.09;0.877163;0.455232;0.030987;167.9;0.0;0.0;22.4;0.0;0.0
3.0;1753876069.895606;19.380494;0.82;-1.18;-0.15;0.877159;0.45555;0.031705;172.8;0.0;0.0;23.7;0.0;0.0
3.0;1753876069.900336;19.34181;0.64;-1.28;-0.13;0.875362;0.454535;0.031792;172.5;0.0;0.0;22.3;0.0;0.0
3.0;1753876069.905064;19.405315;0.68;-1.29;-0.15;0.876884;0.45519;0.03309;166.5;0.0;0.0;25.9;0.0;0.0
3.0;1753876069.909794;19.410286;0.77;-1.24;-0.09;0.87622;0.454739;0.032497;169.0;0.0;0.0;23.7;0.0;0.0
3.0;1753876069.914523;19.404822;0.63;-1.29;-0.15;0.876396;0.454949;0.031065;169.6;0.0;0.0;22.7;0.0;0.0
3.0;1753876069.919252;19.402151;0.69;-1.21;-0.13;0.876301;0.455471;0.032629;165.2;0.0;0.0;19.7;0.0;0.0
3.0;1753876069.923981;19.392943;0.66;-1.22;-0.14;0.876715;0.454289;0.032797;171.7;0.0;0.0;19.4;0.0;0.0
3.0;1753876069.92871;19.435571;0.63;-1.23;-0.14;0.878427;0.455342;0.033462;170.2;0.0;0.0;22.2;0.0;0.0
3.0;1753876069.9365;19.402344;0.7;-1.26;-0.14;0.876692;0.45506;0.032452;170.0;0.0;0.0;23.0;0.0;0.0
3.0;1753876069.941229;19.426928;0.67;-1.22;-0.15;0.876196;0.454576;0.031496;170.8;0.0;0.0;28.8;0.0;0.0
3.0;1753876069.945958;19.400249;0.73;-1.35;-0.13;0.878084;0.454815;0.033081;172.2;0.0;0.0;26.4;0.0;0.0
3.0;1753876069.95036;19.410156;0.63;-1.33;-0.14;0.877424;0.453718;0.033184;174.0;0.0;0.0;28.0;0.0;0.0
3.0;1753876069.953884;19.351562;0.77;-1.33;-0.21;0.876814;0.454816;0.032818;173.0;0.0;0.0;23.0;0.0;0.0
3.0;1753876069.958608;19.351562;0.77;-1.33;-0.21;0.876692;0.45506;0.031598;173.0;0.0;0.0;23.0;0.0;0.0
3.0;1753876069.964745;19.351562;0.77;-1.33;-0.21;0.87718;0.45567;0.03111;173.0;0.0;0.0;23.0;0.0;0.0
3.0;1753876069.967917;19.351562;0.77;-1.33;-0.21;0.876814;0.454938;0.032696;173.0;0.0;0.0;23.0;0.0;0.0
3.0;1753876069.975303;19.351562;0.77;-1.33;-0.21;0.877302;0.454816;0.031476;173.0;0.0;0.0;23.0;0.0;0.0
3.0;1753876069.981375;19.375;0.77;-1.33;-0.21;0.87657;0.455426;0.031598;171.0;0.0;0.0;27.0;0.0;0.0
3.0;1753876069.981951;19.375;0.7;-1.26;-0.21;0.876814;0.455792;0.030744;171.0;0.0;0.0;27.0;0.0;0.0
3.0;1753876069.986639;19.375;0.7;-1.26;-0.14;0.876692;0.45506;0.031476;171.0;0.0;0.0;27.0;0.0;0.0
3.0;1753876069.991319;19.375;0.77;-1.26;-0.21;0.876204;0.455182;0.032818;171.0;0.0;0.0;27.0;0.0;0.0
3.0;1753876069.996009;19.367188;0.63;-1.26;-0.21;0.876326;0.454694;0.030134;171.0;0.0;0.0;27.0;0.0;0.0
3.0;1753876070.000738;19.376141;0.64;-1.29;-0.27;0.877405;0.455477;0.030566;171.4;0.0;0.0;24.4;0.0;0.0
3.0;1753876070.005467;19.369155;0.67;-1.25;-0.14;0.875662;0.454497;0.02998;175.7;0.0;0.0;29.0;0.0;0.0
3.0;1753876070.010196;19.365924;0.62;-1.27;-0.25;0.87665;0.454208;0.029612;170.4;0.0;0.0;25.6;0.0;0.0
3.0;1753876070.014925;19.375415;0.63;-1.28;-0.2;0.876236;0.454469;0.030009;169.3;0.0;0.0;24.1;0.0;0.0
3.0;1753876070.019654;19.370365;0.65;-1.34;-0.19;0.876206;0.454135;0.029091;173.1;0.0;0.0;25.8;0.0;0.0
3.0;1753876070.024383;19.373479;0.63;-1.24;-0.24;0.877341;0.45495;0.028928;165.6;0.0;0.0;26.6;0.0;0.0
3.0;1753876070.029112;19.367516;0.61;-1.31;-0.21;0.877041;0.453094;0.02897;164.8;0.0;0.0;27.5;0.0;0.0
3.0;1753876070.033841;19.35762;0.69;-1.3;-0.18;0.876415;0.454563;0.029778;166.7;0.0;0.0;28.0;0.0;0.0
3.0;1753876070.03857;19.379741;0.58;-1.26;-0.2;0.877122;0.454969;0.030788;173.8;0.0;0.0;28.7;0.0;0.0
3.0;1753876070.0433;19.359084;0.62;-1.19;-0.21;0.876388;0.454419;0.029963;167.8;0.0;0.0;29.4;0.0;0.0
3.0;1753876070.048028;19.361744;0.51;-1.22;-0.25;0.877191;0.455673;0.030547;168.8;0.0;0.0;30.8;0.0;0.0
3.0;1753876070.052758;19.367035;0.68;-1.28;-0.22;0.877383;0.454918;0.031123;174.7;0.0;0.0;26.2;0.0;0.0
3.0;1753876070.057486;19.369492;0.59;-1.33;-0.18;0.876148;0.454383;0.030829;176.9;0.0;0.0;26.3;0.0;0.0
3.0;1753876070.062216;19.379345;0.68;-1.23;-0.22;0.877037;0.454074;0.030043;170.3;0.0;0.0;26.2;0.0;0.0
3.0;1753876070.066944;19.378044;0.72;-1.27;-0.25;0.877931;0.454803;0.029445;173.4;0.0;0.0;25.8;0.0;0.0
3.0;1753876070.071674;19.390356;0.6;-1.25;-0.24;0.87603;0.454552;0.027928;176.9;0.0;0.0;29.8;0.0;0.0
3.0;1753876070.076403;19.361395;0.61;-1.21;-0.21;0.875447;0.45444;0.030524;168.8;0.0;0.0;26.8;0.0;0.0
3.0;1753876070.081132;19.372441;0.68;-1.29;-0.22;0.876944;0.454794;0.030068;164.9;0.0;0.0;21.3;0.0;0.0
3.0;1753876070.085861;19.378304;0.57;-1.22;-0.22;0.877492;0.454811;0.028581;183.0;0.0;0.0;25.0;0.0;0.0
3.0;1753876070.09059;19.366993;0.59;-1.28;-0.25;0.87677;0.4552;0.031019;166.2;0.0;0.0;29.9;0.0;0.0
3.0;1753876070.095319;19.382162;0.67;-1.32;-0.19;0.876793;0.455451;0.030475;169.8;0.0;0.0;30.0;0.0;0.0
3.0;1753876070.100048;19.370897;0.64;-1.26;-0.14;0.876516;0.454122;0.030173;170.3;0.0;0.0;27.4;0.0;0.0
3.0;1753876070.104777;19.37663;0.62;-1.22;-0.2;0.877025;0.454421;0.031843;176.2;0.0;0.0;26.2;0.0;0.0
3.0;1753876070.109506;19.371273;0.67;-1.26;-0.17;0.877168;0.45439;0.03097;168.2;0.0;0.0;25.4;0.0;0.0
3.0;1753876070.114235;19.376669;0.56;-1.26;-0.19;0.877094;0.454939;0.02902;169.4;0.0;0.0;28.7;0.0;0.0
3.0;1753876070.118964;19.388452;0.7;-1.25;-0.18;0.876983;0.45385;0.029808;161.3;0.0;0.0;27.7;0.0;0.0
3.0;1753876070.123693;19.365543;0.62;-1.23;-0.14;0.876163;0.453395;0.030847;166.1;0.0;0.0;24.9;0.0;0.0
3.0;1753876070.128422;19.3754;0.61;-1.3;-0.19;0.876221;0.454116;0.028979;168.2;0.0;0.0;31.1;0.0;0.0
3.0;1753876070.133151;19.386634;0.63;-1.25;-0.19;0.877007;0.453064;0.030122;171.0;0.0;0.0;26.8;0.0;0.0
3.0;1753876070.13788;19.354082;0.51;-1.29;-0.26;0.876376;0.454322;0.029982;178.4;0.0;0.0;28.0;0.0;0.0
3.0;1753876070.142609;19.380047;0.59;-1.22;-0.24;0.877281;0.454291;0.029109;172.9;0.0;0.0;26.1;0.0;0.0
3.0;1753876070.147338;19.349904;0.63;-1.28;-0.2;0.877079;0.454434;0.029361;169.3;0.0;0.0;26.7;0.0;0.0
3.0;1753876070.152067;19.372207;0.64;-1.33;-0.2;0.877797;0.454306;0.029342;168.0;0.0;0.0;25.7;0.0;0.0
3.0;1753876070.156796;19.371816;0.64;-1.27;-0.19;0.876484;0.45382;0.030061;168.5;0.0;0.0;27.8;0.0;0.0
3.0;1753876070.161525;19.37714;0.72;-1.29;-0.24;0.875667;0.453842;0.030651;157.6;0.0;0.0;25.1;0.0;0.0
3.0;1753876070.166254;19.361852;0.59;-1.21;-0.18;0.876781;0.454766;0.029424;169.2;0.0;0.0;26.7;0.0;0.0
3.0;1753876070.170983;19.375114;0.67;-1.31;-0.22;0.876503;0.454372;0.029739;173.8;0.0;0.0;26.2;0.0;0.0
3.0;1753876070.175712;19.377791;0.68;-1.26;-0.26;0.876552;0.454631;0.030205;176.3;0.0;0.0;24.0;0.0;0.0
3.0;1753876070.180442;19.355927;0.57;-1.22;-0.2;0.877026;0.454346;0.030466;172.8;0.0;0.0;27.0;0.0;0.0
3.0;1753876070.18517;19.37509;0.57;-1.3;-0.19;0.875703;0.453743;0.030983;173.0;0.0;0.0;26.8;0.0;0.0
3.0;1753876070.1899;19.360019;0.53;-1.3;-0.2;0.877259;0.454742;0.030509;164.4;0.0;0.0;27.5;0.0;0.0
3.0;1753876070.194628;19.379988;0.64;-1.36;-0.18;0.877918;0.454305;0.030187;172.2;0.0;0.0;25.5;0.0;0.0
3.0;1753876070.199358;19.357467;0.65;-1.3;-0.16;0.87699;0.453995;0.031039;166.2;0.0;0.0;23.4;0.0;0.0
3.0;1753876070.204086;19.363744;0.66;-1.35;-0.25;0.877036;0.453978;0.029948;170.2;0.0;0.0;28.3;0.0;0.0
3.0;1753876070.208816;19.366017;0.67;-1.27;-0.22;0.876207;0.454892;0.03039;172.2;0.0;0.0;27.7;0.0;0.0
3.0;1753876070.213544;19.351991;0.69;-1.28;-0.17;0.876693;0.454571;0.029749;170.6;0.0;0.0;29.5;0.0;0.0
3.0;1753876070.218274;19.384656;0.61;-1.32;-0.19;0.87654;0.454629;0.028977;172.9;0.0;0.0;24.0;0.0;0.0
3.0;1753876070.223003;19.362336;0.59;-1.28;-0.18;0.877245;0.454194;0.028777;175.5;0.0;0.0;24.1;0.0;0.0
3.0;1753876070.227732;19.362937;0.63;-1.37;-0.24;0.877079;0.453842;0.030857;166.3;0.0;0.0;27.9;0.0;0.0
3.0;1753876070.232461;19.3781;0.62;-1.26;-0.23;0.877071;0.455423;0.029291;174.7;0.0;0.0;25.7;0.0;0.0
3.0;1753876070.23719;19.364716;0.61;-1.3;-0.16;0.877658;0.45382;0.030721;173.2;0.0;0.0;28.9;0.0;0.0
3.0;1753876070.241919;19.36806;0.65;-1.34;-0.19;0.876775;0.454712;0.02915;167.7;0.0;0.0;25.9;0.0;0.0
3.0;1753876070.246648;19.352377;0.69;-1.3;-0.24;0.878112;0.45393;0.030904;170.7;0.0;0.0;28.6;0.0;0.0
3.0;1753876070.251377;19.379712;0.73;-1.3;-0.23;0.877301;0.453738;0.028776;174.9;0.0;0.0;26.3;0.0;0.0
3.0;1753876070.256106;19.353559;0.78;-1.27;-0.22;0.877612;0.454239;0.029607;176.9;0.0;0.0;27.9;0.0;0.0
3.0;1753876070.260835;19.357173;0.7;-1.23;-0.21;0.877719;0.454344;0.030316;170.8;0.0;0.0;29.6;0.0;0.0
3.0;1753876070.265564;19.355466;0.72;-1.28;-0.21;0.877204;0.454017;0.031505;170.2;0.0;0.0;30.1;0.0;0.0
3.0;1753876070.270293;19.354834;0.71;-1.31;-0.24;0.877058;0.454065;0.02944;180.4;0.0;0.0;31.1;0.0;0.0
3.0;1753876070.275022;19.366387;0.63;-1.34;-0.19;0.876391;0.453665;0.0301;165.4;0.0;0.0;22.7;0.0;0.0
3.0;1753876070.279751;19.365206;0.68;-1.25;-0.19;0.877101;0.454361;0.030479;169.5;0.0;0.0;30.4;0.0;0.0
3.0;1753876070.28448;19.360956;0.65;-1.25;-0.21;0.877182;0.454719;0.030496;171.8;0.0;0.0;26.4;0.0;0.0
3.0;1753876070.289209;19.363725;0.62;-1.16;-0.22;0.877164;0.454107;0.029891;165.6;0.0;0.0;25.7;0.0;0.0
3.0;1753876070.293938;19.373044;0.67;-1.35;-0.2;0.876762;0.454645;0.030424;168.1;0.0;0.0;27.7;0.0;0.0
3.0;1753876070.298667;19.383149;0.66;-1.38;-0.24;0.877206;0.453861;0.031292;173.4;0.0;0.0;27.1;0.0;0.0
3.0;1753876070.303396;19.368773;0.66;-1.34;-0.18;0.877776;0.453785;0.03167;158.4;0.0;0.0;28.2;0.0;0.0
3.0;1753876070.308125;19.36857;0.73;-1.27;-0.2;0.877194;0.454419;0.030071;164.0;0.0;0.0;24.0;0.0;0.0
3.0;1753876070.312854;19.367228;0.58;-1.28;-0.21;0.877694;0.454605;0.029755;168.9;0.0;0.0;29.2;0.0;0.0
3.0;1753876070.317583;19.364387;0.64;-1.28;-0.2;0.877379;0.453661;0.0306;166.7;0.0;0.0;27.8;0.0;0.0
3.0;1753876070.322312;19.368127;0.62;-1.31;-0.22;0.877486;0.455111;0.028907;169.7;0.0;0.0;29.2;0.0;0.0
3.0;1753876070.327042;19.344267;0.59;-1.26;-0.23;0.875587;0.454807;0.031281;162.3;0.0;0.0;29.6;0.0;0.0
3.0;1753876070.33177;19.378898;0.69;-1.17;-0.23;0.878059;0.454171;0.029861;174.9;0.0;0.0;25.8;0.0;0.0
3.0;1753876070.3365;19.377969;0.58;-1.28;-0.23;0.878276;0.45349;0.031201;177.8;0.0;0.0;30.5;0.0;0.0
3.0;1753876070.341228;19.384005;0.67;-1.33;-0.21;0.877066;0.454612;0.029239;169.8;0.0;0.0;30.3;0.0;0.0
3.0;1753876070.345958;19.372879;0.68;-1.35;-0.19;0.877748;0.455027;0.030588;172.4;0.0;0.0;24.2;0.0;0.0
3.0;1753876070.350686;19.355631;0.56;-1.3;-0.21;0.877298;0.453475;0.030217;174.0;0.0;0.0;27.8;0.0;0.0
3.0;1753876070.355416;19.383057;0.83;-1.3;-0.2;0.878295;0.453275;0.031373;178.4;0.0;0.0;29.3;0.0;0.0
3.0;1753876070.360144;19.360198;0.67;-1.29;-0.19;0.877412;0.453456;0.029309;175.0;0.0;0.0;27.2;0.0;0.0
3.0;1753876070.364874;19.358117;0.66;-1.26;-0.21;0.87736;0.454102;0.0298;170.1;0.0;0.0;23.3;0.0;0.0
3.0;1753876070.369603;19.368915;0.7;-1.23;-0.21;0.878173;0.454402;0.030171;164.7;0.0;0.0;31.2;0.0;0.0
3.0;1753876070.374332;19.372112;0.64;-1.22;-0.19;0.876589;0.454243;0.030319;168.8;0.0;0.0;25.7;0.0;0.0
3.0;1753876070.379061;19.368876;0.63;-1.3;-0.24;0.877879;0.454147;0.02943;167.8;0.0;0.0;24.8;0.0;0.0
3.0;1753876070.38379;19.353083;0.62;-1.33;-0.19;0.878249;0.454452;0.030095;167.2;0.0;0.0;26.2;0.0;0.0
3.0;1753876070.388519;19.373325;0.6;-1.33;-0.24;0.876486;0.453758;0.031944;165.8;0.0;0.0;26.5;0.0;0.0
3.0;1753876070.393248;19.375898;0.72;-1.26;-0.24;0.877734;0.454634;0.030825;170.6;0.0;0.0;26.9;0.0;0.0
3.0;1753876070.397977;19.359179;0.55;-1.25;-0.18;0.877513;0.45435;0.031154;170.6;0.0;0.0;27.6;0.0;0.0
3.0;1753876070.402706;19.374185;0.68;-1.29;-0.23;0.877796;0.454818;0.029739;168.9;0.0;0.0;27.7;0.0;0.0
3.0;1753876070.407435;19.369364;0.67;-1.26;-0.21;0.877597;0.454962;0.029296;170.5;0.0;0.0;25.7;0.0;0.0
3.0;1753876070.412164;19.385624;0.66;-1.36;-0.2;0.876546;0.454271;0.02986;172.1;0.0;0.0;29.3;0.0;0.0
3.0;1753876070.416893;19.361903;0.67;-1.43;-0.22;0.878473;0.454008;0.029418;169.4;0.0;0.0;28.2;0.0;0.0
3.0;1753876070.421622;19.38321;0.71;-1.41;-0.21;0.876957;0.453316;0.029063;164.5;0.0;0.0;24.4;0.0;0.0
3.0;1753876070.426351;19.365233;0.6;-1.29;-0.23;0.877193;0.453662;0.030057;170.5;0.0;0.0;29.8;0.0;0.0
3.0;1753876070.43108;19.366857;0.71;-1.26;-0.21;0.877581;0.455585;0.029577;169.5;0.0;0.0;30.9;0.0;0.0
3.0;1753876070.435809;19.361129;0.65;-1.33;-0.21;0.877187;0.454651;0.030074;168.5;0.0;0.0;25.6;0.0;0.0
3.0;1753876070.440538;19.37733;0.63;-1.32;-0.17;0.878076;0.454657;0.02925;171.5;0.0;0.0;22.8;0.0;0.0
3.0;1753876070.445267;19.360702;0.59;-1.31;-0.22;0.877738;0.454033;0.032292;169.2;0.0;0.0;29.0;0.0;0.0
3.0;1753876070.449996;19.365451;0.68;-1.35;-0.23;0.877415;0.453546;0.031516;170.6;0.0;0.0;24.2;0.0;0.0
3.0;1753876070.454725;19.369393;0.62;-1.3;-0.25;0.876701;0.453075;0.030272;169.1;0.0;0.0;30.1;0.0;0.0
3.0;1753876070.459454;19.355512;0.71;-1.25;-0.18;0.877319;0.453674;0.029418;174.7;0.0;0.0;26.6;0.0;0.0
3.0;1753876070.464183;19.346563;0.71;-1.32;-0.22;0.878357;0.454092;0.029537;160.6;0.0;0.0;25.6;0.0;0.0
3.0;1753876070.468912;19.372989;0.72;-1.35;-0.24;0.87744;0.453987;0.031256;172.0;0.0;0.0;27.4;0.0;0.0
3.0;1753876070.473642;19.365168;0.69;-1.28;-0.27;0.877315;0.453713;0.030331;170.2;0.0;0.0;27.4;0.0;0.0
3.0;1753876070.47837;19.377946;0.62;-1.33;-0.22;0.877299;0.453831;0.02997;163.3;0.0;0.0;24.9;0.0;0.0
3.0;1753876070.4831;19.346231;0.65;-1.26;-0.18;0.878123;0.454721;0.029686;162.1;0.0;0.0;27.5;0.0;0.0
3.0;1753876070.487828;19.369756;0.64;-1.33;-0.24;0.877573;0.453484;0.030607;169.0;0.0;0.0;28.2;0.0;0.0
3.0;1753876070.492558;19.369692;0.69;-1.32;-0.23;0.876797;0.454249;0.031153;174.0;0.0;0.0;24.5;0.0;0.0
3.0;1753876070.497286;19.359016;0.71;-1.33;-0.23;0.878265;0.453478;0.029597;170.8;0.0;0.0;26.8;0.0;0.0
3.0;1753876070.502016;19.358757;0.76;-1.33;-0.18;0.877733;0.453806;0.029011;167.3;0.0;0.0;29.7;0.0;0.0
3.0;1753876070.506744;19.386213;0.69;-1.34;-0.21;0.877065;0.455125;0.030422;168.3;0.0;0.0;22.7;0.0;0.0
3.0;1753876070.511474;19.383415;0.67;-1.28;-0.23;0.877675;0.454034;0.029493;166.2;0.0;0.0;27.3;0.0;0.0
3.0;1753876070.516203;19.364593;0.65;-1.28;-0.21;0.877404;0.454882;0.032332;165.5;0.0;0.0;26.8;0.0;0.0
3.0;1753876070.520932;19.370627;0.61;-1.28;-0.24;0.877696;0.454566;0.029885;166.2;0.0;0.0;25.1;0.0;0.0
3.0;1753876070.525661;19.360354;0.63;-1.33;-0.23;0.87783;0.454184;0.029598;160.9;0.0;0.0;29.5;0.0;0.0
3.0;1753876070.53039;19.376136;0.61;-1.29;-0.21;0.877825;0.453665;0.028994;164.6;0.0;0.0;26.4;0.0;0.0
3.0;1753876070.535119;19.368353;0.63;-1.37;-0.25;0.877502;0.454307;0.03001;182.9;0.0;0.0;26.5;0.0;0.0
3.0;1753876070.539848;19.379212;0.7;-1.3;-0.21;0.877577;0.453965;0.029074;170.4;0.0;0.0;27.1;0.0;0.0
3.0;1753876070.544577;19.357239;0.74;-1.32;-0.2;0.878052;0.453983;0.029819;175.0;0.0;0.0;28.9;0.0;0.0
3.0;1753876070.549306;19.360171;0.66;-1.3;-0.22;0.87839;0.453269;0.029495;170.2;0.0;0.0;22.3;0.0;0.0
3.0;1753876070.554035;19.36435;0.71;-1.36;-0.19;0.878148;0.453875;0.030051;180.3;0.0;0.0;28.7;0.0;0.0
3.0;1753876070.558764;19.367167;0.67;-1.39;-0.19;0.877152;0.453949;0.030989;170.7;0.0;0.0;26.8;0.0;0.0
3.0;1753876070.563493;19.368871;0.6;-1.36;-0.23;0.877181;0.453896;0.02863;182.3;0.0;0.0;25.5;0.0;0.0
3.0;1753876070.568222;19.385901;0.69;-1.32;-0.21;0.87785;0.453483;0.031913;173.8;0.0;0.0;23.4;0.0;0.0
3.0;1753876070.572951;19.360413;0.71;-1.33;-0.22;0.877184;0.453946;0.030832;160.3;0.0;0.0;26.8;0.0;0.0
3.0;1753876070.57768;19.374105;0.64;-1.29;-0.22;0.878111;0.454709;0.030745;177.4;0.0;0.0;31.5;0.0;0.0
3.0;1753876070.582409;19.362926;0.68;-1.31;-0.2;0.877392;0.454099;0.028615;174.3;0.0;0.0;23.6;0.0;0.0
3.0;1753876070.587138;19.363647;0.73;-1.31;-0.22;0.878343;0.455522;0.029709;170.0;0.0;0.0;26.3;0.0;0.0
3.0;1753876070.591867;19.360099;0.65;-1.29;-0.21;0.876547;0.453673;0.029581;167.7;0.0;0.0;25.6;0.0;0.0
3.0;1753876070.596596;19.379649;0.64;-1.34;-0.22;0.877366;0.454864;0.029724;181.1;0.0;0.0;26.3;0.0;0.0
3.0;1753876070.601325;19.375963;0.67;-1.32;-0.21;0.878398;0.45312;0.030208;181.2;0.0;0.0;26.5;0.0;0.0
3.0;1753876070.606054;19.371946;0.72;-1.31;-0.21;0.878411;0.454424;0.030601;159.7;0.0;0.0;28.9;0.0;0.0
3.0;1753876070.610783;19.371597;0.65;-1.36;-0.24;0.87829;0.453147;0.030967;161.8;0.0;0.0;25.0;0.0;0.0
3.0;1753876070.615512;19.387336;0.66;-1.38;-0.22;0.877678;0.453739;0.029547;172.9;0.0;0.0;24.7;0.0;0.0
3.0;1753876070.620242;19.368488;0.64;-1.3;-0.21;0.878093;0.454722;0.031786;172.4;0.0;0.0;31.5;0.0;0.0
3.0;1753876070.62497;19.370218;0.62;-1.38;-0.18;0.878108;0.453483;0.030901;170.7;0.0;0.0;25.1;0.0;0.0
3.0;1753876070.6297;19.366503;0.68;-1.25;-0.23;0.877679;0.454067;0.029887;160.5;0.0;0.0;28.3;0.0;0.0
3.0;1753876070.634428;19.356391;0.69;-1.27;-0.24;0.878274;0.45303;0.03044;167.5;0.0;0.0;28.1;0.0;0.0
3.0;1753876070.639158;19.376766;0.6;-1.29;-0.17;0.878661;0.454118;0.030146;168.5;0.0;0.0;32.0;0.0;0.0
3.0;1753876070.643886;19.370154;0.69;-1.3;-0.21;0.877369;0.453117;0.031593;187.4;0.0;0.0;29.1;0.0;0.0
3.0;1753876070.648616;19.366288;0.72;-1.29;-0.19;0.877796;0.454174;0.03138;157.6;0.0;0.0;25.3;0.0;0.0
3.0;1753876070.653345;19.372779;0.64;-1.32;-0.23;0.878677;0.45323;0.030219;164.8;0.0;0.0;24.7;0.0;0.0
3.0;1753876070.658074;19.380224;0.73;-1.35;-0.27;0.877761;0.454958;0.029386;178.6;0.0;0.0;24.7;0.0;0.0
3.0;1753876070.662803;19.351543;0.7;-1.24;-0.22;0.878029;0.452496;0.031231;170.7;0.0;0.0;26.8;0.0;0.0
3.0;1753876070.667532;19.367535;0.83;-1.31;-0.23;0.878907;0.453527;0.029667;167.8;0.0;0.0;26.8;0.0;0.0
3.0;1753876070.672261;19.367842;0.7;-1.34;-0.23;0.878916;0.453217;0.03068;171.4;0.0;0.0;28.7;0.0;0.0
3.0;1753876070.68;19.367188;0.7;-1.33;-0.21;0.878156;0.453718;0.030256;171.0;0.0;0.0;27.0;0.0;0.0
3.0;1753876070.684729;19.357131;0.63;-1.28;-0.21;0.878689;0.453327;0.030967;166.5;0.0;0.0;28.1;0.0;0.0
3.0;1753876070.689458;19.367468;0.66;-1.33;-0.19;0.877896;0.453731;0.029937;168.5;0.0;0.0;27.7;0.0;0.0
3.0;1753876070.694187;19.361291;0.71;-1.39;-0.27;0.877991;0.453784;0.02861;171.7;0.0;0.0;26.0;0.0;0.0
3.0;1753876070.698916;19.371693;0.62;-1.25;-0.23;0.878437;0.453098;0.031446;177.4;0.0;0.0;26.9;0.0;0.0
3.0;1753876070.703645;19.338411;0.73;-1.3;-0.3;0.877965;0.455673;0.031054;177.6;0.0;0.0;26.1;0.0;0.0
3.0;1753876070.708374;19.303658;0.74;-1.34;-0.26;0.87695;0.455044;0.031066;175.8;0.0;0.0;19.5;0.0;0.0
3.0;1753876070.713103;19.335532;0.72;-1.28;-0.27;0.877578;0.454865;0.031962;170.1;0.0;0.0;24.3;0.0;0.0
3.0;1753876070.717832;19.383381;0.72;-1.28;-0.27;0.877776;0.455757;0.029905;170.9;0.0;0.0;18.7;0.0;0.0
3.0;1753876070.722561;19.373813;0.76;-1.25;-0.31;0.877396;0.45486;0.030506;180.6;0.0;0.0;20.3;0.0;0.0
3.0;1753876070.72729;19.318544;0.75;-1.32;-0.28;0.877629;0.456437;0.030883;168.7;0.0;0.0;9.0;0.0;0.0
3.0;1753876070.73505;19.34375;0.77;-1.26;-0.28;0.877302;0.455914;0.030866;179.0;0.0;0.0;18.0;0.0;0.0
3.0;1753876070.739779;19.336288;0.81;-1.27;-0.23;0.876382;0.456752;0.030657;177.9;0.0;0.0;21.6;0.0;0.0
3.0;1753876070.744508;19.347987;0.7;-1.24;-0.25;0.878154;0.455151;0.031338;179.0;0.0;0.0;24.5;0.0;0.0
3.0;1753876070.749237;19.333202;0.86;-1.31;-0.31;0.878418;0.454457;0.029729;172.1;0.0;0.0;32.9;0.0;0.0
3.0;1753876070.753966;19.349421;0.75;-1.31;-0.29;0.877035;0.456567;0.032409;177.5;0.0;0.0;21.1;0.0;0.0
3.0;1753876070.758695;19.345913;0.81;-1.25;-0.22;0.877558;0.455346;0.03197;169.2;0.0;0.0;22.8;0.0;0.0
3.0;1753876070.763424;19.400916;0.76;-1.3;-0.27;0.876948;0.45552;0.030318;171.7;0.0;0.0;11.2;0.0;0.0
3.0;1753876070.768153;19.356409;0.82;-1.33;-0.1;0.877455;0.455614;0.030869;175.7;0.0;0.0;28.8;0.0;0.0
3.0;1753876070.772882;19.386754;0.79;-1.32;-0.25;0.87649;0.455326;0.032996;173.0;0.0;0.0;19.3;0.0;0.0
3.0;1753876070.777611;19.328894;0.8;-1.25;-0.28;0.878002;0.455366;0.032647;164.1;0.0;0.0;8.6;0.0;0.0
3.0;1753876070.78234;19.305651;0.71;-1.36;-0.2;0.876799;0.455028;0.031113;171.0;0.0;0.0;21.8;0.0;0.0
3.0;1753876070.787069;19.32817;0.77;-1.31;-0.19;0.877488;0.455579;0.03284;165.4;0.0;0.0;22.8;0.0;0.0
3.0;1753876070.791798;19.345163;0.82;-1.3;-0.11;0.876607;0.454517;0.031936;175.0;0.0;0.0;16.1;0.0;0.0
3.0;1753876070.796528;19.311405;0.78;-1.36;-0.29;0.876775;0.455283;0.031771;170.8;0.0;0.0;12.3;0.0;0.0
3.0;1753876070.80084;19.34375;0.77;-1.33;-0.21;0.877058;0.455548;0.03233;168.0;0.0;0.0;16.0;0.0;0.0
3.0;1753876070.80268;19.34375;0.7;-1.33;-0.21;0.87596;0.455426;0.031354;168.0;0.0;0.0;16.0;0.0;0.0
3.0;1753876070.807409;19.373941;0.69;-1.3;-0.17;0.876127;0.45493;0.032418;165.7;0.0;0.0;21.5;0.0;0.0
3.0;1753876070.812138;19.334468;0.68;-1.33;-0.21;0.876065;0.454506;0.031577;173.1;0.0;0.0;15.2;0.0;0.0
3.0;1753876070.816867;19.341046;0.65;-1.34;-0.11;0.87581;0.45563;0.032547;173.4;0.0;0.0;22.2;0.0;0.0
3.0;1753876070.821596;19.33294;0.73;-1.33;-0.15;0.875635;0.45663;0.032486;174.9;0.0;0.0;19.4;0.0;0.0
3.0;1753876070.826325;19.355114;0.72;-1.3;-0.15;0.876331;0.455882;0.032002;170.7;0.0;0.0;16.0;0.0;0.0
3.0;1753876070.831054;19.344493;0.79;-1.4;-0.21;0.876653;0.456059;0.0313;169.8;0.0;0.0;16.6;0.0;0.0
3.0;1753876070.835783;19.315952;0.75;-1.36;-0.18;0.876767;0.455487;0.031774;175.6;0.0;0.0;22.4;0.0;0.0
3.0;1753876070.840512;19.335131;0.88;-1.31;-0.2;0.875328;0.45614;0.03268;169.9;0.0;0.0;14.8;0.0;0.0
3.0;1753876070.8491;19.34375;0.77;-1.4;-0.21;0.87657;0.45628;0.03233;168.0;0.0;0.0;16.0;0.0;0.0
3.0;1753876070.853829;19.326434;0.67;-1.35;-0.16;0.876225;0.454585;0.032253;169.9;0.0;0.0;9.1;0.0;0.0
3.0;1753876070.858558;19.342244;0.7;-1.4;-0.25;0.876501;0.456002;0.03128;167.0;0.0;0.0;12.9;0.0;0.0
3.0;1753876070.863287;19.342814;0.75;-1.35;-0.23;0.875031;0.454701;0.032523;163.3;0.0;0.0;13.3;0.0;0.0
3.0;1753876070.868016;19.297096;0.74;-1.37;-0.22;0.876596;0.455228;0.030459;166.9;0.0;0.0;21.2;0.0;0.0
3.0;1753876070.872745;19.329006;0.63;-1.33;-0.3;0.875976;0.454564;0.03203;175.8;0.0;0.0;21.6;0.0;0.0
3.0;1753876070.877474;19.337849;0.77;-1.35;-0.22;0.876666;0.454714;0.031304;163.1;0.0;0.0;17.4;0.0;0.0
3.0;1753876070.882203;19.341242;0.77;-1.29;-0.2;0.877107;0.454252;0.03156;164.3;0.0;0.0;19.4;0.0;0.0
3.0;1753876070.886932;19.339385;0.76;-1.23;-0.18;0.875661;0.453473;0.030441;171.2;0.0;0.0;15.1;0.0;0.0
3.0;1753876070.891662;19.342402;0.79;-1.33;-0.25;0.877305;0.454294;0.030557;168.3;0.0;0.0;15.8;0.0;0.0
3.0;1753876070.89596;19.328125;0.7;-1.26;-0.21;0.87657;0.453596;0.030866;168.0;0.0;0.0;16.0;0.0;0.0
3.0;1753876070.900689;19.329893;0.72;-1.21;-0.19;0.876143;0.453882;0.030659;169.6;0.0;0.0;21.6;0.0;0.0
3.0;1753876070.905418;19.337616;0.73;-1.23;-0.24;0.877766;0.453903;0.03051;164.0;0.0;0.0;7.9;0.0;0.0
3.0;1753876070.910147;19.318828;0.68;-1.22;-0.12;0.876808;0.454279;0.031132;176.1;0.0;0.0;24.3;0.0;0.0
3.0;1753876070.914876;19.306221;0.72;-1.27;-0.16;0.877981;0.453735;0.030863;172.9;0.0;0.0;17.1;0.0;0.0
3.0;1753876070.919605;19.339648;0.74;-1.28;-0.2;0.87627;0.456375;0.031192;168.4;0.0;0.0;19.4;0.0;0.0
3.0;1753876070.924334;19.322168;0.72;-1.25;-0.15;0.875495;0.455092;0.030859;168.8;0.0;0.0;7.4;0.0;0.0
3.0;1753876070.929063;19.349717;0.73;-1.27;-0.16;0.876412;0.455155;0.032058;168.4;0.0;0.0;17.7;0.0;0.0
3.0;1753876070.933792;19.319029;0.67;-1.27;-0.18;0.876108;0.456321;0.031227;175.1;0.0;0.0;25.8;0.0;0.0
3.0;1753876070.9427;19.328125;0.7;-1.26;-0.14;0.876814;0.45628;0.031842;168.0;0.0;0.0;16.0;0.0;0.0
3.0;1753876070.947429;19.330378;0.68;-1.23;-0.1;0.877056;0.456947;0.031198;173.8;0.0;0.0;15.0;0.0;0.0
3.0;1753876070.952158;19.343617;0.72;-1.28;-0.2;0.875935;0.453983;0.03184;170.5;0.0;0.0;19.1;0.0;0.0
3.0;1753876070.956887;19.35806;0.75;-1.28;-0.16;0.876194;0.456905;0.030889;158.7;0.0;0.0;23.0;0.0;0.0
3.0;1753876070.961616;19.319705;0.8;-1.29;-0.19;0.876689;0.455406;0.031461;160.3;0.0;0.0;12.5;0.0;0.0
3.0;1753876070.966345;19.329882;0.76;-1.29;-0.17;0.876853;0.454816;0.032021;173.1;0.0;0.0;16.8;0.0;0.0
3.0;1753876070.971074;19.317907;0.77;-1.33;-0.18;0.876341;0.45495;0.031418;168.0;0.0;0.0;23.1;0.0;0.0
3.0;1753876070.975803;19.335526;0.76;-1.33;-0.14;0.876868;0.455795;0.030028;163.3;0.0;0.0;14.2;0.0;0.0
3.0;1753876070.980532;19.346461;0.82;-1.27;-0.16;0.876784;0.455559;0.029989;174.3;0.0;0.0;23.8;0.0;0.0
3.0;1753876070.985261;19.318531;0.72;-1.35;-0.14;0.87749;0.455848;0.031467;174.8;0.0;0.0;16.0;0.0;0.0
3.0;1753876070.98952;19.328125;0.77;-1.33;-0.21;0.87657;0.454694;0.030378;168.0;0.0;0.0;16.0;0.0;0.0
3.0;1753876070.992814;19.328125;0.63;-1.26;-0.14;0.875472;0.454694;0.030378;167.0;0.0;0.0;20.0;0.0;0.0
3.0;1753876070.997515;19.328125;0.63;-1.4;-0.21;0.876204;0.455304;0.031232;167.0;0.0;0.0;20.0;0.0;0.0
3.0;1753876071.002244;19.33703;0.66;-1.45;-0.18;0.875632;0.455982;0.032438;167.2;0.0;0.0;15.4;0.0;0.0
3.0;1753876071.006973;19.317098;0.7;-1.41;-0.14;0.876118;0.456913;0.031787;169.6;0.0;0.0;22.7;0.0;0.0
3.0;1753876071.011702;19.363534;0.65;-1.42;-0.28;0.87639;0.456497;0.031496;155.8;0.0;0.0;24.6;0.0;0.0
3.0;1753876071.016431;19.319914;0.67;-1.44;-0.2;0.875093;0.455241;0.030245;166.0;0.0;0.0;11.5;0.0;0.0
3.0;1753876071.02116;19.352864;0.61;-1.32;-0.17;0.877152;0.454612;0.03154;164.1;0.0;0.0;21.2;0.0;0.0
3.0;1753876071.025889;19.354872;0.67;-1.35;-0.14;0.87612;0.455518;0.03222;163.9;0.0;0.0;26.6;0.0;0.0
3.0;1753876071.030618;19.288128;0.6;-1.47;-0.22;0.875486;0.454193;0.031811;165.5;0.0;0.0;25.9;0.0;0.0
3.0;1753876071.035347;19.310238;0.67;-1.45;-0.19;0.875616;0.455454;0.031178;164.8;0.0;0.0;24.2;0.0;0.0
3.0;1753876071.040076;19.353813;0.57;-1.4;-0.19;0.876351;0.453883;0.031626;165.5;0.0;0.0;19.2;0.0;0.0
3.0;1753876071.044805;19.299071;0.61;-1.45;-0.2;0.876191;0.455323;0.031928;157.9;0.0;0.0;22.4;0.0;0.0
3.0;1753876071.049534;19.317189;0.72;-1.35;-0.26;0.876477;0.455388;0.030466;165.5;0.0;0.0;18.6;0.0;0.0
3.0;1753876071.054263;19.342186;0.63;-1.42;-0.21;0.876628;0.455508;0.031319;168.7;0.0;0.0;22.4;0.0;0.0
3.0;1753876071.058992;19.339069;0.6;-1.37;-0.19;0.875977;0.455595;0.032719;172.1;0.0;0.0;24.3;0.0;0.0
3.0;1753876071.063722;19.318929;0.61;-1.44;-0.29;0.875517;0.456047;0.031299;179.5;0.0;0.0;21.6;0.0;0.0
3.0;1753876071.06845;19.318957;0.6;-1.3;-0.17;0.87673;0.454693;0.031521;164.3;0.0;0.0;16.4;0.0;0.0
3.0;1753876071.07318;19.318205;0.55;-1.35;-0.25;0.875801;0.455736;0.031538;157.3;0.0;0.0;12.2;0.0;0.0
3.0;1753876071.077908;19.309556;0.64;-1.36;-0.17;0.876725;0.454296;0.032373;163.2;0.0;0.0;16.9;0.0;0.0
3.0;1753876071.082638;19.304019;0.64;-1.35;-0.2;0.875796;0.454472;0.031443;158.4;0.0;0.0;21.4;0.0;0.0
3.0;1753876071.087366;19.317566;0.68;-1.39;-0.22;0.875877;0.455873;0.031225;171.8;0.0;0.0;14.9;0.0;0.0
3.0;1753876071.092096;19.293443;0.61;-1.46;-0.18;0.876659;0.454942;0.031405;166.8;0.0;0.0;14.6;0.0;0.0
3.0;1753876071.096825;19.298196;0.65;-1.39;-0.22;0.874936;0.456469;0.030482;176.3;0.0;0.0;16.9;0.0;0.0
3.0;1753876071.101554;19.338499;0.67;-1.36;-0.25;0.875112;0.456132;0.031045;169.1;0.0;0.0;17.7;0.0;0.0
3.0;1753876071.106283;19.315343;0.6;-1.35;-0.19;0.875994;0.455091;0.031552;170.4;0.0;0.0;19.6;0.0;0.0
3.0;1753876071.111012;19.286359;0.66;-1.35;-0.23;0.875691;0.456204;0.030663;159.5;0.0;0.0;24.5;0.0;0.0
3.0;1753876071.115741;19.318669;0.66;-1.38;-0.2;0.875388;0.454064;0.031465;166.8;0.0;0.0;14.2;0.0;0.0
3.0;1753876071.12047;19.321702;0.66;-1.39;-0.28;0.877224;0.454376;0.031308;177.1;0.0;0.0;21.7;0.0;0.0
3.0;1753876071.125199;19.324287;0.63;-1.38;-0.23;0.876693;0.453266;0.030888;162.6;0.0;0.0;16.7;0.0;0.0
3.0;1753876071.129928;19.338868;0.62;-1.34;-0.19;0.875994;0.455128;0.030734;171.7;0.0;0.0;15.6;0.0;0.0
3.0;1753876071.134657;19.35133;0.7;-1.44;-0.24;0.876684;0.454701;0.031576;162.2;0.0;0.0;27.1;0.0;0.0
3.0;1753876071.139386;19.324672;0.67;-1.44;-0.12;0.875826;0.455099;0.031183;165.8;0.0;0.0;18.7;0.0;0.0
3.0;1753876071.144115;19.30479;0.59;-1.33;-0.2;0.877048;0.455072;0.030792;169.6;0.0;0.0;25.9;0.0;0.0
3.0;1753876071.148844;19.344237;0.65;-1.3;-0.3;0.876522;0.454779;0.030727;167.6;0.0;0.0;21.6;0.0;0.0
3.0;1753876071.153573;19.283227;0.67;-1.36;-0.26;0.875545;0.454673;0.032359;179.1;0.0;0.0;15.6;0.0;0.0
3.0;1753876071.158302;19.342693;0.55;-1.38;-0.24;0.87662;0.45422;0.031652;160.3;0.0;0.0;15.7;0.0;0.0
3.0;1753876071.163031;19.336117;0.6;-1.32;-0.12;0.875996;0.454918;0.031602;164.9;0.0;0.0;24.7;0.0;0.0
3.0;1753876071.16776;19.354273;0.64;-1.32;-0.22;0.875915;0.453953;0.030949;162.5;0.0;0.0;18.3;0.0;0.0
3.0;1753876071.172489;19.349944;0.68;-1.4;-0.12;0.876371;0.454129;0.030737;159.8;0.0;0.0;16.5;0.0;0.0
3.0;1753876071.177218;19.332187;0.6;-1.42;-0.22;0.876103;0.454043;0.030214;161.8;0.0;0.0;18.0;0.0;0.0
3.0;1753876071.181947;19.319241;0.59;-1.3;-0.25;0.875794;0.455062;0.031682;160.7;0.0;0.0;25.5;0.0;0.0
3.0;1753876071.186676;19.309375;0.6;-1.31;-0.23;0.876306;0.455891;0.031852;163.0;0.0;0.0;20.8;0.0;0.0
3.0;1753876071.191405;19.342077;0.62;-1.38;-0.16;0.876202;0.454853;0.032326;174.8;0.0;0.0;26.8;0.0;0.0
3.0;1753876071.196134;19.280584;0.64;-1.36;-0.35;0.876179;0.454125;0.032212;165.0;0.0;0.0;25.5;0.0;0.0
3.0;1753876071.200863;19.341374;0.61;-1.44;-0.22;0.87508;0.45356;0.031578;171.7;0.0;0.0;20.4;0.0;0.0
3.0;1753876071.205592;19.351144;0.67;-1.35;-0.17;0.875903;0.454158;0.031548;163.0;0.0;0.0;14.5;0.0;0.0
3.0;1753876071.210322;19.315634;0.65;-1.34;-0.13;0.875932;0.455479;0.030624;165.5;0.0;0.0;18.3;0.0;0.0
3.0;1753876071.21505;19.336762;0.68;-1.43;-0.27;0.875971;0.454854;0.032236;170.2;0.0;0.0;17.1;0.0;0.0
3.0;1753876071.21978;19.361965;0.63;-1.39;-0.28;0.87659;0.453992;0.032194;158.9;0.0;0.0;18.3;0.0;0.0
3.0;1753876071.224508;19.307696;0.55;-1.41;-0.24;0.875575;0.454714;0.030879;162.6;0.0;0.0;20.7;0.0;0.0
3.0;1753876071.229238;19.338728;0.59;-1.4;-0.2;0.875341;0.451783;0.031384;174.0;0.0;0.0;21.5;0.0;0.0
3.0;1753876071.233966;19.307023;0.56;-1.39;-0.18;0.876658;0.454876;0.031684;165.6;0.0;0.0;13.4;0.0;0.0
3.0;1753876071.238696;19.300858;0.6;-1.27;-0.23;0.876888;0.453089;0.031605;166.1;0.0;0.0;7.7;0.0;0.0
3.0;1753876071.243425;19.358539;0.61;-1.39;-0.19;0.876291;0.453014;0.031201;163.0;0.0;0.0;20.5;0.0;0.0
3.0;1753876071.248154;19.328702;0.55;-1.31;-0.18;0.87632;0.453594;0.031795;162.4;0.0;0.0;17.7;0.0;0.0
3.0;1753876071.252883;19.360471;0.68;-1.29;-0.29;0.877576;0.455046;0.031534;166.2;0.0;0.0;21.4;0.0;0.0
3.0;1753876071.257612;19.294993;0.63;-1.37;-0.18;0.877165;0.453749;0.03154;165.9;0.0;0.0;17.5;0.0;0.0
3.0;1753876071.262341;19.336045;0.71;-1.37;-0.22;0.875813;0.454107;0.030407;165.4;0.0;0.0;20.5;0.0;0.0
3.0;1753876071.26707;19.351892;0.7;-1.4;-0.26;0.876113;0.454351;0.032566;169.4;0.0;0.0;21.0;0.0;0.0
3.0;1753876071.271799;19.326922;0.6;-1.3;-0.25;0.874893;0.453815;0.030838;164.3;0.0;0.0;21.0;0.0;0.0
3.0;1753876071.276528;19.321713;0.56;-1.39;-0.17;0.876356;0.454765;0.031786;164.4;0.0;0.0;26.3;0.0;0.0
3.0;1753876071.281257;19.288029;0.54;-1.33;-0.25;0.876508;0.454363;0.031622;177.1;0.0;0.0;24.4;0.0;0.0
3.0;1753876071.285986;19.335545;0.55;-1.29;-0.2;0.875912;0.45469;0.032049;159.2;0.0;0.0;15.3;0.0;0.0
3.0;1753876071.290715;19.29267;0.65;-1.36;-0.23;0.876525;0.454687;0.031378;166.4;0.0;0.0;26.3;0.0;0.0
3.0;1753876071.295444;19.358483;0.6;-1.37;-0.19;0.874721;0.454027;0.032079;170.0;0.0;0.0;23.2;0.0;0.0
3.0;1753876071.3036;19.328125;0.63;-1.33;-0.21;0.876082;0.453962;0.03172;167.0;0.0;0.0;20.0;0.0;0.0
3.0;1753876071.308329;19.313278;0.61;-1.31;-0.23;0.876243;0.453631;0.032143;169.4;0.0;0.0;20.4;0.0;0.0
3.0;1753876071.313058;19.340449;0.63;-1.33;-0.27;0.875725;0.453881;0.032811;173.1;0.0;0.0;29.7;0.0;0.0
3.0;1753876071.317787;19.360016;0.56;-1.33;-0.18;0.876454;0.453104;0.0301;157.9;0.0;0.0;15.2;0.0;0.0
3.0;1753876071.322516;19.329971;0.68;-1.29;-0.17;0.876342;0.453972;0.033104;153.2;0.0;0.0;20.9;0.0;0.0
3.0;1753876071.327245;19.350008;0.61;-1.37;-0.25;0.876605;0.453348;0.032606;152.5;0.0;0.0;21.3;0.0;0.0
3.0;1753876071.331974;19.332321;0.66;-1.3;-0.2;0.87641;0.453853;0.031622;176.1;0.0;0.0;21.6;0.0;0.0
3.0;1753876071.336703;19.296191;0.63;-1.32;-0.19;0.876639;0.455775;0.03174;160.9;0.0;0.0;11.4;0.0;0.0
3.0;1753876071.341432;19.356371;0.68;-1.24;-0.25;0.8771;0.453491;0.031604;174.2;0.0;0.0;15.4;0.0;0.0
3.0;1753876071.346161;19.342212;0.69;-1.37;-0.06;0.876153;0.455597;0.03101;167.1;0.0;0.0;27.1;0.0;0.0
3.0;1753876071.35089;19.380009;0.65;-1.37;-0.26;0.876538;0.45425;0.032448;164.9;0.0;0.0;13.8;0.0;0.0
3.0;1753876071.35562;19.319959;0.67;-1.27;-0.14;0.877027;0.454352;0.031652;169.1;0.0;0.0;17.4;0.0;0.0
3.0;1753876071.360348;19.265519;0.66;-1.34;-0.14;0.876168;0.454174;0.031538;155.8;0.0;0.0;15.2;0.0;0.0
3.0;1753876071.365078;19.324939;0.65;-1.29;-0.24;0.875602;0.453734;0.031814;164.4;0.0;0.0;26.9;0.0;0.0
3.0;1753876071.369806;19.317723;0.61;-1.35;-0.25;0.875729;0.454125;0.032734;176.1;0.0;0.0;15.6;0.0;0.0
3.0;1753876071.374536;19.284679;0.67;-1.35;-0.2;0.876089;0.454828;0.032549;156.5;0.0;0.0;11.7;0.0;0.0
3.0;1753876071.379264;19.308395;0.61;-1.25;-0.26;0.875778;0.455363;0.031622;167.5;0.0;0.0;21.2;0.0;0.0
3.0;1753876071.383994;19.304857;0.66;-1.29;-0.14;0.876005;0.45594;0.031505;166.5;0.0;0.0;21.2;0.0;0.0
3.0;1753876071.388723;19.324577;0.68;-1.31;-0.27;0.875336;0.453502;0.03157;171.7;0.0;0.0;23.7;0.0;0.0
3.0;1753876071.393452;19.339402;0.66;-1.3;-0.18;0.875606;0.455026;0.032567;176.5;0.0;0.0;23.9;0.0;0.0
3.0;1753876071.398181;19.336373;0.64;-1.37;-0.25;0.875815;0.455895;0.031319;161.6;0.0;0.0;21.1;0.0;0.0
3.0;1753876071.40291;19.336028;0.6;-1.35;-0.17;0.876275;0.453369;0.031699;165.0;0.0;0.0;19.1;0.0;0.0
3.0;1753876071.407639;19.307694;0.61;-1.33;-0.22;0.876694;0.453566;0.032005;167.4;0.0;0.0;12.3;0.0;0.0
3.0;1753876071.412368;19.322065;0.69;-1.29;-0.25;0.877545;0.454269;0.031522;172.7;0.0;0.0;22.1;0.0;0.0
3.0;1753876071.417097;19.340895;0.71;-1.31;-0.14;0.875843;0.453829;0.03177;165.0;0.0;0.0;13.5;0.0;0.0
3.0;1753876071.421826;19.331815;0.63;-1.32;-0.21;0.87633;0.454087;0.031375;167.4;0.0;0.0;17.5;0.0;0.0
3.0;1753876071.426555;19.333882;0.65;-1.34;-0.21;0.875472;0.454431;0.03188;174.6;0.0;0.0;25.6;0.0;0.0
3.0;1753876071.431284;19.325479;0.61;-1.33;-0.25;0.876471;0.454784;0.031859;170.4;0.0;0.0;20.4;0.0;0.0
3.0;1753876071.436013;19.342977;0.58;-1.37;-0.27;0.876044;0.455284;0.033182;164.2;0.0;0.0;12.6;0.0;0.0
3.0;1753876071.440742;19.332788;0.62;-1.31;-0.19;0.875686;0.455949;0.031592;166.4;0.0;0.0;30.4;0.0;0.0
3.0;1753876071.445471;19.327632;0.56;-1.27;-0.18;0.876309;0.452633;0.031419;167.9;0.0;0.0;16.1;0.0;0.0
3.0;1753876071.4502;19.345469;0.59;-1.2;-0.18;0.875682;0.454472;0.031421;162.9;0.0;0.0;11.8;0.0;0.0
3.0;1753876071.454929;19.335376;0.71;-1.4;-0.26;0.876847;0.45473;0.032004;169.5;0.0;0.0;13.7;0.0;0.0
3.0;1753876071.459658;19.325057;0.65;-1.33;-0.21;0.877286;0.453984;0.031385;171.3;0.0;0.0;22.0;0.0;0.0
3.0;1753876071.464387;19.332472;0.62;-1.2;-0.23;0.877066;0.454599;0.031744;177.8;0.0;0.0;22.7;0.0;0.0
3.0;1753876071.469116;19.31823;0.7;-1.43;-0.25;0.876108;0.454221;0.031055;165.1;0.0;0.0;22.1;0.0;0.0
3.0;1753876071.473845;19.329454;0.6;-1.25;-0.17;0.876914;0.454153;0.031718;167.8;0.0;0.0;19.9;0.0;0.0
3.0;1753876071.478574;19.303416;0.65;-1.24;-0.17;0.875918;0.453166;0.03208;157.9;0.0;0.0;20.7;0.0;0.0
3.0;1753876071.483303;19.368862;0.67;-1.27;-0.19;0.876224;0.454995;0.031507;158.9;0.0;0.0;24.8;0.0;0.0
3.0;1753876071.488032;19.344438;0.72;-1.28;-0.16;0.876215;0.455484;0.03167;175.7;0.0;0.0;20.0;0.0;0.0
3.0;1753876071.492761;19.341564;0.69;-1.37;-0.18;0.876601;0.454509;0.032234;164.2;0.0;0.0;16.9;0.0;0.0
3.0;1753876071.49749;19.323388;0.72;-1.29;-0.2;0.877428;0.456402;0.030942;156.1;0.0;0.0;18.5;0.0;0.0
3.0;1753876071.50222;19.339092;0.68;-1.39;-0.14;0.876277;0.455174;0.030392;161.8;0.0;0.0;25.2;0.0;0.0
3.0;1753876071.506948;19.333829;0.75;-1.3;-0.17;0.875917;0.454608;0.031813;164.9;0.0;0.0;14.2;0.0;0.0
3.0;1753876071.511678;19.340642;0.71;-1.33;-0.26;0.876922;0.454955;0.032503;175.2;0.0;0.0;23.1;0.0;0.0
3.0;1753876071.516406;19.332396;0.7;-1.32;-0.2;0.875726;0.453577;0.032182;170.5;0.0;0.0;25.3;0.0;0.0
3.0;1753876071.521136;19.330954;0.6;-1.33;-0.26;0.877279;0.454749;0.031465;152.6;0.0;0.0;14.4;0.0;0.0
3.0;1753876071.525864;19.312819;0.6;-1.22;-0.27;0.877099;0.453743;0.032051;163.2;0.0;0.0;12.3;0.0;0.0
3.0;1753876071.530594;19.336362;0.67;-1.33;-0.2;0.876349;0.455616;0.032933;167.0;0.0;0.0;16.8;0.0;0.0
3.0;1753876071.535323;19.327801;0.62;-1.33;-0.17;0.876355;0.455998;0.032538;163.1;0.0;0.0;24.5;0.0;0.0
3.0;1753876071.540052;19.34659;0.64;-1.32;-0.12;0.875788;0.454963;0.030607;171.1;0.0;0.0;15.5;0.0;0.0
3.0;1753876071.544781;19.331672;0.65;-1.31;-0.16;0.875819;0.455773;0.031598;166.4;0.0;0.0;17.4;0.0;0.0
3.0;1753876071.54951;19.325717;0.64;-1.25;-0.24;0.876583;0.45426;0.031229;165.3;0.0;0.0;21.4;0.0;0.0
3.0;1753876071.554239;19.314841;0.66;-1.24;-0.23;0.875903;0.454326;0.031655;172.1;0.0;0.0;8.5;0.0;0.0
3.0;1753876071.558968;19.332141;0.77;-1.33;-0.21;0.876121;0.455292;0.031119;169.0;0.0;0.0;18.2;0.0;0.0
3.0;1753876071.563697;19.327191;0.67;-1.29;-0.24;0.876672;0.454494;0.031241;169.0;0.0;0.0;18.8;0.0;0.0
3.0;1753876071.568426;19.39149;0.65;-1.25;-0.25;0.877294;0.455239;0.032299;168.3;0.0;0.0;18.8;0.0;0.0
3.0;1753876071.573155;19.308368;0.67;-1.31;-0.21;0.876055;0.455783;0.031881;166.3;0.0;0.0;24.3;0.0;0.0
3.0;1753876071.577884;19.269967;0.8;-1.25;-0.18;0.87684;0.454324;0.031851;164.4;0.0;0.0;31.7;0.0;0.0
3.0;1753876071.582613;19.327078;0.67;-1.3;-0.26;0.876248;0.455296;0.031746;176.7;0.0;0.0;21.0;0.0;0.0
3.0;1753876071.587342;19.319926;0.72;-1.24;-0.1;0.875964;0.455121;0.031799;166.0;0.0;0.0;17.4;0.0;0.0
3.0;1753876071.592071;19.346734;0.68;-1.23;-0.23;0.876352;0.455066;0.031475;177.2;0.0;0.0;22.3;0.0;0.0
3.0;1753876071.5968;19.336447;0.74;-1.3;-0.21;0.876767;0.456344;0.032112;172.4;0.0;0.0;11.5;0.0;0.0
3.0;1753876071.601529;19.355403;0.73;-1.27;-0.28;0.876871;0.455029;0.030933;179.1;0.0;0.0;26.9;0.0;0.0
3.0;1753876071.606258;19.343789;0.71;-1.28;-0.26;0.876572;0.456505;0.032186;165.8;0.0;0.0;19.7;0.0;0.0
3.0;1753876071.610987;19.300377;0.69;-1.25;-0.13;0.876425;0.454403;0.032211;171.4;0.0;0.0;22.5;0.0;0.0
3.0;1753876071.615716;19.336462;0.64;-1.35;-0.17;0.875677;0.455612;0.032665;171.0;0.0;0.0;18.6;0.0;0.0
3.0;1753876071.620445;19.321714;0.69;-1.23;-0.26;0.876169;0.45553;0.032569;170.2;0.0;0.0;26.6;0.0;0.0
3.0;1753876071.625174;19.295197;0.66;-1.22;-0.2;0.875084;0.45556;0.031941;177.1;0.0;0.0;20.1;0.0;0.0
3.0;1753876071.629903;19.33987;0.71;-1.3;-0.19;0.876427;0.455547;0.03087;174.2;0.0;0.0;19.3;0.0;0.0
3.0;1753876071.634632;19.324762;0.79;-1.33;-0.19;0.876299;0.456012;0.031417;170.2;0.0;0.0;21.3;0.0;0.0
3.0;1753876071.639362;19.354;0.69;-1.24;-0.16;0.876587;0.455931;0.031667;178.8;0.0;0.0;17.0;0.0;0.0
3.0;1753876071.64409;19.30418;0.59;-1.33;-0.17;0.876879;0.45583;0.032703;166.4;0.0;0.0;21.2;0.0;0.0
3.0;1753876071.64882;19.362121;0.75;-1.26;-0.23;0.877378;0.454376;0.032822;173.5;0.0;0.0;31.4;0.0;0.0
3.0;1753876071.653548;19.30726;0.66;-1.32;-0.26;0.876039;0.456366;0.031731;168.4;0.0;0.0;15.3;0.0;0.0
3.0;1753876071.658278;19.3549;0.77;-1.3;-0.19;0.877033;0.457086;0.031154;165.5;0.0;0.0;24.5;0.0;0.0
3.0;1753876071.663006;19.292073;0.67;-1.3;-0.16;0.876296;0.455302;0.03109;159.2;0.0;0.0;13.5;0.0;0.0
3.0;1753876071.667736;19.320358;0.67;-1.32;-0.28;0.87576;0.454183;0.03272;169.7;0.0;0.0;12.6;0.0;0.0
3.0;1753876071.672464;19.293282;0.64;-1.25;-0.19;0.875821;0.454757;0.031841;153.7;0.0;0.0;16.5;0.0;0.0
3.0;1753876071.677194;19.316867;0.76;-1.3;-0.21;0.876673;0.456013;0.03217;176.9;0.0;0.0;18.0;0.0;0.0
3.0;1753876071.681923;19.311569;0.72;-1.26;-0.18;0.876988;0.456403;0.030792;166.7;0.0;0.0;24.3;0.0;0.0
3.0;1753876071.686652;19.320794;0.72;-1.16;-0.23;0.876396;0.455603;0.032465;169.3;0.0;0.0;17.7;0.0;0.0
3.0;1753876071.691381;19.348109;0.73;-1.25;-0.32;0.876476;0.456086;0.031012;169.8;0.0;0.0;26.9;0.0;0.0
3.0;1753876071.69611;19.326824;0.75;-1.17;-0.29;0.876613;0.455603;0.033035;174.0;0.0;0.0;23.9;0.0;0.0
3.0;1753876071.7037;19.328125;0.7;-1.26;-0.21;0.876326;0.45567;0.031842;167.0;0.0;0.0;20.0;0.0;0.0
3.0;1753876071.708429;19.334445;0.74;-1.29;-0.22;0.875568;0.455707;0.032946;172.9;0.0;0.0;20.7;0.0;0.0
3.0;1753876071.713158;19.335001;0.76;-1.31;-0.18;0.875731;0.456276;0.031441;155.7;0.0;0.0;19.4;0.0;0.0
3.0;1753876071.717887;19.316959;0.8;-1.29;-0.17;0.8756;0.455201;0.031593;159.6;0.0;0.0;17.3;0.0;0.0
3.0;1753876071.72289;19.273438;0.77;-1.33;-0.14;0.875472;0.45567;0.031232;156.0;0.0;0.0;20.0;0.0;0.0
3.0;1753876071.727619;19.279499;0.78;-1.29;-0.11;0.875391;0.456;0.031578;167.1;0.0;0.0;20.1;0.0;0.0
3.0;1753876071.732348;19.315028;0.84;-1.33;-0.13;0.875153;0.455121;0.030822;158.6;0.0;0.0;18.2;0.0;0.0
3.0;1753876071.737077;19.267925;0.83;-1.27;-0.23;0.875962;0.455385;0.031521;146.5;0.0;0.0;19.7;0.0;0.0
3.0;1753876071.741806;19.351951;0.74;-1.26;-0.26;0.876374;0.453909;0.032031;151.3;0.0;0.0;18.8;0.0;0.0
3.0;1753876071.746535;19.263103;0.76;-1.37;-0.25;0.875982;0.454574;0.032006;139.3;0.0;0.0;21.1;0.0;0.0
3.0;1753876071.751264;19.279592;0.67;-1.24;-0.14;0.876809;0.454868;0.030984;151.4;0.0;0.0;19.9;0.0;0.0
3.0;1753876071.755993;19.259547;0.7;-1.26;-0.13;0.876915;0.455063;0.032203;166.9;0.0;0.0;20.1;0.0;0.0
3.0;1753876071.760722;19.269622;0.65;-1.29;-0.33;0.8766;0.454703;0.032324;169.3;0.0;0.0;21.6;0.0;0.0
3.0;1753876071.765451;19.252579;0.72;-1.17;-0.15;0.877007;0.455316;0.032527;148.3;0.0;0.0;19.7;0.0;0.0
3.0;1753876071.77075;19.273438;0.7;-1.26;-0.21;0.876326;0.45445;0.03294;156.0;0.0;0.0;20.0;0.0;0.0
3.0;1753876071.775479;19.284293;0.72;-1.25;-0.2;0.875754;0.45366;0.032516;154.3;0.0;0.0;19.4;0.0;0.0
3.0;1753876071.780208;19.271467;0.72;-1.35;-0.26;0.875952;0.454817;0.032789;159.1;0.0;0.0;20.7;0.0;0.0
3.0;1753876071.784937;19.302284;0.68;-1.35;-0.18;0.876571;0.454091;0.03282;165.5;0.0;0.0;19.0;0.0;0.0
3.0;1753876071.789666;19.297776;0.74;-1.2;-0.21;0.875825;0.455332;0.032504;157.2;0.0;0.0;19.6;0.0;0.0
3.0;1753876071.794395;19.273104;0.62;-1.2;-0.24;0.876874;0.454325;0.033328;151.5;0.0;0.0;20.3;0.0;0.0
3.0;1753876071.799124;19.265409;0.7;-1.32;-0.2;0.877102;0.454366;0.032193;158.2;0.0;0.0;20.8;0.0;0.0
3.0;1753876071.803853;19.244193;0.68;-1.28;-0.17;0.875891;0.454548;0.030862;162.3;0.0;0.0;20.9;0.0;0.0
3.0;1753876071.808582;19.29336;0.68;-1.33;-0.13;0.876339;0.454736;0.032553;159.1;0.0;0.0;21.8;0.0;0.0
3.0;1753876071.813311;19.333496;0.72;-1.29;-0.15;0.876749;0.45375;0.031866;180.0;0.0;0.0;19.7;0.0;0.0
3.0;1753876071.81804;19.268928;0.73;-1.32;-0.22;0.875329;0.455061;0.032026;159.0;0.0;0.0;19.5;0.0;0.0
3.0;1753876071.82277;19.32893;0.66;-1.34;-0.25;0.876081;0.454796;0.032299;154.2;0.0;0.0;19.7;0.0;0.0
3.0;1753876071.827498;19.31325;0.6;-1.28;-0.23;0.875867;0.454788;0.031422;155.3;0.0;0.0;18.4;0.0;0.0
3.0;1753876071.832228;19.34899;0.77;-1.28;-0.24;0.876156;0.455172;0.032641;163.1;0.0;0.0;18.8;0.0;0.0
3.0;1753876071.836956;19.315897;0.66;-1.23;-0.21;0.876551;0.45472;0.032955;152.6;0.0;0.0;19.7;0.0;0.0
3.0;1753876071.841686;19.278286;0.6;-1.43;-0.22;0.876193;0.455614;0.031869;161.2;0.0;0.0;19.3;0.0;0.0
3.0;1753876071.84857;19.328125;0.7;-1.33;-0.21;0.876082;0.455304;0.031842;156.0;0.0;0.0;20.0;0.0;0.0
3.0;1753876071.853299;19.317093;0.73;-1.3;-0.26;0.876696;0.455962;0.032188;155.1;0.0;0.0;20.3;0.0;0.0
3.0;1753876071.858028;19.290507;0.72;-1.38;-0.15;0.875815;0.454924;0.032295;150.7;0.0;0.0;20.9;0.0;0.0
3.0;1753876071.86313;19.328125;0.7;-1.33;-0.14;0.876082;0.455304;0.031842;156.0;0.0;0.0;20.0;0.0;0.0
3.0;1753876071.867859;19.328533;0.76;-1.34;-0.18;0.87659;0.455679;0.032927;156.0;0.0;0.0;18.7;0.0;0.0
3.0;1753876071.872588;19.31954;0.65;-1.35;-0.19;0.875382;0.454868;0.030805;158.0;0.0;0.0;20.5;0.0;0.0
3.0;1753876071.877317;19.353758;0.66;-1.32;-0.09;0.874746;0.454959;0.031215;174.8;0.0;0.0;20.1;0.0;0.0
3.0;1753876071.882046;19.312789;0.75;-1.36;-0.07;0.876332;0.455701;0.031325;149.6;0.0;0.0;17.7;0.0;0.0
3.0;1753876071.886775;19.331227;0.81;-1.34;-0.06;0.875844;0.456113;0.030362;150.2;0.0;0.0;19.7;0.0;0.0
3.0;1753876071.891504;19.340108;0.7;-1.29;-0.13;0.875737;0.455371;0.031522;167.7;0.0;0.0;20.0;0.0;0.0
3.0;1753876071.896233;19.363604;0.67;-1.38;-0.18;0.876297;0.456159;0.031483;160.6;0.0;0.0;20.0;0.0;0.0
3.0;1753876071.900962;19.308924;0.66;-1.29;-0.18;0.875641;0.4547;0.032403;152.8;0.0;0.0;20.2;0.0;0.0
3.0;1753876071.905692;19.304028;0.68;-1.31;-0.13;0.877194;0.455309;0.031082;155.3;0.0;0.0;19.1;0.0;0.0
3.0;1753876071.91042;19.33202;0.71;-1.33;-0.08;0.877504;0.454754;0.030815;146.4;0.0;0.0;19.2;0.0;0.0
3.0;1753876071.91779;19.328125;0.7;-1.33;-0.14;0.876936;0.455548;0.030622;156.0;0.0;0.0;20.0;0.0;0.0
3.0;1753876071.922519;19.344522;0.7;-1.34;-0.2;0.877314;0.455542;0.02958;168.2;0.0;0.0;20.0;0.0;0.0
3.0;1753876071.927248;19.287806;0.7;-1.34;-0.23;0.87644;0.455583;0.030624;154.3;0.0;0.0;20.5;0.0;0.0
3.0;1753876071.931977;19.323114;0.77;-1.33;-0.15;0.87812;0.455578;0.030527;159.4;0.0;0.0;19.0;0.0;0.0
3.0;1753876071.936706;19.315368;0.75;-1.3;-0.14;0.876397;0.455462;0.030943;144.5;0.0;0.0;20.7;0.0;0.0
3.0;1753876071.941435;19.312072;0.75;-1.35;-0.13;0.877517;0.455815;0.03072;153.6;0.0;0.0;20.4;0.0;0.0
3.0;1753876071.946164;19.349755;0.76;-1.35;-0.16;0.877403;0.454953;0.030113;143.7;0.0;0.0;20.9;0.0;0.0
3.0;1753876071.950893;19.315371;0.73;-1.35;-0.17;0.876785;0.45513;0.031193;158.1;0.0;0.0;19.2;0.0;0.0
3.0;1753876071.95741;19.328125;0.77;-1.33;-0.21;0.877546;0.455426;0.030744;156.0;0.0;0.0;20.0;0.0;0.0
3.0;1753876071.963139;19.289062;0.63;-1.33;-0.14;0.875228;0.454084;0.031964;179.0;0.0;0.0;22.0;0.0;0.0
3.0;1753876071.96769;19.289062;0.77;-1.33;-0.14;0.876936;0.45506;0.030134;179.0;0.0;0.0;22.0;0.0;0.0
3.0;1753876071.970999;19.289062;0.84;-1.33;-0.21;0.876936;0.45506;0.030134;179.0;0.0;0.0;22.0;0.0;0.0
3.0;1753876071.975577;19.289062;0.7;-1.4;-0.14;0.876204;0.455182;0.032574;179.0;0.0;0.0;22.0;0.0;0.0
3.0;1753876071.983067;19.28125;0.77;-1.26;-0.14;0.877058;0.454084;0.031598;179.0;0.0;0.0;22.0;0.0;0.0
3.0;1753876071.985162;19.28125;0.77;-1.4;-0.28;0.877058;0.454084;0.031598;179.0;0.0;0.0;22.0;0.0;0.0
3.0;1753876071.98962;19.28125;0.77;-1.33;-0.21;0.875472;0.45262;0.03233;179.0;0.0;0.0;22.0;0.0;0.0
3.0;1753876071.994349;19.280068;0.84;-1.34;-0.18;0.875739;0.45267;0.032262;174.5;0.0;0.0;21.9;0.0;0.0
3.0;1753876071.999074;19.289062;0.84;-1.4;-0.14;0.875716;0.454206;0.03172;167.0;0.0;0.0;25.0;0.0;0.0
3.0;1753876072.003803;19.259073;0.82;-1.37;-0.13;0.875827;0.452278;0.032137;160.6;0.0;0.0;23.9;0.0;0.0
3.0;1753876072.008532;19.291581;0.81;-1.38;-0.14;0.875538;0.454152;0.031515;175.6;0.0;0.0;25.2;0.0;0.0
3.0;1753876072.013261;19.275401;0.78;-1.49;-0.19;0.875607;0.453817;0.031415;156.9;0.0;0.0;23.9;0.0;0.0
3.0;1753876072.01799;19.290934;0.84;-1.31;-0.13;0.876681;0.45331;0.032509;172.0;0.0;0.0;21.8;0.0;0.0
3.0;1753876072.022719;19.260972;0.79;-1.4;-0.19;0.874411;0.455719;0.031954;170.7;0.0;0.0;25.9;0.0;0.0
3.0;1753876072.027448;19.303825;0.78;-1.33;-0.1;0.876227;0.453639;0.031209;162.2;0.0;0.0;27.0;0.0;0.0
3.0;1753876072.032177;19.2815;0.89;-1.43;-0.15;0.874585;0.454691;0.032599;168.8;0.0;0.0;25.4;0.0;0.0
3.0;1753876072.036906;19.263248;0.8;-1.31;-0.1;0.875484;0.453108;0.032355;160.4;0.0;0.0;24.9;0.0;0.0
3.0;1753876072.041635;19.300067;0.76;-1.41;-0.18;0.875626;0.456078;0.032582;166.2;0.0;0.0;23.1;0.0;0.0
3.0;1753876072.046364;19.280459;0.7;-1.33;-0.14;0.876642;0.454816;0.032365;170.7;0.0;0.0;23.9;0.0;0.0
3.0;1753876072.051093;19.277244;0.79;-1.38;-0.17;0.876471;0.453218;0.030541;167.1;0.0;0.0;24.5;0.0;0.0
3.0;1753876072.055822;19.301722;0.89;-1.52;-0.17;0.875826;0.454995;0.031787;162.3;0.0;0.0;24.3;0.0;0.0
3.0;1753876072.060552;19.29939;0.78;-1.37;-0.12;0.876001;0.454569;0.032557;172.2;0.0;0.0;26.6;0.0;0.0
3.0;1753876072.06528;19.309813;0.86;-1.35;-0.13;0.875479;0.454384;0.032447;169.1;0.0;0.0;25.8;0.0;0.0
3.0;1753876072.07001;19.287734;0.75;-1.25;-0.14;0.875485;0.455072;0.031721;164.6;0.0;0.0;25.2;0.0;0.0
3.0;1753876072.074738;19.283726;0.77;-1.41;-0.1;0.875765;0.453328;0.031024;168.6;0.0;0.0;25.6;0.0;0.0
3.0;1753876072.079468;19.281562;0.76;-1.35;-0.19;0.876506;0.453588;0.031459;168.5;0.0;0.0;25.3;0.0;0.0
3.0;1753876072.084196;19.261197;0.77;-1.31;-0.22;0.87579;0.454829;0.030786;163.0;0.0;0.0;23.0;0.0;0.0
3.0;1753876072.088926;19.273315;0.82;-1.37;-0.15;0.875994;0.453572;0.032156;168.6;0.0;0.0;25.4;0.0;0.0
3.0;1753876072.093655;19.276105;0.69;-1.41;-0.1;0.876109;0.45449;0.030182;161.4;0.0;0.0;25.2;0.0;0.0
3.0;1753876072.098384;19.297686;0.83;-1.33;-0.15;0.875178;0.453015;0.031036;170.9;0.0;0.0;24.7;0.0;0.0
3.0;1753876072.103113;19.279808;0.72;-1.18;-0.23;0.87477;0.453999;0.031865;166.0;0.0;0.0;24.8;0.0;0.0
3.0;1753876072.107842;19.295534;0.8;-1.29;-0.09;0.875123;0.455649;0.031672;160.9;0.0;0.0;25.5;0.0;0.0
3.0;1753876072.112571;19.302118;0.72;-1.34;-0.11;0.875579;0.455048;0.031468;169.9;0.0;0.0;24.5;0.0;0.0
3.0;1753876072.1173;19.286517;0.79;-1.48;-0.22;0.874393;0.452948;0.031162;172.7;0.0;0.0;25.2;0.0;0.0
3.0;1753876072.122029;19.319017;0.81;-1.29;-0.21;0.876593;0.453309;0.03208;169.9;0.0;0.0;26.5;0.0;0.0
3.0;1753876072.126758;19.304994;0.74;-1.42;-0.08;0.875982;0.453283;0.031979;165.7;0.0;0.0;25.7;0.0;0.0
3.0;1753876072.131487;19.265257;0.74;-1.43;-0.12;0.875107;0.453497;0.031463;167.3;0.0;0.0;21.6;0.0;0.0
3.0;1753876072.136216;19.287676;0.84;-1.33;-0.12;0.87604;0.454047;0.030887;166.3;0.0;0.0;24.7;0.0;0.0
3.0;1753876072.140945;19.301594;0.73;-1.43;-0.15;0.87633;0.453548;0.031733;161.3;0.0;0.0;25.1;0.0;0.0
3.0;1753876072.145674;19.313712;0.82;-1.29;-0.09;0.875507;0.453532;0.03214;167.9;0.0;0.0;27.2;0.0;0.0
3.0;1753876072.150403;19.294584;0.79;-1.34;-0.13;0.876103;0.454561;0.031942;167.2;0.0;0.0;25.2;0.0;0.0
3.0;1753876072.155132;19.270339;0.69;-1.35;-0.17;0.875498;0.454765;0.031657;162.2;0.0;0.0;24.4;0.0;0.0
3.0;1753876072.159861;19.285424;0.79;-1.36;-0.17;0.87593;0.453328;0.031338;164.8;0.0;0.0;27.2;0.0;0.0
3.0;1753876072.16459;19.288654;0.76;-1.32;-0.19;0.875806;0.45566;0.032001;164.9;0.0;0.0;26.4;0.0;0.0
3.0;1753876072.169319;19.281411;0.67;-1.34;-0.1;0.876686;0.453902;0.032362;165.9;0.0;0.0;24.7;0.0;0.0
3.0;1753876072.174048;19.290609;0.81;-1.41;-0.17;0.877094;0.452046;0.030981;171.1;0.0;0.0;24.7;0.0;0.0
3.0;1753876072.178777;19.295648;0.66;-1.33;-0.12;0.875864;0.455306;0.031117;174.9;0.0;0.0;26.2;0.0;0.0
3.0;1753876072.183506;19.277697;0.75;-1.32;-0.24;0.875559;0.454554;0.032245;164.5;0.0;0.0;25.2;0.0;0.0
3.0;1753876072.188235;19.296639;0.77;-1.26;-0.17;0.874769;0.45221;0.030184;161.4;0.0;0.0;25.2;0.0;0.0
3.0;1753876072.192964;19.280858;0.75;-1.29;-0.09;0.875862;0.453367;0.030568;168.7;0.0;0.0;25.4;0.0;0.0
3.0;1753876072.197693;19.268842;0.86;-1.4;-0.2;0.875664;0.454516;0.032097;171.3;0.0;0.0;24.2;0.0;0.0
3.0;1753876072.202422;19.312694;0.74;-1.29;-0.11;0.87579;0.454456;0.031915;168.9;0.0;0.0;24.9;0.0;0.0
3.0;1753876072.207152;19.307771;0.76;-1.21;-0.23;0.875826;0.454845;0.032675;166.0;0.0;0.0;23.4;0.0;0.0
3.0;1753876072.21188;19.297856;0.82;-1.42;-0.23;0.876874;0.45353;0.030427;165.3;0.0;0.0;27.2;0.0;0.0
3.0;1753876072.21661;19.268177;0.79;-1.32;-0.17;0.876115;0.454441;0.031607;170.2;0.0;0.0;24.0;0.0;0.0
3.0;1753876072.221338;19.271139;0.63;-1.38;-0.16;0.876264;0.454577;0.031977;165.7;0.0;0.0;26.6;0.0;0.0
3.0;1753876072.226068;19.290693;0.74;-1.37;-0.17;0.875016;0.453396;0.030922;169.2;0.0;0.0;25.5;0.0;0.0
3.0;1753876072.230796;19.305164;0.78;-1.34;-0.16;0.875742;0.455414;0.031982;163.9;0.0;0.0;27.7;0.0;0.0
3.0;1753876072.235526;19.300132;0.64;-1.41;-0.19;0.875976;0.453566;0.030753;163.8;0.0;0.0;23.9;0.0;0.0
3.0;1753876072.240255;19.301403;0.83;-1.39;-0.19;0.875016;0.455028;0.03152;164.1;0.0;0.0;25.1;0.0;0.0
3.0;1753876072.244984;19.293194;0.71;-1.37;-0.22;0.87587;0.453107;0.032597;164.9;0.0;0.0;24.2;0.0;0.0
3.0;1753876072.249713;19.293783;0.82;-1.39;-0.22;0.875699;0.455136;0.031413;165.2;0.0;0.0;26.1;0.0;0.0
3.0;1753876072.254442;19.276707;0.68;-1.43;-0.2;0.875534;0.453579;0.032149;161.3;0.0;0.0;26.5;0.0;0.0
3.0;1753876072.259171;19.306649;0.66;-1.28;-0.17;0.876124;0.452916;0.030621;167.2;0.0;0.0;25.4;0.0;0.0
3.0;1753876072.2639;19.276065;0.61;-1.42;-0.28;0.875812;0.456139;0.030641;166.6;0.0;0.0;24.4;0.0;0.0
3.0;1753876072.268629;19.299425;0.61;-1.37;-0.17;0.876345;0.453538;0.031615;168.2;0.0;0.0;24.8;0.0;0.0
3.0;1753876072.273358;19.299369;0.69;-1.36;-0.23;0.876825;0.455034;0.031544;172.4;0.0;0.0;21.4;0.0;0.0
3.0;1753876072.278087;19.290334;0.74;-1.35;-0.2;0.875825;0.455033;0.03182;168.2;0.0;0.0;23.8;0.0;0.0
3.0;1753876072.282816;19.296116;0.54;-1.33;-0.23;0.876716;0.453477;0.029939;170.4;0.0;0.0;24.9;0.0;0.0
3.0;1753876072.287545;19.299423;0.69;-1.3;-0.22;0.876672;0.456375;0.031053;169.8;0.0;0.0;24.2;0.0;0.0
3.0;1753876072.292274;19.273829;0.63;-1.36;-0.16;0.875502;0.454396;0.030381;171.9;0.0;0.0;25.1;0.0;0.0
3.0;1753876072.297003;19.295193;0.6;-1.28;-0.25;0.875081;0.452959;0.031984;170.0;0.0;0.0;25.4;0.0;0.0
3.0;1753876072.301732;19.298264;0.79;-1.4;-0.18;0.877006;0.452978;0.030437;164.4;0.0;0.0;26.1;0.0;0.0
3.0;1753876072.306461;19.285663;0.67;-1.29;-0.27;0.877266;0.453766;0.029992;173.9;0.0;0.0;24.8;0.0;0.0
3.0;1753876072.31119;19.28058;0.65;-1.41;-0.2;0.875433;0.454449;0.032678;168.1;0.0;0.0;23.6;0.0;0.0
3.0;1753876072.315919;19.269784;0.65;-1.32;-0.25;0.875665;0.452295;0.032645;171.5;0.0;0.0;24.2;0.0;0.0
3.0;1753876072.320648;19.26583;0.67;-1.4;-0.21;0.876647;0.453569;0.031308;163.4;0.0;0.0;26.5;0.0;0.0
3.0;1753876072.325377;19.289371;0.7;-1.3;-0.16;0.876684;0.452436;0.030357;167.5;0.0;0.0;25.7;0.0;0.0
3.0;1753876072.330106;19.279897;0.73;-1.26;-0.18;0.876139;0.455352;0.030616;161.3;0.0;0.0;22.5;0.0;0.0
3.0;1753876072.334835;19.272725;0.67;-1.37;-0.19;0.875622;0.45539;0.032155;170.6;0.0;0.0;23.2;0.0;0.0
3.0;1753876072.339564;19.283451;0.71;-1.3;-0.24;0.87571;0.453428;0.030321;166.4;0.0;0.0;25.9;0.0;0.0
3.0;1753876072.344293;19.309502;0.57;-1.36;-0.25;0.876142;0.454956;0.030812;166.6;0.0;0.0;24.7;0.0;0.0
3.0;1753876072.349022;19.299714;0.54;-1.43;-0.22;0.875856;0.455194;0.030112;174.5;0.0;0.0;23.1;0.0;0.0
3.0;1753876072.353752;19.283949;0.64;-1.36;-0.15;0.8762;0.453162;0.03146;169.0;0.0;0.0;27.2;0.0;0.0
3.0;1753876072.35848;19.280616;0.68;-1.4;-0.26;0.877199;0.453419;0.030784;165.8;0.0;0.0;25.3;0.0;0.0
3.0;1753876072.364;19.289062;0.63;-1.33;-0.21;0.876204;0.45384;0.03111;167.0;0.0;0.0;25.0;0.0;0.0
3.0;1753876072.36412;19.273438;0.77;-1.26;-0.14;0.876082;0.45628;0.03172;167.0;0.0;0.0;25.0;0.0;0.0
3.0;1753876072.368849;19.289052;0.8;-1.27;-0.12;0.876533;0.45583;0.030537;170.3;0.0;0.0;23.4;0.0;0.0
3.0;1753876072.373578;19.272917;0.8;-1.27;-0.1;0.875826;0.456545;0.032655;159.8;0.0;0.0;24.5;0.0;0.0
3.0;1753876072.378307;19.271157;0.77;-1.35;-0.12;0.875351;0.455882;0.030905;176.0;0.0;0.0;24.5;0.0;0.0
3.0;1753876072.383036;19.28028;0.75;-1.31;-0.14;0.875995;0.456259;0.031823;166.4;0.0;0.0;24.1;0.0;0.0
3.0;1753876072.387765;19.277505;0.76;-1.25;-0.03;0.876388;0.455262;0.032259;167.0;0.0;0.0;26.4;0.0;0.0
3.0;1753876072.392494;19.263298;0.74;-1.26;-0.04;0.875894;0.45526;0.030867;164.1;0.0;0.0;28.6;0.0;0.0
3.0;1753876072.397223;19.266713;0.83;-1.23;-0.19;0.876235;0.454939;0.031565;168.0;0.0;0.0;26.2;0.0;0.0
3.0;1753876072.401952;19.289473;0.76;-1.25;-0.05;0.875779;0.455816;0.030475;166.9;0.0;0.0;26.3;0.0;0.0
3.0;1753876072.406681;19.263072;0.67;-1.19;-0.1;0.877589;0.454243;0.028931;171.5;0.0;0.0;22.5;0.0;0.0
3.0;1753876072.41104;19.273438;0.77;-1.19;-0.07;0.876204;0.45445;0.030744;167.0;0.0;0.0;25.0;0.0;0.0
3.0;1753876072.415769;19.266915;0.7;-1.11;-0.05;0.87599;0.453569;0.031366;154.7;0.0;0.0;27.5;0.0;0.0
3.0;1753876072.420498;19.270731;0.71;-1.21;-0.09;0.876359;0.455437;0.031348;168.1;0.0;0.0;27.4;0.0;0.0
3.0;1753876072.425227;19.250808;0.77;-1.22;-0.11;0.876164;0.455366;0.030898;159.4;0.0;0.0;25.2;0.0;0.0
3.0;1753876072.429956;19.262738;0.76;-1.18;-0.08;0.877068;0.455015;0.030798;157.2;0.0;0.0;32.7;0.0;0.0
3.0;1753876072.434685;19.275279;0.78;-1.13;-0.11;0.875985;0.454793;0.0313;165.3;0.0;0.0;20.4;0.0;0.0
3.0;1753876072.439414;19.2516;0.76;-1.12;-0.14;0.87661;0.452856;0.029344;176.4;0.0;0.0;28.0;0.0;0.0
3.0;1753876072.444143;19.278756;0.78;-1.2;-0.16;0.875283;0.455012;0.031194;162.1;0.0;0.0;34.7;0.0;0.0
3.0;1753876072.448872;19.262726;0.85;-1.23;-0.18;0.877521;0.454598;0.031947;168.8;0.0;0.0;36.5;0.0;0.0
3.0;1753876072.453601;19.254563;0.78;-1.3;-0.1;0.876679;0.454354;0.029645;167.1;0.0;0.0;25.9;0.0;0.0
3.0;1753876072.45833;19.272653;0.73;-1.2;-0.11;0.876398;0.455818;0.031057;175.5;0.0;0.0;38.6;0.0;0.0
3.0;1753876072.46306;19.269962;0.73;-1.22;-0.2;0.876562;0.455656;0.032733;144.7;0.0;0.0;41.2;0.0;0.0
3.0;1753876072.467788;19.275353;0.72;-1.27;-0.11;0.876652;0.455335;0.031553;178.0;0.0;0.0;34.3;0.0;0.0
3.0;1753876072.472518;19.280758;0.73;-1.33;-0.11;0.877088;0.455738;0.033048;161.1;0.0;0.0;40.9;0.0;0.0
3.0;1753876072.47769;19.273438;0.77;-1.26;-0.14;0.877302;0.455914;0.031354;166.0;0.0;0.0;38.0;0.0;0.0
3.0;1753876072.482419;19.291742;0.63;-1.3;-0.14;0.876759;0.454802;0.032158;169.3;0.0;0.0;37.6;0.0;0.0
3.0;1753876072.487148;19.291726;0.71;-1.27;-0.26;0.876861;0.455965;0.030438;165.8;0.0;0.0;35.9;0.0;0.0
3.0;1753876072.491877;19.280653;0.74;-1.22;-0.11;0.876339;0.454836;0.032124;167.0;0.0;0.0;40.8;0.0;0.0
3.0;1753876072.496606;19.285678;0.67;-1.21;-0.14;0.877871;0.455321;0.03259;164.8;0.0;0.0;45.9;0.0;0.0
3.0;1753876072.50459;19.273438;0.77;-1.19;-0.14;0.876692;0.454328;0.031354;166.0;0.0;0.0;38.0;0.0;0.0
3.0;1753876072.509319;19.279496;0.72;-1.37;-0.18;0.877292;0.454343;0.031141;167.2;0.0;0.0;39.9;0.0;0.0
3.0;1753876072.514048;19.243638;0.8;-1.18;-0.15;0.876938;0.455075;0.03028;161.6;0.0;0.0;34.7;0.0;0.0
3.0;1753876072.518777;19.266633;0.74;-1.21;-0.13;0.876863;0.454174;0.030681;166.3;0.0;0.0;34.5;0.0;0.0
3.0;1753876072.523506;19.271938;0.73;-1.21;-0.09;0.876496;0.453752;0.031236;164.3;0.0;0.0;34.5;0.0;0.0
3.0;1753876072.528235;19.271636;0.82;-1.17;-0.08;0.876365;0.454651;0.029874;158.7;0.0;0.0;51.7;0.0;0.0
3.0;1753876072.532964;19.298483;0.76;-1.18;-0.06;0.876985;0.45429;0.031254;162.9;0.0;0.0;43.9;0.0;0.0
3.0;1753876072.537693;19.258068;0.82;-1.23;-0.15;0.877164;0.454356;0.029967;166.8;0.0;0.0;38.5;0.0;0.0
3.0;1753876072.542422;19.269871;0.76;-1.14;-0.19;0.877906;0.454287;0.031827;160.4;0.0;0.0;40.8;0.0;0.0
3.0;1753876072.547151;19.242486;0.82;-1.26;-0.21;0.877589;0.454549;0.031152;161.7;0.0;0.0;39.5;0.0;0.0
3.0;1753876072.55188;19.273783;0.89;-1.13;-0.07;0.876427;0.454074;0.030542;162.4;0.0;0.0;40.8;0.0;0.0
3.0;1753876072.55661;19.265118;0.62;-1.22;-0.16;0.877123;0.45472;0.030976;168.7;0.0;0.0;34.4;0.0;0.0
3.0;1753876072.561338;19.253296;0.76;-1.32;-0.26;0.876012;0.454539;0.032543;171.9;0.0;0.0;35.8;0.0;0.0
3.0;1753876072.566068;19.248965;0.74;-1.27;-0.21;0.875649;0.455279;0.032067;163.2;0.0;0.0;30.5;0.0;0.0
3.0;1753876072.570796;19.271946;0.74;-1.28;-0.19;0.876353;0.45505;0.032151;166.9;0.0;0.0;41.9;0.0;0.0
3.0;1753876072.575526;19.252739;0.84;-1.23;-0.09;0.875874;0.45476;0.030736;167.6;0.0;0.0;39.6;0.0;0.0
3.0;1753876072.580254;19.276345;0.75;-1.24;-0.2;0.876685;0.45363;0.03202;162.9;0.0;0.0;38.3;0.0;0.0
3.0;1753876072.584984;19.259887;0.72;-1.33;-0.16;0.875458;0.455602;0.032351;174.8;0.0;0.0;37.2;0.0;0.0
3.0;1753876072.59234;19.261719;0.77;-1.26;-0.14;0.876204;0.454816;0.031598;166.0;0.0;0.0;38.0;0.0;0.0
3.0;1753876072.59756;19.261719;0.7;-1.26;-0.14;0.875838;0.45628;0.031964;166.0;0.0;0.0;38.0;0.0;0.0
3.0;1753876072.602289;19.301043;0.74;-1.11;-0.15;0.876517;0.456324;0.031305;168.3;0.0;0.0;37.0;0.0;0.0
3.0;1753876072.607018;19.271372;0.68;-1.25;0.01;0.875664;0.457121;0.031604;161.0;0.0;0.0;30.7;0.0;0.0
3.0;1753876072.611747;19.266886;0.63;-1.32;-0.11;0.876351;0.457455;0.032081;165.8;0.0;0.0;38.8;0.0;0.0
3.0;1753876072.616476;19.264216;0.7;-1.28;-0.22;0.876603;0.455353;0.031241;162.6;0.0;0.0;27.0;0.0;0.0
3.0;1753876072.621205;19.276822;0.65;-1.28;-0.18;0.87576;0.455722;0.030518;171.2;0.0;0.0;43.3;0.0;0.0
3.0;1753876072.625934;19.263722;0.7;-1.24;-0.29;0.875587;0.455991;0.031286;158.1;0.0;0.0;35.7;0.0;0.0
3.0;1753876072.630663;19.258357;0.66;-1.23;-0.15;0.876274;0.454127;0.033006;166.2;0.0;0.0;41.4;0.0;0.0
3.0;1753876072.635392;19.267934;0.64;-1.23;-0.12;0.876572;0.454524;0.031082;160.8;0.0;0.0;45.9;0.0;0.0
3.0;1753876072.640121;19.267518;0.67;-1.27;-0.28;0.876464;0.456196;0.030528;163.4;0.0;0.0;39.0;0.0;0.0
3.0;1753876072.64485;19.246701;0.62;-1.17;-0.16;0.876774;0.455957;0.030545;162.1;0.0;0.0;35.9;0.0;0.0
3.0;1753876072.65061;19.261719;0.7;-1.26;-0.21;0.876448;0.45506;0.031232;166.0;0.0;0.0;38.0;0.0;0.0
3.0;1753876072.655339;19.275114;0.81;-1.31;-0.12;0.875551;0.45561;0.031378;169.1;0.0;0.0;35.4;0.0;0.0
3.0;1753876072.660068;19.235624;0.71;-1.32;-0.16;0.875587;0.455035;0.030751;170.7;0.0;0.0;39.4;0.0;0.0
3.0;1753876072.664797;19.249584;0.78;-1.26;-0.17;0.875601;0.454981;0.03101;165.7;0.0;0.0;40.2;0.0;0.0
3.0;1753876072.669526;19.25569;0.66;-1.37;-0.19;0.876885;0.456364;0.029991;156.9;0.0;0.0;28.3;0.0;0.0
3.0;1753876072.674255;19.240202;0.76;-1.3;-0.07;0.875452;0.458616;0.031117;166.7;0.0;0.0;24.3;0.0;0.0
3.0;1753876072.678984;19.250083;0.77;-1.34;-0.19;0.875065;0.455669;0.030944;172.1;0.0;0.0;45.9;0.0;0.0
3.0;1753876072.683713;19.258291;0.8;-1.35;-0.24;0.876088;0.456222;0.031011;166.3;0.0;0.0;31.8;0.0;0.0
3.0;1753876072.69126;19.261719;0.77;-1.26;-0.21;0.875594;0.456158;0.030378;166.0;0.0;0.0;38.0;0.0;0.0
3.0;1753876072.695989;19.27134;0.77;-1.26;-0.22;0.876459;0.457012;0.0311;176.5;0.0;0.0;23.5;0.0;0.0
3.0;1753876072.700718;19.244058;0.74;-1.24;-0.3;0.876357;0.454854;0.031189;165.9;0.0;0.0;37.1;0.0;0.0
3.0;1753876072.705447;19.243744;0.72;-1.33;-0.32;0.876087;0.457535;0.030984;171.1;0.0;0.0;33.0;0.0;0.0
3.0;1753876072.710176;19.245889;0.74;-1.29;-0.23;0.876242;0.455797;0.031236;171.6;0.0;0.0;48.8;0.0;0.0
3.0;1753876072.714905;19.233364;0.8;-1.3;-0.19;0.876803;0.456034;0.030631;166.0;0.0;0.0;39.6;0.0;0.0
3.0;1753876072.719634;19.2583;0.76;-1.35;-0.2;0.876831;0.455704;0.031767;165.3;0.0;0.0;48.7;0.0;0.0
3.0;1753876072.724363;19.268336;0.81;-1.43;-0.38;0.877558;0.454252;0.0327;165.9;0.0;0.0;35.6;0.0;0.0
3.0;1753876072.729092;19.261527;0.84;-1.32;-0.21;0.876536;0.451842;0.033089;163.2;0.0;0.0;40.4;0.0;0.0
3.0;1753876072.733822;19.257812;0.77;-1.35;-0.17;0.878023;0.453506;0.03238;160.0;0.0;0.0;40.8;0.0;0.0
3.0;1753876072.73843;19.257812;0.77;-1.33;-0.21;0.87718;0.454206;0.03233;166.0;0.0;0.0;38.0;0.0;0.0
3.0;1753876072.743159;19.236164;0.8;-1.34;-0.17;0.876757;0.455673;0.031816;165.5;0.0;0.0;37.5;0.0;0.0
3.0;1753876072.747888;19.259316;0.74;-1.39;-0.24;0.87655;0.453556;0.032852;169.6;0.0;0.0;42.8;0.0;0.0
3.0;1753876072.752617;19.265118;0.72;-1.34;-0.27;0.877031;0.453449;0.032253;170.4;0.0;0.0;45.1;0.0;0.0
3.0;1753876072.757346;19.24448;0.77;-1.31;-0.3;0.877897;0.454821;0.033254;164.6;0.0;0.0;35.1;0.0;0.0
3.0;1753876072.762075;19.248169;0.63;-1.44;-0.18;0.877468;0.454129;0.031564;163.9;0.0;0.0;49.1;0.0;0.0
3.0;1753876072.766804;19.249169;0.7;-1.31;-0.24;0.876214;0.454643;0.03113;161.7;0.0;0.0;33.1;0.0;0.0
3.0;1753876072.771533;19.256408;0.72;-1.3;-0.2;0.876908;0.455119;0.033497;173.2;0.0;0.0;41.4;0.0;0.0
3.0;1753876072.776262;19.239944;0.63;-1.46;-0.27;0.877539;0.45455;0.03262;164.3;0.0;0.0;43.0;0.0;0.0
3.0;1753876072.780991;19.230648;0.68;-1.42;-0.2;0.875753;0.453844;0.032343;165.0;0.0;0.0;39.2;0.0;0.0
3.0;1753876072.78572;19.252869;0.7;-1.31;-0.22;0.87596;0.454486;0.031819;165.0;0.0;0.0;33.8;0.0;0.0
3.0;1753876072.79045;19.275682;0.69;-1.38;-0.19;0.876021;0.457695;0.033016;161.6;0.0;0.0;46.7;0.0;0.0
3.0;1753876072.79691;19.257812;0.7;-1.33;-0.21;0.875838;0.454816;0.032208;166.0;0.0;0.0;38.0;0.0;0.0
3.0;1753876072.801639;19.254692;0.67;-1.32;-0.16;0.876151;0.455795;0.032759;162.8;0.0;0.0;30.9;0.0;0.0
3.0;1753876072.806368;19.246226;0.66;-1.36;-0.17;0.876215;0.454369;0.031817;169.4;0.0;0.0;44.8;0.0;0.0
3.0;1753876072.811097;19.26441;0.61;-1.25;-0.18;0.876214;0.455506;0.030607;161.9;0.0;0.0;30.9;0.0;0.0
3.0;1753876072.815826;19.266049;0.69;-1.21;-0.21;0.875755;0.454469;0.031026;169.7;0.0;0.0;44.3;0.0;0.0
3.0;1753876072.820555;19.261738;0.7;-1.27;-0.25;0.876845;0.456389;0.029731;166.5;0.0;0.0;32.5;0.0;0.0
3.0;1753876072.825284;19.270889;0.53;-1.28;-0.16;0.876075;0.455618;0.030942;166.0;0.0;0.0;29.7;0.0;0.0
3.0;1753876072.83291;19.257812;0.63;-1.26;-0.21;0.876326;0.455792;0.030622;166.0;0.0;0.0;38.0;0.0;0.0
3.0;1753876072.837639;19.274068;0.61;-1.18;-0.2;0.875976;0.454359;0.03208;166.0;0.0;0.0;32.3;0.0;0.0
3.0;1753876072.842368;19.269226;0.69;-1.31;-0.23;0.876229;0.455051;0.031255;166.0;0.0;0.0;45.9;0.0;0.0
3.0;1753876072.847097;19.25486;0.65;-1.25;-0.17;0.877289;0.454266;0.029743;165.3;0.0;0.0;41.0;0.0;0.0
3.0;1753876072.851826;19.305966;0.63;-1.29;-0.21;0.876714;0.454997;0.030626;165.9;0.0;0.0;37.6;0.0;0.0
3.0;1753876072.856555;19.266781;0.65;-1.23;-0.14;0.876691;0.453017;0.029984;167.1;0.0;0.0;49.8;0.0;0.0
3.0;1753876072.861284;19.251987;0.65;-1.32;-0.18;0.87669;0.453963;0.028612;166.9;0.0;0.0;29.5;0.0;0.0
3.0;1753876072.866013;19.273441;0.68;-1.37;-0.19;0.876292;0.453576;0.030823;165.7;0.0;0.0;26.6;0.0;0.0
3.0;1753876072.870742;19.254487;0.66;-1.39;-0.08;0.876783;0.453574;0.029401;165.9;0.0;0.0;44.0;0.0;0.0
3.0;1753876072.87891;19.257812;0.7;-1.33;-0.14;0.876814;0.454206;0.030012;166.0;0.0;0.0;38.0;0.0;0.0
3.0;1753876072.883639;19.259157;0.68;-1.42;-0.16;0.87646;0.45421;0.029282;167.4;0.0;0.0;31.9;0.0;0.0
3.0;1753876072.888368;19.261702;0.71;-1.39;-0.18;0.877278;0.454163;0.029839;174.1;0.0;0.0;31.2;0.0;0.0
3.0;1753876072.893097;19.288749;0.67;-1.36;-0.22;0.877052;0.455038;0.031073;163.3;0.0;0.0;36.5;0.0;0.0
3.0;1753876072.897826;19.254942;0.76;-1.3;-0.16;0.875965;0.454922;0.030943;178.1;0.0;0.0;49.2;0.0;0.0
3.0;1753876072.902555;19.273005;0.69;-1.35;-0.15;0.877332;0.453767;0.029131;171.8;0.0;0.0;21.6;0.0;0.0
3.0;1753876072.907284;19.288967;0.62;-1.38;-0.12;0.87673;0.454626;0.030951;169.7;0.0;0.0;41.9;0.0;0.0
3.0;1753876072.912013;19.256909;0.74;-1.29;-0.12;0.876924;0.45432;0.029987;175.2;0.0;0.0;27.3;0.0;0.0
3.0;1753876072.916742;19.247393;0.66;-1.29;-0.18;0.876434;0.454616;0.030365;173.7;0.0;0.0;18.2;0.0;0.0
3.0;1753876072.921471;19.302239;0.62;-1.34;-0.21;0.876944;0.454944;0.029652;180.9;0.0;0.0;36.1;0.0;0.0
3.0;1753876072.9262;19.27817;0.67;-1.37;-0.18;0.876748;0.454196;0.031579;172.9;0.0;0.0;38.8;0.0;0.0
3.0;1753876072.93093;19.279576;0.63;-1.36;-0.27;0.877599;0.454638;0.031072;183.1;0.0;0.0;30.8;0.0;0.0
3.0;1753876072.935658;19.304322;0.6;-1.42;-0.26;0.876354;0.455212;0.032241;177.2;0.0;0.0;20.5;0.0;0.0
3.0;1753876072.940388;19.264876;0.8;-1.28;-0.15;0.876462;0.454726;0.030115;184.0;0.0;0.0;22.9;0.0;0.0
3.0;1753876072.945116;19.275241;0.74;-1.33;-0.28;0.877136;0.455111;0.030602;175.9;0.0;0.0;22.4;0.0;0.0
3.0;1753876072.949846;19.29271;0.71;-1.36;-0.27;0.877124;0.455255;0.030862;178.9;0.0;0.0;20.3;0.0;0.0
3.0;1753876072.954574;19.274499;0.74;-1.35;-0.32;0.876745;0.455324;0.032763;184.0;0.0;0.0;14.7;0.0;0.0
3.0;1753876072.959304;19.319603;0.72;-1.38;-0.23;0.877043;0.455165;0.030957;182.0;0.0;0.0;15.8;0.0;0.0
3.0;1753876072.96568;19.285156;0.7;-1.33;-0.28;0.87718;0.455548;0.031354;186.0;0.0;0.0;19.0;0.0;0.0
3.0;1753876072.97197;19.285156;0.7;-1.4;-0.21;0.87596;0.45384;0.031232;186.0;0.0;0.0;19.0;0.0;0.0
3.0;1753876072.973057;19.28125;0.7;-1.26;-0.21;0.876692;0.454572;0.030134;154.0;0.0;0.0;28.0;0.0;0.0
3.0;1753876072.977046;19.28125;0.7;-1.26;-0.28;0.876936;0.454816;0.030622;154.0;0.0;0.0;28.0;0.0;0.0
3.0;1753876072.981775;19.235896;0.56;-1.27;-0.19;0.876367;0.455543;0.031146;178.2;0.0;0.0;21.5;0.0;0.0
3.0;1753876072.98911;19.28125;0.7;-1.26;-0.21;0.876082;0.454938;0.031476;171.0;0.0;0.0;19.0;0.0;0.0
3.0;1753876072.991375;19.296875;0.7;-1.26;-0.21;0.87718;0.45506;0.030866;171.0;0.0;0.0;19.0;0.0;0.0
3.0;1753876072.995942;19.296875;0.84;-1.33;-0.35;0.87779;0.455304;0.031964;171.0;0.0;0.0;19.0;0.0;0.0
3.0;1753876073.000671;19.285959;0.9;-1.33;-0.33;0.878356;0.455425;0.033071;197.9;0.0;0.0;21.2;0.0;0.0
3.0;1753876073.0054;19.246697;0.87;-1.36;-0.4;0.87912;0.455124;0.030827;171.9;0.0;0.0;15.1;0.0;0.0
3.0;1753876073.010129;19.321824;0.85;-1.37;-0.33;0.8783;0.454658;0.031612;166.7;0.0;0.0;22.2;0.0;0.0
3.0;1753876073.014858;19.292549;0.84;-1.31;-0.37;0.876822;0.455239;0.032485;177.8;0.0;0.0;13.4;0.0;0.0
3.0;1753876073.019587;19.254272;0.87;-1.31;-0.43;0.878248;0.454405;0.032392;172.0;0.0;0.0;21.4;0.0;0.0
3.0;1753876073.024316;19.366719;0.82;-1.33;-0.36;0.876881;0.455489;0.031719;171.8;0.0;0.0;23.1;0.0;0.0
3.0;1753876073.029045;19.316779;0.81;-1.29;-0.39;0.877662;0.455594;0.031527;173.9;0.0;0.0;19.8;0.0;0.0
3.0;1753876073.033774;19.267867;0.84;-1.25;-0.27;0.878186;0.454801;0.03287;172.8;0.0;0.0;17.8;0.0;0.0
3.0;1753876073.038504;19.290851;0.74;-1.29;-0.31;0.876842;0.454725;0.033153;180.4;0.0;0.0;11.2;0.0;0.0
3.0;1753876073.043232;19.332122;0.81;-1.38;-0.37;0.877977;0.45527;0.031585;166.4;0.0;0.0;19.9;0.0;0.0
3.0;1753876073.047962;19.297661;0.86;-1.29;-0.32;0.877652;0.454837;0.030572;167.4;0.0;0.0;15.3;0.0;0.0
3.0;1753876073.05269;19.298377;0.84;-1.27;-0.21;0.877657;0.455005;0.032659;151.3;0.0;0.0;19.9;0.0;0.0
3.0;1753876073.05742;19.291802;0.78;-1.36;-0.22;0.877278;0.455566;0.032208;172.1;0.0;0.0;21.7;0.0;0.0
3.0;1753876073.062148;19.31424;0.78;-1.35;-0.42;0.877516;0.455521;0.032353;149.1;0.0;0.0;16.8;0.0;0.0
3.0;1753876073.066878;19.2901;0.86;-1.32;-0.33;0.878527;0.454495;0.031903;171.0;0.0;0.0;21.5;0.0;0.0
3.0;1753876073.071607;19.293566;0.77;-1.31;-0.45;0.878771;0.455093;0.032773;165.3;0.0;0.0;25.2;0.0;0.0
3.0;1753876073.076336;19.281158;0.82;-1.32;-0.32;0.878449;0.455087;0.032649;182.2;0.0;0.0;18.0;0.0;0.0
3.0;1753876073.081065;19.301823;0.78;-1.35;-0.41;0.876715;0.454157;0.032134;178.1;0.0;0.0;21.5;0.0;0.0
3.0;1753876073.085794;19.296452;0.81;-1.29;-0.41;0.877966;0.454998;0.031895;156.6;0.0;0.0;15.3;0.0;0.0
3.0;1753876073.090523;19.265919;0.88;-1.36;-0.41;0.877388;0.454162;0.032246;162.8;0.0;0.0;16.4;0.0;0.0
3.0;1753876073.095252;19.306063;0.81;-1.35;-0.31;0.876334;0.454282;0.031968;177.8;0.0;0.0;14.1;0.0;0.0
3.0;1753876073.099981;19.331827;0.8;-1.39;-0.34;0.877423;0.453967;0.031895;172.8;0.0;0.0;18.7;0.0;0.0
3.0;1753876073.10471;19.300705;0.87;-1.36;-0.37;0.876144;0.455426;0.032385;162.3;0.0;0.0;18.7;0.0;0.0
3.0;1753876073.109439;19.281072;0.85;-1.33;-0.31;0.877651;0.455589;0.032338;171.3;0.0;0.0;18.4;0.0;0.0
3.0;1753876073.114168;19.289386;0.87;-1.32;-0.44;0.877935;0.454774;0.03087;173.0;0.0;0.0;19.4;0.0;0.0
3.0;1753876073.118897;19.29438;0.81;-1.29;-0.27;0.877514;0.45394;0.031151;170.1;0.0;0.0;24.9;0.0;0.0
3.0;1753876073.123626;19.327551;0.89;-1.39;-0.31;0.87869;0.455499;0.031364;171.8;0.0;0.0;27.3;0.0;0.0
3.0;1753876073.128355;19.304024;0.76;-1.41;-0.29;0.878518;0.45493;0.030876;164.7;0.0;0.0;21.7;0.0;0.0
3.0;1753876073.133084;19.294102;0.85;-1.32;-0.34;0.877326;0.4561;0.031722;166.4;0.0;0.0;21.6;0.0;0.0
3.0;1753876073.137813;19.313252;0.92;-1.28;-0.25;0.876829;0.454525;0.031765;182.3;0.0;0.0;13.1;0.0;0.0
3.0;1753876073.142542;19.342145;0.79;-1.36;-0.25;0.87762;0.454634;0.031147;180.0;0.0;0.0;17.4;0.0;0.0
3.0;1753876073.147271;19.301031;0.74;-1.41;-0.3;0.877322;0.455659;0.031914;172.3;0.0;0.0;17.4;0.0;0.0
3.0;1753876073.152;19.27179;0.8;-1.29;-0.31;0.878028;0.455189;0.032701;152.3;0.0;0.0;20.0;0.0;0.0
3.0;1753876073.156729;19.270229;0.88;-1.31;-0.36;0.87818;0.454839;0.032599;166.1;0.0;0.0;21.2;0.0;0.0
3.0;1753876073.161458;19.335294;0.8;-1.34;-0.3;0.877441;0.453835;0.031459;178.2;0.0;0.0;17.9;0.0;0.0
3.0;1753876073.166187;19.341383;0.83;-1.33;-0.31;0.877372;0.454912;0.031116;171.9;0.0;0.0;26.0;0.0;0.0
3.0;1753876073.170916;19.334581;0.82;-1.34;-0.39;0.878204;0.454619;0.031599;164.3;0.0;0.0;25.4;0.0;0.0
3.0;1753876073.175645;19.288888;0.81;-1.23;-0.29;0.877405;0.454229;0.032153;159.9;0.0;0.0;18.1;0.0;0.0
3.0;1753876073.180374;19.290635;0.84;-1.36;-0.36;0.879388;0.455083;0.030775;174.7;0.0;0.0;18.2;0.0;0.0
3.0;1753876073.185104;19.273862;0.86;-1.29;-0.41;0.877368;0.455588;0.03307;166.9;0.0;0.0;18.3;0.0;0.0
3.0;1753876073.189832;19.268286;0.86;-1.34;-0.38;0.877749;0.454969;0.030743;173.6;0.0;0.0;25.7;0.0;0.0
3.0;1753876073.194562;19.298749;0.74;-1.37;-0.31;0.875681;0.454224;0.031859;198.6;0.0;0.0;22.1;0.0;0.0
3.0;1753876073.19929;19.317059;0.74;-1.32;-0.32;0.877179;0.453834;0.031015;171.7;0.0;0.0;12.3;0.0;0.0
3.0;1753876073.20402;19.295776;0.72;-1.33;-0.23;0.878398;0.453895;0.031195;175.7;0.0;0.0;19.4;0.0;0.0
3.0;1753876073.208748;19.292622;0.76;-1.32;-0.41;0.878436;0.454788;0.031875;178.9;0.0;0.0;16.3;0.0;0.0
3.0;1753876073.213478;19.264042;0.7;-1.35;-0.36;0.87764;0.455544;0.033042;160.2;0.0;0.0;14.2;0.0;0.0
3.0;1753876073.218207;19.304749;0.83;-1.27;-0.27;0.877544;0.453852;0.031402;158.8;0.0;0.0;15.5;0.0;0.0
3.0;1753876073.222936;19.309978;0.72;-1.37;-0.24;0.878287;0.455021;0.032089;150.0;0.0;0.0;20.0;0.0;0.0
3.0;1753876073.227665;19.304119;0.79;-1.26;-0.35;0.87842;0.455521;0.032039;170.1;0.0;0.0;21.8;0.0;0.0
3.0;1753876073.232394;19.318621;0.79;-1.32;-0.25;0.877873;0.454719;0.031011;158.3;0.0;0.0;14.1;0.0;0.0
3.0;1753876073.237123;19.300354;0.73;-1.41;-0.33;0.877345;0.454313;0.032462;173.2;0.0;0.0;19.7;0.0;0.0
3.0;1753876073.241852;19.285294;0.71;-1.21;-0.44;0.878384;0.454515;0.031118;184.5;0.0;0.0;17.9;0.0;0.0
3.0;1753876073.246581;19.303306;0.82;-1.43;-0.47;0.877534;0.454533;0.030974;188.2;0.0;0.0;19.5;0.0;0.0
3.0;1753876073.25131;19.274159;0.83;-1.34;-0.33;0.877281;0.454851;0.032219;167.0;0.0;0.0;22.3;0.0;0.0
3.0;1753876073.256039;19.333134;0.84;-1.29;-0.3;0.877416;0.45503;0.031468;180.5;0.0;0.0;17.0;0.0;0.0
3.0;1753876073.260768;19.316501;0.79;-1.38;-0.46;0.877447;0.455438;0.031978;192.8;0.0;0.0;20.8;0.0;0.0
3.0;1753876073.265497;19.250384;0.9;-1.39;-0.27;0.878121;0.454704;0.031595;160.4;0.0;0.0;20.6;0.0;0.0
3.0;1753876073.270226;19.286649;0.78;-1.35;-0.31;0.877941;0.453981;0.031096;143.7;0.0;0.0;25.7;0.0;0.0
3.0;1753876073.274955;19.345076;0.77;-1.24;-0.35;0.878063;0.454856;0.030972;179.4;0.0;0.0;21.4;0.0;0.0
3.0;1753876073.279684;19.299022;0.81;-1.44;-0.32;0.877217;0.454371;0.032275;176.2;0.0;0.0;21.5;0.0;0.0
3.0;1753876073.284413;19.279776;0.87;-1.36;-0.38;0.876947;0.454112;0.032942;152.3;0.0;0.0;18.1;0.0;0.0
3.0;1753876073.289142;19.288732;0.67;-1.32;-0.33;0.878079;0.455097;0.030787;157.1;0.0;0.0;16.8;0.0;0.0
3.0;1753876073.293871;19.288453;0.74;-1.35;-0.37;0.876795;0.454973;0.031854;155.7;0.0;0.0;27.7;0.0;0.0
3.0;1753876073.2986;19.319282;0.78;-1.36;-0.35;0.876171;0.453949;0.031239;178.3;0.0;0.0;17.4;0.0;0.0
3.0;1753876073.303329;19.360909;0.84;-1.35;-0.37;0.877754;0.454582;0.032348;171.3;0.0;0.0;19.9;0.0;0.0
3.0;1753876073.308058;19.307595;0.8;-1.32;-0.19;0.877379;0.454658;0.031681;173.6;0.0;0.0;22.5;0.0;0.0
3.0;1753876073.312787;19.305831;0.77;-1.38;-0.36;0.876935;0.455251;0.031143;188.7;0.0;0.0;22.8;0.0;0.0
3.0;1753876073.317516;19.27743;0.75;-1.33;-0.3;0.877112;0.454681;0.032261;176.9;0.0;0.0;20.6;0.0;0.0
3.0;1753876073.322245;19.3232;0.86;-1.35;-0.32;0.877099;0.454876;0.032061;163.9;0.0;0.0;22.5;0.0;0.0
3.0;1753876073.326974;19.33709;0.8;-1.41;-0.29;0.87743;0.454427;0.030737;168.8;0.0;0.0;17.8;0.0;0.0
3.0;1753876073.331704;19.272086;0.81;-1.35;-0.31;0.877906;0.454426;0.031356;177.3;0.0;0.0;20.1;0.0;0.0
3.0;1753876073.336432;19.277703;0.84;-1.34;-0.31;0.877888;0.454581;0.030803;182.5;0.0;0.0;21.6;0.0;0.0
3.0;1753876073.341162;19.260374;0.8;-1.33;-0.27;0.877385;0.454428;0.031353;187.9;0.0;0.0;20.5;0.0;0.0
3.0;1753876073.34589;19.256048;0.83;-1.34;-0.38;0.877729;0.454452;0.030995;187.7;0.0;0.0;23.9;0.0;0.0
3.0;1753876073.35062;19.285437;0.69;-1.31;-0.31;0.876737;0.454353;0.031325;168.5;0.0;0.0;19.6;0.0;0.0
3.0;1753876073.355348;19.305093;0.84;-1.28;-0.39;0.876512;0.453855;0.031974;166.1;0.0;0.0;21.1;0.0;0.0
3.0;1753876073.360078;19.322094;0.79;-1.44;-0.24;0.878354;0.455043;0.031422;176.3;0.0;0.0;19.0;0.0;0.0
3.0;1753876073.364807;19.327095;0.78;-1.4;-0.3;0.878793;0.454864;0.031624;183.6;0.0;0.0;21.6;0.0;0.0
3.0;1753876073.369536;19.332435;0.72;-1.33;-0.25;0.876612;0.454109;0.032457;161.0;0.0;0.0;18.5;0.0;0.0
3.0;1753876073.374265;19.300634;0.79;-1.3;-0.37;0.877966;0.454544;0.031383;166.5;0.0;0.0;21.0;0.0;0.0
3.0;1753876073.378994;19.353985;0.78;-1.38;-0.32;0.877905;0.454552;0.031094;163.4;0.0;0.0;22.3;0.0;0.0
3.0;1753876073.383723;19.272213;0.83;-1.29;-0.3;0.877811;0.45416;0.031718;168.4;0.0;0.0;19.3;0.0;0.0
3.0;1753876073.388452;19.324356;0.86;-1.31;-0.34;0.87739;0.453779;0.031178;170.2;0.0;0.0;23.2;0.0;0.0
3.0;1753876073.393181;19.25988;0.74;-1.34;-0.28;0.876666;0.454389;0.030342;179.6;0.0;0.0;19.2;0.0;0.0
3.0;1753876073.39791;19.312276;0.79;-1.31;-0.19;0.877654;0.454126;0.03181;181.6;0.0;0.0;18.2;0.0;0.0
3.0;1753876073.402639;19.276216;0.83;-1.34;-0.23;0.877067;0.454077;0.031278;166.9;0.0;0.0;18.5;0.0;0.0
3.0;1753876073.407368;19.29219;0.74;-1.37;-0.21;0.878413;0.453752;0.031067;170.1;0.0;0.0;21.1;0.0;0.0
3.0;1753876073.412097;19.257678;0.78;-1.39;-0.27;0.877304;0.453956;0.032869;142.2;0.0;0.0;14.6;0.0;0.0
3.0;1753876073.416826;19.306677;0.74;-1.25;-0.3;0.8779;0.45409;0.032134;175.8;0.0;0.0;23.3;0.0;0.0
3.0;1753876073.421555;19.233037;0.73;-1.43;-0.31;0.877512;0.454119;0.032457;168.5;0.0;0.0;17.7;0.0;0.0
3.0;1753876073.426284;19.281289;0.75;-1.32;-0.32;0.877914;0.454705;0.031595;182.7;0.0;0.0;18.5;0.0;0.0
3.0;1753876073.431013;19.321868;0.77;-1.35;-0.32;0.878299;0.453479;0.031282;181.8;0.0;0.0;20.8;0.0;0.0
3.0;1753876073.438;19.296875;0.77;-1.33;-0.28;0.877546;0.454084;0.031476;171.0;0.0;0.0;19.0;0.0;0.0
3.0;1753876073.442729;19.285463;0.76;-1.36;-0.27;0.877917;0.454176;0.032315;173.2;0.0;0.0;15.8;0.0;0.0
3.0;1753876073.447458;19.347958;0.79;-1.31;-0.39;0.877393;0.454362;0.030664;173.2;0.0;0.0;14.1;0.0;0.0
3.0;1753876073.452187;19.263366;0.7;-1.26;-0.26;0.877741;0.4538;0.031751;175.4;0.0;0.0;15.1;0.0;0.0
3.0;1753876073.456916;19.280732;0.76;-1.25;-0.28;0.878055;0.454012;0.031596;167.5;0.0;0.0;21.5;0.0;0.0
3.0;1753876073.461645;19.267015;0.73;-1.33;-0.25;0.878114;0.454819;0.032183;178.1;0.0;0.0;13.9;0.0;0.0
3.0;1753876073.466374;19.226552;0.77;-1.35;-0.32;0.877647;0.454591;0.030727;175.7;0.0;0.0;18.8;0.0;0.0
3.0;1753876073.471103;19.312073;0.86;-1.33;-0.22;0.876373;0.454236;0.03126;166.5;0.0;0.0;19.2;0.0;0.0
3.0;1753876073.475832;19.2798;0.7;-1.39;-0.37;0.87749;0.454696;0.031773;162.9;0.0;0.0;19.3;0.0;0.0
3.0;1753876073.480561;19.291277;0.72;-1.24;-0.2;0.877797;0.453499;0.031572;178.7;0.0;0.0;18.9;0.0;0.0
3.0;1753876073.48529;19.282509;0.74;-1.29;-0.18;0.877887;0.454392;0.031993;168.0;0.0;0.0;17.9;0.0;0.0
3.0;1753876073.490019;19.300098;0.76;-1.27;-0.16;0.877774;0.454221;0.031574;157.3;0.0;0.0;14.6;0.0;0.0
3.0;1753876073.494748;19.295394;0.86;-1.34;-0.29;0.877743;0.454034;0.030091;172.9;0.0;0.0;17.7;0.0;0.0
3.0;1753876073.499478;19.305245;0.69;-1.33;-0.2;0.877724;0.454501;0.032368;191.2;0.0;0.0;16.9;0.0;0.0
3.0;1753876073.504206;19.286145;0.81;-1.3;-0.22;0.877236;0.454443;0.031111;183.0;0.0;0.0;21.4;0.0;0.0
3.0;1753876073.508936;19.302954;0.81;-1.35;-0.25;0.876948;0.45461;0.031632;189.2;0.0;0.0;22.8;0.0;0.0
3.0;1753876073.513664;19.292944;0.71;-1.32;-0.28;0.876969;0.454466;0.031217;164.4;0.0;0.0;16.5;0.0;0.0
3.0;1753876073.518394;19.291171;0.71;-1.37;-0.28;0.877451;0.454431;0.033071;172.9;0.0;0.0;24.6;0.0;0.0
3.0;1753876073.523122;19.255552;0.75;-1.26;-0.3;0.877622;0.454575;0.031317;175.6;0.0;0.0;17.3;0.0;0.0
3.0;1753876073.527852;19.295652;0.72;-1.36;-0.27;0.877846;0.45497;0.032098;170.6;0.0;0.0;22.0;0.0;0.0
3.0;1753876073.53258;19.336821;0.84;-1.39;-0.33;0.87594;0.453567;0.031611;178.0;0.0;0.0;22.7;0.0;0.0
3.0;1753876073.53731;19.294964;0.79;-1.33;-0.3;0.877292;0.454292;0.032426;171.7;0.0;0.0;16.8;0.0;0.0
3.0;1753876073.542039;19.311135;0.8;-1.38;-0.22;0.877629;0.453859;0.031879;161.0;0.0;0.0;12.3;0.0;0.0
3.0;1753876073.546768;19.319063;0.73;-1.35;-0.24;0.877586;0.45408;0.030758;168.8;0.0;0.0;22.6;0.0;0.0
3.0;1753876073.551497;19.283985;0.71;-1.35;-0.31;0.877024;0.453855;0.031681;177.7;0.0;0.0;18.6;0.0;0.0
3.0;1753876073.556226;19.309316;0.73;-1.28;-0.29;0.878125;0.454822;0.0332;184.3;0.0;0.0;11.7;0.0;0.0
3.0;1753876073.560955;19.301073;0.73;-1.36;-0.28;0.877605;0.453523;0.031155;182.4;0.0;0.0;24.5;0.0;0.0
3.0;1753876073.565684;19.275047;0.76;-1.27;-0.15;0.877582;0.454347;0.029876;164.0;0.0;0.0;10.7;0.0;0.0
3.0;1753876073.570413;19.339966;0.73;-1.35;-0.25;0.876966;0.455374;0.03055;176.2;0.0;0.0;12.0;0.0;0.0
3.0;1753876073.575142;19.317434;0.78;-1.27;-0.29;0.876021;0.454602;0.032167;155.8;0.0;0.0;27.7;0.0;0.0
3.0;1753876073.579871;19.325287;0.71;-1.28;-0.38;0.876659;0.453725;0.031379;185.2;0.0;0.0;17.4;0.0;0.0
3.0;1753876073.5846;19.265378;0.73;-1.31;-0.29;0.877285;0.45494;0.031525;171.5;0.0;0.0;19.4;0.0;0.0
3.0;1753876073.589329;19.317438;0.77;-1.32;-0.23;0.877549;0.454548;0.031198;161.4;0.0;0.0;19.5;0.0;0.0
3.0;1753876073.594058;19.314508;0.78;-1.24;-0.38;0.876595;0.454582;0.032051;155.6;0.0;0.0;24.8;0.0;0.0
3.0;1753876073.598787;19.299244;0.69;-1.32;-0.36;0.877515;0.4545;0.031959;166.3;0.0;0.0;19.6;0.0;0.0
3.0;1753876073.603516;19.302722;0.74;-1.35;-0.21;0.877686;0.454988;0.03204;164.2;0.0;0.0;21.7;0.0;0.0
3.0;1753876073.608245;19.309756;0.79;-1.25;-0.33;0.876976;0.454661;0.031133;172.9;0.0;0.0;19.5;0.0;0.0
3.0;1753876073.612974;19.326651;0.66;-1.34;-0.32;0.877465;0.45394;0.032343;169.0;0.0;0.0;23.7;0.0;0.0
3.0;1753876073.617703;19.289233;0.7;-1.39;-0.16;0.875538;0.454673;0.030971;188.9;0.0;0.0;14.3;0.0;0.0
3.0;1753876073.622432;19.268145;0.82;-1.29;-0.36;0.878528;0.454132;0.031495;157.8;0.0;0.0;20.0;0.0;0.0
3.0;1753876073.627161;19.236169;0.63;-1.21;-0.25;0.876888;0.454879;0.032176;159.4;0.0;0.0;17.1;0.0;0.0
3.0;1753876073.63189;19.318339;0.78;-1.28;-0.21;0.877127;0.454498;0.031363;175.0;0.0;0.0;15.2;0.0;0.0
3.0;1753876073.636619;19.311285;0.76;-1.31;-0.25;0.877413;0.454271;0.031394;151.6;0.0;0.0;17.6;0.0;0.0
3.0;1753876073.641348;19.292917;0.61;-1.26;-0.2;0.877624;0.454452;0.031526;164.0;0.0;0.0;19.3;0.0;0.0
3.0;1753876073.646078;19.27458;0.79;-1.26;-0.22;0.876624;0.454496;0.032062;177.1;0.0;0.0;19.2;0.0;0.0
3.0;1753876073.650806;19.33108;0.73;-1.34;-0.14;0.877443;0.454187;0.030463;176.6;0.0;0.0;14.0;0.0;0.0
3.0;1753876073.655536;19.358712;0.72;-1.29;-0.19;0.876335;0.454735;0.031862;175.6;0.0;0.0;19.5;0.0;0.0
3.0;1753876073.660264;19.268225;0.83;-1.32;-0.29;0.877661;0.454357;0.03198;177.1;0.0;0.0;14.5;0.0;0.0
3.0;1753876073.664994;19.251046;0.66;-1.27;-0.18;0.877282;0.455311;0.032874;173.2;0.0;0.0;15.8;0.0;0.0
3.0;1753876073.669722;19.281246;0.67;-1.36;-0.17;0.877438;0.454355;0.032062;161.2;0.0;0.0;24.6;0.0;0.0
3.0;1753876073.674452;19.328988;0.65;-1.34;-0.22;0.876964;0.45513;0.033304;178.1;0.0;0.0;21.1;0.0;0.0
3.0;1753876073.67918;19.323634;0.67;-1.24;-0.12;0.876522;0.453832;0.032485;182.2;0.0;0.0;20.5;0.0;0.0
3.0;1753876073.68391;19.299919;0.72;-1.25;-0.3;0.877517;0.454026;0.031536;170.0;0.0;0.0;23.5;0.0;0.0
3.0;1753876073.688639;19.300395;0.66;-1.31;-0.33;0.87654;0.455318;0.031517;171.9;0.0;0.0;27.4;0.0;0.0
3.0;1753876073.693368;19.315148;0.66;-1.18;-0.15;0.876786;0.454801;0.033618;171.1;0.0;0.0;22.8;0.0;0.0
3.0;1753876073.698097;19.300812;0.77;-1.28;-0.31;0.876667;0.454918;0.032601;170.7;0.0;0.0;17.5;0.0;0.0
3.0;1753876073.702826;19.289205;0.68;-1.31;-0.19;0.876226;0.454062;0.032434;174.8;0.0;0.0;17.8;0.0;0.0
3.0;1753876073.707555;19.258327;0.66;-1.35;-0.16;0.876866;0.455481;0.031772;155.4;0.0;0.0;9.7;0.0;0.0
3.0;1753876073.712284;19.315493;0.76;-1.37;-0.24;0.87681;0.454113;0.032436;174.5;0.0;0.0;17.2;0.0;0.0
3.0;1753876073.717013;19.301969;0.72;-1.27;-0.3;0.877054;0.454998;0.032569;174.6;0.0;0.0;15.0;0.0;0.0
3.0;1753876073.721742;19.313413;0.77;-1.27;-0.24;0.876008;0.454895;0.031818;160.8;0.0;0.0;18.4;0.0;0.0
3.0;1753876073.726471;19.318583;0.76;-1.23;-0.17;0.877227;0.454757;0.031665;176.2;0.0;0.0;20.9;0.0;0.0
3.0;1753876073.7312;19.276967;0.69;-1.25;-0.16;0.877078;0.454431;0.032599;170.4;0.0;0.0;15.0;0.0;0.0
3.0;1753876073.735929;19.269525;0.69;-1.27;-0.31;0.877197;0.455512;0.031203;163.8;0.0;0.0;15.5;0.0;0.0
3.0;1753876073.740658;19.316278;0.7;-1.21;-0.32;0.877417;0.454827;0.031832;170.5;0.0;0.0;13.3;0.0;0.0
3.0;1753876073.745387;19.307426;0.68;-1.24;-0.35;0.877386;0.455451;0.031638;179.6;0.0;0.0;17.5;0.0;0.0
3.0;1753876073.750116;19.27592;0.75;-1.26;-0.26;0.877897;0.454183;0.031628;191.4;0.0;0.0;18.9;0.0;0.0
3.0;1753876073.754845;19.280547;0.7;-1.17;-0.22;0.876636;0.453858;0.03146;168.4;0.0;0.0;17.6;0.0;0.0
3.0;1753876073.759574;19.282364;0.8;-1.28;-0.3;0.877915;0.45564;0.031827;151.5;0.0;0.0;16.0;0.0;0.0
3.0;1753876073.764303;19.293797;0.73;-1.33;-0.33;0.876455;0.454602;0.032003;170.1;0.0;0.0;20.9;0.0;0.0
3.0;1753876073.769032;19.29973;0.76;-1.27;-0.24;0.877797;0.454681;0.031048;175.6;0.0;0.0;20.3;0.0;0.0
3.0;1753876073.773761;19.317471;0.71;-1.25;-0.18;0.876549;0.453591;0.032552;170.3;0.0;0.0;9.6;0.0;0.0
3.0;1753876073.77849;19.318664;0.77;-1.24;-0.25;0.876773;0.453959;0.031546;165.0;0.0;0.0;17.6;0.0;0.0
3.0;1753876073.783219;19.310678;0.7;-1.32;-0.3;0.877712;0.455157;0.032702;168.1;0.0;0.0;21.3;0.0;0.0
3.0;1753876073.787948;19.279575;0.68;-1.22;-0.28;0.876688;0.454887;0.031778;174.9;0.0;0.0;16.7;0.0;0.0
3.0;1753876073.792678;19.32419;0.72;-1.27;-0.26;0.875722;0.456037;0.032771;157.0;0.0;0.0;15.2;0.0;0.0
3.0;1753876073.797406;19.279449;0.68;-1.22;-0.21;0.876664;0.454927;0.032048;157.7;0.0;0.0;18.2;0.0;0.0
3.0;1753876073.802136;19.323944;0.77;-1.34;-0.16;0.876652;0.454837;0.031382;179.2;0.0;0.0;19.5;0.0;0.0
3.0;1753876073.806864;19.31078;0.78;-1.19;-0.23;0.877523;0.455032;0.031247;165.8;0.0;0.0;23.5;0.0;0.0
3.0;1753876073.811594;19.3103;0.73;-1.26;-0.33;0.876796;0.455034;0.031865;164.1;0.0;0.0;17.6;0.0;0.0
3.0;1753876073.816322;19.331895;0.69;-1.21;-0.24;0.876577;0.454921;0.032713;160.7;0.0;0.0;15.7;0.0;0.0
3.0;1753876073.821052;19.300061;0.7;-1.28;-0.27;0.876148;0.454974;0.032666;168.2;0.0;0.0;19.9;0.0;0.0
3.0;1753876073.825781;19.297684;0.7;-1.32;-0.31;0.876985;0.454655;0.032137;164.6;0.0;0.0;16.4;0.0;0.0
3.0;1753876073.83051;19.27447;0.74;-1.3;-0.24;0.877128;0.454544;0.031659;167.1;0.0;0.0;13.2;0.0;0.0
3.0;1753876073.835239;19.30339;0.74;-1.24;-0.2;0.876459;0.456112;0.032953;152.8;0.0;0.0;14.2;0.0;0.0
3.0;1753876073.839968;19.297247;0.77;-1.31;-0.23;0.875927;0.455659;0.031408;169.3;0.0;0.0;17.3;0.0;0.0
3.0;1753876073.844697;19.285002;0.78;-1.29;-0.29;0.875103;0.455386;0.032168;182.1;0.0;0.0;17.6;0.0;0.0
3.0;1753876073.849426;19.265163;0.74;-1.3;-0.23;0.876877;0.454878;0.03199;174.2;0.0;0.0;23.3;0.0;0.0
3.0;1753876073.854155;19.296208;0.79;-1.37;-0.25;0.877716;0.455818;0.032402;156.2;0.0;0.0;17.9;0.0;0.0
3.0;1753876073.858884;19.231642;0.75;-1.3;-0.32;0.876914;0.455192;0.033734;159.5;0.0;0.0;16.7;0.0;0.0
3.0;1753876073.863613;19.327596;0.68;-1.31;-0.35;0.876747;0.454421;0.033131;183.1;0.0;0.0;15.7;0.0;0.0
3.0;1753876073.868342;19.324323;0.65;-1.33;-0.24;0.877387;0.455529;0.032289;169.5;0.0;0.0;11.7;0.0;0.0
3.0;1753876073.873071;19.290037;0.72;-1.24;-0.3;0.877045;0.45489;0.032802;165.7;0.0;0.0;18.2;0.0;0.0
3.0;1753876073.8778;19.30717;0.65;-1.31;-0.32;0.87619;0.455002;0.032039;169.2;0.0;0.0;11.7;0.0;0.0
3.0;1753876073.882529;19.314171;0.75;-1.28;-0.11;0.876029;0.45544;0.032148;183.3;0.0;0.0;19.7;0.0;0.0
3.0;1753876073.887258;19.296296;0.74;-1.32;-0.22;0.876693;0.455534;0.033218;174.5;0.0;0.0;14.6;0.0;0.0
3.0;1753876073.891987;19.265723;0.7;-1.22;-0.19;0.876729;0.455412;0.033289;174.0;0.0;0.0;15.3;0.0;0.0
3.0;1753876073.896716;19.304473;0.7;-1.24;-0.29;0.875671;0.454969;0.030924;176.5;0.0;0.0;19.5;0.0;0.0
3.0;1753876073.901445;19.280483;0.62;-1.22;-0.12;0.87698;0.455236;0.031471;171.4;0.0;0.0;21.5;0.0;0.0
3.0;1753876073.906174;19.318713;0.67;-1.23;-0.3;0.876257;0.455425;0.032292;166.5;0.0;0.0;17.7;0.0;0.0
3.0;1753876073.910903;19.294246;0.79;-1.28;-0.3;0.877649;0.454779;0.032524;154.6;0.0;0.0;13.5;0.0;0.0
3.0;1753876073.915632;19.313227;0.72;-1.34;-0.11;0.876563;0.45484;0.032655;173.6;0.0;0.0;25.1;0.0;0.0
3.0;1753876073.920361;19.30079;0.61;-1.24;-0.2;0.877411;0.454961;0.032255;174.7;0.0;0.0;24.8;0.0;0.0
3.0;1753876073.92509;19.254364;0.68;-1.24;-0.32;0.876896;0.455354;0.031903;170.9;0.0;0.0;17.0;0.0;0.0
3.0;1753876073.929819;19.31941;0.62;-1.3;-0.18;0.877093;0.454516;0.031736;195.7;0.0;0.0;23.0;0.0;0.0
3.0;1753876073.934548;19.297412;0.69;-1.24;-0.21;0.877294;0.455511;0.033324;173.6;0.0;0.0;18.5;0.0;0.0
3.0;1753876073.939278;19.306581;0.69;-1.25;-0.2;0.876831;0.45574;0.031775;165.8;0.0;0.0;22.3;0.0;0.0
3.0;1753876073.944006;19.298235;0.73;-1.39;-0.33;0.877239;0.455788;0.031209;187.0;0.0;0.0;27.3;0.0;0.0
3.0;1753876073.948736;19.270168;0.81;-1.27;-0.19;0.87685;0.454887;0.032957;180.2;0.0;0.0;21.5;0.0;0.0
3.0;1753876073.953464;19.313844;0.7;-1.22;-0.27;0.877136;0.454997;0.033004;160.6;0.0;0.0;17.6;0.0;0.0
3.0;1753876073.958194;19.29492;0.75;-1.23;-0.14;0.876353;0.45487;0.032819;182.9;0.0;0.0;13.6;0.0;0.0
3.0;1753876073.9654;19.304688;0.7;-1.26;-0.21;0.87657;0.455426;0.032452;171.0;0.0;0.0;19.0;0.0;0.0
3.0;1753876073.967619;19.296875;0.77;-1.26;-0.21;0.87718;0.453352;0.032208;174.0;0.0;0.0;22.0;0.0;0.0
3.0;1753876073.969092;19.296875;0.7;-1.33;-0.21;0.876692;0.45506;0.030866;174.0;0.0;0.0;22.0;0.0;0.0
3.0;1753876073.973836;19.296875;0.77;-1.26;-0.21;0.877424;0.453596;0.031964;174.0;0.0;0.0;22.0;0.0;0.0
3.0;1753876073.978456;19.296875;0.63;-1.33;-0.21;0.87718;0.454816;0.031842;174.0;0.0;0.0;22.0;0.0;0.0
3.0;1753876073.983176;19.261719;0.7;-1.47;-0.21;0.876082;0.454938;0.03111;174.0;0.0;0.0;22.0;0.0;0.0
3.0;1753876073.988151;19.261719;0.77;-1.33;-0.14;0.87718;0.454938;0.031598;174.0;0.0;0.0;22.0;0.0;0.0
3.0;1753876073.992441;19.261719;0.7;-1.33;-0.07;0.87718;0.454938;0.031598;174.0;0.0;0.0;22.0;0.0;0.0
3.0;1753876073.997218;19.261719;0.7;-1.4;-0.21;0.87657;0.454084;0.032696;174.0;0.0;0.0;22.0;0.0;0.0
3.0;1753876074.001947;19.25671;0.68;-1.38;-0.24;0.875712;0.453068;0.033207;169.9;0.0;0.0;22.2;0.0;0.0
3.0;1753876074.006676;19.294249;0.74;-1.43;-0.26;0.876926;0.45469;0.032148;168.8;0.0;0.0;20.2;0.0;0.0
3.0;1753876074.011405;19.279762;0.59;-1.41;-0.22;0.875842;0.454769;0.032844;166.9;0.0;0.0;22.1;0.0;0.0
3.0;1753876074.016134;19.28371;0.66;-1.44;-0.31;0.876693;0.453119;0.032938;168.5;0.0;0.0;21.9;0.0;0.0
3.0;1753876074.020863;19.272434;0.69;-1.4;-0.14;0.876134;0.454377;0.032298;174.6;0.0;0.0;21.1;0.0;0.0
3.0;1753876074.025592;19.271826;0.61;-1.5;-0.14;0.876166;0.454569;0.031602;178.3;0.0;0.0;20.2;0.0;0.0
3.0;1753876074.030321;19.242132;0.62;-1.37;-0.13;0.875993;0.454358;0.032175;160.6;0.0;0.0;23.0;0.0;0.0
3.0;1753876074.03505;19.259052;0.61;-1.34;-0.23;0.877954;0.451753;0.033241;174.7;0.0;0.0;22.5;0.0;0.0
3.0;1753876074.039779;19.275779;0.66;-1.42;-0.23;0.876084;0.454196;0.032984;179.7;0.0;0.0;19.3;0.0;0.0
3.0;1753876074.044508;19.282434;0.66;-1.36;-0.15;0.877018;0.453715;0.033516;173.1;0.0;0.0;20.6;0.0;0.0
3.0;1753876074.049237;19.280019;0.64;-1.45;-0.2;0.87631;0.454422;0.032386;173.1;0.0;0.0;20.9;0.0;0.0
3.0;1753876074.053966;19.300308;0.67;-1.34;-0.2;0.87563;0.454811;0.032837;155.4;0.0;0.0;20.8;0.0;0.0
3.0;1753876074.058695;19.286764;0.78;-1.36;-0.25;0.877787;0.454019;0.033054;185.0;0.0;0.0;22.2;0.0;0.0
3.0;1753876074.063424;19.292126;0.64;-1.38;-0.23;0.876749;0.454244;0.032522;169.9;0.0;0.0;20.8;0.0;0.0
3.0;1753876074.068154;19.286533;0.69;-1.34;-0.27;0.876357;0.45552;0.032158;171.7;0.0;0.0;22.1;0.0;0.0
3.0;1753876074.072882;19.285324;0.68;-1.53;-0.3;0.877109;0.455804;0.031743;186.3;0.0;0.0;22.2;0.0;0.0
3.0;1753876074.077612;19.263973;0.66;-1.5;-0.3;0.877449;0.454487;0.03118;174.1;0.0;0.0;23.7;0.0;0.0
3.0;1753876074.08234;19.262145;0.66;-1.45;-0.3;0.876647;0.454531;0.031769;165.9;0.0;0.0;22.1;0.0;0.0
3.0;1753876074.08707;19.281051;0.72;-1.37;-0.16;0.876911;0.45566;0.032147;177.5;0.0;0.0;22.0;0.0;0.0
3.0;1753876074.091798;19.278628;0.61;-1.4;-0.2;0.876364;0.455632;0.032288;167.8;0.0;0.0;21.7;0.0;0.0
3.0;1753876074.096528;19.308018;0.63;-1.37;-0.29;0.877606;0.454597;0.032141;180.6;0.0;0.0;23.0;0.0;0.0
3.0;1753876074.101256;19.289213;0.63;-1.33;-0.24;0.876418;0.453233;0.031626;195.5;0.0;0.0;21.9;0.0;0.0
3.0;1753876074.105986;19.276016;0.57;-1.43;-0.27;0.875711;0.454647;0.03175;185.3;0.0;0.0;21.6;0.0;0.0
3.0;1753876074.110715;19.284622;0.65;-1.34;-0.15;0.876166;0.454937;0.032381;175.2;0.0;0.0;22.8;0.0;0.0
3.0;1753876074.115444;19.29087;0.59;-1.49;-0.31;0.876317;0.454234;0.032356;147.0;0.0;0.0;23.4;0.0;0.0
3.0;1753876074.120173;19.311906;0.64;-1.32;-0.21;0.876794;0.454566;0.03129;163.7;0.0;0.0;20.8;0.0;0.0
3.0;1753876074.124902;19.319566;0.59;-1.39;-0.26;0.877208;0.45476;0.03153;164.5;0.0;0.0;21.7;0.0;0.0
3.0;1753876074.129631;19.32273;0.68;-1.43;-0.31;0.875657;0.456208;0.032049;170.8;0.0;0.0;21.6;0.0;0.0
3.0;1753876074.13436;19.285244;0.68;-1.4;-0.2;0.876416;0.455274;0.031977;158.3;0.0;0.0;21.6;0.0;0.0
3.0;1753876074.139089;19.295902;0.59;-1.42;-0.25;0.877419;0.45392;0.030462;163.6;0.0;0.0;21.5;0.0;0.0
3.0;1753876074.143818;19.280438;0.74;-1.52;-0.23;0.875611;0.453852;0.031405;177.0;0.0;0.0;21.1;0.0;0.0
3.0;1753876074.148547;19.319572;0.65;-1.42;-0.23;0.875951;0.455042;0.031048;184.6;0.0;0.0;21.9;0.0;0.0
3.0;1753876074.153276;19.335427;0.61;-1.41;-0.23;0.875449;0.453952;0.03122;167.9;0.0;0.0;21.4;0.0;0.0
3.0;1753876074.158005;19.31762;0.56;-1.36;-0.33;0.877187;0.454345;0.030282;165.8;0.0;0.0;22.3;0.0;0.0
3.0;1753876074.162734;19.296057;0.64;-1.45;-0.3;0.875931;0.454777;0.032099;159.1;0.0;0.0;21.6;0.0;0.0
3.0;1753876074.167463;19.311627;0.55;-1.54;-0.23;0.876117;0.454577;0.031749;182.1;0.0;0.0;21.1;0.0;0.0
3.0;1753876074.172192;19.30787;0.69;-1.47;-0.3;0.877249;0.454066;0.03112;178.6;0.0;0.0;20.9;0.0;0.0
3.0;1753876074.176921;19.323928;0.72;-1.36;-0.32;0.87649;0.455056;0.031696;162.5;0.0;0.0;21.9;0.0;0.0
3.0;1753876074.18165;19.318628;0.62;-1.41;-0.32;0.87601;0.453343;0.031064;165.4;0.0;0.0;22.8;0.0;0.0
3.0;1753876074.186379;19.319554;0.64;-1.44;-0.34;0.876047;0.455025;0.031274;171.7;0.0;0.0;22.0;0.0;0.0
3.0;1753876074.191108;19.305267;0.67;-1.34;-0.33;0.876933;0.456139;0.030502;170.5;0.0;0.0;22.0;0.0;0.0
3.0;1753876074.195837;19.315652;0.59;-1.31;-0.38;0.877391;0.454383;0.031036;159.8;0.0;0.0;21.7;0.0;0.0
3.0;1753876074.200566;19.324239;0.6;-1.33;-0.24;0.876409;0.455409;0.030496;171.9;0.0;0.0;22.5;0.0;0.0
3.0;1753876074.205295;19.336678;0.54;-1.53;-0.22;0.876899;0.454763;0.031161;186.7;0.0;0.0;22.3;0.0;0.0
3.0;1753876074.210024;19.352946;0.84;-1.29;-0.25;0.876529;0.4551;0.031031;176.1;0.0;0.0;22.9;0.0;0.0
3.0;1753876074.214754;19.313028;0.66;-1.34;-0.29;0.876026;0.454601;0.030995;176.2;0.0;0.0;21.8;0.0;0.0
3.0;1753876074.2221;19.328125;0.63;-1.4;-0.28;0.876204;0.455182;0.030866;174.0;0.0;0.0;22.0;0.0;0.0
3.0;1753876074.226829;19.353068;0.59;-1.37;-0.33;0.874735;0.455318;0.030484;181.8;0.0;0.0;21.0;0.0;0.0
3.0;1753876074.231558;19.342651;0.76;-1.45;-0.32;0.878346;0.455345;0.030659;187.3;0.0;0.0;23.6;0.0;0.0
3.0;1753876074.236287;19.343905;0.67;-1.47;-0.25;0.876938;0.45514;0.029747;186.8;0.0;0.0;21.4;0.0;0.0
3.0;1753876074.241016;19.324386;0.52;-1.37;-0.29;0.875067;0.455346;0.030525;182.1;0.0;0.0;22.0;0.0;0.0
3.0;1753876074.245745;19.307587;0.73;-1.39;-0.31;0.875695;0.454952;0.030696;180.3;0.0;0.0;21.0;0.0;0.0
3.0;1753876074.250474;19.346335;0.68;-1.32;-0.26;0.876361;0.455334;0.030584;164.7;0.0;0.0;21.8;0.0;0.0
3.0;1753876074.255203;19.320631;0.66;-1.45;-0.23;0.876502;0.454625;0.031186;175.0;0.0;0.0;22.7;0.0;0.0
3.0;1753876074.259932;19.337819;0.61;-1.28;-0.28;0.875322;0.455345;0.030875;180.4;0.0;0.0;22.1;0.0;0.0
3.0;1753876074.264661;19.30125;0.71;-1.49;-0.25;0.876188;0.454614;0.031203;177.5;0.0;0.0;21.7;0.0;0.0
3.0;1753876074.26939;19.355232;0.61;-1.39;-0.32;0.876381;0.455112;0.030345;177.5;0.0;0.0;21.8;0.0;0.0
3.0;1753876074.27412;19.307661;0.59;-1.52;-0.21;0.875554;0.456212;0.030816;181.5;0.0;0.0;22.4;0.0;0.0
3.0;1753876074.278848;19.367081;0.68;-1.4;-0.29;0.874586;0.456598;0.031927;196.3;0.0;0.0;21.3;0.0;0.0
3.0;1753876074.283578;19.311812;0.58;-1.39;-0.26;0.875949;0.45624;0.031414;183.7;0.0;0.0;21.7;0.0;0.0
3.0;1753876074.288306;19.340804;0.67;-1.4;-0.27;0.875604;0.456517;0.03103;176.8;0.0;0.0;22.0;0.0;0.0
3.0;1753876074.293036;19.341301;0.65;-1.42;-0.28;0.874966;0.456208;0.031126;166.8;0.0;0.0;21.8;0.0;0.0
3.0;1753876074.297764;19.34375;0.59;-1.48;-0.25;0.875502;0.455539;0.031241;166.0;0.0;0.0;22.8;0.0;0.0
3.0;1753876074.302494;19.319513;0.71;-1.32;-0.35;0.874615;0.454534;0.031107;156.0;0.0;0.0;22.5;0.0;0.0
3.0;1753876074.307222;19.294953;0.61;-1.45;-0.4;0.875372;0.456324;0.031789;181.0;0.0;0.0;21.2;0.0;0.0
3.0;1753876074.311952;19.330179;0.57;-1.42;-0.24;0.876852;0.456332;0.030227;184.7;0.0;0.0;21.5;0.0;0.0
3.0;1753876074.316681;19.324913;0.6;-1.48;-0.31;0.87581;0.455235;0.031652;166.0;0.0;0.0;22.8;0.0;0.0
3.0;1753876074.32141;19.332507;0.69;-1.42;-0.24;0.876815;0.456491;0.031212;171.4;0.0;0.0;22.0;0.0;0.0
3.0;1753876074.326139;19.33456;0.6;-1.34;-0.3;0.874808;0.453434;0.030938;181.8;0.0;0.0;23.6;0.0;0.0
3.0;1753876074.330868;19.316975;0.62;-1.46;-0.27;0.876362;0.455822;0.031075;176.4;0.0;0.0;23.4;0.0;0.0
3.0;1753876074.335597;19.316803;0.57;-1.31;-0.33;0.874417;0.456199;0.030987;187.5;0.0;0.0;21.8;0.0;0.0
3.0;1753876074.340326;19.315109;0.6;-1.49;-0.2;0.876366;0.454802;0.030886;180.3;0.0;0.0;20.2;0.0;0.0
3.0;1753876074.345055;19.296114;0.57;-1.44;-0.28;0.876459;0.455042;0.03129;170.9;0.0;0.0;23.1;0.0;0.0
3.0;1753876074.349784;19.325555;0.62;-1.41;-0.26;0.875945;0.454474;0.03101;180.3;0.0;0.0;21.8;0.0;0.0
3.0;1753876074.354513;19.325239;0.61;-1.36;-0.28;0.875468;0.456357;0.030959;159.3;0.0;0.0;20.3;0.0;0.0
3.0;1753876074.359242;19.314446;0.7;-1.38;-0.21;0.877094;0.454274;0.030809;196.2;0.0;0.0;22.4;0.0;0.0
3.0;1753876074.363971;19.320172;0.67;-1.37;-0.26;0.874164;0.455548;0.032279;170.1;0.0;0.0;22.1;0.0;0.0
3.0;1753876074.3687;19.327226;0.67;-1.24;-0.3;0.876647;0.45712;0.031902;183.7;0.0;0.0;21.7;0.0;0.0
3.0;1753876074.373429;19.304466;0.66;-1.48;-0.24;0.872811;0.454241;0.03165;171.3;0.0;0.0;22.1;0.0;0.0
3.0;1753876074.378158;19.370948;0.67;-1.27;-0.22;0.873055;0.454228;0.031512;176.0;0.0;0.0;22.2;0.0;0.0
3.0;1753876074.382887;19.34263;0.71;-1.35;-0.26;0.873668;0.454823;0.030862;191.8;0.0;0.0;22.3;0.0;0.0
3.0;1753876074.387616;19.331564;0.57;-1.42;-0.22;0.875265;0.453609;0.031701;174.5;0.0;0.0;21.8;0.0;0.0
3.0;1753876074.392345;19.352916;0.66;-1.35;-0.29;0.875695;0.454408;0.031441;188.0;0.0;0.0;22.0;0.0;0.0
3.0;1753876074.397074;19.346047;0.64;-1.43;-0.3;0.87566;0.454136;0.030498;173.8;0.0;0.0;21.6;0.0;0.0
3.0;1753876074.401803;19.324758;0.73;-1.31;-0.16;0.873976;0.455604;0.031021;175.8;0.0;0.0;22.1;0.0;0.0
3.0;1753876074.406532;19.347222;0.64;-1.36;-0.22;0.876083;0.453958;0.030498;154.8;0.0;0.0;21.9;0.0;0.0
3.0;1753876074.411261;19.31274;0.79;-1.3;-0.24;0.874521;0.455236;0.031029;174.2;0.0;0.0;23.2;0.0;0.0
3.0;1753876074.41599;19.319455;0.73;-1.33;-0.14;0.876603;0.454726;0.031922;170.4;0.0;0.0;21.9;0.0;0.0
3.0;1753876074.42072;19.295221;0.74;-1.31;-0.26;0.877104;0.454315;0.032165;170.4;0.0;0.0;22.3;0.0;0.0
3.0;1753876074.425448;19.296174;0.74;-1.41;-0.21;0.874921;0.454685;0.030686;188.7;0.0;0.0;20.8;0.0;0.0
3.0;1753876074.430178;19.340129;0.73;-1.29;-0.2;0.875982;0.454686;0.030742;188.1;0.0;0.0;22.7;0.0;0.0
3.0;1753876074.434906;19.343191;0.67;-1.4;-0.17;0.875549;0.455028;0.030927;169.1;0.0;0.0;21.5;0.0;0.0
3.0;1753876074.439636;19.337175;0.72;-1.34;-0.27;0.875343;0.454708;0.031864;176.1;0.0;0.0;21.1;0.0;0.0
3.0;1753876074.444364;19.326885;0.61;-1.32;-0.26;0.875454;0.454516;0.031026;191.3;0.0;0.0;21.6;0.0;0.0
3.0;1753876074.449094;19.315466;0.76;-1.43;-0.22;0.874275;0.454504;0.030987;182.6;0.0;0.0;20.3;0.0;0.0
3.0;1753876074.453822;19.342156;0.72;-1.39;-0.29;0.875146;0.454927;0.03197;161.9;0.0;0.0;23.4;0.0;0.0
3.0;1753876074.458552;19.316089;0.71;-1.28;-0.21;0.876379;0.455982;0.032569;171.9;0.0;0.0;22.2;0.0;0.0
