DeviceID;Timestamp;Temperature;GyroX;GyroY;GyroZ;AccelX;AccelY;AccelZ;Dist1;Dist2;Dist3;Err1;Err2;Err3
2.0;1753879331.64097;15.300781;0.84;-1.68;-0.35;0.996252;0.014762;0.00549;108.0;107.0;0.0;10.0;14.0;0.0
2.0;1753879331.645566;15.300454;1.44;-1.14;0.65;0.943108;-0.009841;-0.018739;106.7;107.0;-0.1;10.3;14.0;-0.3
2.0;1753879331.650162;15.29943;1.27;-1.56;-0.06;0.965914;0.023732;0.00998;110.3;107.0;1.9;10.1;14.0;0.0
2.0;1753879331.654758;15.301849;0.16;-1.4;1.52;1.005819;0.016678;0.025096;107.1;107.0;0.2;10.0;14.0;-0.1
2.0;1753879331.6615;15.300781;0.77;-1.68;-0.28;0.997594;0.016104;0.007198;108.0;107.0;0.0;10.0;14.0;0.0
2.0;1753879331.666096;15.299458;0.86;-2.22;1.0;1.069028;-0.046094;0.002141;107.8;107.0;1.9;9.8;14.0;0.0
2.0;1753879331.670692;15.298975;1.7;-1.45;0.79;1.003444;-0.019756;0.022292;108.1;107.0;-0.7;10.0;14.0;-0.1
2.0;1753879331.675288;15.300174;1.19;-1.82;2.71;1.016938;-0.02817;0.015524;106.6;107.0;-1.3;10.3;14.0;-0.1
2.0;1753879331.679884;15.302255;-0.43;-1.36;0.46;0.905554;0.05059;0.027365;108.0;107.0;1.2;9.7;14.0;-0.2
2.0;1753879331.68448;15.302616;0.88;-2.43;-0.46;1.056359;0.05733;0.00435;109.3;107.0;-0.5;9.8;14.0;0.1
2.0;1753879331.689076;15.301291;1.14;-2.07;-1.49;0.991581;0.023387;0.009605;106.0;107.0;-1.1;10.3;14.0;0.4
2.0;1753879331.693672;15.300488;0.65;-2.12;0.28;0.974952;0.014069;-0.02138;108.7;107.0;2.0;9.7;14.0;0.2
2.0;1753879331.69825;15.300781;0.91;-1.68;-0.28;0.996496;0.012932;0.005002;108.0;107.0;0.0;10.0;14.0;0.0
2.0;1753879331.702846;15.302183;0.98;-1.83;1.49;0.996946;-0.029652;0.014754;106.6;107.0;0.5;10.3;14.0;0.1
2.0;1753879331.707442;15.304444;0.88;-2.03;-1.21;0.986171;0.008654;-0.011951;108.8;107.0;-0.4;9.9;14.0;-0.1
2.0;1753879331.712038;15.305638;1.67;-2.04;-1.28;0.922162;0.007609;0.02301;107.7;107.0;-0.9;10.2;14.0;-0.0
2.0;1753879331.716634;15.306359;1.27;-1.76;1.17;0.970029;0.017315;0.019545;109.1;107.0;-2.6;10.2;14.0;0.0
2.0;1753879331.72123;15.307969;1.18;-2.0;0.71;0.98991;-0.047549;-0.004266;106.4;107.0;-1.8;10.1;14.0;0.0
2.0;1753879331.725826;15.308686;0.96;-2.11;1.77;0.965808;0.013886;0.001884;108.6;107.0;-0.4;10.0;14.0;0.0
2.0;1753879331.730422;15.306585;0.54;-2.0;-1.76;0.965594;0.024073;0.031883;107.7;107.0;1.1;9.7;14.0;0.0
2.0;1753879331.735018;15.311055;0.99;-1.97;0.57;1.059366;0.026952;0.03898;106.0;107.0;0.9;10.3;14.0;0.0
2.0;1753879331.7436;15.3125;0.98;-1.68;-0.28;0.995398;0.015738;0.006344;108.0;107.0;0.0;10.0;14.0;0.0
2.0;1753879331.748196;15.313726;-0.17;-1.78;0.24;0.970155;-0.038629;0.01494;107.8;107.0;0.1;10.0;14.0;-0.3
2.0;1753879331.752792;15.311128;0.84;-1.67;-1.8;1.028902;0.050807;0.022461;107.1;107.0;-0.7;10.0;14.0;0.3
2.0;1753879331.757388;15.310854;0.88;-1.59;-0.97;1.008938;-0.01228;0.007885;109.9;107.0;1.8;10.1;14.0;-0.2
2.0;1753879331.761984;15.311633;0.84;-2.31;-0.56;1.01295;0.054105;0.029124;106.6;107.0;-0.9;10.3;14.0;-0.2
2.0;1753879331.76658;15.313006;1.3;-1.62;0.79;1.038276;0.049725;-0.010049;107.3;107.0;-2.2;9.6;14.0;-0.2
2.0;1753879331.771176;15.311414;0.22;-0.73;-1.17;1.021001;-0.036574;0.004514;107.5;107.0;-3.2;9.6;14.0;0.0
2.0;1753879331.775772;15.311619;0.76;-1.42;-1.25;1.017722;0.027325;0.019507;106.9;107.0;0.6;10.0;14.0;0.2
2.0;1753879331.780368;15.311033;1.67;-1.26;0.89;0.978496;0.072525;-0.005989;106.5;107.0;-0.1;10.2;14.0;-0.1
2.0;1753879331.784964;15.309499;1.08;-1.97;0.58;1.041264;0.045422;0.007364;108.7;107.0;-0.5;10.0;14.0;-0.0
2.0;1753879331.78956;15.313522;0.7;-2.13;1.35;1.008093;0.008067;0.032044;105.1;107.0;-2.1;10.2;14.0;0.2
2.0;1753879331.79521;15.3125;0.98;-1.68;-0.35;0.996374;0.01403;0.006466;108.0;107.0;0.0;10.0;14.0;0.0
2.0;1753879331.799806;15.314719;1.23;-1.58;-2.4;1.072272;-0.002832;-0.003474;108.0;107.0;-1.0;10.1;14.0;-0.2
2.0;1753879331.804402;15.313666;0.37;-1.74;0.12;1.070404;0.006315;0.000624;107.8;107.0;0.2;10.1;14.0;0.1
2.0;1753879331.808998;15.312084;0.77;-2.17;-1.23;1.01175;0.037048;-7e-06;109.0;107.0;0.9;10.1;14.0;-0.1
2.0;1753879331.813594;15.310861;0.79;-2.36;-0.63;1.036809;0.020092;-0.015627;107.4;107.0;-0.6;10.1;14.0;0.1
2.0;1753879331.81819;15.312354;1.03;-1.45;1.72;1.014295;-0.021445;-0.036197;106.6;107.0;0.1;10.2;14.0;0.3
2.0;1753879331.822786;15.312265;1.55;-0.67;-2.83;0.979066;0.014098;0.005621;106.6;107.0;0.6;10.2;14.0;0.2
2.0;1753879331.827382;15.310328;0.42;-1.68;0.5;1.024734;-0.031102;0.006153;107.1;107.0;1.9;10.1;14.0;-0.2
2.0;1753879331.831978;15.313738;1.06;-2.69;-0.62;1.030672;-0.022632;0.001768;105.1;107.0;0.7;10.1;14.0;0.1
2.0;1753879331.83678;15.3125;0.84;-1.68;-0.35;0.995642;0.017934;0.0061;108.0;107.0;0.0;10.0;14.0;0.0
2.0;1753879331.841376;15.313428;0.9;-1.55;-1.25;0.980424;0.015126;0.00163;109.4;107.0;0.4;10.0;14.0;0.3
2.0;1753879331.845972;15.314722;0.38;-1.9;-0.49;1.034377;0.021665;-0.026691;107.4;107.0;-1.2;10.0;14.0;-0.2
2.0;1753879331.850568;15.309478;1.0;-1.15;-0.95;0.935576;-0.045722;0.020197;109.0;107.0;1.1;9.9;14.0;0.2
2.0;1753879331.855164;15.312778;0.83;-2.21;-1.6;1.008392;-0.049831;-0.013635;105.8;107.0;1.5;9.9;14.0;0.4
2.0;1753879331.85976;15.312886;1.05;-1.25;-0.72;0.983097;0.065154;-0.017563;107.9;107.0;-0.5;10.2;14.0;-0.1
2.0;1753879331.864356;15.312845;0.6;-1.51;-0.31;1.021258;0.01756;0.005805;106.9;107.0;2.0;10.0;14.0;-0.1
2.0;1753879331.868952;15.313711;0.5;-1.41;-0.64;0.946604;0.006097;0.018776;107.6;107.0;-0.3;10.0;14.0;-0.1
2.0;1753879331.873548;15.315305;1.13;-2.09;0.66;1.003573;-0.056539;0.029103;108.5;107.0;-1.6;10.1;14.0;0.0
2.0;1753879331.88097;15.3125;0.91;-1.61;-0.35;0.99735;0.011102;0.006832;108.0;107.0;0.0;10.0;14.0;0.0
2.0;1753879331.885566;15.309164;0.43;-2.31;0.39;1.032748;0.050952;-0.010867;108.4;107.0;-0.2;10.0;14.0;-0.1
2.0;1753879331.890162;15.313149;0.84;-1.11;0.52;1.027953;0.049246;0.036054;108.2;107.0;1.2;10.3;14.0;-0.1
2.0;1753879331.894758;15.310743;0.4;-1.36;-1.72;0.950682;-0.048104;0.024919;105.0;107.0;-1.5;10.2;14.0;0.2
2.0;1753879331.899354;15.307312;0.87;-2.22;-1.04;1.007902;0.024005;0.014254;108.9;107.0;-0.3;10.1;14.0;-0.1
2.0;1753879331.90395;15.30802;-0.33;-1.33;-0.13;1.042393;0.051551;-0.001585;107.5;107.0;0.6;10.5;14.0;-0.2
2.0;1753879331.908546;15.306934;1.04;-2.04;-2.36;0.985549;-0.086332;-0.00606;109.7;107.0;-2.0;10.5;14.0;-0.3
2.0;1753879331.913142;15.304433;2.0;-1.79;-0.56;0.983859;-0.039994;-0.018126;108.0;107.0;-1.5;10.0;14.0;0.1
2.0;1753879331.917738;15.304081;0.98;-1.15;-1.78;0.979695;0.004797;0.010732;107.9;107.0;-0.6;10.9;14.0;0.2
2.0;1753879331.922334;15.305497;0.95;-2.39;-0.17;0.987056;0.084513;-0.006948;109.6;107.0;-2.6;10.7;14.0;-0.1
2.0;1753879331.92693;15.30291;1.06;-2.4;-1.31;1.04381;0.039485;0.023537;109.1;107.0;0.3;10.7;14.0;0.0
2.0;1753879331.931526;15.300724;0.92;-1.3;-1.89;0.964936;-0.056699;0.002632;110.3;107.0;-0.7;10.9;14.0;-0.3
2.0;1753879331.936122;15.302177;1.07;-2.74;-2.13;0.954789;0.024732;-0.003496;108.6;107.0;-1.1;11.2;14.0;0.2
2.0;1753879331.940718;15.29948;1.0;-2.56;-1.29;1.010951;0.022973;0.004194;110.5;107.0;1.0;10.8;14.0;-0.0
2.0;1753879331.945314;15.297195;0.36;-1.97;-1.57;1.010639;0.04098;-0.000498;110.4;107.0;0.4;10.6;14.0;0.2
2.0;1753879331.94955;15.296875;0.91;-1.68;-0.28;0.995154;0.016592;0.0061;110.0;107.0;0.0;11.0;14.0;0.0
2.0;1753879331.954146;15.295603;0.5;-2.44;-1.12;0.988133;-0.109725;0.007445;112.4;107.0;1.8;10.8;14.0;0.2
2.0;1753879331.958742;15.298438;0.63;-1.58;-0.82;1.005172;0.029647;0.019714;112.8;107.0;-2.4;11.1;14.0;-0.0
2.0;1753879331.963338;15.295732;0.83;-1.57;-2.44;0.921372;0.015009;-0.014762;109.6;107.0;-1.7;11.2;14.0;0.0
2.0;1753879331.967934;15.298166;0.51;-0.62;0.38;1.018151;0.013837;0.007858;111.5;107.0;-1.6;10.8;14.0;0.1
2.0;1753879331.97596;15.296875;0.84;-1.75;-0.35;0.995154;0.016592;0.0061;110.0;107.0;0.0;11.0;14.0;0.0
2.0;1753879331.977274;15.332031;0.91;-1.61;-0.28;0.996496;0.013786;0.008052;112.0;107.0;0.0;12.0;14.0;0.0
2.0;1753879331.979958;15.332031;0.77;-1.61;-0.28;0.99613;0.015372;0.005734;112.0;107.0;0.0;12.0;14.0;0.0
2.0;1753879331.984431;15.332031;0.91;-1.61;-0.28;0.99613;0.015372;0.005734;112.0;107.0;0.0;12.0;14.0;0.0
2.0;1753879331.989071;15.296875;0.91;-1.68;-0.35;0.997594;0.014884;0.005246;112.0;107.0;0.0;12.0;14.0;0.0
2.0;1753879331.993667;15.286829;0.99;-1.71;-0.33;0.996418;0.013514;0.006873;114.2;107.0;0.0;12.1;14.0;0.0
2.0;1753879331.999296;15.296875;0.98;-1.68;-0.28;0.99674;0.01342;0.006832;112.0;107.0;0.0;12.0;14.0;0.0
2.0;1753879332.003892;15.321054;1.03;-1.67;-0.23;0.996882;0.012806;0.008289;112.2;107.0;0.0;13.2;14.0;0.0
2.0;1753879332.008488;15.291193;0.98;-1.66;-0.27;0.995781;0.014961;0.008175;115.7;107.0;0.0;12.5;14.0;0.0
2.0;1753879332.013084;15.300786;0.93;-1.74;-0.3;0.997481;0.012048;0.004975;108.4;107.0;0.0;11.7;14.0;0.0
2.0;1753879332.01768;15.275168;0.99;-1.72;-0.23;0.997479;0.013061;0.006063;113.1;107.0;0.0;12.3;14.0;0.0
2.0;1753879332.022276;15.308648;1.03;-1.68;-0.27;0.996431;0.012466;0.00648;113.4;107.0;0.0;11.7;14.0;0.0
2.0;1753879332.026872;15.306432;0.96;-1.64;-0.28;0.995727;0.013311;0.006114;112.0;107.0;0.0;11.5;14.0;0.0
2.0;1753879332.031468;15.257748;1.02;-1.69;-0.3;0.996715;0.01383;0.007842;112.4;107.0;0.0;12.6;14.0;0.0
2.0;1753879332.036064;15.302788;1.03;-1.63;-0.29;0.997965;0.015079;0.007519;113.0;107.0;0.0;11.9;14.0;0.0
2.0;1753879332.04066;15.246933;0.89;-1.67;-0.25;0.996059;0.014165;0.007201;113.6;107.0;0.0;11.4;14.0;0.0
2.0;1753879332.045256;15.275722;0.99;-1.67;-0.29;0.996811;0.015935;0.007137;113.8;107.0;0.0;12.4;14.0;0.0
2.0;1753879332.049852;15.310925;0.93;-1.73;-0.18;0.996144;0.014564;0.007757;111.1;107.0;0.0;10.4;14.0;0.0
2.0;1753879332.054448;15.259361;1.01;-1.63;-0.26;0.998062;0.012176;0.006838;113.0;107.0;0.0;12.7;14.0;0.0
2.0;1753879332.059044;15.305307;0.99;-1.68;-0.34;0.997129;0.015434;0.007754;109.0;107.0;0.0;13.0;14.0;0.0
2.0;1753879332.06364;15.301498;1.01;-1.67;-0.36;0.997002;0.013858;0.007687;113.3;107.0;0.0;11.3;14.0;0.0
2.0;1753879332.068236;15.328044;0.93;-1.65;-0.3;0.996369;0.015303;0.005046;114.8;107.0;0.0;12.4;14.0;0.0
2.0;1753879332.072832;15.319524;0.92;-1.6;-0.34;0.996808;0.014484;0.007647;115.1;107.0;0.0;11.8;14.0;0.0
2.0;1753879332.077428;15.339351;1.07;-1.7;-0.32;0.995986;0.01439;0.006932;109.7;107.0;0.0;14.4;14.0;0.0
2.0;1753879332.082024;15.317138;1.04;-1.65;-0.4;0.997069;0.014478;0.006718;111.6;107.0;0.0;11.1;14.0;0.0
2.0;1753879332.08662;15.290355;0.91;-1.68;-0.36;0.996506;0.015318;0.006929;110.4;107.0;0.0;11.6;14.0;0.0
2.0;1753879332.091216;15.330127;1.0;-1.69;-0.42;0.998004;0.015841;0.006245;113.2;107.0;0.0;12.8;14.0;0.0
2.0;1753879332.095812;15.3258;1.03;-1.69;-0.25;0.997244;0.014357;0.006706;113.0;107.0;0.0;12.3;14.0;0.0
2.0;1753879332.100408;15.27513;0.92;-1.65;-0.33;0.996959;0.014983;0.005516;108.7;107.0;0.0;12.3;14.0;0.0
2.0;1753879332.105004;15.342455;0.97;-1.63;-0.31;0.996337;0.014757;0.006622;112.4;107.0;0.0;11.7;14.0;0.0
2.0;1753879332.1096;15.293099;0.93;-1.66;-0.47;0.997637;0.013201;0.006813;112.9;107.0;0.0;13.1;14.0;0.0
2.0;1753879332.114196;15.315737;0.91;-1.63;-0.32;0.996064;0.015772;0.006112;111.7;107.0;0.0;11.8;14.0;0.0
2.0;1753879332.118792;15.286324;0.93;-1.61;-0.3;0.995747;0.015998;0.006582;114.2;107.0;0.0;12.6;14.0;0.0
2.0;1753879332.123388;15.265322;1.01;-1.64;-0.37;0.997;0.013719;0.00671;112.6;107.0;0.0;11.8;14.0;0.0
2.0;1753879332.127984;15.244308;0.91;-1.64;-0.35;0.997226;0.017058;0.004986;114.7;107.0;0.0;11.0;14.0;0.0
2.0;1753879332.13258;15.266988;1.04;-1.67;-0.37;0.997552;0.015049;0.006501;115.3;107.0;0.0;11.4;14.0;0.0
2.0;1753879332.137176;15.298063;0.88;-1.66;-0.24;0.997014;0.016333;0.003793;111.1;107.0;0.0;11.7;14.0;0.0
2.0;1753879332.141772;15.282733;0.94;-1.63;-0.31;0.997716;0.014618;0.005253;109.8;107.0;0.0;12.6;14.0;0.0
2.0;1753879332.146368;15.31336;0.95;-1.56;-0.38;0.996278;0.01564;0.006723;111.1;107.0;0.0;12.0;14.0;0.0
2.0;1753879332.150964;15.307749;0.97;-1.71;-0.3;0.997012;0.012993;0.006565;112.9;107.0;0.0;11.8;14.0;0.0
2.0;1753879332.15556;15.322656;0.9;-1.62;-0.32;0.996685;0.016689;0.006346;111.6;107.0;0.0;11.9;14.0;0.0
2.0;1753879332.160156;15.219296;0.86;-1.63;-0.3;0.995957;0.014474;0.007621;113.1;107.0;0.0;11.7;14.0;0.0
2.0;1753879332.164752;15.276823;0.97;-1.66;-0.38;0.996567;0.017054;0.006629;112.1;107.0;0.0;12.3;14.0;0.0
2.0;1753879332.169348;15.314729;0.99;-1.6;-0.35;0.996764;0.016401;0.007317;111.9;107.0;0.0;12.1;14.0;0.0
2.0;1753879332.173944;15.331484;1.08;-1.64;-0.35;0.99686;0.013516;0.005436;111.2;107.0;0.0;11.7;14.0;0.0
2.0;1753879332.17854;15.277146;0.92;-1.67;-0.35;0.997191;0.017764;0.00592;113.9;107.0;0.0;10.5;14.0;0.0
2.0;1753879332.183136;15.323778;0.93;-1.62;-0.4;0.997753;0.016225;0.005348;112.9;107.0;0.0;11.3;14.0;0.0
2.0;1753879332.187732;15.30258;1.0;-1.62;-0.37;0.996786;0.016673;0.00613;111.9;107.0;0.0;12.6;14.0;0.0
2.0;1753879332.192328;15.256494;0.99;-1.56;-0.39;0.997932;0.015073;0.006077;111.5;107.0;0.0;12.9;14.0;0.0
2.0;1753879332.196924;15.306761;0.96;-1.64;-0.47;0.997083;0.016959;0.006249;113.7;107.0;0.0;12.2;14.0;0.0
2.0;1753879332.20152;15.321983;0.85;-1.69;-0.36;0.996957;0.015439;0.005421;112.1;107.0;0.0;12.5;14.0;0.0
2.0;1753879332.206116;15.326372;0.98;-1.61;-0.43;0.99739;0.01574;0.005843;111.3;107.0;0.0;11.4;14.0;0.0
2.0;1753879332.210712;15.299005;0.95;-1.64;-0.34;0.996681;0.016553;0.006701;112.6;107.0;0.0;12.3;14.0;0.0
2.0;1753879332.215308;15.283051;1.06;-1.58;-0.35;0.997323;0.014468;0.007159;112.3;107.0;0.0;12.1;14.0;0.0
2.0;1753879332.219904;15.288307;0.94;-1.62;-0.39;0.995817;0.014909;0.007142;107.8;107.0;0.0;12.6;14.0;0.0
2.0;1753879332.2245;15.330825;0.93;-1.61;-0.41;0.996968;0.019462;0.005678;112.7;107.0;0.0;11.2;14.0;0.0
2.0;1753879332.229096;15.2619;0.92;-1.6;-0.44;0.995574;0.017047;0.006117;111.5;107.0;0.0;11.5;14.0;0.0
2.0;1753879332.233692;15.280564;1.01;-1.6;-0.37;0.997312;0.016036;0.007288;113.9;107.0;0.0;11.6;14.0;0.0
2.0;1753879332.238288;15.269793;0.91;-1.56;-0.43;0.997554;0.016539;0.005984;114.7;107.0;0.0;11.4;14.0;0.0
2.0;1753879332.242884;15.295582;0.89;-1.65;-0.41;0.996633;0.017567;0.005145;111.3;107.0;0.0;10.9;14.0;0.0
2.0;1753879332.24748;15.331175;0.92;-1.59;-0.31;0.996112;0.01693;0.005709;110.0;107.0;0.0;13.7;14.0;0.0
2.0;1753879332.252076;15.351241;1.11;-1.65;-0.38;0.995836;0.016884;0.006952;111.7;107.0;0.0;11.9;14.0;0.0
2.0;1753879332.256672;15.306314;0.97;-1.66;-0.43;0.996699;0.01731;0.008171;115.1;107.0;0.0;12.9;14.0;0.0
2.0;1753879332.261268;15.331544;0.78;-1.6;-0.34;0.998315;0.016776;0.006515;113.6;107.0;0.0;12.4;14.0;0.0
2.0;1753879332.265864;15.289661;0.85;-1.6;-0.38;0.997848;0.019322;0.005555;113.6;107.0;0.0;11.9;14.0;0.0
2.0;1753879332.27046;15.308808;0.84;-1.62;-0.38;0.995819;0.016893;0.005113;111.3;107.0;0.0;12.4;14.0;0.0
2.0;1753879332.2779;15.296875;0.91;-1.61;-0.42;0.996984;0.016958;0.005856;112.0;107.0;0.0;12.0;14.0;0.0
2.0;1753879332.282496;15.282609;0.91;-1.62;-0.39;0.996615;0.016743;0.006955;109.7;107.0;0.0;12.1;14.0;0.0
2.0;1753879332.287092;15.305387;0.91;-1.65;-0.44;0.996292;0.015116;0.004579;110.1;107.0;0.0;12.0;14.0;0.0
2.0;1753879332.291688;15.292265;0.84;-1.61;-0.44;0.996598;0.017954;0.005743;112.5;107.0;0.0;12.9;14.0;0.0
2.0;1753879332.296284;15.3194;0.99;-1.7;-0.34;0.997091;0.016129;0.004264;112.6;107.0;0.0;12.4;14.0;0.0
2.0;1753879332.30088;15.294905;0.91;-1.65;-0.36;0.996495;0.01671;0.006988;108.7;107.0;0.0;11.7;14.0;0.0
2.0;1753879332.305476;15.304369;0.95;-1.59;-0.44;0.995887;0.017436;0.0036;112.8;107.0;0.0;12.2;14.0;0.0
2.0;1753879332.310072;15.280429;0.93;-1.6;-0.44;0.996246;0.018296;0.005232;113.7;107.0;0.0;12.2;14.0;0.0
2.0;1753879332.314668;15.296124;0.87;-1.55;-0.4;0.996889;0.015877;0.00512;114.3;107.0;0.0;12.5;14.0;0.0
2.0;1753879332.319264;15.30138;0.96;-1.62;-0.43;0.996387;0.015733;0.005928;111.6;107.0;0.0;11.4;14.0;0.0
2.0;1753879332.32386;15.293053;0.89;-1.57;-0.51;0.997004;0.018671;0.005765;111.6;107.0;0.0;11.5;14.0;0.0
2.0;1753879332.328456;15.272157;0.97;-1.57;-0.36;0.996648;0.016229;0.006381;111.9;107.0;0.0;12.4;14.0;0.0
2.0;1753879332.333052;15.249841;0.92;-1.7;-0.31;0.996901;0.016211;0.006768;111.5;107.0;0.0;12.2;14.0;0.0
2.0;1753879332.337648;15.316085;0.98;-1.6;-0.45;0.995646;0.015738;0.005097;112.8;107.0;0.0;11.9;14.0;0.0
2.0;1753879332.342244;15.251563;0.93;-1.59;-0.34;0.997217;0.017545;0.005502;113.2;107.0;0.0;11.6;14.0;0.0
2.0;1753879332.34684;15.309342;0.76;-1.61;-0.34;0.997384;0.016707;0.005905;112.9;107.0;0.0;12.7;14.0;0.0
2.0;1753879332.351436;15.298879;0.92;-1.61;-0.43;0.996421;0.018799;0.004634;111.3;107.0;0.0;11.0;14.0;0.0
2.0;1753879332.356032;15.307657;0.8;-1.6;-0.4;0.996392;0.015393;0.004599;112.2;107.0;0.0;11.7;14.0;0.0
2.0;1753879332.360628;15.287448;0.97;-1.6;-0.39;0.99691;0.015414;0.005891;114.6;107.0;0.0;11.3;14.0;0.0
2.0;1753879332.365224;15.259334;0.87;-1.57;-0.48;0.99759;0.017443;0.004377;111.2;107.0;0.0;11.9;14.0;0.0
2.0;1753879332.36982;15.328945;1.0;-1.57;-0.45;0.99707;0.016317;0.007454;107.9;107.0;0.0;12.6;14.0;0.0
2.0;1753879332.374416;15.324757;0.85;-1.59;-0.4;0.99688;0.017325;0.006602;113.7;107.0;0.0;13.0;14.0;0.0
2.0;1753879332.379012;15.31163;0.84;-1.57;-0.4;0.997535;0.016469;0.006961;112.8;107.0;0.0;12.7;14.0;0.0
2.0;1753879332.383608;15.297317;0.93;-1.59;-0.43;0.996977;0.015765;0.005417;113.6;107.0;0.0;11.6;14.0;0.0
2.0;1753879332.388204;15.247155;0.96;-1.6;-0.38;0.996461;0.017549;0.006436;113.6;107.0;0.0;10.8;14.0;0.0
2.0;1753879332.3928;15.31975;0.97;-1.64;-0.43;0.997727;0.018212;0.006972;112.2;107.0;0.0;12.4;14.0;0.0
2.0;1753879332.397396;15.324663;0.99;-1.62;-0.45;0.997215;0.017142;0.006637;110.3;107.0;0.0;11.2;14.0;0.0
2.0;1753879332.401992;15.283507;1.0;-1.59;-0.44;0.995861;0.014491;0.005621;112.5;107.0;0.0;11.0;14.0;0.0
2.0;1753879332.406588;15.249587;0.93;-1.62;-0.43;0.996356;0.016132;0.007692;109.6;107.0;0.0;13.1;14.0;0.0
2.0;1753879332.411184;15.282666;0.96;-1.64;-0.43;0.99622;0.016769;0.00617;108.2;107.0;0.0;12.2;14.0;0.0
2.0;1753879332.41578;15.319999;0.86;-1.62;-0.45;0.996702;0.018859;0.006816;109.9;107.0;0.0;12.4;14.0;0.0
2.0;1753879332.420376;15.338236;0.9;-1.59;-0.36;0.996639;0.015353;0.005758;111.5;107.0;0.0;13.1;14.0;0.0
2.0;1753879332.424972;15.349036;0.88;-1.61;-0.37;0.99783;0.016334;0.006286;111.3;107.0;0.0;11.4;14.0;0.0
2.0;1753879332.429568;15.334432;1.17;-1.6;-0.37;0.997329;0.015215;0.007;111.7;107.0;0.0;12.1;14.0;0.0
2.0;1753879332.434164;15.344971;0.81;-1.64;-0.52;0.996486;0.016982;0.006937;110.2;107.0;0.0;11.8;14.0;0.0
2.0;1753879332.43876;15.335876;0.97;-1.59;-0.4;0.996564;0.01784;0.006839;111.1;107.0;0.0;11.6;14.0;0.0
2.0;1753879332.443356;15.273259;0.95;-1.67;-0.45;0.997868;0.017433;0.007784;107.4;107.0;0.0;11.6;14.0;0.0
2.0;1753879332.447952;15.295736;0.98;-1.56;-0.44;0.99618;0.017186;0.005345;112.2;107.0;0.0;10.7;14.0;0.0
2.0;1753879332.452548;15.306175;0.98;-1.64;-0.39;0.996113;0.018493;0.009011;110.3;107.0;0.0;11.9;14.0;0.0
2.0;1753879332.457144;15.287198;0.87;-1.58;-0.4;0.996995;0.0182;0.006347;110.4;107.0;0.0;13.0;14.0;0.0
2.0;1753879332.46174;15.344567;0.98;-1.61;-0.44;0.99747;0.01769;0.005527;113.8;107.0;0.0;11.3;14.0;0.0
2.0;1753879332.466336;15.286152;0.87;-1.67;-0.43;0.998211;0.016383;0.00508;112.7;107.0;0.0;11.3;14.0;0.0
2.0;1753879332.470932;15.329856;0.94;-1.65;-0.51;0.996543;0.015663;0.005703;109.2;107.0;0.0;11.8;14.0;0.0
2.0;1753879332.475528;15.320819;0.84;-1.54;-0.35;0.996334;0.016323;0.006622;110.9;107.0;0.0;11.1;14.0;0.0
2.0;1753879332.480124;15.300978;0.94;-1.65;-0.43;0.996298;0.015937;0.006665;117.3;107.0;0.0;10.6;14.0;0.0
2.0;1753879332.48472;15.265019;0.93;-1.54;-0.37;0.997225;0.017376;0.006336;109.6;107.0;0.0;11.7;14.0;0.0
2.0;1753879332.489316;15.306813;0.92;-1.65;-0.38;0.998003;0.01879;0.007013;112.2;107.0;0.0;13.5;14.0;0.0
2.0;1753879332.493912;15.293471;0.96;-1.61;-0.46;0.996942;0.01528;0.006061;110.0;107.0;0.0;11.2;14.0;0.0
2.0;1753879332.498508;15.329578;0.84;-1.65;-0.45;0.997424;0.013681;0.006213;107.0;107.0;0.0;12.3;14.0;0.0
2.0;1753879332.503104;15.301208;1.0;-1.64;-0.46;0.995532;0.016508;0.005918;112.3;107.0;0.0;11.2;14.0;0.0
2.0;1753879332.5077;15.280254;0.87;-1.66;-0.39;0.997433;0.016205;0.006755;110.6;107.0;0.0;11.5;14.0;0.0
2.0;1753879332.512296;15.333031;1.0;-1.56;-0.32;0.99685;0.016044;0.008066;115.1;107.0;0.0;11.0;14.0;0.0
2.0;1753879332.516892;15.378845;1.02;-1.71;-0.39;0.996588;0.016135;0.007788;113.7;107.0;0.0;11.5;14.0;0.0
2.0;1753879332.521488;15.324682;0.9;-1.58;-0.44;0.99689;0.017268;0.008187;115.1;107.0;0.0;12.8;14.0;0.0
2.0;1753879332.526084;15.269318;0.9;-1.58;-0.36;0.996727;0.017394;0.006937;110.8;107.0;0.0;11.9;14.0;0.0
2.0;1753879332.53068;15.278053;0.99;-1.61;-0.49;0.99684;0.015572;0.006844;114.2;107.0;0.0;12.3;14.0;0.0
2.0;1753879332.535276;15.32651;0.94;-1.59;-0.32;0.996988;0.015274;0.007224;116.4;107.0;0.0;10.9;14.0;0.0
2.0;1753879332.539872;15.289924;0.94;-1.55;-0.36;0.996336;0.014914;0.007136;113.1;107.0;0.0;12.6;14.0;0.0
2.0;1753879332.544468;15.38258;0.95;-1.56;-0.47;0.997257;0.016917;0.007123;111.7;107.0;0.0;11.6;14.0;0.0
2.0;1753879332.549064;15.346747;0.96;-1.59;-0.48;0.996286;0.015564;0.008284;114.4;107.0;0.0;12.7;14.0;0.0
2.0;1753879332.55366;15.32714;0.91;-1.58;-0.34;0.997513;0.017987;0.006266;110.8;107.0;0.0;11.3;14.0;0.0
2.0;1753879332.558256;15.331816;0.97;-1.59;-0.43;0.997643;0.014327;0.008658;109.6;107.0;0.0;12.8;14.0;0.0
2.0;1753879332.562852;15.341914;0.96;-1.56;-0.4;0.996423;0.015248;0.007367;111.0;107.0;0.0;12.3;14.0;0.0
2.0;1753879332.567448;15.30321;0.86;-1.59;-0.38;0.997599;0.017012;0.005671;110.0;107.0;0.0;11.4;14.0;0.0
2.0;1753879332.572044;15.304447;0.92;-1.56;-0.33;0.995883;0.015023;0.006558;114.9;107.0;0.0;12.7;14.0;0.0
2.0;1753879332.57664;15.299747;0.99;-1.58;-0.37;0.997296;0.017493;0.007348;113.8;107.0;0.0;12.8;14.0;0.0
2.0;1753879332.581236;15.299426;0.93;-1.66;-0.32;0.998537;0.017447;0.007265;109.4;107.0;0.0;12.2;14.0;0.0
2.0;1753879332.585832;15.316864;1.05;-1.63;-0.48;0.997303;0.016508;0.00783;111.8;107.0;0.0;11.8;14.0;0.0
2.0;1753879332.590428;15.331553;0.98;-1.57;-0.45;0.996199;0.016572;0.006965;111.4;107.0;0.0;11.3;14.0;0.0
2.0;1753879332.595024;15.351572;0.9;-1.65;-0.41;0.996703;0.017073;0.007899;112.6;107.0;0.0;12.3;14.0;0.0
2.0;1753879332.59962;15.353791;0.85;-1.57;-0.49;0.997394;0.016643;0.00818;111.0;107.0;0.0;12.7;14.0;0.0
2.0;1753879332.604216;15.330962;0.89;-1.61;-0.43;0.997387;0.014426;0.007811;111.8;107.0;0.0;12.5;14.0;0.0
2.0;1753879332.608812;15.303122;0.87;-1.64;-0.41;0.997076;0.01813;0.007835;109.9;107.0;0.0;13.2;14.0;0.0
2.0;1753879332.613408;15.350606;0.87;-1.58;-0.43;0.996786;0.016577;0.007777;114.0;107.0;0.0;10.7;14.0;0.0
2.0;1753879332.618004;15.303181;0.87;-1.62;-0.43;0.996933;0.015962;0.00747;111.0;107.0;0.0;12.5;14.0;0.0
2.0;1753879332.6226;15.341342;0.89;-1.59;-0.35;0.996624;0.017327;0.008157;110.9;107.0;0.0;11.8;14.0;0.0
2.0;1753879332.627196;15.302852;0.82;-1.6;-0.45;0.99662;0.014356;0.007962;115.1;107.0;0.0;13.7;14.0;0.0
2.0;1753879332.631792;15.333564;0.94;-1.63;-0.37;0.998443;0.015064;0.00827;110.5;107.0;0.0;11.0;14.0;0.0
2.0;1753879332.636388;15.267881;1.01;-1.59;-0.36;0.996902;0.0183;0.006091;112.0;107.0;0.0;11.4;14.0;0.0
2.0;1753879332.640984;15.341011;0.94;-1.58;-0.36;0.995922;0.015634;0.008951;112.6;107.0;0.0;11.2;14.0;0.0
2.0;1753879332.64558;15.301344;0.73;-1.66;-0.46;0.997519;0.017986;0.007441;111.0;107.0;0.0;12.3;14.0;0.0
2.0;1753879332.650176;15.346198;1.0;-1.68;-0.27;0.997873;0.01579;0.009677;110.7;107.0;0.0;11.1;14.0;0.0
2.0;1753879332.654772;15.33281;0.91;-1.61;-0.39;0.996542;0.016336;0.006077;114.7;107.0;0.0;13.1;14.0;0.0
2.0;1753879332.659368;15.33497;0.89;-1.67;-0.39;0.996655;0.015221;0.008624;113.4;107.0;0.0;12.4;14.0;0.0
2.0;1753879332.663964;15.353342;0.91;-1.64;-0.32;0.997203;0.015853;0.008279;113.3;107.0;0.0;11.3;14.0;0.0
2.0;1753879332.66856;15.277641;0.97;-1.63;-0.35;0.997178;0.016146;0.008053;113.2;107.0;0.0;12.9;14.0;0.0
2.0;1753879332.673156;15.32297;0.82;-1.68;-0.31;0.99565;0.017884;0.007178;110.2;107.0;0.0;14.0;14.0;0.0
2.0;1753879332.677752;15.320429;0.91;-1.61;-0.36;0.996683;0.014575;0.007492;110.5;107.0;0.0;11.2;14.0;0.0
2.0;1753879332.682348;15.347939;0.99;-1.6;-0.36;0.996036;0.016152;0.008634;113.5;107.0;0.0;11.8;14.0;0.0
2.0;1753879332.686944;15.377301;0.92;-1.61;-0.29;0.997142;0.014527;0.008189;116.0;107.0;0.0;11.9;14.0;0.0
2.0;1753879332.69154;15.311713;0.9;-1.66;-0.34;0.997219;0.01729;0.008531;113.8;107.0;0.0;11.8;14.0;0.0
2.0;1753879332.696136;15.319888;0.9;-1.61;-0.37;0.997631;0.016581;0.00645;109.2;107.0;0.0;10.9;14.0;0.0
2.0;1753879332.700732;15.285163;0.96;-1.68;-0.37;0.996891;0.016124;0.007909;110.2;107.0;0.0;11.8;14.0;0.0
2.0;1753879332.705328;15.299292;0.84;-1.62;-0.29;0.997064;0.015182;0.008884;112.6;107.0;0.0;10.7;14.0;0.0
2.0;1753879332.709924;15.408293;0.88;-1.55;-0.29;0.99643;0.015812;0.006902;112.7;107.0;0.0;12.2;14.0;0.0
2.0;1753879332.71452;15.346702;0.92;-1.69;-0.42;0.997044;0.016924;0.005109;112.1;107.0;0.0;11.9;14.0;0.0
2.0;1753879332.719116;15.360044;0.94;-1.62;-0.32;0.996688;0.014947;0.007409;113.5;107.0;0.0;12.6;14.0;0.0
2.0;1753879332.723712;15.289588;0.93;-1.69;-0.35;0.997175;0.015179;0.007674;113.3;107.0;0.0;12.1;14.0;0.0
2.0;1753879332.728308;15.292593;0.85;-1.63;-0.39;0.997618;0.015125;0.007566;111.3;107.0;0.0;11.9;14.0;0.0
2.0;1753879332.737;15.320312;0.91;-1.61;-0.35;0.996862;0.016104;0.007808;112.0;107.0;0.0;12.0;14.0;0.0
2.0;1753879332.741596;15.343461;0.79;-1.72;-0.32;0.997186;0.015384;0.007457;106.0;107.0;0.0;12.7;14.0;0.0
2.0;1753879332.74929;15.308594;0.91;-1.75;-0.35;0.996374;0.014274;0.005124;101.0;107.0;0.0;14.0;14.0;0.0
2.0;1753879332.753886;15.312155;0.87;-1.76;-0.35;0.996278;0.019211;0.00601;98.6;107.0;0.0;15.1;14.0;0.0
2.0;1753879332.75955;15.308594;0.91;-1.68;-0.35;0.997106;0.016226;0.005978;101.0;107.0;0.0;14.0;14.0;0.0
2.0;1753879332.764146;15.341516;0.85;-1.56;-0.35;0.997025;0.013296;0.005619;117.4;107.0;0.0;14.2;14.0;0.0
2.0;1753879332.768742;15.285609;0.9;-1.72;-0.41;0.996871;0.016919;0.006362;114.7;107.0;0.0;15.1;14.0;0.0
2.0;1753879332.773338;15.304782;0.84;-1.75;-0.26;0.996824;0.016063;0.005943;102.3;107.0;0.0;12.7;14.0;0.0
2.0;1753879332.777934;15.331107;0.95;-1.6;-0.34;0.996603;0.012867;0.005462;98.1;107.0;0.0;15.1;14.0;0.0
2.0;1753879332.78253;15.325694;0.91;-1.63;-0.36;0.997211;0.017986;0.007189;101.1;107.0;0.0;14.5;14.0;0.0
2.0;1753879332.787126;15.330447;0.85;-1.66;-0.38;0.996922;0.017091;0.00679;105.9;107.0;0.0;14.5;14.0;0.0
2.0;1753879332.791722;15.342312;0.96;-1.63;-0.37;0.996885;0.012928;0.006708;97.4;107.0;0.0;13.9;14.0;0.0
2.0;1753879332.796318;15.360714;0.87;-1.65;-0.42;0.997269;0.017228;0.006692;101.9;107.0;0.0;14.3;14.0;0.0
2.0;1753879332.800914;15.365895;0.98;-1.67;-0.31;0.99678;0.015249;0.007567;101.4;107.0;0.0;12.5;14.0;0.0
2.0;1753879332.80582;15.347656;0.91;-1.68;-0.42;0.996496;0.014884;0.007076;101.0;107.0;0.0;14.0;14.0;0.0
2.0;1753879332.810416;15.339017;0.88;-1.67;-0.43;0.997506;0.016374;0.007008;98.5;107.0;0.0;13.6;14.0;0.0
2.0;1753879332.815012;15.342165;0.87;-1.62;-0.35;0.996645;0.014581;0.006987;100.2;107.0;0.0;12.1;14.0;0.0
2.0;1753879332.819608;15.326352;0.94;-1.72;-0.38;0.996668;0.014794;0.006823;99.1;107.0;0.0;15.0;14.0;0.0
2.0;1753879332.824204;15.36075;0.9;-1.58;-0.31;0.99616;0.012881;0.006397;96.4;107.0;0.0;14.5;14.0;0.0
2.0;1753879332.8288;15.366598;0.94;-1.71;-0.39;0.997024;0.018477;0.006797;93.4;107.0;0.0;13.1;14.0;0.0
2.0;1753879332.833396;15.330117;1.02;-1.68;-0.24;0.997866;0.015861;0.006709;96.9;107.0;0.0;13.9;14.0;0.0
2.0;1753879332.837992;15.319661;1.0;-1.72;-0.36;0.997004;0.015519;0.006943;105.0;107.0;0.0;12.5;14.0;0.0
2.0;1753879332.842588;15.306093;1.0;-1.66;-0.33;0.996427;0.020678;0.007061;104.0;107.0;0.0;15.9;14.0;0.0
2.0;1753879332.847184;15.322549;1.02;-1.65;-0.21;0.997229;0.016996;0.005639;101.1;107.0;0.0;14.6;14.0;0.0
2.0;1753879332.85169;15.347656;0.98;-1.68;-0.28;0.996984;0.017324;0.006954;101.0;107.0;0.0;14.0;14.0;0.0
2.0;1753879332.856286;15.352871;0.87;-1.69;-0.34;0.996852;0.019071;0.006398;101.8;107.0;0.0;11.4;14.0;0.0
2.0;1753879332.860882;15.343796;1.06;-1.59;-0.27;0.996123;0.017577;0.005614;96.8;107.0;0.0;15.1;14.0;0.0
2.0;1753879332.865478;15.322126;0.97;-1.7;-0.32;0.997408;0.015215;0.006814;101.5;107.0;0.0;14.0;14.0;0.0
2.0;1753879332.870074;15.34951;1.06;-1.66;-0.31;0.997179;0.015436;0.005793;104.2;107.0;0.0;13.9;14.0;0.0
2.0;1753879332.87467;15.340292;0.89;-1.67;-0.37;0.997288;0.011278;0.006642;90.2;107.0;0.0;12.2;14.0;0.0
2.0;1753879332.879266;15.343181;0.98;-1.59;-0.28;0.996733;0.011458;0.007627;95.5;107.0;0.0;17.8;14.0;0.0
2.0;1753879332.883862;15.342647;0.97;-1.61;-0.25;0.997321;0.015614;0.006111;106.3;107.0;0.0;13.4;14.0;0.0
2.0;1753879332.888458;15.327974;0.94;-1.77;-0.29;0.997356;0.014192;0.005036;105.6;107.0;0.0;11.6;14.0;0.0
2.0;1753879332.89677;15.347656;0.91;-1.68;-0.35;0.997472;0.013298;0.006222;101.0;107.0;0.0;14.0;14.0;0.0
2.0;1753879332.901366;15.354078;0.97;-1.68;-0.31;0.998667;0.014772;0.006099;97.6;107.0;0.0;12.6;14.0;0.0
2.0;1753879332.905962;15.323695;0.91;-1.63;-0.4;0.996885;0.015062;0.005821;101.5;107.0;0.0;17.2;14.0;0.0
2.0;1753879332.910558;15.330381;0.96;-1.6;-0.36;0.996234;0.011865;0.00632;101.0;107.0;0.0;14.8;14.0;0.0
2.0;1753879332.915154;15.35238;0.81;-1.58;-0.3;0.997136;0.015665;0.005105;99.7;107.0;0.0;14.6;14.0;0.0
2.0;1753879332.91975;15.327458;0.88;-1.73;-0.3;0.997407;0.012102;0.004724;98.0;107.0;0.0;14.4;14.0;0.0
2.0;1753879332.924346;15.343232;0.96;-1.63;-0.32;0.996599;0.015096;0.008779;93.6;107.0;0.0;15.9;14.0;0.0
2.0;1753879332.928942;15.38595;0.94;-1.66;-0.39;0.997137;0.012041;0.005876;100.1;107.0;0.0;12.9;14.0;0.0
2.0;1753879332.933538;15.356447;0.98;-1.7;-0.34;0.996114;0.014403;0.005934;100.8;107.0;0.0;16.7;14.0;0.0
2.0;1753879332.938134;15.336748;0.85;-1.63;-0.33;0.996813;0.016677;0.00558;96.2;107.0;0.0;16.5;14.0;0.0
2.0;1753879332.94273;15.324299;0.89;-1.71;-0.32;0.995482;0.014734;0.006774;106.6;107.0;0.0;10.8;14.0;0.0
2.0;1753879332.947326;15.320739;0.95;-1.69;-0.27;0.996364;0.013892;0.007179;103.8;107.0;0.0;13.4;14.0;0.0
2.0;1753879332.951922;15.350031;0.9;-1.69;-0.3;0.996286;0.015215;0.006025;92.7;107.0;0.0;15.5;14.0;0.0
2.0;1753879332.956518;15.368626;0.85;-1.67;-0.29;0.995881;0.014894;0.006401;102.4;107.0;0.0;14.3;14.0;0.0
2.0;1753879332.961114;15.365482;0.79;-1.68;-0.39;0.996286;0.015062;0.006744;102.0;107.0;0.0;10.3;14.0;0.0
2.0;1753879332.96571;15.361167;0.94;-1.61;-0.34;0.996964;0.015012;0.00537;101.3;107.0;0.0;11.0;14.0;0.0
2.0;1753879332.970306;15.352606;0.91;-1.57;-0.33;0.995778;0.015058;0.004509;104.8;107.0;0.0;13.9;14.0;0.0
2.0;1753879332.9756;15.347656;0.91;-1.61;-0.35;0.996008;0.015372;0.00549;101.0;107.0;0.0;14.0;14.0;0.0
2.0;1753879332.980196;15.313386;0.94;-1.6;-0.36;0.995944;0.016467;0.00626;106.5;107.0;0.0;14.3;14.0;0.0
2.0;1753879332.98822;15.296875;0.91;-1.68;-0.35;0.995398;0.01525;0.005856;101.0;107.0;0.0;14.0;14.0;0.0
2.0;1753879332.990707;15.347656;0.91;-1.61;-0.28;0.99613;0.014884;0.005612;112.0;107.0;0.0;12.0;14.0;0.0
2.0;1753879332.995318;15.363281;0.98;-1.54;-0.35;0.997838;0.014274;0.006222;112.0;107.0;0.0;12.0;14.0;0.0
2.0;1753879332.999914;15.374866;0.98;-1.6;-0.33;0.998202;0.014128;0.00677;105.5;107.0;0.0;12.0;14.0;0.0
2.0;1753879333.00451;15.325889;0.97;-1.45;-0.31;0.997257;0.014837;0.00673;108.8;107.0;0.0;11.8;14.0;0.0
2.0;1753879333.009106;15.351063;1.01;-1.5;-0.42;0.99801;0.016756;0.005945;101.8;107.0;0.0;11.8;14.0;0.0
2.0;1753879333.013702;15.354454;0.98;-1.53;-0.3;0.99697;0.013684;0.006625;114.3;107.0;0.0;12.0;14.0;0.0
2.0;1753879333.018298;15.348288;1.03;-1.52;-0.28;0.997783;0.017066;0.005748;112.4;107.0;0.0;12.4;14.0;0.0
2.0;1753879333.022894;15.369877;0.91;-1.65;-0.36;0.997133;0.014513;0.006624;105.4;107.0;0.0;12.1;14.0;0.0
2.0;1753879333.02749;15.346566;0.97;-1.61;-0.42;0.99921;0.01585;0.006043;113.9;107.0;0.0;11.4;14.0;0.0
2.0;1753879333.032086;15.360259;0.98;-1.49;-0.36;0.996445;0.013836;0.005104;100.2;107.0;0.0;11.9;14.0;0.0
2.0;1753879333.036682;15.36919;0.98;-1.48;-0.36;0.998338;0.014449;0.006803;110.3;107.0;0.0;11.9;14.0;0.0
2.0;1753879333.041278;15.380115;0.94;-1.52;-0.32;0.999799;0.013531;0.005971;110.7;107.0;0.0;11.9;14.0;0.0
2.0;1753879333.045874;15.381963;0.93;-1.47;-0.32;0.997465;0.015381;0.006446;116.7;107.0;0.0;11.6;14.0;0.0
2.0;1753879333.05047;15.35905;1.0;-1.5;-0.37;0.997558;0.015412;0.006697;112.8;107.0;0.0;12.2;14.0;0.0
2.0;1753879333.055066;15.341476;1.09;-1.55;-0.31;0.997555;0.014101;0.006793;110.7;107.0;0.0;11.3;14.0;0.0
2.0;1753879333.059662;15.374336;0.92;-1.6;-0.31;0.997813;0.014923;0.004649;114.7;107.0;0.0;11.6;14.0;0.0
2.0;1753879333.064258;15.359485;0.92;-1.56;-0.4;0.998285;0.012188;0.006258;95.8;107.0;0.0;11.6;14.0;0.0
2.0;1753879333.068854;15.355527;1.05;-1.48;-0.35;0.997946;0.013676;0.006014;112.6;107.0;0.0;11.5;14.0;0.0
2.0;1753879333.07345;15.368991;1.04;-1.5;-0.39;0.997707;0.014469;0.00679;110.2;107.0;0.0;11.7;14.0;0.0
2.0;1753879333.078046;15.344587;0.99;-1.56;-0.41;0.998465;0.01593;0.005525;110.4;107.0;0.0;11.5;14.0;0.0
2.0;1753879333.082642;15.359281;0.96;-1.53;-0.35;0.997942;0.014993;0.005458;99.5;107.0;0.0;11.9;14.0;0.0
2.0;1753879333.087238;15.37655;0.94;-1.61;-0.4;0.99747;0.016011;0.007717;108.6;107.0;0.0;12.1;14.0;0.0
2.0;1753879333.091834;15.369253;1.0;-1.59;-0.4;0.998472;0.012943;0.004944;102.6;107.0;0.0;11.6;14.0;0.0
2.0;1753879333.09643;15.363547;0.98;-1.46;-0.37;0.996721;0.014334;0.006141;112.1;107.0;0.0;11.1;14.0;0.0
2.0;1753879333.101026;15.365074;1.04;-1.53;-0.31;0.99733;0.014079;0.007353;114.9;107.0;0.0;12.6;14.0;0.0
2.0;1753879333.105622;15.382455;0.9;-1.47;-0.36;0.998039;0.015668;0.006005;120.2;107.0;0.0;11.0;14.0;0.0
2.0;1753879333.110218;15.371813;0.94;-1.61;-0.38;0.997944;0.015833;0.006186;113.2;107.0;0.0;12.2;14.0;0.0
2.0;1753879333.114814;15.363768;0.92;-1.6;-0.35;0.997337;0.014207;0.006944;107.4;107.0;0.0;11.2;14.0;0.0
2.0;1753879333.11941;15.346919;0.97;-1.51;-0.32;0.996631;0.013198;0.005045;110.0;107.0;0.0;11.6;14.0;0.0
2.0;1753879333.124006;15.356826;1.06;-1.51;-0.36;0.996837;0.014732;0.006826;110.6;107.0;0.0;11.1;14.0;0.0
2.0;1753879333.128602;15.368457;0.89;-1.56;-0.34;0.998099;0.014526;0.005556;136.3;107.0;0.0;11.1;14.0;0.0
2.0;1753879333.133198;15.362853;0.92;-1.53;-0.35;0.997709;0.014957;0.005795;106.1;107.0;0.0;10.9;14.0;0.0
2.0;1753879333.137794;15.35133;0.99;-1.57;-0.31;0.997203;0.015494;0.006068;120.5;107.0;0.0;10.9;14.0;0.0
2.0;1753879333.14239;15.371821;1.0;-1.53;-0.37;0.99807;0.015154;0.006171;83.7;107.0;0.0;11.8;14.0;0.0
2.0;1753879333.146986;15.376394;0.92;-1.6;-0.35;0.997968;0.017638;0.005053;119.9;107.0;0.0;11.4;14.0;0.0
2.0;1753879333.151582;15.350494;0.95;-1.58;-0.37;0.996813;0.015627;0.006183;102.9;107.0;0.0;11.6;14.0;0.0
2.0;1753879333.156178;15.36461;0.99;-1.5;-0.4;0.998481;0.014587;0.005516;92.4;107.0;0.0;11.6;14.0;0.0
2.0;1753879333.160774;15.37869;0.96;-1.59;-0.35;0.997818;0.014436;0.005625;111.5;107.0;0.0;11.7;14.0;0.0
2.0;1753879333.16537;15.379608;0.92;-1.54;-0.35;0.997014;0.013269;0.004889;105.7;107.0;0.0;10.9;14.0;0.0
2.0;1753879333.169966;15.357653;0.9;-1.6;-0.37;0.996913;0.016682;0.006918;122.7;107.0;0.0;11.7;14.0;0.0
2.0;1753879333.174562;15.343444;0.9;-1.62;-0.44;0.996772;0.015168;0.007051;111.5;107.0;0.0;11.6;14.0;0.0
2.0;1753879333.179158;15.373636;0.93;-1.62;-0.32;0.996555;0.017234;0.006482;117.2;107.0;0.0;10.4;14.0;0.0
2.0;1753879333.183754;15.35243;1.02;-1.56;-0.38;0.996395;0.01581;0.005323;122.5;107.0;0.0;11.1;14.0;0.0
2.0;1753879333.18835;15.378939;1.02;-1.57;-0.3;0.996534;0.014636;0.005507;109.6;107.0;0.0;10.9;14.0;0.0
2.0;1753879333.192946;15.359236;0.93;-1.49;-0.41;0.996774;0.01364;0.005691;113.0;107.0;0.0;11.2;14.0;0.0
2.0;1753879333.197542;15.385658;0.96;-1.59;-0.32;0.996879;0.016313;0.004999;124.3;107.0;0.0;12.0;14.0;0.0
2.0;1753879333.202138;15.3668;0.92;-1.59;-0.35;0.997442;0.014299;0.005958;107.3;107.0;0.0;11.3;14.0;0.0
2.0;1753879333.206734;15.383913;0.97;-1.56;-0.27;0.997467;0.013758;0.005643;102.6;107.0;0.0;11.3;14.0;0.0
2.0;1753879333.21133;15.37852;1.01;-1.6;-0.4;0.997818;0.016232;0.006388;104.6;107.0;0.0;11.0;14.0;0.0
2.0;1753879333.215926;15.359201;0.91;-1.52;-0.35;0.996574;0.016873;0.005552;104.3;107.0;0.0;11.5;14.0;0.0
2.0;1753879333.220522;15.398687;0.91;-1.56;-0.35;0.997594;0.015438;0.005971;105.0;107.0;0.0;11.3;14.0;0.0
2.0;1753879333.225118;15.343192;0.89;-1.69;-0.34;0.997234;0.018009;0.005603;113.4;107.0;0.0;10.6;14.0;0.0
2.0;1753879333.229714;15.365883;0.85;-1.58;-0.41;0.997069;0.013481;0.005715;112.5;107.0;0.0;11.0;14.0;0.0
2.0;1753879333.23431;15.377151;1.03;-1.55;-0.36;0.996242;0.015123;0.006759;107.0;107.0;0.0;10.6;14.0;0.0
2.0;1753879333.238906;15.38642;1.02;-1.57;-0.38;0.998276;0.015475;0.006005;100.6;107.0;0.0;11.6;14.0;0.0
2.0;1753879333.243502;15.358414;1.02;-1.54;-0.36;0.997564;0.014962;0.006478;96.4;107.0;0.0;10.6;14.0;0.0
2.0;1753879333.248098;15.367508;0.99;-1.59;-0.34;0.996396;0.015644;0.006072;116.4;107.0;0.0;11.1;14.0;0.0
2.0;1753879333.252694;15.360836;0.86;-1.59;-0.27;0.996913;0.015209;0.006361;112.7;107.0;0.0;11.3;14.0;0.0
2.0;1753879333.25729;15.371702;0.93;-1.51;-0.34;0.996955;0.014644;0.005019;116.3;107.0;0.0;10.3;14.0;0.0
2.0;1753879333.261886;15.374933;0.86;-1.61;-0.33;0.998419;0.016403;0.006012;115.3;107.0;0.0;10.3;14.0;0.0
2.0;1753879333.266482;15.346485;0.93;-1.61;-0.37;0.995984;0.014946;0.006398;120.1;107.0;0.0;10.7;14.0;0.0
2.0;1753879333.271078;15.360709;0.9;-1.55;-0.32;0.995895;0.014199;0.00485;115.1;107.0;0.0;11.0;14.0;0.0
2.0;1753879333.275674;15.34907;0.93;-1.66;-0.3;0.99667;0.015119;0.00506;101.9;107.0;0.0;10.9;14.0;0.0
2.0;1753879333.28027;15.368885;0.87;-1.58;-0.4;0.996117;0.015009;0.006919;114.9;107.0;0.0;10.0;14.0;0.0
2.0;1753879333.284866;15.392082;0.91;-1.61;-0.3;0.996305;0.015069;0.006244;98.2;107.0;0.0;11.5;14.0;0.0
2.0;1753879333.289462;15.383679;1.0;-1.55;-0.4;0.997125;0.016191;0.005769;107.6;107.0;0.0;10.8;14.0;0.0
2.0;1753879333.294058;15.371919;0.94;-1.51;-0.32;0.99568;0.0169;0.005813;110.9;107.0;0.0;11.3;14.0;0.0
2.0;1753879333.298654;15.352889;0.98;-1.57;-0.33;0.996541;0.016841;0.006188;94.5;107.0;0.0;11.0;14.0;0.0
2.0;1753879333.30325;15.388752;0.89;-1.43;-0.42;0.997035;0.015181;0.004854;96.0;107.0;0.0;11.0;14.0;0.0
2.0;1753879333.307846;15.351772;0.91;-1.64;-0.31;0.996811;0.014449;0.006111;92.2;107.0;0.0;11.0;14.0;0.0
2.0;1753879333.312442;15.3531;1.03;-1.59;-0.34;0.997447;0.014163;0.004911;111.8;107.0;0.0;10.7;14.0;0.0
2.0;1753879333.317038;15.363162;0.89;-1.56;-0.36;0.997813;0.015705;0.005886;114.6;107.0;0.0;11.0;14.0;0.0
2.0;1753879333.321634;15.359768;0.91;-1.64;-0.34;0.996679;0.015448;0.006439;113.2;107.0;0.0;10.8;14.0;0.0
2.0;1753879333.32623;15.343557;0.79;-1.59;-0.37;0.996971;0.014262;0.007101;106.7;107.0;0.0;10.0;14.0;0.0
2.0;1753879333.330826;15.36204;0.99;-1.6;-0.4;0.996677;0.01748;0.005529;113.5;107.0;0.0;10.5;14.0;0.0
2.0;1753879333.335422;15.36851;1.04;-1.6;-0.37;0.996948;0.017019;0.005588;108.1;107.0;0.0;10.2;14.0;0.0
2.0;1753879333.340018;15.374948;0.83;-1.55;-0.35;0.997396;0.016224;0.006484;118.2;107.0;0.0;11.1;14.0;0.0
2.0;1753879333.344614;15.362658;1.0;-1.48;-0.38;0.99605;0.014074;0.0078;121.0;107.0;0.0;10.7;14.0;0.0
2.0;1753879333.34921;15.347497;0.83;-1.62;-0.34;0.998089;0.016922;0.006079;101.7;107.0;0.0;10.8;14.0;0.0
2.0;1753879333.353806;15.374555;0.91;-1.53;-0.33;0.997586;0.013593;0.007086;118.4;107.0;0.0;10.8;14.0;0.0
2.0;1753879333.358402;15.351001;0.86;-1.53;-0.38;0.996362;0.015736;0.005225;97.7;107.0;0.0;10.4;14.0;0.0
2.0;1753879333.362998;15.35793;0.95;-1.76;-0.36;0.994928;0.017106;0.005371;114.8;107.0;0.0;10.2;14.0;0.0
2.0;1753879333.367594;15.357531;0.9;-1.5;-0.36;0.99717;0.017052;0.006296;111.7;107.0;0.0;11.0;14.0;0.0
2.0;1753879333.37219;15.328088;1.05;-1.61;-0.37;0.996671;0.016504;0.005327;111.5;107.0;0.0;11.6;14.0;0.0
2.0;1753879333.376786;15.36544;0.91;-1.54;-0.35;0.996422;0.015574;0.00549;119.5;107.0;0.0;10.4;14.0;0.0
2.0;1753879333.381382;15.360701;0.94;-1.58;-0.37;0.995831;0.015097;0.007153;108.5;107.0;0.0;10.0;14.0;0.0
2.0;1753879333.385978;15.359532;0.97;-1.54;-0.38;0.998001;0.017009;0.006264;111.1;107.0;0.0;9.9;14.0;0.0
2.0;1753879333.390574;15.363393;0.91;-1.62;-0.41;0.996082;0.012246;0.006345;96.5;107.0;0.0;10.2;14.0;0.0
2.0;1753879333.39517;15.364561;1.0;-1.52;-0.35;0.996355;0.013976;0.006959;116.2;107.0;0.0;10.6;14.0;0.0
2.0;1753879333.399766;15.343637;0.85;-1.67;-0.33;0.997253;0.016869;0.005969;90.7;107.0;0.0;10.6;14.0;0.0
2.0;1753879333.404362;15.381105;0.96;-1.45;-0.39;0.996749;0.014901;0.007638;103.2;107.0;0.0;10.3;14.0;0.0
2.0;1753879333.408958;15.356148;0.97;-1.56;-0.37;0.996945;0.016569;0.004873;101.1;107.0;0.0;9.9;14.0;0.0
2.0;1753879333.413554;15.34923;1.0;-1.61;-0.32;0.996852;0.015069;0.006842;111.5;107.0;0.0;11.1;14.0;0.0
2.0;1753879333.41815;15.363326;0.83;-1.63;-0.31;0.996843;0.016956;0.006719;121.1;107.0;0.0;10.7;14.0;0.0
2.0;1753879333.422746;15.361906;0.94;-1.61;-0.36;0.996298;0.015598;0.006993;93.3;107.0;0.0;11.0;14.0;0.0
2.0;1753879333.427342;15.357351;0.93;-1.57;-0.28;0.997451;0.015306;0.005399;119.5;107.0;0.0;10.6;14.0;0.0
2.0;1753879333.431938;15.363455;0.86;-1.56;-0.39;0.997499;0.01503;0.005582;104.0;107.0;0.0;10.7;14.0;0.0
2.0;1753879333.436534;15.375612;0.9;-1.6;-0.36;0.997448;0.016077;0.005601;106.6;107.0;0.0;10.3;14.0;0.0
2.0;1753879333.44113;15.352571;0.86;-1.49;-0.36;0.997057;0.014735;0.007268;109.5;107.0;0.0;9.7;14.0;0.0
2.0;1753879333.445726;15.340758;0.99;-1.66;-0.34;0.997216;0.016532;0.006359;86.9;107.0;0.0;10.1;14.0;0.0
2.0;1753879333.450322;15.367613;0.88;-1.52;-0.34;0.997764;0.013482;0.007115;118.8;107.0;0.0;10.7;14.0;0.0
2.0;1753879333.454918;15.351108;0.91;-1.51;-0.34;0.996793;0.014604;0.005446;103.6;107.0;0.0;11.1;14.0;0.0
2.0;1753879333.459514;15.346386;0.99;-1.44;-0.33;0.997454;0.017394;0.007228;100.7;107.0;0.0;10.5;14.0;0.0
2.0;1753879333.46411;15.366122;0.92;-1.65;-0.33;0.996393;0.016358;0.007101;100.7;107.0;0.0;10.6;14.0;0.0
2.0;1753879333.468706;15.368769;0.93;-1.52;-0.34;0.995882;0.018234;0.006351;118.1;107.0;0.0;10.1;14.0;0.0
2.0;1753879333.473302;15.360071;0.97;-1.59;-0.4;0.996803;0.016545;0.004557;103.2;107.0;0.0;10.6;14.0;0.0
2.0;1753879333.477898;15.37191;0.85;-1.59;-0.34;0.995821;0.014109;0.006836;101.5;107.0;0.0;11.6;14.0;0.0
2.0;1753879333.482494;15.36125;0.97;-1.69;-0.35;0.996561;0.01616;0.006898;107.7;107.0;0.0;10.3;14.0;0.0
2.0;1753879333.48709;15.35095;0.94;-1.53;-0.41;0.996007;0.014437;0.00719;109.8;107.0;0.0;9.7;14.0;0.0
2.0;1753879333.491686;15.374254;0.92;-1.7;-0.37;0.997314;0.016021;0.005806;111.3;107.0;0.0;9.9;14.0;0.0
2.0;1753879333.496282;15.356713;1.04;-1.55;-0.35;0.9968;0.018467;0.00617;105.0;107.0;0.0;11.0;14.0;0.0
2.0;1753879333.500878;15.371907;1.0;-1.67;-0.31;0.996192;0.016553;0.006877;118.1;107.0;0.0;10.3;14.0;0.0
2.0;1753879333.505474;15.358222;0.87;-1.71;-0.34;0.99645;0.015752;0.007553;95.1;107.0;0.0;10.1;14.0;0.0
2.0;1753879333.510069;15.347897;0.91;-1.56;-0.3;0.995742;0.01654;0.005229;123.9;107.0;0.0;10.3;14.0;0.0
2.0;1753879333.514665;15.364159;0.94;-1.69;-0.36;0.996346;0.014707;0.006753;105.2;107.0;0.0;10.7;14.0;0.0
2.0;1753879333.519261;15.363489;0.84;-1.54;-0.36;0.995678;0.014965;0.007217;103.0;107.0;0.0;10.6;14.0;0.0
2.0;1753879333.523857;15.361212;0.93;-1.58;-0.33;0.996301;0.013691;0.006264;101.6;107.0;0.0;10.2;14.0;0.0
2.0;1753879333.528453;15.363879;0.97;-1.59;-0.4;0.994774;0.01888;0.007147;95.0;107.0;0.0;9.9;14.0;0.0
2.0;1753879333.533049;15.352959;0.88;-1.5;-0.34;0.996472;0.013227;0.007487;103.4;107.0;0.0;10.8;14.0;0.0
2.0;1753879333.537645;15.349276;0.94;-1.57;-0.33;0.995986;0.01498;0.00641;109.5;107.0;0.0;9.9;14.0;0.0
2.0;1753879333.542241;15.363854;0.95;-1.71;-0.27;0.996107;0.018362;0.007734;114.0;107.0;0.0;10.1;14.0;0.0
2.0;1753879333.546837;15.365291;0.94;-1.56;-0.28;0.995921;0.019107;0.006603;107.6;107.0;0.0;10.2;14.0;0.0
2.0;1753879333.551433;15.351055;0.93;-1.66;-0.36;0.995346;0.016587;0.006947;110.1;107.0;0.0;10.1;14.0;0.0
2.0;1753879333.5572;15.363281;0.91;-1.61;-0.35;0.99613;0.016348;0.006222;107.0;107.0;0.0;10.0;14.0;0.0
2.0;1753879333.561796;15.36946;0.87;-1.63;-0.38;0.995842;0.017687;0.005249;101.2;107.0;0.0;9.1;14.0;0.0
2.0;1753879333.566392;15.363038;0.9;-1.65;-0.38;0.995673;0.014799;0.005888;109.0;107.0;0.0;9.8;14.0;0.0
2.0;1753879333.570988;15.36564;0.98;-1.61;-0.34;0.996241;0.01381;0.006969;110.5;107.0;0.0;9.1;14.0;0.0
2.0;1753879333.575584;15.353817;0.91;-1.58;-0.33;0.996087;0.015564;0.004886;112.3;107.0;0.0;9.9;14.0;0.0
2.0;1753879333.58018;15.363199;0.9;-1.68;-0.39;0.996695;0.016716;0.005281;108.8;107.0;0.0;9.7;14.0;0.0
2.0;1753879333.584776;15.350815;0.88;-1.67;-0.33;0.995768;0.013873;0.006619;98.9;107.0;0.0;9.6;14.0;0.0
2.0;1753879333.589372;15.386411;0.88;-1.69;-0.33;0.996149;0.014548;0.005965;120.7;107.0;0.0;9.9;14.0;0.0
2.0;1753879333.593968;15.347979;0.92;-1.71;-0.37;0.996415;0.016844;0.006825;100.3;107.0;0.0;10.7;14.0;0.0
2.0;1753879333.598564;15.354539;0.89;-1.55;-0.34;0.9966;0.019461;0.006412;104.2;107.0;0.0;10.1;14.0;0.0
2.0;1753879333.60316;15.360082;0.9;-1.6;-0.37;0.996479;0.01831;0.00613;104.2;107.0;0.0;10.3;14.0;0.0
2.0;1753879333.607756;15.363676;0.95;-1.66;-0.34;0.996255;0.01585;0.006544;103.2;107.0;0.0;10.9;14.0;0.0
2.0;1753879333.612352;15.371816;0.89;-1.51;-0.35;0.996646;0.017229;0.006199;94.6;107.0;0.0;9.9;14.0;0.0
2.0;1753879333.616948;15.347937;0.94;-1.6;-0.34;0.99549;0.017614;0.006746;110.7;107.0;0.0;8.8;14.0;0.0
2.0;1753879333.621544;15.382211;0.96;-1.56;-0.32;0.996958;0.016115;0.005692;114.4;107.0;0.0;9.4;14.0;0.0
2.0;1753879333.62614;15.371723;0.89;-1.7;-0.32;0.996311;0.013432;0.005205;123.1;107.0;0.0;10.4;14.0;0.0
2.0;1753879333.630736;15.375524;0.81;-1.6;-0.41;0.996275;0.016604;0.006296;104.9;107.0;0.0;10.1;14.0;0.0
2.0;1753879333.635332;15.3761;0.94;-1.55;-0.28;0.997105;0.016518;0.006804;105.5;107.0;0.0;9.1;14.0;0.0
2.0;1753879333.639928;15.368319;0.84;-1.59;-0.33;0.99667;0.015749;0.007452;111.0;107.0;0.0;9.3;14.0;0.0
2.0;1753879333.644524;15.359465;0.82;-1.52;-0.27;0.996193;0.016022;0.004885;122.0;107.0;0.0;9.9;14.0;0.0
2.0;1753879333.64912;15.339784;0.89;-1.65;-0.33;0.995158;0.017189;0.006438;97.1;107.0;0.0;11.2;14.0;0.0
2.0;1753879333.653716;15.363203;0.87;-1.61;-0.36;0.996421;0.014944;0.006518;113.5;107.0;0.0;9.4;14.0;0.0
2.0;1753879333.658312;15.372803;0.97;-1.53;-0.33;0.996205;0.017415;0.006548;97.9;107.0;0.0;9.6;14.0;0.0
2.0;1753879333.662908;15.361232;0.81;-1.64;-0.34;0.995604;0.016438;0.007646;110.3;107.0;0.0;11.2;14.0;0.0
2.0;1753879333.667504;15.369881;0.89;-1.65;-0.31;0.996521;0.015421;0.005848;95.8;107.0;0.0;9.9;14.0;0.0
2.0;1753879333.6721;15.366152;0.95;-1.53;-0.36;0.996286;0.013614;0.004902;90.2;107.0;0.0;10.2;14.0;0.0
2.0;1753879333.676696;15.354398;0.83;-1.68;-0.29;0.995806;0.017044;0.007389;121.9;107.0;0.0;9.7;14.0;0.0
2.0;1753879333.681292;15.35891;0.94;-1.64;-0.34;0.995862;0.015661;0.006672;105.8;107.0;0.0;10.6;14.0;0.0
2.0;1753879333.685888;15.344939;0.86;-1.6;-0.34;0.996623;0.014657;0.00685;99.1;107.0;0.0;12.2;14.0;0.0
2.0;1753879333.690484;15.372911;0.98;-1.52;-0.31;0.996135;0.014095;0.005891;108.8;107.0;0.0;9.4;14.0;0.0
2.0;1753879333.69508;15.367179;0.86;-1.63;-0.39;0.996302;0.016628;0.005598;106.5;107.0;0.0;10.7;14.0;0.0
2.0;1753879333.699676;15.34672;0.79;-1.72;-0.34;0.996561;0.013774;0.005639;104.9;107.0;0.0;11.1;14.0;0.0
2.0;1753879333.704272;15.352154;0.95;-1.7;-0.27;0.995883;0.01411;0.006523;111.7;107.0;0.0;10.8;14.0;0.0
2.0;1753879333.708868;15.359462;0.88;-1.64;-0.34;0.996513;0.01315;0.005553;115.2;107.0;0.0;10.4;14.0;0.0
2.0;1753879333.713464;15.365264;0.92;-1.74;-0.3;0.996864;0.015962;0.007023;86.6;107.0;0.0;10.3;14.0;0.0
2.0;1753879333.71806;15.335282;0.83;-1.67;-0.34;0.996674;0.013893;0.007127;97.4;107.0;0.0;10.1;14.0;0.0
2.0;1753879333.722656;15.354722;0.94;-1.47;-0.31;0.995632;0.016526;0.006836;116.5;107.0;0.0;9.8;14.0;0.0
2.0;1753879333.727252;15.357927;0.9;-1.52;-0.32;0.996371;0.014959;0.005545;116.4;107.0;0.0;10.2;14.0;0.0
2.0;1753879333.731848;15.362854;0.91;-1.56;-0.33;0.996449;0.014391;0.005195;97.9;107.0;0.0;9.7;14.0;0.0
2.0;1753879333.736444;15.367527;0.82;-1.69;-0.32;0.99581;0.015255;0.006103;92.3;107.0;0.0;11.2;14.0;0.0
2.0;1753879333.74104;15.358053;0.84;-1.74;-0.22;0.997309;0.013937;0.007757;109.8;107.0;0.0;10.2;14.0;0.0
2.0;1753879333.745636;15.354499;0.82;-1.64;-0.31;0.99659;0.016967;0.006224;93.7;107.0;0.0;9.8;14.0;0.0
2.0;1753879333.750232;15.363649;0.86;-1.59;-0.34;0.995804;0.014513;0.005805;101.5;107.0;0.0;9.0;14.0;0.0
2.0;1753879333.754828;15.365144;0.8;-1.64;-0.26;0.99568;0.015675;0.006602;120.5;107.0;0.0;9.6;14.0;0.0
2.0;1753879333.759424;15.360677;0.77;-1.53;-0.35;0.996306;0.013431;0.006056;107.0;107.0;0.0;9.2;14.0;0.0
2.0;1753879333.76402;15.338143;0.87;-1.62;-0.23;0.997022;0.013516;0.007146;105.5;107.0;0.0;10.3;14.0;0.0
2.0;1753879333.768616;15.363418;0.84;-1.67;-0.25;0.996036;0.014979;0.006882;114.7;107.0;0.0;10.2;14.0;0.0
2.0;1753879333.773212;15.363148;0.85;-1.68;-0.32;0.996969;0.017965;0.006135;109.5;107.0;0.0;9.8;14.0;0.0
2.0;1753879333.777808;15.36468;0.88;-1.55;-0.31;0.995935;0.013466;0.006328;102.3;107.0;0.0;10.0;14.0;0.0
2.0;1753879333.782404;15.352814;0.97;-1.77;-0.31;0.995316;0.013906;0.005767;105.8;107.0;0.0;9.2;14.0;0.0
2.0;1753879333.787;15.371861;0.92;-1.67;-0.4;0.99622;0.015086;0.005263;118.3;107.0;0.0;10.6;14.0;0.0
2.0;1753879333.791596;15.354991;0.89;-1.68;-0.33;0.997518;0.015685;0.007905;111.7;107.0;0.0;10.0;14.0;0.0
2.0;1753879333.796192;15.356401;0.81;-1.66;-0.23;0.997309;0.014269;0.007179;117.7;107.0;0.0;10.2;14.0;0.0
2.0;1753879333.800788;15.376955;0.88;-1.59;-0.31;0.995748;0.015329;0.007341;103.8;107.0;0.0;9.9;14.0;0.0
2.0;1753879333.805384;15.374711;0.85;-1.7;-0.28;0.994916;0.015201;0.007129;106.4;107.0;0.0;9.4;14.0;0.0
2.0;1753879333.80998;15.354328;0.82;-1.69;-0.3;0.996086;0.014061;0.007574;112.2;107.0;0.0;9.5;14.0;0.0
2.0;1753879333.814576;15.367295;0.94;-1.59;-0.28;0.996607;0.014257;0.007251;93.5;107.0;0.0;8.3;14.0;0.0
2.0;1753879333.819172;15.322937;0.91;-1.64;-0.26;0.996199;0.015485;0.007514;113.8;107.0;0.0;10.3;14.0;0.0
2.0;1753879333.823768;15.366226;0.86;-1.62;-0.2;0.99677;0.015714;0.006677;105.3;107.0;0.0;10.8;14.0;0.0
2.0;1753879333.828364;15.377055;0.83;-1.69;-0.32;0.997738;0.018102;0.006279;114.6;107.0;0.0;10.5;14.0;0.0
2.0;1753879333.83296;15.373774;0.92;-1.72;-0.3;0.995392;0.013293;0.005646;114.9;107.0;0.0;9.5;14.0;0.0
2.0;1753879333.837556;15.368676;0.84;-1.67;-0.24;0.995962;0.013534;0.005955;97.7;107.0;0.0;9.8;14.0;0.0
2.0;1753879333.842152;15.346928;0.91;-1.74;-0.28;0.996624;0.014184;0.006573;105.2;107.0;0.0;8.3;14.0;0.0
2.0;1753879333.846748;15.368825;0.88;-1.64;-0.27;0.997196;0.014443;0.007586;125.2;107.0;0.0;10.6;14.0;0.0
2.0;1753879333.851344;15.382252;0.81;-1.68;-0.26;0.996358;0.013333;0.008124;103.3;107.0;0.0;11.0;14.0;0.0
2.0;1753879333.85594;15.353349;0.83;-1.71;-0.31;0.99725;0.012679;0.006284;109.9;107.0;0.0;9.8;14.0;0.0
2.0;1753879333.860536;15.360524;0.9;-1.64;-0.26;0.996722;0.01533;0.005661;105.7;107.0;0.0;9.7;14.0;0.0
2.0;1753879333.865132;15.348902;0.78;-1.65;-0.26;0.997073;0.014428;0.006315;103.6;107.0;0.0;10.3;14.0;0.0
2.0;1753879333.869728;15.369144;0.86;-1.63;-0.31;0.997073;0.013407;0.00765;107.9;107.0;0.0;10.4;14.0;0.0
2.0;1753879333.874324;15.369118;0.9;-1.72;-0.2;0.995928;0.01318;0.006667;102.8;107.0;0.0;9.8;14.0;0.0
2.0;1753879333.87892;15.353593;0.78;-1.65;-0.29;0.998162;0.016024;0.005791;116.8;107.0;0.0;9.6;14.0;0.0
2.0;1753879333.883516;15.381725;0.84;-1.62;-0.27;0.996997;0.014173;0.006147;108.6;107.0;0.0;10.6;14.0;0.0
2.0;1753879333.888112;15.362865;0.85;-1.67;-0.23;0.996233;0.012908;0.007356;114.6;107.0;0.0;9.6;14.0;0.0
2.0;1753879333.892708;15.376325;0.81;-1.67;-0.28;0.996096;0.011926;0.006927;109.5;107.0;0.0;11.0;14.0;0.0
2.0;1753879333.897304;15.355992;0.89;-1.72;-0.28;0.996235;0.016217;0.005902;109.4;107.0;0.0;9.9;14.0;0.0
2.0;1753879333.9042;15.363281;0.84;-1.68;-0.28;0.996496;0.013664;0.006832;107.0;107.0;0.0;10.0;14.0;0.0
2.0;1753879333.908796;15.383048;0.82;-1.66;-0.31;0.995611;0.015039;0.007567;105.1;107.0;0.0;11.6;14.0;0.0
2.0;1753879333.913392;15.309483;0.9;-1.6;-0.26;0.995262;0.013868;0.008685;107.8;107.0;0.0;14.5;14.0;0.0
2.0;1753879333.92011;15.347656;0.91;-1.68;-0.28;0.995032;0.013176;0.00732;103.0;107.0;0.0;15.0;14.0;0.0
2.0;1753879333.924706;15.354825;0.93;-1.66;-0.27;0.995609;0.014728;0.006413;102.7;107.0;0.0;20.0;14.0;0.0
2.0;1753879333.929302;15.347574;0.79;-1.7;-0.26;0.994876;0.014523;0.008082;102.1;107.0;0.0;13.1;14.0;0.0
2.0;1753879333.933898;15.356333;0.86;-1.6;-0.3;0.99603;0.014884;0.007738;101.1;107.0;0.0;10.8;14.0;0.0
2.0;1753879333.938494;15.357963;0.89;-1.65;-0.17;0.995548;0.011967;0.004558;104.2;107.0;0.0;15.8;14.0;0.0
2.0;1753879333.94309;15.357545;0.82;-1.73;-0.13;0.995659;0.015123;0.005534;103.4;107.0;0.0;15.6;14.0;0.0
2.0;1753879333.947686;15.362872;0.87;-1.65;-0.16;0.995802;0.014938;0.006885;99.0;107.0;0.0;13.0;14.0;0.0
2.0;1753879333.952282;15.364628;0.88;-1.67;-0.18;0.997562;0.014861;0.006209;103.2;107.0;0.0;16.8;14.0;0.0
2.0;1753879333.95927;15.347656;0.84;-1.68;-0.21;0.996862;0.01464;0.005612;103.0;107.0;0.0;15.0;14.0;0.0
2.0;1753879333.96363;15.40625;0.91;-1.61;-0.28;0.996862;0.015494;0.007564;104.0;107.0;0.0;12.0;14.0;0.0
2.0;1753879333.964954;15.40625;0.98;-1.75;-0.28;0.995886;0.015494;0.004758;104.0;107.0;0.0;12.0;14.0;0.0
2.0;1753879333.970381;15.40625;0.91;-1.68;-0.35;0.997228;0.013176;0.005978;104.0;107.0;0.0;12.0;14.0;0.0
2.0;1753879333.974047;15.40625;0.84;-1.75;-0.28;0.99552;0.017934;0.003782;104.0;107.0;0.0;12.0;14.0;0.0
2.0;1753879333.978643;15.435215;0.91;-1.74;-0.26;0.995975;0.016674;0.005308;100.9;107.0;0.0;12.1;14.0;0.0
2.0;1753879333.985514;15.425781;0.98;-1.68;-0.28;0.99613;0.015372;0.005246;94.0;107.0;0.0;12.0;14.0;0.0
2.0;1753879333.987758;15.425781;0.91;-1.68;-0.42;0.99613;0.015372;0.005246;94.0;107.0;0.0;12.0;14.0;0.0
2.0;1753879333.992401;15.425781;0.91;-1.61;-0.35;0.99674;0.012688;0.005856;94.0;107.0;0.0;12.0;14.0;0.0
2.0;1753879333.996965;15.425781;0.91;-1.68;-0.35;0.996008;0.017202;0.005368;94.0;107.0;0.0;12.0;14.0;0.0
2.0;1753879334.001561;15.411885;0.81;-1.57;-0.41;0.996682;0.018369;0.005259;93.8;107.0;0.0;12.7;14.0;0.0
2.0;1753879334.006157;15.450172;0.92;-1.7;-0.35;0.994463;0.015404;0.004337;96.9;107.0;0.0;12.8;14.0;0.0
2.0;1753879334.010753;15.428297;0.89;-1.65;-0.35;0.998247;0.018411;0.004709;94.6;107.0;0.0;12.7;14.0;0.0
2.0;1753879334.015349;15.386457;0.89;-1.67;-0.39;0.995959;0.014206;0.004715;89.2;107.0;0.0;13.5;14.0;0.0
2.0;1753879334.019945;15.39092;0.87;-1.65;-0.35;0.99592;0.013777;0.004491;92.6;107.0;0.0;13.6;14.0;0.0
2.0;1753879334.024541;15.407563;0.9;-1.7;-0.31;0.995482;0.015893;0.005175;102.7;107.0;0.0;12.4;14.0;0.0
2.0;1753879334.029137;15.418232;0.89;-1.67;-0.32;0.996577;0.017268;0.005634;90.6;107.0;0.0;13.0;14.0;0.0
2.0;1753879334.033733;15.375382;0.92;-1.65;-0.37;0.996312;0.016273;0.00637;101.0;107.0;0.0;11.7;14.0;0.0
2.0;1753879334.038329;15.414932;0.83;-1.74;-0.25;0.996585;0.01746;0.005672;100.8;107.0;0.0;11.2;14.0;0.0
2.0;1753879334.042925;15.424852;0.86;-1.65;-0.4;0.996982;0.015434;0.006176;99.8;107.0;0.0;11.3;14.0;0.0
2.0;1753879334.047521;15.45597;0.97;-1.66;-0.37;0.996411;0.015317;0.005559;88.4;107.0;0.0;13.3;14.0;0.0
2.0;1753879334.052117;15.465244;0.94;-1.74;-0.28;0.996113;0.016876;0.005992;94.9;107.0;0.0;13.3;14.0;0.0
2.0;1753879334.056713;15.373841;1.0;-1.68;-0.15;0.99639;0.017768;0.005848;85.3;107.0;0.0;11.7;14.0;0.0
2.0;1753879334.061309;15.418167;0.97;-1.74;-0.43;0.995669;0.015857;0.006932;91.3;107.0;0.0;11.0;14.0;0.0
2.0;1753879334.065905;15.397925;0.96;-1.69;-0.46;0.99736;0.016687;0.006029;103.9;107.0;0.0;13.0;14.0;0.0
2.0;1753879334.070501;15.356017;0.87;-1.73;-0.33;0.998085;0.016528;0.005961;89.3;107.0;0.0;12.2;14.0;0.0
2.0;1753879334.075097;15.399583;0.94;-1.69;-0.32;0.995683;0.017409;0.004929;95.5;107.0;0.0;12.4;14.0;0.0
2.0;1753879334.079693;15.331817;0.92;-1.7;-0.38;0.995616;0.016253;0.005617;91.2;107.0;0.0;11.9;14.0;0.0
2.0;1753879334.084289;15.35252;0.99;-1.76;-0.27;0.996301;0.015646;0.006821;92.9;107.0;0.0;12.7;14.0;0.0
2.0;1753879334.088885;15.356989;0.96;-1.75;-0.29;0.99697;0.012598;0.005576;87.6;107.0;0.0;11.7;14.0;0.0
2.0;1753879334.093481;15.434293;1.05;-1.71;-0.37;0.997644;0.015643;0.004621;95.4;107.0;0.0;10.1;14.0;0.0
2.0;1753879334.098077;15.399862;1.01;-1.71;-0.35;0.997134;0.01703;0.005847;99.6;107.0;0.0;11.9;14.0;0.0
2.0;1753879334.102673;15.387115;0.89;-1.71;-0.27;0.997239;0.016745;0.004959;97.0;107.0;0.0;11.2;14.0;0.0
2.0;1753879334.107269;15.399315;0.96;-1.65;-0.36;0.998224;0.014654;0.006413;93.5;107.0;0.0;13.6;14.0;0.0
2.0;1753879334.111865;15.401624;0.93;-1.65;-0.35;0.997834;0.017062;0.005499;88.5;107.0;0.0;12.5;14.0;0.0
2.0;1753879334.116461;15.390871;0.96;-1.7;-0.4;0.996706;0.017085;0.004771;92.8;107.0;0.0;11.2;14.0;0.0
2.0;1753879334.121057;15.367238;0.93;-1.69;-0.35;0.997693;0.016299;0.00594;98.8;107.0;0.0;10.9;14.0;0.0
2.0;1753879334.125653;15.34522;0.9;-1.61;-0.28;0.99706;0.014889;0.006118;85.9;107.0;0.0;12.2;14.0;0.0
2.0;1753879334.130249;15.356322;0.94;-1.72;-0.28;0.997757;0.017877;0.005096;96.0;107.0;0.0;10.8;14.0;0.0
2.0;1753879334.134845;15.359961;0.99;-1.72;-0.37;0.997389;0.018515;0.006786;97.8;107.0;0.0;11.3;14.0;0.0
2.0;1753879334.139441;15.377069;0.91;-1.58;-0.34;0.997196;0.014153;0.005375;92.0;107.0;0.0;12.2;14.0;0.0
2.0;1753879334.144037;15.39383;0.93;-1.59;-0.33;0.998643;0.013115;0.006509;91.5;107.0;0.0;12.3;14.0;0.0
2.0;1753879334.148633;15.351172;0.99;-1.66;-0.28;0.997824;0.016227;0.007112;83.3;107.0;0.0;12.1;14.0;0.0
2.0;1753879334.153229;15.349998;0.93;-1.76;-0.37;0.998264;0.013102;0.006299;86.2;107.0;0.0;11.7;14.0;0.0
2.0;1753879334.157825;15.353826;0.93;-1.59;-0.38;0.996689;0.015996;0.006385;96.2;107.0;0.0;11.6;14.0;0.0
2.0;1753879334.162421;15.388809;0.96;-1.7;-0.34;0.997752;0.016087;0.007935;101.4;107.0;0.0;12.0;14.0;0.0
2.0;1753879334.167017;15.382698;0.95;-1.67;-0.33;0.997149;0.014241;0.00459;95.0;107.0;0.0;12.8;14.0;0.0
2.0;1753879334.171613;15.414865;0.95;-1.66;-0.31;0.998174;0.014519;0.005694;86.3;107.0;0.0;11.8;14.0;0.0
2.0;1753879334.176209;15.34575;0.99;-1.68;-0.3;0.997238;0.016925;0.007065;98.6;107.0;0.0;12.3;14.0;0.0
2.0;1753879334.180805;15.355138;0.87;-1.6;-0.34;0.99965;0.015271;0.006831;86.5;107.0;0.0;11.7;14.0;0.0
2.0;1753879334.185401;15.364067;1.03;-1.69;-0.36;0.997799;0.014951;0.006402;95.6;107.0;0.0;11.6;14.0;0.0
2.0;1753879334.189997;15.384143;0.97;-1.75;-0.34;0.998995;0.011148;0.007042;88.6;107.0;0.0;10.8;14.0;0.0
2.0;1753879334.194593;15.362323;1.03;-1.69;-0.35;0.998972;0.014691;0.006243;94.2;107.0;0.0;12.5;14.0;0.0
2.0;1753879334.199189;15.35476;0.98;-1.63;-0.34;0.998336;0.013759;0.006668;94.7;107.0;0.0;11.1;14.0;0.0
2.0;1753879334.203785;15.378157;1.04;-1.69;-0.3;0.997475;0.014417;0.005766;97.2;107.0;0.0;12.0;14.0;0.0
2.0;1753879334.208381;15.321072;0.95;-1.65;-0.33;0.999152;0.01403;0.00519;94.9;107.0;0.0;12.4;14.0;0.0
2.0;1753879334.212977;15.36425;0.97;-1.69;-0.32;0.998586;0.014173;0.00493;89.7;107.0;0.0;12.1;14.0;0.0
2.0;1753879334.217573;15.429885;1.0;-1.77;-0.31;0.999613;0.012844;0.006498;99.7;107.0;0.0;11.7;14.0;0.0
2.0;1753879334.224;15.351562;0.98;-1.68;-0.35;0.998692;0.013908;0.006466;94.0;107.0;0.0;12.0;14.0;0.0
2.0;1753879334.228596;15.359489;1.05;-1.65;-0.41;0.999331;0.015821;0.007636;96.1;107.0;0.0;11.7;14.0;0.0
2.0;1753879334.233192;15.363377;0.95;-1.78;-0.32;0.999618;0.014156;0.006964;92.6;107.0;0.0;11.0;14.0;0.0
2.0;1753879334.237788;15.299479;0.96;-1.61;-0.26;0.998638;0.01089;0.00708;87.7;107.0;0.0;11.7;14.0;0.0
2.0;1753879334.242384;15.366043;0.91;-1.61;-0.35;0.998895;0.01534;0.006188;94.0;107.0;0.0;11.8;14.0;0.0
2.0;1753879334.24698;15.388303;0.94;-1.66;-0.4;0.997124;0.012513;0.005996;86.2;107.0;0.0;12.5;14.0;0.0
2.0;1753879334.251576;15.365764;0.99;-1.68;-0.35;0.998082;0.015356;0.006132;95.2;107.0;0.0;11.2;14.0;0.0
2.0;1753879334.256172;15.314804;0.94;-1.67;-0.42;0.998578;0.014942;0.006191;92.8;107.0;0.0;11.8;14.0;0.0
2.0;1753879334.260768;15.349071;0.94;-1.75;-0.34;0.998007;0.015134;0.006017;95.7;107.0;0.0;11.4;14.0;0.0
2.0;1753879334.265364;15.374693;0.96;-1.62;-0.25;0.996052;0.015532;0.006101;92.3;107.0;0.0;11.4;14.0;0.0
2.0;1753879334.26996;15.365495;0.96;-1.69;-0.37;0.998071;0.011716;0.006736;92.2;107.0;0.0;11.7;14.0;0.0
2.0;1753879334.274556;15.309341;1.01;-1.64;-0.29;0.999353;0.015388;0.007295;97.2;107.0;0.0;12.7;14.0;0.0
2.0;1753879334.279152;15.359446;0.99;-1.71;-0.36;0.998682;0.014186;0.006225;91.1;107.0;0.0;12.0;14.0;0.0
2.0;1753879334.283748;15.299087;0.98;-1.59;-0.43;0.998258;0.014315;0.00702;90.9;107.0;0.0;11.8;14.0;0.0
2.0;1753879334.288344;15.380741;0.98;-1.66;-0.38;0.999557;0.016971;0.006599;94.2;107.0;0.0;10.9;14.0;0.0
2.0;1753879334.29294;15.389754;0.89;-1.7;-0.38;0.997232;0.014101;0.006119;94.5;107.0;0.0;12.0;14.0;0.0
2.0;1753879334.297536;15.356982;0.96;-1.67;-0.31;0.99893;0.012842;0.008535;92.3;107.0;0.0;12.3;14.0;0.0
2.0;1753879334.302132;15.351525;1.0;-1.71;-0.36;0.997974;0.015472;0.006649;92.8;107.0;0.0;11.2;14.0;0.0
2.0;1753879334.306728;15.368017;0.95;-1.62;-0.29;0.997842;0.014368;0.006346;94.7;107.0;0.0;11.6;14.0;0.0
2.0;1753879334.311324;15.320027;0.88;-1.57;-0.36;0.998161;0.010896;0.008147;96.2;107.0;0.0;12.8;14.0;0.0
2.0;1753879334.31592;15.336109;0.92;-1.76;-0.28;0.99562;0.012893;0.007527;98.7;107.0;0.0;11.5;14.0;0.0
2.0;1753879334.320516;15.382887;0.97;-1.73;-0.35;0.998096;0.013724;0.006333;99.1;107.0;0.0;11.9;14.0;0.0
2.0;1753879334.325112;15.365765;1.02;-1.67;-0.26;0.997514;0.01492;0.006782;82.7;107.0;0.0;12.7;14.0;0.0
2.0;1753879334.329708;15.403246;0.92;-1.66;-0.27;0.998134;0.013936;0.00752;96.7;107.0;0.0;12.7;14.0;0.0
2.0;1753879334.334304;15.273886;0.92;-1.6;-0.29;0.997268;0.014752;0.007699;92.8;107.0;0.0;11.3;14.0;0.0
2.0;1753879334.3389;15.371649;0.98;-1.7;-0.34;0.997514;0.017791;0.006521;100.6;107.0;0.0;11.6;14.0;0.0
2.0;1753879334.343496;15.324771;0.95;-1.64;-0.33;0.995972;0.014783;0.008683;100.5;107.0;0.0;11.0;14.0;0.0
2.0;1753879334.348092;15.346174;0.92;-1.62;-0.33;0.99822;0.015305;0.007617;89.6;107.0;0.0;12.5;14.0;0.0
2.0;1753879334.352688;15.384927;0.98;-1.7;-0.39;0.997203;0.016082;0.006605;93.5;107.0;0.0;12.0;14.0;0.0
2.0;1753879334.357284;15.356863;0.88;-1.69;-0.31;0.996323;0.012957;0.007531;92.7;107.0;0.0;11.5;14.0;0.0
2.0;1753879334.36188;15.353337;0.91;-1.62;-0.29;0.997408;0.016431;0.007996;95.0;107.0;0.0;11.9;14.0;0.0
2.0;1753879334.366476;15.298195;0.95;-1.69;-0.3;0.996168;0.014578;0.006964;96.8;107.0;0.0;12.1;14.0;0.0
2.0;1753879334.371072;15.340108;0.87;-1.65;-0.24;0.995996;0.016921;0.007232;94.5;107.0;0.0;11.9;14.0;0.0
2.0;1753879334.375668;15.38598;0.87;-1.59;-0.23;0.998334;0.016733;0.006299;89.9;107.0;0.0;12.8;14.0;0.0
2.0;1753879334.380264;15.341588;0.95;-1.68;-0.3;0.996023;0.014372;0.007829;91.4;107.0;0.0;12.5;14.0;0.0
2.0;1753879334.38486;15.37348;0.9;-1.59;-0.34;0.996297;0.016327;0.00667;90.4;107.0;0.0;13.8;14.0;0.0
2.0;1753879334.389456;15.417826;0.92;-1.67;-0.36;0.997638;0.016032;0.006884;83.3;107.0;0.0;10.7;14.0;0.0
2.0;1753879334.394052;15.318656;0.84;-1.7;-0.36;0.995951;0.015081;0.006651;92.6;107.0;0.0;10.9;14.0;0.0
2.0;1753879334.398648;15.384998;0.95;-1.65;-0.4;0.996078;0.015634;0.006802;89.4;107.0;0.0;11.5;14.0;0.0
2.0;1753879334.403244;15.331266;0.93;-1.66;-0.36;0.997063;0.015637;0.005994;85.1;107.0;0.0;12.1;14.0;0.0
2.0;1753879334.40784;15.313223;0.84;-1.63;-0.4;0.996895;0.013758;0.007223;89.3;107.0;0.0;12.8;14.0;0.0
2.0;1753879334.412436;15.392463;0.86;-1.7;-0.33;0.997299;0.014389;0.006781;95.2;107.0;0.0;12.2;14.0;0.0
2.0;1753879334.417032;15.349519;0.94;-1.68;-0.43;0.998058;0.014852;0.007649;93.5;107.0;0.0;11.9;14.0;0.0
2.0;1753879334.421628;15.366246;0.86;-1.62;-0.31;0.996619;0.016694;0.007381;90.7;107.0;0.0;13.5;14.0;0.0
2.0;1753879334.426224;15.346972;0.85;-1.64;-0.26;0.996703;0.014975;0.007864;93.7;107.0;0.0;12.0;14.0;0.0
2.0;1753879334.43082;15.285529;0.89;-1.69;-0.37;0.995324;0.016617;0.005708;91.1;107.0;0.0;12.1;14.0;0.0
2.0;1753879334.435416;15.384364;0.87;-1.7;-0.31;0.995162;0.014557;0.007776;91.4;107.0;0.0;14.3;14.0;0.0
2.0;1753879334.440012;15.356727;0.85;-1.66;-0.25;0.996763;0.015429;0.006921;102.3;107.0;0.0;12.2;14.0;0.0
2.0;1753879334.444608;15.284034;0.89;-1.72;-0.39;0.996517;0.015124;0.005216;93.7;107.0;0.0;13.2;14.0;0.0
2.0;1753879334.449204;15.360228;0.85;-1.69;-0.3;0.995956;0.017347;0.006807;95.9;107.0;0.0;11.9;14.0;0.0
2.0;1753879334.4538;15.340184;0.95;-1.68;-0.28;0.996291;0.013767;0.006271;101.5;107.0;0.0;12.1;14.0;0.0
2.0;1753879334.458396;15.331978;0.88;-1.62;-0.37;0.995335;0.015204;0.006315;87.8;107.0;0.0;12.1;14.0;0.0
2.0;1753879334.462992;15.336861;0.92;-1.65;-0.23;0.997333;0.015237;0.005567;90.6;107.0;0.0;12.3;14.0;0.0
2.0;1753879334.467588;15.377505;0.89;-1.64;-0.29;0.997611;0.016498;0.005524;94.9;107.0;0.0;12.7;14.0;0.0
2.0;1753879334.472184;15.372064;0.9;-1.62;-0.25;0.996224;0.017241;0.006695;90.8;107.0;0.0;12.5;14.0;0.0
2.0;1753879334.47678;15.331473;0.88;-1.51;-0.28;0.996054;0.013963;0.006263;97.6;107.0;0.0;11.5;14.0;0.0
2.0;1753879334.481376;15.380606;0.86;-1.64;-0.23;0.998055;0.015021;0.007531;104.9;107.0;0.0;12.3;14.0;0.0
2.0;1753879334.485972;15.411063;0.86;-1.76;-0.37;0.997322;0.015697;0.006169;95.2;107.0;0.0;12.1;14.0;0.0
2.0;1753879334.490568;15.356795;0.85;-1.69;-0.33;0.99567;0.013526;0.006738;89.4;107.0;0.0;12.1;14.0;0.0
2.0;1753879334.495164;15.337593;0.82;-1.65;-0.33;0.995374;0.01497;0.009022;99.7;107.0;0.0;11.7;14.0;0.0
2.0;1753879334.49976;15.349791;0.85;-1.74;-0.4;0.994765;0.015527;0.007323;86.6;107.0;0.0;13.2;14.0;0.0
2.0;1753879334.504356;15.31707;0.8;-1.64;-0.26;0.99558;0.015381;0.006439;87.4;107.0;0.0;14.3;14.0;0.0
2.0;1753879334.508952;15.368446;0.91;-1.55;-0.29;0.996062;0.015255;0.009391;89.9;107.0;0.0;11.8;14.0;0.0
2.0;1753879334.513548;15.346276;0.94;-1.6;-0.25;0.99646;0.016335;0.006996;87.3;107.0;0.0;10.7;14.0;0.0
2.0;1753879334.518144;15.383283;0.85;-1.58;-0.27;0.99627;0.016985;0.005045;92.6;107.0;0.0;12.0;14.0;0.0
2.0;1753879334.52274;15.338684;0.85;-1.74;-0.28;0.996374;0.016679;0.007592;93.6;107.0;0.0;12.9;14.0;0.0
2.0;1753879334.527336;15.345516;0.91;-1.72;-0.36;0.996808;0.014959;0.006199;89.8;107.0;0.0;12.8;14.0;0.0
2.0;1753879334.531932;15.411716;0.86;-1.65;-0.24;0.994512;0.015919;0.006844;94.6;107.0;0.0;10.8;14.0;0.0
2.0;1753879334.536528;15.35312;0.85;-1.62;-0.19;0.995251;0.016557;0.006882;87.8;107.0;0.0;12.7;14.0;0.0
2.0;1753879334.541124;15.331852;0.8;-1.69;-0.25;0.995754;0.016207;0.008277;94.2;107.0;0.0;11.8;14.0;0.0
2.0;1753879334.54572;15.375731;0.93;-1.54;-0.26;0.995821;0.016528;0.007341;82.5;107.0;0.0;13.1;14.0;0.0
2.0;1753879334.550316;15.313272;0.85;-1.63;-0.26;0.997159;0.015877;0.008104;98.3;107.0;0.0;12.3;14.0;0.0
2.0;1753879334.554912;15.377094;0.87;-1.62;-0.27;0.996172;0.016355;0.006817;95.0;107.0;0.0;11.8;14.0;0.0
2.0;1753879334.559508;15.310262;0.87;-1.64;-0.31;0.994667;0.016904;0.006129;99.9;107.0;0.0;11.5;14.0;0.0
2.0;1753879334.564104;15.317118;0.89;-1.63;-0.3;0.994682;0.016208;0.008237;102.7;107.0;0.0;12.3;14.0;0.0
2.0;1753879334.5687;15.367844;0.89;-1.47;-0.32;0.994585;0.013725;0.007672;92.3;107.0;0.0;11.4;14.0;0.0
2.0;1753879334.573296;15.378641;0.89;-1.64;-0.26;0.99462;0.016403;0.008653;89.0;107.0;0.0;10.8;14.0;0.0
2.0;1753879334.577892;15.262834;0.86;-1.56;-0.34;0.996527;0.016641;0.007248;100.2;107.0;0.0;12.6;14.0;0.0
2.0;1753879334.582488;15.332353;0.89;-1.62;-0.28;0.995517;0.014505;0.006101;94.6;107.0;0.0;11.2;14.0;0.0
2.0;1753879334.587084;15.39254;0.8;-1.59;-0.38;0.994444;0.018397;0.007089;95.9;107.0;0.0;11.3;14.0;0.0
2.0;1753879334.59168;15.341056;0.92;-1.54;-0.17;0.994469;0.016708;0.006575;92.7;107.0;0.0;12.2;14.0;0.0
2.0;1753879334.596276;15.301115;0.87;-1.6;-0.4;0.995919;0.016616;0.007111;95.5;107.0;0.0;12.5;14.0;0.0
2.0;1753879334.600872;15.366782;0.87;-1.64;-0.35;0.995387;0.01559;0.008577;91.9;107.0;0.0;12.0;14.0;0.0
2.0;1753879334.6083;15.351562;0.84;-1.61;-0.28;0.99491;0.016348;0.007198;94.0;107.0;0.0;12.0;14.0;0.0
2.0;1753879334.612896;15.334718;0.93;-1.69;-0.17;0.996464;0.014002;0.006942;93.7;107.0;0.0;12.1;14.0;0.0
2.0;1753879334.61735;15.386719;0.98;-1.68;-0.28;0.997472;0.01525;0.007076;114.0;107.0;0.0;13.0;14.0;0.0
2.0;1753879334.621946;15.39504;1.02;-1.59;-0.26;0.996429;0.013752;0.006681;112.2;107.0;0.0;13.0;14.0;0.0
2.0;1753879334.626542;15.400608;1.01;-1.65;-0.28;0.99826;0.012843;0.006036;112.9;107.0;0.0;12.1;14.0;0.0
2.0;1753879334.631138;15.378183;0.93;-1.7;-0.33;0.997691;0.015378;0.007265;125.1;107.0;0.0;12.8;14.0;0.0
2.0;1753879334.635734;15.35549;0.95;-1.55;-0.28;0.997451;0.01563;0.006197;119.4;107.0;0.0;12.2;14.0;0.0
2.0;1753879334.64033;15.385295;0.93;-1.72;-0.29;0.995318;0.015554;0.005935;110.4;107.0;0.0;13.2;14.0;0.0
2.0;1753879334.644926;15.417452;0.97;-1.69;-0.17;0.99542;0.012881;0.005008;130.2;107.0;0.0;13.3;14.0;0.0
2.0;1753879334.649522;15.379927;0.87;-1.67;-0.21;0.997252;0.012829;0.004483;123.5;107.0;0.0;12.0;14.0;0.0
2.0;1753879334.65555;15.386719;0.91;-1.68;-0.28;0.995886;0.014396;0.00488;114.0;107.0;0.0;13.0;14.0;0.0
2.0;1753879334.660146;15.359686;0.88;-1.68;-0.27;0.997781;0.017228;0.004815;121.1;107.0;0.0;12.6;14.0;0.0
2.0;1753879334.664742;15.394108;0.92;-1.78;-0.31;0.995718;0.014482;0.007467;130.6;107.0;0.0;14.2;14.0;0.0
2.0;1753879334.669338;15.363498;0.98;-1.7;-0.25;0.996628;0.017103;0.006327;106.3;107.0;0.0;12.6;14.0;0.0
2.0;1753879334.673934;15.348303;0.9;-1.71;-0.26;0.994996;0.013103;0.006739;117.9;107.0;0.0;13.2;14.0;0.0
2.0;1753879334.67853;15.326693;0.92;-1.69;-0.29;0.994161;0.014938;0.006438;100.0;107.0;0.0;12.8;14.0;0.0
2.0;1753879334.683126;15.397074;0.93;-1.7;-0.36;0.996438;0.011;0.006346;138.5;107.0;0.0;14.0;14.0;0.0
2.0;1753879334.687722;15.399516;1.0;-1.74;-0.26;0.996946;0.016107;0.006862;103.6;107.0;0.0;13.5;14.0;0.0
2.0;1753879334.692318;15.34706;0.96;-1.65;-0.37;0.994958;0.012107;0.006808;105.7;107.0;0.0;12.2;14.0;0.0
2.0;1753879334.696914;15.46571;0.94;-1.63;-0.33;0.997061;0.015257;0.006382;117.4;107.0;0.0;13.3;14.0;0.0
2.0;1753879334.70349;15.386719;0.98;-1.75;-0.35;0.996374;0.01403;0.0061;114.0;107.0;0.0;13.0;14.0;0.0
2.0;1753879334.708086;15.405015;0.91;-1.82;-0.31;0.995119;0.013843;0.006246;100.1;107.0;0.0;13.8;14.0;0.0
2.0;1753879334.712682;15.406546;0.97;-1.67;-0.31;0.996194;0.014953;0.007022;115.1;107.0;0.0;12.8;14.0;0.0
2.0;1753879334.717278;15.395597;0.95;-1.88;-0.33;0.996687;0.013893;0.005521;104.3;107.0;0.0;12.3;14.0;0.0
2.0;1753879334.721874;15.467381;0.99;-1.82;-0.25;0.995918;0.014696;0.004664;132.9;107.0;0.0;12.8;14.0;0.0
2.0;1753879334.72647;15.373588;0.91;-1.77;-0.36;0.999361;0.013377;0.00493;115.9;107.0;0.0;11.7;14.0;0.0
2.0;1753879334.731066;15.412879;0.85;-1.75;-0.27;0.996267;0.014042;0.005079;135.4;107.0;0.0;13.1;14.0;0.0
2.0;1753879334.735662;15.447053;0.97;-1.68;-0.26;0.996389;0.012527;0.006851;141.2;107.0;0.0;12.8;14.0;0.0
2.0;1753879334.740258;15.39745;0.91;-1.78;-0.3;0.997004;0.013346;0.005305;125.7;107.0;0.0;13.1;14.0;0.0
2.0;1753879334.7462;15.414062;0.91;-1.82;-0.28;0.996374;0.01403;0.0061;114.0;107.0;0.0;13.0;14.0;0.0
2.0;1753879334.750796;15.424723;0.99;-1.8;-0.29;0.99588;0.012155;0.006011;133.7;107.0;0.0;11.4;14.0;0.0
2.0;1753879334.755392;15.424269;0.83;-1.87;-0.28;0.99376;0.014342;0.005485;91.8;107.0;0.0;13.1;14.0;0.0
2.0;1753879334.759988;15.405301;0.96;-1.79;-0.23;0.996853;0.015248;0.006143;93.4;107.0;0.0;12.1;14.0;0.0
2.0;1753879334.764584;15.407409;0.88;-1.86;-0.33;0.99664;0.015145;0.006304;121.9;107.0;0.0;11.6;14.0;0.0
2.0;1753879334.76918;15.42169;0.79;-1.75;-0.22;0.995982;0.01522;0.004867;109.8;107.0;0.0;11.6;14.0;0.0
2.0;1753879334.773776;15.440717;0.89;-1.88;-0.39;0.99585;0.015381;0.004708;96.6;107.0;0.0;13.4;14.0;0.0
2.0;1753879334.778372;15.414495;0.83;-1.73;-0.27;0.996108;0.011704;0.006116;99.5;107.0;0.0;11.6;14.0;0.0
2.0;1753879334.782968;15.45375;0.86;-1.81;-0.3;0.994701;0.01669;0.004958;102.0;107.0;0.0;9.3;14.0;0.0
2.0;1753879334.787564;15.416903;0.85;-1.7;-0.39;0.99509;0.015311;0.006549;89.9;107.0;0.0;10.4;14.0;0.0
2.0;1753879334.79216;15.422507;0.81;-1.82;-0.36;0.995361;0.016968;0.005023;132.6;107.0;0.0;11.6;14.0;0.0
2.0;1753879334.796756;15.382729;0.89;-1.69;-0.4;0.995376;0.018435;0.005829;117.7;107.0;0.0;11.2;14.0;0.0
2.0;1753879334.801352;15.455177;0.88;-1.67;-0.37;0.998683;0.01428;0.005334;111.7;107.0;0.0;10.5;14.0;0.0
2.0;1753879334.805948;15.391497;0.88;-1.83;-0.34;0.996733;0.019299;0.005698;105.1;107.0;0.0;10.4;14.0;0.0
2.0;1753879334.810544;15.387874;0.91;-1.7;-0.31;0.998629;0.017197;0.005366;109.9;107.0;0.0;8.3;14.0;0.0
2.0;1753879334.81514;15.466689;0.94;-1.65;-0.29;0.99695;0.017648;0.004965;104.6;107.0;0.0;8.9;14.0;0.0
2.0;1753879334.819736;15.453792;0.84;-1.71;-0.29;0.995479;0.014634;0.00782;92.8;107.0;0.0;10.0;14.0;0.0
2.0;1753879334.824332;15.425748;0.85;-1.65;-0.28;0.997607;0.015568;0.005051;109.3;107.0;0.0;10.2;14.0;0.0
2.0;1753879334.83026;15.414062;0.84;-1.68;-0.35;0.997228;0.016592;0.005734;104.0;107.0;0.0;9.0;14.0;0.0
2.0;1753879334.83817;15.414062;0.98;-1.61;-0.35;0.997228;0.014396;0.005612;104.0;107.0;0.0;9.0;14.0;0.0
2.0;1753879334.842766;15.43184;1.01;-1.64;-0.39;0.996808;0.014375;0.004705;119.1;107.0;0.0;6.4;14.0;0.0
2.0;1753879334.847362;15.41235;0.94;-1.56;-0.35;0.997392;0.014937;0.007094;109.5;107.0;0.0;9.0;14.0;0.0
2.0;1753879334.851958;15.422032;1.0;-1.64;-0.35;0.998745;0.015515;0.00511;111.4;107.0;0.0;9.3;14.0;0.0
2.0;1753879334.856554;15.433669;0.89;-1.56;-0.35;0.997;0.015998;0.005928;102.4;107.0;0.0;9.2;14.0;0.0
2.0;1753879334.86115;15.418986;0.87;-1.56;-0.31;0.997095;0.01482;0.004146;96.0;107.0;0.0;10.9;14.0;0.0
2.0;1753879334.865746;15.351965;0.92;-1.7;-0.35;0.997153;0.019334;0.005408;103.2;107.0;0.0;11.3;14.0;0.0
2.0;1753879334.870342;15.395735;0.93;-1.68;-0.35;0.998655;0.0157;0.006272;106.9;107.0;0.0;10.6;14.0;0.0
2.0;1753879334.874938;15.415227;0.83;-1.71;-0.34;0.995411;0.013316;0.005072;108.4;107.0;0.0;11.6;14.0;0.0
2.0;1753879334.879534;15.417079;0.9;-1.64;-0.44;0.996529;0.017892;0.007205;102.1;107.0;0.0;7.6;14.0;0.0
2.0;1753879334.88413;15.376736;0.9;-1.64;-0.33;0.998314;0.019132;0.004642;119.0;107.0;0.0;8.8;14.0;0.0
2.0;1753879334.888726;15.403593;0.78;-1.71;-0.32;0.99614;0.016124;0.006015;100.1;107.0;0.0;8.8;14.0;0.0
2.0;1753879334.89431;15.414062;0.84;-1.68;-0.35;0.996496;0.01647;0.005856;104.0;107.0;0.0;9.0;14.0;0.0
2.0;1753879334.898906;15.400048;0.88;-1.69;-0.35;0.995614;0.017083;0.005598;103.9;107.0;0.0;5.8;14.0;0.0
2.0;1753879334.903502;15.425433;0.86;-1.65;-0.34;0.995373;0.014722;0.006026;101.9;107.0;0.0;10.0;14.0;0.0
2.0;1753879334.908098;15.405758;0.88;-1.76;-0.35;0.997002;0.016781;0.006172;105.6;107.0;0.0;8.0;14.0;0.0
2.0;1753879334.912694;15.39406;0.88;-1.57;-0.32;0.996713;0.01668;0.00595;101.2;107.0;0.0;8.3;14.0;0.0
2.0;1753879334.91729;15.41637;0.89;-1.63;-0.3;0.995169;0.016937;0.005963;96.0;107.0;0.0;11.2;14.0;0.0
2.0;1753879334.921886;15.379878;0.95;-1.59;-0.32;0.995447;0.016279;0.004912;97.9;107.0;0.0;8.2;14.0;0.0
2.0;1753879334.92986;15.371094;0.91;-1.54;-0.28;0.995642;0.015128;0.005368;104.0;107.0;0.0;9.0;14.0;0.0
2.0;1753879334.934456;15.34457;0.86;-1.61;-0.33;0.993545;0.015575;0.006034;115.4;107.0;0.0;8.3;14.0;0.0
2.0;1753879334.939052;15.394385;0.93;-1.65;-0.32;0.995059;0.014368;0.005181;108.6;107.0;0.0;8.2;14.0;0.0
2.0;1753879334.943648;15.375296;0.96;-1.58;-0.32;0.996136;0.016535;0.006552;105.9;107.0;0.0;10.5;14.0;0.0
2.0;1753879334.948244;15.37692;0.94;-1.59;-0.31;0.996837;0.016778;0.005169;100.3;107.0;0.0;7.3;14.0;0.0
2.0;1753879334.95284;15.364595;0.71;-1.71;-0.32;0.997863;0.010757;0.0065;104.7;107.0;0.0;9.5;14.0;0.0
2.0;1753879334.957436;15.360384;0.83;-1.56;-0.37;0.995693;0.015063;0.004805;97.0;107.0;0.0;9.3;14.0;0.0
2.0;1753879334.962032;15.365324;0.94;-1.7;-0.31;0.998177;0.014641;0.006683;92.1;107.0;0.0;6.9;14.0;0.0
2.0;1753879334.966628;15.342777;0.82;-1.65;-0.37;0.996522;0.01453;0.005601;104.1;107.0;0.0;10.3;14.0;0.0
2.0;1753879334.971224;15.347399;0.85;-1.62;-0.35;0.995821;0.012746;0.006827;112.3;107.0;0.0;9.1;14.0;0.0
2.0;1753879334.9759;15.371094;0.77;-1.68;-0.35;0.996984;0.011468;0.0061;104.0;107.0;0.0;9.0;14.0;0.0
2.0;1753879334.981375;15.476562;1.05;-1.61;-0.35;0.996496;0.01586;0.005002;108.0;107.0;0.0;13.0;14.0;0.0
2.0;1753879334.984884;15.476562;0.91;-1.68;-0.28;0.996862;0.01159;0.005612;108.0;107.0;0.0;13.0;14.0;0.0
2.0;1753879334.98948;15.453642;0.89;-1.62;-0.33;0.996884;0.015679;0.006441;111.2;107.0;0.0;10.9;14.0;0.0
2.0;1753879334.995909;15.453125;0.91;-1.68;-0.35;0.996374;0.01464;0.005856;108.0;107.0;0.0;13.0;14.0;0.0
2.0;1753879334.998828;15.453125;0.91;-1.75;-0.28;0.996984;0.013664;0.005246;108.0;107.0;0.0;13.0;14.0;0.0
2.0;1753879335.003424;15.475189;1.05;-1.76;-0.37;0.996897;0.014179;0.004983;111.8;107.0;0.0;13.4;14.0;0.0
2.0;1753879335.00802;15.458256;1.04;-1.83;-0.25;0.997726;0.015601;0.005794;103.7;107.0;0.0;12.0;14.0;0.0
2.0;1753879335.012616;15.424089;0.96;-1.72;-0.3;0.996491;0.012653;0.005037;115.5;107.0;0.0;12.1;14.0;0.0
2.0;1753879335.017212;15.468669;0.95;-1.8;-0.33;0.996275;0.014863;0.005372;110.1;107.0;0.0;13.5;14.0;0.0
2.0;1753879335.021808;15.418839;0.98;-1.73;-0.37;0.996548;0.012979;0.00631;110.1;107.0;0.0;13.8;14.0;0.0
2.0;1753879335.026404;15.432842;0.83;-1.75;-0.32;0.996902;0.015079;0.005614;106.1;107.0;0.0;12.9;14.0;0.0
2.0;1753879335.031;15.442368;0.82;-1.71;-0.34;0.996324;0.014558;0.004498;113.5;107.0;0.0;13.4;14.0;0.0
2.0;1753879335.035596;15.467053;1.02;-1.8;-0.18;0.996672;0.013497;0.00503;116.7;107.0;0.0;13.1;14.0;0.0
2.0;1753879335.040192;15.425112;0.8;-1.86;-0.24;0.995723;0.015101;0.004944;109.4;107.0;0.0;11.4;14.0;0.0
2.0;1753879335.044788;15.414315;0.92;-1.82;-0.27;0.996783;0.015782;0.00505;101.2;107.0;0.0;11.4;14.0;0.0
2.0;1753879335.049384;15.454836;0.85;-1.72;-0.31;0.9975;0.011995;0.004829;106.5;107.0;0.0;13.5;14.0;0.0
2.0;1753879335.05398;15.432362;0.9;-1.82;-0.29;0.996938;0.012659;0.005801;105.6;107.0;0.0;12.4;14.0;0.0
2.0;1753879335.058576;15.480513;0.97;-1.79;-0.31;0.997496;0.014815;0.005461;108.3;107.0;0.0;12.8;14.0;0.0
2.0;1753879335.063172;15.439676;0.83;-1.75;-0.31;0.997231;0.013039;0.005506;109.7;107.0;0.0;12.6;14.0;0.0
2.0;1753879335.067768;15.441455;0.88;-1.62;-0.33;0.996483;0.015829;0.006431;104.9;107.0;0.0;11.8;14.0;0.0
2.0;1753879335.072364;15.458029;0.9;-1.76;-0.24;0.995644;0.013834;0.004694;110.0;107.0;0.0;12.2;14.0;0.0
2.0;1753879335.07696;15.446507;0.93;-1.83;-0.32;0.996895;0.013981;0.004715;112.0;107.0;0.0;13.2;14.0;0.0
2.0;1753879335.081556;15.453522;0.76;-1.71;-0.31;0.99684;0.012725;0.005505;104.1;107.0;0.0;12.8;14.0;0.0
2.0;1753879335.086152;15.41747;0.78;-1.69;-0.33;0.998036;0.018408;0.005852;101.9;107.0;0.0;13.7;14.0;0.0
2.0;1753879335.090748;15.463316;0.88;-1.77;-0.25;0.996163;0.016317;0.005396;112.2;107.0;0.0;12.9;14.0;0.0
2.0;1753879335.095344;15.468357;0.78;-1.73;-0.36;0.997892;0.014843;0.004858;107.9;107.0;0.0;13.1;14.0;0.0
2.0;1753879335.09994;15.462484;0.84;-1.71;-0.4;0.996739;0.013214;0.006519;108.4;107.0;0.0;12.8;14.0;0.0
2.0;1753879335.104536;15.464604;0.91;-1.76;-0.29;0.997142;0.012904;0.006062;108.1;107.0;0.0;11.8;14.0;0.0
2.0;1753879335.109132;15.430337;0.74;-1.68;-0.2;0.995869;0.016132;0.005357;110.1;107.0;0.0;13.6;14.0;0.0
2.0;1753879335.113728;15.455772;1.02;-1.67;-0.36;0.996429;0.011562;0.005595;109.0;107.0;0.0;13.5;14.0;0.0
2.0;1753879335.118324;15.471554;0.84;-1.79;-0.27;0.995519;0.020398;0.005675;115.6;107.0;0.0;12.0;14.0;0.0
2.0;1753879335.12292;15.450715;0.82;-1.67;-0.29;0.997618;0.01539;0.005509;111.6;107.0;0.0;13.2;14.0;0.0
2.0;1753879335.127516;15.454012;0.83;-1.64;-0.32;0.99576;0.014109;0.006197;108.7;107.0;0.0;12.2;14.0;0.0
2.0;1753879335.132112;15.430318;0.81;-1.78;-0.29;0.997861;0.016878;0.005669;104.2;107.0;0.0;12.8;14.0;0.0
2.0;1753879335.136708;15.446362;0.89;-1.76;-0.4;0.996253;0.015075;0.005748;110.1;107.0;0.0;12.5;14.0;0.0
2.0;1753879335.141304;15.417807;0.97;-1.74;-0.36;0.99658;0.014775;0.006173;110.8;107.0;0.0;12.3;14.0;0.0
2.0;1753879335.1459;15.418422;0.92;-1.73;-0.34;0.994951;0.017159;0.005024;108.8;107.0;0.0;12.4;14.0;0.0
2.0;1753879335.150496;15.466666;0.82;-1.77;-0.34;0.996837;0.015785;0.006204;110.9;107.0;0.0;12.5;14.0;0.0
2.0;1753879335.155092;15.453853;0.92;-1.68;-0.31;0.997243;0.016927;0.006068;104.7;107.0;0.0;12.1;14.0;0.0
2.0;1753879335.159688;15.448612;0.93;-1.83;-0.37;0.996971;0.013772;0.006543;106.4;107.0;0.0;12.0;14.0;0.0
2.0;1753879335.164284;15.440649;0.87;-1.72;-0.35;0.99662;0.011514;0.005595;108.8;107.0;0.0;13.6;14.0;0.0
2.0;1753879335.16888;15.433577;0.81;-1.72;-0.31;0.996982;0.014931;0.006323;101.4;107.0;0.0;13.0;14.0;0.0
2.0;1753879335.173476;15.475154;0.78;-1.79;-0.31;0.997075;0.015997;0.005338;107.1;107.0;0.0;14.0;14.0;0.0
2.0;1753879335.178072;15.479418;0.69;-1.73;-0.33;0.996515;0.015312;0.006257;106.3;107.0;0.0;14.9;14.0;0.0
2.0;1753879335.182668;15.444067;1.0;-1.76;-0.37;0.997014;0.01626;0.006214;104.8;107.0;0.0;13.3;14.0;0.0
2.0;1753879335.187264;15.474079;0.72;-1.73;-0.36;0.99643;0.016131;0.005251;102.5;107.0;0.0;13.7;14.0;0.0
2.0;1753879335.19186;15.42276;0.78;-1.82;-0.37;0.996483;0.015342;0.004917;102.6;107.0;0.0;12.5;14.0;0.0
2.0;1753879335.196456;15.432527;0.86;-1.72;-0.31;0.996985;0.018873;0.005043;114.8;107.0;0.0;12.7;14.0;0.0
2.0;1753879335.201052;15.444587;0.91;-1.79;-0.25;0.997362;0.017878;0.005656;111.2;107.0;0.0;13.0;14.0;0.0
2.0;1753879335.205648;15.461048;0.8;-1.7;-0.33;0.996681;0.017887;0.005706;112.4;107.0;0.0;14.1;14.0;0.0
2.0;1753879335.210244;15.436437;0.82;-1.71;-0.31;0.996565;0.013208;0.005828;108.2;107.0;0.0;13.9;14.0;0.0
2.0;1753879335.21484;15.463258;0.82;-1.71;-0.29;0.995095;0.015451;0.006306;110.3;107.0;0.0;12.8;14.0;0.0
2.0;1753879335.219436;15.491599;0.87;-1.7;-0.34;0.995417;0.015831;0.006224;106.2;107.0;0.0;13.6;14.0;0.0
2.0;1753879335.224032;15.494795;0.86;-1.74;-0.4;0.997024;0.01685;0.005468;104.6;107.0;0.0;11.7;14.0;0.0
2.0;1753879335.228628;15.445543;0.81;-1.75;-0.32;0.996199;0.013062;0.006419;116.4;107.0;0.0;13.1;14.0;0.0
2.0;1753879335.233224;15.46479;0.81;-1.76;-0.31;0.994977;0.017001;0.006111;109.1;107.0;0.0;14.7;14.0;0.0
2.0;1753879335.23782;15.437556;0.73;-1.65;-0.31;0.996614;0.01736;0.006558;109.2;107.0;0.0;12.9;14.0;0.0
2.0;1753879335.242416;15.423859;0.92;-1.63;-0.32;0.995825;0.016228;0.006702;111.8;107.0;0.0;12.6;14.0;0.0
2.0;1753879335.247012;15.428492;0.82;-1.59;-0.39;0.998385;0.017593;0.005292;108.0;107.0;0.0;12.8;14.0;0.0
2.0;1753879335.251608;15.434973;0.81;-1.64;-0.25;0.997362;0.01462;0.005958;110.9;107.0;0.0;12.7;14.0;0.0
2.0;1753879335.256204;15.484628;0.9;-1.71;-0.41;0.997179;0.018124;0.005037;104.0;107.0;0.0;13.9;14.0;0.0
2.0;1753879335.2608;15.455221;0.79;-1.66;-0.28;0.996947;0.02059;0.005732;102.6;107.0;0.0;13.0;14.0;0.0
2.0;1753879335.265396;15.458535;0.77;-1.76;-0.37;0.996483;0.015136;0.006169;112.1;107.0;0.0;12.8;14.0;0.0
2.0;1753879335.269992;15.461403;0.86;-1.76;-0.37;0.995442;0.016761;0.005919;106.5;107.0;0.0;13.1;14.0;0.0
2.0;1753879335.274588;15.435354;0.78;-1.59;-0.3;0.99572;0.016141;0.005691;103.6;107.0;0.0;14.4;14.0;0.0
2.0;1753879335.279184;15.484002;0.8;-1.65;-0.33;0.997118;0.015032;0.006724;107.2;107.0;0.0;14.4;14.0;0.0
2.0;1753879335.28378;15.449031;0.8;-1.8;-0.36;0.995782;0.016407;0.006426;101.4;107.0;0.0;13.6;14.0;0.0
2.0;1753879335.288376;15.43341;0.86;-1.72;-0.29;0.996749;0.016439;0.007021;109.5;107.0;0.0;12.8;14.0;0.0
2.0;1753879335.292972;15.46067;0.87;-1.63;-0.34;0.996507;0.01753;0.007327;108.3;107.0;0.0;13.5;14.0;0.0
2.0;1753879335.297568;15.451009;0.78;-1.72;-0.3;0.996813;0.017696;0.006784;105.7;107.0;0.0;13.5;14.0;0.0
2.0;1753879335.302164;15.47703;0.71;-1.79;-0.35;0.995481;0.018127;0.006508;106.8;107.0;0.0;13.2;14.0;0.0
2.0;1753879335.30676;15.457232;0.73;-1.59;-0.4;0.996316;0.018063;0.007515;109.6;107.0;0.0;12.3;14.0;0.0
2.0;1753879335.311356;15.456457;0.74;-1.62;-0.32;0.99558;0.017002;0.006816;98.2;107.0;0.0;13.7;14.0;0.0
2.0;1753879335.3199;15.453125;0.77;-1.68;-0.35;0.996252;0.017324;0.006344;108.0;107.0;0.0;13.0;14.0;0.0
2.0;1753879335.324496;15.47074;0.86;-1.74;-0.31;0.99662;0.017648;0.006248;108.9;107.0;0.0;12.2;14.0;0.0
2.0;1753879335.329092;15.475004;0.79;-1.64;-0.35;0.995735;0.016997;0.005867;104.8;107.0;0.0;12.7;14.0;0.0
2.0;1753879335.333688;15.467339;0.78;-1.71;-0.25;0.996428;0.014814;0.005499;101.2;107.0;0.0;12.3;14.0;0.0
2.0;1753879335.338284;15.444144;0.73;-1.73;-0.37;0.997371;0.013813;0.005795;106.3;107.0;0.0;11.8;14.0;0.0
2.0;1753879335.34288;15.453503;0.86;-1.78;-0.31;0.996984;0.015444;0.005398;105.3;107.0;0.0;12.0;14.0;0.0
2.0;1753879335.347476;15.455809;0.83;-1.69;-0.32;0.995411;0.01445;0.005167;106.6;107.0;0.0;11.6;14.0;0.0
2.0;1753879335.35205;15.445312;0.91;-1.75;-0.28;0.996618;0.01281;0.005734;107.0;107.0;0.0;12.0;14.0;0.0
2.0;1753879335.356646;15.44396;0.9;-1.72;-0.33;0.996157;0.012712;0.006248;105.5;107.0;0.0;11.8;14.0;0.0
2.0;1753879335.361242;15.447193;0.99;-1.76;-0.21;0.996332;0.013817;0.00541;107.0;107.0;0.0;11.9;14.0;0.0
2.0;1753879335.365838;15.424484;0.92;-1.71;-0.36;0.996638;0.011449;0.005401;107.8;107.0;0.0;12.2;14.0;0.0
2.0;1753879335.370434;15.453121;0.9;-1.73;-0.29;0.996572;0.014624;0.005636;107.2;107.0;0.0;11.6;14.0;0.0
2.0;1753879335.37503;15.472675;0.84;-1.77;-0.3;0.995295;0.012024;0.005094;113.4;107.0;0.0;11.8;14.0;0.0
2.0;1753879335.379626;15.437992;0.85;-1.68;-0.26;0.996656;0.015537;0.006257;107.8;107.0;0.0;12.0;14.0;0.0
2.0;1753879335.384222;15.420352;0.93;-1.67;-0.26;0.995818;0.013699;0.005821;108.4;107.0;0.0;12.3;14.0;0.0
2.0;1753879335.388818;15.429979;0.78;-1.6;-0.29;0.997324;0.017354;0.006574;105.8;107.0;0.0;12.3;14.0;0.0
2.0;1753879335.393414;15.455164;0.89;-1.65;-0.36;0.995947;0.016317;0.006778;107.7;107.0;0.0;12.2;14.0;0.0
2.0;1753879335.39801;15.424604;0.86;-1.67;-0.34;0.996979;0.015976;0.004632;108.8;107.0;0.0;11.9;14.0;0.0
2.0;1753879335.402606;15.465908;0.93;-1.62;-0.34;0.995914;0.018529;0.004535;108.3;107.0;0.0;11.8;14.0;0.0
2.0;1753879335.407202;15.453493;0.99;-1.66;-0.34;0.996375;0.017548;0.004867;108.4;107.0;0.0;12.1;14.0;0.0
2.0;1753879335.411798;15.433273;0.91;-1.57;-0.28;0.994746;0.016295;0.005113;106.1;107.0;0.0;11.7;14.0;0.0
2.0;1753879335.416394;15.42285;0.94;-1.57;-0.35;0.995893;0.016317;0.003087;106.4;107.0;0.0;12.6;14.0;0.0
2.0;1753879335.42099;15.449231;0.84;-1.61;-0.33;0.994565;0.017967;0.004461;108.1;107.0;0.0;12.1;14.0;0.0
2.0;1753879335.42685;15.445312;0.91;-1.61;-0.35;0.996252;0.015494;0.004636;107.0;107.0;0.0;12.0;14.0;0.0
2.0;1753879335.431446;15.460052;0.92;-1.58;-0.34;0.995807;0.012173;0.004721;107.7;107.0;0.0;12.1;14.0;0.0
2.0;1753879335.436042;15.4518;0.82;-1.69;-0.29;0.996645;0.013038;0.004478;106.8;107.0;0.0;11.4;14.0;0.0
2.0;1753879335.44331;15.4375;0.91;-1.75;-0.28;0.997228;0.01342;0.006588;107.0;107.0;0.0;12.0;14.0;0.0
2.0;1753879335.447906;15.4627;0.9;-1.73;-0.24;0.997001;0.012417;0.007488;106.3;107.0;0.0;11.4;14.0;0.0
2.0;1753879335.452502;15.426089;0.96;-1.7;-0.32;0.997081;0.013784;0.006513;104.9;107.0;0.0;12.0;14.0;0.0
2.0;1753879335.457098;15.435135;0.94;-1.7;-0.25;0.997707;0.014035;0.006609;110.9;107.0;0.0;12.1;14.0;0.0
2.0;1753879335.461694;15.442862;0.96;-1.67;-0.28;0.997612;0.013958;0.006417;104.9;107.0;0.0;11.8;14.0;0.0
2.0;1753879335.46629;15.45834;0.87;-1.7;-0.35;0.996967;0.014109;0.006866;108.5;107.0;0.0;12.3;14.0;0.0
2.0;1753879335.470886;15.446818;0.85;-1.75;-0.27;0.997947;0.013434;0.006133;106.3;107.0;0.0;11.2;14.0;0.0
2.0;1753879335.475482;15.419354;0.87;-1.66;-0.22;0.997294;0.016121;0.006004;107.9;107.0;0.0;12.8;14.0;0.0
2.0;1753879335.480078;15.450277;1.05;-1.7;-0.3;0.997474;0.016549;0.005743;106.0;107.0;0.0;13.5;14.0;0.0
2.0;1753879335.484674;15.452022;0.96;-1.66;-0.35;0.996756;0.015424;0.00733;108.3;107.0;0.0;11.9;14.0;0.0
2.0;1753879335.48925;15.4375;0.98;-1.68;-0.28;0.997472;0.015738;0.006344;107.0;107.0;0.0;12.0;14.0;0.0
2.0;1753879335.493846;15.442464;0.96;-1.64;-0.29;0.997528;0.016257;0.007339;106.3;107.0;0.0;12.0;14.0;0.0
2.0;1753879335.498442;15.452599;0.97;-1.71;-0.3;0.997305;0.015755;0.005637;107.3;107.0;0.0;12.2;14.0;0.0
2.0;1753879335.503038;15.427636;0.98;-1.63;-0.28;0.997166;0.019757;0.005915;106.9;107.0;0.0;12.1;14.0;0.0
2.0;1753879335.507634;15.426004;0.88;-1.58;-0.24;0.997414;0.017336;0.005672;106.9;107.0;0.0;12.3;14.0;0.0
2.0;1753879335.51223;15.44625;1.01;-1.56;-0.26;0.997155;0.015464;0.004164;107.2;107.0;0.0;12.8;14.0;0.0
2.0;1753879335.516826;15.427528;0.93;-1.65;-0.36;0.997161;0.020857;0.006232;107.9;107.0;0.0;11.3;14.0;0.0
2.0;1753879335.521422;15.451103;0.94;-1.64;-0.24;0.997813;0.016399;0.005958;107.3;107.0;0.0;12.5;14.0;0.0
2.0;1753879335.526018;15.456287;1.03;-1.61;-0.23;0.996461;0.018545;0.005064;107.5;107.0;0.0;11.6;14.0;0.0
2.0;1753879335.530614;15.435702;0.95;-1.64;-0.36;0.997727;0.019514;0.004371;106.5;107.0;0.0;12.0;14.0;0.0
2.0;1753879335.53815;15.4375;0.98;-1.61;-0.28;0.996984;0.01647;0.005002;107.0;107.0;0.0;12.0;14.0;0.0
2.0;1753879335.542746;15.440147;0.97;-1.67;-0.24;0.996486;0.013372;0.004151;104.7;107.0;0.0;11.2;14.0;0.0
2.0;1753879335.547342;15.436412;0.87;-1.62;-0.28;0.996996;0.015435;0.005126;103.8;107.0;0.0;9.8;14.0;0.0
2.0;1753879335.551938;15.429273;0.88;-1.6;-0.33;0.996447;0.013295;0.004481;105.8;107.0;0.0;11.0;14.0;0.0
2.0;1753879335.556534;15.404827;0.92;-1.58;-0.17;0.997795;0.016951;0.005825;109.1;107.0;0.0;11.8;14.0;0.0
2.0;1753879335.56113;15.421478;0.88;-1.53;-0.25;0.996868;0.01623;0.003919;112.9;107.0;0.0;10.3;14.0;0.0
2.0;1753879335.565726;15.423393;0.91;-1.64;-0.31;0.996314;0.013573;0.006209;114.0;107.0;0.0;10.1;14.0;0.0
2.0;1753879335.570322;15.456919;0.89;-1.57;-0.25;0.997139;0.016138;0.005171;110.7;107.0;0.0;11.2;14.0;0.0
2.0;1753879335.574918;15.417679;0.96;-1.58;-0.27;0.996493;0.01764;0.005768;119.1;107.0;0.0;11.1;14.0;0.0
2.0;1753879335.579514;15.449909;0.93;-1.59;-0.25;0.99787;0.014851;0.006046;114.9;107.0;0.0;11.1;14.0;0.0
2.0;1753879335.58411;15.444707;0.79;-1.63;-0.31;0.996804;0.017504;0.0068;113.2;107.0;0.0;10.6;14.0;0.0
2.0;1753879335.588706;15.413236;0.87;-1.64;-0.27;0.997276;0.014838;0.007262;115.4;107.0;0.0;11.4;14.0;0.0
2.0;1753879335.593302;15.429681;0.83;-1.71;-0.26;0.997135;0.011259;0.00512;120.5;107.0;0.0;10.7;14.0;0.0
2.0;1753879335.597898;15.484835;0.83;-1.65;-0.27;0.997379;0.016007;0.005928;120.7;107.0;0.0;10.5;14.0;0.0
2.0;1753879335.602494;15.420542;0.83;-1.63;-0.25;0.997466;0.014074;0.007535;121.8;107.0;0.0;11.5;14.0;0.0
2.0;1753879335.60709;15.427147;0.7;-1.6;-0.23;0.99748;0.015441;0.005975;114.7;107.0;0.0;10.9;14.0;0.0
2.0;1753879335.61575;15.4375;0.84;-1.61;-0.28;0.997228;0.01342;0.00671;121.0;107.0;0.0;10.0;14.0;0.0
2.0;1753879335.620346;15.435564;0.93;-1.68;-0.27;0.99663;0.013366;0.005647;131.2;107.0;0.0;9.0;14.0;0.0
2.0;1753879335.62604;15.425781;0.84;-1.68;-0.35;0.995764;0.015738;0.00488;121.0;107.0;0.0;10.0;14.0;0.0
2.0;1753879335.630636;15.436429;0.84;-1.59;-0.36;0.995116;0.015408;0.004427;121.0;107.0;0.0;11.2;14.0;0.0
2.0;1753879335.635232;15.435876;0.82;-1.65;-0.37;0.996223;0.01785;0.005856;126.9;107.0;0.0;10.8;14.0;0.0
2.0;1753879335.639828;15.435624;0.81;-1.61;-0.29;0.995882;0.016149;0.005352;119.1;107.0;0.0;11.3;14.0;0.0
2.0;1753879335.644424;15.445414;0.73;-1.59;-0.34;0.996732;0.015452;0.005802;112.7;107.0;0.0;7.5;14.0;0.0
2.0;1753879335.64902;15.432238;0.96;-1.66;-0.38;0.996574;0.017236;0.005882;110.6;107.0;0.0;8.3;14.0;0.0
2.0;1753879335.653616;15.438975;0.81;-1.67;-0.35;0.996058;0.015641;0.005938;121.0;107.0;0.0;11.5;14.0;0.0
2.0;1753879335.658212;15.44042;0.81;-1.73;-0.38;0.996553;0.015258;0.005411;122.4;107.0;0.0;11.5;14.0;0.0
2.0;1753879335.662808;15.412344;0.79;-1.63;-0.37;0.995645;0.014328;0.006788;124.8;107.0;0.0;9.4;14.0;0.0
2.0;1753879335.667404;15.431705;0.71;-1.58;-0.37;0.997718;0.014029;0.006686;127.5;107.0;0.0;10.2;14.0;0.0
2.0;1753879335.67207;15.425781;0.84;-1.68;-0.35;0.997228;0.015128;0.006222;121.0;107.0;0.0;10.0;14.0;0.0
2.0;1753879335.676666;15.453733;0.77;-1.67;-0.28;0.997711;0.013925;0.006387;119.2;107.0;0.0;11.2;14.0;0.0
2.0;1753879335.681262;15.407284;0.8;-1.7;-0.29;0.997036;0.016915;0.005849;124.6;107.0;0.0;11.5;14.0;0.0
2.0;1753879335.685858;15.420123;0.84;-1.68;-0.28;0.997465;0.013268;0.005551;125.0;107.0;0.0;9.5;14.0;0.0
2.0;1753879335.690454;15.449879;0.9;-1.68;-0.26;0.997326;0.015978;0.005689;124.3;107.0;0.0;8.7;14.0;0.0
2.0;1753879335.69505;15.431068;0.82;-1.71;-0.32;0.996155;0.01365;0.005726;123.9;107.0;0.0;9.5;14.0;0.0
2.0;1753879335.699646;15.424127;0.8;-1.66;-0.27;0.996023;0.015035;0.005042;119.7;107.0;0.0;8.4;14.0;0.0
2.0;1753879335.704242;15.425561;0.85;-1.71;-0.32;0.996716;0.01633;0.004477;126.3;107.0;0.0;10.2;14.0;0.0
2.0;1753879335.708838;15.451143;0.83;-1.72;-0.27;0.996783;0.01526;0.004259;119.2;107.0;0.0;9.2;14.0;0.0
2.0;1753879335.713434;15.391596;0.85;-1.76;-0.23;0.995933;0.015451;0.00476;126.1;107.0;0.0;10.2;14.0;0.0
2.0;1753879335.71878;15.425781;0.91;-1.68;-0.28;0.996252;0.014884;0.005002;121.0;107.0;0.0;10.0;14.0;0.0
2.0;1753879335.723376;15.462022;0.99;-1.69;-0.31;0.997223;0.017853;0.003904;119.5;107.0;0.0;9.6;14.0;0.0
2.0;1753879335.727972;15.393554;0.98;-1.72;-0.19;0.996366;0.014376;0.004131;108.0;107.0;0.0;8.5;14.0;0.0
2.0;1753879335.732568;15.442766;0.87;-1.7;-0.25;0.996437;0.016058;0.005442;120.0;107.0;0.0;10.4;14.0;0.0
2.0;1753879335.737164;15.448396;0.99;-1.63;-0.26;0.995994;0.013862;0.005688;121.6;107.0;0.0;11.6;14.0;0.0
2.0;1753879335.74176;15.429102;0.99;-1.67;-0.32;0.9968;0.016935;0.004206;124.8;107.0;0.0;9.7;14.0;0.0
2.0;1753879335.746356;15.455224;0.79;-1.61;-0.32;0.996502;0.016504;0.006039;125.9;107.0;0.0;11.9;14.0;0.0
2.0;1753879335.750952;15.422947;0.91;-1.66;-0.22;0.995962;0.015637;0.00496;133.2;107.0;0.0;10.1;14.0;0.0
2.0;1753879335.755548;15.424715;0.95;-1.59;-0.39;0.996246;0.014667;0.005695;120.5;107.0;0.0;10.4;14.0;0.0
2.0;1753879335.760144;15.441076;0.93;-1.72;-0.34;0.996733;0.015743;0.006134;122.6;107.0;0.0;9.0;14.0;0.0
2.0;1753879335.76474;15.422679;0.94;-1.63;-0.38;0.996372;0.014953;0.006633;119.2;107.0;0.0;10.1;14.0;0.0
2.0;1753879335.77346;15.425781;0.91;-1.68;-0.35;0.995398;0.01525;0.00549;121.0;107.0;0.0;10.0;14.0;0.0
2.0;1753879335.778056;15.404098;0.9;-1.59;-0.37;0.996394;0.015698;0.006477;121.0;107.0;0.0;10.5;14.0;0.0
2.0;1753879335.782652;15.466905;0.92;-1.54;-0.37;0.995901;0.013295;0.006032;123.9;107.0;0.0;8.2;14.0;0.0
2.0;1753879335.787248;15.446768;0.84;-1.62;-0.34;0.995069;0.015528;0.005399;124.7;107.0;0.0;10.9;14.0;0.0
2.0;1753879335.791844;15.463749;0.97;-1.56;-0.42;0.996582;0.013377;0.003601;122.3;107.0;0.0;9.8;14.0;0.0
2.0;1753879335.79644;15.474956;0.9;-1.6;-0.35;0.996697;0.015518;0.006432;112.5;107.0;0.0;10.6;14.0;0.0
2.0;1753879335.801036;15.511626;0.97;-1.59;-0.37;0.996078;0.015243;0.00448;122.3;107.0;0.0;9.0;14.0;0.0
2.0;1753879335.80926;15.496094;0.91;-1.54;-0.35;0.996862;0.014884;0.004392;121.0;107.0;0.0;10.0;14.0;0.0
2.0;1753879335.813856;15.506982;0.92;-1.55;-0.29;0.996371;0.014415;0.00325;138.4;107.0;0.0;9.1;14.0;0.0
2.0;1753879335.818452;15.49284;0.93;-1.42;-0.4;0.996875;0.013883;0.005745;119.9;107.0;0.0;8.3;14.0;0.0
2.0;1753879335.823048;15.473656;0.98;-1.48;-0.39;0.996054;0.013294;0.004966;123.4;107.0;0.0;7.5;14.0;0.0
2.0;1753879335.827644;15.4663;0.82;-1.43;-0.35;0.99822;0.016291;0.003621;124.7;107.0;0.0;9.1;14.0;0.0
2.0;1753879335.83224;15.486473;0.9;-1.47;-0.34;0.996754;0.015331;0.006524;133.3;107.0;0.0;12.0;14.0;0.0
2.0;1753879335.836836;15.455743;1.04;-1.54;-0.33;0.997592;0.016239;0.004863;110.3;107.0;0.0;8.9;14.0;0.0
2.0;1753879335.841432;15.528434;0.84;-1.6;-0.38;0.997056;0.016293;0.004968;115.9;107.0;0.0;9.7;14.0;0.0
2.0;1753879335.846028;15.472695;1.02;-1.5;-0.4;0.996617;0.01302;0.005401;120.2;107.0;0.0;9.8;14.0;0.0
2.0;1753879335.850624;15.529272;0.81;-1.58;-0.43;0.996447;0.014975;0.002993;120.6;107.0;0.0;9.6;14.0;0.0
2.0;1753879335.85522;15.496579;0.91;-1.54;-0.32;0.996498;0.015453;0.005327;132.7;107.0;0.0;10.6;14.0;0.0
2.0;1753879335.859816;15.488342;0.84;-1.53;-0.39;0.995846;0.016299;0.004904;120.6;107.0;0.0;10.9;14.0;0.0
2.0;1753879335.86755;15.496094;0.91;-1.54;-0.35;0.996374;0.015616;0.005612;121.0;107.0;0.0;10.0;14.0;0.0
2.0;1753879335.872146;15.527024;0.85;-1.58;-0.36;0.996261;0.015668;0.006422;110.0;107.0;0.0;9.3;14.0;0.0
2.0;1753879335.876742;15.496845;0.92;-1.55;-0.36;0.996706;0.017415;0.00493;131.5;107.0;0.0;10.4;14.0;0.0
2.0;1753879335.881338;15.431123;0.9;-1.53;-0.35;0.997432;0.016257;0.005714;120.5;107.0;0.0;9.9;14.0;0.0
2.0;1753879335.885934;15.462587;0.92;-1.64;-0.4;0.996736;0.013473;0.004995;115.8;107.0;0.0;11.2;14.0;0.0
2.0;1753879335.89053;15.484915;0.88;-1.67;-0.38;0.99704;0.013822;0.0045;128.0;107.0;0.0;9.6;14.0;0.0
2.0;1753879335.895126;15.513795;0.81;-1.52;-0.32;0.997641;0.015024;0.005554;121.1;107.0;0.0;10.4;14.0;0.0
2.0;1753879335.899722;15.544356;0.9;-1.5;-0.33;0.996863;0.014673;0.006326;124.4;107.0;0.0;9.5;14.0;0.0
2.0;1753879335.904318;15.45426;0.89;-1.65;-0.34;0.996548;0.013943;0.005634;113.1;107.0;0.0;9.4;14.0;0.0
2.0;1753879335.908914;15.505049;0.94;-1.66;-0.33;0.997856;0.012504;0.00505;115.9;107.0;0.0;9.0;14.0;0.0
2.0;1753879335.91351;15.450021;0.92;-1.74;-0.41;0.99689;0.013309;0.004172;112.0;107.0;0.0;11.3;14.0;0.0
2.0;1753879335.918106;15.441972;0.92;-1.66;-0.34;0.997442;0.010411;0.004986;112.5;107.0;0.0;9.7;14.0;0.0
2.0;1753879335.922702;15.507011;0.94;-1.66;-0.34;0.998542;0.013664;0.006097;125.5;107.0;0.0;10.8;14.0;0.0
2.0;1753879335.927298;15.515639;0.82;-1.65;-0.35;0.998185;0.009607;0.005983;125.7;107.0;0.0;10.4;14.0;0.0
2.0;1753879335.931894;15.512142;0.86;-1.62;-0.48;0.99902;0.013403;0.005149;135.3;107.0;0.0;9.3;14.0;0.0
2.0;1753879335.94012;15.496094;0.91;-1.68;-0.42;0.998448;0.011834;0.005124;121.0;107.0;0.0;10.0;14.0;0.0
2.0;1753879335.94605;15.496094;0.91;-1.68;-0.35;0.997228;0.017812;0.005856;121.0;107.0;0.0;10.0;14.0;0.0
2.0;1753879335.950646;15.507225;0.92;-1.6;-0.28;0.997002;0.01496;0.006849;124.3;107.0;0.0;10.2;14.0;0.0
2.0;1753879335.955242;15.511532;0.98;-1.71;-0.29;0.997976;0.017749;0.005651;137.0;107.0;0.0;11.3;14.0;0.0
2.0;1753879335.959838;15.4395;0.89;-1.69;-0.31;0.996067;0.016472;0.005448;124.9;107.0;0.0;10.0;14.0;0.0
2.0;1753879335.964434;15.475357;0.95;-1.64;-0.37;0.997038;0.016588;0.005684;126.3;107.0;0.0;9.7;14.0;0.0
2.0;1753879335.96903;15.466768;0.96;-1.71;-0.27;0.99698;0.017947;0.005768;120.6;107.0;0.0;10.2;14.0;0.0
2.0;1753879335.973626;15.468816;0.96;-1.74;-0.22;0.996366;0.019974;0.00496;126.2;107.0;0.0;10.1;14.0;0.0
2.0;1753879335.978222;15.488847;1.0;-1.74;-0.33;0.996025;0.015061;0.003741;127.1;107.0;0.0;9.3;14.0;0.0
2.0;1753879335.982818;15.408587;1.0;-1.65;-0.33;0.996893;0.011878;0.005219;132.0;107.0;0.0;8.9;14.0;0.0
2.0;1753879335.987414;15.389342;0.98;-1.58;-0.2;0.997484;0.01681;0.004674;113.9;107.0;0.0;11.9;14.0;0.0
2.0;1753879335.99238;15.453125;0.98;-1.68;-0.28;0.996618;0.01403;0.004514;121.0;107.0;0.0;10.0;14.0;0.0
2.0;1753879335.995684;15.460938;2.8;-2.87;43.89;0.84363;-0.56059;-0.015982;91.0;107.0;0.0;6.0;14.0;0.0
2.0;1753879336.00028;15.447488;2.24;-2.69;49.97;0.831082;-0.575322;0.048428;91.0;107.0;0.0;6.0;14.0;0.0
2.0;1753879336.004876;15.448502;4.22;-3.11;47.92;0.869224;-0.544608;-0.003883;92.7;107.0;0.0;6.0;14.0;0.0
2.0;1753879336.009472;15.446159;3.91;-2.22;48.33;0.805489;-0.607159;-0.052689;93.3;107.0;0.0;6.2;14.0;0.0
2.0;1753879336.014068;15.462433;2.99;-3.57;42.16;0.902586;-0.535515;-0.036406;91.7;107.0;0.0;5.7;14.0;0.0
2.0;1753879336.018664;15.403191;3.12;-3.14;37.57;0.837087;-0.548154;-0.019612;92.3;107.0;0.0;6.1;14.0;0.0
2.0;1753879336.02326;15.473541;5.0;-2.27;47.38;0.835352;-0.520333;-0.001878;90.4;107.0;0.0;6.0;14.0;0.0
2.0;1753879336.027856;15.4433;3.14;-1.96;50.59;0.870969;-0.542967;-0.069227;90.1;107.0;0.0;6.2;14.0;0.0
2.0;1753879336.032452;15.458707;3.4;-3.49;57.86;0.793365;-0.440255;-0.020761;91.6;107.0;0.0;5.3;14.0;0.0
2.0;1753879336.037048;15.455241;2.33;-3.42;47.44;0.849224;-0.518017;-0.054592;91.4;107.0;0.0;6.6;14.0;0.0
2.0;1753879336.041644;15.44484;3.71;-2.78;39.44;0.809535;-0.50542;0.057237;91.1;107.0;0.0;6.0;14.0;0.0
2.0;1753879336.04624;15.395113;2.77;-2.79;38.71;0.767761;-0.543422;-0.062492;90.3;107.0;0.0;5.9;14.0;0.0
2.0;1753879336.050836;15.41214;1.68;-3.52;46.83;0.858781;-0.490764;-0.067187;90.3;107.0;0.0;5.8;14.0;0.0
2.0;1753879336.055432;15.418257;3.48;-3.12;46.27;0.808546;-0.592442;0.016327;91.4;107.0;0.0;6.3;14.0;0.0
2.0;1753879336.060028;15.466127;3.31;-2.72;35.91;0.920578;-0.522009;0.007688;89.3;107.0;0.0;6.1;14.0;0.0
2.0;1753879336.064624;15.483729;3.59;-2.05;50.02;0.85023;-0.641682;-0.06933;90.3;107.0;0.0;6.8;14.0;0.0
2.0;1753879336.06922;15.506925;1.8;-3.23;31.89;0.806301;-0.580067;-0.027083;93.2;107.0;0.0;6.0;14.0;0.0
2.0;1753879336.073816;15.453974;3.12;-3.38;39.87;0.819299;-0.609068;0.014098;91.7;107.0;0.0;6.1;14.0;0.0
2.0;1753879336.078412;15.447198;3.56;-2.49;48.63;0.857592;-0.512073;-0.04547;92.1;107.0;0.0;5.8;14.0;0.0
2.0;1753879336.083008;15.472443;2.82;-3.18;49.09;0.883705;-0.516468;0.069551;92.0;107.0;0.0;5.0;14.0;0.0
2.0;1753879336.087604;15.449723;2.53;-3.85;44.86;0.810339;-0.58252;0.014196;90.7;107.0;0.0;6.2;14.0;0.0
2.0;1753879336.0922;15.44885;3.75;-3.21;48.31;0.836736;-0.583457;-0.027566;91.4;107.0;0.0;6.4;14.0;0.0
2.0;1753879336.096796;15.418817;0.98;-2.45;40.72;0.797883;-0.520591;-0.034544;91.6;107.0;0.0;5.3;14.0;0.0
2.0;1753879336.101392;15.462558;2.59;-2.64;54.36;0.898332;-0.56676;-0.060055;89.5;107.0;0.0;6.8;14.0;0.0
2.0;1753879336.105988;15.485358;1.11;-3.59;50.15;0.840086;-0.504815;0.042712;91.6;107.0;0.0;6.3;14.0;0.0
2.0;1753879336.110584;15.495074;3.71;-2.79;57.04;0.939254;-0.598983;-0.01922;91.9;107.0;0.0;6.2;14.0;0.0
2.0;1753879336.11518;15.46306;3.17;-2.92;39.21;0.773049;-0.564014;0.002523;91.4;107.0;0.0;6.2;14.0;0.0
2.0;1753879336.119776;15.454674;2.8;-2.83;42.72;0.811504;-0.532392;0.011076;90.6;107.0;0.0;5.3;14.0;0.0
2.0;1753879336.124372;15.491924;3.21;-2.85;45.73;0.826001;-0.496992;0.066479;92.0;107.0;0.0;5.9;14.0;0.0
2.0;1753879336.128968;15.519724;2.51;-2.77;31.61;0.923784;-0.538345;0.01127;90.0;107.0;0.0;6.2;14.0;0.0
2.0;1753879336.133564;15.499278;3.01;-2.87;43.84;0.878522;-0.554123;-0.091504;92.9;107.0;0.0;6.0;14.0;0.0
2.0;1753879336.13816;15.483628;3.86;-1.59;51.66;0.802725;-0.538807;0.00673;89.2;107.0;0.0;6.4;14.0;0.0
2.0;1753879336.142756;15.432795;3.82;-3.9;39.64;0.863494;-0.571455;-0.061756;90.8;107.0;0.0;5.1;14.0;0.0
2.0;1753879336.147352;15.485186;2.41;-3.27;62.77;0.83906;-0.507621;0.029051;89.1;107.0;0.0;5.9;14.0;0.0
2.0;1753879336.151948;15.49635;2.2;-2.72;49.48;0.856896;-0.58262;0.022483;92.7;107.0;0.0;5.2;14.0;0.0
2.0;1753879336.156544;15.432778;3.3;-3.56;35.77;0.917265;-0.548741;-0.030015;90.9;107.0;0.0;5.4;14.0;0.0
2.0;1753879336.16114;15.490877;2.82;-2.46;47.2;0.80622;-0.593001;0.026303;90.3;107.0;0.0;6.4;14.0;0.0
2.0;1753879336.165736;15.450177;2.24;-2.67;49.11;0.805082;-0.565626;0.058484;91.9;107.0;0.0;5.9;14.0;0.0
2.0;1753879336.170332;15.503072;2.44;-3.26;40.34;0.889183;-0.63059;0.066857;93.1;107.0;0.0;5.3;14.0;0.0
2.0;1753879336.174928;15.50884;1.82;-3.41;34.08;0.90169;-0.528389;0.036991;91.3;107.0;0.0;6.2;14.0;0.0
2.0;1753879336.179524;15.429549;2.51;-2.59;54.79;0.866038;-0.6051;-0.0095;88.5;107.0;0.0;5.8;14.0;0.0
2.0;1753879336.18412;15.471697;1.99;-3.73;56.68;0.868397;-0.579841;-0.044301;91.5;107.0;0.0;5.6;14.0;0.0
2.0;1753879336.188716;15.445623;3.04;-2.5;52.86;0.87857;-0.551872;-0.004948;90.5;107.0;0.0;6.1;14.0;0.0
2.0;1753879336.193312;15.46333;1.69;-4.33;44.55;0.837549;-0.488609;0.000853;94.2;107.0;0.0;5.3;14.0;0.0
2.0;1753879336.197908;15.483573;2.31;-3.03;50.99;0.770709;-0.496301;0.025107;91.4;107.0;0.0;6.3;14.0;0.0
2.0;1753879336.202504;15.425448;3.78;-3.14;58.37;0.91906;-0.414044;-0.070046;91.6;107.0;0.0;6.1;14.0;0.0
2.0;1753879336.2071;15.489489;2.77;-3.01;45.76;0.878239;-0.605069;0.023382;90.3;107.0;0.0;6.3;14.0;0.0
2.0;1753879336.211696;15.506291;1.52;-3.8;49.49;0.85663;-0.53935;-0.007438;89.7;107.0;0.0;6.0;14.0;0.0
2.0;1753879336.216292;15.407714;1.46;-3.74;53.59;0.80483;-0.5007;-0.095146;91.5;107.0;0.0;6.0;14.0;0.0
2.0;1753879336.220888;15.417206;1.7;-3.78;42.03;0.911426;-0.522922;0.025234;91.2;107.0;0.0;6.4;14.0;0.0
2.0;1753879336.225484;15.474722;2.43;-2.95;49.79;0.82586;-0.609641;0.009904;90.4;107.0;0.0;6.2;14.0;0.0
2.0;1753879336.23008;15.526404;3.9;-2.93;31.31;0.829286;-0.653216;-0.065588;91.6;107.0;0.0;6.0;14.0;0.0
2.0;1753879336.234676;15.437085;2.79;-3.28;44.7;0.841555;-0.5274;-0.109737;89.8;107.0;0.0;5.7;14.0;0.0
2.0;1753879336.239272;15.415235;3.26;-3.81;52.55;0.877153;-0.603117;-0.000394;88.4;107.0;0.0;6.1;14.0;0.0
2.0;1753879336.243868;15.444361;2.48;-3.9;43.39;0.841185;-0.496871;0.030268;92.0;107.0;0.0;6.0;14.0;0.0
2.0;1753879336.248464;15.434242;3.14;-2.49;44.7;0.820306;-0.577105;0.015485;89.4;107.0;0.0;6.2;14.0;0.0
2.0;1753879336.25306;15.411595;3.55;-3.92;47.79;0.829959;-0.654638;-0.025455;91.4;107.0;0.0;5.9;14.0;0.0
2.0;1753879336.258;15.460938;3.01;-3.22;46.62;0.840946;-0.555222;-0.013786;91.0;107.0;0.0;6.0;14.0;0.0
2.0;1753879336.262596;15.46091;4.09;-3.27;44.02;0.782149;-0.570431;0.048323;89.5;107.0;0.0;6.1;14.0;0.0
2.0;1753879336.267192;15.493295;3.08;-3.34;53.17;0.838173;-0.595866;-0.135987;90.6;107.0;0.0;5.9;14.0;0.0
2.0;1753879336.271788;15.412977;2.69;-2.05;48.38;0.874838;-0.587769;-0.034281;90.8;107.0;0.0;5.7;14.0;0.0
2.0;1753879336.276384;15.523386;3.52;-1.72;53.11;0.838467;-0.522267;-0.067324;91.2;107.0;0.0;6.3;14.0;0.0
2.0;1753879336.28098;15.507114;2.59;-4.83;55.69;0.786251;-0.532984;-0.000999;89.9;107.0;0.0;5.4;14.0;0.0
2.0;1753879336.285576;15.434793;1.72;-3.05;48.7;0.792716;-0.623552;-0.013428;90.2;107.0;0.0;5.2;14.0;0.0
2.0;1753879336.290172;15.459519;2.59;-4.47;47.64;0.868353;-0.549904;0.005265;91.9;107.0;0.0;6.6;14.0;0.0
2.0;1753879336.294768;15.477067;4.86;-4.01;50.17;0.855545;-0.619757;-0.068443;90.8;107.0;0.0;5.5;14.0;0.0
2.0;1753879336.299364;15.477922;4.47;-4.42;49.74;0.813526;-0.631271;0.0709;90.7;107.0;0.0;6.4;14.0;0.0
2.0;1753879336.30396;15.499527;2.2;-3.22;50.59;0.779299;-0.530778;0.029744;88.8;107.0;0.0;6.4;14.0;0.0
2.0;1753879336.308556;15.488748;3.49;-2.52;40.63;0.922862;-0.519445;-0.031438;92.1;107.0;0.0;6.5;14.0;0.0
2.0;1753879336.313152;15.532915;3.11;-4.34;39.12;0.835736;-0.569805;0.018928;89.5;107.0;0.0;6.0;14.0;0.0
2.0;1753879336.317748;15.440947;3.37;-3.26;43.53;0.881383;-0.56709;-0.043375;91.5;107.0;0.0;4.9;14.0;0.0
2.0;1753879336.322344;15.515238;4.36;-3.92;61.01;0.805049;-0.649581;0.083412;91.9;107.0;0.0;5.7;14.0;0.0
2.0;1753879336.32694;15.441931;2.55;-3.29;46.75;0.834076;-0.555947;0.045449;91.2;107.0;0.0;5.3;14.0;0.0
2.0;1753879336.331536;15.410011;2.18;-3.25;46.67;0.862333;-0.563854;-0.011868;89.3;107.0;0.0;6.0;14.0;0.0
2.0;1753879336.336132;15.46843;2.87;-3.03;47.19;0.877014;-0.635056;-0.074083;91.5;107.0;0.0;6.4;14.0;0.0
2.0;1753879336.340728;15.434487;3.98;-2.49;47.38;0.79882;-0.630125;-0.060901;90.6;107.0;0.0;5.8;14.0;0.0
2.0;1753879336.345324;15.473787;2.6;-3.14;59.98;0.848104;-0.52176;0.007608;89.9;107.0;0.0;6.4;14.0;0.0
2.0;1753879336.34992;15.379724;2.71;-3.82;45.81;0.860929;-0.561284;0.016871;93.0;107.0;0.0;5.8;14.0;0.0
2.0;1753879336.354516;15.469359;2.18;-4.32;51.37;0.848049;-0.570245;0.042223;89.4;107.0;0.0;6.1;14.0;0.0
2.0;1753879336.359112;15.430802;2.97;-3.53;35.59;0.85185;-0.524772;-0.018173;92.0;107.0;0.0;7.1;14.0;0.0
2.0;1753879336.363708;15.493041;3.54;-1.71;39.85;0.795918;-0.580702;-0.041628;91.4;107.0;0.0;5.3;14.0;0.0
2.0;1753879336.368304;15.487838;2.84;-3.02;41.1;0.841296;-0.625256;-0.028473;89.8;107.0;0.0;5.9;14.0;0.0
2.0;1753879336.3729;15.403354;3.83;-2.58;48.89;0.796315;-0.523424;-0.102087;90.5;107.0;0.0;5.1;14.0;0.0
2.0;1753879336.377496;15.443506;3.55;-4.13;57.23;0.782644;-0.615662;-0.004043;89.4;107.0;0.0;6.9;14.0;0.0
2.0;1753879336.382092;15.462291;3.13;-2.66;49.2;0.812168;-0.546904;0.00281;88.7;107.0;0.0;5.8;14.0;0.0
2.0;1753879336.386688;15.449342;3.52;-2.92;40.33;0.83887;-0.606123;0.047547;89.3;107.0;0.0;5.6;14.0;0.0
2.0;1753879336.391284;15.385634;1.86;-3.4;49.88;0.874016;-0.639668;0.056749;90.2;107.0;0.0;6.1;14.0;0.0
2.0;1753879336.39588;15.424944;3.49;-3.18;43.91;0.790828;-0.533418;0.033714;93.1;107.0;0.0;6.3;14.0;0.0
2.0;1753879336.400476;15.456897;3.29;-3.18;49.57;0.801872;-0.546851;0.082491;92.1;107.0;0.0;6.3;14.0;0.0
2.0;1753879336.405072;15.53332;3.92;-4.38;57.72;0.800299;-0.623862;0.085833;90.7;107.0;0.0;6.2;14.0;0.0
2.0;1753879336.409668;15.461963;2.92;-3.34;36.49;0.834251;-0.480132;0.012995;92.5;107.0;0.0;6.0;14.0;0.0
2.0;1753879336.414264;15.430863;4.69;-4.19;42.34;0.820447;-0.648299;0.152016;89.8;107.0;0.0;6.3;14.0;0.0
2.0;1753879336.41886;15.43581;3.82;-3.13;38.97;0.900433;-0.604288;-0.059996;90.5;107.0;0.0;6.7;14.0;0.0
2.0;1753879336.423456;15.389513;3.13;-2.76;56.53;0.871315;-0.571381;-0.009933;88.0;107.0;0.0;6.1;14.0;0.0
2.0;1753879336.428052;15.476948;2.47;-2.5;54.75;0.84845;-0.566448;0.016747;93.5;107.0;0.0;6.3;14.0;0.0
2.0;1753879336.432648;15.484539;2.1;-2.47;47.17;0.810782;-0.59177;-0.017946;87.6;107.0;0.0;6.4;14.0;0.0
2.0;1753879336.437244;15.418865;2.14;-4.54;45.35;0.885033;-0.620458;0.048273;90.4;107.0;0.0;5.5;14.0;0.0
2.0;1753879336.44184;15.478849;2.83;-3.76;58.05;0.851932;-0.539384;0.039762;91.2;107.0;0.0;6.6;14.0;0.0
2.0;1753879336.446436;15.402891;3.06;-2.65;51.99;0.841993;-0.559214;0.067668;90.6;107.0;0.0;5.7;14.0;0.0
2.0;1753879336.451032;15.395808;3.44;-4.24;52.4;0.830924;-0.565;0.032985;92.3;107.0;0.0;6.0;14.0;0.0
2.0;1753879336.455628;15.495626;2.08;-1.92;52.95;0.829052;-0.574903;0.0158;90.6;107.0;0.0;6.5;14.0;0.0
2.0;1753879336.460224;15.520516;2.03;-3.71;50.67;0.844421;-0.581506;0.087715;90.4;107.0;0.0;5.9;14.0;0.0
2.0;1753879336.46482;15.432355;3.26;-3.31;45.85;0.764573;-0.539245;0.025774;90.2;107.0;0.0;5.4;14.0;0.0
2.0;1753879336.469416;15.505725;3.31;-3.37;50.39;0.817625;-0.559695;0.028892;91.5;107.0;0.0;5.9;14.0;0.0
2.0;1753879336.474012;15.491579;3.95;-3.22;43.04;0.818212;-0.542419;-0.024037;92.9;107.0;0.0;6.6;14.0;0.0
2.0;1753879336.4812;15.460938;2.94;-3.43;47.67;0.809348;-0.593286;0.026596;91.0;107.0;0.0;6.0;14.0;0.0
2.0;1753879336.485796;15.470982;2.21;-3.66;39.2;0.763568;-0.629591;0.041811;91.7;107.0;0.0;5.9;14.0;0.0
2.0;1753879336.490392;15.450135;4.12;-4.38;47.56;0.792657;-0.636815;0.01838;90.0;107.0;0.0;6.5;14.0;0.0
2.0;1753879336.494988;15.485257;3.65;-2.82;55.73;0.75944;-0.619065;0.053298;89.9;107.0;0.0;6.4;14.0;0.0
2.0;1753879336.499584;15.4729;2.16;-3.24;48.82;0.787156;-0.56453;0.070548;92.3;107.0;0.0;6.8;14.0;0.0
2.0;1753879336.50418;15.475752;3.71;-3.15;46.04;0.801559;-0.659458;-0.005302;89.2;107.0;0.0;5.4;14.0;0.0
2.0;1753879336.508776;15.447349;3.46;-3.93;43.0;0.843316;-0.500405;0.06251;90.2;107.0;0.0;6.1;14.0;0.0
2.0;1753879336.513372;15.46376;2.89;-1.71;50.49;0.790583;-0.574155;0.028229;89.2;107.0;0.0;5.7;14.0;0.0
2.0;1753879336.517968;15.49789;2.37;-2.94;42.9;0.767414;-0.525002;-0.021484;93.2;107.0;0.0;5.5;14.0;0.0
2.0;1753879336.522564;15.450622;2.68;-3.53;40.73;0.772314;-0.539875;0.072704;92.7;107.0;0.0;6.1;14.0;0.0
2.0;1753879336.52716;15.484871;2.57;-3.12;50.09;0.813545;-0.705416;0.087639;91.8;107.0;0.0;6.3;14.0;0.0
2.0;1753879336.531756;15.520899;2.97;-3.04;51.27;0.871251;-0.613833;0.039462;90.8;107.0;0.0;6.7;14.0;0.0
2.0;1753879336.536352;15.448448;1.47;-3.26;44.13;0.754673;-0.601365;-0.010544;91.8;107.0;0.0;6.1;14.0;0.0
2.0;1753879336.540948;15.441601;4.67;-3.84;49.53;0.787335;-0.631314;0.011648;89.5;107.0;0.0;5.9;14.0;0.0
2.0;1753879336.545544;15.451583;3.29;-2.25;54.55;0.860424;-0.582568;0.011977;92.7;107.0;0.0;6.2;14.0;0.0
2.0;1753879336.55014;15.458478;2.69;-2.35;54.95;0.742983;-0.633585;0.041189;89.2;107.0;0.0;6.3;14.0;0.0
2.0;1753879336.554736;15.500953;3.1;-3.55;45.75;0.770919;-0.702884;0.037204;91.0;107.0;0.0;5.0;14.0;0.0
2.0;1753879336.559332;15.443362;3.27;-3.36;47.38;0.833832;-0.703898;-0.016056;89.8;107.0;0.0;5.9;14.0;0.0
2.0;1753879336.563928;15.465117;3.37;-4.1;46.85;0.78772;-0.562753;0.000164;90.8;107.0;0.0;6.7;14.0;0.0
2.0;1753879336.568524;15.40795;2.48;-3.52;45.18;0.739945;-0.521619;0.010674;90.0;107.0;0.0;5.6;14.0;0.0
2.0;1753879336.57312;15.407;4.51;-2.29;39.51;0.804791;-0.576783;0.068046;90.6;107.0;0.0;5.8;14.0;0.0
2.0;1753879336.577716;15.424294;2.52;-3.11;45.9;0.835544;-0.536561;0.032404;91.9;107.0;0.0;6.5;14.0;0.0
2.0;1753879336.582312;15.422743;2.34;-3.64;52.81;0.781913;-0.52619;-0.001722;91.8;107.0;0.0;6.0;14.0;0.0
2.0;1753879336.586908;15.484187;3.32;-3.17;42.9;0.776078;-0.576261;0.065249;91.4;107.0;0.0;5.9;14.0;0.0
2.0;1753879336.591504;15.431784;2.68;-3.33;42.62;0.844349;-0.579992;-0.032502;91.1;107.0;0.0;5.8;14.0;0.0
2.0;1753879336.5961;15.501473;2.57;-1.65;42.93;0.799889;-0.577311;0.066765;91.1;107.0;0.0;5.5;14.0;0.0
2.0;1753879336.600696;15.44337;2.38;-3.77;41.35;0.825648;-0.629929;0.02108;93.6;107.0;0.0;7.0;14.0;0.0
2.0;1753879336.605292;15.452728;3.38;-3.45;45.32;0.753009;-0.58682;0.043934;90.8;107.0;0.0;5.6;14.0;0.0
2.0;1753879336.609888;15.512388;2.34;-2.4;51.66;0.799124;-0.612544;-0.017664;91.1;107.0;0.0;5.2;14.0;0.0
2.0;1753879336.614484;15.45438;2.4;-3.99;41.75;0.774993;-0.599591;0.023659;89.9;107.0;0.0;6.3;14.0;0.0
2.0;1753879336.61908;15.443065;3.35;-2.56;55.53;0.773507;-0.555356;0.013043;89.5;107.0;0.0;6.4;14.0;0.0
2.0;1753879336.623676;15.450641;2.72;-2.96;52.47;0.835073;-0.61467;-0.008843;92.8;107.0;0.0;6.8;14.0;0.0
2.0;1753879336.628272;15.480305;2.05;-3.8;50.32;0.817441;-0.59397;-0.018759;92.0;107.0;0.0;5.7;14.0;0.0
2.0;1753879336.632868;15.396244;1.38;-3.6;53.48;0.793512;-0.491735;0.048161;88.5;107.0;0.0;5.6;14.0;0.0
2.0;1753879336.637464;15.361873;3.67;-2.9;47.48;0.836807;-0.56733;-0.018132;89.9;107.0;0.0;5.3;14.0;0.0
2.0;1753879336.64206;15.476001;1.53;-2.91;52.3;0.791308;-0.663745;0.096302;88.7;107.0;0.0;6.6;14.0;0.0
2.0;1753879336.646656;15.529841;1.52;-3.84;45.79;0.853303;-0.592993;0.043597;91.0;107.0;0.0;5.4;14.0;0.0
2.0;1753879336.651252;15.497827;3.1;-3.9;41.82;0.841933;-0.656676;0.083509;92.9;107.0;0.0;6.0;14.0;0.0
2.0;1753879336.655848;15.518784;2.99;-2.75;53.19;0.808676;-0.593427;0.066862;89.4;107.0;0.0;6.6;14.0;0.0
2.0;1753879336.660444;15.481915;2.08;-3.6;43.16;0.840635;-0.665929;0.086964;90.3;107.0;0.0;5.8;14.0;0.0
2.0;1753879336.66504;15.488127;2.38;-3.5;49.01;0.830819;-0.579518;0.052542;90.0;107.0;0.0;6.6;14.0;0.0
2.0;1753879336.669636;15.432879;3.62;-2.58;48.3;0.778262;-0.606281;0.029368;89.2;107.0;0.0;6.0;14.0;0.0
2.0;1753879336.674232;15.462635;3.69;-3.66;55.98;0.794605;-0.656071;0.032998;92.2;107.0;0.0;5.7;14.0;0.0
2.0;1753879336.678828;15.484624;2.35;-2.91;41.26;0.808003;-0.68481;0.046962;90.7;107.0;0.0;6.8;14.0;0.0
2.0;1753879336.683424;15.406703;2.59;-3.31;36.39;0.792873;-0.53712;0.086688;90.8;107.0;0.0;6.1;14.0;0.0
2.0;1753879336.68802;15.468301;4.67;-4.11;39.41;0.760446;-0.506611;0.017286;92.0;107.0;0.0;6.6;14.0;0.0
2.0;1753879336.692616;15.486447;2.59;-3.49;46.57;0.752593;-0.546483;0.002431;91.8;107.0;0.0;5.4;14.0;0.0
2.0;1753879336.697212;15.453715;1.62;-3.24;41.75;0.768318;-0.570411;0.045502;91.3;107.0;0.0;6.6;14.0;0.0
2.0;1753879336.701808;15.462832;2.27;-4.03;46.41;0.865862;-0.601604;0.077655;92.8;107.0;0.0;5.3;14.0;0.0
2.0;1753879336.706404;15.489533;3.89;-3.27;50.52;0.837976;-0.642067;0.067383;93.4;107.0;0.0;4.6;14.0;0.0
2.0;1753879336.711;15.468581;4.2;-3.2;41.85;0.753771;-0.570966;0.039534;91.6;107.0;0.0;7.0;14.0;0.0
2.0;1753879336.715596;15.421209;2.94;-3.34;52.48;0.783729;-0.539334;-0.009459;93.3;107.0;0.0;6.4;14.0;0.0
2.0;1753879336.720192;15.434316;3.14;-2.48;44.48;0.746961;-0.636611;0.038794;90.0;107.0;0.0;6.8;14.0;0.0
2.0;1753879336.724788;15.454942;3.07;-2.14;50.18;0.788045;-0.594836;0.038724;95.1;107.0;0.0;6.9;14.0;0.0
2.0;1753879336.729384;15.528035;2.87;-2.78;42.56;0.797019;-0.541851;0.064973;92.8;107.0;0.0;6.2;14.0;0.0
2.0;1753879336.73398;15.480342;2.68;-3.31;44.86;0.799132;-0.535926;-0.086712;88.9;107.0;0.0;5.8;14.0;0.0
2.0;1753879336.738576;15.420346;1.8;-2.47;52.95;0.78276;-0.641683;0.047216;89.2;107.0;0.0;4.2;14.0;0.0
2.0;1753879336.743172;15.396122;4.01;-4.07;39.8;0.800497;-0.58443;0.047308;91.2;107.0;0.0;6.2;14.0;0.0
2.0;1753879336.747768;15.457337;3.72;-2.71;46.66;0.814968;-0.631158;0.075984;90.1;107.0;0.0;6.2;14.0;0.0
2.0;1753879336.752364;15.447333;4.3;-3.15;37.34;0.781707;-0.596394;0.15739;90.6;107.0;0.0;6.0;14.0;0.0
2.0;1753879336.75696;15.419851;2.49;-3.92;46.67;0.744022;-0.640771;0.032918;91.8;107.0;0.0;6.4;14.0;0.0
2.0;1753879336.761556;15.483528;1.32;-3.06;45.59;0.821482;-0.634453;0.016976;91.0;107.0;0.0;5.6;14.0;0.0
2.0;1753879336.766152;15.406844;2.98;-3.41;51.32;0.802023;-0.547564;0.12121;90.7;107.0;0.0;6.5;14.0;0.0
2.0;1753879336.770748;15.462088;2.03;-3.52;47.87;0.779622;-0.5782;0.060499;90.9;107.0;0.0;5.0;14.0;0.0
2.0;1753879336.775344;15.523106;3.36;-3.66;57.51;0.811505;-0.570722;-0.031192;94.3;107.0;0.0;7.1;14.0;0.0
2.0;1753879336.77994;15.482467;3.41;-2.45;49.49;0.743105;-0.67867;0.029987;91.9;107.0;0.0;5.4;14.0;0.0
2.0;1753879336.784536;15.472917;3.82;-3.22;46.2;0.724495;-0.558693;0.025401;92.6;107.0;0.0;5.3;14.0;0.0
2.0;1753879336.789132;15.437022;4.78;-3.38;42.4;0.815116;-0.625194;-0.003816;91.1;107.0;0.0;6.6;14.0;0.0
2.0;1753879336.793728;15.532113;3.07;-3.54;46.32;0.796423;-0.676296;-0.016389;92.8;107.0;0.0;5.9;14.0;0.0
2.0;1753879336.798324;15.365964;3.17;-3.31;42.38;0.754968;-0.574886;0.04749;90.9;107.0;0.0;5.2;14.0;0.0
2.0;1753879336.80292;15.407567;3.67;-3.38;49.1;0.792455;-0.68181;0.014261;91.1;107.0;0.0;7.0;14.0;0.0
2.0;1753879336.807516;15.426975;2.4;-2.84;46.75;0.786063;-0.580975;-0.025184;90.6;107.0;0.0;5.6;14.0;0.0
2.0;1753879336.812112;15.519396;2.26;-2.19;39.53;0.779814;-0.590444;-0.051137;90.8;107.0;0.0;6.0;14.0;0.0
2.0;1753879336.816708;15.466183;1.67;-2.09;51.27;0.785721;-0.717077;0.052422;89.6;107.0;0.0;6.5;14.0;0.0
2.0;1753879336.821304;15.506132;2.1;-3.36;52.7;0.770666;-0.67573;0.005903;92.2;107.0;0.0;6.4;14.0;0.0
2.0;1753879336.8259;15.460892;2.45;-2.85;48.39;0.841253;-0.616597;0.056847;90.1;107.0;0.0;5.3;14.0;0.0
2.0;1753879336.830496;15.47629;0.75;-3.41;45.49;0.822437;-0.652033;0.003553;91.8;107.0;0.0;5.3;14.0;0.0
2.0;1753879336.835092;15.486118;3.95;-2.5;43.61;0.850756;-0.678572;0.067262;90.1;107.0;0.0;5.8;14.0;0.0
2.0;1753879336.839688;15.479659;2.5;-3.14;40.7;0.767224;-0.575929;0.043834;89.9;107.0;0.0;6.9;14.0;0.0
2.0;1753879336.844284;15.456564;3.12;-3.03;38.7;0.762219;-0.525601;0.014904;89.6;107.0;0.0;6.7;14.0;0.0
2.0;1753879336.84888;15.4785;2.27;-3.08;45.12;0.805494;-0.5893;0.036602;90.8;107.0;0.0;5.1;14.0;0.0
2.0;1753879336.853476;15.465518;3.04;-3.13;39.39;0.80433;-0.696872;0.010092;92.9;107.0;0.0;6.1;14.0;0.0
2.0;1753879336.858072;15.405539;1.69;-2.78;44.73;0.822933;-0.584184;0.071901;92.1;107.0;0.0;6.1;14.0;0.0
2.0;1753879336.862668;15.4547;2.05;-3.17;39.27;0.764455;-0.606141;0.124518;92.8;107.0;0.0;5.7;14.0;0.0
2.0;1753879336.867264;15.451731;2.82;-3.36;50.65;0.804997;-0.707419;-0.044347;92.1;107.0;0.0;6.6;14.0;0.0
2.0;1753879336.87186;15.422113;1.96;-2.75;48.26;0.80455;-0.514938;-0.031672;88.6;107.0;0.0;6.7;14.0;0.0
2.0;1753879336.876456;15.413574;2.16;-3.14;41.8;0.803351;-0.53628;-0.007852;90.1;107.0;0.0;5.8;14.0;0.0
2.0;1753879336.881052;15.446838;3.31;-2.61;36.7;0.783773;-0.65126;0.012577;90.9;107.0;0.0;6.3;14.0;0.0
2.0;1753879336.885648;15.542628;2.87;-3.28;47.65;0.755578;-0.580918;0.0127;91.0;107.0;0.0;5.9;14.0;0.0
2.0;1753879336.890244;15.486858;2.04;-3.3;45.74;0.72067;-0.656212;0.114192;90.6;107.0;0.0;6.4;14.0;0.0
2.0;1753879336.89484;15.436797;2.02;-2.19;44.77;0.780259;-0.662607;-0.018032;89.4;107.0;0.0;5.6;14.0;0.0
2.0;1753879336.899436;15.461329;3.41;-3.51;42.66;0.766424;-0.645777;0.054088;89.6;107.0;0.0;6.8;14.0;0.0
2.0;1753879336.904032;15.427206;2.44;-2.47;45.72;0.736096;-0.619654;0.08562;89.0;107.0;0.0;6.8;14.0;0.0
2.0;1753879336.908628;15.437015;1.48;-2.86;47.2;0.797028;-0.624812;0.046477;90.0;107.0;0.0;7.0;14.0;0.0
2.0;1753879336.913224;15.47251;2.46;-2.87;56.5;0.791254;-0.611136;0.03936;90.7;107.0;0.0;5.9;14.0;0.0
2.0;1753879336.91782;15.454573;3.0;-3.3;50.92;0.742844;-0.684112;0.015373;91.0;107.0;0.0;5.7;14.0;0.0
2.0;1753879336.922416;15.437862;3.37;-3.29;38.82;0.773111;-0.711793;0.053221;92.4;107.0;0.0;6.4;14.0;0.0
2.0;1753879336.927012;15.464753;1.89;-3.07;54.75;0.73361;-0.638884;-0.01858;89.5;107.0;0.0;5.6;14.0;0.0
2.0;1753879336.931608;15.458746;2.11;-2.78;31.44;0.733762;-0.644343;0.005958;91.3;107.0;0.0;6.0;14.0;0.0
2.0;1753879336.936204;15.492343;1.96;-3.09;43.13;0.82324;-0.622193;0.097828;90.0;107.0;0.0;6.4;14.0;0.0
2.0;1753879336.9408;15.476925;3.22;-3.14;47.8;0.82935;-0.628195;0.078407;92.1;107.0;0.0;5.6;14.0;0.0
2.0;1753879336.945396;15.4457;2.46;-3.19;41.94;0.830071;-0.5912;-0.023832;91.5;107.0;0.0;5.2;14.0;0.0
2.0;1753879336.949992;15.499184;1.08;-3.41;34.17;0.722104;-0.558813;-0.014069;90.8;107.0;0.0;5.1;14.0;0.0
2.0;1753879336.954588;15.476583;2.5;-2.8;42.6;0.879136;-0.734241;0.034299;91.9;107.0;0.0;6.2;14.0;0.0
2.0;1753879336.959184;15.447371;1.62;-3.23;47.3;0.852026;-0.603869;0.012211;92.4;107.0;0.0;5.9;14.0;0.0
2.0;1753879336.96378;15.49306;1.72;-2.79;38.35;0.791635;-0.608773;0.073645;90.2;107.0;0.0;6.5;14.0;0.0
2.0;1753879336.9706;15.460938;2.24;-2.8;44.38;0.778604;-0.640378;0.031964;91.0;107.0;0.0;6.0;14.0;0.0
2.0;1753879336.974468;15.546875;0.84;-1.47;115.01;-0.058194;-0.998448;-0.065514;0.0;107.0;0.0;0.0;14.0;0.0
2.0;1753879336.978988;15.546875;0.42;-2.87;115.64;-0.29524;-0.995764;0.005002;0.0;107.0;0.0;0.0;14.0;0.0
2.0;1753879336.98427;15.601562;0.49;-1.26;112.7;-0.177022;-1.009428;-0.033306;0.0;107.0;0.0;0.0;14.0;0.0
