Timestamp;PosX;PosY;PosZ;Roll;Pitch;Yaw;Q1;Q2;Q3;Q4;M1;M2;M3;M4;AccelX;AccelY;AccelZ;GyroX;GyroY;GyroZ
1753879331.642598;-2.118;2.826;-0.154;-3.03;-0.45;-126.52;0.0;0.0;0.0;0.0;-3.1;-5.0;-10.6;-24.3;-0.12;0.6;-10.64;0.68;0.34;0.79
1753879331.647598;-2.118;2.826;-0.154;-3.03;-0.45;-126.52;0.0;0.0;0.0;0.0;-4.4;-6.0;0.4;-2.4;-0.11;0.61;-10.62;0.75;0.4;0.96
1753879331.652598;-2.118;2.826;-0.154;-3.03;-0.45;-126.52;0.0;0.0;0.0;0.0;-1.0;-5.8;6.5;-11.0;-0.11;0.62;-10.64;0.69;0.45;0.86
1753879331.657598;-2.118;2.826;-0.154;-3.04;-0.45;-126.52;0.0;0.0;0.0;0.0;-2.6;-4.4;3.8;-18.3;-0.1;0.61;-10.64;0.62;0.43;0.84
1753879331.662598;-2.118;2.826;-0.154;-3.03;-0.44;-126.52;0.0;0.0;0.0;0.0;-0.1;1.6;15.6;-22.2;-0.11;0.62;-10.63;0.55;0.38;0.95
1753879331.667599;-2.118;2.826;-0.154;-3.03;-0.45;-126.52;0.0;0.0;0.0;0.0;-1.6;-5.0;1.4;1.5;-0.13;0.6;-10.64;0.65;0.52;0.96
1753879331.672599;-2.118;2.826;-0.154;-3.03;-0.45;-126.52;0.0;0.0;0.0;0.0;-3.7;-4.0;-11.9;-7.5;-0.12;0.61;-10.64;0.69;0.38;0.99
1753879331.677599;-2.118;2.826;-0.154;-3.03;-0.44;-126.52;0.0;0.0;0.0;0.0;0.2;-11.8;10.4;4.6;-0.1;0.61;-10.64;0.79;0.44;0.82
1753879331.682599;-2.118;2.826;-0.154;-3.03;-0.45;-126.52;0.0;0.0;0.0;0.0;-0.9;0.5;-13.9;-7.8;-0.09;0.62;-10.66;0.8;0.44;0.71
1753879331.687599;-2.118;2.826;-0.154;-3.03;-0.45;-126.52;0.0;0.0;0.0;0.0;2.3;-3.8;0.2;-8.0;-0.11;0.61;-10.66;0.56;0.28;1.06
1753879331.692599;-2.118;2.826;-0.154;-3.03;-0.45;-126.52;0.0;0.0;0.0;0.0;1.8;-1.1;-20.1;-19.4;-0.11;0.61;-10.61;0.75;0.36;0.9
1753879331.6976;-2.118;2.826;-0.154;-3.03;-0.45;-126.52;0.0;0.0;0.0;0.0;-2.6;-1.6;22.9;-10.0;-0.11;0.6;-10.62;0.55;0.34;0.91
1753879331.7026;-2.118;2.826;-0.154;-3.03;-0.45;-126.52;0.0;0.0;0.0;0.0;1.6;-2.7;0.3;-11.5;-0.11;0.62;-10.64;0.64;0.38;0.9
1753879331.7076;-2.118;2.826;-0.154;-3.02;-0.45;-126.52;0.0;0.0;0.0;0.0;-0.6;-6.6;-1.5;-14.0;-0.11;0.62;-10.63;0.74;0.37;0.88
1753879331.7126;-2.118;2.826;-0.154;-3.02;-0.45;-126.52;0.0;0.0;0.0;0.0;-3.3;-6.4;-6.4;-10.8;-0.1;0.61;-10.63;0.73;0.44;0.92
1753879331.7176;-2.118;2.826;-0.154;-3.03;-0.44;-126.52;0.0;0.0;0.0;0.0;1.9;-4.7;8.1;2.3;-0.1;0.62;-10.64;0.62;0.21;0.87
1753879331.7226;-2.118;2.826;-0.154;-3.03;-0.44;-126.52;0.0;0.0;0.0;0.0;-1.8;-1.9;5.7;-32.7;-0.11;0.62;-10.64;0.54;0.41;0.79
1753879331.7276;-2.118;2.826;-0.154;-3.03;-0.45;-126.52;0.0;0.0;0.0;0.0;5.1;-4.1;-0.4;-2.5;-0.11;0.61;-10.66;0.77;0.41;0.89
1753879331.7326;-2.118;2.826;-0.154;-3.03;-0.44;-126.52;0.0;0.0;0.0;0.0;-1.2;-1.8;25.3;-9.6;-0.11;0.61;-10.64;0.75;0.48;0.76
1753879331.7376;-2.118;2.826;-0.154;-3.03;-0.44;-126.52;0.0;0.0;0.0;0.0;-2.9;-0.1;2.6;-8.3;-0.1;0.61;-10.63;0.67;0.35;0.92
1753879331.7426;-2.118;2.826;-0.154;-3.03;-0.45;-126.52;0.0;0.0;0.0;0.0;-0.5;-8.4;-5.2;2.0;-0.1;0.61;-10.64;0.86;0.49;0.72
1753879331.747598;-2.118;2.826;-0.154;-3.03;-0.45;-126.52;0.0;0.0;0.0;0.0;0.0;-5.0;13.0;-11.0;-0.11;0.61;-10.64;0.69;0.39;0.85
1753879331.752598;-2.118;2.826;-0.154;-3.03;-0.45;-126.52;0.0;0.0;0.0;0.0;0.0;-5.0;13.0;-11.0;-0.11;0.61;-10.63;0.67;0.44;1.06
1753879331.757598;-2.118;2.826;-0.154;-3.03;-0.45;-126.52;0.0;0.0;0.0;0.0;0.0;-5.0;13.0;-11.0;-0.1;0.62;-10.63;0.61;0.24;0.9
1753879331.762598;-2.118;2.826;-0.154;-3.03;-0.45;-126.52;0.0;0.0;0.0;0.0;0.0;-5.0;13.0;-11.0;-0.11;0.62;-10.63;0.56;0.52;0.95
1753879331.767598;-2.118;2.826;-0.154;-3.03;-0.45;-126.52;0.0;0.0;0.0;0.0;0.0;-5.0;13.0;-11.0;-0.11;0.61;-10.62;0.69;0.57;0.8
1753879331.772598;-2.118;2.826;-0.154;-3.03;-0.45;-126.52;0.0;0.0;0.0;0.0;0.0;-5.0;13.0;-11.0;-0.1;0.62;-10.63;0.53;0.37;1.02
1753879331.777598;-2.118;2.826;-0.154;-3.03;-0.45;-126.52;0.0;0.0;0.0;0.0;0.0;-5.0;13.0;-11.0;-0.11;0.62;-10.62;0.73;0.35;0.9
1753879331.782598;-2.118;2.826;-0.154;-3.03;-0.45;-126.52;0.0;0.0;0.0;0.0;0.0;-5.0;13.0;-11.0;-0.11;0.62;-10.62;0.77;0.41;0.94
1753879331.787598;-2.118;2.826;-0.154;-3.03;-0.45;-126.52;0.0;0.0;0.0;0.0;0.0;-5.0;13.0;-11.0;-0.1;0.61;-10.62;0.51;0.36;0.93
1753879331.792598;-2.118;2.826;-0.154;-3.03;-0.45;-126.52;0.0;0.0;0.0;0.0;0.0;-5.0;13.0;-11.0;-0.1;0.61;-10.62;0.64;0.46;0.95
1753879331.797598;-2.118;2.826;-0.154;-3.03;-0.45;-126.52;0.0;0.0;0.0;0.0;-0.2;-5.0;18.1;-11.9;-0.1;0.61;-10.63;0.51;0.29;0.96
1753879331.802598;-2.118;2.826;-0.154;-3.03;-0.45;-126.52;0.0;0.0;0.0;0.0;0.7;-5.0;4.2;-11.6;-0.09;0.61;-10.6;0.76;0.39;0.82
1753879331.807598;-2.118;2.826;-0.154;-3.03;-0.45;-126.52;0.0;0.0;0.0;0.0;1.6;-5.0;17.7;-11.6;-0.1;0.61;-10.63;0.6;0.3;1.06
1753879331.812598;-2.118;2.826;-0.154;-3.03;-0.45;-126.52;0.0;0.0;0.0;0.0;0.1;-5.0;18.6;-11.6;-0.09;0.61;-10.65;0.7;0.49;0.9
1753879331.817598;-2.118;2.826;-0.154;-3.03;-0.45;-126.52;0.0;0.0;0.0;0.0;-0.5;-5.0;7.0;-10.4;-0.11;0.61;-10.65;0.78;0.59;1.05
1753879331.822599;-2.118;2.826;-0.154;-3.03;-0.45;-126.52;0.0;0.0;0.0;0.0;-2.0;-5.0;17.6;-10.7;-0.11;0.6;-10.63;0.6;0.45;0.89
1753879331.827598;-2.118;2.826;-0.154;-3.03;-0.45;-126.52;0.0;0.0;0.0;0.0;0.0;-5.0;13.0;-11.0;-0.11;0.61;-10.65;0.62;0.41;0.98
1753879331.832598;-2.118;2.826;-0.154;-3.04;-0.45;-126.52;0.0;0.0;0.0;0.0;1.1;-5.4;10.0;-11.8;-0.12;0.62;-10.65;0.62;0.28;0.98
1753879331.837598;-2.118;2.826;-0.154;-3.03;-0.45;-126.52;0.0;0.0;0.0;0.0;1.2;-2.9;13.7;-11.2;-0.11;0.61;-10.66;0.61;0.45;1.02
1753879331.842598;-2.118;2.826;-0.154;-3.03;-0.45;-126.52;0.0;0.0;0.0;0.0;-1.0;-0.1;14.2;-12.0;-0.11;0.62;-10.66;0.58;0.55;1.03
1753879331.847598;-2.118;2.826;-0.154;-3.03;-0.45;-126.52;0.0;0.0;0.0;0.0;0.5;-5.0;2.2;-12.0;-0.11;0.61;-10.65;0.68;0.58;0.85
1753879331.852598;-2.118;2.826;-0.154;-3.03;-0.44;-126.52;0.0;0.0;0.0;0.0;-0.7;-0.7;-8.2;-11.3;-0.12;0.6;-10.63;0.64;0.34;1.1
1753879331.857598;-2.118;2.826;-0.154;-3.02;-0.45;-126.52;0.0;0.0;0.0;0.0;-2.0;2.2;1.8;-12.8;-0.11;0.61;-10.65;0.65;0.47;1.01
1753879331.862599;-2.118;2.826;-0.154;-3.03;-0.44;-126.52;0.0;0.0;0.0;0.0;1.3;2.5;-22.9;-12.6;-0.12;0.62;-10.65;0.58;0.51;1.06
1753879331.867599;-2.118;2.826;-0.154;-3.03;-0.45;-126.52;0.0;0.0;0.0;0.0;-0.2;1.4;7.1;-12.5;-0.11;0.61;-10.65;0.59;0.27;1.04
1753879331.872599;-2.118;2.826;-0.154;-3.02;-0.45;-126.52;0.0;0.0;0.0;0.0;1.0;1.9;-17.6;-14.1;-0.12;0.61;-10.64;0.5;0.29;0.87
1753879331.877599;-2.118;2.826;-0.154;-3.02;-0.45;-126.52;0.0;0.0;0.0;0.0;2.0;2.9;6.5;-13.3;-0.12;0.62;-10.65;0.65;0.43;0.98
1753879331.882599;-2.118;2.826;-0.154;-3.02;-0.44;-126.52;0.0;0.0;0.0;0.0;0.4;5.5;-15.8;-12.3;-0.11;0.62;-10.66;0.59;0.29;0.9
1753879331.887599;-2.118;2.826;-0.154;-3.03;-0.44;-126.52;0.0;0.0;0.0;0.0;-0.3;5.5;-11.4;-11.9;-0.11;0.62;-10.66;0.67;0.36;0.97
1753879331.892599;-2.118;2.826;-0.154;-3.03;-0.44;-126.52;0.0;0.0;0.0;0.0;-1.2;2.0;8.0;-13.0;-0.12;0.62;-10.66;0.62;0.33;0.97
1753879331.8976;-2.118;2.826;-0.154;-3.02;-0.44;-126.52;0.0;0.0;0.0;0.0;-0.2;6.8;0.2;-14.4;-0.11;0.62;-10.65;0.66;0.38;0.93
1753879331.902598;-2.118;2.826;-0.154;-3.02;-0.44;-126.52;0.0;0.0;0.0;0.0;0.0;6.0;-9.0;-14.0;-0.12;0.62;-10.64;0.61;0.37;1.02
1753879331.907598;-2.118;2.826;-0.154;-3.02;-0.44;-126.52;0.0;0.0;0.0;0.0;0.0;6.0;-9.0;-14.0;-0.12;0.62;-10.63;0.54;0.46;0.89
1753879331.912598;-2.118;2.826;-0.154;-3.02;-0.44;-126.52;0.0;0.0;0.0;0.0;0.0;6.0;-9.0;-14.0;-0.12;0.62;-10.63;0.52;0.34;0.97
1753879331.917598;-2.118;2.826;-0.154;-3.02;-0.44;-126.52;0.0;0.0;0.0;0.0;0.0;6.0;-9.0;-14.0;-0.11;0.62;-10.64;0.68;0.4;1.0
1753879331.922598;-2.118;2.826;-0.154;-3.02;-0.44;-126.52;0.0;0.0;0.0;0.0;3.6;-1.2;-2.7;-12.8;-0.11;0.63;-10.63;0.73;0.52;0.97
1753879331.927598;-2.118;2.826;-0.154;-3.01;-0.43;-126.52;0.0;0.0;0.0;0.0;9.6;8.6;-5.6;-12.7;-0.12;0.62;-10.64;0.72;0.4;1.15
1753879331.932598;-2.118;2.826;-0.154;-3.02;-0.44;-126.52;0.0;0.0;0.0;0.0;-2.0;1.0;-10.1;-14.3;-0.1;0.61;-10.63;0.92;0.39;0.83
1753879331.937598;-2.118;2.826;-0.154;-3.02;-0.44;-126.52;0.0;0.0;0.0;0.0;1.9;7.8;11.3;-14.4;-0.12;0.63;-10.63;0.55;0.47;0.94
1753879331.942598;-2.118;2.826;-0.154;-3.02;-0.44;-126.52;0.0;0.0;0.0;0.0;2.7;6.2;-12.0;-14.4;-0.1;0.62;-10.65;0.65;0.33;0.99
1753879331.947599;-2.118;2.826;-0.154;-3.02;-0.43;-126.52;0.0;0.0;0.0;0.0;2.6;-2.4;2.6;-15.4;-0.11;0.62;-10.63;0.82;0.5;0.96
1753879331.952599;-2.118;2.826;-0.154;-3.02;-0.44;-126.52;0.0;0.0;0.0;0.0;5.8;1.9;-6.5;-17.5;-0.12;0.62;-10.63;0.51;0.43;1.01
1753879331.957599;-2.118;2.826;-0.154;-3.02;-0.45;-126.52;0.0;0.0;0.0;0.0;0.2;9.1;-19.3;-13.7;-0.12;0.61;-10.64;0.62;0.45;0.87
1753879331.962599;-2.118;2.826;-0.154;-3.02;-0.44;-126.52;0.0;0.0;0.0;0.0;5.1;9.8;-16.7;-12.2;-0.12;0.61;-10.64;0.73;0.34;1.05
1753879331.967599;-2.118;2.826;-0.154;-3.02;-0.44;-126.52;0.0;0.0;0.0;0.0;-3.7;8.8;-7.6;-13.6;-0.11;0.62;-10.66;0.63;0.46;1.07
1753879331.972599;-2.118;2.826;-0.154;-3.02;-0.45;-126.52;0.0;0.0;0.0;0.0;2.4;6.8;8.1;-14.5;-0.11;0.63;-10.63;0.7;0.51;1.13
1753879331.9776;-2.118;2.826;-0.154;-3.02;-0.44;-126.52;0.0;0.0;0.0;0.0;3.1;0.2;-20.0;-15.8;-0.11;0.62;-10.64;0.63;0.33;1.01
1753879331.9826;-2.118;2.826;-0.154;-3.02;-0.44;-126.52;0.0;0.0;0.0;0.0;7.6;12.7;-0.6;-14.1;-0.11;0.63;-10.64;0.56;0.54;0.99
1753879331.9876;-2.118;2.826;-0.154;-3.02;-0.44;-126.52;0.0;0.0;0.0;0.0;3.5;6.7;6.8;-13.6;-0.1;0.62;-10.67;0.73;0.18;1.01
1753879331.9926;-2.118;2.826;-0.154;-3.03;-0.45;-126.52;0.0;0.0;0.0;0.0;9.5;6.9;-4.9;-14.1;-0.12;0.62;-10.65;0.7;0.37;0.88
1753879331.9976;-2.118;2.826;-0.154;-3.02;-0.44;-126.52;0.0;0.0;0.0;0.0;3.2;3.9;12.5;-15.2;-0.12;0.61;-10.64;0.49;0.36;0.88
1753879332.0026;-2.118;2.826;-0.154;-3.02;-0.44;-126.52;0.0;0.0;0.0;0.0;6.1;7.4;5.1;-13.7;-0.1;0.62;-10.64;0.65;0.14;0.85
1753879332.0076;-2.118;2.826;-0.154;-3.03;-0.44;-126.52;0.0;0.0;0.0;0.0;7.9;4.2;-14.0;-14.8;-0.11;0.63;-10.61;0.49;0.5;0.89
1753879332.0126;-2.118;2.826;-0.154;-3.03;-0.44;-126.52;0.0;0.0;0.0;0.0;10.2;-0.2;-12.6;-15.1;-0.11;0.62;-10.66;0.63;0.39;0.95
1753879332.0176;-2.118;2.826;-0.154;-3.03;-0.44;-126.52;0.0;0.0;0.0;0.0;12.2;6.8;-2.6;-14.4;-0.11;0.63;-10.64;0.7;0.39;0.87
1753879332.0226;-2.118;2.826;-0.154;-3.03;-0.45;-126.52;0.0;0.0;0.0;0.0;2.3;-4.5;15.1;-12.6;-0.1;0.62;-10.65;0.57;0.41;1.06
1753879332.0276;-2.118;2.826;-0.154;-3.03;-0.44;-126.52;0.0;0.0;0.0;0.0;2.4;0.1;-2.2;-14.4;-0.1;0.63;-10.62;0.74;0.39;0.87
1753879332.032601;-2.118;2.826;-0.154;-3.03;-0.44;-126.52;0.0;0.0;0.0;0.0;7.0;-4.0;2.2;-16.4;-0.11;0.62;-10.63;0.76;0.38;1.03
1753879332.037601;-2.118;2.826;-0.154;-3.02;-0.44;-126.52;0.0;0.0;0.0;0.0;10.0;2.4;6.8;-14.9;-0.11;0.62;-10.62;0.67;0.34;1.08
1753879332.042601;-2.118;2.826;-0.154;-3.03;-0.44;-126.52;0.0;0.0;0.0;0.0;3.2;5.5;8.6;-18.2;-0.12;0.62;-10.63;0.55;0.44;1.0
1753879332.047601;-2.118;2.826;-0.154;-3.03;-0.44;-126.52;0.0;0.0;0.0;0.0;3.4;2.8;3.9;-14.9;-0.12;0.62;-10.62;0.71;0.29;0.95
1753879332.052601;-2.118;2.826;-0.154;-3.03;-0.44;-126.52;0.0;0.0;0.0;0.0;6.8;6.7;6.0;-14.6;-0.11;0.61;-10.65;0.66;0.32;0.93
1753879332.057601;-2.118;2.826;-0.154;-3.02;-0.44;-126.52;0.0;0.0;0.0;0.0;10.4;4.9;12.5;-14.2;-0.12;0.62;-10.66;0.68;0.42;0.96
1753879332.062601;-2.118;2.826;-0.154;-3.03;-0.45;-126.52;0.0;0.0;0.0;0.0;10.8;-1.4;23.4;-16.8;-0.11;0.62;-10.65;0.64;0.23;0.93
1753879332.067602;-2.118;2.826;-0.154;-3.03;-0.44;-126.52;0.0;0.0;0.0;0.0;12.2;-5.8;11.8;-17.1;-0.12;0.62;-10.64;0.76;0.31;0.94
1753879332.072602;-2.118;2.826;-0.154;-3.03;-0.44;-126.52;0.0;0.0;0.0;0.0;15.0;13.7;1.3;-15.7;-0.1;0.62;-10.64;0.7;0.15;1.04
1753879332.077602;-2.118;2.826;-0.154;-3.03;-0.44;-126.52;0.0;0.0;0.0;0.0;11.7;-1.0;2.8;-14.5;-0.11;0.61;-10.63;0.65;0.48;0.9
1753879332.082602;-2.118;2.826;-0.154;-3.03;-0.44;-126.52;0.0;0.0;0.0;0.0;8.3;3.4;-8.2;-18.4;-0.11;0.62;-10.66;0.7;0.45;0.85
1753879332.087602;-2.118;2.826;-0.154;-3.03;-0.43;-126.52;0.0;0.0;0.0;0.0;18.6;-0.0;10.8;-17.3;-0.11;0.61;-10.66;0.74;0.21;0.95
1753879332.092602;-2.118;2.826;-0.154;-3.03;-0.44;-126.52;0.0;0.0;0.0;0.0;16.2;-6.0;28.2;-18.8;-0.11;0.62;-10.63;0.65;0.43;0.87
1753879332.097598;-2.118;2.826;-0.154;-3.03;-0.44;-126.52;0.0;0.0;0.0;0.0;15.0;2.0;9.0;-15.0;-0.11;0.62;-10.64;0.67;0.35;0.93
1753879332.102598;-2.118;2.826;-0.154;-3.02;-0.44;-126.52;0.0;0.0;0.0;0.0;19.5;-1.6;1.4;-13.4;-0.1;0.62;-10.64;0.61;0.89;0.94
1753879332.107598;-2.118;2.826;-0.154;-3.03;-0.44;-126.52;0.0;0.0;0.0;0.0;19.5;-2.0;-5.2;-11.8;-0.1;0.62;-10.66;0.85;0.64;1.0
1753879332.112598;-2.118;2.826;-0.154;-3.03;-0.43;-126.52;0.0;0.0;0.0;0.0;9.8;3.3;14.7;-14.6;-0.11;0.61;-10.63;0.75;1.02;0.95
1753879332.117598;-2.118;2.826;-0.154;-3.03;-0.44;-126.52;0.0;0.0;0.0;0.0;18.4;-1.5;15.7;-15.7;-0.11;0.6;-10.65;0.69;1.61;0.99
1753879332.122598;-2.118;2.826;-0.154;-3.03;-0.44;-126.52;0.0;0.0;0.0;0.0;15.0;2.0;9.0;-15.0;-0.11;0.61;-10.65;0.61;1.53;0.95
1753879332.127598;-2.118;2.826;-0.154;-3.03;-0.44;-126.52;0.0;0.0;0.0;0.0;15.0;2.0;9.0;-15.0;-0.12;0.61;-10.65;0.72;0.41;0.93
1753879332.132598;-2.118;2.826;-0.154;-3.03;-0.44;-126.52;0.0;0.0;0.0;0.0;15.0;2.0;9.0;-15.0;-0.13;0.61;-10.65;0.61;0.51;0.87
1753879332.137598;-2.118;2.826;-0.154;-3.03;-0.44;-126.52;0.0;0.0;0.0;0.0;15.0;2.0;9.0;-15.0;-0.12;0.61;-10.65;0.55;0.48;1.02
1753879332.142598;-2.118;2.826;-0.154;-3.03;-0.44;-126.52;0.0;0.0;0.0;0.0;15.0;2.0;9.0;-15.0;-0.12;0.62;-10.65;0.53;0.28;0.98
1753879332.147598;-2.118;2.826;-0.154;-3.03;-0.44;-126.52;0.0;0.0;0.0;0.0;15.0;2.0;9.0;-15.0;-0.12;0.62;-10.64;0.62;0.32;0.8
1753879332.152598;-2.118;2.826;-0.154;-3.03;-0.44;-126.52;0.0;0.0;0.0;0.0;15.0;2.0;9.0;-15.0;-0.12;0.62;-10.64;0.6;0.57;0.92
1753879332.157598;-2.118;2.826;-0.154;-3.03;-0.44;-126.52;0.0;0.0;0.0;0.0;15.0;2.0;9.0;-15.0;-0.11;0.62;-10.65;0.62;0.34;0.99
1753879332.162598;-2.118;2.826;-0.154;-3.03;-0.44;-126.52;0.0;0.0;0.0;0.0;23.5;4.4;3.4;-15.0;-0.11;0.62;-10.66;0.52;0.3;1.02
1753879332.167598;-2.118;2.826;-0.154;-3.03;-0.44;-126.52;0.0;0.0;0.0;0.0;12.7;2.0;0.6;-13.2;-0.11;0.61;-10.64;0.61;0.09;1.06
1753879332.172598;-2.118;2.826;-0.154;-3.03;-0.44;-126.52;0.0;0.0;0.0;0.0;8.3;-0.8;7.3;-12.1;-0.09;0.62;-10.64;0.69;0.42;1.05
1753879332.177598;-2.118;2.826;-0.154;-3.03;-0.44;-126.52;0.0;0.0;0.0;0.0;0.9;3.7;-4.2;-11.2;-0.1;0.62;-10.65;0.77;-0.0;0.95
1753879332.182598;-2.118;2.826;-0.154;-3.02;-0.44;-126.52;0.0;0.0;0.0;0.0;8.0;-5.4;-4.9;-18.8;-0.12;0.62;-10.65;0.74;0.16;0.9
1753879332.187598;-2.118;2.826;-0.154;-3.03;-0.44;-126.52;0.0;0.0;0.0;0.0;7.4;7.7;11.8;-12.5;-0.11;0.62;-10.66;0.69;0.5;0.98
1753879332.192598;-2.118;2.826;-0.154;-3.03;-0.44;-126.52;0.0;0.0;0.0;0.0;16.3;-2.2;9.1;-13.0;-0.12;0.62;-10.64;0.69;0.27;0.91
1753879332.197599;-2.118;2.826;-0.154;-3.03;-0.44;-126.52;0.0;0.0;0.0;0.0;-2.0;-7.0;-0.8;-13.0;-0.11;0.61;-10.66;0.88;-0.04;0.96
1753879332.202599;-2.118;2.826;-0.154;-3.02;-0.44;-126.52;0.0;0.0;0.0;0.0;7.6;-6.5;15.2;-12.5;-0.12;0.63;-10.65;0.6;0.51;0.95
1753879332.207599;-2.118;2.826;-0.154;-3.03;-0.44;-126.52;0.0;0.0;0.0;0.0;13.3;-11.7;2.9;-7.7;-0.11;0.62;-10.66;0.68;0.28;0.9
1753879332.212599;-2.118;2.826;-0.154;-3.04;-0.43;-126.52;0.0;0.0;0.0;0.0;22.3;-1.8;16.6;-10.4;-0.12;0.62;-10.65;0.74;0.12;0.95
1753879332.217599;-2.118;2.826;-0.154;-3.03;-0.44;-126.52;0.0;0.0;0.0;0.0;5.2;-5.8;13.7;-11.0;-0.1;0.62;-10.68;0.64;-0.04;0.83
1753879332.222599;-2.118;2.826;-0.154;-3.03;-0.43;-126.52;0.0;0.0;0.0;0.0;3.8;-2.4;9.0;-7.2;-0.12;0.62;-10.67;0.59;0.06;0.94
1753879332.2276;-2.118;2.826;-0.154;-3.02;-0.44;-126.52;0.0;0.0;0.0;0.0;-1.3;1.2;11.6;-8.7;-0.12;0.62;-10.66;0.64;0.06;0.83
1753879332.2326;-2.118;2.826;-0.154;-3.03;-0.44;-126.52;0.0;0.0;0.0;0.0;-7.3;3.0;7.4;-11.4;-0.13;0.62;-10.67;0.69;0.52;0.9
1753879332.2376;-2.118;2.826;-0.154;-3.02;-0.44;-126.52;0.0;0.0;0.0;0.0;4.0;0.5;14.5;-9.4;-0.13;0.62;-10.64;0.75;-0.11;0.88
1753879332.2426;-2.118;2.826;-0.154;-3.03;-0.44;-126.52;0.0;0.0;0.0;0.0;16.2;1.5;14.3;-7.5;-0.12;0.62;-10.67;0.79;0.58;0.86
1753879332.2476;-2.118;2.826;-0.154;-3.03;-0.44;-126.52;0.0;0.0;0.0;0.0;8.4;-10.4;7.0;-12.5;-0.11;0.62;-10.66;0.63;0.64;0.89
1753879332.2526;-2.118;2.826;-0.154;-3.03;-0.44;-126.52;0.0;0.0;0.0;0.0;4.7;-2.2;17.6;-5.6;-0.12;0.63;-10.66;0.73;0.67;0.9
1753879332.2576;-2.118;2.826;-0.154;-3.03;-0.44;-126.52;0.0;0.0;0.0;0.0;11.4;-2.1;16.4;-8.5;-0.12;0.62;-10.66;0.78;0.17;0.96
1753879332.2626;-2.118;2.826;-0.154;-3.03;-0.44;-126.52;0.0;0.0;0.0;0.0;-2.9;-10.1;12.5;-6.8;-0.12;0.63;-10.65;0.89;0.37;0.83
1753879332.267598;-2.118;2.826;-0.154;-3.03;-0.44;-126.52;0.0;0.0;0.0;0.0;-2.0;-4.0;10.0;-8.0;-0.12;0.62;-10.66;0.8;0.37;0.88
1753879332.272598;-2.118;2.826;-0.154;-3.03;-0.44;-126.52;0.0;0.0;0.0;0.0;-2.0;-4.0;10.0;-8.0;-0.12;0.62;-10.65;0.72;0.43;0.82
1753879332.277598;-2.118;2.826;-0.154;-3.03;-0.44;-126.52;0.0;0.0;0.0;0.0;-2.0;-4.0;10.0;-8.0;-0.11;0.62;-10.66;0.72;0.28;0.87
1753879332.282598;-2.118;2.826;-0.154;-3.03;-0.44;-126.52;0.0;0.0;0.0;0.0;-2.0;-4.0;10.0;-8.0;-0.11;0.62;-10.66;0.47;0.25;0.88
1753879332.287598;-2.118;2.826;-0.154;-3.03;-0.44;-126.52;0.0;0.0;0.0;0.0;-2.0;-4.0;10.0;-8.0;-0.11;0.62;-10.65;0.69;0.38;0.83
1753879332.292598;-2.118;2.826;-0.154;-3.03;-0.44;-126.52;0.0;0.0;0.0;0.0;-2.0;-4.0;10.0;-8.0;-0.11;0.62;-10.65;0.65;0.36;0.95
1753879332.297598;-2.118;2.826;-0.154;-3.03;-0.44;-126.52;0.0;0.0;0.0;0.0;-2.0;-4.0;10.0;-8.0;-0.12;0.62;-10.65;0.68;0.21;1.03
1753879332.302598;-2.118;2.826;-0.154;-3.03;-0.44;-126.52;0.0;0.0;0.0;0.0;-2.0;-4.0;10.0;-8.0;-0.12;0.62;-10.65;0.64;0.38;0.83
1753879332.307598;-2.118;2.826;-0.154;-3.03;-0.44;-126.52;0.0;0.0;0.0;0.0;-2.0;-4.0;10.0;-8.0;-0.11;0.62;-10.64;0.57;0.41;0.88
1753879332.312598;-2.118;2.826;-0.154;-3.03;-0.44;-126.52;0.0;0.0;0.0;0.0;-2.0;-4.0;10.0;-8.0;-0.11;0.62;-10.64;0.55;0.36;0.9
1753879332.317598;-2.118;2.826;-0.154;-3.03;-0.44;-126.52;0.0;0.0;0.0;0.0;-2.0;-4.0;10.0;-8.0;-0.11;0.62;-10.64;0.59;0.28;0.9
1753879332.322598;-2.118;2.826;-0.154;-3.03;-0.44;-126.52;0.0;0.0;0.0;0.0;-9.5;-7.5;5.6;-11.3;-0.12;0.62;-10.65;0.63;0.28;0.93
1753879332.327598;-2.118;2.826;-0.154;-3.03;-0.44;-126.52;0.0;0.0;0.0;0.0;-2.9;5.4;0.0;-13.6;-0.12;0.61;-10.62;0.65;0.32;0.86
1753879332.332598;-2.118;2.826;-0.154;-3.03;-0.44;-126.52;0.0;0.0;0.0;0.0;3.9;-9.5;3.9;-3.2;-0.11;0.62;-10.64;0.58;0.39;0.81
1753879332.337598;-2.118;2.826;-0.154;-3.03;-0.44;-126.52;0.0;0.0;0.0;0.0;-18.2;5.4;2.6;-7.8;-0.11;0.62;-10.64;0.63;0.23;0.93
1753879332.342599;-2.118;2.826;-0.154;-3.03;-0.44;-126.52;0.0;0.0;0.0;0.0;-4.7;-6.1;3.4;-2.6;-0.12;0.61;-10.64;0.57;0.81;0.79
1753879332.347599;-2.118;2.826;-0.154;-3.03;-0.44;-126.52;0.0;0.0;0.0;0.0;1.0;-7.2;8.7;-10.2;-0.1;0.61;-10.63;0.55;0.24;0.82
1753879332.352599;-2.118;2.826;-0.154;-3.03;-0.44;-126.52;0.0;0.0;0.0;0.0;-7.7;-6.2;4.4;-13.7;-0.11;0.62;-10.64;0.69;0.46;0.76
1753879332.357599;-2.118;2.826;-0.154;-3.03;-0.44;-126.52;0.0;0.0;0.0;0.0;-8.9;0.9;1.3;-10.4;-0.12;0.61;-10.65;0.61;-0.06;0.83
1753879332.362599;-2.118;2.826;-0.154;-3.03;-0.44;-126.52;0.0;0.0;0.0;0.0;-12.4;1.7;7.7;-8.6;-0.1;0.62;-10.64;0.59;-0.37;0.91
1753879332.367599;-2.118;2.826;-0.154;-3.03;-0.44;-126.52;0.0;0.0;0.0;0.0;-3.0;3.5;-5.4;-16.0;-0.12;0.61;-10.65;0.73;0.18;0.77
1753879332.372599;-2.118;2.826;-0.154;-3.03;-0.44;-126.52;0.0;0.0;0.0;0.0;12.3;-5.0;-0.8;-10.9;-0.13;0.61;-10.64;0.54;0.1;0.9
1753879332.3776;-2.118;2.826;-0.154;-3.03;-0.44;-126.52;0.0;0.0;0.0;0.0;-13.8;1.6;-1.9;-12.1;-0.1;0.62;-10.64;0.57;0.39;0.91
1753879332.3826;-2.118;2.826;-0.154;-3.03;-0.44;-126.52;0.0;0.0;0.0;0.0;-2.4;-1.6;-5.5;-10.5;-0.12;0.61;-10.65;0.68;0.0;0.86
1753879332.3876;-2.118;2.826;-0.154;-3.03;-0.44;-126.52;0.0;0.0;0.0;0.0;9.5;8.3;-11.5;-19.7;-0.11;0.61;-10.63;0.54;0.69;0.83
1753879332.3926;-2.118;2.826;-0.154;-3.03;-0.44;-126.52;0.0;0.0;0.0;0.0;-0.4;-1.2;-5.3;-11.4;-0.13;0.6;-10.64;0.72;0.64;0.82
1753879332.3976;-2.118;2.826;-0.154;-3.03;-0.44;-126.52;0.0;0.0;0.0;0.0;-3.9;2.4;-1.8;-17.3;-0.12;0.61;-10.65;0.68;0.42;0.78
1753879332.4026;-2.118;2.826;-0.154;-3.03;-0.44;-126.52;0.0;0.0;0.0;0.0;-3.4;-0.5;-8.5;-14.9;-0.12;0.61;-10.63;0.59;-0.24;0.78
1753879332.4076;-2.118;2.826;-0.154;-3.03;-0.44;-126.52;0.0;0.0;0.0;0.0;2.8;7.5;-9.2;-18.7;-0.12;0.61;-10.64;0.79;0.14;0.93
1753879332.4126;-2.118;2.826;-0.154;-3.03;-0.44;-126.52;0.0;0.0;0.0;0.0;-4.9;-0.1;-8.9;-11.9;-0.12;0.61;-10.63;0.65;0.34;0.7
1753879332.417598;-2.118;2.826;-0.154;-3.03;-0.44;-126.52;0.0;0.0;0.0;0.0;-11.0;5.0;-9.0;-18.0;-0.12;0.61;-10.64;0.68;0.28;0.82
1753879332.422598;-2.118;2.826;-0.154;-3.03;-0.44;-126.52;0.0;0.0;0.0;0.0;-11.0;5.0;-9.0;-18.0;-0.12;0.61;-10.63;0.67;0.45;0.95
1753879332.427598;-2.118;2.826;-0.154;-3.03;-0.44;-126.52;0.0;0.0;0.0;0.0;-11.0;5.0;-9.0;-18.0;-0.11;0.61;-10.64;0.79;0.47;0.92
1753879332.432598;-2.118;2.826;-0.154;-3.03;-0.44;-126.52;0.0;0.0;0.0;0.0;-11.0;5.0;-9.0;-18.0;-0.12;0.62;-10.63;0.67;0.37;0.86
1753879332.437598;-2.118;2.826;-0.154;-3.03;-0.44;-126.52;0.0;0.0;0.0;0.0;-11.0;5.0;-9.0;-18.0;-0.12;0.61;-10.63;0.67;0.41;0.85
1753879332.442598;-2.118;2.826;-0.154;-3.03;-0.44;-126.52;0.0;0.0;0.0;0.0;-11.0;5.0;-9.0;-18.0;-0.12;0.61;-10.63;0.72;0.35;0.8
1753879332.447598;-2.118;2.826;-0.154;-3.03;-0.44;-126.52;0.0;0.0;0.0;0.0;-11.0;5.0;-9.0;-18.0;-0.12;0.62;-10.62;0.67;0.29;0.93
1753879332.452598;-2.118;2.826;-0.154;-3.03;-0.44;-126.52;0.0;0.0;0.0;0.0;-11.0;5.0;-9.0;-18.0;-0.12;0.62;-10.62;0.72;0.4;0.99
1753879332.457598;-2.118;2.826;-0.154;-3.03;-0.44;-126.52;0.0;0.0;0.0;0.0;-11.0;5.0;-9.0;-18.0;-0.12;0.62;-10.63;0.63;0.38;0.83
1753879332.462598;-2.118;2.826;-0.154;-3.03;-0.44;-126.52;0.0;0.0;0.0;0.0;-11.0;5.0;-9.0;-18.0;-0.12;0.62;-10.62;0.57;0.35;0.82
1753879332.467598;-2.118;2.826;-0.154;-3.03;-0.44;-126.52;0.0;0.0;0.0;0.0;-14.6;-0.8;-4.9;-19.0;-0.11;0.62;-10.64;0.62;0.41;0.77
1753879332.472598;-2.118;2.826;-0.154;-3.02;-0.44;-126.52;0.0;0.0;0.0;0.0;-7.0;-4.0;-12.0;-8.0;-0.12;0.62;-10.62;0.7;0.32;0.81
1753879332.477598;-2.118;2.826;-0.154;-3.02;-0.44;-126.52;0.0;0.0;0.0;0.0;-7.0;-4.0;-12.0;-8.0;-0.12;0.62;-10.62;0.7;0.33;0.96
1753879332.482598;-2.118;2.826;-0.154;-3.02;-0.44;-126.52;0.0;0.0;0.0;0.0;-7.0;-4.0;-12.0;-8.0;-0.12;0.62;-10.62;0.62;0.38;0.93
1753879332.487598;-2.118;2.826;-0.154;-3.02;-0.44;-126.52;0.0;0.0;0.0;0.0;-7.0;-4.0;-12.0;-8.0;-0.11;0.62;-10.62;0.51;0.32;0.93
1753879332.492598;-2.118;2.826;-0.154;-3.02;-0.44;-126.52;0.0;0.0;0.0;0.0;-9.1;-5.7;-2.5;-8.1;-0.11;0.63;-10.6;0.65;0.35;0.81
1753879332.497598;-2.118;2.826;-0.154;-3.02;-0.44;-126.52;0.0;0.0;0.0;0.0;-7.0;-4.0;-12.0;-8.0;-0.12;0.62;-10.62;0.61;0.38;0.67
1753879332.502598;-2.118;2.826;-0.154;-3.01;-0.44;-126.52;0.0;0.0;0.0;0.0;-3.2;-11.9;5.6;-6.7;-0.11;0.62;-10.62;0.63;0.31;0.78
1753879332.507598;-2.118;2.826;-0.154;-3.03;-0.44;-126.52;0.0;0.0;0.0;0.0;-10.4;-4.3;-7.6;-2.2;-0.12;0.61;-10.63;0.52;0.37;0.8
1753879332.512598;-2.118;2.826;-0.154;-3.03;-0.44;-126.52;0.0;0.0;0.0;0.0;-10.8;-2.6;-6.9;-9.8;-0.13;0.62;-10.62;0.57;0.4;0.65
1753879332.517598;-2.118;2.826;-0.154;-3.02;-0.44;-126.52;0.0;0.0;0.0;0.0;-2.6;4.0;-13.9;-7.9;-0.12;0.63;-10.63;0.59;0.44;0.75
1753879332.522598;-2.118;2.826;-0.154;-3.03;-0.44;-126.52;0.0;0.0;0.0;0.0;-9.9;-1.8;-10.9;-1.1;-0.12;0.62;-10.62;0.58;0.38;0.87
1753879332.527598;-2.118;2.826;-0.154;-3.02;-0.44;-126.52;0.0;0.0;0.0;0.0;-7.8;-2.3;-27.7;-13.9;-0.12;0.61;-10.62;0.59;0.36;0.74
1753879332.532599;-2.118;2.826;-0.154;-3.02;-0.44;-126.52;0.0;0.0;0.0;0.0;-12.7;3.7;-19.0;-10.3;-0.12;0.62;-10.63;0.61;0.4;0.74
1753879332.537599;-2.118;2.826;-0.154;-3.01;-0.44;-126.52;0.0;0.0;0.0;0.0;-11.2;5.1;-5.3;-15.5;-0.11;0.62;-10.64;0.67;0.41;0.79
1753879332.542599;-2.118;2.826;-0.154;-3.02;-0.44;-126.52;0.0;0.0;0.0;0.0;-9.5;-3.1;-16.0;-6.1;-0.11;0.62;-10.61;0.56;0.39;0.78
1753879332.547599;-2.118;2.826;-0.154;-3.02;-0.44;-126.52;0.0;0.0;0.0;0.0;-7.4;-4.7;-4.8;-1.7;-0.12;0.62;-10.63;0.71;0.38;0.78
1753879332.552599;-2.118;2.826;-0.154;-3.03;-0.44;-126.52;0.0;0.0;0.0;0.0;-1.5;0.6;2.1;-11.2;-0.11;0.61;-10.63;0.61;0.45;0.81
1753879332.557599;-2.118;2.826;-0.154;-3.03;-0.44;-126.52;0.0;0.0;0.0;0.0;-15.0;-3.4;-9.3;-8.5;-0.11;0.62;-10.62;0.58;0.37;0.96
1753879332.5626;-2.118;2.826;-0.154;-3.02;-0.44;-126.52;0.0;0.0;0.0;0.0;-6.6;-7.4;-31.9;-7.6;-0.12;0.62;-10.64;0.56;0.39;0.82
1753879332.5676;-2.118;2.826;-0.154;-3.02;-0.44;-126.52;0.0;0.0;0.0;0.0;-8.7;-5.3;-13.0;-4.6;-0.11;0.62;-10.62;0.7;0.3;0.83
1753879332.5726;-2.118;2.826;-0.154;-3.02;-0.44;-126.52;0.0;0.0;0.0;0.0;-3.8;-6.4;-9.6;-4.3;-0.11;0.63;-10.62;0.56;0.46;0.85
1753879332.5776;-2.118;2.826;-0.154;-3.02;-0.44;-126.52;0.0;0.0;0.0;0.0;-14.3;-11.1;6.9;-3.2;-0.11;0.62;-10.64;0.65;0.34;0.77
1753879332.582598;-2.118;2.826;-0.154;-3.02;-0.44;-126.52;0.0;0.0;0.0;0.0;-7.0;-4.0;-12.0;-8.0;-0.11;0.62;-10.63;0.6;0.34;0.86
1753879332.587598;-2.118;2.826;-0.154;-3.02;-0.44;-126.52;0.0;0.0;0.0;0.0;-7.0;-4.0;-12.0;-8.0;-0.11;0.62;-10.63;0.65;0.53;0.98
1753879332.592598;-2.118;2.826;-0.154;-3.02;-0.44;-126.52;0.0;0.0;0.0;0.0;-7.0;-4.0;-12.0;-8.0;-0.11;0.63;-10.63;0.61;0.35;0.98
1753879332.597598;-2.118;2.826;-0.154;-3.02;-0.44;-126.52;0.0;0.0;0.0;0.0;-7.0;-4.0;-12.0;-8.0;-0.11;0.63;-10.63;0.7;0.25;0.9
1753879332.602598;-2.118;2.826;-0.154;-3.02;-0.44;-126.52;0.0;0.0;0.0;0.0;-7.0;-4.0;-12.0;-8.0;-0.11;0.63;-10.63;0.61;0.35;0.99
1753879332.607598;-2.118;2.826;-0.154;-3.01;-0.44;-126.52;0.0;0.0;0.0;0.0;-8.4;-2.7;-12.4;-7.8;-0.12;0.63;-10.63;0.61;0.32;1.02
1753879332.612598;-2.118;2.826;-0.154;-3.02;-0.44;-126.52;0.0;0.0;0.0;0.0;-5.7;-3.1;-12.5;-9.8;-0.11;0.62;-10.62;0.56;0.4;0.97
1753879332.617598;-2.118;2.826;-0.154;-3.02;-0.44;-126.52;0.0;0.0;0.0;0.0;-3.4;-1.7;-14.1;-9.9;-0.12;0.63;-10.64;0.79;0.36;0.82
1753879332.622598;-2.118;2.826;-0.154;-3.03;-0.44;-126.52;0.0;0.0;0.0;0.0;-7.8;-5.1;-11.2;-7.6;-0.1;0.63;-10.64;0.58;0.34;0.95
1753879332.627598;-2.118;2.826;-0.154;-3.02;-0.44;-126.52;0.0;0.0;0.0;0.0;-5.6;-3.6;-9.8;-4.6;-0.1;0.62;-10.63;0.56;0.31;0.88
1753879332.632599;-2.118;2.826;-0.154;-3.02;-0.44;-126.52;0.0;0.0;0.0;0.0;-9.2;-2.0;-8.8;-5.6;-0.12;0.63;-10.63;0.64;0.46;0.92
1753879332.637599;-2.118;2.826;-0.154;-3.02;-0.44;-126.52;0.0;0.0;0.0;0.0;-8.8;-1.3;-11.6;-10.6;-0.1;0.63;-10.63;0.67;0.38;0.99
1753879332.642599;-2.118;2.826;-0.154;-3.02;-0.44;-126.52;0.0;0.0;0.0;0.0;-3.8;-1.9;-11.1;6.3;-0.1;0.62;-10.63;0.69;0.45;1.0
1753879332.647599;-2.118;2.826;-0.154;-3.03;-0.44;-126.52;0.0;0.0;0.0;0.0;-6.7;-9.0;-12.4;1.1;-0.11;0.63;-10.63;0.66;0.36;1.02
1753879332.652599;-2.118;2.826;-0.154;-3.01;-0.44;-126.52;0.0;0.0;0.0;0.0;-6.3;-2.5;-12.9;-6.2;-0.11;0.62;-10.63;0.49;0.48;1.03
1753879332.657599;-2.118;2.826;-0.154;-3.03;-0.44;-126.52;0.0;0.0;0.0;0.0;-7.7;1.1;-12.0;4.5;-0.11;0.62;-10.62;0.54;0.3;0.9
1753879332.662599;-2.118;2.826;-0.154;-3.03;-0.44;-126.52;0.0;0.0;0.0;0.0;-13.8;0.6;-11.9;-0.6;-0.11;0.62;-10.63;0.59;0.38;0.85
1753879332.6676;-2.118;2.826;-0.154;-3.03;-0.44;-126.52;0.0;0.0;0.0;0.0;-7.6;-3.5;-12.1;4.4;-0.11;0.62;-10.62;0.65;0.37;0.86
1753879332.6726;-2.118;2.826;-0.154;-3.03;-0.44;-126.52;0.0;0.0;0.0;0.0;-7.1;-2.3;-8.0;8.3;-0.12;0.63;-10.62;0.59;0.37;0.81
1753879332.6776;-2.118;2.826;-0.154;-3.03;-0.44;-126.52;0.0;0.0;0.0;0.0;-8.3;-8.1;-8.3;-10.0;-0.11;0.62;-10.63;0.54;0.3;0.86
1753879332.6826;-2.118;2.826;-0.154;-3.02;-0.44;-126.52;0.0;0.0;0.0;0.0;-10.4;-2.9;-10.1;-2.2;-0.11;0.62;-10.64;0.58;0.35;0.99
1753879332.6876;-2.118;2.826;-0.154;-3.03;-0.44;-126.52;0.0;0.0;0.0;0.0;-6.0;4.1;-10.8;-1.3;-0.11;0.63;-10.62;0.54;0.33;0.98
1753879332.6926;-2.118;2.826;-0.154;-3.04;-0.44;-126.52;0.0;0.0;0.0;0.0;-7.0;-4.2;-12.9;-6.3;-0.11;0.63;-10.63;0.7;0.26;0.94
1753879332.6976;-2.118;2.826;-0.154;-3.02;-0.44;-126.52;0.0;0.0;0.0;0.0;-7.1;-3.3;-12.0;-13.3;-0.11;0.63;-10.63;0.46;0.36;0.93
1753879332.7026;-2.118;2.826;-0.154;-3.03;-0.44;-126.52;0.0;0.0;0.0;0.0;-5.8;2.4;-12.0;-7.3;-0.11;0.62;-10.63;0.56;0.18;0.81
1753879332.7076;-2.118;2.826;-0.154;-3.02;-0.44;-126.52;0.0;0.0;0.0;0.0;-5.9;5.2;-10.2;4.8;-0.12;0.62;-10.64;0.58;0.13;1.05
1753879332.7126;-2.118;2.826;-0.154;-3.03;-0.44;-126.52;0.0;0.0;0.0;0.0;-6.6;-1.5;-8.8;2.9;-0.12;0.62;-10.63;0.52;0.3;0.97
1753879332.7176;-2.118;2.826;-0.154;-3.03;-0.44;-126.52;0.0;0.0;0.0;0.0;-5.6;-4.7;-10.0;20.0;-0.11;0.61;-10.63;0.45;0.26;0.81
1753879332.722601;-2.118;2.826;-0.154;-3.03;-0.44;-126.52;0.0;0.0;0.0;0.0;-11.4;-3.1;-7.8;11.1;-0.11;0.61;-10.62;0.47;0.37;0.86
1753879332.727601;-2.118;2.826;-0.154;-3.03;-0.44;-126.52;0.0;0.0;0.0;0.0;-9.8;-1.5;-6.8;8.9;-0.12;0.63;-10.63;0.53;0.28;0.87
1753879332.732601;-2.118;2.826;-0.154;-3.04;-0.44;-126.52;0.0;0.0;0.0;0.0;-7.5;6.3;-10.3;3.8;-0.11;0.62;-10.63;0.52;0.21;0.92
1753879332.737601;-2.118;2.826;-0.154;-3.04;-0.44;-126.52;0.0;0.0;0.0;0.0;-7.1;3.2;-11.2;7.5;-0.11;0.63;-10.63;0.64;0.31;0.84
1753879332.742598;-2.118;2.826;-0.154;-3.03;-0.44;-126.52;0.0;0.0;0.0;0.0;-7.0;3.0;-9.0;7.0;-0.11;0.62;-10.63;0.57;0.29;0.87
1753879332.747598;-2.118;2.826;-0.154;-3.03;-0.44;-126.52;0.0;0.0;0.0;0.0;-7.0;3.0;-9.0;7.0;-0.11;0.61;-10.62;0.62;0.48;0.86
1753879332.752598;-2.118;2.826;-0.154;-3.03;-0.44;-126.52;0.0;0.0;0.0;0.0;-7.0;3.0;-9.0;7.0;-0.11;0.61;-10.63;0.67;0.32;0.95
1753879332.757598;-2.118;2.826;-0.154;-3.03;-0.44;-126.52;0.0;0.0;0.0;0.0;-7.0;3.0;-9.0;7.0;-0.12;0.61;-10.63;0.64;0.09;0.98
1753879332.762598;-2.118;2.826;-0.154;-3.03;-0.44;-126.52;0.0;0.0;0.0;0.0;-7.0;3.0;-9.0;7.0;-0.11;0.61;-10.63;0.71;0.28;0.86
1753879332.767598;-2.118;2.826;-0.154;-3.03;-0.44;-126.52;0.0;0.0;0.0;0.0;-7.0;3.0;-9.0;7.0;-0.11;0.61;-10.63;0.61;0.42;0.84
1753879332.772598;-2.118;2.826;-0.154;-3.03;-0.44;-126.52;0.0;0.0;0.0;0.0;-7.0;3.0;-9.0;7.0;-0.1;0.62;-10.64;0.54;0.33;0.93
1753879332.777598;-2.118;2.826;-0.154;-3.03;-0.44;-126.52;0.0;0.0;0.0;0.0;-7.0;3.0;-9.0;7.0;-0.1;0.62;-10.64;0.62;0.32;0.8
1753879332.782598;-2.118;2.826;-0.154;-3.03;-0.44;-126.52;0.0;0.0;0.0;0.0;-7.0;3.0;-9.0;7.0;-0.11;0.62;-10.64;0.6;0.25;0.84
1753879332.787598;-2.118;2.826;-0.154;-3.03;-0.44;-126.52;0.0;0.0;0.0;0.0;-7.0;3.0;-9.0;7.0;-0.11;0.62;-10.64;0.6;0.28;0.96
1753879332.792598;-2.118;2.826;-0.154;-3.03;-0.44;-126.52;0.0;0.0;0.0;0.0;-7.0;3.0;-9.0;7.0;-0.11;0.62;-10.65;0.69;0.53;0.83
1753879332.797598;-2.118;2.826;-0.154;-3.03;-0.44;-126.52;0.0;0.0;0.0;0.0;-7.0;3.0;-9.0;7.0;-0.11;0.62;-10.65;0.68;0.34;0.83
1753879332.802598;-2.118;2.826;-0.154;-3.03;-0.44;-126.52;0.0;0.0;0.0;0.0;-7.0;3.0;-9.0;7.0;-0.11;0.63;-10.66;0.57;0.32;0.86
1753879332.807598;-2.118;2.826;-0.154;-3.03;-0.44;-126.52;0.0;0.0;0.0;0.0;-7.0;3.0;-9.0;7.0;-0.12;0.63;-10.65;0.59;0.28;0.79
1753879332.812598;-2.118;2.826;-0.154;-3.03;-0.44;-126.52;0.0;0.0;0.0;0.0;-7.0;3.0;-9.0;7.0;-0.12;0.63;-10.65;0.57;0.41;0.84
1753879332.817598;-2.118;2.826;-0.154;-3.03;-0.44;-126.52;0.0;0.0;0.0;0.0;-7.0;3.0;-9.0;7.0;-0.12;0.63;-10.65;0.61;0.3;0.93
1753879332.822598;-2.118;2.826;-0.154;-3.03;-0.44;-126.52;0.0;0.0;0.0;0.0;-7.0;3.0;-9.0;7.0;-0.12;0.64;-10.65;0.57;0.27;0.94
1753879332.827598;-2.118;2.826;-0.154;-3.03;-0.44;-126.52;0.0;0.0;0.0;0.0;-7.0;3.0;-9.0;7.0;-0.12;0.63;-10.65;0.64;0.32;0.93
1753879332.832598;-2.118;2.826;-0.154;-3.03;-0.44;-126.52;0.0;0.0;0.0;0.0;-7.0;3.0;-9.0;7.0;-0.13;0.63;-10.65;0.7;0.36;0.83
1753879332.837598;-2.118;2.826;-0.154;-3.03;-0.44;-126.52;0.0;0.0;0.0;0.0;-7.0;3.0;-9.0;7.0;-0.13;0.63;-10.65;0.7;0.41;0.94
1753879332.842598;-2.118;2.826;-0.154;-3.03;-0.44;-126.52;0.0;0.0;0.0;0.0;-7.0;3.0;-9.0;7.0;-0.11;0.63;-10.65;0.66;0.52;0.85
1753879332.847598;-2.118;2.826;-0.154;-3.03;-0.44;-126.52;0.0;0.0;0.0;0.0;-7.0;3.0;-9.0;7.0;-0.13;0.62;-10.64;0.64;0.21;0.84
1753879332.852598;-2.118;2.826;-0.154;-3.03;-0.44;-126.52;0.0;0.0;0.0;0.0;-7.0;3.0;-9.0;7.0;-0.11;0.61;-10.66;0.63;0.36;0.87
1753879332.857598;-2.118;2.826;-0.154;-3.03;-0.44;-126.52;0.0;0.0;0.0;0.0;-7.0;3.0;-9.0;7.0;-0.14;0.62;-10.64;0.63;0.36;0.81
1753879332.862599;-2.118;2.826;-0.154;-3.03;-0.44;-126.52;0.0;0.0;0.0;0.0;-7.0;3.0;-9.0;7.0;-0.13;0.62;-10.65;0.61;0.26;0.85
1753879332.867599;-2.118;2.826;-0.154;-3.03;-0.44;-126.52;0.0;0.0;0.0;0.0;-7.0;3.0;-9.0;7.0;-0.12;0.61;-10.65;0.55;0.31;0.98
1753879332.872599;-2.118;2.826;-0.154;-3.03;-0.44;-126.52;0.0;0.0;0.0;0.0;-7.0;3.0;-9.0;7.0;-0.13;0.62;-10.67;0.68;0.4;0.92
1753879332.877599;-2.118;2.826;-0.154;-3.03;-0.44;-126.52;0.0;0.0;0.0;0.0;-7.0;3.0;-9.0;7.0;-0.13;0.61;-10.63;0.61;0.29;1.05
1753879332.882598;-2.118;2.826;-0.154;-3.03;-0.44;-126.52;0.0;0.0;0.0;0.0;-7.0;3.0;-9.0;7.0;-0.12;0.61;-10.65;0.59;0.32;0.99
1753879332.887598;-2.118;2.826;-0.154;-3.03;-0.44;-126.52;0.0;0.0;0.0;0.0;-7.0;3.0;-9.0;7.0;-0.12;0.62;-10.65;0.57;0.33;0.99
1753879332.892598;-2.118;2.826;-0.154;-3.03;-0.44;-126.52;0.0;0.0;0.0;0.0;-7.0;3.0;-9.0;7.0;-0.12;0.61;-10.65;0.71;0.28;0.91
1753879332.897598;-2.118;2.826;-0.154;-3.03;-0.44;-126.52;0.0;0.0;0.0;0.0;-7.0;3.0;-9.0;7.0;-0.12;0.61;-10.65;0.62;0.2;0.91
1753879332.902598;-2.118;2.826;-0.154;-3.03;-0.44;-126.52;0.0;0.0;0.0;0.0;-7.0;3.0;-9.0;7.0;-0.12;0.61;-10.65;0.68;0.15;0.84
1753879332.907598;-2.118;2.826;-0.154;-3.03;-0.44;-126.52;0.0;0.0;0.0;0.0;-7.0;3.0;-9.0;7.0;-0.12;0.61;-10.64;0.72;0.24;0.97
1753879332.912598;-2.118;2.826;-0.154;-3.03;-0.44;-126.52;0.0;0.0;0.0;0.0;-7.0;3.0;-9.0;7.0;-0.12;0.62;-10.64;0.63;0.3;0.8
1753879332.917598;-2.118;2.826;-0.154;-3.03;-0.44;-126.52;0.0;0.0;0.0;0.0;-7.0;3.0;-9.0;7.0;-0.12;0.62;-10.63;0.69;0.52;0.93
1753879332.922598;-2.118;2.826;-0.154;-3.03;-0.44;-126.52;0.0;0.0;0.0;0.0;-7.0;3.0;-9.0;7.0;-0.12;0.62;-10.63;0.67;0.18;0.83
1753879332.927598;-2.118;2.826;-0.154;-3.03;-0.44;-126.52;0.0;0.0;0.0;0.0;-7.0;3.0;-9.0;7.0;-0.12;0.63;-10.63;0.57;0.45;0.96
1753879332.932598;-2.118;2.826;-0.154;-3.03;-0.44;-126.52;0.0;0.0;0.0;0.0;-7.0;3.0;-9.0;7.0;-0.12;0.62;-10.62;0.57;0.23;0.87
1753879332.937598;-2.118;2.826;-0.154;-3.03;-0.44;-126.52;0.0;0.0;0.0;0.0;-7.0;3.0;-9.0;7.0;-0.12;0.62;-10.63;0.61;0.4;0.88
1753879332.942598;-2.118;2.826;-0.154;-3.03;-0.44;-126.52;0.0;0.0;0.0;0.0;-7.0;3.0;-9.0;7.0;-0.12;0.62;-10.64;0.65;0.48;0.88
1753879332.947598;-2.118;2.826;-0.154;-3.03;-0.44;-126.52;0.0;0.0;0.0;0.0;-7.0;3.0;-9.0;7.0;-0.12;0.62;-10.63;0.79;0.32;0.89
1753879332.952598;-2.118;2.826;-0.154;-3.03;-0.44;-126.52;0.0;0.0;0.0;0.0;-7.0;3.0;-9.0;7.0;-0.12;0.62;-10.63;0.66;0.39;0.86
1753879332.957598;-2.118;2.826;-0.154;-3.03;-0.44;-126.52;0.0;0.0;0.0;0.0;-7.0;3.0;-9.0;7.0;-0.12;0.62;-10.64;0.57;0.32;0.81
1753879332.962598;-2.118;2.826;-0.154;-3.03;-0.44;-126.52;0.0;0.0;0.0;0.0;-7.0;3.0;-9.0;7.0;-0.12;0.62;-10.65;0.61;0.4;0.83
1753879332.967598;-2.118;2.826;-0.154;-3.03;-0.44;-126.52;0.0;0.0;0.0;0.0;-7.0;3.0;-9.0;7.0;-0.12;0.62;-10.65;0.63;0.37;0.83
1753879332.972598;-2.118;2.826;-0.154;-3.03;-0.44;-126.52;0.0;0.0;0.0;0.0;-7.0;3.0;-9.0;7.0;-0.13;0.61;-10.65;0.6;0.41;0.93
1753879332.977598;-2.118;2.826;-0.154;-3.03;-0.44;-126.52;0.0;0.0;0.0;0.0;-7.0;3.0;-9.0;7.0;-0.13;0.61;-10.64;0.71;0.35;1.01
1753879332.982598;-2.118;2.826;-0.154;-3.03;-0.44;-126.52;0.0;0.0;0.0;0.0;-7.0;3.0;-9.0;7.0;-0.12;0.61;-10.64;0.49;0.27;0.98
1753879332.987598;-2.118;2.826;-0.154;-3.03;-0.44;-126.52;0.0;0.0;0.0;0.0;-7.0;3.0;-9.0;7.0;-0.12;0.61;-10.64;0.59;0.41;0.82
1753879332.992598;-2.118;2.826;-0.154;-3.03;-0.44;-126.52;0.0;0.0;0.0;0.0;-7.0;3.0;-9.0;7.0;-0.12;0.62;-10.64;0.73;0.32;0.85
1753879332.997598;-2.118;2.826;-0.154;-3.03;-0.44;-126.52;0.0;0.0;0.0;0.0;-7.0;3.0;-9.0;7.0;-0.13;0.62;-10.64;0.8;0.29;0.91
1753879333.002598;-2.118;2.826;-0.154;-3.03;-0.44;-126.52;0.0;0.0;0.0;0.0;-7.0;3.0;-9.0;7.0;-0.12;0.62;-10.65;0.54;0.52;0.82
1753879333.007598;-2.118;2.826;-0.154;-3.03;-0.44;-126.52;0.0;0.0;0.0;0.0;-7.0;3.0;-9.0;7.0;-0.12;0.62;-10.65;0.65;0.46;1.03
1753879333.012598;-2.118;2.826;-0.154;-3.03;-0.44;-126.52;0.0;0.0;0.0;0.0;-7.0;3.0;-9.0;7.0;-0.12;0.62;-10.64;0.66;0.33;0.99
1753879333.017598;-2.118;2.826;-0.154;-3.03;-0.44;-126.52;0.0;0.0;0.0;0.0;-7.0;3.0;-9.0;7.0;-0.12;0.62;-10.64;0.64;0.48;0.98
1753879333.022598;-2.118;2.826;-0.154;-3.03;-0.44;-126.52;0.0;0.0;0.0;0.0;-7.0;3.0;-9.0;7.0;-0.11;0.62;-10.64;0.57;0.36;1.05
1753879333.027598;-2.118;2.826;-0.154;-3.03;-0.44;-126.52;0.0;0.0;0.0;0.0;-7.0;3.0;-9.0;7.0;-0.11;0.61;-10.65;0.67;0.28;0.98
1753879333.032598;-2.118;2.826;-0.154;-3.03;-0.44;-126.52;0.0;0.0;0.0;0.0;-7.0;3.0;-9.0;7.0;-0.11;0.61;-10.65;0.69;0.32;0.91
1753879333.037598;-2.118;2.826;-0.154;-3.03;-0.44;-126.52;0.0;0.0;0.0;0.0;-7.0;3.0;-9.0;7.0;-0.12;0.62;-10.65;0.62;0.32;0.86
1753879333.042598;-2.118;2.826;-0.154;-3.03;-0.44;-126.52;0.0;0.0;0.0;0.0;-7.0;3.0;-9.0;7.0;-0.12;0.62;-10.65;0.66;0.31;0.88
1753879333.047598;-2.118;2.826;-0.154;-3.03;-0.44;-126.52;0.0;0.0;0.0;0.0;-7.0;3.0;-9.0;7.0;-0.11;0.62;-10.65;0.55;0.37;0.9
1753879333.052598;-2.118;2.826;-0.154;-3.03;-0.44;-126.52;0.0;0.0;0.0;0.0;-7.0;3.0;-9.0;7.0;-0.11;0.62;-10.65;0.53;0.41;0.96
1753879333.057598;-2.118;2.826;-0.154;-3.03;-0.44;-126.52;0.0;0.0;0.0;0.0;-7.0;3.0;-9.0;7.0;-0.11;0.62;-10.64;0.7;0.37;0.93
1753879333.062598;-2.118;2.826;-0.154;-3.03;-0.44;-126.52;0.0;0.0;0.0;0.0;-7.0;3.0;-9.0;7.0;-0.11;0.62;-10.65;0.61;0.34;1.01
1753879333.067598;-2.118;2.826;-0.154;-3.03;-0.44;-126.52;0.0;0.0;0.0;0.0;-7.0;3.0;-9.0;7.0;-0.11;0.62;-10.65;0.53;0.45;0.95
1753879333.072598;-2.118;2.826;-0.154;-3.03;-0.44;-126.52;0.0;0.0;0.0;0.0;-7.0;3.0;-9.0;7.0;-0.11;0.63;-10.64;0.61;0.32;0.91
1753879333.077598;-2.118;2.826;-0.154;-3.03;-0.44;-126.52;0.0;0.0;0.0;0.0;-7.0;3.0;-9.0;7.0;-0.13;0.62;-10.62;0.61;0.3;0.77
1753879333.082598;-2.118;2.826;-0.154;-3.03;-0.44;-126.52;0.0;0.0;0.0;0.0;-7.0;3.0;-9.0;7.0;-0.12;0.62;-10.63;0.6;0.32;0.86
1753879333.087598;-2.118;2.826;-0.154;-3.03;-0.44;-126.52;0.0;0.0;0.0;0.0;-7.0;3.0;-9.0;7.0;-0.12;0.62;-10.63;0.57;0.41;0.9
1753879333.092598;-2.118;2.826;-0.154;-3.03;-0.44;-126.52;0.0;0.0;0.0;0.0;-7.0;3.0;-9.0;7.0;-0.12;0.62;-10.63;0.86;0.48;0.93
1753879333.097598;-2.118;2.826;-0.154;-3.03;-0.44;-126.52;0.0;0.0;0.0;0.0;-7.0;3.0;-9.0;7.0;-0.12;0.62;-10.63;0.62;0.35;0.88
1753879333.102598;-2.118;2.826;-0.154;-3.03;-0.44;-126.52;0.0;0.0;0.0;0.0;-7.0;3.0;-9.0;7.0;-0.12;0.62;-10.63;0.56;0.29;1.06
1753879333.107598;-2.118;2.826;-0.154;-3.03;-0.44;-126.52;0.0;0.0;0.0;0.0;-7.0;3.0;-9.0;7.0;-0.12;0.61;-10.63;0.58;0.29;0.93
1753879333.112598;-2.118;2.826;-0.154;-3.03;-0.44;-126.52;0.0;0.0;0.0;0.0;-7.0;3.0;-9.0;7.0;-0.12;0.62;-10.63;0.77;0.3;0.93
1753879333.117598;-2.118;2.826;-0.154;-3.03;-0.44;-126.52;0.0;0.0;0.0;0.0;-7.0;3.0;-9.0;7.0;-0.12;0.62;-10.63;0.71;0.32;0.96
1753879333.122598;-2.118;2.826;-0.154;-3.03;-0.44;-126.52;0.0;0.0;0.0;0.0;-7.0;3.0;-9.0;7.0;-0.12;0.62;-10.65;0.63;0.31;0.83
1753879333.127598;-2.118;2.826;-0.154;-3.03;-0.44;-126.52;0.0;0.0;0.0;0.0;-7.0;3.0;-9.0;7.0;-0.12;0.62;-10.64;0.74;0.32;0.83
1753879333.132598;-2.118;2.826;-0.154;-3.03;-0.44;-126.52;0.0;0.0;0.0;0.0;-7.0;3.0;-9.0;7.0;-0.11;0.62;-10.64;0.67;0.35;0.9
1753879333.137598;-2.118;2.826;-0.154;-3.03;-0.44;-126.52;0.0;0.0;0.0;0.0;-7.0;3.0;-9.0;7.0;-0.12;0.62;-10.62;0.72;0.34;0.77
1753879333.142598;-2.118;2.826;-0.154;-3.03;-0.44;-126.52;0.0;0.0;0.0;0.0;-7.0;3.0;-9.0;7.0;-0.11;0.61;-10.64;0.68;0.43;0.74
1753879333.147598;-2.118;2.826;-0.154;-3.03;-0.44;-126.52;0.0;0.0;0.0;0.0;-7.0;3.0;-9.0;7.0;-0.11;0.62;-10.64;0.86;0.39;0.81
1753879333.152598;-2.118;2.826;-0.154;-3.03;-0.44;-126.52;0.0;0.0;0.0;0.0;-7.0;3.0;-9.0;7.0;-0.11;0.62;-10.63;0.6;0.4;0.85
1753879333.157598;-2.118;2.826;-0.154;-3.03;-0.44;-126.52;0.0;0.0;0.0;0.0;-7.0;3.0;-9.0;7.0;-0.12;0.62;-10.65;0.77;0.38;0.79
1753879333.162598;-2.118;2.826;-0.154;-3.03;-0.44;-126.52;0.0;0.0;0.0;0.0;-7.0;3.0;-9.0;7.0;-0.11;0.61;-10.64;0.88;0.27;0.85
1753879333.167599;-2.118;2.826;-0.154;-3.03;-0.44;-126.52;0.0;0.0;0.0;0.0;-7.0;3.0;-9.0;7.0;-0.11;0.61;-10.64;0.7;0.25;0.82
1753879333.172599;-2.118;2.826;-0.154;-3.03;-0.44;-126.52;0.0;0.0;0.0;0.0;-7.0;3.0;-9.0;7.0;-0.11;0.61;-10.64;0.82;0.33;0.76
1753879333.177599;-2.118;2.826;-0.154;-3.03;-0.44;-126.52;0.0;0.0;0.0;0.0;-7.0;3.0;-9.0;7.0;-0.11;0.61;-10.63;0.67;0.33;0.77
1753879333.182599;-2.118;2.826;-0.154;-3.03;-0.44;-126.52;0.0;0.0;0.0;0.0;-7.0;3.0;-9.0;7.0;-0.11;0.62;-10.66;0.66;0.3;0.82
1753879333.187599;-2.118;2.826;-0.154;-3.03;-0.44;-126.52;0.0;0.0;0.0;0.0;-7.0;3.0;-9.0;7.0;-0.12;0.61;-10.65;0.86;0.31;0.8
1753879333.192599;-2.118;2.826;-0.154;-3.03;-0.44;-126.52;0.0;0.0;0.0;0.0;-7.0;3.0;-9.0;7.0;-0.11;0.61;-10.63;0.71;0.26;0.96
1753879333.1976;-2.118;2.826;-0.154;-3.03;-0.44;-126.52;0.0;0.0;0.0;0.0;-7.0;3.0;-9.0;7.0;-0.11;0.62;-10.63;0.66;0.39;0.82
1753879333.2026;-2.118;2.826;-0.154;-3.03;-0.44;-126.52;0.0;0.0;0.0;0.0;-7.0;3.0;-9.0;7.0;-0.12;0.6;-10.63;0.75;0.39;0.9
1753879333.2076;-2.118;2.826;-0.154;-3.03;-0.44;-126.52;0.0;0.0;0.0;0.0;-7.0;3.0;-9.0;7.0;-0.11;0.61;-10.64;0.7;0.25;0.88
1753879333.2126;-2.118;2.826;-0.154;-3.03;-0.44;-126.52;0.0;0.0;0.0;0.0;-7.0;3.0;-9.0;7.0;-0.11;0.61;-10.63;0.6;0.35;0.88
1753879333.2176;-2.118;2.826;-0.154;-3.03;-0.44;-126.52;0.0;0.0;0.0;0.0;-7.0;3.0;-9.0;7.0;-0.11;0.61;-10.64;0.73;0.21;0.68
1753879333.2226;-2.118;2.826;-0.154;-3.03;-0.44;-126.52;0.0;0.0;0.0;0.0;-7.0;3.0;-9.0;7.0;-0.1;0.6;-10.63;0.58;0.26;0.75
1753879333.2276;-2.118;2.826;-0.154;-3.03;-0.44;-126.52;0.0;0.0;0.0;0.0;-7.0;3.0;-9.0;7.0;-0.1;0.61;-10.64;0.56;0.32;0.83
1753879333.2326;-2.118;2.826;-0.154;-3.03;-0.44;-126.52;0.0;0.0;0.0;0.0;-7.0;3.0;-9.0;7.0;-0.12;0.61;-10.63;0.7;0.25;0.83
1753879333.2376;-2.118;2.826;-0.154;-3.03;-0.44;-126.52;0.0;0.0;0.0;0.0;-7.0;3.0;-9.0;7.0;-0.1;0.6;-10.63;0.81;0.35;0.87
1753879333.2426;-2.118;2.826;-0.154;-3.03;-0.44;-126.52;0.0;0.0;0.0;0.0;-7.0;3.0;-9.0;7.0;-0.09;0.6;-10.64;0.54;0.26;0.8
1753879333.2476;-2.118;2.826;-0.154;-3.03;-0.44;-126.52;0.0;0.0;0.0;0.0;-7.0;3.0;-9.0;7.0;-0.1;0.6;-10.61;0.62;0.28;0.85
1753879333.252601;-2.118;2.826;-0.154;-3.03;-0.44;-126.52;0.0;0.0;0.0;0.0;-7.0;3.0;-9.0;7.0;-0.1;0.6;-10.62;0.9;0.33;0.81
1753879333.257601;-2.118;2.826;-0.154;-3.03;-0.44;-126.52;0.0;0.0;0.0;0.0;-7.0;3.0;-9.0;7.0;-0.1;0.6;-10.62;0.65;0.34;0.71
1753879333.262601;-2.118;2.826;-0.154;-3.03;-0.44;-126.52;0.0;0.0;0.0;0.0;-7.0;3.0;-9.0;7.0;-0.11;0.6;-10.63;0.74;0.27;0.81
1753879333.267601;-2.118;2.826;-0.154;-3.03;-0.44;-126.52;0.0;0.0;0.0;0.0;-7.0;3.0;-9.0;7.0;-0.09;0.61;-10.62;0.73;0.34;0.72
1753879333.272598;-2.118;2.826;-0.154;-3.03;-0.44;-126.52;0.0;0.0;0.0;0.0;-7.0;3.0;-9.0;7.0;-0.1;0.6;-10.63;0.66;0.32;0.79
1753879333.277598;-2.118;2.826;-0.154;-3.03;-0.44;-126.52;0.0;0.0;0.0;0.0;-7.0;3.0;-9.0;7.0;-0.1;0.59;-10.64;0.54;0.23;0.94
1753879333.282598;-2.118;2.826;-0.154;-3.03;-0.44;-126.52;0.0;0.0;0.0;0.0;-7.0;3.0;-9.0;7.0;-0.1;0.6;-10.64;0.6;0.32;0.83
1753879333.287598;-2.118;2.826;-0.154;-3.03;-0.44;-126.52;0.0;0.0;0.0;0.0;-7.0;3.0;-9.0;7.0;-0.1;0.6;-10.64;0.57;0.39;0.92
1753879333.292598;-2.118;2.826;-0.154;-3.03;-0.44;-126.52;0.0;0.0;0.0;0.0;-7.0;3.0;-9.0;7.0;-0.1;0.6;-10.65;0.65;0.41;0.94
1753879333.297598;-2.118;2.826;-0.154;-3.03;-0.44;-126.52;0.0;0.0;0.0;0.0;-7.0;3.0;-9.0;7.0;-0.1;0.6;-10.64;0.64;0.38;0.9
1753879333.302598;-2.118;2.826;-0.154;-3.03;-0.44;-126.52;0.0;0.0;0.0;0.0;-7.0;3.0;-9.0;7.0;-0.1;0.6;-10.64;0.65;0.43;0.94
1753879333.307598;-2.118;2.826;-0.154;-3.03;-0.44;-126.52;0.0;0.0;0.0;0.0;-7.0;3.0;-9.0;7.0;-0.11;0.6;-10.64;0.63;0.38;1.02
1753879333.312598;-2.118;2.826;-0.154;-3.03;-0.44;-126.52;0.0;0.0;0.0;0.0;-7.0;3.0;-9.0;7.0;-0.11;0.6;-10.64;0.66;0.41;0.89
1753879333.317598;-2.118;2.826;-0.154;-3.03;-0.44;-126.52;0.0;0.0;0.0;0.0;-7.0;3.0;-9.0;7.0;-0.1;0.6;-10.65;0.6;0.29;0.87
1753879333.322598;-2.118;2.826;-0.154;-3.03;-0.44;-126.52;0.0;0.0;0.0;0.0;-7.0;3.0;-9.0;7.0;-0.11;0.61;-10.65;0.74;0.35;0.85
1753879333.327598;-2.118;2.826;-0.154;-3.03;-0.44;-126.52;0.0;0.0;0.0;0.0;-7.0;3.0;-9.0;7.0;-0.11;0.61;-10.66;0.67;0.27;0.8
1753879333.332598;-2.118;2.826;-0.154;-3.03;-0.44;-126.52;0.0;0.0;0.0;0.0;-7.0;3.0;-9.0;7.0;-0.11;0.61;-10.65;0.63;0.25;1.0
1753879333.337598;-2.118;2.826;-0.154;-3.03;-0.44;-126.52;0.0;0.0;0.0;0.0;-7.0;3.0;-9.0;7.0;-0.11;0.61;-10.65;0.74;0.32;0.86
1753879333.342598;-2.118;2.826;-0.154;-3.03;-0.44;-126.52;0.0;0.0;0.0;0.0;-7.0;3.0;-9.0;7.0;-0.11;0.61;-10.64;0.61;0.32;0.98
1753879333.347598;-2.118;2.826;-0.154;-3.03;-0.44;-126.52;0.0;0.0;0.0;0.0;-7.0;3.0;-9.0;7.0;-0.12;0.61;-10.64;0.85;0.41;0.94
1753879333.352598;-2.118;2.826;-0.154;-3.03;-0.44;-126.52;0.0;0.0;0.0;0.0;-7.0;3.0;-9.0;7.0;-0.12;0.61;-10.64;0.79;0.44;0.98
1753879333.357598;-2.118;2.826;-0.154;-3.03;-0.44;-126.52;0.0;0.0;0.0;0.0;-7.0;3.0;-9.0;7.0;-0.12;0.61;-10.64;0.66;0.38;0.84
1753879333.362598;-2.118;2.826;-0.154;-3.03;-0.44;-126.52;0.0;0.0;0.0;0.0;-7.0;3.0;-9.0;7.0;-0.12;0.61;-10.65;0.63;0.34;0.71
1753879333.367598;-2.118;2.826;-0.154;-3.03;-0.44;-126.52;0.0;0.0;0.0;0.0;-7.0;3.0;-9.0;7.0;-0.12;0.61;-10.64;0.62;0.34;0.94
1753879333.372598;-2.118;2.826;-0.154;-3.03;-0.44;-126.52;0.0;0.0;0.0;0.0;-7.0;3.0;-9.0;7.0;-0.12;0.62;-10.65;0.56;0.34;0.96
1753879333.377598;-2.118;2.826;-0.154;-3.03;-0.44;-126.52;0.0;0.0;0.0;0.0;-7.0;3.0;-9.0;7.0;-0.12;0.61;-10.64;0.68;0.34;0.92
1753879333.382598;-2.118;2.826;-0.154;-3.03;-0.44;-126.52;0.0;0.0;0.0;0.0;-7.0;3.0;-9.0;7.0;-0.12;0.61;-10.64;0.57;0.36;0.9
1753879333.387598;-2.118;2.826;-0.154;-3.03;-0.44;-126.52;0.0;0.0;0.0;0.0;-7.0;3.0;-9.0;7.0;-0.12;0.61;-10.65;0.74;0.38;0.93
1753879333.392598;-2.118;2.826;-0.154;-3.03;-0.44;-126.52;0.0;0.0;0.0;0.0;-7.0;3.0;-9.0;7.0;-0.12;0.61;-10.65;0.58;0.28;0.9
1753879333.397598;-2.118;2.826;-0.154;-3.03;-0.44;-126.52;0.0;0.0;0.0;0.0;-7.0;3.0;-9.0;7.0;-0.13;0.62;-10.65;0.68;0.28;0.92
1753879333.402598;-2.118;2.826;-0.154;-3.03;-0.44;-126.52;0.0;0.0;0.0;0.0;-7.0;3.0;-9.0;7.0;-0.13;0.61;-10.66;0.62;0.36;0.91
1753879333.407598;-2.118;2.826;-0.154;-3.03;-0.44;-126.52;0.0;0.0;0.0;0.0;-7.0;3.0;-9.0;7.0;-0.13;0.62;-10.66;0.62;0.29;0.98
1753879333.412598;-2.118;2.826;-0.154;-3.03;-0.44;-126.52;0.0;0.0;0.0;0.0;-7.0;3.0;-9.0;7.0;-0.11;0.61;-10.64;0.59;0.28;0.9
1753879333.417598;-2.118;2.826;-0.154;-3.03;-0.44;-126.52;0.0;0.0;0.0;0.0;-7.0;3.0;-9.0;7.0;-0.11;0.61;-10.64;0.56;0.31;0.87
1753879333.422598;-2.118;2.826;-0.154;-3.03;-0.44;-126.52;0.0;0.0;0.0;0.0;-7.0;3.0;-9.0;7.0;-0.12;0.6;-10.64;0.58;0.29;0.88
1753879333.427599;-2.118;2.826;-0.154;-3.03;-0.44;-126.52;0.0;0.0;0.0;0.0;-7.0;3.0;-9.0;7.0;-0.12;0.61;-10.65;0.62;0.42;0.96
1753879333.432599;-2.118;2.826;-0.154;-3.03;-0.44;-126.52;0.0;0.0;0.0;0.0;-7.0;3.0;-9.0;7.0;-0.12;0.6;-10.65;0.68;0.34;0.85
1753879333.437599;-2.118;2.826;-0.154;-3.03;-0.44;-126.52;0.0;0.0;0.0;0.0;-7.0;3.0;-9.0;7.0;-0.1;0.6;-10.65;0.69;0.43;0.98
1753879333.442599;-2.118;2.826;-0.154;-3.03;-0.44;-126.52;0.0;0.0;0.0;0.0;-7.0;3.0;-9.0;7.0;-0.13;0.61;-10.64;0.6;0.24;0.96
1753879333.447599;-2.118;2.826;-0.154;-3.03;-0.44;-126.52;0.0;0.0;0.0;0.0;-7.0;3.0;-9.0;7.0;-0.09;0.61;-10.64;0.59;0.3;0.92
1753879333.452599;-2.118;2.826;-0.154;-3.03;-0.44;-126.52;0.0;0.0;0.0;0.0;-7.0;3.0;-9.0;7.0;-0.12;0.62;-10.63;0.64;0.35;0.98
1753879333.457598;-2.118;2.826;-0.154;-3.03;-0.44;-126.52;0.0;0.0;0.0;0.0;-7.0;3.0;-9.0;7.0;-0.11;0.61;-10.64;0.64;0.41;0.96
1753879333.462598;-2.118;2.826;-0.154;-3.03;-0.44;-126.52;0.0;0.0;0.0;0.0;-7.0;3.0;-9.0;7.0;-0.11;0.61;-10.65;0.56;0.49;0.98
1753879333.467598;-2.118;2.826;-0.154;-3.03;-0.44;-126.52;0.0;0.0;0.0;0.0;-7.0;3.0;-9.0;7.0;-0.11;0.61;-10.64;0.74;0.36;0.77
1753879333.472598;-2.118;2.826;-0.154;-3.03;-0.44;-126.52;0.0;0.0;0.0;0.0;-7.0;3.0;-9.0;7.0;-0.11;0.61;-10.65;0.73;0.45;0.9
1753879333.477598;-2.118;2.826;-0.154;-3.03;-0.44;-126.52;0.0;0.0;0.0;0.0;-6.6;2.3;-9.0;8.3;-0.1;0.61;-10.65;0.74;0.39;0.98
1753879333.482598;-2.118;2.826;-0.154;-3.03;-0.44;-126.52;0.0;0.0;0.0;0.0;-7.2;4.1;-9.0;6.6;-0.12;0.61;-10.65;0.78;0.47;0.83
1753879333.487598;-2.118;2.826;-0.154;-3.03;-0.44;-126.52;0.0;0.0;0.0;0.0;-6.9;4.2;-9.0;5.4;-0.11;0.62;-10.64;0.75;0.44;0.97
1753879333.492598;-2.118;2.826;-0.154;-3.03;-0.44;-126.52;0.0;0.0;0.0;0.0;-6.0;1.2;-9.0;-0.1;-0.12;0.61;-10.65;0.7;0.44;0.94
1753879333.497598;-2.118;2.826;-0.154;-3.04;-0.44;-126.52;0.0;0.0;0.0;0.0;-6.2;2.5;-9.0;2.6;-0.11;0.61;-10.65;0.81;0.4;0.93
1753879333.502598;-2.118;2.826;-0.154;-3.02;-0.44;-126.52;0.0;0.0;0.0;0.0;-5.4;2.3;-9.0;4.5;-0.11;0.61;-10.65;0.64;0.47;0.87
1753879333.507599;-2.118;2.826;-0.154;-3.03;-0.44;-126.52;0.0;0.0;0.0;0.0;-6.6;1.3;-9.0;1.6;-0.12;0.61;-10.64;0.57;0.49;0.91
1753879333.512599;-2.118;2.826;-0.154;-3.02;-0.44;-126.52;0.0;0.0;0.0;0.0;-6.8;1.6;-9.0;-1.6;-0.11;0.61;-10.65;0.74;0.52;0.79
1753879333.517599;-2.118;2.826;-0.154;-3.02;-0.44;-126.52;0.0;0.0;0.0;0.0;-6.5;1.8;-9.0;3.3;-0.12;0.61;-10.65;0.64;0.41;0.87
1753879333.522599;-2.118;2.826;-0.154;-3.02;-0.44;-126.52;0.0;0.0;0.0;0.0;-5.8;2.0;-9.0;-1.7;-0.11;0.62;-10.66;0.64;0.48;0.89
1753879333.527599;-2.118;2.826;-0.154;-3.02;-0.44;-126.52;0.0;0.0;0.0;0.0;-5.2;0.9;-9.0;1.0;-0.11;0.62;-10.67;0.57;0.38;0.93
1753879333.532599;-2.118;2.826;-0.154;-3.02;-0.44;-126.52;0.0;0.0;0.0;0.0;-4.9;-1.4;-9.0;-2.7;-0.11;0.61;-10.66;0.55;0.5;0.92
1753879333.537599;-2.118;2.826;-0.154;-3.01;-0.44;-126.52;0.0;0.0;0.0;0.0;-5.2;-0.9;-9.0;-1.8;-0.11;0.6;-10.64;0.61;0.35;0.87
1753879333.5426;-2.118;2.826;-0.154;-3.01;-0.44;-126.52;0.0;0.0;0.0;0.0;-5.5;2.4;-9.0;0.0;-0.1;0.61;-10.65;0.56;0.33;1.01
1753879333.5476;-2.118;2.826;-0.154;-3.02;-0.44;-126.52;0.0;0.0;0.0;0.0;-4.7;-3.4;-9.0;-5.0;-0.11;0.61;-10.65;0.64;0.38;1.01
1753879333.5526;-2.118;2.826;-0.154;-3.02;-0.44;-126.52;0.0;0.0;0.0;0.0;-5.5;-2.3;-9.0;-4.1;-0.11;0.6;-10.65;0.62;0.36;0.92
1753879333.5576;-2.118;2.826;-0.154;-3.02;-0.44;-126.52;0.0;0.0;0.0;0.0;-4.3;-0.4;-9.0;-3.6;-0.1;0.61;-10.65;0.76;0.38;0.82
1753879333.5626;-2.118;2.826;-0.154;-3.01;-0.44;-126.52;0.0;0.0;0.0;0.0;-3.7;1.5;-9.0;2.2;-0.1;0.61;-10.66;0.68;0.38;0.96
1753879333.5676;-2.118;2.826;-0.154;-3.01;-0.44;-126.52;0.0;0.0;0.0;0.0;-4.0;-3.9;-9.0;-3.6;-0.1;0.61;-10.65;0.53;0.33;0.94
1753879333.5726;-2.118;2.826;-0.154;-3.03;-0.44;-126.52;0.0;0.0;0.0;0.0;-4.9;-5.6;-9.0;-6.1;-0.1;0.61;-10.66;0.53;0.36;0.86
1753879333.5776;-2.118;2.826;-0.154;-3.0;-0.44;-126.52;0.0;0.0;0.0;0.0;-4.6;-2.6;-9.0;-6.3;-0.1;0.61;-10.66;0.39;0.42;0.9
1753879333.5826;-2.118;2.826;-0.154;-3.0;-0.44;-126.52;0.0;0.0;0.0;0.0;-4.0;-1.7;-9.0;-5.0;-0.1;0.6;-10.66;0.55;0.41;0.78
1753879333.5876;-2.118;2.826;-0.154;-3.0;-0.44;-126.52;0.0;0.0;0.0;0.0;-4.0;-5.6;-9.0;-7.9;-0.1;0.62;-10.65;0.63;0.31;0.81
1753879333.5926;-2.118;2.826;-0.154;-3.01;-0.44;-126.52;0.0;0.0;0.0;0.0;-4.2;-4.1;-9.0;-8.6;-0.11;0.6;-10.67;0.44;0.37;0.85
1753879333.597601;-2.118;2.826;-0.154;-3.01;-0.44;-126.52;0.0;0.0;0.0;0.0;-4.0;-5.3;-9.0;-14.7;-0.1;0.61;-10.65;0.57;0.28;0.71
1753879333.602601;-2.118;2.826;-0.154;-3.0;-0.44;-126.52;0.0;0.0;0.0;0.0;-4.3;-3.8;-9.0;-5.8;-0.09;0.61;-10.65;0.42;0.29;0.98
1753879333.607601;-2.118;2.826;-0.154;-3.0;-0.44;-126.52;0.0;0.0;0.0;0.0;-5.6;-2.4;-9.0;-14.9;-0.1;0.61;-10.67;0.49;0.39;0.83
1753879333.612598;-2.118;2.826;-0.154;-3.0;-0.44;-126.52;0.0;0.0;0.0;0.0;-4.0;-5.0;-9.0;-10.0;-0.1;0.61;-10.66;0.49;0.35;0.86
1753879333.617598;-2.118;2.826;-0.154;-2.99;-0.44;-126.52;0.0;0.0;0.0;0.0;-4.6;-3.8;-9.0;-2.1;-0.11;0.61;-10.67;0.56;0.34;0.84
1753879333.622598;-2.118;2.826;-0.154;-3.0;-0.44;-126.52;0.0;0.0;0.0;0.0;-4.0;-5.0;-9.0;-10.0;-0.1;0.61;-10.66;0.62;0.32;0.9
1753879333.627598;-2.118;2.826;-0.154;-3.0;-0.44;-126.52;0.0;0.0;0.0;0.0;-4.0;-5.0;-9.0;-10.0;-0.11;0.61;-10.66;0.62;0.3;1.01
1753879333.632598;-2.118;2.826;-0.154;-3.0;-0.44;-126.52;0.0;0.0;0.0;0.0;-4.0;-5.0;-9.0;-10.0;-0.11;0.62;-10.66;0.76;0.18;0.9
1753879333.637598;-2.118;2.826;-0.154;-3.0;-0.44;-126.52;0.0;0.0;0.0;0.0;-4.0;-5.0;-9.0;-10.0;-0.11;0.62;-10.65;0.65;0.44;0.82
1753879333.642598;-2.118;2.826;-0.154;-3.0;-0.44;-126.52;0.0;0.0;0.0;0.0;-4.0;-5.0;-9.0;-10.0;-0.11;0.61;-10.65;0.57;0.43;0.93
1753879333.647598;-2.118;2.826;-0.154;-3.0;-0.44;-126.52;0.0;0.0;0.0;0.0;-4.0;-5.0;-9.0;-10.0;-0.11;0.62;-10.65;0.69;0.3;0.96
1753879333.652598;-2.118;2.826;-0.154;-3.0;-0.44;-126.52;0.0;0.0;0.0;0.0;-4.0;-5.0;-9.0;-10.0;-0.12;0.62;-10.65;0.56;0.21;0.96
1753879333.657598;-2.118;2.826;-0.154;-3.0;-0.44;-126.52;0.0;0.0;0.0;0.0;-4.0;-5.0;-9.0;-10.0;-0.12;0.62;-10.65;0.59;0.41;0.86
1753879333.662598;-2.118;2.826;-0.154;-3.0;-0.44;-126.52;0.0;0.0;0.0;0.0;-4.0;-5.0;-9.0;-10.0;-0.12;0.62;-10.65;0.61;0.28;1.02
1753879333.667598;-2.118;2.826;-0.154;-2.99;-0.44;-126.52;0.0;0.0;0.0;0.0;-3.7;-0.9;-9.0;-6.7;-0.12;0.63;-10.65;0.5;0.35;0.86
1753879333.672598;-2.118;2.826;-0.154;-3.0;-0.44;-126.52;0.0;0.0;0.0;0.0;-4.0;-5.0;-9.0;-10.0;-0.12;0.63;-10.66;0.66;0.32;0.71
1753879333.677598;-2.118;2.826;-0.154;-3.0;-0.44;-126.52;0.0;0.0;0.0;0.0;-4.0;-5.0;-9.0;-10.0;-0.12;0.63;-10.66;0.7;0.45;0.95
1753879333.682598;-2.118;2.826;-0.154;-3.0;-0.44;-126.52;0.0;0.0;0.0;0.0;-4.0;-5.0;-9.0;-10.0;-0.12;0.62;-10.66;0.62;0.38;0.9
1753879333.687598;-2.118;2.826;-0.154;-3.0;-0.44;-126.52;0.0;0.0;0.0;0.0;-4.0;-5.0;-9.0;-10.0;-0.12;0.62;-10.66;0.56;0.41;0.74
1753879333.692598;-2.118;2.826;-0.154;-3.0;-0.44;-126.52;0.0;0.0;0.0;0.0;-4.0;-5.0;-9.0;-10.0;-0.12;0.62;-10.67;0.61;0.26;0.89
1753879333.697598;-2.118;2.826;-0.154;-3.0;-0.44;-126.52;0.0;0.0;0.0;0.0;-4.0;-5.0;-9.0;-10.0;-0.12;0.62;-10.67;0.71;0.25;0.99
1753879333.702598;-2.118;2.826;-0.154;-3.0;-0.44;-126.52;0.0;0.0;0.0;0.0;-4.0;-5.0;-9.0;-10.0;-0.12;0.62;-10.67;0.52;0.42;0.85
1753879333.707598;-2.118;2.826;-0.154;-3.0;-0.44;-126.52;0.0;0.0;0.0;0.0;-4.0;-5.0;-9.0;-10.0;-0.12;0.62;-10.66;0.67;0.42;0.9
1753879333.712598;-2.118;2.826;-0.154;-3.0;-0.44;-126.52;0.0;0.0;0.0;0.0;-4.0;-5.0;-9.0;-10.0;-0.12;0.62;-10.66;0.54;0.34;0.83
1753879333.717598;-2.118;2.826;-0.154;-3.0;-0.44;-126.52;0.0;0.0;0.0;0.0;-4.0;-5.0;-9.0;-10.0;-0.12;0.61;-10.66;0.64;0.41;1.02
1753879333.722598;-2.118;2.826;-0.154;-3.0;-0.44;-126.52;0.0;0.0;0.0;0.0;-4.0;-5.0;-9.0;-10.0;-0.1;0.61;-10.64;0.62;0.3;0.99
1753879333.727598;-2.118;2.826;-0.154;-3.0;-0.44;-126.52;0.0;0.0;0.0;0.0;-4.0;-5.0;-9.0;-10.0;-0.12;0.6;-10.65;0.6;0.39;0.9
1753879333.732598;-2.118;2.826;-0.154;-3.0;-0.44;-126.52;0.0;0.0;0.0;0.0;-4.0;-5.0;-9.0;-10.0;-0.12;0.62;-10.66;0.63;0.47;0.89
1753879333.737598;-2.118;2.826;-0.154;-3.0;-0.44;-126.52;0.0;0.0;0.0;0.0;-4.0;-5.0;-9.0;-10.0;-0.12;0.62;-10.65;0.7;0.41;0.93
1753879333.742598;-2.118;2.826;-0.154;-3.0;-0.44;-126.52;0.0;0.0;0.0;0.0;-4.0;-5.0;-9.0;-10.0;-0.13;0.62;-10.65;0.57;0.45;0.92
1753879333.747599;-2.118;2.826;-0.154;-3.0;-0.44;-126.52;0.0;0.0;0.0;0.0;-4.0;-5.0;-9.0;-10.0;-0.12;0.6;-10.65;0.68;0.51;0.92
1753879333.752599;-2.118;2.826;-0.154;-3.0;-0.44;-126.52;0.0;0.0;0.0;0.0;-4.0;-5.0;-9.0;-10.0;-0.12;0.61;-10.66;0.66;0.4;0.72
1753879333.757599;-2.118;2.826;-0.154;-3.0;-0.44;-126.52;0.0;0.0;0.0;0.0;-4.0;-5.0;-9.0;-10.0;-0.12;0.61;-10.64;0.6;0.33;0.8
1753879333.762599;-2.118;2.826;-0.154;-3.0;-0.44;-126.52;0.0;0.0;0.0;0.0;-4.0;-5.0;-9.0;-10.0;-0.12;0.6;-10.65;0.64;0.46;0.94
1753879333.767599;-2.118;2.826;-0.154;-3.0;-0.44;-126.52;0.0;0.0;0.0;0.0;-4.0;-5.0;-9.0;-10.0;-0.11;0.6;-10.63;0.57;0.21;0.85
1753879333.772599;-2.118;2.826;-0.154;-3.0;-0.44;-126.52;0.0;0.0;0.0;0.0;-4.0;-5.0;-9.0;-10.0;-0.12;0.61;-10.63;0.64;0.48;1.02
1753879333.777599;-2.118;2.826;-0.154;-3.0;-0.44;-126.52;0.0;0.0;0.0;0.0;-4.0;-5.0;-9.0;-10.0;-0.12;0.6;-10.62;0.74;0.53;0.85
1753879333.782598;-2.118;2.826;-0.154;-3.0;-0.44;-126.52;0.0;0.0;0.0;0.0;-4.0;-5.0;-9.0;-10.0;-0.12;0.6;-10.63;0.6;0.41;0.79
1753879333.787598;-2.118;2.826;-0.154;-3.0;-0.44;-126.52;0.0;0.0;0.0;0.0;-4.0;-5.0;-9.0;-10.0;-0.11;0.61;-10.63;0.6;0.46;0.81
1753879333.792598;-2.118;2.826;-0.154;-3.0;-0.44;-126.52;0.0;0.0;0.0;0.0;-4.0;-5.0;-9.0;-10.0;-0.12;0.6;-10.63;0.67;0.43;0.7
1753879333.797598;-2.118;2.826;-0.154;-3.0;-0.44;-126.52;0.0;0.0;0.0;0.0;-4.0;-5.0;-9.0;-10.0;-0.12;0.61;-10.63;0.6;0.46;0.77
1753879333.802598;-2.118;2.826;-0.154;-3.0;-0.44;-126.52;0.0;0.0;0.0;0.0;-4.0;-5.0;-9.0;-10.0;-0.11;0.59;-10.63;0.72;0.39;0.82
1753879333.807598;-2.118;2.826;-0.154;-3.0;-0.44;-126.52;0.0;0.0;0.0;0.0;-4.0;-5.0;-9.0;-10.0;-0.12;0.61;-10.63;0.69;0.34;0.74
1753879333.812598;-2.118;2.826;-0.154;-3.0;-0.44;-126.52;0.0;0.0;0.0;0.0;-4.0;-5.0;-9.0;-10.0;-0.12;0.61;-10.62;0.48;0.4;0.91
1753879333.817598;-2.118;2.826;-0.154;-3.0;-0.44;-126.52;0.0;0.0;0.0;0.0;-4.0;-5.0;-9.0;-10.0;-0.11;0.61;-10.65;0.63;0.45;0.76
1753879333.822599;-2.118;2.826;-0.154;-3.0;-0.44;-126.52;0.0;0.0;0.0;0.0;-4.0;-5.0;-9.0;-10.0;-0.12;0.61;-10.65;0.58;0.42;0.9
1753879333.827599;-2.118;2.826;-0.154;-3.0;-0.44;-126.52;0.0;0.0;0.0;0.0;-4.0;-5.0;-9.0;-10.0;-0.12;0.62;-10.64;0.62;0.32;0.81
1753879333.832599;-2.118;2.826;-0.154;-3.0;-0.44;-126.52;0.0;0.0;0.0;0.0;-4.0;-5.0;-9.0;-10.0;-0.12;0.61;-10.66;0.54;0.39;0.96
1753879333.837599;-2.118;2.826;-0.154;-3.0;-0.44;-126.52;0.0;0.0;0.0;0.0;-4.0;-5.0;-9.0;-10.0;-0.12;0.61;-10.66;0.61;0.46;0.97
1753879333.842599;-2.118;2.826;-0.154;-3.0;-0.44;-126.52;0.0;0.0;0.0;0.0;-4.0;-5.0;-9.0;-10.0;-0.12;0.61;-10.65;0.69;0.37;0.77
1753879333.847599;-2.118;2.826;-0.154;-3.0;-0.44;-126.52;0.0;0.0;0.0;0.0;-4.0;-5.0;-9.0;-10.0;-0.12;0.61;-10.67;0.68;0.42;0.81
1753879333.8526;-2.118;2.826;-0.154;-3.0;-0.44;-126.52;0.0;0.0;0.0;0.0;-4.0;-5.0;-9.0;-10.0;-0.11;0.61;-10.66;0.61;0.36;0.9
1753879333.857598;-2.118;2.826;-0.154;-3.0;-0.44;-126.52;0.0;0.0;0.0;0.0;-4.0;-5.0;-9.0;-10.0;-0.12;0.62;-10.66;0.64;0.37;0.81
1753879333.862598;-2.118;2.826;-0.154;-3.0;-0.44;-126.52;0.0;0.0;0.0;0.0;-3.5;-5.2;-9.0;-14.4;-0.12;0.62;-10.66;0.73;0.31;0.85
1753879333.867598;-2.118;2.826;-0.154;-3.0;-0.44;-126.52;0.0;0.0;0.0;0.0;-3.9;-5.2;-9.0;-13.7;-0.12;0.61;-10.67;0.69;0.41;0.63
1753879333.872598;-2.118;2.826;-0.154;-3.0;-0.44;-126.52;0.0;0.0;0.0;0.0;-3.7;-4.6;-9.0;-3.8;-0.12;0.62;-10.65;0.59;0.45;0.74
1753879333.877598;-2.118;2.826;-0.154;-3.0;-0.44;-126.52;0.0;0.0;0.0;0.0;-3.9;-4.5;-9.0;-11.3;-0.12;0.63;-10.63;0.6;0.5;0.89
1753879333.882598;-2.118;2.826;-0.154;-3.0;-0.44;-126.52;0.0;0.0;0.0;0.0;-3.6;-4.8;-9.0;-6.9;-0.11;0.62;-10.62;0.61;0.52;0.74
1753879333.887598;-2.118;2.826;-0.154;-3.0;-0.44;-126.52;0.0;0.0;0.0;0.0;-3.5;-3.7;-9.0;-5.1;-0.11;0.62;-10.66;0.7;0.29;0.8
1753879333.892599;-2.118;2.826;-0.154;-3.0;-0.45;-126.52;0.0;0.0;0.0;0.0;-3.9;-5.0;-9.0;0.1;-0.12;0.63;-10.65;0.63;0.18;0.98
1753879333.897599;-2.118;2.826;-0.154;-3.01;-0.44;-126.52;0.0;0.0;0.0;0.0;-3.1;-4.1;-9.0;0.2;-0.11;0.62;-10.64;0.6;0.36;1.07
1753879333.902599;-2.118;2.826;-0.154;-3.0;-0.44;-126.52;0.0;0.0;0.0;0.0;-3.5;-3.6;-9.0;-3.0;-0.12;0.61;-10.64;0.68;0.47;0.76
1753879333.907599;-2.118;2.826;-0.154;-3.01;-0.45;-126.52;0.0;0.0;0.0;0.0;-3.5;-3.8;-9.0;4.9;-0.11;0.62;-10.64;0.53;0.48;0.69
1753879333.912599;-2.118;2.826;-0.154;-3.01;-0.45;-126.52;0.0;0.0;0.0;0.0;-3.4;-2.9;-9.0;1.3;-0.12;0.64;-10.65;0.78;0.35;0.87
1753879333.917599;-2.118;2.826;-0.154;-3.01;-0.45;-126.52;0.0;0.0;0.0;0.0;-2.9;-4.0;-9.0;-0.0;-0.12;0.62;-10.63;0.63;0.25;0.91
1753879333.922599;-2.118;2.826;-0.154;-3.01;-0.45;-126.52;0.0;0.0;0.0;0.0;-3.5;-3.4;-9.0;7.4;-0.12;0.62;-10.65;0.64;0.38;0.87
1753879333.9276;-2.118;2.826;-0.154;-3.01;-0.45;-126.52;0.0;0.0;0.0;0.0;-3.4;-3.7;-9.0;-0.5;-0.12;0.63;-10.63;0.67;0.3;0.76
1753879333.9326;-2.118;2.826;-0.154;-3.01;-0.45;-126.52;0.0;0.0;0.0;0.0;-2.9;-3.5;-9.0;-1.9;-0.11;0.63;-10.64;0.65;0.27;0.84
1753879333.9376;-2.118;2.826;-0.154;-3.01;-0.45;-126.52;0.0;0.0;0.0;0.0;-3.0;-3.2;-9.0;2.8;-0.1;0.62;-10.61;0.74;0.52;0.78
1753879333.942598;-2.118;2.826;-0.154;-3.01;-0.45;-126.52;0.0;0.0;0.0;0.0;-3.0;-3.0;-9.0;7.0;-0.11;0.62;-10.63;0.62;0.33;0.83
1753879333.947598;-2.118;2.826;-0.154;-3.01;-0.45;-126.52;0.0;0.0;0.0;0.0;-3.0;-3.0;-9.0;7.0;-0.12;0.62;-10.63;0.56;0.26;0.77
1753879333.952598;-2.118;2.826;-0.154;-3.01;-0.45;-126.52;0.0;0.0;0.0;0.0;-3.0;-3.0;-9.0;7.0;-0.12;0.62;-10.63;0.57;0.24;0.83
1753879333.957598;-2.118;2.826;-0.154;-3.01;-0.45;-126.52;0.0;0.0;0.0;0.0;-3.0;-3.0;-9.0;7.0;-0.12;0.62;-10.63;0.54;0.28;0.96
1753879333.962598;-2.118;2.826;-0.154;-3.01;-0.45;-126.52;0.0;0.0;0.0;0.0;-4.0;-3.0;-3.5;-1.5;-0.12;0.62;-10.64;0.54;0.37;1.15
1753879333.967598;-2.118;2.826;-0.154;-3.0;-0.46;-126.52;0.0;0.0;0.0;0.0;-2.9;-3.6;-8.4;11.0;-0.12;0.61;-10.66;0.66;0.29;1.14
1753879333.972598;-2.118;2.826;-0.154;-3.01;-0.45;-126.52;0.0;0.0;0.0;0.0;-2.9;-2.2;-7.1;4.6;-0.12;0.62;-10.64;0.54;0.37;1.18
1753879333.977598;-2.118;2.826;-0.154;-3.01;-0.45;-126.52;0.0;0.0;0.0;0.0;-2.6;-2.2;5.3;-1.8;-0.12;0.63;-10.64;0.5;0.13;1.08
1753879333.982598;-2.118;2.826;-0.154;-3.01;-0.45;-126.52;0.0;0.0;0.0;0.0;-2.6;-4.2;-2.8;2.8;-0.12;0.63;-10.64;0.56;0.42;0.84
1753879333.987599;-2.118;2.826;-0.154;-3.01;-0.44;-126.52;0.0;0.0;0.0;0.0;-3.7;-1.8;-12.2;10.2;-0.11;0.62;-10.65;0.37;0.15;1.02
1753879333.992599;-2.118;2.826;-0.154;-3.0;-0.45;-126.52;0.0;0.0;0.0;0.0;-2.1;-4.7;-9.3;3.9;-0.11;0.63;-10.65;0.59;0.26;0.97
1753879333.997599;-2.118;2.826;-0.154;-3.01;-0.45;-126.52;0.0;0.0;0.0;0.0;-3.0;-2.5;-4.8;22.4;-0.12;0.62;-10.61;0.61;0.21;0.94
1753879334.002599;-2.118;2.826;-0.154;-3.01;-0.45;-126.52;0.0;0.0;0.0;0.0;-3.3;-2.4;3.8;20.4;-0.12;0.62;-10.65;0.53;0.4;1.14
1753879334.007599;-2.118;2.826;-0.154;-3.02;-0.45;-126.52;0.0;0.0;0.0;0.0;-3.2;-2.3;3.5;12.7;-0.12;0.62;-10.64;0.56;0.25;0.91
1753879334.012599;-2.118;2.826;-0.154;-3.01;-0.46;-126.52;0.0;0.0;0.0;0.0;-2.2;-1.7;-0.5;16.3;-0.12;0.61;-10.65;0.62;0.15;0.78
1753879334.017599;-2.118;2.826;-0.154;-3.01;-0.45;-126.52;0.0;0.0;0.0;0.0;-3.2;-2.3;-2.5;2.4;-0.11;0.64;-10.63;0.49;0.38;1.09
1753879334.0226;-2.118;2.826;-0.154;-3.02;-0.46;-126.52;0.0;0.0;0.0;0.0;-2.8;-0.5;-3.0;14.0;-0.11;0.62;-10.65;0.52;0.21;0.89
1753879334.0276;-2.118;2.826;-0.154;-3.01;-0.44;-126.52;0.0;0.0;0.0;0.0;-3.0;-3.5;10.3;-2.2;-0.12;0.62;-10.66;0.56;0.4;0.89
1753879334.0326;-2.118;2.826;-0.154;-3.01;-0.45;-126.52;0.0;0.0;0.0;0.0;-2.6;-1.7;-3.2;33.3;-0.11;0.62;-10.68;0.58;0.38;0.88
1753879334.0376;-2.118;2.826;-0.154;-3.01;-0.45;-126.52;0.0;0.0;0.0;0.0;-3.3;-1.8;2.5;1.2;-0.12;0.61;-10.64;0.6;0.26;0.94
1753879334.0426;-2.118;2.826;-0.154;-3.01;-0.44;-126.52;0.0;0.0;0.0;0.0;-1.4;-0.2;10.5;17.3;-0.12;0.62;-10.67;0.61;0.28;1.11
1753879334.0476;-2.118;2.826;-0.154;-3.01;-0.46;-126.52;0.0;0.0;0.0;0.0;-2.6;-1.9;1.0;18.2;-0.12;0.62;-10.66;0.58;0.47;0.99
1753879334.0526;-2.118;2.826;-0.154;-3.01;-0.45;-126.52;0.0;0.0;0.0;0.0;-2.0;-1.6;12.5;2.5;-0.12;0.62;-10.63;0.56;0.45;0.99
1753879334.0576;-2.118;2.826;-0.154;-3.01;-0.45;-126.52;0.0;0.0;0.0;0.0;-2.0;-2.1;4.6;12.8;-0.12;0.63;-10.65;0.55;0.36;1.04
1753879334.0626;-2.118;2.826;-0.154;-3.01;-0.45;-126.52;0.0;0.0;0.0;0.0;-2.1;-0.8;5.8;24.2;-0.11;0.62;-10.67;0.5;0.33;1.01
1753879334.0676;-2.118;2.826;-0.154;-3.01;-0.45;-126.52;0.0;0.0;0.0;0.0;-3.0;-0.7;0.5;20.8;-0.11;0.61;-10.66;0.61;0.3;0.92
1753879334.0726;-2.118;2.826;-0.154;-3.01;-0.45;-126.52;0.0;0.0;0.0;0.0;-1.5;-2.2;8.3;14.1;-0.11;0.62;-10.66;0.49;0.26;1.16
1753879334.077601;-2.118;2.826;-0.154;-3.0;-0.45;-126.52;0.0;0.0;0.0;0.0;-2.8;-1.6;10.6;10.3;-0.11;0.62;-10.62;0.49;0.46;1.01
1753879334.082601;-2.118;2.826;-0.154;-3.01;-0.45;-126.52;0.0;0.0;0.0;0.0;-2.0;0.3;11.7;20.3;-0.12;0.63;-10.66;0.64;0.35;0.85
1753879334.087601;-2.118;2.826;-0.154;-3.0;-0.45;-126.52;0.0;0.0;0.0;0.0;-2.3;0.4;9.8;24.8;-0.11;0.63;-10.68;0.56;0.27;0.87
1753879334.092601;-2.118;2.826;-0.154;-3.01;-0.44;-126.52;0.0;0.0;0.0;0.0;-1.7;-1.6;15.0;17.0;-0.11;0.62;-10.67;0.51;0.26;0.89
1753879334.097598;-2.118;2.826;-0.154;-3.01;-0.45;-126.52;0.0;0.0;0.0;0.0;-2.0;-1.0;11.0;13.0;-0.11;0.62;-10.66;0.58;0.33;0.93
1753879334.102598;-2.118;2.826;-0.154;-3.01;-0.45;-126.52;0.0;0.0;0.0;0.0;-2.0;-1.0;11.0;13.0;-0.12;0.62;-10.67;0.49;0.32;0.91
1753879334.107598;-2.118;2.826;-0.154;-3.01;-0.45;-126.52;0.0;0.0;0.0;0.0;-3.0;-0.9;2.7;22.7;-0.13;0.63;-10.68;0.65;0.24;0.66
1753879334.112598;-2.118;2.826;-0.154;-3.01;-0.45;-126.52;0.0;0.0;0.0;0.0;-2.0;-1.0;11.0;13.0;-0.12;0.61;-10.66;0.64;0.36;0.78
1753879334.117598;-2.118;2.826;-0.154;-3.01;-0.45;-126.52;0.0;0.0;0.0;0.0;-2.0;-1.0;11.0;13.0;-0.12;0.61;-10.66;0.57;0.19;0.98
1753879334.122598;-2.118;2.826;-0.154;-3.01;-0.45;-126.52;0.0;0.0;0.0;0.0;-3.1;-3.4;17.1;27.1;-0.12;0.62;-10.65;0.57;0.2;1.18
1753879334.127598;-2.118;2.826;-0.154;-3.0;-0.45;-126.52;0.0;0.0;0.0;0.0;-4.1;-1.8;-5.8;28.8;-0.12;0.61;-10.67;0.47;0.18;0.81
1753879334.132598;-2.118;2.826;-0.154;-3.01;-0.45;-126.52;0.0;0.0;0.0;0.0;-3.5;1.2;3.6;-12.7;-0.12;0.62;-10.67;0.59;0.21;1.02
1753879334.137598;-2.118;2.826;-0.154;-3.01;-0.44;-126.52;0.0;0.0;0.0;0.0;-2.1;0.6;3.6;27.3;-0.12;0.62;-10.65;0.58;0.26;0.97
1753879334.142598;-2.118;2.826;-0.154;-3.02;-0.45;-126.52;0.0;0.0;0.0;0.0;-1.7;0.2;5.7;-7.6;-0.13;0.61;-10.64;0.6;0.24;1.15
1753879334.147598;-2.118;2.826;-0.154;-3.02;-0.46;-126.52;0.0;0.0;0.0;0.0;-2.9;-3.0;13.5;29.1;-0.12;0.6;-10.67;0.51;0.25;0.9
1753879334.152598;-2.118;2.826;-0.154;-3.01;-0.45;-126.52;0.0;0.0;0.0;0.0;-2.0;0.5;12.2;23.3;-0.11;0.6;-10.66;0.48;0.18;0.93
1753879334.157599;-2.118;2.826;-0.154;-3.02;-0.45;-126.52;0.0;0.0;0.0;0.0;-3.2;-2.7;20.1;4.7;-0.12;0.61;-10.66;0.59;0.3;0.96
1753879334.162599;-2.118;2.826;-0.154;-3.01;-0.45;-126.52;0.0;0.0;0.0;0.0;-3.8;2.8;8.7;25.2;-0.12;0.61;-10.64;0.66;0.22;0.99
1753879334.167599;-2.118;2.826;-0.154;-3.01;-0.46;-126.52;0.0;0.0;0.0;0.0;-1.9;2.0;7.2;15.6;-0.12;0.61;-10.64;0.61;0.24;0.97
1753879334.172599;-2.118;2.826;-0.154;-3.0;-0.45;-126.52;0.0;0.0;0.0;0.0;0.1;-0.7;-0.3;15.3;-0.12;0.61;-10.67;0.52;0.24;0.86
1753879334.177599;-2.118;2.826;-0.154;-3.0;-0.45;-126.52;0.0;0.0;0.0;0.0;-2.1;-0.6;19.1;21.8;-0.12;0.6;-10.67;0.55;0.17;1.03
1753879334.182599;-2.118;2.826;-0.154;-3.02;-0.44;-126.52;0.0;0.0;0.0;0.0;-0.6;-2.2;26.2;26.2;-0.11;0.61;-10.69;0.57;0.12;1.01
1753879334.1876;-2.118;2.826;-0.154;-3.01;-0.44;-126.52;0.0;0.0;0.0;0.0;-3.2;-1.6;10.1;0.9;-0.12;0.6;-10.65;0.6;0.2;1.07
1753879334.1926;-2.118;2.826;-0.154;-3.0;-0.45;-126.52;0.0;0.0;0.0;0.0;-2.0;-4.1;17.5;-4.7;-0.11;0.62;-10.67;0.54;0.24;0.91
1753879334.1976;-2.118;2.826;-0.154;-3.0;-0.45;-126.52;0.0;0.0;0.0;0.0;-1.6;-0.5;10.3;40.3;-0.11;0.62;-10.68;0.55;0.19;0.91
1753879334.2026;-2.118;2.826;-0.154;-3.01;-0.45;-126.52;0.0;0.0;0.0;0.0;-1.9;0.1;0.2;15.0;-0.12;0.6;-10.66;0.58;0.28;0.98
1753879334.2076;-2.118;2.826;-0.154;-3.02;-0.45;-126.52;0.0;0.0;0.0;0.0;-2.3;-1.8;14.5;-2.5;-0.12;0.61;-10.67;0.62;0.22;0.98
1753879334.2126;-2.118;2.826;-0.154;-3.01;-0.45;-126.52;0.0;0.0;0.0;0.0;-1.4;-3.4;12.2;5.6;-0.11;0.61;-10.67;0.54;0.16;0.91
1753879334.2176;-2.118;2.826;-0.154;-3.01;-0.45;-126.52;0.0;0.0;0.0;0.0;-1.8;-2.2;-1.7;17.4;-0.11;0.61;-10.67;0.5;0.33;0.9
1753879334.2226;-2.118;2.826;-0.154;-3.01;-0.45;-126.52;0.0;0.0;0.0;0.0;-1.5;-1.7;23.9;8.6;-0.11;0.62;-10.66;0.57;0.31;0.82
1753879334.2276;-2.118;2.826;-0.154;-3.01;-0.45;-126.52;0.0;0.0;0.0;0.0;-1.6;-1.7;11.9;-13.2;-0.11;0.62;-10.69;0.53;0.27;1.11
1753879334.2326;-2.118;2.826;-0.154;-3.01;-0.45;-126.52;0.0;0.0;0.0;0.0;-0.9;1.1;3.2;2.2;-0.11;0.61;-10.66;0.63;0.37;0.95
1753879334.2376;-2.118;2.826;-0.154;-3.01;-0.45;-126.52;0.0;0.0;0.0;0.0;-2.3;0.7;6.5;3.1;-0.12;0.62;-10.65;0.54;0.33;0.88
1753879334.242601;-2.118;2.826;-0.154;-3.01;-0.45;-126.52;0.0;0.0;0.0;0.0;-2.5;3.1;16.0;3.1;-0.11;0.61;-10.69;0.51;0.36;0.93
1753879334.247601;-2.118;2.826;-0.154;-3.02;-0.45;-126.52;0.0;0.0;0.0;0.0;-0.8;-1.3;23.2;10.8;-0.11;0.61;-10.66;0.58;0.44;0.99
1753879334.252601;-2.118;2.826;-0.154;-3.01;-0.45;-126.52;0.0;0.0;0.0;0.0;-1.3;-1.8;-2.7;13.9;-0.11;0.61;-10.66;0.54;0.29;0.92
1753879334.257601;-2.118;2.826;-0.154;-3.01;-0.44;-126.52;0.0;0.0;0.0;0.0;-1.8;-1.9;17.4;9.2;-0.11;0.6;-10.65;0.51;0.35;0.93
1753879334.262601;-2.118;2.826;-0.154;-3.01;-0.45;-126.52;0.0;0.0;0.0;0.0;-1.1;-0.2;-3.6;15.2;-0.11;0.61;-10.65;0.6;0.42;0.96
1753879334.267601;-2.118;2.826;-0.154;-3.01;-0.46;-126.52;0.0;0.0;0.0;0.0;-1.7;-4.1;1.8;4.2;-0.12;0.61;-10.64;0.56;0.36;0.98
1753879334.272601;-2.118;2.826;-0.154;-3.01;-0.46;-126.52;0.0;0.0;0.0;0.0;-3.1;0.0;7.4;-7.0;-0.12;0.61;-10.67;0.61;0.46;1.14
1753879334.277602;-2.118;2.826;-0.154;-3.01;-0.45;-126.52;0.0;0.0;0.0;0.0;-2.1;-2.6;0.3;12.0;-0.11;0.61;-10.62;0.54;0.43;1.05
1753879334.282598;-2.118;2.826;-0.154;-3.01;-0.45;-126.52;0.0;0.0;0.0;0.0;-2.0;-1.0;11.0;13.0;-0.11;0.61;-10.66;0.6;0.38;0.95
1753879334.287598;-2.118;2.826;-0.154;-3.01;-0.45;-126.52;0.0;0.0;0.0;0.0;-0.2;-0.7;3.9;16.4;-0.11;0.62;-10.67;0.74;0.42;0.96
1753879334.292598;-2.118;2.826;-0.154;-3.01;-0.45;-126.52;0.0;0.0;0.0;0.0;-2.0;-1.0;11.0;13.0;-0.11;0.62;-10.66;0.54;0.33;0.83
1753879334.297598;-2.118;2.826;-0.154;-3.02;-0.46;-126.52;0.0;0.0;0.0;0.0;-2.2;-0.5;28.1;-10.3;-0.11;0.61;-10.65;0.62;0.35;1.03
1753879334.302598;-2.118;2.826;-0.154;-3.01;-0.45;-126.52;0.0;0.0;0.0;0.0;-2.0;-1.0;11.0;13.0;-0.11;0.61;-10.65;0.74;0.45;0.85
1753879334.307598;-2.118;2.826;-0.154;-3.01;-0.46;-126.52;0.0;0.0;0.0;0.0;-1.4;-4.0;4.9;36.7;-0.12;0.6;-10.65;0.68;0.35;0.94
1753879334.312598;-2.118;2.826;-0.154;-3.01;-0.45;-126.52;0.0;0.0;0.0;0.0;-2.0;-1.0;11.0;13.0;-0.12;0.61;-10.65;0.64;0.31;0.97
1753879334.317598;-2.118;2.826;-0.154;-3.01;-0.46;-126.52;0.0;0.0;0.0;0.0;-1.7;-1.8;-4.2;25.2;-0.12;0.6;-10.65;0.72;0.36;0.79
1753879334.322598;-2.118;2.826;-0.154;-3.01;-0.45;-126.52;0.0;0.0;0.0;0.0;-2.0;-1.0;11.0;13.0;-0.12;0.6;-10.65;0.67;0.39;0.85
1753879334.327598;-2.118;2.826;-0.154;-3.01;-0.45;-126.52;0.0;0.0;0.0;0.0;-2.8;-3.7;23.3;16.4;-0.11;0.6;-10.66;0.68;0.35;0.6
1753879334.332598;-2.118;2.826;-0.154;-3.01;-0.45;-126.52;0.0;0.0;0.0;0.0;-2.0;-1.0;11.0;13.0;-0.11;0.6;-10.66;0.64;0.28;0.77
1753879334.337598;-2.118;2.826;-0.154;-3.01;-0.45;-126.52;0.0;0.0;0.0;0.0;-1.0;-3.4;7.2;18.5;-0.11;0.61;-10.66;0.61;0.31;0.81
1753879334.342598;-2.118;2.826;-0.154;-3.01;-0.45;-126.52;0.0;0.0;0.0;0.0;-2.0;-1.0;11.0;13.0;-0.1;0.6;-10.66;0.5;0.42;0.86
1753879334.347598;-2.118;2.826;-0.154;-3.0;-0.45;-126.52;0.0;0.0;0.0;0.0;-0.5;-1.0;1.4;-2.8;-0.11;0.62;-10.65;0.56;0.28;0.75
1753879334.352598;-2.118;2.826;-0.154;-3.01;-0.45;-126.52;0.0;0.0;0.0;0.0;-2.0;-1.0;11.0;13.0;-0.11;0.61;-10.66;0.69;0.27;0.86
1753879334.357598;-2.118;2.826;-0.154;-3.01;-0.44;-126.52;0.0;0.0;0.0;0.0;-2.6;0.2;23.8;6.6;-0.11;0.6;-10.67;0.67;0.43;0.85
1753879334.362598;-2.118;2.826;-0.154;-3.01;-0.45;-126.52;0.0;0.0;0.0;0.0;-2.0;-1.0;11.0;13.0;-0.11;0.61;-10.65;0.63;0.37;0.94
1753879334.367598;-2.118;2.826;-0.154;-3.01;-0.45;-126.52;0.0;0.0;0.0;0.0;-2.3;-0.6;9.9;6.6;-0.12;0.59;-10.66;0.58;0.42;0.9
1753879334.372598;-2.118;2.826;-0.154;-3.01;-0.45;-126.52;0.0;0.0;0.0;0.0;-2.0;-1.0;11.0;13.0;-0.11;0.61;-10.65;0.57;0.51;0.85
1753879334.377598;-2.118;2.826;-0.154;-3.01;-0.45;-126.52;0.0;0.0;0.0;0.0;-2.3;-1.7;5.9;11.6;-0.1;0.62;-10.63;0.72;0.41;0.96
1753879334.382598;-2.118;2.826;-0.154;-3.01;-0.45;-126.52;0.0;0.0;0.0;0.0;-2.0;-1.0;11.0;13.0;-0.1;0.61;-10.63;0.66;0.42;0.87
1753879334.387598;-2.118;2.826;-0.154;-3.01;-0.45;-126.52;0.0;0.0;0.0;0.0;-1.6;-0.3;12.8;12.5;-0.1;0.62;-10.64;0.5;0.37;0.96
1753879334.392598;-2.118;2.826;-0.154;-3.01;-0.45;-126.52;0.0;0.0;0.0;0.0;-2.0;-1.0;11.0;13.0;-0.11;0.62;-10.62;0.66;0.4;1.03
1753879334.397598;-2.118;2.826;-0.154;-3.01;-0.45;-126.52;0.0;0.0;0.0;0.0;-2.0;-1.8;-5.3;10.6;-0.11;0.62;-10.61;0.62;0.23;0.96
1753879334.402598;-2.118;2.826;-0.154;-3.01;-0.45;-126.52;0.0;0.0;0.0;0.0;-2.0;-1.0;11.0;13.0;-0.11;0.61;-10.63;0.56;0.28;0.85
1753879334.407598;-2.118;2.826;-0.154;-3.01;-0.45;-126.52;0.0;0.0;0.0;0.0;-2.0;-0.2;15.4;16.5;-0.1;0.62;-10.64;0.71;0.23;0.86
1753879334.412598;-2.118;2.826;-0.154;-3.01;-0.45;-126.52;0.0;0.0;0.0;0.0;-2.0;-1.0;11.0;13.0;-0.11;0.61;-10.63;0.75;0.34;0.89
1753879334.417598;-2.118;2.826;-0.154;-3.01;-0.45;-126.52;0.0;0.0;0.0;0.0;-2.2;-1.5;7.8;12.7;-0.09;0.62;-10.65;0.66;0.31;0.81
1753879334.422598;-2.118;2.826;-0.154;-3.01;-0.45;-126.52;0.0;0.0;0.0;0.0;-2.0;-1.0;11.0;13.0;-0.1;0.62;-10.64;0.62;0.3;0.93
1753879334.427598;-2.118;2.826;-0.154;-3.01;-0.45;-126.52;0.0;0.0;0.0;0.0;-2.0;-1.0;11.0;13.0;-0.11;0.61;-10.63;0.55;0.33;0.98
1753879334.432598;-2.118;2.826;-0.154;-3.01;-0.45;-126.52;0.0;0.0;0.0;0.0;-2.0;-1.0;11.0;13.0;-0.11;0.61;-10.65;0.62;0.26;0.91
1753879334.437598;-2.118;2.826;-0.154;-3.01;-0.45;-126.52;0.0;0.0;0.0;0.0;-2.0;-1.0;11.0;13.0;-0.09;0.62;-10.66;0.68;0.25;0.84
1753879334.442598;-2.118;2.826;-0.154;-3.01;-0.45;-126.52;0.0;0.0;0.0;0.0;-2.0;-1.0;11.0;13.0;-0.1;0.62;-10.66;0.69;0.26;0.76
1753879334.447598;-2.118;2.826;-0.154;-3.01;-0.45;-126.52;0.0;0.0;0.0;0.0;-2.0;-1.0;11.0;13.0;-0.1;0.62;-10.64;0.71;0.34;0.86
1753879334.452598;-2.118;2.826;-0.154;-3.01;-0.45;-126.52;0.0;0.0;0.0;0.0;-2.0;-1.0;11.0;13.0;-0.11;0.62;-10.66;0.68;0.21;0.79
1753879334.457598;-2.118;2.826;-0.154;-3.01;-0.45;-126.52;0.0;0.0;0.0;0.0;-2.0;-1.0;11.0;13.0;-0.1;0.62;-10.65;0.69;0.26;0.9
1753879334.462598;-2.118;2.826;-0.154;-3.01;-0.45;-126.52;0.0;0.0;0.0;0.0;-2.0;-1.0;11.0;13.0;-0.11;0.63;-10.65;0.67;0.38;0.91
1753879334.467598;-2.118;2.826;-0.154;-3.01;-0.45;-126.52;0.0;0.0;0.0;0.0;-2.0;-1.0;11.0;13.0;-0.1;0.62;-10.66;0.61;0.4;1.01
1753879334.472598;-2.118;2.826;-0.154;-3.01;-0.45;-126.52;0.0;0.0;0.0;0.0;-2.0;-1.0;11.0;13.0;-0.11;0.62;-10.66;0.66;0.21;0.9
1753879334.477598;-2.118;2.826;-0.154;-3.01;-0.45;-126.52;0.0;0.0;0.0;0.0;-2.0;-1.0;11.0;13.0;-0.11;0.62;-10.65;0.57;0.31;0.84
1753879334.482598;-2.118;2.826;-0.154;-3.01;-0.45;-126.52;0.0;0.0;0.0;0.0;-2.0;-1.0;11.0;13.0;-0.11;0.62;-10.65;0.58;0.38;0.93
1753879334.487598;-2.118;2.826;-0.154;-3.01;-0.45;-126.52;0.0;0.0;0.0;0.0;-2.0;-1.0;11.0;13.0;-0.1;0.62;-10.65;0.54;0.34;0.8
1753879334.492598;-2.118;2.826;-0.154;-3.01;-0.45;-126.52;0.0;0.0;0.0;0.0;-2.0;-1.0;11.0;13.0;-0.11;0.62;-10.65;0.69;0.35;0.87
1753879334.497598;-2.118;2.826;-0.154;-3.01;-0.45;-126.52;0.0;0.0;0.0;0.0;-2.0;-1.0;11.0;13.0;-0.11;0.62;-10.65;0.74;0.13;0.86
1753879334.502598;-2.118;2.826;-0.154;-3.01;-0.45;-126.52;0.0;0.0;0.0;0.0;-2.0;-1.0;11.0;13.0;-0.1;0.62;-10.65;0.61;0.28;0.9
1753879334.507598;-2.118;2.826;-0.154;-3.01;-0.45;-126.52;0.0;0.0;0.0;0.0;-2.0;-1.0;11.0;13.0;-0.1;0.61;-10.63;0.67;0.37;1.07
1753879334.512598;-2.118;2.826;-0.154;-3.01;-0.45;-126.52;0.0;0.0;0.0;0.0;-2.0;-1.0;11.0;13.0;-0.1;0.61;-10.64;0.65;0.32;0.89
1753879334.517598;-2.118;2.826;-0.154;-3.01;-0.45;-126.52;0.0;0.0;0.0;0.0;-2.0;-1.0;11.0;13.0;-0.11;0.61;-10.64;0.54;0.32;0.99
1753879334.522598;-2.118;2.826;-0.154;-3.01;-0.45;-126.52;0.0;0.0;0.0;0.0;-2.0;-1.0;11.0;13.0;-0.11;0.61;-10.64;0.7;0.32;0.8
1753879334.527598;-2.118;2.826;-0.154;-3.01;-0.45;-126.52;0.0;0.0;0.0;0.0;-2.0;-1.0;11.0;13.0;-0.11;0.61;-10.64;0.66;0.39;0.94
1753879334.532598;-2.118;2.826;-0.154;-3.01;-0.45;-126.52;0.0;0.0;0.0;0.0;-2.0;-1.0;11.0;13.0;-0.11;0.61;-10.63;0.71;0.3;0.92
1753879334.537598;-2.118;2.826;-0.154;-3.01;-0.45;-126.52;0.0;0.0;0.0;0.0;-2.0;-1.0;11.0;13.0;-0.1;0.61;-10.63;0.73;0.36;0.93
1753879334.542598;-2.118;2.826;-0.154;-3.01;-0.45;-126.52;0.0;0.0;0.0;0.0;-2.0;-1.0;11.0;13.0;-0.11;0.62;-10.63;0.62;0.41;0.84
1753879334.547598;-2.118;2.826;-0.154;-3.01;-0.45;-126.52;0.0;0.0;0.0;0.0;-2.0;-1.0;11.0;13.0;-0.1;0.62;-10.63;0.64;0.36;0.83
1753879334.552598;-2.118;2.826;-0.154;-3.01;-0.45;-126.52;0.0;0.0;0.0;0.0;-2.0;-1.0;11.0;13.0;-0.11;0.62;-10.63;0.6;0.37;0.77
1753879334.557598;-2.118;2.826;-0.154;-3.01;-0.45;-126.52;0.0;0.0;0.0;0.0;-2.0;-1.0;11.0;13.0;-0.11;0.61;-10.64;0.61;0.35;0.77
1753879334.562598;-2.118;2.826;-0.154;-3.01;-0.45;-126.52;0.0;0.0;0.0;0.0;-2.0;-1.0;11.0;13.0;-0.11;0.62;-10.64;0.74;0.28;0.82
1753879334.567598;-2.118;2.826;-0.154;-3.01;-0.45;-126.52;0.0;0.0;0.0;0.0;-2.0;-1.0;11.0;13.0;-0.11;0.62;-10.64;0.61;0.3;0.83
1753879334.572598;-2.118;2.826;-0.154;-3.01;-0.45;-126.52;0.0;0.0;0.0;0.0;-2.0;-1.0;11.0;13.0;-0.1;0.62;-10.64;0.59;0.22;0.98
1753879334.577598;-2.118;2.826;-0.154;-3.01;-0.45;-126.52;0.0;0.0;0.0;0.0;-2.0;-1.0;11.0;13.0;-0.1;0.61;-10.64;0.57;0.17;1.01
1753879334.582598;-2.118;2.826;-0.154;-3.01;-0.45;-126.52;0.0;0.0;0.0;0.0;-2.0;-1.0;11.0;13.0;-0.1;0.62;-10.64;0.72;0.39;0.93
1753879334.587598;-2.118;2.826;-0.154;-3.01;-0.45;-126.52;0.0;0.0;0.0;0.0;-2.0;-1.0;11.0;13.0;-0.1;0.62;-10.64;0.6;0.34;0.96
1753879334.592598;-2.118;2.826;-0.154;-3.01;-0.45;-126.52;0.0;0.0;0.0;0.0;-2.0;-1.0;11.0;13.0;-0.1;0.62;-10.65;0.61;0.36;0.95
1753879334.597598;-2.118;2.826;-0.154;-3.01;-0.45;-126.52;0.0;0.0;0.0;0.0;-2.0;-1.0;11.0;13.0;-0.1;0.62;-10.65;0.64;0.25;0.95
1753879334.602598;-2.118;2.826;-0.154;-3.01;-0.45;-126.52;0.0;0.0;0.0;0.0;-2.0;-1.0;11.0;13.0;-0.1;0.61;-10.66;0.58;0.35;0.82
1753879334.607598;-2.118;2.826;-0.154;-3.01;-0.45;-126.52;0.0;0.0;0.0;0.0;-2.0;-1.0;11.0;13.0;-0.1;0.61;-10.66;0.71;0.32;0.7
1753879334.612598;-2.118;2.826;-0.154;-3.01;-0.45;-126.52;0.0;0.0;0.0;0.0;-2.0;-1.0;11.0;13.0;-0.1;0.62;-10.65;0.51;0.3;0.79
1753879334.617598;-2.118;2.826;-0.154;-3.01;-0.45;-126.52;0.0;0.0;0.0;0.0;-2.0;-1.0;11.0;13.0;-0.11;0.61;-10.65;0.58;0.39;0.83
1753879334.622598;-2.118;2.826;-0.154;-3.01;-0.45;-126.52;0.0;0.0;0.0;0.0;-2.0;-1.0;11.0;13.0;-0.12;0.61;-10.66;0.51;0.51;0.9
1753879334.627598;-2.118;2.826;-0.154;-3.01;-0.45;-126.52;0.0;0.0;0.0;0.0;-2.0;-1.0;11.0;13.0;-0.12;0.61;-10.65;0.77;0.31;0.88
1753879334.632598;-2.118;2.826;-0.154;-3.01;-0.45;-126.52;0.0;0.0;0.0;0.0;-2.0;-1.0;11.0;13.0;-0.12;0.62;-10.65;0.75;0.26;0.83
1753879334.637598;-2.118;2.826;-0.154;-3.01;-0.45;-126.52;0.0;0.0;0.0;0.0;-2.0;-1.0;11.0;13.0;-0.12;0.61;-10.65;0.69;0.41;0.83
1753879334.642598;-2.118;2.826;-0.154;-3.01;-0.45;-126.52;0.0;0.0;0.0;0.0;-2.0;-1.0;11.0;13.0;-0.13;0.61;-10.65;0.7;0.42;0.83
1753879334.647598;-2.118;2.826;-0.154;-3.01;-0.45;-126.52;0.0;0.0;0.0;0.0;-2.0;-1.0;11.0;13.0;-0.13;0.61;-10.65;0.64;0.33;0.95
1753879334.652598;-2.118;2.826;-0.154;-3.01;-0.45;-126.52;0.0;0.0;0.0;0.0;-2.0;-1.0;11.0;13.0;-0.13;0.6;-10.64;0.65;0.37;0.96
1753879334.657598;-2.118;2.826;-0.154;-3.01;-0.45;-126.52;0.0;0.0;0.0;0.0;-2.0;-1.0;11.0;13.0;-0.13;0.61;-10.64;0.72;0.41;0.93
1753879334.662598;-2.118;2.826;-0.154;-3.01;-0.45;-126.52;0.0;0.0;0.0;0.0;-2.0;-1.0;11.0;13.0;-0.13;0.62;-10.64;0.51;0.3;0.87
1753879334.667598;-2.118;2.826;-0.154;-3.01;-0.45;-126.52;0.0;0.0;0.0;0.0;-2.0;-1.0;11.0;13.0;-0.13;0.62;-10.64;0.63;0.48;0.86
1753879334.672598;-2.118;2.826;-0.154;-3.01;-0.45;-126.52;0.0;0.0;0.0;0.0;-2.0;-1.0;11.0;13.0;-0.13;0.62;-10.64;0.74;0.39;0.9
1753879334.677598;-2.118;2.826;-0.154;-3.01;-0.45;-126.52;0.0;0.0;0.0;0.0;-2.0;-1.0;11.0;13.0;-0.12;0.62;-10.63;0.81;0.31;0.97
1753879334.682598;-2.118;2.826;-0.154;-3.01;-0.45;-126.52;0.0;0.0;0.0;0.0;-2.2;-3.8;8.8;9.5;-0.11;0.62;-10.63;0.78;0.32;0.9
1753879334.687598;-2.118;2.826;-0.154;-3.01;-0.45;-126.52;0.0;0.0;0.0;0.0;-1.8;1.9;9.8;7.7;-0.12;0.61;-10.63;0.94;0.17;0.93
1753879334.692598;-2.118;2.826;-0.154;-3.01;-0.45;-126.52;0.0;0.0;0.0;0.0;-2.1;2.6;11.0;5.9;-0.13;0.62;-10.64;0.84;0.41;1.01
1753879334.697598;-2.118;2.826;-0.154;-3.01;-0.45;-126.52;0.0;0.0;0.0;0.0;-1.7;-1.6;11.5;5.0;-0.12;0.62;-10.64;0.78;0.35;0.99
1753879334.702598;-2.118;2.826;-0.154;-3.01;-0.45;-126.52;0.0;0.0;0.0;0.0;-1.8;-1.1;7.1;17.4;-0.12;0.62;-10.64;0.86;0.33;0.93
1753879334.707599;-2.118;2.826;-0.154;-3.01;-0.45;-126.52;0.0;0.0;0.0;0.0;-2.0;1.5;8.8;10.4;-0.13;0.62;-10.64;0.83;0.23;1.06
1753879334.712599;-2.118;2.826;-0.154;-3.02;-0.44;-126.52;0.0;0.0;0.0;0.0;-1.5;-3.4;5.7;10.9;-0.14;0.61;-10.62;0.86;0.26;0.94
1753879334.717599;-2.118;2.826;-0.154;-3.01;-0.45;-126.52;0.0;0.0;0.0;0.0;-1.9;4.3;4.9;12.8;-0.12;0.62;-10.64;0.78;0.21;0.99
1753879334.722599;-2.118;2.826;-0.154;-3.01;-0.44;-126.52;0.0;0.0;0.0;0.0;-1.6;0.8;-0.0;6.4;-0.14;0.62;-10.64;0.86;0.19;0.99
1753879334.727599;-2.118;2.826;-0.154;-3.01;-0.45;-126.52;0.0;0.0;0.0;0.0;-1.9;4.0;-4.7;5.9;-0.15;0.62;-10.64;0.56;0.32;0.91
1753879334.732599;-2.118;2.826;-0.154;-3.01;-0.44;-126.52;0.0;0.0;0.0;0.0;-1.6;2.0;5.1;-0.7;-0.12;0.62;-10.65;0.69;0.25;1.0
1753879334.737599;-2.118;2.826;-0.154;-3.02;-0.45;-126.52;0.0;0.0;0.0;0.0;-1.3;2.3;-3.3;4.4;-0.12;0.63;-10.63;0.7;0.19;0.93
1753879334.7426;-2.118;2.826;-0.154;-3.01;-0.45;-126.52;0.0;0.0;0.0;0.0;-1.7;2.7;-0.9;-3.4;-0.13;0.61;-10.64;0.53;0.3;0.99
1753879334.7476;-2.118;2.826;-0.154;-3.01;-0.45;-126.52;0.0;0.0;0.0;0.0;-1.3;4.8;4.9;2.5;-0.09;0.62;-10.65;0.78;0.33;0.93
1753879334.7526;-2.118;2.826;-0.154;-3.01;-0.44;-126.52;0.0;0.0;0.0;0.0;-1.5;2.1;-2.0;-0.0;-0.12;0.62;-10.64;0.81;0.29;0.88
1753879334.7576;-2.118;2.826;-0.154;-3.02;-0.44;-126.52;0.0;0.0;0.0;0.0;-1.7;0.5;5.1;-10.0;-0.14;0.61;-10.63;0.59;0.28;0.92
1753879334.7626;-2.118;2.826;-0.154;-3.01;-0.44;-126.52;0.0;0.0;0.0;0.0;-1.2;3.3;5.3;7.3;-0.12;0.62;-10.63;0.68;0.16;0.94
1753879334.7676;-2.118;2.826;-0.154;-3.01;-0.45;-126.52;0.0;0.0;0.0;0.0;-1.5;2.5;-3.6;2.1;-0.11;0.61;-10.63;0.85;0.22;0.85
1753879334.7726;-2.118;2.826;-0.154;-3.01;-0.44;-126.52;0.0;0.0;0.0;0.0;-0.9;2.1;2.4;-6.5;-0.12;0.63;-10.66;0.65;0.26;0.96
1753879334.7776;-2.118;2.826;-0.154;-3.02;-0.44;-126.52;0.0;0.0;0.0;0.0;-1.4;4.2;-3.4;1.1;-0.11;0.62;-10.65;0.82;0.28;0.94
1753879334.7826;-2.118;2.826;-0.154;-3.01;-0.44;-126.52;0.0;0.0;0.0;0.0;-1.1;5.1;-9.2;-7.7;-0.12;0.63;-10.66;0.76;0.24;0.99
1753879334.7876;-2.118;2.826;-0.154;-3.01;-0.44;-126.52;0.0;0.0;0.0;0.0;-0.9;5.0;-8.6;-11.1;-0.13;0.62;-10.66;0.63;0.25;0.92
1753879334.792601;-2.118;2.826;-0.154;-3.02;-0.44;-126.52;0.0;0.0;0.0;0.0;-1.8;7.2;-5.8;-3.4;-0.1;0.62;-10.64;0.83;0.24;0.86
1753879334.797601;-2.118;2.826;-0.154;-3.02;-0.44;-126.52;0.0;0.0;0.0;0.0;-1.1;2.8;-14.9;-11.9;-0.12;0.61;-10.64;0.65;0.29;0.94
1753879334.802601;-2.118;2.826;-0.154;-3.01;-0.44;-126.52;0.0;0.0;0.0;0.0;-1.3;6.5;-3.4;-11.8;-0.12;0.62;-10.66;0.78;0.17;0.85
1753879334.807601;-2.118;2.826;-0.154;-3.02;-0.45;-126.52;0.0;0.0;0.0;0.0;-1.3;7.6;-3.0;-8.6;-0.13;0.62;-10.64;0.69;0.25;0.77
1753879334.812601;-2.118;2.826;-0.154;-3.02;-0.45;-126.52;0.0;0.0;0.0;0.0;-1.3;7.8;-7.1;-13.5;-0.11;0.62;-10.65;0.74;0.18;0.87
1753879334.817601;-2.118;2.826;-0.154;-3.02;-0.44;-126.52;0.0;0.0;0.0;0.0;-1.2;8.3;-7.2;-11.3;-0.1;0.61;-10.63;0.76;0.14;0.75
1753879334.822601;-2.118;2.826;-0.154;-3.02;-0.44;-126.52;0.0;0.0;0.0;0.0;-1.0;9.7;-13.3;-9.9;-0.12;0.62;-10.66;0.76;0.29;0.99
1753879334.827602;-2.118;2.826;-0.154;-3.02;-0.44;-126.52;0.0;0.0;0.0;0.0;-1.1;10.7;-6.5;-12.0;-0.12;0.62;-10.64;0.63;0.27;0.93
1753879334.832598;-2.118;2.826;-0.154;-3.02;-0.44;-126.52;0.0;0.0;0.0;0.0;-1.0;8.0;-10.0;-13.0;-0.11;0.62;-10.65;0.67;0.24;0.9
1753879334.837598;-2.118;2.826;-0.154;-3.02;-0.44;-126.52;0.0;0.0;0.0;0.0;-1.0;8.0;-10.0;-13.0;-0.1;0.62;-10.65;0.7;0.41;0.93
1753879334.842598;-2.118;2.826;-0.154;-3.02;-0.44;-126.52;0.0;0.0;0.0;0.0;-1.0;8.0;-10.0;-13.0;-0.11;0.62;-10.66;0.63;0.22;0.93
1753879334.847598;-2.118;2.826;-0.154;-3.02;-0.44;-126.52;0.0;0.0;0.0;0.0;-1.0;8.0;-10.0;-13.0;-0.11;0.62;-10.65;0.68;0.4;0.87
1753879334.852598;-2.118;2.826;-0.154;-3.02;-0.44;-126.52;0.0;0.0;0.0;0.0;-1.0;8.0;-10.0;-13.0;-0.11;0.62;-10.65;0.59;0.4;0.87
1753879334.857598;-2.118;2.826;-0.154;-3.02;-0.44;-126.52;0.0;0.0;0.0;0.0;-1.0;8.0;-10.0;-13.0;-0.11;0.62;-10.65;0.64;0.36;0.86
1753879334.862598;-2.118;2.826;-0.154;-3.02;-0.44;-126.52;0.0;0.0;0.0;0.0;-1.0;8.0;-10.0;-13.0;-0.11;0.61;-10.66;0.71;0.35;0.86
1753879334.867598;-2.118;2.826;-0.154;-3.03;-0.44;-126.52;0.0;0.0;0.0;0.0;-2.6;1.4;8.5;4.5;-0.11;0.61;-10.65;0.85;0.32;0.9
1753879334.872598;-2.118;2.826;-0.154;-3.02;-0.44;-126.52;0.0;0.0;0.0;0.0;-2.0;6.0;10.0;7.0;-0.11;0.62;-10.65;0.81;0.21;0.89
1753879334.877598;-2.118;2.826;-0.154;-3.02;-0.44;-126.52;0.0;0.0;0.0;0.0;-2.0;6.0;10.0;7.0;-0.11;0.62;-10.65;0.67;0.25;0.84
1753879334.882598;-2.118;2.826;-0.154;-3.02;-0.44;-126.52;0.0;0.0;0.0;0.0;-2.0;6.0;10.0;7.0;-0.11;0.62;-10.65;0.64;0.45;0.83
1753879334.887598;-2.118;2.826;-0.154;-3.02;-0.44;-126.52;0.0;0.0;0.0;0.0;-2.0;6.0;10.0;7.0;-0.11;0.62;-10.64;0.72;0.4;0.84
1753879334.892598;-2.118;2.826;-0.154;-3.02;-0.44;-126.52;0.0;0.0;0.0;0.0;-2.0;6.0;10.0;7.0;-0.11;0.62;-10.64;0.68;0.29;0.93
1753879334.897598;-2.118;2.826;-0.154;-3.02;-0.44;-126.52;0.0;0.0;0.0;0.0;-2.0;6.0;10.0;7.0;-0.11;0.63;-10.64;0.59;0.42;0.86
1753879334.902598;-2.118;2.826;-0.154;-3.02;-0.44;-126.52;0.0;0.0;0.0;0.0;-2.0;6.0;10.0;7.0;-0.1;0.63;-10.64;0.65;0.4;0.84
1753879334.907598;-2.118;2.826;-0.154;-3.02;-0.44;-126.52;0.0;0.0;0.0;0.0;-2.0;6.0;10.0;7.0;-0.1;0.64;-10.64;0.7;0.28;0.88
1753879334.912598;-2.118;2.826;-0.154;-3.02;-0.44;-126.52;0.0;0.0;0.0;0.0;-2.0;6.0;10.0;7.0;-0.1;0.64;-10.63;0.69;0.28;0.93
1753879334.917598;-2.118;2.826;-0.154;-3.02;-0.44;-126.52;0.0;0.0;0.0;0.0;-2.0;6.0;10.0;7.0;-0.11;0.63;-10.63;0.68;0.22;0.92
1753879334.922598;-2.118;2.826;-0.154;-3.02;-0.44;-126.52;0.0;0.0;0.0;0.0;-2.0;6.0;10.0;7.0;-0.11;0.63;-10.62;0.64;0.35;0.85
1753879334.927598;-2.118;2.826;-0.154;-3.02;-0.44;-126.52;0.0;0.0;0.0;0.0;-2.0;6.0;10.0;7.0;-0.11;0.62;-10.62;0.63;0.42;0.94
1753879334.932598;-2.118;2.826;-0.154;-3.02;-0.44;-126.52;0.0;0.0;0.0;0.0;-2.0;6.0;10.0;7.0;-0.11;0.63;-10.62;0.57;0.26;0.88
1753879334.937598;-2.118;2.826;-0.154;-3.02;-0.44;-126.52;0.0;0.0;0.0;0.0;-2.0;6.0;10.0;7.0;-0.11;0.63;-10.63;0.59;0.37;0.9
1753879334.942598;-2.118;2.826;-0.154;-3.02;-0.44;-126.52;0.0;0.0;0.0;0.0;-2.0;6.0;10.0;7.0;-0.11;0.63;-10.63;0.62;0.31;0.96
1753879334.947598;-2.118;2.826;-0.154;-3.02;-0.44;-126.52;0.0;0.0;0.0;0.0;-2.0;6.0;10.0;7.0;-0.11;0.63;-10.63;0.67;0.31;0.83
1753879334.952598;-2.118;2.826;-0.154;-3.02;-0.44;-126.52;0.0;0.0;0.0;0.0;-2.0;6.0;10.0;7.0;-0.11;0.62;-10.63;0.8;0.36;0.93
1753879334.957598;-2.118;2.826;-0.154;-3.02;-0.44;-126.52;0.0;0.0;0.0;0.0;-2.0;6.0;10.0;7.0;-0.11;0.61;-10.63;0.61;0.35;0.83
1753879334.962598;-2.118;2.826;-0.154;-3.02;-0.44;-126.52;0.0;0.0;0.0;0.0;-2.0;6.0;10.0;7.0;-0.11;0.61;-10.64;0.54;0.28;0.95
1753879334.967598;-2.118;2.826;-0.154;-3.02;-0.44;-126.52;0.0;0.0;0.0;0.0;-2.0;6.0;10.0;7.0;-0.11;0.61;-10.64;0.63;0.32;0.83
1753879334.972598;-2.118;2.826;-0.154;-3.02;-0.44;-126.52;0.0;0.0;0.0;0.0;-2.0;6.0;10.0;7.0;-0.11;0.61;-10.64;0.45;0.39;0.8
1753879334.977598;-2.118;2.826;-0.154;-3.02;-0.44;-126.52;0.0;0.0;0.0;0.0;-2.0;6.0;10.0;7.0;-0.11;0.62;-10.64;0.64;0.29;1.0
1753879334.982598;-2.118;2.826;-0.154;-3.02;-0.44;-126.52;0.0;0.0;0.0;0.0;-2.0;6.0;10.0;7.0;-0.11;0.62;-10.64;0.61;0.34;0.88
1753879334.987598;-2.118;2.826;-0.154;-3.02;-0.44;-126.52;0.0;0.0;0.0;0.0;-2.0;6.0;10.0;7.0;-0.11;0.61;-10.65;0.67;0.38;1.0
1753879334.992598;-2.118;2.826;-0.154;-3.02;-0.44;-126.52;0.0;0.0;0.0;0.0;-2.0;6.0;10.0;7.0;-0.11;0.61;-10.65;0.65;0.29;0.92
1753879334.997598;-2.118;2.826;-0.154;-3.02;-0.44;-126.52;0.0;0.0;0.0;0.0;-2.0;6.0;10.0;7.0;-0.11;0.62;-10.65;0.58;0.38;1.07
1753879335.002598;-2.118;2.826;-0.154;-3.02;-0.43;-126.52;0.0;0.0;0.0;0.0;-2.0;1.6;2.3;-3.1;-0.11;0.64;-10.64;0.66;0.32;0.95
1753879335.007598;-2.118;2.826;-0.154;-3.03;-0.43;-126.52;0.0;0.0;0.0;0.0;-2.0;-12.0;-13.0;-12.0;-0.11;0.62;-10.64;0.63;0.4;0.9
1753879335.012598;-2.118;2.826;-0.154;-3.03;-0.43;-126.52;0.0;0.0;0.0;0.0;-2.0;-12.0;-13.0;-12.0;-0.11;0.62;-10.64;0.57;0.34;0.78
1753879335.017598;-2.118;2.826;-0.154;-3.03;-0.43;-126.52;0.0;0.0;0.0;0.0;-2.0;-12.0;-13.0;-12.0;-0.11;0.62;-10.63;0.73;0.36;0.71
1753879335.022598;-2.118;2.826;-0.154;-3.03;-0.43;-126.52;0.0;0.0;0.0;0.0;-2.0;-12.0;-13.0;-12.0;-0.12;0.61;-10.63;0.64;0.33;0.84
1753879335.027598;-2.118;2.826;-0.154;-3.03;-0.43;-126.52;0.0;0.0;0.0;0.0;-2.0;-12.0;-13.0;-12.0;-0.12;0.61;-10.63;0.56;0.31;0.95
1753879335.032598;-2.118;2.826;-0.154;-3.03;-0.43;-126.52;0.0;0.0;0.0;0.0;-2.0;-12.0;-13.0;-12.0;-0.12;0.61;-10.63;0.66;0.18;0.82
1753879335.037598;-2.118;2.826;-0.154;-3.03;-0.43;-126.52;0.0;0.0;0.0;0.0;-2.0;-12.0;-13.0;-12.0;-0.11;0.61;-10.63;0.64;0.17;0.87
1753879335.042598;-2.118;2.826;-0.154;-3.03;-0.43;-126.52;0.0;0.0;0.0;0.0;-2.0;-12.0;-13.0;-12.0;-0.11;0.62;-10.64;0.58;0.29;0.85
1753879335.047598;-2.118;2.826;-0.154;-3.03;-0.43;-126.52;0.0;0.0;0.0;0.0;-2.0;-12.0;-13.0;-12.0;-0.11;0.62;-10.62;0.62;0.35;0.85
1753879335.052598;-2.118;2.826;-0.154;-3.03;-0.43;-126.52;0.0;0.0;0.0;0.0;-2.0;-12.0;-13.0;-12.0;-0.11;0.62;-10.63;0.7;0.27;0.83
1753879335.057598;-2.118;2.826;-0.154;-3.03;-0.43;-126.52;0.0;0.0;0.0;0.0;-2.0;-12.0;-13.0;-12.0;-0.11;0.61;-10.63;0.71;0.22;0.93
1753879335.062598;-2.118;2.826;-0.154;-3.03;-0.43;-126.52;0.0;0.0;0.0;0.0;-2.0;-12.0;-13.0;-12.0;-0.1;0.61;-10.63;0.64;0.43;0.9
1753879335.067598;-2.118;2.826;-0.154;-3.03;-0.43;-126.52;0.0;0.0;0.0;0.0;-2.0;-12.0;-13.0;-12.0;-0.1;0.61;-10.64;0.61;0.41;0.93
1753879335.072598;-2.118;2.826;-0.154;-3.03;-0.43;-126.52;0.0;0.0;0.0;0.0;-2.0;-12.0;-13.0;-12.0;-0.1;0.62;-10.64;0.58;0.32;0.97
1753879335.077598;-2.118;2.826;-0.154;-3.03;-0.43;-126.52;0.0;0.0;0.0;0.0;-2.0;-12.0;-13.0;-12.0;-0.11;0.61;-10.64;0.64;0.36;0.93
1753879335.082598;-2.118;2.826;-0.154;-3.03;-0.43;-126.52;0.0;0.0;0.0;0.0;-2.0;-12.0;-13.0;-12.0;-0.1;0.62;-10.64;0.68;0.22;0.93
1753879335.087598;-2.118;2.826;-0.154;-3.03;-0.43;-126.52;0.0;0.0;0.0;0.0;-2.0;-12.0;-13.0;-12.0;-0.1;0.62;-10.64;0.71;0.36;0.89
1753879335.092598;-2.118;2.826;-0.154;-3.03;-0.43;-126.52;0.0;0.0;0.0;0.0;-2.0;-12.0;-13.0;-12.0;-0.1;0.61;-10.64;0.66;0.32;0.7
1753879335.097598;-2.118;2.826;-0.154;-3.03;-0.43;-126.52;0.0;0.0;0.0;0.0;-2.0;-12.0;-13.0;-12.0;-0.1;0.61;-10.63;0.54;0.29;0.89
1753879335.102598;-2.118;2.826;-0.154;-3.03;-0.43;-126.52;0.0;0.0;0.0;0.0;-2.0;-12.0;-13.0;-12.0;-0.1;0.61;-10.64;0.53;0.32;0.93
1753879335.107598;-2.118;2.826;-0.154;-3.03;-0.43;-126.52;0.0;0.0;0.0;0.0;-2.0;-12.0;-13.0;-12.0;-0.1;0.62;-10.64;0.62;0.46;1.05
1753879335.112598;-2.118;2.826;-0.154;-3.03;-0.43;-126.52;0.0;0.0;0.0;0.0;-2.0;-12.0;-13.0;-12.0;-0.1;0.62;-10.63;0.72;0.26;0.85
1753879335.117598;-2.118;2.826;-0.154;-3.03;-0.43;-126.52;0.0;0.0;0.0;0.0;-2.0;-12.0;-13.0;-12.0;-0.1;0.62;-10.63;0.7;0.29;0.98
1753879335.122598;-2.118;2.826;-0.154;-3.03;-0.43;-126.52;0.0;0.0;0.0;0.0;-2.0;-12.0;-13.0;-12.0;-0.11;0.62;-10.63;0.67;0.32;1.02
1753879335.127598;-2.118;2.826;-0.154;-3.03;-0.43;-126.52;0.0;0.0;0.0;0.0;-2.0;-12.0;-13.0;-12.0;-0.11;0.62;-10.63;0.7;0.49;0.88
1753879335.132598;-2.118;2.826;-0.154;-3.03;-0.43;-126.52;0.0;0.0;0.0;0.0;-2.0;-12.0;-13.0;-12.0;-0.1;0.63;-10.63;0.66;0.51;0.9
1753879335.137598;-2.118;2.826;-0.154;-3.03;-0.43;-126.52;0.0;0.0;0.0;0.0;-2.0;-12.0;-13.0;-12.0;-0.11;0.62;-10.63;0.65;0.5;0.94
1753879335.142598;-2.118;2.826;-0.154;-3.03;-0.43;-126.52;0.0;0.0;0.0;0.0;-2.0;-12.0;-13.0;-12.0;-0.11;0.63;-10.63;0.49;0.43;1.03
1753879335.147598;-2.118;2.826;-0.154;-3.03;-0.43;-126.52;0.0;0.0;0.0;0.0;-2.0;-12.0;-13.0;-12.0;-0.11;0.63;-10.64;0.6;0.38;0.94
1753879335.152598;-2.118;2.826;-0.154;-3.03;-0.43;-126.52;0.0;0.0;0.0;0.0;-2.0;-12.0;-13.0;-12.0;-0.11;0.63;-10.64;0.68;0.5;0.94
1753879335.157598;-2.118;2.826;-0.154;-3.03;-0.43;-126.52;0.0;0.0;0.0;0.0;-2.0;-12.0;-13.0;-12.0;-0.11;0.63;-10.64;0.61;0.35;0.83
1753879335.162598;-2.118;2.826;-0.154;-3.03;-0.43;-126.52;0.0;0.0;0.0;0.0;-2.0;-12.0;-13.0;-12.0;-0.11;0.63;-10.63;0.46;0.3;0.95
1753879335.167598;-2.118;2.826;-0.154;-3.03;-0.43;-126.52;0.0;0.0;0.0;0.0;-2.0;-12.0;-13.0;-12.0;-0.11;0.62;-10.63;0.6;0.46;0.88
1753879335.172598;-2.118;2.826;-0.154;-3.03;-0.43;-126.52;0.0;0.0;0.0;0.0;-2.0;-12.0;-13.0;-12.0;-0.11;0.63;-10.64;0.64;0.39;0.83
1753879335.177598;-2.118;2.826;-0.154;-3.03;-0.43;-126.52;0.0;0.0;0.0;0.0;-2.0;-12.0;-13.0;-12.0;-0.11;0.63;-10.64;0.56;0.33;0.74
1753879335.182598;-2.118;2.826;-0.154;-3.03;-0.43;-126.52;0.0;0.0;0.0;0.0;-2.1;-13.3;-14.5;-10.7;-0.12;0.63;-10.65;0.47;0.25;0.73
1753879335.187598;-2.118;2.826;-0.154;-3.03;-0.43;-126.52;0.0;0.0;0.0;0.0;-1.6;-10.8;-12.9;-5.6;-0.12;0.62;-10.64;0.49;0.26;0.78
1753879335.192598;-2.118;2.826;-0.154;-3.03;-0.42;-126.52;0.0;0.0;0.0;0.0;-3.0;-12.6;-6.1;-10.1;-0.11;0.64;-10.62;0.64;0.37;0.86
1753879335.197598;-2.118;2.826;-0.154;-3.03;-0.43;-126.52;0.0;0.0;0.0;0.0;-1.8;-11.4;-6.5;-16.9;-0.1;0.63;-10.63;0.54;0.32;0.69
1753879335.202598;-2.118;2.826;-0.154;-3.03;-0.43;-126.52;0.0;0.0;0.0;0.0;-3.0;-9.9;-13.2;-15.5;-0.1;0.63;-10.63;0.4;0.27;0.74
1753879335.207599;-2.118;2.826;-0.154;-3.03;-0.42;-126.52;0.0;0.0;0.0;0.0;-1.1;-10.6;-15.1;-10.9;-0.11;0.62;-10.63;0.55;0.44;0.84
1753879335.212599;-2.118;2.826;-0.154;-3.04;-0.42;-126.52;0.0;0.0;0.0;0.0;-3.7;-11.4;-13.5;-9.2;-0.11;0.64;-10.64;0.5;0.3;0.89
1753879335.217599;-2.118;2.826;-0.154;-3.03;-0.43;-126.52;0.0;0.0;0.0;0.0;-3.0;-11.2;-5.5;-2.7;-0.1;0.63;-10.63;0.63;0.31;0.66
1753879335.222599;-2.118;2.826;-0.154;-3.04;-0.42;-126.52;0.0;0.0;0.0;0.0;-3.3;-10.2;-10.1;-7.5;-0.11;0.63;-10.64;0.46;0.42;0.75
1753879335.227599;-2.118;2.826;-0.154;-3.03;-0.42;-126.52;0.0;0.0;0.0;0.0;-2.9;-11.3;-7.7;-6.7;-0.11;0.64;-10.63;0.48;0.26;0.81
1753879335.232599;-2.118;2.826;-0.154;-3.04;-0.42;-126.52;0.0;0.0;0.0;0.0;-3.5;-10.4;-6.2;-0.9;-0.1;0.63;-10.64;0.57;0.38;0.91
1753879335.237599;-2.118;2.826;-0.154;-3.04;-0.43;-126.52;0.0;0.0;0.0;0.0;-2.5;-11.5;-1.4;-1.2;-0.11;0.63;-10.63;0.61;0.42;0.87
1753879335.2426;-2.118;2.826;-0.154;-3.04;-0.42;-126.52;0.0;0.0;0.0;0.0;-3.7;-11.2;-6.1;-7.7;-0.11;0.64;-10.62;0.49;0.38;1.06
1753879335.2476;-2.118;2.826;-0.154;-3.04;-0.42;-126.52;0.0;0.0;0.0;0.0;-3.2;-10.3;-2.9;-10.3;-0.11;0.64;-10.62;0.49;0.3;0.83
1753879335.2526;-2.118;2.826;-0.154;-3.04;-0.42;-126.52;0.0;0.0;0.0;0.0;-4.0;-10.8;-1.8;-4.1;-0.1;0.62;-10.63;0.43;0.41;0.84
1753879335.2576;-2.118;2.826;-0.154;-3.04;-0.43;-126.52;0.0;0.0;0.0;0.0;-4.2;-10.1;-6.0;-0.7;-0.11;0.63;-10.62;0.41;0.38;0.9
1753879335.2626;-2.118;2.826;-0.154;-3.03;-0.42;-126.52;0.0;0.0;0.0;0.0;-4.0;-9.7;-4.6;-3.6;-0.1;0.63;-10.62;0.56;0.25;0.92
1753879335.2676;-2.118;2.826;-0.154;-3.04;-0.42;-126.52;0.0;0.0;0.0;0.0;-4.5;-10.0;-5.2;-8.3;-0.1;0.63;-10.63;0.65;0.43;0.91
1753879335.2726;-2.118;2.826;-0.154;-3.04;-0.42;-126.52;0.0;0.0;0.0;0.0;-4.7;-9.6;2.1;3.4;-0.09;0.62;-10.63;0.54;0.54;0.77
1753879335.2776;-2.118;2.826;-0.154;-3.04;-0.42;-126.52;0.0;0.0;0.0;0.0;-4.4;-10.0;-4.0;8.7;-0.11;0.63;-10.63;0.47;0.39;0.87
1753879335.2826;-2.118;2.826;-0.154;-3.04;-0.42;-126.52;0.0;0.0;0.0;0.0;-3.8;-8.0;4.3;9.1;-0.1;0.63;-10.62;0.52;0.32;0.92
1753879335.2876;-2.118;2.826;-0.154;-3.04;-0.42;-126.52;0.0;0.0;0.0;0.0;-4.7;-9.5;-3.3;12.0;-0.1;0.63;-10.62;0.43;0.47;0.99
1753879335.292598;-2.118;2.826;-0.154;-3.04;-0.42;-126.52;0.0;0.0;0.0;0.0;-5.0;-9.0;0.0;7.0;-0.1;0.63;-10.62;0.54;0.42;0.97
1753879335.297598;-2.118;2.826;-0.154;-3.04;-0.42;-126.52;0.0;0.0;0.0;0.0;-5.0;-9.0;0.0;7.0;-0.1;0.62;-10.62;0.64;0.29;0.94
1753879335.302598;-2.118;2.826;-0.154;-3.04;-0.42;-126.52;0.0;0.0;0.0;0.0;-5.0;-9.0;0.0;7.0;-0.11;0.63;-10.62;0.62;0.38;0.83
1753879335.307598;-2.118;2.826;-0.154;-3.04;-0.42;-126.52;0.0;0.0;0.0;0.0;-5.0;-9.0;0.0;7.0;-0.11;0.62;-10.62;0.7;0.09;0.9
1753879335.312598;-2.118;2.826;-0.154;-3.04;-0.42;-126.52;0.0;0.0;0.0;0.0;-5.0;-9.0;0.0;7.0;-0.11;0.62;-10.63;0.62;0.25;0.84
1753879335.317598;-2.118;2.826;-0.154;-3.04;-0.42;-126.52;0.0;0.0;0.0;0.0;-5.0;-9.0;0.0;7.0;-0.11;0.62;-10.62;0.64;0.41;0.99
1753879335.322598;-2.118;2.826;-0.154;-3.04;-0.42;-126.52;0.0;0.0;0.0;0.0;-5.0;-9.0;0.0;7.0;-0.11;0.61;-10.62;0.58;0.41;0.96
1753879335.327598;-2.118;2.826;-0.154;-3.04;-0.42;-126.52;0.0;0.0;0.0;0.0;-5.0;-9.0;0.0;7.0;-0.11;0.61;-10.62;0.73;0.28;0.8
1753879335.332598;-2.118;2.826;-0.154;-3.04;-0.42;-126.52;0.0;0.0;0.0;0.0;-5.0;-9.0;0.0;7.0;-0.11;0.61;-10.62;0.65;0.35;0.83
1753879335.337598;-2.118;2.826;-0.154;-3.04;-0.42;-126.52;0.0;0.0;0.0;0.0;-5.0;-9.0;0.0;7.0;-0.11;0.61;-10.63;0.65;0.32;0.9
1753879335.342598;-2.118;2.826;-0.154;-3.04;-0.42;-126.52;0.0;0.0;0.0;0.0;-5.0;-9.0;0.0;7.0;-0.11;0.61;-10.63;0.64;0.28;0.83
1753879335.347598;-2.118;2.826;-0.154;-3.04;-0.42;-126.52;0.0;0.0;0.0;0.0;-5.0;-9.0;0.0;7.0;-0.11;0.61;-10.63;0.62;0.36;0.77
1753879335.352598;-2.118;2.826;-0.154;-3.04;-0.42;-126.52;0.0;0.0;0.0;0.0;-5.0;-9.0;0.0;7.0;-0.1;0.62;-10.64;0.61;0.37;1.06
1753879335.357598;-2.118;2.826;-0.154;-3.04;-0.42;-126.52;0.0;0.0;0.0;0.0;-5.0;-9.0;0.0;7.0;-0.09;0.61;-10.65;0.73;0.41;1.06
1753879335.362598;-2.118;2.826;-0.154;-3.04;-0.42;-126.52;0.0;0.0;0.0;0.0;-5.0;-9.0;0.0;7.0;-0.07;0.61;-10.64;0.76;0.61;0.63
1753879335.367598;-2.118;2.826;-0.154;-3.04;-0.42;-126.52;0.0;0.0;0.0;0.0;-5.0;-9.0;0.0;7.0;-0.06;0.62;-10.63;0.55;0.43;1.36
1753879335.372598;-2.118;2.826;-0.154;-3.04;-0.42;-126.52;0.0;0.0;0.0;0.0;-5.0;-9.0;0.0;7.0;-0.01;0.58;-10.64;0.67;0.31;1.53
1753879335.377598;-2.118;2.826;-0.154;-3.04;-0.42;-126.52;0.0;0.0;0.0;0.0;-5.0;-9.0;0.0;7.0;0.0;0.54;-10.66;0.67;0.55;0.55
1753879335.382598;-2.118;2.826;-0.154;-3.04;-0.42;-126.52;0.0;0.0;0.0;0.0;-5.0;-9.0;0.0;7.0;0.05;0.53;-10.64;0.65;0.19;2.23
1753879335.387598;-2.118;2.826;-0.154;-3.04;-0.42;-126.52;0.0;0.0;0.0;0.0;-5.0;-9.0;0.0;7.0;0.09;0.51;-10.64;0.66;0.4;2.51
1753879335.392598;-2.118;2.826;-0.154;-3.04;-0.42;-126.52;0.0;0.0;0.0;0.0;-5.0;-9.0;0.0;7.0;0.12;0.47;-10.65;0.72;0.54;1.55
1753879335.397598;-2.118;2.826;-0.154;-3.04;-0.42;-126.52;0.0;0.0;0.0;0.0;-5.0;-9.0;0.0;7.0;0.17;0.47;-10.65;0.61;0.45;2.46
1753879335.402598;-2.118;2.826;-0.154;-3.04;-0.42;-126.52;0.0;0.0;0.0;0.0;-5.0;-9.0;0.0;7.0;0.23;0.46;-10.64;0.51;0.48;3.34
1753879335.407598;-2.118;2.826;-0.154;-3.04;-0.42;-126.52;0.0;0.0;0.0;0.0;-5.0;-9.0;0.0;7.0;0.27;0.45;-10.65;0.57;0.77;1.63
1753879335.412598;-2.118;2.826;-0.154;-3.04;-0.42;-126.52;0.0;0.0;0.0;0.0;-5.0;-9.0;0.0;7.0;0.33;0.47;-10.65;0.29;0.5;2.54
1753879335.417598;-2.118;2.826;-0.154;-3.04;-0.42;-126.52;0.0;0.0;0.0;0.0;-5.0;-9.0;0.0;7.0;0.37;0.5;-10.64;0.53;0.55;2.49
1753879335.422598;-2.119;2.825;-0.154;-3.03;-0.39;-126.53;523.4;331.2;286.0;192.7;5.5;9.6;126.3;29.2;0.04;0.51;-10.63;0.45;0.56;1.67
1753879335.427598;-2.119;2.825;-0.154;-3.01;-0.35;-126.54;766.0;583.0;436.0;803.0;39.0;33.0;146.0;50.0;0.46;0.57;-10.63;0.55;0.51;2.15
1753879335.432598;-2.119;2.825;-0.154;-3.01;-0.35;-126.54;766.0;583.0;436.0;803.0;39.0;33.0;146.0;50.0;0.52;0.65;-10.64;0.93;0.44;0.95
1753879335.437598;-2.119;2.825;-0.154;-3.01;-0.35;-126.54;766.0;583.0;436.0;803.0;39.0;33.0;146.0;50.0;0.56;0.69;-10.66;0.83;0.34;0.61
1753879335.442598;-2.119;2.825;-0.154;-3.01;-0.35;-126.54;766.0;583.0;436.0;803.0;39.0;33.0;146.0;50.0;0.63;0.76;-10.65;0.67;0.25;0.83
1753879335.447598;-2.119;2.825;-0.154;-3.01;-0.35;-126.54;766.0;583.0;436.0;803.0;39.0;33.0;146.0;50.0;0.66;0.82;-10.65;0.86;0.51;0.31
1753879335.452598;-2.119;2.825;-0.154;-3.01;-0.35;-126.54;766.0;583.0;436.0;803.0;39.0;33.0;146.0;50.0;0.71;0.8;-10.66;0.9;0.45;0.03
1753879335.457598;-2.119;2.825;-0.154;-3.01;-0.35;-126.54;766.0;583.0;436.0;803.0;39.0;33.0;146.0;50.0;0.74;0.79;-10.66;1.0;0.48;0.48
1753879335.462598;-2.119;2.825;-0.154;-3.01;-0.35;-126.54;766.0;583.0;436.0;803.0;39.0;33.0;146.0;50.0;0.78;0.77;-10.68;0.9;0.28;0.4
1753879335.467598;-2.119;2.825;-0.154;-3.01;-0.35;-126.54;766.0;583.0;436.0;803.0;39.0;33.0;146.0;50.0;0.76;0.71;-10.7;0.85;0.39;-0.06
1753879335.472598;-2.119;2.825;-0.154;-3.01;-0.35;-126.54;766.0;583.0;436.0;803.0;39.0;33.0;146.0;50.0;0.79;0.7;-10.7;0.9;0.35;0.53
1753879335.477598;-2.119;2.825;-0.154;-3.01;-0.35;-126.54;766.0;583.0;436.0;803.0;39.0;33.0;146.0;50.0;0.8;0.69;-10.74;1.2;0.23;0.65
1753879335.482598;-2.119;2.825;-0.154;-3.01;-0.35;-126.54;766.0;583.0;436.0;803.0;39.0;33.0;146.0;50.0;0.75;0.69;-10.75;1.08;0.26;0.11
1753879335.487598;-2.119;2.825;-0.154;-3.01;-0.35;-126.54;766.0;583.0;436.0;803.0;39.0;33.0;146.0;50.0;0.73;0.69;-10.7;1.09;0.39;-0.06
1753879335.492598;-2.119;2.825;-0.154;-3.01;-0.35;-126.54;766.0;583.0;436.0;803.0;39.0;33.0;146.0;50.0;0.69;0.7;-10.7;1.13;0.22;0.81
1753879335.497598;-2.119;2.825;-0.154;-3.01;-0.35;-126.54;766.0;583.0;436.0;803.0;39.0;33.0;146.0;50.0;0.6;0.69;-10.72;1.28;0.45;-0.16
1753879335.502598;-2.119;2.825;-0.154;-3.01;-0.35;-126.54;766.0;583.0;436.0;803.0;39.0;33.0;146.0;50.0;0.6;0.72;-10.72;1.26;0.5;-0.44
1753879335.507598;-2.119;2.825;-0.154;-3.01;-0.35;-126.54;766.0;583.0;436.0;803.0;39.0;33.0;146.0;50.0;0.57;0.79;-10.71;1.59;0.14;-0.16
1753879335.512598;-2.119;2.825;-0.154;-3.01;-0.35;-126.54;766.0;583.0;436.0;803.0;39.0;33.0;146.0;50.0;0.55;0.84;-10.71;1.57;0.34;-0.22
1753879335.517598;-2.119;2.825;-0.154;-3.01;-0.35;-126.54;766.0;583.0;436.0;803.0;39.0;33.0;146.0;50.0;0.52;0.88;-10.71;1.8;0.45;-1.04
1753879335.522598;-2.119;2.825;-0.154;-3.01;-0.35;-126.54;766.0;583.0;436.0;803.0;39.0;33.0;146.0;50.0;0.57;0.94;-10.71;1.48;0.14;-0.21
1753879335.527598;-2.119;2.825;-0.154;-3.01;-0.35;-126.54;766.0;583.0;436.0;803.0;39.0;33.0;146.0;50.0;0.59;0.89;-10.74;1.61;0.0;0.36
1753879335.532598;-2.119;2.825;-0.154;-3.01;-0.35;-126.54;766.0;583.0;436.0;803.0;39.0;33.0;146.0;50.0;0.61;0.81;-10.73;1.77;0.37;-0.8
1753879335.537598;-2.119;2.825;-0.154;-3.01;-0.35;-126.54;766.0;583.0;436.0;803.0;39.0;33.0;146.0;50.0;0.67;0.76;-10.71;1.81;0.03;-0.04
1753879335.542598;-2.119;2.825;-0.154;-3.01;-0.35;-126.54;766.0;583.0;436.0;803.0;39.0;33.0;146.0;50.0;0.72;0.67;-10.72;1.64;-0.16;1.51
1753879335.547598;-2.119;2.825;-0.154;-3.01;-0.35;-126.54;766.0;583.0;436.0;803.0;39.0;33.0;146.0;50.0;0.78;0.54;-10.74;1.89;0.02;0.69
1753879335.552598;-2.119;2.825;-0.154;-3.01;-0.35;-126.54;766.0;583.0;436.0;803.0;39.0;33.0;146.0;50.0;0.81;0.45;-10.76;1.65;0.27;0.09
1753879335.557598;-2.119;2.825;-0.154;-3.01;-0.35;-126.54;766.0;583.0;436.0;803.0;39.0;33.0;146.0;50.0;0.86;0.41;-10.74;1.53;-0.25;2.19
1753879335.562598;-2.119;2.825;-0.154;-3.01;-0.35;-126.54;766.0;583.0;436.0;803.0;39.0;33.0;146.0;50.0;0.88;0.3;-10.7;1.61;0.04;1.31
1753879335.567598;-2.126;2.816;-0.154;-3.07;0.63;-126.56;1416.0;1406.0;1363.0;1380.0;145.0;59.0;186.0;151.0;0.85;0.24;-10.7;1.91;0.21;0.77
1753879335.572598;-2.126;2.816;-0.154;-3.07;0.63;-126.56;1416.0;1406.0;1363.0;1380.0;145.0;59.0;186.0;151.0;0.85;0.23;-10.66;1.67;0.11;2.21
1753879335.577598;-2.125;2.816;-0.154;-3.05;0.8;-126.56;1532.7;835.7;1458.8;1353.9;159.7;53.3;168.8;71.4;1.1;0.39;-10.54;2.13;0.14;2.44
1753879335.582598;-2.129;2.812;-0.154;-3.07;0.63;-126.55;1426.0;1343.0;1536.0;1380.0;127.0;47.0;131.0;151.0;0.76;0.2;-10.62;1.54;0.55;1.33
1753879335.587598;-2.129;2.812;-0.154;-3.07;0.63;-126.55;1426.0;1343.0;1536.0;1380.0;127.0;47.0;131.0;151.0;0.69;0.26;-10.6;1.46;0.58;2.43
1753879335.592598;-2.129;2.812;-0.154;-3.07;0.63;-126.55;1426.0;1343.0;1536.0;1380.0;127.0;47.0;131.0;151.0;0.61;0.25;-10.58;1.19;0.5;2.15
1753879335.597598;-2.129;2.812;-0.154;-3.07;0.63;-126.55;1426.0;1343.0;1536.0;1380.0;127.0;47.0;131.0;151.0;0.59;0.27;-10.55;1.25;0.51;1.01
1753879335.602598;-2.129;2.812;-0.154;-3.07;0.63;-126.55;1426.0;1343.0;1536.0;1380.0;127.0;47.0;131.0;151.0;0.5;0.4;-10.54;1.39;0.14;2.61
1753879335.607598;-2.129;2.812;-0.154;-3.07;0.63;-126.55;1426.0;1343.0;1536.0;1380.0;127.0;47.0;131.0;151.0;0.41;0.4;-10.52;1.24;0.18;3.66
1753879335.612598;-2.129;2.812;-0.154;-3.07;0.63;-126.55;1426.0;1343.0;1536.0;1380.0;127.0;47.0;131.0;151.0;0.34;0.27;-10.56;1.15;0.55;1.12
1753879335.617598;-2.129;2.812;-0.154;-3.07;0.63;-126.55;1426.0;1343.0;1536.0;1380.0;127.0;47.0;131.0;151.0;0.27;0.25;-10.64;1.19;0.17;2.02
1753879335.622598;-2.129;2.812;-0.154;-3.07;0.63;-126.55;1426.0;1343.0;1536.0;1380.0;127.0;47.0;131.0;151.0;0.2;0.23;-10.7;1.19;-0.41;3.63
1753879335.627598;-2.129;2.812;-0.154;-3.07;0.63;-126.55;1426.0;1343.0;1536.0;1380.0;127.0;47.0;131.0;151.0;0.12;0.09;-10.73;1.15;-0.11;2.95
1753879335.632598;-2.129;2.812;-0.154;-3.07;0.63;-126.55;1426.0;1343.0;1536.0;1380.0;127.0;47.0;131.0;151.0;0.03;0.0;-10.72;0.85;0.47;1.97
1753879335.637598;-2.129;2.812;-0.154;-3.07;0.63;-126.55;1426.0;1343.0;1536.0;1380.0;127.0;47.0;131.0;151.0;-0.02;-0.06;-10.67;0.84;0.18;3.98
1753879335.642598;-2.128;2.808;-0.154;-3.05;0.85;-126.55;1656.9;1137.2;1894.0;1534.0;143.9;52.3;118.8;144.1;-0.28;-0.14;-10.66;1.23;0.51;3.13
1753879335.647598;-2.133;2.805;-0.154;-3.08;0.62;-126.56;1252.5;1204.0;1876.5;1077.3;38.2;51.2;116.7;150.0;-0.11;0.24;-10.59;0.63;0.08;2.46
1753879335.652598;-2.13;2.802;-0.154;-3.06;0.61;-126.54;1332.0;1091.0;180.6;901.1;109.4;36.3;115.5;184.5;-0.17;0.1;-10.78;0.76;0.35;3.88
1753879335.657598;-2.129;2.799;-0.154;-3.11;0.81;-126.55;1181.4;1481.2;1955.0;1341.4;90.2;57.9;123.2;151.3;-0.55;-0.06;-10.68;0.68;-0.33;3.5
1753879335.662598;-2.132;2.818;-0.154;-3.06;-0.04;-126.55;1241.6;963.7;1660.1;1675.6;138.2;55.2;106.8;100.7;-0.4;-0.16;-10.57;0.75;0.18;4.79
1753879335.667598;-2.125;2.805;-0.154;-3.08;0.88;-126.54;870.4;1601.3;2295.6;999.9;193.2;51.6;123.4;152.3;-0.33;-0.24;-10.58;0.76;0.39;2.52
1753879335.672598;-2.132;2.809;-0.154;-3.02;0.28;-126.55;1397.4;601.2;1038.4;1679.4;182.6;46.4;114.1;150.8;0.09;0.33;-10.71;0.8;0.87;5.05
1753879335.677599;-2.135;2.808;-0.154;-3.1;1.41;-126.55;1877.1;1106.6;954.3;1418.7;128.3;48.6;132.9;118.8;0.13;-0.11;-10.67;0.29;1.05;1.47
1753879335.682599;-2.132;2.806;-0.154;-3.08;0.75;-126.55;1774.2;1629.2;2685.7;1556.3;62.8;45.0;133.0;179.1;0.58;-0.02;-10.61;0.92;0.75;2.36
1753879335.687599;-2.123;2.814;-0.154;-3.01;0.72;-126.55;1514.3;1617.2;1334.8;1229.2;166.1;46.4;140.3;127.9;-0.51;-0.09;-10.63;0.94;1.17;2.67
1753879335.692599;-2.123;2.819;-0.154;-3.08;0.74;-126.55;1179.9;1339.3;1185.7;1316.8;132.0;40.3;126.8;147.9;0.21;-0.03;-10.6;1.0;0.66;1.41
1753879335.697599;-2.128;2.81;-0.154;-3.07;0.3;-126.56;1637.7;1600.1;1844.7;1166.3;168.1;42.9;111.2;64.5;-0.15;0.32;-10.61;0.67;0.81;2.68
1753879335.702599;-2.13;2.817;-0.154;-3.03;0.76;-126.55;1937.4;1012.0;1416.2;1532.8;93.2;52.8;142.1;116.6;0.21;-0.19;-10.64;0.74;0.79;0.48
1753879335.7076;-2.125;2.799;-0.154;-3.07;0.13;-126.55;1729.1;1204.3;1580.5;1475.5;164.7;41.2;130.1;161.6;-0.08;0.6;-10.73;0.58;1.52;3.1
1753879335.7126;-2.13;2.809;-0.154;-3.11;0.81;-126.55;1467.2;1133.1;1231.8;1458.7;126.5;40.1;141.3;167.2;-0.46;0.08;-10.52;1.06;0.56;1.3
1753879335.7176;-2.123;2.803;-0.154;-3.07;1.05;-126.55;1157.3;1722.3;831.2;1343.2;125.8;39.1;137.1;196.6;-0.37;0.01;-10.61;0.27;0.38;1.87
1753879335.7226;-2.127;2.812;-0.154;-3.07;-0.11;-126.55;1510.3;1561.9;2208.4;1111.5;141.3;40.2;138.7;201.1;-0.18;-0.04;-10.59;0.57;1.23;1.25
1753879335.7276;-2.131;2.806;-0.154;-3.08;0.98;-126.55;1288.6;842.7;796.0;1301.1;95.9;58.2;116.8;145.0;-0.21;0.32;-10.62;0.64;1.33;2.87
1753879335.7326;-2.126;2.803;-0.154;-3.07;0.47;-126.54;1225.6;1207.9;2188.3;1445.2;148.9;48.2;124.3;82.7;0.15;0.36;-10.61;0.57;0.51;2.03
1753879335.7376;-2.131;2.813;-0.154;-3.03;0.65;-126.55;1689.1;1726.7;1282.0;1545.8;182.2;53.1;125.0;198.2;0.35;0.17;-10.52;0.14;0.65;2.41
1753879335.7426;-2.133;2.805;-0.154;-3.07;0.87;-126.55;2082.4;1247.7;1281.4;1362.0;92.7;41.8;105.6;199.5;-0.32;0.65;-10.58;0.01;0.36;2.3
1753879335.7476;-2.135;2.807;-0.154;-3.07;0.23;-126.55;1644.0;1568.5;1264.6;1158.9;129.7;57.0;112.6;111.0;0.2;0.57;-10.46;0.96;1.04;-0.08
1753879335.7526;-2.135;2.812;-0.154;-3.04;0.17;-126.56;1195.4;1890.0;1179.0;1394.2;106.3;38.2;133.1;154.3;-0.2;0.29;-10.6;0.91;1.06;1.88
1753879335.7576;-2.132;2.814;-0.154;-3.1;0.07;-126.54;1486.1;1414.0;633.2;1600.2;93.4;41.4;133.1;225.7;-0.5;0.49;-10.48;-0.25;2.0;1.58
1753879335.762601;-2.128;2.819;-0.154;-3.07;0.52;-126.56;1111.7;1055.9;1086.8;1461.5;155.5;57.9;97.3;189.8;0.17;0.48;-10.6;-0.14;1.42;2.89
1753879335.767601;-2.129;2.816;-0.154;-3.06;1.19;-126.54;1620.7;1074.9;1515.6;1126.2;125.2;52.6;127.9;134.6;-0.14;0.46;-10.61;0.3;1.06;0.7
1753879335.772601;-2.137;2.814;-0.154;-3.04;-0.18;-126.55;1694.9;1827.4;1532.5;1291.4;184.7;58.1;83.5;220.6;-0.82;0.35;-10.58;-0.05;0.44;1.94
1753879335.777601;-2.133;2.814;-0.154;-3.03;1.17;-126.56;1157.0;1775.5;1812.2;1494.1;143.9;51.2;173.2;163.4;-0.25;0.03;-10.66;0.08;1.73;0.5
1753879335.782598;-2.129;2.812;-0.154;-3.07;0.63;-126.55;1426.0;1343.0;1536.0;1380.0;127.0;47.0;131.0;151.0;-0.25;0.46;-10.55;0.25;1.17;1.11
1753879335.787598;-2.129;2.812;-0.154;-3.07;0.63;-126.55;1426.0;1343.0;1536.0;1380.0;127.0;47.0;131.0;151.0;-0.34;0.55;-10.68;0.67;0.45;0.51
1753879335.792598;-2.129;2.812;-0.154;-3.07;0.63;-126.55;1426.0;1343.0;1536.0;1380.0;127.0;47.0;131.0;151.0;-0.38;0.76;-10.82;0.74;0.09;0.93
1753879335.797598;-2.129;2.812;-0.154;-3.07;0.63;-126.55;1426.0;1343.0;1536.0;1380.0;127.0;47.0;131.0;151.0;-0.52;0.88;-10.85;0.71;0.3;0.95
1753879335.802598;-2.129;2.812;-0.154;-3.07;0.63;-126.55;1426.0;1343.0;1536.0;1380.0;127.0;47.0;131.0;151.0;-0.67;1.0;-10.74;0.77;0.67;-1.16
1753879335.807598;-2.129;2.812;-0.154;-3.07;0.63;-126.55;1426.0;1343.0;1536.0;1380.0;127.0;47.0;131.0;151.0;-0.69;1.2;-10.66;0.56;0.36;-0.59
1753879335.812598;-2.129;2.812;-0.154;-3.07;0.63;-126.55;1426.0;1343.0;1536.0;1380.0;127.0;47.0;131.0;151.0;-0.74;1.4;-10.72;0.58;0.15;0.19
1753879335.817598;-2.129;2.812;-0.154;-3.07;0.63;-126.55;1426.0;1343.0;1536.0;1380.0;127.0;47.0;131.0;151.0;-0.85;1.53;-10.79;0.51;0.62;-1.53
1753879335.822598;-2.129;2.812;-0.154;-3.07;0.63;-126.55;1426.0;1343.0;1536.0;1380.0;127.0;47.0;131.0;151.0;-0.86;1.39;-10.83;0.39;-0.01;1.33
1753879335.827598;-2.129;2.812;-0.154;-3.07;0.63;-126.55;1426.0;1343.0;1536.0;1380.0;127.0;47.0;131.0;151.0;-1.0;1.75;-10.7;0.74;0.19;-0.44
1753879335.832598;-2.129;2.812;-0.154;-3.07;0.63;-126.55;1426.0;1343.0;1536.0;1380.0;127.0;47.0;131.0;151.0;-1.04;1.72;-10.73;1.06;0.29;-0.39
1753879335.837598;-2.129;2.812;-0.154;-3.07;0.63;-126.55;1426.0;1343.0;1536.0;1380.0;127.0;47.0;131.0;151.0;-1.03;1.65;-10.71;0.83;0.48;-2.13
1753879335.842598;-2.129;2.812;-0.154;-3.07;0.63;-126.55;1426.0;1343.0;1536.0;1380.0;127.0;47.0;131.0;151.0;-1.05;1.58;-10.57;0.82;0.22;-0.33
1753879335.847598;-2.129;2.812;-0.154;-3.07;0.63;-126.55;1426.0;1343.0;1536.0;1380.0;127.0;47.0;131.0;151.0;-1.08;1.43;-10.47;0.94;0.39;-1.07
1753879335.852598;-2.129;2.812;-0.154;-3.07;0.63;-126.55;1426.0;1343.0;1536.0;1380.0;127.0;47.0;131.0;151.0;-1.03;1.33;-10.49;0.67;0.49;-1.0
1753879335.857598;-2.129;2.812;-0.154;-3.07;0.63;-126.55;1426.0;1343.0;1536.0;1380.0;127.0;47.0;131.0;151.0;-1.01;1.24;-10.58;0.61;0.45;-1.43
1753879335.862598;-2.129;2.812;-0.154;-3.07;0.63;-126.55;1426.0;1343.0;1536.0;1380.0;127.0;47.0;131.0;151.0;-0.99;1.13;-10.6;0.69;0.33;-1.02
1753879335.867598;-2.129;2.812;-0.154;-3.07;0.63;-126.55;1426.0;1343.0;1536.0;1380.0;127.0;47.0;131.0;151.0;-1.01;1.01;-10.58;0.61;0.54;-0.67
1753879335.872598;-2.129;2.812;-0.154;-3.07;0.63;-126.55;1426.0;1343.0;1536.0;1380.0;127.0;47.0;131.0;151.0;-0.93;0.94;-10.56;0.57;0.63;-1.83
1753879335.877598;-2.129;2.812;-0.154;-3.07;0.63;-126.55;1426.0;1343.0;1536.0;1380.0;127.0;47.0;131.0;151.0;-0.87;0.91;-10.52;0.61;0.24;-1.15
1753879335.882598;-2.129;2.812;-0.154;-3.07;0.63;-126.55;1426.0;1343.0;1536.0;1380.0;127.0;47.0;131.0;151.0;-0.88;0.8;-10.56;0.61;0.32;-0.58
1753879335.887598;-2.129;2.812;-0.154;-3.07;0.63;-126.55;1426.0;1343.0;1536.0;1380.0;127.0;47.0;131.0;151.0;-0.83;0.74;-10.64;0.73;0.48;-1.51
1753879335.892598;-2.129;2.812;-0.154;-3.07;0.63;-126.55;1426.0;1343.0;1536.0;1380.0;127.0;47.0;131.0;151.0;-0.76;0.72;-10.61;0.8;0.77;-2.52
1753879335.897598;-2.129;2.812;-0.154;-3.07;0.63;-126.55;1426.0;1343.0;1536.0;1380.0;127.0;47.0;131.0;151.0;-0.77;0.66;-10.69;0.48;-0.14;1.45
1753879335.902598;-2.129;2.812;-0.154;-3.07;0.63;-126.55;1426.0;1343.0;1536.0;1380.0;127.0;47.0;131.0;151.0;-0.68;0.47;-10.68;0.63;0.25;-1.25
1753879335.907598;-2.129;2.812;-0.154;-3.07;0.63;-126.55;1426.0;1343.0;1536.0;1380.0;127.0;47.0;131.0;151.0;-0.66;0.38;-10.61;1.01;1.09;-2.59
1753879335.912598;-2.129;2.812;-0.154;-3.07;0.63;-126.55;1426.0;1343.0;1536.0;1380.0;127.0;47.0;131.0;151.0;-0.56;0.34;-10.65;0.61;-0.23;2.63
1753879335.917598;-2.129;2.812;-0.154;-3.07;0.63;-126.55;1426.0;1343.0;1536.0;1380.0;127.0;47.0;131.0;151.0;-0.55;0.16;-10.73;0.76;0.15;0.22
1753879335.922598;-2.129;2.812;-0.154;-3.07;0.63;-126.55;1426.0;1343.0;1536.0;1380.0;127.0;47.0;131.0;151.0;-0.51;0.06;-10.73;0.94;1.06;-2.15
1753879335.927598;-2.129;2.812;-0.154;-3.07;0.63;-126.55;1426.0;1343.0;1536.0;1380.0;127.0;47.0;131.0;151.0;-0.43;0.07;-10.69;0.76;-0.24;2.51
1753879335.932598;-2.129;2.812;-0.154;-3.07;0.63;-126.55;1426.0;1343.0;1536.0;1380.0;127.0;47.0;131.0;151.0;-0.42;0.01;-10.72;0.82;0.02;1.75
1753879335.937598;-2.129;2.812;-0.154;-3.07;0.63;-126.55;1426.0;1343.0;1536.0;1380.0;127.0;47.0;131.0;151.0;-0.37;-0.07;-10.71;0.91;1.03;-2.15
1753879335.942598;-2.129;2.812;-0.154;-3.07;0.63;-126.55;1426.0;1343.0;1536.0;1380.0;127.0;47.0;131.0;151.0;-0.32;0.03;-10.7;0.72;0.0;2.05
1753879335.947598;-2.129;2.812;-0.154;-3.07;0.63;-126.55;1426.0;1343.0;1536.0;1380.0;127.0;47.0;131.0;151.0;-0.3;0.01;-10.71;0.82;0.04;1.84
1753879335.952598;-2.129;2.812;-0.154;-3.07;0.63;-126.55;1426.0;1343.0;1536.0;1380.0;127.0;47.0;131.0;151.0;-0.3;-0.06;-10.67;0.97;0.96;-2.7
1753879335.957598;-2.129;2.812;-0.154;-3.07;0.63;-126.55;1426.0;1343.0;1536.0;1380.0;127.0;47.0;131.0;151.0;-0.23;0.14;-10.65;0.8;0.12;0.81
1753879335.962598;-2.129;2.812;-0.154;-3.07;0.63;-126.55;1426.0;1343.0;1536.0;1380.0;127.0;47.0;131.0;151.0;-0.17;0.26;-10.68;0.93;-0.06;1.61
1753879335.967598;-2.129;2.812;-0.154;-3.07;0.63;-126.55;1426.0;1343.0;1536.0;1380.0;127.0;47.0;131.0;151.0;-0.25;0.24;-10.67;0.86;0.62;-2.16
1753879335.972598;-2.129;2.812;-0.154;-3.07;0.63;-126.55;1426.0;1343.0;1536.0;1380.0;127.0;47.0;131.0;151.0;-0.2;0.46;-10.64;0.77;0.26;-1.09
1753879335.977598;-2.129;2.812;-0.154;-3.07;0.63;-126.55;1426.0;1343.0;1536.0;1380.0;127.0;47.0;131.0;151.0;-0.1;0.64;-10.64;0.7;-0.15;1.22
1753879335.982598;-2.129;2.812;-0.154;-3.07;0.63;-126.55;1426.0;1343.0;1536.0;1380.0;127.0;47.0;131.0;151.0;-0.18;0.6;-10.66;0.82;0.53;-1.68
1753879335.987598;-2.129;2.812;-0.154;-3.07;0.63;-126.55;1426.0;1343.0;1536.0;1380.0;127.0;47.0;131.0;151.0;-0.17;0.66;-10.65;0.85;0.52;-2.18
1753879335.992598;-2.129;2.812;-0.154;-3.07;0.63;-126.55;1426.0;1343.0;1536.0;1380.0;127.0;47.0;131.0;151.0;-0.06;0.8;-10.62;1.13;-0.12;1.26
1753879335.997598;-2.129;2.812;-0.154;-3.07;0.63;-126.55;1426.0;1343.0;1536.0;1380.0;127.0;47.0;131.0;151.0;-0.11;0.69;-10.67;1.23;0.29;-0.88
1753879336.002598;-2.129;2.812;-0.154;-3.07;0.63;-126.55;1426.0;1343.0;1536.0;1380.0;127.0;47.0;131.0;151.0;-0.07;0.68;-10.69;1.21;0.4;-1.37
1753879336.007598;-2.129;2.812;-0.154;-3.07;0.63;-126.55;1426.0;1343.0;1536.0;1380.0;127.0;47.0;131.0;151.0;0.0;0.74;-10.65;1.15;-0.1;1.46
1753879336.012598;-2.129;2.812;-0.154;-3.07;0.63;-126.55;1426.0;1343.0;1536.0;1380.0;127.0;47.0;131.0;151.0;-0.02;0.6;-10.69;1.19;0.19;0.67
1753879336.017598;-2.129;2.812;-0.154;-3.07;0.63;-126.55;1426.0;1343.0;1536.0;1380.0;127.0;47.0;131.0;151.0;0.0;0.5;-10.72;1.32;0.3;-0.59
1753879336.022598;-2.136;2.816;-0.154;-2.97;0.6;-126.55;1418.8;1479.4;1617.3;1490.2;112.3;44.7;143.0;153.0;-0.13;0.53;-10.69;1.24;0.79;-3.25
1753879336.027598;-2.133;2.816;-0.154;-2.97;0.66;-126.57;1177.1;1215.2;1556.3;1286.2;101.5;39.0;136.3;148.9;-0.27;0.44;-10.7;1.34;0.78;2.34
1753879336.032598;-2.128;2.787;-0.154;-2.94;0.82;-126.57;1322.4;1284.0;1437.6;1470.0;123.1;31.3;111.7;136.7;0.1;1.04;-10.69;1.07;0.14;-2.13
1753879336.037598;-2.135;2.793;-0.154;-2.95;0.14;-126.56;1417.1;1305.4;1518.4;1404.2;142.5;43.9;101.0;133.8;0.13;0.68;-10.71;1.27;0.29;-2.78
1753879336.042598;-2.143;2.8;-0.154;-3.01;0.24;-126.56;1422.0;1302.9;1250.4;1117.3;143.5;35.3;130.4;159.0;-0.17;0.82;-10.68;1.42;0.27;-2.83
1753879336.047598;-2.135;2.806;-0.154;-3.04;0.4;-126.57;1171.1;1134.7;1177.8;1166.5;98.7;32.3;122.2;153.4;0.03;0.47;-10.73;1.44;-0.12;-0.15
1753879336.052599;-2.128;2.786;-0.154;-3.09;0.19;-126.57;1302.6;1132.9;1367.7;1317.0;106.3;38.1;110.2;135.5;-0.04;0.34;-10.64;1.5;0.17;-1.9
1753879336.057599;-2.143;2.796;-0.154;-2.94;0.2;-126.58;1347.9;1266.2;1152.9;996.4;110.2;40.7;108.1;163.5;0.2;0.54;-10.74;1.34;0.39;-1.32
1753879336.062599;-2.147;2.809;-0.154;-2.96;-0.02;-126.55;1174.6;1288.1;1537.1;1229.3;101.6;41.1;128.0;125.4;0.07;0.42;-10.66;1.1;0.44;0.06
1753879336.067599;-2.144;2.787;-0.154;-2.94;0.56;-126.56;1279.7;1147.6;1408.3;1146.7;109.8;36.0;102.9;131.0;-0.07;1.15;-10.71;1.41;0.3;0.76
1753879336.072599;-2.131;2.794;-0.154;-3.0;-0.05;-126.57;1201.0;1101.9;1383.8;1239.4;77.2;16.0;95.9;145.7;-0.0;0.63;-10.67;0.98;1.03;-1.64
1753879336.077599;-2.156;2.79;-0.154;-2.92;0.11;-126.57;1172.2;1095.7;1234.4;1457.1;91.7;20.6;101.2;114.4;0.06;-0.12;-10.64;0.85;0.16;-0.45
1753879336.0826;-2.13;2.787;-0.154;-2.99;0.1;-126.59;1256.1;1151.7;1424.2;1262.3;62.7;39.6;95.7;136.1;0.1;-0.2;-10.63;1.25;0.36;2.33
1753879336.0876;-2.151;2.773;-0.154;-2.98;0.55;-126.58;1171.5;1095.1;1212.7;1195.1;108.4;15.0;115.5;131.2;0.39;0.16;-10.71;1.09;-0.17;1.53
1753879336.0926;-2.16;2.785;-0.154;-2.91;0.01;-126.6;1184.2;1077.5;1161.7;1057.6;68.8;41.6;105.8;128.6;-0.03;1.15;-10.63;0.82;0.4;-1.78
1753879336.0976;-2.141;2.775;-0.154;-2.84;-0.3;-126.57;1140.0;1184.7;1015.9;894.2;31.4;35.4;81.6;145.3;0.03;1.01;-10.64;1.16;0.09;5.05
1753879336.1026;-2.153;2.774;-0.154;-2.87;-0.06;-126.56;1224.9;1057.7;1252.8;1048.2;73.1;26.0;106.6;117.2;-0.16;0.79;-10.6;1.21;-0.03;1.31
1753879336.1076;-2.145;2.783;-0.154;-2.92;-0.06;-126.59;1256.5;1139.5;1008.3;1184.7;69.5;24.6;79.0;114.6;0.01;0.22;-10.65;0.94;0.41;0.99
1753879336.1126;-2.149;2.775;-0.154;-2.95;-0.21;-126.58;1024.0;1036.2;1081.8;989.3;38.3;23.0;73.1;111.6;-0.29;0.97;-10.58;0.89;0.12;-0.7
1753879336.1176;-2.157;2.769;-0.154;-3.01;-0.25;-126.6;1123.6;974.7;1117.8;1059.5;35.3;21.2;82.0;112.8;0.25;0.36;-10.68;1.46;-0.33;-1.53
1753879336.1226;-2.155;2.78;-0.154;-2.83;0.12;-126.58;1229.1;931.5;1059.1;987.0;50.4;29.0;78.0;109.7;0.12;0.88;-10.63;0.97;0.46;2.84
1753879336.1276;-2.163;2.766;-0.154;-2.86;-0.21;-126.59;1032.4;1119.9;1007.6;949.8;65.4;9.9;70.0;118.6;0.15;0.81;-10.65;0.95;0.16;1.64
1753879336.1326;-2.157;2.768;-0.154;-2.91;-0.72;-126.58;1057.8;958.2;1168.1;886.3;26.6;24.3;58.1;96.2;-0.11;0.97;-10.62;1.19;0.61;-1.29
1753879336.137601;-2.159;2.792;-0.154;-2.83;-0.18;-126.61;879.2;902.4;1130.5;826.4;33.1;9.3;79.2;121.7;-0.01;0.96;-10.63;0.53;0.6;0.09
1753879336.142598;-2.159;2.772;-0.154;-2.84;-0.44;-126.6;970.0;976.0;1006.0;923.0;35.0;14.0;69.0;105.0;0.08;0.6;-10.62;0.89;0.24;1.12
1753879336.147598;-2.159;2.772;-0.154;-2.84;-0.44;-126.6;970.0;976.0;1006.0;923.0;35.0;14.0;69.0;105.0;0.05;0.56;-10.64;0.74;0.35;0.47
1753879336.152598;-2.159;2.772;-0.154;-2.84;-0.44;-126.6;970.0;976.0;1006.0;923.0;35.0;14.0;69.0;105.0;0.1;0.57;-10.62;0.7;0.16;1.72
1753879336.157598;-2.159;2.772;-0.154;-2.84;-0.44;-126.6;970.0;976.0;1006.0;923.0;35.0;14.0;69.0;105.0;0.08;0.51;-10.63;0.67;0.27;1.35
1753879336.162598;-2.159;2.772;-0.154;-2.84;-0.44;-126.6;970.0;976.0;1006.0;923.0;35.0;14.0;69.0;105.0;0.04;0.44;-10.64;0.57;0.56;0.58
1753879336.167598;-2.159;2.772;-0.154;-2.84;-0.44;-126.6;970.0;976.0;1006.0;923.0;35.0;14.0;69.0;105.0;0.05;0.44;-10.64;0.49;0.35;1.77
1753879336.172598;-2.159;2.772;-0.154;-2.84;-0.44;-126.6;970.0;976.0;1006.0;923.0;35.0;14.0;69.0;105.0;0.05;0.41;-10.64;0.54;0.31;1.83
1753879336.177598;-2.159;2.772;-0.154;-2.84;-0.44;-126.6;970.0;976.0;1006.0;923.0;35.0;14.0;69.0;105.0;0.01;0.35;-10.64;0.48;0.53;1.0
1753879336.182598;-2.163;2.727;-0.154;-2.88;-0.75;-126.61;1096.2;1090.4;1148.2;1087.0;29.2;-12.5;17.9;113.0;-0.01;0.48;-10.61;1.08;0.46;0.89
1753879336.187598;-2.155;2.752;-0.154;-2.77;0.18;-126.57;475.7;756.5;896.8;659.2;20.0;12.6;86.3;145.8;0.04;0.31;-10.63;0.65;0.46;-1.49
1753879336.192598;-2.16;2.759;-0.154;-2.89;0.59;-126.6;942.1;1041.1;992.9;948.1;56.2;44.0;0.4;60.0;0.01;0.3;-10.66;0.45;0.42;-1.27
1753879336.197598;-2.157;2.805;-0.154;-2.86;-1.4;-126.64;453.2;1127.3;1349.5;1045.6;75.8;16.0;31.6;99.7;0.01;0.41;-10.64;0.69;0.56;-0.92
1753879336.202598;-2.162;2.761;-0.154;-2.92;-0.85;-126.59;1479.4;866.1;576.3;586.6;109.7;49.3;28.0;80.8;0.07;0.52;-10.6;0.49;0.36;-0.3
1753879336.207599;-2.155;2.79;-0.154;-2.84;-0.88;-126.62;956.4;1126.6;911.9;931.3;53.9;19.7;15.9;69.9;-0.12;0.38;-10.65;0.29;0.48;1.08
1753879336.212599;-2.164;2.772;-0.154;-2.74;-0.8;-126.58;802.8;1028.0;957.6;820.7;23.8;13.5;55.5;110.6;0.03;0.44;-10.65;1.1;0.62;1.46
1753879336.217599;-2.157;2.79;-0.154;-2.89;0.06;-126.58;1256.0;906.1;1261.3;661.9;95.4;2.8;44.6;83.8;-0.13;0.69;-10.63;0.61;0.77;-0.84
1753879336.222599;-2.175;2.785;-0.154;-2.67;-0.89;-126.58;841.4;1213.3;567.9;624.8;87.0;21.5;53.9;91.4;-0.03;0.49;-10.61;0.94;0.68;-2.2
1753879336.227599;-2.154;2.762;-0.154;-2.88;0.4;-126.58;1062.4;902.0;1148.7;1135.8;97.8;52.6;88.1;144.9;-0.13;0.26;-10.64;0.69;0.68;-2.56
1753879336.232599;-2.155;2.78;-0.154;-2.63;0.2;-126.58;1007.7;935.8;1213.5;862.5;141.8;8.7;-3.6;76.0;-0.02;0.28;-10.56;0.57;0.69;1.12
1753879336.237599;-2.167;2.762;-0.154;-2.87;-0.98;-126.57;539.5;788.0;1323.6;898.1;41.2;29.6;18.6;69.2;0.1;0.51;-10.62;0.62;0.81;0.31
1753879336.2426;-2.174;2.755;-0.154;-2.89;-0.54;-126.58;855.0;904.8;1130.8;766.5;95.8;49.6;85.4;111.9;-0.04;0.43;-10.64;0.79;0.87;-0.57
1753879336.2476;-2.146;2.789;-0.154;-2.6;-0.59;-126.61;670.3;953.0;1197.8;1001.9;-3.6;34.6;102.9;40.4;-0.02;0.4;-10.58;0.84;0.84;-1.0
1753879336.2526;-2.157;2.748;-0.154;-2.94;0.11;-126.54;897.3;906.9;856.8;943.3;1.2;24.8;135.6;89.2;-0.19;0.37;-10.65;0.95;0.51;-0.39
1753879336.2576;-2.16;2.76;-0.154;-2.73;0.17;-126.55;1159.3;1487.8;1056.3;1083.7;39.6;24.2;42.9;59.7;-0.14;0.39;-10.63;0.57;0.22;-0.26
1753879336.2626;-2.163;2.765;-0.154;-2.8;-0.03;-126.59;892.8;1283.6;700.4;1337.3;-11.9;41.2;87.7;55.6;-0.0;0.67;-10.65;0.88;0.56;0.15
1753879336.2676;-2.181;2.782;-0.154;-2.67;-0.35;-126.61;912.8;1001.2;969.3;1238.1;-13.5;70.7;87.3;28.1;0.17;0.83;-10.62;0.52;0.44;0.68
1753879336.2726;-2.129;2.746;-0.154;-2.61;0.95;-126.57;983.0;800.8;964.8;788.2;-3.6;65.9;-21.4;67.8;-0.06;0.55;-10.63;0.27;0.41;-0.53
1753879336.2776;-2.144;2.781;-0.154;-2.68;-0.83;-126.55;952.7;785.1;768.5;1027.5;3.6;59.4;29.9;44.5;-0.28;0.54;-10.58;0.58;0.94;0.2
1753879336.2826;-2.18;2.768;-0.154;-2.75;-0.03;-126.55;672.4;949.5;1375.8;642.4;-22.3;16.6;21.4;47.9;-0.11;0.42;-10.6;0.68;0.6;1.64
1753879336.2876;-2.168;2.767;-0.154;-2.72;-0.22;-126.57;924.2;750.9;373.8;995.1;59.9;60.4;43.9;-9.9;0.07;0.71;-10.61;0.48;0.61;1.2
1753879336.292601;-2.159;2.759;-0.154;-2.56;-0.6;-126.63;646.7;1020.3;1176.3;842.6;92.1;28.3;74.5;87.0;-0.29;0.76;-10.64;0.65;0.4;0.74
1753879336.297601;-2.176;2.764;-0.154;-2.79;-0.15;-126.58;920.6;790.6;998.3;882.4;102.9;24.0;77.8;2.0;-0.23;0.58;-10.61;0.79;0.45;-0.17
1753879336.302601;-2.178;2.79;-0.154;-2.73;0.18;-126.54;1147.4;870.3;1084.3;805.3;23.8;27.9;36.1;20.2;-0.16;0.94;-10.63;0.78;0.64;-0.75
1753879336.307601;-2.191;2.783;-0.154;-2.5;-0.35;-126.57;1284.9;953.3;770.7;568.9;3.4;5.3;57.7;13.6;-0.34;0.61;-10.59;1.0;0.49;-1.49
1753879336.312601;-2.166;2.768;-0.154;-2.63;-0.54;-126.55;919.7;784.3;934.3;978.8;-54.8;55.7;49.9;-15.9;-0.05;0.68;-10.57;0.56;0.36;2.17
1753879336.317601;-2.196;2.773;-0.154;-2.6;-1.48;-126.55;773.6;808.0;735.5;866.2;22.5;65.0;50.1;25.5;-0.06;0.9;-10.64;0.39;0.82;0.36
