DeviceID;Timestamp;Temperature;GyroX;GyroY;GyroZ;AccelX;AccelY;AccelZ;Dist1;Dist2;Dist3;Err1;Err2;Err3
1.0;1753877967.936628;18.452476;1.02;-1.75;0.07;-0.057625;0.981163;0.014269;0.0;0.0;0.0;0.0;0.0;0.0
1.0;1753877967.941226;18.400855;1.08;-1.74;0.09;-0.058633;0.982688;0.016053;0.0;0.0;0.0;0.0;0.0;0.0
1.0;1753877967.945824;18.382675;1.1;-1.62;0.04;-0.05839;0.982148;0.01474;0.0;0.0;0.0;0.0;0.0;0.0
1.0;1753877967.950422;18.409147;1.06;-1.67;0.08;-0.059466;0.982308;0.016052;0.0;0.0;0.0;0.0;0.0;0.0
1.0;1753877967.95502;18.407059;1.07;-1.74;0.08;-0.05469;0.9827;0.016198;0.0;0.0;0.0;0.0;0.0;0.0
1.0;1753877967.959618;18.445488;1.08;-1.71;0.13;-0.058492;0.981748;0.015019;0.0;0.0;0.0;0.0;0.0;0.0
1.0;1753877967.964215;18.451995;1.03;-1.66;0.1;-0.057533;0.982406;0.015609;0.0;0.0;0.0;0.0;0.0;0.0
1.0;1753877967.968813;18.396032;1.13;-1.69;0.02;-0.055685;0.981774;0.015137;0.0;0.0;0.0;0.0;0.0;0.0
1.0;1753877967.973411;18.393476;1.11;-1.67;0.04;-0.058941;0.982902;0.015032;0.0;0.0;0.0;0.0;0.0;0.0
1.0;1753877967.97994;18.417969;1.12;-1.68;0.07;-0.057462;0.981612;0.015738;0.0;0.0;0.0;0.0;0.0;0.0
1.0;1753877967.980315;18.378906;1.05;-1.68;0.07;-0.057462;0.981612;0.016104;0.0;0.0;0.0;0.0;0.0;0.0
1.0;1753877967.984936;18.378906;1.05;-1.68;0.07;-0.05673;0.980636;0.015616;0.0;0.0;0.0;0.0;0.0;0.0
1.0;1753877967.989459;18.402344;1.19;-1.75;0.0;-0.05917;0.98088;0.01464;0.0;0.0;0.0;0.0;0.0;0.0
1.0;1753877967.994703;18.402344;1.05;-1.68;0.07;-0.057096;0.980392;0.01708;0.0;0.0;0.0;0.0;0.0;0.0
1.0;1753877967.999749;18.402344;1.12;-1.61;0.07;-0.058194;0.982466;0.015128;0.0;0.0;0.0;0.0;0.0;0.0
1.0;1753877968.004347;18.385538;1.16;-1.69;0.1;-0.05798;0.983578;0.015317;0.0;0.0;0.0;0.0;0.0;0.0
1.0;1753877968.008945;18.389738;1.13;-1.61;0.19;-0.058681;0.982342;0.014262;0.0;0.0;0.0;0.0;0.0;0.0
1.0;1753877968.013543;18.402956;1.18;-1.66;0.08;-0.055444;0.982308;0.015417;0.0;0.0;0.0;0.0;0.0;0.0
1.0;1753877968.01814;18.417481;1.12;-1.59;0.1;-0.062517;0.981855;0.016153;0.0;0.0;0.0;0.0;0.0;0.0
1.0;1753877968.022738;18.432867;1.05;-1.64;0.03;-0.058088;0.981062;0.013843;0.0;0.0;0.0;0.0;0.0;0.0
1.0;1753877968.027336;18.396932;1.05;-1.67;-0.01;-0.054986;0.981951;0.015392;0.0;0.0;0.0;0.0;0.0;0.0
1.0;1753877968.031934;18.438873;1.18;-1.61;0.1;-0.055681;0.982987;0.01419;0.0;0.0;0.0;0.0;0.0;0.0
1.0;1753877968.036532;18.401155;1.12;-1.64;0.09;-0.056172;0.982099;0.015491;0.0;0.0;0.0;0.0;0.0;0.0
1.0;1753877968.04113;18.410776;1.08;-1.47;0.1;-0.057806;0.981975;0.013893;0.0;0.0;0.0;0.0;0.0;0.0
1.0;1753877968.045728;18.374533;1.08;-1.5;0.11;-0.056951;0.982667;0.016181;0.0;0.0;0.0;0.0;0.0;0.0
1.0;1753877968.050326;18.357823;1.08;-1.66;-0.01;-0.056744;0.982056;0.01501;0.0;0.0;0.0;0.0;0.0;0.0
1.0;1753877968.054924;18.38925;1.17;-1.55;0.01;-0.06116;0.983613;0.015833;0.0;0.0;0.0;0.0;0.0;0.0
1.0;1753877968.059522;18.390825;1.13;-1.66;0.15;-0.058088;0.982734;0.01659;0.0;0.0;0.0;0.0;0.0;0.0
1.0;1753877968.06412;18.450671;1.08;-1.48;0.05;-0.05515;0.982414;0.01657;0.0;0.0;0.0;0.0;0.0;0.0
1.0;1753877968.068718;18.416767;1.1;-1.53;0.1;-0.059941;0.982513;0.015472;0.0;0.0;0.0;0.0;0.0;0.0
1.0;1753877968.073316;18.38206;1.09;-1.6;0.01;-0.055498;0.982471;0.01651;0.0;0.0;0.0;0.0;0.0;0.0
1.0;1753877968.077913;18.446226;1.05;-1.53;0.05;-0.056958;0.981796;0.01555;0.0;0.0;0.0;0.0;0.0;0.0
1.0;1753877968.082511;18.392154;1.19;-1.62;0.02;-0.057187;0.984646;0.016882;0.0;0.0;0.0;0.0;0.0;0.0
1.0;1753877968.087109;18.405753;1.12;-1.64;0.1;-0.056642;0.982761;0.01555;0.0;0.0;0.0;0.0;0.0;0.0
1.0;1753877968.091707;18.404118;1.07;-1.52;0.08;-0.059545;0.98296;0.015631;0.0;0.0;0.0;0.0;0.0;0.0
1.0;1753877968.096305;18.415162;1.07;-1.59;0.06;-0.059025;0.98097;0.015972;0.0;0.0;0.0;0.0;0.0;0.0
1.0;1753877968.100903;18.390565;1.08;-1.7;0.15;-0.060395;0.98325;0.015725;0.0;0.0;0.0;0.0;0.0;0.0
1.0;1753877968.105501;18.389369;1.07;-1.56;0.1;-0.057766;0.983402;0.015936;0.0;0.0;0.0;0.0;0.0;0.0
1.0;1753877968.110098;18.368342;1.13;-1.64;0.19;-0.057101;0.981487;0.016116;0.0;0.0;0.0;0.0;0.0;0.0
1.0;1753877968.114696;18.431522;1.09;-1.6;0.06;-0.060485;0.982484;0.01511;0.0;0.0;0.0;0.0;0.0;0.0
1.0;1753877968.119294;18.392195;1.07;-1.56;0.08;-0.05758;0.98167;0.01584;0.0;0.0;0.0;0.0;0.0;0.0
1.0;1753877968.123892;18.468275;1.05;-1.64;0.03;-0.055238;0.98135;0.016324;0.0;0.0;0.0;0.0;0.0;0.0
1.0;1753877968.12849;18.403786;1.09;-1.6;0.04;-0.055144;0.982539;0.015079;0.0;0.0;0.0;0.0;0.0;0.0
1.0;1753877968.133088;18.380582;1.06;-1.63;0.14;-0.057414;0.984095;0.014477;0.0;0.0;0.0;0.0;0.0;0.0
1.0;1753877968.137686;18.373723;1.09;-1.52;0.06;-0.058612;0.981916;0.014694;0.0;0.0;0.0;0.0;0.0;0.0
1.0;1753877968.142284;18.396707;1.14;-1.55;0.09;-0.059421;0.981754;0.015863;0.0;0.0;0.0;0.0;0.0;0.0
1.0;1753877968.146882;18.362789;1.12;-1.6;0.07;-0.056388;0.982466;0.015193;0.0;0.0;0.0;0.0;0.0;0.0
1.0;1753877968.15148;18.371636;1.12;-1.64;0.05;-0.056319;0.983657;0.014059;0.0;0.0;0.0;0.0;0.0;0.0
1.0;1753877968.156078;18.425077;1.1;-1.68;0.13;-0.0548;0.981266;0.015403;0.0;0.0;0.0;0.0;0.0;0.0
1.0;1753877968.160676;18.384139;1.11;-1.65;0.03;-0.059799;0.982306;0.014805;0.0;0.0;0.0;0.0;0.0;0.0
1.0;1753877968.165274;18.361062;1.05;-1.58;0.09;-0.058147;0.983138;0.014269;0.0;0.0;0.0;0.0;0.0;0.0
1.0;1753877968.169871;18.418589;1.11;-1.55;0.15;-0.061748;0.9819;0.016497;0.0;0.0;0.0;0.0;0.0;0.0
1.0;1753877968.174469;18.445001;1.13;-1.62;0.09;-0.055642;0.98269;0.014037;0.0;0.0;0.0;0.0;0.0;0.0
1.0;1753877968.179067;18.463864;0.99;-1.57;0.08;-0.055416;0.984104;0.015921;0.0;0.0;0.0;0.0;0.0;0.0
1.0;1753877968.183665;18.411044;1.0;-1.67;0.09;-0.056759;0.982539;0.016208;0.0;0.0;0.0;0.0;0.0;0.0
1.0;1753877968.188263;18.382892;1.05;-1.54;0.11;-0.059934;0.98246;0.017068;0.0;0.0;0.0;0.0;0.0;0.0
1.0;1753877968.192861;18.396656;1.1;-1.58;-0.04;-0.057171;0.982493;0.014615;0.0;0.0;0.0;0.0;0.0;0.0
1.0;1753877968.197459;18.403628;1.1;-1.64;0.09;-0.056146;0.981673;0.015106;0.0;0.0;0.0;0.0;0.0;0.0
1.0;1753877968.202057;18.400001;1.02;-1.55;-0.02;-0.058655;0.981445;0.016097;0.0;0.0;0.0;0.0;0.0;0.0
1.0;1753877968.206654;18.418725;1.01;-1.62;0.1;-0.056826;0.982237;0.017913;0.0;0.0;0.0;0.0;0.0;0.0
1.0;1753877968.211252;18.371787;1.08;-1.61;0.08;-0.057451;0.98358;0.016771;0.0;0.0;0.0;0.0;0.0;0.0
1.0;1753877968.21585;18.438219;1.08;-1.63;0.03;-0.054352;0.982969;0.016089;0.0;0.0;0.0;0.0;0.0;0.0
1.0;1753877968.220448;18.433592;1.13;-1.61;0.17;-0.058472;0.981256;0.016295;0.0;0.0;0.0;0.0;0.0;0.0
1.0;1753877968.225046;18.379155;1.09;-1.55;0.04;-0.058615;0.983615;0.014661;0.0;0.0;0.0;0.0;0.0;0.0
1.0;1753877968.229644;18.398029;1.1;-1.63;0.08;-0.06088;0.982493;0.017218;0.0;0.0;0.0;0.0;0.0;0.0
1.0;1753877968.234242;18.401361;1.1;-1.59;0.08;-0.057809;0.981808;0.014916;0.0;0.0;0.0;0.0;0.0;0.0
1.0;1753877968.23884;18.404343;1.1;-1.62;-0.02;-0.057076;0.981212;0.017273;0.0;0.0;0.0;0.0;0.0;0.0
1.0;1753877968.243438;18.424099;1.12;-1.58;0.14;-0.059991;0.981708;0.01597;0.0;0.0;0.0;0.0;0.0;0.0
1.0;1753877968.248036;18.410746;1.06;-1.46;0.12;-0.060441;0.981724;0.015251;0.0;0.0;0.0;0.0;0.0;0.0
1.0;1753877968.252634;18.405243;1.09;-1.61;-0.03;-0.057832;0.981973;0.015209;0.0;0.0;0.0;0.0;0.0;0.0
1.0;1753877968.257232;18.422635;1.05;-1.62;0.11;-0.061182;0.982022;0.01469;0.0;0.0;0.0;0.0;0.0;0.0
1.0;1753877968.26183;18.382067;1.03;-1.63;0.03;-0.057467;0.984083;0.016996;0.0;0.0;0.0;0.0;0.0;0.0
1.0;1753877968.266427;18.419079;1.17;-1.62;0.15;-0.058667;0.9819;0.016696;0.0;0.0;0.0;0.0;0.0;0.0
1.0;1753877968.271025;18.415513;0.95;-1.66;0.11;-0.055993;0.983111;0.013885;0.0;0.0;0.0;0.0;0.0;0.0
1.0;1753877968.275623;18.376985;1.12;-1.66;0.1;-0.059483;0.982865;0.015871;0.0;0.0;0.0;0.0;0.0;0.0
1.0;1753877968.280221;18.379941;1.11;-1.73;0.03;-0.058357;0.983027;0.016917;0.0;0.0;0.0;0.0;0.0;0.0
1.0;1753877968.284819;18.383562;1.03;-1.61;0.13;-0.061619;0.984446;0.016439;0.0;0.0;0.0;0.0;0.0;0.0
1.0;1753877968.289417;18.394772;1.01;-1.66;0.08;-0.058274;0.983344;0.016147;0.0;0.0;0.0;0.0;0.0;0.0
1.0;1753877968.294015;18.363785;1.02;-1.6;0.12;-0.061657;0.981714;0.016158;0.0;0.0;0.0;0.0;0.0;0.0
1.0;1753877968.298612;18.375745;1.0;-1.51;-0.01;-0.059588;0.981864;0.017522;0.0;0.0;0.0;0.0;0.0;0.0
1.0;1753877968.30321;18.391244;1.04;-1.68;0.1;-0.05504;0.982456;0.016577;0.0;0.0;0.0;0.0;0.0;0.0
1.0;1753877968.307808;18.454477;1.15;-1.54;0.04;-0.057099;0.982505;0.017179;0.0;0.0;0.0;0.0;0.0;0.0
1.0;1753877968.312406;18.382741;1.06;-1.66;0.12;-0.057052;0.982801;0.016587;0.0;0.0;0.0;0.0;0.0;0.0
1.0;1753877968.317004;18.458338;1.1;-1.59;0.05;-0.061428;0.982967;0.016451;0.0;0.0;0.0;0.0;0.0;0.0
1.0;1753877968.3237;18.402344;1.05;-1.61;0.07;-0.057828;0.982222;0.016348;0.0;0.0;0.0;0.0;0.0;0.0
1.0;1753877968.328298;18.425584;1.13;-1.58;0.14;-0.05863;0.982694;0.017065;0.0;0.0;0.0;0.0;0.0;0.0
1.0;1753877968.332896;18.418511;1.09;-1.63;0.0;-0.057842;0.983825;0.016716;0.0;0.0;0.0;0.0;0.0;0.0
1.0;1753877968.337494;18.367185;1.06;-1.61;0.16;-0.055349;0.982385;0.01544;0.0;0.0;0.0;0.0;0.0;0.0
1.0;1753877968.342092;18.398724;1.02;-1.61;0.01;-0.060644;0.982729;0.01718;0.0;0.0;0.0;0.0;0.0;0.0
1.0;1753877968.34669;18.469876;1.04;-1.62;0.02;-0.058871;0.981773;0.015475;0.0;0.0;0.0;0.0;0.0;0.0
1.0;1753877968.351287;18.409409;1.13;-1.61;0.08;-0.056911;0.982989;0.015344;0.0;0.0;0.0;0.0;0.0;0.0
1.0;1753877968.355885;18.407141;1.05;-1.48;0.01;-0.061944;0.982728;0.015984;0.0;0.0;0.0;0.0;0.0;0.0
1.0;1753877968.360483;18.446747;1.03;-1.67;0.05;-0.057013;0.982013;0.014707;0.0;0.0;0.0;0.0;0.0;0.0
1.0;1753877968.365081;18.384267;1.06;-1.66;0.02;-0.056548;0.981355;0.015766;0.0;0.0;0.0;0.0;0.0;0.0
1.0;1753877968.369679;18.404285;1.05;-1.59;0.02;-0.062906;0.981331;0.015889;0.0;0.0;0.0;0.0;0.0;0.0
1.0;1753877968.374277;18.405409;1.14;-1.55;0.1;-0.05668;0.981481;0.016205;0.0;0.0;0.0;0.0;0.0;0.0
1.0;1753877968.378875;18.373755;1.0;-1.57;0.12;-0.057888;0.982235;0.015587;0.0;0.0;0.0;0.0;0.0;0.0
1.0;1753877968.383473;18.385374;0.96;-1.62;0.04;-0.055573;0.980984;0.016073;0.0;0.0;0.0;0.0;0.0;0.0
1.0;1753877968.38807;18.384967;0.96;-1.62;0.15;-0.059314;0.981672;0.015791;0.0;0.0;0.0;0.0;0.0;0.0
1.0;1753877968.392668;18.375183;1.03;-1.72;0.14;-0.058359;0.980835;0.01682;0.0;0.0;0.0;0.0;0.0;0.0
1.0;1753877968.397266;18.3601;1.09;-1.61;0.1;-0.058387;0.982371;0.015529;0.0;0.0;0.0;0.0;0.0;0.0
1.0;1753877968.401864;18.398205;1.05;-1.72;0.09;-0.056194;0.981925;0.016554;0.0;0.0;0.0;0.0;0.0;0.0
1.0;1753877968.406462;18.41612;1.05;-1.69;0.03;-0.05743;0.982537;0.016482;0.0;0.0;0.0;0.0;0.0;0.0
1.0;1753877968.41106;18.387499;1.1;-1.68;0.16;-0.061397;0.981308;0.016572;0.0;0.0;0.0;0.0;0.0;0.0
1.0;1753877968.415658;18.393893;1.04;-1.67;0.1;-0.059872;0.982213;0.014789;0.0;0.0;0.0;0.0;0.0;0.0
1.0;1753877968.420256;18.394983;1.09;-1.63;0.06;-0.059334;0.981161;0.016624;0.0;0.0;0.0;0.0;0.0;0.0
1.0;1753877968.424854;18.389159;0.98;-1.67;0.03;-0.060728;0.982663;0.014535;0.0;0.0;0.0;0.0;0.0;0.0
1.0;1753877968.429452;18.403841;1.06;-1.71;0.08;-0.058405;0.981791;0.014723;0.0;0.0;0.0;0.0;0.0;0.0
1.0;1753877968.43405;18.399342;1.12;-1.6;0.06;-0.056834;0.982699;0.016596;0.0;0.0;0.0;0.0;0.0;0.0
1.0;1753877968.438648;18.384504;1.09;-1.61;0.1;-0.058227;0.982153;0.016658;0.0;0.0;0.0;0.0;0.0;0.0
1.0;1753877968.443246;18.395264;1.15;-1.65;0.12;-0.060326;0.982291;0.015297;0.0;0.0;0.0;0.0;0.0;0.0
1.0;1753877968.447843;18.393643;0.99;-1.61;0.09;-0.058624;0.98135;0.015531;0.0;0.0;0.0;0.0;0.0;0.0
1.0;1753877968.452441;18.387102;1.13;-1.68;0.03;-0.058801;0.981303;0.017221;0.0;0.0;0.0;0.0;0.0;0.0
1.0;1753877968.457039;18.405166;0.9;-1.63;0.08;-0.057411;0.981712;0.015516;0.0;0.0;0.0;0.0;0.0;0.0
1.0;1753877968.461637;18.399239;1.09;-1.66;-0.05;-0.060999;0.981941;0.014236;0.0;0.0;0.0;0.0;0.0;0.0
1.0;1753877968.466235;18.404234;1.05;-1.57;0.06;-0.059775;0.980815;0.015028;0.0;0.0;0.0;0.0;0.0;0.0
1.0;1753877968.470833;18.418249;1.1;-1.64;0.15;-0.05677;0.982346;0.013943;0.0;0.0;0.0;0.0;0.0;0.0
1.0;1753877968.475431;18.39927;1.04;-1.72;0.1;-0.058065;0.980224;0.014817;0.0;0.0;0.0;0.0;0.0;0.0
1.0;1753877968.480029;18.425143;1.08;-1.62;0.08;-0.057135;0.981801;0.015426;0.0;0.0;0.0;0.0;0.0;0.0
1.0;1753877968.484626;18.365652;1.09;-1.67;0.19;-0.059364;0.981802;0.015814;0.0;0.0;0.0;0.0;0.0;0.0
1.0;1753877968.489224;18.37823;0.96;-1.66;0.12;-0.057607;0.980284;0.015134;0.0;0.0;0.0;0.0;0.0;0.0
1.0;1753877968.493822;18.422858;1.06;-1.71;0.12;-0.056209;0.982483;0.015156;0.0;0.0;0.0;0.0;0.0;0.0
1.0;1753877968.49842;18.38174;1.01;-1.57;0.04;-0.05564;0.982879;0.017152;0.0;0.0;0.0;0.0;0.0;0.0
1.0;1753877968.503018;18.403582;0.95;-1.59;0.09;-0.059722;0.981426;0.015872;0.0;0.0;0.0;0.0;0.0;0.0
1.0;1753877968.507616;18.408889;1.04;-1.62;0.13;-0.058404;0.983009;0.015617;0.0;0.0;0.0;0.0;0.0;0.0
1.0;1753877968.512214;18.372387;0.97;-1.67;0.09;-0.060958;0.980991;0.015263;0.0;0.0;0.0;0.0;0.0;0.0
1.0;1753877968.516812;18.418157;1.08;-1.74;0.06;-0.058828;0.98194;0.01504;0.0;0.0;0.0;0.0;0.0;0.0
1.0;1753877968.52141;18.415979;1.04;-1.62;0.1;-0.055264;0.981746;0.017023;0.0;0.0;0.0;0.0;0.0;0.0
1.0;1753877968.526008;18.42973;1.1;-1.69;-0.01;-0.062703;0.981941;0.016302;0.0;0.0;0.0;0.0;0.0;0.0
1.0;1753877968.530606;18.363094;1.05;-1.62;-0.02;-0.057893;0.981238;0.014899;0.0;0.0;0.0;0.0;0.0;0.0
1.0;1753877968.535204;18.39041;1.05;-1.63;0.11;-0.057587;0.980738;0.017645;0.0;0.0;0.0;0.0;0.0;0.0
1.0;1753877968.539801;18.383051;1.06;-1.67;0.03;-0.056594;0.982479;0.015457;0.0;0.0;0.0;0.0;0.0;0.0
1.0;1753877968.544399;18.354026;0.95;-1.72;0.01;-0.064632;0.981567;0.016186;0.0;0.0;0.0;0.0;0.0;0.0
1.0;1753877968.548997;18.394342;1.1;-1.74;0.05;-0.058941;0.980668;0.01591;0.0;0.0;0.0;0.0;0.0;0.0
1.0;1753877968.553595;18.392593;1.02;-1.67;0.01;-0.056995;0.981602;0.015541;0.0;0.0;0.0;0.0;0.0;0.0
1.0;1753877968.558193;18.348563;1.05;-1.65;0.09;-0.061112;0.980607;0.014049;0.0;0.0;0.0;0.0;0.0;0.0
1.0;1753877968.562791;18.374612;1.0;-1.67;0.09;-0.059702;0.982;0.015116;0.0;0.0;0.0;0.0;0.0;0.0
1.0;1753877968.567389;18.389003;1.1;-1.62;0.04;-0.053448;0.980758;0.013785;0.0;0.0;0.0;0.0;0.0;0.0
1.0;1753877968.571987;18.34185;1.0;-1.73;0.06;-0.058305;0.981783;0.016067;0.0;0.0;0.0;0.0;0.0;0.0
1.0;1753877968.576584;18.423013;1.11;-1.6;0.08;-0.059811;0.98181;0.01664;0.0;0.0;0.0;0.0;0.0;0.0
1.0;1753877968.581182;18.342751;1.04;-1.58;0.1;-0.056707;0.981804;0.015163;0.0;0.0;0.0;0.0;0.0;0.0
1.0;1753877968.58578;18.33004;1.09;-1.64;0.03;-0.054068;0.980011;0.016163;0.0;0.0;0.0;0.0;0.0;0.0
1.0;1753877968.590378;18.382872;1.01;-1.67;0.06;-0.057318;0.981015;0.015278;0.0;0.0;0.0;0.0;0.0;0.0
1.0;1753877968.594976;18.366491;1.04;-1.66;-0.01;-0.060098;0.981427;0.017313;0.0;0.0;0.0;0.0;0.0;0.0
1.0;1753877968.599574;18.396869;1.07;-1.71;0.19;-0.059883;0.981212;0.014467;0.0;0.0;0.0;0.0;0.0;0.0
1.0;1753877968.604172;18.404357;1.13;-1.68;0.09;-0.060039;0.981333;0.016581;0.0;0.0;0.0;0.0;0.0;0.0
1.0;1753877968.60877;18.324222;1.08;-1.68;0.02;-0.057938;0.982191;0.015459;0.0;0.0;0.0;0.0;0.0;0.0
1.0;1753877968.613368;18.354712;1.04;-1.68;0.13;-0.060246;0.981777;0.013985;0.0;0.0;0.0;0.0;0.0;0.0
1.0;1753877968.617966;18.427738;1.08;-1.7;0.07;-0.055306;0.981016;0.015112;0.0;0.0;0.0;0.0;0.0;0.0
1.0;1753877968.622564;18.402304;1.05;-1.66;0.05;-0.058358;0.981387;0.014009;0.0;0.0;0.0;0.0;0.0;0.0
1.0;1753877968.627162;18.380524;1.11;-1.74;0.06;-0.057497;0.981185;0.016238;0.0;0.0;0.0;0.0;0.0;0.0
1.0;1753877968.63176;18.33397;1.07;-1.57;-0.02;-0.057852;0.980941;0.014082;0.0;0.0;0.0;0.0;0.0;0.0
1.0;1753877968.636357;18.37149;1.04;-1.67;0.06;-0.056731;0.98146;0.015539;0.0;0.0;0.0;0.0;0.0;0.0
1.0;1753877968.640955;18.340653;1.03;-1.65;0.11;-0.057426;0.98143;0.013931;0.0;0.0;0.0;0.0;0.0;0.0
1.0;1753877968.645553;18.409463;1.02;-1.62;0.12;-0.058128;0.981775;0.016072;0.0;0.0;0.0;0.0;0.0;0.0
1.0;1753877968.650151;18.388204;0.93;-1.77;0.08;-0.05944;0.981782;0.01525;0.0;0.0;0.0;0.0;0.0;0.0
1.0;1753877968.654749;18.383363;1.04;-1.69;-0.02;-0.058701;0.980568;0.013829;0.0;0.0;0.0;0.0;0.0;0.0
1.0;1753877968.659347;18.387423;1.08;-1.69;0.06;-0.059579;0.980506;0.017298;0.0;0.0;0.0;0.0;0.0;0.0
1.0;1753877968.663945;18.426518;1.05;-1.85;0.01;-0.05975;0.982124;0.014956;0.0;0.0;0.0;0.0;0.0;0.0
1.0;1753877968.668542;18.392709;1.06;-1.6;0.02;-0.061371;0.980974;0.013955;0.0;0.0;0.0;0.0;0.0;0.0
1.0;1753877968.67314;18.386026;0.99;-1.63;0.04;-0.057613;0.981231;0.014708;0.0;0.0;0.0;0.0;0.0;0.0
1.0;1753877968.677738;18.390778;1.08;-1.72;0.1;-0.059777;0.981347;0.015485;0.0;0.0;0.0;0.0;0.0;0.0
1.0;1753877968.682336;18.391468;0.98;-1.76;0.04;-0.057906;0.979801;0.015593;0.0;0.0;0.0;0.0;0.0;0.0
1.0;1753877968.686934;18.365933;1.11;-1.66;0.18;-0.057919;0.980925;0.014824;0.0;0.0;0.0;0.0;0.0;0.0
1.0;1753877968.691532;18.344626;1.03;-1.64;0.12;-0.060191;0.981295;0.015738;0.0;0.0;0.0;0.0;0.0;0.0
1.0;1753877968.69613;18.384009;1.09;-1.73;0.1;-0.061322;0.980537;0.015188;0.0;0.0;0.0;0.0;0.0;0.0
1.0;1753877968.700728;18.370196;1.08;-1.82;-0.01;-0.059933;0.980549;0.016056;0.0;0.0;0.0;0.0;0.0;0.0
1.0;1753877968.705326;18.379296;1.04;-1.64;0.13;-0.058259;0.980474;0.015971;0.0;0.0;0.0;0.0;0.0;0.0
1.0;1753877968.709924;18.380329;1.04;-1.69;0.11;-0.060316;0.980861;0.015129;0.0;0.0;0.0;0.0;0.0;0.0
1.0;1753877968.714522;18.371235;1.02;-1.65;0.02;-0.060327;0.981119;0.01559;0.0;0.0;0.0;0.0;0.0;0.0
1.0;1753877968.71912;18.378942;1.08;-1.75;0.06;-0.056666;0.980223;0.015208;0.0;0.0;0.0;0.0;0.0;0.0
1.0;1753877968.723718;18.364492;1.07;-1.72;0.1;-0.061588;0.981517;0.016286;0.0;0.0;0.0;0.0;0.0;0.0
1.0;1753877968.728315;18.350571;1.03;-1.74;0.13;-0.058527;0.980495;0.015242;0.0;0.0;0.0;0.0;0.0;0.0
1.0;1753877968.732913;18.369886;0.95;-1.85;0.09;-0.057264;0.981453;0.015063;0.0;0.0;0.0;0.0;0.0;0.0
1.0;1753877968.737511;18.371326;1.04;-1.73;0.1;-0.060172;0.980027;0.014351;0.0;0.0;0.0;0.0;0.0;0.0
1.0;1753877968.742109;18.393993;1.04;-1.75;0.06;-0.061101;0.979429;0.016123;0.0;0.0;0.0;0.0;0.0;0.0
1.0;1753877968.746707;18.392069;1.09;-1.76;0.13;-0.058181;0.980814;0.01569;0.0;0.0;0.0;0.0;0.0;0.0
1.0;1753877968.751305;18.371828;1.07;-1.7;0.05;-0.060714;0.981027;0.013724;0.0;0.0;0.0;0.0;0.0;0.0
1.0;1753877968.755903;18.415157;0.95;-1.85;0.09;-0.059518;0.980346;0.013796;0.0;0.0;0.0;0.0;0.0;0.0
1.0;1753877968.760501;18.364811;1.09;-1.65;0.09;-0.058999;0.980249;0.01483;0.0;0.0;0.0;0.0;0.0;0.0
1.0;1753877968.765098;18.350815;1.05;-1.69;0.14;-0.056974;0.980936;0.01646;0.0;0.0;0.0;0.0;0.0;0.0
1.0;1753877968.769696;18.378166;0.99;-1.67;0.05;-0.057144;0.980517;0.015759;0.0;0.0;0.0;0.0;0.0;0.0
1.0;1753877968.774294;18.38531;1.07;-1.72;0.02;-0.059734;0.981154;0.014196;0.0;0.0;0.0;0.0;0.0;0.0
1.0;1753877968.778892;18.387607;1.03;-1.84;0.18;-0.060597;0.980626;0.016162;0.0;0.0;0.0;0.0;0.0;0.0
1.0;1753877968.78349;18.364213;0.93;-1.77;0.05;-0.060121;0.980426;0.014286;0.0;0.0;0.0;0.0;0.0;0.0
1.0;1753877968.788088;18.385261;1.04;-1.79;0.18;-0.060876;0.979849;0.014784;0.0;0.0;0.0;0.0;0.0;0.0
1.0;1753877968.792686;18.38871;1.1;-1.69;0.07;-0.061436;0.979821;0.016117;0.0;0.0;0.0;0.0;0.0;0.0
1.0;1753877968.797284;18.34256;1.15;-1.67;0.11;-0.0577;0.980419;0.014524;0.0;0.0;0.0;0.0;0.0;0.0
1.0;1753877968.801882;18.386057;1.11;-1.8;0.04;-0.059958;0.979415;0.014417;0.0;0.0;0.0;0.0;0.0;0.0
1.0;1753877968.80648;18.322345;0.93;-1.71;0.04;-0.060265;0.981268;0.014238;0.0;0.0;0.0;0.0;0.0;0.0
1.0;1753877968.8138;18.371094;1.05;-1.75;0.07;-0.058926;0.980514;0.014518;0.0;0.0;0.0;0.0;0.0;0.0
1.0;1753877968.818398;18.342241;1.05;-1.81;0.09;-0.059561;0.98154;0.013653;0.0;0.0;0.0;0.0;0.0;0.0
1.0;1753877968.82579;18.328125;1.05;-1.68;0.07;-0.057096;0.981246;0.014884;0.0;0.0;0.0;0.0;0.0;0.0
1.0;1753877968.830388;18.336584;1.06;-1.7;0.11;-0.056458;0.981835;0.014344;0.0;0.0;0.0;0.0;0.0;0.0
1.0;1753877968.834986;18.338635;1.04;-1.7;0.09;-0.059871;0.982381;0.013813;0.0;0.0;0.0;0.0;0.0;0.0
1.0;1753877968.839584;18.335526;1.06;-1.74;0.06;-0.056592;0.981152;0.014328;0.0;0.0;0.0;0.0;0.0;0.0
1.0;1753877968.844182;18.295712;1.05;-1.62;0.06;-0.058325;0.980938;0.014488;0.0;0.0;0.0;0.0;0.0;0.0
1.0;1753877968.84878;18.34539;1.08;-1.72;-0.02;-0.057898;0.981979;0.014015;0.0;0.0;0.0;0.0;0.0;0.0
1.0;1753877968.85494;18.328125;1.05;-1.68;0.07;-0.060024;0.981856;0.014518;0.0;0.0;0.0;0.0;0.0;0.0
1.0;1753877968.859538;18.327421;1.04;-1.73;0.12;-0.059548;0.982231;0.014301;0.0;0.0;0.0;0.0;0.0;0.0
1.0;1753877968.864136;18.293873;1.02;-1.6;0.11;-0.0605;0.981619;0.015973;0.0;0.0;0.0;0.0;0.0;0.0
1.0;1753877968.868734;18.34964;1.11;-1.73;0.04;-0.05654;0.98156;0.014015;0.0;0.0;0.0;0.0;0.0;0.0
1.0;1753877968.873332;18.354177;1.08;-1.77;0.2;-0.060018;0.981344;0.015147;0.0;0.0;0.0;0.0;0.0;0.0
1.0;1753877968.87793;18.344605;1.08;-1.67;0.09;-0.057205;0.981148;0.015422;0.0;0.0;0.0;0.0;0.0;0.0
1.0;1753877968.882527;18.275611;1.08;-1.71;0.08;-0.057619;0.981338;0.015171;0.0;0.0;0.0;0.0;0.0;0.0
1.0;1753877968.887125;18.319059;1.07;-1.63;0.12;-0.058328;0.979271;0.015591;0.0;0.0;0.0;0.0;0.0;0.0
1.0;1753877968.891723;18.302906;1.11;-1.54;0.1;-0.057776;0.981452;0.01541;0.0;0.0;0.0;0.0;0.0;0.0
1.0;1753877968.896321;18.305954;1.09;-1.65;0.08;-0.055689;0.980434;0.016025;0.0;0.0;0.0;0.0;0.0;0.0
1.0;1753877968.9012;18.328125;1.12;-1.61;0.14;-0.057828;0.980758;0.015982;0.0;0.0;0.0;0.0;0.0;0.0
1.0;1753877968.905798;18.320222;1.11;-1.53;0.19;-0.059263;0.98065;0.016829;0.0;0.0;0.0;0.0;0.0;0.0
1.0;1753877968.910396;18.324717;1.1;-1.55;0.01;-0.057654;0.982112;0.015828;0.0;0.0;0.0;0.0;0.0;0.0
1.0;1753877968.914994;18.290154;1.14;-1.7;0.13;-0.058211;0.981235;0.016284;0.0;0.0;0.0;0.0;0.0;0.0
1.0;1753877968.919592;18.336277;1.11;-1.65;0.22;-0.059425;0.981249;0.01703;0.0;0.0;0.0;0.0;0.0;0.0
1.0;1753877968.92419;18.341966;1.12;-1.61;0.21;-0.057197;0.980015;0.016821;0.0;0.0;0.0;0.0;0.0;0.0
1.0;1753877968.928788;18.3199;1.14;-1.65;0.15;-0.058248;0.980828;0.014951;0.0;0.0;0.0;0.0;0.0;0.0
1.0;1753877968.933385;18.388486;1.15;-1.68;0.11;-0.058259;0.979609;0.015187;0.0;0.0;0.0;0.0;0.0;0.0
1.0;1753877968.937983;18.321516;1.17;-1.56;0.1;-0.060989;0.98067;0.015549;0.0;0.0;0.0;0.0;0.0;0.0
1.0;1753877968.942581;18.315189;1.07;-1.63;0.18;-0.059356;0.980055;0.014866;0.0;0.0;0.0;0.0;0.0;0.0
1.0;1753877968.947179;18.311931;1.17;-1.64;0.17;-0.058762;0.980276;0.013898;0.0;0.0;0.0;0.0;0.0;0.0
1.0;1753877968.951777;18.319853;1.18;-1.7;0.19;-0.057848;0.980072;0.01464;0.0;0.0;0.0;0.0;0.0;0.0
1.0;1753877968.956375;18.32734;1.13;-1.69;0.12;-0.060949;0.9798;0.015536;0.0;0.0;0.0;0.0;0.0;0.0
1.0;1753877968.960973;18.325623;1.15;-1.6;0.16;-0.061406;0.980592;0.015649;0.0;0.0;0.0;0.0;0.0;0.0
1.0;1753877968.965571;18.316472;1.14;-1.6;0.06;-0.057555;0.979748;0.015065;0.0;0.0;0.0;0.0;0.0;0.0
1.0;1753877968.970168;18.334503;1.11;-1.76;0.1;-0.057634;0.980262;0.014753;0.0;0.0;0.0;0.0;0.0;0.0
1.0;1753877968.974766;18.333365;1.09;-1.65;0.15;-0.060233;0.980529;0.014245;0.0;0.0;0.0;0.0;0.0;0.0
1.0;1753877968.979364;18.346727;1.16;-1.7;0.13;-0.060495;0.981406;0.013823;0.0;0.0;0.0;0.0;0.0;0.0
1.0;1753877968.98403;18.328125;1.12;-1.68;0.14;-0.06039;0.980148;0.014396;0.0;0.0;0.0;0.0;0.0;0.0
1.0;1753877968.99201;18.351562;1.12;-1.68;0.07;-0.057462;0.981124;0.015982;0.0;0.0;0.0;0.0;0.0;0.0
1.0;1753877968.996608;18.349033;0.94;-1.71;0.04;-0.057029;0.981429;0.016207;0.0;0.0;0.0;0.0;0.0;0.0
1.0;1753877969.001206;18.361949;1.11;-1.61;0.03;-0.057647;0.980525;0.015158;0.0;0.0;0.0;0.0;0.0;0.0
1.0;1753877969.005804;18.323886;1.12;-1.71;0.06;-0.057281;0.982189;0.016447;0.0;0.0;0.0;0.0;0.0;0.0
1.0;1753877969.010402;18.343147;1.09;-1.65;0.02;-0.057979;0.98035;0.016462;0.0;0.0;0.0;0.0;0.0;0.0
1.0;1753877969.015;18.300164;1.09;-1.65;0.07;-0.056112;0.981923;0.015371;0.0;0.0;0.0;0.0;0.0;0.0
1.0;1753877969.019598;18.329411;1.08;-1.72;0.07;-0.058308;0.981211;0.016201;0.0;0.0;0.0;0.0;0.0;0.0
1.0;1753877969.024196;18.367631;1.13;-1.64;0.05;-0.056362;0.981654;0.016548;0.0;0.0;0.0;0.0;0.0;0.0
1.0;1753877969.028793;18.352942;1.14;-1.68;0.04;-0.057948;0.983226;0.015947;0.0;0.0;0.0;0.0;0.0;0.0
1.0;1753877969.033391;18.311969;1.14;-1.68;0.06;-0.055403;0.981036;0.016428;0.0;0.0;0.0;0.0;0.0;0.0
1.0;1753877969.037989;18.350294;1.12;-1.72;0.07;-0.059636;0.980227;0.016288;0.0;0.0;0.0;0.0;0.0;0.0
1.0;1753877969.042587;18.324832;1.1;-1.66;-0.02;-0.0555;0.982221;0.017632;0.0;0.0;0.0;0.0;0.0;0.0
1.0;1753877969.047185;18.328092;1.15;-1.58;-0.01;-0.057114;0.981481;0.016148;0.0;0.0;0.0;0.0;0.0;0.0
1.0;1753877969.051783;18.318986;1.14;-1.67;0.02;-0.05574;0.981846;0.016302;0.0;0.0;0.0;0.0;0.0;0.0
1.0;1753877969.056381;18.305907;1.13;-1.76;0.03;-0.060428;0.983341;0.015779;0.0;0.0;0.0;0.0;0.0;0.0
1.0;1753877969.060979;18.344864;1.08;-1.63;0.02;-0.057026;0.979224;0.01569;0.0;0.0;0.0;0.0;0.0;0.0
1.0;1753877969.065576;18.321027;1.14;-1.63;0.02;-0.05594;0.982535;0.015848;0.0;0.0;0.0;0.0;0.0;0.0
1.0;1753877969.070174;18.307938;1.09;-1.58;0.01;-0.054582;0.979991;0.018041;0.0;0.0;0.0;0.0;0.0;0.0
1.0;1753877969.074772;18.298925;1.1;-1.69;0.02;-0.056203;0.981094;0.016802;0.0;0.0;0.0;0.0;0.0;0.0
1.0;1753877969.07937;18.331837;1.23;-1.73;0.07;-0.058547;0.982443;0.017179;0.0;0.0;0.0;0.0;0.0;0.0
1.0;1753877969.083968;18.289197;1.03;-1.67;-0.02;-0.057021;0.981388;0.015849;0.0;0.0;0.0;0.0;0.0;0.0
1.0;1753877969.088566;18.305431;1.02;-1.72;0.01;-0.055872;0.982874;0.016583;0.0;0.0;0.0;0.0;0.0;0.0
1.0;1753877969.093164;18.286457;1.02;-1.71;-0.02;-0.057773;0.982168;0.015422;0.0;0.0;0.0;0.0;0.0;0.0
1.0;1753877969.097762;18.305685;1.04;-1.77;0.0;-0.059283;0.981751;0.014031;0.0;0.0;0.0;0.0;0.0;0.0
1.0;1753877969.10236;18.326088;1.12;-1.66;-0.09;-0.057271;0.983045;0.016296;0.0;0.0;0.0;0.0;0.0;0.0
1.0;1753877969.106958;18.302573;1.09;-1.66;-0.0;-0.056463;0.981506;0.015797;0.0;0.0;0.0;0.0;0.0;0.0
1.0;1753877969.111556;18.294984;1.02;-1.7;0.04;-0.055684;0.982616;0.016483;0.0;0.0;0.0;0.0;0.0;0.0
1.0;1753877969.1195;18.296875;1.12;-1.68;0.0;-0.056852;0.981612;0.016348;0.0;0.0;0.0;0.0;0.0;0.0
1.0;1753877969.124098;18.317455;1.12;-1.73;-0.03;-0.058699;0.981573;0.016834;0.0;0.0;0.0;0.0;0.0;0.0
1.0;1753877969.128696;18.318513;1.1;-1.74;0.05;-0.054944;0.980691;0.014769;0.0;0.0;0.0;0.0;0.0;0.0
1.0;1753877969.133294;18.309116;1.21;-1.71;0.01;-0.056009;0.981244;0.017718;0.0;0.0;0.0;0.0;0.0;0.0
1.0;1753877969.137892;18.298034;1.14;-1.72;-0.05;-0.059565;0.981423;0.016933;0.0;0.0;0.0;0.0;0.0;0.0
1.0;1753877969.14249;18.308627;1.14;-1.77;-0.1;-0.054792;0.981598;0.015215;0.0;0.0;0.0;0.0;0.0;0.0
1.0;1753877969.147087;18.325771;1.14;-1.67;0.01;-0.057093;0.981181;0.01651;0.0;0.0;0.0;0.0;0.0;0.0
1.0;1753877969.151685;18.30431;1.12;-1.62;0.02;-0.057528;0.98065;0.015792;0.0;0.0;0.0;0.0;0.0;0.0
1.0;1753877969.156283;18.309663;1.1;-1.53;-0.03;-0.058278;0.981583;0.015766;0.0;0.0;0.0;0.0;0.0;0.0
1.0;1753877969.160881;18.288212;1.18;-1.64;0.01;-0.056967;0.980894;0.015633;0.0;0.0;0.0;0.0;0.0;0.0
1.0;1753877969.165479;18.316515;1.17;-1.65;0.0;-0.055961;0.981386;0.014808;0.0;0.0;0.0;0.0;0.0;0.0
1.0;1753877969.170077;18.292117;1.16;-1.73;-0.03;-0.054023;0.980848;0.015504;0.0;0.0;0.0;0.0;0.0;0.0
1.0;1753877969.174675;18.32166;1.22;-1.64;0.03;-0.055051;0.981078;0.015967;0.0;0.0;0.0;0.0;0.0;0.0
1.0;1753877969.179273;18.292968;1.03;-1.62;-0.0;-0.056802;0.980787;0.016995;0.0;0.0;0.0;0.0;0.0;0.0
1.0;1753877969.18387;18.309702;1.12;-1.73;-0.02;-0.057366;0.980871;0.016789;0.0;0.0;0.0;0.0;0.0;0.0
1.0;1753877969.188468;18.280934;1.12;-1.62;0.03;-0.057444;0.981183;0.017272;0.0;0.0;0.0;0.0;0.0;0.0
1.0;1753877969.193066;18.277043;1.13;-1.62;0.02;-0.05698;0.981469;0.015333;0.0;0.0;0.0;0.0;0.0;0.0
1.0;1753877969.197664;18.299313;1.23;-1.67;-0.03;-0.055004;0.980305;0.014721;0.0;0.0;0.0;0.0;0.0;0.0
1.0;1753877969.202262;18.289027;1.14;-1.73;-0.01;-0.058683;0.982274;0.017244;0.0;0.0;0.0;0.0;0.0;0.0
1.0;1753877969.20686;18.31429;1.1;-1.61;0.02;-0.059215;0.982179;0.015636;0.0;0.0;0.0;0.0;0.0;0.0
1.0;1753877969.211458;18.298409;1.16;-1.71;0.05;-0.055401;0.982615;0.016447;0.0;0.0;0.0;0.0;0.0;0.0
1.0;1753877969.216056;18.321142;1.15;-1.61;-0.04;-0.057368;0.983286;0.015864;0.0;0.0;0.0;0.0;0.0;0.0
1.0;1753877969.220654;18.29461;1.1;-1.62;0.02;-0.057979;0.981315;0.016204;0.0;0.0;0.0;0.0;0.0;0.0
1.0;1753877969.225252;18.294229;1.13;-1.7;0.02;-0.060347;0.982322;0.014551;0.0;0.0;0.0;0.0;0.0;0.0
1.0;1753877969.22985;18.286827;1.14;-1.73;0.04;-0.059776;0.982581;0.015359;0.0;0.0;0.0;0.0;0.0;0.0
1.0;1753877969.234448;18.296017;1.21;-1.61;0.04;-0.057596;0.982754;0.016253;0.0;0.0;0.0;0.0;0.0;0.0
1.0;1753877969.239046;18.259901;1.11;-1.67;-0.02;-0.054531;0.980725;0.016293;0.0;0.0;0.0;0.0;0.0;0.0
1.0;1753877969.243643;18.297005;1.1;-1.67;-0.02;-0.058301;0.981877;0.016489;0.0;0.0;0.0;0.0;0.0;0.0
1.0;1753877969.248241;18.289427;1.11;-1.72;0.04;-0.057757;0.982867;0.017075;0.0;0.0;0.0;0.0;0.0;0.0
1.0;1753877969.252839;18.293685;1.06;-1.72;0.0;-0.058222;0.981221;0.015889;0.0;0.0;0.0;0.0;0.0;0.0
1.0;1753877969.257437;18.309638;1.17;-1.71;0.05;-0.059849;0.982668;0.01609;0.0;0.0;0.0;0.0;0.0;0.0
1.0;1753877969.262035;18.329914;1.06;-1.73;0.05;-0.05844;0.981234;0.015205;0.0;0.0;0.0;0.0;0.0;0.0
1.0;1753877969.266633;18.311318;1.13;-1.73;0.1;-0.059126;0.980817;0.015352;0.0;0.0;0.0;0.0;0.0;0.0
1.0;1753877969.271231;18.294817;1.13;-1.67;0.01;-0.057036;0.980903;0.015557;0.0;0.0;0.0;0.0;0.0;0.0
1.0;1753877969.275828;18.263195;1.11;-1.67;0.08;-0.060537;0.981838;0.014668;0.0;0.0;0.0;0.0;0.0;0.0
1.0;1753877969.280426;18.28995;1.18;-1.66;0.03;-0.056546;0.982978;0.014081;0.0;0.0;0.0;0.0;0.0;0.0
1.0;1753877969.285024;18.295329;1.15;-1.57;0.05;-0.058998;0.981579;0.01478;0.0;0.0;0.0;0.0;0.0;0.0
1.0;1753877969.289622;18.302746;1.09;-1.72;0.07;-0.060288;0.982245;0.014347;0.0;0.0;0.0;0.0;0.0;0.0
1.0;1753877969.29422;18.309404;1.1;-1.63;0.03;-0.057988;0.981989;0.014069;0.0;0.0;0.0;0.0;0.0;0.0
1.0;1753877969.298818;18.293932;1.12;-1.7;-0.0;-0.061819;0.983091;0.015181;0.0;0.0;0.0;0.0;0.0;0.0
1.0;1753877969.303416;18.295991;1.19;-1.61;0.06;-0.05876;0.980189;0.014906;0.0;0.0;0.0;0.0;0.0;0.0
1.0;1753877969.308014;18.309337;1.09;-1.74;0.02;-0.057605;0.982235;0.016681;0.0;0.0;0.0;0.0;0.0;0.0
1.0;1753877969.312612;18.307203;1.19;-1.69;0.03;-0.057676;0.97932;0.015252;0.0;0.0;0.0;0.0;0.0;0.0
1.0;1753877969.31721;18.281126;1.13;-1.74;-0.03;-0.059697;0.983417;0.016498;0.0;0.0;0.0;0.0;0.0;0.0
1.0;1753877969.321808;18.312419;1.15;-1.74;0.01;-0.057871;0.979852;0.017479;0.0;0.0;0.0;0.0;0.0;0.0
1.0;1753877969.326406;18.303078;1.15;-1.67;0.04;-0.057148;0.981276;0.015166;0.0;0.0;0.0;0.0;0.0;0.0
1.0;1753877969.331004;18.304728;1.14;-1.59;-0.02;-0.059074;0.981664;0.015156;0.0;0.0;0.0;0.0;0.0;0.0
1.0;1753877969.335601;18.255055;1.08;-1.65;0.01;-0.060208;0.981656;0.01508;0.0;0.0;0.0;0.0;0.0;0.0
1.0;1753877969.340199;18.270348;1.07;-1.65;0.03;-0.058549;0.983176;0.015683;0.0;0.0;0.0;0.0;0.0;0.0
1.0;1753877969.344797;18.331512;1.12;-1.76;0.05;-0.056884;0.981245;0.014874;0.0;0.0;0.0;0.0;0.0;0.0
1.0;1753877969.349395;18.311081;1.17;-1.66;-0.03;-0.056142;0.981007;0.014894;0.0;0.0;0.0;0.0;0.0;0.0
1.0;1753877969.353993;18.319832;1.2;-1.66;-0.0;-0.061221;0.982624;0.015346;0.0;0.0;0.0;0.0;0.0;0.0
1.0;1753877969.358591;18.284972;1.16;-1.73;0.1;-0.059085;0.981831;0.015946;0.0;0.0;0.0;0.0;0.0;0.0
1.0;1753877969.363189;18.302442;1.21;-1.62;0.01;-0.061115;0.981814;0.014973;0.0;0.0;0.0;0.0;0.0;0.0
1.0;1753877969.367787;18.30344;1.14;-1.77;0.02;-0.060405;0.982018;0.015533;0.0;0.0;0.0;0.0;0.0;0.0
1.0;1753877969.372384;18.276914;1.05;-1.7;0.03;-0.063668;0.981222;0.016118;0.0;0.0;0.0;0.0;0.0;0.0
1.0;1753877969.376982;18.291708;1.22;-1.55;0.1;-0.05838;0.981925;0.016396;0.0;0.0;0.0;0.0;0.0;0.0
1.0;1753877969.38158;18.312184;1.13;-1.67;0.04;-0.05691;0.981292;0.015742;0.0;0.0;0.0;0.0;0.0;0.0
1.0;1753877969.386178;18.295524;1.16;-1.79;0.05;-0.057872;0.98385;0.015292;0.0;0.0;0.0;0.0;0.0;0.0
1.0;1753877969.390776;18.285586;1.17;-1.61;0.01;-0.059072;0.982049;0.015447;0.0;0.0;0.0;0.0;0.0;0.0
1.0;1753877969.395374;18.295836;1.15;-1.75;-0.01;-0.058378;0.98291;0.014354;0.0;0.0;0.0;0.0;0.0;0.0
1.0;1753877969.399972;18.307307;1.14;-1.71;0.04;-0.059814;0.983087;0.01563;0.0;0.0;0.0;0.0;0.0;0.0
1.0;1753877969.40457;18.298587;1.14;-1.68;0.01;-0.058337;0.981987;0.014103;0.0;0.0;0.0;0.0;0.0;0.0
1.0;1753877969.409168;18.309054;1.21;-1.57;-0.03;-0.058712;0.983157;0.013967;0.0;0.0;0.0;0.0;0.0;0.0
1.0;1753877969.413766;18.331055;1.14;-1.57;0.05;-0.054918;0.981246;0.015743;0.0;0.0;0.0;0.0;0.0;0.0
1.0;1753877969.418364;18.301053;1.13;-1.73;0.04;-0.060204;0.98295;0.014049;0.0;0.0;0.0;0.0;0.0;0.0
1.0;1753877969.422962;18.292711;1.19;-1.62;0.1;-0.060517;0.98213;0.016416;0.0;0.0;0.0;0.0;0.0;0.0
1.0;1753877969.42756;18.282917;1.13;-1.63;-0.01;-0.056145;0.983064;0.015669;0.0;0.0;0.0;0.0;0.0;0.0
1.0;1753877969.432157;18.302999;1.15;-1.73;0.01;-0.062577;0.983013;0.013843;0.0;0.0;0.0;0.0;0.0;0.0
1.0;1753877969.436755;18.309145;1.13;-1.57;0.05;-0.060428;0.981275;0.014636;0.0;0.0;0.0;0.0;0.0;0.0
1.0;1753877969.441353;18.30625;1.12;-1.63;0.02;-0.062987;0.981594;0.015221;0.0;0.0;0.0;0.0;0.0;0.0
1.0;1753877969.445951;18.278331;1.2;-1.74;0.05;-0.059432;0.982586;0.015855;0.0;0.0;0.0;0.0;0.0;0.0
1.0;1753877969.450549;18.300025;1.12;-1.69;0.06;-0.060332;0.981479;0.015604;0.0;0.0;0.0;0.0;0.0;0.0
1.0;1753877969.455147;18.284565;1.16;-1.73;0.01;-0.057591;0.983107;0.015975;0.0;0.0;0.0;0.0;0.0;0.0
1.0;1753877969.459745;18.317306;1.01;-1.69;0.04;-0.057764;0.981935;0.014317;0.0;0.0;0.0;0.0;0.0;0.0
1.0;1753877969.464342;18.310425;1.15;-1.58;0.05;-0.060241;0.984226;0.014563;0.0;0.0;0.0;0.0;0.0;0.0
1.0;1753877969.46894;18.319654;1.21;-1.66;0.09;-0.059858;0.982685;0.015904;0.0;0.0;0.0;0.0;0.0;0.0
1.0;1753877969.473538;18.280848;1.09;-1.79;0.03;-0.060897;0.983576;0.014112;0.0;0.0;0.0;0.0;0.0;0.0
1.0;1753877969.478136;18.30615;1.14;-1.67;0.06;-0.061838;0.980592;0.013582;0.0;0.0;0.0;0.0;0.0;0.0
1.0;1753877969.482734;18.302921;1.08;-1.55;0.02;-0.059613;0.980993;0.015157;0.0;0.0;0.0;0.0;0.0;0.0
1.0;1753877969.487332;18.311342;1.09;-1.7;0.08;-0.059336;0.982559;0.015651;0.0;0.0;0.0;0.0;0.0;0.0
1.0;1753877969.49193;18.280748;1.13;-1.63;0.02;-0.061318;0.98036;0.012933;0.0;0.0;0.0;0.0;0.0;0.0
1.0;1753877969.496528;18.310608;1.15;-1.68;0.13;-0.059526;0.982272;0.015267;0.0;0.0;0.0;0.0;0.0;0.0
1.0;1753877969.501126;18.297057;1.15;-1.7;0.11;-0.059085;0.981519;0.015658;0.0;0.0;0.0;0.0;0.0;0.0
1.0;1753877969.505724;18.302941;1.03;-1.68;0.07;-0.061642;0.981976;0.015123;0.0;0.0;0.0;0.0;0.0;0.0
1.0;1753877969.510322;18.27538;1.17;-1.69;0.11;-0.057929;0.983706;0.013578;0.0;0.0;0.0;0.0;0.0;0.0
1.0;1753877969.51492;18.295649;1.21;-1.62;0.03;-0.058306;0.983285;0.014143;0.0;0.0;0.0;0.0;0.0;0.0
1.0;1753877969.519518;18.296916;1.12;-1.75;0.07;-0.060303;0.982514;0.014235;0.0;0.0;0.0;0.0;0.0;0.0
1.0;1753877969.524115;18.302062;1.17;-1.65;0.12;-0.061461;0.982724;0.013988;0.0;0.0;0.0;0.0;0.0;0.0
1.0;1753877969.528713;18.267466;1.19;-1.69;0.0;-0.05858;0.98242;0.01408;0.0;0.0;0.0;0.0;0.0;0.0
1.0;1753877969.533311;18.285854;1.1;-1.72;0.06;-0.062821;0.980393;0.01495;0.0;0.0;0.0;0.0;0.0;0.0
1.0;1753877969.537909;18.316914;1.11;-1.71;0.04;-0.062995;0.981547;0.015179;0.0;0.0;0.0;0.0;0.0;0.0
1.0;1753877969.542507;18.276079;1.14;-1.71;0.06;-0.065476;0.983773;0.015107;0.0;0.0;0.0;0.0;0.0;0.0
1.0;1753877969.547105;18.281927;1.02;-1.63;0.11;-0.061954;0.982262;0.013886;0.0;0.0;0.0;0.0;0.0;0.0
1.0;1753877969.551703;18.31885;1.18;-1.74;0.08;-0.063875;0.981387;0.016292;0.0;0.0;0.0;0.0;0.0;0.0
1.0;1753877969.5574;18.296875;1.12;-1.68;0.07;-0.061122;0.982344;0.014762;0.0;0.0;0.0;0.0;0.0;0.0
1.0;1753877969.561998;18.275354;1.17;-1.68;0.15;-0.061043;0.982027;0.015335;0.0;0.0;0.0;0.0;0.0;0.0
1.0;1753877969.566596;18.31619;1.21;-1.69;0.07;-0.061789;0.983029;0.014164;0.0;0.0;0.0;0.0;0.0;0.0
1.0;1753877969.571194;18.290149;1.04;-1.66;0.07;-0.066145;0.981122;0.013353;0.0;0.0;0.0;0.0;0.0;0.0
1.0;1753877969.575792;18.294059;1.18;-1.64;0.06;-0.059271;0.982927;0.014352;0.0;0.0;0.0;0.0;0.0;0.0
1.0;1753877969.58039;18.280096;1.1;-1.65;0.03;-0.060233;0.982191;0.015071;0.0;0.0;0.0;0.0;0.0;0.0
1.0;1753877969.584988;18.284372;1.11;-1.72;0.06;-0.05966;0.981255;0.014817;0.0;0.0;0.0;0.0;0.0;0.0
1.0;1753877969.589585;18.313988;1.11;-1.69;0.14;-0.062923;0.983396;0.013838;0.0;0.0;0.0;0.0;0.0;0.0
1.0;1753877969.594183;18.281638;1.12;-1.66;0.03;-0.057546;0.982898;0.014739;0.0;0.0;0.0;0.0;0.0;0.0
1.0;1753877969.598781;18.286849;1.1;-1.53;0.11;-0.061534;0.982342;0.015936;0.0;0.0;0.0;0.0;0.0;0.0
1.0;1753877969.603379;18.302009;1.19;-1.68;0.09;-0.061022;0.983548;0.015908;0.0;0.0;0.0;0.0;0.0;0.0
1.0;1753877969.607977;18.302162;1.02;-1.7;0.09;-0.059197;0.982054;0.014587;0.0;0.0;0.0;0.0;0.0;0.0
1.0;1753877969.612575;18.303068;1.17;-1.57;0.1;-0.060676;0.982662;0.014764;0.0;0.0;0.0;0.0;0.0;0.0
1.0;1753877969.617173;18.29879;1.1;-1.73;0.1;-0.059206;0.982342;0.014735;0.0;0.0;0.0;0.0;0.0;0.0
1.0;1753877969.62177;18.315089;1.06;-1.58;0.02;-0.061089;0.981729;0.014906;0.0;0.0;0.0;0.0;0.0;0.0
1.0;1753877969.626368;18.295238;1.13;-1.68;0.05;-0.057715;0.981877;0.014637;0.0;0.0;0.0;0.0;0.0;0.0
1.0;1753877969.630966;18.27317;1.07;-1.59;0.06;-0.060519;0.983044;0.015419;0.0;0.0;0.0;0.0;0.0;0.0
1.0;1753877969.635564;18.294793;1.2;-1.58;0.04;-0.059878;0.983032;0.015598;0.0;0.0;0.0;0.0;0.0;0.0
1.0;1753877969.640162;18.285559;1.15;-1.62;0.12;-0.060004;0.981906;0.015747;0.0;0.0;0.0;0.0;0.0;0.0
1.0;1753877969.64476;18.287243;1.15;-1.68;0.05;-0.060742;0.982546;0.014838;0.0;0.0;0.0;0.0;0.0;0.0
1.0;1753877969.649358;18.294076;1.05;-1.71;0.09;-0.061076;0.982391;0.013116;0.0;0.0;0.0;0.0;0.0;0.0
1.0;1753877969.653956;18.299211;1.08;-1.69;0.04;-0.059429;0.980913;0.015081;0.0;0.0;0.0;0.0;0.0;0.0
1.0;1753877969.658554;18.286615;1.09;-1.68;0.11;-0.060452;0.980493;0.015043;0.0;0.0;0.0;0.0;0.0;0.0
1.0;1753877969.663152;18.296824;1.07;-1.65;0.06;-0.058097;0.982311;0.014665;0.0;0.0;0.0;0.0;0.0;0.0
1.0;1753877969.66775;18.271;1.13;-1.63;0.06;-0.058855;0.981608;0.015781;0.0;0.0;0.0;0.0;0.0;0.0
1.0;1753877969.672348;18.292777;1.07;-1.62;0.01;-0.061037;0.981956;0.015361;0.0;0.0;0.0;0.0;0.0;0.0
1.0;1753877969.676946;18.276741;1.06;-1.68;0.1;-0.060216;0.980957;0.015122;0.0;0.0;0.0;0.0;0.0;0.0
1.0;1753877969.681543;18.298022;1.09;-1.67;0.06;-0.061015;0.98132;0.01553;0.0;0.0;0.0;0.0;0.0;0.0
1.0;1753877969.686141;18.33061;1.17;-1.61;0.09;-0.059894;0.983315;0.014596;0.0;0.0;0.0;0.0;0.0;0.0
1.0;1753877969.690739;18.299157;1.09;-1.55;0.04;-0.060882;0.982452;0.01595;0.0;0.0;0.0;0.0;0.0;0.0
1.0;1753877969.695337;18.30131;1.1;-1.54;0.09;-0.059222;0.982151;0.01529;0.0;0.0;0.0;0.0;0.0;0.0
1.0;1753877969.699935;18.283707;1.2;-1.65;0.04;-0.055736;0.981089;0.015019;0.0;0.0;0.0;0.0;0.0;0.0
1.0;1753877969.704533;18.297511;1.16;-1.61;0.03;-0.063109;0.982798;0.013956;0.0;0.0;0.0;0.0;0.0;0.0
1.0;1753877969.709131;18.303383;1.08;-1.6;0.11;-0.056156;0.981067;0.016318;0.0;0.0;0.0;0.0;0.0;0.0
1.0;1753877969.713729;18.278119;1.22;-1.64;0.13;-0.058427;0.981327;0.013662;0.0;0.0;0.0;0.0;0.0;0.0
1.0;1753877969.718326;18.291799;1.2;-1.57;0.03;-0.060097;0.982406;0.015458;0.0;0.0;0.0;0.0;0.0;0.0
1.0;1753877969.722924;18.298215;1.1;-1.61;0.12;-0.05445;0.983051;0.015501;0.0;0.0;0.0;0.0;0.0;0.0
1.0;1753877969.727522;18.27833;1.21;-1.68;0.09;-0.059249;0.981965;0.014291;0.0;0.0;0.0;0.0;0.0;0.0
1.0;1753877969.73212;18.301733;1.16;-1.66;0.12;-0.057495;0.981554;0.01506;0.0;0.0;0.0;0.0;0.0;0.0
1.0;1753877969.736718;18.331413;1.07;-1.56;0.03;-0.059269;0.981979;0.015932;0.0;0.0;0.0;0.0;0.0;0.0
1.0;1753877969.741316;18.290278;1.18;-1.58;0.14;-0.058489;0.982021;0.0153;0.0;0.0;0.0;0.0;0.0;0.0
1.0;1753877969.745914;18.3161;1.05;-1.65;0.07;-0.059169;0.981345;0.01591;0.0;0.0;0.0;0.0;0.0;0.0
1.0;1753877969.750512;18.305603;1.19;-1.49;0.01;-0.060991;0.982061;0.014816;0.0;0.0;0.0;0.0;0.0;0.0
1.0;1753877969.75511;18.2896;1.15;-1.6;0.04;-0.060025;0.981465;0.015713;0.0;0.0;0.0;0.0;0.0;0.0
1.0;1753877969.759708;18.286711;1.08;-1.69;0.11;-0.058383;0.981326;0.016056;0.0;0.0;0.0;0.0;0.0;0.0
1.0;1753877969.764306;18.27583;1.06;-1.59;0.02;-0.06034;0.981012;0.013762;0.0;0.0;0.0;0.0;0.0;0.0
1.0;1753877969.768904;18.286349;1.13;-1.56;0.15;-0.056342;0.980635;0.014832;0.0;0.0;0.0;0.0;0.0;0.0
1.0;1753877969.773502;18.286119;1.04;-1.64;0.1;-0.059747;0.981439;0.016112;0.0;0.0;0.0;0.0;0.0;0.0
1.0;1753877969.778099;18.291871;1.14;-1.58;0.02;-0.05781;0.982516;0.015019;0.0;0.0;0.0;0.0;0.0;0.0
1.0;1753877969.782697;18.29496;1.08;-1.61;0.02;-0.060293;0.982157;0.017516;0.0;0.0;0.0;0.0;0.0;0.0
1.0;1753877969.787295;18.275921;1.08;-1.54;0.07;-0.056372;0.980702;0.0155;0.0;0.0;0.0;0.0;0.0;0.0
1.0;1753877969.791893;18.291837;1.15;-1.71;0.08;-0.059895;0.980747;0.01429;0.0;0.0;0.0;0.0;0.0;0.0
1.0;1753877969.796491;18.305355;1.02;-1.54;0.09;-0.056483;0.981591;0.015683;0.0;0.0;0.0;0.0;0.0;0.0
1.0;1753877969.801089;18.298622;1.11;-1.59;0.08;-0.057063;0.982994;0.014961;0.0;0.0;0.0;0.0;0.0;0.0
1.0;1753877969.805687;18.292201;1.04;-1.5;0.09;-0.059657;0.980983;0.014815;0.0;0.0;0.0;0.0;0.0;0.0
1.0;1753877969.810284;18.311495;1.07;-1.58;0.1;-0.055563;0.981983;0.01481;0.0;0.0;0.0;0.0;0.0;0.0
1.0;1753877969.814882;18.29777;1.15;-1.6;0.13;-0.058912;0.981273;0.013721;0.0;0.0;0.0;0.0;0.0;0.0
1.0;1753877969.81948;18.317344;1.09;-1.53;0.07;-0.055166;0.981843;0.015272;0.0;0.0;0.0;0.0;0.0;0.0
1.0;1753877969.824078;18.302461;1.14;-1.54;0.09;-0.05707;0.981701;0.015125;0.0;0.0;0.0;0.0;0.0;0.0
1.0;1753877969.828676;18.306575;1.08;-1.6;0.09;-0.057785;0.981341;0.015483;0.0;0.0;0.0;0.0;0.0;0.0
1.0;1753877969.833274;18.254663;1.08;-1.54;0.1;-0.056147;0.980862;0.015807;0.0;0.0;0.0;0.0;0.0;0.0
1.0;1753877969.837872;18.304745;1.14;-1.63;0.11;-0.058945;0.981491;0.014781;0.0;0.0;0.0;0.0;0.0;0.0
1.0;1753877969.84247;18.302061;1.15;-1.52;0.1;-0.055588;0.980626;0.015818;0.0;0.0;0.0;0.0;0.0;0.0
1.0;1753877969.847068;18.28476;1.1;-1.51;0.09;-0.057066;0.982634;0.015268;0.0;0.0;0.0;0.0;0.0;0.0
1.0;1753877969.851666;18.288751;1.13;-1.48;0.11;-0.059921;0.981887;0.017142;0.0;0.0;0.0;0.0;0.0;0.0
1.0;1753877969.856264;18.295648;1.14;-1.53;0.08;-0.058542;0.979469;0.015933;0.0;0.0;0.0;0.0;0.0;0.0
1.0;1753877969.860862;18.303225;1.02;-1.54;0.0;-0.057835;0.982433;0.015245;0.0;0.0;0.0;0.0;0.0;0.0
1.0;1753877969.86546;18.304238;1.2;-1.48;0.12;-0.056162;0.98249;0.015874;0.0;0.0;0.0;0.0;0.0;0.0
1.0;1753877969.870057;18.304316;1.17;-1.39;0.04;-0.058057;0.981425;0.015491;0.0;0.0;0.0;0.0;0.0;0.0
1.0;1753877969.874655;18.28909;1.11;-1.49;-0.0;-0.055853;0.981083;0.014842;0.0;0.0;0.0;0.0;0.0;0.0
1.0;1753877969.879253;18.275477;1.22;-1.55;0.05;-0.0561;0.982161;0.015584;0.0;0.0;0.0;0.0;0.0;0.0
1.0;1753877969.883851;18.306816;1.08;-1.54;0.07;-0.057663;0.981852;0.016012;0.0;0.0;0.0;0.0;0.0;0.0
1.0;1753877969.888449;18.282488;1.2;-1.46;0.03;-0.055879;0.981566;0.013979;0.0;0.0;0.0;0.0;0.0;0.0
1.0;1753877969.893047;18.272051;1.18;-1.61;0.08;-0.053719;0.982092;0.015462;0.0;0.0;0.0;0.0;0.0;0.0
1.0;1753877969.897645;18.287519;1.19;-1.59;0.04;-0.05638;0.981441;0.015493;0.0;0.0;0.0;0.0;0.0;0.0
1.0;1753877969.902243;18.290372;1.01;-1.52;0.06;-0.057518;0.981745;0.016079;0.0;0.0;0.0;0.0;0.0;0.0
1.0;1753877969.90684;18.292727;1.08;-1.58;0.09;-0.057457;0.980662;0.015307;0.0;0.0;0.0;0.0;0.0;0.0
1.0;1753877969.911438;18.293908;1.09;-1.56;0.09;-0.053205;0.981809;0.016551;0.0;0.0;0.0;0.0;0.0;0.0
1.0;1753877969.916036;18.298237;1.09;-1.55;0.05;-0.054804;0.980959;0.016216;0.0;0.0;0.0;0.0;0.0;0.0
1.0;1753877969.920634;18.264203;1.15;-1.48;0.06;-0.05667;0.980917;0.016554;0.0;0.0;0.0;0.0;0.0;0.0
1.0;1753877969.9263;18.296875;1.12;-1.54;0.07;-0.055998;0.98149;0.015494;0.0;0.0;0.0;0.0;0.0;0.0
1.0;1753877969.930898;18.280002;1.04;-1.5;0.02;-0.053346;0.981578;0.015621;0.0;0.0;0.0;0.0;0.0;0.0
1.0;1753877969.935496;18.285109;1.04;-1.64;0.12;-0.055299;0.981561;0.016427;0.0;0.0;0.0;0.0;0.0;0.0
1.0;1753877969.940094;18.303402;1.03;-1.58;0.03;-0.054216;0.981906;0.015015;0.0;0.0;0.0;0.0;0.0;0.0
1.0;1753877969.944692;18.304616;1.12;-1.52;0.0;-0.054447;0.981438;0.016236;0.0;0.0;0.0;0.0;0.0;0.0
1.0;1753877969.94929;18.250331;1.07;-1.54;0.04;-0.05608;0.980063;0.014681;0.0;0.0;0.0;0.0;0.0;0.0
1.0;1753877969.953888;18.296425;1.1;-1.52;0.06;-0.053881;0.982139;0.016489;0.0;0.0;0.0;0.0;0.0;0.0
1.0;1753877969.958485;18.312782;1.1;-1.53;0.06;-0.056715;0.980858;0.01483;0.0;0.0;0.0;0.0;0.0;0.0
1.0;1753877969.963083;18.312023;1.08;-1.62;0.0;-0.05594;0.980538;0.015628;0.0;0.0;0.0;0.0;0.0;0.0
1.0;1753877969.967681;18.334357;1.12;-1.54;0.03;-0.05525;0.980073;0.016299;0.0;0.0;0.0;0.0;0.0;0.0
1.0;1753877969.972279;18.327175;1.16;-1.71;0.1;-0.057466;0.980039;0.016174;0.0;0.0;0.0;0.0;0.0;0.0
1.0;1753877969.976877;18.333671;1.11;-1.52;0.02;-0.057806;0.980786;0.016244;0.0;0.0;0.0;0.0;0.0;0.0
1.0;1753877969.981475;18.306126;1.07;-1.6;-0.03;-0.057297;0.981082;0.017255;0.0;0.0;0.0;0.0;0.0;0.0
1.0;1753877969.986073;18.284719;1.06;-1.61;0.03;-0.05911;0.98037;0.016258;0.0;0.0;0.0;0.0;0.0;0.0
1.0;1753877969.9942;18.3125;1.05;-1.61;0.07;-0.05734;0.980514;0.016836;0.0;0.0;0.0;0.0;0.0;0.0
1.0;1753877969.997031;18.289062;1.05;-1.68;0.14;-0.059048;0.979782;0.016348;0.0;0.0;0.0;0.0;0.0;0.0
1.0;1753877970.001629;18.285883;1.04;-1.58;0.14;-0.059194;0.979224;0.015902;0.0;0.0;0.0;0.0;0.0;0.0
1.0;1753877970.006227;18.296609;1.03;-1.55;0.13;-0.060206;0.979086;0.015739;0.0;0.0;0.0;0.0;0.0;0.0
1.0;1753877970.010825;18.290839;0.99;-1.69;0.15;-0.058724;0.980084;0.014855;0.0;0.0;0.0;0.0;0.0;0.0
1.0;1753877970.015422;18.297767;1.0;-1.64;0.25;-0.059397;0.979547;0.016718;0.0;0.0;0.0;0.0;0.0;0.0
1.0;1753877970.02002;18.289884;0.96;-1.68;0.23;-0.059384;0.980043;0.014579;0.0;0.0;0.0;0.0;0.0;0.0
1.0;1753877970.024618;18.284621;1.02;-1.73;0.13;-0.058641;0.980475;0.014804;0.0;0.0;0.0;0.0;0.0;0.0
1.0;1753877970.029216;18.318871;1.05;-1.66;0.12;-0.059247;0.980466;0.014999;0.0;0.0;0.0;0.0;0.0;0.0
1.0;1753877970.033814;18.281273;1.04;-1.63;0.1;-0.059932;0.980283;0.015875;0.0;0.0;0.0;0.0;0.0;0.0
1.0;1753877970.038412;18.310979;1.09;-1.69;0.09;-0.05786;0.98022;0.016209;0.0;0.0;0.0;0.0;0.0;0.0
1.0;1753877970.04301;18.2798;0.99;-1.61;0.06;-0.058875;0.978633;0.015889;0.0;0.0;0.0;0.0;0.0;0.0
1.0;1753877970.047608;18.274617;0.97;-1.68;0.09;-0.056219;0.97894;0.015423;0.0;0.0;0.0;0.0;0.0;0.0
1.0;1753877970.052206;18.298552;1.0;-1.84;0.03;-0.057361;0.980065;0.01616;0.0;0.0;0.0;0.0;0.0;0.0
1.0;1753877970.056804;18.283197;1.06;-1.71;0.03;-0.059568;0.980435;0.016122;0.0;0.0;0.0;0.0;0.0;0.0
1.0;1753877970.061402;18.295653;1.01;-1.75;0.13;-0.058599;0.980039;0.015041;0.0;0.0;0.0;0.0;0.0;0.0
1.0;1753877970.066;18.304679;1.0;-1.65;0.03;-0.059178;0.97995;0.015875;0.0;0.0;0.0;0.0;0.0;0.0
1.0;1753877970.070598;18.294689;1.01;-1.54;0.04;-0.058439;0.97976;0.017759;0.0;0.0;0.0;0.0;0.0;0.0
1.0;1753877970.075195;18.28223;1.03;-1.68;0.09;-0.057993;0.980758;0.016084;0.0;0.0;0.0;0.0;0.0;0.0
1.0;1753877970.079793;18.267648;1.01;-1.69;0.01;-0.059478;0.980142;0.015395;0.0;0.0;0.0;0.0;0.0;0.0
1.0;1753877970.084391;18.29313;0.97;-1.62;0.02;-0.058922;0.981324;0.01749;0.0;0.0;0.0;0.0;0.0;0.0
1.0;1753877970.088989;18.294746;0.94;-1.83;0.05;-0.05858;0.981096;0.016297;0.0;0.0;0.0;0.0;0.0;0.0
1.0;1753877970.093587;18.293681;0.99;-1.58;0.09;-0.058273;0.981341;0.015166;0.0;0.0;0.0;0.0;0.0;0.0
1.0;1753877970.098185;18.301808;1.13;-1.74;0.05;-0.061664;0.980387;0.014792;0.0;0.0;0.0;0.0;0.0;0.0
1.0;1753877970.102783;18.297574;1.09;-1.66;0.05;-0.05984;0.979814;0.015981;0.0;0.0;0.0;0.0;0.0;0.0
1.0;1753877970.107381;18.310921;0.98;-1.63;0.02;-0.056056;0.979904;0.015935;0.0;0.0;0.0;0.0;0.0;0.0
1.0;1753877970.111978;18.294884;0.96;-1.71;-0.06;-0.057069;0.980577;0.015261;0.0;0.0;0.0;0.0;0.0;0.0
1.0;1753877970.116576;18.284635;1.03;-1.67;-0.01;-0.059353;0.981226;0.014474;0.0;0.0;0.0;0.0;0.0;0.0
1.0;1753877970.121174;18.300805;1.01;-1.68;0.05;-0.05817;0.980789;0.015089;0.0;0.0;0.0;0.0;0.0;0.0
1.0;1753877970.125772;18.287096;0.98;-1.71;-0.06;-0.055706;0.980367;0.013975;0.0;0.0;0.0;0.0;0.0;0.0
1.0;1753877970.13037;18.28184;0.92;-1.64;0.02;-0.059289;0.979478;0.014746;0.0;0.0;0.0;0.0;0.0;0.0
1.0;1753877970.134968;18.290068;1.02;-1.67;0.14;-0.059948;0.980659;0.015852;0.0;0.0;0.0;0.0;0.0;0.0
1.0;1753877970.139566;18.300339;0.91;-1.69;0.03;-0.055823;0.981564;0.013614;0.0;0.0;0.0;0.0;0.0;0.0
1.0;1753877970.144164;18.277327;1.06;-1.67;-0.08;-0.057968;0.981095;0.016354;0.0;0.0;0.0;0.0;0.0;0.0
1.0;1753877970.148762;18.311691;0.96;-1.61;-0.01;-0.059296;0.980536;0.014347;0.0;0.0;0.0;0.0;0.0;0.0
1.0;1753877970.15336;18.26244;0.88;-1.66;-0.02;-0.056966;0.981186;0.015614;0.0;0.0;0.0;0.0;0.0;0.0
1.0;1753877970.16;18.292969;0.98;-1.68;0.0;-0.05734;0.98088;0.01464;0.0;0.0;0.0;0.0;0.0;0.0
1.0;1753877970.164598;18.264213;1.06;-1.65;-0.01;-0.056708;0.981626;0.015839;0.0;0.0;0.0;0.0;0.0;0.0
1.0;1753877970.169196;18.281633;0.97;-1.6;-0.03;-0.057527;0.98107;0.015021;0.0;0.0;0.0;0.0;0.0;0.0
1.0;1753877970.173794;18.287716;1.06;-1.72;0.07;-0.059461;0.981165;0.0161;0.0;0.0;0.0;0.0;0.0;0.0
1.0;1753877970.178392;18.293238;0.92;-1.66;-0.04;-0.058195;0.981487;0.015381;0.0;0.0;0.0;0.0;0.0;0.0
1.0;1753877970.18299;18.298608;0.88;-1.63;0.02;-0.060122;0.98018;0.014518;0.0;0.0;0.0;0.0;0.0;0.0
1.0;1753877970.187588;18.31487;0.96;-1.55;0.01;-0.058015;0.980674;0.014921;0.0;0.0;0.0;0.0;0.0;0.0
1.0;1753877970.192186;18.26577;1.0;-1.68;0.08;-0.054845;0.98045;0.015155;0.0;0.0;0.0;0.0;0.0;0.0
1.0;1753877970.196783;18.292074;0.91;-1.71;-0.02;-0.057396;0.979943;0.013452;0.0;0.0;0.0;0.0;0.0;0.0
1.0;1753877970.201381;18.285758;0.99;-1.71;0.02;-0.057914;0.981732;0.013987;0.0;0.0;0.0;0.0;0.0;0.0
1.0;1753877970.205979;18.280274;0.96;-1.79;0.06;-0.057597;0.980149;0.013663;0.0;0.0;0.0;0.0;0.0;0.0
1.0;1753877970.210577;18.306909;0.93;-1.7;0.07;-0.056949;0.980976;0.015205;0.0;0.0;0.0;0.0;0.0;0.0
1.0;1753877970.215175;18.287516;0.94;-1.64;-0.01;-0.054021;0.980689;0.014462;0.0;0.0;0.0;0.0;0.0;0.0
1.0;1753877970.219773;18.291925;0.94;-1.45;-0.03;-0.056722;0.980726;0.01454;0.0;0.0;0.0;0.0;0.0;0.0
1.0;1753877970.224371;18.29717;0.96;-1.64;-0.06;-0.058079;0.980568;0.015123;0.0;0.0;0.0;0.0;0.0;0.0
1.0;1753877970.228968;18.312176;1.0;-1.69;-0.06;-0.054771;0.980063;0.014476;0.0;0.0;0.0;0.0;0.0;0.0
1.0;1753877970.233566;18.282892;0.96;-1.7;0.03;-0.058789;0.980596;0.015903;0.0;0.0;0.0;0.0;0.0;0.0
1.0;1753877970.238164;18.293217;1.12;-1.64;-0.02;-0.056609;0.981034;0.015508;0.0;0.0;0.0;0.0;0.0;0.0
1.0;1753877970.242762;18.279361;1.07;-1.7;0.02;-0.056354;0.980184;0.015539;0.0;0.0;0.0;0.0;0.0;0.0
1.0;1753877970.24736;18.311205;0.96;-1.62;0.0;-0.057676;0.98106;0.013917;0.0;0.0;0.0;0.0;0.0;0.0
1.0;1753877970.251958;18.281334;0.91;-1.67;0.02;-0.057237;0.981334;0.013965;0.0;0.0;0.0;0.0;0.0;0.0
1.0;1753877970.256556;18.289777;1.0;-1.61;-0.06;-0.058329;0.9805;0.013978;0.0;0.0;0.0;0.0;0.0;0.0
1.0;1753877970.261154;18.275215;0.97;-1.77;0.01;-0.055764;0.98212;0.016425;0.0;0.0;0.0;0.0;0.0;0.0
1.0;1753877970.265752;18.283141;0.97;-1.68;0.07;-0.05912;0.980691;0.012801;0.0;0.0;0.0;0.0;0.0;0.0
1.0;1753877970.27035;18.308546;1.02;-1.75;0.02;-0.057808;0.98088;0.01331;0.0;0.0;0.0;0.0;0.0;0.0
1.0;1753877970.274948;18.303211;1.1;-1.44;0.01;-0.05836;0.980773;0.014072;0.0;0.0;0.0;0.0;0.0;0.0
1.0;1753877970.279546;18.276173;0.98;-1.75;-0.02;-0.057604;0.979911;0.013169;0.0;0.0;0.0;0.0;0.0;0.0
1.0;1753877970.284144;18.306557;0.89;-1.55;-0.0;-0.058642;0.98116;0.014947;0.0;0.0;0.0;0.0;0.0;0.0
1.0;1753877970.288741;18.295523;1.0;-1.67;0.04;-0.056973;0.982197;0.015768;0.0;0.0;0.0;0.0;0.0;0.0
1.0;1753877970.293339;18.278419;0.98;-1.62;0.15;-0.054152;0.981215;0.013775;0.0;0.0;0.0;0.0;0.0;0.0
1.0;1753877970.297937;18.286972;1.03;-1.68;0.05;-0.055974;0.98126;0.016214;0.0;0.0;0.0;0.0;0.0;0.0
1.0;1753877970.302535;18.319981;0.95;-1.58;0.05;-0.058854;0.980322;0.013717;0.0;0.0;0.0;0.0;0.0;0.0
1.0;1753877970.307133;18.298978;1.01;-1.62;0.1;-0.054628;0.981149;0.015991;0.0;0.0;0.0;0.0;0.0;0.0
1.0;1753877970.311731;18.294708;0.89;-1.68;0.05;-0.057556;0.981767;0.014654;0.0;0.0;0.0;0.0;0.0;0.0
1.0;1753877970.316329;18.283072;0.98;-1.61;0.04;-0.059405;0.981687;0.015886;0.0;0.0;0.0;0.0;0.0;0.0
1.0;1753877970.320927;18.309025;1.03;-1.72;0.11;-0.058258;0.981875;0.014559;0.0;0.0;0.0;0.0;0.0;0.0
1.0;1753877970.325524;18.257304;0.94;-1.7;-0.01;-0.058181;0.98168;0.015341;0.0;0.0;0.0;0.0;0.0;0.0
1.0;1753877970.330122;18.291262;0.99;-1.75;-0.05;-0.056582;0.981109;0.014443;0.0;0.0;0.0;0.0;0.0;0.0
1.0;1753877970.33472;18.304144;1.09;-1.71;0.06;-0.056693;0.981586;0.013874;0.0;0.0;0.0;0.0;0.0;0.0
1.0;1753877970.339318;18.302762;1.04;-1.6;0.08;-0.058684;0.979281;0.014154;0.0;0.0;0.0;0.0;0.0;0.0
1.0;1753877970.343916;18.284557;0.98;-1.73;0.02;-0.058472;0.979642;0.014445;0.0;0.0;0.0;0.0;0.0;0.0
1.0;1753877970.348514;18.280833;1.03;-1.63;0.01;-0.056084;0.981535;0.015586;0.0;0.0;0.0;0.0;0.0;0.0
1.0;1753877970.353112;18.285691;1.0;-1.65;-0.01;-0.057716;0.981453;0.014276;0.0;0.0;0.0;0.0;0.0;0.0
1.0;1753877970.35771;18.270745;1.02;-1.66;0.01;-0.05874;0.981345;0.015112;0.0;0.0;0.0;0.0;0.0;0.0
1.0;1753877970.362308;18.301458;0.96;-1.64;0.02;-0.056915;0.981197;0.015914;0.0;0.0;0.0;0.0;0.0;0.0
1.0;1753877970.366906;18.312393;0.99;-1.76;0.03;-0.057465;0.979566;0.015049;0.0;0.0;0.0;0.0;0.0;0.0
1.0;1753877970.371504;18.303375;1.01;-1.62;-0.03;-0.059121;0.98179;0.013073;0.0;0.0;0.0;0.0;0.0;0.0
1.0;1753877970.376102;18.29424;0.96;-1.62;0.08;-0.056778;0.980906;0.014539;0.0;0.0;0.0;0.0;0.0;0.0
1.0;1753877970.3807;18.28819;0.99;-1.56;0.01;-0.059647;0.980153;0.015293;0.0;0.0;0.0;0.0;0.0;0.0
1.0;1753877970.385297;18.295045;0.87;-1.68;0.04;-0.058787;0.979703;0.014606;0.0;0.0;0.0;0.0;0.0;0.0
1.0;1753877970.389895;18.316069;1.02;-1.69;-0.05;-0.057562;0.981074;0.01613;0.0;0.0;0.0;0.0;0.0;0.0
1.0;1753877970.394493;18.279941;1.06;-1.55;0.04;-0.055804;0.980392;0.015849;0.0;0.0;0.0;0.0;0.0;0.0
1.0;1753877970.399091;18.273105;0.99;-1.69;0.01;-0.056805;0.980713;0.016306;0.0;0.0;0.0;0.0;0.0;0.0
1.0;1753877970.403689;18.298665;1.03;-1.7;0.08;-0.057503;0.981008;0.013669;0.0;0.0;0.0;0.0;0.0;0.0
1.0;1753877970.408287;18.313411;0.97;-1.72;0.04;-0.057339;0.981112;0.015266;0.0;0.0;0.0;0.0;0.0;0.0
1.0;1753877970.412885;18.290148;1.03;-1.62;0.08;-0.054276;0.98025;0.01521;0.0;0.0;0.0;0.0;0.0;0.0
1.0;1753877970.417482;18.284346;0.96;-1.73;-0.04;-0.056982;0.982821;0.014462;0.0;0.0;0.0;0.0;0.0;0.0
1.0;1753877970.42208;18.287429;1.09;-1.57;-0.03;-0.056364;0.980467;0.014394;0.0;0.0;0.0;0.0;0.0;0.0
1.0;1753877970.426678;18.278172;1.06;-1.65;0.08;-0.05615;0.98101;0.013872;0.0;0.0;0.0;0.0;0.0;0.0
1.0;1753877970.431276;18.268161;1.03;-1.72;0.03;-0.057372;0.979468;0.016073;0.0;0.0;0.0;0.0;0.0;0.0
1.0;1753877970.435874;18.289125;1.09;-1.65;0.1;-0.057842;0.981295;0.014587;0.0;0.0;0.0;0.0;0.0;0.0
1.0;1753877970.440472;18.306071;0.92;-1.64;0.05;-0.054678;0.981224;0.015997;0.0;0.0;0.0;0.0;0.0;0.0
1.0;1753877970.44507;18.288501;1.13;-1.75;0.01;-0.056503;0.980695;0.012785;0.0;0.0;0.0;0.0;0.0;0.0
1.0;1753877970.449668;18.282629;0.92;-1.58;-0.02;-0.058303;0.980225;0.015174;0.0;0.0;0.0;0.0;0.0;0.0
1.0;1753877970.454266;18.287254;0.99;-1.58;0.1;-0.058358;0.980669;0.014435;0.0;0.0;0.0;0.0;0.0;0.0
1.0;1753877970.458864;18.288436;1.11;-1.59;0.02;-0.0555;0.98175;0.014351;0.0;0.0;0.0;0.0;0.0;0.0
1.0;1753877970.463462;18.289384;1.05;-1.67;0.03;-0.054139;0.9808;0.015239;0.0;0.0;0.0;0.0;0.0;0.0
1.0;1753877970.46806;18.296403;1.01;-1.61;0.08;-0.05812;0.981342;0.015257;0.0;0.0;0.0;0.0;0.0;0.0
1.0;1753877970.472658;18.31008;1.08;-1.6;0.0;-0.05445;0.980617;0.01397;0.0;0.0;0.0;0.0;0.0;0.0
1.0;1753877970.477255;18.294752;1.0;-1.61;0.1;-0.058124;0.980917;0.015272;0.0;0.0;0.0;0.0;0.0;0.0
1.0;1753877970.481853;18.280261;1.19;-1.59;0.07;-0.056569;0.981461;0.014915;0.0;0.0;0.0;0.0;0.0;0.0
1.0;1753877970.486451;18.290236;1.03;-1.6;0.07;-0.054869;0.981738;0.015279;0.0;0.0;0.0;0.0;0.0;0.0
1.0;1753877970.491049;18.283727;0.96;-1.62;0.08;-0.058056;0.981167;0.015091;0.0;0.0;0.0;0.0;0.0;0.0
1.0;1753877970.495647;18.298993;0.95;-1.64;0.04;-0.05632;0.980642;0.014954;0.0;0.0;0.0;0.0;0.0;0.0
1.0;1753877970.500245;18.310325;1.04;-1.61;0.15;-0.058499;0.980527;0.015489;0.0;0.0;0.0;0.0;0.0;0.0
1.0;1753877970.504843;18.265641;1.03;-1.59;0.04;-0.056898;0.980756;0.015038;0.0;0.0;0.0;0.0;0.0;0.0
1.0;1753877970.509441;18.308931;1.06;-1.64;0.15;-0.059533;0.981103;0.013992;0.0;0.0;0.0;0.0;0.0;0.0
1.0;1753877970.514038;18.3054;0.98;-1.57;-0.01;-0.056432;0.980135;0.015367;0.0;0.0;0.0;0.0;0.0;0.0
1.0;1753877970.518636;18.313251;1.05;-1.61;0.03;-0.055529;0.981015;0.015002;0.0;0.0;0.0;0.0;0.0;0.0
1.0;1753877970.523234;18.284714;1.07;-1.67;0.02;-0.056894;0.980755;0.014673;0.0;0.0;0.0;0.0;0.0;0.0
1.0;1753877970.527832;18.278896;1.02;-1.65;0.07;-0.056252;0.980573;0.015448;0.0;0.0;0.0;0.0;0.0;0.0
1.0;1753877970.53243;18.284525;1.02;-1.65;0.03;-0.057185;0.980616;0.016457;0.0;0.0;0.0;0.0;0.0;0.0
1.0;1753877970.537028;18.280881;0.98;-1.53;0.06;-0.057458;0.980901;0.015427;0.0;0.0;0.0;0.0;0.0;0.0
1.0;1753877970.541626;18.291616;1.14;-1.67;0.01;-0.055057;0.980205;0.014775;0.0;0.0;0.0;0.0;0.0;0.0
1.0;1753877970.546224;18.306858;1.0;-1.62;0.1;-0.056394;0.9795;0.015372;0.0;0.0;0.0;0.0;0.0;0.0
1.0;1753877970.550822;18.300453;1.02;-1.64;0.04;-0.057636;0.981476;0.015374;0.0;0.0;0.0;0.0;0.0;0.0
1.0;1753877970.55542;18.290261;1.06;-1.6;0.04;-0.057524;0.98031;0.014837;0.0;0.0;0.0;0.0;0.0;0.0
1.0;1753877970.560018;18.299197;1.08;-1.54;0.06;-0.055818;0.981041;0.013792;0.0;0.0;0.0;0.0;0.0;0.0
1.0;1753877970.564616;18.321541;1.07;-1.64;-0.01;-0.057745;0.98129;0.015215;0.0;0.0;0.0;0.0;0.0;0.0
1.0;1753877970.569214;18.291406;1.0;-1.6;-0.01;-0.055308;0.981006;0.015146;0.0;0.0;0.0;0.0;0.0;0.0
1.0;1753877970.573811;18.310232;1.1;-1.55;0.06;-0.060608;0.98087;0.013828;0.0;0.0;0.0;0.0;0.0;0.0
1.0;1753877970.578409;18.275632;1.09;-1.6;0.13;-0.057455;0.980885;0.016133;0.0;0.0;0.0;0.0;0.0;0.0
1.0;1753877970.583007;18.275088;1.07;-1.65;0.11;-0.057923;0.980368;0.015811;0.0;0.0;0.0;0.0;0.0;0.0
1.0;1753877970.587605;18.292525;1.11;-1.64;-0.03;-0.059378;0.980409;0.015243;0.0;0.0;0.0;0.0;0.0;0.0
1.0;1753877970.592203;18.302257;1.05;-1.51;0.06;-0.056554;0.981363;0.015517;0.0;0.0;0.0;0.0;0.0;0.0
1.0;1753877970.596801;18.292944;1.13;-1.57;0.09;-0.057589;0.980318;0.015508;0.0;0.0;0.0;0.0;0.0;0.0
1.0;1753877970.601399;18.300306;1.15;-1.71;0.03;-0.05856;0.979937;0.012775;0.0;0.0;0.0;0.0;0.0;0.0
1.0;1753877970.605996;18.300192;1.12;-1.54;0.07;-0.057352;0.980659;0.015001;0.0;0.0;0.0;0.0;0.0;0.0
1.0;1753877970.610594;18.289136;1.0;-1.6;0.13;-0.058251;0.981466;0.013697;0.0;0.0;0.0;0.0;0.0;0.0
1.0;1753877970.615192;18.304091;1.16;-1.68;0.02;-0.056451;0.980209;0.016468;0.0;0.0;0.0;0.0;0.0;0.0
1.0;1753877970.6194;18.292969;1.05;-1.61;0.07;-0.05734;0.980758;0.014884;0.0;0.0;0.0;0.0;0.0;0.0
1.0;1753877970.62674;18.300781;1.19;-1.68;0.07;-0.058072;0.981368;0.01525;0.0;0.0;0.0;0.0;0.0;0.0
1.0;1753877970.631338;18.298061;1.17;-1.57;0.05;-0.057936;0.980634;0.017348;0.0;0.0;0.0;0.0;0.0;0.0
1.0;1753877970.635936;18.296701;1.19;-1.63;0.19;-0.057964;0.98133;0.014403;0.0;0.0;0.0;0.0;0.0;0.0
1.0;1753877970.640534;18.307723;1.07;-1.7;0.04;-0.057214;0.982572;0.016117;0.0;0.0;0.0;0.0;0.0;0.0
1.0;1753877970.645132;18.307521;1.15;-1.66;0.04;-0.058046;0.980353;0.016864;0.0;0.0;0.0;0.0;0.0;0.0
1.0;1753877970.64973;18.307722;1.0;-1.63;0.07;-0.058084;0.980716;0.014813;0.0;0.0;0.0;0.0;0.0;0.0
1.0;1753877970.65627;18.300781;1.05;-1.61;0.0;-0.057584;0.980636;0.015494;0.0;0.0;0.0;0.0;0.0;0.0
1.0;1753877970.660868;18.297958;1.09;-1.7;0.02;-0.057921;0.981328;0.015237;0.0;0.0;0.0;0.0;0.0;0.0
1.0;1753877970.665466;18.298192;1.04;-1.61;0.02;-0.05937;0.98105;0.013766;0.0;0.0;0.0;0.0;0.0;0.0
1.0;1753877970.670064;18.293924;1.06;-1.62;-0.01;-0.05839;0.981281;0.015811;0.0;0.0;0.0;0.0;0.0;0.0
1.0;1753877970.674662;18.303006;1.09;-1.52;0.05;-0.056291;0.980343;0.015303;0.0;0.0;0.0;0.0;0.0;0.0
1.0;1753877970.67926;18.291954;1.09;-1.6;0.01;-0.058047;0.981793;0.014378;0.0;0.0;0.0;0.0;0.0;0.0
1.0;1753877970.683858;18.311204;0.98;-1.61;-0.06;-0.058617;0.981076;0.015365;0.0;0.0;0.0;0.0;0.0;0.0
1.0;1753877970.688455;18.29606;1.14;-1.6;0.05;-0.059473;0.979255;0.013555;0.0;0.0;0.0;0.0;0.0;0.0
1.0;1753877970.693053;18.300275;1.02;-1.66;0.1;-0.059396;0.980797;0.012798;0.0;0.0;0.0;0.0;0.0;0.0
1.0;1753877970.70163;18.300781;1.05;-1.68;0.0;-0.059536;0.981002;0.01403;0.0;0.0;0.0;0.0;0.0;0.0
1.0;1753877970.706228;18.30063;1.04;-1.75;-0.01;-0.059402;0.982309;0.012794;0.0;0.0;0.0;0.0;0.0;0.0
1.0;1753877970.710826;18.303989;1.05;-1.64;-0.01;-0.059332;0.981147;0.012896;0.0;0.0;0.0;0.0;0.0;0.0
1.0;1753877970.715424;18.29708;1.06;-1.69;0.01;-0.056851;0.980708;0.013378;0.0;0.0;0.0;0.0;0.0;0.0
1.0;1753877970.720022;18.288606;1.13;-1.7;0.04;-0.05795;0.981296;0.014441;0.0;0.0;0.0;0.0;0.0;0.0
1.0;1753877970.72462;18.284303;1.14;-1.62;-0.0;-0.0586;0.981648;0.015225;0.0;0.0;0.0;0.0;0.0;0.0
1.0;1753877970.729218;18.275436;1.13;-1.72;0.06;-0.05542;0.980223;0.014932;0.0;0.0;0.0;0.0;0.0;0.0
1.0;1753877970.733816;18.287311;1.19;-1.69;0.05;-0.058213;0.980927;0.014197;0.0;0.0;0.0;0.0;0.0;0.0
1.0;1753877970.738413;18.283456;1.05;-1.64;0.08;-0.058813;0.981642;0.014104;0.0;0.0;0.0;0.0;0.0;0.0
1.0;1753877970.743011;18.29132;1.18;-1.57;0.15;-0.057647;0.981463;0.013767;0.0;0.0;0.0;0.0;0.0;0.0
1.0;1753877970.747609;18.286362;1.09;-1.7;0.08;-0.057195;0.981655;0.014138;0.0;0.0;0.0;0.0;0.0;0.0
1.0;1753877970.752207;18.285589;1.13;-1.73;0.2;-0.057867;0.980511;0.015421;0.0;0.0;0.0;0.0;0.0;0.0
1.0;1753877970.756805;18.265671;1.2;-1.72;0.16;-0.055935;0.980018;0.014522;0.0;0.0;0.0;0.0;0.0;0.0
1.0;1753877970.761403;18.273917;1.11;-1.71;0.06;-0.056077;0.981389;0.014657;0.0;0.0;0.0;0.0;0.0;0.0
1.0;1753877970.766001;18.268709;1.1;-1.75;0.11;-0.055652;0.983438;0.014974;0.0;0.0;0.0;0.0;0.0;0.0
1.0;1753877970.77344;18.269531;1.12;-1.68;0.14;-0.056608;0.981612;0.014884;0.0;0.0;0.0;0.0;0.0;0.0
1.0;1753877970.778038;18.262518;1.13;-1.65;0.25;-0.056625;0.98093;0.014364;0.0;0.0;0.0;0.0;0.0;0.0
1.0;1753877970.782636;18.253044;1.18;-1.7;0.1;-0.057044;0.981147;0.014464;0.0;0.0;0.0;0.0;0.0;0.0
1.0;1753877970.787234;18.262466;1.16;-1.67;0.12;-0.058434;0.980991;0.01418;0.0;0.0;0.0;0.0;0.0;0.0
1.0;1753877970.79477;18.269531;1.12;-1.68;0.14;-0.05856;0.98027;0.014396;0.0;0.0;0.0;0.0;0.0;0.0
1.0;1753877970.799368;18.283093;1.14;-1.73;0.16;-0.058021;0.979652;0.01403;0.0;0.0;0.0;0.0;0.0;0.0
1.0;1753877970.803966;18.272592;1.09;-1.59;0.17;-0.057279;0.980336;0.014242;0.0;0.0;0.0;0.0;0.0;0.0
1.0;1753877970.808564;18.289507;1.05;-1.64;0.24;-0.059563;0.979904;0.01466;0.0;0.0;0.0;0.0;0.0;0.0
1.0;1753877970.813162;18.275946;1.04;-1.65;0.19;-0.058321;0.979013;0.015175;0.0;0.0;0.0;0.0;0.0;0.0
1.0;1753877970.81776;18.280966;1.18;-1.58;0.12;-0.058025;0.980781;0.016065;0.0;0.0;0.0;0.0;0.0;0.0
1.0;1753877970.822358;18.270164;1.15;-1.63;0.18;-0.057457;0.979959;0.014259;0.0;0.0;0.0;0.0;0.0;0.0
1.0;1753877970.826955;18.271053;1.14;-1.64;0.06;-0.056523;0.980496;0.015264;0.0;0.0;0.0;0.0;0.0;0.0
1.0;1753877970.831553;18.263439;1.14;-1.72;0.2;-0.057639;0.980608;0.014392;0.0;0.0;0.0;0.0;0.0;0.0
1.0;1753877970.83916;18.269531;1.05;-1.61;0.14;-0.05795;0.98027;0.01525;0.0;0.0;0.0;0.0;0.0;0.0
1.0;1753877970.843758;18.262486;1.05;-1.62;0.16;-0.059178;0.980727;0.015572;0.0;0.0;0.0;0.0;0.0;0.0
1.0;1753877970.848356;18.262277;1.11;-1.65;0.18;-0.059262;0.980683;0.014867;0.0;0.0;0.0;0.0;0.0;0.0
1.0;1753877970.852954;18.257687;1.01;-1.65;0.17;-0.056419;0.980568;0.015673;0.0;0.0;0.0;0.0;0.0;0.0
1.0;1753877970.857552;18.27391;1.0;-1.59;0.1;-0.058882;0.979182;0.014806;0.0;0.0;0.0;0.0;0.0;0.0
1.0;1753877970.86215;18.265745;1.05;-1.69;0.16;-0.056543;0.981512;0.016176;0.0;0.0;0.0;0.0;0.0;0.0
1.0;1753877970.866748;18.276127;0.96;-1.62;0.06;-0.058632;0.98184;0.016657;0.0;0.0;0.0;0.0;0.0;0.0
1.0;1753877970.871345;18.270648;1.16;-1.65;0.09;-0.057561;0.982105;0.01532;0.0;0.0;0.0;0.0;0.0;0.0
1.0;1753877970.875943;18.266243;1.05;-1.59;0.08;-0.056817;0.981736;0.015304;0.0;0.0;0.0;0.0;0.0;0.0
1.0;1753877970.880541;18.263569;1.04;-1.69;0.15;-0.05857;0.981571;0.016655;0.0;0.0;0.0;0.0;0.0;0.0
1.0;1753877970.88493;18.269531;1.05;-1.68;0.14;-0.057462;0.98149;0.01647;0.0;0.0;0.0;0.0;0.0;0.0
1.0;1753877970.889528;18.287248;1.08;-1.67;0.19;-0.060061;0.981086;0.016477;0.0;0.0;0.0;0.0;0.0;0.0
1.0;1753877970.894126;18.25851;1.08;-1.59;0.23;-0.057097;0.981209;0.016512;0.0;0.0;0.0;0.0;0.0;0.0
1.0;1753877970.898724;18.276838;0.98;-1.72;0.17;-0.05915;0.9802;0.016203;0.0;0.0;0.0;0.0;0.0;0.0
1.0;1753877970.903322;18.294527;1.01;-1.69;0.07;-0.05785;0.982009;0.016002;0.0;0.0;0.0;0.0;0.0;0.0
1.0;1753877970.90792;18.28151;1.12;-1.71;0.13;-0.056915;0.980449;0.016549;0.0;0.0;0.0;0.0;0.0;0.0
1.0;1753877970.912517;18.301688;1.01;-1.69;0.07;-0.056183;0.979937;0.014198;0.0;0.0;0.0;0.0;0.0;0.0
1.0;1753877970.917115;18.28583;1.14;-1.76;0.12;-0.057655;0.980991;0.016663;0.0;0.0;0.0;0.0;0.0;0.0
1.0;1753877970.921713;18.319198;1.05;-1.62;0.07;-0.058701;0.981521;0.015068;0.0;0.0;0.0;0.0;0.0;0.0
1.0;1753877970.926311;18.302847;1.05;-1.8;0.09;-0.05796;0.981651;0.015542;0.0;0.0;0.0;0.0;0.0;0.0
1.0;1753877970.930909;18.296675;1.0;-1.65;0.03;-0.056545;0.980854;0.015566;0.0;0.0;0.0;0.0;0.0;0.0
1.0;1753877970.93708;18.308594;1.05;-1.68;0.07;-0.057706;0.980392;0.01525;0.0;0.0;0.0;0.0;0.0;0.0
1.0;1753877970.941678;18.310936;1.05;-1.71;0.1;-0.058715;0.979435;0.014423;0.0;0.0;0.0;0.0;0.0;0.0
1.0;1753877970.946276;18.319214;1.08;-1.62;0.15;-0.056842;0.980287;0.015548;0.0;0.0;0.0;0.0;0.0;0.0
1.0;1753877970.950874;18.304336;1.13;-1.74;0.06;-0.058025;0.981512;0.016318;0.0;0.0;0.0;0.0;0.0;0.0
1.0;1753877970.955472;18.286566;1.13;-1.7;0.09;-0.056803;0.980862;0.015809;0.0;0.0;0.0;0.0;0.0;0.0
1.0;1753877970.96007;18.297184;1.07;-1.6;0.04;-0.056822;0.981235;0.01588;0.0;0.0;0.0;0.0;0.0;0.0
1.0;1753877970.964667;18.297229;1.15;-1.76;0.06;-0.058683;0.981352;0.017388;0.0;0.0;0.0;0.0;0.0;0.0
1.0;1753877970.969265;18.316699;1.11;-1.55;-0.02;-0.057077;0.980622;0.016029;0.0;0.0;0.0;0.0;0.0;0.0
1.0;1753877970.973863;18.312178;1.15;-1.67;0.08;-0.059178;0.981082;0.016814;0.0;0.0;0.0;0.0;0.0;0.0
1.0;1753877970.978461;18.310335;1.05;-1.57;0.0;-0.058224;0.981185;0.016463;0.0;0.0;0.0;0.0;0.0;0.0
1.0;1753877970.98629;18.308594;1.12;-1.61;0.07;-0.058194;0.981856;0.016592;0.0;0.0;0.0;0.0;0.0;0.0
1.0;1753877970.990888;18.330548;1.1;-1.6;0.07;-0.059938;0.981166;0.015602;0.0;0.0;0.0;0.0;0.0;0.0
1.0;1753877970.995614;18.273438;1.12;-1.61;0.07;-0.05734;0.981246;0.01525;0.0;0.0;0.0;0.0;0.0;0.0
1.0;1753877970.998617;18.273438;1.12;-1.68;0.07;-0.05734;0.98149;0.015494;0.0;0.0;0.0;0.0;0.0;0.0
1.0;1753877971.003215;18.25345;1.12;-1.71;0.19;-0.055886;0.980896;0.014885;0.0;0.0;0.0;0.0;0.0;0.0
1.0;1753877971.007813;18.275421;1.07;-1.77;0.1;-0.056913;0.980545;0.014128;0.0;0.0;0.0;0.0;0.0;0.0
1.0;1753877971.012411;18.297489;1.11;-1.65;0.09;-0.056693;0.982114;0.015865;0.0;0.0;0.0;0.0;0.0;0.0
1.0;1753877971.017008;18.277602;1.1;-1.7;0.08;-0.05548;0.981549;0.015468;0.0;0.0;0.0;0.0;0.0;0.0
1.0;1753877971.021606;18.267427;1.11;-1.69;0.09;-0.057943;0.981303;0.015678;0.0;0.0;0.0;0.0;0.0;0.0
1.0;1753877971.026204;18.270598;1.08;-1.67;0.1;-0.056319;0.981717;0.015091;0.0;0.0;0.0;0.0;0.0;0.0
1.0;1753877971.030802;18.257056;1.11;-1.72;0.09;-0.058783;0.981067;0.015029;0.0;0.0;0.0;0.0;0.0;0.0
1.0;1753877971.0354;18.263373;1.12;-1.69;0.03;-0.057059;0.981194;0.015345;0.0;0.0;0.0;0.0;0.0;0.0
1.0;1753877971.039998;18.261443;1.16;-1.72;0.17;-0.054083;0.980103;0.016752;0.0;0.0;0.0;0.0;0.0;0.0
1.0;1753877971.044596;18.290832;1.13;-1.67;-0.03;-0.058797;0.982382;0.014019;0.0;0.0;0.0;0.0;0.0;0.0
1.0;1753877971.049194;18.299962;1.02;-1.71;0.12;-0.054029;0.980729;0.015094;0.0;0.0;0.0;0.0;0.0;0.0
1.0;1753877971.053792;18.258466;1.13;-1.7;0.06;-0.057657;0.981978;0.015199;0.0;0.0;0.0;0.0;0.0;0.0
1.0;1753877971.05839;18.268165;1.15;-1.66;0.06;-0.05729;0.982688;0.01613;0.0;0.0;0.0;0.0;0.0;0.0
1.0;1753877971.062988;18.289359;1.2;-1.64;0.13;-0.057899;0.981438;0.014671;0.0;0.0;0.0;0.0;0.0;0.0
1.0;1753877971.067586;18.300996;1.13;-1.62;0.07;-0.057755;0.981142;0.014908;0.0;0.0;0.0;0.0;0.0;0.0
1.0;1753877971.072183;18.287746;1.16;-1.63;0.04;-0.056403;0.981311;0.015855;0.0;0.0;0.0;0.0;0.0;0.0
1.0;1753877971.076781;18.279516;1.22;-1.68;0.12;-0.056553;0.981594;0.015964;0.0;0.0;0.0;0.0;0.0;0.0
1.0;1753877971.081379;18.250124;1.19;-1.7;0.09;-0.055951;0.980331;0.015085;0.0;0.0;0.0;0.0;0.0;0.0
1.0;1753877971.085977;18.283072;1.22;-1.62;-0.02;-0.059527;0.981597;0.014825;0.0;0.0;0.0;0.0;0.0;0.0
1.0;1753877971.090575;18.290943;1.14;-1.69;0.02;-0.056095;0.981107;0.016239;0.0;0.0;0.0;0.0;0.0;0.0
1.0;1753877971.095173;18.227939;1.15;-1.7;0.11;-0.057537;0.981456;0.015117;0.0;0.0;0.0;0.0;0.0;0.0
1.0;1753877971.099771;18.288668;1.17;-1.62;0.07;-0.058248;0.981483;0.015114;0.0;0.0;0.0;0.0;0.0;0.0
1.0;1753877971.104369;18.285179;1.13;-1.74;0.09;-0.059441;0.980975;0.015587;0.0;0.0;0.0;0.0;0.0;0.0
1.0;1753877971.108966;18.291687;1.19;-1.74;0.06;-0.058553;0.981314;0.014566;0.0;0.0;0.0;0.0;0.0;0.0
1.0;1753877971.113564;18.287992;1.09;-1.67;0.0;-0.058032;0.982062;0.015078;0.0;0.0;0.0;0.0;0.0;0.0
1.0;1753877971.118162;18.258972;1.1;-1.67;0.09;-0.060567;0.980795;0.016026;0.0;0.0;0.0;0.0;0.0;0.0
1.0;1753877971.12276;18.248126;1.21;-1.79;0.01;-0.058004;0.981707;0.015315;0.0;0.0;0.0;0.0;0.0;0.0
1.0;1753877971.127358;18.287084;1.14;-1.73;0.15;-0.057196;0.982249;0.01531;0.0;0.0;0.0;0.0;0.0;0.0
1.0;1753877971.131956;18.278549;1.23;-1.62;0.07;-0.057809;0.981361;0.01584;0.0;0.0;0.0;0.0;0.0;0.0
1.0;1753877971.136554;18.285888;1.12;-1.68;0.02;-0.056328;0.981033;0.014075;0.0;0.0;0.0;0.0;0.0;0.0
1.0;1753877971.141152;18.247249;1.24;-1.66;0.12;-0.056754;0.981171;0.014919;0.0;0.0;0.0;0.0;0.0;0.0
1.0;1753877971.14575;18.262424;1.11;-1.65;-0.05;-0.058465;0.980788;0.014836;0.0;0.0;0.0;0.0;0.0;0.0
1.0;1753877971.150348;18.254016;1.09;-1.65;0.04;-0.057228;0.981687;0.014969;0.0;0.0;0.0;0.0;0.0;0.0
1.0;1753877971.154946;18.287045;1.19;-1.65;0.09;-0.057687;0.98112;0.013867;0.0;0.0;0.0;0.0;0.0;0.0
1.0;1753877971.159544;18.235115;1.22;-1.6;0.09;-0.058373;0.981398;0.015808;0.0;0.0;0.0;0.0;0.0;0.0
1.0;1753877971.164142;18.273746;1.17;-1.64;0.02;-0.057101;0.98155;0.014291;0.0;0.0;0.0;0.0;0.0;0.0
1.0;1753877971.168739;18.281346;1.18;-1.7;0.01;-0.056265;0.981009;0.015722;0.0;0.0;0.0;0.0;0.0;0.0
1.0;1753877971.173337;18.271176;1.14;-1.64;0.06;-0.058475;0.9819;0.015261;0.0;0.0;0.0;0.0;0.0;0.0
1.0;1753877971.177935;18.277735;1.13;-1.65;-0.02;-0.056464;0.981777;0.014347;0.0;0.0;0.0;0.0;0.0;0.0
1.0;1753877971.182533;18.301807;1.14;-1.62;-0.0;-0.058588;0.980882;0.014664;0.0;0.0;0.0;0.0;0.0;0.0
1.0;1753877971.187131;18.278856;1.19;-1.7;0.01;-0.056928;0.980872;0.013629;0.0;0.0;0.0;0.0;0.0;0.0
1.0;1753877971.191729;18.272995;1.1;-1.71;0.08;-0.056833;0.981956;0.01449;0.0;0.0;0.0;0.0;0.0;0.0
1.0;1753877971.196327;18.3156;1.16;-1.65;0.08;-0.05806;0.981518;0.013763;0.0;0.0;0.0;0.0;0.0;0.0
1.0;1753877971.200925;18.26398;1.05;-1.66;0.02;-0.058706;0.98219;0.015872;0.0;0.0;0.0;0.0;0.0;0.0
1.0;1753877971.205522;18.25604;1.13;-1.74;0.03;-0.059339;0.981621;0.014787;0.0;0.0;0.0;0.0;0.0;0.0
1.0;1753877971.21012;18.236309;1.18;-1.63;0.04;-0.058243;0.981827;0.015163;0.0;0.0;0.0;0.0;0.0;0.0
1.0;1753877971.214718;18.254642;1.07;-1.74;0.02;-0.058859;0.980658;0.014978;0.0;0.0;0.0;0.0;0.0;0.0
1.0;1753877971.219316;18.290811;1.24;-1.65;-0.0;-0.058339;0.980373;0.013865;0.0;0.0;0.0;0.0;0.0;0.0
1.0;1753877971.223914;18.296055;1.22;-1.68;-0.01;-0.055673;0.980066;0.014406;0.0;0.0;0.0;0.0;0.0;0.0
1.0;1753877971.228512;18.320902;1.17;-1.67;0.03;-0.057895;0.980721;0.014147;0.0;0.0;0.0;0.0;0.0;0.0
1.0;1753877971.23311;18.277944;1.2;-1.76;0.03;-0.057227;0.980223;0.015328;0.0;0.0;0.0;0.0;0.0;0.0
1.0;1753877971.237708;18.28555;1.24;-1.7;0.11;-0.058246;0.98137;0.015462;0.0;0.0;0.0;0.0;0.0;0.0
1.0;1753877971.242306;18.276082;1.21;-1.6;-0.0;-0.056933;0.981457;0.014067;0.0;0.0;0.0;0.0;0.0;0.0
1.0;1753877971.246904;18.270742;1.21;-1.69;0.01;-0.056927;0.980851;0.015154;0.0;0.0;0.0;0.0;0.0;0.0
1.0;1753877971.251502;18.245345;1.13;-1.64;0.1;-0.059196;0.981946;0.014341;0.0;0.0;0.0;0.0;0.0;0.0
1.0;1753877971.2561;18.25044;1.22;-1.71;-0.04;-0.058253;0.982037;0.015205;0.0;0.0;0.0;0.0;0.0;0.0
1.0;1753877971.260697;18.251686;1.14;-1.65;0.05;-0.056971;0.980134;0.014121;0.0;0.0;0.0;0.0;0.0;0.0
1.0;1753877971.265295;18.193918;1.12;-1.57;0.06;-0.061799;0.980813;0.014384;0.0;0.0;0.0;0.0;0.0;0.0
1.0;1753877971.269893;18.279215;1.14;-1.62;0.03;-0.05722;0.981644;0.013919;0.0;0.0;0.0;0.0;0.0;0.0
1.0;1753877971.274491;18.314772;1.19;-1.68;0.08;-0.059182;0.980391;0.01543;0.0;0.0;0.0;0.0;0.0;0.0
1.0;1753877971.279089;18.294533;1.2;-1.7;0.09;-0.058689;0.981754;0.015265;0.0;0.0;0.0;0.0;0.0;0.0
1.0;1753877971.283687;18.246717;1.15;-1.67;-0.02;-0.057776;0.980851;0.014633;0.0;0.0;0.0;0.0;0.0;0.0
1.0;1753877971.288285;18.254029;1.16;-1.62;-0.03;-0.058055;0.982301;0.01537;0.0;0.0;0.0;0.0;0.0;0.0
1.0;1753877971.292883;18.295494;1.21;-1.74;0.0;-0.060577;0.981903;0.014264;0.0;0.0;0.0;0.0;0.0;0.0
1.0;1753877971.29748;18.288901;1.1;-1.66;-0.05;-0.055941;0.980509;0.015406;0.0;0.0;0.0;0.0;0.0;0.0
1.0;1753877971.302078;18.245375;1.07;-1.71;0.08;-0.058035;0.980172;0.015285;0.0;0.0;0.0;0.0;0.0;0.0
1.0;1753877971.306676;18.265576;1.13;-1.63;-0.08;-0.058782;0.981328;0.015518;0.0;0.0;0.0;0.0;0.0;0.0
1.0;1753877971.311274;18.276375;1.16;-1.7;0.06;-0.055713;0.981635;0.014497;0.0;0.0;0.0;0.0;0.0;0.0
1.0;1753877971.315872;18.276071;1.14;-1.69;-0.0;-0.058865;0.98181;0.015091;0.0;0.0;0.0;0.0;0.0;0.0
1.0;1753877971.32047;18.258985;1.24;-1.67;-0.05;-0.059449;0.981446;0.013565;0.0;0.0;0.0;0.0;0.0;0.0
1.0;1753877971.325068;18.261497;1.2;-1.68;-0.06;-0.057314;0.980002;0.015277;0.0;0.0;0.0;0.0;0.0;0.0
1.0;1753877971.329666;18.273893;1.2;-1.74;0.06;-0.058491;0.981324;0.014462;0.0;0.0;0.0;0.0;0.0;0.0
1.0;1753877971.334264;18.321263;1.13;-1.82;0.07;-0.057553;0.98116;0.014476;0.0;0.0;0.0;0.0;0.0;0.0
1.0;1753877971.338862;18.33121;1.14;-1.71;0.02;-0.057927;0.981134;0.013939;0.0;0.0;0.0;0.0;0.0;0.0
1.0;1753877971.34346;18.248032;1.19;-1.63;0.06;-0.059054;0.982096;0.015298;0.0;0.0;0.0;0.0;0.0;0.0
1.0;1753877971.348058;18.239862;1.19;-1.67;0.08;-0.056773;0.981147;0.014911;0.0;0.0;0.0;0.0;0.0;0.0
1.0;1753877971.352656;18.222563;1.18;-1.71;0.07;-0.060309;0.981309;0.01485;0.0;0.0;0.0;0.0;0.0;0.0
1.0;1753877971.357253;18.283784;1.15;-1.69;0.01;-0.056401;0.981486;0.01519;0.0;0.0;0.0;0.0;0.0;0.0
1.0;1753877971.361851;18.236742;1.12;-1.71;0.1;-0.058464;0.981364;0.014442;0.0;0.0;0.0;0.0;0.0;0.0
1.0;1753877971.366449;18.254925;1.15;-1.72;-0.0;-0.059324;0.981271;0.014112;0.0;0.0;0.0;0.0;0.0;0.0
1.0;1753877971.371047;18.299143;1.06;-1.68;0.09;-0.059169;0.981344;0.015333;0.0;0.0;0.0;0.0;0.0;0.0
1.0;1753877971.375645;18.263962;1.22;-1.62;-0.05;-0.057205;0.981712;0.014407;0.0;0.0;0.0;0.0;0.0;0.0
1.0;1753877971.380243;18.253223;1.22;-1.68;0.03;-0.05683;0.981376;0.014561;0.0;0.0;0.0;0.0;0.0;0.0
1.0;1753877971.384841;18.269559;1.23;-1.65;0.02;-0.059213;0.979957;0.013659;0.0;0.0;0.0;0.0;0.0;0.0
1.0;1753877971.389439;18.296424;1.14;-1.62;0.08;-0.057593;0.981706;0.015328;0.0;0.0;0.0;0.0;0.0;0.0
1.0;1753877971.394036;18.249422;1.14;-1.76;0.04;-0.060303;0.981482;0.01418;0.0;0.0;0.0;0.0;0.0;0.0
1.0;1753877971.398634;18.306941;1.22;-1.74;-0.08;-0.060481;0.980804;0.014542;0.0;0.0;0.0;0.0;0.0;0.0
1.0;1753877971.403232;18.252798;1.2;-1.77;0.06;-0.059563;0.982291;0.01497;0.0;0.0;0.0;0.0;0.0;0.0
1.0;1753877971.40783;18.287811;1.16;-1.8;-0.02;-0.058858;0.982502;0.014435;0.0;0.0;0.0;0.0;0.0;0.0
1.0;1753877971.412428;18.278818;1.08;-1.67;-0.01;-0.058994;0.981483;0.014464;0.0;0.0;0.0;0.0;0.0;0.0
1.0;1753877971.417026;18.232168;1.23;-1.69;0.04;-0.05797;0.981187;0.015172;0.0;0.0;0.0;0.0;0.0;0.0
1.0;1753877971.421624;18.255061;1.15;-1.74;0.08;-0.05915;0.980534;0.014563;0.0;0.0;0.0;0.0;0.0;0.0
1.0;1753877971.426222;18.293021;1.23;-1.66;-0.01;-0.060752;0.980543;0.015882;0.0;0.0;0.0;0.0;0.0;0.0
1.0;1753877971.43082;18.250477;1.22;-1.73;-0.06;-0.059878;0.980193;0.014729;0.0;0.0;0.0;0.0;0.0;0.0
1.0;1753877971.435418;18.261718;1.12;-1.79;-0.11;-0.057952;0.981329;0.014351;0.0;0.0;0.0;0.0;0.0;0.0
1.0;1753877971.440016;18.291873;1.12;-1.72;0.1;-0.061171;0.980818;0.014306;0.0;0.0;0.0;0.0;0.0;0.0
1.0;1753877971.444614;18.26702;1.25;-1.7;0.09;-0.05953;0.980199;0.014576;0.0;0.0;0.0;0.0;0.0;0.0
1.0;1753877971.449211;18.249836;1.26;-1.63;0.06;-0.059927;0.980671;0.014341;0.0;0.0;0.0;0.0;0.0;0.0
1.0;1753877971.453809;18.275774;1.25;-1.68;-0.01;-0.058631;0.980862;0.014386;0.0;0.0;0.0;0.0;0.0;0.0
1.0;1753877971.458407;18.30594;1.13;-1.74;0.04;-0.056342;0.981496;0.013844;0.0;0.0;0.0;0.0;0.0;0.0
1.0;1753877971.463005;18.235919;1.29;-1.7;0.13;-0.058953;0.980647;0.015622;0.0;0.0;0.0;0.0;0.0;0.0
1.0;1753877971.467603;18.278167;1.23;-1.7;-0.01;-0.05831;0.980931;0.014307;0.0;0.0;0.0;0.0;0.0;0.0
1.0;1753877971.472201;18.300402;1.15;-1.76;-0.05;-0.057947;0.982176;0.014134;0.0;0.0;0.0;0.0;0.0;0.0
1.0;1753877971.476799;18.287328;1.14;-1.75;-0.02;-0.059478;0.981967;0.01412;0.0;0.0;0.0;0.0;0.0;0.0
1.0;1753877971.481397;18.271308;1.22;-1.66;-0.02;-0.057655;0.982079;0.014263;0.0;0.0;0.0;0.0;0.0;0.0
1.0;1753877971.4884;18.273438;1.19;-1.68;0.0;-0.058804;0.981124;0.014396;0.0;0.0;0.0;0.0;0.0;0.0
1.0;1753877971.492998;18.299756;1.23;-1.65;-0.07;-0.057659;0.981016;0.014109;0.0;0.0;0.0;0.0;0.0;0.0
1.0;1753877971.497596;18.28246;1.07;-1.7;-0.0;-0.057886;0.982421;0.013448;0.0;0.0;0.0;0.0;0.0;0.0
1.0;1753877971.502194;18.225735;1.16;-1.68;0.01;-0.061369;0.980479;0.015026;0.0;0.0;0.0;0.0;0.0;0.0
1.0;1753877971.506792;18.239045;1.13;-1.75;-0.01;-0.058393;0.980977;0.014509;0.0;0.0;0.0;0.0;0.0;0.0
1.0;1753877971.51139;18.277834;1.22;-1.65;0.05;-0.058575;0.980916;0.013713;0.0;0.0;0.0;0.0;0.0;0.0
1.0;1753877971.515988;18.297194;1.16;-1.75;0.02;-0.057389;0.980641;0.013724;0.0;0.0;0.0;0.0;0.0;0.0
1.0;1753877971.520585;18.264486;1.19;-1.73;0.12;-0.058447;0.981097;0.013455;0.0;0.0;0.0;0.0;0.0;0.0
1.0;1753877971.525183;18.277701;1.22;-1.72;0.04;-0.059929;0.980891;0.014623;0.0;0.0;0.0;0.0;0.0;0.0
1.0;1753877971.529781;18.270288;1.23;-1.79;0.05;-0.05759;0.981025;0.014031;0.0;0.0;0.0;0.0;0.0;0.0
1.0;1753877971.534379;18.28629;1.17;-1.73;0.06;-0.057122;0.981673;0.014165;0.0;0.0;0.0;0.0;0.0;0.0
1.0;1753877971.538977;18.24907;1.17;-1.59;0.05;-0.058828;0.982009;0.014533;0.0;0.0;0.0;0.0;0.0;0.0
1.0;1753877971.543575;18.314048;1.16;-1.69;-0.02;-0.057864;0.981646;0.013899;0.0;0.0;0.0;0.0;0.0;0.0
1.0;1753877971.548173;18.297102;1.2;-1.66;0.06;-0.057994;0.981662;0.013413;0.0;0.0;0.0;0.0;0.0;0.0
1.0;1753877971.55277;18.288913;1.31;-1.66;-0.04;-0.057016;0.981375;0.014689;0.0;0.0;0.0;0.0;0.0;0.0
1.0;1753877971.557368;18.298935;1.17;-1.73;0.05;-0.058532;0.980765;0.014674;0.0;0.0;0.0;0.0;0.0;0.0
1.0;1753877971.561966;18.260267;1.16;-1.72;0.02;-0.057571;0.981987;0.013012;0.0;0.0;0.0;0.0;0.0;0.0
1.0;1753877971.566564;18.259479;1.17;-1.67;0.03;-0.057728;0.981649;0.013927;0.0;0.0;0.0;0.0;0.0;0.0
1.0;1753877971.571162;18.245361;1.1;-1.65;0.03;-0.057965;0.980545;0.015375;0.0;0.0;0.0;0.0;0.0;0.0
1.0;1753877971.57576;18.319735;1.22;-1.72;-0.07;-0.057565;0.981444;0.014288;0.0;0.0;0.0;0.0;0.0;0.0
1.0;1753877971.580358;18.248389;1.13;-1.66;0.01;-0.058619;0.980946;0.013885;0.0;0.0;0.0;0.0;0.0;0.0
1.0;1753877971.584956;18.290863;1.07;-1.72;0.0;-0.059475;0.980846;0.015213;0.0;0.0;0.0;0.0;0.0;0.0
1.0;1753877971.589554;18.264861;1.09;-1.74;0.04;-0.05864;0.98057;0.01332;0.0;0.0;0.0;0.0;0.0;0.0
1.0;1753877971.594152;18.280722;1.25;-1.63;0.03;-0.05776;0.982086;0.014766;0.0;0.0;0.0;0.0;0.0;0.0
1.0;1753877971.59875;18.217426;1.1;-1.72;0.01;-0.05682;0.982075;0.014271;0.0;0.0;0.0;0.0;0.0;0.0
1.0;1753877971.603348;18.271294;1.15;-1.68;0.05;-0.059278;0.982227;0.014183;0.0;0.0;0.0;0.0;0.0;0.0
1.0;1753877971.607946;18.271223;1.12;-1.67;0.04;-0.057319;0.980898;0.014212;0.0;0.0;0.0;0.0;0.0;0.0
1.0;1753877971.612543;18.226693;1.1;-1.65;0.01;-0.056455;0.981806;0.015707;0.0;0.0;0.0;0.0;0.0;0.0
1.0;1753877971.617141;18.234602;1.15;-1.7;-0.04;-0.058024;0.980392;0.015247;0.0;0.0;0.0;0.0;0.0;0.0
1.0;1753877971.621739;18.265772;1.16;-1.71;0.0;-0.056543;0.980343;0.013588;0.0;0.0;0.0;0.0;0.0;0.0
1.0;1753877971.626337;18.260965;1.22;-1.68;0.09;-0.058083;0.980352;0.013758;0.0;0.0;0.0;0.0;0.0;0.0
1.0;1753877971.630935;18.293705;1.12;-1.61;0.03;-0.058628;0.981574;0.014096;0.0;0.0;0.0;0.0;0.0;0.0
1.0;1753877971.635533;18.255213;1.1;-1.66;0.07;-0.058778;0.981647;0.014555;0.0;0.0;0.0;0.0;0.0;0.0
1.0;1753877971.640131;18.268603;1.08;-1.68;0.08;-0.056864;0.980745;0.014044;0.0;0.0;0.0;0.0;0.0;0.0
1.0;1753877971.644729;18.266735;1.21;-1.65;0.01;-0.059116;0.981483;0.014164;0.0;0.0;0.0;0.0;0.0;0.0
1.0;1753877971.649326;18.255743;1.15;-1.67;-0.01;-0.057214;0.980845;0.015118;0.0;0.0;0.0;0.0;0.0;0.0
1.0;1753877971.653924;18.252169;1.09;-1.64;0.02;-0.057396;0.9813;0.014679;0.0;0.0;0.0;0.0;0.0;0.0
1.0;1753877971.658522;18.2436;1.22;-1.64;-0.02;-0.058303;0.981404;0.015167;0.0;0.0;0.0;0.0;0.0;0.0
1.0;1753877971.66312;18.269354;1.09;-1.67;0.04;-0.05849;0.98083;0.014257;0.0;0.0;0.0;0.0;0.0;0.0
1.0;1753877971.667718;18.271835;1.08;-1.7;0.03;-0.05861;0.981411;0.015191;0.0;0.0;0.0;0.0;0.0;0.0
1.0;1753877971.672316;18.263651;1.12;-1.66;0.02;-0.056854;0.981045;0.014607;0.0;0.0;0.0;0.0;0.0;0.0
1.0;1753877971.676914;18.293797;1.13;-1.63;0.13;-0.057919;0.981765;0.013091;0.0;0.0;0.0;0.0;0.0;0.0
1.0;1753877971.681512;18.287302;1.02;-1.74;0.04;-0.056239;0.981611;0.014961;0.0;0.0;0.0;0.0;0.0;0.0
1.0;1753877971.68611;18.297139;1.19;-1.65;0.04;-0.059926;0.980945;0.014005;0.0;0.0;0.0;0.0;0.0;0.0
1.0;1753877971.690708;18.242838;1.2;-1.68;-0.02;-0.057073;0.981449;0.014396;0.0;0.0;0.0;0.0;0.0;0.0
1.0;1753877971.695306;18.260745;1.16;-1.71;0.15;-0.056904;0.980516;0.013097;0.0;0.0;0.0;0.0;0.0;0.0
1.0;1753877971.699904;18.210854;1.26;-1.61;0.04;-0.055703;0.980953;0.015212;0.0;0.0;0.0;0.0;0.0;0.0
1.0;1753877971.704502;18.2668;1.19;-1.68;0.05;-0.057444;0.980781;0.015665;0.0;0.0;0.0;0.0;0.0;0.0
1.0;1753877971.709099;18.27426;1.12;-1.74;0.11;-0.058225;0.980635;0.014608;0.0;0.0;0.0;0.0;0.0;0.0
1.0;1753877971.713697;18.247291;1.11;-1.68;0.12;-0.057598;0.980936;0.013865;0.0;0.0;0.0;0.0;0.0;0.0
1.0;1753877971.718295;18.249911;1.14;-1.73;0.11;-0.055671;0.980398;0.012441;0.0;0.0;0.0;0.0;0.0;0.0
1.0;1753877971.722893;18.24573;1.07;-1.7;0.05;-0.056743;0.980518;0.014414;0.0;0.0;0.0;0.0;0.0;0.0
1.0;1753877971.727491;18.248491;1.03;-1.68;0.07;-0.059584;0.980779;0.013635;0.0;0.0;0.0;0.0;0.0;0.0
1.0;1753877971.732089;18.28175;1.19;-1.73;0.08;-0.057746;0.980509;0.014415;0.0;0.0;0.0;0.0;0.0;0.0
1.0;1753877971.736687;18.238737;1.13;-1.7;0.04;-0.056893;0.981401;0.01433;0.0;0.0;0.0;0.0;0.0;0.0
1.0;1753877971.741284;18.285708;1.09;-1.72;0.04;-0.057974;0.980518;0.012824;0.0;0.0;0.0;0.0;0.0;0.0
1.0;1753877971.745882;18.264884;1.21;-1.71;0.16;-0.057902;0.98056;0.014112;0.0;0.0;0.0;0.0;0.0;0.0
1.0;1753877971.75048;18.238053;1.11;-1.68;-0.01;-0.059219;0.98086;0.014566;0.0;0.0;0.0;0.0;0.0;0.0
1.0;1753877971.755078;18.258214;1.1;-1.68;0.1;-0.057216;0.980958;0.014506;0.0;0.0;0.0;0.0;0.0;0.0
1.0;1753877971.7606;18.257812;1.12;-1.68;0.07;-0.057218;0.980758;0.014152;0.0;0.0;0.0;0.0;0.0;0.0
1.0;1753877971.7665;18.257812;0.98;-1.68;0.14;-0.055754;0.980758;0.01586;0.0;0.0;0.0;0.0;0.0;0.0
1.0;1753877971.771098;18.267109;0.99;-1.68;0.19;-0.054091;0.980609;0.015571;0.0;0.0;0.0;0.0;0.0;0.0
1.0;1753877971.775696;18.281205;0.88;-1.6;0.13;-0.058505;0.980806;0.01443;0.0;0.0;0.0;0.0;0.0;0.0
1.0;1753877971.780294;18.273969;1.11;-1.67;0.2;-0.054521;0.980534;0.015502;0.0;0.0;0.0;0.0;0.0;0.0
1.0;1753877971.784892;18.263115;1.1;-1.64;0.12;-0.054804;0.981646;0.015806;0.0;0.0;0.0;0.0;0.0;0.0
1.0;1753877971.78949;18.293445;1.0;-1.58;0.13;-0.054459;0.980927;0.014943;0.0;0.0;0.0;0.0;0.0;0.0
1.0;1753877971.794088;18.280008;1.1;-1.66;0.19;-0.053011;0.980557;0.014902;0.0;0.0;0.0;0.0;0.0;0.0
1.0;1753877971.798685;18.275882;1.0;-1.62;0.14;-0.056831;0.980512;0.014887;0.0;0.0;0.0;0.0;0.0;0.0
1.0;1753877971.803283;18.269545;0.97;-1.67;0.08;-0.056578;0.98106;0.015025;0.0;0.0;0.0;0.0;0.0;0.0
1.0;1753877971.80766;18.289062;1.05;-1.61;0.14;-0.054534;0.981124;0.015372;0.0;0.0;0.0;0.0;0.0;0.0
1.0;1753877971.812258;18.301871;1.06;-1.6;0.15;-0.054957;0.981357;0.014723;0.0;0.0;0.0;0.0;0.0;0.0
1.0;1753877971.816856;18.279646;0.97;-1.57;0.12;-0.053568;0.980982;0.015021;0.0;0.0;0.0;0.0;0.0;0.0
1.0;1753877971.821454;18.293669;1.02;-1.63;0.1;-0.054705;0.98166;0.015007;0.0;0.0;0.0;0.0;0.0;0.0
1.0;1753877971.826052;18.283083;1.13;-1.64;0.11;-0.05379;0.981117;0.013435;0.0;0.0;0.0;0.0;0.0;0.0
1.0;1753877971.83065;18.294882;1.04;-1.59;0.15;-0.057674;0.981303;0.015859;0.0;0.0;0.0;0.0;0.0;0.0
1.0;1753877971.835248;18.287686;1.18;-1.67;-0.01;-0.054118;0.981742;0.014292;0.0;0.0;0.0;0.0;0.0;0.0
1.0;1753877971.839846;18.283062;0.99;-1.62;0.07;-0.053609;0.981735;0.015958;0.0;0.0;0.0;0.0;0.0;0.0
1.0;1753877971.844443;18.299834;1.01;-1.65;0.13;-0.058063;0.981901;0.015361;0.0;0.0;0.0;0.0;0.0;0.0
1.0;1753877971.849041;18.319883;0.98;-1.62;0.06;-0.055879;0.981558;0.013644;0.0;0.0;0.0;0.0;0.0;0.0
1.0;1753877971.853639;18.273786;1.06;-1.6;0.09;-0.055968;0.981775;0.013795;0.0;0.0;0.0;0.0;0.0;0.0
1.0;1753877971.86213;18.289062;1.12;-1.61;0.07;-0.058682;0.981612;0.014762;0.0;0.0;0.0;0.0;0.0;0.0
1.0;1753877971.866728;18.322425;1.16;-1.55;0.16;-0.056601;0.981337;0.014894;0.0;0.0;0.0;0.0;0.0;0.0
1.0;1753877971.871326;18.313363;1.13;-1.65;0.08;-0.059868;0.980778;0.014548;0.0;0.0;0.0;0.0;0.0;0.0
1.0;1753877971.875924;18.259286;1.22;-1.64;0.04;-0.057218;0.981283;0.017058;0.0;0.0;0.0;0.0;0.0;0.0
1.0;1753877971.880522;18.295496;1.11;-1.56;0.14;-0.06062;0.98153;0.016075;0.0;0.0;0.0;0.0;0.0;0.0
1.0;1753877971.88512;18.287088;1.15;-1.61;-0.03;-0.058034;0.981285;0.015521;0.0;0.0;0.0;0.0;0.0;0.0
1.0;1753877971.889717;18.283956;1.09;-1.7;0.14;-0.059998;0.981125;0.015537;0.0;0.0;0.0;0.0;0.0;0.0
1.0;1753877971.894315;18.27139;1.1;-1.61;0.11;-0.058469;0.981133;0.014898;0.0;0.0;0.0;0.0;0.0;0.0
1.0;1753877971.898913;18.310527;1.15;-1.69;0.07;-0.058014;0.979604;0.01421;0.0;0.0;0.0;0.0;0.0;0.0
1.0;1753877971.903511;18.261292;1.11;-1.71;0.09;-0.058827;0.981228;0.013604;0.0;0.0;0.0;0.0;0.0;0.0
1.0;1753877971.908109;18.300459;1.25;-1.6;0.12;-0.056842;0.980115;0.015563;0.0;0.0;0.0;0.0;0.0;0.0
1.0;1753877971.912707;18.297342;1.09;-1.67;0.02;-0.060089;0.980666;0.013494;0.0;0.0;0.0;0.0;0.0;0.0
1.0;1753877971.917305;18.291999;1.16;-1.61;0.02;-0.060055;0.980281;0.014834;0.0;0.0;0.0;0.0;0.0;0.0
1.0;1753877971.921903;18.289745;1.17;-1.69;0.1;-0.058928;0.979546;0.015604;0.0;0.0;0.0;0.0;0.0;0.0
1.0;1753877971.9265;18.287891;1.12;-1.69;0.11;-0.055999;0.979925;0.013828;0.0;0.0;0.0;0.0;0.0;0.0
1.0;1753877971.93299;18.289062;1.19;-1.68;0.07;-0.058438;0.979538;0.014762;0.0;0.0;0.0;0.0;0.0;0.0
1.0;1753877971.937588;18.250995;1.21;-1.68;0.15;-0.05398;0.980123;0.013092;0.0;0.0;0.0;0.0;0.0;0.0
1.0;1753877971.94491;18.289062;1.19;-1.61;0.14;-0.057584;0.97966;0.014884;0.0;0.0;0.0;0.0;0.0;0.0
1.0;1753877971.946288;18.292969;1.05;-1.61;0.0;-0.058682;0.981612;0.015616;0.0;0.0;0.0;0.0;0.0;0.0
1.0;1753877971.949667;18.292969;1.05;-1.61;0.07;-0.05612;0.981734;0.014518;0.0;0.0;0.0;0.0;0.0;0.0
1.0;1753877971.954251;18.292969;1.12;-1.68;0.07;-0.061366;0.98088;0.01586;0.0;0.0;0.0;0.0;0.0;0.0
1.0;1753877971.958825;18.265625;0.98;-1.61;0.07;-0.056974;0.980392;0.015006;0.0;0.0;0.0;0.0;0.0;0.0
1.0;1753877971.963396;18.265625;0.91;-1.68;0.07;-0.05917;0.982588;0.016226;0.0;0.0;0.0;0.0;0.0;0.0
1.0;1753877971.96797;18.265625;1.05;-1.61;0.07;-0.05917;0.980148;0.014762;0.0;0.0;0.0;0.0;0.0;0.0
1.0;1753877971.975604;18.265625;1.05;-1.61;0.14;-0.056242;0.980148;0.016348;0.0;0.0;0.0;0.0;0.0;0.0
1.0;1753877971.977063;18.25;1.05;-1.61;0.07;-0.060024;0.981368;0.014396;0.0;0.0;0.0;0.0;0.0;0.0
1.0;1753877971.984526;18.25;1.12;-1.61;0.14;-0.054046;0.98149;0.01525;0.0;0.0;0.0;0.0;0.0;0.0
1.0;1753877971.986148;18.25;1.12;-1.75;0.14;-0.054046;0.98149;0.01525;0.0;0.0;0.0;0.0;0.0;0.0
1.0;1753877971.990836;18.25;1.05;-1.61;0.0;-0.055754;0.98149;0.015372;0.0;0.0;0.0;0.0;0.0;0.0
1.0;1753877971.99541;18.273438;0.98;-1.61;0.07;-0.059658;0.980636;0.014762;0.0;0.0;0.0;0.0;0.0;0.0
1.0;1753877972.000008;18.237944;0.97;-1.65;0.15;-0.056258;0.980223;0.014452;0.0;0.0;0.0;0.0;0.0;0.0
1.0;1753877972.004606;18.272309;0.94;-1.69;0.13;-0.058742;0.979458;0.014354;0.0;0.0;0.0;0.0;0.0;0.0
1.0;1753877972.009204;18.27859;0.95;-1.62;0.03;-0.058629;0.979639;0.013737;0.0;0.0;0.0;0.0;0.0;0.0
1.0;1753877972.013802;18.317806;0.98;-1.66;0.02;-0.060059;0.980689;0.01372;0.0;0.0;0.0;0.0;0.0;0.0
1.0;1753877972.0184;18.280563;0.92;-1.66;0.02;-0.059886;0.980212;0.013729;0.0;0.0;0.0;0.0;0.0;0.0
1.0;1753877972.022998;18.285566;0.97;-1.64;0.13;-0.054881;0.980743;0.014231;0.0;0.0;0.0;0.0;0.0;0.0
1.0;1753877972.027595;18.286499;0.91;-1.63;0.08;-0.058919;0.980953;0.014836;0.0;0.0;0.0;0.0;0.0;0.0
1.0;1753877972.032193;18.277765;0.94;-1.66;-0.02;-0.060847;0.980168;0.013883;0.0;0.0;0.0;0.0;0.0;0.0
1.0;1753877972.036791;18.296834;1.01;-1.66;0.07;-0.058213;0.98041;0.014224;0.0;0.0;0.0;0.0;0.0;0.0
1.0;1753877972.041389;18.296158;0.96;-1.65;0.09;-0.059664;0.981359;0.015041;0.0;0.0;0.0;0.0;0.0;0.0
1.0;1753877972.045987;18.270117;0.96;-1.6;0.07;-0.060368;0.980176;0.015023;0.0;0.0;0.0;0.0;0.0;0.0
1.0;1753877972.050585;18.261788;1.11;-1.55;0.07;-0.060667;0.979953;0.015166;0.0;0.0;0.0;0.0;0.0;0.0
1.0;1753877972.055183;18.236881;1.04;-1.71;-0.0;-0.062993;0.980985;0.014589;0.0;0.0;0.0;0.0;0.0;0.0
1.0;1753877972.05978;18.266975;0.92;-1.72;0.11;-0.062182;0.980487;0.015206;0.0;0.0;0.0;0.0;0.0;0.0
1.0;1753877972.064378;18.276965;1.04;-1.56;-0.02;-0.05714;0.98108;0.014886;0.0;0.0;0.0;0.0;0.0;0.0
1.0;1753877972.068976;18.239919;0.93;-1.54;0.02;-0.060205;0.979934;0.015482;0.0;0.0;0.0;0.0;0.0;0.0
1.0;1753877972.073574;18.305133;0.94;-1.58;0.16;-0.058065;0.980091;0.015304;0.0;0.0;0.0;0.0;0.0;0.0
1.0;1753877972.078172;18.259986;0.88;-1.62;0.13;-0.057692;0.981382;0.014726;0.0;0.0;0.0;0.0;0.0;0.0
1.0;1753877972.08277;18.244098;0.91;-1.66;0.01;-0.060915;0.980881;0.016176;0.0;0.0;0.0;0.0;0.0;0.0
1.0;1753877972.087368;18.298551;1.06;-1.54;0.06;-0.059122;0.982299;0.016203;0.0;0.0;0.0;0.0;0.0;0.0
1.0;1753877972.091966;18.278985;0.95;-1.68;-0.03;-0.060942;0.979987;0.014059;0.0;0.0;0.0;0.0;0.0;0.0
1.0;1753877972.096564;18.273833;0.96;-1.55;0.09;-0.060197;0.981573;0.014825;0.0;0.0;0.0;0.0;0.0;0.0
1.0;1753877972.101162;18.288207;1.13;-1.64;0.09;-0.062787;0.981274;0.015709;0.0;0.0;0.0;0.0;0.0;0.0
1.0;1753877972.10576;18.28918;0.99;-1.65;0.02;-0.056268;0.980539;0.015505;0.0;0.0;0.0;0.0;0.0;0.0
1.0;1753877972.110358;18.256267;1.08;-1.6;0.1;-0.05686;0.98042;0.016428;0.0;0.0;0.0;0.0;0.0;0.0
1.0;1753877972.1186;18.273438;0.98;-1.61;0.07;-0.05856;0.981124;0.01525;0.0;0.0;0.0;0.0;0.0;0.0
1.0;1753877972.123198;18.256354;1.01;-1.65;0.1;-0.057928;0.981566;0.015454;0.0;0.0;0.0;0.0;0.0;0.0
1.0;1753877972.127796;18.266227;1.12;-1.58;0.04;-0.060457;0.980066;0.014865;0.0;0.0;0.0;0.0;0.0;0.0
1.0;1753877972.132394;18.273743;0.93;-1.67;0.16;-0.058176;0.980751;0.013682;0.0;0.0;0.0;0.0;0.0;0.0
1.0;1753877972.136992;18.255269;0.97;-1.59;0.0;-0.058717;0.982409;0.015056;0.0;0.0;0.0;0.0;0.0;0.0
1.0;1753877972.14159;18.278875;0.91;-1.69;0.08;-0.058306;0.979944;0.015341;0.0;0.0;0.0;0.0;0.0;0.0
1.0;1753877972.146187;18.237236;1.04;-1.63;0.09;-0.061808;0.980309;0.01398;0.0;0.0;0.0;0.0;0.0;0.0
1.0;1753877972.150785;18.286065;1.02;-1.62;0.06;-0.058364;0.981419;0.014656;0.0;0.0;0.0;0.0;0.0;0.0
1.0;1753877972.155383;18.240487;1.05;-1.58;0.04;-0.056651;0.980956;0.014867;0.0;0.0;0.0;0.0;0.0;0.0
1.0;1753877972.159981;18.248849;1.03;-1.69;0.03;-0.058111;0.980297;0.01605;0.0;0.0;0.0;0.0;0.0;0.0
1.0;1753877972.164579;18.293311;0.89;-1.62;0.16;-0.0615;0.980833;0.015626;0.0;0.0;0.0;0.0;0.0;0.0
1.0;1753877972.169177;18.28864;0.99;-1.66;0.13;-0.05694;0.980915;0.014498;0.0;0.0;0.0;0.0;0.0;0.0
1.0;1753877972.173775;18.267527;1.02;-1.64;-0.01;-0.0606;0.980515;0.014947;0.0;0.0;0.0;0.0;0.0;0.0
1.0;1753877972.178372;18.265528;0.99;-1.71;0.02;-0.057344;0.980336;0.01524;0.0;0.0;0.0;0.0;0.0;0.0
1.0;1753877972.18297;18.253007;0.94;-1.57;-0.02;-0.056783;0.980888;0.015118;0.0;0.0;0.0;0.0;0.0;0.0
1.0;1753877972.187568;18.244753;0.84;-1.58;0.04;-0.055559;0.981543;0.015679;0.0;0.0;0.0;0.0;0.0;0.0
1.0;1753877972.192166;18.285155;1.07;-1.71;0.05;-0.060977;0.98147;0.014824;0.0;0.0;0.0;0.0;0.0;0.0
1.0;1753877972.196764;18.262452;1.0;-1.63;-0.02;-0.0556;0.980241;0.014407;0.0;0.0;0.0;0.0;0.0;0.0
1.0;1753877972.201362;18.314149;1.15;-1.66;0.13;-0.057265;0.980744;0.015776;0.0;0.0;0.0;0.0;0.0;0.0
1.0;1753877972.20596;18.267452;1.04;-1.6;0.05;-0.059676;0.980808;0.015546;0.0;0.0;0.0;0.0;0.0;0.0
1.0;1753877972.210558;18.297235;1.07;-1.63;0.15;-0.059713;0.980174;0.014887;0.0;0.0;0.0;0.0;0.0;0.0
1.0;1753877972.215156;18.298406;1.0;-1.6;0.03;-0.060089;0.981757;0.014738;0.0;0.0;0.0;0.0;0.0;0.0
1.0;1753877972.219754;18.276878;1.01;-1.59;0.07;-0.059574;0.981095;0.015218;0.0;0.0;0.0;0.0;0.0;0.0
1.0;1753877972.224352;18.274709;1.01;-1.62;-0.02;-0.057848;0.981759;0.014994;0.0;0.0;0.0;0.0;0.0;0.0
1.0;1753877972.22895;18.273791;0.96;-1.53;0.09;-0.058357;0.982014;0.015051;0.0;0.0;0.0;0.0;0.0;0.0
1.0;1753877972.233548;18.323096;1.03;-1.58;0.11;-0.059585;0.980701;0.013944;0.0;0.0;0.0;0.0;0.0;0.0
1.0;1753877972.238145;18.286772;1.04;-1.67;-0.02;-0.056696;0.982415;0.014002;0.0;0.0;0.0;0.0;0.0;0.0
1.0;1753877972.242743;18.256422;0.89;-1.61;0.19;-0.057108;0.980523;0.014184;0.0;0.0;0.0;0.0;0.0;0.0
1.0;1753877972.247341;18.279098;1.0;-1.53;-0.04;-0.055006;0.982198;0.013316;0.0;0.0;0.0;0.0;0.0;0.0
1.0;1753877972.251939;18.275457;0.92;-1.63;0.13;-0.061434;0.981334;0.015351;0.0;0.0;0.0;0.0;0.0;0.0
1.0;1753877972.256537;18.285407;1.01;-1.6;0.05;-0.061108;0.98069;0.014155;0.0;0.0;0.0;0.0;0.0;0.0
1.0;1753877972.261135;18.247194;0.98;-1.57;0.01;-0.056793;0.982829;0.01666;0.0;0.0;0.0;0.0;0.0;0.0
1.0;1753877972.265733;18.243728;0.98;-1.56;0.06;-0.061225;0.980995;0.015416;0.0;0.0;0.0;0.0;0.0;0.0
1.0;1753877972.270331;18.305204;1.06;-1.53;0.09;-0.058595;0.981229;0.015204;0.0;0.0;0.0;0.0;0.0;0.0
1.0;1753877972.274928;18.278423;1.09;-1.62;-0.01;-0.05922;0.981248;0.014881;0.0;0.0;0.0;0.0;0.0;0.0
1.0;1753877972.279526;18.274595;1.0;-1.62;-0.03;-0.060225;0.980984;0.015072;0.0;0.0;0.0;0.0;0.0;0.0
1.0;1753877972.284124;18.276848;1.08;-1.63;0.02;-0.055581;0.979956;0.014298;0.0;0.0;0.0;0.0;0.0;0.0
1.0;1753877972.288722;18.282874;1.06;-1.61;0.05;-0.055141;0.981129;0.014383;0.0;0.0;0.0;0.0;0.0;0.0
1.0;1753877972.29332;18.273083;1.05;-1.67;0.05;-0.061066;0.979422;0.015917;0.0;0.0;0.0;0.0;0.0;0.0
1.0;1753877972.297918;18.269585;1.04;-1.57;0.01;-0.060566;0.980823;0.014631;0.0;0.0;0.0;0.0;0.0;0.0
1.0;1753877972.302516;18.293085;1.06;-1.59;-0.03;-0.055668;0.980951;0.015168;0.0;0.0;0.0;0.0;0.0;0.0
1.0;1753877972.307114;18.267964;0.95;-1.64;-0.1;-0.05859;0.98117;0.014629;0.0;0.0;0.0;0.0;0.0;0.0
1.0;1753877972.311712;18.281255;0.99;-1.68;-0.01;-0.056694;0.980397;0.014817;0.0;0.0;0.0;0.0;0.0;0.0
1.0;1753877972.31631;18.272523;0.92;-1.66;-0.01;-0.059595;0.981137;0.014814;0.0;0.0;0.0;0.0;0.0;0.0
1.0;1753877972.320908;18.287658;0.98;-1.69;0.06;-0.060364;0.981317;0.014434;0.0;0.0;0.0;0.0;0.0;0.0
1.0;1753877972.325506;18.273381;1.01;-1.6;0.01;-0.057864;0.982065;0.015475;0.0;0.0;0.0;0.0;0.0;0.0
1.0;1753877972.330104;18.293156;1.0;-1.6;-0.09;-0.057588;0.981322;0.015709;0.0;0.0;0.0;0.0;0.0;0.0
1.0;1753877972.334701;18.28254;1.1;-1.63;0.02;-0.06193;0.981798;0.014361;0.0;0.0;0.0;0.0;0.0;0.0
1.0;1753877972.339299;18.296253;0.95;-1.62;0.02;-0.062658;0.982435;0.013964;0.0;0.0;0.0;0.0;0.0;0.0
1.0;1753877972.343897;18.280266;1.02;-1.61;0.03;-0.056293;0.982863;0.013924;0.0;0.0;0.0;0.0;0.0;0.0
1.0;1753877972.348495;18.257519;0.96;-1.56;0.06;-0.056971;0.981709;0.013702;0.0;0.0;0.0;0.0;0.0;0.0
1.0;1753877972.353093;18.269137;1.0;-1.7;-0.04;-0.053304;0.980677;0.014741;0.0;0.0;0.0;0.0;0.0;0.0
1.0;1753877972.357691;18.268246;1.09;-1.59;0.1;-0.05969;0.98111;0.014141;0.0;0.0;0.0;0.0;0.0;0.0
1.0;1753877972.362289;18.234925;1.06;-1.61;-0.01;-0.059091;0.980797;0.014936;0.0;0.0;0.0;0.0;0.0;0.0
1.0;1753877972.366886;18.277009;1.03;-1.65;0.02;-0.058217;0.981874;0.014416;0.0;0.0;0.0;0.0;0.0;0.0
1.0;1753877972.371484;18.270321;1.07;-1.68;0.15;-0.057051;0.981451;0.014719;0.0;0.0;0.0;0.0;0.0;0.0
1.0;1753877972.376082;18.252461;1.03;-1.58;0.06;-0.059986;0.980794;0.014631;0.0;0.0;0.0;0.0;0.0;0.0
1.0;1753877972.38068;18.282135;1.06;-1.56;0.03;-0.057389;0.981555;0.01525;0.0;0.0;0.0;0.0;0.0;0.0
1.0;1753877972.385278;18.285383;1.08;-1.64;0.06;-0.057393;0.981819;0.014952;0.0;0.0;0.0;0.0;0.0;0.0
1.0;1753877972.389876;18.256516;0.94;-1.57;-0.03;-0.055431;0.981006;0.014247;0.0;0.0;0.0;0.0;0.0;0.0
1.0;1753877972.394474;18.280489;1.07;-1.52;0.03;-0.056974;0.980545;0.015848;0.0;0.0;0.0;0.0;0.0;0.0
1.0;1753877972.399072;18.318258;0.98;-1.62;-0.01;-0.058874;0.981763;0.014056;0.0;0.0;0.0;0.0;0.0;0.0
1.0;1753877972.40367;18.254185;0.99;-1.62;0.03;-0.057545;0.980309;0.014219;0.0;0.0;0.0;0.0;0.0;0.0
1.0;1753877972.408268;18.262092;1.13;-1.64;0.19;-0.057146;0.98102;0.015517;0.0;0.0;0.0;0.0;0.0;0.0
1.0;1753877972.412866;18.310916;0.97;-1.63;0.05;-0.054319;0.980393;0.014037;0.0;0.0;0.0;0.0;0.0;0.0
1.0;1753877972.417464;18.278076;0.99;-1.65;-0.05;-0.059853;0.980124;0.014761;0.0;0.0;0.0;0.0;0.0;0.0
1.0;1753877972.422062;18.280391;1.05;-1.62;0.03;-0.056948;0.980421;0.014892;0.0;0.0;0.0;0.0;0.0;0.0
1.0;1753877972.426659;18.278999;0.96;-1.61;0.06;-0.0564;0.98195;0.013658;0.0;0.0;0.0;0.0;0.0;0.0
1.0;1753877972.431257;18.265867;0.97;-1.57;0.0;-0.053133;0.98049;0.015486;0.0;0.0;0.0;0.0;0.0;0.0
1.0;1753877972.435855;18.289158;1.13;-1.57;-0.07;-0.057117;0.980671;0.014587;0.0;0.0;0.0;0.0;0.0;0.0
1.0;1753877972.440453;18.270629;0.96;-1.66;0.07;-0.055913;0.981112;0.013822;0.0;0.0;0.0;0.0;0.0;0.0
1.0;1753877972.445051;18.279651;1.05;-1.54;0.07;-0.059579;0.980549;0.014902;0.0;0.0;0.0;0.0;0.0;0.0
1.0;1753877972.4506;18.273438;1.05;-1.61;0.0;-0.057462;0.981368;0.014518;0.0;0.0;0.0;0.0;0.0;0.0
1.0;1753877972.455198;18.250359;1.04;-1.61;0.07;-0.058071;0.981223;0.014303;0.0;0.0;0.0;0.0;0.0;0.0
1.0;1753877972.459796;18.27657;1.01;-1.7;-0.07;-0.056183;0.981207;0.015538;0.0;0.0;0.0;0.0;0.0;0.0
1.0;1753877972.464394;18.264861;1.2;-1.61;0.04;-0.062136;0.980424;0.014039;0.0;0.0;0.0;0.0;0.0;0.0
1.0;1753877972.468992;18.270006;0.98;-1.64;-0.02;-0.054601;0.980199;0.014131;0.0;0.0;0.0;0.0;0.0;0.0
1.0;1753877972.47359;18.270881;0.93;-1.61;0.01;-0.060054;0.981591;0.014168;0.0;0.0;0.0;0.0;0.0;0.0
1.0;1753877972.478187;18.254046;1.0;-1.64;-0.0;-0.057649;0.981435;0.015584;0.0;0.0;0.0;0.0;0.0;0.0
1.0;1753877972.482785;18.260137;0.98;-1.6;-0.03;-0.056409;0.982124;0.014265;0.0;0.0;0.0;0.0;0.0;0.0
1.0;1753877972.487383;18.259952;1.08;-1.56;0.02;-0.058383;0.981883;0.01473;0.0;0.0;0.0;0.0;0.0;0.0
1.0;1753877972.491981;18.263333;1.05;-1.66;-0.02;-0.054021;0.983037;0.014318;0.0;0.0;0.0;0.0;0.0;0.0
1.0;1753877972.496579;18.242863;1.08;-1.61;-0.06;-0.057892;0.979862;0.016371;0.0;0.0;0.0;0.0;0.0;0.0
1.0;1753877972.501177;18.245972;0.99;-1.6;0.02;-0.05788;0.980589;0.014497;0.0;0.0;0.0;0.0;0.0;0.0
1.0;1753877972.505775;18.283392;1.1;-1.65;0.05;-0.057206;0.981152;0.015166;0.0;0.0;0.0;0.0;0.0;0.0
1.0;1753877972.510373;18.282008;1.07;-1.62;-0.0;-0.056734;0.980734;0.014664;0.0;0.0;0.0;0.0;0.0;0.0
1.0;1753877972.51497;18.278425;0.96;-1.52;-0.02;-0.054028;0.981486;0.013971;0.0;0.0;0.0;0.0;0.0;0.0
1.0;1753877972.519568;18.275077;1.12;-1.77;0.09;-0.057496;0.98091;0.014562;0.0;0.0;0.0;0.0;0.0;0.0
1.0;1753877972.524166;18.292099;0.95;-1.62;-0.11;-0.056406;0.981508;0.014616;0.0;0.0;0.0;0.0;0.0;0.0
1.0;1753877972.528764;18.253107;1.13;-1.55;0.06;-0.060072;0.981496;0.014855;0.0;0.0;0.0;0.0;0.0;0.0
1.0;1753877972.533362;18.262187;1.02;-1.58;0.11;-0.053121;0.981946;0.015123;0.0;0.0;0.0;0.0;0.0;0.0
1.0;1753877972.53796;18.28263;1.1;-1.69;0.04;-0.055345;0.980734;0.015623;0.0;0.0;0.0;0.0;0.0;0.0
1.0;1753877972.542558;18.287667;1.08;-1.57;-0.05;-0.059851;0.982193;0.014131;0.0;0.0;0.0;0.0;0.0;0.0
1.0;1753877972.547156;18.274506;1.02;-1.69;-0.03;-0.056285;0.981941;0.015416;0.0;0.0;0.0;0.0;0.0;0.0
1.0;1753877972.551754;18.281214;1.11;-1.69;0.08;-0.058928;0.980666;0.014702;0.0;0.0;0.0;0.0;0.0;0.0
1.0;1753877972.556352;18.303465;1.05;-1.64;0.05;-0.056366;0.982477;0.014275;0.0;0.0;0.0;0.0;0.0;0.0
1.0;1753877972.56095;18.268096;1.16;-1.61;0.05;-0.059995;0.980735;0.014645;0.0;0.0;0.0;0.0;0.0;0.0
1.0;1753877972.565548;18.264649;1.04;-1.65;0.04;-0.055819;0.980921;0.015381;0.0;0.0;0.0;0.0;0.0;0.0
1.0;1753877972.570145;18.266112;0.92;-1.65;-0.03;-0.058118;0.980878;0.015519;0.0;0.0;0.0;0.0;0.0;0.0
1.0;1753877972.574743;18.284027;1.05;-1.64;-0.01;-0.057206;0.981351;0.01434;0.0;0.0;0.0;0.0;0.0;0.0
1.0;1753877972.579341;18.2566;0.92;-1.54;0.01;-0.057595;0.981199;0.013318;0.0;0.0;0.0;0.0;0.0;0.0
1.0;1753877972.583939;18.297381;1.0;-1.63;0.08;-0.055408;0.982324;0.015463;0.0;0.0;0.0;0.0;0.0;0.0
1.0;1753877972.588537;18.267203;0.99;-1.6;0.02;-0.058202;0.982688;0.014497;0.0;0.0;0.0;0.0;0.0;0.0
1.0;1753877972.593135;18.265961;1.01;-1.58;-0.09;-0.058719;0.981495;0.014505;0.0;0.0;0.0;0.0;0.0;0.0
1.0;1753877972.597733;18.303316;1.05;-1.64;0.1;-0.054394;0.982247;0.014167;0.0;0.0;0.0;0.0;0.0;0.0
1.0;1753877972.602331;18.283113;1.02;-1.63;-0.01;-0.058001;0.980027;0.013038;0.0;0.0;0.0;0.0;0.0;0.0
1.0;1753877972.606928;18.301817;1.09;-1.59;0.06;-0.058786;0.982229;0.014688;0.0;0.0;0.0;0.0;0.0;0.0
1.0;1753877972.611526;18.23733;0.99;-1.61;0.04;-0.055924;0.981804;0.015235;0.0;0.0;0.0;0.0;0.0;0.0
1.0;1753877972.616124;18.289779;0.96;-1.69;-0.06;-0.060528;0.98147;0.014608;0.0;0.0;0.0;0.0;0.0;0.0
1.0;1753877972.620722;18.235501;1.13;-1.75;0.07;-0.055885;0.98275;0.014514;0.0;0.0;0.0;0.0;0.0;0.0
1.0;1753877972.62532;18.280569;1.04;-1.63;0.06;-0.05932;0.981786;0.015089;0.0;0.0;0.0;0.0;0.0;0.0
1.0;1753877972.629918;18.278279;0.99;-1.72;0.09;-0.056442;0.981919;0.014998;0.0;0.0;0.0;0.0;0.0;0.0
1.0;1753877972.634516;18.28433;0.98;-1.62;0.06;-0.054888;0.982149;0.015434;0.0;0.0;0.0;0.0;0.0;0.0
1.0;1753877972.639114;18.249847;1.06;-1.62;0.09;-0.057411;0.980807;0.016205;0.0;0.0;0.0;0.0;0.0;0.0
1.0;1753877972.643712;18.272431;0.96;-1.64;-0.06;-0.057757;0.981012;0.014225;0.0;0.0;0.0;0.0;0.0;0.0
1.0;1753877972.64831;18.252021;1.03;-1.66;-0.01;-0.056693;0.982034;0.014848;0.0;0.0;0.0;0.0;0.0;0.0
1.0;1753877972.652908;18.284145;1.07;-1.63;0.06;-0.059327;0.980941;0.013576;0.0;0.0;0.0;0.0;0.0;0.0
1.0;1753877972.657506;18.235874;1.09;-1.61;0.14;-0.060292;0.981023;0.015772;0.0;0.0;0.0;0.0;0.0;0.0
1.0;1753877972.662104;18.285197;1.02;-1.68;0.1;-0.059968;0.98143;0.015032;0.0;0.0;0.0;0.0;0.0;0.0
1.0;1753877972.666701;18.299945;1.0;-1.62;0.01;-0.057671;0.98138;0.01361;0.0;0.0;0.0;0.0;0.0;0.0
1.0;1753877972.671299;18.274885;0.97;-1.67;0.05;-0.05594;0.982133;0.014919;0.0;0.0;0.0;0.0;0.0;0.0
1.0;1753877972.675897;18.315797;1.03;-1.58;0.07;-0.057516;0.982591;0.013969;0.0;0.0;0.0;0.0;0.0;0.0
1.0;1753877972.680495;18.297105;0.99;-1.69;0.04;-0.059274;0.98136;0.015555;0.0;0.0;0.0;0.0;0.0;0.0
1.0;1753877972.685093;18.267297;1.03;-1.64;0.05;-0.055776;0.982546;0.015198;0.0;0.0;0.0;0.0;0.0;0.0
1.0;1753877972.689691;18.26723;1.04;-1.6;0.05;-0.056507;0.981444;0.015007;0.0;0.0;0.0;0.0;0.0;0.0
1.0;1753877972.694289;18.318125;0.95;-1.57;0.09;-0.055477;0.981412;0.014655;0.0;0.0;0.0;0.0;0.0;0.0
1.0;1753877972.698887;18.262912;0.99;-1.62;0.05;-0.056124;0.982394;0.01544;0.0;0.0;0.0;0.0;0.0;0.0
1.0;1753877972.703484;18.294779;0.96;-1.59;-0.05;-0.057317;0.981628;0.015608;0.0;0.0;0.0;0.0;0.0;0.0
1.0;1753877972.708082;18.269158;1.0;-1.62;0.1;-0.056241;0.982517;0.016581;0.0;0.0;0.0;0.0;0.0;0.0
1.0;1753877972.71268;18.282335;0.99;-1.61;0.01;-0.059935;0.98014;0.016492;0.0;0.0;0.0;0.0;0.0;0.0
1.0;1753877972.717278;18.244153;1.04;-1.63;-0.01;-0.058296;0.981507;0.0159;0.0;0.0;0.0;0.0;0.0;0.0
1.0;1753877972.721876;18.255583;1.01;-1.76;-0.08;-0.059718;0.980822;0.015163;0.0;0.0;0.0;0.0;0.0;0.0
1.0;1753877972.726474;18.283493;1.03;-1.61;0.02;-0.059998;0.981867;0.014832;0.0;0.0;0.0;0.0;0.0;0.0
1.0;1753877972.731072;18.268921;1.03;-1.61;-0.01;-0.05812;0.981973;0.015362;0.0;0.0;0.0;0.0;0.0;0.0
1.0;1753877972.73567;18.273046;0.95;-1.66;0.09;-0.058262;0.982332;0.016199;0.0;0.0;0.0;0.0;0.0;0.0
1.0;1753877972.740268;18.275799;0.92;-1.69;-0.04;-0.057628;0.982462;0.015437;0.0;0.0;0.0;0.0;0.0;0.0
1.0;1753877972.744866;18.255224;0.98;-1.64;0.16;-0.059587;0.982048;0.015027;0.0;0.0;0.0;0.0;0.0;0.0
1.0;1753877972.749464;18.288429;0.95;-1.71;0.02;-0.059832;0.981868;0.015533;0.0;0.0;0.0;0.0;0.0;0.0
1.0;1753877972.754062;18.287834;0.98;-1.67;-0.01;-0.058271;0.982051;0.014859;0.0;0.0;0.0;0.0;0.0;0.0
1.0;1753877972.758659;18.257933;0.99;-1.75;-0.01;-0.058927;0.980375;0.014779;0.0;0.0;0.0;0.0;0.0;0.0
1.0;1753877972.763257;18.278675;0.95;-1.64;0.06;-0.056449;0.981138;0.016081;0.0;0.0;0.0;0.0;0.0;0.0
1.0;1753877972.767855;18.270512;1.04;-1.64;0.06;-0.058252;0.9812;0.015275;0.0;0.0;0.0;0.0;0.0;0.0
1.0;1753877972.772453;18.249223;1.0;-1.68;0.12;-0.056891;0.982488;0.01605;0.0;0.0;0.0;0.0;0.0;0.0
1.0;1753877972.777051;18.261063;0.93;-1.7;0.08;-0.058526;0.981597;0.01329;0.0;0.0;0.0;0.0;0.0;0.0
1.0;1753877972.781649;18.254783;1.07;-1.69;-0.03;-0.060829;0.982579;0.015024;0.0;0.0;0.0;0.0;0.0;0.0
1.0;1753877972.786247;18.277377;1.03;-1.71;0.11;-0.063416;0.980808;0.015046;0.0;0.0;0.0;0.0;0.0;0.0
1.0;1753877972.790845;18.28353;0.88;-1.7;-0.12;-0.056684;0.981153;0.014016;0.0;0.0;0.0;0.0;0.0;0.0
1.0;1753877972.795442;18.279159;1.03;-1.61;0.07;-0.059519;0.98201;0.014487;0.0;0.0;0.0;0.0;0.0;0.0
1.0;1753877972.80004;18.27151;0.99;-1.63;0.08;-0.055901;0.981832;0.014806;0.0;0.0;0.0;0.0;0.0;0.0
1.0;1753877972.804638;18.260217;0.98;-1.65;0.07;-0.061808;0.981478;0.014346;0.0;0.0;0.0;0.0;0.0;0.0
1.0;1753877972.809236;18.291528;0.91;-1.6;-0.02;-0.058523;0.982619;0.014991;0.0;0.0;0.0;0.0;0.0;0.0
1.0;1753877972.813834;18.235887;1.01;-1.68;-0.02;-0.06127;0.981983;0.014857;0.0;0.0;0.0;0.0;0.0;0.0
1.0;1753877972.818432;18.308268;0.95;-1.72;0.12;-0.05628;0.981982;0.014322;0.0;0.0;0.0;0.0;0.0;0.0
1.0;1753877972.82303;18.299026;1.03;-1.6;0.01;-0.061173;0.981687;0.015303;0.0;0.0;0.0;0.0;0.0;0.0
1.0;1753877972.827628;18.288404;0.98;-1.62;0.02;-0.059011;0.981947;0.014286;0.0;0.0;0.0;0.0;0.0;0.0
1.0;1753877972.832226;18.297771;1.05;-1.68;-0.05;-0.05785;0.98082;0.015175;0.0;0.0;0.0;0.0;0.0;0.0
1.0;1753877972.836824;18.273124;0.94;-1.69;0.1;-0.05968;0.980594;0.015739;0.0;0.0;0.0;0.0;0.0;0.0
1.0;1753877972.841422;18.269091;0.95;-1.65;-0.03;-0.058643;0.981534;0.015618;0.0;0.0;0.0;0.0;0.0;0.0
1.0;1753877972.84602;18.255181;0.95;-1.64;0.08;-0.060417;0.981476;0.014945;0.0;0.0;0.0;0.0;0.0;0.0
1.0;1753877972.850618;18.265131;0.88;-1.61;-0.01;-0.061549;0.981903;0.0155;0.0;0.0;0.0;0.0;0.0;0.0
1.0;1753877972.855215;18.301716;0.94;-1.69;0.1;-0.056311;0.981152;0.015519;0.0;0.0;0.0;0.0;0.0;0.0
1.0;1753877972.859813;18.28648;1.08;-1.64;-0.06;-0.059886;0.981371;0.014752;0.0;0.0;0.0;0.0;0.0;0.0
1.0;1753877972.864411;18.274011;1.04;-1.61;0.01;-0.05507;0.981254;0.014329;0.0;0.0;0.0;0.0;0.0;0.0
1.0;1753877972.869009;18.27553;1.05;-1.61;0.08;-0.056873;0.981671;0.015817;0.0;0.0;0.0;0.0;0.0;0.0
1.0;1753877972.873607;18.269088;0.96;-1.74;0.16;-0.057697;0.98153;0.014869;0.0;0.0;0.0;0.0;0.0;0.0
1.0;1753877972.878205;18.299946;1.0;-1.65;0.03;-0.060551;0.980545;0.015198;0.0;0.0;0.0;0.0;0.0;0.0
1.0;1753877972.882803;18.256449;0.93;-1.7;-0.02;-0.058032;0.981779;0.015161;0.0;0.0;0.0;0.0;0.0;0.0
1.0;1753877972.887401;18.288107;0.95;-1.58;0.05;-0.057912;0.981301;0.014895;0.0;0.0;0.0;0.0;0.0;0.0
1.0;1753877972.891998;18.295608;1.03;-1.64;0.05;-0.058504;0.981038;0.015286;0.0;0.0;0.0;0.0;0.0;0.0
1.0;1753877972.896596;18.268226;0.99;-1.7;0.01;-0.059484;0.981495;0.01484;0.0;0.0;0.0;0.0;0.0;0.0
1.0;1753877972.901194;18.299915;0.95;-1.68;0.12;-0.05951;0.981129;0.01606;0.0;0.0;0.0;0.0;0.0;0.0
1.0;1753877972.905792;18.231081;0.95;-1.63;0.06;-0.058613;0.981156;0.015444;0.0;0.0;0.0;0.0;0.0;0.0
1.0;1753877972.9143;18.273438;0.98;-1.68;0.07;-0.059048;0.981734;0.015128;0.0;0.0;0.0;0.0;0.0;0.0
1.0;1753877972.9144;18.285156;1.12;-1.61;0.07;-0.060146;0.98088;0.013664;0.0;0.0;0.0;0.0;0.0;0.0
1.0;1753877972.918998;18.289137;1.09;-1.62;-0.02;-0.060468;0.982124;0.014022;0.0;0.0;0.0;0.0;0.0;0.0
1.0;1753877972.923596;18.284374;1.22;-1.63;0.12;-0.059953;0.980455;0.013898;0.0;0.0;0.0;0.0;0.0;0.0
1.0;1753877972.928194;18.293371;1.07;-1.43;0.06;-0.057054;0.981403;0.015017;0.0;0.0;0.0;0.0;0.0;0.0
1.0;1753877972.932792;18.272844;1.13;-1.52;0.19;-0.058204;0.981177;0.01345;0.0;0.0;0.0;0.0;0.0;0.0
1.0;1753877972.93739;18.261692;1.14;-1.73;0.1;-0.059679;0.981453;0.013597;0.0;0.0;0.0;0.0;0.0;0.0
1.0;1753877972.941988;18.303973;1.2;-1.59;0.04;-0.056907;0.981899;0.01493;0.0;0.0;0.0;0.0;0.0;0.0
1.0;1753877972.946586;18.26266;1.07;-1.56;0.03;-0.057898;0.981698;0.014036;0.0;0.0;0.0;0.0;0.0;0.0
1.0;1753877972.951183;18.291934;1.09;-1.68;0.09;-0.057033;0.981898;0.015463;0.0;0.0;0.0;0.0;0.0;0.0
1.0;1753877972.955781;18.263278;0.99;-1.58;0.04;-0.055745;0.981618;0.016513;0.0;0.0;0.0;0.0;0.0;0.0
1.0;1753877972.95997;18.285156;1.05;-1.61;0.07;-0.055632;0.9821;0.015494;0.0;0.0;0.0;0.0;0.0;0.0
1.0;1753877972.962265;18.289062;0.98;-1.75;0.07;-0.05856;0.982222;0.012444;0.0;0.0;0.0;0.0;0.0;0.0
1.0;1753877972.965118;18.28125;1.05;-1.61;0.14;-0.057096;0.981368;0.01525;0.0;0.0;0.0;0.0;0.0;0.0
1.0;1753877972.969445;18.28125;0.98;-1.68;0.07;-0.058438;0.980636;0.015494;0.0;0.0;0.0;0.0;0.0;0.0
1.0;1753877972.973905;18.28125;0.98;-1.61;0.07;-0.058438;0.980636;0.015494;0.0;0.0;0.0;0.0;0.0;0.0
1.0;1753877972.979289;18.28125;0.98;-1.61;0.07;-0.058316;0.981246;0.014762;0.0;0.0;0.0;0.0;0.0;0.0
1.0;1753877972.98385;18.257812;1.12;-1.68;0.07;-0.058804;0.980392;0.013054;0.0;0.0;0.0;0.0;0.0;0.0
1.0;1753877972.987905;18.257812;1.12;-1.68;0.14;-0.05795;0.981002;0.01342;0.0;0.0;0.0;0.0;0.0;0.0
1.0;1753877972.992266;18.257812;1.05;-1.68;0.07;-0.059658;0.981856;0.014274;0.0;0.0;0.0;0.0;0.0;0.0
1.0;1753877972.996885;18.257812;1.12;-1.75;0.07;-0.05734;0.981612;0.01525;0.0;0.0;0.0;0.0;0.0;0.0
1.0;1753877973.001483;18.246385;1.04;-1.75;0.1;-0.05753;0.981245;0.015733;0.0;0.0;0.0;0.0;0.0;0.0
1.0;1753877973.006081;18.298464;1.16;-1.74;-0.0;-0.057383;0.980296;0.015575;0.0;0.0;0.0;0.0;0.0;0.0
1.0;1753877973.010679;18.241452;1.06;-1.67;0.06;-0.056475;0.981235;0.013828;0.0;0.0;0.0;0.0;0.0;0.0
1.0;1753877973.015277;18.296337;1.2;-1.74;0.08;-0.056485;0.98112;0.016516;0.0;0.0;0.0;0.0;0.0;0.0
1.0;1753877973.019874;18.247224;1.02;-1.74;0.09;-0.058957;0.981305;0.013931;0.0;0.0;0.0;0.0;0.0;0.0
1.0;1753877973.024472;18.272988;1.12;-1.76;0.07;-0.058946;0.983188;0.014466;0.0;0.0;0.0;0.0;0.0;0.0
1.0;1753877973.02907;18.242037;1.0;-1.7;0.03;-0.057488;0.981744;0.015538;0.0;0.0;0.0;0.0;0.0;0.0
1.0;1753877973.033668;18.274537;1.06;-1.75;0.1;-0.057585;0.980572;0.013857;0.0;0.0;0.0;0.0;0.0;0.0
1.0;1753877973.038266;18.247331;0.98;-1.61;0.01;-0.057972;0.979496;0.013036;0.0;0.0;0.0;0.0;0.0;0.0
1.0;1753877973.042864;18.298157;1.09;-1.74;0.06;-0.056415;0.982072;0.015688;0.0;0.0;0.0;0.0;0.0;0.0
1.0;1753877973.047462;18.27664;1.05;-1.65;0.08;-0.058002;0.981582;0.015585;0.0;0.0;0.0;0.0;0.0;0.0
1.0;1753877973.05206;18.274276;1.04;-1.61;0.18;-0.059414;0.981867;0.014151;0.0;0.0;0.0;0.0;0.0;0.0
1.0;1753877973.056658;18.269745;1.09;-1.67;0.04;-0.057106;0.981773;0.014936;0.0;0.0;0.0;0.0;0.0;0.0
1.0;1753877973.061256;18.267199;0.94;-1.75;0.08;-0.057927;0.979543;0.012799;0.0;0.0;0.0;0.0;0.0;0.0
1.0;1753877973.065854;18.30218;1.03;-1.62;0.01;-0.058804;0.981006;0.012078;0.0;0.0;0.0;0.0;0.0;0.0
1.0;1753877973.070452;18.324451;1.04;-1.7;0.05;-0.058802;0.979578;0.012851;0.0;0.0;0.0;0.0;0.0;0.0
1.0;1753877973.07505;18.295523;1.01;-1.63;0.06;-0.057565;0.981338;0.012722;0.0;0.0;0.0;0.0;0.0;0.0
1.0;1753877973.079647;18.314184;1.03;-1.59;0.06;-0.05847;0.979945;0.013691;0.0;0.0;0.0;0.0;0.0;0.0
1.0;1753877973.084245;18.261081;1.03;-1.67;0.09;-0.058413;0.979798;0.015517;0.0;0.0;0.0;0.0;0.0;0.0
1.0;1753877973.088843;18.30398;0.93;-1.67;-0.0;-0.059549;0.981199;0.014852;0.0;0.0;0.0;0.0;0.0;0.0
1.0;1753877973.093441;18.308218;1.0;-1.57;0.04;-0.059642;0.979818;0.011149;0.0;0.0;0.0;0.0;0.0;0.0
1.0;1753877973.098039;18.273163;0.96;-1.6;0.02;-0.057633;0.980215;0.013382;0.0;0.0;0.0;0.0;0.0;0.0
1.0;1753877973.1063;18.289062;0.98;-1.61;0.07;-0.058926;0.979904;0.013542;0.0;0.0;0.0;0.0;0.0;0.0
1.0;1753877973.110898;18.278595;0.96;-1.6;0.05;-0.058806;0.979336;0.013832;0.0;0.0;0.0;0.0;0.0;0.0
1.0;1753877973.115496;18.284162;0.92;-1.62;0.06;-0.059021;0.981254;0.013567;0.0;0.0;0.0;0.0;0.0;0.0
1.0;1753877973.120094;18.285427;0.94;-1.52;0.08;-0.059546;0.980781;0.013778;0.0;0.0;0.0;0.0;0.0;0.0
1.0;1753877973.124692;18.264716;0.97;-1.67;0.05;-0.057691;0.981599;0.014209;0.0;0.0;0.0;0.0;0.0;0.0
1.0;1753877973.12929;18.314013;0.96;-1.66;0.08;-0.057525;0.982364;0.01396;0.0;0.0;0.0;0.0;0.0;0.0
1.0;1753877973.133888;18.289405;1.04;-1.68;0.14;-0.061104;0.982828;0.011893;0.0;0.0;0.0;0.0;0.0;0.0
1.0;1753877973.138486;18.303672;0.91;-1.67;0.1;-0.058424;0.983824;0.014287;0.0;0.0;0.0;0.0;0.0;0.0
1.0;1753877973.143083;18.276506;0.98;-1.56;0.17;-0.058675;0.981862;0.012513;0.0;0.0;0.0;0.0;0.0;0.0
1.0;1753877973.147681;18.293411;0.9;-1.67;0.08;-0.05717;0.982711;0.014178;0.0;0.0;0.0;0.0;0.0;0.0
1.0;1753877973.15182;18.289062;0.98;-1.68;0.14;-0.058194;0.98332;0.013908;0.0;0.0;0.0;0.0;0.0;0.0
1.0;1753877973.156418;18.309349;1.04;-1.69;0.13;-0.058784;0.985102;0.013137;0.0;0.0;0.0;0.0;0.0;0.0
1.0;1753877973.161016;18.304883;0.95;-1.75;0.15;-0.05824;0.982334;0.01354;0.0;0.0;0.0;0.0;0.0;0.0
1.0;1753877973.165614;18.259685;1.1;-1.65;0.13;-0.055935;0.984203;0.014415;0.0;0.0;0.0;0.0;0.0;0.0
1.0;1753877973.170212;18.233017;1.03;-1.7;0.13;-0.059037;0.981938;0.015011;0.0;0.0;0.0;0.0;0.0;0.0
1.0;1753877973.17481;18.270683;1.08;-1.56;0.07;-0.057077;0.983922;0.014823;0.0;0.0;0.0;0.0;0.0;0.0
1.0;1753877973.179407;18.269176;1.04;-1.64;0.09;-0.058228;0.982737;0.013311;0.0;0.0;0.0;0.0;0.0;0.0
1.0;1753877973.184005;18.265894;1.1;-1.58;0.15;-0.056923;0.982592;0.014088;0.0;0.0;0.0;0.0;0.0;0.0
1.0;1753877973.188603;18.288071;1.16;-1.63;0.14;-0.057788;0.982928;0.015213;0.0;0.0;0.0;0.0;0.0;0.0
1.0;1753877973.19647;18.242188;1.12;-1.61;0.14;-0.058194;0.98332;0.013908;0.0;0.0;0.0;0.0;0.0;0.0
1.0;1753877973.201068;18.255906;1.05;-1.55;0.14;-0.060129;0.983019;0.015479;0.0;0.0;0.0;0.0;0.0;0.0
1.0;1753877973.205666;18.244274;1.02;-1.63;0.09;-0.059486;0.983582;0.013601;0.0;0.0;0.0;0.0;0.0;0.0
1.0;1753877973.210264;18.237553;1.14;-1.59;0.11;-0.059786;0.981639;0.013771;0.0;0.0;0.0;0.0;0.0;0.0
1.0;1753877973.214862;18.268913;1.11;-1.72;0.13;-0.058381;0.98488;0.014481;0.0;0.0;0.0;0.0;0.0;0.0
1.0;1753877973.21946;18.280746;1.11;-1.67;0.15;-0.058086;0.981572;0.015157;0.0;0.0;0.0;0.0;0.0;0.0
1.0;1753877973.224058;18.273988;1.11;-1.78;0.16;-0.057087;0.981221;0.014044;0.0;0.0;0.0;0.0;0.0;0.0
1.0;1753877973.228655;18.212143;1.11;-1.68;0.21;-0.05757;0.982786;0.014703;0.0;0.0;0.0;0.0;0.0;0.0
1.0;1753877973.233253;18.220422;1.18;-1.74;0.11;-0.057185;0.984012;0.015455;0.0;0.0;0.0;0.0;0.0;0.0
1.0;1753877973.237851;18.235365;1.12;-1.81;0.17;-0.056865;0.982223;0.016293;0.0;0.0;0.0;0.0;0.0;0.0
1.0;1753877973.24316;18.242188;1.19;-1.75;0.14;-0.057096;0.982222;0.015738;0.0;0.0;0.0;0.0;0.0;0.0
1.0;1753877973.247758;18.22201;1.19;-1.74;0.19;-0.056814;0.982371;0.015431;0.0;0.0;0.0;0.0;0.0;0.0
1.0;1753877973.252356;18.221521;1.23;-1.69;0.16;-0.056674;0.980995;0.015859;0.0;0.0;0.0;0.0;0.0;0.0
1.0;1753877973.256954;18.241123;1.07;-1.64;0.16;-0.056536;0.982343;0.015777;0.0;0.0;0.0;0.0;0.0;0.0
1.0;1753877973.261552;18.234946;1.22;-1.73;0.14;-0.05561;0.981162;0.014988;0.0;0.0;0.0;0.0;0.0;0.0
1.0;1753877973.26615;18.252632;1.13;-1.69;0.09;-0.058272;0.980785;0.014957;0.0;0.0;0.0;0.0;0.0;0.0
1.0;1753877973.270748;18.242331;1.18;-1.7;0.17;-0.056943;0.983028;0.015263;0.0;0.0;0.0;0.0;0.0;0.0
1.0;1753877973.275345;18.244918;1.07;-1.69;0.11;-0.057468;0.983719;0.015843;0.0;0.0;0.0;0.0;0.0;0.0
1.0;1753877973.279943;18.24881;1.22;-1.63;0.2;-0.056286;0.979959;0.015872;0.0;0.0;0.0;0.0;0.0;0.0
1.0;1753877973.284541;18.230502;1.02;-1.67;0.15;-0.056018;0.981847;0.013936;0.0;0.0;0.0;0.0;0.0;0.0
1.0;1753877973.289139;18.218083;1.12;-1.65;0.16;-0.057149;0.980828;0.013837;0.0;0.0;0.0;0.0;0.0;0.0
1.0;1753877973.293737;18.262716;1.32;-1.6;0.17;-0.057556;0.981092;0.014723;0.0;0.0;0.0;0.0;0.0;0.0
1.0;1753877973.298335;18.218274;1.19;-1.63;0.14;-0.057064;0.980244;0.013576;0.0;0.0;0.0;0.0;0.0;0.0
1.0;1753877973.302933;18.261279;1.16;-1.65;0.08;-0.057816;0.979592;0.014367;0.0;0.0;0.0;0.0;0.0;0.0
1.0;1753877973.30985;18.242188;1.12;-1.61;0.14;-0.056974;0.981124;0.01464;0.0;0.0;0.0;0.0;0.0;0.0
1.0;1753877973.314448;18.27588;1.08;-1.59;0.09;-0.058247;0.981444;0.013829;0.0;0.0;0.0;0.0;0.0;0.0
1.0;1753877973.319046;18.230905;1.07;-1.5;0.08;-0.057199;0.981834;0.012869;0.0;0.0;0.0;0.0;0.0;0.0
1.0;1753877973.323644;18.256555;1.06;-1.54;0.13;-0.057405;0.982115;0.015846;0.0;0.0;0.0;0.0;0.0;0.0
1.0;1753877973.328242;18.241351;1.01;-1.64;0.16;-0.056061;0.981248;0.014283;0.0;0.0;0.0;0.0;0.0;0.0
1.0;1753877973.33284;18.242346;1.06;-1.61;0.11;-0.058418;0.980331;0.015332;0.0;0.0;0.0;0.0;0.0;0.0
1.0;1753877973.337438;18.25977;0.99;-1.68;0.2;-0.059556;0.981413;0.013258;0.0;0.0;0.0;0.0;0.0;0.0
1.0;1753877973.342035;18.256624;1.04;-1.76;0.19;-0.05825;0.983898;0.015016;0.0;0.0;0.0;0.0;0.0;0.0
1.0;1753877973.346633;18.271516;1.05;-1.59;0.26;-0.058175;0.982795;0.016883;0.0;0.0;0.0;0.0;0.0;0.0
1.0;1753877973.35126;18.242188;0.98;-1.61;0.21;-0.058316;0.982588;0.014762;0.0;0.0;0.0;0.0;0.0;0.0
1.0;1753877973.355858;18.21188;1.01;-1.61;0.23;-0.05681;0.983106;0.012659;0.0;0.0;0.0;0.0;0.0;0.0
1.0;1753877973.360456;18.242113;0.96;-1.64;0.16;-0.057888;0.981565;0.013988;0.0;0.0;0.0;0.0;0.0;0.0
1.0;1753877973.365054;18.237493;0.99;-1.56;0.21;-0.057496;0.982702;0.012342;0.0;0.0;0.0;0.0;0.0;0.0
1.0;1753877973.369652;18.241504;1.02;-1.59;0.22;-0.059219;0.983946;0.014518;0.0;0.0;0.0;0.0;0.0;0.0
1.0;1753877973.37425;18.251393;0.93;-1.64;0.26;-0.059408;0.981486;0.015523;0.0;0.0;0.0;0.0;0.0;0.0
1.0;1753877973.378847;18.238628;1.0;-1.65;0.25;-0.057307;0.982028;0.014632;0.0;0.0;0.0;0.0;0.0;0.0
1.0;1753877973.383445;18.291581;0.98;-1.73;0.15;-0.058016;0.981582;0.013554;0.0;0.0;0.0;0.0;0.0;0.0
1.0;1753877973.39207;18.273438;0.98;-1.68;0.14;-0.057828;0.981368;0.014396;0.0;0.0;0.0;0.0;0.0;0.0
1.0;1753877973.396668;18.262249;0.93;-1.73;0.07;-0.058108;0.981587;0.015124;0.0;0.0;0.0;0.0;0.0;0.0
1.0;1753877973.401266;18.256998;0.95;-1.67;0.06;-0.057126;0.98154;0.014803;0.0;0.0;0.0;0.0;0.0;0.0
1.0;1753877973.405864;18.289848;1.02;-1.7;0.12;-0.058488;0.981068;0.013856;0.0;0.0;0.0;0.0;0.0;0.0
1.0;1753877973.410462;18.27314;0.98;-1.62;0.13;-0.057051;0.981717;0.01496;0.0;0.0;0.0;0.0;0.0;0.0
1.0;1753877973.41506;18.275857;1.05;-1.61;0.09;-0.059146;0.979619;0.014697;0.0;0.0;0.0;0.0;0.0;0.0
1.0;1753877973.419658;18.267201;0.92;-1.58;0.11;-0.058613;0.981036;0.014421;0.0;0.0;0.0;0.0;0.0;0.0
1.0;1753877973.42564;18.273438;0.98;-1.61;0.07;-0.058316;0.981246;0.015616;0.0;0.0;0.0;0.0;0.0;0.0
1.0;1753877973.430238;18.253445;1.06;-1.56;0.09;-0.057387;0.979412;0.014967;0.0;0.0;0.0;0.0;0.0;0.0
1.0;1753877973.434836;18.284965;1.1;-1.61;0.08;-0.05931;0.982654;0.015132;0.0;0.0;0.0;0.0;0.0;0.0
1.0;1753877973.439434;18.276912;1.05;-1.54;-0.01;-0.058016;0.981684;0.016129;0.0;0.0;0.0;0.0;0.0;0.0
1.0;1753877973.444032;18.302968;0.98;-1.65;0.07;-0.057214;0.98163;0.014627;0.0;0.0;0.0;0.0;0.0;0.0
1.0;1753877973.44863;18.251476;0.96;-1.53;0.08;-0.058686;0.982655;0.014725;0.0;0.0;0.0;0.0;0.0;0.0
1.0;1753877973.453228;18.275384;1.02;-1.5;0.1;-0.060164;0.982116;0.016967;0.0;0.0;0.0;0.0;0.0;0.0
1.0;1753877973.457826;18.284094;1.13;-1.57;0.08;-0.057959;0.981488;0.015858;0.0;0.0;0.0;0.0;0.0;0.0
1.0;1753877973.462423;18.277973;1.14;-1.56;0.07;-0.058234;0.983979;0.016778;0.0;0.0;0.0;0.0;0.0;0.0
1.0;1753877973.467021;18.231563;1.17;-1.43;0.09;-0.056041;0.980579;0.016128;0.0;0.0;0.0;0.0;0.0;0.0
1.0;1753877973.47198;18.273438;1.12;-1.54;0.07;-0.058438;0.981734;0.01464;0.0;0.0;0.0;0.0;0.0;0.0
1.0;1753877973.476578;18.277798;1.25;-1.62;0.05;-0.059424;0.980729;0.015218;0.0;0.0;0.0;0.0;0.0;0.0
1.0;1753877973.481176;18.290617;1.2;-1.55;0.14;-0.059272;0.982655;0.014656;0.0;0.0;0.0;0.0;0.0;0.0
1.0;1753877973.485774;18.242582;0.96;-1.54;0.12;-0.058453;0.980423;0.013896;0.0;0.0;0.0;0.0;0.0;0.0
1.0;1753877973.490372;18.276853;0.96;-1.53;0.06;-0.05918;0.982573;0.016309;0.0;0.0;0.0;0.0;0.0;0.0
1.0;1753877973.49497;18.288063;1.14;-1.57;0.0;-0.058168;0.982938;0.013125;0.0;0.0;0.0;0.0;0.0;0.0
1.0;1753877973.499568;18.272294;1.12;-1.61;0.02;-0.057963;0.981882;0.014852;0.0;0.0;0.0;0.0;0.0;0.0
1.0;1753877973.504166;18.266501;1.12;-1.62;0.04;-0.059325;0.981892;0.015621;0.0;0.0;0.0;0.0;0.0;0.0
1.0;1753877973.508763;18.281807;1.14;-1.66;0.1;-0.059716;0.98259;0.015717;0.0;0.0;0.0;0.0;0.0;0.0
1.0;1753877973.513361;18.251429;1.06;-1.65;-0.0;-0.05861;0.982826;0.015619;0.0;0.0;0.0;0.0;0.0;0.0
1.0;1753877973.517959;18.281808;1.17;-1.73;0.11;-0.058581;0.983787;0.01504;0.0;0.0;0.0;0.0;0.0;0.0
1.0;1753877973.522557;18.280746;1.1;-1.55;-0.03;-0.058657;0.983224;0.01553;0.0;0.0;0.0;0.0;0.0;0.0
1.0;1753877973.527155;18.26844;0.99;-1.54;0.01;-0.059766;0.981697;0.016235;0.0;0.0;0.0;0.0;0.0;0.0
1.0;1753877973.531753;18.25666;1.04;-1.54;0.06;-0.059867;0.982527;0.013723;0.0;0.0;0.0;0.0;0.0;0.0
1.0;1753877973.536351;18.23948;1.08;-1.57;0.01;-0.058405;0.981697;0.014738;0.0;0.0;0.0;0.0;0.0;0.0
1.0;1753877973.540949;18.258003;0.98;-1.68;0.07;-0.059066;0.9821;0.013415;0.0;0.0;0.0;0.0;0.0;0.0
1.0;1753877973.545546;18.285493;1.13;-1.52;-0.09;-0.058646;0.98069;0.015191;0.0;0.0;0.0;0.0;0.0;0.0
1.0;1753877973.550144;18.24676;1.07;-1.58;0.13;-0.057651;0.979768;0.016337;0.0;0.0;0.0;0.0;0.0;0.0
