DeviceID;Timestamp;Temperature;GyroX;GyroY;GyroZ;AccelX;AccelY;AccelZ;Dist1;Dist2;Dist3;Err1;Err2;Err3
2.0;1753874606.315354;20.457031;0.98;-1.68;-0.28;0.446886;-0.915366;-0.011102;0.0;0.0;0.0;0.0;0.0;0.0
2.0;1753874606.321839;20.457031;0.91;-1.68;-0.28;0.447374;-0.914878;-0.01159;0.0;0.0;0.0;0.0;0.0;0.0
2.0;1753874606.328725;20.488281;0.91;-1.68;-0.28;0.44591;-0.915854;-0.01037;0.0;0.0;0.0;0.0;0.0;0.0
2.0;1753874606.331676;20.488281;0.84;-1.75;-0.35;0.446642;-0.914024;-0.010858;0.0;0.0;0.0;0.0;0.0;0.0
2.0;1753874606.339989;20.488281;0.91;-1.75;-0.28;0.446032;-0.91561;-0.011468;0.0;0.0;0.0;0.0;0.0;0.0
2.0;1753874606.344193;20.480469;0.91;-1.61;-0.28;0.44652;-0.91439;-0.011712;0.0;0.0;0.0;0.0;0.0;0.0
2.0;1753874606.349396;20.480469;0.98;-1.68;-0.35;0.446642;-0.915854;-0.01159;0.0;0.0;0.0;0.0;0.0;0.0
2.0;1753874606.353559;20.480469;0.98;-1.68;-0.35;0.447618;-0.916342;-0.01098;0.0;0.0;0.0;0.0;0.0;0.0
2.0;1753874606.362638;20.480469;0.91;-1.61;-0.35;0.447496;-0.915488;-0.011468;0.0;0.0;0.0;0.0;0.0;0.0
2.0;1753874606.36837;20.480469;0.84;-1.75;-0.35;0.44835;-0.915;-0.01342;0.0;0.0;0.0;0.0;0.0;0.0
2.0;1753874606.373389;20.480469;0.91;-1.82;-0.28;0.444568;-0.915122;-0.01098;0.0;0.0;0.0;0.0;0.0;0.0
2.0;1753874606.376179;20.480469;0.91;-1.68;-0.35;0.448472;-0.914268;-0.01098;0.0;0.0;0.0;0.0;0.0;0.0
2.0;1753874606.3818;20.480469;0.91;-1.68;-0.35;0.446032;-0.91744;-0.010248;0.0;0.0;0.0;0.0;0.0;0.0
2.0;1753874606.3897;20.480469;0.98;-1.61;-0.28;0.44835;-0.912682;-0.011834;0.0;0.0;0.0;0.0;0.0;0.0
2.0;1753874606.390695;20.480469;0.84;-1.68;-0.28;0.44469;-0.914878;-0.011956;0.0;0.0;0.0;0.0;0.0;0.0
2.0;1753874606.394905;20.480469;0.84;-1.75;-0.28;0.447618;-0.914634;-0.010126;0.0;0.0;0.0;0.0;0.0;0.0
2.0;1753874606.39918;20.480469;0.84;-1.75;-0.35;0.444812;-0.914878;-0.010736;0.0;0.0;0.0;0.0;0.0;0.0
2.0;1753874606.403678;20.480469;0.91;-1.75;-0.28;0.448228;-0.914756;-0.012444;0.0;0.0;0.0;0.0;0.0;0.0
2.0;1753874606.41179;20.480469;0.98;-1.68;-0.35;0.447252;-0.914756;-0.011712;0.0;0.0;0.0;0.0;0.0;0.0
2.0;1753874606.417355;20.464844;0.84;-1.75;-0.28;0.446398;-0.917074;-0.012078;0.0;0.0;0.0;0.0;0.0;0.0
2.0;1753874606.422139;20.464844;0.7;-1.68;-0.28;0.446764;-0.913536;-0.011224;0.0;0.0;0.0;0.0;0.0;0.0
2.0;1753874606.426644;20.464844;0.77;-1.68;-0.35;0.44652;-0.915;-0.011468;0.0;0.0;0.0;0.0;0.0;0.0
2.0;1753874606.431112;20.464844;0.84;-1.68;-0.28;0.445666;-0.915;-0.01098;0.0;0.0;0.0;0.0;0.0;0.0
2.0;1753874606.438315;20.519531;0.91;-1.75;-0.28;0.447496;-0.914146;-0.011102;0.0;0.0;0.0;0.0;0.0;0.0
2.0;1753874606.442079;20.519531;0.98;-1.82;-0.35;0.446764;-0.915488;-0.011834;0.0;0.0;0.0;0.0;0.0;0.0
2.0;1753874606.445692;20.519531;0.84;-1.68;-0.35;0.447862;-0.914268;-0.010614;0.0;0.0;0.0;0.0;0.0;0.0
2.0;1753874606.450414;20.519531;0.91;-1.68;-0.28;0.445422;-0.915244;-0.011224;0.0;0.0;0.0;0.0;0.0;0.0
2.0;1753874606.45415;20.488281;0.84;-1.75;-0.28;0.445788;-0.914878;-0.01159;0.0;0.0;0.0;0.0;0.0;0.0
2.0;1753874606.460608;20.488281;0.91;-1.68;-0.35;0.446032;-0.91378;-0.01037;0.0;0.0;0.0;0.0;0.0;0.0
2.0;1753874606.465266;20.488281;0.84;-1.68;-0.28;0.44713;-0.914756;-0.01159;0.0;0.0;0.0;0.0;0.0;0.0
2.0;1753874606.471022;20.488281;0.84;-1.75;-0.35;0.447252;-0.915976;-0.010858;0.0;0.0;0.0;0.0;0.0;0.0
2.0;1753874606.476887;20.449219;0.84;-1.75;-0.35;0.447374;-0.91439;-0.010736;0.0;0.0;0.0;0.0;0.0;0.0
2.0;1753874606.482174;20.449219;0.91;-1.61;-0.35;0.447496;-0.915244;-0.011224;0.0;0.0;0.0;0.0;0.0;0.0
2.0;1753874606.488795;20.449219;0.77;-1.75;-0.35;0.44652;-0.914634;-0.010614;0.0;0.0;0.0;0.0;0.0;0.0
2.0;1753874606.490538;20.480469;0.84;-1.75;-0.28;0.448106;-0.913414;-0.0122;0.0;0.0;0.0;0.0;0.0;0.0
2.0;1753874606.49516;20.480469;0.84;-1.75;-0.35;0.44591;-0.915488;-0.011346;0.0;0.0;0.0;0.0;0.0;0.0
2.0;1753874606.500275;20.480469;0.84;-1.68;-0.35;0.448228;-0.914512;-0.010004;0.0;0.0;0.0;0.0;0.0;0.0
2.0;1753874606.504301;20.480469;0.91;-1.75;-0.28;0.446276;-0.916342;-0.011468;0.0;0.0;0.0;0.0;0.0;0.0
2.0;1753874606.511364;20.480469;0.84;-1.61;-0.35;0.44835;-0.915;-0.011224;0.0;0.0;0.0;0.0;0.0;0.0
2.0;1753874606.517162;20.480469;0.84;-1.68;-0.28;0.446276;-0.914878;-0.012566;0.0;0.0;0.0;0.0;0.0;0.0
2.0;1753874606.521972;20.480469;0.84;-1.61;-0.28;0.44713;-0.915244;-0.01098;0.0;0.0;0.0;0.0;0.0;0.0
2.0;1753874606.522567;20.480469;0.84;-1.68;-0.28;0.44713;-0.915;-0.011834;0.0;0.0;0.0;0.0;0.0;0.0
2.0;1753874606.527153;20.503906;0.84;-1.82;-0.35;0.444202;-0.915976;-0.011224;0.0;0.0;0.0;0.0;0.0;0.0
2.0;1753874606.532208;20.448045;0.87;-1.78;-0.32;0.441983;-0.916871;-0.010713;0.0;0.0;0.0;0.0;0.0;0.0
2.0;1753874606.538029;20.503906;0.91;-1.75;-0.28;0.442738;-0.91744;-0.01159;0.0;0.0;0.0;0.0;0.0;0.0
2.0;1753874606.5409;20.503906;0.84;-1.68;-0.21;0.449204;-0.91256;-0.011224;0.0;0.0;0.0;0.0;0.0;0.0
2.0;1753874606.546296;20.511719;0.91;-1.75;-0.28;0.44408;-0.915976;-0.01037;0.0;0.0;0.0;0.0;0.0;0.0
2.0;1753874606.550926;20.511719;0.84;-1.54;-0.35;0.44835;-0.913658;-0.011102;0.0;0.0;0.0;0.0;0.0;0.0
2.0;1753874606.559469;20.511719;0.84;-1.75;-0.28;0.447496;-0.914512;-0.010492;0.0;0.0;0.0;0.0;0.0;0.0
2.0;1753874606.565334;20.488281;0.84;-1.75;-0.35;0.44774;-0.915122;-0.01098;0.0;0.0;0.0;0.0;0.0;0.0
2.0;1753874606.571314;20.488281;0.84;-1.75;-0.28;0.4453;-0.915488;-0.00976;0.0;0.0;0.0;0.0;0.0;0.0
2.0;1753874606.572881;20.488281;0.91;-1.68;-0.28;0.448716;-0.914146;-0.012078;0.0;0.0;0.0;0.0;0.0;0.0
2.0;1753874606.577959;20.488281;0.84;-1.68;-0.28;0.44286;-0.915244;-0.011102;0.0;0.0;0.0;0.0;0.0;0.0
2.0;1753874606.586298;20.511719;0.84;-1.68;-0.35;0.448106;-0.914512;-0.010004;0.0;0.0;0.0;0.0;0.0;0.0
2.0;1753874606.5866;20.511719;0.91;-1.75;-0.35;0.4453;-0.915244;-0.011224;0.0;0.0;0.0;0.0;0.0;0.0
2.0;1753874606.591712;20.511719;0.77;-1.68;-0.35;0.447008;-0.91561;-0.010004;0.0;0.0;0.0;0.0;0.0;0.0
2.0;1753874606.596059;20.511719;0.77;-1.75;-0.28;0.444812;-0.915732;-0.011224;0.0;0.0;0.0;0.0;0.0;0.0
2.0;1753874606.600485;20.503906;0.84;-1.68;-0.28;0.447008;-0.914878;-0.0122;0.0;0.0;0.0;0.0;0.0;0.0
2.0;1753874606.608569;20.503906;0.84;-1.75;-0.42;0.444446;-0.914512;-0.012566;0.0;0.0;0.0;0.0;0.0;0.0
2.0;1753874606.614406;20.503906;0.98;-1.75;-0.35;0.447008;-0.915;-0.010736;0.0;0.0;0.0;0.0;0.0;0.0
2.0;1753874606.620136;20.457031;0.84;-1.68;-0.35;0.444568;-0.915732;-0.011956;0.0;0.0;0.0;0.0;0.0;0.0
2.0;1753874606.623269;20.457031;0.84;-1.68;-0.28;0.448106;-0.913658;-0.011102;0.0;0.0;0.0;0.0;0.0;0.0
2.0;1753874606.62803;20.457031;0.84;-1.75;-0.28;0.445056;-0.916708;-0.01098;0.0;0.0;0.0;0.0;0.0;0.0
2.0;1753874606.635372;20.457031;0.91;-1.75;-0.35;0.448106;-0.915244;-0.011468;0.0;0.0;0.0;0.0;0.0;0.0
2.0;1753874606.636927;20.457031;0.91;-1.68;-0.28;0.44774;-0.91439;-0.010736;0.0;0.0;0.0;0.0;0.0;0.0
2.0;1753874606.642569;20.457031;0.84;-1.68;-0.35;0.446032;-0.914512;-0.011468;0.0;0.0;0.0;0.0;0.0;0.0
2.0;1753874606.646984;20.457031;0.91;-1.75;-0.28;0.449204;-0.913048;-0.012566;0.0;0.0;0.0;0.0;0.0;0.0
2.0;1753874606.650688;20.457031;0.84;-1.75;-0.28;0.445788;-0.91439;-0.011956;0.0;0.0;0.0;0.0;0.0;0.0
2.0;1753874606.657501;20.472656;0.84;-1.75;-0.35;0.447252;-0.913658;-0.011102;0.0;0.0;0.0;0.0;0.0;0.0
2.0;1753874606.662336;20.472656;0.91;-1.82;-0.35;0.448228;-0.914024;-0.011468;0.0;0.0;0.0;0.0;0.0;0.0
2.0;1753874606.668695;20.472656;0.91;-1.75;-0.35;0.44591;-0.916098;-0.01037;0.0;0.0;0.0;0.0;0.0;0.0
2.0;1753874606.669156;20.472656;0.84;-1.68;-0.35;0.449326;-0.91439;-0.011102;0.0;0.0;0.0;0.0;0.0;0.0
2.0;1753874606.673554;20.464844;0.84;-1.61;-0.28;0.44591;-0.916952;-0.011346;0.0;0.0;0.0;0.0;0.0;0.0
2.0;1753874606.67814;20.464844;0.98;-1.61;-0.28;0.447496;-0.914756;-0.011102;0.0;0.0;0.0;0.0;0.0;0.0
2.0;1753874606.685463;20.464844;0.84;-1.61;-0.21;0.445666;-0.915488;-0.011102;0.0;0.0;0.0;0.0;0.0;0.0
2.0;1753874606.687299;20.464844;0.77;-1.68;-0.35;0.446276;-0.915122;-0.011102;0.0;0.0;0.0;0.0;0.0;0.0
2.0;1753874606.692116;20.464844;0.84;-1.68;-0.35;0.44835;-0.914268;-0.012566;0.0;0.0;0.0;0.0;0.0;0.0
2.0;1753874606.696391;20.464844;0.84;-1.68;-0.28;0.445422;-0.915854;-0.010858;0.0;0.0;0.0;0.0;0.0;0.0
2.0;1753874606.705816;20.464844;0.84;-1.68;-0.28;0.446276;-0.915488;-0.012444;0.0;0.0;0.0;0.0;0.0;0.0
2.0;1753874606.711152;20.480469;0.91;-1.61;-0.28;0.447984;-0.914878;-0.01159;0.0;0.0;0.0;0.0;0.0;0.0
2.0;1753874606.71603;20.480469;0.91;-1.68;-0.28;0.447496;-0.913658;-0.01159;0.0;0.0;0.0;0.0;0.0;0.0
2.0;1753874606.719314;20.480469;0.84;-1.68;-0.21;0.446276;-0.914634;-0.011468;0.0;0.0;0.0;0.0;0.0;0.0
2.0;1753874606.724464;20.480469;0.91;-1.68;-0.35;0.446642;-0.915854;-0.010126;0.0;0.0;0.0;0.0;0.0;0.0
2.0;1753874606.729475;20.441406;0.77;-1.75;-0.28;0.446154;-0.914268;-0.010614;0.0;0.0;0.0;0.0;0.0;0.0
2.0;1753874606.73506;20.441406;0.91;-1.61;-0.28;0.446886;-0.916342;-0.01098;0.0;0.0;0.0;0.0;0.0;0.0
2.0;1753874606.737815;20.441406;0.91;-1.54;-0.28;0.449204;-0.914512;-0.010126;0.0;0.0;0.0;0.0;0.0;0.0
2.0;1753874606.742183;20.441406;0.98;-1.68;-0.28;0.444568;-0.915122;-0.01159;0.0;0.0;0.0;0.0;0.0;0.0
2.0;1753874606.74675;20.464844;0.91;-1.75;-0.28;0.449204;-0.914268;-0.012078;0.0;0.0;0.0;0.0;0.0;0.0
2.0;1753874606.754848;20.464844;0.91;-1.75;-0.35;0.44469;-0.916342;-0.010248;0.0;0.0;0.0;0.0;0.0;0.0
2.0;1753874606.76061;20.464844;0.84;-1.68;-0.35;0.445056;-0.914756;-0.01037;0.0;0.0;0.0;0.0;0.0;0.0
2.0;1753874606.766657;20.457031;0.98;-1.75;-0.35;0.446276;-0.916098;-0.010248;0.0;0.0;0.0;0.0;0.0;0.0
2.0;1753874606.769603;20.457031;0.77;-1.75;-0.28;0.448472;-0.914756;-0.011224;0.0;0.0;0.0;0.0;0.0;0.0
2.0;1753874606.774203;20.457031;0.91;-1.75;-0.42;0.44347;-0.91561;-0.01037;0.0;0.0;0.0;0.0;0.0;0.0
2.0;1753874606.783517;20.449219;0.98;-1.61;-0.21;0.442738;-0.915122;-0.010614;0.0;0.0;0.0;0.0;0.0;0.0
2.0;1753874606.787928;20.449219;0.98;-1.68;-0.35;0.449448;-0.914268;-0.011346;0.0;0.0;0.0;0.0;0.0;0.0
2.0;1753874606.792594;20.449219;0.91;-1.75;-0.28;0.447008;-0.915366;-0.01098;0.0;0.0;0.0;0.0;0.0;0.0
2.0;1753874606.797056;20.449219;0.91;-1.75;-0.28;0.444812;-0.91561;-0.010004;0.0;0.0;0.0;0.0;0.0;0.0
2.0;1753874606.802111;20.44452;0.8;-1.67;-0.29;0.44346;-0.913581;-0.010844;0.0;0.0;0.0;0.0;0.0;0.0
2.0;1753874606.807456;20.480469;0.84;-1.61;-0.28;0.443836;-0.915488;-0.01098;0.0;0.0;0.0;0.0;0.0;0.0
2.0;1753874606.812294;20.480469;0.91;-1.54;-0.28;0.449204;-0.91439;-0.011346;0.0;0.0;0.0;0.0;0.0;0.0
2.0;1753874606.818696;20.480469;0.91;-1.68;-0.35;0.445544;-0.915732;-0.01159;0.0;0.0;0.0;0.0;0.0;0.0
2.0;1753874606.820081;20.457031;0.91;-1.68;-0.28;0.44713;-0.91378;-0.010126;0.0;0.0;0.0;0.0;0.0;0.0
2.0;1753874606.825129;20.457031;0.91;-1.68;-0.28;0.444934;-0.915366;-0.011468;0.0;0.0;0.0;0.0;0.0;0.0
2.0;1753874606.832615;20.457031;1.05;-1.75;-0.28;0.448472;-0.914146;-0.01159;0.0;0.0;0.0;0.0;0.0;0.0
2.0;1753874606.833621;20.457031;0.98;-1.75;-0.28;0.447008;-0.91622;-0.011102;0.0;0.0;0.0;0.0;0.0;0.0
2.0;1753874606.838242;20.503906;0.98;-1.68;-0.35;0.447374;-0.915122;-0.011956;0.0;0.0;0.0;0.0;0.0;0.0
2.0;1753874606.842717;20.503906;0.91;-1.68;-0.35;0.447374;-0.915122;-0.011956;0.0;0.0;0.0;0.0;0.0;0.0
2.0;1753874606.847481;20.503906;0.77;-1.68;-0.28;0.446398;-0.915122;-0.010004;0.0;0.0;0.0;0.0;0.0;0.0
2.0;1753874606.854636;20.503906;0.84;-1.68;-0.28;0.448472;-0.914756;-0.012444;0.0;0.0;0.0;0.0;0.0;0.0
2.0;1753874606.860975;20.472656;0.84;-1.68;-0.28;0.445178;-0.915244;-0.011468;0.0;0.0;0.0;0.0;0.0;0.0
2.0;1753874606.865774;20.472656;0.91;-1.61;-0.28;0.44469;-0.915488;-0.011834;0.0;0.0;0.0;0.0;0.0;0.0
2.0;1753874606.870266;20.472656;0.91;-1.68;-0.35;0.44774;-0.914512;-0.010492;0.0;0.0;0.0;0.0;0.0;0.0
2.0;1753874606.874848;20.472656;0.98;-1.68;-0.28;0.446154;-0.914878;-0.01281;0.0;0.0;0.0;0.0;0.0;0.0
2.0;1753874606.882116;20.472656;0.98;-1.68;-0.28;0.447374;-0.91561;-0.0122;0.0;0.0;0.0;0.0;0.0;0.0
2.0;1753874606.883962;20.472656;0.91;-1.75;-0.28;0.447618;-0.914756;-0.010248;0.0;0.0;0.0;0.0;0.0;0.0
2.0;1753874606.88856;20.472656;0.91;-1.61;-0.28;0.446032;-0.915854;-0.0122;0.0;0.0;0.0;0.0;0.0;0.0
2.0;1753874606.893604;20.449219;0.98;-1.68;-0.35;0.447496;-0.915;-0.0122;0.0;0.0;0.0;0.0;0.0;0.0
2.0;1753874606.90277;20.449219;0.91;-1.61;-0.35;0.448838;-0.913536;-0.01159;0.0;0.0;0.0;0.0;0.0;0.0
2.0;1753874606.907713;20.449219;0.84;-1.68;-0.28;0.444202;-0.915976;-0.012566;0.0;0.0;0.0;0.0;0.0;0.0
2.0;1753874606.914366;20.457031;0.91;-1.75;-0.42;0.448594;-0.913902;-0.010248;0.0;0.0;0.0;0.0;0.0;0.0
2.0;1753874606.915958;20.457031;0.91;-1.75;-0.42;0.446154;-0.914634;-0.010614;0.0;0.0;0.0;0.0;0.0;0.0
2.0;1753874606.920583;20.457031;0.91;-1.68;-0.35;0.447862;-0.914024;-0.011102;0.0;0.0;0.0;0.0;0.0;0.0
2.0;1753874606.925154;20.457031;0.84;-1.68;-0.28;0.44652;-0.914512;-0.011224;0.0;0.0;0.0;0.0;0.0;0.0
2.0;1753874606.931749;20.464844;0.84;-1.68;-0.28;0.44713;-0.913536;-0.011346;0.0;0.0;0.0;0.0;0.0;0.0
2.0;1753874606.934267;20.464844;0.98;-1.68;-0.28;0.446154;-0.915732;-0.009882;0.0;0.0;0.0;0.0;0.0;0.0
2.0;1753874606.939822;20.464844;0.84;-1.68;-0.28;0.44652;-0.913902;-0.012444;0.0;0.0;0.0;0.0;0.0;0.0
2.0;1753874606.943436;20.464844;0.91;-1.75;-0.28;0.448838;-0.913414;-0.010736;0.0;0.0;0.0;0.0;0.0;0.0
2.0;1753874606.948491;20.478206;0.84;-1.71;-0.33;0.450316;-0.913602;-0.010309;0.0;0.0;0.0;0.0;0.0;0.0
2.0;1753874606.953581;20.496094;0.91;-1.68;-0.28;0.449204;-0.912804;-0.012444;0.0;0.0;0.0;0.0;0.0;0.0
2.0;1753874606.959441;20.496094;0.91;-1.68;-0.35;0.444446;-0.916342;-0.012078;0.0;0.0;0.0;0.0;0.0;0.0
2.0;1753874606.964319;20.496094;0.84;-1.68;-0.28;0.448716;-0.914024;-0.012444;0.0;0.0;0.0;0.0;0.0;0.0
2.0;1753874606.966527;20.449219;0.98;-1.68;-0.35;0.447252;-0.91439;-0.011346;0.0;0.0;0.0;0.0;0.0;0.0
2.0;1753874606.970916;20.449219;0.84;-1.68;-0.28;0.446886;-0.915854;-0.011224;0.0;0.0;0.0;0.0;0.0;0.0
2.0;1753874606.979432;20.449219;0.91;-1.82;-0.28;0.44835;-0.913658;-0.010248;0.0;0.0;0.0;0.0;0.0;0.0
2.0;1753874606.979999;20.449219;0.91;-1.68;-0.35;0.4453;-0.915488;-0.01159;0.0;0.0;0.0;0.0;0.0;0.0
2.0;1753874606.984745;20.496094;0.91;-1.68;-0.28;0.44774;-0.914024;-0.01098;0.0;0.0;0.0;0.0;0.0;0.0
2.0;1753874606.990084;20.496094;0.91;-1.61;-0.28;0.446886;-0.915366;-0.011712;0.0;0.0;0.0;0.0;0.0;0.0
2.0;1753874606.993661;20.496094;0.91;-1.68;-0.28;0.446886;-0.915366;-0.011712;0.0;0.0;0.0;0.0;0.0;0.0
2.0;1753874606.998716;20.528454;0.92;-1.65;-0.29;0.445645;-0.915324;-0.011737;0.0;0.0;0.0;0.0;0.0;0.0
2.0;1753874607.003771;20.456058;0.92;-1.61;-0.37;0.447928;-0.915516;-0.011861;0.0;0.0;0.0;0.0;0.0;0.0
2.0;1753874607.008826;20.53381;0.9;-1.62;-0.25;0.446782;-0.915734;-0.01213;0.0;0.0;0.0;0.0;0.0;0.0
2.0;1753874607.013881;20.49162;0.86;-1.65;-0.32;0.446638;-0.914519;-0.011699;0.0;0.0;0.0;0.0;0.0;0.0
2.0;1753874607.018936;20.506298;0.9;-1.66;-0.25;0.445172;-0.914261;-0.012226;0.0;0.0;0.0;0.0;0.0;0.0
2.0;1753874607.023991;20.510426;0.91;-1.69;-0.25;0.445488;-0.914343;-0.010669;0.0;0.0;0.0;0.0;0.0;0.0
2.0;1753874607.029046;20.504726;0.92;-1.75;-0.23;0.447476;-0.913241;-0.012585;0.0;0.0;0.0;0.0;0.0;0.0
2.0;1753874607.0341;20.443665;0.93;-1.66;-0.37;0.44781;-0.913979;-0.01211;0.0;0.0;0.0;0.0;0.0;0.0
2.0;1753874607.039156;20.504772;0.97;-1.63;-0.31;0.44355;-0.915346;-0.011947;0.0;0.0;0.0;0.0;0.0;0.0
2.0;1753874607.04421;20.479363;0.95;-1.69;-0.2;0.444186;-0.914167;-0.013151;0.0;0.0;0.0;0.0;0.0;0.0
2.0;1753874607.049266;20.482426;0.93;-1.75;-0.28;0.448139;-0.91686;-0.011982;0.0;0.0;0.0;0.0;0.0;0.0
2.0;1753874607.05432;20.478305;0.9;-1.72;-0.32;0.443589;-0.914219;-0.011363;0.0;0.0;0.0;0.0;0.0;0.0
2.0;1753874607.059375;20.516645;0.92;-1.69;-0.29;0.445836;-0.916254;-0.01122;0.0;0.0;0.0;0.0;0.0;0.0
2.0;1753874607.06443;20.490254;0.93;-1.76;-0.26;0.445414;-0.916388;-0.011516;0.0;0.0;0.0;0.0;0.0;0.0
2.0;1753874607.069485;20.488953;0.9;-1.73;-0.32;0.447032;-0.91681;-0.011746;0.0;0.0;0.0;0.0;0.0;0.0
2.0;1753874607.07454;20.521951;0.98;-1.72;-0.28;0.447881;-0.916755;-0.013227;0.0;0.0;0.0;0.0;0.0;0.0
2.0;1753874607.079595;20.495071;0.97;-1.69;-0.29;0.447752;-0.917496;-0.012373;0.0;0.0;0.0;0.0;0.0;0.0
2.0;1753874607.08465;20.479879;0.96;-1.79;-0.31;0.446684;-0.916442;-0.010204;0.0;0.0;0.0;0.0;0.0;0.0
2.0;1753874607.089705;20.521324;0.93;-1.8;-0.25;0.44703;-0.912958;-0.011584;0.0;0.0;0.0;0.0;0.0;0.0
2.0;1753874607.09476;20.494252;0.93;-1.75;-0.31;0.444464;-0.916717;-0.012885;0.0;0.0;0.0;0.0;0.0;0.0
2.0;1753874607.099815;20.52245;0.92;-1.7;-0.27;0.445658;-0.914084;-0.012594;0.0;0.0;0.0;0.0;0.0;0.0
2.0;1753874607.10487;20.499762;0.97;-1.72;-0.33;0.447196;-0.915444;-0.01182;0.0;0.0;0.0;0.0;0.0;0.0
2.0;1753874607.109925;20.479803;0.98;-1.84;-0.21;0.448047;-0.915493;-0.010608;0.0;0.0;0.0;0.0;0.0;0.0
2.0;1753874607.11498;20.508146;0.89;-1.65;-0.2;0.445876;-0.913786;-0.012039;0.0;0.0;0.0;0.0;0.0;0.0
2.0;1753874607.120035;20.484558;1.01;-1.7;-0.32;0.448557;-0.914844;-0.009869;0.0;0.0;0.0;0.0;0.0;0.0
2.0;1753874607.12509;20.511707;0.92;-1.69;-0.25;0.44668;-0.915412;-0.011716;0.0;0.0;0.0;0.0;0.0;0.0
2.0;1753874607.130144;20.553337;0.94;-1.71;-0.3;0.447454;-0.914219;-0.011718;0.0;0.0;0.0;0.0;0.0;0.0
2.0;1753874607.1352;20.472091;0.89;-1.76;-0.3;0.4452;-0.91381;-0.011405;0.0;0.0;0.0;0.0;0.0;0.0
2.0;1753874607.140254;20.483579;0.93;-1.68;-0.27;0.444193;-0.9133;-0.010415;0.0;0.0;0.0;0.0;0.0;0.0
2.0;1753874607.14531;20.499451;0.9;-1.76;-0.33;0.446657;-0.916272;-0.011777;0.0;0.0;0.0;0.0;0.0;0.0
2.0;1753874607.150364;20.47973;0.97;-1.71;-0.36;0.448266;-0.914238;-0.012453;0.0;0.0;0.0;0.0;0.0;0.0
2.0;1753874607.155419;20.465918;0.89;-1.73;-0.33;0.447159;-0.915459;-0.011013;0.0;0.0;0.0;0.0;0.0;0.0
2.0;1753874607.160474;20.485562;0.91;-1.78;-0.34;0.445416;-0.916425;-0.011095;0.0;0.0;0.0;0.0;0.0;0.0
2.0;1753874607.165529;20.495739;0.84;-1.75;-0.29;0.448331;-0.914589;-0.013191;0.0;0.0;0.0;0.0;0.0;0.0
2.0;1753874607.170584;20.500856;0.95;-1.7;-0.4;0.447553;-0.916032;-0.010872;0.0;0.0;0.0;0.0;0.0;0.0
2.0;1753874607.175639;20.478081;0.93;-1.78;-0.34;0.445448;-0.914481;-0.0108;0.0;0.0;0.0;0.0;0.0;0.0
2.0;1753874607.180694;20.507163;0.88;-1.73;-0.24;0.44785;-0.916219;-0.011679;0.0;0.0;0.0;0.0;0.0;0.0
2.0;1753874607.185749;20.506541;0.92;-1.78;-0.25;0.444559;-0.914815;-0.010516;0.0;0.0;0.0;0.0;0.0;0.0
2.0;1753874607.190804;20.534454;1.0;-1.73;-0.28;0.44684;-0.91743;-0.010875;0.0;0.0;0.0;0.0;0.0;0.0
2.0;1753874607.1962;20.496094;0.91;-1.75;-0.28;0.446398;-0.915244;-0.011102;0.0;0.0;0.0;0.0;0.0;0.0
2.0;1753874607.201255;20.516712;0.88;-1.76;-0.26;0.44669;-0.914955;-0.011788;0.0;0.0;0.0;0.0;0.0;0.0
2.0;1753874607.20631;20.485087;0.84;-1.8;-0.25;0.445303;-0.915142;-0.010049;0.0;0.0;0.0;0.0;0.0;0.0
2.0;1753874607.211365;20.469057;0.92;-1.87;-0.3;0.445267;-0.915061;-0.013357;0.0;0.0;0.0;0.0;0.0;0.0
2.0;1753874607.21642;20.510852;0.94;-1.71;-0.31;0.446397;-0.914836;-0.011584;0.0;0.0;0.0;0.0;0.0;0.0
2.0;1753874607.221475;20.495613;0.89;-1.75;-0.32;0.44788;-0.914922;-0.01182;0.0;0.0;0.0;0.0;0.0;0.0
2.0;1753874607.22653;20.515592;0.91;-1.69;-0.28;0.446957;-0.915364;-0.01185;0.0;0.0;0.0;0.0;0.0;0.0
2.0;1753874607.231584;20.486212;0.96;-1.77;-0.23;0.445445;-0.915564;-0.011394;0.0;0.0;0.0;0.0;0.0;0.0
2.0;1753874607.23664;20.517669;0.91;-1.76;-0.26;0.446551;-0.914728;-0.010093;0.0;0.0;0.0;0.0;0.0;0.0
2.0;1753874607.241694;20.463322;0.91;-1.78;-0.32;0.446016;-0.915585;-0.011571;0.0;0.0;0.0;0.0;0.0;0.0
2.0;1753874607.24675;20.471165;0.91;-1.68;-0.25;0.447757;-0.914463;-0.011056;0.0;0.0;0.0;0.0;0.0;0.0
2.0;1753874607.251804;20.53375;0.94;-1.82;-0.28;0.446742;-0.914185;-0.010037;0.0;0.0;0.0;0.0;0.0;0.0
2.0;1753874607.256859;20.476137;0.93;-1.84;-0.29;0.445632;-0.913634;-0.010382;0.0;0.0;0.0;0.0;0.0;0.0
2.0;1753874607.261914;20.478321;0.93;-1.81;-0.25;0.444518;-0.913583;-0.011536;0.0;0.0;0.0;0.0;0.0;0.0
2.0;1753874607.266969;20.50738;0.93;-1.79;-0.3;0.445817;-0.915315;-0.010974;0.0;0.0;0.0;0.0;0.0;0.0
2.0;1753874607.272024;20.487698;0.92;-1.78;-0.25;0.446273;-0.915517;-0.010969;0.0;0.0;0.0;0.0;0.0;0.0
2.0;1753874607.277079;20.470967;0.95;-1.71;-0.28;0.445676;-0.91433;-0.011107;0.0;0.0;0.0;0.0;0.0;0.0
2.0;1753874607.282134;20.537188;0.94;-1.79;-0.28;0.445053;-0.914491;-0.010263;0.0;0.0;0.0;0.0;0.0;0.0
2.0;1753874607.287189;20.504732;0.93;-1.66;-0.17;0.4478;-0.916282;-0.009987;0.0;0.0;0.0;0.0;0.0;0.0
2.0;1753874607.292244;20.456796;0.82;-1.76;-0.2;0.446789;-0.915728;-0.012217;0.0;0.0;0.0;0.0;0.0;0.0
2.0;1753874607.297299;20.513866;0.93;-1.79;-0.33;0.447283;-0.915276;-0.011461;0.0;0.0;0.0;0.0;0.0;0.0
2.0;1753874607.302354;20.511437;0.98;-1.76;-0.26;0.445333;-0.914309;-0.010805;0.0;0.0;0.0;0.0;0.0;0.0
2.0;1753874607.307409;20.485807;0.93;-1.73;-0.26;0.447474;-0.916337;-0.011749;0.0;0.0;0.0;0.0;0.0;0.0
2.0;1753874607.312464;20.472102;0.93;-1.7;-0.22;0.447077;-0.914502;-0.012773;0.0;0.0;0.0;0.0;0.0;0.0
2.0;1753874607.317519;20.488523;0.93;-1.76;-0.25;0.4472;-0.914812;-0.008956;0.0;0.0;0.0;0.0;0.0;0.0
2.0;1753874607.322574;20.531344;0.89;-1.76;-0.28;0.446396;-0.915295;-0.011529;0.0;0.0;0.0;0.0;0.0;0.0
2.0;1753874607.327628;20.49159;0.97;-1.66;-0.31;0.448259;-0.914934;-0.01008;0.0;0.0;0.0;0.0;0.0;0.0
2.0;1753874607.332684;20.485551;0.91;-1.75;-0.29;0.445558;-0.916276;-0.011483;0.0;0.0;0.0;0.0;0.0;0.0
2.0;1753874607.337738;20.446264;0.96;-1.74;-0.37;0.445594;-0.916671;-0.010526;0.0;0.0;0.0;0.0;0.0;0.0
2.0;1753874607.342794;20.501798;0.81;-1.77;-0.27;0.448069;-0.914944;-0.010594;0.0;0.0;0.0;0.0;0.0;0.0
2.0;1753874607.347848;20.503196;0.88;-1.81;-0.3;0.447443;-0.914291;-0.010384;0.0;0.0;0.0;0.0;0.0;0.0
2.0;1753874607.352903;20.512528;0.94;-1.75;-0.33;0.448755;-0.914738;-0.010481;0.0;0.0;0.0;0.0;0.0;0.0
2.0;1753874607.357958;20.484269;0.91;-1.77;-0.29;0.446717;-0.914679;-0.010176;0.0;0.0;0.0;0.0;0.0;0.0
2.0;1753874607.363013;20.513698;0.96;-1.75;-0.28;0.445167;-0.912896;-0.011915;0.0;0.0;0.0;0.0;0.0;0.0
2.0;1753874607.368068;20.52078;0.94;-1.71;-0.24;0.448803;-0.913831;-0.011385;0.0;0.0;0.0;0.0;0.0;0.0
2.0;1753874607.373123;20.476078;0.93;-1.7;-0.24;0.446607;-0.91525;-0.011034;0.0;0.0;0.0;0.0;0.0;0.0
2.0;1753874607.378178;20.519757;0.95;-1.82;-0.3;0.446615;-0.913959;-0.011447;0.0;0.0;0.0;0.0;0.0;0.0
2.0;1753874607.383233;20.481896;0.96;-1.73;-0.28;0.446732;-0.915298;-0.010122;0.0;0.0;0.0;0.0;0.0;0.0
2.0;1753874607.388288;20.500206;0.91;-1.71;-0.24;0.445247;-0.914787;-0.011866;0.0;0.0;0.0;0.0;0.0;0.0
2.0;1753874607.393343;20.500878;0.97;-1.73;-0.36;0.446839;-0.915456;-0.010841;0.0;0.0;0.0;0.0;0.0;0.0
2.0;1753874607.398398;20.532337;0.88;-1.73;-0.27;0.446695;-0.914148;-0.01079;0.0;0.0;0.0;0.0;0.0;0.0
2.0;1753874607.403453;20.46347;0.98;-1.79;-0.3;0.44707;-0.914902;-0.010469;0.0;0.0;0.0;0.0;0.0;0.0
2.0;1753874607.408508;20.532045;0.97;-1.76;-0.25;0.446613;-0.915378;-0.011015;0.0;0.0;0.0;0.0;0.0;0.0
2.0;1753874607.413563;20.504593;0.9;-1.85;-0.22;0.448483;-0.914666;-0.012316;0.0;0.0;0.0;0.0;0.0;0.0
2.0;1753874607.418618;20.489298;0.99;-1.71;-0.25;0.445342;-0.914208;-0.009856;0.0;0.0;0.0;0.0;0.0;0.0
2.0;1753874607.423673;20.507706;0.95;-1.83;-0.32;0.444045;-0.915815;-0.011222;0.0;0.0;0.0;0.0;0.0;0.0
2.0;1753874607.428728;20.503243;0.93;-1.75;-0.31;0.448013;-0.916359;-0.01147;0.0;0.0;0.0;0.0;0.0;0.0
2.0;1753874607.433782;20.48553;0.92;-1.69;-0.35;0.446561;-0.914633;-0.010467;0.0;0.0;0.0;0.0;0.0;0.0
2.0;1753874607.438838;20.511002;0.98;-1.85;-0.28;0.450059;-0.914582;-0.009894;0.0;0.0;0.0;0.0;0.0;0.0
2.0;1753874607.443892;20.509331;0.99;-1.68;-0.26;0.446912;-0.913231;-0.01128;0.0;0.0;0.0;0.0;0.0;0.0
2.0;1753874607.448948;20.520892;0.98;-1.69;-0.33;0.44906;-0.916123;-0.012796;0.0;0.0;0.0;0.0;0.0;0.0
2.0;1753874607.454002;20.529346;0.81;-1.72;-0.3;0.446194;-0.915093;-0.010407;0.0;0.0;0.0;0.0;0.0;0.0
2.0;1753874607.459057;20.509307;0.93;-1.77;-0.27;0.445526;-0.915536;-0.01102;0.0;0.0;0.0;0.0;0.0;0.0
2.0;1753874607.464112;20.541955;0.95;-1.73;-0.33;0.44506;-0.914971;-0.010274;0.0;0.0;0.0;0.0;0.0;0.0
2.0;1753874607.469167;20.507227;0.97;-1.73;-0.26;0.445616;-0.915456;-0.010835;0.0;0.0;0.0;0.0;0.0;0.0
2.0;1753874607.474222;20.528531;0.95;-1.71;-0.16;0.445536;-0.913821;-0.00984;0.0;0.0;0.0;0.0;0.0;0.0
2.0;1753874607.479277;20.4665;0.86;-1.76;-0.31;0.446579;-0.915261;-0.010139;0.0;0.0;0.0;0.0;0.0;0.0
2.0;1753874607.484332;20.496864;1.0;-1.72;-0.3;0.446652;-0.914139;-0.012781;0.0;0.0;0.0;0.0;0.0;0.0
2.0;1753874607.489387;20.524298;0.95;-1.77;-0.22;0.445917;-0.914296;-0.011624;0.0;0.0;0.0;0.0;0.0;0.0
2.0;1753874607.494442;20.497948;0.87;-1.74;-0.21;0.445775;-0.916752;-0.010475;0.0;0.0;0.0;0.0;0.0;0.0
2.0;1753874607.499497;20.524941;0.95;-1.72;-0.32;0.445991;-0.914689;-0.011011;0.0;0.0;0.0;0.0;0.0;0.0
2.0;1753874607.504552;20.499364;0.91;-1.75;-0.32;0.446792;-0.914682;-0.009999;0.0;0.0;0.0;0.0;0.0;0.0
2.0;1753874607.509607;20.479061;0.89;-1.76;-0.23;0.448832;-0.913955;-0.011493;0.0;0.0;0.0;0.0;0.0;0.0
2.0;1753874607.514662;20.520768;0.92;-1.73;-0.36;0.447733;-0.91412;-0.01042;0.0;0.0;0.0;0.0;0.0;0.0
2.0;1753874607.519717;20.519517;0.93;-1.81;-0.25;0.445625;-0.915183;-0.01045;0.0;0.0;0.0;0.0;0.0;0.0
2.0;1753874607.524772;20.511183;0.99;-1.79;-0.22;0.445706;-0.915018;-0.010497;0.0;0.0;0.0;0.0;0.0;0.0
2.0;1753874607.529827;20.476436;0.95;-1.69;-0.26;0.448184;-0.914476;-0.012084;0.0;0.0;0.0;0.0;0.0;0.0
2.0;1753874607.534882;20.522454;0.93;-1.67;-0.42;0.445253;-0.913832;-0.010982;0.0;0.0;0.0;0.0;0.0;0.0
2.0;1753874607.539936;20.475651;0.97;-1.78;-0.38;0.450668;-0.915317;-0.010525;0.0;0.0;0.0;0.0;0.0;0.0
2.0;1753874607.544992;20.504975;0.92;-1.73;-0.26;0.44703;-0.914957;-0.011725;0.0;0.0;0.0;0.0;0.0;0.0
2.0;1753874607.550046;20.487571;0.99;-1.75;-0.18;0.442761;-0.914294;-0.012205;0.0;0.0;0.0;0.0;0.0;0.0
2.0;1753874607.555102;20.483432;0.91;-1.68;-0.23;0.444102;-0.913507;-0.01099;0.0;0.0;0.0;0.0;0.0;0.0
2.0;1753874607.560156;20.511169;1.0;-1.74;-0.2;0.447507;-0.916084;-0.01086;0.0;0.0;0.0;0.0;0.0;0.0
2.0;1753874607.565211;20.517513;0.96;-1.76;-0.26;0.445493;-0.914665;-0.010321;0.0;0.0;0.0;0.0;0.0;0.0
2.0;1753874607.570266;20.484643;1.04;-1.81;-0.28;0.44726;-0.913729;-0.010318;0.0;0.0;0.0;0.0;0.0;0.0
2.0;1753874607.575321;20.522225;0.93;-1.75;-0.26;0.445591;-0.912862;-0.010874;0.0;0.0;0.0;0.0;0.0;0.0
2.0;1753874607.580376;20.516866;0.91;-1.72;-0.25;0.447165;-0.913326;-0.011267;0.0;0.0;0.0;0.0;0.0;0.0
2.0;1753874607.585431;20.51447;1.0;-1.76;-0.32;0.44783;-0.915268;-0.011408;0.0;0.0;0.0;0.0;0.0;0.0
2.0;1753874607.590486;20.469099;1.03;-1.77;-0.31;0.446397;-0.912686;-0.0116;0.0;0.0;0.0;0.0;0.0;0.0
2.0;1753874607.595541;20.48374;0.97;-1.74;-0.29;0.446794;-0.913723;-0.008815;0.0;0.0;0.0;0.0;0.0;0.0
2.0;1753874607.600596;20.521347;0.91;-1.69;-0.32;0.447886;-0.91561;-0.010112;0.0;0.0;0.0;0.0;0.0;0.0
2.0;1753874607.605651;20.48744;0.92;-1.77;-0.21;0.447444;-0.912005;-0.009672;0.0;0.0;0.0;0.0;0.0;0.0
2.0;1753874607.610706;20.466854;1.04;-1.77;-0.28;0.446525;-0.914192;-0.010075;0.0;0.0;0.0;0.0;0.0;0.0
2.0;1753874607.615761;20.494703;0.95;-1.76;-0.33;0.445052;-0.914266;-0.010013;0.0;0.0;0.0;0.0;0.0;0.0
2.0;1753874607.620816;20.47265;0.93;-1.78;-0.32;0.446505;-0.915207;-0.011192;0.0;0.0;0.0;0.0;0.0;0.0
2.0;1753874607.625871;20.492577;1.02;-1.75;-0.32;0.447421;-0.913283;-0.011033;0.0;0.0;0.0;0.0;0.0;0.0
2.0;1753874607.630926;20.518292;1.0;-1.79;-0.28;0.446267;-0.914784;-0.010157;0.0;0.0;0.0;0.0;0.0;0.0
2.0;1753874607.63598;20.492156;0.96;-1.7;-0.4;0.445291;-0.914635;-0.011008;0.0;0.0;0.0;0.0;0.0;0.0
2.0;1753874607.641036;20.49081;0.96;-1.78;-0.24;0.447641;-0.914078;-0.010899;0.0;0.0;0.0;0.0;0.0;0.0
2.0;1753874607.64609;20.479888;0.94;-1.75;-0.16;0.445744;-0.915268;-0.010978;0.0;0.0;0.0;0.0;0.0;0.0
2.0;1753874607.651146;20.519409;1.02;-1.7;-0.31;0.448005;-0.91518;-0.012406;0.0;0.0;0.0;0.0;0.0;0.0
2.0;1753874607.6562;20.495291;1.07;-1.74;-0.28;0.447533;-0.913658;-0.009449;0.0;0.0;0.0;0.0;0.0;0.0
2.0;1753874607.661255;20.511864;0.96;-1.73;-0.34;0.446944;-0.915258;-0.009801;0.0;0.0;0.0;0.0;0.0;0.0
2.0;1753874607.66631;20.470111;0.92;-1.69;-0.29;0.447374;-0.914122;-0.010598;0.0;0.0;0.0;0.0;0.0;0.0
2.0;1753874607.671365;20.514546;0.93;-1.7;-0.37;0.44648;-0.912993;-0.010012;0.0;0.0;0.0;0.0;0.0;0.0
2.0;1753874607.67642;20.473615;1.04;-1.77;-0.25;0.447066;-0.913911;-0.010791;0.0;0.0;0.0;0.0;0.0;0.0
2.0;1753874607.681475;20.492067;0.97;-1.75;-0.2;0.446174;-0.914973;-0.009531;0.0;0.0;0.0;0.0;0.0;0.0
2.0;1753874607.68653;20.502945;0.95;-1.71;-0.34;0.448116;-0.914123;-0.01079;0.0;0.0;0.0;0.0;0.0;0.0
2.0;1753874607.691585;20.502027;0.95;-1.75;-0.23;0.447372;-0.912539;-0.01027;0.0;0.0;0.0;0.0;0.0;0.0
2.0;1753874607.69664;20.490471;1.01;-1.74;-0.21;0.446554;-0.914405;-0.011634;0.0;0.0;0.0;0.0;0.0;0.0
2.0;1753874607.701695;20.483355;0.95;-1.75;-0.3;0.445286;-0.914563;-0.011224;0.0;0.0;0.0;0.0;0.0;0.0
2.0;1753874607.70675;20.484171;0.97;-1.72;-0.3;0.448266;-0.914861;-0.010507;0.0;0.0;0.0;0.0;0.0;0.0
2.0;1753874607.711805;20.480425;0.87;-1.76;-0.31;0.444476;-0.915756;-0.009222;0.0;0.0;0.0;0.0;0.0;0.0
2.0;1753874607.7195;20.503906;0.98;-1.75;-0.28;0.446764;-0.914146;-0.010492;0.0;0.0;0.0;0.0;0.0;0.0
2.0;1753874607.724555;20.506236;0.93;-1.66;-0.3;0.448018;-0.915792;-0.010335;0.0;0.0;0.0;0.0;0.0;0.0
2.0;1753874607.72961;20.467627;0.95;-1.67;-0.28;0.450842;-0.91386;-0.009407;0.0;0.0;0.0;0.0;0.0;0.0
2.0;1753874607.734665;20.470497;0.95;-1.68;-0.32;0.44562;-0.914734;-0.01329;0.0;0.0;0.0;0.0;0.0;0.0
2.0;1753874607.73972;20.476481;0.98;-1.72;-0.26;0.446684;-0.915958;-0.009042;0.0;0.0;0.0;0.0;0.0;0.0
2.0;1753874607.744775;20.469013;1.01;-1.68;-0.28;0.447686;-0.914411;-0.010418;0.0;0.0;0.0;0.0;0.0;0.0
2.0;1753874607.74983;20.51127;0.88;-1.67;-0.23;0.445233;-0.913752;-0.010069;0.0;0.0;0.0;0.0;0.0;0.0
2.0;1753874607.754885;20.462183;0.92;-1.69;-0.33;0.44722;-0.914617;-0.011075;0.0;0.0;0.0;0.0;0.0;0.0
2.0;1753874607.75994;20.484851;0.96;-1.64;-0.3;0.44845;-0.915761;-0.012402;0.0;0.0;0.0;0.0;0.0;0.0
2.0;1753874607.764994;20.467651;0.99;-1.74;-0.29;0.447636;-0.912833;-0.01011;0.0;0.0;0.0;0.0;0.0;0.0
2.0;1753874607.77005;20.455077;0.94;-1.53;-0.28;0.448041;-0.914855;-0.009171;0.0;0.0;0.0;0.0;0.0;0.0
2.0;1753874607.77887;20.464844;0.91;-1.61;-0.28;0.44835;-0.914756;-0.01098;0.0;0.0;0.0;0.0;0.0;0.0
2.0;1753874607.783925;20.478147;0.99;-1.57;-0.28;0.451009;-0.914397;-0.011184;0.0;0.0;0.0;0.0;0.0;0.0
2.0;1753874607.78898;20.48553;0.91;-1.61;-0.29;0.445967;-0.914528;-0.010872;0.0;0.0;0.0;0.0;0.0;0.0
2.0;1753874607.794035;20.478102;0.8;-1.65;-0.16;0.448302;-0.914861;-0.010051;0.0;0.0;0.0;0.0;0.0;0.0
2.0;1753874607.79909;20.464023;0.82;-1.7;-0.24;0.446008;-0.914434;-0.011858;0.0;0.0;0.0;0.0;0.0;0.0
2.0;1753874607.80666;20.464844;0.84;-1.68;-0.21;0.445666;-0.915;-0.011224;0.0;0.0;0.0;0.0;0.0;0.0
2.0;1753874607.811715;20.464794;0.82;-1.76;-0.26;0.446411;-0.914671;-0.011571;0.0;0.0;0.0;0.0;0.0;0.0
2.0;1753874607.81677;20.442433;0.87;-1.66;-0.17;0.447532;-0.915386;-0.010148;0.0;0.0;0.0;0.0;0.0;0.0
2.0;1753874607.821825;20.494197;0.79;-1.7;-0.23;0.443093;-0.914645;-0.010132;0.0;0.0;0.0;0.0;0.0;0.0
2.0;1753874607.82688;20.447745;0.82;-1.63;-0.17;0.446519;-0.914663;-0.011221;0.0;0.0;0.0;0.0;0.0;0.0
2.0;1753874607.831935;20.436688;0.83;-1.65;-0.28;0.445044;-0.914337;-0.010091;0.0;0.0;0.0;0.0;0.0;0.0
2.0;1753874607.83699;20.472659;0.88;-1.67;-0.24;0.448913;-0.914845;-0.012313;0.0;0.0;0.0;0.0;0.0;0.0
2.0;1753874607.842044;20.470105;0.92;-1.66;-0.25;0.446043;-0.914571;-0.011065;0.0;0.0;0.0;0.0;0.0;0.0
2.0;1753874607.8471;20.505214;0.86;-1.62;-0.31;0.446756;-0.915089;-0.011857;0.0;0.0;0.0;0.0;0.0;0.0
2.0;1753874607.85268;20.464844;0.84;-1.68;-0.28;0.446154;-0.914634;-0.011224;0.0;0.0;0.0;0.0;0.0;0.0
2.0;1753874607.857735;20.44905;0.85;-1.73;-0.21;0.444501;-0.915967;-0.011361;0.0;0.0;0.0;0.0;0.0;0.0
2.0;1753874607.86279;20.46306;0.78;-1.62;-0.29;0.445173;-0.914913;-0.011457;0.0;0.0;0.0;0.0;0.0;0.0
2.0;1753874607.867845;20.500769;0.71;-1.59;-0.31;0.448323;-0.914809;-0.01182;0.0;0.0;0.0;0.0;0.0;0.0
2.0;1753874607.8729;20.486322;0.75;-1.72;-0.32;0.446093;-0.914851;-0.0116;0.0;0.0;0.0;0.0;0.0;0.0
2.0;1753874607.877955;20.474253;0.77;-1.74;-0.17;0.447427;-0.917005;-0.011295;0.0;0.0;0.0;0.0;0.0;0.0
2.0;1753874607.88301;20.520592;0.81;-1.59;-0.34;0.448083;-0.915776;-0.011647;0.0;0.0;0.0;0.0;0.0;0.0
2.0;1753874607.888064;20.460718;0.75;-1.71;-0.3;0.447931;-0.91506;-0.010965;0.0;0.0;0.0;0.0;0.0;0.0
2.0;1753874607.89312;20.426683;0.88;-1.73;-0.3;0.446721;-0.91497;-0.011669;0.0;0.0;0.0;0.0;0.0;0.0
2.0;1753874607.898174;20.487038;0.84;-1.64;-0.39;0.447864;-0.916233;-0.010196;0.0;0.0;0.0;0.0;0.0;0.0
2.0;1753874607.90323;20.486898;0.89;-1.71;-0.38;0.447224;-0.917833;-0.012789;0.0;0.0;0.0;0.0;0.0;0.0
2.0;1753874607.90885;20.464844;0.84;-1.68;-0.35;0.44713;-0.916586;-0.011224;0.0;0.0;0.0;0.0;0.0;0.0
2.0;1753874607.912527;20.382812;0.91;-1.68;-0.35;0.447374;-0.915244;-0.010126;0.0;0.0;0.0;0.0;0.0;0.0
2.0;1753874607.913181;20.382812;0.91;-1.68;-0.35;0.448106;-0.915;-0.011346;0.0;0.0;0.0;0.0;0.0;0.0
2.0;1753874607.917759;20.417969;0.91;-1.61;-0.28;0.446398;-0.914146;-0.010492;0.0;0.0;0.0;0.0;0.0;0.0
2.0;1753874607.922346;20.417969;0.84;-1.61;-0.35;0.448228;-0.914756;-0.012444;0.0;0.0;0.0;0.0;0.0;0.0
2.0;1753874607.927886;20.417969;0.98;-1.75;-0.35;0.447252;-0.91439;-0.01037;0.0;0.0;0.0;0.0;0.0;0.0
2.0;1753874607.932414;20.417969;0.91;-1.61;-0.35;0.4453;-0.914878;-0.011468;0.0;0.0;0.0;0.0;0.0;0.0
2.0;1753874607.93678;20.402344;0.84;-1.68;-0.28;0.449692;-0.91378;-0.011102;0.0;0.0;0.0;0.0;0.0;0.0
2.0;1753874607.94116;20.402344;0.84;-1.68;-0.28;0.4453;-0.915244;-0.011346;0.0;0.0;0.0;0.0;0.0;0.0
2.0;1753874607.945212;20.402344;0.84;-1.68;-0.21;0.446642;-0.914146;-0.011956;0.0;0.0;0.0;0.0;0.0;0.0
2.0;1753874607.949785;20.402344;0.84;-1.75;-0.28;0.447374;-0.915488;-0.01159;0.0;0.0;0.0;0.0;0.0;0.0
2.0;1753874607.954359;20.398438;0.84;-1.75;-0.35;0.4453;-0.916098;-0.010492;0.0;0.0;0.0;0.0;0.0;0.0
2.0;1753874607.961604;20.398438;0.98;-1.68;-0.28;0.449692;-0.913292;-0.012078;0.0;0.0;0.0;0.0;0.0;0.0
2.0;1753874607.963502;20.398438;0.98;-1.68;-0.35;0.443226;-0.915976;-0.011834;0.0;0.0;0.0;0.0;0.0;0.0
2.0;1753874607.968083;20.398438;0.91;-1.61;-0.35;0.449936;-0.912804;-0.01159;0.0;0.0;0.0;0.0;0.0;0.0
2.0;1753874607.972607;20.40625;0.98;-1.61;-0.42;0.449936;-0.912804;-0.01159;0.0;0.0;0.0;0.0;0.0;0.0
2.0;1753874607.981133;20.40625;0.91;-1.68;-0.28;0.449082;-0.913414;-0.010858;0.0;0.0;0.0;0.0;0.0;0.0
2.0;1753874607.985505;20.40625;0.84;-1.68;-0.35;0.444568;-0.91622;-0.011712;0.0;0.0;0.0;0.0;0.0;0.0
2.0;1753874607.989896;20.40625;0.84;-1.61;-0.35;0.449448;-0.915;-0.01159;0.0;0.0;0.0;0.0;0.0;0.0
2.0;1753874607.990948;20.425781;0.84;-1.61;-0.28;0.447496;-0.915244;-0.012566;0.0;0.0;0.0;0.0;0.0;0.0
2.0;1753874607.995525;20.425781;0.91;-1.68;-0.28;0.448228;-0.914756;-0.010126;0.0;0.0;0.0;0.0;0.0;0.0
2.0;1753874608.00058;20.41463;0.83;-1.68;-0.31;0.448323;-0.915336;-0.009156;0.0;0.0;0.0;0.0;0.0;0.0
2.0;1753874608.005635;20.431646;1.01;-1.69;-0.24;0.447272;-0.915353;-0.009354;0.0;0.0;0.0;0.0;0.0;0.0
2.0;1753874608.01069;20.411644;0.92;-1.68;-0.22;0.449604;-0.915768;-0.01006;0.0;0.0;0.0;0.0;0.0;0.0
2.0;1753874608.015745;20.44131;0.89;-1.7;-0.39;0.449677;-0.913706;-0.01058;0.0;0.0;0.0;0.0;0.0;0.0
2.0;1753874608.0208;20.43703;0.89;-1.67;-0.31;0.449924;-0.914079;-0.010769;0.0;0.0;0.0;0.0;0.0;0.0
2.0;1753874608.025854;20.440491;0.84;-1.72;-0.23;0.443637;-0.914843;-0.010409;0.0;0.0;0.0;0.0;0.0;0.0
2.0;1753874608.03091;20.429343;0.89;-1.68;-0.22;0.450276;-0.916902;-0.009626;0.0;0.0;0.0;0.0;0.0;0.0
2.0;1753874608.035964;20.425277;0.85;-1.69;-0.34;0.448273;-0.915303;-0.01083;0.0;0.0;0.0;0.0;0.0;0.0
2.0;1753874608.04102;20.425945;0.91;-1.67;-0.28;0.448562;-0.915008;-0.010306;0.0;0.0;0.0;0.0;0.0;0.0
2.0;1753874608.046074;20.432882;0.91;-1.62;-0.37;0.447711;-0.914236;-0.010336;0.0;0.0;0.0;0.0;0.0;0.0
2.0;1753874608.051129;20.425894;0.95;-1.69;-0.26;0.446072;-0.9149;-0.00898;0.0;0.0;0.0;0.0;0.0;0.0
2.0;1753874608.056184;20.430293;0.9;-1.69;-0.25;0.446088;-0.915117;-0.010253;0.0;0.0;0.0;0.0;0.0;0.0
2.0;1753874608.061239;20.440552;0.94;-1.68;-0.28;0.452222;-0.914871;-0.009272;0.0;0.0;0.0;0.0;0.0;0.0
2.0;1753874608.066294;20.422267;0.98;-1.54;-0.21;0.447179;-0.913163;-0.00928;0.0;0.0;0.0;0.0;0.0;0.0
2.0;1753874608.071349;20.408975;0.92;-1.7;-0.31;0.446193;-0.916472;-0.009584;0.0;0.0;0.0;0.0;0.0;0.0
2.0;1753874608.076404;20.409361;1.02;-1.65;-0.33;0.446994;-0.91434;-0.00988;0.0;0.0;0.0;0.0;0.0;0.0
2.0;1753874608.081459;20.413708;0.93;-1.65;-0.3;0.449111;-0.914614;-0.010644;0.0;0.0;0.0;0.0;0.0;0.0
2.0;1753874608.086514;20.416873;0.87;-1.68;-0.28;0.448324;-0.916188;-0.009609;0.0;0.0;0.0;0.0;0.0;0.0
2.0;1753874608.091569;20.427042;0.9;-1.66;-0.36;0.45079;-0.914488;-0.010675;0.0;0.0;0.0;0.0;0.0;0.0
2.0;1753874608.096624;20.423173;0.9;-1.65;-0.26;0.448738;-0.914334;-0.008935;0.0;0.0;0.0;0.0;0.0;0.0
2.0;1753874608.101679;20.418943;0.91;-1.71;-0.27;0.449832;-0.914107;-0.009932;0.0;0.0;0.0;0.0;0.0;0.0
2.0;1753874608.106734;20.44505;0.92;-1.71;-0.28;0.450387;-0.915318;-0.010387;0.0;0.0;0.0;0.0;0.0;0.0
2.0;1753874608.111789;20.406221;0.81;-1.67;-0.3;0.446315;-0.915928;-0.01021;0.0;0.0;0.0;0.0;0.0;0.0
2.0;1753874608.116844;20.4203;0.86;-1.77;-0.28;0.449903;-0.915888;-0.010943;0.0;0.0;0.0;0.0;0.0;0.0
2.0;1753874608.121899;20.433582;0.78;-1.65;-0.34;0.448195;-0.916522;-0.010253;0.0;0.0;0.0;0.0;0.0;0.0
2.0;1753874608.126954;20.434089;0.95;-1.77;-0.27;0.448243;-0.914061;-0.009932;0.0;0.0;0.0;0.0;0.0;0.0
2.0;1753874608.132008;20.408571;0.91;-1.66;-0.37;0.444478;-0.914786;-0.010331;0.0;0.0;0.0;0.0;0.0;0.0
2.0;1753874608.137064;20.4162;0.88;-1.67;-0.18;0.443466;-0.913181;-0.011096;0.0;0.0;0.0;0.0;0.0;0.0
2.0;1753874608.142118;20.421952;0.86;-1.59;-0.22;0.44808;-0.915234;-0.011551;0.0;0.0;0.0;0.0;0.0;0.0
2.0;1753874608.147174;20.420163;0.93;-1.66;-0.2;0.448641;-0.914559;-0.011077;0.0;0.0;0.0;0.0;0.0;0.0
2.0;1753874608.152228;20.418492;0.9;-1.65;-0.29;0.443069;-0.916271;-0.01036;0.0;0.0;0.0;0.0;0.0;0.0
2.0;1753874608.157283;20.426043;1.01;-1.67;-0.28;0.446003;-0.914202;-0.010887;0.0;0.0;0.0;0.0;0.0;0.0
2.0;1753874608.162338;20.41583;0.93;-1.72;-0.24;0.449881;-0.914073;-0.009082;0.0;0.0;0.0;0.0;0.0;0.0
2.0;1753874608.167393;20.440613;1.03;-1.79;-0.28;0.442565;-0.916127;-0.011211;0.0;0.0;0.0;0.0;0.0;0.0
2.0;1753874608.172448;20.434984;0.9;-1.65;-0.23;0.446946;-0.916389;-0.010108;0.0;0.0;0.0;0.0;0.0;0.0
2.0;1753874608.177503;20.413631;0.89;-1.63;-0.28;0.445698;-0.914829;-0.010601;0.0;0.0;0.0;0.0;0.0;0.0
2.0;1753874608.182558;20.442695;0.92;-1.72;-0.22;0.450605;-0.915632;-0.009373;0.0;0.0;0.0;0.0;0.0;0.0
2.0;1753874608.187613;20.40452;0.94;-1.71;-0.35;0.448004;-0.914405;-0.009674;0.0;0.0;0.0;0.0;0.0;0.0
2.0;1753874608.192668;20.418204;1.0;-1.66;-0.25;0.449264;-0.914106;-0.0116;0.0;0.0;0.0;0.0;0.0;0.0
2.0;1753874608.197723;20.42891;1.01;-1.69;-0.29;0.447564;-0.914734;-0.010844;0.0;0.0;0.0;0.0;0.0;0.0
2.0;1753874608.202778;20.431476;0.93;-1.7;-0.28;0.446966;-0.913375;-0.009662;0.0;0.0;0.0;0.0;0.0;0.0
2.0;1753874608.207833;20.412918;0.96;-1.66;-0.3;0.450922;-0.914392;-0.00974;0.0;0.0;0.0;0.0;0.0;0.0
2.0;1753874608.212888;20.414615;0.99;-1.78;-0.37;0.448853;-0.91465;-0.010307;0.0;0.0;0.0;0.0;0.0;0.0
2.0;1753874608.217943;20.421716;0.98;-1.71;-0.16;0.448907;-0.914966;-0.009798;0.0;0.0;0.0;0.0;0.0;0.0
2.0;1753874608.222998;20.41661;0.85;-1.63;-0.36;0.450046;-0.913708;-0.010762;0.0;0.0;0.0;0.0;0.0;0.0
2.0;1753874608.228052;20.427715;1.0;-1.61;-0.3;0.451323;-0.91435;-0.009178;0.0;0.0;0.0;0.0;0.0;0.0
2.0;1753874608.233108;20.429242;0.92;-1.71;-0.3;0.447207;-0.914509;-0.010349;0.0;0.0;0.0;0.0;0.0;0.0
2.0;1753874608.238162;20.433281;0.93;-1.81;-0.34;0.449374;-0.915848;-0.011619;0.0;0.0;0.0;0.0;0.0;0.0
2.0;1753874608.243218;20.424417;0.92;-1.71;-0.3;0.448752;-0.916195;-0.01076;0.0;0.0;0.0;0.0;0.0;0.0
2.0;1753874608.248272;20.421412;0.91;-1.69;-0.26;0.448548;-0.916823;-0.009769;0.0;0.0;0.0;0.0;0.0;0.0
2.0;1753874608.253327;20.422033;1.02;-1.63;-0.28;0.448739;-0.915925;-0.00984;0.0;0.0;0.0;0.0;0.0;0.0
2.0;1753874608.258382;20.424141;0.9;-1.68;-0.26;0.446319;-0.915732;-0.010347;0.0;0.0;0.0;0.0;0.0;0.0
2.0;1753874608.263437;20.417819;0.97;-1.7;-0.33;0.450851;-0.916673;-0.009485;0.0;0.0;0.0;0.0;0.0;0.0
2.0;1753874608.268492;20.429679;0.93;-1.67;-0.27;0.449475;-0.917214;-0.010156;0.0;0.0;0.0;0.0;0.0;0.0
2.0;1753874608.273547;20.424398;0.92;-1.7;-0.22;0.445907;-0.913821;-0.011521;0.0;0.0;0.0;0.0;0.0;0.0
2.0;1753874608.278602;20.430955;0.93;-1.65;-0.28;0.449029;-0.914598;-0.010866;0.0;0.0;0.0;0.0;0.0;0.0
2.0;1753874608.283657;20.433767;0.95;-1.71;-0.33;0.446748;-0.914369;-0.009386;0.0;0.0;0.0;0.0;0.0;0.0
2.0;1753874608.288712;20.418268;0.91;-1.79;-0.23;0.44828;-0.913828;-0.011034;0.0;0.0;0.0;0.0;0.0;0.0
2.0;1753874608.293767;20.459161;0.87;-1.69;-0.29;0.451938;-0.91518;-0.011042;0.0;0.0;0.0;0.0;0.0;0.0
2.0;1753874608.298822;20.416211;0.85;-1.72;-0.3;0.445689;-0.913338;-0.009048;0.0;0.0;0.0;0.0;0.0;0.0
2.0;1753874608.303877;20.440202;0.89;-1.74;-0.18;0.447966;-0.914435;-0.010196;0.0;0.0;0.0;0.0;0.0;0.0
2.0;1753874608.308932;20.409821;0.89;-1.68;-0.32;0.449916;-0.916243;-0.010361;0.0;0.0;0.0;0.0;0.0;0.0
2.0;1753874608.313987;20.45627;0.94;-1.59;-0.27;0.445173;-0.916114;-0.010003;0.0;0.0;0.0;0.0;0.0;0.0
2.0;1753874608.319042;20.422511;1.01;-1.58;-0.31;0.449336;-0.916764;-0.009499;0.0;0.0;0.0;0.0;0.0;0.0
2.0;1753874608.324097;20.440305;0.94;-1.65;-0.3;0.444807;-0.914526;-0.010323;0.0;0.0;0.0;0.0;0.0;0.0
2.0;1753874608.329152;20.41012;0.9;-1.61;-0.33;0.444969;-0.914703;-0.00928;0.0;0.0;0.0;0.0;0.0;0.0
2.0;1753874608.334206;20.445366;0.89;-1.71;-0.24;0.447314;-0.915952;-0.010547;0.0;0.0;0.0;0.0;0.0;0.0
2.0;1753874608.339262;20.431671;0.89;-1.64;-0.34;0.447514;-0.915517;-0.011029;0.0;0.0;0.0;0.0;0.0;0.0
2.0;1753874608.344316;20.402653;0.82;-1.63;-0.31;0.448784;-0.912796;-0.010375;0.0;0.0;0.0;0.0;0.0;0.0
2.0;1753874608.349372;20.43316;0.87;-1.77;-0.2;0.449283;-0.915172;-0.009665;0.0;0.0;0.0;0.0;0.0;0.0
2.0;1753874608.354426;20.429203;0.88;-1.63;-0.31;0.445352;-0.915004;-0.010045;0.0;0.0;0.0;0.0;0.0;0.0
2.0;1753874608.359481;20.421839;0.98;-1.6;-0.3;0.447479;-0.915442;-0.011062;0.0;0.0;0.0;0.0;0.0;0.0
2.0;1753874608.364536;20.432617;1.06;-1.66;-0.3;0.448594;-0.915499;-0.01001;0.0;0.0;0.0;0.0;0.0;0.0
2.0;1753874608.369591;20.421986;1.01;-1.82;-0.29;0.449008;-0.916631;-0.009747;0.0;0.0;0.0;0.0;0.0;0.0
2.0;1753874608.374646;20.424981;0.84;-1.7;-0.32;0.445987;-0.915764;-0.010177;0.0;0.0;0.0;0.0;0.0;0.0
2.0;1753874608.379701;20.413176;0.87;-1.66;-0.25;0.450755;-0.916368;-0.010908;0.0;0.0;0.0;0.0;0.0;0.0
2.0;1753874608.384756;20.425377;0.96;-1.67;-0.2;0.448128;-0.916361;-0.010019;0.0;0.0;0.0;0.0;0.0;0.0
2.0;1753874608.389811;20.426339;0.88;-1.65;-0.37;0.448427;-0.916041;-0.010069;0.0;0.0;0.0;0.0;0.0;0.0
2.0;1753874608.394866;20.431038;0.92;-1.72;-0.26;0.447823;-0.915025;-0.009111;0.0;0.0;0.0;0.0;0.0;0.0
2.0;1753874608.399921;20.41402;0.97;-1.68;-0.3;0.449582;-0.915789;-0.010893;0.0;0.0;0.0;0.0;0.0;0.0
2.0;1753874608.404976;20.41727;0.85;-1.62;-0.36;0.447225;-0.915564;-0.009502;0.0;0.0;0.0;0.0;0.0;0.0
2.0;1753874608.410031;20.430074;0.89;-1.64;-0.26;0.445582;-0.915045;-0.010573;0.0;0.0;0.0;0.0;0.0;0.0
2.0;1753874608.415086;20.431556;0.83;-1.78;-0.26;0.451634;-0.914567;-0.009817;0.0;0.0;0.0;0.0;0.0;0.0
2.0;1753874608.420141;20.433353;1.02;-1.7;-0.35;0.448451;-0.917203;-0.009368;0.0;0.0;0.0;0.0;0.0;0.0
2.0;1753874608.425196;20.405128;0.91;-1.69;-0.2;0.443117;-0.914639;-0.010707;0.0;0.0;0.0;0.0;0.0;0.0
2.0;1753874608.430251;20.412026;0.92;-1.74;-0.3;0.447165;-0.913965;-0.011105;0.0;0.0;0.0;0.0;0.0;0.0
2.0;1753874608.435306;20.417695;0.96;-1.68;-0.24;0.449316;-0.913257;-0.011057;0.0;0.0;0.0;0.0;0.0;0.0
2.0;1753874608.44036;20.427128;0.89;-1.7;-0.28;0.446164;-0.915042;-0.009941;0.0;0.0;0.0;0.0;0.0;0.0
2.0;1753874608.445416;20.424296;0.93;-1.7;-0.3;0.449211;-0.915928;-0.009401;0.0;0.0;0.0;0.0;0.0;0.0
2.0;1753874608.45047;20.428965;0.92;-1.69;-0.34;0.445409;-0.915474;-0.010096;0.0;0.0;0.0;0.0;0.0;0.0
2.0;1753874608.455526;20.437851;0.93;-1.71;-0.29;0.448326;-0.913638;-0.010864;0.0;0.0;0.0;0.0;0.0;0.0
2.0;1753874608.46058;20.425185;0.95;-1.71;-0.29;0.445639;-0.915577;-0.010288;0.0;0.0;0.0;0.0;0.0;0.0
2.0;1753874608.465635;20.417532;1.03;-1.63;-0.24;0.444786;-0.915289;-0.011919;0.0;0.0;0.0;0.0;0.0;0.0
2.0;1753874608.47069;20.43321;0.92;-1.71;-0.26;0.448162;-0.915366;-0.009704;0.0;0.0;0.0;0.0;0.0;0.0
2.0;1753874608.475745;20.426149;0.98;-1.66;-0.25;0.447013;-0.915459;-0.008882;0.0;0.0;0.0;0.0;0.0;0.0
2.0;1753874608.4808;20.421447;0.98;-1.67;-0.26;0.447443;-0.914228;-0.009614;0.0;0.0;0.0;0.0;0.0;0.0
2.0;1753874608.485855;20.431537;0.93;-1.67;-0.23;0.447421;-0.916598;-0.009733;0.0;0.0;0.0;0.0;0.0;0.0
2.0;1753874608.49091;20.424185;0.94;-1.72;-0.26;0.448145;-0.914128;-0.009693;0.0;0.0;0.0;0.0;0.0;0.0
2.0;1753874608.495965;20.412774;0.81;-1.66;-0.29;0.446839;-0.914509;-0.009492;0.0;0.0;0.0;0.0;0.0;0.0
2.0;1753874608.50102;20.419735;0.92;-1.79;-0.32;0.446744;-0.91516;-0.010073;0.0;0.0;0.0;0.0;0.0;0.0
2.0;1753874608.506075;20.42332;0.93;-1.74;-0.29;0.451237;-0.914717;-0.010804;0.0;0.0;0.0;0.0;0.0;0.0
2.0;1753874608.51113;20.391285;0.9;-1.77;-0.3;0.446579;-0.91454;-0.012293;0.0;0.0;0.0;0.0;0.0;0.0
2.0;1753874608.516185;20.41872;0.89;-1.61;-0.28;0.446373;-0.916942;-0.010723;0.0;0.0;0.0;0.0;0.0;0.0
2.0;1753874608.52124;20.411613;0.94;-1.64;-0.31;0.448827;-0.913569;-0.009864;0.0;0.0;0.0;0.0;0.0;0.0
2.0;1753874608.526295;20.417656;0.9;-1.63;-0.23;0.447126;-0.91483;-0.009748;0.0;0.0;0.0;0.0;0.0;0.0
2.0;1753874608.53135;20.430916;0.96;-1.76;-0.31;0.44493;-0.916161;-0.010359;0.0;0.0;0.0;0.0;0.0;0.0
2.0;1753874608.536404;20.424323;0.92;-1.66;-0.27;0.450456;-0.917276;-0.011456;0.0;0.0;0.0;0.0;0.0;0.0
2.0;1753874608.54146;20.410815;0.88;-1.73;-0.26;0.447557;-0.916157;-0.010033;0.0;0.0;0.0;0.0;0.0;0.0
2.0;1753874608.546514;20.42015;0.9;-1.65;-0.27;0.44545;-0.914606;-0.011249;0.0;0.0;0.0;0.0;0.0;0.0
2.0;1753874608.55157;20.431391;1.0;-1.66;-0.26;0.443053;-0.915264;-0.009919;0.0;0.0;0.0;0.0;0.0;0.0
2.0;1753874608.556624;20.426151;0.87;-1.68;-0.34;0.449757;-0.914738;-0.009595;0.0;0.0;0.0;0.0;0.0;0.0
2.0;1753874608.561679;20.424706;0.97;-1.75;-0.21;0.446291;-0.916501;-0.009883;0.0;0.0;0.0;0.0;0.0;0.0
2.0;1753874608.566734;20.425483;0.92;-1.74;-0.3;0.448616;-0.916322;-0.009955;0.0;0.0;0.0;0.0;0.0;0.0
2.0;1753874608.571789;20.429626;0.84;-1.66;-0.23;0.446238;-0.913925;-0.010162;0.0;0.0;0.0;0.0;0.0;0.0
2.0;1753874608.576844;20.430822;0.88;-1.77;-0.32;0.444839;-0.914945;-0.010077;0.0;0.0;0.0;0.0;0.0;0.0
2.0;1753874608.581899;20.424898;0.92;-1.7;-0.3;0.445794;-0.916123;-0.010316;0.0;0.0;0.0;0.0;0.0;0.0
2.0;1753874608.586954;20.447148;0.83;-1.65;-0.31;0.446242;-0.915493;-0.010947;0.0;0.0;0.0;0.0;0.0;0.0
2.0;1753874608.592009;20.43465;0.93;-1.69;-0.22;0.442507;-0.915548;-0.009125;0.0;0.0;0.0;0.0;0.0;0.0
2.0;1753874608.597064;20.438023;0.92;-1.72;-0.29;0.446566;-0.915178;-0.011171;0.0;0.0;0.0;0.0;0.0;0.0
2.0;1753874608.602119;20.437692;0.89;-1.72;-0.26;0.446422;-0.916335;-0.012467;0.0;0.0;0.0;0.0;0.0;0.0
2.0;1753874608.607174;20.440426;0.86;-1.78;-0.3;0.446391;-0.91587;-0.010556;0.0;0.0;0.0;0.0;0.0;0.0
2.0;1753874608.612229;20.440131;0.92;-1.63;-0.39;0.446763;-0.916195;-0.011148;0.0;0.0;0.0;0.0;0.0;0.0
2.0;1753874608.617284;20.436713;0.86;-1.64;-0.24;0.445594;-0.917167;-0.010281;0.0;0.0;0.0;0.0;0.0;0.0
2.0;1753874608.622339;20.431855;1.0;-1.7;-0.22;0.444902;-0.915366;-0.010585;0.0;0.0;0.0;0.0;0.0;0.0
2.0;1753874608.627394;20.416843;0.9;-1.72;-0.31;0.443395;-0.915329;-0.009958;0.0;0.0;0.0;0.0;0.0;0.0
2.0;1753874608.632449;20.4212;0.97;-1.65;-0.24;0.447482;-0.916643;-0.009957;0.0;0.0;0.0;0.0;0.0;0.0
2.0;1753874608.637504;20.431931;1.01;-1.68;-0.26;0.448442;-0.917153;-0.009911;0.0;0.0;0.0;0.0;0.0;0.0
2.0;1753874608.642558;20.41923;0.89;-1.67;-0.29;0.44403;-0.916083;-0.009542;0.0;0.0;0.0;0.0;0.0;0.0
2.0;1753874608.647614;20.423303;0.88;-1.65;-0.21;0.443195;-0.914704;-0.010319;0.0;0.0;0.0;0.0;0.0;0.0
2.0;1753874608.652668;20.414849;0.9;-1.67;-0.22;0.44512;-0.914529;-0.009344;0.0;0.0;0.0;0.0;0.0;0.0
2.0;1753874608.657724;20.420641;0.91;-1.63;-0.29;0.445447;-0.915798;-0.009947;0.0;0.0;0.0;0.0;0.0;0.0
2.0;1753874608.662778;20.393476;0.91;-1.7;-0.24;0.449108;-0.915889;-0.0107;0.0;0.0;0.0;0.0;0.0;0.0
2.0;1753874608.667833;20.414969;0.92;-1.71;-0.23;0.446829;-0.917777;-0.010258;0.0;0.0;0.0;0.0;0.0;0.0
2.0;1753874608.672888;20.421964;0.85;-1.63;-0.31;0.444002;-0.916577;-0.00969;0.0;0.0;0.0;0.0;0.0;0.0
2.0;1753874608.677943;20.449235;0.86;-1.68;-0.27;0.448089;-0.914194;-0.009625;0.0;0.0;0.0;0.0;0.0;0.0
2.0;1753874608.682998;20.426129;0.93;-1.65;-0.24;0.449572;-0.917454;-0.011008;0.0;0.0;0.0;0.0;0.0;0.0
2.0;1753874608.688053;20.419644;0.96;-1.6;-0.22;0.447991;-0.915798;-0.011709;0.0;0.0;0.0;0.0;0.0;0.0
2.0;1753874608.693108;20.422361;0.9;-1.65;-0.2;0.446186;-0.916747;-0.010346;0.0;0.0;0.0;0.0;0.0;0.0
2.0;1753874608.698163;20.440016;0.91;-1.73;-0.3;0.447096;-0.916123;-0.010441;0.0;0.0;0.0;0.0;0.0;0.0
2.0;1753874608.703218;20.444153;0.86;-1.69;-0.33;0.447438;-0.918265;-0.012322;0.0;0.0;0.0;0.0;0.0;0.0
2.0;1753874608.708273;20.438817;0.85;-1.64;-0.27;0.44467;-0.915443;-0.009317;0.0;0.0;0.0;0.0;0.0;0.0
2.0;1753874608.713328;20.425972;0.98;-1.73;-0.28;0.44599;-0.917084;-0.011723;0.0;0.0;0.0;0.0;0.0;0.0
2.0;1753874608.718383;20.422191;0.91;-1.73;-0.32;0.44407;-0.916068;-0.011351;0.0;0.0;0.0;0.0;0.0;0.0
2.0;1753874608.723438;20.43627;1.05;-1.74;-0.27;0.445853;-0.915359;-0.010273;0.0;0.0;0.0;0.0;0.0;0.0
2.0;1753874608.728493;20.421627;0.87;-1.76;-0.3;0.447756;-0.914519;-0.009829;0.0;0.0;0.0;0.0;0.0;0.0
2.0;1753874608.733548;20.449833;0.84;-1.74;-0.29;0.448064;-0.913853;-0.010112;0.0;0.0;0.0;0.0;0.0;0.0
2.0;1753874608.738603;20.406917;0.86;-1.7;-0.25;0.452584;-0.913591;-0.011852;0.0;0.0;0.0;0.0;0.0;0.0
2.0;1753874608.743658;20.435047;0.91;-1.69;-0.29;0.447981;-0.916305;-0.010353;0.0;0.0;0.0;0.0;0.0;0.0
2.0;1753874608.748712;20.437422;0.95;-1.62;-0.29;0.445447;-0.915532;-0.011584;0.0;0.0;0.0;0.0;0.0;0.0
2.0;1753874608.753768;20.423231;0.95;-1.73;-0.27;0.444584;-0.913632;-0.010522;0.0;0.0;0.0;0.0;0.0;0.0
2.0;1753874608.758822;20.420363;0.86;-1.69;-0.26;0.446711;-0.914128;-0.010378;0.0;0.0;0.0;0.0;0.0;0.0
2.0;1753874608.763878;20.427393;0.85;-1.59;-0.28;0.445579;-0.914986;-0.009776;0.0;0.0;0.0;0.0;0.0;0.0
2.0;1753874608.768932;20.41912;0.93;-1.6;-0.28;0.445704;-0.91635;-0.010509;0.0;0.0;0.0;0.0;0.0;0.0
2.0;1753874608.773987;20.419003;0.93;-1.63;-0.24;0.445344;-0.914605;-0.011326;0.0;0.0;0.0;0.0;0.0;0.0
2.0;1753874608.779042;20.420018;1.01;-1.78;-0.18;0.447899;-0.917192;-0.010053;0.0;0.0;0.0;0.0;0.0;0.0
2.0;1753874608.784097;20.422695;0.72;-1.66;-0.26;0.446518;-0.916905;-0.011188;0.0;0.0;0.0;0.0;0.0;0.0
2.0;1753874608.789152;20.402554;0.87;-1.54;-0.21;0.448285;-0.914089;-0.010484;0.0;0.0;0.0;0.0;0.0;0.0
2.0;1753874608.794207;20.417173;0.81;-1.63;-0.28;0.440844;-0.915362;-0.010076;0.0;0.0;0.0;0.0;0.0;0.0
2.0;1753874608.799262;20.423843;0.86;-1.62;-0.24;0.44505;-0.915687;-0.010563;0.0;0.0;0.0;0.0;0.0;0.0
2.0;1753874608.804317;20.405623;0.99;-1.66;-0.26;0.444741;-0.916227;-0.010527;0.0;0.0;0.0;0.0;0.0;0.0
2.0;1753874608.809372;20.43452;0.95;-1.62;-0.33;0.445832;-0.915991;-0.010308;0.0;0.0;0.0;0.0;0.0;0.0
2.0;1753874608.814427;20.427341;0.96;-1.67;-0.22;0.448738;-0.914913;-0.009241;0.0;0.0;0.0;0.0;0.0;0.0
2.0;1753874608.819482;20.423969;0.8;-1.69;-0.28;0.448111;-0.915194;-0.01153;0.0;0.0;0.0;0.0;0.0;0.0
2.0;1753874608.824537;20.424848;0.9;-1.7;-0.3;0.44792;-0.91625;-0.010645;0.0;0.0;0.0;0.0;0.0;0.0
2.0;1753874608.829592;20.440682;0.95;-1.71;-0.3;0.444149;-0.915019;-0.010833;0.0;0.0;0.0;0.0;0.0;0.0
2.0;1753874608.834647;20.436704;0.97;-1.7;-0.26;0.448316;-0.913248;-0.010877;0.0;0.0;0.0;0.0;0.0;0.0
2.0;1753874608.839702;20.438912;0.91;-1.67;-0.18;0.445558;-0.915303;-0.010304;0.0;0.0;0.0;0.0;0.0;0.0
2.0;1753874608.844756;20.437597;0.99;-1.68;-0.21;0.44796;-0.915687;-0.009906;0.0;0.0;0.0;0.0;0.0;0.0
2.0;1753874608.849812;20.4312;0.88;-1.71;-0.22;0.446326;-0.915874;-0.011178;0.0;0.0;0.0;0.0;0.0;0.0
2.0;1753874608.854866;20.431588;0.91;-1.57;-0.2;0.448993;-0.915093;-0.01101;0.0;0.0;0.0;0.0;0.0;0.0
2.0;1753874608.859922;20.448158;0.86;-1.7;-0.23;0.447595;-0.916137;-0.010308;0.0;0.0;0.0;0.0;0.0;0.0
2.0;1753874608.864976;20.430154;0.93;-1.65;-0.34;0.449278;-0.915286;-0.011522;0.0;0.0;0.0;0.0;0.0;0.0
2.0;1753874608.870031;20.423857;1.09;-1.52;-0.21;0.445635;-0.914366;-0.01075;0.0;0.0;0.0;0.0;0.0;0.0
2.0;1753874608.875086;20.445131;0.9;-1.73;-0.3;0.446588;-0.915611;-0.009579;0.0;0.0;0.0;0.0;0.0;0.0
2.0;1753874608.880141;20.432551;0.9;-1.57;-0.36;0.446566;-0.914088;-0.010097;0.0;0.0;0.0;0.0;0.0;0.0
2.0;1753874608.885196;20.434;0.95;-1.66;-0.22;0.445744;-0.917036;-0.00985;0.0;0.0;0.0;0.0;0.0;0.0
2.0;1753874608.890251;20.429445;0.89;-1.67;-0.37;0.448846;-0.917946;-0.010341;0.0;0.0;0.0;0.0;0.0;0.0
2.0;1753874608.895306;20.429977;0.85;-1.66;-0.25;0.445684;-0.916727;-0.010314;0.0;0.0;0.0;0.0;0.0;0.0
2.0;1753874608.900361;20.402412;0.92;-1.65;-0.22;0.446786;-0.914979;-0.011398;0.0;0.0;0.0;0.0;0.0;0.0
2.0;1753874608.905416;20.451915;0.86;-1.66;-0.33;0.446079;-0.917696;-0.010922;0.0;0.0;0.0;0.0;0.0;0.0
2.0;1753874608.910471;20.431852;0.77;-1.76;-0.26;0.445271;-0.916261;-0.009536;0.0;0.0;0.0;0.0;0.0;0.0
2.0;1753874608.915526;20.408946;0.97;-1.72;-0.3;0.446429;-0.915852;-0.010149;0.0;0.0;0.0;0.0;0.0;0.0
2.0;1753874608.920581;20.425069;1.0;-1.62;-0.29;0.450139;-0.915071;-0.012224;0.0;0.0;0.0;0.0;0.0;0.0
2.0;1753874608.925636;20.420753;0.91;-1.61;-0.19;0.446308;-0.917298;-0.011088;0.0;0.0;0.0;0.0;0.0;0.0
2.0;1753874608.930691;20.423415;0.89;-1.69;-0.39;0.449454;-0.916559;-0.010428;0.0;0.0;0.0;0.0;0.0;0.0
2.0;1753874608.935746;20.427993;0.97;-1.6;-0.25;0.448041;-0.915752;-0.009663;0.0;0.0;0.0;0.0;0.0;0.0
2.0;1753874608.940801;20.41959;0.82;-1.66;-0.25;0.447801;-0.91613;-0.010654;0.0;0.0;0.0;0.0;0.0;0.0
2.0;1753874608.945856;20.443155;0.9;-1.71;-0.31;0.444075;-0.913603;-0.010203;0.0;0.0;0.0;0.0;0.0;0.0
2.0;1753874608.95091;20.418909;0.83;-1.72;-0.25;0.446255;-0.916612;-0.010066;0.0;0.0;0.0;0.0;0.0;0.0
2.0;1753874608.955966;20.441614;0.89;-1.7;-0.24;0.446981;-0.917994;-0.011485;0.0;0.0;0.0;0.0;0.0;0.0
2.0;1753874608.96102;20.429363;0.95;-1.77;-0.25;0.445948;-0.917431;-0.010665;0.0;0.0;0.0;0.0;0.0;0.0
2.0;1753874608.97;20.425781;0.91;-1.68;-0.28;0.446276;-0.916098;-0.010614;0.0;0.0;0.0;0.0;0.0;0.0
2.0;1753874608.971377;20.351562;0.91;-1.68;-0.35;0.448838;-0.914146;-0.011712;0.0;0.0;0.0;0.0;0.0;0.0
2.0;1753874608.974498;20.351562;0.91;-1.68;-0.35;0.444202;-0.915244;-0.011102;0.0;0.0;0.0;0.0;0.0;0.0
2.0;1753874608.97897;20.375;0.84;-1.68;-0.28;0.444202;-0.915244;-0.011102;0.0;0.0;0.0;0.0;0.0;0.0
2.0;1753874608.984956;20.375;0.91;-1.75;-0.35;0.445788;-0.915732;-0.0122;0.0;0.0;0.0;0.0;0.0;0.0
2.0;1753874608.988177;20.375;0.98;-1.68;-0.28;0.448106;-0.914512;-0.011224;0.0;0.0;0.0;0.0;0.0;0.0
2.0;1753874608.996515;20.375;0.98;-1.68;-0.21;0.446398;-0.915366;-0.011712;0.0;0.0;0.0;0.0;0.0;0.0
2.0;1753874608.997323;20.351562;0.84;-1.68;-0.28;0.446154;-0.913658;-0.011956;0.0;0.0;0.0;0.0;0.0;0.0
2.0;1753874609.002378;20.390529;0.99;-1.65;-0.28;0.444993;-0.914721;-0.012832;0.0;0.0;0.0;0.0;0.0;0.0
2.0;1753874609.007433;20.345736;0.73;-1.76;-0.23;0.445012;-0.912721;-0.012234;0.0;0.0;0.0;0.0;0.0;0.0
2.0;1753874609.012488;20.353484;0.81;-1.72;-0.28;0.443831;-0.913345;-0.011516;0.0;0.0;0.0;0.0;0.0;0.0
2.0;1753874609.017543;20.361458;0.76;-1.63;-0.31;0.445411;-0.913456;-0.01167;0.0;0.0;0.0;0.0;0.0;0.0
2.0;1753874609.022598;20.374103;0.84;-1.61;-0.35;0.444969;-0.91303;-0.011763;0.0;0.0;0.0;0.0;0.0;0.0
2.0;1753874609.027653;20.329084;0.78;-1.65;-0.28;0.445404;-0.913102;-0.012269;0.0;0.0;0.0;0.0;0.0;0.0
2.0;1753874609.032708;20.364035;0.85;-1.75;-0.26;0.443636;-0.913937;-0.010629;0.0;0.0;0.0;0.0;0.0;0.0
2.0;1753874609.037763;20.360444;0.82;-1.63;-0.33;0.446788;-0.914461;-0.012413;0.0;0.0;0.0;0.0;0.0;0.0
2.0;1753874609.042818;20.336596;0.86;-1.7;-0.29;0.447686;-0.912891;-0.012479;0.0;0.0;0.0;0.0;0.0;0.0
2.0;1753874609.047872;20.380575;0.86;-1.74;-0.39;0.444793;-0.913719;-0.011945;0.0;0.0;0.0;0.0;0.0;0.0
2.0;1753874609.052928;20.342613;0.79;-1.73;-0.2;0.447824;-0.91347;-0.0115;0.0;0.0;0.0;0.0;0.0;0.0
2.0;1753874609.057982;20.353218;0.89;-1.73;-0.23;0.444815;-0.913803;-0.011847;0.0;0.0;0.0;0.0;0.0;0.0
2.0;1753874609.063038;20.346745;0.96;-1.67;-0.36;0.446209;-0.91244;-0.012125;0.0;0.0;0.0;0.0;0.0;0.0
2.0;1753874609.068092;20.353777;0.89;-1.8;-0.24;0.445196;-0.912617;-0.01224;0.0;0.0;0.0;0.0;0.0;0.0
2.0;1753874609.073147;20.34265;0.84;-1.76;-0.33;0.447392;-0.913918;-0.012014;0.0;0.0;0.0;0.0;0.0;0.0
2.0;1753874609.078202;20.339016;0.85;-1.72;-0.28;0.444433;-0.913785;-0.012364;0.0;0.0;0.0;0.0;0.0;0.0
2.0;1753874609.083257;20.361134;0.85;-1.67;-0.25;0.446275;-0.913824;-0.013287;0.0;0.0;0.0;0.0;0.0;0.0
2.0;1753874609.088312;20.357812;0.82;-1.73;-0.28;0.447523;-0.912517;-0.011249;0.0;0.0;0.0;0.0;0.0;0.0
2.0;1753874609.093367;20.338558;0.75;-1.69;-0.32;0.445754;-0.912785;-0.011172;0.0;0.0;0.0;0.0;0.0;0.0
2.0;1753874609.098422;20.350088;0.75;-1.78;-0.24;0.447906;-0.914072;-0.012464;0.0;0.0;0.0;0.0;0.0;0.0
2.0;1753874609.103477;20.36056;0.81;-1.7;-0.4;0.447512;-0.915017;-0.011242;0.0;0.0;0.0;0.0;0.0;0.0
2.0;1753874609.108532;20.357352;0.85;-1.75;-0.32;0.443854;-0.91404;-0.011928;0.0;0.0;0.0;0.0;0.0;0.0
2.0;1753874609.113587;20.371285;0.74;-1.65;-0.24;0.444436;-0.914738;-0.010645;0.0;0.0;0.0;0.0;0.0;0.0
2.0;1753874609.118642;20.351091;0.6;-1.65;-0.36;0.447242;-0.913295;-0.011338;0.0;0.0;0.0;0.0;0.0;0.0
2.0;1753874609.123697;20.347415;0.84;-1.7;-0.27;0.444643;-0.912365;-0.01119;0.0;0.0;0.0;0.0;0.0;0.0
2.0;1753874609.128752;20.352478;0.91;-1.61;-0.33;0.447853;-0.914182;-0.012084;0.0;0.0;0.0;0.0;0.0;0.0
2.0;1753874609.133807;20.353924;0.85;-1.69;-0.24;0.446484;-0.913093;-0.011636;0.0;0.0;0.0;0.0;0.0;0.0
2.0;1753874609.138862;20.369628;0.83;-1.73;-0.29;0.447039;-0.915299;-0.01187;0.0;0.0;0.0;0.0;0.0;0.0
2.0;1753874609.143916;20.344704;0.83;-1.85;-0.33;0.448226;-0.915234;-0.012099;0.0;0.0;0.0;0.0;0.0;0.0
2.0;1753874609.148972;20.360903;0.69;-1.61;-0.2;0.445206;-0.913808;-0.011877;0.0;0.0;0.0;0.0;0.0;0.0
2.0;1753874609.154026;20.369636;0.81;-1.74;-0.28;0.444702;-0.913237;-0.011455;0.0;0.0;0.0;0.0;0.0;0.0
2.0;1753874609.159082;20.347876;0.93;-1.74;-0.29;0.447046;-0.912588;-0.012291;0.0;0.0;0.0;0.0;0.0;0.0
2.0;1753874609.164136;20.339181;0.86;-1.73;-0.34;0.446303;-0.914173;-0.011476;0.0;0.0;0.0;0.0;0.0;0.0
2.0;1753874609.169191;20.341477;0.87;-1.63;-0.31;0.449396;-0.914054;-0.011219;0.0;0.0;0.0;0.0;0.0;0.0
2.0;1753874609.174246;20.343157;0.86;-1.77;-0.3;0.446786;-0.913343;-0.00965;0.0;0.0;0.0;0.0;0.0;0.0
2.0;1753874609.179301;20.34766;0.82;-1.73;-0.33;0.447994;-0.915447;-0.011068;0.0;0.0;0.0;0.0;0.0;0.0
2.0;1753874609.184356;20.362157;0.72;-1.74;-0.32;0.44849;-0.91508;-0.010656;0.0;0.0;0.0;0.0;0.0;0.0
2.0;1753874609.189411;20.349165;0.81;-1.77;-0.22;0.443561;-0.915436;-0.010966;0.0;0.0;0.0;0.0;0.0;0.0
2.0;1753874609.194466;20.346487;0.83;-1.69;-0.35;0.446207;-0.915973;-0.011388;0.0;0.0;0.0;0.0;0.0;0.0
2.0;1753874609.199521;20.346445;0.77;-1.79;-0.35;0.447594;-0.912763;-0.011231;0.0;0.0;0.0;0.0;0.0;0.0
2.0;1753874609.204576;20.345905;0.73;-1.79;-0.39;0.445998;-0.913687;-0.011666;0.0;0.0;0.0;0.0;0.0;0.0
2.0;1753874609.209631;20.352141;0.64;-1.74;-0.3;0.447147;-0.913325;-0.01111;0.0;0.0;0.0;0.0;0.0;0.0
2.0;1753874609.214686;20.350568;0.73;-1.79;-0.36;0.44568;-0.911886;-0.011938;0.0;0.0;0.0;0.0;0.0;0.0
2.0;1753874609.219741;20.348917;0.86;-1.78;-0.3;0.445875;-0.915046;-0.011267;0.0;0.0;0.0;0.0;0.0;0.0
2.0;1753874609.224796;20.385783;0.62;-1.66;-0.33;0.448189;-0.913182;-0.010956;0.0;0.0;0.0;0.0;0.0;0.0
2.0;1753874609.229851;20.339807;0.75;-1.74;-0.35;0.449952;-0.914659;-0.011107;0.0;0.0;0.0;0.0;0.0;0.0
2.0;1753874609.234906;20.353347;0.92;-1.78;-0.36;0.448618;-0.914502;-0.0116;0.0;0.0;0.0;0.0;0.0;0.0
2.0;1753874609.239961;20.358443;0.77;-1.76;-0.37;0.446769;-0.915655;-0.010824;0.0;0.0;0.0;0.0;0.0;0.0
2.0;1753874609.245016;20.323935;0.73;-1.74;-0.32;0.446739;-0.912318;-0.010429;0.0;0.0;0.0;0.0;0.0;0.0
2.0;1753874609.25007;20.366835;0.73;-1.72;-0.28;0.443787;-0.914846;-0.01139;0.0;0.0;0.0;0.0;0.0;0.0
2.0;1753874609.255126;20.338554;0.89;-1.7;-0.38;0.445172;-0.913806;-0.010529;0.0;0.0;0.0;0.0;0.0;0.0
2.0;1753874609.26018;20.379574;0.68;-1.7;-0.32;0.446681;-0.913196;-0.010755;0.0;0.0;0.0;0.0;0.0;0.0
2.0;1753874609.265236;20.360308;0.71;-1.76;-0.35;0.448174;-0.915585;-0.010132;0.0;0.0;0.0;0.0;0.0;0.0
2.0;1753874609.27029;20.358781;0.75;-1.78;-0.31;0.448358;-0.9144;-0.010515;0.0;0.0;0.0;0.0;0.0;0.0
2.0;1753874609.275345;20.32261;0.72;-1.7;-0.31;0.44731;-0.91515;-0.010323;0.0;0.0;0.0;0.0;0.0;0.0
2.0;1753874609.2804;20.345354;0.79;-1.73;-0.4;0.447792;-0.914325;-0.011495;0.0;0.0;0.0;0.0;0.0;0.0
2.0;1753874609.285455;20.356997;0.79;-1.76;-0.28;0.449579;-0.914499;-0.009827;0.0;0.0;0.0;0.0;0.0;0.0
2.0;1753874609.29051;20.351371;0.76;-1.69;-0.38;0.445495;-0.915578;-0.010849;0.0;0.0;0.0;0.0;0.0;0.0
2.0;1753874609.2958;20.351562;0.77;-1.75;-0.35;0.446764;-0.914268;-0.010858;0.0;0.0;0.0;0.0;0.0;0.0
2.0;1753874609.300855;20.360149;0.85;-1.75;-0.34;0.446761;-0.913747;-0.01188;0.0;0.0;0.0;0.0;0.0;0.0
2.0;1753874609.30591;20.351948;0.8;-1.79;-0.4;0.44752;-0.914342;-0.011101;0.0;0.0;0.0;0.0;0.0;0.0
2.0;1753874609.310965;20.334078;0.7;-1.72;-0.32;0.445559;-0.915577;-0.010931;0.0;0.0;0.0;0.0;0.0;0.0
2.0;1753874609.31602;20.346033;0.75;-1.72;-0.29;0.445957;-0.91385;-0.011601;0.0;0.0;0.0;0.0;0.0;0.0
2.0;1753874609.321075;20.356277;0.76;-1.7;-0.45;0.4472;-0.91498;-0.011011;0.0;0.0;0.0;0.0;0.0;0.0
2.0;1753874609.32613;20.347509;0.84;-1.66;-0.36;0.44761;-0.915546;-0.011859;0.0;0.0;0.0;0.0;0.0;0.0
2.0;1753874609.331185;20.372876;0.73;-1.91;-0.33;0.447396;-0.914316;-0.010729;0.0;0.0;0.0;0.0;0.0;0.0
2.0;1753874609.33624;20.325982;0.69;-1.76;-0.3;0.447923;-0.914337;-0.011204;0.0;0.0;0.0;0.0;0.0;0.0
2.0;1753874609.341294;20.357684;0.77;-1.75;-0.39;0.446077;-0.913041;-0.011648;0.0;0.0;0.0;0.0;0.0;0.0
2.0;1753874609.34635;20.357813;0.84;-1.8;-0.35;0.445374;-0.914257;-0.011321;0.0;0.0;0.0;0.0;0.0;0.0
2.0;1753874609.351404;20.352672;0.76;-1.82;-0.4;0.446381;-0.913721;-0.011433;0.0;0.0;0.0;0.0;0.0;0.0
2.0;1753874609.35646;20.350733;0.84;-1.7;-0.33;0.447602;-0.914219;-0.011319;0.0;0.0;0.0;0.0;0.0;0.0
2.0;1753874609.361514;20.323688;0.74;-1.78;-0.3;0.446417;-0.914816;-0.011649;0.0;0.0;0.0;0.0;0.0;0.0
2.0;1753874609.366569;20.331515;0.82;-1.68;-0.36;0.445572;-0.914441;-0.011983;0.0;0.0;0.0;0.0;0.0;0.0
2.0;1753874609.371624;20.346321;0.7;-1.71;-0.41;0.445962;-0.91263;-0.011182;0.0;0.0;0.0;0.0;0.0;0.0
2.0;1753874609.376679;20.341515;0.78;-1.66;-0.38;0.444192;-0.91432;-0.012061;0.0;0.0;0.0;0.0;0.0;0.0
2.0;1753874609.381734;20.340347;0.73;-1.74;-0.32;0.448652;-0.913812;-0.011548;0.0;0.0;0.0;0.0;0.0;0.0
2.0;1753874609.386789;20.3331;0.65;-1.76;-0.35;0.445168;-0.914925;-0.011824;0.0;0.0;0.0;0.0;0.0;0.0
2.0;1753874609.391844;20.339995;0.67;-1.76;-0.35;0.445136;-0.914663;-0.010561;0.0;0.0;0.0;0.0;0.0;0.0
2.0;1753874609.396899;20.372448;0.76;-1.72;-0.34;0.448014;-0.913864;-0.010512;0.0;0.0;0.0;0.0;0.0;0.0
2.0;1753874609.401954;20.362213;0.81;-1.73;-0.38;0.447167;-0.914334;-0.012184;0.0;0.0;0.0;0.0;0.0;0.0
2.0;1753874609.407009;20.362656;0.82;-1.69;-0.33;0.445151;-0.916152;-0.01031;0.0;0.0;0.0;0.0;0.0;0.0
2.0;1753874609.412064;20.356339;0.69;-1.74;-0.32;0.446277;-0.914879;-0.010463;0.0;0.0;0.0;0.0;0.0;0.0
2.0;1753874609.417119;20.358952;0.86;-1.66;-0.42;0.44631;-0.914424;-0.012293;0.0;0.0;0.0;0.0;0.0;0.0
2.0;1753874609.422174;20.328742;0.9;-1.77;-0.35;0.444836;-0.913744;-0.010978;0.0;0.0;0.0;0.0;0.0;0.0
2.0;1753874609.427229;20.349278;0.75;-1.69;-0.3;0.447913;-0.914016;-0.011728;0.0;0.0;0.0;0.0;0.0;0.0
2.0;1753874609.432284;20.371852;0.75;-1.69;-0.31;0.449423;-0.916629;-0.012163;0.0;0.0;0.0;0.0;0.0;0.0
2.0;1753874609.437338;20.349953;0.84;-1.76;-0.4;0.447207;-0.915297;-0.011112;0.0;0.0;0.0;0.0;0.0;0.0
2.0;1753874609.442394;20.364827;0.78;-1.68;-0.35;0.450048;-0.915073;-0.011663;0.0;0.0;0.0;0.0;0.0;0.0
2.0;1753874609.447448;20.333929;0.81;-1.73;-0.35;0.445837;-0.914044;-0.011485;0.0;0.0;0.0;0.0;0.0;0.0
2.0;1753874609.452504;20.347124;0.88;-1.72;-0.3;0.444964;-0.915454;-0.011807;0.0;0.0;0.0;0.0;0.0;0.0
2.0;1753874609.457558;20.362159;0.83;-1.69;-0.33;0.448058;-0.915902;-0.011186;0.0;0.0;0.0;0.0;0.0;0.0
2.0;1753874609.462613;20.354641;0.89;-1.68;-0.37;0.447453;-0.916308;-0.01099;0.0;0.0;0.0;0.0;0.0;0.0
2.0;1753874609.467668;20.316225;0.83;-1.72;-0.37;0.44747;-0.914011;-0.010635;0.0;0.0;0.0;0.0;0.0;0.0
2.0;1753874609.472723;20.399321;0.79;-1.63;-0.36;0.449131;-0.914913;-0.011519;0.0;0.0;0.0;0.0;0.0;0.0
2.0;1753874609.477778;20.359686;0.92;-1.67;-0.4;0.448324;-0.913928;-0.01094;0.0;0.0;0.0;0.0;0.0;0.0
2.0;1753874609.482833;20.347771;0.71;-1.66;-0.33;0.447855;-0.91432;-0.011295;0.0;0.0;0.0;0.0;0.0;0.0
2.0;1753874609.487888;20.354485;0.87;-1.77;-0.38;0.44708;-0.914638;-0.011893;0.0;0.0;0.0;0.0;0.0;0.0
2.0;1753874609.492943;20.336429;0.88;-1.68;-0.31;0.446879;-0.915342;-0.011344;0.0;0.0;0.0;0.0;0.0;0.0
2.0;1753874609.497998;20.36711;0.82;-1.7;-0.34;0.44577;-0.914727;-0.0113;0.0;0.0;0.0;0.0;0.0;0.0
2.0;1753874609.503053;20.358512;0.87;-1.72;-0.28;0.444627;-0.914629;-0.011774;0.0;0.0;0.0;0.0;0.0;0.0
2.0;1753874609.508108;20.35997;0.82;-1.71;-0.32;0.447013;-0.916199;-0.01169;0.0;0.0;0.0;0.0;0.0;0.0
2.0;1753874609.513163;20.3346;0.82;-1.73;-0.4;0.444996;-0.915449;-0.011399;0.0;0.0;0.0;0.0;0.0;0.0
2.0;1753874609.518218;20.312055;0.84;-1.73;-0.32;0.446615;-0.916397;-0.011509;0.0;0.0;0.0;0.0;0.0;0.0
2.0;1753874609.523273;20.348055;0.86;-1.67;-0.37;0.447519;-0.915257;-0.010418;0.0;0.0;0.0;0.0;0.0;0.0
2.0;1753874609.528328;20.340543;0.89;-1.73;-0.38;0.447426;-0.913588;-0.011595;0.0;0.0;0.0;0.0;0.0;0.0
2.0;1753874609.533383;20.341812;0.77;-1.68;-0.33;0.445703;-0.914079;-0.011818;0.0;0.0;0.0;0.0;0.0;0.0
2.0;1753874609.538438;20.345251;0.76;-1.68;-0.34;0.446765;-0.91562;-0.012505;0.0;0.0;0.0;0.0;0.0;0.0
2.0;1753874609.543492;20.385248;0.83;-1.57;-0.36;0.448751;-0.915632;-0.01182;0.0;0.0;0.0;0.0;0.0;0.0
2.0;1753874609.548548;20.348088;0.76;-1.71;-0.34;0.447473;-0.914451;-0.011183;0.0;0.0;0.0;0.0;0.0;0.0
2.0;1753874609.553602;20.341809;0.75;-1.68;-0.38;0.445587;-0.914844;-0.012409;0.0;0.0;0.0;0.0;0.0;0.0
2.0;1753874609.558658;20.362484;0.81;-1.72;-0.36;0.448347;-0.914781;-0.011991;0.0;0.0;0.0;0.0;0.0;0.0
2.0;1753874609.563712;20.329307;0.71;-1.77;-0.36;0.447786;-0.916345;-0.012388;0.0;0.0;0.0;0.0;0.0;0.0
2.0;1753874609.568767;20.372255;0.79;-1.7;-0.38;0.44812;-0.91524;-0.011717;0.0;0.0;0.0;0.0;0.0;0.0
2.0;1753874609.573822;20.330397;0.78;-1.74;-0.25;0.446144;-0.915371;-0.011309;0.0;0.0;0.0;0.0;0.0;0.0
2.0;1753874609.578877;20.332001;0.83;-1.69;-0.37;0.448368;-0.915112;-0.011985;0.0;0.0;0.0;0.0;0.0;0.0
2.0;1753874609.583932;20.361334;0.89;-1.59;-0.37;0.44542;-0.914056;-0.011686;0.0;0.0;0.0;0.0;0.0;0.0
2.0;1753874609.588987;20.348829;0.85;-1.73;-0.33;0.445652;-0.916884;-0.012437;0.0;0.0;0.0;0.0;0.0;0.0
2.0;1753874609.594042;20.329485;0.77;-1.73;-0.31;0.448437;-0.915108;-0.012232;0.0;0.0;0.0;0.0;0.0;0.0
2.0;1753874609.599097;20.369111;0.77;-1.71;-0.36;0.445651;-0.914808;-0.012227;0.0;0.0;0.0;0.0;0.0;0.0
2.0;1753874609.604152;20.360344;0.83;-1.75;-0.37;0.444455;-0.91706;-0.013186;0.0;0.0;0.0;0.0;0.0;0.0
2.0;1753874609.609207;20.373142;0.88;-1.72;-0.3;0.447801;-0.914992;-0.012385;0.0;0.0;0.0;0.0;0.0;0.0
2.0;1753874609.614262;20.336928;0.79;-1.65;-0.34;0.446441;-0.914932;-0.012244;0.0;0.0;0.0;0.0;0.0;0.0
2.0;1753874609.619317;20.345363;0.82;-1.8;-0.29;0.445448;-0.916185;-0.012645;0.0;0.0;0.0;0.0;0.0;0.0
2.0;1753874609.624372;20.349885;0.9;-1.7;-0.41;0.44831;-0.916747;-0.011381;0.0;0.0;0.0;0.0;0.0;0.0
2.0;1753874609.629427;20.353285;0.8;-1.71;-0.38;0.449095;-0.915472;-0.012327;0.0;0.0;0.0;0.0;0.0;0.0
2.0;1753874609.634482;20.35058;0.81;-1.71;-0.37;0.447021;-0.915203;-0.011384;0.0;0.0;0.0;0.0;0.0;0.0
2.0;1753874609.639536;20.341779;0.77;-1.66;-0.35;0.447347;-0.914257;-0.012994;0.0;0.0;0.0;0.0;0.0;0.0
2.0;1753874609.644592;20.356254;0.87;-1.65;-0.38;0.448855;-0.916301;-0.011435;0.0;0.0;0.0;0.0;0.0;0.0
2.0;1753874609.649646;20.369344;0.85;-1.65;-0.42;0.447803;-0.914786;-0.011867;0.0;0.0;0.0;0.0;0.0;0.0
2.0;1753874609.654702;20.360996;0.87;-1.74;-0.33;0.44725;-0.914522;-0.01165;0.0;0.0;0.0;0.0;0.0;0.0
2.0;1753874609.659756;20.368391;0.9;-1.72;-0.35;0.448528;-0.914684;-0.012189;0.0;0.0;0.0;0.0;0.0;0.0
2.0;1753874609.664811;20.3541;0.93;-1.69;-0.34;0.446019;-0.916715;-0.012741;0.0;0.0;0.0;0.0;0.0;0.0
2.0;1753874609.669866;20.344681;0.86;-1.67;-0.34;0.448032;-0.915507;-0.011671;0.0;0.0;0.0;0.0;0.0;0.0
2.0;1753874609.674921;20.351791;0.82;-1.68;-0.42;0.449267;-0.915331;-0.012126;0.0;0.0;0.0;0.0;0.0;0.0
2.0;1753874609.6819;20.351562;0.84;-1.68;-0.35;0.447008;-0.915732;-0.0122;0.0;0.0;0.0;0.0;0.0;0.0
2.0;1753874609.68487;20.382812;0.91;-1.68;-0.28;0.447984;-0.914146;-0.011102;0.0;0.0;0.0;0.0;0.0;0.0
2.0;1753874609.689925;20.357133;0.94;-1.71;-0.29;0.446789;-0.915233;-0.010929;0.0;0.0;0.0;0.0;0.0;0.0
2.0;1753874609.69498;20.358714;0.97;-1.66;-0.32;0.446799;-0.914739;-0.011269;0.0;0.0;0.0;0.0;0.0;0.0
2.0;1753874609.700035;20.35875;0.96;-1.76;-0.23;0.446616;-0.914327;-0.012036;0.0;0.0;0.0;0.0;0.0;0.0
2.0;1753874609.70818;20.34375;0.98;-1.75;-0.28;0.444934;-0.914878;-0.011712;0.0;0.0;0.0;0.0;0.0;0.0
2.0;1753874609.713235;20.351162;1.03;-1.74;-0.3;0.44488;-0.915374;-0.01216;0.0;0.0;0.0;0.0;0.0;0.0
2.0;1753874609.71829;20.322301;0.92;-1.8;-0.37;0.442227;-0.915375;-0.011172;0.0;0.0;0.0;0.0;0.0;0.0
2.0;1753874609.723345;20.35244;1.01;-1.71;-0.23;0.445413;-0.91361;-0.010986;0.0;0.0;0.0;0.0;0.0;0.0
2.0;1753874609.7284;20.34241;1.08;-1.73;-0.25;0.446347;-0.914831;-0.011403;0.0;0.0;0.0;0.0;0.0;0.0
2.0;1753874609.733455;20.345567;0.91;-1.72;-0.31;0.443818;-0.914669;-0.01154;0.0;0.0;0.0;0.0;0.0;0.0
2.0;1753874609.73851;20.306204;0.89;-1.78;-0.33;0.448259;-0.914169;-0.01121;0.0;0.0;0.0;0.0;0.0;0.0
2.0;1753874609.743564;20.380115;1.01;-1.72;-0.26;0.445851;-0.914901;-0.010967;0.0;0.0;0.0;0.0;0.0;0.0
2.0;1753874609.75141;20.34375;0.91;-1.68;-0.28;0.446764;-0.915;-0.011102;0.0;0.0;0.0;0.0;0.0;0.0
2.0;1753874609.756465;20.398949;0.97;-1.63;-0.28;0.447966;-0.915488;-0.010965;0.0;0.0;0.0;0.0;0.0;0.0
2.0;1753874609.76152;20.355948;0.9;-1.69;-0.29;0.448452;-0.914165;-0.011306;0.0;0.0;0.0;0.0;0.0;0.0
2.0;1753874609.766575;20.314739;0.95;-1.66;-0.33;0.447228;-0.914966;-0.011914;0.0;0.0;0.0;0.0;0.0;0.0
2.0;1753874609.77163;20.342706;0.9;-1.62;-0.37;0.449313;-0.915728;-0.010805;0.0;0.0;0.0;0.0;0.0;0.0
2.0;1753874609.776685;20.329974;0.89;-1.74;-0.32;0.445367;-0.914474;-0.011643;0.0;0.0;0.0;0.0;0.0;0.0
2.0;1753874609.78174;20.349807;0.95;-1.68;-0.31;0.444369;-0.914917;-0.011907;0.0;0.0;0.0;0.0;0.0;0.0
2.0;1753874609.786795;20.3617;0.85;-1.64;-0.34;0.447796;-0.915228;-0.011624;0.0;0.0;0.0;0.0;0.0;0.0
2.0;1753874609.79185;20.379836;0.72;-1.68;-0.35;0.449785;-0.916203;-0.011265;0.0;0.0;0.0;0.0;0.0;0.0
2.0;1753874609.79717;20.34375;0.91;-1.68;-0.35;0.447374;-0.914756;-0.011468;0.0;0.0;0.0;0.0;0.0;0.0
2.0;1753874609.802225;20.326621;0.85;-1.71;-0.3;0.447017;-0.915039;-0.010974;0.0;0.0;0.0;0.0;0.0;0.0
2.0;1753874609.80728;20.356828;1.01;-1.73;-0.35;0.445799;-0.915841;-0.010773;0.0;0.0;0.0;0.0;0.0;0.0
2.0;1753874609.812335;20.322278;0.99;-1.71;-0.33;0.446659;-0.914418;-0.010229;0.0;0.0;0.0;0.0;0.0;0.0
2.0;1753874609.81739;20.342836;0.92;-1.66;-0.3;0.445223;-0.916684;-0.011328;0.0;0.0;0.0;0.0;0.0;0.0
2.0;1753874609.822445;20.319119;0.84;-1.71;-0.25;0.446998;-0.916053;-0.010427;0.0;0.0;0.0;0.0;0.0;0.0
2.0;1753874609.8275;20.355263;0.8;-1.64;-0.23;0.445529;-0.915497;-0.011046;0.0;0.0;0.0;0.0;0.0;0.0
2.0;1753874609.832554;20.328351;0.9;-1.67;-0.19;0.446329;-0.916965;-0.011051;0.0;0.0;0.0;0.0;0.0;0.0
2.0;1753874609.83761;20.343966;0.89;-1.75;-0.35;0.444276;-0.916589;-0.010306;0.0;0.0;0.0;0.0;0.0;0.0
2.0;1753874609.842664;20.34243;0.86;-1.69;-0.25;0.445829;-0.916512;-0.010002;0.0;0.0;0.0;0.0;0.0;0.0
2.0;1753874609.84741;20.34375;0.91;-1.68;-0.28;0.444812;-0.916464;-0.010248;0.0;0.0;0.0;0.0;0.0;0.0
2.0;1753874609.852465;20.355537;0.85;-1.64;-0.3;0.44391;-0.916329;-0.009563;0.0;0.0;0.0;0.0;0.0;0.0
2.0;1753874609.85752;20.345896;0.89;-1.67;-0.27;0.445362;-0.916609;-0.011045;0.0;0.0;0.0;0.0;0.0;0.0
2.0;1753874609.862575;20.369704;0.85;-1.7;-0.26;0.444266;-0.916776;-0.010071;0.0;0.0;0.0;0.0;0.0;0.0
2.0;1753874609.86763;20.319951;0.9;-1.73;-0.23;0.444606;-0.915551;-0.010556;0.0;0.0;0.0;0.0;0.0;0.0
2.0;1753874609.872685;20.342214;0.88;-1.63;-0.43;0.446241;-0.914982;-0.01034;0.0;0.0;0.0;0.0;0.0;0.0
2.0;1753874609.87774;20.30353;0.86;-1.64;-0.35;0.445059;-0.915474;-0.010729;0.0;0.0;0.0;0.0;0.0;0.0
2.0;1753874609.882794;20.379096;0.93;-1.69;-0.35;0.446727;-0.915833;-0.011524;0.0;0.0;0.0;0.0;0.0;0.0
2.0;1753874609.88785;20.350376;0.81;-1.61;-0.23;0.444967;-0.915014;-0.011222;0.0;0.0;0.0;0.0;0.0;0.0
2.0;1753874609.892904;20.352648;0.89;-1.68;-0.3;0.444057;-0.914357;-0.011052;0.0;0.0;0.0;0.0;0.0;0.0
2.0;1753874609.89796;20.363673;0.87;-1.7;-0.25;0.44445;-0.917523;-0.011039;0.0;0.0;0.0;0.0;0.0;0.0
2.0;1753874609.903014;20.354494;0.86;-1.65;-0.38;0.445448;-0.914055;-0.010415;0.0;0.0;0.0;0.0;0.0;0.0
2.0;1753874609.908069;20.357076;0.86;-1.71;-0.27;0.447128;-0.916585;-0.010182;0.0;0.0;0.0;0.0;0.0;0.0
2.0;1753874609.913124;20.355465;0.77;-1.71;-0.28;0.446272;-0.915291;-0.010432;0.0;0.0;0.0;0.0;0.0;0.0
2.0;1753874609.918179;20.342941;0.82;-1.68;-0.27;0.445768;-0.914557;-0.010498;0.0;0.0;0.0;0.0;0.0;0.0
2.0;1753874609.923234;20.344345;0.82;-1.7;-0.29;0.447469;-0.916194;-0.009999;0.0;0.0;0.0;0.0;0.0;0.0
2.0;1753874609.928289;20.368214;0.87;-1.65;-0.25;0.44475;-0.91556;-0.010568;0.0;0.0;0.0;0.0;0.0;0.0
2.0;1753874609.93713;20.367188;0.84;-1.68;-0.28;0.446764;-0.915122;-0.010858;0.0;0.0;0.0;0.0;0.0;0.0
2.0;1753874609.942185;20.361625;0.83;-1.68;-0.31;0.446419;-0.916319;-0.011268;0.0;0.0;0.0;0.0;0.0;0.0
2.0;1753874609.94724;20.326019;0.84;-1.72;-0.3;0.445834;-0.915428;-0.011754;0.0;0.0;0.0;0.0;0.0;0.0
2.0;1753874609.952295;20.383667;0.79;-1.7;-0.26;0.446924;-0.916224;-0.010813;0.0;0.0;0.0;0.0;0.0;0.0
2.0;1753874609.95735;20.327798;0.86;-1.61;-0.28;0.445719;-0.915209;-0.011628;0.0;0.0;0.0;0.0;0.0;0.0
2.0;1753874609.962405;20.384;0.83;-1.7;-0.28;0.444204;-0.916404;-0.011293;0.0;0.0;0.0;0.0;0.0;0.0
2.0;1753874609.96746;20.365552;0.89;-1.66;-0.36;0.446529;-0.915918;-0.011829;0.0;0.0;0.0;0.0;0.0;0.0
2.0;1753874609.972515;20.352959;0.92;-1.69;-0.33;0.444653;-0.913546;-0.011901;0.0;0.0;0.0;0.0;0.0;0.0
2.0;1753874609.97757;20.360811;0.88;-1.67;-0.36;0.445046;-0.915959;-0.011869;0.0;0.0;0.0;0.0;0.0;0.0
2.0;1753874609.982624;20.349472;0.91;-1.76;-0.31;0.446536;-0.915769;-0.01189;0.0;0.0;0.0;0.0;0.0;0.0
2.0;1753874609.98738;20.367188;0.91;-1.68;-0.28;0.445056;-0.915366;-0.011834;0.0;0.0;0.0;0.0;0.0;0.0
2.0;1753874609.992997;20.359375;0.91;-1.68;-0.35;0.447984;-0.914878;-0.012078;0.0;0.0;0.0;0.0;0.0;0.0
2.0;1753874609.999382;20.359375;0.98;-1.75;-0.28;0.446154;-0.913902;-0.0122;0.0;0.0;0.0;0.0;0.0;0.0
2.0;1753874610.004437;20.365848;0.95;-1.7;-0.21;0.445875;-0.914175;-0.011626;0.0;0.0;0.0;0.0;0.0;0.0
2.0;1753874610.009492;20.358003;0.93;-1.77;-0.25;0.446238;-0.914585;-0.011854;0.0;0.0;0.0;0.0;0.0;0.0
2.0;1753874610.014547;20.378325;1.03;-1.72;-0.26;0.446619;-0.913811;-0.012705;0.0;0.0;0.0;0.0;0.0;0.0
2.0;1753874610.019602;20.368761;0.96;-1.76;-0.21;0.44557;-0.916511;-0.012562;0.0;0.0;0.0;0.0;0.0;0.0
2.0;1753874610.024657;20.361329;1.04;-1.75;-0.28;0.445442;-0.913915;-0.012082;0.0;0.0;0.0;0.0;0.0;0.0
2.0;1753874610.029712;20.352477;0.87;-1.75;-0.29;0.446759;-0.91372;-0.012312;0.0;0.0;0.0;0.0;0.0;0.0
2.0;1753874610.034767;20.345907;0.94;-1.82;-0.27;0.445719;-0.913727;-0.012991;0.0;0.0;0.0;0.0;0.0;0.0
2.0;1753874610.039822;20.358449;0.97;-1.81;-0.25;0.446273;-0.914057;-0.01235;0.0;0.0;0.0;0.0;0.0;0.0
2.0;1753874610.044876;20.365667;0.92;-1.71;-0.32;0.445969;-0.913216;-0.011535;0.0;0.0;0.0;0.0;0.0;0.0
2.0;1753874610.049932;20.356055;1.03;-1.74;-0.27;0.447988;-0.914501;-0.011447;0.0;0.0;0.0;0.0;0.0;0.0
2.0;1753874610.054986;20.346439;0.93;-1.73;-0.27;0.44594;-0.913436;-0.013132;0.0;0.0;0.0;0.0;0.0;0.0
2.0;1753874610.060042;20.359276;0.98;-1.69;-0.28;0.447645;-0.914482;-0.012698;0.0;0.0;0.0;0.0;0.0;0.0
2.0;1753874610.065096;20.376264;0.87;-1.71;-0.25;0.446466;-0.913929;-0.011362;0.0;0.0;0.0;0.0;0.0;0.0
2.0;1753874610.070151;20.345532;1.03;-1.81;-0.33;0.444047;-0.914177;-0.011692;0.0;0.0;0.0;0.0;0.0;0.0
2.0;1753874610.075206;20.359302;0.83;-1.75;-0.37;0.446083;-0.914039;-0.011698;0.0;0.0;0.0;0.0;0.0;0.0
2.0;1753874610.080261;20.375449;0.99;-1.82;-0.34;0.449473;-0.914349;-0.011319;0.0;0.0;0.0;0.0;0.0;0.0
2.0;1753874610.085316;20.367932;0.95;-1.71;-0.35;0.446193;-0.914723;-0.011974;0.0;0.0;0.0;0.0;0.0;0.0
2.0;1753874610.090371;20.379446;0.98;-1.8;-0.21;0.444909;-0.913326;-0.011855;0.0;0.0;0.0;0.0;0.0;0.0
2.0;1753874610.095426;20.336168;0.89;-1.79;-0.27;0.445495;-0.91347;-0.012485;0.0;0.0;0.0;0.0;0.0;0.0
2.0;1753874610.100481;20.392446;0.98;-1.8;-0.21;0.444947;-0.913702;-0.012818;0.0;0.0;0.0;0.0;0.0;0.0
2.0;1753874610.105536;20.359624;1.03;-1.74;-0.35;0.447127;-0.913714;-0.012294;0.0;0.0;0.0;0.0;0.0;0.0
2.0;1753874610.110591;20.360622;0.97;-1.64;-0.27;0.446931;-0.913113;-0.012721;0.0;0.0;0.0;0.0;0.0;0.0
2.0;1753874610.115646;20.373695;0.89;-1.68;-0.23;0.447357;-0.914673;-0.011635;0.0;0.0;0.0;0.0;0.0;0.0
2.0;1753874610.120701;20.365735;0.99;-1.78;-0.35;0.445753;-0.91329;-0.013056;0.0;0.0;0.0;0.0;0.0;0.0
2.0;1753874610.125756;20.359011;0.93;-1.75;-0.28;0.447716;-0.914263;-0.012159;0.0;0.0;0.0;0.0;0.0;0.0
2.0;1753874610.130811;20.361128;0.97;-1.66;-0.27;0.447222;-0.913327;-0.011807;0.0;0.0;0.0;0.0;0.0;0.0
2.0;1753874610.135866;20.321827;0.94;-1.65;-0.33;0.446522;-0.91461;-0.011528;0.0;0.0;0.0;0.0;0.0;0.0
2.0;1753874610.140921;20.357154;0.96;-1.83;-0.23;0.446986;-0.914122;-0.010942;0.0;0.0;0.0;0.0;0.0;0.0
2.0;1753874610.145976;20.355527;0.91;-1.7;-0.3;0.446934;-0.91448;-0.011625;0.0;0.0;0.0;0.0;0.0;0.0
2.0;1753874610.15103;20.348303;0.96;-1.66;-0.36;0.445562;-0.914166;-0.010235;0.0;0.0;0.0;0.0;0.0;0.0
2.0;1753874610.156086;20.347253;1.05;-1.73;-0.24;0.446682;-0.914822;-0.011955;0.0;0.0;0.0;0.0;0.0;0.0
2.0;1753874610.16114;20.362;0.96;-1.69;-0.29;0.445806;-0.915356;-0.012535;0.0;0.0;0.0;0.0;0.0;0.0
2.0;1753874610.166196;20.361667;1.03;-1.7;-0.29;0.447122;-0.914833;-0.012609;0.0;0.0;0.0;0.0;0.0;0.0
2.0;1753874610.17125;20.379865;0.89;-1.68;-0.34;0.446278;-0.914252;-0.012505;0.0;0.0;0.0;0.0;0.0;0.0
2.0;1753874610.176305;20.355483;0.99;-1.71;-0.32;0.450016;-0.914949;-0.012019;0.0;0.0;0.0;0.0;0.0;0.0
2.0;1753874610.18136;20.355178;0.96;-1.65;-0.29;0.445357;-0.914314;-0.012069;0.0;0.0;0.0;0.0;0.0;0.0
2.0;1753874610.186415;20.343776;0.92;-1.68;-0.24;0.445717;-0.914631;-0.010131;0.0;0.0;0.0;0.0;0.0;0.0
2.0;1753874610.19147;20.359851;1.07;-1.69;-0.28;0.448615;-0.91335;-0.010477;0.0;0.0;0.0;0.0;0.0;0.0
2.0;1753874610.196525;20.382652;0.92;-1.65;-0.35;0.445646;-0.91442;-0.012011;0.0;0.0;0.0;0.0;0.0;0.0
2.0;1753874610.20158;20.353635;1.0;-1.7;-0.3;0.447253;-0.91393;-0.011364;0.0;0.0;0.0;0.0;0.0;0.0
2.0;1753874610.206635;20.37064;0.91;-1.74;-0.33;0.446137;-0.91347;-0.011802;0.0;0.0;0.0;0.0;0.0;0.0
2.0;1753874610.21169;20.351437;1.05;-1.74;-0.27;0.448279;-0.914936;-0.011774;0.0;0.0;0.0;0.0;0.0;0.0
2.0;1753874610.216745;20.324732;0.92;-1.73;-0.27;0.44657;-0.914304;-0.011419;0.0;0.0;0.0;0.0;0.0;0.0
2.0;1753874610.2218;20.351656;0.98;-1.75;-0.32;0.444653;-0.91464;-0.012011;0.0;0.0;0.0;0.0;0.0;0.0
2.0;1753874610.226855;20.330893;1.01;-1.71;-0.3;0.445278;-0.914824;-0.010416;0.0;0.0;0.0;0.0;0.0;0.0
2.0;1753874610.23191;20.351659;0.98;-1.65;-0.23;0.449267;-0.913296;-0.010746;0.0;0.0;0.0;0.0;0.0;0.0
2.0;1753874610.236965;20.366735;0.97;-1.7;-0.27;0.446727;-0.915386;-0.011566;0.0;0.0;0.0;0.0;0.0;0.0
2.0;1753874610.24202;20.348103;0.92;-1.61;-0.33;0.44649;-0.915121;-0.010792;0.0;0.0;0.0;0.0;0.0;0.0
2.0;1753874610.247074;20.362585;1.0;-1.65;-0.26;0.446838;-0.914093;-0.011192;0.0;0.0;0.0;0.0;0.0;0.0
2.0;1753874610.25213;20.365599;0.92;-1.64;-0.34;0.448389;-0.912857;-0.01177;0.0;0.0;0.0;0.0;0.0;0.0
2.0;1753874610.257184;20.379655;0.82;-1.69;-0.25;0.448298;-0.914539;-0.010981;0.0;0.0;0.0;0.0;0.0;0.0
2.0;1753874610.26224;20.370484;1.0;-1.72;-0.28;0.449173;-0.914384;-0.010084;0.0;0.0;0.0;0.0;0.0;0.0
2.0;1753874610.267294;20.365899;0.95;-1.7;-0.34;0.445893;-0.913952;-0.011057;0.0;0.0;0.0;0.0;0.0;0.0
2.0;1753874610.272349;20.354344;1.03;-1.67;-0.27;0.44687;-0.915477;-0.011962;0.0;0.0;0.0;0.0;0.0;0.0
2.0;1753874610.277404;20.337439;0.94;-1.76;-0.26;0.448059;-0.914825;-0.010777;0.0;0.0;0.0;0.0;0.0;0.0
2.0;1753874610.282459;20.337935;0.99;-1.66;-0.2;0.446325;-0.913959;-0.012015;0.0;0.0;0.0;0.0;0.0;0.0
2.0;1753874610.287514;20.365475;0.99;-1.72;-0.3;0.446997;-0.913874;-0.011262;0.0;0.0;0.0;0.0;0.0;0.0
2.0;1753874610.292569;20.342628;0.91;-1.7;-0.26;0.448716;-0.914806;-0.01158;0.0;0.0;0.0;0.0;0.0;0.0
2.0;1753874610.297624;20.355466;0.92;-1.64;-0.25;0.448822;-0.914562;-0.011592;0.0;0.0;0.0;0.0;0.0;0.0
2.0;1753874610.302679;20.345975;0.94;-1.64;-0.29;0.447787;-0.913692;-0.0111;0.0;0.0;0.0;0.0;0.0;0.0
2.0;1753874610.307734;20.37065;0.94;-1.61;-0.3;0.445557;-0.91506;-0.011165;0.0;0.0;0.0;0.0;0.0;0.0
2.0;1753874610.312789;20.346381;0.97;-1.65;-0.34;0.447098;-0.914854;-0.011553;0.0;0.0;0.0;0.0;0.0;0.0
2.0;1753874610.317844;20.361256;0.97;-1.63;-0.3;0.448348;-0.914516;-0.010198;0.0;0.0;0.0;0.0;0.0;0.0
2.0;1753874610.322899;20.373966;0.95;-1.63;-0.24;0.447186;-0.914178;-0.01066;0.0;0.0;0.0;0.0;0.0;0.0
2.0;1753874610.327954;20.373789;0.88;-1.63;-0.23;0.448002;-0.914669;-0.010295;0.0;0.0;0.0;0.0;0.0;0.0
2.0;1753874610.333009;20.375413;0.96;-1.68;-0.17;0.44829;-0.915005;-0.010995;0.0;0.0;0.0;0.0;0.0;0.0
2.0;1753874610.338064;20.366841;1.02;-1.59;-0.24;0.446952;-0.914262;-0.010855;0.0;0.0;0.0;0.0;0.0;0.0
2.0;1753874610.343119;20.36907;0.98;-1.64;-0.26;0.446048;-0.914814;-0.011263;0.0;0.0;0.0;0.0;0.0;0.0
2.0;1753874610.348174;20.357186;0.97;-1.6;-0.34;0.448645;-0.914968;-0.010523;0.0;0.0;0.0;0.0;0.0;0.0
2.0;1753874610.353228;20.366226;0.88;-1.65;-0.24;0.44706;-0.914362;-0.010618;0.0;0.0;0.0;0.0;0.0;0.0
2.0;1753874610.358284;20.354327;0.88;-1.67;-0.27;0.447671;-0.915139;-0.011149;0.0;0.0;0.0;0.0;0.0;0.0
2.0;1753874610.363338;20.371783;0.86;-1.63;-0.34;0.448725;-0.913034;-0.011621;0.0;0.0;0.0;0.0;0.0;0.0
2.0;1753874610.368394;20.348195;0.94;-1.68;-0.26;0.447434;-0.914279;-0.010353;0.0;0.0;0.0;0.0;0.0;0.0
2.0;1753874610.373448;20.377539;0.85;-1.69;-0.28;0.449414;-0.914993;-0.010883;0.0;0.0;0.0;0.0;0.0;0.0
2.0;1753874610.378503;20.334018;0.9;-1.67;-0.28;0.447477;-0.915349;-0.011144;0.0;0.0;0.0;0.0;0.0;0.0
2.0;1753874610.383558;20.364865;0.97;-1.64;-0.24;0.447143;-0.913467;-0.010571;0.0;0.0;0.0;0.0;0.0;0.0
2.0;1753874610.388613;20.384288;0.9;-1.64;-0.35;0.446782;-0.914095;-0.010511;0.0;0.0;0.0;0.0;0.0;0.0
2.0;1753874610.393668;20.363688;0.87;-1.73;-0.21;0.450082;-0.914599;-0.010602;0.0;0.0;0.0;0.0;0.0;0.0
2.0;1753874610.398723;20.351123;0.96;-1.58;-0.3;0.447255;-0.913553;-0.011226;0.0;0.0;0.0;0.0;0.0;0.0
2.0;1753874610.403778;20.381647;0.93;-1.66;-0.24;0.447698;-0.915058;-0.010891;0.0;0.0;0.0;0.0;0.0;0.0
2.0;1753874610.408833;20.341943;1.02;-1.7;-0.31;0.446273;-0.914865;-0.009798;0.0;0.0;0.0;0.0;0.0;0.0
2.0;1753874610.413888;20.36071;0.96;-1.64;-0.34;0.447314;-0.914989;-0.01012;0.0;0.0;0.0;0.0;0.0;0.0
2.0;1753874610.418943;20.356148;0.87;-1.61;-0.25;0.449869;-0.915066;-0.010314;0.0;0.0;0.0;0.0;0.0;0.0
2.0;1753874610.423998;20.363596;0.93;-1.61;-0.25;0.447896;-0.916074;-0.010146;0.0;0.0;0.0;0.0;0.0;0.0
2.0;1753874610.429053;20.352299;0.91;-1.64;-0.27;0.448741;-0.91509;-0.010972;0.0;0.0;0.0;0.0;0.0;0.0
2.0;1753874610.434108;20.373585;0.91;-1.53;-0.3;0.44794;-0.913925;-0.011112;0.0;0.0;0.0;0.0;0.0;0.0
2.0;1753874610.439163;20.350648;0.93;-1.61;-0.3;0.449292;-0.914913;-0.010866;0.0;0.0;0.0;0.0;0.0;0.0
2.0;1753874610.444218;20.345377;0.93;-1.52;-0.3;0.447997;-0.915156;-0.010457;0.0;0.0;0.0;0.0;0.0;0.0
2.0;1753874610.449273;20.365275;0.84;-1.62;-0.29;0.445411;-0.913439;-0.009091;0.0;0.0;0.0;0.0;0.0;0.0
2.0;1753874610.454328;20.392049;0.89;-1.64;-0.23;0.449588;-0.915396;-0.0105;0.0;0.0;0.0;0.0;0.0;0.0
2.0;1753874610.459382;20.366174;0.91;-1.62;-0.26;0.446585;-0.915391;-0.009846;0.0;0.0;0.0;0.0;0.0;0.0
2.0;1753874610.464438;20.364289;0.99;-1.5;-0.3;0.448376;-0.914243;-0.010896;0.0;0.0;0.0;0.0;0.0;0.0
2.0;1753874610.469492;20.363877;0.94;-1.62;-0.35;0.447175;-0.913999;-0.009919;0.0;0.0;0.0;0.0;0.0;0.0
2.0;1753874610.474548;20.344242;0.86;-1.53;-0.35;0.447633;-0.915162;-0.009808;0.0;0.0;0.0;0.0;0.0;0.0
2.0;1753874610.4792;20.359375;0.91;-1.61;-0.28;0.448472;-0.914878;-0.010248;0.0;0.0;0.0;0.0;0.0;0.0
2.0;1753874610.484255;20.350759;0.81;-1.64;-0.32;0.448285;-0.913681;-0.010343;0.0;0.0;0.0;0.0;0.0;0.0
2.0;1753874610.48931;20.324044;0.98;-1.68;-0.27;0.4476;-0.914022;-0.010338;0.0;0.0;0.0;0.0;0.0;0.0
2.0;1753874610.494365;20.328321;0.87;-1.73;-0.31;0.448076;-0.915015;-0.010152;0.0;0.0;0.0;0.0;0.0;0.0
2.0;1753874610.49942;20.360077;0.94;-1.65;-0.24;0.448234;-0.915728;-0.009945;0.0;0.0;0.0;0.0;0.0;0.0
2.0;1753874610.504475;20.369278;0.87;-1.54;-0.25;0.448436;-0.915731;-0.01123;0.0;0.0;0.0;0.0;0.0;0.0
2.0;1753874610.50953;20.360617;0.94;-1.57;-0.28;0.449413;-0.916468;-0.009548;0.0;0.0;0.0;0.0;0.0;0.0
2.0;1753874610.514584;20.34667;0.93;-1.49;-0.19;0.447284;-0.916767;-0.010349;0.0;0.0;0.0;0.0;0.0;0.0
2.0;1753874610.51964;20.361061;0.81;-1.65;-0.38;0.449048;-0.91483;-0.010182;0.0;0.0;0.0;0.0;0.0;0.0
2.0;1753874610.524694;20.357593;0.99;-1.64;-0.29;0.448352;-0.916282;-0.009077;0.0;0.0;0.0;0.0;0.0;0.0
2.0;1753874610.52975;20.37132;0.89;-1.58;-0.24;0.447977;-0.914209;-0.011023;0.0;0.0;0.0;0.0;0.0;0.0
2.0;1753874610.534804;20.343145;0.78;-1.61;-0.32;0.448424;-0.91491;-0.010447;0.0;0.0;0.0;0.0;0.0;0.0
2.0;1753874610.539859;20.34283;0.9;-1.65;-0.31;0.448874;-0.914321;-0.010311;0.0;0.0;0.0;0.0;0.0;0.0
2.0;1753874610.544914;20.340605;0.89;-1.63;-0.32;0.449693;-0.914775;-0.010327;0.0;0.0;0.0;0.0;0.0;0.0
2.0;1753874610.549969;20.380737;0.95;-1.58;-0.38;0.448143;-0.914875;-0.00933;0.0;0.0;0.0;0.0;0.0;0.0
2.0;1753874610.555024;20.327361;0.94;-1.6;-0.3;0.448256;-0.914207;-0.009895;0.0;0.0;0.0;0.0;0.0;0.0
2.0;1753874610.560079;20.343865;0.87;-1.61;-0.24;0.448215;-0.914857;-0.010722;0.0;0.0;0.0;0.0;0.0;0.0
2.0;1753874610.565134;20.359662;0.9;-1.69;-0.31;0.445513;-0.915451;-0.011278;0.0;0.0;0.0;0.0;0.0;0.0
2.0;1753874610.570189;20.358167;1.02;-1.77;-0.33;0.448248;-0.914857;-0.010329;0.0;0.0;0.0;0.0;0.0;0.0
2.0;1753874610.575244;20.352893;0.96;-1.59;-0.32;0.449223;-0.915266;-0.011583;0.0;0.0;0.0;0.0;0.0;0.0
2.0;1753874610.580299;20.387828;0.92;-1.62;-0.32;0.44967;-0.913856;-0.009848;0.0;0.0;0.0;0.0;0.0;0.0
2.0;1753874610.585354;20.353168;0.92;-1.62;-0.23;0.448068;-0.914414;-0.010675;0.0;0.0;0.0;0.0;0.0;0.0
2.0;1753874610.590409;20.36995;1.04;-1.69;-0.32;0.44761;-0.914695;-0.009291;0.0;0.0;0.0;0.0;0.0;0.0
2.0;1753874610.595464;20.3783;0.92;-1.68;-0.34;0.448166;-0.914539;-0.009854;0.0;0.0;0.0;0.0;0.0;0.0
2.0;1753874610.600519;20.344963;0.98;-1.65;-0.33;0.447369;-0.914101;-0.010231;0.0;0.0;0.0;0.0;0.0;0.0
2.0;1753874610.605574;20.379191;0.96;-1.65;-0.26;0.450207;-0.914219;-0.010688;0.0;0.0;0.0;0.0;0.0;0.0
2.0;1753874610.610628;20.350438;0.97;-1.67;-0.2;0.447305;-0.91523;-0.011356;0.0;0.0;0.0;0.0;0.0;0.0
2.0;1753874610.615684;20.356842;0.97;-1.62;-0.35;0.447995;-0.914498;-0.011637;0.0;0.0;0.0;0.0;0.0;0.0
2.0;1753874610.620738;20.34532;0.96;-1.64;-0.28;0.446911;-0.914809;-0.011753;0.0;0.0;0.0;0.0;0.0;0.0
2.0;1753874610.625794;20.365821;0.93;-1.65;-0.33;0.448485;-0.914397;-0.010293;0.0;0.0;0.0;0.0;0.0;0.0
2.0;1753874610.630848;20.355119;0.84;-1.57;-0.3;0.446714;-0.915276;-0.010624;0.0;0.0;0.0;0.0;0.0;0.0
2.0;1753874610.635903;20.367887;0.99;-1.69;-0.38;0.44649;-0.913948;-0.010472;0.0;0.0;0.0;0.0;0.0;0.0
2.0;1753874610.640958;20.34368;0.96;-1.67;-0.19;0.448958;-0.915263;-0.01165;0.0;0.0;0.0;0.0;0.0;0.0
2.0;1753874610.646013;20.367211;0.91;-1.71;-0.26;0.447782;-0.913806;-0.009506;0.0;0.0;0.0;0.0;0.0;0.0
2.0;1753874610.651068;20.363247;1.06;-1.65;-0.29;0.448412;-0.913599;-0.010774;0.0;0.0;0.0;0.0;0.0;0.0
2.0;1753874610.656123;20.375564;0.94;-1.64;-0.29;0.446893;-0.914732;-0.010987;0.0;0.0;0.0;0.0;0.0;0.0
2.0;1753874610.661178;20.349495;0.98;-1.71;-0.26;0.44602;-0.914493;-0.010793;0.0;0.0;0.0;0.0;0.0;0.0
2.0;1753874610.666233;20.345168;0.96;-1.66;-0.32;0.44779;-0.914093;-0.010898;0.0;0.0;0.0;0.0;0.0;0.0
2.0;1753874610.671288;20.345427;1.0;-1.69;-0.36;0.447797;-0.914944;-0.011088;0.0;0.0;0.0;0.0;0.0;0.0
2.0;1753874610.676343;20.365886;0.94;-1.67;-0.26;0.447863;-0.914583;-0.010722;0.0;0.0;0.0;0.0;0.0;0.0
2.0;1753874610.681398;20.371298;0.94;-1.7;-0.29;0.448326;-0.912386;-0.011654;0.0;0.0;0.0;0.0;0.0;0.0
2.0;1753874610.686453;20.367875;1.15;-1.76;-0.31;0.449377;-0.914798;-0.013229;0.0;0.0;0.0;0.0;0.0;0.0
2.0;1753874610.691508;20.371633;0.93;-1.72;-0.33;0.450406;-0.913646;-0.011005;0.0;0.0;0.0;0.0;0.0;0.0
2.0;1753874610.696563;20.358933;0.95;-1.72;-0.33;0.446173;-0.914736;-0.010378;0.0;0.0;0.0;0.0;0.0;0.0
2.0;1753874610.701618;20.363132;0.97;-1.65;-0.34;0.447857;-0.91439;-0.010433;0.0;0.0;0.0;0.0;0.0;0.0
2.0;1753874610.706673;20.365058;1.04;-1.68;-0.27;0.447063;-0.915618;-0.011272;0.0;0.0;0.0;0.0;0.0;0.0
2.0;1753874610.711728;20.37314;1.1;-1.67;-0.33;0.446623;-0.913808;-0.011818;0.0;0.0;0.0;0.0;0.0;0.0
2.0;1753874610.716782;20.38581;1.12;-1.68;-0.33;0.446879;-0.914007;-0.010961;0.0;0.0;0.0;0.0;0.0;0.0
2.0;1753874610.721838;20.346147;0.97;-1.72;-0.34;0.447205;-0.914432;-0.01145;0.0;0.0;0.0;0.0;0.0;0.0
2.0;1753874610.726892;20.364934;0.97;-1.61;-0.35;0.446458;-0.913515;-0.010667;0.0;0.0;0.0;0.0;0.0;0.0
2.0;1753874610.731948;20.357852;0.98;-1.72;-0.37;0.449478;-0.914743;-0.010977;0.0;0.0;0.0;0.0;0.0;0.0
2.0;1753874610.737002;20.380319;0.96;-1.76;-0.36;0.448584;-0.91428;-0.011057;0.0;0.0;0.0;0.0;0.0;0.0
2.0;1753874610.742057;20.36055;0.99;-1.68;-0.34;0.447284;-0.912851;-0.011487;0.0;0.0;0.0;0.0;0.0;0.0
2.0;1753874610.747112;20.356102;1.03;-1.66;-0.35;0.447451;-0.912379;-0.011765;0.0;0.0;0.0;0.0;0.0;0.0
2.0;1753874610.752167;20.368142;1.07;-1.75;-0.25;0.447814;-0.914503;-0.011114;0.0;0.0;0.0;0.0;0.0;0.0
2.0;1753874610.757222;20.349876;0.94;-1.66;-0.36;0.445977;-0.91393;-0.011522;0.0;0.0;0.0;0.0;0.0;0.0
2.0;1753874610.762277;20.356756;1.1;-1.69;-0.34;0.4478;-0.914506;-0.011111;0.0;0.0;0.0;0.0;0.0;0.0
2.0;1753874610.767332;20.392723;1.03;-1.74;-0.29;0.448011;-0.914738;-0.011246;0.0;0.0;0.0;0.0;0.0;0.0
2.0;1753874610.772387;20.372502;1.02;-1.72;-0.3;0.447082;-0.91522;-0.011634;0.0;0.0;0.0;0.0;0.0;0.0
2.0;1753874610.777442;20.355672;0.94;-1.63;-0.32;0.445364;-0.91325;-0.011856;0.0;0.0;0.0;0.0;0.0;0.0
2.0;1753874610.782497;20.347647;0.99;-1.76;-0.37;0.447425;-0.914063;-0.011227;0.0;0.0;0.0;0.0;0.0;0.0
2.0;1753874610.787552;20.360805;1.11;-1.71;-0.3;0.449238;-0.914867;-0.011917;0.0;0.0;0.0;0.0;0.0;0.0
2.0;1753874610.792607;20.378071;1.03;-1.74;-0.39;0.446344;-0.913729;-0.011271;0.0;0.0;0.0;0.0;0.0;0.0
2.0;1753874610.797662;20.364819;1.02;-1.8;-0.35;0.449199;-0.91432;-0.011135;0.0;0.0;0.0;0.0;0.0;0.0
2.0;1753874610.802717;20.352162;0.93;-1.73;-0.38;0.447153;-0.912597;-0.011618;0.0;0.0;0.0;0.0;0.0;0.0
2.0;1753874610.807772;20.35103;0.96;-1.7;-0.34;0.447623;-0.914228;-0.011041;0.0;0.0;0.0;0.0;0.0;0.0
2.0;1753874610.812827;20.347236;1.01;-1.64;-0.34;0.446562;-0.913652;-0.011542;0.0;0.0;0.0;0.0;0.0;0.0
2.0;1753874610.817882;20.355508;1.06;-1.72;-0.3;0.447634;-0.913017;-0.011183;0.0;0.0;0.0;0.0;0.0;0.0
2.0;1753874610.822936;20.360583;1.0;-1.74;-0.37;0.448406;-0.913822;-0.011111;0.0;0.0;0.0;0.0;0.0;0.0
2.0;1753874610.827992;20.347472;0.99;-1.68;-0.35;0.446841;-0.91386;-0.011872;0.0;0.0;0.0;0.0;0.0;0.0
2.0;1753874610.833046;20.358331;1.05;-1.74;-0.34;0.448598;-0.913737;-0.011356;0.0;0.0;0.0;0.0;0.0;0.0
2.0;1753874610.838102;20.382607;0.96;-1.76;-0.37;0.445834;-0.914434;-0.011473;0.0;0.0;0.0;0.0;0.0;0.0
2.0;1753874610.843156;20.359202;1.08;-1.79;-0.39;0.446913;-0.913595;-0.011446;0.0;0.0;0.0;0.0;0.0;0.0
2.0;1753874610.848211;20.346645;1.12;-1.71;-0.34;0.446874;-0.912603;-0.011283;0.0;0.0;0.0;0.0;0.0;0.0
2.0;1753874610.853266;20.337055;1.09;-1.76;-0.33;0.446181;-0.913772;-0.011729;0.0;0.0;0.0;0.0;0.0;0.0
2.0;1753874610.858321;20.369341;1.12;-1.77;-0.33;0.447309;-0.913739;-0.011561;0.0;0.0;0.0;0.0;0.0;0.0
2.0;1753874610.863376;20.34215;1.02;-1.64;-0.37;0.448481;-0.913389;-0.011831;0.0;0.0;0.0;0.0;0.0;0.0
2.0;1753874610.868431;20.35452;1.12;-1.76;-0.36;0.447881;-0.913722;-0.011605;0.0;0.0;0.0;0.0;0.0;0.0
2.0;1753874610.878;20.359375;1.05;-1.75;-0.35;0.447374;-0.913536;-0.01159;0.0;0.0;0.0;0.0;0.0;0.0
2.0;1753874610.883055;20.364055;1.05;-1.75;-0.3;0.447887;-0.913298;-0.012255;0.0;0.0;0.0;0.0;0.0;0.0
2.0;1753874610.88811;20.350589;1.07;-1.67;-0.29;0.449655;-0.913631;-0.011978;0.0;0.0;0.0;0.0;0.0;0.0
2.0;1753874610.893165;20.375821;1.06;-1.75;-0.29;0.447747;-0.913373;-0.010442;0.0;0.0;0.0;0.0;0.0;0.0
2.0;1753874610.89822;20.370265;0.93;-1.71;-0.3;0.448975;-0.913804;-0.01051;0.0;0.0;0.0;0.0;0.0;0.0
2.0;1753874610.903275;20.350355;0.94;-1.75;-0.32;0.447832;-0.914622;-0.011302;0.0;0.0;0.0;0.0;0.0;0.0
2.0;1753874610.90833;20.373602;1.01;-1.71;-0.32;0.447038;-0.914756;-0.011032;0.0;0.0;0.0;0.0;0.0;0.0
2.0;1753874610.913385;20.382386;0.94;-1.73;-0.26;0.446774;-0.915218;-0.012351;0.0;0.0;0.0;0.0;0.0;0.0
2.0;1753874610.91993;20.367188;0.98;-1.75;-0.28;0.446764;-0.914634;-0.011468;0.0;0.0;0.0;0.0;0.0;0.0
2.0;1753874610.924985;20.35634;0.93;-1.8;-0.28;0.447831;-0.91527;-0.012007;0.0;0.0;0.0;0.0;0.0;0.0
2.0;1753874610.93004;20.370935;0.92;-1.78;-0.37;0.446127;-0.913553;-0.012152;0.0;0.0;0.0;0.0;0.0;0.0
2.0;1753874610.935095;20.359659;0.95;-1.75;-0.36;0.445302;-0.915428;-0.010988;0.0;0.0;0.0;0.0;0.0;0.0
2.0;1753874610.94015;20.355568;0.98;-1.82;-0.39;0.446276;-0.914393;-0.011275;0.0;0.0;0.0;0.0;0.0;0.0
2.0;1753874610.945205;20.352914;0.97;-1.61;-0.36;0.448358;-0.915748;-0.011548;0.0;0.0;0.0;0.0;0.0;0.0
2.0;1753874610.95026;20.360403;0.91;-1.75;-0.39;0.447584;-0.915077;-0.01055;0.0;0.0;0.0;0.0;0.0;0.0
2.0;1753874610.95533;20.351562;0.91;-1.68;-0.42;0.447862;-0.915244;-0.010858;0.0;0.0;0.0;0.0;0.0;0.0
2.0;1753874610.960385;20.351748;0.92;-1.59;-0.45;0.44944;-0.914605;-0.010856;0.0;0.0;0.0;0.0;0.0;0.0
2.0;1753874610.96544;20.344906;0.96;-1.67;-0.45;0.447927;-0.913599;-0.011842;0.0;0.0;0.0;0.0;0.0;0.0
2.0;1753874610.970495;20.34336;0.86;-1.79;-0.24;0.447671;-0.913043;-0.010292;0.0;0.0;0.0;0.0;0.0;0.0
2.0;1753874610.97555;20.37267;0.83;-1.65;-0.38;0.447419;-0.914562;-0.01073;0.0;0.0;0.0;0.0;0.0;0.0
2.0;1753874610.980605;20.342495;0.84;-1.76;-0.25;0.44673;-0.914403;-0.011473;0.0;0.0;0.0;0.0;0.0;0.0
2.0;1753874610.98566;20.343923;0.92;-1.63;-0.39;0.446215;-0.914211;-0.011198;0.0;0.0;0.0;0.0;0.0;0.0
2.0;1753874610.990714;20.357584;0.84;-1.64;-0.33;0.447908;-0.914016;-0.011362;0.0;0.0;0.0;0.0;0.0;0.0
2.0;1753874610.99765;20.351562;0.84;-1.68;-0.28;0.447008;-0.912804;-0.012566;0.0;0.0;0.0;0.0;0.0;0.0
2.0;1753874611.002705;20.347498;0.85;-1.77;-0.38;0.446067;-0.913768;-0.011375;0.0;0.0;0.0;0.0;0.0;0.0
2.0;1753874611.00776;20.327404;0.83;-1.63;-0.34;0.443948;-0.914426;-0.011729;0.0;0.0;0.0;0.0;0.0;0.0
2.0;1753874611.012815;20.396774;0.81;-1.7;-0.31;0.451012;-0.911542;-0.013075;0.0;0.0;0.0;0.0;0.0;0.0
2.0;1753874611.01787;20.361459;0.83;-1.67;-0.26;0.450525;-0.913279;-0.014295;0.0;0.0;0.0;0.0;0.0;0.0
2.0;1753874611.022925;20.327692;0.94;-1.67;-0.26;0.442846;-0.912759;-0.012174;0.0;0.0;0.0;0.0;0.0;0.0
2.0;1753874611.02798;20.383351;0.9;-1.72;-0.24;0.446818;-0.912783;-0.013289;0.0;0.0;0.0;0.0;0.0;0.0
2.0;1753874611.033034;20.363743;0.8;-1.66;-0.28;0.445373;-0.911815;-0.013173;0.0;0.0;0.0;0.0;0.0;0.0
2.0;1753874611.03809;20.393164;0.83;-1.68;-0.27;0.442988;-0.911925;-0.015376;0.0;0.0;0.0;0.0;0.0;0.0
2.0;1753874611.043144;20.351708;0.85;-1.68;-0.3;0.442526;-0.913414;-0.01269;0.0;0.0;0.0;0.0;0.0;0.0
2.0;1753874611.0482;20.336882;0.8;-1.7;-0.29;0.446306;-0.913714;-0.010408;0.0;0.0;0.0;0.0;0.0;0.0
2.0;1753874611.053254;20.335853;0.85;-1.55;-0.28;0.447752;-0.912388;-0.01052;0.0;0.0;0.0;0.0;0.0;0.0
2.0;1753874611.058309;20.335518;0.84;-1.74;-0.27;0.446625;-0.913909;-0.012031;0.0;0.0;0.0;0.0;0.0;0.0
2.0;1753874611.063364;20.373619;0.92;-1.67;-0.31;0.448526;-0.91309;-0.013503;0.0;0.0;0.0;0.0;0.0;0.0
2.0;1753874611.068419;20.352077;0.85;-1.7;-0.35;0.446166;-0.913498;-0.012736;0.0;0.0;0.0;0.0;0.0;0.0
2.0;1753874611.073474;20.345838;0.84;-1.69;-0.28;0.448882;-0.917613;-0.012269;0.0;0.0;0.0;0.0;0.0;0.0
2.0;1753874611.078529;20.3274;0.75;-1.63;-0.27;0.447661;-0.913041;-0.013742;0.0;0.0;0.0;0.0;0.0;0.0
2.0;1753874611.083584;20.364546;0.78;-1.71;-0.35;0.444725;-0.913822;-0.01156;0.0;0.0;0.0;0.0;0.0;0.0
2.0;1753874611.088639;20.364407;0.81;-1.68;-0.34;0.446049;-0.913844;-0.013269;0.0;0.0;0.0;0.0;0.0;0.0
2.0;1753874611.093694;20.345211;0.83;-1.65;-0.33;0.449499;-0.91379;-0.01307;0.0;0.0;0.0;0.0;0.0;0.0
2.0;1753874611.098749;20.342196;0.9;-1.66;-0.2;0.448727;-0.913355;-0.013844;0.0;0.0;0.0;0.0;0.0;0.0
2.0;1753874611.103804;20.370343;0.83;-1.69;-0.33;0.446023;-0.911836;-0.01355;0.0;0.0;0.0;0.0;0.0;0.0
2.0;1753874611.108859;20.379309;0.86;-1.7;-0.28;0.44555;-0.914256;-0.012288;0.0;0.0;0.0;0.0;0.0;0.0
2.0;1753874611.113914;20.33409;0.87;-1.72;-0.29;0.445336;-0.913927;-0.014902;0.0;0.0;0.0;0.0;0.0;0.0
2.0;1753874611.118969;20.324735;0.79;-1.65;-0.23;0.445041;-0.912604;-0.011149;0.0;0.0;0.0;0.0;0.0;0.0
2.0;1753874611.124024;20.396074;0.79;-1.66;-0.24;0.447114;-0.913576;-0.012621;0.0;0.0;0.0;0.0;0.0;0.0
2.0;1753874611.129079;20.346823;0.79;-1.65;-0.32;0.444802;-0.914915;-0.013951;0.0;0.0;0.0;0.0;0.0;0.0
2.0;1753874611.134134;20.355227;0.84;-1.69;-0.26;0.445991;-0.913053;-0.010745;0.0;0.0;0.0;0.0;0.0;0.0
2.0;1753874611.139188;20.362725;0.75;-1.7;-0.25;0.443569;-0.912637;-0.010633;0.0;0.0;0.0;0.0;0.0;0.0
2.0;1753874611.144244;20.388769;0.88;-1.69;-0.32;0.448181;-0.914405;-0.013083;0.0;0.0;0.0;0.0;0.0;0.0
2.0;1753874611.149298;20.377258;0.81;-1.73;-0.34;0.444761;-0.914988;-0.01225;0.0;0.0;0.0;0.0;0.0;0.0
2.0;1753874611.154354;20.355113;0.87;-1.71;-0.3;0.448294;-0.91332;-0.0144;0.0;0.0;0.0;0.0;0.0;0.0
2.0;1753874611.159408;20.360608;0.87;-1.7;-0.22;0.446729;-0.911965;-0.013486;0.0;0.0;0.0;0.0;0.0;0.0
2.0;1753874611.164463;20.345539;0.85;-1.7;-0.25;0.448607;-0.912995;-0.009778;0.0;0.0;0.0;0.0;0.0;0.0
2.0;1753874611.169518;20.348237;0.79;-1.76;-0.25;0.445921;-0.914618;-0.012405;0.0;0.0;0.0;0.0;0.0;0.0
2.0;1753874611.174573;20.35867;0.79;-1.74;-0.3;0.44862;-0.914615;-0.01231;0.0;0.0;0.0;0.0;0.0;0.0
2.0;1753874611.179628;20.352795;0.82;-1.66;-0.25;0.445149;-0.91255;-0.013469;0.0;0.0;0.0;0.0;0.0;0.0
2.0;1753874611.184683;20.349544;0.93;-1.7;-0.25;0.44664;-0.913813;-0.011517;0.0;0.0;0.0;0.0;0.0;0.0
2.0;1753874611.189738;20.374698;0.92;-1.66;-0.23;0.449146;-0.913768;-0.012514;0.0;0.0;0.0;0.0;0.0;0.0
2.0;1753874611.194793;20.366771;0.83;-1.66;-0.27;0.444767;-0.917049;-0.014187;0.0;0.0;0.0;0.0;0.0;0.0
2.0;1753874611.199848;20.365731;0.89;-1.68;-0.33;0.444577;-0.914885;-0.012633;0.0;0.0;0.0;0.0;0.0;0.0
2.0;1753874611.204903;20.3687;0.84;-1.68;-0.25;0.447318;-0.913625;-0.012865;0.0;0.0;0.0;0.0;0.0;0.0
2.0;1753874611.209958;20.372659;0.83;-1.72;-0.26;0.442589;-0.911952;-0.013199;0.0;0.0;0.0;0.0;0.0;0.0
2.0;1753874611.215013;20.367764;0.78;-1.58;-0.3;0.446824;-0.912256;-0.012995;0.0;0.0;0.0;0.0;0.0;0.0
2.0;1753874611.220068;20.312395;0.86;-1.71;-0.35;0.447515;-0.913121;-0.012191;0.0;0.0;0.0;0.0;0.0;0.0
2.0;1753874611.225123;20.388209;0.81;-1.71;-0.3;0.445146;-0.91131;-0.012675;0.0;0.0;0.0;0.0;0.0;0.0
2.0;1753874611.230178;20.32286;0.87;-1.68;-0.33;0.447971;-0.913692;-0.013162;0.0;0.0;0.0;0.0;0.0;0.0
2.0;1753874611.235232;20.318125;0.89;-1.77;-0.26;0.445779;-0.914362;-0.012425;0.0;0.0;0.0;0.0;0.0;0.0
2.0;1753874611.240288;20.353368;0.93;-1.66;-0.34;0.447305;-0.915503;-0.012659;0.0;0.0;0.0;0.0;0.0;0.0
2.0;1753874611.245342;20.389865;0.86;-1.71;-0.33;0.447853;-0.91286;-0.013439;0.0;0.0;0.0;0.0;0.0;0.0
2.0;1753874611.250398;20.380266;0.71;-1.72;-0.2;0.444174;-0.916194;-0.012476;0.0;0.0;0.0;0.0;0.0;0.0
2.0;1753874611.255452;20.309567;0.85;-1.67;-0.26;0.445687;-0.914339;-0.013198;0.0;0.0;0.0;0.0;0.0;0.0
2.0;1753874611.260507;20.34825;0.8;-1.65;-0.32;0.447576;-0.913042;-0.011058;0.0;0.0;0.0;0.0;0.0;0.0
2.0;1753874611.265562;20.372306;0.89;-1.68;-0.31;0.446771;-0.913271;-0.013611;0.0;0.0;0.0;0.0;0.0;0.0
2.0;1753874611.270617;20.372227;0.88;-1.75;-0.19;0.449202;-0.914542;-0.01192;0.0;0.0;0.0;0.0;0.0;0.0
2.0;1753874611.275672;20.372529;0.9;-1.69;-0.2;0.445688;-0.914713;-0.013352;0.0;0.0;0.0;0.0;0.0;0.0
2.0;1753874611.280727;20.364967;0.81;-1.66;-0.26;0.447471;-0.915886;-0.010004;0.0;0.0;0.0;0.0;0.0;0.0
2.0;1753874611.285782;20.377722;0.87;-1.73;-0.28;0.444862;-0.914959;-0.012016;0.0;0.0;0.0;0.0;0.0;0.0
2.0;1753874611.290837;20.352875;0.9;-1.65;-0.28;0.445344;-0.913704;-0.013447;0.0;0.0;0.0;0.0;0.0;0.0
2.0;1753874611.295892;20.353242;0.78;-1.63;-0.28;0.446443;-0.915272;-0.013022;0.0;0.0;0.0;0.0;0.0;0.0
2.0;1753874611.300947;20.366566;0.86;-1.67;-0.35;0.448673;-0.914545;-0.012789;0.0;0.0;0.0;0.0;0.0;0.0
2.0;1753874611.306002;20.341357;0.83;-1.68;-0.17;0.446987;-0.913525;-0.012128;0.0;0.0;0.0;0.0;0.0;0.0
2.0;1753874611.311057;20.341826;0.88;-1.62;-0.31;0.446246;-0.914326;-0.012368;0.0;0.0;0.0;0.0;0.0;0.0
2.0;1753874611.316112;20.356189;0.84;-1.7;-0.27;0.446455;-0.915678;-0.012101;0.0;0.0;0.0;0.0;0.0;0.0
2.0;1753874611.321167;20.347171;0.86;-1.65;-0.27;0.446975;-0.916145;-0.013471;0.0;0.0;0.0;0.0;0.0;0.0
2.0;1753874611.326222;20.366209;0.83;-1.71;-0.25;0.44484;-0.913955;-0.012505;0.0;0.0;0.0;0.0;0.0;0.0
2.0;1753874611.331277;20.367131;0.86;-1.7;-0.33;0.445222;-0.915632;-0.010625;0.0;0.0;0.0;0.0;0.0;0.0
2.0;1753874611.336332;20.369045;0.84;-1.75;-0.23;0.448269;-0.915185;-0.013054;0.0;0.0;0.0;0.0;0.0;0.0
2.0;1753874611.341386;20.313331;0.79;-1.61;-0.26;0.445606;-0.91636;-0.010652;0.0;0.0;0.0;0.0;0.0;0.0
2.0;1753874611.347;20.359375;0.84;-1.68;-0.28;0.445666;-0.91561;-0.01281;0.0;0.0;0.0;0.0;0.0;0.0
2.0;1753874611.352055;20.320179;0.8;-1.72;-0.27;0.446192;-0.913684;-0.012303;0.0;0.0;0.0;0.0;0.0;0.0
2.0;1753874611.3607;20.34375;0.91;-1.68;-0.35;0.446764;-0.913902;-0.011956;0.0;0.0;0.0;0.0;0.0;0.0
2.0;1753874611.365755;20.354159;0.86;-1.71;-0.32;0.445181;-0.914776;-0.010666;0.0;0.0;0.0;0.0;0.0;0.0
2.0;1753874611.37081;20.340977;0.94;-1.67;-0.33;0.446862;-0.914747;-0.013965;0.0;0.0;0.0;0.0;0.0;0.0
2.0;1753874611.375865;20.298416;0.89;-1.7;-0.38;0.447698;-0.91577;-0.01049;0.0;0.0;0.0;0.0;0.0;0.0
2.0;1753874611.38092;20.367249;0.93;-1.7;-0.36;0.446427;-0.914267;-0.013365;0.0;0.0;0.0;0.0;0.0;0.0
2.0;1753874611.385975;20.360926;0.92;-1.67;-0.33;0.447612;-0.913452;-0.012539;0.0;0.0;0.0;0.0;0.0;0.0
2.0;1753874611.39103;20.350652;1.0;-1.72;-0.24;0.449328;-0.913942;-0.009813;0.0;0.0;0.0;0.0;0.0;0.0
2.0;1753874611.396084;20.334047;0.85;-1.83;-0.26;0.447756;-0.917092;-0.010885;0.0;0.0;0.0;0.0;0.0;0.0
2.0;1753874611.40114;20.315138;0.74;-1.79;-0.42;0.449311;-0.915686;-0.011484;0.0;0.0;0.0;0.0;0.0;0.0
2.0;1753874611.40982;20.34375;0.84;-1.75;-0.35;0.446154;-0.915366;-0.011224;0.0;0.0;0.0;0.0;0.0;0.0
2.0;1753874611.414875;20.349087;0.88;-1.76;-0.27;0.446881;-0.913526;-0.011805;0.0;0.0;0.0;0.0;0.0;0.0
2.0;1753874611.41993;20.338408;0.81;-1.78;-0.34;0.446617;-0.915724;-0.009809;0.0;0.0;0.0;0.0;0.0;0.0
2.0;1753874611.424985;20.336596;0.85;-1.78;-0.37;0.445941;-0.916085;-0.010889;0.0;0.0;0.0;0.0;0.0;0.0
2.0;1753874611.43004;20.288699;0.87;-1.77;-0.36;0.446589;-0.915987;-0.01157;0.0;0.0;0.0;0.0;0.0;0.0
2.0;1753874611.435095;20.316151;0.93;-1.72;-0.33;0.446364;-0.914599;-0.012103;0.0;0.0;0.0;0.0;0.0;0.0
2.0;1753874611.44015;20.336589;0.96;-1.83;-0.35;0.446898;-0.916318;-0.013354;0.0;0.0;0.0;0.0;0.0;0.0
2.0;1753874611.445205;20.254116;0.96;-1.82;-0.3;0.446086;-0.916203;-0.011831;0.0;0.0;0.0;0.0;0.0;0.0
2.0;1753874611.45026;20.315791;0.83;-1.84;-0.4;0.446014;-0.914363;-0.010126;0.0;0.0;0.0;0.0;0.0;0.0
2.0;1753874611.455315;20.32905;0.86;-1.77;-0.29;0.447357;-0.914109;-0.010509;0.0;0.0;0.0;0.0;0.0;0.0
2.0;1753874611.46037;20.341625;0.9;-1.73;-0.34;0.449094;-0.916285;-0.010874;0.0;0.0;0.0;0.0;0.0;0.0
2.0;1753874611.465424;20.273442;0.9;-1.83;-0.36;0.445183;-0.915376;-0.011738;0.0;0.0;0.0;0.0;0.0;0.0
2.0;1753874611.47048;20.287596;0.94;-1.88;-0.29;0.446109;-0.914706;-0.01054;0.0;0.0;0.0;0.0;0.0;0.0
2.0;1753874611.47655;20.3125;0.91;-1.82;-0.35;0.44652;-0.915122;-0.012078;0.0;0.0;0.0;0.0;0.0;0.0
2.0;1753874611.481605;20.346342;0.82;-1.81;-0.25;0.445028;-0.914264;-0.012462;0.0;0.0;0.0;0.0;0.0;0.0
2.0;1753874611.48666;20.265067;0.9;-1.89;-0.36;0.446379;-0.914478;-0.011504;0.0;0.0;0.0;0.0;0.0;0.0
2.0;1753874611.491715;20.333274;0.9;-1.76;-0.44;0.447111;-0.914096;-0.011269;0.0;0.0;0.0;0.0;0.0;0.0
2.0;1753874611.49677;20.281845;0.98;-1.93;-0.31;0.44834;-0.914635;-0.013928;0.0;0.0;0.0;0.0;0.0;0.0
2.0;1753874611.501825;20.337976;0.93;-1.92;-0.36;0.451245;-0.915263;-0.012998;0.0;0.0;0.0;0.0;0.0;0.0
2.0;1753874611.50688;20.342682;0.93;-1.87;-0.4;0.446526;-0.916469;-0.011835;0.0;0.0;0.0;0.0;0.0;0.0
2.0;1753874611.511935;20.293453;0.94;-1.89;-0.31;0.44456;-0.916468;-0.013014;0.0;0.0;0.0;0.0;0.0;0.0
2.0;1753874611.51699;20.268193;0.87;-1.88;-0.27;0.44714;-0.916814;-0.011739;0.0;0.0;0.0;0.0;0.0;0.0
2.0;1753874611.522045;20.313265;0.88;-1.86;-0.14;0.448169;-0.917076;-0.010953;0.0;0.0;0.0;0.0;0.0;0.0
2.0;1753874611.53079;20.3125;0.91;-1.82;-0.21;0.447496;-0.915488;-0.012078;0.0;0.0;0.0;0.0;0.0;0.0
2.0;1753874611.535845;20.31944;0.99;-1.71;-0.18;0.447789;-0.915568;-0.01259;0.0;0.0;0.0;0.0;0.0;0.0
2.0;1753874611.5409;20.289628;0.89;-1.75;-0.31;0.450081;-0.914155;-0.012113;0.0;0.0;0.0;0.0;0.0;0.0
2.0;1753874611.545955;20.323924;0.88;-1.73;-0.14;0.44536;-0.913699;-0.011933;0.0;0.0;0.0;0.0;0.0;0.0
2.0;1753874611.55101;20.315231;0.86;-1.76;-0.15;0.447019;-0.91419;-0.012567;0.0;0.0;0.0;0.0;0.0;0.0
2.0;1753874611.556065;20.288269;0.95;-1.8;-0.25;0.445305;-0.91473;-0.012034;0.0;0.0;0.0;0.0;0.0;0.0
2.0;1753874611.56112;20.33647;0.84;-1.79;-0.26;0.448744;-0.916404;-0.012531;0.0;0.0;0.0;0.0;0.0;0.0
2.0;1753874611.566175;20.331662;0.83;-1.69;-0.13;0.449121;-0.916602;-0.011652;0.0;0.0;0.0;0.0;0.0;0.0
2.0;1753874611.57123;20.290034;0.9;-1.76;-0.24;0.448759;-0.916372;-0.012505;0.0;0.0;0.0;0.0;0.0;0.0
2.0;1753874611.576285;20.295852;0.87;-1.86;-0.33;0.445643;-0.916162;-0.01173;0.0;0.0;0.0;0.0;0.0;0.0
2.0;1753874611.58134;20.321844;0.88;-1.83;-0.28;0.44761;-0.915776;-0.010937;0.0;0.0;0.0;0.0;0.0;0.0
2.0;1753874611.586394;20.309409;0.86;-1.84;-0.29;0.446807;-0.913728;-0.01239;0.0;0.0;0.0;0.0;0.0;0.0
2.0;1753874611.59145;20.29546;0.83;-1.88;-0.28;0.450062;-0.914459;-0.012242;0.0;0.0;0.0;0.0;0.0;0.0
2.0;1753874611.596504;20.31176;0.83;-1.78;-0.26;0.448225;-0.915514;-0.012635;0.0;0.0;0.0;0.0;0.0;0.0
2.0;1753874611.60156;20.340721;0.91;-1.74;-0.21;0.449223;-0.915483;-0.012593;0.0;0.0;0.0;0.0;0.0;0.0
2.0;1753874611.606614;20.320982;0.9;-1.76;-0.31;0.449056;-0.914306;-0.011216;0.0;0.0;0.0;0.0;0.0;0.0
2.0;1753874611.611669;20.343682;0.82;-1.69;-0.19;0.446967;-0.916272;-0.010058;0.0;0.0;0.0;0.0;0.0;0.0
2.0;1753874611.616724;20.318382;0.78;-1.75;-0.28;0.450578;-0.91622;-0.011156;0.0;0.0;0.0;0.0;0.0;0.0
2.0;1753874611.621779;20.301611;0.88;-1.75;-0.35;0.446629;-0.912714;-0.012398;0.0;0.0;0.0;0.0;0.0;0.0
2.0;1753874611.62982;20.3125;0.84;-1.75;-0.28;0.448106;-0.914268;-0.011834;0.0;0.0;0.0;0.0;0.0;0.0
2.0;1753874611.634875;20.309568;0.86;-1.75;-0.31;0.444153;-0.91384;-0.012345;0.0;0.0;0.0;0.0;0.0;0.0
2.0;1753874611.63993;20.34479;0.85;-1.73;-0.27;0.451012;-0.913162;-0.010594;0.0;0.0;0.0;0.0;0.0;0.0
2.0;1753874611.644985;20.323953;0.88;-1.72;-0.24;0.448097;-0.914047;-0.012503;0.0;0.0;0.0;0.0;0.0;0.0
2.0;1753874611.65004;20.335269;0.91;-1.56;-0.21;0.445522;-0.915589;-0.013456;0.0;0.0;0.0;0.0;0.0;0.0
2.0;1753874611.655095;20.321296;0.83;-1.63;-0.33;0.449241;-0.914382;-0.013257;0.0;0.0;0.0;0.0;0.0;0.0
2.0;1753874611.66015;20.30364;0.83;-1.66;-0.24;0.447244;-0.914878;-0.012781;0.0;0.0;0.0;0.0;0.0;0.0
2.0;1753874611.665205;20.365203;0.86;-1.6;-0.25;0.446405;-0.914936;-0.013817;0.0;0.0;0.0;0.0;0.0;0.0
2.0;1753874611.67026;20.359331;0.87;-1.67;-0.3;0.447707;-0.915741;-0.013133;0.0;0.0;0.0;0.0;0.0;0.0
2.0;1753874611.67881;20.34375;0.91;-1.61;-0.28;0.446886;-0.914756;-0.013298;0.0;0.0;0.0;0.0;0.0;0.0
2.0;1753874611.683865;20.348869;0.95;-1.52;-0.31;0.448702;-0.916172;-0.012746;0.0;0.0;0.0;0.0;0.0;0.0
2.0;1753874611.68892;20.360322;0.97;-1.46;-0.26;0.447904;-0.914129;-0.011722;0.0;0.0;0.0;0.0;0.0;0.0
2.0;1753874611.693975;20.373678;0.87;-1.77;-0.32;0.448302;-0.916647;-0.014011;0.0;0.0;0.0;0.0;0.0;0.0
2.0;1753874611.69903;20.340627;0.82;-1.62;-0.25;0.447159;-0.915905;-0.013681;0.0;0.0;0.0;0.0;0.0;0.0
2.0;1753874611.704085;20.313301;0.95;-1.64;-0.23;0.445272;-0.915827;-0.011932;0.0;0.0;0.0;0.0;0.0;0.0
2.0;1753874611.70914;20.333945;0.95;-1.71;-0.28;0.446105;-0.91393;-0.013596;0.0;0.0;0.0;0.0;0.0;0.0
2.0;1753874611.714194;20.368782;0.89;-1.58;-0.33;0.446402;-0.91583;-0.01327;0.0;0.0;0.0;0.0;0.0;0.0
2.0;1753874611.71925;20.335038;0.92;-1.7;-0.25;0.448025;-0.914703;-0.014426;0.0;0.0;0.0;0.0;0.0;0.0
2.0;1753874611.724304;20.365723;0.88;-1.61;-0.33;0.447554;-0.913466;-0.013244;0.0;0.0;0.0;0.0;0.0;0.0
2.0;1753874611.72936;20.350713;0.81;-1.72;-0.3;0.446088;-0.914732;-0.012566;0.0;0.0;0.0;0.0;0.0;0.0
2.0;1753874611.734414;20.389981;0.83;-1.56;-0.35;0.447291;-0.914564;-0.014744;0.0;0.0;0.0;0.0;0.0;0.0
2.0;1753874611.739469;20.345084;0.82;-1.68;-0.39;0.447367;-0.913876;-0.0137;0.0;0.0;0.0;0.0;0.0;0.0
2.0;1753874611.744524;20.330545;0.89;-1.69;-0.32;0.447634;-0.914468;-0.010441;0.0;0.0;0.0;0.0;0.0;0.0
2.0;1753874611.749579;20.325419;0.86;-1.57;-0.26;0.446209;-0.913044;-0.014002;0.0;0.0;0.0;0.0;0.0;0.0
2.0;1753874611.754634;20.333136;0.87;-1.69;-0.45;0.444717;-0.913518;-0.014313;0.0;0.0;0.0;0.0;0.0;0.0
2.0;1753874611.759689;20.367907;0.9;-1.67;-0.26;0.445502;-0.913963;-0.01511;0.0;0.0;0.0;0.0;0.0;0.0
2.0;1753874611.764744;20.355037;0.9;-1.7;-0.31;0.446383;-0.915326;-0.014255;0.0;0.0;0.0;0.0;0.0;0.0
2.0;1753874611.769799;20.335192;0.85;-1.75;-0.32;0.44638;-0.912878;-0.012887;0.0;0.0;0.0;0.0;0.0;0.0
2.0;1753874611.774854;20.364082;0.77;-1.68;-0.29;0.445997;-0.913174;-0.01494;0.0;0.0;0.0;0.0;0.0;0.0
2.0;1753874611.7812;20.34375;0.84;-1.68;-0.35;0.445788;-0.914024;-0.014518;0.0;0.0;0.0;0.0;0.0;0.0
2.0;1753874611.786255;20.362573;0.79;-1.78;-0.31;0.447975;-0.914176;-0.014828;0.0;0.0;0.0;0.0;0.0;0.0
2.0;1753874611.79131;20.333772;0.77;-1.69;-0.27;0.443657;-0.912956;-0.012617;0.0;0.0;0.0;0.0;0.0;0.0
2.0;1753874611.796365;20.347228;0.81;-1.69;-0.31;0.445072;-0.913899;-0.013256;0.0;0.0;0.0;0.0;0.0;0.0
2.0;1753874611.80142;20.321467;0.82;-1.63;-0.37;0.445032;-0.913734;-0.016037;0.0;0.0;0.0;0.0;0.0;0.0
2.0;1753874611.806475;20.371033;0.86;-1.63;-0.34;0.446702;-0.912346;-0.01278;0.0;0.0;0.0;0.0;0.0;0.0
2.0;1753874611.81153;20.346301;0.96;-1.71;-0.4;0.446691;-0.913745;-0.014281;0.0;0.0;0.0;0.0;0.0;0.0
2.0;1753874611.816584;20.335899;0.81;-1.54;-0.39;0.445838;-0.914864;-0.01447;0.0;0.0;0.0;0.0;0.0;0.0
2.0;1753874611.82164;20.338433;0.94;-1.76;-0.26;0.446016;-0.91468;-0.014309;0.0;0.0;0.0;0.0;0.0;0.0
2.0;1753874611.82917;20.34375;0.84;-1.68;-0.35;0.445788;-0.914634;-0.012322;0.0;0.0;0.0;0.0;0.0;0.0
2.0;1753874611.834225;20.323026;0.87;-1.77;-0.41;0.446911;-0.914411;-0.012118;0.0;0.0;0.0;0.0;0.0;0.0
2.0;1753874611.83928;20.333112;0.85;-1.61;-0.33;0.44628;-0.914439;-0.011842;0.0;0.0;0.0;0.0;0.0;0.0
2.0;1753874611.844335;20.385219;0.86;-1.75;-0.37;0.445517;-0.914085;-0.01251;0.0;0.0;0.0;0.0;0.0;0.0
2.0;1753874611.84939;20.360911;0.86;-1.65;-0.29;0.446546;-0.913982;-0.012781;0.0;0.0;0.0;0.0;0.0;0.0
2.0;1753874611.854445;20.379119;0.89;-1.71;-0.31;0.446141;-0.914578;-0.012555;0.0;0.0;0.0;0.0;0.0;0.0
2.0;1753874611.8595;20.349762;0.94;-1.75;-0.3;0.446931;-0.916236;-0.012384;0.0;0.0;0.0;0.0;0.0;0.0
2.0;1753874611.864555;20.362644;0.84;-1.74;-0.31;0.445814;-0.913424;-0.012203;0.0;0.0;0.0;0.0;0.0;0.0
2.0;1753874611.86961;20.345111;0.93;-1.74;-0.33;0.445636;-0.913864;-0.012972;0.0;0.0;0.0;0.0;0.0;0.0
2.0;1753874611.874664;20.328168;0.91;-1.76;-0.3;0.445479;-0.913855;-0.013165;0.0;0.0;0.0;0.0;0.0;0.0
2.0;1753874611.87972;20.318436;0.81;-1.77;-0.26;0.44454;-0.913759;-0.013342;0.0;0.0;0.0;0.0;0.0;0.0
2.0;1753874611.884774;20.344297;1.06;-1.74;-0.27;0.446984;-0.912349;-0.013043;0.0;0.0;0.0;0.0;0.0;0.0
2.0;1753874611.89338;20.359375;0.91;-1.75;-0.28;0.44713;-0.914634;-0.012932;0.0;0.0;0.0;0.0;0.0;0.0
2.0;1753874611.898435;20.361661;0.98;-1.79;-0.18;0.448221;-0.914003;-0.012361;0.0;0.0;0.0;0.0;0.0;0.0
2.0;1753874611.90349;20.333586;0.86;-1.73;-0.3;0.446022;-0.913596;-0.012448;0.0;0.0;0.0;0.0;0.0;0.0
2.0;1753874611.908545;20.378344;0.88;-1.78;-0.33;0.4455;-0.913841;-0.012902;0.0;0.0;0.0;0.0;0.0;0.0
2.0;1753874611.9136;20.399299;0.87;-1.82;-0.31;0.448198;-0.91456;-0.012541;0.0;0.0;0.0;0.0;0.0;0.0
2.0;1753874611.918655;20.377068;0.91;-1.71;-0.27;0.446735;-0.913722;-0.011839;0.0;0.0;0.0;0.0;0.0;0.0
2.0;1753874611.92371;20.389893;0.91;-1.69;-0.24;0.447496;-0.915504;-0.012327;0.0;0.0;0.0;0.0;0.0;0.0
2.0;1753874611.928764;20.344968;0.92;-1.75;-0.3;0.446755;-0.914158;-0.012666;0.0;0.0;0.0;0.0;0.0;0.0
2.0;1753874611.93382;20.356873;1.01;-1.79;-0.27;0.445704;-0.915304;-0.012301;0.0;0.0;0.0;0.0;0.0;0.0
2.0;1753874611.938874;20.370641;0.95;-1.71;-0.33;0.448926;-0.913841;-0.012;0.0;0.0;0.0;0.0;0.0;0.0
2.0;1753874611.94393;20.330397;0.94;-1.67;-0.27;0.446686;-0.916207;-0.012125;0.0;0.0;0.0;0.0;0.0;0.0
2.0;1753874611.948984;20.364825;0.84;-1.84;-0.24;0.447398;-0.913892;-0.011879;0.0;0.0;0.0;0.0;0.0;0.0
2.0;1753874611.954039;20.384616;0.97;-1.78;-0.29;0.448131;-0.915201;-0.011417;0.0;0.0;0.0;0.0;0.0;0.0
2.0;1753874611.959094;20.338118;0.87;-1.69;-0.24;0.448561;-0.915593;-0.011751;0.0;0.0;0.0;0.0;0.0;0.0
2.0;1753874611.96627;20.359375;0.91;-1.75;-0.28;0.447984;-0.915;-0.011346;0.0;0.0;0.0;0.0;0.0;0.0
2.0;1753874611.968619;20.359375;0.98;-1.61;-0.28;0.446032;-0.914024;-0.012444;0.0;0.0;0.0;0.0;0.0;0.0
2.0;1753874611.973451;20.359375;0.98;-1.61;-0.28;0.445056;-0.915366;-0.010614;0.0;0.0;0.0;0.0;0.0;0.0
2.0;1753874611.980376;20.382812;0.91;-1.68;-0.28;0.445056;-0.916952;-0.01037;0.0;0.0;0.0;0.0;0.0;0.0
2.0;1753874611.985193;20.382812;0.91;-1.68;-0.28;0.44774;-0.915732;-0.0122;0.0;0.0;0.0;0.0;0.0;0.0
2.0;1753874611.990248;20.378501;0.82;-1.66;-0.31;0.443584;-0.916859;-0.011411;0.0;0.0;0.0;0.0;0.0;0.0
2.0;1753874611.996322;20.382812;0.91;-1.68;-0.35;0.444202;-0.916342;-0.011712;0.0;0.0;0.0;0.0;0.0;0.0
2.0;1753874612.001377;20.366081;0.9;-1.66;-0.33;0.44908;-0.917463;-0.011762;0.0;0.0;0.0;0.0;0.0;0.0
2.0;1753874612.006432;20.395132;0.89;-1.63;-0.3;0.441921;-0.914758;-0.01284;0.0;0.0;0.0;0.0;0.0;0.0
2.0;1753874612.011487;20.36227;0.92;-1.65;-0.31;0.44699;-0.916329;-0.011929;0.0;0.0;0.0;0.0;0.0;0.0
2.0;1753874612.016542;20.388337;0.93;-1.66;-0.28;0.44506;-0.916035;-0.012859;0.0;0.0;0.0;0.0;0.0;0.0
2.0;1753874612.021597;20.370695;0.93;-1.61;-0.29;0.439373;-0.916177;-0.011875;0.0;0.0;0.0;0.0;0.0;0.0
2.0;1753874612.026652;20.355349;0.9;-1.73;-0.24;0.447229;-0.916031;-0.012635;0.0;0.0;0.0;0.0;0.0;0.0
2.0;1753874612.031706;20.362608;0.91;-1.75;-0.24;0.445719;-0.914844;-0.012549;0.0;0.0;0.0;0.0;0.0;0.0
2.0;1753874612.036762;20.397221;0.89;-1.68;-0.35;0.451294;-0.916502;-0.012249;0.0;0.0;0.0;0.0;0.0;0.0
2.0;1753874612.041816;20.397581;0.8;-1.73;-0.32;0.442325;-0.913671;-0.012342;0.0;0.0;0.0;0.0;0.0;0.0
2.0;1753874612.046872;20.384464;0.98;-1.72;-0.21;0.448365;-0.914689;-0.011466;0.0;0.0;0.0;0.0;0.0;0.0
2.0;1753874612.051926;20.385599;0.78;-1.82;-0.34;0.443731;-0.912761;-0.012151;0.0;0.0;0.0;0.0;0.0;0.0
2.0;1753874612.056981;20.375195;0.92;-1.85;-0.25;0.446989;-0.914465;-0.013681;0.0;0.0;0.0;0.0;0.0;0.0
2.0;1753874612.062036;20.367211;0.97;-1.62;-0.21;0.452733;-0.917512;-0.012924;0.0;0.0;0.0;0.0;0.0;0.0
2.0;1753874612.067091;20.37869;0.92;-1.83;-0.23;0.448553;-0.916171;-0.012226;0.0;0.0;0.0;0.0;0.0;0.0
2.0;1753874612.072146;20.372853;0.91;-1.73;-0.26;0.44597;-0.914067;-0.013389;0.0;0.0;0.0;0.0;0.0;0.0
2.0;1753874612.077201;20.359211;0.92;-1.74;-0.26;0.44886;-0.916941;-0.012185;0.0;0.0;0.0;0.0;0.0;0.0
2.0;1753874612.082256;20.360271;0.95;-1.71;-0.27;0.451894;-0.913054;-0.012695;0.0;0.0;0.0;0.0;0.0;0.0
2.0;1753874612.087311;20.365744;0.95;-1.82;-0.24;0.442762;-0.912554;-0.01247;0.0;0.0;0.0;0.0;0.0;0.0
2.0;1753874612.092366;20.399016;0.83;-1.84;-0.3;0.450323;-0.91718;-0.012721;0.0;0.0;0.0;0.0;0.0;0.0
2.0;1753874612.097421;20.406446;0.96;-1.78;-0.25;0.445863;-0.910936;-0.013231;0.0;0.0;0.0;0.0;0.0;0.0
2.0;1753874612.102476;20.379498;0.92;-1.86;-0.23;0.45028;-0.915507;-0.012676;0.0;0.0;0.0;0.0;0.0;0.0
2.0;1753874612.107531;20.378177;0.95;-1.77;-0.25;0.453092;-0.915089;-0.013329;0.0;0.0;0.0;0.0;0.0;0.0
2.0;1753874612.112586;20.382394;0.7;-1.93;-0.15;0.445954;-0.914762;-0.012732;0.0;0.0;0.0;0.0;0.0;0.0
2.0;1753874612.1177;20.375;0.91;-1.82;-0.21;0.448716;-0.91317;-0.013176;0.0;0.0;0.0;0.0;0.0;0.0
2.0;1753874612.122755;20.390684;0.91;-1.86;-0.26;0.446425;-0.912938;-0.013;0.0;0.0;0.0;0.0;0.0;0.0
2.0;1753874612.12781;20.353006;0.87;-1.86;-0.2;0.446422;-0.910002;-0.01355;0.0;0.0;0.0;0.0;0.0;0.0
2.0;1753874612.132865;20.381036;0.93;-1.8;-0.17;0.446487;-0.912962;-0.013819;0.0;0.0;0.0;0.0;0.0;0.0
2.0;1753874612.13792;20.39864;0.98;-1.83;-0.14;0.449666;-0.916438;-0.013034;0.0;0.0;0.0;0.0;0.0;0.0
2.0;1753874612.142975;20.3859;0.87;-1.75;-0.34;0.44462;-0.913369;-0.012095;0.0;0.0;0.0;0.0;0.0;0.0
2.0;1753874612.14803;20.367281;0.87;-1.86;-0.15;0.451661;-0.912224;-0.012358;0.0;0.0;0.0;0.0;0.0;0.0
2.0;1753874612.153085;20.392218;0.92;-1.83;-0.16;0.447643;-0.914052;-0.011881;0.0;0.0;0.0;0.0;0.0;0.0
2.0;1753874612.15814;20.370197;0.89;-1.82;-0.23;0.448742;-0.917069;-0.013792;0.0;0.0;0.0;0.0;0.0;0.0
2.0;1753874612.163195;20.343521;0.84;-1.81;-0.08;0.448278;-0.913847;-0.012086;0.0;0.0;0.0;0.0;0.0;0.0
2.0;1753874612.16825;20.373025;0.85;-1.77;-0.27;0.448155;-0.915758;-0.012272;0.0;0.0;0.0;0.0;0.0;0.0
2.0;1753874612.173304;20.337307;0.9;-1.75;-0.23;0.449802;-0.912063;-0.012704;0.0;0.0;0.0;0.0;0.0;0.0
2.0;1753874612.17836;20.378152;0.91;-1.72;-0.28;0.446085;-0.915275;-0.012957;0.0;0.0;0.0;0.0;0.0;0.0
2.0;1753874612.183414;20.376568;0.95;-1.69;-0.07;0.443507;-0.913115;-0.013252;0.0;0.0;0.0;0.0;0.0;0.0
2.0;1753874612.18847;20.356578;0.89;-1.74;-0.19;0.448566;-0.912361;-0.012296;0.0;0.0;0.0;0.0;0.0;0.0
2.0;1753874612.193524;20.365435;0.97;-1.72;-0.19;0.444008;-0.913243;-0.013403;0.0;0.0;0.0;0.0;0.0;0.0
2.0;1753874612.198579;20.362383;0.9;-1.83;-0.2;0.446861;-0.915406;-0.011179;0.0;0.0;0.0;0.0;0.0;0.0
2.0;1753874612.203634;20.355935;0.91;-1.77;-0.21;0.447514;-0.917132;-0.012761;0.0;0.0;0.0;0.0;0.0;0.0
2.0;1753874612.208689;20.38498;1.04;-1.7;-0.2;0.450021;-0.913444;-0.012283;0.0;0.0;0.0;0.0;0.0;0.0
2.0;1753874612.213744;20.381533;1.01;-1.67;-0.17;0.445119;-0.916819;-0.011678;0.0;0.0;0.0;0.0;0.0;0.0
2.0;1753874612.218799;20.388497;0.88;-1.82;-0.16;0.447681;-0.913643;-0.012129;0.0;0.0;0.0;0.0;0.0;0.0
2.0;1753874612.223854;20.400972;0.89;-1.77;-0.19;0.446702;-0.915357;-0.012201;0.0;0.0;0.0;0.0;0.0;0.0
2.0;1753874612.228909;20.383588;0.86;-1.74;-0.22;0.449388;-0.917541;-0.012303;0.0;0.0;0.0;0.0;0.0;0.0
2.0;1753874612.233964;20.341868;0.92;-1.72;-0.27;0.44793;-0.915556;-0.011648;0.0;0.0;0.0;0.0;0.0;0.0
2.0;1753874612.239019;20.390675;0.92;-1.79;-0.18;0.449468;-0.916187;-0.011572;0.0;0.0;0.0;0.0;0.0;0.0
2.0;1753874612.244074;20.36435;0.94;-1.76;-0.16;0.442008;-0.915019;-0.011115;0.0;0.0;0.0;0.0;0.0;0.0
2.0;1753874612.249129;20.391015;0.93;-1.82;-0.16;0.436681;-0.911903;-0.01205;0.0;0.0;0.0;0.0;0.0;0.0
2.0;1753874612.254184;20.371362;0.88;-1.85;-0.18;0.441886;-0.914247;-0.011406;0.0;0.0;0.0;0.0;0.0;0.0
2.0;1753874612.259239;20.406208;0.94;-1.89;-0.24;0.448708;-0.915173;-0.012123;0.0;0.0;0.0;0.0;0.0;0.0
2.0;1753874612.264294;20.412601;0.99;-1.85;-0.24;0.446416;-0.911893;-0.013347;0.0;0.0;0.0;0.0;0.0;0.0
2.0;1753874612.269348;20.400333;0.95;-1.67;-0.25;0.445874;-0.91434;-0.011529;0.0;0.0;0.0;0.0;0.0;0.0
2.0;1753874612.2744;20.375;0.91;-1.75;-0.21;0.445544;-0.915732;-0.011834;0.0;0.0;0.0;0.0;0.0;0.0
2.0;1753874612.27492;20.351562;0.84;-1.75;-0.35;0.44896;-0.913658;-0.01342;0.0;0.0;0.0;0.0;0.0;0.0
2.0;1753874612.279975;20.345741;0.81;-1.68;-0.3;0.445686;-0.913834;-0.012186;0.0;0.0;0.0;0.0;0.0;0.0
2.0;1753874612.28503;20.336476;0.85;-1.73;-0.31;0.446134;-0.912821;-0.013131;0.0;0.0;0.0;0.0;0.0;0.0
2.0;1753874612.290085;20.34805;0.88;-1.74;-0.37;0.450538;-0.910811;-0.013308;0.0;0.0;0.0;0.0;0.0;0.0
2.0;1753874612.29514;20.351633;0.94;-1.79;-0.44;0.44868;-0.915594;-0.013999;0.0;0.0;0.0;0.0;0.0;0.0
2.0;1753874612.300195;20.359549;0.9;-1.77;-0.28;0.447368;-0.915222;-0.012114;0.0;0.0;0.0;0.0;0.0;0.0
2.0;1753874612.30525;20.353497;0.83;-1.64;-0.36;0.444816;-0.914066;-0.013181;0.0;0.0;0.0;0.0;0.0;0.0
2.0;1753874612.310305;20.366523;0.94;-1.66;-0.36;0.448402;-0.914465;-0.012979;0.0;0.0;0.0;0.0;0.0;0.0
2.0;1753874612.31536;20.365625;0.84;-1.73;-0.2;0.44696;-0.915348;-0.012228;0.0;0.0;0.0;0.0;0.0;0.0
2.0;1753874612.320414;20.355683;0.88;-1.74;-0.27;0.449533;-0.9135;-0.013345;0.0;0.0;0.0;0.0;0.0;0.0
2.0;1753874612.32547;20.341901;0.91;-1.62;-0.26;0.450924;-0.914661;-0.01309;0.0;0.0;0.0;0.0;0.0;0.0
2.0;1753874612.330524;20.346397;0.91;-1.69;-0.21;0.449947;-0.917081;-0.01233;0.0;0.0;0.0;0.0;0.0;0.0
