Timestamp;PosX;PosY;PosZ;Roll;Pitch;Yaw;Q1;Q2;Q3;Q4;M1;M2;M3;M4;AccelX;AccelY;AccelZ;GyroX;GyroY;GyroZ
1753874606.309302;0.0;0.0;0.0;-3.2;-0.23;0.0;0.0;0.0;0.0;0.0;2.0;-6.0;8.0;21.0;-0.06;0.68;-10.58;0.83;0.26;0.97
1753874606.314302;0.0;0.0;0.0;-3.2;-0.23;0.0;0.0;0.0;0.0;0.0;2.0;-6.0;8.0;21.0;-0.06;0.67;-10.58;0.89;0.15;1.0
1753874606.319302;0.0;0.0;0.0;-3.2;-0.23;0.0;0.0;0.0;0.0;0.0;2.0;-6.0;8.0;21.0;-0.06;0.67;-10.58;0.93;0.12;1.03
1753874606.324302;0.0;0.0;0.0;-3.2;-0.23;0.0;0.0;0.0;0.0;0.0;2.0;-6.0;8.0;21.0;-0.06;0.66;-10.58;0.83;0.15;0.9
1753874606.329302;0.0;0.0;0.0;-3.2;-0.23;0.0;0.0;0.0;0.0;0.0;2.0;-6.0;8.0;21.0;-0.06;0.66;-10.57;0.95;0.22;0.85
1753874606.334302;0.0;0.0;0.0;-3.2;-0.23;0.0;0.0;0.0;0.0;0.0;2.0;-6.0;8.0;21.0;-0.06;0.66;-10.57;0.86;0.31;0.99
1753874606.339302;0.0;0.0;0.0;-3.2;-0.22;0.0;0.0;0.0;0.0;0.0;2.1;-14.1;8.7;31.6;-0.05;0.66;-10.57;0.87;0.12;0.97
1753874606.344302;0.0;0.0;0.0;-3.2;-0.23;0.0;0.0;0.0;0.0;0.0;2.0;-6.0;8.0;21.0;-0.06;0.66;-10.57;0.74;0.1;1.01
1753874606.349302;0.0;0.0;0.0;-3.2;-0.23;0.0;0.0;0.0;0.0;0.0;2.0;-6.0;8.0;21.0;-0.06;0.66;-10.57;0.87;0.19;0.96
1753874606.354302;0.0;0.0;0.0;-3.2;-0.23;0.0;0.0;0.0;0.0;0.0;2.0;-6.0;8.0;21.0;-0.07;0.66;-10.56;0.86;0.23;0.92
1753874606.359302;0.0;0.0;0.0;-3.2;-0.23;0.0;0.0;0.0;0.0;0.0;2.0;-6.0;8.0;21.0;-0.07;0.66;-10.56;0.83;0.19;0.97
1753874606.364302;0.0;0.0;0.0;-3.2;-0.23;0.0;0.0;0.0;0.0;0.0;2.0;-6.0;8.0;21.0;-0.07;0.66;-10.56;0.84;0.16;0.96
1753874606.369302;0.0;0.0;0.0;-3.2;-0.23;0.0;0.0;0.0;0.0;0.0;2.0;-6.0;8.0;21.0;-0.07;0.66;-10.56;0.83;0.16;0.82
1753874606.374302;0.0;0.0;0.0;-3.2;-0.23;0.0;0.0;0.0;0.0;0.0;2.0;-6.0;8.0;21.0;-0.07;0.67;-10.56;0.93;0.19;0.96
1753874606.379302;0.0;0.0;0.0;-3.2;-0.23;0.0;0.0;0.0;0.0;0.0;2.0;-6.0;8.0;21.0;-0.07;0.67;-10.55;0.92;0.28;0.92
1753874606.384302;0.0;0.0;0.0;-3.2;-0.23;0.0;0.0;0.0;0.0;0.0;2.0;-6.0;8.0;21.0;-0.07;0.67;-10.55;0.82;0.19;1.02
1753874606.389302;0.0;0.0;0.0;-3.2;-0.23;0.0;0.0;0.0;0.0;0.0;2.0;-6.0;8.0;21.0;-0.06;0.66;-10.56;0.82;0.19;1.08
1753874606.394302;0.0;0.0;0.0;-3.2;-0.23;0.0;0.0;0.0;0.0;0.0;2.0;-6.0;8.0;21.0;-0.07;0.66;-10.56;0.96;0.21;0.9
1753874606.399302;0.0;0.0;0.0;-3.2;-0.23;0.0;0.0;0.0;0.0;0.0;2.0;-6.0;8.0;21.0;-0.07;0.66;-10.56;0.9;0.07;0.83
1753874606.404302;0.0;0.0;0.0;-3.2;-0.23;0.0;0.0;0.0;0.0;0.0;2.0;-6.0;8.0;21.0;-0.06;0.66;-10.56;0.76;0.18;1.06
1753874606.409302;0.0;0.0;0.0;-3.2;-0.23;0.0;0.0;0.0;0.0;0.0;2.0;-6.0;8.0;21.0;-0.06;0.67;-10.57;0.75;0.18;1.0
1753874606.414302;0.0;0.0;0.0;-3.2;-0.23;0.0;0.0;0.0;0.0;0.0;2.0;-6.0;8.0;21.0;-0.05;0.66;-10.57;0.88;0.16;0.99
1753874606.419302;0.0;0.0;0.0;-3.2;-0.23;0.0;0.0;0.0;0.0;0.0;2.0;-6.0;8.0;21.0;-0.05;0.66;-10.56;0.96;0.23;0.93
1753874606.424302;0.0;0.0;0.0;-3.2;-0.23;0.0;0.0;0.0;0.0;0.0;2.5;11.2;3.7;21.1;-0.05;0.67;-10.56;0.91;0.24;0.89
1753874606.429302;0.0;0.0;0.0;-3.2;-0.23;0.0;0.0;0.0;0.0;0.0;3.8;2.0;12.6;17.9;-0.05;0.66;-10.56;0.97;0.19;0.95
1753874606.434302;0.0;0.0;0.0;-3.2;-0.24;0.0;0.0;0.0;0.0;0.0;2.2;0.0;-10.5;7.6;-0.05;0.66;-10.57;1.03;0.14;0.86
1753874606.439302;0.0;0.0;0.0;-3.2;-0.24;0.0;0.0;0.0;0.0;0.0;5.1;7.1;-11.4;17.6;-0.05;0.65;-10.59;0.82;0.28;0.97
1753874606.444302;0.0;0.0;0.0;-3.2;-0.24;0.0;0.0;0.0;0.0;0.0;5.3;19.8;-9.6;-0.2;-0.04;0.66;-10.58;0.93;0.26;0.92
1753874606.449302;0.0;0.0;0.0;-3.2;-0.24;0.0;0.0;0.0;0.0;0.0;7.0;15.0;-17.0;-2.0;-0.06;0.66;-10.58;0.94;0.23;0.93
1753874606.454302;0.0;0.0;0.0;-3.2;-0.24;0.0;0.0;0.0;0.0;0.0;7.0;15.0;-17.0;-2.0;-0.05;0.66;-10.58;0.93;0.16;0.99
1753874606.459302;0.0;0.0;0.0;-3.2;-0.24;0.0;0.0;0.0;0.0;0.0;7.0;15.0;-17.0;-2.0;-0.06;0.66;-10.58;0.83;0.18;0.96
1753874606.464302;0.0;0.0;0.0;-3.2;-0.24;0.0;0.0;0.0;0.0;0.0;7.0;15.0;-17.0;-2.0;-0.05;0.66;-10.58;0.88;0.25;0.9
1753874606.469302;0.0;0.0;0.0;-3.2;-0.24;0.0;0.0;0.0;0.0;0.0;7.0;15.0;-17.0;-2.0;-0.06;0.65;-10.58;0.94;0.17;0.93
1753874606.474302;0.0;0.0;0.0;-3.2;-0.24;0.0;0.0;0.0;0.0;0.0;7.0;15.0;-17.0;-2.0;-0.07;0.66;-10.58;0.83;0.22;0.92
1753874606.479302;0.0;0.0;0.0;-3.2;-0.24;0.0;0.0;0.0;0.0;0.0;7.0;15.0;-17.0;-2.0;-0.06;0.65;-10.58;0.84;0.31;1.02
1753874606.484302;0.0;0.0;0.0;-3.2;-0.24;0.0;0.0;0.0;0.0;0.0;7.0;15.0;-17.0;-2.0;-0.06;0.66;-10.57;0.88;0.28;0.96
1753874606.489302;0.0;0.0;0.0;-3.2;-0.24;0.0;0.0;0.0;0.0;0.0;7.0;15.0;-17.0;-2.0;-0.07;0.66;-10.58;0.85;0.24;0.91
1753874606.494302;0.0;0.0;0.0;-3.2;-0.24;0.0;0.0;0.0;0.0;0.0;7.0;15.0;-17.0;-2.0;-0.06;0.66;-10.58;0.9;0.34;0.86
1753874606.499302;0.0;0.0;0.0;-3.2;-0.24;0.0;0.0;0.0;0.0;0.0;7.0;15.0;-17.0;-2.0;-0.06;0.67;-10.57;0.93;0.24;0.9
1753874606.504302;0.0;0.0;0.0;-3.2;-0.24;0.0;0.0;0.0;0.0;0.0;7.0;15.0;-17.0;-2.0;-0.07;0.67;-10.57;0.86;0.28;1.0
1753874606.509302;0.0;0.0;0.0;-3.2;-0.24;0.0;0.0;0.0;0.0;0.0;7.0;15.0;-17.0;-2.0;-0.07;0.66;-10.57;0.9;0.1;0.94
1753874606.514302;0.0;0.0;0.0;-3.2;-0.24;0.0;0.0;0.0;0.0;0.0;7.0;15.0;-17.0;-2.0;-0.08;0.66;-10.57;0.93;0.19;0.96
1753874606.519302;0.0;0.0;0.0;-3.2;-0.24;0.0;0.0;0.0;0.0;0.0;7.0;15.0;-17.0;-2.0;-0.08;0.67;-10.57;0.9;0.21;0.9
1753874606.524302;0.0;0.0;0.0;-3.2;-0.24;0.0;0.0;0.0;0.0;0.0;7.0;15.0;-17.0;-2.0;-0.07;0.67;-10.57;0.86;0.21;1.08
1753874606.529302;0.0;0.0;0.0;-3.2;-0.24;0.0;0.0;0.0;0.0;0.0;7.0;15.0;-17.0;-2.0;-0.07;0.67;-10.57;0.86;0.19;1.07
1753874606.534302;0.0;0.0;0.0;-3.2;-0.24;0.0;0.0;0.0;0.0;0.0;7.0;15.0;-17.0;-2.0;-0.07;0.67;-10.58;0.92;0.2;0.94
1753874606.539302;0.0;0.0;0.0;-3.2;-0.24;0.0;0.0;0.0;0.0;0.0;7.0;15.0;-17.0;-2.0;-0.07;0.66;-10.57;1.01;0.15;0.87
1753874606.544302;0.0;0.0;0.0;-3.2;-0.24;0.0;0.0;0.0;0.0;0.0;7.0;15.0;-17.0;-2.0;-0.06;0.66;-10.57;1.0;0.24;0.98
1753874606.549302;0.0;0.0;0.0;-3.2;-0.24;0.0;0.0;0.0;0.0;0.0;7.0;15.0;-17.0;-2.0;-0.06;0.66;-10.58;0.9;0.28;0.89
1753874606.554302;0.0;0.0;0.0;-3.2;-0.24;0.0;0.0;0.0;0.0;0.0;7.0;15.0;-17.0;-2.0;-0.06;0.66;-10.58;0.93;0.22;0.93
1753874606.559302;0.0;0.0;0.0;-3.2;-0.24;0.0;0.0;0.0;0.0;0.0;7.0;15.0;-17.0;-2.0;-0.06;0.66;-10.58;0.92;0.22;0.98
1753874606.564302;0.0;0.0;0.0;-3.2;-0.24;0.0;0.0;0.0;0.0;0.0;7.0;15.0;-17.0;-2.0;-0.06;0.66;-10.59;0.89;0.09;0.84
1753874606.569302;0.0;0.0;0.0;-3.2;-0.24;0.0;0.0;0.0;0.0;0.0;7.0;15.0;-17.0;-2.0;-0.06;0.67;-10.59;0.96;0.14;1.09
1753874606.574302;0.0;0.0;0.0;-3.2;-0.24;0.0;0.0;0.0;0.0;0.0;7.0;15.0;-17.0;-2.0;-0.06;0.66;-10.59;0.82;0.2;1.06
1753874606.579302;0.0;0.0;0.0;-3.2;-0.24;0.0;0.0;0.0;0.0;0.0;7.0;15.0;-17.0;-2.0;-0.06;0.66;-10.59;0.89;0.32;1.0
1753874606.584302;0.0;0.0;0.0;-3.2;-0.24;0.0;0.0;0.0;0.0;0.0;7.0;15.0;-17.0;-2.0;-0.07;0.66;-10.58;0.86;0.14;0.94
1753874606.589302;0.0;0.0;0.0;-3.2;-0.24;0.0;0.0;0.0;0.0;0.0;7.0;15.0;-17.0;-2.0;-0.07;0.67;-10.58;0.86;0.28;1.0
1753874606.594302;0.0;0.0;0.0;-3.2;-0.24;0.0;0.0;0.0;0.0;0.0;7.0;15.0;-17.0;-2.0;-0.07;0.66;-10.58;0.77;0.16;1.01
1753874606.599302;0.0;0.0;0.0;-3.2;-0.24;0.0;0.0;0.0;0.0;0.0;7.0;15.0;-17.0;-2.0;-0.07;0.67;-10.58;0.9;0.19;1.05
1753874606.604302;0.0;0.0;0.0;-3.2;-0.24;0.0;0.0;0.0;0.0;0.0;7.0;15.0;-17.0;-2.0;-0.07;0.66;-10.58;0.83;0.19;0.8
1753874606.609302;0.0;0.0;0.0;-3.2;-0.24;0.0;0.0;0.0;0.0;0.0;7.0;15.0;-17.0;-2.0;-0.07;0.66;-10.57;0.78;0.23;0.93
1753874606.614302;0.0;0.0;0.0;-3.2;-0.24;0.0;0.0;0.0;0.0;0.0;7.0;15.0;-17.0;-2.0;-0.07;0.66;-10.58;0.77;0.22;0.96
1753874606.619302;0.0;0.0;0.0;-3.2;-0.24;0.0;0.0;0.0;0.0;0.0;7.0;15.0;-17.0;-2.0;-0.06;0.66;-10.59;0.83;0.3;0.93
1753874606.624302;0.0;0.0;0.0;-3.2;-0.24;0.0;0.0;0.0;0.0;0.0;7.0;15.0;-17.0;-2.0;-0.07;0.66;-10.58;0.7;0.25;0.99
1753874606.629302;0.0;0.0;0.0;-3.2;-0.24;0.0;0.0;0.0;0.0;0.0;7.0;15.0;-17.0;-2.0;-0.06;0.67;-10.58;0.85;-0.03;1.03
1753874606.634302;0.0;0.0;0.0;-3.2;-0.24;0.0;0.0;0.0;0.0;0.0;7.0;15.0;-17.0;-2.0;-0.06;0.67;-10.57;0.9;0.29;0.87
1753874606.639302;0.0;0.0;0.0;-3.2;-0.24;0.0;0.0;0.0;0.0;0.0;7.0;15.0;-17.0;-2.0;-0.06;0.67;-10.58;0.99;0.14;0.96
1753874606.644302;0.0;0.0;0.0;-3.2;-0.24;0.0;0.0;0.0;0.0;0.0;7.0;15.0;-17.0;-2.0;-0.06;0.67;-10.58;0.9;0.19;0.9
1753874606.649302;0.0;0.0;0.0;-3.2;-0.24;0.0;0.0;0.0;0.0;0.0;7.0;15.0;-17.0;-2.0;-0.06;0.66;-10.57;0.9;0.16;1.01
1753874606.654302;0.0;0.0;0.0;-3.2;-0.24;0.0;0.0;0.0;0.0;0.0;7.0;15.0;-17.0;-2.0;-0.07;0.68;-10.58;0.95;0.22;0.92
1753874606.659302;0.0;0.0;0.0;-3.2;-0.24;0.0;0.0;0.0;0.0;0.0;7.0;15.0;-17.0;-2.0;-0.07;0.67;-10.58;0.9;0.21;1.04
1753874606.664302;0.0;0.0;0.0;-3.2;-0.24;0.0;0.0;0.0;0.0;0.0;7.0;15.0;-17.0;-2.0;-0.06;0.66;-10.57;1.02;0.19;0.9
1753874606.669302;0.0;0.0;0.0;-3.2;-0.24;0.0;0.0;0.0;0.0;0.0;7.0;15.0;-17.0;-2.0;-0.07;0.67;-10.57;0.93;0.18;0.9
1753874606.674302;0.0;0.0;0.0;-3.2;-0.24;0.0;0.0;0.0;0.0;0.0;7.0;15.0;-17.0;-2.0;-0.07;0.67;-10.58;1.02;0.14;0.88
1753874606.679302;0.0;0.0;0.0;-3.2;-0.24;0.0;0.0;0.0;0.0;0.0;7.0;15.0;-17.0;-2.0;-0.07;0.68;-10.56;0.87;0.27;0.87
1753874606.684302;0.0;0.0;0.0;-3.2;-0.24;0.0;0.0;0.0;0.0;0.0;7.0;15.0;-17.0;-2.0;-0.07;0.67;-10.57;0.96;0.18;0.95
1753874606.689302;0.0;0.0;0.0;-3.2;-0.24;0.0;0.0;0.0;0.0;0.0;7.0;15.0;-17.0;-2.0;-0.06;0.68;-10.56;1.07;0.15;0.81
1753874606.694302;0.0;0.0;0.0;-3.2;-0.24;0.0;0.0;0.0;0.0;0.0;7.0;15.0;-17.0;-2.0;-0.07;0.67;-10.57;0.88;0.23;0.97
1753874606.699303;0.0;0.0;0.0;-3.2;-0.24;0.0;0.0;0.0;0.0;0.0;7.0;15.0;-17.0;-2.0;-0.07;0.67;-10.55;1.03;0.16;0.95
1753874606.704303;0.0;0.0;0.0;-3.2;-0.24;0.0;0.0;0.0;0.0;0.0;7.0;15.0;-17.0;-2.0;-0.06;0.66;-10.58;0.89;0.23;1.04
1753874606.709303;0.0;0.0;0.0;-3.2;-0.24;0.0;0.0;0.0;0.0;0.0;7.0;15.0;-17.0;-2.0;-0.07;0.67;-10.57;0.91;0.17;1.0
1753874606.714303;0.0;0.0;0.0;-3.2;-0.24;0.0;0.0;0.0;0.0;0.0;7.0;15.0;-17.0;-2.0;-0.07;0.67;-10.58;0.95;0.12;0.89
1753874606.719303;0.0;0.0;0.0;-3.2;-0.24;0.0;0.0;0.0;0.0;0.0;7.0;15.0;-17.0;-2.0;-0.08;0.66;-10.57;0.94;0.17;0.97
1753874606.724303;0.0;0.0;0.0;-3.2;-0.24;0.0;0.0;0.0;0.0;0.0;7.0;15.0;-17.0;-2.0;-0.07;0.67;-10.57;0.86;0.22;0.98
1753874606.729303;0.0;0.0;0.0;-3.2;-0.24;0.0;0.0;0.0;0.0;0.0;7.0;15.0;-17.0;-2.0;-0.08;0.67;-10.58;0.89;0.09;1.0
1753874606.734304;0.0;0.0;0.0;-3.2;-0.24;0.0;0.0;0.0;0.0;0.0;7.0;15.0;-17.0;-2.0;-0.07;0.67;-10.57;0.85;0.28;0.84
1753874606.739304;0.0;0.0;0.0;-3.2;-0.24;0.0;0.0;0.0;0.0;0.0;7.0;15.0;-17.0;-2.0;-0.06;0.67;-10.56;0.9;0.33;0.92
1753874606.744304;0.0;0.0;0.0;-3.2;-0.24;0.0;0.0;0.0;0.0;0.0;7.0;15.0;-17.0;-2.0;-0.07;0.66;-10.56;1.06;0.4;1.01
1753874606.749304;0.0;0.0;0.0;-3.2;-0.24;0.0;0.0;0.0;0.0;0.0;7.0;15.0;-17.0;-2.0;-0.06;0.67;-10.57;0.95;0.19;0.89
1753874606.754304;0.0;0.0;0.0;-3.2;-0.24;0.0;0.0;0.0;0.0;0.0;7.0;15.0;-17.0;-2.0;-0.07;0.66;-10.56;0.91;0.19;1.09
1753874606.759304;0.0;0.0;0.0;-3.2;-0.24;0.0;0.0;0.0;0.0;0.0;7.0;15.0;-17.0;-2.0;-0.06;0.66;-10.56;1.01;0.2;0.97
1753874606.764304;0.0;0.0;0.0;-3.2;-0.24;0.0;0.0;0.0;0.0;0.0;7.0;15.0;-17.0;-2.0;-0.07;0.67;-10.55;0.95;0.13;1.02
1753874606.769304;0.0;0.0;0.0;-3.2;-0.24;0.0;0.0;0.0;0.0;0.0;7.0;15.0;-17.0;-2.0;-0.06;0.66;-10.56;1.06;0.24;1.01
1753874606.774304;0.0;0.0;0.0;-3.2;-0.24;0.0;0.0;0.0;0.0;0.0;7.0;15.0;-17.0;-2.0;-0.06;0.67;-10.57;1.02;0.39;0.88
1753874606.779304;0.0;0.0;0.0;-3.2;-0.24;0.0;0.0;0.0;0.0;0.0;7.0;15.0;-17.0;-2.0;-0.07;0.66;-10.57;1.02;0.23;0.96
1753874606.784304;0.0;0.0;0.0;-3.2;-0.24;0.0;0.0;0.0;0.0;0.0;7.0;15.0;-17.0;-2.0;-0.06;0.67;-10.58;0.94;0.2;0.91
1753874606.789305;0.0;0.0;0.0;-3.2;-0.24;0.0;0.0;0.0;0.0;0.0;7.0;15.0;-17.0;-2.0;-0.06;0.67;-10.56;1.07;0.18;1.02
1753874606.794305;0.0;0.0;0.0;-3.2;-0.24;0.0;0.0;0.0;0.0;0.0;7.0;15.0;-17.0;-2.0;-0.06;0.66;-10.56;0.87;0.2;1.0
1753874606.799305;0.0;0.0;0.0;-3.2;-0.24;0.0;0.0;0.0;0.0;0.0;7.0;15.0;-17.0;-2.0;-0.06;0.66;-10.57;0.95;0.28;0.87
1753874606.804305;0.0;0.0;0.0;-3.2;-0.24;0.0;0.0;0.0;0.0;0.0;7.0;15.0;-17.0;-2.0;-0.06;0.66;-10.57;0.8;0.19;1.1
1753874606.809305;0.0;0.0;0.0;-3.2;-0.24;0.0;0.0;0.0;0.0;0.0;7.0;15.0;-17.0;-2.0;-0.06;0.66;-10.57;0.86;0.27;0.96
1753874606.814305;0.0;0.0;0.0;-3.2;-0.24;0.0;0.0;0.0;0.0;0.0;7.0;15.0;-17.0;-2.0;-0.07;0.66;-10.57;0.95;0.23;1.16
1753874606.819306;0.0;0.0;0.0;-3.2;-0.24;0.0;0.0;0.0;0.0;0.0;7.0;15.0;-17.0;-2.0;-0.07;0.66;-10.57;1.03;0.31;0.99
1753874606.824306;0.0;0.0;0.0;-3.2;-0.24;0.0;0.0;0.0;0.0;0.0;7.0;15.0;-17.0;-2.0;-0.06;0.66;-10.55;0.93;0.2;0.95
1753874606.829302;0.0;0.0;0.0;-3.2;-0.24;0.0;0.0;0.0;0.0;0.0;7.0;15.0;-17.0;-2.0;-0.06;0.66;-10.56;0.93;0.25;1.04
1753874606.834302;0.0;0.0;0.0;-3.2;-0.24;0.0;0.0;0.0;0.0;0.0;7.0;15.0;-17.0;-2.0;-0.06;0.66;-10.56;0.82;0.12;1.03
1753874606.839302;0.0;0.0;0.0;-3.2;-0.24;0.0;0.0;0.0;0.0;0.0;7.0;15.0;-17.0;-2.0;-0.06;0.66;-10.57;0.9;0.12;0.93
1753874606.844302;0.0;0.0;0.0;-3.2;-0.24;0.0;0.0;0.0;0.0;0.0;7.0;15.4;-17.5;-2.0;-0.07;0.66;-10.56;0.87;0.14;1.02
1753874606.849302;0.0;0.0;0.0;-3.2;-0.24;0.0;0.0;0.0;0.0;0.0;6.9;15.8;-17.5;-2.0;-0.07;0.66;-10.57;0.94;0.04;0.91
1753874606.854302;0.0;0.0;0.0;-3.2;-0.24;0.0;0.0;0.0;0.0;0.0;6.4;16.9;-18.2;-2.0;-0.06;0.66;-10.59;0.93;0.11;0.95
1753874606.859302;0.0;0.0;0.0;-3.2;-0.24;0.0;0.0;0.0;0.0;0.0;7.2;12.7;-18.3;-2.0;-0.06;0.66;-10.57;0.89;0.15;0.96
1753874606.864302;0.0;0.0;0.0;-3.2;-0.23;0.0;0.0;0.0;0.0;0.0;7.6;15.7;-16.9;-2.0;-0.06;0.65;-10.57;0.97;0.12;0.9
1753874606.869302;0.0;0.0;0.0;-3.2;-0.24;0.0;0.0;0.0;0.0;0.0;6.1;15.7;-17.4;-2.0;-0.06;0.66;-10.58;0.96;0.13;0.97
1753874606.874303;0.0;0.0;0.0;-3.2;-0.24;0.0;0.0;0.0;0.0;0.0;6.6;16.3;-17.0;-2.0;-0.06;0.65;-10.59;1.05;0.17;0.97
1753874606.879303;0.0;0.0;0.0;-3.2;-0.24;0.0;0.0;0.0;0.0;0.0;5.4;13.7;-17.1;-2.0;-0.06;0.65;-10.58;0.76;-0.01;1.02
1753874606.884303;0.0;0.0;0.0;-3.2;-0.24;0.0;0.0;0.0;0.0;0.0;5.6;14.4;-17.5;-2.0;-0.06;0.66;-10.55;0.81;-0.03;0.9
1753874606.889303;0.0;0.0;0.0;-3.2;-0.24;0.0;0.0;0.0;0.0;0.0;6.3;16.6;-17.6;-2.0;-0.06;0.66;-10.57;0.83;-0.01;0.96
1753874606.894303;0.0;0.0;0.0;-3.2;-0.23;0.0;0.0;0.0;0.0;0.0;6.5;14.7;-16.8;-2.0;-0.06;0.66;-10.57;0.86;0.05;0.86
1753874606.899303;0.0;0.0;0.0;-3.2;-0.24;0.0;0.0;0.0;0.0;0.0;7.3;16.0;-16.9;-2.0;-0.06;0.66;-10.58;0.77;0.22;0.91
1753874606.904303;0.0;0.0;0.0;-3.2;-0.24;0.0;0.0;0.0;0.0;0.0;7.8;15.7;-17.5;-2.0;-0.06;0.66;-10.55;1.06;0.14;0.9
1753874606.909304;0.0;0.0;0.0;-3.2;-0.24;0.0;0.0;0.0;0.0;0.0;6.2;15.7;-16.6;-2.0;-0.05;0.66;-10.57;0.82;0.09;1.02
1753874606.914304;0.0;0.0;0.0;-3.2;-0.24;0.0;0.0;0.0;0.0;0.0;5.8;16.1;-17.9;-2.0;-0.06;0.66;-10.56;0.99;0.31;0.84
1753874606.919304;0.0;0.0;0.0;-3.2;-0.24;0.0;0.0;0.0;0.0;0.0;5.9;17.2;-17.1;-2.0;-0.07;0.66;-10.58;0.83;0.11;0.89
1753874606.924304;0.0;0.0;0.0;-3.2;-0.24;0.0;0.0;0.0;0.0;0.0;7.6;15.4;-17.4;-2.0;-0.06;0.66;-10.56;0.9;0.09;0.79
1753874606.929304;0.0;0.0;0.0;-3.2;-0.24;0.0;0.0;0.0;0.0;0.0;6.1;17.4;-17.1;-2.0;-0.06;0.65;-10.59;0.97;-0.03;0.79
1753874606.934304;0.0;0.0;0.0;-3.2;-0.24;0.0;0.0;0.0;0.0;0.0;5.7;16.8;-17.1;-2.0;-0.06;0.66;-10.58;0.86;0.02;1.01
1753874606.939304;0.0;0.0;0.0;-3.2;-0.24;0.0;0.0;0.0;0.0;0.0;5.8;15.9;-17.8;-2.0;-0.05;0.66;-10.57;0.84;0.11;0.83
1753874606.944304;0.0;0.0;0.0;-3.2;-0.24;0.0;0.0;0.0;0.0;0.0;5.8;17.6;-18.0;-2.0;-0.06;0.66;-10.57;0.93;0.02;0.91
1753874606.949304;0.0;0.0;0.0;-3.2;-0.24;0.0;0.0;0.0;0.0;0.0;6.4;17.5;-17.8;-2.0;-0.06;0.67;-10.56;0.79;0.12;0.94
1753874606.954304;0.0;0.0;0.0;-3.2;-0.24;0.0;0.0;0.0;0.0;0.0;4.8;14.4;-18.0;-2.0;-0.05;0.64;-10.56;0.9;0.15;0.96
1753874606.959304;0.0;0.0;0.0;-3.2;-0.24;0.0;0.0;0.0;0.0;0.0;6.0;17.7;-17.9;-2.0;-0.06;0.65;-10.57;0.84;0.06;0.88
1753874606.964305;0.0;0.0;0.0;-3.2;-0.24;0.0;0.0;0.0;0.0;0.0;5.8;17.4;-16.6;-2.0;-0.06;0.65;-10.58;0.93;0.07;0.91
1753874606.969305;0.0;0.0;0.0;-3.2;-0.24;0.0;0.0;0.0;0.0;0.0;5.7;16.3;-16.8;-2.0;-0.06;0.67;-10.56;0.82;0.13;1.0
1753874606.974305;0.0;0.0;0.0;-3.2;-0.23;0.0;0.0;0.0;0.0;0.0;6.4;16.2;-17.5;-2.0;-0.06;0.66;-10.56;0.86;-0.02;0.9
1753874606.979305;0.0;0.0;0.0;-3.2;-0.24;0.0;0.0;0.0;0.0;0.0;5.7;17.7;-17.4;-2.0;-0.06;0.66;-10.56;1.0;0.05;1.12
1753874606.984305;0.0;0.0;0.0;-3.2;-0.24;0.0;0.0;0.0;0.0;0.0;5.7;15.0;-17.3;-2.0;-0.06;0.67;-10.57;0.88;0.19;0.94
1753874606.989305;0.0;0.0;0.0;-3.2;-0.24;0.0;0.0;0.0;0.0;0.0;6.9;18.6;-17.6;-2.0;-0.06;0.66;-10.57;0.98;0.28;0.87
1753874606.994305;0.0;0.0;0.0;-3.2;-0.23;0.0;0.0;0.0;0.0;0.0;5.5;16.1;-17.6;-2.0;-0.06;0.65;-10.56;0.79;0.01;0.97
1753874606.999306;0.0;0.0;0.0;-3.2;-0.24;0.0;0.0;0.0;0.0;0.0;5.2;16.7;-18.3;-2.0;-0.06;0.66;-10.57;0.93;0.17;0.87
1753874607.004306;0.0;0.0;0.0;-3.2;-0.24;0.0;0.0;0.0;0.0;0.0;4.8;17.2;-17.3;-2.0;-0.05;0.66;-10.57;0.88;0.05;0.94
1753874607.009306;0.0;0.0;0.0;-3.2;-0.24;0.0;0.0;0.0;0.0;0.0;5.2;17.5;-17.4;-2.0;-0.06;0.66;-10.56;0.88;0.17;0.87
1753874607.014306;0.0;0.0;0.0;-3.2;-0.24;0.0;0.0;0.0;0.0;0.0;5.6;18.3;-18.1;-2.0;-0.06;0.66;-10.55;0.9;0.05;1.06
1753874607.019306;0.0;0.0;0.0;-3.2;-0.23;0.0;0.0;0.0;0.0;0.0;2.9;16.6;-17.9;-2.0;-0.06;0.67;-10.58;0.86;-0.04;0.88
1753874607.024306;0.0;0.0;0.0;-3.2;-0.24;0.0;0.0;0.0;0.0;0.0;3.9;18.5;-17.9;-2.0;-0.06;0.66;-10.58;0.89;0.14;0.89
1753874607.029306;0.0;0.0;0.0;-3.2;-0.24;0.0;0.0;0.0;0.0;0.0;5.7;15.9;-18.3;-2.0;-0.06;0.65;-10.57;0.86;0.17;0.99
1753874607.034306;0.0;0.0;0.0;-3.2;-0.23;0.0;0.0;0.0;0.0;0.0;4.9;20.5;-18.4;-2.0;-0.07;0.66;-10.57;0.92;0.02;0.98
1753874607.039306;0.0;0.0;0.0;-3.2;-0.24;0.0;0.0;0.0;0.0;0.0;5.0;18.4;-17.5;-2.0;-0.07;0.66;-10.58;0.8;0.15;0.96
1753874607.044306;0.0;0.0;0.0;-3.2;-0.24;0.0;0.0;0.0;0.0;0.0;5.8;17.8;-17.8;-2.0;-0.06;0.66;-10.58;0.83;0.18;0.9
1753874607.049307;0.0;0.0;0.0;-3.2;-0.23;0.0;0.0;0.0;0.0;0.0;5.7;16.9;-18.4;-2.0;-0.05;0.66;-10.57;0.84;-0.03;0.93
1753874607.054307;0.0;0.0;0.0;-3.2;-0.24;0.0;0.0;0.0;0.0;0.0;4.2;18.3;-17.9;-2.0;-0.06;0.67;-10.57;0.94;0.07;0.84
1753874607.059307;0.0;0.0;0.0;-3.2;-0.23;0.0;0.0;0.0;0.0;0.0;3.9;18.0;-17.9;-2.0;-0.06;0.65;-10.57;0.89;0.14;0.8
1753874607.064307;0.0;0.0;0.0;-3.2;-0.23;0.0;0.0;0.0;0.0;0.0;3.1;18.0;-18.0;-2.0;-0.05;0.66;-10.55;0.93;0.11;0.95
1753874607.069307;0.0;0.0;0.0;-3.2;-0.23;0.0;0.0;0.0;0.0;0.0;4.8;17.5;-18.4;-2.0;-0.05;0.66;-10.56;0.75;0.23;0.89
1753874607.074307;0.0;0.0;0.0;-3.2;-0.24;0.0;0.0;0.0;0.0;0.0;4.0;20.7;-18.7;-2.0;-0.06;0.65;-10.57;0.81;0.15;0.85
1753874607.079307;0.0;0.0;0.0;-3.2;-0.23;0.0;0.0;0.0;0.0;0.0;3.4;20.1;-18.5;-2.0;-0.06;0.65;-10.56;0.79;0.17;0.82
1753874607.084308;0.0;0.0;0.0;-3.2;-0.23;0.0;0.0;0.0;0.0;0.0;4.4;19.4;-18.4;-2.0;-0.06;0.66;-10.57;0.75;0.07;0.89
1753874607.089308;0.0;0.0;0.0;-3.2;-0.23;0.0;0.0;0.0;0.0;0.0;4.9;15.9;-18.2;-2.0;-0.06;0.66;-10.56;0.85;-0.02;0.92
1753874607.094308;0.0;0.0;0.0;-3.2;-0.23;0.0;0.0;0.0;0.0;0.0;2.9;17.4;-18.4;-2.0;-0.06;0.66;-10.56;0.85;0.16;0.92
1753874607.099308;0.0;0.0;0.0;-3.2;-0.23;0.0;0.0;0.0;0.0;0.0;2.8;16.4;-18.7;-2.0;-0.06;0.66;-10.55;0.87;-0.04;0.9
1753874607.104308;0.0;0.0;0.0;-3.2;-0.23;0.0;0.0;0.0;0.0;0.0;3.5;19.6;-18.7;-2.0;-0.07;0.67;-10.57;0.9;0.23;0.98
1753874607.109308;0.0;0.0;0.0;-3.2;-0.23;0.0;0.0;0.0;0.0;0.0;3.3;20.4;-18.0;-2.0;-0.06;0.66;-10.55;0.85;0.08;0.94
1753874607.114308;0.0;0.0;0.0;-3.2;-0.23;0.0;0.0;0.0;0.0;0.0;4.9;19.4;-18.8;-2.0;-0.06;0.65;-10.56;0.86;-0.02;0.96
1753874607.119308;0.0;0.0;0.0;-3.2;-0.23;0.0;0.0;0.0;0.0;0.0;5.0;21.0;-18.0;-2.0;-0.06;0.67;-10.56;0.75;0.04;0.94
1753874607.124308;0.0;0.0;0.0;-3.2;-0.23;0.0;0.0;0.0;0.0;0.0;3.3;17.3;-18.3;-2.0;-0.06;0.67;-10.57;0.85;-0.0;0.79
1753874607.129308;0.0;0.0;0.0;-3.2;-0.23;0.0;0.0;0.0;0.0;0.0;4.8;20.2;-18.4;-2.0;-0.06;0.66;-10.56;0.79;0.06;0.85
1753874607.134308;0.0;0.0;0.0;-3.2;-0.23;0.0;0.0;0.0;0.0;0.0;4.0;17.9;-18.8;-2.0;-0.06;0.66;-10.55;0.93;0.01;0.91
1753874607.139309;0.0;0.0;0.0;-3.2;-0.23;0.0;0.0;0.0;0.0;0.0;2.9;18.5;-17.9;-2.0;-0.05;0.66;-10.56;0.76;0.08;0.8
1753874607.144309;0.0;0.0;0.0;-3.2;-0.23;0.0;0.0;0.0;0.0;0.0;4.0;18.6;-19.1;-2.0;-0.06;0.66;-10.56;0.84;0.26;0.88
1753874607.149309;0.0;0.0;0.0;-3.2;-0.23;0.0;0.0;0.0;0.0;0.0;4.5;19.3;-18.8;-2.0;-0.06;0.66;-10.56;0.94;0.01;0.63
1753874607.154309;0.0;0.0;0.0;-3.2;-0.23;0.0;0.0;0.0;0.0;0.0;4.5;17.5;-19.5;-2.0;-0.07;0.66;-10.57;0.83;-0.08;1.04
1753874607.159309;0.0;0.0;0.0;-3.2;-0.23;0.0;0.0;0.0;0.0;0.0;3.1;20.2;-18.3;-2.0;-0.06;0.66;-10.56;0.89;0.06;1.03
1753874607.164309;0.0;0.0;0.0;-3.2;-0.24;0.0;0.0;0.0;0.0;0.0;3.9;20.1;-18.5;-2.0;-0.06;0.66;-10.56;0.77;-0.03;0.85
1753874607.16931;0.0;0.0;0.0;-3.2;-0.23;0.0;0.0;0.0;0.0;0.0;3.5;19.9;-19.0;-2.0;-0.06;0.66;-10.55;0.72;0.01;0.81
1753874607.17431;0.0;0.0;0.0;-3.2;-0.23;0.0;0.0;0.0;0.0;0.0;5.6;18.4;-19.3;-2.0;-0.06;0.66;-10.56;0.7;-0.1;0.82
1753874607.17931;0.0;0.0;0.0;-3.2;-0.23;0.0;0.0;0.0;0.0;0.0;4.2;19.2;-18.6;-2.0;-0.06;0.65;-10.54;0.89;0.12;0.97
1753874607.18431;0.0;0.0;0.0;-3.2;-0.24;0.0;0.0;0.0;0.0;0.0;3.9;19.3;-18.7;-2.0;-0.07;0.66;-10.56;0.76;0.15;0.98
1753874607.18931;0.0;0.0;0.0;-3.2;-0.23;0.0;0.0;0.0;0.0;0.0;3.6;19.0;-18.4;-2.0;-0.05;0.66;-10.55;0.87;0.02;0.82
1753874607.19431;0.0;0.0;0.0;-3.2;-0.23;0.0;0.0;0.0;0.0;0.0;3.0;19.3;-19.4;-2.0;-0.06;0.67;-10.56;0.81;0.08;0.77
1753874607.19931;0.0;0.0;0.0;-3.2;-0.23;0.0;0.0;0.0;0.0;0.0;3.6;21.0;-19.5;-2.0;-0.05;0.67;-10.57;0.87;0.12;0.82
1753874607.20431;0.0;0.0;0.0;-3.2;-0.23;0.0;0.0;0.0;0.0;0.0;4.2;20.8;-19.1;-2.0;-0.06;0.67;-10.56;0.74;0.06;0.96
1753874607.209302;0.0;0.0;0.0;-3.2;-0.23;0.0;0.0;0.0;0.0;0.0;3.0;20.0;-19.0;-2.0;-0.06;0.66;-10.56;0.84;0.06;0.86
1753874607.214302;0.0;0.0;0.0;-3.2;-0.23;0.0;0.0;0.0;0.0;0.0;3.0;20.0;-19.0;-2.0;-0.06;0.67;-10.56;0.96;0.16;0.93
1753874607.219302;0.0;0.0;0.0;-3.2;-0.23;0.0;0.0;0.0;0.0;0.0;3.0;20.0;-19.0;-2.0;-0.06;0.66;-10.56;0.84;0.24;0.96
1753874607.224302;0.0;0.0;0.0;-3.2;-0.23;0.0;0.0;0.0;0.0;0.0;3.0;20.0;-19.0;-2.0;-0.06;0.66;-10.55;0.84;0.4;1.02
1753874607.229302;0.0;0.0;0.0;-3.2;-0.23;0.0;0.0;0.0;0.0;0.0;3.0;20.0;-19.0;-2.0;-0.06;0.66;-10.55;0.9;0.19;0.97
1753874607.234302;0.0;0.0;0.0;-3.2;-0.23;0.0;0.0;0.0;0.0;0.0;3.0;20.0;-19.0;-2.0;-0.07;0.66;-10.56;0.87;0.28;0.92
1753874607.239302;0.0;0.0;0.0;-3.2;-0.23;0.0;0.0;0.0;0.0;0.0;3.0;20.0;-19.0;-2.0;-0.06;0.66;-10.55;0.72;0.2;1.02
1753874607.244302;0.0;0.0;0.0;-3.2;-0.23;0.0;0.0;0.0;0.0;0.0;3.0;20.0;-19.0;-2.0;-0.07;0.67;-10.55;0.92;0.09;0.82
1753874607.249302;0.0;0.0;0.0;-3.2;-0.23;0.0;0.0;0.0;0.0;0.0;3.0;20.0;-19.0;-2.0;-0.07;0.67;-10.54;0.81;0.18;0.85
1753874607.254302;0.0;0.0;0.0;-3.2;-0.23;0.0;0.0;0.0;0.0;0.0;3.0;20.0;-19.0;-2.0;-0.06;0.67;-10.54;0.89;0.2;0.9
1753874607.259302;0.0;0.0;0.0;-3.2;-0.23;0.0;0.0;0.0;0.0;0.0;3.0;20.0;-19.0;-2.0;-0.06;0.67;-10.54;0.86;0.22;0.9
1753874607.264302;0.0;0.0;0.0;-3.2;-0.23;0.0;0.0;0.0;0.0;0.0;3.0;20.0;-19.0;-2.0;-0.06;0.67;-10.54;0.85;0.17;0.84
1753874607.269302;0.0;0.0;0.0;-3.2;-0.23;0.0;0.0;0.0;0.0;0.0;3.0;20.0;-19.0;-2.0;-0.06;0.67;-10.54;0.83;0.25;1.02
1753874607.274302;0.0;0.0;0.0;-3.2;-0.23;0.0;0.0;0.0;0.0;0.0;3.0;20.0;-19.0;-2.0;-0.06;0.66;-10.54;0.72;0.22;0.81
1753874607.279302;0.0;0.0;0.0;-3.2;-0.23;0.0;0.0;0.0;0.0;0.0;3.0;20.0;-19.0;-2.0;-0.06;0.66;-10.55;0.71;0.16;0.93
1753874607.284302;0.0;0.0;0.0;-3.2;-0.23;0.0;0.0;0.0;0.0;0.0;3.0;20.0;-19.0;-2.0;-0.07;0.66;-10.55;0.78;0.09;0.98
1753874607.289302;0.0;0.0;0.0;-3.2;-0.23;0.0;0.0;0.0;0.0;0.0;3.0;20.0;-19.0;-2.0;-0.06;0.67;-10.55;0.85;0.35;0.9
1753874607.294302;0.0;0.0;0.0;-3.2;-0.23;0.0;0.0;0.0;0.0;0.0;3.0;20.0;-19.0;-2.0;-0.06;0.67;-10.56;0.9;0.35;0.96
1753874607.299302;0.0;0.0;0.0;-3.2;-0.23;0.0;0.0;0.0;0.0;0.0;3.0;20.0;-19.0;-2.0;-0.06;0.66;-10.57;0.85;0.16;0.98
1753874607.304302;0.0;0.0;0.0;-3.2;-0.23;0.0;0.0;0.0;0.0;0.0;3.0;20.0;-19.0;-2.0;-0.05;0.66;-10.57;0.84;0.12;0.99
1753874607.309302;0.0;0.0;0.0;-3.2;-0.23;0.0;0.0;0.0;0.0;0.0;3.0;20.0;-19.0;-2.0;-0.06;0.66;-10.57;0.89;0.22;0.93
1753874607.314302;0.0;0.0;0.0;-3.2;-0.23;0.0;0.0;0.0;0.0;0.0;3.0;20.0;-19.0;-2.0;-0.06;0.66;-10.56;1.01;0.22;0.96
1753874607.319302;0.0;0.0;0.0;-3.2;-0.23;0.0;0.0;0.0;0.0;0.0;3.0;20.0;-19.0;-2.0;-0.06;0.66;-10.56;0.9;0.22;0.93
1753874607.324302;0.0;0.0;0.0;-3.2;-0.23;0.0;0.0;0.0;0.0;0.0;3.0;20.0;-19.0;-2.0;-0.07;0.66;-10.57;0.87;0.16;0.92
1753874607.329302;0.0;0.0;0.0;-3.2;-0.23;0.0;0.0;0.0;0.0;0.0;3.0;20.0;-19.0;-2.0;-0.06;0.67;-10.58;0.88;0.15;1.09
1753874607.334302;0.0;0.0;0.0;-3.2;-0.23;0.0;0.0;0.0;0.0;0.0;3.0;20.0;-19.0;-2.0;-0.06;0.67;-10.57;0.77;0.22;0.9
1753874607.339302;0.0;0.0;0.0;-3.2;-0.23;0.0;0.0;0.0;0.0;0.0;3.0;20.0;-19.0;-2.0;-0.06;0.67;-10.57;0.8;0.12;0.93
1753874607.344302;0.0;0.0;0.0;-3.2;-0.23;0.0;0.0;0.0;0.0;0.0;3.0;20.0;-19.0;-2.0;-0.07;0.67;-10.57;0.98;0.06;0.94
1753874607.349302;0.0;0.0;0.0;-3.2;-0.23;0.0;0.0;0.0;0.0;0.0;3.0;20.0;-19.0;-2.0;-0.07;0.67;-10.56;0.97;0.18;1.0
1753874607.354302;0.0;0.0;0.0;-3.2;-0.23;0.0;0.0;0.0;0.0;0.0;3.0;20.0;-19.0;-2.0;-0.08;0.67;-10.59;0.87;0.09;0.88
1753874607.359302;0.0;0.0;0.0;-3.2;-0.23;0.0;0.0;0.0;0.0;0.0;3.0;20.0;-19.0;-2.0;-0.07;0.67;-10.56;0.83;0.22;0.86
1753874607.364302;0.0;0.0;0.0;-3.2;-0.23;0.0;0.0;0.0;0.0;0.0;3.0;20.0;-19.0;-2.0;-0.07;0.67;-10.56;0.91;0.28;1.02
1753874607.369302;0.0;0.0;0.0;-3.2;-0.23;0.0;0.0;0.0;0.0;0.0;3.0;20.0;-19.0;-2.0;-0.06;0.67;-10.56;0.83;0.33;1.01
1753874607.374302;0.0;0.0;0.0;-3.2;-0.23;0.0;0.0;0.0;0.0;0.0;3.0;20.0;-19.0;-2.0;-0.06;0.68;-10.55;0.78;0.19;0.96
1753874607.379302;0.0;0.0;0.0;-3.2;-0.23;0.0;0.0;0.0;0.0;0.0;3.0;20.0;-19.0;-2.0;-0.06;0.68;-10.56;0.89;0.12;0.86
1753874607.384302;0.0;0.0;0.0;-3.2;-0.23;0.0;0.0;0.0;0.0;0.0;3.0;20.0;-19.0;-2.0;-0.06;0.68;-10.55;0.82;0.27;1.0
1753874607.389302;0.0;0.0;0.0;-3.2;-0.23;0.0;0.0;0.0;0.0;0.0;3.0;20.0;-19.0;-2.0;-0.06;0.68;-10.55;0.83;0.15;0.85
1753874607.394302;0.0;0.0;0.0;-3.2;-0.23;0.0;0.0;0.0;0.0;0.0;3.0;20.0;-19.0;-2.0;-0.05;0.67;-10.55;0.99;0.3;0.92
1753874607.399302;0.0;0.0;0.0;-3.2;-0.23;0.0;0.0;0.0;0.0;0.0;3.0;20.0;-19.0;-2.0;-0.06;0.67;-10.54;0.87;0.23;0.96
1753874607.404302;0.0;0.0;0.0;-3.2;-0.23;0.0;0.0;0.0;0.0;0.0;3.0;20.0;-19.0;-2.0;-0.06;0.68;-10.54;0.72;0.18;0.78
1753874607.409302;0.0;0.0;0.0;-3.2;-0.23;0.0;0.0;0.0;0.0;0.0;3.0;20.0;-19.0;-2.0;-0.05;0.68;-10.55;0.86;0.17;0.83
1753874607.414302;0.0;0.0;0.0;-3.2;-0.23;0.0;0.0;0.0;0.0;0.0;3.0;20.0;-19.0;-2.0;-0.06;0.68;-10.55;0.93;0.14;0.96
1753874607.419302;0.0;0.0;0.0;-3.2;-0.23;0.0;0.0;0.0;0.0;0.0;3.0;20.0;-19.0;-2.0;-0.06;0.68;-10.56;0.96;0.28;0.97
1753874607.424302;0.0;0.0;0.0;-3.2;-0.23;0.0;0.0;0.0;0.0;0.0;3.0;20.0;-19.0;-2.0;-0.06;0.68;-10.56;1.03;0.19;0.93
1753874607.429302;0.0;0.0;0.0;-3.2;-0.23;0.0;0.0;0.0;0.0;0.0;3.0;20.0;-19.0;-2.0;-0.06;0.68;-10.56;0.81;0.3;0.96
1753874607.434302;0.0;0.0;0.0;-3.2;-0.23;0.0;0.0;0.0;0.0;0.0;3.0;20.0;-19.0;-2.0;-0.06;0.67;-10.55;0.9;0.29;1.02
1753874607.439302;0.0;0.0;0.0;-3.2;-0.23;0.0;0.0;0.0;0.0;0.0;3.0;20.0;-19.0;-2.0;-0.06;0.68;-10.55;0.77;0.12;0.96
1753874607.444302;0.0;0.0;0.0;-3.2;-0.23;0.0;0.0;0.0;0.0;0.0;3.0;20.0;-19.0;-2.0;-0.06;0.68;-10.55;0.86;0.3;0.93
1753874607.449302;0.0;0.0;0.0;-3.2;-0.23;0.0;0.0;0.0;0.0;0.0;3.0;20.0;-19.0;-2.0;-0.06;0.68;-10.56;0.66;0.24;0.99
1753874607.454302;0.0;0.0;0.0;-3.2;-0.23;0.0;0.0;0.0;0.0;0.0;3.0;20.0;-19.0;-2.0;-0.05;0.68;-10.56;0.9;0.19;0.96
1753874607.459302;0.0;0.0;0.0;-3.2;-0.23;0.0;0.0;0.0;0.0;0.0;3.0;20.0;-19.0;-2.0;-0.05;0.67;-10.56;0.81;0.22;0.88
1753874607.464302;0.0;0.0;0.0;-3.2;-0.23;0.0;0.0;0.0;0.0;0.0;3.0;20.0;-19.0;-2.0;-0.05;0.67;-10.56;0.9;0.28;0.84
1753874607.469302;0.0;0.0;0.0;-3.2;-0.23;0.0;0.0;0.0;0.0;0.0;3.0;14.1;-19.0;-2.5;-0.05;0.67;-10.57;0.83;0.27;0.82
1753874607.474302;0.0;0.0;0.0;-3.2;-0.23;0.0;0.0;0.0;0.0;0.0;3.0;13.4;-22.9;-1.5;-0.06;0.67;-10.56;0.97;0.32;0.82
1753874607.479302;0.0;0.0;0.0;-3.2;-0.23;0.0;0.0;0.0;0.0;0.0;3.0;11.2;-13.9;-2.1;-0.05;0.67;-10.56;0.91;0.31;0.94
1753874607.484302;0.0;0.0;0.0;-3.2;-0.23;0.0;0.0;0.0;0.0;0.0;3.0;7.8;-23.4;-2.4;-0.05;0.66;-10.55;1.03;0.36;0.82
1753874607.489302;0.0;0.0;0.0;-3.2;-0.23;0.0;0.0;0.0;0.0;0.0;3.0;18.1;-8.9;-3.1;-0.06;0.67;-10.55;0.99;0.35;0.94
1753874607.494302;0.0;0.0;0.0;-3.2;-0.23;0.0;0.0;0.0;0.0;0.0;3.0;16.6;-11.8;-1.8;-0.05;0.67;-10.56;0.74;0.2;0.89
1753874607.499303;0.0;0.0;0.0;-3.2;-0.23;0.0;0.0;0.0;0.0;0.0;3.0;17.8;-14.0;-3.3;-0.06;0.67;-10.57;0.9;0.39;0.85
1753874607.504303;0.0;0.0;0.0;-3.2;-0.23;0.0;0.0;0.0;0.0;0.0;3.0;12.9;-8.9;-2.6;-0.06;0.67;-10.57;0.95;0.12;0.81
1753874607.509303;0.0;0.0;0.0;-3.2;-0.23;0.0;0.0;0.0;0.0;0.0;3.0;3.3;-3.8;-3.5;-0.07;0.68;-10.56;0.93;0.28;1.0
1753874607.514303;0.0;0.0;0.0;-3.2;-0.23;0.0;0.0;0.0;0.0;0.0;3.0;-2.7;-6.1;-4.4;-0.07;0.68;-10.56;0.95;0.15;0.93
1753874607.519303;0.0;0.0;0.0;-3.2;-0.23;0.0;0.0;0.0;0.0;0.0;3.0;5.1;-6.9;-4.3;-0.07;0.68;-10.56;0.87;0.21;0.91
1753874607.524303;0.0;0.0;0.0;-3.2;-0.23;0.0;0.0;0.0;0.0;0.0;3.0;6.1;-7.9;-4.1;-0.06;0.67;-10.57;1.05;0.3;0.81
1753874607.529303;0.0;0.0;0.0;-3.2;-0.23;0.0;0.0;0.0;0.0;0.0;3.0;3.8;-8.1;-3.5;-0.07;0.67;-10.56;0.95;0.15;0.94
1753874607.534304;0.0;0.0;0.0;-3.2;-0.23;0.0;0.0;0.0;0.0;0.0;3.0;-2.5;-12.2;-4.8;-0.06;0.68;-10.56;0.94;0.27;0.93
1753874607.539304;0.0;0.0;0.0;-3.2;-0.23;0.0;0.0;0.0;0.0;0.0;3.0;8.9;-10.9;-3.0;-0.07;0.67;-10.56;1.01;0.27;0.79
1753874607.544304;0.0;0.0;0.0;-3.2;-0.23;0.0;0.0;0.0;0.0;0.0;3.0;10.0;-10.8;-4.3;-0.06;0.68;-10.56;1.07;0.22;0.82
1753874607.549304;0.0;0.0;0.0;-3.2;-0.23;0.0;0.0;0.0;0.0;0.0;3.0;-2.1;-3.2;-4.1;-0.06;0.68;-10.56;0.89;0.22;0.87
1753874607.554304;0.0;0.0;0.0;-3.2;-0.23;0.0;0.0;0.0;0.0;0.0;3.0;-8.1;0.7;-4.7;-0.07;0.68;-10.55;0.96;0.17;0.98
1753874607.559304;0.0;0.0;0.0;-3.2;-0.23;0.0;0.0;0.0;0.0;0.0;3.0;-9.8;0.0;-4.6;-0.05;0.69;-10.56;1.03;0.14;0.99
1753874607.564304;0.0;0.0;0.0;-3.2;-0.23;0.0;0.0;0.0;0.0;0.0;3.0;-1.9;4.3;-4.7;-0.07;0.68;-10.56;0.96;0.19;0.92
1753874607.569304;0.0;0.0;0.0;-3.2;-0.23;0.0;0.0;0.0;0.0;0.0;3.0;-12.5;-1.3;-5.6;-0.08;0.68;-10.56;1.09;0.04;0.92
1753874607.574304;0.0;0.0;0.0;-3.2;-0.23;0.0;0.0;0.0;0.0;0.0;3.0;-9.3;2.0;-5.4;-0.07;0.68;-10.56;0.93;0.17;0.89
1753874607.579302;0.0;0.0;0.0;-3.2;-0.23;0.0;0.0;0.0;0.0;0.0;3.0;-9.0;2.0;-5.0;-0.07;0.68;-10.56;0.99;0.19;0.92
1753874607.584302;0.0;0.0;0.0;-3.2;-0.23;0.0;0.0;0.0;0.0;0.0;3.0;-9.0;2.0;-5.0;-0.07;0.68;-10.56;0.94;0.19;0.88
1753874607.589302;0.0;0.0;0.0;-3.2;-0.23;0.0;0.0;0.0;0.0;0.0;3.0;-9.0;2.0;-5.0;-0.07;0.68;-10.56;0.93;0.19;0.96
1753874607.594302;0.0;0.0;0.0;-3.2;-0.23;0.0;0.0;0.0;0.0;0.0;3.0;-9.0;2.0;-5.0;-0.07;0.69;-10.56;0.8;0.2;0.77
1753874607.599302;0.0;0.0;0.0;-3.2;-0.23;0.0;0.0;0.0;0.0;0.0;3.0;-9.1;5.9;-3.2;-0.07;0.68;-10.55;0.86;0.15;0.81
1753874607.604302;0.0;0.0;0.0;-3.2;-0.23;0.0;0.0;0.0;0.0;0.0;3.0;-18.0;3.3;-6.6;-0.06;0.69;-10.55;0.78;0.07;0.84
1753874607.609302;0.0;0.0;0.0;-3.2;-0.23;0.0;0.0;0.0;0.0;0.0;3.0;-9.0;2.0;-5.0;-0.06;0.68;-10.54;0.92;0.14;0.97
1753874607.614302;0.0;0.0;0.0;-3.2;-0.23;0.0;0.0;0.0;0.0;0.0;3.0;-9.0;2.0;-5.0;-0.06;0.68;-10.54;0.93;0.2;1.09
1753874607.619302;0.0;0.0;0.0;-3.2;-0.23;0.0;0.0;0.0;0.0;0.0;3.0;-9.0;2.0;-5.0;-0.07;0.68;-10.54;0.8;0.2;0.96
1753874607.624302;0.0;0.0;0.0;-3.2;-0.23;0.0;0.0;0.0;0.0;0.0;3.0;-9.0;2.0;-5.0;-0.07;0.67;-10.54;0.83;0.14;0.98
1753874607.629302;0.0;0.0;0.0;-3.2;-0.23;0.0;0.0;0.0;0.0;0.0;3.1;-13.5;-8.0;-4.3;-0.07;0.68;-10.55;0.85;0.12;1.03
1753874607.634302;0.0;0.0;0.0;-3.2;-0.23;0.0;0.0;0.0;0.0;0.0;3.2;-21.6;20.2;-5.1;-0.07;0.67;-10.55;1.08;0.11;0.97
1753874607.639302;0.0;0.0;0.0;-3.2;-0.23;0.0;0.0;0.0;0.0;0.0;3.4;-4.7;4.0;-3.6;-0.06;0.67;-10.56;0.92;0.15;0.93
1753874607.644302;0.0;0.0;0.0;-3.2;-0.23;0.0;0.0;0.0;0.0;0.0;3.0;9.1;5.9;-6.5;-0.06;0.66;-10.54;0.81;0.08;0.95
1753874607.649302;0.0;0.0;0.0;-3.2;-0.23;0.0;0.0;0.0;0.0;0.0;3.2;20.8;19.9;-9.4;-0.07;0.67;-10.53;0.89;0.05;0.97
1753874607.654302;0.0;0.0;0.0;-3.2;-0.23;0.0;0.0;0.0;0.0;0.0;2.7;-36.2;6.3;-10.2;-0.08;0.67;-10.54;0.92;-0.0;0.92
1753874607.659303;0.0;0.0;0.0;-3.2;-0.23;0.0;0.0;0.0;0.0;0.0;3.5;21.7;-3.7;-4.9;-0.06;0.66;-10.54;0.91;0.14;0.93
1753874607.664303;0.0;0.0;0.0;-3.2;-0.22;0.0;0.0;0.0;0.0;0.0;3.2;7.3;1.0;-9.5;-0.06;0.66;-10.53;0.95;0.17;1.04
1753874607.669303;0.0;0.0;0.0;-3.2;-0.23;0.0;0.0;0.0;0.0;0.0;3.4;-2.7;-17.3;-9.2;-0.05;0.66;-10.55;0.76;0.11;0.95
1753874607.674303;0.0;0.0;0.0;-3.2;-0.23;0.0;0.0;0.0;0.0;0.0;3.5;-7.4;-5.1;-5.8;-0.06;0.68;-10.57;0.82;0.13;0.97
1753874607.679303;0.0;0.0;0.0;-3.2;-0.23;0.0;0.0;0.0;0.0;0.0;3.1;3.5;-10.4;-7.1;-0.05;0.67;-10.55;0.87;0.11;0.88
1753874607.684303;0.0;0.0;0.0;-3.2;-0.22;0.0;0.0;0.0;0.0;0.0;3.4;-1.5;-1.7;-8.3;-0.05;0.68;-10.56;0.89;0.07;0.89
1753874607.689304;0.0;0.0;0.0;-3.2;-0.23;0.0;0.0;0.0;0.0;0.0;3.6;-31.9;-13.6;-7.2;-0.06;0.66;-10.55;0.86;0.15;0.97
1753874607.694304;0.0;0.0;0.0;-3.2;-0.23;0.0;0.0;0.0;0.0;0.0;3.4;12.9;-3.2;-6.5;-0.05;0.67;-10.56;0.85;0.09;0.9
1753874607.699304;0.0;0.0;0.0;-3.2;-0.22;0.0;0.0;0.0;0.0;0.0;3.4;22.7;-12.1;-10.3;-0.05;0.68;-10.57;0.8;0.12;1.01
1753874607.704304;0.0;0.0;0.0;-3.2;-0.22;0.0;0.0;0.0;0.0;0.0;3.3;10.8;-12.9;-11.4;-0.05;0.67;-10.55;0.9;0.11;0.78
1753874607.709304;0.0;0.0;0.0;-3.2;-0.23;0.0;0.0;0.0;0.0;0.0;3.7;-14.3;10.8;-6.9;-0.05;0.68;-10.56;0.87;0.1;1.15
1753874607.714304;0.0;0.0;0.0;-3.2;-0.22;0.0;0.0;0.0;0.0;0.0;4.3;-0.7;-1.8;-8.2;-0.05;0.67;-10.57;0.85;0.0;0.91
1753874607.719304;0.0;0.0;0.0;-3.2;-0.22;0.0;0.0;0.0;0.0;0.0;3.4;6.8;2.8;-11.1;-0.06;0.67;-10.56;0.89;0.12;0.82
1753874607.724304;0.0;0.0;0.0;-3.2;-0.22;0.0;0.0;0.0;0.0;0.0;3.9;5.0;0.8;-8.4;-0.05;0.67;-10.57;0.93;0.16;0.9
1753874607.729304;0.0;0.0;0.0;-3.2;-0.22;0.0;0.0;0.0;0.0;0.0;4.0;-5.1;-21.9;-7.2;-0.05;0.67;-10.56;0.97;0.12;0.9
1753874607.734304;0.0;0.0;0.0;-3.2;-0.22;0.0;0.0;0.0;0.0;0.0;3.7;15.4;-6.2;-12.3;-0.06;0.66;-10.57;0.97;0.1;1.02
1753874607.739304;0.0;0.0;0.0;-3.2;-0.22;0.0;0.0;0.0;0.0;0.0;3.7;2.4;-15.1;-9.4;-0.05;0.66;-10.57;0.98;0.16;0.91
1753874607.744305;0.0;0.0;0.0;-3.2;-0.22;0.0;0.0;0.0;0.0;0.0;3.9;9.8;-12.6;-11.8;-0.05;0.68;-10.58;1.02;0.01;1.02
1753874607.749305;0.0;0.0;0.0;-3.2;-0.22;0.0;0.0;0.0;0.0;0.0;4.1;17.3;4.4;-8.5;-0.06;0.66;-10.56;0.83;0.01;0.96
1753874607.754305;0.0;0.0;0.0;-3.2;-0.22;0.0;0.0;0.0;0.0;0.0;4.2;13.1;-24.1;-11.7;-0.06;0.66;-10.58;0.89;0.09;0.98
1753874607.759302;0.0;0.0;0.0;-3.2;-0.22;0.0;0.0;0.0;0.0;0.0;4.0;16.0;-17.0;-10.0;-0.05;0.67;-10.57;0.93;0.1;0.89
1753874607.764302;0.0;0.0;0.0;-3.2;-0.22;0.0;0.0;0.0;0.0;0.0;4.0;16.0;-17.0;-10.0;-0.06;0.67;-10.58;0.87;0.2;0.89
1753874607.769302;0.0;0.0;0.0;-3.2;-0.22;0.0;0.0;0.0;0.0;0.0;4.0;16.0;-17.0;-10.0;-0.06;0.68;-10.59;0.86;0.18;0.92
1753874607.774302;0.0;0.0;0.0;-3.2;-0.22;0.0;0.0;0.0;0.0;0.0;4.0;16.0;-17.0;-10.0;-0.06;0.68;-10.59;0.85;0.25;1.08
1753874607.779302;0.0;0.0;0.0;-3.2;-0.22;0.0;0.0;0.0;0.0;0.0;4.0;16.0;-17.0;-10.0;-0.06;0.68;-10.58;0.83;0.15;0.96
1753874607.784302;0.0;0.0;0.0;-3.2;-0.22;0.0;0.0;0.0;0.0;0.0;4.0;16.0;-17.0;-10.0;-0.06;0.68;-10.58;0.77;0.18;0.93
1753874607.789302;0.0;0.0;0.0;-3.2;-0.22;0.0;0.0;0.0;0.0;0.0;4.0;16.0;-17.0;-10.0;-0.05;0.68;-10.58;0.74;0.14;1.0
1753874607.794302;0.0;0.0;0.0;-3.2;-0.22;0.0;0.0;0.0;0.0;0.0;4.0;16.0;-17.0;-10.0;-0.06;0.68;-10.58;0.93;0.13;1.02
1753874607.799302;0.0;0.0;0.0;-3.2;-0.22;0.0;0.0;0.0;0.0;0.0;4.0;16.0;-17.0;-10.0;-0.06;0.68;-10.58;0.79;0.12;0.9
1753874607.804302;0.0;0.0;0.0;-3.2;-0.22;0.0;0.0;0.0;0.0;0.0;4.0;16.0;-17.0;-10.0;-0.06;0.68;-10.57;0.81;0.2;1.04
1753874607.809302;0.0;0.0;0.0;-3.2;-0.22;0.0;0.0;0.0;0.0;0.0;4.0;16.0;-17.0;-10.0;-0.07;0.68;-10.57;0.87;0.15;1.02
1753874607.814302;0.0;0.0;0.0;-3.2;-0.22;0.0;0.0;0.0;0.0;0.0;4.0;16.0;-17.0;-10.0;-0.07;0.67;-10.56;0.8;0.19;1.06
1753874607.819302;0.0;0.0;0.0;-3.2;-0.22;0.0;0.0;0.0;0.0;0.0;4.0;16.0;-17.0;-10.0;-0.07;0.67;-10.56;1.02;0.24;1.05
1753874607.824302;0.0;0.0;0.0;-3.2;-0.22;0.0;0.0;0.0;0.0;0.0;4.0;16.0;-17.0;-10.0;-0.07;0.68;-10.56;0.99;0.28;0.94
1753874607.829302;0.0;0.0;0.0;-3.2;-0.22;0.0;0.0;0.0;0.0;0.0;0.1;16.4;-15.0;-11.0;-0.07;0.68;-10.57;1.01;0.22;0.89
1753874607.834302;0.0;0.0;0.0;-3.2;-0.23;0.0;0.0;0.0;0.0;0.0;1.4;26.3;11.5;-12.0;-0.07;0.68;-10.54;1.04;0.21;1.0
1753874607.839302;0.0;0.0;0.0;-3.2;-0.22;0.0;0.0;0.0;0.0;0.0;5.2;13.5;-22.0;-9.1;-0.07;0.68;-10.57;0.99;0.33;0.93
1753874607.844302;0.0;0.0;0.0;-3.2;-0.22;0.0;0.0;0.0;0.0;0.0;0.2;4.1;-23.0;-9.7;-0.06;0.67;-10.54;0.95;0.34;0.98
1753874607.849302;0.0;0.0;0.0;-3.2;-0.22;0.0;0.0;0.0;0.0;0.0;4.9;6.5;-0.4;-4.6;-0.07;0.68;-10.55;0.92;0.18;0.86
1753874607.854302;0.0;0.0;0.0;-3.2;-0.22;0.0;0.0;0.0;0.0;0.0;-0.1;1.6;-26.8;-6.0;-0.07;0.68;-10.56;0.95;0.22;1.03
1753874607.859302;0.0;0.0;0.0;-3.2;-0.22;0.0;0.0;0.0;0.0;0.0;4.6;25.3;-11.6;-12.3;-0.07;0.68;-10.56;0.96;0.29;0.98
1753874607.864303;0.0;0.0;0.0;-3.2;-0.22;0.0;0.0;0.0;0.0;0.0;-4.2;21.4;-3.3;-3.5;-0.07;0.68;-10.54;1.05;0.26;0.98
1753874607.869303;0.0;0.0;0.0;-3.2;-0.23;0.0;0.0;0.0;0.0;0.0;1.7;26.9;-7.1;-10.0;-0.07;0.68;-10.56;0.92;0.26;0.91
1753874607.874303;0.0;0.0;0.0;-3.2;-0.24;0.0;0.0;0.0;0.0;0.0;-11.7;-4.1;-28.1;-5.6;-0.07;0.68;-10.57;0.91;0.26;0.96
1753874607.879303;0.0;0.0;0.0;-3.2;-0.23;0.0;0.0;0.0;0.0;0.0;-8.0;8.3;-18.8;-8.2;-0.08;0.68;-10.57;1.11;0.2;1.0
1753874607.884303;0.0;0.0;0.0;-3.2;-0.23;0.0;0.0;0.0;0.0;0.0;-1.9;-2.1;-10.5;2.5;-0.06;0.68;-10.56;0.97;0.23;0.9
1753874607.889303;0.0;0.0;0.0;-3.2;-0.22;0.0;0.0;0.0;0.0;0.0;1.1;36.4;-3.3;0.7;-0.06;0.68;-10.55;0.86;0.19;0.95
1753874607.894303;0.0;0.0;0.0;-3.2;-0.24;0.0;0.0;0.0;0.0;0.0;-18.8;-10.1;-4.5;-6.3;-0.07;0.67;-10.57;1.04;0.14;0.86
1753874607.899304;0.0;0.0;0.0;-3.2;-0.22;0.0;0.0;0.0;0.0;0.0;-7.9;21.6;-2.6;-4.9;-0.06;0.68;-10.57;0.98;0.19;0.8
1753874607.904304;0.0;0.0;0.0;-3.2;-0.23;0.0;0.0;0.0;0.0;0.0;-6.0;-4.0;-14.8;0.3;-0.06;0.68;-10.58;0.97;0.22;0.87
1753874607.909304;0.0;0.0;0.0;-3.2;-0.22;0.0;0.0;0.0;0.0;0.0;-12.9;21.3;-8.6;5.6;-0.07;0.69;-10.58;0.89;0.17;0.86
1753874607.914304;0.0;0.0;0.0;-3.2;-0.22;0.0;0.0;0.0;0.0;0.0;-7.0;2.0;0.9;-1.6;-0.06;0.68;-10.53;0.9;0.22;0.95
1753874607.919304;0.0;0.0;0.0;-3.2;-0.23;0.0;0.0;0.0;0.0;0.0;-5.0;12.0;1.5;1.8;-0.08;0.67;-10.57;0.95;0.27;0.89
1753874607.924304;0.0;0.0;0.0;-3.2;-0.23;0.0;0.0;0.0;0.0;0.0;-13.9;11.6;9.4;-10.0;-0.07;0.68;-10.56;0.9;0.19;0.84
1753874607.929304;0.0;0.0;0.0;-3.2;-0.23;0.0;0.0;0.0;0.0;0.0;-18.5;2.0;-8.8;2.0;-0.06;0.68;-10.57;0.93;0.14;0.98
1753874607.934304;0.0;0.0;0.0;-3.2;-0.23;0.0;0.0;0.0;0.0;0.0;-17.0;4.3;1.6;-2.5;-0.07;0.68;-10.54;0.91;0.25;0.92
1753874607.939304;0.0;0.0;0.0;-3.2;-0.24;0.0;0.0;0.0;0.0;0.0;-9.0;17.4;-11.2;0.9;-0.05;0.68;-10.59;0.86;0.1;0.78
1753874607.944302;0.0;0.0;0.0;-3.2;-0.23;0.0;0.0;0.0;0.0;0.0;-18.0;3.0;5.0;1.0;-0.07;0.68;-10.57;0.92;0.14;0.87
1753874607.949302;0.0;0.0;0.0;-3.2;-0.23;0.0;0.0;0.0;0.0;0.0;-18.0;3.0;5.0;1.0;-0.06;0.68;-10.57;0.97;0.35;0.99
1753874607.954302;0.0;0.0;0.0;-3.2;-0.23;0.0;0.0;0.0;0.0;0.0;-18.0;3.0;5.0;1.0;-0.07;0.68;-10.57;0.93;0.35;0.94
1753874607.959302;0.0;0.0;0.0;-3.2;-0.23;0.0;0.0;0.0;0.0;0.0;-18.0;3.0;5.0;1.0;-0.06;0.67;-10.56;0.82;0.3;0.96
1753874607.964302;0.0;0.0;0.0;-3.2;-0.23;0.0;0.0;0.0;0.0;0.0;-18.0;3.0;5.0;1.0;-0.05;0.67;-10.56;0.94;0.27;0.96
1753874607.969302;0.0;0.0;0.0;-3.2;-0.23;0.0;0.0;0.0;0.0;0.0;-18.0;3.0;5.0;1.0;-0.05;0.67;-10.56;0.86;0.23;0.78
1753874607.974302;0.0;0.0;0.0;-3.2;-0.22;0.0;0.0;0.0;0.0;0.0;-22.2;-0.0;20.1;6.7;-0.05;0.67;-10.56;0.84;0.04;0.88
1753874607.979302;0.0;0.0;0.0;-3.2;-0.23;0.0;0.0;0.0;0.0;0.0;-18.0;3.0;5.0;1.0;-0.05;0.66;-10.56;0.86;0.12;0.94
1753874607.984302;0.0;0.0;0.0;-3.2;-0.23;0.0;0.0;0.0;0.0;0.0;-18.0;3.0;5.0;1.0;-0.05;0.66;-10.56;0.83;0.2;0.82
1753874607.989302;0.0;0.0;0.0;-3.2;-0.23;0.0;0.0;0.0;0.0;0.0;-18.0;3.0;5.0;1.0;-0.05;0.66;-10.55;0.8;0.11;0.92
1753874607.994302;0.0;0.0;0.0;-3.2;-0.23;0.0;0.0;0.0;0.0;0.0;-18.0;3.0;5.0;1.0;-0.05;0.66;-10.55;0.96;0.23;1.06
1753874607.999302;0.0;0.0;0.0;-3.2;-0.23;0.0;0.0;0.0;0.0;0.0;-18.0;3.0;5.0;1.0;-0.06;0.66;-10.55;0.83;0.22;0.99
1753874608.004302;0.0;0.0;0.0;-3.2;-0.23;0.0;0.0;0.0;0.0;0.0;16.3;8.9;19.5;-7.9;-0.06;0.66;-10.55;0.96;0.18;1.04
1753874608.009302;0.0;0.0;0.0;-3.2;-0.23;0.0;0.0;0.0;0.0;0.0;-23.9;-15.8;9.4;1.2;-0.05;0.66;-10.55;0.9;0.27;0.9
1753874608.014302;0.0;0.0;0.0;-3.2;-0.23;0.0;0.0;0.0;0.0;0.0;-15.9;12.3;6.5;-0.2;-0.08;0.67;-10.55;0.94;0.1;0.93
1753874608.019302;0.0;0.0;0.0;-3.2;-0.22;0.0;0.0;0.0;0.0;0.0;-8.9;-2.2;25.4;-6.9;-0.05;0.66;-10.56;0.87;0.25;1.1
1753874608.024302;0.0;0.0;0.0;-3.2;-0.23;0.0;0.0;0.0;0.0;0.0;-20.7;-3.5;7.5;1.9;-0.08;0.65;-10.55;0.94;0.18;1.01
1753874608.029302;0.0;0.0;0.0;-3.2;-0.23;0.0;0.0;0.0;0.0;0.0;-12.0;1.2;0.8;-4.6;-0.07;0.68;-10.56;0.82;0.2;0.88
1753874608.034303;0.0;0.0;0.0;-3.2;-0.23;0.0;0.0;0.0;0.0;0.0;-35.5;3.0;-14.1;1.1;-0.07;0.68;-10.55;0.92;0.23;1.03
1753874608.039303;0.0;0.0;0.0;-3.2;-0.23;0.0;0.0;0.0;0.0;0.0;-10.1;-5.9;-17.3;7.7;-0.07;0.65;-10.57;0.94;0.15;1.03
1753874608.044303;0.0;0.0;0.0;-3.2;-0.22;0.0;0.0;0.0;0.0;0.0;-8.8;-3.0;41.3;-4.3;-0.06;0.67;-10.55;0.94;0.33;0.97
1753874608.049303;0.0;0.0;0.0;-3.2;-0.23;0.0;0.0;0.0;0.0;0.0;4.8;6.4;11.8;0.7;-0.08;0.66;-10.58;0.84;0.15;0.99
1753874608.054303;0.0;0.0;0.0;-3.2;-0.23;0.0;0.0;0.0;0.0;0.0;-24.1;6.6;13.8;-5.0;-0.07;0.68;-10.55;0.78;0.22;0.99
1753874608.059303;0.0;0.0;0.0;-3.2;-0.23;0.0;0.0;0.0;0.0;0.0;-20.4;11.5;5.6;6.0;-0.08;0.65;-10.55;0.97;0.28;0.83
1753874608.064304;0.0;0.0;0.0;-3.2;-0.23;0.0;0.0;0.0;0.0;0.0;-23.7;9.7;11.6;6.0;-0.06;0.65;-10.57;0.99;0.33;1.02
1753874608.069304;0.0;0.0;0.0;-3.2;-0.22;0.0;0.0;0.0;0.0;0.0;-16.5;4.1;-0.0;9.0;-0.07;0.66;-10.56;0.87;0.15;0.89
1753874608.074304;0.0;0.0;0.0;-3.2;-0.23;0.0;0.0;0.0;0.0;0.0;-36.3;4.3;15.6;4.0;-0.06;0.66;-10.58;1.02;0.31;0.84
1753874608.079304;0.0;0.0;0.0;-3.2;-0.22;0.0;0.0;0.0;0.0;0.0;-15.9;-8.8;10.9;5.4;-0.08;0.67;-10.56;0.79;0.25;0.88
1753874608.084304;0.0;0.0;0.0;-3.2;-0.23;0.0;0.0;0.0;0.0;0.0;-6.7;-0.1;14.2;1.3;-0.08;0.68;-10.56;0.83;0.22;0.87
1753874608.089304;0.0;0.0;0.0;-3.2;-0.24;0.0;0.0;0.0;0.0;0.0;2.3;-3.9;-10.9;-3.2;-0.08;0.67;-10.58;0.99;0.39;0.94
1753874608.094304;0.0;0.0;0.0;-3.2;-0.24;0.0;0.0;0.0;0.0;0.0;-26.8;-1.4;-12.1;4.2;-0.05;0.68;-10.56;1.04;0.27;0.91
1753874608.099304;0.0;0.0;0.0;-3.2;-0.23;0.0;0.0;0.0;0.0;0.0;-14.8;7.5;-17.0;0.4;-0.08;0.67;-10.57;0.97;0.37;0.83
1753874608.104304;0.0;0.0;0.0;-3.2;-0.23;0.0;0.0;0.0;0.0;0.0;-13.5;-4.1;8.0;8.2;-0.06;0.66;-10.58;0.86;0.2;0.89
1753874608.109304;0.0;0.0;0.0;-3.2;-0.24;0.0;0.0;0.0;0.0;0.0;-25.2;4.4;-3.7;-0.0;-0.09;0.68;-10.56;1.0;0.26;0.97
1753874608.114304;0.0;0.0;0.0;-3.2;-0.22;0.0;0.0;0.0;0.0;0.0;-26.1;0.9;-6.3;11.0;-0.08;0.67;-10.57;1.03;0.32;0.96
1753874608.119305;0.0;0.0;0.0;-3.2;-0.22;0.0;0.0;0.0;0.0;0.0;-26.4;12.6;12.4;0.3;-0.09;0.67;-10.58;0.88;0.15;0.93
1753874608.124305;0.0;0.0;0.0;-3.2;-0.23;0.0;0.0;0.0;0.0;0.0;-6.1;0.9;8.9;7.1;-0.07;0.66;-10.57;0.83;0.29;0.86
1753874608.129302;0.0;0.0;0.0;-3.2;-0.23;0.0;0.0;0.0;0.0;0.0;-18.0;3.0;5.0;1.0;-0.08;0.67;-10.57;0.9;0.25;0.87
1753874608.134302;0.0;0.0;0.0;-3.2;-0.23;0.0;0.0;0.0;0.0;0.0;-18.0;3.0;5.0;1.0;-0.08;0.67;-10.57;1.05;0.14;0.99
1753874608.139302;0.0;0.0;0.0;-3.2;-0.23;0.0;0.0;0.0;0.0;0.0;-18.0;3.0;5.0;1.0;-0.07;0.67;-10.56;0.85;0.28;0.88
1753874608.144302;0.0;0.0;0.0;-3.2;-0.23;0.0;0.0;0.0;0.0;0.0;-18.0;3.0;5.0;1.0;-0.08;0.67;-10.56;0.9;0.22;0.86
1753874608.149302;0.0;0.0;0.0;-3.2;-0.23;0.0;0.0;0.0;0.0;0.0;-16.5;2.6;2.4;10.7;-0.08;0.66;-10.57;0.78;0.21;0.99
1753874608.154302;0.0;0.0;0.0;-3.2;-0.23;0.0;0.0;0.0;0.0;0.0;-19.2;1.9;5.0;-6.6;-0.06;0.67;-10.57;1.03;0.31;0.9
1753874608.159302;0.0;0.0;0.0;-3.2;-0.23;0.0;0.0;0.0;0.0;0.0;-7.7;2.6;15.2;-1.2;-0.07;0.67;-10.57;0.89;0.4;0.88
1753874608.164302;0.0;0.0;0.0;-3.2;-0.23;0.0;0.0;0.0;0.0;0.0;-26.9;-3.0;22.0;-4.8;-0.09;0.68;-10.55;0.84;0.18;0.85
1753874608.169302;0.0;0.0;0.0;-3.2;-0.23;0.0;0.0;0.0;0.0;0.0;-29.8;6.7;2.5;0.6;-0.08;0.67;-10.55;0.88;0.18;0.76
1753874608.174302;0.0;0.0;0.0;-3.2;-0.23;0.0;0.0;0.0;0.0;0.0;-16.5;0.7;1.1;6.0;-0.08;0.67;-10.59;0.94;0.29;0.9
1753874608.179303;0.0;0.0;0.0;-3.2;-0.23;0.0;0.0;0.0;0.0;0.0;-5.3;2.3;9.4;-10.6;-0.08;0.68;-10.57;0.96;0.2;0.76
1753874608.184303;0.0;0.0;0.0;-3.2;-0.23;0.0;0.0;0.0;0.0;0.0;-15.3;4.7;15.1;-2.2;-0.07;0.67;-10.56;0.79;0.16;0.89
1753874608.189303;0.0;0.0;0.0;-3.2;-0.24;0.0;0.0;0.0;0.0;0.0;-23.9;9.3;1.7;-10.7;-0.08;0.67;-10.57;0.98;0.13;0.85
1753874608.194303;0.0;0.0;0.0;-3.2;-0.24;0.0;0.0;0.0;0.0;0.0;-19.1;-1.9;-2.6;-4.5;-0.08;0.68;-10.56;0.93;0.06;0.96
1753874608.199303;0.0;0.0;0.0;-3.2;-0.23;0.0;0.0;0.0;0.0;0.0;-24.8;-0.2;6.4;-13.6;-0.08;0.66;-10.57;0.95;0.11;1.0
1753874608.204303;0.0;0.0;0.0;-3.2;-0.24;0.0;0.0;0.0;0.0;0.0;3.7;7.9;4.0;-4.6;-0.09;0.67;-10.56;0.91;0.36;0.98
1753874608.209304;0.0;0.0;0.0;-3.2;-0.24;0.0;0.0;0.0;0.0;0.0;2.1;1.6;-3.1;-6.7;-0.08;0.67;-10.57;0.93;0.13;0.89
1753874608.214304;0.0;0.0;0.0;-3.2;-0.24;0.0;0.0;0.0;0.0;0.0;-5.4;1.0;-6.0;6.1;-0.07;0.67;-10.58;0.89;0.14;0.99
1753874608.219304;0.0;0.0;0.0;-3.2;-0.23;0.0;0.0;0.0;0.0;0.0;-14.8;11.2;5.2;-4.7;-0.08;0.66;-10.56;0.81;0.25;0.96
1753874608.224304;0.0;0.0;0.0;-3.2;-0.24;0.0;0.0;0.0;0.0;0.0;-14.5;-1.4;8.9;-10.1;-0.09;0.67;-10.56;0.88;0.17;0.85
1753874608.229304;0.0;0.0;0.0;-3.2;-0.24;0.0;0.0;0.0;0.0;0.0;0.4;4.2;0.9;-16.6;-0.09;0.68;-10.57;0.95;0.16;0.98
1753874608.234304;0.0;0.0;0.0;-3.2;-0.23;0.0;0.0;0.0;0.0;0.0;-14.5;1.1;10.9;-11.0;-0.07;0.66;-10.58;0.84;0.07;1.05
1753874608.239304;0.0;0.0;0.0;-3.2;-0.24;0.0;0.0;0.0;0.0;0.0;-11.7;-1.6;15.8;-16.2;-0.07;0.67;-10.56;0.9;0.22;1.01
1753874608.244304;0.0;0.0;0.0;-3.2;-0.23;0.0;0.0;0.0;0.0;0.0;-9.0;4.3;-4.8;-14.1;-0.11;0.69;-10.57;1.0;0.19;0.99
1753874608.249304;0.0;0.0;0.0;-3.2;-0.24;0.0;0.0;0.0;0.0;0.0;-1.6;3.0;5.6;-14.0;-0.08;0.68;-10.58;0.78;0.26;1.02
1753874608.254304;0.0;0.0;0.0;-3.2;-0.23;0.0;0.0;0.0;0.0;0.0;1.4;9.6;8.9;-12.4;-0.08;0.69;-10.57;0.74;0.18;1.18
1753874608.259304;0.0;0.0;0.0;-3.2;-0.24;0.0;0.0;0.0;0.0;0.0;5.2;-2.3;8.2;-9.3;-0.06;0.68;-10.57;0.78;0.17;0.95
1753874608.264305;0.0;0.0;0.0;-3.2;-0.24;0.0;0.0;0.0;0.0;0.0;4.3;-2.9;-2.0;-9.5;-0.08;0.67;-10.58;0.69;0.2;0.97
1753874608.269305;0.0;0.0;0.0;-3.2;-0.24;0.0;0.0;0.0;0.0;0.0;-3.9;2.1;4.4;-5.2;-0.09;0.67;-10.57;0.95;0.17;1.02
1753874608.274305;0.0;0.0;0.0;-3.2;-0.24;0.0;0.0;0.0;0.0;0.0;-7.4;1.7;5.6;-3.8;-0.07;0.66;-10.58;0.92;0.05;0.9
1753874608.279305;0.0;0.0;0.0;-3.2;-0.24;0.0;0.0;0.0;0.0;0.0;-24.0;3.1;6.3;-13.2;-0.05;0.68;-10.59;0.82;0.23;0.93
1753874608.284305;0.0;0.0;0.0;-3.2;-0.24;0.0;0.0;0.0;0.0;0.0;-3.2;1.5;-9.8;-19.8;-0.05;0.67;-10.57;0.96;0.09;0.96
1753874608.289305;0.0;0.0;0.0;-3.2;-0.23;0.0;0.0;0.0;0.0;0.0;-0.6;6.5;-7.6;-13.2;-0.09;0.67;-10.58;1.0;0.17;1.06
1753874608.294305;0.0;0.0;0.0;-3.2;-0.24;0.0;0.0;0.0;0.0;0.0;1.5;3.6;-10.7;-14.0;-0.05;0.67;-10.59;0.8;0.14;1.05
1753874608.299306;0.0;0.0;0.0;-3.2;-0.24;0.0;0.0;0.0;0.0;0.0;2.5;3.2;-13.1;-4.0;-0.07;0.68;-10.58;0.89;0.11;0.88
1753874608.304306;0.0;0.0;0.0;-3.2;-0.24;0.0;0.0;0.0;0.0;0.0;-3.7;7.9;7.4;-5.6;-0.06;0.68;-10.59;0.83;0.09;1.06
1753874608.309306;0.0;0.0;0.0;-3.2;-0.24;0.0;0.0;0.0;0.0;0.0;18.5;7.7;9.4;-14.8;-0.06;0.67;-10.57;0.81;0.05;0.99
1753874608.314306;0.0;0.0;0.0;-3.2;-0.23;0.0;0.0;0.0;0.0;0.0;-1.1;-2.8;-7.4;-13.3;-0.11;0.67;-10.58;0.78;0.26;1.11
1753874608.319306;0.0;0.0;0.0;-3.2;-0.23;0.0;0.0;0.0;0.0;0.0;-0.7;-1.0;5.9;-12.1;-0.06;0.66;-10.56;0.84;0.29;0.99
1753874608.324306;0.0;0.0;0.0;-3.2;-0.24;0.0;0.0;0.0;0.0;0.0;12.5;-1.3;-1.5;-11.0;-0.06;0.67;-10.57;0.93;0.16;0.89
1753874608.329302;0.0;0.0;0.0;-3.2;-0.24;0.0;0.0;0.0;0.0;0.0;4.0;3.0;0.0;-12.0;-0.07;0.67;-10.58;0.87;0.1;1.04
1753874608.334302;0.0;0.0;0.0;-3.2;-0.24;0.0;0.0;0.0;0.0;0.0;4.0;3.0;0.0;-12.0;-0.07;0.66;-10.59;0.81;0.19;0.99
1753874608.339302;0.0;0.0;0.0;-3.2;-0.24;0.0;0.0;0.0;0.0;0.0;4.0;3.0;0.0;-12.0;-0.07;0.67;-10.59;0.89;0.09;0.93
1753874608.344302;0.0;0.0;0.0;-3.2;-0.24;0.0;0.0;0.0;0.0;0.0;4.0;3.0;0.0;-12.0;-0.07;0.67;-10.58;0.83;0.12;1.01
1753874608.349302;0.0;0.0;0.0;-3.2;-0.24;0.0;0.0;0.0;0.0;0.0;4.0;3.0;0.0;-12.0;-0.07;0.67;-10.58;0.81;0.28;0.91
1753874608.354302;0.0;0.0;0.0;-3.2;-0.24;0.0;0.0;0.0;0.0;0.0;4.0;3.0;0.0;-12.0;-0.07;0.66;-10.58;0.83;0.25;0.94
1753874608.359302;0.0;0.0;0.0;-3.2;-0.24;0.0;0.0;0.0;0.0;0.0;4.0;3.0;0.0;-12.0;-0.07;0.67;-10.58;0.78;0.17;1.02
1753874608.364302;0.0;0.0;0.0;-3.2;-0.24;0.0;0.0;0.0;0.0;0.0;4.0;3.0;0.0;-12.0;-0.07;0.67;-10.58;0.77;0.16;0.96
1753874608.369302;0.0;0.0;0.0;-3.2;-0.24;0.0;0.0;0.0;0.0;0.0;4.0;3.0;0.0;-12.0;-0.07;0.67;-10.58;0.86;0.27;0.95
1753874608.374302;0.0;0.0;0.0;-3.2;-0.24;0.0;0.0;0.0;0.0;0.0;4.0;3.0;0.0;-12.0;-0.07;0.67;-10.57;0.91;0.11;0.93
1753874608.379302;0.0;0.0;0.0;-3.2;-0.24;0.0;0.0;0.0;0.0;0.0;4.0;3.0;0.0;-12.0;-0.07;0.68;-10.57;0.93;0.12;0.9
1753874608.384302;0.0;0.0;0.0;-3.2;-0.24;0.0;0.0;0.0;0.0;0.0;4.0;3.0;0.0;-12.0;-0.07;0.67;-10.56;0.92;0.22;0.96
1753874608.389302;0.0;0.0;0.0;-3.2;-0.24;0.0;0.0;0.0;0.0;0.0;4.0;3.0;0.0;-12.0;-0.08;0.68;-10.56;0.86;0.26;1.1
1753874608.394302;0.0;0.0;0.0;-3.2;-0.24;0.0;0.0;0.0;0.0;0.0;4.0;3.0;0.0;-12.0;-0.08;0.67;-10.56;1.03;0.23;0.88
1753874608.399302;0.0;0.0;0.0;-3.2;-0.24;0.0;0.0;0.0;0.0;0.0;4.0;3.0;0.0;-12.0;-0.08;0.67;-10.56;0.83;0.19;1.01
1753874608.404302;0.0;0.0;0.0;-3.2;-0.24;0.0;0.0;0.0;0.0;0.0;4.0;3.0;0.0;-12.0;-0.08;0.67;-10.56;0.83;0.14;0.95
1753874608.409302;0.0;0.0;0.0;-3.2;-0.24;0.0;0.0;0.0;0.0;0.0;-4.0;2.8;0.8;-9.6;-0.08;0.66;-10.57;0.83;0.15;0.97
1753874608.414302;0.0;0.0;0.0;-3.2;-0.24;0.0;0.0;0.0;0.0;0.0;-3.1;4.4;2.9;-13.5;-0.07;0.67;-10.55;0.75;0.08;0.85
1753874608.419302;0.0;0.0;0.0;-3.2;-0.23;0.0;0.0;0.0;0.0;0.0;8.1;6.4;-0.7;-10.1;-0.07;0.67;-10.57;0.76;0.14;0.9
1753874608.424302;0.0;0.0;0.0;-3.2;-0.24;0.0;0.0;0.0;0.0;0.0;10.7;-5.0;-0.5;-5.8;-0.08;0.67;-10.56;0.85;0.19;1.0
1753874608.429302;0.0;0.0;0.0;-3.2;-0.24;0.0;0.0;0.0;0.0;0.0;-10.1;3.0;-4.6;-7.9;-0.07;0.67;-10.56;0.92;0.16;0.89
1753874608.434302;0.0;0.0;0.0;-3.2;-0.25;0.0;0.0;0.0;0.0;0.0;8.0;-1.9;-7.1;-10.1;-0.08;0.67;-10.57;0.79;0.19;0.9
1753874608.439303;0.0;0.0;0.0;-3.2;-0.25;0.0;0.0;0.0;0.0;0.0;-5.5;5.0;-8.9;-14.9;-0.07;0.67;-10.56;0.82;0.14;0.92
1753874608.444303;0.0;0.0;0.0;-3.2;-0.25;0.0;0.0;0.0;0.0;0.0;1.4;3.9;-9.6;-18.8;-0.08;0.67;-10.56;0.85;0.16;0.89
1753874608.449303;0.0;0.0;0.0;-3.2;-0.25;0.0;0.0;0.0;0.0;0.0;8.6;-0.4;-2.6;-13.1;-0.07;0.67;-10.58;0.91;0.21;1.03
1753874608.454303;0.0;0.0;0.0;-3.2;-0.25;0.0;0.0;0.0;0.0;0.0;12.5;-9.5;-1.6;-18.0;-0.07;0.68;-10.57;0.92;0.16;0.95
1753874608.459303;0.0;0.0;0.0;-3.2;-0.25;0.0;0.0;0.0;0.0;0.0;-14.5;-0.1;-3.6;-7.4;-0.08;0.67;-10.59;0.97;0.12;1.1
1753874608.464303;0.0;0.0;0.0;-3.2;-0.24;0.0;0.0;0.0;0.0;0.0;-5.8;-4.1;-4.9;2.4;-0.07;0.67;-10.57;0.86;0.12;0.94
1753874608.469303;0.0;0.0;0.0;-3.2;-0.25;0.0;0.0;0.0;0.0;0.0;9.3;-8.0;-15.8;-5.3;-0.07;0.67;-10.56;0.81;0.17;1.02
1753874608.474304;0.0;0.0;0.0;-3.2;-0.25;0.0;0.0;0.0;0.0;0.0;2.0;-11.2;-17.6;-4.3;-0.07;0.68;-10.56;0.9;0.24;1.09
1753874608.479304;0.0;0.0;0.0;-3.2;-0.24;0.0;0.0;0.0;0.0;0.0;8.6;-1.7;-14.4;-4.2;-0.07;0.67;-10.57;0.92;0.18;0.98
1753874608.484304;0.0;0.0;0.0;-3.2;-0.24;0.0;0.0;0.0;0.0;0.0;18.0;-12.6;-12.3;0.4;-0.07;0.67;-10.57;0.95;0.19;1.07
1753874608.489304;0.0;0.0;0.0;-3.2;-0.25;0.0;0.0;0.0;0.0;0.0;1.1;-10.1;-9.9;-12.4;-0.06;0.67;-10.57;0.82;0.15;0.93
1753874608.494304;0.0;0.0;0.0;-3.2;-0.25;0.0;0.0;0.0;0.0;0.0;21.8;-11.2;-19.0;-4.7;-0.07;0.67;-10.57;0.93;0.26;1.04
1753874608.499304;0.0;0.0;0.0;-3.2;-0.27;0.0;0.0;0.0;0.0;0.0;11.8;-13.0;-12.8;-2.7;-0.07;0.67;-10.57;0.91;0.24;0.97
1753874608.504304;0.0;0.0;0.0;-3.2;-0.25;0.0;0.0;0.0;0.0;0.0;33.2;-24.9;-13.3;-8.3;-0.06;0.67;-10.57;0.88;0.19;1.01
1753874608.509304;0.0;0.0;0.0;-3.2;-0.25;0.0;0.0;0.0;0.0;0.0;17.6;-11.5;-11.5;-10.4;-0.07;0.67;-10.58;0.73;0.23;1.13
1753874608.514304;0.0;0.0;0.0;-3.2;-0.25;0.0;0.0;0.0;0.0;0.0;14.3;-8.8;-9.3;-5.6;-0.07;0.68;-10.57;0.82;0.31;1.03
1753874608.519302;0.0;0.0;0.0;-3.2;-0.26;0.0;0.0;0.0;0.0;0.0;8.0;-15.0;-15.0;-6.0;-0.06;0.67;-10.58;0.88;0.21;0.99
1753874608.524302;0.0;0.0;0.0;-3.2;-0.26;0.0;0.0;0.0;0.0;0.0;8.0;-15.0;-15.0;-6.0;-0.06;0.67;-10.57;0.81;0.18;0.99
1753874608.529302;0.0;0.0;0.0;-3.2;-0.26;0.0;0.0;0.0;0.0;0.0;8.0;-15.0;-15.0;-6.0;-0.06;0.67;-10.57;0.96;0.12;0.99
1753874608.534302;0.0;0.0;0.0;-3.2;-0.26;0.0;0.0;0.0;0.0;0.0;8.0;-15.0;-15.0;-6.0;-0.06;0.67;-10.56;0.99;0.09;0.93
1753874608.539302;0.0;0.0;0.0;-3.2;-0.26;0.0;0.0;0.0;0.0;0.0;6.6;-17.7;-39.7;-8.4;-0.06;0.66;-10.56;0.92;0.11;0.9
1753874608.544302;0.0;0.0;0.0;-3.2;-0.26;0.0;0.0;0.0;0.0;0.0;8.0;-15.0;-15.0;-6.0;-0.06;0.67;-10.56;0.85;0.13;0.91
1753874608.549302;0.0;0.0;0.0;-3.2;-0.26;0.0;0.0;0.0;0.0;0.0;8.0;-15.0;-15.0;-6.0;-0.06;0.67;-10.56;0.9;0.16;0.99
1753874608.554302;0.0;0.0;0.0;-3.2;-0.26;0.0;0.0;0.0;0.0;0.0;8.0;-15.0;-15.0;-6.0;-0.07;0.67;-10.57;0.9;0.06;0.99
1753874608.559302;0.0;0.0;0.0;-3.2;-0.26;0.0;0.0;0.0;0.0;0.0;8.0;-15.0;-15.0;-6.0;-0.07;0.67;-10.56;0.93;0.15;1.12
1753874608.564302;0.0;0.0;0.0;-3.2;-0.26;0.0;0.0;0.0;0.0;0.0;8.0;-15.0;-15.0;-6.0;-0.06;0.67;-10.56;0.78;0.31;0.98
1753874608.569302;0.0;0.0;0.0;-3.2;-0.26;0.0;0.0;0.0;0.0;0.0;8.0;-15.0;-15.0;-6.0;-0.07;0.67;-10.56;0.98;0.1;0.93
1753874608.574302;0.0;0.0;0.0;-3.2;-0.26;0.0;0.0;0.0;0.0;0.0;7.4;-18.7;-17.0;-5.8;-0.08;0.67;-10.54;1.01;0.02;0.99
1753874608.579302;0.0;0.0;0.0;-3.2;-0.27;0.0;0.0;0.0;0.0;0.0;6.2;-22.8;-9.1;-6.7;-0.07;0.68;-10.56;0.97;0.07;0.96
1753874608.584302;0.0;0.0;0.0;-3.2;-0.27;0.0;0.0;0.0;0.0;0.0;10.2;-9.4;-7.8;-2.7;-0.07;0.67;-10.57;1.0;0.06;0.96
1753874608.589302;0.0;0.0;0.0;-3.2;-0.25;0.0;0.0;0.0;0.0;0.0;7.6;-20.0;-15.5;-8.3;-0.07;0.67;-10.57;0.98;0.14;0.98
1753874608.594302;0.0;0.0;0.0;-3.2;-0.25;0.0;0.0;0.0;0.0;0.0;13.6;-13.5;-22.7;-4.8;-0.06;0.67;-10.57;0.92;0.28;0.9
1753874608.599302;0.0;0.0;0.0;-3.2;-0.26;0.0;0.0;0.0;0.0;0.0;10.5;-22.1;-10.2;-10.4;-0.07;0.67;-10.57;1.06;0.13;0.88
1753874608.604303;0.0;0.0;0.0;-3.2;-0.25;0.0;0.0;0.0;0.0;0.0;6.0;-18.1;-5.5;-3.6;-0.06;0.67;-10.57;0.98;0.06;1.01
1753874608.609303;0.0;0.0;0.0;-3.2;-0.25;0.0;0.0;0.0;0.0;0.0;7.6;-24.1;-23.5;-4.3;-0.06;0.67;-10.56;1.03;0.16;0.94
1753874608.614303;0.0;0.0;0.0;-3.2;-0.26;0.0;0.0;0.0;0.0;0.0;10.0;-40.8;-9.6;-4.3;-0.06;0.67;-10.57;0.83;0.16;0.93
1753874608.619303;0.0;0.0;0.0;-3.2;-0.25;0.0;0.0;0.0;0.0;0.0;8.4;-19.5;-13.2;-2.1;-0.06;0.67;-10.57;0.91;0.23;0.82
1753874608.624303;0.0;0.0;0.0;-3.2;-0.26;0.0;0.0;0.0;0.0;0.0;6.8;-19.7;-10.7;-6.0;-0.07;0.67;-10.57;0.81;0.17;1.11
1753874608.629303;0.0;0.0;0.0;-3.2;-0.27;0.0;0.0;0.0;0.0;0.0;8.5;-15.7;-28.2;-6.2;-0.05;0.67;-10.57;0.92;0.19;0.96
1753874608.634303;0.0;0.0;0.0;-3.2;-0.27;0.0;0.0;0.0;0.0;0.0;11.4;-11.6;-31.8;-7.3;-0.07;0.67;-10.57;0.93;0.19;0.98
1753874608.639304;0.0;0.0;0.0;-3.2;-0.26;0.0;0.0;0.0;0.0;0.0;11.2;-19.1;-13.1;-11.0;-0.08;0.67;-10.56;0.89;0.16;0.95
1753874608.644304;0.0;0.0;0.0;-3.2;-0.26;0.0;0.0;0.0;0.0;0.0;4.4;-17.1;5.4;-2.3;-0.07;0.67;-10.56;0.88;0.25;0.95
1753874608.649304;0.0;0.0;0.0;-3.2;-0.25;0.0;0.0;0.0;0.0;0.0;10.2;-26.7;-10.2;-7.1;-0.07;0.67;-10.56;0.88;0.25;0.92
1753874608.654304;0.0;0.0;0.0;-3.2;-0.26;0.0;0.0;0.0;0.0;0.0;8.3;-19.9;-32.5;-12.7;-0.06;0.67;-10.57;0.95;0.31;1.03
1753874608.659304;0.0;0.0;0.0;-3.2;-0.28;0.0;0.0;0.0;0.0;0.0;7.9;-3.2;-23.5;-1.5;-0.06;0.66;-10.58;0.94;0.11;0.99
1753874608.664304;0.0;0.0;0.0;-3.2;-0.25;0.0;0.0;0.0;0.0;0.0;9.4;1.5;-1.3;-4.0;-0.07;0.67;-10.58;0.93;0.23;0.82
1753874608.669304;0.0;0.0;0.0;-3.2;-0.26;0.0;0.0;0.0;0.0;0.0;11.8;-22.9;-24.1;-7.7;-0.06;0.67;-10.57;0.84;0.24;0.91
1753874608.674304;0.0;0.0;0.0;-3.2;-0.26;0.0;0.0;0.0;0.0;0.0;5.8;-18.9;-12.1;-4.4;-0.06;0.67;-10.58;0.96;0.2;0.98
1753874608.679304;0.0;0.0;0.0;-3.2;-0.27;0.0;0.0;0.0;0.0;0.0;9.3;-23.9;-0.3;-5.6;-0.07;0.67;-10.58;0.83;0.25;0.94
1753874608.684304;0.0;0.0;0.0;-3.2;-0.26;0.0;0.0;0.0;0.0;0.0;11.9;-11.8;-10.9;0.3;-0.05;0.67;-10.57;0.74;0.28;1.02
1753874608.689304;0.0;0.0;0.0;-3.2;-0.24;0.0;0.0;0.0;0.0;0.0;5.7;-17.2;-17.8;-7.5;-0.06;0.67;-10.59;0.88;0.15;0.98
1753874608.694305;0.0;0.0;0.0;-3.2;-0.27;0.0;0.0;0.0;0.0;0.0;9.5;-20.8;-20.5;-11.4;-0.05;0.68;-10.58;0.77;0.19;0.96
1753874608.699305;0.0;0.0;0.0;-3.2;-0.28;0.0;0.0;0.0;0.0;0.0;6.6;-6.2;-4.3;-5.2;-0.05;0.67;-10.58;0.86;0.22;1.08
1753874608.704302;0.0;0.0;0.0;-3.2;-0.26;0.0;0.0;0.0;0.0;0.0;8.0;-15.0;-15.0;-6.0;-0.06;0.67;-10.58;0.86;0.28;0.99
1753874608.709302;0.0;0.0;0.0;-3.2;-0.26;0.0;0.0;0.0;0.0;0.0;8.0;-15.0;-15.0;-6.0;-0.06;0.67;-10.58;0.89;0.13;0.93
1753874608.714302;0.0;0.0;0.0;-3.2;-0.26;0.0;0.0;0.0;0.0;0.0;8.0;-15.0;-15.0;-6.0;-0.06;0.67;-10.57;0.8;0.28;0.85
1753874608.719302;0.0;0.0;0.0;-3.2;-0.26;0.0;0.0;0.0;0.0;0.0;8.0;-15.0;-15.0;-6.0;-0.05;0.67;-10.57;1.04;0.3;0.98
1753874608.724302;0.0;0.0;0.0;-3.2;-0.26;0.0;0.0;0.0;0.0;0.0;8.0;-15.0;-15.0;-6.0;-0.05;0.67;-10.57;0.86;0.11;0.96
1753874608.729302;0.0;0.0;0.0;-3.2;-0.26;0.0;0.0;0.0;0.0;0.0;8.0;-15.0;-15.0;-6.0;-0.05;0.68;-10.56;0.9;0.33;0.85
1753874608.734302;0.0;0.0;0.0;-3.2;-0.26;0.0;0.0;0.0;0.0;0.0;8.0;-15.0;-15.0;-6.0;-0.05;0.68;-10.56;0.9;0.15;0.95
1753874608.739302;0.0;0.0;0.0;-3.2;-0.26;0.0;0.0;0.0;0.0;0.0;8.0;-15.0;-15.0;-6.0;-0.05;0.67;-10.55;0.84;0.14;0.88
1753874608.744302;0.0;0.0;0.0;-3.2;-0.26;0.0;0.0;0.0;0.0;0.0;8.0;-15.0;-15.0;-6.0;-0.05;0.68;-10.56;0.82;0.19;0.88
1753874608.749302;0.0;0.0;0.0;-3.2;-0.26;0.0;0.0;0.0;0.0;0.0;8.0;-15.0;-15.0;-6.0;-0.05;0.68;-10.56;1.01;0.13;0.91
1753874608.754302;0.0;0.0;0.0;-3.2;-0.26;0.0;0.0;0.0;0.0;0.0;8.0;-15.0;-15.0;-6.0;-0.05;0.68;-10.55;0.92;0.14;0.93
1753874608.759302;0.0;0.0;0.0;-3.2;-0.26;0.0;0.0;0.0;0.0;0.0;6.2;-10.7;-13.8;-5.4;-0.04;0.69;-10.55;0.96;0.17;0.98
1753874608.764302;0.0;0.0;0.0;-3.2;-0.26;0.0;0.0;0.0;0.0;0.0;6.3;-17.1;-13.0;-5.8;-0.05;0.68;-10.55;0.87;0.16;0.98
1753874608.769302;0.0;0.0;0.0;-3.2;-0.26;0.0;0.0;0.0;0.0;0.0;8.0;-13.9;-11.5;-5.7;-0.05;0.69;-10.55;0.96;0.1;1.11
1753874608.774302;0.0;0.0;0.0;-3.2;-0.25;0.0;0.0;0.0;0.0;0.0;6.0;-10.8;-9.9;-5.8;-0.04;0.68;-10.56;0.91;0.32;0.81
1753874608.779302;0.0;0.0;0.0;-3.2;-0.25;0.0;0.0;0.0;0.0;0.0;7.0;-20.3;-17.9;-6.0;-0.05;0.67;-10.56;0.91;0.19;0.93
1753874608.784303;0.0;0.0;0.0;-3.2;-0.25;0.0;0.0;0.0;0.0;0.0;6.1;-12.6;-19.4;-5.8;-0.06;0.68;-10.55;0.81;0.09;0.86
1753874608.789303;0.0;0.0;0.0;-3.2;-0.25;0.0;0.0;0.0;0.0;0.0;6.8;-9.3;-10.7;-5.7;-0.06;0.67;-10.56;0.84;0.19;0.95
1753874608.794303;0.0;0.0;0.0;-3.2;-0.25;0.0;0.0;0.0;0.0;0.0;7.0;-7.7;-8.6;-5.6;-0.05;0.67;-10.55;0.96;0.35;0.94
1753874608.799303;0.0;0.0;0.0;-3.2;-0.25;0.0;0.0;0.0;0.0;0.0;8.9;-6.1;-9.6;-6.0;-0.05;0.67;-10.56;0.95;0.02;0.95
1753874608.804303;0.0;0.0;0.0;-3.2;-0.25;0.0;0.0;0.0;0.0;0.0;7.6;-13.0;-9.6;-5.5;-0.05;0.67;-10.57;0.8;0.17;1.06
1753874608.809303;0.0;0.0;0.0;-3.2;-0.25;0.0;0.0;0.0;0.0;0.0;7.1;-10.4;-1.7;-5.6;-0.06;0.67;-10.58;1.05;0.34;0.87
1753874608.814304;0.0;0.0;0.0;-3.2;-0.25;0.0;0.0;0.0;0.0;0.0;6.7;-10.0;-7.7;-5.4;-0.04;0.68;-10.57;0.9;0.3;0.9
1753874608.819304;0.0;0.0;0.0;-3.2;-0.25;0.0;0.0;0.0;0.0;0.0;6.1;-9.1;-4.9;-5.7;-0.05;0.67;-10.57;0.95;0.23;0.86
1753874608.824304;0.0;0.0;0.0;-3.2;-0.26;0.0;0.0;0.0;0.0;0.0;6.7;-8.5;-6.2;-5.1;-0.06;0.67;-10.57;1.01;0.19;0.91
1753874608.829304;0.0;0.0;0.0;-3.2;-0.25;0.0;0.0;0.0;0.0;0.0;6.1;-9.9;-8.8;-5.3;-0.06;0.66;-10.58;0.95;0.29;0.98
1753874608.834304;0.0;0.0;0.0;-3.2;-0.25;0.0;0.0;0.0;0.0;0.0;6.2;-4.3;-3.1;-5.4;-0.07;0.67;-10.55;0.97;0.29;0.95
1753874608.839304;0.0;0.0;0.0;-3.2;-0.24;0.0;0.0;0.0;0.0;0.0;5.1;0.6;-6.3;-5.1;-0.06;0.68;-10.57;0.93;0.22;0.87
1753874608.844304;0.0;0.0;0.0;-3.2;-0.24;0.0;0.0;0.0;0.0;0.0;5.6;-6.2;-1.9;-5.5;-0.05;0.67;-10.56;0.92;0.29;1.03
1753874608.849304;0.0;0.0;0.0;-3.2;-0.24;0.0;0.0;0.0;0.0;0.0;4.9;-1.9;-2.8;-5.3;-0.05;0.66;-10.56;0.95;0.17;0.81
1753874608.854304;0.0;0.0;0.0;-3.2;-0.25;0.0;0.0;0.0;0.0;0.0;4.5;-10.6;-4.7;-5.1;-0.07;0.66;-10.56;0.94;0.36;0.95
1753874608.859304;0.0;0.0;0.0;-3.2;-0.25;0.0;0.0;0.0;0.0;0.0;5.6;-2.7;-1.7;-5.6;-0.06;0.67;-10.56;1.03;0.29;1.03
1753874608.864304;0.0;0.0;0.0;-3.2;-0.24;0.0;0.0;0.0;0.0;0.0;4.6;0.3;-2.5;-5.1;-0.05;0.67;-10.57;0.75;0.36;0.95
1753874608.869305;0.0;0.0;0.0;-3.2;-0.24;0.0;0.0;0.0;0.0;0.0;4.0;0.3;-4.3;-5.3;-0.06;0.67;-10.59;0.89;0.22;0.75
1753874608.874305;0.0;0.0;0.0;-3.2;-0.24;0.0;0.0;0.0;0.0;0.0;6.5;-1.0;-6.8;-4.8;-0.06;0.67;-10.56;0.9;0.45;0.97
1753874608.879305;0.0;0.0;0.0;-3.2;-0.24;0.0;0.0;0.0;0.0;0.0;1.5;2.2;-0.3;-5.8;-0.07;0.66;-10.59;1.0;0.37;0.94
1753874608.884305;0.0;0.0;0.0;-3.2;-0.23;0.0;0.0;0.0;0.0;0.0;3.0;7.4;-1.2;-4.9;-0.07;0.66;-10.57;0.91;0.3;1.0
1753874608.889302;0.0;0.0;0.0;-3.2;-0.24;0.0;0.0;0.0;0.0;0.0;4.0;0.0;2.0;-5.0;-0.06;0.66;-10.58;0.93;0.32;0.96
1753874608.894302;0.0;0.0;0.0;-3.2;-0.25;0.0;0.0;0.0;0.0;0.0;5.4;4.9;6.0;-5.0;-0.06;0.66;-10.58;0.95;0.37;1.0
1753874608.899302;0.0;0.0;0.0;-3.2;-0.23;0.0;0.0;0.0;0.0;0.0;2.1;-1.9;-0.5;-5.3;-0.07;0.67;-10.57;0.86;0.19;1.07
1753874608.904302;0.0;0.0;0.0;-3.2;-0.24;0.0;0.0;0.0;0.0;0.0;3.2;1.5;-3.0;-4.7;-0.07;0.67;-10.57;1.04;0.36;0.96
1753874608.909302;0.0;0.0;0.0;-3.2;-0.25;0.0;0.0;0.0;0.0;0.0;4.7;3.1;1.4;-5.8;-0.05;0.66;-10.58;0.94;0.23;0.93
1753874608.914302;0.0;0.0;0.0;-3.2;-0.24;0.0;0.0;0.0;0.0;0.0;1.3;9.8;-7.8;-5.5;-0.05;0.66;-10.57;0.96;0.33;1.03
1753874608.919303;0.0;0.0;0.0;-3.2;-0.23;0.0;0.0;0.0;0.0;0.0;5.5;-4.4;4.6;-5.3;-0.05;0.67;-10.57;0.84;0.3;0.89
1753874608.924303;0.0;0.0;0.0;-3.2;-0.24;0.0;0.0;0.0;0.0;0.0;3.5;-8.5;-2.7;-4.9;-0.06;0.65;-10.59;0.95;0.35;1.02
1753874608.929303;0.0;0.0;0.0;-3.2;-0.25;0.0;0.0;0.0;0.0;0.0;2.8;4.8;-4.2;-5.3;-0.06;0.65;-10.58;1.01;0.22;0.87
1753874608.934303;0.0;0.0;0.0;-3.2;-0.24;0.0;0.0;0.0;0.0;0.0;6.0;-6.5;0.5;-5.1;-0.07;0.65;-10.57;0.86;0.28;0.93
1753874608.939303;0.0;0.0;0.0;-3.2;-0.25;0.0;0.0;0.0;0.0;0.0;4.6;3.8;-1.3;-5.2;-0.07;0.65;-10.58;0.98;0.23;0.99
1753874608.944303;0.0;0.0;0.0;-3.2;-0.24;0.0;0.0;0.0;0.0;0.0;5.1;3.9;-1.7;-6.1;-0.06;0.66;-10.58;1.04;0.21;0.95
1753874608.949304;0.0;0.0;0.0;-3.2;-0.24;0.0;0.0;0.0;0.0;0.0;4.4;2.2;-10.4;-5.6;-0.05;0.66;-10.58;1.02;0.19;0.86
1753874608.954304;0.0;0.0;0.0;-3.2;-0.23;0.0;0.0;0.0;0.0;0.0;1.8;-0.7;-6.3;-5.5;-0.07;0.66;-10.59;1.01;0.3;0.88
1753874608.959304;0.0;0.0;0.0;-3.2;-0.23;0.0;0.0;0.0;0.0;0.0;4.0;-1.0;-13.0;-5.8;-0.07;0.66;-10.6;1.0;0.17;0.93
1753874608.964304;0.0;0.0;0.0;-3.2;-0.23;0.0;0.0;0.0;0.0;0.0;2.2;0.6;-2.7;-5.3;-0.06;0.67;-10.58;0.97;0.19;0.95
1753874608.969304;0.0;0.0;0.0;-3.2;-0.24;0.0;0.0;0.0;0.0;0.0;4.0;10.6;-7.4;-5.6;-0.07;0.65;-10.59;1.05;0.33;0.98
1753874608.974304;0.0;0.0;0.0;-3.2;-0.24;0.0;0.0;0.0;0.0;0.0;4.8;-2.8;1.1;-6.3;-0.05;0.66;-10.59;0.92;0.17;1.02
1753874608.979304;0.0;0.0;0.0;-3.2;-0.24;0.0;0.0;0.0;0.0;0.0;3.6;6.8;-6.6;-5.5;-0.05;0.66;-10.59;1.0;0.33;0.84
1753874608.984304;0.0;0.0;0.0;-3.2;-0.22;0.0;0.0;0.0;0.0;0.0;2.8;4.9;0.1;-6.8;-0.07;0.65;-10.58;0.91;0.15;0.95
1753874608.989304;0.0;0.0;0.0;-3.2;-0.23;0.0;0.0;0.0;0.0;0.0;2.3;-5.1;-9.5;-6.3;-0.07;0.66;-10.58;0.92;0.08;0.85
1753874608.994304;0.0;0.0;0.0;-3.2;-0.24;0.0;0.0;0.0;0.0;0.0;5.2;0.1;-5.9;-6.6;-0.07;0.66;-10.58;0.95;0.33;1.0
1753874608.999304;0.0;0.0;0.0;-3.2;-0.23;0.0;0.0;0.0;0.0;0.0;2.2;3.9;-9.8;-6.8;-0.08;0.66;-10.58;0.97;0.22;1.0
1753874609.004305;0.0;0.0;0.0;-3.2;-0.22;0.0;0.0;0.0;0.0;0.0;4.9;5.8;-11.8;-6.3;-0.06;0.66;-10.57;1.03;0.05;0.98
1753874609.009305;0.0;0.0;0.0;-3.2;-0.22;0.0;0.0;0.0;0.0;0.0;2.4;-1.4;-9.4;-6.2;-0.06;0.66;-10.59;0.86;0.28;0.83
1753874609.014305;0.0;0.0;0.0;-3.2;-0.22;0.0;0.0;0.0;0.0;0.0;6.2;2.8;-9.1;-6.3;-0.06;0.66;-10.58;1.04;0.23;0.98
1753874609.019305;0.0;0.0;0.0;-3.2;-0.24;0.0;0.0;0.0;0.0;0.0;1.2;-5.0;-11.9;-6.4;-0.09;0.66;-10.57;0.92;0.22;0.96
1753874609.024305;0.0;0.0;0.0;-3.2;-0.22;0.0;0.0;0.0;0.0;0.0;3.7;9.6;-13.4;-7.2;-0.06;0.66;-10.56;0.95;0.24;0.82
1753874609.029305;0.0;0.0;0.0;-3.2;-0.22;0.0;0.0;0.0;0.0;0.0;0.4;-2.5;-15.8;-6.5;-0.06;0.65;-10.58;0.93;-0.03;0.84
1753874609.034305;0.0;0.0;0.0;-3.2;-0.23;0.0;0.0;0.0;0.0;0.0;1.8;10.6;-14.5;-6.5;-0.05;0.66;-10.59;0.98;0.17;0.94
1753874609.039306;0.0;0.0;0.0;-3.2;-0.25;0.0;0.0;0.0;0.0;0.0;2.9;5.4;-10.1;-6.9;-0.06;0.66;-10.58;0.93;0.2;0.83
1753874609.044306;0.0;0.0;0.0;-3.2;-0.24;0.0;0.0;0.0;0.0;0.0;2.5;8.0;-13.5;-7.1;-0.06;0.66;-10.56;0.97;0.3;0.88
1753874609.049306;0.0;0.0;0.0;-3.2;-0.23;0.0;0.0;0.0;0.0;0.0;2.2;6.3;-10.6;-6.5;-0.06;0.66;-10.56;0.91;0.21;1.0
1753874609.054306;0.0;0.0;0.0;-3.2;-0.22;0.0;0.0;0.0;0.0;0.0;2.5;-5.4;-19.5;-6.7;-0.05;0.66;-10.59;0.94;0.18;0.84
1753874609.059306;0.0;0.0;0.0;-3.2;-0.24;0.0;0.0;0.0;0.0;0.0;3.5;1.1;-11.6;-6.9;-0.06;0.66;-10.57;0.95;0.25;0.88
1753874609.064306;0.0;0.0;0.0;-3.2;-0.24;0.0;0.0;0.0;0.0;0.0;1.6;3.9;-25.9;-7.0;-0.06;0.66;-10.58;0.99;0.17;0.96
1753874609.069302;0.0;0.0;0.0;-3.2;-0.23;0.0;0.0;0.0;0.0;0.0;3.0;2.0;-17.0;-7.0;-0.06;0.66;-10.58;0.98;0.16;0.88
1753874609.074302;0.0;0.0;0.0;-3.2;-0.23;0.0;0.0;0.0;0.0;0.0;3.0;2.0;-17.0;-7.0;-0.06;0.66;-10.58;0.85;0.22;1.09
1753874609.079302;0.0;0.0;0.0;-3.2;-0.23;0.0;0.0;0.0;0.0;0.0;3.0;2.0;-17.0;-7.0;-0.06;0.66;-10.57;0.87;0.32;1.02
1753874609.084302;0.0;0.0;0.0;-3.2;-0.23;0.0;0.0;0.0;0.0;0.0;3.0;2.0;-17.0;-7.0;-0.06;0.67;-10.56;0.86;0.32;0.89
1753874609.089302;0.0;0.0;0.0;-3.2;-0.23;0.0;0.0;0.0;0.0;0.0;3.0;2.0;-17.0;-7.0;-0.06;0.67;-10.56;0.79;0.25;0.93
1753874609.094302;0.0;0.0;0.0;-3.2;-0.23;0.0;0.0;0.0;0.0;0.0;3.0;2.0;-17.0;-7.0;-0.06;0.67;-10.57;0.82;0.28;0.88
1753874609.099302;0.0;0.0;0.0;-3.2;-0.22;0.0;0.0;0.0;0.0;0.0;1.0;3.0;-13.9;-7.8;-0.05;0.67;-10.57;0.84;0.19;0.8
1753874609.104302;0.0;0.0;0.0;-3.2;-0.24;0.0;0.0;0.0;0.0;0.0;-2.4;-9.9;-10.8;-7.7;-0.05;0.68;-10.55;0.79;0.12;0.93
1753874609.109302;0.0;0.0;0.0;-3.2;-0.23;0.0;0.0;0.0;0.0;0.0;3.0;2.0;-17.0;-7.0;-0.05;0.68;-10.55;0.9;0.17;0.9
1753874609.114302;0.0;0.0;0.0;-3.2;-0.22;0.0;0.0;0.0;0.0;0.0;3.2;-3.1;-5.8;-6.8;-0.05;0.69;-10.55;0.87;0.15;0.9
1753874609.119302;0.0;0.0;0.0;-3.2;-0.22;0.0;0.0;0.0;0.0;0.0;5.4;19.9;-21.2;-6.5;-0.06;0.67;-10.54;0.81;0.1;0.97
1753874609.124302;0.0;0.0;0.0;-3.2;-0.24;0.0;0.0;0.0;0.0;0.0;-1.0;19.8;-18.0;-7.2;-0.06;0.68;-10.54;0.97;0.05;0.78
1753874609.129302;0.0;0.0;0.0;-3.2;-0.22;0.0;0.0;0.0;0.0;0.0;1.6;7.1;-16.8;-6.9;-0.06;0.68;-10.57;0.95;0.23;0.8
1753874609.134302;0.0;0.0;0.0;-3.2;-0.24;0.0;0.0;0.0;0.0;0.0;-0.0;8.1;-19.3;-6.0;-0.05;0.68;-10.54;0.81;0.15;0.82
1753874609.139302;0.0;0.0;0.0;-3.2;-0.23;0.0;0.0;0.0;0.0;0.0;1.3;-8.4;-15.1;-7.2;-0.06;0.68;-10.55;0.88;0.04;0.83
1753874609.144302;0.0;0.0;0.0;-3.2;-0.23;0.0;0.0;0.0;0.0;0.0;2.7;11.5;-12.2;-7.6;-0.05;0.67;-10.56;0.86;0.17;0.91
1753874609.149303;0.0;0.0;0.0;-3.2;-0.26;0.0;0.0;0.0;0.0;0.0;10.4;5.6;-14.8;-6.6;-0.05;0.66;-10.55;0.99;0.12;0.98
1753874609.154303;0.0;0.0;0.0;-3.2;-0.24;0.0;0.0;0.0;0.0;0.0;3.0;0.4;-23.4;-6.8;-0.06;0.67;-10.54;0.79;0.18;0.86
1753874609.159303;0.0;0.0;0.0;-3.2;-0.25;0.0;0.0;0.0;0.0;0.0;3.4;14.6;-18.2;-7.8;-0.05;0.67;-10.57;0.94;0.27;0.98
1753874609.164303;0.0;0.0;0.0;-3.2;-0.26;0.0;0.0;0.0;0.0;0.0;4.2;-7.5;-20.7;-6.7;-0.06;0.68;-10.55;0.86;0.25;0.92
1753874609.169303;0.0;0.0;0.0;-3.2;-0.22;0.0;0.0;0.0;0.0;0.0;2.9;0.7;-15.5;-7.4;-0.07;0.69;-10.57;0.78;0.26;0.79
1753874609.174303;0.0;0.0;0.0;-3.2;-0.23;0.0;0.0;0.0;0.0;0.0;4.1;3.6;-12.4;-7.2;-0.06;0.67;-10.57;0.93;0.18;0.96
1753874609.179304;0.0;0.0;0.0;-3.2;-0.23;0.0;0.0;0.0;0.0;0.0;2.5;-5.6;-23.0;-6.7;-0.04;0.68;-10.57;1.0;0.22;0.91
1753874609.184304;0.0;0.0;0.0;-3.2;-0.24;0.0;0.0;0.0;0.0;0.0;0.4;-3.0;-20.5;-7.0;-0.06;0.67;-10.56;0.85;0.32;0.89
1753874609.189304;0.0;0.0;0.0;-3.2;-0.26;0.0;0.0;0.0;0.0;0.0;5.3;1.0;-25.1;-6.9;-0.06;0.67;-10.58;0.84;0.06;0.98
1753874609.194304;0.0;0.0;0.0;-3.2;-0.22;0.0;0.0;0.0;0.0;0.0;2.7;-8.7;-14.7;-7.4;-0.07;0.66;-10.58;0.84;0.37;0.89
1753874609.199304;0.0;0.0;0.0;-3.2;-0.24;0.0;0.0;0.0;0.0;0.0;4.3;16.9;-17.0;-8.2;-0.07;0.67;-10.57;0.85;0.29;0.91
1753874609.204304;0.0;0.0;0.0;-3.2;-0.23;0.0;0.0;0.0;0.0;0.0;5.0;7.6;-14.2;-7.3;-0.07;0.66;-10.57;0.93;0.32;0.92
1753874609.209304;0.0;0.0;0.0;-3.2;-0.22;0.0;0.0;0.0;0.0;0.0;4.5;-9.7;-26.1;-7.3;-0.05;0.67;-10.57;1.0;0.25;0.88
1753874609.214304;0.0;0.0;0.0;-3.2;-0.27;0.0;0.0;0.0;0.0;0.0;0.4;-3.3;-18.8;-6.9;-0.06;0.68;-10.57;0.88;0.26;0.95
1753874609.219304;0.0;0.0;0.0;-3.2;-0.24;0.0;0.0;0.0;0.0;0.0;2.1;9.6;-20.3;-7.1;-0.06;0.67;-10.58;0.74;0.22;0.91
1753874609.224304;0.0;0.0;0.0;-3.2;-0.23;0.0;0.0;0.0;0.0;0.0;5.7;-6.5;-12.0;-7.2;-0.07;0.67;-10.57;0.69;0.26;0.93
1753874609.229304;0.0;0.0;0.0;-3.2;-0.25;0.0;0.0;0.0;0.0;0.0;4.8;0.8;-18.3;-7.0;-0.06;0.68;-10.57;0.84;0.23;0.85
1753874609.234305;0.0;0.0;0.0;-3.2;-0.26;0.0;0.0;0.0;0.0;0.0;0.0;4.5;-15.8;-7.1;-0.07;0.66;-10.56;0.73;0.4;0.93
1753874609.239305;0.0;0.0;0.0;-3.2;-0.21;0.0;0.0;0.0;0.0;0.0;5.5;-4.4;-25.3;-7.0;-0.07;0.65;-10.58;0.8;0.28;0.83
1753874609.244305;0.0;0.0;0.0;-3.2;-0.23;0.0;0.0;0.0;0.0;0.0;2.4;5.3;-8.0;-6.5;-0.07;0.66;-10.59;0.67;0.3;0.85
1753874609.249305;0.0;0.0;0.0;-3.2;-0.24;0.0;0.0;0.0;0.0;0.0;4.2;10.3;-15.8;-6.6;-0.07;0.67;-10.58;0.82;0.24;0.89
1753874609.254302;0.0;0.0;0.0;-3.2;-0.23;0.0;0.0;0.0;0.0;0.0;3.0;2.0;-17.0;-7.0;-0.07;0.66;-10.58;0.8;0.24;0.93
1753874609.259302;0.0;0.0;0.0;-3.2;-0.23;0.0;0.0;0.0;0.0;0.0;3.0;2.0;-17.0;-7.0;-0.07;0.66;-10.58;0.83;0.17;0.91
1753874609.264302;0.0;0.0;0.0;-3.2;-0.2;0.0;0.0;0.0;0.0;0.0;-1.7;6.9;-22.7;-6.3;-0.07;0.65;-10.59;0.78;0.29;0.93
1753874609.269302;0.0;0.0;0.0;-3.2;-0.23;0.0;0.0;0.0;0.0;0.0;3.0;2.0;-17.0;-7.0;-0.07;0.66;-10.58;0.81;0.15;0.9
1753874609.274302;0.0;0.0;0.0;-3.2;-0.23;0.0;0.0;0.0;0.0;0.0;3.0;2.0;-17.0;-7.0;-0.07;0.66;-10.58;0.96;0.17;1.06
1753874609.279302;0.0;0.0;0.0;-3.2;-0.23;0.0;0.0;0.0;0.0;0.0;3.0;2.0;-17.0;-7.0;-0.07;0.66;-10.58;0.83;0.12;0.96
1753874609.284302;0.0;0.0;0.0;-3.2;-0.23;0.0;0.0;0.0;0.0;0.0;3.0;2.0;-17.0;-7.0;-0.07;0.66;-10.58;0.87;0.19;0.7
1753874609.289302;0.0;0.0;0.0;-3.2;-0.23;0.0;0.0;0.0;0.0;0.0;3.0;2.0;-17.0;-7.0;-0.07;0.66;-10.58;0.89;0.19;0.99
1753874609.294302;0.0;0.0;0.0;-3.2;-0.23;0.0;0.0;0.0;0.0;0.0;3.0;2.0;-17.0;-7.0;-0.07;0.66;-10.57;0.85;0.23;0.83
1753874609.299302;0.0;0.0;0.0;-3.2;-0.23;0.0;0.0;0.0;0.0;0.0;3.0;2.0;-17.0;-7.0;-0.07;0.66;-10.57;0.72;0.22;0.81
1753874609.304302;0.0;0.0;0.0;-3.2;-0.23;0.0;0.0;0.0;0.0;0.0;3.0;2.0;-17.0;-7.0;-0.07;0.67;-10.56;0.83;0.22;1.02
1753874609.309302;0.0;0.0;0.0;-3.2;-0.23;0.0;0.0;0.0;0.0;0.0;3.0;2.0;-17.0;-7.0;-0.06;0.67;-10.57;0.9;0.18;0.93
1753874609.314302;0.0;0.0;0.0;-3.2;-0.23;0.0;0.0;0.0;0.0;0.0;3.0;2.0;-17.0;-7.0;-0.06;0.67;-10.57;0.83;0.18;0.96
1753874609.319302;0.0;0.0;0.0;-3.2;-0.23;0.0;0.0;0.0;0.0;0.0;3.0;2.0;-17.0;-7.0;-0.06;0.68;-10.57;0.91;0.25;0.9
1753874609.324302;0.0;0.0;0.0;-3.2;-0.23;0.0;0.0;0.0;0.0;0.0;3.0;2.0;-17.0;-7.0;-0.06;0.68;-10.57;0.85;0.15;0.98
1753874609.329302;0.0;0.0;0.0;-3.2;-0.23;0.0;0.0;0.0;0.0;0.0;3.0;2.0;-17.0;-7.0;-0.06;0.68;-10.57;0.75;0.23;0.83
1753874609.334302;0.0;0.0;0.0;-3.2;-0.23;0.0;0.0;0.0;0.0;0.0;3.0;2.0;-17.0;-7.0;-0.07;0.68;-10.56;0.95;0.14;1.02
1753874609.339302;0.0;0.0;0.0;-3.2;-0.23;0.0;0.0;0.0;0.0;0.0;3.0;2.0;-17.0;-7.0;-0.07;0.67;-10.56;0.8;0.21;0.93
1753874609.344302;0.0;0.0;0.0;-3.2;-0.23;0.0;0.0;0.0;0.0;0.0;3.5;1.7;-15.0;-5.9;-0.08;0.66;-10.57;0.69;0.33;0.9
1753874609.349302;0.0;0.0;0.0;-3.2;-0.23;0.0;0.0;0.0;0.0;0.0;4.4;0.9;-14.5;-6.6;-0.07;0.66;-10.55;0.82;0.18;0.98
1753874609.354302;0.0;0.0;0.0;-3.2;-0.23;0.0;0.0;0.0;0.0;0.0;3.4;2.4;-19.0;-7.4;-0.07;0.68;-10.57;0.78;0.15;0.88
1753874609.359302;0.0;0.0;0.0;-3.2;-0.23;0.0;0.0;0.0;0.0;0.0;3.2;1.4;-11.7;-6.9;-0.07;0.66;-10.56;0.87;0.17;0.89
1753874609.364302;0.0;0.0;0.0;-3.2;-0.23;0.0;0.0;0.0;0.0;0.0;3.6;1.9;-15.9;-7.6;-0.07;0.67;-10.55;0.77;0.18;0.99
1753874609.369302;0.0;0.0;0.0;-3.2;-0.23;0.0;0.0;0.0;0.0;0.0;4.2;1.4;-14.5;-6.0;-0.07;0.67;-10.55;0.74;0.17;0.96
1753874609.374303;0.0;0.0;0.0;-3.2;-0.23;0.0;0.0;0.0;0.0;0.0;3.8;1.3;-12.5;-6.1;-0.07;0.68;-10.57;0.74;0.2;0.89
1753874609.379303;0.0;0.0;0.0;-3.2;-0.23;0.0;0.0;0.0;0.0;0.0;2.9;1.0;-11.8;-5.9;-0.07;0.69;-10.55;0.9;0.2;0.9
1753874609.384303;0.0;0.0;0.0;-3.2;-0.23;0.0;0.0;0.0;0.0;0.0;4.7;1.1;-7.1;-6.3;-0.07;0.66;-10.53;0.74;0.18;0.99
1753874609.389303;0.0;0.0;0.0;-3.2;-0.23;0.0;0.0;0.0;0.0;0.0;3.7;-0.2;-8.9;-6.0;-0.07;0.67;-10.57;0.83;0.17;1.07
1753874609.394303;0.0;0.0;0.0;-3.2;-0.23;0.0;0.0;0.0;0.0;0.0;3.9;0.9;-0.6;-6.1;-0.07;0.66;-10.56;0.78;0.19;0.97
1753874609.399303;0.0;0.0;0.0;-3.2;-0.23;0.0;0.0;0.0;0.0;0.0;4.3;1.3;-7.7;-5.2;-0.07;0.67;-10.55;0.71;0.13;0.88
1753874609.404303;0.0;0.0;0.0;-3.2;-0.23;0.0;0.0;0.0;0.0;0.0;3.6;0.7;-5.7;-6.1;-0.06;0.68;-10.54;0.76;0.14;0.94
1753874609.409304;0.0;0.0;0.0;-3.2;-0.23;0.0;0.0;0.0;0.0;0.0;4.0;0.3;-4.0;-5.8;-0.07;0.69;-10.57;0.93;0.26;1.12
1753874609.414304;0.0;0.0;0.0;-3.2;-0.23;0.0;0.0;0.0;0.0;0.0;4.5;1.1;-2.0;-5.0;-0.07;0.68;-10.55;0.91;0.19;1.12
1753874609.419304;0.0;0.0;0.0;-3.2;-0.23;0.0;0.0;0.0;0.0;0.0;5.5;0.7;-0.6;-5.7;-0.07;0.68;-10.55;0.69;0.19;1.08
1753874609.424304;0.0;0.0;0.0;-3.2;-0.23;0.0;0.0;0.0;0.0;0.0;5.4;0.7;-3.5;-4.8;-0.07;0.67;-10.54;0.76;0.18;1.02
1753874609.429304;0.0;0.0;0.0;-3.2;-0.23;0.0;0.0;0.0;0.0;0.0;4.9;0.0;0.4;-5.1;-0.07;0.67;-10.54;0.82;0.21;1.08
1753874609.434304;0.0;0.0;0.0;-3.2;-0.23;0.0;0.0;0.0;0.0;0.0;5.2;0.3;0.5;-5.6;-0.07;0.67;-10.57;0.83;0.14;1.09
1753874609.439304;0.0;0.0;0.0;-3.2;-0.23;0.0;0.0;0.0;0.0;0.0;4.9;-0.1;2.3;-5.2;-0.07;0.68;-10.56;0.81;0.1;1.17
1753874609.444302;0.0;0.0;0.0;-3.2;-0.23;0.0;0.0;0.0;0.0;0.0;5.0;0.0;2.0;-5.0;-0.07;0.67;-10.55;0.81;0.12;1.06
1753874609.449302;0.0;0.0;0.0;-3.2;-0.23;0.0;0.0;0.0;0.0;0.0;5.0;0.0;2.0;-5.0;-0.07;0.67;-10.55;0.96;0.22;0.9
1753874609.454302;0.0;0.0;0.0;-3.2;-0.23;0.0;0.0;0.0;0.0;0.0;5.0;0.0;2.0;-5.0;-0.06;0.67;-10.55;0.98;0.32;0.97
1753874609.459302;0.0;0.0;0.0;-3.2;-0.23;0.0;0.0;0.0;0.0;0.0;5.0;0.0;2.0;-5.0;-0.07;0.66;-10.55;1.02;0.29;1.0
1753874609.464302;0.0;0.0;0.0;-3.2;-0.23;0.0;0.0;0.0;0.0;0.0;5.0;0.0;2.0;-5.0;-0.07;0.66;-10.55;0.99;0.21;0.93
1753874609.469302;0.0;0.0;0.0;-3.2;-0.23;0.0;0.0;0.0;0.0;0.0;5.0;0.0;2.0;-5.0;-0.06;0.66;-10.55;1.02;0.26;0.96
1753874609.474302;0.0;0.0;0.0;-3.2;-0.23;0.0;0.0;0.0;0.0;0.0;5.0;0.0;2.0;-5.0;-0.07;0.66;-10.56;0.87;0.07;0.92
1753874609.479302;0.0;0.0;0.0;-3.2;-0.23;0.0;0.0;0.0;0.0;0.0;5.0;0.0;2.0;-5.0;-0.07;0.66;-10.56;0.89;0.16;0.87
1753874609.484302;0.0;0.0;0.0;-3.2;-0.23;0.0;0.0;0.0;0.0;0.0;5.0;0.0;2.0;-5.0;-0.06;0.66;-10.56;0.76;0.18;0.88
1753874609.489302;0.0;0.0;0.0;-3.2;-0.23;0.0;0.0;0.0;0.0;0.0;5.0;0.0;2.0;-5.0;-0.06;0.66;-10.56;0.93;0.32;1.06
1753874609.494302;0.0;0.0;0.0;-3.2;-0.23;0.0;0.0;0.0;0.0;0.0;5.0;0.0;2.0;-5.0;-0.06;0.66;-10.57;0.93;0.25;1.03
1753874609.499302;0.0;0.0;0.0;-3.2;-0.23;0.0;0.0;0.0;0.0;0.0;5.0;0.0;2.0;-5.0;-0.06;0.66;-10.56;0.89;0.21;0.91
1753874609.504302;0.0;0.0;0.0;-3.2;-0.23;0.0;0.0;0.0;0.0;0.0;5.0;0.0;2.0;-5.0;-0.06;0.66;-10.57;0.8;0.25;0.93
1753874609.509302;0.0;0.0;0.0;-3.2;-0.23;0.0;0.0;0.0;0.0;0.0;5.0;0.0;2.0;-5.0;-0.06;0.65;-10.57;0.88;0.13;1.09
1753874609.514302;0.0;0.0;0.0;-3.2;-0.23;0.0;0.0;0.0;0.0;0.0;5.0;0.0;2.0;-5.0;-0.05;0.65;-10.58;0.89;0.25;1.11
1753874609.519302;0.0;0.0;0.0;-3.2;-0.23;0.0;0.0;0.0;0.0;0.0;5.0;0.0;2.0;-5.0;-0.05;0.65;-10.57;0.94;0.22;0.93
1753874609.524302;0.0;0.0;0.0;-3.2;-0.23;0.0;0.0;0.0;0.0;0.0;5.0;0.0;2.0;-5.0;-0.05;0.65;-10.57;0.99;0.26;0.94
1753874609.529302;0.0;0.0;0.0;-3.2;-0.23;0.0;0.0;0.0;0.0;0.0;5.0;0.0;2.0;-5.0;-0.05;0.66;-10.57;0.89;0.36;0.95
1753874609.534302;0.0;0.0;0.0;-3.2;-0.23;0.0;0.0;0.0;0.0;0.0;5.0;0.0;2.0;-5.0;-0.05;0.65;-10.57;0.81;0.25;0.99
1753874609.539302;0.0;0.0;0.0;-3.2;-0.23;0.0;0.0;0.0;0.0;0.0;5.0;0.0;2.0;-5.0;-0.06;0.65;-10.56;0.77;0.29;1.03
1753874609.544302;0.0;0.0;0.0;-3.2;-0.23;0.0;0.0;0.0;0.0;0.0;5.0;0.0;2.0;-5.0;-0.06;0.65;-10.56;0.87;0.22;0.93
1753874609.549302;0.0;0.0;0.0;-3.2;-0.23;0.0;0.0;0.0;0.0;0.0;5.0;0.0;2.0;-5.0;-0.06;0.66;-10.56;0.84;0.03;0.91
1753874609.554302;0.0;0.0;0.0;-3.2;-0.23;0.0;0.0;0.0;0.0;0.0;5.0;0.0;2.0;-5.0;-0.06;0.66;-10.57;0.77;0.06;0.9
1753874609.559302;0.0;0.0;0.0;-3.2;-0.23;0.0;0.0;0.0;0.0;0.0;5.0;0.0;2.0;-5.0;-0.06;0.67;-10.57;0.91;0.16;0.91
1753874609.564302;0.0;0.0;0.0;-3.2;-0.23;0.0;0.0;0.0;0.0;0.0;5.0;0.0;2.0;-5.0;-0.07;0.67;-10.57;1.05;0.29;1.02
1753874609.569302;0.0;0.0;0.0;-3.2;-0.23;0.0;0.0;0.0;0.0;0.0;5.0;0.0;2.0;-5.0;-0.07;0.67;-10.57;0.9;0.25;1.01
1753874609.574302;0.0;0.0;0.0;-3.2;-0.23;0.0;0.0;0.0;0.0;0.0;5.0;0.0;2.0;-5.0;-0.07;0.68;-10.57;0.7;0.2;0.99
1753874609.579302;0.0;0.0;0.0;-3.2;-0.23;0.0;0.0;0.0;0.0;0.0;5.0;0.0;2.0;-5.0;-0.08;0.67;-10.58;0.9;0.12;0.93
1753874609.584302;0.0;0.0;0.0;-3.2;-0.23;0.0;0.0;0.0;0.0;0.0;5.0;0.0;2.0;-5.0;-0.07;0.67;-10.57;0.92;0.19;1.07
1753874609.589302;0.0;0.0;0.0;-3.2;-0.23;0.0;0.0;0.0;0.0;0.0;5.0;0.0;2.0;-5.0;-0.07;0.68;-10.56;0.78;0.25;1.01
1753874609.594302;0.0;0.0;0.0;-3.2;-0.23;0.0;0.0;0.0;0.0;0.0;5.0;0.0;2.0;-5.0;-0.07;0.68;-10.57;0.83;0.13;0.96
1753874609.599302;0.0;0.0;0.0;-3.2;-0.23;0.0;0.0;0.0;0.0;0.0;5.0;0.0;2.0;-5.0;-0.07;0.68;-10.57;0.81;0.13;0.96
1753874609.604302;0.0;0.0;0.0;-3.2;-0.23;0.0;0.0;0.0;0.0;0.0;5.0;0.0;2.0;-5.0;-0.07;0.67;-10.58;0.9;0.19;1.06
1753874609.609302;0.0;0.0;0.0;-3.2;-0.23;0.0;0.0;0.0;0.0;0.0;5.0;0.0;2.0;-5.0;-0.07;0.68;-10.56;0.99;0.15;0.93
1753874609.614302;0.0;0.0;0.0;-3.2;-0.23;0.0;0.0;0.0;0.0;0.0;5.0;0.0;2.0;-5.0;-0.07;0.67;-10.56;0.99;0.15;0.95
1753874609.619302;0.0;0.0;0.0;-3.2;-0.23;0.0;0.0;0.0;0.0;0.0;5.0;0.0;2.0;-5.0;-0.07;0.67;-10.56;0.93;0.19;1.02
1753874609.624302;0.0;0.0;0.0;-3.2;-0.23;0.0;0.0;0.0;0.0;0.0;5.0;0.0;2.0;-5.0;-0.07;0.66;-10.56;0.74;0.19;0.93
1753874609.629302;0.0;0.0;0.0;-3.2;-0.23;0.0;0.0;0.0;0.0;0.0;5.0;0.0;2.0;-5.0;-0.07;0.66;-10.57;0.88;0.19;0.93
1753874609.634302;0.0;0.0;0.0;-3.2;-0.23;0.0;0.0;0.0;0.0;0.0;5.0;0.0;2.0;-5.0;-0.06;0.66;-10.56;0.91;0.19;0.93
1753874609.639302;0.0;0.0;0.0;-3.2;-0.23;0.0;0.0;0.0;0.0;0.0;5.0;0.0;2.0;-5.0;-0.06;0.67;-10.57;0.89;0.15;0.96
1753874609.644302;0.0;0.0;0.0;-3.2;-0.23;0.0;0.0;0.0;0.0;0.0;5.8;-5.0;2.0;-8.2;-0.06;0.67;-10.56;0.7;0.24;1.11
1753874609.649302;0.0;0.0;0.0;-3.2;-0.23;0.0;0.0;0.0;0.0;0.0;5.1;-0.2;3.8;-5.9;-0.06;0.67;-10.57;0.84;0.26;0.99
1753874609.654302;0.0;0.0;0.0;-3.2;-0.23;0.0;0.0;0.0;0.0;0.0;4.4;0.7;1.6;-4.9;-0.06;0.67;-10.56;1.12;0.18;0.91
1753874609.659302;0.0;0.0;0.0;-3.2;-0.23;0.0;0.0;0.0;0.0;0.0;4.8;-0.4;3.1;-4.8;-0.05;0.68;-10.56;0.94;0.14;0.97
1753874609.664302;0.0;0.0;0.0;-3.2;-0.23;0.0;0.0;0.0;0.0;0.0;4.6;-1.2;3.2;-6.6;-0.06;0.67;-10.57;0.7;0.18;0.92
1753874609.669303;0.0;0.0;0.0;-3.2;-0.23;0.0;0.0;0.0;0.0;0.0;4.9;-1.4;3.5;-6.4;-0.06;0.67;-10.55;0.84;0.18;1.05
1753874609.674303;0.0;0.0;0.0;-3.2;-0.23;0.0;0.0;0.0;0.0;0.0;4.7;-5.7;6.1;-5.2;-0.07;0.66;-10.56;0.81;0.14;1.01
1753874609.679303;0.0;0.0;0.0;-3.2;-0.23;0.0;0.0;0.0;0.0;0.0;4.6;-1.9;4.7;-5.7;-0.06;0.68;-10.57;0.86;0.19;0.96
1753874609.684303;0.0;0.0;0.0;-3.2;-0.23;0.0;0.0;0.0;0.0;0.0;4.9;-3.3;7.2;-6.8;-0.06;0.67;-10.56;0.8;0.11;0.96
1753874609.689303;0.0;0.0;0.0;-3.2;-0.23;0.0;0.0;0.0;0.0;0.0;4.2;-0.4;-0.6;-6.2;-0.06;0.66;-10.55;0.95;0.11;0.96
1753874609.694303;0.0;0.0;0.0;-3.2;-0.23;0.0;0.0;0.0;0.0;0.0;4.4;-7.0;4.5;-5.1;-0.06;0.67;-10.56;0.83;0.24;1.0
1753874609.699304;0.0;0.0;0.0;-3.2;-0.23;0.0;0.0;0.0;0.0;0.0;3.6;-4.0;5.6;-7.7;-0.06;0.67;-10.57;1.04;0.14;1.07
1753874609.704304;0.0;0.0;0.0;-3.2;-0.23;0.0;0.0;0.0;0.0;0.0;5.0;-10.2;5.3;-7.0;-0.06;0.67;-10.56;0.88;0.15;0.99
1753874609.709304;0.0;0.0;0.0;-3.2;-0.23;0.0;0.0;0.0;0.0;0.0;4.3;-6.1;7.8;-5.9;-0.06;0.67;-10.57;0.86;0.13;1.0
1753874609.714304;0.0;0.0;0.0;-3.2;-0.23;0.0;0.0;0.0;0.0;0.0;4.1;-5.0;5.4;-4.8;-0.06;0.67;-10.56;0.74;0.14;1.08
1753874609.719304;0.0;0.0;0.0;-3.2;-0.23;0.0;0.0;0.0;0.0;0.0;4.7;-4.2;4.1;-4.7;-0.06;0.66;-10.57;0.99;0.23;1.08
1753874609.724304;0.0;0.0;0.0;-3.2;-0.23;0.0;0.0;0.0;0.0;0.0;3.9;-6.2;6.6;-6.5;-0.06;0.66;-10.56;0.82;0.2;0.94
1753874609.729304;0.0;0.0;0.0;-3.2;-0.23;0.0;0.0;0.0;0.0;0.0;4.3;-0.5;7.2;-6.6;-0.06;0.66;-10.57;0.99;0.23;1.06
1753874609.734304;0.0;0.0;0.0;-3.2;-0.23;0.0;0.0;0.0;0.0;0.0;5.1;-8.0;4.0;-6.7;-0.06;0.67;-10.56;0.89;0.21;1.13
1753874609.739304;0.0;0.0;0.0;-3.2;-0.23;0.0;0.0;0.0;0.0;0.0;3.8;-6.4;5.7;-9.0;-0.05;0.68;-10.57;1.06;0.2;1.0
1753874609.744304;0.0;0.0;0.0;-3.2;-0.23;0.0;0.0;0.0;0.0;0.0;3.5;-9.6;6.2;-8.7;-0.06;0.66;-10.55;0.82;0.17;1.11
1753874609.749304;0.0;0.0;0.0;-3.2;-0.23;0.0;0.0;0.0;0.0;0.0;4.3;-1.2;8.0;-8.1;-0.07;0.68;-10.56;0.81;0.15;1.03
1753874609.754305;0.0;0.0;0.0;-3.2;-0.23;0.0;0.0;0.0;0.0;0.0;3.8;-5.4;5.4;-8.9;-0.06;0.68;-10.56;1.03;0.16;1.1
1753874609.759305;0.0;0.0;0.0;-3.2;-0.23;0.0;0.0;0.0;0.0;0.0;3.1;-8.5;3.7;-7.7;-0.06;0.67;-10.57;1.05;0.2;1.04
1753874609.764305;0.0;0.0;0.0;-3.2;-0.23;0.0;0.0;0.0;0.0;0.0;2.8;-5.6;8.4;-8.5;-0.06;0.66;-10.54;0.94;0.25;1.04
1753874609.769305;0.0;0.0;0.0;-3.2;-0.23;0.0;0.0;0.0;0.0;0.0;3.3;-4.1;3.0;-8.1;-0.06;0.66;-10.56;0.83;0.14;1.1
1753874609.774305;0.0;0.0;0.0;-3.2;-0.23;0.0;0.0;0.0;0.0;0.0;3.6;-10.0;5.1;-8.3;-0.06;0.68;-10.56;1.06;0.3;1.01
1753874609.779305;0.0;0.0;0.0;-3.2;-0.23;0.0;0.0;0.0;0.0;0.0;4.3;-9.3;6.4;-8.8;-0.05;0.67;-10.55;1.07;0.12;1.03
1753874609.784305;0.0;0.0;0.0;-3.2;-0.23;0.0;0.0;0.0;0.0;0.0;2.5;-10.7;7.6;-8.4;-0.05;0.68;-10.55;0.89;0.17;1.16
1753874609.789306;0.0;0.0;0.0;-3.2;-0.23;0.0;0.0;0.0;0.0;0.0;3.4;-10.5;8.3;-7.9;-0.06;0.67;-10.55;1.07;0.19;1.07
1753874609.794306;0.0;0.0;0.0;-3.2;-0.23;0.0;0.0;0.0;0.0;0.0;3.7;-5.9;8.7;-8.3;-0.06;0.67;-10.57;0.93;0.24;1.09
1753874609.799306;0.0;0.0;0.0;-3.2;-0.23;0.0;0.0;0.0;0.0;0.0;3.6;-5.2;6.0;-11.9;-0.06;0.68;-10.55;1.08;0.22;1.13
1753874609.804306;0.0;0.0;0.0;-3.2;-0.23;0.0;0.0;0.0;0.0;0.0;3.3;-9.9;9.4;-8.9;-0.07;0.67;-10.55;0.99;0.16;1.02
1753874609.809306;0.0;0.0;0.0;-3.2;-0.23;0.0;0.0;0.0;0.0;0.0;3.8;-9.3;6.3;-9.0;-0.06;0.67;-10.55;1.15;0.2;1.15
1753874609.814306;0.0;0.0;0.0;-3.2;-0.23;0.0;0.0;0.0;0.0;0.0;3.1;-15.1;12.1;-10.3;-0.06;0.67;-10.55;0.85;0.19;1.1
1753874609.819306;0.0;0.0;0.0;-3.2;-0.23;0.0;0.0;0.0;0.0;0.0;3.2;-18.1;10.0;-9.7;-0.05;0.67;-10.54;0.85;0.14;1.02
1753874609.824306;0.0;0.0;0.0;-3.2;-0.23;0.0;0.0;0.0;0.0;0.0;3.5;-18.0;10.2;-9.9;-0.05;0.66;-10.56;0.93;0.21;1.13
1753874609.829302;0.0;0.0;0.0;-3.2;-0.23;0.0;0.0;0.0;0.0;0.0;3.0;-13.0;10.0;-10.0;-0.06;0.67;-10.55;0.96;0.21;1.11
1753874609.834302;0.0;0.0;0.0;-3.2;-0.23;0.0;0.0;0.0;0.0;0.0;3.0;-13.0;10.0;-10.0;-0.06;0.67;-10.55;0.87;0.3;1.09
1753874609.839302;0.0;0.0;0.0;-3.2;-0.23;0.0;0.0;0.0;0.0;0.0;3.0;-13.0;10.0;-10.0;-0.06;0.67;-10.56;0.9;0.22;1.06
1753874609.844302;0.0;0.0;0.0;-3.2;-0.23;0.0;0.0;0.0;0.0;0.0;3.0;-13.0;10.0;-10.0;-0.06;0.67;-10.55;0.89;0.12;0.81
1753874609.849302;0.0;0.0;0.0;-3.2;-0.23;0.0;0.0;0.0;0.0;0.0;3.0;-13.0;10.0;-10.0;-0.07;0.67;-10.56;0.85;0.26;0.98
1753874609.854302;0.0;0.0;0.0;-3.2;-0.23;0.0;0.0;0.0;0.0;0.0;3.0;-13.0;10.0;-10.0;-0.06;0.67;-10.57;0.85;0.1;1.01
1753874609.859302;0.0;0.0;0.0;-3.2;-0.23;0.0;0.0;0.0;0.0;0.0;3.0;-13.0;10.0;-10.0;-0.07;0.67;-10.57;0.9;0.13;0.92
1753874609.864302;0.0;0.0;0.0;-3.2;-0.23;0.0;0.0;0.0;0.0;0.0;3.0;-13.0;10.0;-10.0;-0.06;0.67;-10.57;0.82;0.23;1.05
1753874609.869302;0.0;0.0;0.0;-3.2;-0.23;0.0;0.0;0.0;0.0;0.0;5.3;-4.8;10.8;-10.8;-0.06;0.67;-10.58;0.7;0.21;1.05
1753874609.874302;0.0;0.0;0.0;-3.2;-0.23;0.0;0.0;0.0;0.0;0.0;-7.8;-8.3;16.2;-5.3;-0.06;0.68;-10.57;0.75;0.24;1.06
1753874609.879302;0.0;0.0;0.0;-3.2;-0.23;0.0;0.0;0.0;0.0;0.0;0.9;-14.2;7.1;-9.6;-0.06;0.67;-10.57;0.93;0.21;1.07
1753874609.884302;0.0;0.0;0.0;-3.2;-0.23;0.0;0.0;0.0;0.0;0.0;3.0;-14.4;5.0;-12.4;-0.06;0.67;-10.57;0.91;0.2;1.08
1753874609.889302;0.0;0.0;0.0;-3.2;-0.23;0.0;0.0;0.0;0.0;0.0;3.1;-8.9;9.6;-9.0;-0.05;0.69;-10.56;0.83;0.34;1.05
1753874609.894302;0.0;0.0;0.0;-3.2;-0.23;0.0;0.0;0.0;0.0;0.0;3.9;-9.0;9.5;-11.0;-0.06;0.68;-10.57;0.81;0.31;1.09
1753874609.899303;0.0;0.0;0.0;-3.2;-0.23;0.0;0.0;0.0;0.0;0.0;-4.1;-10.2;10.6;-3.7;-0.06;0.67;-10.57;0.93;0.18;0.92
1753874609.904303;0.0;0.0;0.0;-3.2;-0.23;0.0;0.0;0.0;0.0;0.0;5.3;-9.7;1.2;-7.5;-0.05;0.66;-10.56;0.89;0.18;1.21
1753874609.909303;0.0;0.0;0.0;-3.2;-0.23;0.0;0.0;0.0;0.0;0.0;-6.5;-17.7;4.2;-10.9;-0.05;0.67;-10.57;0.81;0.29;1.08
1753874609.914303;0.0;0.0;0.0;-3.2;-0.23;0.0;0.0;0.0;0.0;0.0;-1.7;-18.7;1.0;-8.0;-0.06;0.66;-10.58;0.86;0.29;1.1
1753874609.919303;0.0;0.0;0.0;-3.2;-0.23;0.0;0.0;0.0;0.0;0.0;-9.7;-27.3;1.7;-6.6;-0.06;0.67;-10.57;0.89;0.28;1.09
1753874609.924303;0.0;0.0;0.0;-3.2;-0.23;0.0;0.0;0.0;0.0;0.0;-8.4;-5.5;10.9;-8.3;-0.06;0.68;-10.58;0.86;0.2;1.06
1753874609.929304;0.0;0.0;0.0;-3.2;-0.23;0.0;0.0;0.0;0.0;0.0;-12.2;-12.2;12.2;-8.8;-0.06;0.68;-10.57;0.83;0.35;1.22
1753874609.934304;0.0;0.0;0.0;-3.2;-0.23;0.0;0.0;0.0;0.0;0.0;-12.5;-14.2;9.9;-7.3;-0.06;0.68;-10.58;0.85;0.29;1.09
1753874609.939304;0.0;0.0;0.0;-3.2;-0.23;0.0;0.0;0.0;0.0;0.0;-14.1;-0.9;2.7;-7.9;-0.07;0.67;-10.58;0.78;0.21;1.16
1753874609.944304;0.0;0.0;0.0;-3.2;-0.23;0.0;0.0;0.0;0.0;0.0;-14.0;-13.4;3.5;-1.2;-0.05;0.68;-10.57;0.84;0.29;1.05
1753874609.949304;0.0;0.0;0.0;-3.2;-0.23;0.0;0.0;0.0;0.0;0.0;-5.9;-8.7;6.2;-2.7;-0.07;0.69;-10.56;0.92;0.2;0.97
1753874609.954304;0.0;0.0;0.0;-3.2;-0.23;0.0;0.0;0.0;0.0;0.0;-4.7;-25.4;2.9;-6.9;-0.05;0.68;-10.56;0.74;0.22;1.0
1753874609.959304;0.0;0.0;0.0;-3.2;-0.23;0.0;0.0;0.0;0.0;0.0;-9.3;-16.2;9.1;-6.9;-0.07;0.67;-10.56;0.83;0.3;1.01
1753874609.964304;0.0;0.0;0.0;-3.2;-0.23;0.0;0.0;0.0;0.0;0.0;-6.5;-24.0;8.7;-3.2;-0.06;0.67;-10.56;0.68;0.29;1.15
1753874609.969304;0.0;0.0;0.0;-3.2;-0.23;0.0;0.0;0.0;0.0;0.0;-3.5;-21.1;5.8;-3.5;-0.06;0.68;-10.57;0.82;0.32;1.05
1753874609.974304;0.0;0.0;0.0;-3.2;-0.23;0.0;0.0;0.0;0.0;0.0;-11.3;-4.7;5.2;-2.5;-0.06;0.68;-10.57;0.78;0.36;1.07
1753874609.979304;0.0;0.0;0.0;-3.2;-0.23;0.0;0.0;0.0;0.0;0.0;-5.2;-9.1;3.6;1.1;-0.06;0.67;-10.57;0.91;0.14;0.99
1753874609.984305;0.0;0.0;0.0;-3.2;-0.23;0.0;0.0;0.0;0.0;0.0;-16.7;-13.0;-1.2;3.3;-0.06;0.69;-10.58;0.86;0.33;1.14
1753874609.989305;0.0;0.0;0.0;-3.2;-0.23;0.0;0.0;0.0;0.0;0.0;-8.6;-12.7;-4.9;-4.4;-0.05;0.69;-10.58;0.83;0.25;1.06
1753874609.994305;0.0;0.0;0.0;-3.2;-0.23;0.0;0.0;0.0;0.0;0.0;-14.5;-19.0;10.0;1.1;-0.06;0.68;-10.58;0.8;0.29;1.05
1753874609.999305;0.0;0.0;0.0;-3.2;-0.23;0.0;0.0;0.0;0.0;0.0;-16.7;-13.9;3.3;1.3;-0.06;0.67;-10.57;0.82;0.26;1.09
1753874610.004305;0.0;0.0;0.0;-3.2;-0.23;0.0;0.0;0.0;0.0;0.0;-21.7;-2.5;1.0;-1.4;-0.06;0.68;-10.59;0.84;0.42;1.08
1753874610.009305;0.0;0.0;0.0;-3.2;-0.23;0.0;0.0;0.0;0.0;0.0;-24.2;-12.9;-1.7;-3.2;-0.06;0.69;-10.57;0.86;0.23;0.9
1753874610.014302;0.0;0.0;0.0;-3.2;-0.23;0.0;0.0;0.0;0.0;0.0;-18.0;-13.0;2.0;0.0;-0.06;0.68;-10.57;0.83;0.28;1.02
1753874610.019302;0.0;0.0;0.0;-3.2;-0.23;0.0;0.0;0.0;0.0;0.0;-17.4;-13.7;-0.2;0.2;-0.06;0.69;-10.57;0.92;0.36;1.0
1753874610.024302;0.0;0.0;0.0;-3.2;-0.23;0.0;0.0;0.0;0.0;0.0;-18.0;-13.0;2.0;0.0;-0.07;0.68;-10.57;0.97;0.25;0.93
1753874610.029302;0.0;0.0;0.0;-3.2;-0.23;0.0;0.0;0.0;0.0;0.0;-18.0;-13.0;2.0;0.0;-0.07;0.69;-10.56;0.75;0.18;0.95
1753874610.034302;0.0;0.0;0.0;-3.2;-0.23;0.0;0.0;0.0;0.0;0.0;-19.9;-12.8;2.0;0.7;-0.06;0.7;-10.56;0.87;0.22;1.02
1753874610.039302;0.0;0.0;0.0;-3.2;-0.23;0.0;0.0;0.0;0.0;0.0;-18.0;-13.0;2.0;0.0;-0.06;0.68;-10.56;0.95;0.21;0.99
1753874610.044302;0.0;0.0;0.0;-3.2;-0.23;0.0;0.0;0.0;0.0;0.0;-18.0;-13.0;2.0;0.0;-0.06;0.68;-10.56;0.8;0.13;0.93
1753874610.049302;0.0;0.0;0.0;-3.2;-0.23;0.0;0.0;0.0;0.0;0.0;-18.0;-13.0;2.0;0.0;-0.06;0.68;-10.55;0.83;0.23;0.93
1753874610.054302;0.0;0.0;0.0;-3.2;-0.23;0.0;0.0;0.0;0.0;0.0;-18.0;-13.0;2.0;0.0;-0.06;0.68;-10.55;0.84;0.19;1.01
1753874610.059302;0.0;0.0;0.0;-3.2;-0.23;0.0;0.0;0.0;0.0;0.0;-18.0;-13.0;2.0;0.0;-0.06;0.68;-10.56;0.91;0.16;1.05
1753874610.064302;0.0;0.0;0.0;-3.2;-0.23;0.0;0.0;0.0;0.0;0.0;-18.0;-13.0;2.0;0.0;-0.07;0.68;-10.55;0.86;0.18;0.94
1753874610.069302;0.0;0.0;0.0;-3.2;-0.23;0.0;0.0;0.0;0.0;0.0;-18.0;-13.0;2.0;0.0;-0.07;0.68;-10.56;0.88;0.17;1.06
1753874610.074302;0.0;0.0;0.0;-3.2;-0.23;0.0;0.0;0.0;0.0;0.0;-18.0;-13.0;2.0;0.0;-0.06;0.67;-10.56;0.89;0.11;0.93
1753874610.079302;0.0;0.0;0.0;-3.2;-0.23;0.0;0.0;0.0;0.0;0.0;-18.0;-13.0;2.0;0.0;-0.06;0.67;-10.56;0.84;0.22;0.97
1753874610.084302;0.0;0.0;0.0;-3.2;-0.23;0.0;0.0;0.0;0.0;0.0;-18.0;-13.0;2.0;0.0;-0.07;0.67;-10.57;0.95;0.3;0.99
1753874610.089302;0.0;0.0;0.0;-3.2;-0.23;0.0;0.0;0.0;0.0;0.0;-18.0;-13.0;2.0;0.0;-0.07;0.67;-10.56;0.83;0.27;0.96
1753874610.094302;0.0;0.0;0.0;-3.2;-0.23;0.0;0.0;0.0;0.0;0.0;-18.0;-13.0;2.0;0.0;-0.07;0.67;-10.56;0.88;0.09;0.9
1753874610.099302;0.0;0.0;0.0;-3.2;-0.23;0.0;0.0;0.0;0.0;0.0;-18.0;-13.0;2.0;0.0;-0.07;0.67;-10.56;1.0;0.08;0.99
1753874610.104302;0.0;0.0;0.0;-3.2;-0.23;0.0;0.0;0.0;0.0;0.0;-18.0;-13.0;2.0;0.0;-0.07;0.67;-10.57;1.01;0.17;0.8
1753874610.109302;0.0;0.0;0.0;-3.2;-0.23;0.0;0.0;0.0;0.0;0.0;-18.0;-13.0;2.0;0.0;-0.06;0.67;-10.57;0.86;0.11;0.87
1753874610.114302;0.0;0.0;0.0;-3.2;-0.23;0.0;0.0;0.0;0.0;0.0;-18.0;-13.0;2.0;0.0;-0.06;0.67;-10.56;0.74;0.24;0.89
1753874610.119302;0.0;0.0;0.0;-3.2;-0.23;0.0;0.0;0.0;0.0;0.0;-18.0;-13.0;2.0;0.0;-0.06;0.67;-10.57;0.91;0.05;0.94
1753874610.124302;0.0;0.0;0.0;-3.2;-0.23;0.0;0.0;0.0;0.0;0.0;-18.0;-13.0;2.0;0.0;-0.06;0.67;-10.56;0.93;0.21;1.05
1753874610.129302;0.0;0.0;0.0;-3.2;-0.23;0.0;0.0;0.0;0.0;0.0;-18.0;-13.0;2.0;0.0;-0.06;0.67;-10.56;0.77;0.2;1.04
1753874610.134302;0.0;0.0;0.0;-3.2;-0.23;0.0;0.0;0.0;0.0;0.0;-18.0;-13.0;2.0;0.0;-0.05;0.67;-10.57;0.86;0.02;0.93
1753874610.139302;0.0;0.0;0.0;-3.2;-0.23;0.0;0.0;0.0;0.0;0.0;-18.0;-13.0;2.0;0.0;-0.05;0.67;-10.57;0.86;0.22;0.93
1753874610.144302;0.0;0.0;0.0;-3.2;-0.23;0.0;0.0;0.0;0.0;0.0;-18.0;-13.0;2.0;0.0;-0.06;0.67;-10.56;0.9;0.26;0.99
1753874610.149302;0.0;0.0;0.0;-3.2;-0.23;0.0;0.0;0.0;0.0;0.0;-18.0;-13.0;2.0;0.0;-0.05;0.67;-10.56;0.78;0.25;0.97
1753874610.154302;0.0;0.0;0.0;-3.2;-0.23;0.0;0.0;0.0;0.0;0.0;-18.0;-13.0;2.0;0.0;-0.06;0.67;-10.56;0.89;0.25;1.05
1753874610.159302;0.0;0.0;0.0;-3.2;-0.23;0.0;0.0;0.0;0.0;0.0;-18.0;-13.0;2.0;0.0;-0.06;0.67;-10.55;0.86;0.35;1.04
1753874610.164302;0.0;0.0;0.0;-3.2;-0.23;0.0;0.0;0.0;0.0;0.0;-18.0;-13.0;2.0;0.0;-0.06;0.67;-10.56;0.84;0.19;0.99
1753874610.169302;0.0;0.0;0.0;-3.2;-0.23;0.0;0.0;0.0;0.0;0.0;-18.0;-13.0;2.0;0.0;-0.06;0.67;-10.56;0.99;0.27;0.92
1753874610.174302;0.0;0.0;0.0;-3.2;-0.23;0.0;0.0;0.0;0.0;0.0;-18.0;-13.0;2.0;0.0;-0.06;0.67;-10.57;0.94;0.22;0.96
1753874610.179302;0.0;0.0;0.0;-3.2;-0.23;0.0;0.0;0.0;0.0;0.0;-18.0;-13.0;2.0;0.0;-0.06;0.67;-10.58;0.82;0.35;0.98
1753874610.184302;0.0;0.0;0.0;-3.2;-0.23;0.0;0.0;0.0;0.0;0.0;-18.0;-13.0;2.0;0.0;-0.06;0.66;-10.58;0.81;0.12;0.88
1753874610.189302;0.0;0.0;0.0;-3.2;-0.23;0.0;0.0;0.0;0.0;0.0;-18.0;-13.0;2.0;0.0;-0.06;0.66;-10.58;0.78;0.24;0.93
1753874610.194302;0.0;0.0;0.0;-3.2;-0.23;0.0;0.0;0.0;0.0;0.0;-18.0;-13.0;2.0;0.0;-0.06;0.66;-10.57;0.94;0.23;0.88
1753874610.199302;0.0;0.0;0.0;-3.2;-0.23;0.0;0.0;0.0;0.0;0.0;-18.0;-13.0;2.0;0.0;-0.06;0.66;-10.56;0.8;0.22;0.91
1753874610.204302;0.0;0.0;0.0;-3.2;-0.23;0.0;0.0;0.0;0.0;0.0;-18.0;-13.0;2.0;0.0;-0.06;0.67;-10.57;0.86;0.13;0.73
1753874610.209302;0.0;0.0;0.0;-3.2;-0.23;0.0;0.0;0.0;0.0;0.0;-18.0;-13.0;2.0;0.0;-0.06;0.67;-10.57;0.8;0.12;1.01
1753874610.214302;0.0;0.0;0.0;-3.2;-0.23;0.0;0.0;0.0;0.0;0.0;-18.0;-13.0;2.0;0.0;-0.06;0.67;-10.58;0.94;0.05;0.93
1753874610.219302;0.0;0.0;0.0;-3.2;-0.23;0.0;0.0;0.0;0.0;0.0;-18.0;-13.0;2.0;0.0;-0.06;0.67;-10.57;0.74;0.34;0.86
1753874610.224302;0.0;0.0;0.0;-3.2;-0.23;0.0;0.0;0.0;0.0;0.0;-18.0;-13.0;2.0;0.0;-0.06;0.67;-10.58;0.8;0.17;0.99
1753874610.229302;0.0;0.0;0.0;-3.2;-0.23;0.0;0.0;0.0;0.0;0.0;-13.7;-13.3;3.8;0.2;-0.06;0.67;-10.59;0.57;0.29;1.16
1753874610.234302;0.0;0.0;0.0;-3.2;-0.23;0.0;0.0;0.0;0.0;0.0;-14.0;-12.7;1.7;0.5;-0.06;0.67;-10.59;0.73;0.05;0.96
1753874610.239302;0.0;0.0;0.0;-3.2;-0.23;0.0;0.0;0.0;0.0;0.0;-15.5;-13.0;-3.7;0.6;-0.06;0.67;-10.58;0.64;0.15;1.03
1753874610.244302;0.0;0.0;0.0;-3.2;-0.23;0.0;0.0;0.0;0.0;0.0;-25.0;-12.4;-0.1;1.3;-0.06;0.67;-10.57;0.77;0.12;0.94
1753874610.249302;0.0;0.0;0.0;-3.2;-0.23;0.0;0.0;0.0;0.0;0.0;-9.9;-13.1;-3.7;-0.9;-0.06;0.67;-10.57;0.71;-0.1;0.99
1753874610.254302;0.0;0.0;0.0;-3.2;-0.23;0.0;0.0;0.0;0.0;0.0;-8.1;-12.4;4.8;-1.6;-0.06;0.67;-10.58;0.73;0.13;0.88
1753874610.259302;0.0;0.0;0.0;-3.2;-0.23;0.0;0.0;0.0;0.0;0.0;-16.9;-12.5;-4.4;-1.7;-0.05;0.67;-10.59;0.76;0.35;0.99
1753874610.264303;0.0;0.0;0.0;-3.2;-0.23;0.0;0.0;0.0;0.0;0.0;-11.3;-11.9;-2.5;-1.3;-0.07;0.67;-10.58;0.8;0.18;0.92
1753874610.269303;0.0;0.0;0.0;-3.2;-0.22;0.0;0.0;0.0;0.0;0.0;-4.7;-13.0;5.0;-2.5;-0.06;0.67;-10.57;0.83;0.26;1.0
1753874610.274303;0.0;0.0;0.0;-3.2;-0.23;0.0;0.0;0.0;0.0;0.0;-4.6;-12.3;2.4;-1.6;-0.06;0.67;-10.58;0.86;0.33;1.14
1753874610.279303;0.0;0.0;0.0;-3.2;-0.23;0.0;0.0;0.0;0.0;0.0;-7.6;-13.2;-7.1;-2.2;-0.06;0.67;-10.58;0.9;0.19;0.91
1753874610.284303;0.0;0.0;0.0;-3.2;-0.23;0.0;0.0;0.0;0.0;0.0;-9.8;-11.8;-5.3;-1.8;-0.05;0.67;-10.56;0.73;0.24;0.93
1753874610.289303;0.0;0.0;0.0;-3.2;-0.22;0.0;0.0;0.0;0.0;0.0;-7.6;-12.0;1.0;-1.2;-0.05;0.67;-10.57;0.77;0.19;0.95
1753874610.294304;0.0;0.0;0.0;-3.2;-0.23;0.0;0.0;0.0;0.0;0.0;-17.1;-11.9;-4.9;-4.5;-0.06;0.67;-10.58;0.79;0.12;1.05
1753874610.299304;0.0;0.0;0.0;-3.2;-0.23;0.0;0.0;0.0;0.0;0.0;-11.2;-11.7;-10.9;-4.0;-0.06;0.67;-10.59;0.91;0.25;1.14
1753874610.304304;0.0;0.0;0.0;-3.2;-0.23;0.0;0.0;0.0;0.0;0.0;-7.2;-12.8;-11.7;-0.1;-0.06;0.67;-10.56;1.02;0.12;1.04
1753874610.309304;0.0;0.0;0.0;-3.2;-0.23;0.0;0.0;0.0;0.0;0.0;-9.0;-11.5;-14.8;-2.8;-0.06;0.67;-10.57;0.87;0.34;0.92
1753874610.314304;0.0;0.0;0.0;-3.2;-0.23;0.0;0.0;0.0;0.0;0.0;2.1;-11.6;1.2;-6.2;-0.06;0.67;-10.59;0.96;0.17;1.0
1753874610.319304;0.0;0.0;0.0;-3.2;-0.22;0.0;0.0;0.0;0.0;0.0;-7.8;-11.6;-14.9;-4.2;-0.06;0.67;-10.58;0.78;0.18;0.95
1753874610.324304;0.0;0.0;0.0;-3.2;-0.22;0.0;0.0;0.0;0.0;0.0;-1.5;-10.5;-3.6;-6.1;-0.06;0.67;-10.56;0.8;0.29;1.03
1753874610.329304;0.0;0.0;0.0;-3.2;-0.22;0.0;0.0;0.0;0.0;0.0;-1.5;-11.8;-14.3;-5.0;-0.06;0.67;-10.56;0.86;0.26;1.01
1753874610.334304;0.0;0.0;0.0;-3.2;-0.23;0.0;0.0;0.0;0.0;0.0;10.3;-11.7;-13.0;-3.6;-0.05;0.67;-10.56;0.86;0.22;0.99
1753874610.339304;0.0;0.0;0.0;-3.2;-0.23;0.0;0.0;0.0;0.0;0.0;3.1;-11.0;-6.6;-5.7;-0.06;0.68;-10.57;0.77;0.17;1.07
1753874610.344304;0.0;0.0;0.0;-3.2;-0.23;0.0;0.0;0.0;0.0;0.0;2.5;-11.7;-11.0;-6.2;-0.06;0.67;-10.57;0.75;0.27;0.86
1753874610.349305;0.0;0.0;0.0;-3.2;-0.22;0.0;0.0;0.0;0.0;0.0;6.7;-11.6;-7.2;-5.7;-0.06;0.67;-10.57;0.91;0.21;1.05
1753874610.354305;0.0;0.0;0.0;-3.2;-0.22;0.0;0.0;0.0;0.0;0.0;-8.2;-11.5;-14.7;-7.8;-0.06;0.67;-10.58;0.84;0.03;0.96
1753874610.359305;0.0;0.0;0.0;-3.2;-0.22;0.0;0.0;0.0;0.0;0.0;-1.6;-11.3;-5.3;-6.4;-0.06;0.67;-10.57;0.71;0.31;1.09
1753874610.364305;0.0;0.0;0.0;-3.2;-0.22;0.0;0.0;0.0;0.0;0.0;-2.1;-11.0;-12.1;-6.3;-0.06;0.67;-10.58;0.92;0.26;0.92
1753874610.369305;0.0;0.0;0.0;-3.2;-0.22;0.0;0.0;0.0;0.0;0.0;-4.7;-11.1;-20.0;-1.9;-0.06;0.67;-10.58;0.74;0.26;0.95
1753874610.374305;0.0;0.0;0.0;-3.2;-0.22;0.0;0.0;0.0;0.0;0.0;4.2;-11.9;-21.9;-4.0;-0.05;0.67;-10.57;0.87;0.36;1.03
1753874610.379302;0.0;0.0;0.0;-3.2;-0.22;0.0;0.0;0.0;0.0;0.0;5.0;-11.0;-15.0;-7.0;-0.06;0.67;-10.57;0.82;0.29;0.99
1753874610.384302;0.0;0.0;0.0;-3.2;-0.22;0.0;0.0;0.0;0.0;0.0;5.0;-11.0;-15.0;-7.0;-0.06;0.67;-10.57;0.95;0.28;1.02
1753874610.389302;0.0;0.0;0.0;-3.2;-0.22;0.0;0.0;0.0;0.0;0.0;5.0;-11.0;-15.0;-7.0;-0.06;0.67;-10.57;0.95;0.17;0.93
1753874610.394302;0.0;0.0;0.0;-3.2;-0.22;0.0;0.0;0.0;0.0;0.0;5.0;-11.0;-15.0;-7.0;-0.06;0.66;-10.56;0.89;0.23;0.94
1753874610.399302;0.0;0.0;0.0;-3.2;-0.22;0.0;0.0;0.0;0.0;0.0;5.0;-11.0;-15.0;-7.0;-0.06;0.67;-10.57;0.7;0.19;1.19
1753874610.404302;0.0;0.0;0.0;-3.2;-0.22;0.0;0.0;0.0;0.0;0.0;5.0;-11.0;-15.0;-7.0;-0.06;0.67;-10.57;0.9;0.16;0.93
1753874610.409302;0.0;0.0;0.0;-3.2;-0.22;0.0;0.0;0.0;0.0;0.0;5.0;-11.0;-15.0;-7.0;-0.06;0.67;-10.57;0.82;0.11;0.86
1753874610.414302;0.0;0.0;0.0;-3.2;-0.22;0.0;0.0;0.0;0.0;0.0;5.0;-11.0;-15.0;-7.0;-0.06;0.68;-10.57;0.81;0.25;0.9
1753874610.419302;0.0;0.0;0.0;-3.2;-0.22;0.0;0.0;0.0;0.0;0.0;1.0;-11.0;-17.4;1.6;-0.06;0.68;-10.56;0.8;0.27;0.97
1753874610.424302;0.0;0.0;0.0;-3.2;-0.22;0.0;0.0;0.0;0.0;0.0;5.0;-11.0;-15.0;-7.0;-0.06;0.68;-10.56;0.85;0.21;1.0
1753874610.429302;0.0;0.0;0.0;-3.2;-0.22;0.0;0.0;0.0;0.0;0.0;5.0;-11.0;-15.0;-7.0;-0.06;0.68;-10.57;0.93;0.25;1.0
1753874610.434302;0.0;0.0;0.0;-3.2;-0.22;0.0;0.0;0.0;0.0;0.0;5.0;-11.0;-15.0;-7.0;-0.06;0.68;-10.56;0.92;0.3;1.09
1753874610.439302;0.0;0.0;0.0;-3.2;-0.22;0.0;0.0;0.0;0.0;0.0;5.0;-11.0;-15.0;-7.0;-0.06;0.68;-10.56;0.78;0.21;1.06
1753874610.444302;0.0;0.0;0.0;-3.2;-0.22;0.0;0.0;0.0;0.0;0.0;5.0;-11.0;-15.0;-7.0;-0.06;0.67;-10.57;0.79;0.29;1.02
1753874610.449302;0.0;0.0;0.0;-3.2;-0.22;0.0;0.0;0.0;0.0;0.0;5.0;-11.0;-15.0;-7.0;-0.06;0.67;-10.57;0.83;0.23;0.91
1753874610.454302;0.0;0.0;0.0;-3.2;-0.22;0.0;0.0;0.0;0.0;0.0;5.0;-11.0;-15.0;-7.0;-0.05;0.67;-10.57;0.88;0.35;0.9
1753874610.459302;0.0;0.0;0.0;-3.2;-0.22;0.0;0.0;0.0;0.0;0.0;5.0;-11.0;-15.0;-7.0;-0.05;0.67;-10.56;0.83;0.13;1.06
1753874610.464302;0.0;0.0;0.0;-3.2;-0.22;0.0;0.0;0.0;0.0;0.0;5.0;-11.0;-15.0;-7.0;-0.06;0.67;-10.57;0.92;0.27;0.83
1753874610.469302;0.0;0.0;0.0;-3.2;-0.22;0.0;0.0;0.0;0.0;0.0;5.0;-11.0;-15.0;-7.0;-0.05;0.66;-10.57;1.0;0.21;0.86
1753874610.474302;0.0;0.0;0.0;-3.2;-0.22;0.0;0.0;0.0;0.0;0.0;5.0;-11.0;-15.0;-7.0;-0.06;0.66;-10.57;0.94;0.35;1.11
1753874610.479302;0.0;0.0;0.0;-3.2;-0.22;0.0;0.0;0.0;0.0;0.0;5.0;-11.0;-15.0;-7.0;-0.06;0.67;-10.57;0.83;0.28;1.09
1753874610.484302;0.0;0.0;0.0;-3.2;-0.22;0.0;0.0;0.0;0.0;0.0;5.0;-11.0;-15.0;-7.0;-0.06;0.67;-10.57;0.84;0.22;0.98
1753874610.489302;0.0;0.0;0.0;-3.2;-0.22;0.0;0.0;0.0;0.0;0.0;5.0;-11.0;-15.0;-7.0;-0.06;0.68;-10.58;0.85;0.06;0.94
1753874610.494302;0.0;0.0;0.0;-3.2;-0.22;0.0;0.0;0.0;0.0;0.0;5.0;-11.0;-15.0;-7.0;-0.06;0.67;-10.58;0.89;0.12;1.08
1753874610.499302;0.0;0.0;0.0;-3.2;-0.22;0.0;0.0;0.0;0.0;0.0;5.0;-11.0;-15.0;-7.0;-0.05;0.67;-10.57;0.96;0.18;0.8
1753874610.504302;0.0;0.0;0.0;-3.2;-0.22;0.0;0.0;0.0;0.0;0.0;5.0;-11.0;-15.0;-7.0;-0.05;0.67;-10.57;0.95;0.08;0.99
1753874610.509302;0.0;0.0;0.0;-3.2;-0.22;0.0;0.0;0.0;0.0;0.0;5.0;-11.0;-15.0;-7.0;-0.06;0.67;-10.58;0.81;0.03;0.9
1753874610.514302;0.0;0.0;0.0;-3.2;-0.22;0.0;0.0;0.0;0.0;0.0;5.0;-11.0;-15.0;-7.0;-0.06;0.67;-10.58;0.88;0.09;0.94
1753874610.519302;0.0;0.0;0.0;-3.2;-0.22;0.0;0.0;0.0;0.0;0.0;5.0;-11.0;-15.0;-7.0;-0.06;0.67;-10.58;0.89;-0.04;0.87
1753874610.524302;0.0;0.0;0.0;-3.2;-0.22;0.0;0.0;0.0;0.0;0.0;5.0;-11.0;-15.0;-7.0;-0.06;0.67;-10.57;0.95;0.09;1.05
1753874610.529302;0.0;0.0;0.0;-3.2;-0.22;0.0;0.0;0.0;0.0;0.0;5.0;-11.0;-15.0;-7.0;-0.06;0.66;-10.59;0.85;0.26;0.94
1753874610.534302;0.0;0.0;0.0;-3.2;-0.22;0.0;0.0;0.0;0.0;0.0;5.0;-11.0;-15.0;-7.0;-0.06;0.68;-10.57;0.84;0.06;0.96
1753874610.539302;0.0;0.0;0.0;-3.2;-0.22;0.0;0.0;0.0;0.0;0.0;5.0;-11.0;-15.0;-7.0;-0.06;0.67;-10.57;0.88;0.28;1.0
1753874610.544303;0.0;0.0;0.0;-3.2;-0.22;0.0;0.0;0.0;0.0;0.0;5.0;-11.0;-15.0;-7.0;-0.06;0.67;-10.58;0.87;0.26;1.01
1753874610.549303;0.0;0.0;0.0;-3.2;-0.22;0.0;0.0;0.0;0.0;0.0;5.0;-11.0;-15.0;-7.0;-0.06;0.67;-10.57;0.93;0.1;0.89
1753874610.554303;0.0;0.0;0.0;-3.2;-0.22;0.0;0.0;0.0;0.0;0.0;5.0;-11.0;-15.0;-7.0;-0.07;0.67;-10.58;0.86;0.2;0.95
1753874610.559303;0.0;0.0;0.0;-3.2;-0.22;0.0;0.0;0.0;0.0;0.0;5.0;-11.0;-15.0;-7.0;-0.08;0.67;-10.57;0.91;0.38;0.79
1753874610.564302;0.0;0.0;0.0;-3.2;-0.22;0.0;0.0;0.0;0.0;0.0;5.0;-11.0;-15.0;-7.0;-0.07;0.67;-10.57;0.88;0.25;0.9
1753874610.569302;0.0;0.0;0.0;-3.2;-0.22;0.0;0.0;0.0;0.0;0.0;5.0;-11.0;-15.0;-7.0;-0.07;0.67;-10.56;0.86;0.22;1.09
1753874610.574302;0.0;0.0;0.0;-3.2;-0.22;0.0;0.0;0.0;0.0;0.0;5.0;-11.0;-15.0;-7.0;-0.07;0.67;-10.55;0.9;0.2;1.01
1753874610.579302;0.0;0.0;0.0;-3.2;-0.22;0.0;0.0;0.0;0.0;0.0;5.0;-11.0;-15.0;-7.0;-0.07;0.66;-10.55;0.95;0.2;1.02
1753874610.584302;0.0;0.0;0.0;-3.2;-0.22;0.0;0.0;0.0;0.0;0.0;5.0;-11.0;-15.0;-7.0;-0.07;0.65;-10.54;0.92;0.18;1.17
1753874610.589302;0.0;0.0;0.0;-3.2;-0.22;0.0;0.0;0.0;0.0;0.0;5.0;-11.0;-15.0;-7.0;-0.07;0.66;-10.54;0.83;0.11;0.96
1753874610.594302;0.0;0.0;0.0;-3.2;-0.22;0.0;0.0;0.0;0.0;0.0;5.0;-11.0;-15.0;-7.0;-0.07;0.65;-10.54;0.84;0.22;1.03
1753874610.599302;0.0;0.0;0.0;-3.2;-0.22;0.0;0.0;0.0;0.0;0.0;5.0;-11.0;-15.0;-7.0;-0.07;0.66;-10.54;0.92;0.13;1.08
1753874610.604302;0.0;0.0;0.0;-3.2;-0.22;0.0;0.0;0.0;0.0;0.0;5.0;-11.0;-15.0;-7.0;-0.07;0.66;-10.54;0.82;0.22;0.94
1753874610.609302;0.0;0.0;0.0;-3.2;-0.22;0.0;0.0;0.0;0.0;0.0;5.0;-11.0;-15.0;-7.0;-0.07;0.66;-10.54;0.82;0.2;1.04
1753874610.614302;0.0;0.0;0.0;-3.2;-0.22;0.0;0.0;0.0;0.0;0.0;5.0;-11.0;-15.0;-7.0;-0.07;0.66;-10.54;0.84;0.13;0.98
1753874610.619302;0.0;0.0;0.0;-3.2;-0.22;0.0;0.0;0.0;0.0;0.0;5.0;-11.0;-15.0;-7.0;-0.06;0.66;-10.54;0.89;0.22;0.9
1753874610.624302;0.0;0.0;0.0;-3.2;-0.22;0.0;0.0;0.0;0.0;0.0;5.0;-11.0;-15.0;-7.0;-0.06;0.66;-10.55;0.9;0.26;0.89
1753874610.629302;0.0;0.0;0.0;-3.2;-0.22;0.0;0.0;0.0;0.0;0.0;5.0;-11.0;-15.0;-7.0;-0.06;0.66;-10.53;0.9;0.37;0.8
1753874610.634302;0.0;0.0;0.0;-3.2;-0.22;0.0;0.0;0.0;0.0;0.0;5.0;-11.0;-15.0;-7.0;-0.06;0.67;-10.58;0.9;0.27;0.89
1753874610.639302;0.0;0.0;0.0;-3.2;-0.22;0.0;0.0;0.0;0.0;0.0;5.0;-11.0;-15.0;-7.0;-0.05;0.67;-10.55;0.83;0.32;1.0
1753874610.644302;0.0;0.0;0.0;-3.2;-0.22;0.0;0.0;0.0;0.0;0.0;5.0;-11.0;-15.0;-7.0;-0.06;0.66;-10.54;0.92;0.27;0.87
1753874610.649302;0.0;0.0;0.0;-3.2;-0.22;0.0;0.0;0.0;0.0;0.0;5.0;-11.0;-15.0;-7.0;-0.07;0.67;-10.55;0.9;0.1;0.89
1753874610.654302;0.0;0.0;0.0;-3.2;-0.22;0.0;0.0;0.0;0.0;0.0;5.0;-11.0;-15.0;-7.0;-0.06;0.66;-10.57;0.88;0.19;1.04
1753874610.659303;0.0;0.0;0.0;-3.2;-0.22;0.0;0.0;0.0;0.0;0.0;5.0;-11.0;-15.0;-7.0;-0.06;0.66;-10.56;0.88;0.28;0.91
1753874610.664303;0.0;0.0;0.0;-3.2;-0.22;0.0;0.0;0.0;0.0;0.0;5.0;-11.0;-15.0;-7.0;-0.05;0.67;-10.57;0.85;0.28;1.11
1753874610.669303;0.0;0.0;0.0;-3.2;-0.22;0.0;0.0;0.0;0.0;0.0;5.0;-11.0;-15.0;-7.0;-0.06;0.66;-10.58;0.93;0.32;0.86
1753874610.674303;0.0;0.0;0.0;-3.2;-0.22;0.0;0.0;0.0;0.0;0.0;5.0;-11.0;-15.0;-7.0;-0.06;0.66;-10.56;0.89;0.27;0.99
1753874610.679303;0.0;0.0;0.0;-3.2;-0.22;0.0;0.0;0.0;0.0;0.0;5.0;-11.0;-15.0;-7.0;-0.07;0.66;-10.52;0.91;0.24;1.2
1753874610.684303;0.0;0.0;0.0;-3.2;-0.22;0.0;0.0;0.0;0.0;0.0;5.0;-11.0;-15.0;-7.0;-0.06;0.67;-10.57;0.89;0.27;1.04
1753874610.689304;0.0;0.0;0.0;-3.2;-0.22;0.0;0.0;0.0;0.0;0.0;5.0;-11.0;-15.0;-7.0;-0.06;0.66;-10.56;0.89;0.21;0.95
1753874610.694304;0.0;0.0;0.0;-3.2;-0.22;0.0;0.0;0.0;0.0;0.0;5.0;-11.0;-15.0;-7.0;-0.07;0.67;-10.54;0.85;0.22;1.02
1753874610.699304;0.0;0.0;0.0;-3.2;-0.22;0.0;0.0;0.0;0.0;0.0;5.0;-11.0;-15.0;-7.0;-0.05;0.66;-10.56;0.86;0.17;1.15
1753874610.704304;0.0;0.0;0.0;-3.2;-0.22;0.0;0.0;0.0;0.0;0.0;5.0;-11.0;-15.0;-7.0;-0.05;0.67;-10.57;0.88;0.3;0.95
1753874610.709304;0.0;0.0;0.0;-3.2;-0.22;0.0;0.0;0.0;0.0;0.0;5.0;-11.0;-15.0;-7.0;-0.06;0.66;-10.58;0.86;0.26;0.94
1753874610.714304;0.0;0.0;0.0;-3.2;-0.22;0.0;0.0;0.0;0.0;0.0;5.0;-11.0;-15.0;-7.0;-0.05;0.65;-10.58;0.86;0.2;1.04
1753874610.719304;0.0;0.0;0.0;-3.2;-0.22;0.0;0.0;0.0;0.0;0.0;5.0;-11.0;-15.0;-7.0;-0.07;0.65;-10.58;0.98;0.24;1.03
1753874610.724304;0.0;0.0;0.0;-3.2;-0.22;0.0;0.0;0.0;0.0;0.0;5.0;-11.0;-15.0;-7.0;-0.06;0.66;-10.57;0.95;0.27;1.1
1753874610.729304;0.0;0.0;0.0;-3.2;-0.22;0.0;0.0;0.0;0.0;0.0;5.0;-11.0;-15.0;-7.0;-0.06;0.67;-10.56;0.91;0.13;0.85
1753874610.734304;0.0;0.0;0.0;-3.2;-0.22;0.0;0.0;0.0;0.0;0.0;5.0;-11.0;-15.0;-7.0;-0.06;0.67;-10.57;0.8;0.24;1.12
1753874610.739304;0.0;0.0;0.0;-3.2;-0.22;0.0;0.0;0.0;0.0;0.0;5.0;-11.0;-15.0;-7.0;-0.07;0.67;-10.56;0.89;0.23;0.92
1753874610.744305;0.0;0.0;0.0;-3.2;-0.22;0.0;0.0;0.0;0.0;0.0;5.0;-11.0;-15.0;-7.0;-0.06;0.68;-10.59;0.84;0.44;1.13
1753874610.749302;0.0;0.0;0.0;-3.2;-0.22;0.0;0.0;0.0;0.0;0.0;5.0;-11.0;-15.0;-7.0;-0.06;0.67;-10.57;0.87;0.21;1.05
1753874610.754302;0.0;0.0;0.0;-3.2;-0.22;0.0;0.0;0.0;0.0;0.0;5.0;-11.0;-15.0;-7.0;-0.06;0.67;-10.57;0.92;0.2;0.88
1753874610.759302;0.0;0.0;0.0;-3.2;-0.22;0.0;0.0;0.0;0.0;0.0;5.0;-11.0;-15.0;-7.0;-0.06;0.68;-10.57;0.92;0.22;1.03
1753874610.764302;0.0;0.0;0.0;-3.2;-0.22;0.0;0.0;0.0;0.0;0.0;5.0;-11.0;-15.0;-7.0;-0.06;0.67;-10.57;0.79;0.25;0.93
1753874610.769302;0.0;0.0;0.0;-3.2;-0.22;0.0;0.0;0.0;0.0;0.0;5.0;-11.0;-15.0;-7.0;-0.05;0.67;-10.58;0.95;0.19;0.91
1753874610.774302;0.0;0.0;0.0;-3.2;-0.22;0.0;0.0;0.0;0.0;0.0;5.0;-11.0;-15.0;-7.0;-0.06;0.67;-10.58;0.86;0.19;0.96
1753874610.779302;0.0;0.0;0.0;-3.2;-0.22;0.0;0.0;0.0;0.0;0.0;5.0;-11.0;-15.0;-7.0;-0.06;0.67;-10.57;0.88;0.12;0.97
1753874610.784302;0.0;0.0;0.0;-3.2;-0.22;0.0;0.0;0.0;0.0;0.0;5.0;-11.0;-15.0;-7.0;-0.06;0.67;-10.57;0.99;0.13;0.94
1753874610.789302;0.0;0.0;0.0;-3.2;-0.22;0.0;0.0;0.0;0.0;0.0;5.0;-11.0;-15.0;-7.0;-0.06;0.67;-10.57;0.94;0.18;0.99
1753874610.794302;0.0;0.0;0.0;-3.2;-0.22;0.0;0.0;0.0;0.0;0.0;5.0;-11.0;-15.0;-7.0;-0.06;0.67;-10.56;0.86;0.1;1.04
1753874610.799302;0.0;0.0;0.0;-3.2;-0.22;0.0;0.0;0.0;0.0;0.0;5.0;-11.0;-15.0;-7.0;-0.06;0.67;-10.56;0.94;0.21;0.93
1753874610.804302;0.0;0.0;0.0;-3.2;-0.22;0.0;0.0;0.0;0.0;0.0;5.0;-11.0;-15.0;-7.0;-0.07;0.67;-10.57;0.93;0.26;0.88
1753874610.809302;0.0;0.0;0.0;-3.2;-0.22;0.0;0.0;0.0;0.0;0.0;5.0;-11.0;-15.0;-7.0;-0.07;0.67;-10.56;0.86;0.24;1.12
1753874610.814302;0.0;0.0;0.0;-3.2;-0.22;0.0;0.0;0.0;0.0;0.0;5.0;-11.0;-15.0;-7.0;-0.07;0.66;-10.57;0.91;0.06;0.99
1753874610.819302;0.0;0.0;0.0;-3.2;-0.22;0.0;0.0;0.0;0.0;0.0;5.0;-11.0;-15.0;-7.0;-0.06;0.67;-10.57;0.92;0.09;0.94
1753874610.824302;0.0;0.0;0.0;-3.2;-0.22;0.0;0.0;0.0;0.0;0.0;5.0;-11.0;-15.0;-7.0;-0.07;0.67;-10.56;0.8;0.25;0.95
1753874610.829302;0.0;0.0;0.0;-3.2;-0.22;0.0;0.0;0.0;0.0;0.0;5.0;-11.0;-15.0;-7.0;-0.06;0.67;-10.56;0.86;0.21;0.95
1753874610.834302;0.0;0.0;0.0;-3.2;-0.22;0.0;0.0;0.0;0.0;0.0;5.0;-11.2;-18.5;-7.1;-0.06;0.66;-10.56;0.81;0.25;0.87
1753874610.839302;0.0;0.0;0.0;-3.2;-0.22;0.0;0.0;0.0;0.0;0.0;4.9;-10.9;-16.4;-4.5;-0.06;0.66;-10.57;0.86;0.2;0.85
1753874610.844302;0.0;0.0;0.0;-3.2;-0.22;0.0;0.0;0.0;0.0;0.0;4.2;-11.1;1.8;-4.5;-0.06;0.67;-10.57;0.89;0.18;0.98
1753874610.849302;0.0;0.0;0.0;-3.2;-0.22;0.0;0.0;0.0;0.0;0.0;5.2;-11.7;-7.4;-6.9;-0.06;0.66;-10.58;0.88;0.3;1.0
1753874610.854302;0.0;0.0;0.0;-3.2;-0.22;0.0;0.0;0.0;0.0;0.0;5.1;-12.3;-21.1;-4.8;-0.06;0.68;-10.56;0.8;0.21;0.97
1753874610.859302;0.0;0.0;0.0;-3.2;-0.22;0.0;0.0;0.0;0.0;0.0;4.0;-11.4;-12.5;-5.3;-0.06;0.68;-10.57;0.91;0.16;0.9
1753874610.864303;0.0;0.0;0.0;-3.2;-0.22;0.0;0.0;0.0;0.0;0.0;3.6;-12.4;-6.0;-6.8;-0.05;0.67;-10.56;0.83;0.21;0.94
1753874610.869303;0.0;0.0;0.0;-3.2;-0.22;0.0;0.0;0.0;0.0;0.0;3.9;-11.6;-0.0;-5.0;-0.06;0.67;-10.56;0.85;0.14;0.93
1753874610.874303;0.0;0.0;0.0;-3.2;-0.22;0.0;0.0;0.0;0.0;0.0;3.7;-12.9;-0.3;-4.5;-0.06;0.67;-10.57;0.9;0.19;0.95
1753874610.879303;0.0;0.0;0.0;-3.2;-0.22;0.0;0.0;0.0;0.0;0.0;4.3;-11.3;4.3;-4.7;-0.06;0.67;-10.58;0.84;0.12;0.93
1753874610.884303;0.0;0.0;0.0;-3.2;-0.22;0.0;0.0;0.0;0.0;0.0;3.3;-13.1;-2.4;-4.4;-0.06;0.67;-10.59;0.87;0.29;0.86
1753874610.889303;0.0;0.0;0.0;-3.2;-0.22;0.0;0.0;0.0;0.0;0.0;4.0;-12.9;-1.1;-5.4;-0.05;0.67;-10.57;0.86;0.17;0.93
1753874610.894303;0.0;0.0;0.0;-3.2;-0.22;0.0;0.0;0.0;0.0;0.0;3.6;-11.6;0.1;-4.0;-0.05;0.66;-10.56;0.84;0.2;0.94
1753874610.899304;0.0;0.0;0.0;-3.2;-0.22;0.0;0.0;0.0;0.0;0.0;4.5;-12.5;0.4;-1.7;-0.06;0.67;-10.56;0.89;0.23;1.04
1753874610.904304;0.0;0.0;0.0;-3.2;-0.22;0.0;0.0;0.0;0.0;0.0;3.6;-13.5;6.5;-4.9;-0.06;0.68;-10.57;0.8;0.29;0.86
1753874610.909304;0.0;0.0;0.0;-3.2;-0.22;0.0;0.0;0.0;0.0;0.0;4.0;-12.9;12.8;-3.4;-0.06;0.67;-10.58;0.8;0.2;0.98
1753874610.914304;0.0;0.0;0.0;-3.2;-0.22;0.0;0.0;0.0;0.0;0.0;4.0;-12.2;3.2;-2.8;-0.06;0.67;-10.58;0.88;0.19;0.9
1753874610.919304;0.0;0.0;0.0;-3.2;-0.22;0.0;0.0;0.0;0.0;0.0;3.5;-12.8;5.8;-1.9;-0.06;0.67;-10.57;0.89;0.22;0.9
1753874610.924304;0.0;0.0;0.0;-3.2;-0.22;0.0;0.0;0.0;0.0;0.0;3.5;-13.6;4.0;-1.7;-0.06;0.67;-10.57;0.81;0.22;1.0
1753874610.929304;0.0;0.0;0.0;-3.2;-0.22;0.0;0.0;0.0;0.0;0.0;3.4;-12.8;10.6;-1.7;-0.06;0.67;-10.57;0.86;0.17;0.94
1753874610.934302;0.0;0.0;0.0;-3.2;-0.22;0.0;0.0;0.0;0.0;0.0;3.0;-13.0;12.0;-2.0;-0.06;0.67;-10.58;0.84;0.19;0.94
1753874610.939302;0.0;0.0;0.0;-3.2;-0.22;0.0;0.0;0.0;0.0;0.0;3.0;-13.0;12.0;-2.0;-0.06;0.67;-10.58;0.84;0.2;1.02
1753874610.944302;0.0;0.0;0.0;-3.2;-0.22;0.0;0.0;0.0;0.0;0.0;3.0;-13.0;12.0;-2.0;-0.06;0.67;-10.58;0.84;0.21;1.01
1753874610.949302;0.0;0.0;0.0;-3.2;-0.22;0.0;0.0;0.0;0.0;0.0;3.0;-13.0;12.0;-2.0;-0.06;0.67;-10.58;0.76;0.38;0.95
1753874610.954302;0.0;0.0;0.0;-3.2;-0.22;0.0;0.0;0.0;0.0;0.0;3.0;-13.0;12.0;-2.0;-0.07;0.67;-10.59;1.01;0.38;0.9
1753874610.959302;0.0;0.0;0.0;-3.2;-0.22;0.0;0.0;0.0;0.0;0.0;3.0;-13.0;12.0;-2.0;-0.07;0.68;-10.59;0.83;0.32;0.77
1753874610.964302;0.0;0.0;0.0;-3.2;-0.22;0.0;0.0;0.0;0.0;0.0;3.0;-13.0;12.0;-2.0;-0.07;0.68;-10.58;1.05;0.35;0.96
1753874610.969302;0.0;0.0;0.0;-3.2;-0.22;0.0;0.0;0.0;0.0;0.0;3.0;-13.0;12.0;-2.0;-0.06;0.68;-10.58;0.92;0.03;0.94
1753874610.974302;0.0;0.0;0.0;-3.2;-0.22;0.0;0.0;0.0;0.0;0.0;3.0;-13.0;12.0;-2.0;-0.06;0.68;-10.57;0.86;0.27;0.9
1753874610.979302;0.0;0.0;0.0;-3.2;-0.22;0.0;0.0;0.0;0.0;0.0;3.0;-13.0;12.0;-2.0;-0.06;0.68;-10.58;0.96;0.25;1.01
1753874610.984302;0.0;0.0;0.0;-3.2;-0.22;0.0;0.0;0.0;0.0;0.0;3.0;-13.0;12.0;-2.0;-0.07;0.68;-10.57;0.99;0.15;0.96
1753874610.989302;0.0;0.0;0.0;-3.2;-0.22;0.0;0.0;0.0;0.0;0.0;3.0;-13.0;12.0;-2.0;-0.07;0.68;-10.57;0.86;0.24;0.9
1753874610.994302;0.0;0.0;0.0;-3.2;-0.22;0.0;0.0;0.0;0.0;0.0;3.0;-13.0;12.0;-2.0;-0.06;0.67;-10.57;0.84;0.24;0.97
1753874610.999302;0.0;0.0;0.0;-3.2;-0.22;0.0;0.0;0.0;0.0;0.0;3.0;-13.0;12.0;-2.0;-0.06;0.68;-10.57;0.86;0.17;0.97
1753874611.004302;0.0;0.0;0.0;-3.2;-0.22;0.0;0.0;0.0;0.0;0.0;3.0;-13.0;12.0;-2.0;-0.06;0.68;-10.56;0.93;0.22;1.06
1753874611.009302;0.0;0.0;0.0;-3.2;-0.22;0.0;0.0;0.0;0.0;0.0;3.0;-13.0;12.0;-2.0;-0.06;0.68;-10.56;0.98;0.32;1.04
1753874611.014302;0.0;0.0;0.0;-3.2;-0.22;0.0;0.0;0.0;0.0;0.0;3.0;-13.0;12.0;-2.0;-0.05;0.68;-10.56;0.85;0.13;0.92
1753874611.019302;0.0;0.0;0.0;-3.2;-0.22;0.0;0.0;0.0;0.0;0.0;3.0;-13.0;12.0;-2.0;-0.06;0.67;-10.56;0.87;0.2;0.9
1753874611.024302;0.0;0.0;0.0;-3.2;-0.22;0.0;0.0;0.0;0.0;0.0;3.0;-13.0;12.0;-2.0;-0.06;0.67;-10.56;0.81;0.22;0.82
1753874611.029302;0.0;0.0;0.0;-3.2;-0.22;0.0;0.0;0.0;0.0;0.0;3.0;-13.0;12.0;-2.0;-0.06;0.67;-10.57;0.83;0.16;1.12
1753874611.034302;0.0;0.0;0.0;-3.2;-0.22;0.0;0.0;0.0;0.0;0.0;3.0;-13.0;12.0;-2.0;-0.06;0.67;-10.57;0.9;0.12;0.93
1753874611.039302;0.0;0.0;0.0;-3.2;-0.22;0.0;0.0;0.0;0.0;0.0;3.0;-13.0;12.0;-2.0;-0.06;0.67;-10.57;0.96;0.03;0.95
1753874611.044302;0.0;0.0;0.0;-3.2;-0.22;0.0;0.0;0.0;0.0;0.0;3.0;-13.0;12.0;-2.0;-0.06;0.67;-10.57;0.85;0.1;0.95
1753874611.049302;0.0;0.0;0.0;-3.2;-0.22;0.0;0.0;0.0;0.0;0.0;3.0;-13.0;12.0;-2.0;-0.06;0.67;-10.57;0.97;0.16;0.91
1753874611.054302;0.0;0.0;0.0;-3.2;-0.22;0.0;0.0;0.0;0.0;0.0;3.0;-13.0;12.0;-2.0;-0.06;0.68;-10.57;0.84;0.27;0.99
1753874611.059302;0.0;0.0;0.0;-3.2;-0.22;0.0;0.0;0.0;0.0;0.0;3.0;-13.0;12.0;-2.0;-0.06;0.68;-10.58;0.88;0.23;0.81
1753874611.064302;0.0;0.0;0.0;-3.2;-0.22;0.0;0.0;0.0;0.0;0.0;3.0;-13.0;12.0;-2.0;-0.05;0.68;-10.57;0.87;0.16;0.89
1753874611.069302;0.0;0.0;0.0;-3.2;-0.22;0.0;0.0;0.0;0.0;0.0;3.0;-13.0;12.0;-2.0;-0.06;0.68;-10.58;0.78;0.25;0.95
1753874611.074302;0.0;0.0;0.0;-3.2;-0.22;0.0;0.0;0.0;0.0;0.0;3.0;-13.0;12.0;-2.0;-0.06;0.68;-10.58;0.93;0.16;0.99
1753874611.079302;0.0;0.0;0.0;-3.2;-0.22;0.0;0.0;0.0;0.0;0.0;3.0;-13.0;12.0;-2.0;-0.06;0.68;-10.58;0.83;0.28;0.92
1753874611.084302;0.0;0.0;0.0;-3.2;-0.22;0.0;0.0;0.0;0.0;0.0;3.0;-13.0;12.0;-2.0;-0.06;0.67;-10.57;0.85;0.37;0.89
1753874611.089302;0.0;0.0;0.0;-3.2;-0.22;0.0;0.0;0.0;0.0;0.0;3.0;-13.0;12.0;-2.0;-0.06;0.68;-10.56;0.86;0.35;1.01
1753874611.094302;0.0;0.0;0.0;-3.2;-0.22;0.0;0.0;0.0;0.0;0.0;3.0;-13.0;12.0;-2.0;-0.06;0.68;-10.57;0.99;0.35;0.99
1753874611.099302;0.0;0.0;0.0;-3.2;-0.22;0.0;0.0;0.0;0.0;0.0;3.0;-13.0;12.0;-2.0;-0.06;0.67;-10.57;0.81;0.19;0.9
1753874611.104302;0.0;0.0;0.0;-3.2;-0.22;0.0;0.0;0.0;0.0;0.0;3.0;-13.0;12.0;-2.0;-0.06;0.67;-10.56;0.9;0.19;0.93
1753874611.109302;0.0;0.0;0.0;-3.2;-0.22;0.0;0.0;0.0;0.0;0.0;3.0;-13.0;12.0;-2.0;-0.06;0.67;-10.56;0.78;0.19;0.92
1753874611.114302;0.0;0.0;0.0;-3.2;-0.22;0.0;0.0;0.0;0.0;0.0;3.0;-13.0;12.0;-2.0;-0.06;0.67;-10.56;0.81;0.26;0.91
1753874611.119302;0.0;0.0;0.0;-3.2;-0.22;0.0;0.0;0.0;0.0;0.0;3.0;-13.0;12.0;-2.0;-0.06;0.67;-10.56;0.95;0.38;1.08
1753874611.124302;0.0;0.0;0.0;-3.2;-0.22;0.0;0.0;0.0;0.0;0.0;3.0;-13.0;12.0;-2.0;-0.06;0.67;-10.56;0.88;0.25;1.06
1753874611.129302;0.0;0.0;0.0;-3.2;-0.22;0.0;0.0;0.0;0.0;0.0;3.0;-13.0;12.0;-2.0;-0.05;0.67;-10.55;0.9;0.19;0.96
1753874611.134302;0.0;0.0;0.0;-3.2;-0.22;0.0;0.0;0.0;0.0;0.0;3.0;-13.0;12.0;-2.0;-0.06;0.68;-10.54;0.88;0.22;0.95
1753874611.139302;0.0;0.0;0.0;-3.2;-0.22;0.0;0.0;0.0;0.0;0.0;3.0;-13.0;12.0;-2.0;-0.06;0.67;-10.55;0.87;0.21;1.03
1753874611.144302;0.0;0.0;0.0;-3.2;-0.22;0.0;0.0;0.0;0.0;0.0;3.0;-13.0;12.0;-2.0;-0.06;0.67;-10.56;0.96;0.11;0.93
1753874611.149302;0.0;0.0;0.0;-3.2;-0.22;0.0;0.0;0.0;0.0;0.0;3.0;-13.0;12.0;-2.0;-0.06;0.67;-10.56;0.93;0.13;0.94
1753874611.154302;0.0;0.0;0.0;-3.2;-0.22;0.0;0.0;0.0;0.0;0.0;1.7;-12.5;12.8;2.1;-0.06;0.67;-10.55;0.92;0.03;0.95
1753874611.159302;0.0;0.0;0.0;-3.2;-0.22;0.0;0.0;0.0;0.0;0.0;4.2;-12.8;13.9;1.0;-0.06;0.66;-10.54;0.84;0.12;0.95
1753874611.164302;0.0;0.0;0.0;-3.2;-0.22;0.0;0.0;0.0;0.0;0.0;4.1;-12.6;11.9;1.3;-0.06;0.66;-10.56;0.77;-0.02;0.91
1753874611.169302;0.0;0.0;0.0;-3.2;-0.22;0.0;0.0;0.0;0.0;0.0;2.6;-12.9;12.0;-7.7;-0.05;0.67;-10.55;0.79;0.06;0.81
1753874611.174302;0.0;0.0;0.0;-3.2;-0.21;0.0;0.0;0.0;0.0;0.0;5.2;-13.4;11.8;8.2;-0.06;0.67;-10.57;1.03;0.06;0.98
1753874611.179303;0.0;0.0;0.0;-3.2;-0.22;0.0;0.0;0.0;0.0;0.0;4.0;-12.9;11.5;6.6;-0.06;0.67;-10.58;0.97;0.11;0.97
1753874611.184303;0.0;0.0;0.0;-3.2;-0.22;0.0;0.0;0.0;0.0;0.0;4.3;-13.0;7.7;7.2;-0.06;0.67;-10.56;0.86;0.05;0.96
1753874611.189303;0.0;0.0;0.0;-3.2;-0.22;0.0;0.0;0.0;0.0;0.0;4.1;-12.6;8.3;14.3;-0.05;0.66;-10.56;0.98;0.22;0.89
1753874611.194303;0.0;0.0;0.0;-3.2;-0.22;0.0;0.0;0.0;0.0;0.0;3.5;-12.6;6.9;10.2;-0.06;0.66;-10.55;0.81;0.21;0.94
1753874611.199303;0.0;0.0;0.0;-3.2;-0.22;0.0;0.0;0.0;0.0;0.0;4.0;-12.4;5.7;6.8;-0.06;0.67;-10.55;0.79;0.17;1.0
1753874611.204303;0.0;0.0;0.0;-3.2;-0.22;0.0;0.0;0.0;0.0;0.0;5.1;-12.8;6.8;7.0;-0.05;0.67;-10.55;0.96;0.34;0.95
1753874611.209304;0.0;0.0;0.0;-3.2;-0.22;0.0;0.0;0.0;0.0;0.0;4.0;-12.7;5.2;12.9;-0.06;0.67;-10.56;0.78;0.4;0.84
1753874611.214304;0.0;0.0;0.0;-3.2;-0.22;0.0;0.0;0.0;0.0;0.0;4.0;-12.7;10.8;4.5;-0.05;0.67;-10.56;0.8;0.04;0.83
1753874611.219304;0.0;0.0;0.0;-3.2;-0.21;0.0;0.0;0.0;0.0;0.0;4.8;-12.6;7.3;5.3;-0.06;0.67;-10.55;0.82;0.08;0.99
1753874611.224304;0.0;0.0;0.0;-3.2;-0.22;0.0;0.0;0.0;0.0;0.0;4.8;-13.2;8.9;4.6;-0.05;0.67;-10.57;0.95;0.23;0.9
1753874611.229304;0.0;0.0;0.0;-3.2;-0.22;0.0;0.0;0.0;0.0;0.0;5.8;-12.6;12.2;8.3;-0.06;0.67;-10.55;0.95;0.1;0.96
1753874611.234304;0.0;0.0;0.0;-3.2;-0.22;0.0;0.0;0.0;0.0;0.0;4.8;-12.4;7.4;15.2;-0.06;0.67;-10.56;0.91;0.27;0.88
1753874611.239304;0.0;0.0;0.0;-3.2;-0.22;0.0;0.0;0.0;0.0;0.0;4.9;-12.4;9.4;10.1;-0.06;0.67;-10.55;0.94;0.2;0.92
1753874611.244304;0.0;0.0;0.0;-3.2;-0.21;0.0;0.0;0.0;0.0;0.0;5.2;-12.4;3.9;11.6;-0.05;0.66;-10.54;0.78;0.18;0.93
1753874611.249304;0.0;0.0;0.0;-3.2;-0.22;0.0;0.0;0.0;0.0;0.0;5.0;-12.4;5.1;7.8;-0.06;0.66;-10.56;1.03;0.27;0.98
1753874611.254304;0.0;0.0;0.0;-3.2;-0.22;0.0;0.0;0.0;0.0;0.0;5.0;-12.3;3.3;9.0;-0.06;0.66;-10.55;0.89;0.19;0.92
1753874611.259304;0.0;0.0;0.0;-3.2;-0.22;0.0;0.0;0.0;0.0;0.0;6.6;-12.8;8.1;15.0;-0.05;0.67;-10.57;0.73;0.24;0.93
1753874611.264305;0.0;0.0;0.0;-3.2;-0.21;0.0;0.0;0.0;0.0;0.0;5.4;-12.4;6.2;11.7;-0.05;0.67;-10.55;0.98;-0.01;1.05
1753874611.269305;0.0;0.0;0.0;-3.2;-0.21;0.0;0.0;0.0;0.0;0.0;5.4;-12.6;6.4;13.7;-0.05;0.65;-10.56;0.92;0.12;0.9
1753874611.274305;0.0;0.0;0.0;-3.2;-0.22;0.0;0.0;0.0;0.0;0.0;6.0;-12.3;3.8;15.1;-0.06;0.66;-10.57;0.85;0.32;1.03
1753874611.279305;0.0;0.0;0.0;-3.2;-0.21;0.0;0.0;0.0;0.0;0.0;6.0;-12.5;5.9;8.5;-0.05;0.66;-10.55;0.97;0.18;0.89
1753874611.284305;0.0;0.0;0.0;-3.2;-0.21;0.0;0.0;0.0;0.0;0.0;6.6;-12.4;1.5;9.9;-0.05;0.66;-10.56;0.94;0.17;1.0
1753874611.289305;0.0;0.0;0.0;-3.2;-0.21;0.0;0.0;0.0;0.0;0.0;6.8;-12.1;5.4;17.1;-0.06;0.67;-10.58;0.97;0.44;0.96
1753874611.294305;0.0;0.0;0.0;-3.2;-0.21;0.0;0.0;0.0;0.0;0.0;7.0;-12.3;2.8;24.4;-0.05;0.67;-10.56;0.75;0.21;0.91
1753874611.299306;0.0;0.0;0.0;-3.2;-0.22;0.0;0.0;0.0;0.0;0.0;5.9;-11.7;7.0;9.3;-0.05;0.66;-10.57;0.85;0.15;0.89
1753874611.304306;0.0;0.0;0.0;-3.2;-0.21;0.0;0.0;0.0;0.0;0.0;4.8;-12.1;4.4;29.3;-0.05;0.67;-10.56;1.02;0.02;0.93
1753874611.309306;0.0;0.0;0.0;-3.2;-0.21;0.0;0.0;0.0;0.0;0.0;6.7;-12.2;0.7;14.8;-0.05;0.66;-10.55;0.8;0.41;0.99
1753874611.314306;0.0;0.0;0.0;-3.2;-0.21;0.0;0.0;0.0;0.0;0.0;6.7;-12.5;6.9;17.3;-0.05;0.66;-10.56;0.9;0.28;0.94
1753874611.319306;0.0;0.0;0.0;-3.2;-0.21;0.0;0.0;0.0;0.0;0.0;6.2;-12.3;4.8;20.1;-0.05;0.67;-10.57;0.78;0.37;0.98
1753874611.324306;0.0;0.0;0.0;-3.2;-0.21;0.0;0.0;0.0;0.0;0.0;7.3;-11.8;5.1;16.3;-0.05;0.66;-10.57;0.87;0.33;0.99
1753874611.329302;0.0;0.0;0.0;-3.2;-0.21;0.0;0.0;0.0;0.0;0.0;7.0;-12.0;3.0;21.0;-0.05;0.66;-10.56;0.86;0.27;0.95
1753874611.334302;0.0;0.0;0.0;-3.2;-0.21;0.0;0.0;0.0;0.0;0.0;7.0;-12.0;3.0;21.0;-0.06;0.66;-10.56;0.92;-0.03;0.96
1753874611.339302;0.0;0.0;0.0;-3.2;-0.21;0.0;0.0;0.0;0.0;0.0;7.0;-12.0;3.0;21.0;-0.06;0.67;-10.56;0.86;0.22;0.94
1753874611.344302;0.0;0.0;0.0;-3.2;-0.22;0.0;0.0;0.0;0.0;0.0;5.7;-12.1;7.8;41.5;-0.06;0.66;-10.57;0.96;0.02;0.97
1753874611.349302;0.0;0.0;0.0;-3.2;-0.21;0.0;0.0;0.0;0.0;0.0;7.0;-12.0;3.0;21.0;-0.06;0.66;-10.57;0.77;0.11;0.96
1753874611.354302;0.0;0.0;0.0;-3.2;-0.21;0.0;0.0;0.0;0.0;0.0;7.0;-12.0;3.0;21.0;-0.05;0.66;-10.57;0.75;0.21;1.08
1753874611.359302;0.0;0.0;0.0;-3.2;-0.21;0.0;0.0;0.0;0.0;0.0;6.4;-11.8;9.9;31.0;-0.05;0.66;-10.56;0.78;0.34;1.05
1753874611.364302;0.0;0.0;0.0;-3.2;-0.21;0.0;0.0;0.0;0.0;0.0;7.0;-12.0;3.0;21.0;-0.05;0.66;-10.56;0.85;0.16;0.94
1753874611.369302;0.0;0.0;0.0;-3.2;-0.21;0.0;0.0;0.0;0.0;0.0;7.0;-12.0;3.0;21.0;-0.05;0.66;-10.56;0.84;0.22;0.92
1753874611.374302;0.0;0.0;0.0;-3.2;-0.21;0.0;0.0;0.0;0.0;0.0;4.9;-12.2;3.7;12.9;-0.05;0.66;-10.55;0.9;0.23;0.92
1753874611.379302;0.0;0.0;0.0;-3.2;-0.21;0.0;0.0;0.0;0.0;0.0;7.0;-12.0;3.0;21.0;-0.06;0.66;-10.56;0.91;0.22;0.96
1753874611.384302;0.0;0.0;0.0;-3.2;-0.21;0.0;0.0;0.0;0.0;0.0;7.0;-12.0;3.0;21.0;-0.06;0.67;-10.56;0.95;0.22;1.0
1753874611.389302;0.0;0.0;0.0;-3.2;-0.21;0.0;0.0;0.0;0.0;0.0;7.0;-12.0;3.0;21.0;-0.06;0.67;-10.56;0.87;0.12;1.02
1753874611.394302;0.0;0.0;0.0;-3.2;-0.21;0.0;0.0;0.0;0.0;0.0;9.1;-11.9;3.2;22.5;-0.05;0.67;-10.56;0.83;0.28;0.97
1753874611.399302;0.0;0.0;0.0;-3.2;-0.21;0.0;0.0;0.0;0.0;0.0;7.0;-12.0;3.0;21.0;-0.05;0.67;-10.56;0.9;0.3;1.0
1753874611.404302;0.0;0.0;0.0;-3.2;-0.21;0.0;0.0;0.0;0.0;0.0;9.2;-11.8;-1.8;12.9;-0.05;0.66;-10.55;0.84;0.37;1.03
1753874611.409302;0.0;0.0;0.0;-3.2;-0.21;0.0;0.0;0.0;0.0;0.0;7.0;-12.0;3.0;21.0;-0.05;0.67;-10.54;0.81;0.12;1.01
1753874611.414302;0.0;0.0;0.0;-3.2;-0.21;0.0;0.0;0.0;0.0;0.0;7.0;-12.0;3.0;21.0;-0.05;0.67;-10.54;0.93;0.19;0.93
1753874611.419302;0.0;0.0;0.0;-3.2;-0.21;0.0;0.0;0.0;0.0;0.0;7.0;-12.0;3.0;21.0;-0.05;0.67;-10.55;0.78;0.12;0.93
1753874611.424302;0.0;0.0;0.0;-3.2;-0.21;0.0;0.0;0.0;0.0;0.0;7.0;-12.0;3.0;21.0;-0.05;0.68;-10.55;0.74;0.16;0.96
1753874611.429302;0.0;0.0;0.0;-3.2;-0.21;0.0;0.0;0.0;0.0;0.0;7.9;-11.7;8.4;22.2;-0.05;0.68;-10.55;0.8;0.17;1.01
1753874611.434302;0.0;0.0;0.0;-3.2;-0.22;0.0;0.0;0.0;0.0;0.0;5.4;-10.9;16.8;18.4;-0.05;0.68;-10.55;0.73;0.12;0.97
1753874611.439302;0.0;0.0;0.0;-3.2;-0.21;0.0;0.0;0.0;0.0;0.0;8.9;-11.8;-1.7;30.7;-0.06;0.69;-10.54;0.72;0.24;1.01
1753874611.444302;0.0;0.0;0.0;-3.2;-0.21;0.0;0.0;0.0;0.0;0.0;6.4;-11.6;8.3;18.6;-0.05;0.67;-10.56;0.6;0.17;0.92
1753874611.449302;0.0;0.0;0.0;-3.2;-0.21;0.0;0.0;0.0;0.0;0.0;10.2;-11.7;0.6;28.8;-0.04;0.67;-10.56;0.79;0.1;0.95
1753874611.454302;0.0;0.0;0.0;-3.2;-0.21;0.0;0.0;0.0;0.0;0.0;7.5;-11.9;2.7;19.7;-0.06;0.68;-10.56;0.82;0.15;0.93
1753874611.459303;0.0;0.0;0.0;-3.2;-0.21;0.0;0.0;0.0;0.0;0.0;3.8;-12.1;6.5;7.3;-0.06;0.68;-10.56;0.77;0.22;0.97
1753874611.464303;0.0;0.0;0.0;-3.2;-0.2;0.0;0.0;0.0;0.0;0.0;7.9;-11.8;-2.6;19.0;-0.05;0.65;-10.55;0.88;0.17;0.95
1753874611.469303;0.0;0.0;0.0;-3.2;-0.21;0.0;0.0;0.0;0.0;0.0;6.1;-11.7;6.5;32.8;-0.06;0.67;-10.55;0.83;0.06;0.96
1753874611.474303;0.0;0.0;0.0;-3.2;-0.21;0.0;0.0;0.0;0.0;0.0;7.1;-11.5;2.1;52.9;-0.06;0.67;-10.56;0.81;0.18;0.86
1753874611.479303;0.0;0.0;0.0;-3.2;-0.2;0.0;0.0;0.0;0.0;0.0;6.3;-11.7;5.4;19.5;-0.06;0.67;-10.56;0.98;0.03;0.92
1753874611.484303;0.0;0.0;0.0;-3.2;-0.21;0.0;0.0;0.0;0.0;0.0;6.9;-11.7;3.1;13.3;-0.07;0.67;-10.56;0.92;0.22;0.89
1753874611.489303;0.0;0.0;0.0;-3.2;-0.21;0.0;0.0;0.0;0.0;0.0;8.1;-11.2;2.9;7.7;-0.06;0.67;-10.56;0.73;0.19;0.92
1753874611.494304;0.0;0.0;0.0;-3.2;-0.21;0.0;0.0;0.0;0.0;0.0;8.3;-11.7;5.8;29.6;-0.06;0.67;-10.57;0.73;0.19;0.92
1753874611.499304;0.0;0.0;0.0;-3.2;-0.21;0.0;0.0;0.0;0.0;0.0;3.9;-12.2;5.1;14.1;-0.07;0.68;-10.55;0.77;0.22;0.85
1753874611.504304;0.0;0.0;0.0;-3.2;-0.21;0.0;0.0;0.0;0.0;0.0;8.9;-11.9;1.5;29.7;-0.08;0.67;-10.57;0.86;0.27;0.87
1753874611.509302;0.0;0.0;0.0;-3.2;-0.21;0.0;0.0;0.0;0.0;0.0;7.0;-12.0;3.0;21.0;-0.07;0.67;-10.56;0.85;0.19;0.9
1753874611.514302;0.0;0.0;0.0;-3.2;-0.21;0.0;0.0;0.0;0.0;0.0;7.0;-12.0;3.0;21.0;-0.07;0.66;-10.57;0.79;0.23;0.93
1753874611.519302;0.0;0.0;0.0;-3.2;-0.21;0.0;0.0;0.0;0.0;0.0;7.0;-12.0;3.0;21.0;-0.07;0.66;-10.57;0.96;0.13;0.96
1753874611.524302;0.0;0.0;0.0;-3.2;-0.21;0.0;0.0;0.0;0.0;0.0;7.0;-12.0;3.0;21.0;-0.07;0.67;-10.57;0.94;0.13;0.99
1753874611.529302;0.0;0.0;0.0;-3.2;-0.21;0.0;0.0;0.0;0.0;0.0;7.0;-12.0;3.0;21.0;-0.07;0.67;-10.57;1.02;0.12;0.88
1753874611.534302;0.0;0.0;0.0;-3.2;-0.21;0.0;0.0;0.0;0.0;0.0;7.0;-12.0;3.0;21.0;-0.08;0.66;-10.56;0.88;0.22;0.83
1753874611.539302;0.0;0.0;0.0;-3.2;-0.21;0.0;0.0;0.0;0.0;0.0;7.0;-12.0;3.0;21.0;-0.08;0.66;-10.57;0.99;0.2;1.09
1753874611.544302;0.0;0.0;0.0;-3.2;-0.21;0.0;0.0;0.0;0.0;0.0;7.0;-12.0;3.0;21.0;-0.08;0.67;-10.57;0.9;0.16;0.97
1753874611.549302;0.0;0.0;0.0;-3.2;-0.21;0.0;0.0;0.0;0.0;0.0;7.0;-12.0;3.0;21.0;-0.08;0.67;-10.57;0.96;0.09;0.99
1753874611.554302;0.0;0.0;0.0;-3.2;-0.21;0.0;0.0;0.0;0.0;0.0;7.0;-12.0;3.0;21.0;-0.08;0.67;-10.57;0.98;0.26;1.07
1753874611.559302;0.0;0.0;0.0;-3.2;-0.21;0.0;0.0;0.0;0.0;0.0;7.0;-12.0;3.0;21.0;-0.08;0.67;-10.56;0.96;0.24;0.93
1753874611.564302;0.0;0.0;0.0;-3.2;-0.21;0.0;0.0;0.0;0.0;0.0;7.0;-12.0;3.0;21.0;-0.07;0.67;-10.57;0.84;0.19;0.96
1753874611.569302;0.0;0.0;0.0;-3.2;-0.21;0.0;0.0;0.0;0.0;0.0;7.0;-12.0;3.0;21.0;-0.07;0.66;-10.57;0.95;0.14;1.03
1753874611.574302;0.0;0.0;0.0;-3.2;-0.21;0.0;0.0;0.0;0.0;0.0;7.0;-12.0;3.0;21.0;-0.05;0.67;-10.57;0.76;0.24;0.9
1753874611.579302;0.0;0.0;0.0;-3.2;-0.21;0.0;0.0;0.0;0.0;0.0;7.0;-12.0;3.0;21.0;-0.06;0.67;-10.56;0.83;0.22;1.05
1753874611.584302;0.0;0.0;0.0;-3.2;-0.21;0.0;0.0;0.0;0.0;0.0;7.0;-12.0;3.0;21.0;-0.06;0.67;-10.56;0.92;0.28;0.84
1753874611.589302;0.0;0.0;0.0;-3.2;-0.21;0.0;0.0;0.0;0.0;0.0;7.0;-12.0;3.0;21.0;-0.09;0.67;-10.58;0.89;0.17;0.95
1753874611.594302;0.0;0.0;0.0;-3.2;-0.21;0.0;0.0;0.0;0.0;0.0;7.0;-12.0;3.0;21.0;-0.07;0.68;-10.59;0.73;0.22;0.92
