sep=,
PacketCounter,SampleTimeFine,Euler_X,Euler_Y,Euler_Z,Acc_X,Acc_Y,Acc_Z,Gyr_X,Gyr_Y,Gyr_Z,Mag_X,Mag_Y,Mag_Z,Status,
0, 1316527497, -57.30498123168945, -76.4983901977539, 93.06665802001953, 0, 0, 0, 0, 0, 0, -0.5390625, -0.0107421875, 0.38720703125, 0, 
1, 1316535830, -57.33365249633789, -76.51432800292969, 93.11222839355469, 7.952332019805908, -2.5661780834198, 1.8137420415878296, 6.235529899597168, -3.6704301834106445, 0.32686328887939453, -0.5419921875, -0.00634765625, 0.3662109375, 0, 
2, 1316544163, -57.36894607543945, -76.52674865722656, 93.15782928466797, 12.273695945739746, -0.8885512351989746, 1.0356780290603638, 4.154782295227051, -3.203252077102661, 0.4974028170108795, -0.5400390625, -0.01123046875, 0.3759765625, 0, 
3, 1316552496, -57.34635925292969, -76.51705169677734, 93.12769317626953, 13.074264526367188, -0.7879226207733154, 0.3171251714229584, 2.2628896236419678, 0.012346061877906322, 1.5846502780914307, -0.5419921875, -0.0126953125, 0.37939453125, 0, 
4, 1316560829, -57.35341262817383, -76.50589752197266, 93.11247253417969, 10.034806251525879, -1.7442044019699097, 1.7894662618637085, 0.8029550909996033, -0.3012874722480774, 2.010640859603882, -0.54150390625, -0.01708984375, 0.39013671875, 0, 
5, 1316569162, -57.314537048339844, -76.49797058105469, 93.06504821777344, 6.445030689239502, -3.1109251976013184, 0.6476178765296936, 2.2020816802978516, 0.307268351316452, 1.143829345703125, -0.5419921875, -0.0146484375, 0.39599609375, 0, 
6, 1316577495, -57.331886291503906, -76.50898742675781, 93.09923553466797, 6.468354225158691, -3.0859029293060303, 2.880845069885254, 4.938808917999268, -2.8221380710601807, 0.47455498576164246, -0.54296875, -0.0078125, 0.376953125, 0, 
7, 1316585828, -57.37807083129883, -76.52606964111328, 93.17109680175781, 10.9319486618042, -1.3656275272369385, 0.24062928557395935, 4.952025413513184, -3.917940378189087, 0.3094455599784851, -0.54150390625, -0.0087890625, 0.37353515625, 0, 
8, 1316594161, -57.355167388916016, -76.52111053466797, 93.14641571044922, 13.39780044555664, -0.49507322907447815, 1.0569032430648804, 2.937056541442871, -0.42262208461761475, 1.1946736574172974, -0.54345703125, -0.01416015625, 0.376953125, 0, 
9, 1316602494, -57.36673355102539, -76.50855255126953, 93.13414764404297, 11.367801666259766, -1.44642174243927, 1.176965594291687, 0.25014862418174744, -0.22539246082305908, 2.1405558586120605, -0.5439453125, -0.01171875, 0.38720703125, 0, 
10, 1316610827, -57.327484130859375, -76.49727630615234, 93.08478546142578, 7.555673122406006, -2.821948289871216, 0.8952913284301758, 2.249211549758911, 0.5445842742919922, 1.5002257823944092, -0.54296875, -0.0185546875, 0.396484375, 0, 
11, 1316619160, -57.3133544921875, -76.50055694580078, 93.07113647460938, 5.673137664794922, -3.259969711303711, 2.5383248329162598, 3.1684553623199463, -1.2160743474960327, 0.5213265419006348, -0.53955078125, -0.00830078125, 0.38037109375, 0, 
12, 1316627493, -57.34975814819336, -76.51888275146484, 93.13764953613281, 9.290040969848633, -2.0915751457214355, 0.6886388063430786, 6.463932037353516, -4.067297458648682, 0.22430387139320374, -0.541015625, -0.0078125, 0.37109375, 0, 
13, 1316635826, -57.363643646240234, -76.52481842041016, 93.15070343017578, 13.05315113067627, -0.43446728587150574, 1.498377799987793, 3.3596909046173096, -2.0862152576446533, 0.7284688949584961, -0.5419921875, -0.0107421875, 0.37451171875, 0, 
14, 1316644159, -57.35897445678711, -76.51240539550781, 93.13047790527344, 12.447104454040527, -1.0978449583053589, 0.2144308239221573, 1.2702611684799194, -0.045401230454444885, 2.009411096572876, -0.54150390625, -0.01220703125, 0.38232421875, 0, 
15, 1316652492, -57.34585952758789, -76.5008316040039, 93.1032485961914, 8.953186988830566, -2.2310686111450195, 1.6360952854156494, 1.4668503999710083, 0.06726297736167908, 1.8213000297546387, -0.54150390625, -0.01611328125, 0.39453125, 0, 
16, 1316660825, -57.303321838378906, -76.4952163696289, 93.05078887939453, 5.8203229904174805, -3.341154098510742, 1.345505714416504, 2.2672441005706787, 0.2523002326488495, 0.8742139339447021, -0.54296875, -0.01220703125, 0.390625, 0, 
17, 1316669158, -57.33027267456055, -76.51144409179688, 93.1055908203125, 7.539846420288086, -2.7226953506469727, 2.0648999214172363, 6.22641134262085, -3.6690473556518555, 0.25601431727409363, -0.5390625, -0.0068359375, 0.3701171875, 0, 
18, 1316677491, -57.36893081665039, -76.52635192871094, 93.1621322631836, 12.04728889465332, -0.8622726798057556, 0.8457196950912476, 4.284390926361084, -3.457806348800659, 0.3245067298412323, -0.54150390625, -0.009765625, 0.37451171875, 0, 
19, 1316685824, -57.347450256347656, -76.51671600341797, 93.12307739257812, 13.23693561553955, -0.6435952186584473, 0.3760609030723572, 2.1680145263671875, 0.01900576427578926, 1.5953314304351807, -0.54150390625, -0.0126953125, 0.38037109375, 0, 
20, 1316694157, -57.35152053833008, -76.5044174194336, 93.10701751708984, 10.277244567871094, -1.7964783906936646, 1.816772222518921, 0.7035974264144897, -0.14742273092269897, 2.066530704498291, -0.54296875, -0.01416015625, 0.3896484375, 0, 
21, 1316702490, -57.31067657470703, -76.49515533447266, 93.05824279785156, 6.701035976409912, -3.1033987998962402, 0.4795456528663635, 2.2814600467681885, 0.4247609078884125, 1.257530927658081, -0.54150390625, -0.01708984375, 0.39697265625, 0, 
22, 1316710823, -57.31525421142578, -76.50492858886719, 93.08667755126953, 6.179218292236328, -3.061631441116333, 3.031748056411743, 4.682153701782227, -2.3805994987487793, 0.3713039457798004, -0.5390625, -0.005859375, 0.3759765625, 0, 
23, 1316719156, -57.35747146606445, -76.52266693115234, 93.14991760253906, 10.59104061126709, -1.530598759651184, 0.25095847249031067, 5.380936145782471, -3.963252305984497, 0.22678843140602112, -0.53857421875, -0.00927734375, 0.37158203125, 0, 
24, 1316727489, -57.3438720703125, -76.52164459228516, 93.15187072753906, 13.431246757507324, -0.5765488743782043, 1.2227939367294312, 3.1891515254974365, -0.9409262537956238, 0.9872239232063293, -0.53759765625, -0.009765625, 0.37646484375, 0, 
25, 1316735822, -57.35255813598633, -76.51089477539062, 93.13744354248047, 11.607707023620605, -1.3589298725128174, 0.9972648620605469, 0.6213244795799255, -0.329744815826416, 1.976599097251892, -0.54345703125, -0.01416015625, 0.38232421875, 0, 
26, 1316744155, -57.32302474975586, -76.50055694580078, 93.09898376464844, 7.858092784881592, -2.5286519527435303, 0.9174093008041382, 2.127108573913574, 0.2509170472621918, 1.5221259593963623, -0.541015625, -0.01806640625, 0.39892578125, 0, 
27, 1316752488, -57.29846954345703, -76.50013732910156, 93.07189178466797, 5.6453728675842285, -3.226034641265869, 2.4162840843200684, 2.8518378734588623, -0.6578376889228821, 0.6938384175300598, -0.53857421875, -0.0087890625, 0.3818359375, 0, 
28, 1316760821, -57.3375244140625, -76.51680755615234, 93.13986206054688, 8.918081283569336, -2.314469814300537, 0.8593448996543884, 6.316752910614014, -3.9931697845458984, 0.41697415709495544, -0.54052734375, -0.00732421875, 0.37060546875, 0, 
29, 1316769154, -57.35865783691406, -76.5252914428711, 93.16631317138672, 12.842487335205078, -0.6293752193450928, 1.5339974164962769, 3.622544527053833, -2.4978106021881104, 0.60467529296875, -0.5390625, -0.0107421875, 0.373046875, 0, 
30, 1316777487, -57.352840423583984, -76.51408386230469, 93.14875030517578, 12.681154251098633, -0.9601401090621948, 0.06856083124876022, 1.35622239112854, -0.09429880231618881, 1.8998076915740967, -0.54248046875, -0.01416015625, 0.3779296875, 0, 
31, 1316785820, -57.34107208251953, -76.50313568115234, 93.1212387084961, 9.298457145690918, -2.0973873138427734, 1.812070608139038, 1.5832672119140625, -0.014612921513617039, 1.8016541004180908, -0.5419921875, -0.0185546875, 0.39306640625, 0, 
32, 1316794153, -57.296546936035156, -76.49689483642578, 93.0689468383789, 5.929596900939941, -3.28383207321167, 1.1482852697372437, 2.3114287853240967, 0.31169962882995605, 0.9010064601898193, -0.5419921875, -0.01416015625, 0.39306640625, 0, 
33, 1316802486, -57.313934326171875, -76.5115737915039, 93.11225128173828, 7.118117809295654, -2.862520217895508, 2.187161922454834, 6.03663444519043, -3.2961549758911133, 0.23470322787761688, -0.541015625, -0.00439453125, 0.373046875, 0, 
34, 1316810819, -57.361751556396484, -76.52812957763672, 93.13914489746094, 11.785555839538574, -0.9079663753509521, 0.7422924041748047, 4.468249797821045, -3.815124750137329, 0.3236614465713501, -0.53857421875, -0.0087890625, 0.37109375, 0, 
35, 1316819152, -57.3429069519043, -76.52045440673828, 93.11515808105469, 13.351235389709473, -0.6378510594367981, 0.5347680449485779, 2.5330684185028076, -0.26209765672683716, 1.4733821153640747, -0.5498046875, -0.0146484375, 0.38525390625, 0, 
36, 1316827485, -57.350074768066406, -76.50885772705078, 93.0856704711914, 10.685863494873047, -1.6672016382217407, 1.5040907859802246, 0.44783928990364075, -0.1987280249595642, 2.019733428955078, -0.54931640625, -0.01953125, 0.40234375, 0, 
37, 1316835818, -57.306243896484375, -76.49993133544922, 93.03020477294922, 6.904398441314697, -2.9578332901000977, 0.7690057754516602, 2.3793065547943115, 0.47183987498283386, 1.2016149759292603, -0.54833984375, -0.02197265625, 0.40869140625, 0, 
38, 1316844151, -57.30475997924805, -76.50664520263672, 93.03445434570312, 5.9402666091918945, -3.2226171493530273, 2.840070962905884, 3.742086172103882, -1.8601953983306885, 0.44847968220710754, -0.54638671875, -0.01025390625, 0.38720703125, 0, 
39, 1316852484, -57.33867263793945, -76.52494812011719, 93.09642791748047, 10.209360122680664, -1.8646018505096436, 0.35771891474723816, 6.2319183349609375, -3.9700398445129395, 0.15230223536491394, -0.546875, -0.0107421875, 0.37841796875, 0, 
40, 1316860817, -57.338993072509766, -76.52583312988281, 93.10061645507812, 13.35387134552002, -0.3257157504558563, 1.4214438199996948, 3.4188339710235596, -1.4463204145431519, 1.0340464115142822, -0.54931640625, -0.0126953125, 0.38818359375, 0, 
41, 1316869150, -57.3454704284668, -76.51374053955078, 93.08753967285156, 11.806647300720215, -1.238208293914795, 0.534394383430481, 0.7642518877983093, -0.23630410432815552, 2.0848450660705566, -0.54541015625, -0.017578125, 0.39599609375, 0, 
42, 1316877483, -57.321617126464844, -76.50240325927734, 93.0509033203125, 8.21848201751709, -2.446416139602661, 1.195919156074524, 1.7443549633026123, 0.27622392773628235, 1.6826759576797485, -0.54931640625, -0.02001953125, 0.40576171875, 0, 
43, 1316885816, -57.29519271850586, -76.50157165527344, 93.02117919921875, 5.663703918457031, -3.5063087940216064, 2.148331642150879, 2.774047374725342, -0.5703137516975403, 0.6972194910049438, -0.54638671875, -0.013671875, 0.39794921875, 0, 
44, 1316894149, -57.33334732055664, -76.51850128173828, 93.09439086914062, 8.491711616516113, -2.3387532234191895, 1.160307765007019, 6.441417217254639, -4.014608860015869, 0.39858314394950867, -0.544921875, -0.00927734375, 0.3798828125, 0, 
45, 1316902482, -57.35691833496094, -76.52841186523438, 93.12259674072266, 12.684394836425781, -0.5723476409912109, 1.2380326986312866, 3.5325875282287598, -2.631261110305786, 0.48710593581199646, -0.5478515625, -0.013671875, 0.38623046875, 0, 
46, 1316910815, -57.34498596191406, -76.51663208007812, 93.10520935058594, 12.858098983764648, -0.8598750829696655, 0.272068053483963, 1.7522698640823364, 0.002766337478533387, 1.8970927000045776, -0.54443359375, -0.01513671875, 0.392578125, 0, 
47, 1316919148, -57.34416580200195, -76.5070571899414, 93.08427429199219, 9.540031433105469, -2.165207862854004, 1.8458400964736938, 1.128640055656433, -0.2735728323459625, 1.7833397388458252, -0.54736328125, -0.017578125, 0.3994140625, 0, 
48, 1316927481, -57.298614501953125, -76.50013732910156, 93.03184509277344, 6.095884799957275, -3.2063722610473633, 0.971200704574585, 2.4214675426483154, 0.3596751093864441, 0.9709075689315796, -0.546875, -0.0166015625, 0.4033203125, 0, 
49, 1316935814, -57.31806182861328, -76.51351928710938, 93.07183837890625, 6.8932952880859375, -2.844241142272949, 2.5013346672058105, 5.402683258056641, -3.1357076168060303, 0.3165663480758667, -0.54052734375, -0.00927734375, 0.376953125, 0, 
50, 1316944147, -57.36899185180664, -76.5303955078125, 93.14324951171875, 11.493753433227539, -1.1070349216461182, 0.5113356113433838, 4.714352130889893, -3.9663774967193604, 0.3802946209907532, -0.546875, -0.01171875, 0.3828125, 0, 
51, 1316952480, -57.35026550292969, -76.52322387695312, 93.12037658691406, 13.418925285339355, -0.6755797266960144, 0.7060865759849548, 2.649203300476074, -0.32382795214653015, 1.436599850654602, -0.546875, -0.0126953125, 0.38720703125, 0, 
52, 1316960813, -57.35060501098633, -76.50989532470703, 93.11428833007812, 10.903173446655273, -1.6008421182632446, 1.3346548080444336, 0.48303326964378357, 0.05968117341399193, 2.0854344367980957, -0.54736328125, -0.01953125, 0.3984375, 0, 
53, 1316969146, -57.31117630004883, -76.50138092041016, 93.05785369873047, 7.109482288360596, -2.85186767578125, 0.8520269393920898, 2.3298451900482178, 0.356447696685791, 1.2359637022018433, -0.54638671875, -0.01904296875, 0.4052734375, 0, 
54, 1316977479, -57.30985641479492, -76.50778198242188, 93.06502532958984, 5.7902703285217285, -3.2618916034698486, 2.6992287635803223, 4.063109874725342, -1.9128327369689941, 0.5132324695587158, -0.546875, -0.009765625, 0.38916015625, 0, 
55, 1316985812, -57.345970153808594, -76.5251235961914, 93.12723541259766, 9.937541961669922, -1.8095788955688477, 0.33655065298080444, 5.9957804679870605, -3.913330554962158, 0.2573206424713135, -0.54736328125, -0.0107421875, 0.380859375, 0, 
56, 1316994145, -57.34393310546875, -76.52686309814453, 93.12515258789062, 13.36279296875, -0.3984084725379944, 1.5435153245925903, 3.2826178073883057, -1.4155066013336182, 0.896446943283081, -0.546875, -0.013671875, 0.38427734375, 0, 
57, 1317002478, -57.3502082824707, -76.51459503173828, 93.10977172851562, 12.054605484008789, -1.2081373929977417, 0.4199516475200653, 0.52283775806427, -0.17080852389335632, 2.068528890609741, -0.54931640625, -0.01416015625, 0.39306640625, 0, 
58, 1317010811, -57.317630767822266, -76.50304412841797, 93.06809997558594, 8.392451286315918, -2.5110034942626953, 1.3095576763153076, 2.083794593811035, 0.4277064800262451, 1.6053977012634277, -0.544921875, -0.02099609375, 0.40771484375, 0, 
59, 1317019144, -57.2903938293457, -76.5029525756836, 93.0305404663086, 5.617824554443359, -3.312157154083252, 2.122962474822998, 2.6025853157043457, -0.5451093316078186, 0.6055461168289185, -0.5458984375, -0.01025390625, 0.39453125, 0, 
60, 1317027477, -57.32063674926758, -76.5203628540039, 93.09214782714844, 8.218585968017578, -2.4885380268096924, 1.1241915225982666, 6.628785610198975, -3.9051342010498047, 0.23168079555034637, -0.54248046875, -0.0087890625, 0.3798828125, 0, 
61, 1317035810, -57.35197830200195, -76.53219604492188, 93.13095092773438, 12.631471633911133, -0.6228124499320984, 1.4210745096206665, 3.8359622955322266, -3.0052285194396973, 0.45716291666030884, -0.5478515625, -0.013671875, 0.3837890625, 0, 
62, 1317044143, -57.34071731567383, -76.52196502685547, 93.10651397705078, 12.939350128173828, -0.933738112449646, 0.08383453637361526, 1.5735594034194946, -0.07316706329584122, 1.735748529434204, -0.54638671875, -0.013671875, 0.39306640625, 0, 
63, 1317052476, -57.33171463012695, -76.50946044921875, 93.08114624023438, 9.661126136779785, -1.9204275608062744, 1.740078330039978, 1.187834620475769, 0.0809922143816948, 1.938408374786377, -0.5458984375, -0.017578125, 0.39794921875, 0, 
64, 1317060809, -57.28738021850586, -76.50204467773438, 93.03983306884766, 6.2078986167907715, -3.1316494941711426, 0.9339385032653809, 2.1373798847198486, 0.4354676604270935, 1.0199332237243652, -0.54638671875, -0.017578125, 0.4052734375, 0, 
65, 1317069142, -57.30286407470703, -76.51376342773438, 93.0802230834961, 6.680987358093262, -3.0160951614379883, 2.7182629108428955, 5.381089687347412, -2.9133760929107666, 0.4320865571498871, -0.54443359375, -0.00927734375, 0.3818359375, 0, 
66, 1317077475, -57.34947967529297, -76.53079986572266, 93.14439392089844, 11.318345069885254, -1.284778118133545, 0.3072302043437958, 4.962578773498535, -3.9391751289367676, 0.31159716844558716, -0.54736328125, -0.01123046875, 0.3798828125, 0, 
67, 1317085808, -57.33082580566406, -76.52527618408203, 93.12358093261719, 13.46916389465332, -0.5238285064697266, 0.9403392672538757, 2.8771958351135254, -0.4769498109817505, 1.3022276163101196, -0.54638671875, -0.01318359375, 0.39013671875, 0, 
68, 1317094141, -57.3421630859375, -76.51419830322266, 93.1116943359375, 11.057648658752441, -1.487161636352539, 1.3566091060638428, 0.32758045196533203, -0.3131723999977112, 2.017735719680786, -0.54443359375, -0.01611328125, 0.392578125, 0, 
69, 1317102474, -57.304283142089844, -76.50402069091797, 93.06612396240234, 7.252460479736328, -2.895782232284546, 0.5580036640167236, 2.298672914505005, 0.4085727035999298, 1.3984092473983765, -0.54638671875, -0.017578125, 0.40771484375, 0, 
70, 1317110807, -57.294002532958984, -76.50906372070312, 93.06262969970703, 5.716006278991699, -3.293781280517578, 2.9625158309936523, 3.8983075618743896, -1.551672101020813, 0.5208910703659058, -0.5439453125, -0.0126953125, 0.3916015625, 0, 
71, 1317119140, -57.332035064697266, -76.52581787109375, 93.12570190429688, 9.674874305725098, -1.8351109027862549, 0.29122334718704224, 5.867555141448975, -3.8852055072784424, 0.3353671729564667, -0.5478515625, -0.01123046875, 0.37841796875, 0, 
72, 1317127473, -57.3294677734375, -76.52935791015625, 93.12760925292969, 13.28728199005127, -0.4064681828022003, 1.5532673597335815, 3.597929000854492, -1.5997241735458374, 0.7309277653694153, -0.544921875, -0.0126953125, 0.38671875, 0, 
73, 1317135806, -57.33845520019531, -76.5174789428711, 93.11576843261719, 12.287986755371094, -1.2102934122085571, 0.44464579224586487, 0.6090808510780334, -0.27516090869903564, 2.088840961456299, -0.54931640625, -0.015625, 0.39306640625, 0, 
74, 1317144139, -57.31501388549805, -76.5060806274414, 93.08124542236328, 8.551416397094727, -2.580216407775879, 1.3822821378707886, 1.858492136001587, 0.23705975711345673, 1.6922045946121216, -0.544921875, -0.0205078125, 0.404296875, 0, 
75, 1317152472, -57.28153610229492, -76.50389099121094, 93.04364013671875, 5.590720176696777, -3.222710371017456, 1.750931739807129, 2.6961798667907715, -0.2965744137763977, 0.7111535668373108, -0.54736328125, -0.01513671875, 0.3994140625, 0, 
76, 1317160805, -57.312713623046875, -76.5213394165039, 93.10323333740234, 7.932562351226807, -2.5363218784332275, 1.6340514421463013, 6.2879109382629395, -3.8429934978485107, 0.2232280671596527, -0.54541015625, -0.0087890625, 0.38037109375, 0, 
77, 1317169138, -57.34831237792969, -76.5333480834961, 93.14810180664062, 12.441462516784668, -0.7036181688308716, 1.064873456954956, 4.0350871086120605, -3.1443138122558594, 0.5392052531242371, -0.5439453125, -0.01123046875, 0.38232421875, 0, 
78, 1317177471, -57.33403778076172, -76.5232925415039, 93.12430572509766, 13.132368087768555, -0.8947281837463379, 0.231216698884964, 2.0052361488342285, -0.11730040609836578, 1.7095710039138794, -0.5458984375, -0.01416015625, 0.38525390625, 0, 
79, 1317185804, -57.331905364990234, -76.5103759765625, 93.10302734375, 9.922800064086914, -1.7979456186294556, 1.8179901838302612, 0.8397882580757141, 0.013806072063744068, 2.045501470565796, -0.54345703125, -0.01416015625, 0.39892578125, 0, 
80, 1317194137, -57.28464889526367, -76.5016098022461, 93.04640197753906, 6.370570659637451, -3.1056880950927734, 0.7333968281745911, 2.1354329586029053, 0.5963506102561951, 1.110223412513733, -0.541015625, -0.01513671875, 0.3955078125, 0, 
81, 1317202470, -57.298770904541016, -76.51226806640625, 93.07795715332031, 6.445619106292725, -3.1315927505493164, 2.916264772415161, 5.061244964599609, -2.7601771354675293, 0.4616966247558594, -0.54150390625, -0.00634765625, 0.37451171875, 0, 
82, 1317210803, -57.3477783203125, -76.53124237060547, 93.14302062988281, 11.010821342468262, -1.416380524635315, 0.2252514809370041, 5.081812858581543, -4.1299238204956055, 0.18465301394462585, -0.5390625, -0.0107421875, 0.3701171875, 0, 
83, 1317219136, -57.3272590637207, -76.52653503417969, 93.13233184814453, 13.47641372680664, -0.39653873443603516, 1.0868802070617676, 3.119455337524414, -0.5260779857635498, 1.2276134490966797, -0.54296875, -0.0126953125, 0.37744140625, 0, 
84, 1317227469, -57.33742904663086, -76.51416778564453, 93.11784362792969, 11.225520133972168, -1.4222716093063354, 1.247719168663025, 0.15650296211242676, -0.1806187629699707, 2.098907232284546, -0.54150390625, -0.01708984375, 0.38330078125, 0, 
85, 1317235802, -57.299781799316406, -76.5037612915039, 93.07228088378906, 7.447859287261963, -2.924301862716675, 0.6130790710449219, 2.270599603652954, 0.4239668548107147, 1.4236905574798584, -0.5419921875, -0.017578125, 0.3935546875, 0, 
86, 1317244135, -57.291873931884766, -76.50749206542969, 93.03837585449219, 5.698685169219971, -3.265599012374878, 2.9968903064727783, 3.5158610343933105, -1.4415050745010376, 0.6313140392303467, -0.53857421875, -0.0078125, 0.38134765625, 0, 
87, 1317252468, -57.334922790527344, -76.5259017944336, 93.10853576660156, 9.419055938720703, -1.9413813352584839, 0.21317389607429504, 6.090886116027832, -4.170445919036865, 0.2690519392490387, -0.53955078125, -0.00537109375, 0.36572265625, 0, 
88, 1317260801, -57.336124420166016, -76.53034210205078, 93.11205291748047, 13.20967960357666, -0.45351848006248474, 1.6545170545578003, 3.5326128005981445, -1.7214430570602417, 0.7020860910415649, -0.54150390625, -0.01171875, 0.375, 0, 
89, 1317269134, -57.34091567993164, -76.51945495605469, 93.09815979003906, 12.405030250549316, -1.2293989658355713, 0.29686856269836426, 0.9540020823478699, -0.2966768443584442, 1.9709384441375732, -0.54296875, -0.01318359375, 0.3828125, 0, 
90, 1317277467, -57.3226432800293, -76.50910186767578, 93.06697082519531, 8.71087646484375, -2.355518102645874, 1.4547022581100464, 1.622764229774475, 0.08396345376968384, 1.638363242149353, -0.5400390625, -0.01611328125, 0.39501953125, 0, 
91, 1317285800, -57.27991485595703, -76.50353240966797, 93.0184097290039, 5.6971564292907715, -3.166774034500122, 1.5763486623764038, 2.531019449234009, 0.18119509518146515, 0.8882761597633362, -0.53857421875, -0.009765625, 0.392578125, 0, 
92, 1317294133, -57.31071853637695, -76.51964569091797, 93.07077026367188, 7.746607303619385, -2.5666306018829346, 1.8851324319839478, 6.237270832061768, -3.7373859882354736, 0.3460482954978943, -0.5390625, -0.0078125, 0.36669921875, 0, 
93, 1317302466, -57.34986877441406, -76.5319595336914, 93.11957550048828, 12.250253677368164, -0.899393618106842, 1.0100106000900269, 4.064671516418457, -3.2714884281158447, 0.5577243566513062, -0.54052734375, -0.0087890625, 0.37353515625, 0, 
94, 1317310799, -57.330039978027344, -76.52207946777344, 93.0810546875, 13.23388671875, -0.8085911870002747, 0.31687405705451965, 2.1388657093048096, -0.002190016908571124, 1.6359554529190063, -0.541015625, -0.0107421875, 0.37890625, 0, 
95, 1317319132, -57.33073806762695, -76.51081848144531, 93.06243133544922, 10.166895866394043, -1.752014398574829, 1.8202701807022095, 0.8618677258491516, -0.14844727516174316, 1.9415333271026611, -0.54345703125, -0.015625, 0.38671875, 0, 
96, 1317327465, -57.288211822509766, -76.50238037109375, 93.01243591308594, 6.459444999694824, -3.1482326984405518, 0.6821715831756592, 2.341935396194458, 0.4007091224193573, 1.1584548950195312, -0.5419921875, -0.01708984375, 0.39501953125, 0, 
97, 1317335798, -57.300575256347656, -76.51325225830078, 93.04065704345703, 6.251083850860596, -3.1316065788269043, 2.812324285507202, 4.8747735023498535, -2.6935036182403564, 0.39207711815834045, -0.54150390625, -0.00830078125, 0.3720703125, 0, 
98, 1317344131, -57.34336471557617, -76.5312271118164, 93.1090087890625, 10.8314847946167, -1.3607484102249146, 0.2158527970314026, 5.368974208831787, -3.975393772125244, 0.22338175773620605, -0.5400390625, -0.009765625, 0.36962890625, 0, 
99, 1317352464, -57.32758712768555, -76.52725219726562, 93.09144592285156, 13.477097511291504, -0.45694124698638916, 1.1851838827133179, 2.912005662918091, -0.653380811214447, 1.1965945959091187, -0.5419921875, -0.01318359375, 0.37841796875, 0, 
100, 1317360797, -57.33340835571289, -76.51359558105469, 93.06856536865234, 11.477805137634277, -1.463149070739746, 0.8733750581741333, 0.2786572575569153, -0.007543392013758421, 2.180232286453247, -0.54248046875, -0.01318359375, 0.38525390625, 0, 
101, 1317369130, -57.29869079589844, -76.5032958984375, 93.0176010131836, 7.639853477478027, -2.6763205528259277, 1.069242238998413, 2.247265100479126, 0.3692035973072052, 1.4686946868896484, -0.54296875, -0.01904296875, 0.3974609375, 0, 
102, 1317377463, -57.28786849975586, -76.50626373291016, 93.0060043334961, 5.58233118057251, -3.30137300491333, 2.5784454345703125, 3.0118751525878906, -1.2441473007202148, 0.584311842918396, -0.54345703125, -0.0078125, 0.3837890625, 0, 
103, 1317385796, -57.32200622558594, -76.52388000488281, 93.07086181640625, 9.196135520935059, -2.2920944690704346, 0.7082541584968567, 6.542773723602295, -3.997114658355713, 0.2613421082496643, -0.5390625, -0.00634765625, 0.3681640625, 0, 
104, 1317394129, -57.33334732055664, -76.53035736083984, 93.09294891357422, 13.078182220458984, -0.45024141669273376, 1.5060127973556519, 3.6276164054870605, -2.1182076930999756, 0.6742691397666931, -0.53955078125, -0.01220703125, 0.3720703125, 0, 
105, 1317402462, -57.331878662109375, -76.51903533935547, 93.07593536376953, 12.485517501831055, -0.9941534399986267, 0.19363443553447723, 1.2630891799926758, -0.19127428531646729, 1.9490126371383667, -0.54296875, -0.01123046875, 0.38232421875, 0, 
106, 1317410795, -57.31814956665039, -76.50721740722656, 93.05818176269531, 8.945998191833496, -2.256197214126587, 1.5312139987945557, 1.3930813074111938, 0.12425464391708374, 1.8401010036468506, -0.54345703125, -0.01904296875, 0.3935546875, 0, 
107, 1317419128, -57.27829360961914, -76.501708984375, 92.98661041259766, 5.789610862731934, -3.388336181640625, 1.4196505546569824, 2.3865036964416504, 0.15870581567287445, 0.9181166291236877, -0.5400390625, -0.0146484375, 0.38623046875, 0, 
108, 1317427461, -57.306278228759766, -76.51741790771484, 93.04198455810547, 7.510833263397217, -2.6379752159118652, 1.9739829301834106, 6.17454195022583, -3.6488633155822754, 0.318999707698822, -0.5390625, -0.00634765625, 0.37060546875, 0, 
109, 1317435794, -57.34691619873047, -76.53157043457031, 93.09207153320312, 12.141515731811523, -0.8225439786911011, 0.8791540861129761, 4.033294200897217, -3.4198460578918457, 0.39256373047828674, -0.54052734375, -0.00830078125, 0.373046875, 0, 
110, 1317444127, -57.33068084716797, -76.52311706542969, 93.06725311279297, 13.338844299316406, -0.7387341856956482, 0.44088688492774963, 2.126519203186035, -0.1814640462398529, 1.5462286472320557, -0.54150390625, -0.01318359375, 0.37939453125, 0, 
111, 1317452460, -57.333133697509766, -76.51161193847656, 93.0504150390625, 10.2786283493042, -1.868485689163208, 1.7724984884262085, 0.8096914887428284, -0.18330825865268707, 1.9709640741348267, -0.54248046875, -0.01611328125, 0.388671875, 0, 
112, 1317460793, -57.28768539428711, -76.50434875488281, 92.99676513671875, 6.607176780700684, -3.083220958709717, 0.6514473557472229, 2.481302261352539, 0.3844952881336212, 1.028488278388977, -0.544921875, -0.01513671875, 0.39599609375, 0, 
113, 1317469126, -57.29605484008789, -76.5135726928711, 93.01786041259766, 6.143689155578613, -3.054208993911743, 2.8543553352355957, 4.527392864227295, -2.4196360111236572, 0.4482234716415405, -0.53955078125, -0.00634765625, 0.37451171875, 0, 
114, 1317477459, -57.33932876586914, -76.53011322021484, 93.09191131591797, 10.625778198242188, -1.5010840892791748, 0.27635592222213745, 5.389004230499268, -3.898038148880005, 0.39100125432014465, -0.5419921875, -0.0087890625, 0.37158203125, 0, 
115, 1317485792, -57.32469177246094, -76.52729797363281, 93.07649230957031, 13.44941520690918, -0.5453205704689026, 1.3107062578201294, 3.025963068008423, -0.7815287113189697, 1.1106843948364258, -0.54248046875, -0.01123046875, 0.3818359375, 0, 
116, 1317494125, -57.327144622802734, -76.51428985595703, 93.07417297363281, 11.660248756408691, -1.3647594451904297, 0.843758225440979, 0.6521384119987488, -0.04509386047720909, 2.108947992324829, -0.5419921875, -0.015625, 0.3818359375, 0, 
117, 1317502458, -57.29901123046875, -76.50494384765625, 93.0418930053711, 7.76853084564209, -2.6179091930389404, 1.1537808179855347, 1.977239727973938, 0.19525732100009918, 1.4361647367477417, -0.53955078125, -0.01953125, 0.39794921875, 0, 
118, 1317510791, -57.272010803222656, -76.50564575195312, 93.0157241821289, 5.567931175231934, -3.3556859493255615, 2.2827582359313965, 3.255082845687866, -0.7526103258132935, 0.5970422625541687, -0.5380859375, -0.0107421875, 0.3837890625, 0, 
119, 1317519124, -57.30855178833008, -76.52336883544922, 93.07996368408203, 8.983637809753418, -2.1683454513549805, 0.9754533171653748, 6.180970668792725, -3.988097906112671, 0.2458197921514511, -0.54296875, -0.00634765625, 0.3671875, 0, 
120, 1317527457, -57.33274459838867, -76.53229522705078, 93.12788391113281, 12.9336576461792, -0.5365305542945862, 1.3525373935699463, 3.490630865097046, -2.5638439655303955, 0.6100798845291138, -0.54150390625, -0.0107421875, 0.37841796875, 0, 
121, 1317535790, -57.32411193847656, -76.51956176757812, 93.10282897949219, 12.64279556274414, -0.9139876365661621, 0.1357482373714447, 1.185810923576355, 0.09159649908542633, 1.9719116687774658, -0.5439453125, -0.01416015625, 0.3798828125, 0, 
122, 1317544123, -57.31525802612305, -76.50691223144531, 93.07888793945312, 9.247450828552246, -2.287170171737671, 1.872193455696106, 1.4998672008514404, 0.03347780555486679, 2.0026745796203613, -0.5419921875, -0.0166015625, 0.39794921875, 0, 
123, 1317552456, -57.274803161621094, -76.50191497802734, 93.02318572998047, 5.897616863250732, -3.2784578800201416, 1.1612145900726318, 2.449822187423706, 0.12312762439250946, 0.8698850274085999, -0.5419921875, -0.01220703125, 0.392578125, 0, 
124, 1317560789, -57.29872512817383, -76.5157241821289, 93.0727310180664, 7.265304088592529, -2.7958717346191406, 2.2274508476257324, 5.980847358703613, -3.3867528438568115, 0.41825488209724426, -0.53759765625, -0.0078125, 0.37060546875, 0, 
125, 1317569122, -57.33833312988281, -76.53099060058594, 93.1244888305664, 11.859426498413086, -0.9269432425498962, 0.8058141469955444, 4.355111598968506, -3.530397415161133, 0.311212956905365, -0.54052734375, -0.009765625, 0.37255859375, 0, 
126, 1317577455, -57.31812286376953, -76.52249145507812, 93.08345031738281, 13.274823188781738, -0.7326165437698364, 0.4669174551963806, 2.2326135635375977, -0.10241851955652237, 1.4975874423980713, -0.54443359375, -0.01220703125, 0.37744140625, 0, 
127, 1317585788, -57.31740951538086, -76.50959777832031, 93.06423950195312, 10.457409858703613, -1.6440452337265015, 1.5006686449050903, 0.91084223985672, -0.038485389202833176, 2.07124400138855, -0.54248046875, -0.015625, 0.3896484375, 0, 
128, 1317594121, -57.274803161621094, -76.50103759765625, 93.01323699951172, 6.831541061401367, -2.922849178314209, 0.773806095123291, 1.9965014457702637, 0.4966343641281128, 1.1391419172286987, -0.54296875, -0.01611328125, 0.39306640625, 0, 
129, 1317602454, -57.28437805175781, -76.50838470458984, 93.0118408203125, 6.0472612380981445, -3.2833774089813232, 2.840491533279419, 4.263155937194824, -2.2536814212799072, 0.6389727592468262, -0.54052734375, -0.00732421875, 0.3779296875, 0, 
130, 1317610787, -57.331363677978516, -76.52704620361328, 93.08401489257812, 10.349647521972656, -1.690054178237915, 0.34371045231819153, 5.8524169921875, -4.231509685516357, 0.2758396863937378, -0.53857421875, -0.0087890625, 0.369140625, 0, 
131, 1317619120, -57.32282257080078, -76.52717590332031, 93.07540893554688, 13.522215843200684, -0.363397479057312, 1.4081671237945557, 3.0913310050964355, -1.1299079656600952, 0.922240674495697, -0.55224609375, -0.01513671875, 0.38330078125, 0, 
132, 1317627453, -57.33051681518555, -76.51504516601562, 93.05857849121094, 11.729748725891113, -1.263561725616455, 0.7656915783882141, 0.5044979453086853, -0.19665329158306122, 2.072908639907837, -0.546875, -0.01611328125, 0.3984375, 0, 
133, 1317635786, -57.296905517578125, -76.50437927246094, 93.01578521728516, 7.977677345275879, -2.729499101638794, 0.9974751472473145, 2.1090247631073, 0.375248521566391, 1.4921315908432007, -0.55322265625, -0.01953125, 0.408203125, 0, 
134, 1317644119, -57.2709846496582, -76.50534057617188, 92.99534606933594, 5.549509048461914, -3.3601596355438232, 2.542257308959961, 2.993279457092285, -0.7303001880645752, 0.5626935362815857, -0.544921875, -0.01416015625, 0.3974609375, 0, 
135, 1317652452, -57.308048248291016, -76.5229721069336, 93.06138610839844, 8.704442024230957, -2.146455764770508, 0.7271297574043274, 6.249847888946533, -3.993015766143799, 0.29359033703804016, -0.546875, -0.01171875, 0.3828125, 0, 
136, 1317660785, -57.326393127441406, -76.53035736083984, 93.08544158935547, 12.925209045410156, -0.46936464309692383, 1.4811066389083862, 3.6757452487945557, -2.368356466293335, 0.6801604628562927, -0.54833984375, -0.015625, 0.388671875, 0, 
137, 1317669118, -57.326011657714844, -76.51875305175781, 93.06745910644531, 12.846829414367676, -1.0460633039474487, 0.13221129775047302, 1.0129661560058594, -0.15065012872219086, 1.9603855609893799, -0.54736328125, -0.01416015625, 0.3896484375, 0, 
138, 1317677451, -57.31584548950195, -76.5086898803711, 93.04180145263672, 9.253840446472168, -2.2788195610046387, 1.8013064861297607, 1.3341174125671387, -0.0645606741309166, 1.7046529054641724, -0.54541015625, -0.0205078125, 0.4013671875, 0, 
139, 1317685784, -57.26860809326172, -76.50260925292969, 92.98897552490234, 5.841357707977295, -3.2512972354888916, 1.168939471244812, 2.573410749435425, 0.31418418884277344, 0.876058042049408, -0.54443359375, -0.0146484375, 0.3974609375, 0, 
140, 1317694117, -57.29103469848633, -76.51807403564453, 93.0310287475586, 7.11903715133667, -2.7870190143585205, 2.31561541557312, 5.8366899490356445, -3.413416862487793, 0.22868388891220093, -0.54736328125, -0.00927734375, 0.37744140625, 0, 
141, 1317702450, -57.33510208129883, -76.5326919555664, 93.08792114257812, 11.80422306060791, -0.9235460758209229, 0.6167038679122925, 4.418251037597656, -3.6000425815582275, 0.4567786753177643, -0.54541015625, -0.01123046875, 0.37890625, 0, 
142, 1317710783, -57.31786346435547, -76.52410125732422, 93.06455993652344, 13.453391075134277, -0.6888399720191956, 0.5692025423049927, 2.411503553390503, -0.21960365772247314, 1.5722273588180542, -0.54541015625, -0.01171875, 0.3876953125, 0, 
143, 1317719116, -57.323272705078125, -76.51129913330078, 93.0476303100586, 10.657831192016602, -1.6753860712051392, 1.5005481243133545, 0.44627681374549866, -0.09693706780672073, 2.0978314876556396, -0.54833984375, -0.01513671875, 0.3984375, 0, 
144, 1317727449, -57.27408218383789, -76.50181579589844, 92.9844741821289, 6.7069478034973145, -3.0372214317321777, 0.6771664619445801, 2.2568960189819336, 0.6648430824279785, 1.1678298711776733, -0.54638671875, -0.01953125, 0.40234375, 0, 
145, 1317735782, -57.28081130981445, -76.51007080078125, 93.00344848632812, 5.948537826538086, -3.2715251445770264, 3.050081491470337, 4.475369453430176, -2.3075475692749023, 0.5215826630592346, -0.544921875, -0.00830078125, 0.38330078125, 0, 
146, 1317744115, -57.33168029785156, -76.52957916259766, 93.06763458251953, 10.396209716796875, -1.5341876745224, 0.15288004279136658, 5.547018527984619, -4.3033576011657715, 0.21562062203884125, -0.54296875, -0.00927734375, 0.37744140625, 0, 
147, 1317752448, -57.32255554199219, -76.52745819091797, 93.059326171875, 13.49019718170166, -0.36914247274398804, 1.3251829147338867, 3.196861505508423, -0.9813711047172546, 1.154382348060608, -0.5458984375, -0.01513671875, 0.38134765625, 0, 
148, 1317760781, -57.33015060424805, -76.51486206054688, 93.04390716552734, 11.761072158813477, -1.3601230382919312, 0.7533368468284607, 0.3573954701423645, -0.14396482706069946, 2.1047730445861816, -0.546875, -0.0146484375, 0.3916015625, 0, 
149, 1317769114, -57.297725677490234, -76.5051040649414, 93.00282287597656, 7.889668941497803, -2.763328790664673, 0.9726347923278809, 2.166144847869873, 0.27443090081214905, 1.422614574432373, -0.5458984375, -0.01806640625, 0.4052734375, 0, 
150, 1317777447, -57.282958984375, -76.50682067871094, 92.9874267578125, 5.476323127746582, -3.2818334102630615, 2.5917274951934814, 3.0483248233795166, -1.0601860284805298, 0.6673789620399475, -0.54638671875, -0.013671875, 0.3896484375, 0, 
151, 1317785780, -57.32085418701172, -76.523681640625, 93.05531311035156, 8.792041778564453, -2.1278369426727295, 0.5718901753425598, 6.4428510665893555, -4.01609468460083, 0.3888753354549408, -0.54345703125, -0.01025390625, 0.37744140625, 0, 
152, 1317794113, -57.33652877807617, -76.53072357177734, 93.07559204101562, 13.050158500671387, -0.48917800188064575, 1.6695795059204102, 3.5580480098724365, -2.2478668689727783, 0.6686853170394897, -0.54638671875, -0.0126953125, 0.38232421875, 0, 
153, 1317802446, -57.334754943847656, -76.52052307128906, 93.05766296386719, 12.76318073272705, -1.166596531867981, 0.05587560683488846, 1.1923682689666748, -0.23015670478343964, 1.832442283630371, -0.544921875, -0.01318359375, 0.39013671875, 0, 
154, 1317810779, -57.32130432128906, -76.51033020019531, 93.03031921386719, 9.185365676879883, -2.177386522293091, 1.6830263137817383, 1.4929255247116089, -0.020222436636686325, 1.679320216178894, -0.54296875, -0.01904296875, 0.40185546875, 0, 
155, 1317819112, -57.2795295715332, -76.50386047363281, 92.97994995117188, 5.808231353759766, -3.129021644592285, 1.3252772092819214, 2.2046427726745605, 0.28331905603408813, 0.9500063061714172, -0.54443359375, -0.013671875, 0.3994140625, 0, 
156, 1317827445, -57.30760955810547, -76.51862335205078, 93.03348541259766, 7.153445720672607, -2.7448861598968506, 2.188534736633301, 5.94905948638916, -3.531139612197876, 0.3956630527973175, -0.54296875, -0.00732421875, 0.3798828125, 0, 
157, 1317835778, -57.356773376464844, -76.53401184082031, 93.09449005126953, 11.882984161376953, -1.0106126070022583, 0.7784022688865662, 4.288207530975342, -3.754905939102173, 0.43569812178611755, -0.54541015625, -0.0126953125, 0.37890625, 0, 
158, 1317844111, -57.33494567871094, -76.52537536621094, 93.06620025634766, 13.441946983337402, -0.7289491295814514, 0.48063236474990845, 2.387502431869507, -0.09158368408679962, 1.5112141370773315, -0.5458984375, -0.0126953125, 0.38818359375, 0, 
159, 1317852444, -57.339778900146484, -76.51384735107422, 93.04889678955078, 10.557727813720703, -1.662436604499817, 1.6596672534942627, 0.47473421692848206, -0.15741227567195892, 1.9813377857208252, -0.546875, -0.01953125, 0.39697265625, 0, 
160, 1317860777, -57.28795623779297, -76.50457763671875, 92.98905944824219, 6.632129669189453, -3.06662917137146, 0.6254602074623108, 2.308662176132202, 0.6880239844322205, 1.0979286432266235, -0.54736328125, -0.01708984375, 0.40234375, 0, 
161, 1317869110, -57.29349899291992, -76.51346588134766, 93.008056640625, 5.9593024253845215, -3.2630820274353027, 3.0222368240356445, 4.617350101470947, -2.3474292755126953, 0.4520655870437622, -0.54296875, -0.0087890625, 0.38525390625, 0, 
162, 1317877443, -57.34100341796875, -76.53189849853516, 93.07846069335938, 10.45511245727539, -1.4749091863632202, 0.14640894532203674, 5.472071647644043, -4.141373634338379, 0.2649536728858948, -0.54443359375, -0.01171875, 0.3759765625, 0, 
163, 1317885776, -57.329925537109375, -76.52922058105469, 93.06867218017578, 13.565661430358887, -0.3533966839313507, 1.2160953283309937, 3.256542444229126, -0.9221509099006653, 1.1805343627929688, -0.544921875, -0.0146484375, 0.38525390625, 0, 
164, 1317894109, -57.33936309814453, -76.51661682128906, 93.053466796875, 11.7852144241333, -1.3462611436843872, 0.8874456286430359, 0.16170266270637512, -0.13922616839408875, 2.1136865615844727, -0.5458984375, -0.01513671875, 0.392578125, 0, 
165, 1317902442, -57.302371978759766, -76.50495910644531, 93.00849151611328, 7.834386348724365, -2.7698066234588623, 0.9211827516555786, 2.266526699066162, 0.5050870776176453, 1.5733287334442139, -0.5458984375, -0.0205078125, 0.4033203125, 0, 
166, 1317910775, -57.2830924987793, -76.50685119628906, 92.98831939697266, 5.470860958099365, -3.338052749633789, 2.6117570400238037, 3.028780937194824, -0.9736611843109131, 0.5629240870475769, -0.5419921875, -0.01123046875, 0.388671875, 0, 
167, 1317919108, -57.32482147216797, -76.5252456665039, 93.06012725830078, 8.815791130065918, -2.22406005859375, 0.6819348335266113, 6.437498569488525, -4.208688259124756, 0.29328301548957825, -0.5458984375, -0.00927734375, 0.37646484375, 0, 
168, 1317927441, -57.34272384643555, -76.53304290771484, 93.08366394042969, 13.00182819366455, -0.4282352328300476, 1.5307306051254272, 3.669393301010132, -2.371250867843628, 0.6434552073478699, -0.54248046875, -0.01611328125, 0.38330078125, 0, 
169, 1317935774, -57.33920669555664, -76.52120208740234, 93.06360626220703, 12.789693832397461, -1.0578434467315674, 0.1340598315000534, 1.1507962942123413, -0.0864352285861969, 1.9543659687042236, -0.54736328125, -0.01513671875, 0.3857421875, 0, 
170, 1317944107, -57.327484130859375, -76.51004028320312, 93.03575897216797, 9.13113784790039, -2.167673110961914, 1.6106846332550049, 1.2279720306396484, 0.06923528015613556, 1.7891031503677368, -0.5498046875, -0.01953125, 0.40283203125, 0, 
171, 1317952440, -57.28931427001953, -76.50415802001953, 92.98946380615234, 5.827056407928467, -3.279268741607666, 1.2953664064407349, 2.2508764266967773, 0.1597047597169876, 0.9632489085197449, -0.54541015625, -0.01708984375, 0.396484375, 0, 
172, 1317960773, -57.31430435180664, -76.51885986328125, 93.04075622558594, 7.239748001098633, -2.7467966079711914, 2.1504175662994385, 6.054718494415283, -3.4888508319854736, 0.3525799512863159, -0.546875, -0.00830078125, 0.380859375, 0, 
173, 1317969106, -57.36064529418945, -76.53421783447266, 93.0991439819336, 11.928854942321777, -0.9377694725990295, 0.7911074161529541, 4.321070671081543, -3.693380832672119, 0.3942543566226959, -0.54443359375, -0.013671875, 0.38330078125, 0, 
174, 1317977439, -57.343353271484375, -76.52669525146484, 93.07535552978516, 13.414831161499023, -0.6959079504013062, 0.4660724699497223, 2.3719804286956787, -0.2660934627056122, 1.4780694246292114, -0.54443359375, -0.0126953125, 0.38671875, 0, 
175, 1317985772, -57.3470458984375, -76.51480102539062, 93.05753326416016, 10.561738967895508, -1.7325756549835205, 1.6942118406295776, 0.5434059500694275, -0.13482052087783813, 1.9945805072784424, -0.54296875, -0.0166015625, 0.39404296875, 0, 
176, 1317994105, -57.29990005493164, -76.50621032714844, 93.00279235839844, 6.6743035316467285, -3.052450656890869, 0.490660160779953, 2.342729330062866, 0.5373610854148865, 1.1189066171646118, -0.541015625, -0.01708984375, 0.39697265625, 0, 
177, 1318002438, -57.30678176879883, -76.51376342773438, 93.0212173461914, 5.979624271392822, -3.1238224506378174, 3.104886293411255, 4.38800048828125, -2.2348809242248535, 0.5840814709663391, -0.5400390625, -0.00634765625, 0.37841796875, 0, 
178, 1318010771, -57.35738754272461, -76.53253173828125, 93.09317779541016, 10.436201095581055, -1.550232172012329, 0.13031163811683655, 5.392027378082275, -4.232227325439453, 0.25970274209976196, -0.53955078125, -0.0087890625, 0.37109375, 0, 
179, 1318019104, -57.343414306640625, -76.53054809570312, 93.07991027832031, 13.570108413696289, -0.45642444491386414, 1.2435169219970703, 3.2010879516601562, -0.8872387409210205, 1.0613515377044678, -0.54541015625, -0.01123046875, 0.3779296875, 0, 
180, 1318027437, -57.35244369506836, -76.51848602294922, 93.06602478027344, 11.775663375854492, -1.3175203800201416, 0.847584068775177, 0.3670007288455963, -0.20641230046749115, 2.074906587600708, -0.54443359375, -0.0146484375, 0.384765625, 0, 
181, 1318035770, -57.32450866699219, -76.50885772705078, 93.0291519165039, 7.849889755249023, -2.6974120140075684, 1.0887219905853271, 2.118425130844116, 0.17038586735725403, 1.4792732000350952, -0.54345703125, -0.0185546875, 0.39697265625, 0, 
182, 1318044103, -57.30483627319336, -76.50934600830078, 93.00809478759766, 5.411759376525879, -3.3827688694000244, 2.3635096549987793, 2.9762206077575684, -0.8470499515533447, 0.7060051560401917, -0.53955078125, -0.00927734375, 0.384765625, 0, 
183, 1318052436, -57.33970642089844, -76.5277099609375, 93.07454681396484, 8.811721801757812, -2.154320478439331, 0.8234292268753052, 6.638775825500488, -4.069065093994141, 0.2253284752368927, -0.5390625, -0.00732421875, 0.3671875, 0, 
184, 1318060769, -57.35853576660156, -76.5352554321289, 93.09823608398438, 13.01347827911377, -0.4329487085342407, 1.5263288021087646, 3.5765414237976074, -2.3708152770996094, 0.6576198935508728, -0.54541015625, -0.0126953125, 0.373046875, 0, 
185, 1318069102, -57.352210998535156, -76.5226821899414, 93.07508087158203, 12.812799453735352, -0.9762943983078003, -0.05855290964245796, 1.1264628171920776, 0.03509150445461273, 1.9850777387619019, -0.54150390625, -0.01220703125, 0.3837890625, 0, 
186, 1318077435, -57.343597412109375, -76.51087188720703, 93.05189514160156, 9.225461959838867, -2.2336175441741943, 1.9121097326278687, 1.3972821235656738, -0.0003457921266090125, 1.9184036254882812, -0.54296875, -0.01708984375, 0.39111328125, 0, 
187, 1318085768, -57.3033332824707, -76.5055160522461, 93.00370788574219, 5.787700653076172, -3.3561341762542725, 1.1457655429840088, 2.28302264213562, 0.16959184408187866, 0.884485125541687, -0.5419921875, -0.01171875, 0.39306640625, 0, 
188, 1318094101, -57.32664489746094, -76.52058410644531, 93.05220031738281, 7.125840187072754, -2.74967098236084, 2.240690231323242, 5.9259562492370605, -3.444051742553711, 0.27184391021728516, -0.53955078125, -0.0078125, 0.3701171875, 0, 
189, 1318102434, -57.370391845703125, -76.53544616699219, 93.10922241210938, 11.885110855102539, -0.9213353991508484, 0.7115734815597534, 4.475754261016846, -3.631112575531006, 0.42271170020103455, -0.5419921875, -0.0087890625, 0.37158203125, 0, 
190, 1318110767, -57.35148620605469, -76.52676391601562, 93.08345794677734, 13.426704406738281, -0.722582995891571, 0.5158880352973938, 2.3351728916168213, -0.14060933887958527, 1.5681291818618774, -0.54150390625, -0.01318359375, 0.380859375, 0, 
191, 1318119100, -57.35544967651367, -76.51469421386719, 93.06633758544922, 10.597597122192383, -1.6820834875106812, 1.463505506515503, 0.5932000875473022, -0.1400202065706253, 2.024369716644287, -0.54443359375, -0.01318359375, 0.38720703125, 0, 
192, 1318127433, -57.31237030029297, -76.50550079345703, 93.01532745361328, 6.762421131134033, -2.853973388671875, 0.7754567861557007, 2.293139934539795, 0.4852616786956787, 1.227818250656128, -0.54052734375, -0.01611328125, 0.3955078125, 0, 
193, 1318135766, -57.327030181884766, -76.51405334472656, 93.03972625732422, 5.949944972991943, -3.2543885707855225, 3.0220863819122314, 4.157011032104492, -2.439640522003174, 0.5787792801856995, -0.54150390625, -0.0068359375, 0.3740234375, 0, 
194, 1318144099, -57.37083053588867, -76.53168487548828, 93.1073989868164, 10.370847702026367, -1.7347559928894043, 0.14334695041179657, 5.710898399353027, -4.058382987976074, 0.30813923478126526, -0.5390625, -0.01025390625, 0.3701171875, 0, 
195, 1318152432, -57.36395263671875, -76.53096008300781, 93.10136413574219, 13.533380508422852, -0.4041813015937805, 1.4514946937561035, 3.1926097869873047, -1.1365677118301392, 1.042653203010559, -0.54296875, -0.013671875, 0.3759765625, 0, 
196, 1318160765, -57.37139892578125, -76.51966094970703, 93.0876693725586, 11.776750564575195, -1.2827705144882202, 0.6951362490653992, 0.5791634321212769, -0.25894710421562195, 2.0095903873443604, -0.5419921875, -0.013671875, 0.3818359375, 0, 
197, 1318169098, -57.34064865112305, -76.5086898803711, 93.04505157470703, 8.002986907958984, -2.6598949432373047, 1.0504264831542969, 1.7874127626419067, 0.3879019618034363, 1.5243033170700073, -0.54052734375, -0.01611328125, 0.3984375, 0, 
198, 1318177431, -57.31282043457031, -76.50865173339844, 93.01736450195312, 5.508060455322266, -3.3472108840942383, 2.3362362384796143, 3.17767596244812, -0.6554298400878906, 0.6583114266395569, -0.541015625, -0.01171875, 0.3837890625, 0, 
199, 1318185764, -57.356056213378906, -76.52627563476562, 93.09095001220703, 8.70653247833252, -2.1808125972747803, 0.9939939975738525, 6.185914516448975, -4.130667209625244, 0.3788345456123352, -0.541015625, -0.0048828125, 0.36962890625, 0, 
200, 1318194097, -57.37643814086914, -76.5327377319336, 93.11602020263672, 12.92888069152832, -0.5756686925888062, 1.2304717302322388, 3.5473411083221436, -2.335723876953125, 0.7839236855506897, -0.54052734375, -0.01220703125, 0.3759765625, 0, 
201, 1318202430, -57.37129592895508, -76.52147674560547, 93.09410858154297, 12.895811080932617, -0.9885430335998535, 0.29918262362480164, 1.1301767826080322, -0.07957062125205994, 1.8724517822265625, -0.54296875, -0.01171875, 0.37939453125, 0, 
202, 1318210763, -57.36414337158203, -76.51104736328125, 93.06843566894531, 9.238405227661133, -2.2835161685943604, 1.7493295669555664, 1.5384933948516846, -0.15054766833782196, 1.8227858543395996, -0.53955078125, -0.01708984375, 0.39111328125, 0, 
203, 1318219096, -57.32318878173828, -76.50636291503906, 93.0215835571289, 5.822293758392334, -3.28755259513855, 1.2310147285461426, 2.51711106300354, 0.08265713602304459, 0.8224987387657166, -0.54052734375, -0.01318359375, 0.3916015625, 0, 
204, 1318227429, -57.34400939941406, -76.52080535888672, 93.06587219238281, 7.063421249389648, -2.755603551864624, 2.2094950675964355, 5.907897472381592, -3.322486162185669, 0.3122631311416626, -0.5390625, -0.00830078125, 0.36767578125, 0, 
205, 1318235762, -57.388248443603516, -76.53730010986328, 93.1576919555664, 11.84678840637207, -0.8876106142997742, 0.6984396576881409, 4.7269792556762695, -3.7989628314971924, 0.3028371036052704, -0.5419921875, -0.00830078125, 0.37060546875, 0, 
206, 1318244095, -57.37166213989258, -76.529541015625, 93.1326904296875, 13.431781768798828, -0.8074023723602295, 0.6031485795974731, 2.139838695526123, -0.23522832989692688, 1.4682079553604126, -0.54150390625, -0.0107421875, 0.37841796875, 0, 
207, 1318252428, -57.37073516845703, -76.51642608642578, 93.1105728149414, 10.675413131713867, -1.627966046333313, 1.3994050025939941, 0.6015503406524658, 0.043979644775390625, 2.04988169670105, -0.5400390625, -0.01318359375, 0.3857421875, 0, 
208, 1318260761, -57.33327102661133, -76.50743865966797, 93.0711898803711, 6.82850456237793, -2.8919730186462402, 0.9334383010864258, 2.121960163116455, 0.3727383017539978, 1.2890619039535522, -0.5419921875, -0.01708984375, 0.39453125, 0, 
209, 1318269094, -57.334110260009766, -76.51472473144531, 93.08091735839844, 5.922379016876221, -3.249553918838501, 2.6938068866729736, 4.10455322265625, -2.0270979404449463, 0.46963703632354736, -0.5400390625, -0.0048828125, 0.37646484375, 0, 
210, 1318277427, -57.36533737182617, -76.53260803222656, 93.13851928710938, 10.263663291931152, -1.7902255058288574, 0.4245101809501648, 6.044242858886719, -3.8257038593292236, 0.14195409417152405, -0.54052734375, -0.0087890625, 0.3681640625, 0, 
211, 1318285760, -57.366554260253906, -76.53392028808594, 93.1456527709961, 13.43156909942627, -0.3256019949913025, 1.4858341217041016, 3.2763679027557373, -1.472395896911621, 0.9806921482086182, -0.541015625, -0.01123046875, 0.3779296875, 0, 
212, 1318294093, -57.375057220458984, -76.52243041992188, 93.13330841064453, 11.770440101623535, -1.258802056312561, 0.5565474629402161, 0.6098492741584778, -0.2910929322242737, 2.035025119781494, -0.54248046875, -0.01416015625, 0.38525390625, 0, 
213, 1318302426, -57.342838287353516, -76.51090240478516, 93.09162139892578, 8.160956382751465, -2.5675649642944336, 1.0912554264068604, 2.070988178253174, 0.40598565340042114, 1.600889801979065, -0.54443359375, -0.015625, 0.39501953125, 0, 
214, 1318310759, -57.319522857666016, -76.51138305664062, 93.05924987792969, 5.589018821716309, -3.4147496223449707, 2.413536787033081, 2.7499442100524902, -0.7102699279785156, 0.6267035603523254, -0.54052734375, -0.00927734375, 0.3818359375, 0, 
215, 1318319092, -57.35200500488281, -76.52880859375, 93.12248229980469, 8.59255599975586, -2.311103105545044, 0.8096912503242493, 6.550867557525635, -3.943478584289551, 0.25814029574394226, -0.54150390625, -0.00830078125, 0.3671875, 0, 
216, 1318327425, -57.36959457397461, -76.53749084472656, 93.15283966064453, 12.865689277648926, -0.5064324736595154, 1.4452701807022095, 3.6153979301452637, -2.411874771118164, 0.5416898727416992, -0.54248046875, -0.01416015625, 0.37646484375, 0, 
217, 1318335758, -57.36086654663086, -76.5264663696289, 93.1383285522461, 12.818222999572754, -0.9940231442451477, 0.1157197505235672, 1.519180417060852, -0.0774446427822113, 1.8561869859695435, -0.54052734375, -0.01123046875, 0.37744140625, 0, 
218, 1318344091, -57.35338592529297, -76.51652526855469, 93.11457824707031, 9.363141059875488, -2.1938602924346924, 1.7470135688781738, 1.195595622062683, -0.12260252237319946, 1.7076241970062256, -0.541015625, -0.017578125, 0.392578125, 0, 
219, 1318352424, -57.30662536621094, -76.50910186767578, 93.06121826171875, 5.993298530578613, -3.142123222351074, 1.0221275091171265, 2.4531266689300537, 0.4157446324825287, 1.0089446306228638, -0.54052734375, -0.013671875, 0.39208984375, 0, 
220, 1318360757, -57.335689544677734, -76.52452850341797, 93.10845184326172, 6.966299533843994, -2.748182535171509, 2.565821647644043, 5.489745616912842, -3.5024774074554443, 0.2851888835430145, -0.54296875, -0.00732421875, 0.37353515625, 0, 
221, 1318369090, -57.38191604614258, -76.539306640625, 93.1689224243164, 11.633257865905762, -1.1541574001312256, 0.43146100640296936, 4.574471950531006, -3.7061362266540527, 0.47998520731925964, -0.54296875, -0.0107421875, 0.37158203125, 0, 
222, 1318377423, -57.358612060546875, -76.5320053100586, 93.14076232910156, 13.509187698364258, -0.6108710765838623, 0.8420767784118652, 2.583425998687744, -0.17713524401187897, 1.3836041688919067, -0.54052734375, -0.01513671875, 0.3798828125, 0, 
223, 1318385756, -57.367496490478516, -76.52027893066406, 93.1256103515625, 10.780658721923828, -1.6140130758285522, 1.449034571647644, 0.29202786087989807, -0.20689897239208221, 2.0456550121307373, -0.5419921875, -0.01806640625, 0.38818359375, 0, 
224, 1318394089, -57.320587158203125, -76.51236724853516, 93.07325744628906, 6.912381172180176, -2.9553399085998535, 0.6525566577911377, 2.5900087356567383, 0.4248633086681366, 1.0775395631790161, -0.54443359375, -0.017578125, 0.3935546875, 0, 
225, 1318402422, -57.32324981689453, -76.51954650878906, 93.08473205566406, 5.799270153045654, -3.351017951965332, 3.0424609184265137, 4.089415073394775, -2.0617027282714844, 0.5091341733932495, -0.53857421875, -0.01025390625, 0.3759765625, 0, 
226, 1318410755, -57.363609313964844, -76.53709411621094, 93.15443420410156, 10.063706398010254, -1.6788333654403687, 0.046779803931713104, 5.7415852546691895, -3.9638419151306152, 0.2764800488948822, -0.53759765625, -0.00927734375, 0.3701171875, 0, 
227, 1318419088, -57.360713958740234, -76.53800201416016, 93.15393829345703, 13.435844421386719, -0.3695858120918274, 1.573405385017395, 3.360177755355835, -1.3729870319366455, 0.9598166346549988, -0.54931640625, -0.01708984375, 0.38525390625, 0, 
228, 1318427421, -57.36874008178711, -76.52486419677734, 93.10648345947266, 12.039460182189941, -1.2813172340393066, 0.47791892290115356, 0.4072663486003876, -0.11297159641981125, 2.1778759956359863, -0.54931640625, -0.01611328125, 0.39453125, 0, 
229, 1318435754, -57.338809967041016, -76.5127944946289, 93.04925537109375, 8.172089576721191, -2.6125547885894775, 1.200109839439392, 1.7748358249664307, 0.46080005168914795, 1.6571640968322754, -0.54833984375, -0.0205078125, 0.40673828125, 0, 
230, 1318444087, -57.3114128112793, -76.51142883300781, 93.01879119873047, 5.528885841369629, -3.315187692642212, 2.1900291442871094, 2.8040413856506348, -0.5158578753471375, 0.7452205419540405, -0.544921875, -0.013671875, 0.396484375, 0, 
231, 1318452420, -57.34498596191406, -76.52899932861328, 93.08279418945312, 8.369978904724121, -2.422091484069824, 1.1314150094985962, 6.509270191192627, -3.9721412658691406, 0.25455430150032043, -0.5458984375, -0.009765625, 0.380859375, 0, 
232, 1318460753, -57.37356948852539, -76.53961181640625, 93.12332916259766, 12.718459129333496, -0.5798673629760742, 1.3796675205230713, 3.713090658187866, -2.8259031772613525, 0.5251686573028564, -0.54736328125, -0.013671875, 0.38720703125, 0, 
233, 1318469086, -57.362831115722656, -76.5296401977539, 93.0992660522461, 12.900788307189941, -0.9858789443969727, 0.03189275041222572, 1.5491232872009277, -0.11297158151865005, 1.7065483331680298, -0.5458984375, -0.0126953125, 0.39306640625, 0, 
234, 1318477419, -57.358154296875, -76.51765441894531, 93.07581329345703, 9.558979988098145, -1.963862657546997, 1.8288230895996094, 1.0965453386306763, -0.024167032912373543, 1.9623836278915405, -0.54736328125, -0.0166015625, 0.40478515625, 0, 
235, 1318485752, -57.3137092590332, -76.5105972290039, 93.00465393066406, 6.102166652679443, -3.2242395877838135, 0.9652143120765686, 2.1887106895446777, 0.4047049283981323, 0.9779002070426941, -0.54736328125, -0.01953125, 0.40673828125, 0, 
236, 1318494085, -57.33341979980469, -76.5237045288086, 93.04706573486328, 6.789302825927734, -2.871464967727661, 2.581308364868164, 5.655444145202637, -3.1737959384918213, 0.3818313777446747, -0.5478515625, -0.01025390625, 0.384765625, 0, 
237, 1318502418, -57.37886428833008, -76.54102325439453, 93.10811614990234, 11.506208419799805, -1.225683331489563, 0.46763330698013306, 4.738762855529785, -3.882849931716919, 0.2346520572900772, -0.54638671875, -0.0126953125, 0.3837890625, 0, 
238, 1318510751, -57.35752487182617, -76.53512573242188, 93.08097839355469, 13.455434799194336, -0.5980889201164246, 0.8255277276039124, 2.762700319290161, -0.3520548939704895, 1.3003579378128052, -0.54443359375, -0.0166015625, 0.390625, 0, 
239, 1318519084, -57.36959457397461, -76.52442169189453, 93.07186126708984, 10.96774959564209, -1.6166880130767822, 1.3936772346496582, 0.5582622289657593, -0.4173967242240906, 2.0088729858398438, -0.54931640625, -0.0166015625, 0.3984375, 0, 
240, 1318527417, -57.329254150390625, -76.51428985595703, 93.03487396240234, 7.139945983886719, -2.7773640155792236, 0.6272618174552917, 2.3423192501068115, 0.46530818939208984, 1.3777128458023071, -0.54638671875, -0.01904296875, 0.41015625, 0, 
241, 1318535750, -57.3263053894043, -76.52009582519531, 93.04177856445312, 5.746952056884766, -3.1965458393096924, 3.081718921661377, 3.7041256427764893, -1.7445214986801147, 0.5310342907905579, -0.54541015625, -0.00927734375, 0.3876953125, 0, 
242, 1318544083, -57.36700439453125, -76.53685760498047, 93.1088638305664, 9.846569061279297, -1.9124435186386108, 0.08252769708633423, 6.0156569480896, -3.991325616836548, 0.3843928277492523, -0.5458984375, -0.01025390625, 0.38037109375, 0, 
243, 1318552416, -57.36030578613281, -76.5395278930664, 93.10579681396484, 13.353424072265625, -0.3999921977519989, 1.6948513984680176, 3.5133252143859863, -1.4258803129196167, 0.7438885569572449, -0.544921875, -0.0146484375, 0.3876953125, 0, 
244, 1318560749, -57.370269775390625, -76.52810668945312, 93.09517669677734, 12.154419898986816, -1.1960304975509644, 0.47968921065330505, 0.6367697715759277, -0.3250317871570587, 2.064865827560425, -0.54931640625, -0.013671875, 0.39306640625, 0, 
245, 1318569082, -57.345645904541016, -76.5165023803711, 93.0584945678711, 8.39810848236084, -2.5256505012512207, 1.215511679649353, 1.7447906732559204, 0.29233527183532715, 1.6797304153442383, -0.546875, -0.02001953125, 0.40673828125, 0, 
246, 1318577415, -57.315860748291016, -76.51393127441406, 93.02869415283203, 5.590356826782227, -3.3136630058288574, 1.842505931854248, 2.6402130126953125, -0.3357385993003845, 0.825469970703125, -0.5458984375, -0.013671875, 0.396484375, 0, 
247, 1318585748, -57.34469985961914, -76.53113555908203, 93.09085083007812, 8.09264087677002, -2.4296984672546387, 1.4961334466934204, 6.57205057144165, -3.8321592807769775, 0.2396468222141266, -0.5419921875, -0.00927734375, 0.37841796875, 0, 
248, 1318594081, -57.37713623046875, -76.54275512695312, 93.13121795654297, 12.503935813903809, -0.7209019064903259, 1.251700520515442, 3.8876776695251465, -3.0278713703155518, 0.4957379102706909, -0.5458984375, -0.01318359375, 0.38330078125, 0, 
249, 1318602414, -57.35932922363281, -76.5325698852539, 93.1025390625, 13.149683952331543, -0.8106718063354492, -0.03408394008874893, 1.8616172075271606, 0.009067440405488014, 1.6583681106567383, -0.546875, -0.01220703125, 0.390625, 0, 
250, 1318610747, -57.36199188232422, -76.51985168457031, 93.09295654296875, 9.82361888885498, -1.9338349103927612, 2.131382703781128, 0.9465740323066711, -0.12834012508392334, 2.127697706222534, -0.544921875, -0.021484375, 0.3994140625, 0, 
251, 1318619080, -57.320491790771484, -76.51238250732422, 93.04216003417969, 6.250324726104736, -3.2551586627960205, 0.5863494277000427, 2.1241374015808105, 0.3571648597717285, 1.0486212968826294, -0.54541015625, -0.01416015625, 0.40283203125, 0, 
252, 1318627413, -57.33338165283203, -76.52387237548828, 93.06491088867188, 6.526170253753662, -3.019366979598999, 2.8410134315490723, 5.304733753204346, -2.8173224925994873, 0.40639543533325195, -0.5390625, -0.0087890625, 0.38330078125, 0, 
253, 1318635746, -57.38201904296875, -76.54275512695312, 93.12501525878906, 11.141573905944824, -1.2470934391021729, 0.3283334970474243, 5.099358558654785, -4.122188091278076, 0.18716320395469666, -0.5458984375, -0.009765625, 0.37939453125, 0, 
254, 1318644079, -57.36019515991211, -76.53750610351562, 93.10066986083984, 13.442625999450684, -0.5591088533401489, 0.8942535519599915, 2.8448965549468994, -0.4110700488090515, 1.22121000289917, -0.5478515625, -0.0146484375, 0.38818359375, 0, 
255, 1318652412, -57.36621856689453, -76.52552032470703, 93.08342742919922, 11.257391929626465, -1.4783810377120972, 1.2666929960250854, 0.33490610122680664, -0.14506621658802032, 2.013099431991577, -0.546875, -0.015625, 0.39453125, 0, 
256, 1318660745, -57.33158493041992, -76.51591491699219, 93.03177642822266, 7.352219581604004, -2.6971065998077393, 0.7778593897819519, 2.2049758434295654, 0.3281952142715454, 1.3944646120071411, -0.5478515625, -0.0205078125, 0.408203125, 0, 
257, 1318669078, -57.32196044921875, -76.51905059814453, 93.03490447998047, 5.714468955993652, -3.3058483600616455, 2.795567512512207, 3.315199375152588, -1.3330031633377075, 0.6474254131317139, -0.5419921875, -0.01123046875, 0.3896484375, 0, 
258, 1318677411, -57.359737396240234, -76.53662109375, 93.10044860839844, 9.493630409240723, -2.1076889038085938, 0.4034011662006378, 6.180997371673584, -4.005976676940918, 0.27916958928108215, -0.546875, -0.0087890625, 0.3779296875, 0, 
259, 1318685744, -57.36684036254883, -76.54180908203125, 93.11221313476562, 13.17000961303711, -0.45189449191093445, 1.6772685050964355, 3.591602087020874, -1.9369100332260132, 0.7148676514625549, -0.54638671875, -0.01123046875, 0.3857421875, 0, 
260, 1318694077, -57.375118255615234, -76.53179168701172, 93.1029281616211, 12.316736221313477, -1.1153442859649658, 0.3175975978374481, 0.9910146594047546, -0.44928649067878723, 1.9383058547973633, -0.544921875, -0.0166015625, 0.3876953125, 0, 
261, 1318702410, -57.35234832763672, -76.52014923095703, 93.0672607421875, 8.823863983154297, -2.3086776733398438, 1.4014524221420288, 1.6411296129226685, 0.2689238488674164, 1.6998374462127686, -0.54541015625, -0.01806640625, 0.40283203125, 0, 
262, 1318710743, -57.31184387207031, -76.51551818847656, 93.03575897216797, 5.697457313537598, -3.2828009128570557, 1.5639456510543823, 2.357739210128784, 0.11203667521476746, 0.8287486433982849, -0.54541015625, -0.01708984375, 0.39697265625, 0, 
263, 1318719076, -57.339874267578125, -76.53096008300781, 93.09567260742188, 7.676953315734863, -2.603260040283203, 1.7669605016708374, 6.438265800476074, -3.672863483428955, 0.3880300223827362, -0.54736328125, -0.00830078125, 0.376953125, 0, 
264, 1318727409, -57.38246154785156, -76.54364776611328, 93.14663696289062, 12.26846981048584, -0.8009985089302063, 1.1350597143173218, 3.9035582542419434, -3.347869873046875, 0.546274721622467, -0.544921875, -0.0126953125, 0.384765625, 0, 
265, 1318735742, -57.361881256103516, -76.53321838378906, 93.11627960205078, 13.245309829711914, -0.7286669611930847, 0.17716169357299805, 1.9946318864822388, 0.06710929423570633, 1.6610064506530762, -0.54638671875, -0.01171875, 0.38818359375, 0, 
266, 1318744075, -57.367122650146484, -76.5216293334961, 93.10313415527344, 10.150931358337402, -1.8823693990707397, 1.9807096719741821, 0.910739541053772, -0.25433653593063354, 2.04752516746521, -0.54736328125, -0.0185546875, 0.39892578125, 0, 
267, 1318752408, -57.3236198425293, -76.5128173828125, 93.0528564453125, 6.483744144439697, -3.1716301441192627, 0.5968702435493469, 2.4225432872772217, 0.431318074464798, 1.1975167989730835, -0.544921875, -0.01904296875, 0.4013671875, 0, 
268, 1318760741, -57.32706069946289, -76.52313232421875, 93.07228088378906, 6.203497886657715, -3.026472330093384, 2.84702467918396, 4.926155090332031, -2.438180685043335, 0.32647904753685, -0.54541015625, -0.00830078125, 0.3837890625, 0, 
269, 1318769074, -57.3766975402832, -76.54202270507812, 93.14281463623047, 10.786070823669434, -1.4191558361053467, 0.29263243079185486, 5.344205379486084, -4.197237968444824, 0.233781099319458, -0.5419921875, -0.01171875, 0.3798828125, 0, 
270, 1318777407, -57.36013412475586, -76.53938293457031, 93.12511444091797, 13.461132049560547, -0.5613816976547241, 1.1188727617263794, 2.9899494647979736, -0.7398030757904053, 1.0582520961761475, -0.54541015625, -0.0126953125, 0.38427734375, 0, 
271, 1318785740, -57.36582565307617, -76.52651977539062, 93.10786437988281, 11.509495735168457, -1.3752007484436035, 0.9787675142288208, 0.37488996982574463, -0.08548750728368759, 2.106924533843994, -0.53955078125, -0.013671875, 0.39111328125, 0, 
272, 1318794073, -57.33902359008789, -76.51692199707031, 93.07266998291016, 7.667931079864502, -2.619474172592163, 1.011168360710144, 2.17907977104187, 0.13936705887317657, 1.5155431032180786, -0.54248046875, -0.017578125, 0.39990234375, 0, 
273, 1318802406, -57.32329177856445, -76.51795959472656, 93.05613708496094, 5.6497368812561035, -3.339266777038574, 2.4326086044311523, 3.0292165279388428, -1.0029126405715942, 0.7053648233413696, -0.54345703125, -0.01025390625, 0.380859375, 0, 
274, 1318810739, -57.35458755493164, -76.53531646728516, 93.11911010742188, 9.06738567352295, -2.2769973278045654, 0.7893965244293213, 6.524252891540527, -3.8944778442382812, 0.2533760070800781, -0.53515625, -0.00830078125, 0.369140625, 0, 
275, 1318819072, -57.37510681152344, -76.54373931884766, 93.14497375488281, 12.954243659973145, -0.4652327597141266, 1.5177452564239502, 3.6278719902038574, -2.469020128250122, 0.6076464653015137, -0.54296875, -0.01123046875, 0.3759765625, 0, 
276, 1318827405, -57.371883392333984, -76.53267669677734, 93.12655639648438, 12.549883842468262, -1.0012577772140503, 0.002884714398533106, 1.3060184717178345, -0.1759057492017746, 1.9024715423583984, -0.54150390625, -0.01318359375, 0.3798828125, 0, 
277, 1318835738, -57.36382293701172, -76.52101135253906, 93.10271453857422, 9.080155372619629, -2.1380178928375244, 1.8425451517105103, 1.254072904586792, -0.009105860255658627, 1.8782405853271484, -0.54248046875, -0.01708984375, 0.39111328125, 0, 
278, 1318844071, -57.32890701293945, -76.51579284667969, 93.05950164794922, 5.961803913116455, -3.3291289806365967, 1.167259931564331, 2.2197556495666504, 0.046438612043857574, 0.9534130692481995, -0.5400390625, -0.01220703125, 0.3916015625, 0, 
279, 1318852404, -57.353065490722656, -76.52947235107422, 93.10944366455078, 7.369699954986572, -2.6824891567230225, 2.1454570293426514, 5.996830940246582, -3.3859331607818604, 0.437849760055542, -0.537109375, -0.005859375, 0.37109375, 0, 
280, 1318860737, -57.389530181884766, -76.5440444946289, 93.15673065185547, 11.874890327453613, -0.9692241549491882, 0.7787770628929138, 4.212722301483154, -3.3683106899261475, 0.319153368473053, -0.544921875, -0.0126953125, 0.3759765625, 0, 
281, 1318869070, -57.36896514892578, -76.53697204589844, 93.13079833984375, 13.201943397521973, -0.7659971117973328, 0.5669978857040405, 2.5148568153381348, -0.24698524177074432, 1.3956427574157715, -0.5400390625, -0.01318359375, 0.380859375, 0, 
282, 1318877403, -57.3766975402832, -76.52543640136719, 93.1178207397461, 10.53023910522461, -1.6965004205703735, 1.5450809001922607, 0.626652181148529, -0.27393144369125366, 2.0337958335876465, -0.544921875, -0.01806640625, 0.3916015625, 0, 
283, 1318885736, -57.33218002319336, -76.51622009277344, 93.0653076171875, 6.897556781768799, -2.824876546859741, 0.7388442754745483, 2.280384063720703, 0.5088523626327515, 1.1944173574447632, -0.541015625, -0.015625, 0.400390625, 0, 
284, 1318894069, -57.3361930847168, -76.52225494384766, 93.07759857177734, 6.073450088500977, -3.114997386932373, 2.8614721298217773, 4.026429653167725, -1.995105504989624, 0.6502941250801086, -0.5419921875, -0.0078125, 0.37939453125, 0, 
285, 1318902402, -57.37762451171875, -76.53965759277344, 93.14502716064453, 10.300573348999023, -1.8468459844589233, 0.24420228600502014, 5.963096618652344, -4.037277698516846, 0.3233541250228882, -0.54150390625, -0.0078125, 0.3740234375, 0, 
286, 1318910735, -57.36963653564453, -76.5396728515625, 93.13894653320312, 13.329611778259277, -0.47245800495147705, 1.5277941226959229, 3.3227806091308594, -1.1730934381484985, 0.9835096597671509, -0.53955078125, -0.009765625, 0.3779296875, 0, 
287, 1318919068, -57.375972747802734, -76.52804565429688, 93.12405395507812, 11.782041549682617, -1.2201519012451172, 0.6054619550704956, 0.5716329216957092, -0.2099214792251587, 2.0291597843170166, -0.54345703125, -0.01318359375, 0.38427734375, 0, 
288, 1318927401, -57.35017395019531, -76.51686096191406, 93.08750915527344, 8.171215057373047, -2.5218279361724854, 1.1883676052093506, 1.9028047323226929, 0.25883185863494873, 1.637261986732483, -0.5400390625, -0.01806640625, 0.3974609375, 0, 
289, 1318935734, -57.31751251220703, -76.51566314697266, 93.05282592773438, 5.663455486297607, -3.3722238540649414, 2.0812721252441406, 2.9412569999694824, -0.43289342522621155, 0.6559805870056152, -0.5400390625, -0.01025390625, 0.38232421875, 0, 
290, 1318944067, -57.34821701049805, -76.53223419189453, 93.11283111572266, 8.529667854309082, -2.3831727504730225, 1.1487836837768555, 6.387857437133789, -3.797938346862793, 0.3106238543987274, -0.5400390625, -0.00830078125, 0.3701171875, 0, 
291, 1318952400, -57.37183380126953, -76.5423583984375, 93.14366912841797, 12.703397750854492, -0.600992739200592, 1.2490379810333252, 3.835552453994751, -2.7064130306243896, 0.50357586145401, -0.54150390625, -0.0126953125, 0.375, 0, 
292, 1318960733, -57.3602294921875, -76.53144073486328, 93.11849975585938, 12.890595436096191, -0.8168160915374756, 0.147647425532341, 1.5248922109603882, -0.01550941914319992, 1.7974276542663574, -0.54296875, -0.00927734375, 0.380859375, 0, 
293, 1318969066, -57.35688400268555, -76.51891326904297, 93.0978012084961, 9.49876594543457, -2.139026403427124, 1.8928955793380737, 1.0584313869476318, -0.01235886849462986, 2.0357167720794678, -0.54541015625, -0.0166015625, 0.39306640625, 0, 
294, 1318977399, -57.312889099121094, -76.5123291015625, 93.04720306396484, 6.1405158042907715, -3.2594659328460693, 0.9190410375595093, 2.4458518028259277, 0.29648473858833313, 0.9670396447181702, -0.541015625, -0.01513671875, 0.39208984375, 0, 
295, 1318985732, -57.33058166503906, -76.52604675292969, 93.08531951904297, 6.825771808624268, -2.9127719402313232, 2.563169002532959, 5.390976905822754, -3.1131160259246826, 0.2486630231142044, -0.53857421875, -0.0048828125, 0.37158203125, 0, 
296, 1318994065, -57.372440338134766, -76.54290008544922, 93.14608764648438, 11.419279098510742, -1.1873053312301636, 0.4498354494571686, 4.975386619567871, -3.8020880222320557, 0.270870566368103, -0.54150390625, -0.0107421875, 0.36865234375, 0, 
297, 1319002398, -57.34986877441406, -76.53752899169922, 93.1194839477539, 13.327828407287598, -0.6830618381500244, 0.8365621566772461, 2.6722562313079834, -0.3522341549396515, 1.2004367113113403, -0.5419921875, -0.01171875, 0.37939453125, 0, 
298, 1319010731, -57.356021881103516, -76.52557373046875, 93.10535430908203, 10.946718215942383, -1.4571797847747803, 1.240238904953003, 0.6878190040588379, -0.2058487832546234, 2.0689384937286377, -0.54345703125, -0.01171875, 0.38623046875, 0, 
299, 1319019064, -57.322635650634766, -76.5165786743164, 93.06163787841797, 7.188795566558838, -2.794356346130371, 0.9245144724845886, 1.9767529964447021, 0.29894375801086426, 1.32853364944458, -0.546875, -0.0166015625, 0.39794921875, 0, 
300, 1319027397, -57.31269073486328, -76.51982879638672, 93.05624389648438, 5.881803512573242, -3.2955548763275146, 2.492269992828369, 3.6324055194854736, -1.4074124097824097, 0.6529836654663086, -0.5419921875, -0.0087890625, 0.384765625, 0, 
301, 1319035730, -57.347434997558594, -76.53759002685547, 93.11743927001953, 9.789011001586914, -1.9582545757293701, 0.5905045866966248, 6.038658618927002, -3.917402982711792, 0.19033938646316528, -0.54638671875, -0.0107421875, 0.37060546875, 0, 
302, 1319044063, -57.35060501098633, -76.54280090332031, 93.12349700927734, 13.135440826416016, -0.48928433656692505, 1.6301071643829346, 3.399930953979492, -1.792189598083496, 0.6457347869873047, -0.5400390625, -0.01318359375, 0.3798828125, 0, 
303, 1319052396, -57.350914001464844, -76.53244018554688, 93.10610961914062, 12.079367637634277, -1.1498031616210938, 0.2451690137386322, 1.0009018182754517, -0.24542278051376343, 1.8456848859786987, -0.544921875, -0.013671875, 0.384765625, 0, 
304, 1319060729, -57.331077575683594, -76.52001190185547, 93.07521057128906, 8.648717880249023, -2.346544027328491, 1.5482220649719238, 1.847452163696289, 0.21930906176567078, 1.8653053045272827, -0.54296875, -0.017578125, 0.3984375, 0, 
305, 1319069062, -57.29301071166992, -76.51768493652344, 93.03059387207031, 5.82884407043457, -3.192917823791504, 1.6246931552886963, 2.494877338409424, -0.12142426520586014, 0.6444541215896606, -0.54296875, -0.00927734375, 0.39306640625, 0, 
306, 1319077395, -57.3195915222168, -76.53315734863281, 93.08525848388672, 7.94157600402832, -2.602611541748047, 1.6815952062606812, 6.258275032043457, -3.614591598510742, 0.32760608196258545, -0.5419921875, -0.00830078125, 0.3740234375, 0, 
307, 1319085728, -57.35451889038086, -76.54618835449219, 93.12889862060547, 12.239967346191406, -0.8286105394363403, 1.0874426364898682, 3.9698989391326904, -3.1939797401428223, 0.40944355726242065, -0.54248046875, -0.00927734375, 0.37646484375, 0, 
308, 1319094061, -57.334781646728516, -76.5367202758789, 93.10029602050781, 13.023124694824219, -0.8303660154342651, 0.28782516717910767, 2.102006435394287, -0.02836776338517666, 1.5949727296829224, -0.54248046875, -0.0107421875, 0.37939453125, 0, 
309, 1319102394, -57.33405685424805, -76.52511596679688, 93.08072662353516, 10.036264419555664, -1.8377964496612549, 1.8209983110427856, 0.8695008158683777, -0.1135350912809372, 1.9367178678512573, -0.5439453125, -0.015625, 0.39501953125, 0, 
310, 1319110727, -57.2895622253418, -76.51689910888672, 93.0296401977539, 6.576916694641113, -3.0050487518310547, 0.6209938526153564, 2.4523580074310303, 0.4234801232814789, 1.1350178718566895, -0.54052734375, -0.01611328125, 0.39892578125, 0, 
311, 1319119060, -57.29925537109375, -76.52700805664062, 93.05419921875, 6.37233829498291, -3.0600690841674805, 2.963653087615967, 4.772905349731445, -2.547860860824585, 0.42271173000335693, -0.5380859375, -0.00537109375, 0.3759765625, 0, 
312, 1319127393, -57.33848190307617, -76.54396057128906, 93.11359405517578, 10.780450820922852, -1.5327690839767456, 0.1756150722503662, 5.292361736297607, -3.818685293197632, 0.2515573799610138, -0.54248046875, -0.0087890625, 0.37353515625, 0, 
313, 1319135726, -57.32372283935547, -76.54154968261719, 93.09797668457031, 13.385196685791016, -0.4764278531074524, 1.2790944576263428, 3.019252300262451, -0.8023275136947632, 1.069061279296875, -0.54052734375, -0.01171875, 0.3798828125, 0, 
314, 1319144059, -57.335697174072266, -76.52882385253906, 93.08820343017578, 11.394149780273438, -1.3036723136901855, 0.9449208378791809, 0.49453407526016235, -0.2619439959526062, 2.211174488067627, -0.541015625, -0.01416015625, 0.3876953125, 0, 
315, 1319152392, -57.3087043762207, -76.51756286621094, 93.05241394042969, 7.68186616897583, -2.7221665382385254, 1.0200315713882446, 2.1325643062591553, 0.24902160465717316, 1.6589829921722412, -0.54248046875, -0.01904296875, 0.3994140625, 0, 
316, 1319160725, -57.29109573364258, -76.5194320678711, 93.03561401367188, 5.763396739959717, -3.3058838844299316, 2.345712423324585, 3.223987102508545, -1.0357756614685059, 0.6391776204109192, -0.54296875, -0.0107421875, 0.38720703125, 0, 
317, 1319169058, -57.32377624511719, -76.53692626953125, 93.09769439697266, 9.027990341186523, -2.1578421592712402, 0.7657931447029114, 6.388702392578125, -3.9125876426696777, 0.24051767587661743, -0.541015625, -0.0078125, 0.3720703125, 0, 
318, 1319177391, -57.3423957824707, -76.54459381103516, 93.12129974365234, 12.876254081726074, -0.5726894736289978, 1.4444600343704224, 3.5892460346221924, -2.3763480186462402, 0.6474766731262207, -0.54345703125, -0.01318359375, 0.3798828125, 0, 
319, 1319185724, -57.339508056640625, -76.53376007080078, 93.10317993164062, 12.518935203552246, -1.0540226697921753, 0.23974202573299408, 1.303713321685791, -0.19803646206855774, 1.8837990760803223, -0.54248046875, -0.01025390625, 0.384765625, 0, 
320, 1319194057, -57.33519744873047, -76.52185821533203, 93.08356475830078, 9.1459379196167, -2.057971477508545, 1.6817246675491333, 1.2959777116775513, -0.08028782159090042, 1.9791862964630127, -0.54296875, -0.01708984375, 0.3935546875, 0, 
321, 1319202390, -57.297611236572266, -76.51604461669922, 93.037841796875, 6.058794975280762, -3.1104185581207275, 1.154049277305603, 2.248955249786377, 0.12837854027748108, 0.9574088454246521, -0.54150390625, -0.013671875, 0.3896484375, 0, 
322, 1319210723, -57.3243522644043, -76.52916717529297, 93.08670806884766, 7.2796454429626465, -2.9414350986480713, 2.451716184616089, 5.560388565063477, -3.314903974533081, 0.4883866012096405, -0.53857421875, -0.0078125, 0.37158203125, 0, 
323, 1319219056, -57.363182067871094, -76.54454803466797, 93.1410140991211, 11.695294380187988, -1.1874219179153442, 0.491912841796875, 4.748750686645508, -3.5877468585968018, 0.3420012295246124, -0.54541015625, -0.0107421875, 0.3779296875, 0, 
324, 1319227389, -57.34298324584961, -76.5376968383789, 93.11668395996094, 13.205301284790039, -0.618873655796051, 0.7548993825912476, 2.655402183532715, -0.3081777095794678, 1.3896749019622803, -0.548828125, -0.01611328125, 0.39208984375, 0, 
325, 1319235722, -57.353965759277344, -76.52604675292969, 93.10743713378906, 10.652817726135254, -1.5619148015975952, 1.4671666622161865, 0.6723225116729736, -0.354898065328598, 2.098292589187622, -0.55029296875, -0.01953125, 0.400390625, 0, 
326, 1319244055, -57.31171417236328, -76.5157470703125, 93.05645751953125, 6.980611801147461, -2.981109857559204, 0.5458935499191284, 2.189300298690796, 0.5534468293190002, 1.3380365371704102, -0.54736328125, -0.02099609375, 0.412109375, 0, 
327, 1319252388, -57.311092376708984, -76.5230484008789, 93.065673828125, 6.0441107749938965, -3.223336696624756, 2.8577535152435303, 4.2206621170043945, -2.013266086578369, 0.4672292470932007, -0.546875, -0.01123046875, 0.392578125, 0, 
328, 1319260721, -57.35177230834961, -76.54137420654297, 93.13114166259766, 10.118550300598145, -1.6828910112380981, 0.35604625940322876, 5.756594181060791, -4.025007724761963, 0.21154795587062836, -0.548828125, -0.01123046875, 0.38232421875, 0, 
329, 1319269054, -57.34877014160156, -76.54122161865234, 93.12970733642578, 13.310643196105957, -0.4247315526008606, 1.398201823234558, 3.260282039642334, -1.2802379131317139, 1.0568432807922363, -0.54833984375, -0.013671875, 0.388671875, 0, 
330, 1319277387, -57.355735778808594, -76.52782440185547, 93.11363983154297, 11.892203330993652, -1.2672839164733887, 0.6979212164878845, 0.3597519099712372, -0.07017020136117935, 2.179745674133301, -0.54736328125, -0.0146484375, 0.39306640625, 0, 
331, 1319285720, -57.33369445800781, -76.51728820800781, 93.08426666259766, 8.225972175598145, -2.696885108947754, 1.2618879079818726, 2.287914752960205, 0.04859020188450813, 1.682676076889038, -0.5458984375, -0.0166015625, 0.40576171875, 0, 
332, 1319294053, -57.305118560791016, -76.51636505126953, 93.04590606689453, 5.785789489746094, -3.1988070011138916, 1.8749161958694458, 2.9435107707977295, -0.5325583219528198, 0.7082847952842712, -0.5458984375, -0.01416015625, 0.39892578125, 0, 
333, 1319302386, -57.3387336730957, -76.53333282470703, 93.1063232421875, 8.337711334228516, -2.3638622760772705, 1.417173147201538, 6.146698951721191, -3.8467071056365967, 0.28324222564697266, -0.54541015625, -0.01025390625, 0.38037109375, 0, 
334, 1319310719, -57.368534088134766, -76.5436782836914, 93.14315795898438, 12.567423820495605, -0.7077621221542358, 0.9823585748672485, 3.7932634353637695, -2.859893560409546, 0.5783438086509705, -0.54443359375, -0.01708984375, 0.38330078125, 0, 
335, 1319319052, -57.35704803466797, -76.53389739990234, 93.12124633789062, 12.8397855758667, -1.0202662944793701, 0.495048463344574, 1.8882043361663818, -0.17652049660682678, 1.719637155532837, -0.5478515625, -0.0126953125, 0.3896484375, 0, 
336, 1319327385, -57.35929489135742, -76.52230834960938, 93.08258056640625, 9.66550350189209, -1.8540202379226685, 1.5114802122116089, 0.8567450046539307, -0.1658649891614914, 1.9933254718780518, -0.5439453125, -0.02099609375, 0.4013671875, 0, 
337, 1319335718, -57.318824768066406, -76.51457977294922, 93.03480529785156, 6.4551167488098145, -3.00569486618042, 0.8886277675628662, 2.3521552085876465, 0.3040409982204437, 1.120904564857483, -0.546875, -0.01806640625, 0.4013671875, 0, 
338, 1319344051, -57.34020233154297, -76.52511596679688, 93.0483627319336, 6.8248443603515625, -3.098173141479492, 2.86454439163208, 4.7491350173950195, -2.848827838897705, 0.5631032586097717, -0.5439453125, -0.0107421875, 0.38427734375, 0, 
339, 1319352384, -57.377723693847656, -76.54167175292969, 93.09716033935547, 11.108722686767578, -1.535172462463379, -0.013234024867415428, 5.332396984100342, -3.7466068267822266, 0.2796818017959595, -0.54541015625, -0.0107421875, 0.37939453125, 0, 
340, 1319360717, -57.3590202331543, -76.53809356689453, 93.07709503173828, 13.256189346313477, -0.3584667444229126, 1.3062398433685303, 2.9719173908233643, -0.6225411891937256, 1.114372968673706, -0.54638671875, -0.013671875, 0.38525390625, 0, 
341, 1319369050, -57.37456512451172, -76.5257568359375, 93.06898498535156, 10.943199157714844, -1.4101359844207764, 1.1163328886032104, 0.2559630572795868, -0.3372498154640198, 2.1837158203125, -0.54296875, -0.0146484375, 0.39453125, 0, 
342, 1319377383, -57.340362548828125, -76.51546478271484, 93.04080963134766, 7.44569206237793, -2.9716734886169434, 0.6655033230781555, 2.3836352825164795, 0.31994742155075073, 1.5042215585708618, -0.5458984375, -0.02099609375, 0.4033203125, 0, 
343, 1319385716, -57.32857131958008, -76.51850128173828, 93.03182220458984, 6.029064655303955, -3.23571515083313, 2.788210153579712, 3.4332549571990967, -1.3107444047927856, 0.6164577603340149, -0.54248046875, -0.00927734375, 0.390625, 0, 
344, 1319394049, -57.36805725097656, -76.53631591796875, 93.09766387939453, 9.54045295715332, -1.8578873872756958, 0.4516065716743469, 6.125593662261963, -4.035971164703369, 0.2923096716403961, -0.54638671875, -0.0107421875, 0.380859375, 0, 
345, 1319402382, -57.374149322509766, -76.5405044555664, 93.1054458618164, 12.980754852294922, -0.5706028938293457, 1.4437768459320068, 3.2483973503112793, -1.769520878791809, 0.7630481123924255, -0.5498046875, -0.01318359375, 0.38671875, 0, 
346, 1319410715, -57.372379302978516, -76.52804565429688, 93.08613586425781, 12.262914657592773, -1.2501336336135864, 0.37927499413490295, 1.027053952217102, -0.06525225937366486, 2.025855541229248, -0.54541015625, -0.01416015625, 0.38916015625, 0, 
347, 1319419048, -57.3617057800293, -76.51741027832031, 93.06332397460938, 8.723593711853027, -2.2880046367645264, 1.6422722339630127, 1.6874146461486816, -0.10049745440483093, 1.7907167673110962, -0.54736328125, -0.0205078125, 0.404296875, 0, 
348, 1319427381, -57.320068359375, -76.5125961303711, 93.02031707763672, 5.9392499923706055, -3.085747718811035, 1.2122693061828613, 2.639802932739258, 0.10053586959838867, 0.8699874877929688, -0.54541015625, -0.0146484375, 0.4013671875, 0, 
349, 1319435714, -57.34491729736328, -76.52741241455078, 93.06929779052734, 7.797433853149414, -2.701070547103882, 2.314495325088501, 5.802418231964111, -3.439133405685425, 0.30583393573760986, -0.5458984375, -0.0078125, 0.380859375, 0, 
350, 1319444047, -57.37729263305664, -76.54029083251953, 93.11376953125, 12.078897476196289, -1.072204351425171, 0.6161463260650635, 4.494991302490234, -3.216853380203247, 0.4616453945636749, -0.54296875, -0.01123046875, 0.384765625, 0, 
351, 1319452380, -57.35096740722656, -76.5312728881836, 93.08074951171875, 13.021573066711426, -0.715673565864563, 0.6258665323257446, 2.376258134841919, 0.04787300154566765, 1.4895445108413696, -0.54443359375, -0.013671875, 0.390625, 0, 
352, 1319460713, -57.35548782348633, -76.51827239990234, 93.06465148925781, 10.202847480773926, -1.6170923709869385, 1.6316540241241455, 0.6453250050544739, -0.10477501899003983, 2.1279537677764893, -0.54833984375, -0.01806640625, 0.40185546875, 0, 
353, 1319469046, -57.31480407714844, -76.50927734375, 93.01647186279297, 6.701187610626221, -3.0605766773223877, 0.6502609252929688, 2.3324320316314697, 0.39059147238731384, 1.239498496055603, -0.546875, -0.015625, 0.40478515625, 0, 
354, 1319477379, -57.31978225708008, -76.51862335205078, 93.03411865234375, 6.359198093414307, -3.262509822845459, 2.907055139541626, 4.533693790435791, -2.333418369293213, 0.40283507108688354, -0.54443359375, -0.01220703125, 0.3857421875, 0, 
355, 1319485712, -57.35845947265625, -76.53631591796875, 93.09445190429688, 10.563200950622559, -1.4924386739730835, 0.1326414793729782, 5.466128826141357, -3.8900718688964844, 0.18831585347652435, -0.544921875, -0.01025390625, 0.38037109375, 0, 
356, 1319494045, -57.352134704589844, -76.53450775146484, 93.08818817138672, 13.269851684570312, -0.31722909212112427, 1.410704493522644, 3.099245548248291, -1.050580620765686, 1.1628862619400024, -0.54541015625, -0.01318359375, 0.3857421875, 0, 
357, 1319502378, -57.364192962646484, -76.52198028564453, 93.07659149169922, 11.524995803833008, -1.3605170249938965, 0.7820529937744141, 0.27138280868530273, -0.23205216228961945, 2.164351463317871, -0.5478515625, -0.01513671875, 0.390625, 0, 
358, 1319510711, -57.32999801635742, -76.51102447509766, 93.03392791748047, 7.8971686363220215, -2.799105405807495, 1.0966699123382568, 2.195011854171753, 0.38923391699790955, 1.523406744003296, -0.546875, -0.0185546875, 0.4052734375, 0, 
359, 1319519044, -57.30965805053711, -76.51221466064453, 93.01284790039062, 5.772916316986084, -3.25942325592041, 2.342416524887085, 3.0500919818878174, -0.9042466282844543, 0.6210939884185791, -0.54345703125, -0.0107421875, 0.39111328125, 0, 
360, 1319527377, -57.34860610961914, -76.52997589111328, 93.0799560546875, 8.92151927947998, -2.232720375061035, 0.9680124521255493, 6.397078514099121, -4.075647830963135, 0.3279646933078766, -0.54248046875, -0.009765625, 0.3798828125, 0, 
361, 1319535710, -57.36764144897461, -76.53738403320312, 93.1037826538086, 12.83601188659668, -0.5389312505722046, 1.3416739702224731, 3.563324451446533, -2.365795135498047, 0.6706319451332092, -0.544921875, -0.01318359375, 0.3818359375, 0, 
362, 1319544043, -57.357933044433594, -76.52583312988281, 93.07860565185547, 12.556323051452637, -1.0157185792922974, 0.20488089323043823, 1.297796607017517, 0.025895994156599045, 1.8616172075271606, -0.54541015625, -0.015625, 0.3916015625, 0, 
363, 1319552376, -57.3466796875, -76.51448059082031, 93.05021667480469, 9.104548454284668, -2.14564847946167, 1.6313526630401611, 1.4068360328674316, 0.03319604694843292, 1.8372321128845215, -0.54638671875, -0.02001953125, 0.40185546875, 0, 
364, 1319560709, -57.30777359008789, -76.50816345214844, 93.0037841796875, 6.0043206214904785, -3.321307897567749, 1.2770086526870728, 2.319343328475952, 0.17963264882564545, 0.9946776628494263, -0.54443359375, -0.015625, 0.39794921875, 0, 
365, 1319569042, -57.33238220214844, -76.52213287353516, 93.05377960205078, 7.262925624847412, -2.7476966381073, 2.2059028148651123, 5.948675155639648, -3.409395456314087, 0.4107498526573181, -0.54345703125, -0.00732421875, 0.38134765625, 0, 
366, 1319577375, -57.3798942565918, -76.53728485107422, 93.11048126220703, 11.847003936767578, -0.9253913760185242, 0.7548694610595703, 4.168153285980225, -3.664872169494629, 0.42094436287879944, -0.54443359375, -0.013671875, 0.380859375, 0, 
367, 1319585708, -57.35957336425781, -76.52818298339844, 93.08421325683594, 13.313353538513184, -0.6840813159942627, 0.5696861147880554, 2.441267251968384, -0.11591722071170807, 1.5912587642669678, -0.54443359375, -0.013671875, 0.38330078125, 0, 
368, 1319594041, -57.36882400512695, -76.51741790771484, 93.07244873046875, 10.528472900390625, -1.7863116264343262, 1.6881837844848633, 0.588999330997467, -0.34129688143730164, 1.97982656955719, -0.541015625, -0.01416015625, 0.3896484375, 0, 
369, 1319602374, -57.32215881347656, -76.50906372070312, 93.01788330078125, 6.741421222686768, -3.0397517681121826, 0.5408579707145691, 2.3043079376220703, 0.513770341873169, 1.1002339124679565, -0.5458984375, -0.01416015625, 0.39697265625, 0, 
370, 1319610707, -57.322696685791016, -76.51703643798828, 93.03036499023438, 6.063520908355713, -3.1081795692443848, 2.948805809020996, 4.46379280090332, -2.1380841732025146, 0.4407441318035126, -0.5390625, -0.00732421875, 0.37646484375, 0, 
371, 1319619040, -57.37123489379883, -76.53571319580078, 93.1005859375, 10.418526649475098, -1.588781476020813, 0.1554519236087799, 5.436185836791992, -4.185276031494141, 0.23831482231616974, -0.54345703125, -0.0048828125, 0.37109375, 0, 
372, 1319627373, -57.35801696777344, -76.53463745117188, 93.09021759033203, 13.455772399902344, -0.46491819620132446, 1.339323878288269, 3.4497761726379395, -1.0014523267745972, 1.0286418199539185, -0.5390625, -0.01318359375, 0.37890625, 0, 
373, 1319635706, -57.36735916137695, -76.52228546142578, 93.07723999023438, 11.8351411819458, -1.3840547800064087, 0.8450063467025757, 0.43003737926483154, -0.21893766522407532, 2.116478681564331, -0.54248046875, -0.013671875, 0.384765625, 0, 
374, 1319644039, -57.33815383911133, -76.51262664794922, 93.03844451904297, 7.911646366119385, -2.652143955230713, 1.027618169784546, 2.049574375152588, 0.2242782562971115, 1.4608310461044312, -0.54052734375, -0.01953125, 0.3984375, 0, 
375, 1319652372, -57.32173538208008, -76.51380157470703, 93.02083587646484, 5.465082168579102, -3.3789210319519043, 2.4302775859832764, 2.9883615970611572, -0.9733538627624512, 0.6925064325332642, -0.54052734375, -0.00927734375, 0.3837890625, 0, 
376, 1319660705, -57.36125564575195, -76.53162384033203, 93.09033203125, 8.790217399597168, -2.220566749572754, 0.7968425750732422, 6.432248115539551, -4.115939140319824, 0.30929189920425415, -0.54052734375, -0.0087890625, 0.3662109375, 0, 
377, 1319669038, -57.3809814453125, -76.5387191772461, 93.11479949951172, 12.970662117004395, -0.4416502118110657, 1.4534697532653809, 3.5585861206054688, -2.3606207370758057, 0.71645587682724, -0.541015625, -0.0107421875, 0.37353515625, 0, 
378, 1319677371, -57.374717712402344, -76.52680206298828, 93.09211730957031, 12.734813690185547, -0.9399107694625854, 0.07808913290500641, 1.1771020889282227, -0.007133563980460167, 1.9414821863174438, -0.54296875, -0.01220703125, 0.37939453125, 0, 
379, 1319685704, -57.36673355102539, -76.51569366455078, 93.06954193115234, 9.25860595703125, -2.241373300552368, 1.7932049036026, 1.3929277658462524, -0.07285969704389572, 1.8459413051605225, -0.5400390625, -0.01611328125, 0.39306640625, 0, 
380, 1319694037, -57.32453536987305, -76.51042175292969, 93.01913452148438, 5.81992769241333, -3.370882034301758, 1.2497435808181763, 2.2540526390075684, 0.21633782982826233, 0.8459613919258118, -0.5390625, -0.01416015625, 0.38525390625, 0, 
381, 1319702370, -57.345970153808594, -76.52599334716797, 93.07029724121094, 7.177825450897217, -2.769505023956299, 2.149501323699951, 6.472743034362793, -3.529526472091675, 0.27624955773353577, -0.5380859375, -0.00537109375, 0.36767578125, 0, 
382, 1319710703, -57.399818420410156, -76.54307556152344, 93.13611602783203, 11.964590072631836, -0.8324698209762573, 0.8722434639930725, 4.284672260284424, -3.979158878326416, 0.3310896158218384, -0.54296875, -0.00927734375, 0.37255859375, 0, 
383, 1319719036, -57.38044738769531, -76.53382110595703, 93.10798645019531, 13.394415855407715, -0.6827594637870789, 0.3046738803386688, 2.111022710800171, -0.06420207768678665, 1.5763766765594482, -0.53955078125, -0.009765625, 0.37353515625, 0, 
384, 1319727369, -57.3870849609375, -76.52200317382812, 93.09469604492188, 10.515700340270996, -1.7472336292266846, 1.6698945760726929, 0.7238582968711853, -0.24127331376075745, 2.055363178253174, -0.541015625, -0.0166015625, 0.388671875, 0, 
385, 1319735702, -57.339874267578125, -76.51314544677734, 93.03877258300781, 6.691592216491699, -3.027153491973877, 0.5775302052497864, 2.2089972496032715, 0.5694812536239624, 1.1138861179351807, -0.5439453125, -0.01318359375, 0.390625, 0, 
386, 1319744035, -57.343482971191406, -76.52123260498047, 93.05529022216797, 5.9841156005859375, -3.1983702182769775, 3.04726243019104, 4.5101799964904785, -2.215362310409546, 0.506470263004303, -0.53955078125, -0.00732421875, 0.37158203125, 0, 
387, 1319752368, -57.390869140625, -76.54071044921875, 93.11328887939453, 10.498931884765625, -1.4889644384384155, 0.1393796056509018, 5.475989818572998, -4.208815574645996, 0.15253275632858276, -0.54150390625, -0.00830078125, 0.36572265625, 0, 
388, 1319760701, -57.381935119628906, -76.53873443603516, 93.10481262207031, 13.525493621826172, -0.4743949770927429, 1.3574986457824707, 3.1519851684570312, -0.9972518086433411, 1.1319698095321655, -0.54296875, -0.0126953125, 0.376953125, 0, 
389, 1319769034, -57.38856887817383, -76.52729797363281, 93.0882797241211, 11.76196002960205, -1.386204481124878, 0.8447600603103638, 0.34276968240737915, -0.1944248527288437, 1.9708871841430664, -0.5390625, -0.015625, 0.384765625, 0, 
390, 1319777367, -57.351932525634766, -76.5175552368164, 93.03590393066406, 7.854847431182861, -2.685631275177002, 0.9339368343353271, 2.0728061199188232, 0.4093923270702362, 1.3623697757720947, -0.54443359375, -0.01611328125, 0.39453125, 0, 
391, 1319785700, -57.3323974609375, -76.518798828125, 93.0164794921875, 5.421324729919434, -3.280409812927246, 2.6255223751068115, 3.1461453437805176, -0.9475346803665161, 0.6432759165763855, -0.53662109375, -0.0078125, 0.38134765625, 0, 
392, 1319794033, -57.37290573120117, -76.53633880615234, 93.08280944824219, 8.888060569763184, -2.1349973678588867, 0.6631711721420288, 6.217368125915527, -4.062558650970459, 0.34866097569465637, -0.5390625, -0.0068359375, 0.3681640625, 0, 
393, 1319802366, -57.39067077636719, -76.54253387451172, 93.10346221923828, 13.051246643066406, -0.4775087833404541, 1.5444834232330322, 3.600285768508911, -2.2539119720458984, 0.7833601832389832, -0.53955078125, -0.0107421875, 0.37255859375, 0, 
394, 1319810699, -57.38896560668945, -76.53024291992188, 93.08429718017578, 12.809404373168945, -1.025635838508606, 0.06618327647447586, 1.0376325845718384, -0.07800815254449844, 2.01776123046875, -0.5419921875, -0.0126953125, 0.37939453125, 0, 
395, 1319819032, -57.37372589111328, -76.51897430419922, 93.0555191040039, 9.119476318359375, -2.340888261795044, 1.8154940605163574, 1.5389033555984497, 0.08119712769985199, 1.7627204656600952, -0.54345703125, -0.0166015625, 0.392578125, 0, 
396, 1319827365, -57.32896041870117, -76.5141830444336, 93.00503540039062, 5.614123344421387, -3.291278123855591, 1.2231487035751343, 2.4179840087890625, 0.21574872732162476, 0.7825405597686768, -0.5380859375, -0.0146484375, 0.3857421875, 0, 
397, 1319835698, -57.352752685546875, -76.53013610839844, 93.05754089355469, 7.229557514190674, -2.724032163619995, 2.080852746963501, 6.344030857086182, -3.594970703125, 0.2430790662765503, -0.5400390625, -0.00634765625, 0.3662109375, 0, 
398, 1319844031, -57.39519500732422, -76.54423522949219, 93.11285400390625, 12.047239303588867, -0.767328679561615, 0.9145481586456299, 4.082242965698242, -3.4588053226470947, 0.4446887671947479, -0.54150390625, -0.00830078125, 0.37158203125, 0, 
399, 1319852364, -57.37321472167969, -76.53402709960938, 93.08319854736328, 13.461077690124512, -0.7357705235481262, 0.2804735600948334, 2.2457025051116943, 0.03283745050430298, 1.6456378698349, -0.54052734375, -0.0107421875, 0.3779296875, 0, 
400, 1319860697, -57.38063049316406, -76.52101135253906, 93.07733917236328, 10.439538955688477, -1.7623393535614014, 1.7323412895202637, 0.5248869061470032, -0.13756124675273895, 2.180001974105835, -0.54345703125, -0.01611328125, 0.39013671875, 0, 
401, 1319869030, -57.33128356933594, -76.51115417480469, 93.01903533935547, 6.502948760986328, -3.090182304382324, 0.6534243226051331, 2.1911442279815674, 0.6864871382713318, 1.1769741773605347, -0.54296875, -0.015625, 0.3974609375, 0, 
402, 1319877363, -57.3401985168457, -76.51982879638672, 93.05440521240234, 6.007021903991699, -3.199897289276123, 3.050680637359619, 4.772060394287109, -2.44138240814209, 0.5542151927947998, -0.54150390625, -0.00830078125, 0.37158203125, 0, 
403, 1319885696, -57.39058303833008, -76.5395736694336, 93.12667846679688, 10.626602172851562, -1.4967982769012451, 0.1595749408006668, 5.504909038543701, -4.303306579589844, 0.1843712478876114, -0.541015625, -0.0107421875, 0.3701171875, 0, 
404, 1319894029, -57.37930679321289, -76.53738403320312, 93.11537170410156, 13.586700439453125, -0.35795629024505615, 1.2806081771850586, 3.103267192840576, -0.9175660014152527, 1.111478567123413, -0.54345703125, -0.01220703125, 0.3740234375, 0, 
405, 1319902362, -57.3923454284668, -76.52458953857422, 93.1050033569336, 11.637110710144043, -1.3660930395126343, 0.8514315485954285, 0.29610052704811096, -0.2517494857311249, 2.199929714202881, -0.54296875, -0.01416015625, 0.38525390625, 0, 
406, 1319910695, -57.357765197753906, -76.51318359375, 93.06224822998047, 7.630641937255859, -2.8488147258758545, 0.9528598785400391, 2.1463446617126465, 0.4478648900985718, 1.5686925649642944, -0.54248046875, -0.01708984375, 0.3974609375, 0, 
407, 1319919028, -57.338836669921875, -76.5153579711914, 93.04520416259766, 5.459202289581299, -3.3891308307647705, 2.655151128768921, 3.351802349090576, -1.0611850023269653, 0.5919963121414185, -0.54248046875, -0.0068359375, 0.37744140625, 0, 
408, 1319927361, -57.37651824951172, -76.53288269042969, 93.1106185913086, 9.108784675598145, -1.9751156568527222, 0.6044422388076782, 6.180305480957031, -3.9911458492279053, 0.2882882356643677, -0.53857421875, -0.0107421875, 0.3681640625, 0, 
409, 1319935694, -57.391353607177734, -76.53838348388672, 93.1300277709961, 13.137413024902344, -0.474809855222702, 1.4964373111724854, 3.452824354171753, -2.1054258346557617, 0.7977553009986877, -0.54150390625, -0.0107421875, 0.37646484375, 0, 
410, 1319944027, -57.39204406738281, -76.5266342163086, 93.11255645751953, 12.735305786132812, -1.1913642883300781, 0.2601214349269867, 0.9458824992179871, -0.1540568321943283, 1.9856410026550293, -0.54345703125, -0.015625, 0.384765625, 0, 
411, 1319952360, -57.37710189819336, -76.51514434814453, 93.08321380615234, 8.98585033416748, -2.2338268756866455, 1.6078073978424072, 1.440211534500122, 0.1099875345826149, 1.782008171081543, -0.54052734375, -0.0166015625, 0.3955078125, 0, 
412, 1319960693, -57.340087890625, -76.51061248779297, 93.0330810546875, 5.565792083740234, -3.195265531539917, 1.3956105709075928, 2.4427528381347656, 0.006941457279026508, 0.8779023885726929, -0.54345703125, -0.01220703125, 0.38916015625, 0, 
413, 1319969026, -57.37361526489258, -76.52544403076172, 93.09452056884766, 7.433716297149658, -2.7226202487945557, 2.0463669300079346, 6.215627670288086, -3.7316486835479736, 0.49537932872772217, -0.53857421875, -0.00732421875, 0.36865234375, 0, 
414, 1319977359, -57.41580581665039, -76.53972625732422, 93.15494537353516, 12.231728553771973, -0.8790086507797241, 0.901602029800415, 4.203347206115723, -3.490490436553955, 0.4341868758201599, -0.54443359375, -0.00830078125, 0.3759765625, 0, 
415, 1319985692, -57.39651870727539, -76.53040313720703, 93.13917541503906, 13.406081199645996, -0.7470598816871643, 0.3612141013145447, 2.226773500442505, -0.08115871250629425, 1.6048344373703003, -0.54443359375, -0.0107421875, 0.38232421875, 0, 
416, 1319994025, -57.39745330810547, -76.5183334350586, 93.11912536621094, 10.300910949707031, -1.7268543243408203, 1.6732404232025146, 0.6216062903404236, -0.0703238844871521, 1.9812865257263184, -0.54296875, -0.0185546875, 0.39013671875, 0, 
417, 1320002358, -57.3441162109375, -76.5091552734375, 93.056884765625, 6.320737361907959, -3.2152793407440186, 0.8493180871009827, 2.2061285972595215, 0.7354359030723572, 1.0439850091934204, -0.54296875, -0.0126953125, 0.3955078125, 0, 
418, 1320010691, -57.3552360534668, -76.52139282226562, 93.08599853515625, 6.099847793579102, -3.1762638092041016, 2.7975034713745117, 5.1330413818359375, -2.792604923248291, 0.28313973546028137, -0.53955078125, -0.0068359375, 0.37451171875, 0, 
419, 1320019024, -57.412322998046875, -76.5414047241211, 93.16424560546875, 10.879446983337402, -1.2674415111541748, 0.27854305505752563, 5.348943710327148, -4.462499141693115, 0.2248929738998413, -0.546875, -0.01318359375, 0.37548828125, 0, 
420, 1320027357, -57.399532318115234, -76.53706359863281, 93.14907836914062, 13.721455574035645, -0.34794750809669495, 1.0559264421463013, 2.899557113647461, -0.689368724822998, 1.295337438583374, -0.5498046875, -0.0146484375, 0.38818359375, 0, 
421, 1320035690, -57.409393310546875, -76.52498626708984, 93.13324737548828, 11.468975067138672, -1.5388100147247314, 1.131832242012024, 0.14039161801338196, -0.1816689521074295, 2.069194793701172, -0.5517578125, -0.01806640625, 0.39794921875, 0, 
422, 1320044023, -57.368568420410156, -76.51494598388672, 93.0862045288086, 7.488088607788086, -2.9120445251464844, 0.7760987877845764, 2.4785101413726807, 0.4342125654220581, 1.366186499595642, -0.548828125, -0.017578125, 0.40966796875, 0, 
423, 1320052356, -57.354759216308594, -76.51948547363281, 93.07501983642578, 5.466960906982422, -3.2751846313476562, 2.921727180480957, 3.4237520694732666, -1.353776216506958, 0.439745157957077, -0.5439453125, -0.01171875, 0.390625, 0, 
424, 1320060689, -57.397216796875, -76.53865051269531, 93.1470718383789, 9.239446640014648, -1.995102882385254, 0.4083178639411926, 6.384835243225098, -4.252693176269531, 0.22171683609485626, -0.54541015625, -0.00927734375, 0.3798828125, 0, 
425, 1320069022, -57.40471649169922, -76.54366302490234, 93.158935546875, 13.288918495178223, -0.3867759704589844, 1.4338293075561523, 3.5509519577026367, -1.9271507263183594, 0.7306715846061707, -0.548828125, -0.01171875, 0.38720703125, 0, 
426, 1320077355, -57.40997314453125, -76.53221893310547, 93.14634704589844, 12.574895858764648, -1.187101125717163, 0.3643999397754669, 0.9736483097076416, -0.2807704210281372, 2.042837619781494, -0.54931640625, -0.015625, 0.39208984375, 0, 
427, 1320085688, -57.39311218261719, -76.5215072631836, 93.11361694335938, 8.714898109436035, -2.3193018436431885, 1.3195807933807373, 1.2769207954406738, 0.1533011794090271, 1.6706883907318115, -0.546875, -0.01806640625, 0.408203125, 0, 
428, 1320094021, -57.35530471801758, -76.51749420166016, 93.07030487060547, 5.577113628387451, -3.3272171020507812, 1.5879371166229248, 2.5501019954681396, -0.04427420347929001, 0.8159158229827881, -0.5439453125, -0.01416015625, 0.3974609375, 0, 
429, 1320102354, -57.393436431884766, -76.53408813476562, 93.13672637939453, 7.660473346710205, -2.5751328468322754, 1.9447436332702637, 6.245007038116455, -3.9619460105895996, 0.3897974491119385, -0.54833984375, -0.009765625, 0.37890625, 0, 
430, 1320110687, -57.43834686279297, -76.54830169677734, 93.19075012207031, 12.375360488891602, -0.8320488929748535, 0.9472091197967529, 3.984140634536743, -3.5093936920166016, 0.44322875142097473, -0.54443359375, -0.01318359375, 0.38232421875, 0, 
431, 1320119020, -57.41889572143555, -76.53782653808594, 93.16258239746094, 13.345550537109375, -0.7064767479896545, 0.2897930443286896, 2.1154541969299316, 0.016854168847203255, 1.6980957984924316, -0.54931640625, -0.01025390625, 0.39111328125, 0, 
432, 1320127353, -57.425811767578125, -76.52726745605469, 93.15052032470703, 10.078165054321289, -1.9155676364898682, 1.9551140069961548, 0.8467553853988647, -0.34987765550613403, 1.9674550294876099, -0.54541015625, -0.021484375, 0.3994140625, 0, 
433, 1320135686, -57.38202667236328, -76.5186767578125, 93.10416412353516, 6.233736038208008, -3.25197172164917, 0.5833196043968201, 2.1937825679779053, 0.4784995913505554, 1.1606066226959229, -0.54736328125, -0.01611328125, 0.4033203125, 0, 
434, 1320144019, -57.389278411865234, -76.52986145019531, 93.13053894042969, 6.311803817749023, -2.9975993633270264, 2.7635204792022705, 5.274662971496582, -2.6718082427978516, 0.32268816232681274, -0.54541015625, -0.0078125, 0.38427734375, 0, 
435, 1320152352, -57.445796966552734, -76.5467529296875, 93.20497131347656, 11.034052848815918, -1.1718319654464722, 0.3964603841304779, 4.97064733505249, -4.1662702560424805, 0.48372483253479004, -0.54443359375, -0.01220703125, 0.37841796875, 0, 
436, 1320160685, -57.426509857177734, -76.5407485961914, 93.1832504272461, 13.596200942993164, -0.5940375328063965, 0.9241644740104675, 2.75171160697937, -0.3984166383743286, 1.336345911026001, -0.548828125, -0.0126953125, 0.38671875, 0, 
437, 1320169018, -57.43095779418945, -76.52731323242188, 93.16553497314453, 11.407125473022461, -1.5268551111221313, 1.1087702512741089, 0.4697650372982025, -0.03935627266764641, 2.1553356647491455, -0.544921875, -0.017578125, 0.39501953125, 0, 
438, 1320177351, -57.394161224365234, -76.51825714111328, 93.11795806884766, 7.368143081665039, -2.7891838550567627, 1.0642884969711304, 2.5620126724243164, 0.2708449065685272, 1.36101233959198, -0.54833984375, -0.017578125, 0.404296875, 0, 
439, 1320185684, -57.3860969543457, -76.52118682861328, 93.12344360351562, 5.49614143371582, -3.3111443519592285, 2.505215883255005, 3.209233283996582, -1.3438892364501953, 0.6667385697364807, -0.54443359375, -0.009765625, 0.39111328125, 0, 
440, 1320194017, -57.42439270019531, -76.53938293457031, 93.19200897216797, 9.426728248596191, -2.0575497150421143, 0.5628805756568909, 6.475151538848877, -4.116836071014404, 0.25455430150032043, -0.54296875, -0.01171875, 0.375, 0, 
441, 1320202350, -57.44047164916992, -76.54542541503906, 93.21040344238281, 13.275308609008789, -0.35620248317718506, 1.6529425382614136, 3.283872365951538, -2.148022174835205, 0.7288784980773926, -0.54541015625, -0.01220703125, 0.38330078125, 0, 
442, 1320210683, -57.4371452331543, -76.53314208984375, 93.1955795288086, 12.466997146606445, -1.1605496406555176, 0.008790724910795689, 1.1485421657562256, -0.054724808782339096, 2.017709970474243, -0.54248046875, -0.01416015625, 0.388671875, 0, 
443, 1320219016, -57.41400909423828, -76.52035522460938, 93.15766143798828, 8.791354179382324, -2.246196985244751, 1.6416935920715332, 1.423536777496338, 0.39427992701530457, 1.782853364944458, -0.54638671875, -0.02001953125, 0.40185546875, 0, 
444, 1320227349, -57.37902069091797, -76.51702880859375, 93.121337890625, 5.605216026306152, -3.434924602508545, 1.5563328266143799, 2.490830898284912, -0.12900610268115997, 0.8006497621536255, -0.54296875, -0.013671875, 0.392578125, 0, 
445, 1320235682, -57.41009521484375, -76.53348541259766, 93.19390106201172, 7.7066755294799805, -2.6570377349853516, 1.8228116035461426, 6.483757019042969, -3.826446533203125, 0.3375187814235687, -0.544921875, -0.0078125, 0.375, 0, 
446, 1320244015, -57.445892333984375, -76.54630279541016, 93.23709106445312, 12.388985633850098, -0.707907497882843, 0.9258652925491333, 3.811039924621582, -3.1717469692230225, 0.41290152072906494, -0.54541015625, -0.01171875, 0.3828125, 0, 
447, 1320252348, -57.42734909057617, -76.53571319580078, 93.20858001708984, 13.244579315185547, -0.6521066427230835, 0.3074100613594055, 1.9702470302581787, 0.03217148035764694, 1.706369161605835, -0.5419921875, -0.01220703125, 0.3857421875, 0, 
448, 1320260681, -57.426509857177734, -76.52357482910156, 93.20454406738281, 10.017229080200195, -1.9598270654678345, 1.756028175354004, 0.732464611530304, -0.043736305087804794, 1.9873573780059814, -0.54541015625, -0.0166015625, 0.39599609375, 0, 
449, 1320269014, -57.373268127441406, -76.51468658447266, 93.1429443359375, 6.264103889465332, -3.2258460521698, 0.7313925623893738, 2.271496295928955, 0.7024447321891785, 1.0322537422180176, -0.541015625, -0.01708984375, 0.39990234375, 0, 
450, 1320277347, -57.38716125488281, -76.52615356445312, 93.16048431396484, 6.392335414886475, -3.0109469890594482, 2.99410080909729, 5.195361137390137, -2.816375255584717, 0.40683090686798096, -0.54150390625, -0.0087890625, 0.3798828125, 0, 
451, 1320285680, -57.443572998046875, -76.54476165771484, 93.2278060913086, 11.092373847961426, -1.2529582977294922, 0.2242664098739624, 4.904049873352051, -4.258404731750488, 0.3015051484107971, -0.5419921875, -0.0107421875, 0.3818359375, 0, 
452, 1320294013, -57.41861343383789, -76.53923034667969, 93.20069122314453, 13.588254928588867, -0.5663575530052185, 0.9852744340896606, 2.901273250579834, -0.3270297944545746, 1.2145758867263794, -0.54541015625, -0.013671875, 0.38330078125, 0, 
453, 1320302346, -57.428253173828125, -76.5274658203125, 93.18746948242188, 11.358309745788574, -1.4972093105316162, 1.2731245756149292, 0.369613379240036, -0.25456708669662476, 2.051213502883911, -0.546875, -0.015625, 0.3955078125, 0, 
454, 1320310679, -57.39164352416992, -76.51835632324219, 93.15477752685547, 7.351404190063477, -2.8332455158233643, 0.7365594506263733, 2.1539266109466553, 0.35050514340400696, 1.3228471279144287, -0.54638671875, -0.01904296875, 0.40185546875, 0, 
455, 1320319012, -57.37331008911133, -76.52137756347656, 93.14063262939453, 5.523920059204102, -3.251798629760742, 2.6506614685058594, 3.616422176361084, -1.1869251728057861, 0.5403322577476501, -0.54638671875, -0.01123046875, 0.388671875, 0, 
456, 1320327345, -57.4172477722168, -76.53929138183594, 93.2107162475586, 9.447712898254395, -1.8994786739349365, 0.6001336574554443, 5.975186347961426, -4.12369966506958, 0.32427623867988586, -0.54248046875, -0.0087890625, 0.37744140625, 0, 
457, 1320335678, -57.426753997802734, -76.54391479492188, 93.2177963256836, 13.302309036254883, -0.47654303908348083, 1.4815806150436401, 3.416170358657837, -1.9115005731582642, 0.7989591360092163, -0.5458984375, -0.013671875, 0.3818359375, 0, 
458, 1320344011, -57.423927307128906, -76.53134155273438, 93.19554138183594, 12.505120277404785, -1.147695541381836, 0.3257697820663452, 0.8123041987419128, 0.010117622092366219, 1.9926337003707886, -0.5458984375, -0.01123046875, 0.39013671875, 0, 
459, 1320352344, -57.399208068847656, -76.51947021484375, 93.16028594970703, 8.705207824707031, -2.426304817199707, 1.608114242553711, 1.9213749170303345, 0.2732526659965515, 1.7313429117202759, -0.54638671875, -0.01953125, 0.40185546875, 0, 
460, 1320360677, -57.36363983154297, -76.51634979248047, 93.11962127685547, 5.466041564941406, -3.2825756072998047, 1.6182142496109009, 2.563318967819214, -0.14332446455955505, 0.7816185355186462, -0.54833984375, -0.01416015625, 0.3974609375, 0, 
461, 1320369010, -57.39462661743164, -76.53363037109375, 93.17972564697266, 7.720010757446289, -2.5889289379119873, 1.744123101234436, 6.36201286315918, -3.8586692810058594, 0.22307439148426056, -0.5439453125, -0.00830078125, 0.3798828125, 0, 
462, 1320377343, -57.42890930175781, -76.54598236083984, 93.24071502685547, 12.385671615600586, -0.6750993728637695, 1.0445997714996338, 4.11787223815918, -3.1612956523895264, 0.49335578083992004, -0.54345703125, -0.013671875, 0.3798828125, 0, 
463, 1320385676, -57.414981842041016, -76.53521728515625, 93.23621368408203, 13.281636238098145, -0.8407452702522278, 0.21079225838184357, 1.998268961906433, -0.07134845852851868, 1.8078782558441162, -0.54296875, -0.00927734375, 0.38525390625, 0, 
464, 1320394009, -57.41088104248047, -76.52159118652344, 93.21238708496094, 10.078794479370117, -1.7940326929092407, 1.730178713798523, 0.7801071405410767, 0.11749248951673508, 2.082104206085205, -0.53955078125, -0.01708984375, 0.39404296875, 0, 
465, 1320402342, -57.357730865478516, -76.51264953613281, 93.14993286132812, 6.294732093811035, -3.1369519233703613, 0.8077796101570129, 2.159741163253784, 0.7270600199699402, 1.0216494798660278, -0.5419921875, -0.0126953125, 0.3955078125, 0, 
466, 1320410675, -57.378047943115234, -76.5240707397461, 93.18977355957031, 6.284321308135986, -3.156013011932373, 2.94783353805542, 5.019647598266602, -2.93947696685791, 0.4930227994918823, -0.5380859375, -0.0048828125, 0.3720703125, 0, 
467, 1320419008, -57.42769241333008, -76.54237365722656, 93.25982666015625, 11.00772476196289, -1.3872357606887817, 0.20743481814861298, 5.288775444030762, -4.159560203552246, 0.2702814042568207, -0.54150390625, -0.00830078125, 0.3671875, 0, 
468, 1320427341, -57.41114044189453, -76.53738403320312, 93.24137115478516, 13.58219051361084, -0.34268802404403687, 1.1132551431655884, 2.897738456726074, -0.5589922666549683, 1.29405677318573, -0.5390625, -0.01123046875, 0.3759765625, 0, 
469, 1320435674, -57.42316436767578, -76.52559661865234, 93.22982025146484, 11.284768104553223, -1.4460361003875732, 1.1604572534561157, 0.343435674905777, -0.29391053318977356, 2.1074366569519043, -0.54345703125, -0.0146484375, 0.38134765625, 0, 
470, 1320444007, -57.38200378417969, -76.51516723632812, 93.18087005615234, 7.389023303985596, -2.9563698768615723, 0.6564100980758667, 2.2961113452911377, 0.5039600729942322, 1.3771238327026367, -0.5439453125, -0.0185546875, 0.39306640625, 0, 
471, 1320452340, -57.3718147277832, -76.51950073242188, 93.17546081542969, 5.548447132110596, -3.321155309677124, 2.971919536590576, 3.660811424255371, -1.4782612323760986, 0.539563775062561, -0.53955078125, -0.009765625, 0.375, 0, 
472, 1320460673, -57.414878845214844, -76.5380630493164, 93.25033569335938, 9.41037368774414, -1.8049781322479248, 0.20846247673034668, 6.096188545227051, -4.1663737297058105, 0.2693593502044678, -0.5400390625, -0.00732421875, 0.36962890625, 0, 
473, 1320469006, -57.42405700683594, -76.54234313964844, 93.26318359375, 13.317953109741211, -0.45298171043395996, 1.6772524118423462, 3.4003407955169678, -1.8843495845794678, 0.8213973045349121, -0.53955078125, -0.0107421875, 0.37646484375, 0, 
474, 1320477339, -57.4259033203125, -76.5301284790039, 93.2446060180664, 12.513751983642578, -1.2413697242736816, 0.229828342795372, 0.6785210967063904, -0.09880691766738892, 2.0130996704101562, -0.5419921875, -0.0126953125, 0.3818359375, 0, 
475, 1320485672, -57.40598678588867, -76.51985168457031, 93.21244812011719, 8.631081581115723, -2.3883957862854004, 1.5208652019500732, 1.7063690423965454, 0.09712918102741241, 1.6164120435714722, -0.5419921875, -0.01708984375, 0.39501953125, 0, 
476, 1320494005, -57.376163482666016, -76.51614379882812, 93.16952514648438, 5.4576416015625, -3.2210659980773926, 1.6898330450057983, 2.5478732585906982, -0.24032554030418396, 0.9237772226333618, -0.541015625, -0.0146484375, 0.3876953125, 0, 
477, 1320502338, -57.406803131103516, -76.53267669677734, 93.22811126708984, 7.735655784606934, -2.606454610824585, 1.8018966913223267, 6.229279041290283, -3.7722973823547363, 0.28249937295913696, -0.54248046875, -0.00439453125, 0.369140625, 0, 
478, 1320510671, -57.44601821899414, -76.54492950439453, 93.29637908935547, 12.52040958404541, -0.7523204684257507, 0.9972218871116638, 4.073816299438477, -3.2663402557373047, 0.5692764520645142, -0.5439453125, -0.00927734375, 0.37353515625, 0, 
479, 1320519004, -57.428306579589844, -76.53448486328125, 93.27728271484375, 13.294034004211426, -0.8373642563819885, 0.2687578499317169, 1.9045207500457764, 0.02259175293147564, 1.7104414701461792, -0.544921875, -0.01025390625, 0.380859375, 0, 
480, 1320527337, -57.42649459838867, -76.52265167236328, 93.2554702758789, 10.020055770874023, -1.8490161895751953, 1.8196922540664673, 0.7406867742538452, -0.045119475573301315, 1.9328244924545288, -0.54052734375, -0.015625, 0.390625, 0, 
481, 1320535670, -57.37565994262695, -76.5147705078125, 93.19710540771484, 6.122655391693115, -3.2918689250946045, 0.8529832363128662, 2.358302593231201, 0.5604650378227234, 0.9758512377738953, -0.54345703125, -0.015625, 0.39306640625, 0, 
482, 1320544003, -57.391212463378906, -76.52757263183594, 93.22184753417969, 6.322422981262207, -3.022538185119629, 2.698265790939331, 5.156350135803223, -2.9397072792053223, 0.2935391366481781, -0.53955078125, -0.00732421875, 0.3740234375, 0, 
483, 1320552336, -57.4415283203125, -76.54469299316406, 93.2906494140625, 11.159852981567383, -1.1456542015075684, 0.23738810420036316, 5.059810161590576, -4.051826000213623, 0.3693316578865051, -0.54052734375, -0.009765625, 0.36572265625, 0, 
484, 1320560669, -57.42684555053711, -76.53970336914062, 93.25028991699219, 13.670376777648926, -0.4056724011898041, 1.0620498657226562, 2.716543197631836, -0.563474714756012, 1.301254391670227, -0.54248046875, -0.01171875, 0.3779296875, 0, 
485, 1320569002, -57.4400749206543, -76.52772521972656, 93.23629760742188, 11.280333518981934, -1.6356006860733032, 1.106948733329773, 0.18803410232067108, -0.27590373158454895, 2.1313602924346924, -0.54150390625, -0.0146484375, 0.38623046875, 0, 
486, 1320577335, -57.40031433105469, -76.51734924316406, 93.19001770019531, 7.301438331604004, -2.907660484313965, 0.8980433344841003, 2.4372966289520264, 0.4364664852619171, 1.408219337463379, -0.5439453125, -0.01806640625, 0.39501953125, 0, 
487, 1320585668, -57.39280319213867, -76.52156829833984, 93.18561553955078, 5.539921283721924, -3.2871248722076416, 2.8391895294189453, 3.4598169326782227, -1.4938092231750488, 0.5683029890060425, -0.5390625, -0.0087890625, 0.380859375, 0, 
488, 1320594001, -57.4310302734375, -76.54049682617188, 93.25715637207031, 9.53286075592041, -1.9124164581298828, 0.43296530842781067, 6.321773052215576, -4.121446132659912, 0.17888982594013214, -0.53955078125, -0.00732421875, 0.36865234375, 0, 
489, 1320602334, -57.43482208251953, -76.54480743408203, 93.26358032226562, 13.375529289245605, -0.4378068745136261, 1.4089990854263306, 3.364173412322998, -1.7549464702606201, 0.7208870649337769, -0.54443359375, -0.009765625, 0.3759765625, 0, 
490, 1320610667, -57.43931579589844, -76.53340911865234, 93.25056457519531, 12.377442359924316, -1.1892788410186768, 0.3842719793319702, 1.012044072151184, -0.27400830388069153, 2.0291595458984375, -0.5400390625, -0.0126953125, 0.38134765625, 0, 
491, 1320619000, -57.42323684692383, -76.52375793457031, 93.22169494628906, 8.567886352539062, -2.327767848968506, 1.3200995922088623, 1.502018690109253, 0.013140101917088032, 1.600428581237793, -0.54345703125, -0.02001953125, 0.39306640625, 0, 
