sep=,
PacketCounter,SampleTimeFine,Euler_X,Euler_Y,Euler_Z,Acc_X,Acc_Y,Acc_Z,Gyr_X,Gyr_Y,Gyr_Z,
0, 1185713876, 94.58782958984375, -27.688627243041992, 116.38738250732422, 0, 0, 0, 0, 0, 0, 
1, 1185713876, 94.59008026123047, -27.685298919677734, 116.39096069335938, NaN, NaN, NaN, Infinity, Infinity, Infinity, 
2, 1185722209, 94.59410858154297, -27.67679214477539, 116.3954849243164, 4.69379997253418, 9.300577163696289, -0.18177884817123413, 2.2319345474243164, 1.5586390495300293, -0.5735796093940735, 
3, 1185730542, 94.5897216796875, -27.675323486328125, 116.39855194091797, 4.134990215301514, 9.431136131286621, -0.16045355796813965, 1.3580795526504517, 1.4323865175247192, 0.28853151202201843, 
4, 1185738875, 94.58631134033203, -27.68252944946289, 116.3942642211914, 4.085719108581543, 8.894094467163086, 0.07050921022891998, 0.8471267819404602, 0.7762265801429749, 1.3804919719696045, 
5, 1185747208, 94.58604431152344, -27.686494827270508, 116.38743591308594, 4.78797721862793, 8.16480541229248, -0.9946171045303345, 1.2315963506698608, 0.3231619894504547, 1.037491798400879, 
6, 1185755541, 94.58590698242188, -27.687206268310547, 116.39033508300781, 5.09771728515625, 8.098628044128418, -1.1116728782653809, 1.6381456851959229, 1.4747779369354248, 0.5422661304473877, 
7, 1185763874, 94.58902740478516, -27.678340911865234, 116.39372253417969, 4.851861476898193, 8.839056015014648, -0.7862716913223267, 2.3017334938049316, 1.4488564729690552, -0.5998597741127014, 
8, 1185772207, 94.58440399169922, -27.67398452758789, 116.40018463134766, 4.241799831390381, 9.46960735321045, 0.037414152175188065, 1.5774911642074585, 1.9024332761764526, -0.09487512707710266, 
9, 1185780540, 94.58041381835938, -27.679256439208984, 116.3962631225586, 4.1038079261779785, 9.20046615600586, 0.17407873272895813, 0.7952322363853455, 0.7965897917747498, 1.147991418838501, 
10, 1185788873, 94.58048248291016, -27.686996459960938, 116.38971710205078, 4.460489273071289, 8.511246681213379, -0.6813111305236816, 1.1389755010604858, 0.5440592169761658, 1.464481234550476, 
11, 1185797206, 94.57914733886719, -27.689315795898438, 116.38814544677734, 5.098003387451172, 7.980154991149902, -1.030892252922058, 1.4665303230285645, 0.9935377836227417, 0.7823996543884277, 
12, 1185805539, 94.58280944824219, -27.68276023864746, 116.39221954345703, 4.912625312805176, 8.418147087097168, -1.1440396308898926, 2.1606247425079346, 1.5290031433105469, -0.3346499502658844, 
13, 1185813872, 94.58121490478516, -27.67351531982422, 116.40039825439453, 4.538618087768555, 9.37623405456543, -0.033501364290714264, 1.8584281206130981, 1.691192865371704, -0.6673020720481873, 
14, 1185822205, 94.57514953613281, -27.67510986328125, 116.40277862548828, 4.054142475128174, 9.388260841369629, -0.08088766038417816, 1.0113908052444458, 1.2018070220947266, 0.6787644028663635, 
15, 1185830538, 94.57447814941406, -27.68231201171875, 116.39657592773438, 4.192437171936035, 8.71164608001709, -0.17224450409412384, 1.0663076639175415, 0.5731313228607178, 1.3959629535675049, 
16, 1185838871, 94.57640075683594, -27.686405181884766, 116.3898696899414, 5.008966445922852, 8.038675308227539, -0.978922963142395, 1.352111577987671, 0.49160122871398926, 1.0297309160232544, 
17, 1185847204, 94.57530212402344, -27.683168411254883, 116.39604187011719, 5.071674823760986, 8.22616195678711, -1.261202335357666, 1.8598880767822266, 1.6302052736282349, 0.06389471143484116, 
18, 1185855537, 94.57942962646484, -27.67343521118164, 116.40030670166016, 4.722559928894043, 9.16690444946289, -0.24239780008792877, 2.2280924320220947, 1.5216007232666016, -0.7176596522331238, 
19, 1185863870, 94.57652282714844, -27.67123031616211, 116.4051284790039, 4.1409912109375, 9.480240821838379, -0.2006867676973343, 1.5800524950027466, 1.526954174041748, 0.1948346644639969, 
20, 1185872203, 94.57041931152344, -27.678421020507812, 116.40262603759766, 4.066437244415283, 8.89710521697998, 0.18485739827156067, 0.7451820969581604, 0.7607043385505676, 1.3887909650802612, 
21, 1185880536, 94.57290649414062, -27.683481216430664, 116.39291381835938, 4.740383148193359, 8.273518562316895, -0.8775136470794678, 1.250192403793335, 0.1794917732477188, 1.1704298257827759, 
22, 1185888869, 94.57353210449219, -27.6835994720459, 116.39336395263672, 5.1037278175354, 8.060367584228516, -1.1761397123336792, 1.597060203552246, 1.2139737606048584, 0.49157553911209106, 
23, 1185897202, 94.57778930664062, -27.674339294433594, 116.39556121826172, 4.876808166503906, 8.81713581085205, -0.7596015334129333, 2.43961501121521, 1.4541585445404053, -0.6463496088981628, 
24, 1185905535, 94.57564544677734, -27.668642044067383, 116.40233612060547, 4.2836151123046875, 9.411473274230957, -0.04923659563064575, 1.6162711381912231, 1.8250528573989868, -0.25634726881980896, 
25, 1185913868, 94.56893920898438, -27.672801971435547, 116.39747619628906, 4.052521705627441, 9.316978454589844, 0.19432128965854645, 0.7854989767074585, 0.9453829526901245, 1.0092904567718506, 
26, 1185922201, 94.56690216064453, -27.679935455322266, 116.3917236328125, 4.359734535217285, 8.504521369934082, -0.6808287501335144, 1.1193805932998657, 0.5408573746681213, 1.4007530212402344, 
27, 1185930534, 94.5690689086914, -27.683425903320312, 116.38847351074219, 5.108333587646484, 7.960475921630859, -0.8301191926002502, 1.5723940134048462, 0.850892186164856, 0.9266077876091003, 
28, 1185938867, 94.57329559326172, -27.67789649963379, 116.39270782470703, 4.938170433044434, 8.331781387329102, -1.295479416847229, 2.2383124828338623, 1.5574095249176025, -0.21480096876621246, 
29, 1185947200, 94.57302856445312, -27.668880462646484, 116.39990997314453, 4.562473297119141, 9.408361434936523, 0.024760471656918526, 1.9992809295654297, 1.6422951221466064, -0.6341060400009155, 
30, 1185955533, 94.56878662109375, -27.669347763061523, 116.40116119384766, 4.08100700378418, 9.425671577453613, -0.11280939728021622, 1.055063009262085, 1.2998327016830444, 0.5282551646232605, 
31, 1185963866, 94.56513214111328, -27.676942825317383, 116.39704132080078, 4.175291061401367, 8.826177597045898, -0.09066779911518097, 0.9948440790176392, 0.6780215501785278, 1.4398914575576782, 
32, 1185972199, 94.56501770019531, -27.681238174438477, 116.38714599609375, 4.962982654571533, 7.997293472290039, -1.095266580581665, 1.2756785154342651, 0.3711886703968048, 1.0728650093078613, 
33, 1185980532, 94.5663070678711, -27.680185317993164, 116.39054870605469, 5.039688587188721, 8.184791564941406, -1.1227737665176392, 1.8410104513168335, 1.5111758708953857, 0.3275676369667053, 
34, 1185988865, 94.57119750976562, -27.670644760131836, 116.39372253417969, 4.775562286376953, 9.052262306213379, -0.5997740030288696, 2.25752329826355, 1.4073612689971924, -0.684822142124176, 
35, 1185997198, 94.5675277709961, -27.668344497680664, 116.39989471435547, 4.168769836425781, 9.464554786682129, -0.0304462481290102, 1.5689359903335571, 1.6808446645736694, 0.1707829236984253, 
36, 1186005531, 94.5642318725586, -27.675111770629883, 116.3945083618164, 4.076035976409912, 8.992753982543945, 0.18926827609539032, 0.7998428344726562, 0.6579656600952148, 1.3361279964447021, 
37, 1186013864, 94.56466674804688, -27.681133270263672, 116.38600158691406, 4.699746131896973, 8.327577590942383, -0.8706690073013306, 1.2455562353134155, 0.21217550337314606, 1.2915849685668945, 
38, 1186022197, 94.56383514404297, -27.682552337646484, 116.38758850097656, 5.133606910705566, 8.048572540283203, -1.13992178440094, 1.6411938667297363, 1.2017302513122559, 0.6593489050865173, 
39, 1186030530, 94.56855010986328, -27.673383712768555, 116.39167022705078, 4.844357490539551, 8.67918586730957, -0.9060341715812683, 2.2907962799072266, 1.508204460144043, -0.6494489908218384, 
40, 1186038863, 94.566650390625, -27.666292190551758, 116.39828491210938, 4.325903415679932, 9.425893783569336, -0.02814062312245369, 1.6350719928741455, 1.7942641973495483, -0.42094436287879944, 
41, 1186047196, 94.5601577758789, -27.670265197753906, 116.39820098876953, 4.031195640563965, 9.280343055725098, 0.01401355117559433, 0.8982272744178772, 1.112669587135315, 0.9709973335266113, 
42, 1186055529, 94.56175994873047, -27.677967071533203, 116.39054870605469, 4.330174922943115, 8.529958724975586, -0.40261274576187134, 1.2618213891983032, 0.42428702116012573, 1.4693478345870972, 
43, 1186063862, 94.56159210205078, -27.68290138244629, 116.38848876953125, 5.092034816741943, 7.987509250640869, -1.0247671604156494, 1.5238804817199707, 0.869103729724884, 1.1078283786773682, 
44, 1186072195, 94.5624008178711, -27.679018020629883, 116.3945083618164, 4.998029708862305, 8.384804725646973, -1.127703070640564, 2.0694892406463623, 1.5915018320083618, -0.010194464586675167, 
45, 1186080528, 94.56451416015625, -27.67022132873535, 116.39945983886719, 4.661420822143555, 9.283785820007324, -0.16408053040504456, 2.026508331298828, 1.6022599935531616, -0.6129229664802551, 
46, 1186088861, 94.56195068359375, -27.67025375366211, 116.40157318115234, 4.129541873931885, 9.4527587890625, -0.12773177027702332, 1.3044177293777466, 1.3862807750701904, 0.4688045084476471, 
47, 1186097194, 94.55615997314453, -27.677778244018555, 116.39825439453125, 4.092634201049805, 8.83149242401123, -0.04051485285162926, 0.7915437817573547, 0.7935417890548706, 1.4264695644378662, 
48, 1186105527, 94.55693817138672, -27.683757781982422, 116.39073944091797, 4.8738789558410645, 8.147346496582031, -1.0103139877319336, 1.1697635650634766, 0.4231087267398834, 1.2600282430648804, 
49, 1186113860, 94.55644989013672, -27.683412551879883, 116.3947982788086, 5.065491676330566, 8.085511207580566, -1.2097856998443604, 1.7875277996063232, 1.384103536605835, 0.4308442175388336, 
50, 1186122193, 94.5608139038086, -27.673707962036133, 116.39724731445312, 4.7871246337890625, 8.993409156799316, -0.5863654613494873, 2.343151807785034, 1.255084753036499, -0.6847965717315674, 
51, 1186130526, 94.55841827392578, -27.669809341430664, 116.40324401855469, 4.185800552368164, 9.431124687194824, -0.02306169643998146, 1.5423738956451416, 1.7596081495285034, -0.03493781387805939, 
52, 1186138859, 94.55467224121094, -27.675424575805664, 116.39822387695312, 4.111368179321289, 9.125697135925293, 0.18950742483139038, 0.7660833597183228, 0.6832724809646606, 1.197350263595581, 
53, 1186147192, 94.55320739746094, -27.681867599487305, 116.39266967773438, 4.5387678146362305, 8.399066925048828, -0.8013813495635986, 1.128115177154541, 0.43540358543395996, 1.3228601217269897, 
54, 1186155525, 94.5538558959961, -27.684791564941406, 116.39109802246094, 5.132029056549072, 8.03466796875, -0.9418338537216187, 1.4870214462280273, 1.0223792791366577, 0.8468706011772156, 
55, 1186163858, 94.55583953857422, -27.67772674560547, 116.39720153808594, 4.867412567138672, 8.490655899047852, -1.0806899070739746, 2.2519137859344482, 1.643140435218811, -0.3978402614593506, 
56, 1186172191, 94.55347442626953, -27.670133590698242, 116.4027328491211, 4.488918781280518, 9.378860473632812, 0.044797640293836594, 1.7468268871307373, 1.6810752153396606, -0.46535947918891907, 
57, 1186180524, 94.55017852783203, -27.671749114990234, 116.40239715576172, 4.098320960998535, 9.362957954406738, -0.06276339292526245, 1.0792173147201538, 1.138898491859436, 0.6774581074714661, 
58, 1186188857, 94.55009460449219, -27.67900276184082, 116.39607238769531, 4.233983039855957, 8.642995834350586, -0.2424960881471634, 1.133007287979126, 0.5603241920471191, 1.4043899774551392, 
59, 1186197190, 94.55043029785156, -27.683452606201172, 116.39180755615234, 5.001530647277832, 8.034687995910645, -1.0605539083480835, 1.4650447368621826, 0.6360656023025513, 1.068792462348938, 
60, 1186205523, 94.55216217041016, -27.681489944458008, 116.39653015136719, 5.014537811279297, 8.265799522399902, -1.1578482389450073, 1.9682362079620361, 1.6443697214126587, 0.20597685873508453, 
61, 1186213856, 94.55412292480469, -27.67192268371582, 116.40423583984375, 4.706929683685303, 9.169403076171875, -0.2905673086643219, 2.167412519454956, 1.465889811515808, -0.683746337890625, 
62, 1186222189, 94.54898071289062, -27.671283721923828, 116.41015625, 4.091932773590088, 9.460931777954102, -0.1413312554359436, 1.3283413648605347, 1.5852521657943726, 0.3826638460159302, 
63, 1186230522, 94.54644012451172, -27.679149627685547, 116.40497589111328, 4.017367839813232, 8.927136421203613, 0.15756002068519592, 0.903247594833374, 0.6874476075172424, 1.466094732284546, 
64, 1186238855, 94.55011749267578, -27.684017181396484, 116.39579772949219, 4.831076145172119, 8.186158180236816, -0.9449110627174377, 1.4269561767578125, 0.23727746307849884, 1.1407170295715332, 
65, 1186247188, 94.55018615722656, -27.68387222290039, 116.39717864990234, 5.146576404571533, 8.080137252807617, -1.190944790840149, 1.7581225633621216, 1.2120015621185303, 0.46990591287612915, 
66, 1186255521, 94.55500030517578, -27.674701690673828, 116.40324401855469, 4.834151744842529, 8.86125659942627, -0.7378720045089722, 2.4134886264801025, 1.7157312631607056, -0.665944516658783, 
67, 1186263854, 94.55094146728516, -27.668357849121094, 116.41119384765625, 4.23265266418457, 9.432026863098145, -0.036108825355768204, 1.633227825164795, 1.8601186275482178, -0.3295527696609497, 
68, 1186272187, 94.5461654663086, -27.673707962036133, 116.41157531738281, 4.061634540557861, 9.238086700439453, 0.08736349642276764, 0.9943575263023376, 0.9149789810180664, 1.1538827419281006, 
69, 1186280520, 94.54884338378906, -27.68011474609375, 116.40337371826172, 4.428300380706787, 8.437567710876465, -0.6201931834220886, 1.3640731573104858, 0.3547443449497223, 1.31917142868042, 
70, 1186288853, 94.55277252197266, -27.6834659576416, 116.40039825439453, 5.162250995635986, 7.956756114959717, -1.0199168920516968, 1.8002068996429443, 0.8780176043510437, 0.907653272151947, 
71, 1186297186, 94.55362701416016, -27.677547454833984, 116.40412902832031, 4.88730525970459, 8.45642375946045, -1.0921814441680908, 2.0743815898895264, 1.5804367065429688, -0.2547335922718048, 
72, 1186305519, 94.55374908447266, -27.66986083984375, 116.40876007080078, 4.509693622589111, 9.341611862182617, -0.014685145579278469, 1.7667802572250366, 1.579079270362854, -0.4749903976917267, 
73, 1186313852, 94.5492172241211, -27.670894622802734, 116.41194152832031, 4.078577041625977, 9.457036972045898, -0.08687610179185867, 1.301805019378662, 1.4059780836105347, 0.5936738848686218, 
74, 1186322185, 94.54622650146484, -27.67927360534668, 116.40438842773438, 4.204436779022217, 8.76298713684082, -0.10437819361686707, 0.980602502822876, 0.5124768018722534, 1.5523122549057007, 
75, 1186330518, 94.54823303222656, -27.684528350830078, 116.39769744873047, 4.929732322692871, 8.073872566223145, -1.0809847116470337, 1.3668137788772583, 0.5035117268562317, 1.1680988073349, 
76, 1186338851, 94.5498046875, -27.682579040527344, 116.4007568359375, 5.016585350036621, 8.220279693603516, -1.0657395124435425, 1.8535867929458618, 1.4653518199920654, 0.22224189341068268, 
77, 1186347184, 94.55394744873047, -27.673717498779297, 116.40381622314453, 4.783204555511475, 9.03846263885498, -0.5553666949272156, 2.285212516784668, 1.2041380405426025, -0.578702449798584, 
78, 1186355517, 94.55101013183594, -27.671432495117188, 116.41007232666016, 4.191491603851318, 9.406063079833984, -0.1677027940750122, 1.492759346961975, 1.8016412258148193, 0.15789894759655, 
79, 1186363850, 94.54563903808594, -27.679039001464844, 116.40799713134766, 4.071689605712891, 8.998835563659668, 0.2682071626186371, 0.8400828838348389, 0.7906216979026794, 1.434051275253296, 
80, 1186372183, 94.54612731933594, -27.684768676757812, 116.40097045898438, 4.626110553741455, 8.337696075439453, -0.9595582485198975, 1.3187618255615234, 0.3356105387210846, 1.2482203245162964, 
81, 1186380516, 94.54741668701172, -27.686283111572266, 116.40132904052734, 5.11290979385376, 8.072278022766113, -1.0032778978347778, 1.668524146080017, 1.2122832536697388, 0.6611417531967163, 
82, 1186388849, 94.55296325683594, -27.678178787231445, 116.4049072265625, 4.883485794067383, 8.676109313964844, -0.9256969094276428, 2.362516403198242, 1.4646605253219604, -0.5181759595870972, 
83, 1186397182, 94.55008697509766, -27.671598434448242, 116.41240692138672, 4.384444236755371, 9.394886016845703, 0.003552693407982588, 1.744905710220337, 1.7960829734802246, -0.35301536321640015, 
84, 1186405515, 94.54618072509766, -27.676185607910156, 116.40997314453125, 4.022243976593018, 9.357034683227539, -0.0077894460409879684, 0.8897232413291931, 0.9458951950073242, 1.0537056922912598, 
85, 1186413848, 94.5451431274414, -27.684009552001953, 116.40571594238281, 4.330392837524414, 8.506105422973633, -0.4122452437877655, 1.2033696174621582, 0.4972107708454132, 1.4843577146530151, 
86, 1186422181, 94.54586029052734, -27.68805694580078, 116.4034423828125, 5.091619491577148, 8.026498794555664, -1.0995010137557983, 1.529567003250122, 0.6663671135902405, 1.0182554721832275, 
87, 1186430514, 94.54814147949219, -27.682737350463867, 116.40833282470703, 5.041959762573242, 8.31896686553955, -1.20944082736969, 2.0425686836242676, 1.628668189048767, -0.1943351924419403, 
88, 1186438847, 94.54952239990234, -27.673185348510742, 116.41382598876953, 4.631013870239258, 9.303291320800781, -0.12868648767471313, 1.9688767194747925, 1.6530020236968994, -0.7068761587142944, 
89, 1186447180, 94.54503631591797, -27.67214012145996, 116.42389678955078, 4.092602729797363, 9.494126319885254, -0.16749757528305054, 1.3619472980499268, 1.4859713315963745, 0.33804386854171753, 
90, 1186455513, 94.54209899902344, -27.680828094482422, 116.4198226928711, 4.080793380737305, 8.78914737701416, 0.10285431891679764, 0.918308675289154, 0.8128548860549927, 1.5548737049102783, 
91, 1186463846, 94.54154205322266, -27.684803009033203, 116.41349792480469, 4.86848258972168, 8.151129722595215, -0.9673576354980469, 1.1240934133529663, 0.19680696725845337, 1.047865390777588, 
92, 1186472179, 94.5401840209961, -27.684999465942383, 116.41728210449219, 5.087250709533691, 8.129358291625977, -1.0599772930145264, 1.7264378070831299, 1.4826414585113525, 0.4905766248703003, 
93, 1186480512, 94.5455322265625, -27.675838470458984, 116.41973114013672, 4.873641014099121, 8.89250373840332, -0.7782509326934814, 2.274928331375122, 1.332734227180481, -0.6342468857765198, 
94, 1186488845, 94.54229736328125, -27.67197608947754, 116.42707824707031, 4.261623382568359, 9.40706729888916, -0.06290680170059204, 1.5195772647857666, 1.9039957523345947, -0.042135417461395264, 
95, 1186497178, 94.53626251220703, -27.677288055419922, 116.42329406738281, 4.054352760314941, 9.154988288879395, 0.1371915340423584, 0.7357816696166992, 0.7249981164932251, 1.1649738550186157, 
96, 1186505511, 94.53692626953125, -27.683441162109375, 116.416259765625, 4.50385856628418, 8.461217880249023, -0.8128369450569153, 1.1827501058578491, 0.4744909405708313, 1.2787011861801147, 
97, 1186513844, 94.53632354736328, -27.686904907226562, 116.41941833496094, 5.13361120223999, 8.02569580078125, -0.9279947876930237, 1.5774909257888794, 1.061082363128662, 0.9151325821876526, 
98, 1186522177, 94.5379638671875, -27.679237365722656, 116.42635345458984, 4.872135162353516, 8.481978416442871, -1.1472808122634888, 2.2175393104553223, 1.6557680368423462, -0.4722496271133423, 
99, 1186530510, 94.53777313232422, -27.67185401916504, 116.43135070800781, 4.453957557678223, 9.395512580871582, 0.12853668630123138, 1.7513350248336792, 1.61934494972229, -0.44176873564720154, 
100, 1186538843, 94.5335922241211, -27.674448013305664, 116.43196868896484, 4.036642074584961, 9.375473022460938, -0.06100788712501526, 1.0287829637527466, 1.250627875328064, 0.7887006998062134, 
101, 1186547176, 94.53086853027344, -27.682777404785156, 116.42830657958984, 4.234466552734375, 8.630450248718262, -0.0668058916926384, 1.06026291847229, 0.6086327433586121, 1.5354582071304321, 
102, 1186555509, 94.53225708007812, -27.686389923095703, 116.4234619140625, 5.048946857452393, 8.052093505859375, -1.271727204322815, 1.3942211866378784, 0.681735634803772, 0.9559615850448608, 
103, 1186563842, 94.53119659423828, -27.682445526123047, 116.43034362792969, 5.073188781738281, 8.253312110900879, -1.0443211793899536, 1.8902920484542847, 1.6872225999832153, -0.0256910789757967, 
104, 1186572175, 94.53353118896484, -27.672340393066406, 116.43415069580078, 4.691144943237305, 9.182950973510742, -0.43464723229408264, 2.1707425117492676, 1.3911219835281372, -0.7449901103973389, 
105, 1186580508, 94.5313720703125, -27.67064094543457, 116.43801879882812, 4.051048278808594, 9.474847793579102, -0.08539317548274994, 1.453338861465454, 1.5538746118545532, 0.2474975436925888, 
106, 1186588841, 94.52597045898438, -27.67898178100586, 116.43501281738281, 4.074763774871826, 8.829362869262695, 0.03774121776223183, 0.834396481513977, 0.8184131979942322, 1.5245721340179443, 
107, 1186597174, 94.5277328491211, -27.685834884643555, 116.42569732666016, 4.724052906036377, 8.310215950012207, -0.8238610625267029, 1.1892305612564087, 0.23809714615345, 1.3815934658050537, 
108, 1186605507, 94.52882385253906, -27.68793296813965, 116.42626190185547, 5.104009628295898, 8.10528564453125, -1.0744112730026245, 1.6608142852783203, 1.2411507368087769, 0.7276107668876648, 
109, 1186613840, 94.5334243774414, -27.6793212890625, 116.42965698242188, 4.874497413635254, 8.77353286743164, -0.8513216376304626, 2.4108502864837646, 1.3557486534118652, -0.5597222447395325, 
110, 1186622173, 94.53166961669922, -27.67377281188965, 116.43694305419922, 4.385908126831055, 9.348461151123047, 0.060925401747226715, 1.6928062438964844, 1.8786119222640991, -0.24156783521175385, 
111, 1186630506, 94.52481079101562, -27.677371978759766, 116.43528747558594, 4.041663646697998, 9.32065486907959, 0.013769222423434258, 0.7557351589202881, 0.9328832626342773, 0.9422323107719421, 
112, 1186638839, 94.52420806884766, -27.68353843688965, 116.42958068847656, 4.352285385131836, 8.504169464111328, -0.5094486474990845, 1.3100016117095947, 0.5851700305938721, 1.2798793315887451, 
113, 1186647172, 94.5259017944336, -27.686580657958984, 116.42550659179688, 5.053909778594971, 8.019622802734375, -0.9521663784980774, 1.4738816022872925, 0.7567853927612305, 0.879964292049408, 
114, 1186655505, 94.5295181274414, -27.681825637817383, 116.43012237548828, 4.955381393432617, 8.302507400512695, -1.2729222774505615, 2.191438913345337, 1.605333685874939, -0.12479256093502045, 
115, 1186663838, 94.52900695800781, -27.673315048217773, 116.43414306640625, 4.538095474243164, 9.388745307922363, 0.12287478148937225, 1.8683408498764038, 1.4899928569793701, -0.5586721897125244, 
116, 1186672171, 94.52628326416016, -27.674070358276367, 116.43516540527344, 4.086201190948486, 9.427165031433105, -0.20604121685028076, 1.2270883321762085, 1.2758578062057495, 0.5635002851486206, 
117, 1186680504, 94.52268981933594, -27.68221092224121, 116.43228149414062, 4.194870948791504, 8.765129089355469, 0.04917768016457558, 0.9963552355766296, 0.6863974928855896, 1.5084093809127808, 
118, 1186688837, 94.52291107177734, -27.687227249145508, 116.42623138427734, 5.001407146453857, 8.071267127990723, -1.1049569845199585, 1.2635372877120972, 0.28878769278526306, 1.1661263704299927, 
119, 1186697170, 94.52336883544922, -27.686019897460938, 116.43006896972656, 5.023529529571533, 8.1719970703125, -1.0690945386886597, 1.7655507326126099, 1.5562312602996826, 0.3054625391960144, 
120, 1186705503, 94.52792358398438, -27.676156997680664, 116.43415069580078, 4.772500514984131, 9.031810760498047, -0.5440396070480347, 2.2743518352508545, 1.5018779039382935, -0.7322853207588196, 
121, 1186713836, 94.52478790283203, -27.67296600341797, 116.44064331054688, 4.123127460479736, 9.464165687561035, -0.06522706151008606, 1.653206706047058, 1.7309972047805786, 0.062281008809804916, 
122, 1186722169, 94.52233123779297, -27.67947006225586, 116.43568420410156, 4.089806079864502, 9.035911560058594, 0.14678193628787994, 0.9284777045249939, 0.6980519890785217, 1.3020613193511963, 
123, 1186730502, 94.52266693115234, -27.68636703491211, 116.42929077148438, 4.609007358551025, 8.345295906066895, -0.8500766754150391, 1.3287768363952637, 0.40712544322013855, 1.3805943727493286, 
124, 1186738835, 94.52212524414062, -27.689504623413086, 116.42955017089844, 5.127525806427002, 8.034387588500977, -1.064453125, 1.6308711767196655, 1.1473256349563599, 0.8703076243400574, 
125, 1186747168, 94.52668762207031, -27.681001663208008, 116.43416595458984, 4.90092134475708, 8.62607192993164, -1.085808515548706, 2.3023226261138916, 1.5720865726470947, -0.572426974773407, 
126, 1186755501, 94.52557373046875, -27.6745662689209, 116.44010925292969, 4.4336042404174805, 9.385815620422363, 0.1498284786939621, 1.6944712400436401, 1.7256437540054321, -0.33797982335090637, 
127, 1186763834, 94.51946258544922, -27.677967071533203, 116.43614959716797, 4.001690864562988, 9.338530540466309, -0.07438531517982483, 0.9175916314125061, 1.0765535831451416, 0.9080118536949158, 
128, 1186772167, 94.5196304321289, -27.68594741821289, 116.43016815185547, 4.245813369750977, 8.543702125549316, -0.2028466910123825, 1.1822890043258667, 0.6012557148933411, 1.487431287765503, 
129, 1186780500, 94.51981353759766, -27.68971061706543, 116.42623138427734, 5.0620222091674805, 7.9850592613220215, -1.1010000705718994, 1.4918626546859741, 0.7363964319229126, 0.9795011281967163, 
130, 1186788833, 94.52098083496094, -27.684553146362305, 116.43331909179688, 5.045806407928467, 8.28768539428711, -1.2113633155822754, 2.129682779312134, 1.6260555982589722, -0.1659546196460724, 
131, 1186797166, 94.52391815185547, -27.674461364746094, 116.43696594238281, 4.643571853637695, 9.298319816589355, -0.15732280910015106, 2.0552477836608887, 1.4539278745651245, -0.7568749189376831, 
132, 1186805499, 94.52095031738281, -27.674413681030273, 116.4389877319336, 4.099238872528076, 9.476651191711426, -0.18563568592071533, 1.2529586553573608, 1.3720391988754272, 0.4606591761112213, 
133, 1186813832, 94.51636505126953, -27.68124008178711, 116.43504333496094, 4.0568461418151855, 8.804778099060059, -0.006961887236684561, 0.904630720615387, 0.7325798869132996, 1.3464763164520264, 
134, 1186822165, 94.51799774169922, -27.686437606811523, 116.42755889892578, 4.909489631652832, 8.112455368041992, -0.9907428026199341, 1.276190996170044, 0.4161929488182068, 1.167612075805664, 
135, 1186830498, 94.51712036132812, -27.684354782104492, 116.42964935302734, 5.084216594696045, 8.080992698669434, -1.1594475507736206, 1.7315607070922852, 1.3766498565673828, 0.22534123063087463, 
136, 1186838831, 94.5193862915039, -27.674013137817383, 116.43606567382812, 4.759416580200195, 9.007759094238281, -0.6588242053985596, 2.2630562782287598, 1.5922962427139282, -0.7895588874816895, 
137, 1186847164, 94.51708221435547, -27.67012596130371, 116.44117736816406, 4.188830852508545, 9.452608108520508, 0.1401699185371399, 1.5069750547409058, 1.6648099422454834, -0.025588620454072952, 
138, 1186855497, 94.51368713378906, -27.67609405517578, 116.43610382080078, 4.043745517730713, 9.120253562927246, -0.006981174927204847, 0.8070917129516602, 0.6796608567237854, 1.2402797937393188, 
139, 1186863830, 94.5147476196289, -27.681867599487305, 116.4289321899414, 4.672715663909912, 8.39532470703125, -0.6768142580986023, 1.3432999849319458, 0.27162617444992065, 1.2578511238098145, 
140, 1186872163, 94.51690673828125, -27.683818817138672, 116.42802429199219, 5.151573657989502, 8.073501586914062, -1.0977416038513184, 1.7064330577850342, 1.0799347162246704, 0.7232307195663452, 
141, 1186880496, 94.51924133300781, -27.67556381225586, 116.43807220458984, 4.863216876983643, 8.57142162322998, -1.0391921997070312, 2.2714834213256836, 1.597419023513794, -0.5367975234985352, 
142, 1186888829, 94.5170669555664, -27.66871452331543, 116.44374084472656, 4.367762088775635, 9.439435005187988, 0.030447913333773613, 1.7141685485839844, 1.5922449827194214, -0.3681533932685852, 
143, 1186897162, 94.5120849609375, -27.671781539916992, 116.44316864013672, 4.061391353607178, 9.294818878173828, -0.006036999635398388, 0.8708967566490173, 1.129395604133606, 0.8537352085113525, 
144, 1186905495, 94.51226806640625, -27.67892837524414, 116.43656921386719, 4.286518573760986, 8.583406448364258, -0.39070916175842285, 1.149631142616272, 0.5285370349884033, 1.3940932750701904, 
145, 1186913828, 94.5120849609375, -27.683197021484375, 116.43421173095703, 5.076043605804443, 8.055461883544922, -1.0272250175476074, 1.4994447231292725, 0.8372653722763062, 1.0328556299209595, 
146, 1186922161, 94.51448822021484, -27.67807388305664, 116.43915557861328, 4.956537246704102, 8.307374954223633, -1.1317607164382935, 2.0617024898529053, 1.6357122659683228, -0.17269118130207062, 
147, 1186930494, 94.51470947265625, -27.669504165649414, 116.44389343261719, 4.634194850921631, 9.333756446838379, -0.1533317267894745, 2.013266086578369, 1.5923473834991455, -0.5755261778831482, 
148, 1186938827, 94.50896453857422, -27.66996192932129, 116.44629669189453, 4.082572937011719, 9.413130760192871, -0.11872266232967377, 1.132827877998352, 1.365789532661438, 0.5318411588668823, 
149, 1186947160, 94.50635528564453, -27.67784309387207, 116.44021606445312, 4.068476676940918, 8.780159950256348, -0.03443615511059761, 0.8434128165245056, 0.5914199352264404, 1.4770065546035767, 
150, 1186955493, 94.5080337524414, -27.682920455932617, 116.43179321289062, 4.904664516448975, 8.135503768920898, -1.0096170902252197, 1.2276006937026978, 0.31365910172462463, 1.1593642234802246, 
151, 1186963826, 94.507080078125, -27.68193817138672, 116.43537139892578, 5.09956169128418, 8.157550811767578, -1.1531684398651123, 1.7727738618850708, 1.4739840030670166, 0.34864816069602966, 
152, 1186972159, 94.511474609375, -27.672578811645508, 116.4404525756836, 4.79929256439209, 8.981575965881348, -0.5802231431007385, 2.3099303245544434, 1.611711859703064, -0.6784698367118835, 
153, 1186980492, 94.50695037841797, -27.669034957885742, 116.44657135009766, 4.17411470413208, 9.493910789489746, -0.008550556376576424, 1.4758793115615845, 1.707764983177185, 0.019889453426003456, 
154, 1186988825, 94.50189971923828, -27.676374435424805, 116.4402847290039, 4.049888610839844, 9.033892631530762, 0.13499118387699127, 0.8794263005256653, 0.8100117444992065, 1.4034677743911743, 
155, 1186997158, 94.50370025634766, -27.68297576904297, 116.4312744140625, 4.630496501922607, 8.384685516357422, -0.7388926148414612, 1.2109769582748413, 0.26606786251068115, 1.3466812372207642, 
156, 1187005491, 94.50460052490234, -27.684856414794922, 116.43165588378906, 5.158434867858887, 8.040882110595703, -1.1100715398788452, 1.6295136213302612, 1.2204285860061646, 0.7041993141174316, 
157, 1187013824, 94.50743103027344, -27.67730140686035, 116.43720245361328, 4.867416858673096, 8.569911003112793, -0.8645997643470764, 2.2348036766052246, 1.4250863790512085, -0.4377216398715973, 
158, 1187022157, 94.5058822631836, -27.670520782470703, 116.44292449951172, 4.380309104919434, 9.395909309387207, -0.03783932328224182, 1.630999207496643, 1.7021043300628662, -0.3766061067581177, 
159, 1187030490, 94.5003662109375, -27.6738224029541, 116.4422378540039, 4.012884140014648, 9.373650550842285, 0.06005933880805969, 0.9774007201194763, 1.0469945669174194, 0.8972793817520142, 
160, 1187038823, 94.4981918334961, -27.680742263793945, 116.43696594238281, 4.3797712326049805, 8.56700611114502, -0.5181415677070618, 1.0613131523132324, 0.4839938282966614, 1.378084421157837, 
161, 1187047156, 94.49958038330078, -27.684070587158203, 116.4325180053711, 5.072447776794434, 8.004810333251953, -0.985503613948822, 1.4162240028381348, 0.718671441078186, 0.9190772175788879, 
162, 1187055489, 94.5015869140625, -27.67925262451172, 116.43810272216797, 4.9362592697143555, 8.340598106384277, -1.1610753536224365, 2.0485880374908447, 1.7067406177520752, -0.1402123123407364, 
163, 1187063822, 94.50218200683594, -27.670625686645508, 116.44567108154297, 4.589596271514893, 9.231443405151367, -0.12776750326156616, 2.0368313789367676, 1.5595098733901978, -0.5779083967208862, 
164, 1187072155, 94.49870300292969, -27.671579360961914, 116.44740295410156, 4.1053032875061035, 9.446317672729492, -0.06627018004655838, 1.177883267402649, 1.352188229560852, 0.581993818283081, 
165, 1187080488, 94.4955825805664, -27.679580688476562, 116.44216918945312, 4.182666301727295, 8.802233695983887, -0.04521399736404419, 1.0004792213439941, 0.5897293090820312, 1.4973951578140259, 
166, 1187088821, 94.49583435058594, -27.684547424316406, 116.43682098388672, 4.959635257720947, 8.087240219116211, -1.0367473363876343, 1.3545446395874023, 0.4825337529182434, 1.1469157934188843, 
167, 1187097154, 94.49695587158203, -27.682680130004883, 116.44052124023438, 5.06898832321167, 8.153823852539062, -1.2045066356658936, 1.840446949005127, 1.5342286825180054, 0.22808197140693665, 
168, 1187105487, 94.5027847290039, -27.672527313232422, 116.44406127929688, 4.717710494995117, 9.030339241027832, -0.5515509843826294, 2.3952767848968506, 1.4394046068191528, -0.7623052000999451, 
169, 1187113820, 94.49857330322266, -27.669435501098633, 116.45075225830078, 4.167385101318359, 9.456721305847168, -0.08754381537437439, 1.4861506223678589, 1.6622740030288696, 0.08031343668699265, 
170, 1187122153, 94.49507141113281, -27.67672348022461, 116.44586181640625, 4.038957118988037, 9.044631958007812, 0.20380929112434387, 0.8053756356239319, 0.7099370360374451, 1.395963191986084, 
171, 1187130486, 94.49701690673828, -27.682723999023438, 116.43524932861328, 4.634884357452393, 8.279068946838379, -0.842564582824707, 1.3615119457244873, 0.11873479932546616, 1.2945306301116943, 
172, 1187138819, 94.49666595458984, -27.68387222290039, 116.431884765625, 5.130721092224121, 8.064988136291504, -0.9934320449829102, 1.6678837537765503, 1.1567003726959229, 0.6313268542289734, 
173, 1187147152, 94.501953125, -27.675554275512695, 116.43480682373047, 4.909643173217773, 8.704704284667969, -0.9588918685913086, 2.2991979122161865, 1.3927357196807861, -0.5384880900382996, 
174, 1187155485, 94.5002670288086, -27.66847801208496, 116.44190216064453, 4.366006374359131, 9.448113441467285, -0.006519748363643885, 1.691499948501587, 1.84444260597229, -0.42314714193344116, 
175, 1187163818, 94.49398803710938, -27.673240661621094, 116.44049072265625, 4.059538841247559, 9.331270217895508, 0.08534056693315506, 0.8304135203361511, 0.964811384677887, 1.079896092414856, 
176, 1187172151, 94.49434661865234, -27.680192947387695, 116.43370056152344, 4.357549667358398, 8.52103042602539, -0.5241859555244446, 1.1627709865570068, 0.5058683156967163, 1.3701436519622803, 
177, 1187180484, 94.49462890625, -27.683319091796875, 116.43278503417969, 5.105236053466797, 7.985117435455322, -1.034827470779419, 1.612403392791748, 0.9374682307243347, 0.8886475563049316, 
178, 1187188817, 94.49681854248047, -27.677082061767578, 116.43870544433594, 4.928222179412842, 8.332167625427246, -1.1911386251449585, 2.2369041442871094, 1.5991095304489136, -0.2950247824192047, 
179, 1187197150, 94.49867248535156, -27.6688175201416, 116.44273376464844, 4.533517360687256, 9.366476058959961, -0.06084064394235611, 1.948052167892456, 1.507922887802124, -0.5392820835113525, 
180, 1187205483, 94.49520111083984, -27.66938591003418, 116.44499969482422, 4.0683135986328125, 9.457537651062012, -0.1098523810505867, 1.2079802751541138, 1.4064136743545532, 0.5306629538536072, 
181, 1187213816, 94.49195098876953, -27.676746368408203, 116.43732452392578, 4.173243999481201, 8.809381484985352, -0.08723779022693634, 0.9592914581298828, 0.5404475331306458, 1.427263617515564, 
182, 1187222149, 94.4936752319336, -27.681467056274414, 116.42953491210938, 4.982097148895264, 8.062492370605469, -1.0271621942520142, 1.271247148513794, 0.3787192702293396, 1.111363172531128, 
183, 1187230482, 94.49230194091797, -27.67886734008789, 116.4348373413086, 5.003895282745361, 8.199520111083984, -1.1025086641311646, 1.703999638557434, 1.4280319213867188, 0.16025544703006744, 
184, 1187238815, 94.49703216552734, -27.66900634765625, 116.44088745117188, 4.762282371520996, 9.062880516052246, -0.6009339690208435, 2.4068801403045654, 1.3114616870880127, -0.7082337141036987, 
185, 1187247148, 94.49424743652344, -27.6663761138916, 116.44573974609375, 4.195074081420898, 9.441548347473145, -0.007283660117536783, 1.434743046760559, 1.6483914852142334, 0.12677766382694244, 
186, 1187255481, 94.49134826660156, -27.672964096069336, 116.44062805175781, 4.094584941864014, 9.023695945739746, 0.08851473033428192, 0.867976725101471, 0.6814026832580566, 1.31269109249115, 
187, 1187263814, 94.49153137207031, -27.678821563720703, 116.4338150024414, 4.6344380378723145, 8.325020790100098, -0.8799680471420288, 1.2857705354690552, 0.36947256326675415, 1.2600793838500977, 
188, 1187272147, 94.49264526367188, -27.679607391357422, 116.43411254882812, 5.136558532714844, 8.032378196716309, -1.0637595653533936, 1.6486730575561523, 1.1993480920791626, 0.5737972259521484, 
189, 1187280480, 94.49519348144531, -27.6712589263916, 116.44271850585938, 4.853102207183838, 8.677762031555176, -0.9394501447677612, 2.290693998336792, 1.588172197341919, -0.5486825704574585, 
190, 1187288813, 94.49169158935547, -27.665916442871094, 116.45426177978516, 4.327931880950928, 9.5132474899292, 0.058288171887397766, 1.6547691822052002, 1.7845052480697632, -0.20114856958389282, 
191, 1187297146, 94.48704528808594, -27.670886993408203, 116.45124053955078, 4.041964054107666, 9.274412155151367, 0.0014806385152041912, 0.773818850517273, 0.8863677382469177, 1.101091980934143, 
192, 1187305479, 94.48821258544922, -27.67772674560547, 116.44364929199219, 4.438324451446533, 8.501505851745605, -0.419050395488739, 1.2159205675125122, 0.41924095153808594, 1.3645342588424683, 
193, 1187313812, 94.4884033203125, -27.68128204345703, 116.44021606445312, 5.131015300750732, 7.96217155456543, -1.1477302312850952, 1.5415799617767334, 0.8461021780967712, 0.9475601315498352, 
194, 1187322145, 94.49154663085938, -27.674392700195312, 116.44486236572266, 4.977423667907715, 8.37893295288086, -1.0039606094360352, 2.135138750076294, 1.5870453119277954, -0.3795773684978485, 
195, 1187330478, 94.49239349365234, -27.665456771850586, 116.45035552978516, 4.556521415710449, 9.405682563781738, -0.27343353629112244, 2.0644946098327637, 1.5528502464294434, -0.6159711480140686, 
196, 1187338811, 94.48603820800781, -27.666479110717773, 116.45348358154297, 4.067836761474609, 9.437653541564941, 0.08649450540542603, 1.07212233543396, 1.411946177482605, 0.5950314402580261, 
197, 1187347144, 94.48339080810547, -27.674938201904297, 116.44830322265625, 4.150941371917725, 8.736910820007324, -0.2536882758140564, 0.8919260501861572, 0.6890101432800293, 1.537353515625, 
198, 1187355477, 94.48484802246094, -27.679222106933594, 116.44242095947266, 5.007676124572754, 8.03842544555664, -0.9285629987716675, 1.3470141887664795, 0.578612744808197, 1.0434086322784424, 
199, 1187363810, 94.48467254638672, -27.677122116088867, 116.44843292236328, 5.00584602355957, 8.191667556762695, -1.177722454071045, 1.8915727138519287, 1.5226765871047974, 0.21330252289772034, 
200, 1187372143, 94.4890365600586, -27.667415618896484, 116.45286560058594, 4.718691825866699, 9.052311897277832, -0.5241367816925049, 2.27130389213562, 1.5400688648223877, -0.7152776122093201, 
201, 1187380476, 94.48461151123047, -27.665597915649414, 116.45923614501953, 4.19627046585083, 9.461512565612793, 0.061975929886102676, 1.4786969423294067, 1.7115814685821533, 0.22785143554210663, 
202, 1187388809, 94.47863006591797, -27.672273635864258, 116.45547485351562, 4.042407035827637, 9.008909225463867, 0.025173943489789963, 0.7483582496643066, 0.7604225277900696, 1.3267532587051392, 
203, 1187397142, 94.48017883300781, -27.67772674560547, 116.44764709472656, 4.737758636474609, 8.29062557220459, -0.7218347787857056, 1.2493982315063477, 0.3811013698577881, 1.1997835636138916, 
204, 1187405475, 94.47880554199219, -27.678890228271484, 116.44928741455078, 5.090893268585205, 8.050390243530273, -1.222042441368103, 1.4255475997924805, 1.3439406156539917, 0.6086326837539673, 
205, 1187413808, 94.48162078857422, -27.670917510986328, 116.45669555664062, 4.810531139373779, 8.695783615112305, -0.7917155623435974, 2.3410515785217285, 1.6455225944519043, -0.5050615072250366, 
206, 1187422141, 94.47979736328125, -27.665803909301758, 116.46292114257812, 4.252856254577637, 9.437654495239258, -0.023576634004712105, 1.6296671628952026, 1.7718262672424316, -0.17976069450378418, 
207, 1187430474, 94.47258758544922, -27.669588088989258, 116.46273040771484, 4.100946426391602, 9.201045036315918, 0.10793639719486237, 0.7765339016914368, 1.0612874031066895, 0.9535027146339417, 
208, 1187438807, 94.47249603271484, -27.67620277404785, 116.45484924316406, 4.403448581695557, 8.449837684631348, -0.5189930200576782, 1.22017240524292, 0.32290583848953247, 1.3541349172592163, 
209, 1187447140, 94.4736099243164, -27.679431915283203, 116.45386505126953, 5.118827819824219, 8.023124694824219, -0.9664254784584045, 1.5783876180648804, 1.0860052108764648, 0.8771979212760925, 
210, 1187455473, 94.47712707519531, -27.67285919189453, 116.45301818847656, 4.9245805740356445, 8.398146629333496, -1.0876483917236328, 2.323352098464966, 1.4778262376785278, -0.3227137625217438, 
211, 1187463806, 94.4767074584961, -27.664106369018555, 116.45870208740234, 4.555761337280273, 9.33115005493164, -0.13202139735221863, 1.767523169517517, 1.6790516376495361, -0.612615704536438, 
212, 1187472139, 94.47216033935547, -27.665285110473633, 116.46058654785156, 4.097160339355469, 9.44483470916748, -0.027707338333129883, 1.0577013492584229, 1.3694266080856323, 0.6091192364692688, 
213, 1187480472, 94.46884155273438, -27.67284393310547, 116.45640563964844, 4.130640506744385, 8.67210865020752, -0.17858710885047913, 1.029115915298462, 0.7041225433349609, 1.4361516237258911, 
214, 1187488805, 94.4714126586914, -27.677812576293945, 116.44705200195312, 4.948418617248535, 8.086682319641113, -0.9482210278511047, 1.2846177816390991, 0.21250848472118378, 1.154779314994812, 
215, 1187497138, 94.4709243774414, -27.675825119018555, 116.45367431640625, 5.058764457702637, 8.17775821685791, -1.2017854452133179, 1.852997899055481, 1.5170159339904785, 0.2246752828359604, 
216, 1187505471, 94.47471618652344, -27.666196823120117, 116.4575424194336, 4.8017168045043945, 9.125131607055664, -0.3993023633956909, 2.298121929168701, 1.3420708179473877, -0.6813642978668213, 
217, 1187513804, 94.47113800048828, -27.66358184814453, 116.46372985839844, 4.17555570602417, 9.432846069335938, -0.11216773837804794, 1.415967583656311, 1.789602518081665, 0.11993865668773651, 
218, 1187522137, 94.46792602539062, -27.671009063720703, 116.45804595947266, 4.029393672943115, 9.063616752624512, 0.2307930886745453, 0.798920750617981, 0.6256404519081116, 1.4164800643920898, 
219, 1187530470, 94.46884155273438, -27.676477432250977, 116.45149993896484, 4.711122512817383, 8.240477561950684, -0.9493901133537292, 1.273834228515625, 0.1865868866443634, 1.2277798652648926, 
220, 1187538803, 94.47100067138672, -27.677692413330078, 116.45136260986328, 5.135638236999512, 8.073904991149902, -1.095007300376892, 1.7529228925704956, 1.1561881303787231, 0.6291752457618713, 
221, 1187547136, 94.47452545166016, -27.669065475463867, 116.4577865600586, 4.818856716156006, 8.686118125915527, -0.8725223541259766, 2.38275146484375, 1.5572559833526611, -0.5777803063392639, 
222, 1187555469, 94.47088623046875, -27.663652420043945, 116.4643325805664, 4.268686771392822, 9.528275489807129, 0.02180778793990612, 1.602900505065918, 1.7458791732788086, -0.2049907147884369, 
223, 1187563802, 94.4671859741211, -27.668310165405273, 116.4631576538086, 4.079652786254883, 9.24874496459961, 0.06162067875266075, 0.9917447566986084, 1.078474521636963, 1.0501964092254639, 
224, 1187572135, 94.46920776367188, -27.675893783569336, 116.45427703857422, 4.452918529510498, 8.51003646850586, -0.5524664521217346, 1.2464271783828735, 0.2875582277774811, 1.4648140668869019, 
225, 1187580468, 94.46942138671875, -27.678190231323242, 116.452392578125, 5.145660400390625, 7.9306416511535645, -1.0989434719085693, 1.601670742034912, 0.9282470345497131, 0.7854220867156982, 
226, 1187588801, 94.4736099243164, -27.672420501708984, 116.45555877685547, 4.852758407592773, 8.429830551147461, -1.088832139968872, 2.178682804107666, 1.4416844844818115, -0.23321761190891266, 
227, 1187597134, 94.47399139404297, -27.664045333862305, 116.45761108398438, 4.533133506774902, 9.321908950805664, -0.11637700349092484, 1.9946702718734741, 1.5405809879302979, -0.5476323366165161, 
228, 1187605467, 94.46836853027344, -27.666162490844727, 116.45963287353516, 4.04872989654541, 9.405344009399414, 0.03664945438504219, 1.0728907585144043, 1.244275450706482, 0.7382662296295166, 
229, 1187613800, 94.46778106689453, -27.674802780151367, 116.45355224609375, 4.214401721954346, 8.681628227233887, -0.22628353536128998, 1.0919220447540283, 0.5985662341117859, 1.5674245357513428, 
230, 1187622133, 94.47146606445312, -27.678237915039062, 116.4469985961914, 4.96425724029541, 8.059623718261719, -1.0307667255401611, 1.5764920711517334, 0.4944700002670288, 0.9480724334716797, 
231, 1187630466, 94.47161102294922, -27.67603302001953, 116.45153045654297, 5.0645880699157715, 8.258136749267578, -1.2085344791412354, 1.9149073362350464, 1.5047465562820435, 0.20177613198757172, 
232, 1187638799, 94.47761535644531, -27.66680145263672, 116.4549331665039, 4.721081733703613, 9.10952091217041, -0.4646770656108856, 2.4109015464782715, 1.434333086013794, -0.6487573385238647, 
233, 1187647132, 94.4740219116211, -27.665300369262695, 116.4570083618164, 4.16720724105835, 9.44434642791748, -0.14064601063728333, 1.467682957649231, 1.5109453201293945, 0.28176939487457275, 
234, 1187655465, 94.46937561035156, -27.67224884033203, 116.45274353027344, 4.028763771057129, 8.956510543823242, 0.12165873497724533, 0.8657740354537964, 0.6879343390464783, 1.3644574880599976, 
235, 1187663798, 94.47122192382812, -27.678327560424805, 116.4432144165039, 4.683385372161865, 8.29465103149414, -0.8732075095176697, 1.189998745918274, 0.20518280565738678, 1.2905092239379883, 
236, 1187672131, 94.47178649902344, -27.679264068603516, 116.44520568847656, 5.121701717376709, 8.064542770385742, -1.0454195737838745, 1.6794099807739258, 1.3789551258087158, 0.577690601348877, 
237, 1187680464, 94.47596740722656, -27.67089080810547, 116.44905853271484, 4.900590419769287, 8.772584915161133, -0.7915776371955872, 2.36661434173584, 1.3913522958755493, -0.5323662757873535, 
238, 1187688797, 94.4736328125, -27.66445541381836, 116.4561996459961, 4.3583173751831055, 9.425439834594727, -0.046975020319223404, 1.6185762882232666, 1.8569425344467163, -0.34615078568458557, 
239, 1187697130, 94.46788787841797, -27.668825149536133, 116.45327758789062, 4.037358283996582, 9.327780723571777, 0.15240521728992462, 0.8189511895179749, 0.8228957653045654, 1.0434086322784424, 
240, 1187705463, 94.46794128417969, -27.675260543823242, 116.4460678100586, 4.371279716491699, 8.469085693359375, -0.6161335110664368, 1.259567141532898, 0.3628384470939636, 1.3293659687042236, 
241, 1187713796, 94.46927642822266, -27.678386688232422, 116.44356536865234, 5.150111198425293, 7.982429027557373, -1.0577443838119507, 1.5230351686477661, 0.9243023991584778, 0.8780943751335144, 
242, 1187722129, 94.47225189208984, -27.672380447387695, 116.44873046875, 4.965188026428223, 8.34665584564209, -1.1613649129867554, 2.1430277824401855, 1.65064537525177, -0.2790158689022064, 
243, 1187730462, 94.47117614746094, -27.66375732421875, 116.45561218261719, 4.472296714782715, 9.411972045898438, -0.06743379682302475, 1.883273959159851, 1.6631964445114136, -0.5857463479042053, 
244, 1187738795, 94.46685028076172, -27.66547966003418, 116.4574966430664, 4.036554336547852, 9.425947189331055, 0.031133873388171196, 1.0858771800994873, 1.373755693435669, 0.6735392212867737, 
245, 1187747128, 94.464111328125, -27.672866821289062, 116.45600891113281, 4.184222221374512, 8.718039512634277, -0.1982608437538147, 1.0687923431396484, 0.6475918889045715, 1.4209880828857422, 
246, 1187755461, 94.46388244628906, -27.676376342773438, 116.45104217529297, 5.070586204528809, 8.027502059936523, -0.9987863302230835, 1.3123068809509277, 0.4921391010284424, 0.966873288154602, 
247, 1187763794, 94.46554565429688, -27.67415428161621, 116.45490264892578, 5.016565322875977, 8.231639862060547, -1.2602757215499878, 1.9151893854141235, 1.5466516017913818, 0.18499882519245148, 
248, 1187772127, 94.47012329101562, -27.664770126342773, 116.45868682861328, 4.724047660827637, 9.1696195602417, -0.35278627276420593, 2.2599823474884033, 1.4725240468978882, -0.6693512201309204, 
249, 1187780460, 94.46411895751953, -27.663846969604492, 116.46400451660156, 4.126777172088623, 9.385624885559082, -0.13126148283481598, 1.2803149223327637, 1.7186256647109985, 0.336430162191391, 
250, 1187788793, 94.46039581298828, -27.671607971191406, 116.46002960205078, 4.061061382293701, 8.938762664794922, 0.10857007652521133, 0.8335768580436707, 0.8093457818031311, 1.4448860883712769, 
251, 1187797126, 94.46177673339844, -27.676128387451172, 116.45284271240234, 4.740304946899414, 8.243464469909668, -0.9575245976448059, 1.3418911695480347, 0.19486026465892792, 1.109057903289795, 
252, 1187805459, 94.46009063720703, -27.677207946777344, 116.46372985839844, 5.1414384841918945, 8.09696102142334, -1.1112990379333496, 1.623955249786377, 1.391147494316101, 0.6027414202690125, 
253, 1187813792, 94.4658203125, -27.668474197387695, 116.46768951416016, 4.845540523529053, 8.79863166809082, -0.9035192728042603, 2.4103381633758545, 1.497523546218872, -0.5932513475418091, 
254, 1187822125, 94.46259307861328, -27.663368225097656, 116.47416687011719, 4.292497158050537, 9.46151065826416, 0.06243916600942612, 1.4750854969024658, 1.797440528869629, -0.18268072605133057, 
255, 1187830458, 94.4560775756836, -27.66989517211914, 116.46651458740234, 4.0454421043396, 9.170647621154785, 0.0671471431851387, 0.7314016222953796, 0.8753536343574524, 1.3023685216903687, 
256, 1187838791, 94.45625305175781, -27.676218032836914, 116.45925903320312, 4.40164041519165, 8.457904815673828, -0.5406091213226318, 1.116255521774292, 0.44772398471832275, 1.2991411685943604, 
257, 1187847124, 94.45675659179688, -27.679309844970703, 116.45702362060547, 5.1322712898254395, 8.027921676635742, -1.0641918182373047, 1.6436269283294678, 0.9492507576942444, 0.8820133209228516, 
258, 1187855457, 94.45970153808594, -27.672014236450195, 116.46160888671875, 4.9674553871154785, 8.446784973144531, -1.084981918334961, 2.2619032859802246, 1.4893524646759033, -0.41026321053504944, 
259, 1187863790, 94.4596176147461, -27.663238525390625, 116.46673583984375, 4.5644354820251465, 9.381287574768066, -0.07757512480020523, 1.7764370441436768, 1.6198058128356934, -0.6100542545318604, 
260, 1187872123, 94.45494842529297, -27.66427230834961, 116.46734619140625, 4.042808532714844, 9.425376892089844, -0.0674387589097023, 0.975915253162384, 1.2326467037200928, 0.5997188687324524, 
261, 1187880456, 94.45176696777344, -27.67174530029297, 116.46257781982422, 4.180407524108887, 8.716851234436035, -0.1903773546218872, 1.0118645429611206, 0.6429941058158875, 1.4337823390960693, 
262, 1187888789, 94.4522933959961, -27.676097869873047, 116.45692443847656, 5.024543762207031, 8.084975242614746, -1.0432236194610596, 1.2474771738052368, 0.5991297364234924, 1.050145149230957, 
263, 1187897122, 94.45048522949219, -27.674400329589844, 116.46412658691406, 5.0188493728637695, 8.215951919555664, -1.135088324546814, 1.7642958164215088, 1.6605324745178223, 0.24923934042453766, 
264, 1187905455, 94.45246124267578, -27.664396286010742, 116.46856689453125, 4.722414016723633, 9.077713012695312, -0.4145015478134155, 2.1757373809814453, 1.515735149383545, -0.7397903203964233, 
265, 1187913788, 94.44929504394531, -27.663204193115234, 116.4738540649414, 4.1712822914123535, 9.481756210327148, 0.04531339555978775, 1.416300654411316, 1.709045648574829, 0.2966768741607666, 
266, 1187922121, 94.44512176513672, -27.670774459838867, 116.46981048583984, 4.048177242279053, 8.956425666809082, -0.0005576385883614421, 0.774971604347229, 0.8008162379264832, 1.4228068590164185, 
267, 1187930454, 94.44538116455078, -27.676637649536133, 116.46343994140625, 4.827375411987305, 8.269021987915039, -0.7939847707748413, 1.3385871648788452, 0.45609986782073975, 1.2492958307266235, 
268, 1187938787, 94.44560241699219, -27.677562713623047, 116.46540832519531, 5.110309600830078, 8.078721046447754, -1.1719614267349243, 1.6356993913650513, 1.373307228088379, 0.5790354013442993, 
269, 1187947120, 94.44882202148438, -27.669034957885742, 116.47065734863281, 4.749860763549805, 8.76159954071045, -0.7731340527534485, 2.383904218673706, 1.654666781425476, -0.5717609524726868, 
270, 1187955453, 94.44407653808594, -27.664949417114258, 116.4784164428711, 4.262810707092285, 9.466800689697266, 0.03217804431915283, 1.5014680624008179, 1.8205701112747192, -0.052201807498931885, 
271, 1187963786, 94.44039154052734, -27.670034408569336, 116.4752197265625, 4.05501127243042, 9.168377876281738, 0.09993237257003784, 0.8832429051399231, 0.8661068677902222, 1.1165885925292969, 
272, 1187972119, 94.44287109375, -27.677282333374023, 116.46590423583984, 4.514685153961182, 8.389996528625488, -0.6259112358093262, 1.2766263484954834, 0.23773853480815887, 1.4279040098190308, 
273, 1187980452, 94.4421157836914, -27.680795669555664, 116.46627044677734, 5.176894187927246, 8.022810935974121, -1.032938838005066, 1.522241234779358, 1.0173845291137695, 0.9259161353111267, 
274, 1187988785, 94.4463119506836, -27.67285919189453, 116.47148895263672, 4.91248893737793, 8.50318431854248, -1.1028547286987305, 2.296098232269287, 1.6369160413742065, -0.5103123784065247, 
275, 1187997118, 94.44377899169922, -27.665164947509766, 116.4782485961914, 4.419735908508301, 9.35205364227295, -0.072468101978302, 1.7202391624450684, 1.705459713935852, -0.47693705558776855, 
276, 1188005451, 94.43885803222656, -27.667098999023438, 116.47872924804688, 4.072622776031494, 9.382515907287598, 0.062170736491680145, 1.1427921056747437, 1.2437376976013184, 0.7174164056777954, 
277, 1188013784, 94.43789672851562, -27.67569351196289, 116.47188568115234, 4.159672260284424, 8.594738960266113, -0.2749476730823517, 1.0049105882644653, 0.5121694803237915, 1.5682188272476196, 
278, 1188022117, 94.43951416015625, -27.680200576782227, 116.46623992919922, 5.014266490936279, 8.05749225616455, -0.9369595050811768, 1.3789808750152588, 0.6021267175674438, 1.0676909685134888, 
279, 1188030450, 94.43936920166016, -27.677072525024414, 116.47107696533203, 5.025924205780029, 8.184097290039062, -1.1941463947296143, 1.8788939714431763, 1.4833333492279053, 0.09037984162569046, 
280, 1188038783, 94.44419860839844, -27.667198181152344, 116.47463989257812, 4.760018825531006, 9.18372917175293, -0.3198762536048889, 2.2784504890441895, 1.443272590637207, -0.7283920049667358, 
281, 1188047116, 94.43926239013672, -27.66436767578125, 116.48101043701172, 4.181781768798828, 9.365924835205078, -0.18656662106513977, 1.4235750436782837, 1.7257719039916992, 0.10682415962219238, 
282, 1188055449, 94.43374633789062, -27.67104721069336, 116.47809600830078, 4.066071033477783, 9.000321388244629, 0.15365912020206451, 0.8074759244918823, 0.7719745635986328, 1.3259592056274414, 
283, 1188063782, 94.43657684326172, -27.67544174194336, 116.46830749511719, 4.714667797088623, 8.179566383361816, -1.0032304525375366, 1.2944283485412598, 0.16046039760112762, 1.0888739824295044, 
284, 1188072115, 94.43902587890625, -27.675718307495117, 116.4682388305664, 5.055145263671875, 8.142489433288574, -1.0107781887054443, 1.7891157865524292, 1.1524739265441895, 0.5188803672790527, 
285, 1188080448, 94.4432373046875, -27.666149139404297, 116.4719009399414, 4.832536697387695, 8.692447662353516, -0.8947201371192932, 2.4175865650177, 1.4570015668869019, -0.6830035448074341, 
286, 1188088781, 94.44124603271484, -27.660987854003906, 116.4789047241211, 4.28292179107666, 9.486906051635742, 0.06799212098121643, 1.6513115167617798, 1.8538175821304321, -0.19261905550956726, 
287, 1188097114, 94.435546875, -27.66488265991211, 116.47875213623047, 4.075211048126221, 9.242173194885254, 0.04988435283303261, 0.8953583836555481, 0.9628520011901855, 0.9771959185600281, 
288, 1188105447, 94.43477630615234, -27.671653747558594, 116.47232055664062, 4.437197208404541, 8.509196281433105, -0.5980781316757202, 1.2115660905838013, 0.46173498034477234, 1.3598982095718384, 
289, 1188113780, 94.43633270263672, -27.674522399902344, 116.4699478149414, 5.095006465911865, 8.00849437713623, -1.046641230583191, 1.5537465810775757, 0.9322940707206726, 0.8463326692581177, 
290, 1188122113, 94.43959045410156, -27.66931915283203, 116.47470092773438, 4.884891510009766, 8.418010711669922, -1.0958001613616943, 2.156142473220825, 1.6124290227890015, -0.17837752401828766, 
291, 1188130446, 94.44052124023438, -27.66094398498535, 116.4796142578125, 4.56725549697876, 9.31751537322998, -0.11184054613113403, 2.0504322052001953, 1.537916898727417, -0.5452758073806763, 
292, 1188138779, 94.43656158447266, -27.662311553955078, 116.48102569580078, 4.071531295776367, 9.462296485900879, -0.04547225683927536, 1.102398157119751, 1.3196837902069092, 0.6356812715530396, 
293, 1188147112, 94.43353271484375, -27.66967010498047, 116.47650146484375, 4.1607842445373535, 8.716200828552246, -0.16020560264587402, 1.024300456047058, 0.6292520761489868, 1.419630527496338, 
294, 1188155445, 94.43460845947266, -27.67341423034668, 116.46955108642578, 5.007564544677734, 8.06692123413086, -1.0773109197616577, 1.413252592086792, 0.40166962146759033, 1.002502679824829, 
295, 1188163778, 94.4359359741211, -27.670372009277344, 116.473388671875, 5.106961250305176, 8.229719161987305, -1.227306842803955, 1.8760762214660645, 1.534331202507019, 0.08799771219491959, 
296, 1188172111, 94.44012451171875, -27.660552978515625, 116.47823333740234, 4.708400249481201, 9.104148864746094, -0.48155465722084045, 2.2738139629364014, 1.5815893411636353, -0.7317985892295837, 
297, 1188180444, 94.43568420410156, -27.657962799072266, 116.48472595214844, 4.137125015258789, 9.47859001159668, -0.026439717039465904, 1.456412434577942, 1.677361011505127, 0.13912369310855865, 
298, 1188188777, 94.43101501464844, -27.66657066345215, 116.48051452636719, 4.0033745765686035, 8.979774475097656, 0.11900532990694046, 0.7046347856521606, 0.7901095151901245, 1.5479578971862793, 
299, 1188197110, 94.43196105957031, -27.672834396362305, 116.4730453491211, 4.720487594604492, 8.230057716369629, -0.7512930631637573, 1.297194480895996, 0.23983889818191528, 1.3184798955917358, 
300, 1188205443, 94.43029022216797, -27.674009323120117, 116.47282409667969, 5.189981460571289, 8.09917163848877, -1.1521579027175903, 1.5647863149642944, 1.2921741008758545, 0.6220800876617432, 
301, 1188213776, 94.43488311767578, -27.664894104003906, 116.4779052734375, 4.89176607131958, 8.776487350463867, -0.8301418423652649, 2.33664608001709, 1.611814260482788, -0.6490647196769714, 
302, 1188222109, 94.43189239501953, -27.659727096557617, 116.4843978881836, 4.314078330993652, 9.46925163269043, -0.06167294830083847, 1.5031840801239014, 1.797824740409851, -0.18708637356758118, 
303, 1188230442, 94.42597961425781, -27.66546630859375, 116.48351287841797, 4.067429542541504, 9.305017471313477, 0.10124167054891586, 0.8917978405952454, 1.029371976852417, 1.1911513805389404, 
304, 1188238775, 94.42707061767578, -27.672338485717773, 116.47588348388672, 4.342627048492432, 8.50678825378418, -0.5117987394332886, 1.2072117328643799, 0.41204342246055603, 1.3687608242034912, 
305, 1188247108, 94.4255142211914, -27.67568016052246, 116.4753646850586, 5.145134925842285, 8.022626876831055, -1.1562482118606567, 1.4143283367156982, 1.001657485961914, 0.9057576656341553, 
306, 1188255441, 94.42605590820312, -27.670791625976562, 116.48206329345703, 4.954867362976074, 8.328079223632812, -1.0399707555770874, 2.0875985622406006, 1.7281540632247925, -0.1387779265642166, 
307, 1188263774, 94.42708587646484, -27.66314125061035, 116.48626708984375, 4.541608810424805, 9.347740173339844, -0.14915210008621216, 1.8613224029541016, 1.5326405763626099, -0.46807458996772766, 
308, 1188272107, 94.4229507446289, -27.663375854492188, 116.48961639404297, 4.060794353485107, 9.405730247497559, 0.02162993885576725, 1.1906136274337769, 1.5170156955718994, 0.4845316410064697, 
309, 1188280440, 94.41947174072266, -27.671009063720703, 116.48483276367188, 4.161018371582031, 8.792403221130371, -0.09364745020866394, 1.003527283668518, 0.7105004191398621, 1.445526361465454, 
310, 1188288773, 94.42025756835938, -27.676084518432617, 116.47940826416016, 4.979708671569824, 8.060535430908203, -1.085355281829834, 1.2931218147277832, 0.6289703845977783, 1.134416103363037, 
311, 1188297106, 94.41897583007812, -27.675060272216797, 116.4833755493164, 5.044702529907227, 8.231073379516602, -1.101365566253662, 1.739372968673706, 1.5086654424667358, 0.342705637216568, 
312, 1188305439, 94.42485046386719, -27.665916442871094, 116.487548828125, 4.760443687438965, 9.014896392822266, -0.6224200129508972, 2.4362339973449707, 1.5178101062774658, -0.6436088681221008, 
313, 1188313772, 94.42079162597656, -27.662771224975586, 116.49333190917969, 4.134885787963867, 9.40680980682373, 0.014697871170938015, 1.4269050359725952, 1.5433472394943237, 0.08331029862165451, 
314, 1188322105, 94.41542053222656, -27.669763565063477, 116.49070739746094, 4.063514709472656, 8.94299602508545, 0.10330802947282791, 0.8543499708175659, 0.8476390242576599, 1.3571830987930298, 
315, 1188330438, 94.417724609375, -27.67496109008789, 116.48057556152344, 4.668524265289307, 8.299873352050781, -0.8591850996017456, 1.2137945890426636, 0.13054293394088745, 1.1874374151229858, 
316, 1188338771, 94.41754150390625, -27.676982879638672, 116.48188018798828, 5.166584014892578, 8.07597827911377, -1.1050198078155518, 1.5536441802978516, 1.315380573272705, 0.7145987153053284, 
317, 1188347104, 94.41957092285156, -27.668685913085938, 116.4854507446289, 4.8547163009643555, 8.689458847045898, -0.8560197949409485, 2.157986640930176, 1.4993677139282227, -0.5308294296264648, 
318, 1188355437, 94.41827392578125, -27.663097381591797, 116.49182891845703, 4.309290409088135, 9.419201850891113, -0.01784680224955082, 1.6989282369613647, 1.780714511871338, -0.23621448874473572, 
319, 1188363770, 94.41276550292969, -27.66771697998047, 116.4898910522461, 4.000199317932129, 9.258068084716797, 0.1192823126912117, 0.8977916836738586, 0.9451012015342712, 1.0626193284988403, 
320, 1188372103, 94.4132080078125, -27.675262451171875, 116.48662567138672, 4.359391689300537, 8.467511177062988, -0.49367019534111023, 1.2423031330108643, 0.27336791157722473, 1.4707565307617188, 
321, 1188380436, 94.41484832763672, -27.678190231323242, 116.48341369628906, 5.112213134765625, 7.991497993469238, -1.004045844078064, 1.5178099870681763, 0.8449751734733582, 0.8590885996818542, 
322, 1188388769, 94.4175796508789, -27.67283821105957, 116.48799133300781, 5.0336833000183105, 8.364541053771973, -1.1711995601654053, 2.086061954498291, 1.5926035642623901, -0.19533416628837585, 
323, 1188397102, 94.41809844970703, -27.663488388061523, 116.4954605102539, 4.567715644836426, 9.317093849182129, -0.19584262371063232, 2.0812206268310547, 1.687862753868103, -0.6736031770706177, 
324, 1188405435, 94.41293334960938, -27.664344787597656, 116.49772644042969, 4.069096565246582, 9.423316955566406, -0.03264736384153366, 1.0074461698532104, 1.4055683612823486, 0.5665740966796875, 
325, 1188413768, 94.40935516357422, -27.672332763671875, 116.49440002441406, 4.137520790100098, 8.77182388305664, -0.13480085134506226, 1.0023746490478516, 0.7248444557189941, 1.4863299131393433, 
326, 1188422101, 94.4090347290039, -27.676462173461914, 116.48469543457031, 4.946298122406006, 8.069036483764648, -0.8948850035667419, 1.2073395252227783, 0.33312591910362244, 1.053884744644165, 
327, 1188430434, 94.40937805175781, -27.6746826171875, 116.4900131225586, 5.040743350982666, 8.194504737854004, -1.2412877082824707, 1.8402676582336426, 1.7041022777557373, 0.22685249149799347, 
328, 1188438767, 94.4131851196289, -27.665063858032227, 116.49411010742188, 4.7617340087890625, 9.055871963500977, -0.38739824295043945, 2.1876988410949707, 1.5048747062683105, -0.7025984525680542, 
329, 1188447100, 94.40917205810547, -27.66175079345703, 116.50102233886719, 4.197879791259766, 9.40059757232666, -0.10569638013839722, 1.5473686456680298, 1.7688552141189575, 0.04778335615992546, 
330, 1188455433, 94.40508270263672, -27.668106079101562, 116.49666595458984, 4.074559688568115, 9.040792465209961, 0.1711532324552536, 0.7679531574249268, 0.754326343536377, 1.2782912254333496, 
331, 1188463766, 94.40396118164062, -27.674114227294922, 116.49253845214844, 4.6466593742370605, 8.325928688049316, -0.7804149389266968, 1.108571171760559, 0.36002087593078613, 1.279315710067749, 
332, 1188472099, 94.40201568603516, -27.676250457763672, 116.49524688720703, 5.080080032348633, 8.117157936096191, -1.0698901414871216, 1.5287727117538452, 1.3026758432388306, 0.7367038130760193, 
333, 1188480432, 94.40599822998047, -27.668621063232422, 116.50035095214844, 4.875426292419434, 8.635843276977539, -1.014445424079895, 2.2657196521759033, 1.6301026344299316, -0.47178858518600464, 
334, 1188488765, 94.40436553955078, -27.66251564025879, 116.50740051269531, 4.378195762634277, 9.362126350402832, -0.003956206142902374, 1.6981852054595947, 1.8468246459960938, -0.302657812833786, 
335, 1188497098, 94.39826965332031, -27.666643142700195, 116.50544738769531, 4.038967132568359, 9.30868148803711, 0.0667145699262619, 0.8639296889305115, 0.9984300136566162, 0.9985324740409851, 
336, 1188505431, 94.3989486694336, -27.67405128479004, 116.49919128417969, 4.293406963348389, 8.581137657165527, -0.4613041579723358, 1.2347981929779053, 0.562680721282959, 1.4212441444396973, 
337, 1188513764, 94.39972686767578, -27.676921844482422, 116.4948501586914, 5.095386981964111, 8.038456916809082, -0.9735701084136963, 1.531129240989685, 0.683093249797821, 0.8732532262802124, 
338, 1188522097, 94.40103149414062, -27.671489715576172, 116.50128173828125, 4.973482131958008, 8.374363899230957, -1.1945021152496338, 2.1644668579101562, 1.6991586685180664, -0.20309525728225708, 
339, 1188530430, 94.4036636352539, -27.66254997253418, 116.5068130493164, 4.62191915512085, 9.34385871887207, -0.10639060288667679, 2.1251235008239746, 1.6617108583450317, -0.6312628388404846, 
340, 1188538763, 94.40084075927734, -27.66272735595703, 116.50782775878906, 4.037685394287109, 9.423057556152344, -0.15893955528736115, 1.2190967798233032, 1.2666112184524536, 0.4964679479598999, 
341, 1188547096, 94.39787292480469, -27.67075538635254, 116.50186920166016, 4.06005859375, 8.78337287902832, 0.047315143048763275, 0.9730463624000549, 0.5266158580780029, 1.506181001663208, 
342, 1188555429, 94.40019226074219, -27.67675018310547, 116.49253845214844, 4.936115741729736, 8.100641250610352, -1.0506869554519653, 1.2607709169387817, 0.2238556146621704, 1.2754735946655273, 
343, 1188563762, 94.39909362792969, -27.67513656616211, 116.49674224853516, 5.175927639007568, 8.1718168258667, -1.1537199020385742, 1.7504383325576782, 1.492195725440979, 0.2741875648498535, 
344, 1188572095, 94.40301513671875, -27.66591453552246, 116.50259399414062, 4.8161444664001465, 9.007843971252441, -0.7101752161979675, 2.423785448074341, 1.5619944334030151, -0.64875727891922, 
345, 1188580428, 94.40058135986328, -27.661914825439453, 116.50857543945312, 4.203843593597412, 9.48538589477539, 0.0058421967551112175, 1.5420409440994263, 1.753255844116211, -0.04423578456044197, 
346, 1188588761, 94.39645385742188, -27.668851852416992, 116.50444030761719, 4.023690223693848, 9.091521263122559, 0.1668078899383545, 0.7745615839958191, 0.7845767736434937, 1.3465275764465332, 
347, 1188597094, 94.39599609375, -27.675432205200195, 116.49573516845703, 4.61238956451416, 8.3810396194458, -0.7383384704589844, 1.1543183326721191, 0.28164130449295044, 1.3519576787948608, 
348, 1188605427, 94.39576721191406, -27.67903709411621, 116.4949951171875, 5.140739917755127, 8.007219314575195, -1.1041604280471802, 1.4341152906417847, 1.1137837171554565, 0.9203962683677673, 
349, 1188613760, 94.39855194091797, -27.671438217163086, 116.50152587890625, 4.914255142211914, 8.572689056396484, -0.9167459011077881, 2.2910780906677246, 1.570523977279663, -0.4534488618373871, 
350, 1188622093, 94.39656066894531, -27.66484832763672, 116.50772857666016, 4.405113220214844, 9.354293823242188, -0.03156500682234764, 1.7574824094772339, 1.6686265468597412, -0.34120723605155945, 
351, 1188630426, 94.39310455322266, -27.669307708740234, 116.50652313232422, 4.0452046394348145, 9.389236450195312, 0.013062611222267151, 1.021124243736267, 1.071353793144226, 1.0264776945114136, 
352, 1188638759, 94.3922119140625, -27.677734375, 116.50043487548828, 4.259785175323486, 8.606291770935059, -0.3112557530403137, 1.0515540838241577, 0.5881925821304321, 1.541298270225525, 
353, 1188647092, 94.39176177978516, -27.682754516601562, 116.49447631835938, 5.074499607086182, 8.004079818725586, -1.0967071056365967, 1.3627924919128418, 0.6786876320838928, 1.1342624425888062, 
354, 1188655425, 94.39303588867188, -27.679109573364258, 116.50035095214844, 4.989421367645264, 8.265710830688477, -1.1711769104003906, 1.9835537672042847, 1.748338222503662, -0.0003329850733280182, 
355, 1188663758, 94.3946762084961, -27.670299530029297, 116.5058822631836, 4.692417144775391, 9.205748558044434, -0.20963943004608154, 2.137315511703491, 1.5420923233032227, -0.5993475317955017, 
356, 1188672091, 94.38922119140625, -27.670207977294922, 116.51166534423828, 4.141104698181152, 9.365025520324707, -0.12955963611602783, 1.313997507095337, 1.6861212253570557, 0.4405520558357239, 
357, 1188680424, 94.38587188720703, -27.677995681762695, 116.50580596923828, 4.052896499633789, 8.881478309631348, 0.08938007056713104, 0.7743310928344727, 0.6078130006790161, 1.4639431238174438, 
358, 1188688757, 94.38792419433594, -27.682680130004883, 116.49767303466797, 4.804143905639648, 8.167023658752441, -1.0151069164276123, 1.2955807447433472, 0.33973437547683716, 1.109057903289795, 
359, 1188697090, 94.38798522949219, -27.68317413330078, 116.49909210205078, 5.105092525482178, 8.109947204589844, -1.04985511302948, 1.7683427333831787, 1.2785474061965942, 0.544212818145752, 
360, 1188705423, 94.39371490478516, -27.672597885131836, 116.5031967163086, 4.798211097717285, 8.85490608215332, -0.7385871410369873, 2.4194822311401367, 1.492451786994934, -0.8160695433616638, 
361, 1188713756, 94.38935089111328, -27.66765785217285, 116.50933074951172, 4.165349006652832, 9.448692321777344, -0.015854869037866592, 1.5469845533370972, 1.8406518697738647, -0.15596507489681244, 
362, 1188722089, 94.38250732421875, -27.67276954650879, 116.50779724121094, 4.0406904220581055, 9.138985633850098, 0.26357555389404297, 0.7056849598884583, 0.8882120251655579, 1.1302409172058105, 
363, 1188730422, 94.3839340209961, -27.679880142211914, 116.49951934814453, 4.484321117401123, 8.38005256652832, -0.7387735843658447, 1.21310293674469, 0.3457281291484833, 1.4014188051223755, 
364, 1188738755, 94.38573455810547, -27.681957244873047, 116.49781036376953, 5.1953840255737305, 7.990241527557373, -0.9379445314407349, 1.6231355667114258, 0.9953563213348389, 0.7442086935043335, 
365, 1188747088, 94.38982391357422, -27.67509651184082, 116.5010757446289, 4.949148654937744, 8.511533737182617, -1.124098777770996, 2.364565134048462, 1.4192720651626587, -0.35222136974334717, 
366, 1188755421, 94.39005279541016, -27.667343139648438, 116.5066909790039, 4.537826061248779, 9.413105964660645, -0.04324794188141823, 1.840575098991394, 1.6791282892227173, -0.48969292640686035, 
367, 1188763754, 94.38436126708984, -27.668371200561523, 116.50816345214844, 4.0423970222473145, 9.420086860656738, -0.026360604912042618, 1.0416158437728882, 1.2107208967208862, 0.6117319464683533, 
368, 1188772087, 94.38253021240234, -27.675174713134766, 116.50293731689453, 4.230487823486328, 8.669020652770996, -0.22716447710990906, 1.118279218673706, 0.5366567373275757, 1.3591810464859009, 
369, 1188780420, 94.3835220336914, -27.679363250732422, 116.49739837646484, 4.980380058288574, 8.034520149230957, -1.0733011960983276, 1.3146378993988037, 0.6107842922210693, 1.0286036729812622, 
370, 1188788753, 94.38436889648438, -27.676122665405273, 116.50140380859375, 5.043582916259766, 8.244109153747559, -1.1431902647018433, 1.8254882097244263, 1.5500837564468384, 0.06304944306612015, 
371, 1188797086, 94.3867416381836, -27.667034149169922, 116.50897216796875, 4.740116119384766, 9.129173278808594, -0.38740870356559753, 2.176403045654297, 1.4308496713638306, -0.6246799826622009, 
372, 1188805419, 94.38397216796875, -27.66429901123047, 116.51374053955078, 4.15448522567749, 9.45680046081543, -0.07565228641033173, 1.4347429275512695, 1.63753080368042, 0.11788952350616455, 
373, 1188813752, 94.3790054321289, -27.671037673950195, 116.50968170166016, 4.067821979522705, 9.00825309753418, 0.06818327307701111, 0.8053499460220337, 0.6609624624252319, 1.3416352272033691, 
374, 1188822085, 94.37940216064453, -27.676244735717773, 116.50334167480469, 4.756458759307861, 8.264119148254395, -0.8214097619056702, 1.3471423387527466, 0.4591735601425171, 1.1728885173797607, 
375, 1188830418, 94.38101196289062, -27.677000045776367, 116.50349426269531, 5.092585563659668, 8.084107398986816, -1.162575602531433, 1.702872633934021, 1.1779088973999023, 0.5741559267044067, 
376, 1188838751, 94.38655090332031, -27.668088912963867, 116.50749969482422, 4.816720008850098, 8.795920372009277, -0.8385829925537109, 2.3926384449005127, 1.5008533000946045, -0.6165345907211304, 
377, 1188847084, 94.38225555419922, -27.662490844726562, 116.51660919189453, 4.292068958282471, 9.425515174865723, 0.03971985727548599, 1.5308219194412231, 1.7679071426391602, -0.22975966334342957, 
378, 1188855417, 94.37898254394531, -27.667346954345703, 116.51335906982422, 4.0490312576293945, 9.215686798095703, -0.04084988683462143, 0.929143488407135, 0.8544780015945435, 1.091256022453308, 
379, 1188863750, 94.37877655029297, -27.674104690551758, 116.50950622558594, 4.411301136016846, 8.460803031921387, -0.5375536680221558, 1.21524178981781, 0.3609302341938019, 1.3650083541870117, 
380, 1188872083, 94.37825012207031, -27.67686653137207, 116.50814056396484, 5.181725978851318, 8.004799842834473, -1.0771713256835938, 1.5349458456039429, 0.99945467710495, 0.8365994095802307, 
381, 1188880416, 94.38191223144531, -27.67119598388672, 116.51249694824219, 4.938726425170898, 8.498475074768066, -1.194340467453003, 2.184112787246704, 1.56637442111969, -0.22999021410942078, 
382, 1188888749, 94.38229370117188, -27.663515090942383, 116.51844024658203, 4.470294952392578, 9.358315467834473, -0.024145977571606636, 1.878970742225647, 1.7151421308517456, -0.4844164550304413, 
383, 1188897082, 94.37730407714844, -27.66612434387207, 116.5191650390625, 4.047855377197266, 9.42088508605957, -0.0007821368053555489, 1.123914122581482, 1.2280616760253906, 0.7999966144561768, 
384, 1188905415, 94.3761978149414, -27.6744327545166, 116.51274108886719, 4.184502601623535, 8.68710994720459, -0.2220676839351654, 1.0113651752471924, 0.5522813200950623, 1.5305402278900146, 
385, 1188913748, 94.37764739990234, -27.679285049438477, 116.50582885742188, 5.0010175704956055, 8.067113876342773, -1.0032591819763184, 1.4560796022415161, 0.42251959443092346, 1.1320850849151611, 
386, 1188922081, 94.37742614746094, -27.677358627319336, 116.50935363769531, 5.0860371589660645, 8.229253768920898, -1.1665775775909424, 1.8444684743881226, 1.4779287576675415, 0.2349465787410736, 
387, 1188930414, 94.38141632080078, -27.667795181274414, 116.51472473144531, 4.767941951751709, 9.120749473571777, -0.43014973402023315, 2.2806785106658936, 1.6374284029006958, -0.7021886110305786, 
388, 1188938747, 94.37786102294922, -27.66448402404785, 116.52008819580078, 4.150956630706787, 9.441964149475098, -0.13404718041419983, 1.3749849796295166, 1.6959311962127686, 0.042609281837940216, 
389, 1188947080, 94.37305450439453, -27.67116355895996, 116.5176773071289, 4.071901798248291, 9.020440101623535, 0.17111441493034363, 0.9331393837928772, 0.8749182224273682, 1.3184798955917358, 
390, 1188955413, 94.37548065185547, -27.67704963684082, 116.50789642333984, 4.664647579193115, 8.269545555114746, -0.9366630911827087, 1.2477333545684814, 0.1734980195760727, 1.2663805484771729, 
391, 1188963746, 94.3744125366211, -27.67859649658203, 116.5093002319336, 5.141785621643066, 8.043745994567871, -1.0457595586776733, 1.6192933320999146, 1.27467942237854, 0.6702859997749329, 
392, 1188972079, 94.37808227539062, -27.67025375366211, 116.5135498046875, 4.840742588043213, 8.674798965454102, -0.8540443778038025, 2.3254523277282715, 1.4413769245147705, -0.5350044369697571, 
393, 1188980412, 94.37580108642578, -27.664167404174805, 116.52115631103516, 4.402354717254639, 9.421884536743164, -0.04677731171250343, 1.6544106006622314, 1.9074279069900513, -0.3068329095840454, 
394, 1188988745, 94.37240600585938, -27.667375564575195, 116.5191879272461, 4.045319080352783, 9.323165893554688, 0.07207919657230377, 0.9857253432273865, 0.9767861366271973, 0.8833708763122559, 
395, 1188997078, 94.37030029296875, -27.67508316040039, 116.51349639892578, 4.360554218292236, 8.543370246887207, -0.4564249813556671, 1.0867481231689453, 0.5733363032341003, 1.465070366859436, 
396, 1189005411, 94.37126159667969, -27.679365158081055, 116.51043701171875, 5.04275369644165, 7.970621109008789, -1.0465747117996216, 1.4480879306793213, 0.872433602809906, 1.0204325914382935, 
397, 1189013744, 94.37157440185547, -27.674184799194336, 116.51747131347656, 4.970381259918213, 8.32767391204834, -1.1443101167678833, 2.015084743499756, 1.642448902130127, -0.16887466609477997, 
398, 1189022077, 94.37154388427734, -27.665380477905273, 116.52162170410156, 4.618756294250488, 9.262704849243164, -0.1727842390537262, 1.9725650548934937, 1.630614995956421, -0.6018832921981812, 
399, 1189030410, 94.36784362792969, -27.665470123291016, 116.52417755126953, 4.066195011138916, 9.448819160461426, -0.07214115560054779, 1.1998860836029053, 1.427827000617981, 0.47167328000068665, 
400, 1189038743, 94.36602783203125, -27.674585342407227, 116.5184097290039, 4.0956830978393555, 8.777396202087402, -0.0032862997613847256, 0.9652340412139893, 0.6297387480735779, 1.6202924251556396, 
401, 1189047076, 94.36724853515625, -27.679527282714844, 116.51029968261719, 4.904974460601807, 8.092364311218262, -0.9235683679580688, 1.340789794921875, 0.26074010133743286, 1.1576482057571411, 
402, 1189055409, 94.36843872070312, -27.678489685058594, 116.51376342773438, 5.097386837005615, 8.165987968444824, -1.2106918096542358, 1.83914053440094, 1.5151972770690918, 0.33041077852249146, 
403, 1189063742, 94.37120819091797, -27.66823959350586, 116.52119445800781, 4.820390224456787, 8.978605270385742, -0.5426710844039917, 2.207857370376587, 1.4158653020858765, -0.7594876289367676, 
404, 1189072075, 94.36589813232422, -27.66401481628418, 116.52979278564453, 4.187331199645996, 9.412989616394043, -0.14922350645065308, 1.4377143383026123, 1.8407800197601318, -0.07038792222738266, 
405, 1189080408, 94.3624267578125, -27.6699161529541, 116.5262222290039, 4.0038371086120605, 9.100876808166504, 0.24757787585258484, 0.8858298659324646, 0.8313227891921997, 1.2209408283233643, 
406, 1189088741, 94.36408996582031, -27.67652130126953, 116.51800537109375, 4.5540876388549805, 8.308540344238281, -0.8952794075012207, 1.24588942527771, 0.3459843099117279, 1.3386896848678589, 
407, 1189097074, 94.36396789550781, -27.67917823791504, 116.51876831054688, 5.188504695892334, 8.032852172851562, -0.9209079742431641, 1.6759265661239624, 1.1837490797042847, 0.812547504901886, 
408, 1189105407, 94.36839294433594, -27.670764923095703, 116.52256774902344, 4.923151016235352, 8.590449333190918, -1.158989429473877, 2.247713327407837, 1.4834870100021362, -0.5541639924049377, 
409, 1189113740, 94.36480712890625, -27.663196563720703, 116.53475952148438, 4.42243766784668, 9.474517822265625, 0.14939871430397034, 1.7102242708206177, 1.9366540908813477, -0.4793704152107239, 
410, 1189122073, 94.3597640991211, -27.667320251464844, 116.5301284790039, 4.031020164489746, 9.368050575256348, 0.07870230078697205, 0.9322685599327087, 0.9162851572036743, 1.0083684921264648, 
411, 1189130406, 94.3597412109375, -27.674457550048828, 116.52420043945312, 4.283700942993164, 8.582420349121094, -0.394247829914093, 1.1713773012161255, 0.5897805690765381, 1.384231686592102, 
412, 1189138739, 94.3600082397461, -27.67738151550293, 116.52153778076172, 5.115111351013184, 7.957737445831299, -1.0699406862258911, 1.479619026184082, 0.717954158782959, 0.877479612827301, 
413, 1189147072, 94.36298370361328, -27.672643661499023, 116.52595520019531, 5.002220153808594, 8.322357177734375, -1.173404574394226, 2.1049137115478516, 1.580923318862915, -0.11792793869972229, 
414, 1189155405, 94.36620330810547, -27.663341522216797, 116.53015899658203, 4.631924152374268, 9.298726081848145, -0.24073168635368347, 2.1222803592681885, 1.5182454586029053, -0.6638440489768982, 
415, 1189163738, 94.36080932617188, -27.662654876708984, 116.53543090820312, 4.057300090789795, 9.478703498840332, -0.059674035757780075, 1.2384353876113892, 1.5307707786560059, 0.3827663064002991, 
416, 1189172071, 94.35820007324219, -27.669164657592773, 116.53012084960938, 4.139327049255371, 8.798142433166504, 0.052455153316259384, 0.8966390490531921, 0.6514852046966553, 1.304443359375, 
417, 1189180404, 94.3578872680664, -27.67414093017578, 116.52217102050781, 4.829785346984863, 8.111238479614258, -1.0138654708862305, 1.14076828956604, 0.2315654754638672, 1.1634368896484375, 
418, 1189188737, 94.35743713378906, -27.675355911254883, 116.52469635009766, 5.0765509605407715, 8.189719200134277, -1.0939042568206787, 1.766088604927063, 1.414405345916748, 0.6187758445739746, 
419, 1189197070, 94.3631362915039, -27.666370391845703, 116.52857208251953, 4.752718448638916, 8.91657829284668, -0.7401578426361084, 2.4044978618621826, 1.4846138954162598, -0.6229638457298279, 
420, 1189205403, 94.36063385009766, -27.662870407104492, 116.53544616699219, 4.255595684051514, 9.437431335449219, 0.01486974023282528, 1.5838178396224976, 1.8523573875427246, 0.009771830402314663, 
421, 1189213736, 94.35396575927734, -27.667800903320312, 116.53447723388672, 4.053279399871826, 9.093572616577148, 0.019935423508286476, 0.7585783004760742, 0.9561153054237366, 1.099785566329956, 
422, 1189222069, 94.3554916381836, -27.675296783447266, 116.5267562866211, 4.516870498657227, 8.412398338317871, -0.6781517267227173, 1.256237506866455, 0.40661320090293884, 1.4434007406234741, 
423, 1189230402, 94.3545913696289, -27.677419662475586, 116.52668762207031, 5.079629898071289, 8.079569816589355, -1.123011827468872, 1.5214729309082031, 1.056548833847046, 0.7556071877479553, 
424, 1189238735, 94.35751342773438, -27.67121124267578, 116.53472137451172, 4.930217266082764, 8.552626609802246, -1.0530173778533936, 2.334750175476074, 1.6570487022399902, -0.2916436791419983, 
425, 1189247068, 94.35723114013672, -27.663742065429688, 116.54058074951172, 4.423707962036133, 9.341979026794434, 0.054740406572818756, 1.7979530096054077, 1.710249662399292, -0.45967307686805725, 
426, 1189255401, 94.35306549072266, -27.667098999023438, 116.53997802734375, 4.0392584800720215, 9.423627853393555, -0.005416066385805607, 0.9701263308525085, 1.1224799156188965, 0.8903380632400513, 
427, 1189263734, 94.35079956054688, -27.67588996887207, 116.53439331054688, 4.169678688049316, 8.596569061279297, -0.22104120254516602, 1.073377251625061, 0.5935714840888977, 1.5944732427597046, 
428, 1189272067, 94.35234069824219, -27.68134880065918, 116.52869415283203, 5.088956356048584, 7.9986796379089355, -0.9954380989074707, 1.3725003004074097, 0.6000262498855591, 1.1808801889419556, 
429, 1189280400, 94.35403442382812, -27.678646087646484, 116.53357696533203, 5.051270008087158, 8.29586410522461, -1.2243225574493408, 2.111496925354004, 1.5473432540893555, 0.13922616839408875, 
430, 1189288733, 94.3570327758789, -27.669870376586914, 116.53852081298828, 4.705676555633545, 9.270176887512207, -0.20574752986431122, 2.2345473766326904, 1.4189900159835815, -0.5850034952163696, 
431, 1189297066, 94.355224609375, -27.669076919555664, 116.54088592529297, 4.119006156921387, 9.427236557006836, -0.20831193029880524, 1.4164799451828003, 1.3999844789505005, 0.37016409635543823, 
432, 1189305399, 94.35282135009766, -27.677345275878906, 116.53622436523438, 4.093475341796875, 8.927619934082031, 0.12108790874481201, 0.9546040892601013, 0.7365757822990417, 1.5115855932235718, 
433, 1189313732, 94.35356903076172, -27.682437896728516, 116.52798461914062, 4.785362720489502, 8.130383491516113, -1.0172702074050903, 1.2502691745758057, 0.19447606801986694, 1.1782163381576538, 
434, 1189322065, 94.35464477539062, -27.68269157409668, 116.52946472167969, 5.118217945098877, 8.0864896774292, -1.1010444164276123, 1.7154239416122437, 1.3159440755844116, 0.5027177929878235, 
435, 1189330398, 94.35956573486328, -27.673707962036133, 116.53694915771484, 4.84087610244751, 8.829610824584961, -0.7746758460998535, 2.4853363037109375, 1.4606133699417114, -0.6136402487754822, 
436, 1189338731, 94.3545150756836, -27.668479919433594, 116.54448699951172, 4.252087116241455, 9.447757720947266, 0.0829421803355217, 1.4642761945724487, 1.8349909782409668, -0.1876498907804489, 
437, 1189347064, 94.35057067871094, -27.673702239990234, 116.54175567626953, 4.052992343902588, 9.236865043640137, 0.10296538472175598, 0.8754305839538574, 0.9152095913887024, 1.1301896572113037, 
438, 1189355397, 94.3510513305664, -27.679683685302734, 116.53392791748047, 4.443942546844482, 8.4639253616333, -0.552516758441925, 1.1272952556610107, 0.3818441927433014, 1.2619749307632446, 
439, 1189363730, 94.35004425048828, -27.682039260864258, 116.53145599365234, 5.091623783111572, 7.971863746643066, -1.141616702079773, 1.4863556623458862, 1.0225841999053955, 0.7869333028793335, 
440, 1189372063, 94.35369873046875, -27.67580223083496, 116.5367431640625, 4.912079811096191, 8.426655769348145, -1.0578700304031372, 2.2366223335266113, 1.6600457429885864, -0.3054753541946411, 
441, 1189380396, 94.35428619384766, -27.6684513092041, 116.54197692871094, 4.5071892738342285, 9.368454933166504, -0.11775472015142441, 1.9881129264831543, 1.5213191509246826, -0.42025279998779297, 
442, 1189388729, 94.34776306152344, -27.670948028564453, 116.54357147216797, 4.091823101043701, 9.422327041625977, -0.06689149886369705, 0.9518634080886841, 1.2721182107925415, 0.7846280336380005, 
443, 1189397062, 94.34644317626953, -27.678142547607422, 116.53824615478516, 4.161627769470215, 8.646355628967285, -0.13777023553848267, 1.047852873802185, 0.6558781266212463, 1.3890087604522705, 
444, 1189405395, 94.3470230102539, -27.68221092224121, 116.53269958496094, 5.009659767150879, 8.045332908630371, -1.0619224309921265, 1.265023112297058, 0.6069933772087097, 1.0124666690826416, 
445, 1189413728, 94.3463134765625, -27.680028915405273, 116.53854370117188, 5.033198356628418, 8.243724822998047, -1.1639270782470703, 1.9022539854049683, 1.701002836227417, 0.19001922011375427, 
446, 1189422061, 94.35001373291016, -27.670455932617188, 116.54332733154297, 4.7320122718811035, 9.157532691955566, -0.39824405312538147, 2.215900182723999, 1.5749038457870483, -0.7014714479446411, 
447, 1189430394, 94.34591674804688, -27.668617248535156, 116.54824829101562, 4.133108139038086, 9.470425605773926, -0.0379948765039444, 1.410358190536499, 1.5553092956542969, 0.24252839386463165, 
448, 1189438727, 94.33972930908203, -27.675228118896484, 116.5439682006836, 3.9915237426757812, 8.942131042480469, 0.05043663829565048, 0.7259713411331177, 0.8124706745147705, 1.3166868686676025, 
449, 1189447060, 94.34182739257812, -27.68208122253418, 116.5351333618164, 4.7581467628479, 8.195966720581055, -0.8218915462493896, 1.2655096054077148, 0.28123149275779724, 1.372859001159668, 
450, 1189455393, 94.34333801269531, -27.682085037231445, 116.53540802001953, 5.146317005157471, 8.06947135925293, -1.1538139581680298, 1.6995428800582886, 1.1850552558898926, 0.4811761677265167, 
451, 1189463726, 94.34686279296875, -27.670774459838867, 116.53952026367188, 4.870396137237549, 8.832464218139648, -0.8320703506469727, 2.383763313293457, 1.581064224243164, -0.8992006182670593, 
452, 1189472059, 94.34268951416016, -27.66485023498535, 116.54688262939453, 4.271085262298584, 9.48189926147461, 0.014258168637752533, 1.4128810167312622, 1.881672739982605, -0.2855602502822876, 
453, 1189480392, 94.33744049072266, -27.669206619262695, 116.54467010498047, 4.049310207366943, 9.258074760437012, 0.1858523190021515, 0.8594473004341125, 0.823100745677948, 1.0431013107299805, 
454, 1189488725, 94.33782196044922, -27.675142288208008, 116.53748321533203, 4.42892599105835, 8.402668952941895, -0.7331318855285645, 1.2532662153244019, 0.2833831310272217, 1.275166392326355, 
455, 1189497058, 94.33905029296875, -27.677982330322266, 116.53507995605469, 5.1446123123168945, 7.9911789894104, -0.9256719350814819, 1.5186551809310913, 0.9256600141525269, 0.8405694961547852, 
456, 1189505391, 94.34418487548828, -27.6709041595459, 116.53838348388672, 4.897782325744629, 8.479863166809082, -1.0332404375076294, 2.303091049194336, 1.4431188106536865, -0.38946446776390076, 
457, 1189513724, 94.34346771240234, -27.66322898864746, 116.54457092285156, 4.4980926513671875, 9.387518882751465, -0.10242010653018951, 1.8953638076782227, 1.640143632888794, -0.4671780467033386, 
458, 1189522057, 94.33961486816406, -27.664913177490234, 116.5472183227539, 4.099799633026123, 9.395923614501953, 0.018436508253216743, 1.1883083581924438, 1.4517251253128052, 0.6624224781990051, 
459, 1189530390, 94.33731842041016, -27.672351837158203, 116.54107666015625, 4.176670551300049, 8.735995292663574, -0.18097752332687378, 1.0878750085830688, 0.6109123229980469, 1.4309519529342651, 
460, 1189538723, 94.33772277832031, -27.678024291992188, 116.53506469726562, 4.981101989746094, 8.050498962402344, -1.0892183780670166, 1.403852105140686, 0.5835049748420715, 1.2187637090682983, 
461, 1189547056, 94.33932495117188, -27.676082611083984, 116.5381088256836, 4.952179431915283, 8.221884727478027, -1.1076252460479736, 1.8679563999176025, 1.4609718322753906, 0.22746723890304565, 
462, 1189555389, 94.34529113769531, -27.667591094970703, 116.540771484375, 4.765953540802002, 9.134050369262695, -0.43469688296318054, 2.3681771755218506, 1.3623571395874023, -0.5545226335525513, 
463, 1189563722, 94.34123992919922, -27.666025161743164, 116.54865264892578, 4.195599555969238, 9.401697158813477, -0.1270735114812851, 1.5042855739593506, 1.7156542539596558, 0.2608937919139862, 
464, 1189572055, 94.33757781982422, -27.67313575744629, 116.54469299316406, 4.106168270111084, 8.961584091186523, 0.19399133324623108, 0.8444628715515137, 0.8010210990905762, 1.3657894134521484, 
465, 1189580388, 94.33824920654297, -27.677879333496094, 116.54026794433594, 4.66475772857666, 8.266691207885742, -0.9388559460639954, 1.3081830739974976, 0.33430418372154236, 1.1277819871902466, 
466, 1189588721, 94.33788299560547, -27.678321838378906, 116.54289245605469, 5.112427234649658, 8.105266571044922, -1.074941635131836, 1.7069454193115234, 1.2857705354690552, 0.5352478623390198, 
467, 1189597054, 94.34422302246094, -27.6695499420166, 116.54630279541016, 4.829826831817627, 8.761865615844727, -0.8231265544891357, 2.4550089836120605, 1.4375349283218384, -0.5926365256309509, 
468, 1189605387, 94.34185028076172, -27.66396713256836, 116.55257415771484, 4.271310329437256, 9.466395378112793, -0.010420545004308224, 1.5679625272750854, 1.7706224918365479, -0.23529238998889923, 
469, 1189613720, 94.33609771728516, -27.669139862060547, 116.55034637451172, 4.048344612121582, 9.228133201599121, 0.04093572124838829, 0.83636873960495, 0.8975354433059692, 1.1340060234069824, 
470, 1189622053, 94.33751678466797, -27.676836013793945, 116.54315185546875, 4.401367664337158, 8.45623779296875, -0.5803322196006775, 1.2731682062149048, 0.46088969707489014, 1.4619451761245728, 
471, 1189630386, 94.33748626708984, -27.680192947387695, 116.53974914550781, 5.134146213531494, 7.950360298156738, -1.0750415325164795, 1.5285680294036865, 0.895102322101593, 0.9196152091026306, 
472, 1189638719, 94.34033966064453, -27.6732120513916, 116.54512786865234, 4.986911296844482, 8.423084259033203, -1.1595981121063232, 2.2702794075012207, 1.5596890449523926, -0.3774769604206085, 
473, 1189647052, 94.34125518798828, -27.66493797302246, 116.5507583618164, 4.52625846862793, 9.386331558227539, -0.0019947485998272896, 1.9314544200897217, 1.68025541305542, -0.5550093054771423, 
474, 1189655385, 94.33714294433594, -27.66681480407715, 116.55198669433594, 4.0378875732421875, 9.463592529296875, -0.07752076536417007, 1.078730583190918, 1.301805019378662, 0.6995375156402588, 
475, 1189663718, 94.33434295654297, -27.675369262695312, 116.54812622070312, 4.1704230308532715, 8.724967956542969, -0.15577098727226257, 1.0870298147201538, 0.7387786507606506, 1.5557703971862793, 
476, 1189672051, 94.33512878417969, -27.679990768432617, 116.54145812988281, 5.025196552276611, 7.996485710144043, -1.086104154586792, 1.2287530899047852, 0.4917292892932892, 1.0896166563034058, 
477, 1189680384, 94.33499145507812, -27.67810821533203, 116.54698944091797, 5.062633037567139, 8.200607299804688, -1.161328673362732, 1.9201328754425049, 1.6185250282287598, 0.23282060027122498, 
478, 1189688717, 94.33810424804688, -27.66912078857422, 116.55241394042969, 4.727805137634277, 9.125393867492676, -0.44198647141456604, 2.297558546066284, 1.5386855602264404, -0.6176872849464417, 
479, 1189697050, 94.33610534667969, -27.66694450378418, 116.55780792236328, 4.156094551086426, 9.463671684265137, -0.04810970649123192, 1.564914345741272, 1.706817388534546, 0.17944051325321198, 
480, 1189705383, 94.33265686035156, -27.67447853088379, 116.55301666259766, 4.125059127807617, 8.977301597595215, 0.07281359285116196, 0.8229726552963257, 0.7137023210525513, 1.4233191013336182, 
481, 1189713716, 94.3333969116211, -27.679981231689453, 116.54544830322266, 4.709672451019287, 8.302718162536621, -0.8922170996665955, 1.2685320377349854, 0.2576664090156555, 1.2262173891067505, 
482, 1189722049, 94.33474731445312, -27.681596755981445, 116.54621124267578, 5.07763147354126, 8.051959037780762, -1.0622044801712036, 1.7105826139450073, 1.2514986991882324, 0.6707215309143066, 
483, 1189730382, 94.33770751953125, -27.67382049560547, 116.5517807006836, 4.820456027984619, 8.745441436767578, -0.8418437242507935, 2.3020923137664795, 1.577030062675476, -0.4766041040420532, 
484, 1189738715, 94.3339614868164, -27.66840934753418, 116.55953216552734, 4.3855814933776855, 9.409591674804688, 0.0006785886362195015, 1.6135303974151611, 1.8330953121185303, -0.2091914564371109, 
485, 1189747048, 94.32981872558594, -27.672672271728516, 116.55722045898438, 4.100760459899902, 9.252338409423828, 0.001080079236999154, 0.8784016370773315, 0.9493275880813599, 1.0115444660186768, 
486, 1189755381, 94.32968139648438, -27.678939819335938, 116.5502700805664, 4.382720947265625, 8.51819896697998, -0.5365700125694275, 1.1034739017486572, 0.47630953788757324, 1.2886136770248413, 
487, 1189763714, 94.32939147949219, -27.68246078491211, 116.54977416992188, 5.07612943649292, 7.9836201667785645, -1.0541276931762695, 1.5027998685836792, 0.9087802767753601, 0.9364691972732544, 
488, 1189772047, 94.33182525634766, -27.675443649291992, 116.5547103881836, 4.957787990570068, 8.386962890625, -1.1576231718063354, 2.0689258575439453, 1.6153233051300049, -0.39553502202033997, 
489, 1189780380, 94.33061981201172, -27.667762756347656, 116.56179809570312, 4.521588325500488, 9.379209518432617, -0.04714547097682953, 1.8966443538665771, 1.7626307010650635, -0.47806409001350403, 
490, 1189788713, 94.32384490966797, -27.669191360473633, 116.5639419555664, 4.042243957519531, 9.39832878112793, -0.05674096941947937, 0.946177065372467, 1.311384677886963, 0.6535087823867798, 
491, 1189797046, 94.32183837890625, -27.67715072631836, 116.55775451660156, 4.130990982055664, 8.692436218261719, -0.04583851248025894, 0.9198968410491943, 0.5727726817131042, 1.4844601154327393, 
492, 1189805379, 94.32393646240234, -27.681608200073242, 116.55008697509766, 4.974946022033691, 8.058012008666992, -0.9767995476722717, 1.3274450302124023, 0.38215160369873047, 1.079038143157959, 
493, 1189813712, 94.32335662841797, -27.679025650024414, 116.55596160888672, 5.0908308029174805, 8.203104019165039, -1.1537342071533203, 1.8586584329605103, 1.5894273519515991, 0.15105994045734406, 
494, 1189822045, 94.32845306396484, -27.668479919433594, 116.55931091308594, 4.800680637359619, 9.116497039794922, -0.490228533744812, 2.3018360137939453, 1.4157884120941162, -0.8070533275604248, 
495, 1189830378, 94.32247161865234, -27.66461753845215, 116.56690216064453, 4.189248085021973, 9.436991691589355, -0.1270584762096405, 1.379621148109436, 1.9027917385101318, -0.026408275589346886, 
496, 1189838711, 94.31649017333984, -27.670961380004883, 116.5670166015625, 4.046835899353027, 9.03304386138916, 0.15518133342266083, 0.7546337842941284, 0.80734783411026, 1.2826968431472778, 
497, 1189847044, 94.31805419921875, -27.67654800415039, 116.55805206298828, 4.637335300445557, 8.274885177612305, -0.8491471409797668, 1.192611575126648, 0.25633445382118225, 1.223348617553711, 
498, 1189855377, 94.31849670410156, -27.678150177001953, 116.55880737304688, 5.144688129425049, 8.040947914123535, -1.0472016334533691, 1.6005182266235352, 1.2510119676589966, 0.6686467528343201, 
499, 1189863710, 94.32292175292969, -27.669658660888672, 116.5667953491211, 4.861911296844482, 8.665436744689941, -0.9708365201950073, 2.377807855606079, 1.3932735919952393, -0.5478116869926453, 
500, 1189872043, 94.32162475585938, -27.663835525512695, 116.57145690917969, 4.3704447746276855, 9.48391056060791, 0.22001826763153076, 1.608228087425232, 1.594370722770691, -0.24909842014312744, 
501, 1189880376, 94.31687927246094, -27.668493270874023, 116.56866455078125, 4.069476127624512, 9.292326927185059, -0.062301065772771835, 0.9587792754173279, 0.9096255898475647, 1.0728139877319336, 
502, 1189888709, 94.31538391113281, -27.67658805847168, 116.56134796142578, 4.398107528686523, 8.564322471618652, -0.3641355335712433, 1.1505786180496216, 0.5732593536376953, 1.5108428001403809, 
503, 1189897042, 94.31639862060547, -27.680763244628906, 116.5584487915039, 5.0551886558532715, 7.981011867523193, -1.1480573415756226, 1.4653263092041016, 0.8872898817062378, 1.0058581829071045, 
504, 1189905375, 94.3190689086914, -27.67579460144043, 116.56285095214844, 4.988321304321289, 8.365625381469727, -1.0722377300262451, 2.072230100631714, 1.5776705741882324, -0.14559131860733032, 
505, 1189913708, 94.32025146484375, -27.667076110839844, 116.5673828125, 4.614157199859619, 9.316669464111328, -0.2203512042760849, 2.017287492752075, 1.4439897537231445, -0.5791634917259216, 
506, 1189922041, 94.31563568115234, -27.667333602905273, 116.57073211669922, 4.093527317047119, 9.42582893371582, -0.0775953084230423, 1.1391290426254272, 1.5120210647583008, 0.48793837428092957, 
507, 1189930374, 94.3106689453125, -27.67524528503418, 116.56689453125, 4.128101825714111, 8.779675483703613, -0.05185406282544136, 0.8161335587501526, 0.7194141745567322, 1.4770063161849976, 
508, 1189938707, 94.31105041503906, -27.679580688476562, 116.55838012695312, 4.8741021156311035, 8.113580703735352, -0.9836687445640564, 1.3065437078475952, 0.4050762951374054, 1.0744019746780396, 
509, 1189947040, 94.3130874633789, -27.679092407226562, 116.5605697631836, 5.07047700881958, 8.147293090820312, -1.1013201475143433, 1.870902180671692, 1.3826179504394531, 0.40735599398612976, 
510, 1189955373, 94.31842803955078, -27.66938591003418, 116.56321716308594, 4.7813825607299805, 9.055365562438965, -0.5813933610916138, 2.294074773788452, 1.3483461141586304, -0.7001650929450989, 
511, 1189963706, 94.31523895263672, -27.666521072387695, 116.56681060791016, 4.202393531799316, 9.411808967590332, 0.04359636828303337, 1.5734951496124268, 1.6556143760681152, 0.11148595064878464, 
512, 1189972039, 94.3114242553711, -27.67342758178711, 116.56155395507812, 4.0139641761779785, 9.033062934875488, 0.06604093313217163, 0.7530200481414795, 0.6595281362533569, 1.3520089387893677, 
513, 1189980372, 94.3113021850586, -27.680404663085938, 116.55365753173828, 4.5853047370910645, 8.324317932128906, -0.7243426442146301, 1.2491165399551392, 0.42164871096611023, 1.3877918720245361, 
514, 1189988705, 94.31096649169922, -27.681732177734375, 116.55476379394531, 5.135494709014893, 8.039018630981445, -1.075782299041748, 1.638965129852295, 1.1641796827316284, 0.6543540358543396, 
515, 1189997038, 94.31656646728516, -27.6733455657959, 116.55912017822266, 4.965601921081543, 8.608854293823242, -1.0111668109893799, 2.4221715927124023, 1.5422203540802002, -0.5560594797134399, 
516, 1190005371, 94.31427764892578, -27.66612434387207, 116.56629180908203, 4.379968643188477, 9.489364624023438, -0.0009678060305304825, 1.7713910341262817, 1.783839464187622, -0.4239412248134613, 
517, 1190013704, 94.31024932861328, -27.6706600189209, 116.56461334228516, 4.03574275970459, 9.311843872070312, 0.04601233825087547, 0.9287080764770508, 1.0183323621749878, 1.0393102169036865, 
518, 1190022037, 94.3104476928711, -27.678531646728516, 116.55701446533203, 4.284884452819824, 8.533943176269531, -0.44764938950538635, 1.1065988540649414, 0.4204704463481903, 1.4851516485214233, 
519, 1190030370, 94.30985260009766, -27.682039260864258, 116.5541763305664, 5.121460437774658, 7.962430000305176, -1.0479426383972168, 1.4092823266983032, 0.8141612410545349, 0.9439229965209961, 
520, 1190038703, 94.31233215332031, -27.676651000976562, 116.55928039550781, 4.965237617492676, 8.304512023925781, -1.1621711254119873, 2.0853447914123535, 1.646034836769104, -0.20268544554710388, 
521, 1190047036, 94.31358337402344, -27.668054580688477, 116.56594848632812, 4.588610649108887, 9.365196228027344, -0.11145362257957458, 2.097588300704956, 1.5743407011032104, -0.574347972869873, 
522, 1190055369, 94.30851745605469, -27.668134689331055, 116.5693130493164, 4.047405242919922, 9.439668655395508, -0.05849329009652138, 1.2225033044815063, 1.4438360929489136, 0.4819958508014679, 
523, 1190063702, 94.30591583251953, -27.675373077392578, 116.56306457519531, 4.164326190948486, 8.77854061126709, -0.07204899936914444, 0.8444629907608032, 0.5582239031791687, 1.3989343643188477, 
524, 1190072035, 94.30797576904297, -27.680042266845703, 116.55659484863281, 4.945984840393066, 8.051298141479492, -1.093134880065918, 1.3910194635391235, 0.5124256014823914, 1.0944578647613525, 
525, 1190080368, 94.30799865722656, -27.678905487060547, 116.5608139038086, 5.046122074127197, 8.188521385192871, -1.0742828845977783, 1.8446221351623535, 1.4478830099105835, 0.3347908854484558, 
526, 1190088701, 94.313232421875, -27.670080184936523, 116.56402587890625, 4.791999340057373, 8.960271835327148, -0.6780080795288086, 2.31461763381958, 1.4152504205703735, -0.5986815690994263, 
527, 1190097034, 94.3094711303711, -27.666940689086914, 116.57093811035156, 4.232565402984619, 9.489505767822266, 0.08643510937690735, 1.5372766256332397, 1.7058439254760742, 0.07321829348802567, 
528, 1190105367, 94.3047103881836, -27.672863006591797, 116.56611633300781, 4.073737621307373, 9.004443168640137, 0.06758685410022736, 0.7735114097595215, 0.5694940090179443, 1.2489372491836548, 
529, 1190113700, 94.30642700195312, -27.678462982177734, 116.55884552001953, 4.5851945877075195, 8.355979919433594, -0.7321144342422485, 1.3046225309371948, 0.43632566928863525, 1.2101060152053833, 
530, 1190122033, 94.3081283569336, -27.680500030517578, 116.55843353271484, 5.121086597442627, 8.034582138061523, -1.1536645889282227, 1.688195824623108, 1.130368947982788, 0.730786919593811, 
531, 1190130366, 94.31156921386719, -27.672914505004883, 116.56333923339844, 4.8615899085998535, 8.613001823425293, -0.8864619731903076, 2.3412821292877197, 1.5512622594833374, -0.4482491612434387, 
532, 1190138699, 94.31053924560547, -27.665985107421875, 116.56839752197266, 4.376044273376465, 9.445308685302734, -0.02591782622039318, 1.6618132591247559, 1.6270290613174438, -0.38641634583473206, 
533, 1190147032, 94.303466796875, -27.669588088989258, 116.56871032714844, 4.004354476928711, 9.305068969726562, -0.0296990554779768, 0.8030703067779541, 1.1398205757141113, 0.9291179180145264, 
534, 1190155365, 94.30137634277344, -27.677331924438477, 116.56385803222656, 4.296259880065918, 8.474688529968262, -0.38769564032554626, 1.0767838954925537, 0.5627831220626831, 1.4705772399902344, 
535, 1190163698, 94.30297088623047, -27.680850982666016, 116.56036376953125, 5.112187385559082, 7.975295543670654, -1.0386643409729004, 1.5036708116531372, 0.8162615895271301, 0.9321147799491882, 
536, 1190172031, 94.3062515258789, -27.676158905029297, 116.56473541259766, 4.999266147613525, 8.372814178466797, -1.1543567180633545, 2.1427459716796875, 1.5761336088180542, -0.11265141516923904, 
537, 1190180364, 94.30641174316406, -27.667753219604492, 116.57645416259766, 4.618856906890869, 9.32772445678711, -0.12986935675144196, 2.0157506465911865, 1.674646019935608, -0.5580829977989197, 
538, 1190188697, 94.30204010009766, -27.6684513092041, 116.57805633544922, 4.084200382232666, 9.479997634887695, -0.04248029366135597, 1.0698938369750977, 1.3287769556045532, 0.5554575324058533, 
539, 1190197030, 94.2972412109375, -27.676599502563477, 116.5708236694336, 4.1030144691467285, 8.746058464050293, -0.1200762540102005, 0.7687472105026245, 0.6004104614257812, 1.5146081447601318, 
540, 1190205363, 94.29690551757812, -27.681642532348633, 116.56462097167969, 4.973790645599365, 8.106925010681152, -0.9375680088996887, 1.2580816745758057, 0.4813811779022217, 1.152653455734253, 
541, 1190213696, 94.29765319824219, -27.679386138916016, 116.567626953125, 5.079910755157471, 8.163723945617676, -1.1808089017868042, 1.7612477540969849, 1.452211856842041, 0.18999359011650085, 
542, 1190222029, 94.3023910522461, -27.669925689697266, 116.57230377197266, 4.717046737670898, 9.029379844665527, -0.5536989569664001, 2.3381571769714355, 1.5670404434204102, -0.6873835921287537, 
543, 1190230362, 94.2978744506836, -27.66643524169922, 116.58165740966797, 4.175512313842773, 9.450105667114258, 0.0031197811476886272, 1.4706796407699585, 1.7544597387313843, 0.025883184745907784, 
544, 1190238695, 94.29437255859375, -27.673738479614258, 116.578369140625, 4.038914203643799, 9.075455665588379, 0.11584974825382233, 0.9024534821510315, 0.8716139793395996, 1.384564757347107, 
545, 1190247028, 94.29493713378906, -27.679401397705078, 116.57030487060547, 4.694863319396973, 8.315075874328613, -0.8009034395217896, 1.3019587993621826, 0.3728536069393158, 1.2342090606689453, 
546, 1190255361, 94.29367065429688, -27.681194305419922, 116.5707015991211, 5.125309467315674, 8.074559211730957, -1.0531680583953857, 1.5765435695648193, 1.2609760761260986, 0.700049877166748, 
547, 1190263694, 94.29914855957031, -27.67354393005371, 116.57420349121094, 4.820109844207764, 8.71602725982666, -0.8735145330429077, 2.3555235862731934, 1.4556186199188232, -0.45828989148139954, 
548, 1190272027, 94.2962646484375, -27.668182373046875, 116.58157348632812, 4.353381156921387, 9.419723510742188, -0.04190804809331894, 1.5719072818756104, 1.8894469738006592, -0.21784909069538116, 
549, 1190280360, 94.2896728515625, -27.67357635498047, 116.58070373535156, 4.066458225250244, 9.259387016296387, 0.06976833939552307, 0.7997148036956787, 1.0454833507537842, 1.1499894857406616, 
550, 1190288693, 94.29058074951172, -27.680418014526367, 116.57322692871094, 4.385761260986328, 8.501842498779297, -0.5461007952690125, 1.1957876682281494, 0.42451751232147217, 1.3612555265426636, 
551, 1190297026, 94.29034423828125, -27.684965133666992, 116.56981658935547, 5.10673713684082, 7.991668701171875, -1.054179072380066, 1.464224934577942, 0.8438481092453003, 1.0664613246917725, 
552, 1190305359, 94.29259490966797, -27.679672241210938, 116.5751724243164, 4.924044609069824, 8.374515533447266, -1.1610721349716187, 2.2143890857696533, 1.6190375089645386, -0.18022175133228302, 
553, 1190313692, 94.29415893554688, -27.67121124267578, 116.580322265625, 4.533320903778076, 9.357743263244629, -0.08351685106754303, 1.979967474937439, 1.6233149766921997, -0.5683286190032959, 
554, 1190322025, 94.28914642333984, -27.672534942626953, 116.58131408691406, 4.06082820892334, 9.39345645904541, -0.0511273629963398, 0.9591889977455139, 1.2726560831069946, 0.6338626146316528, 
555, 1190330358, 94.28596496582031, -27.680944442749023, 116.57555389404297, 4.144052982330322, 8.712268829345703, -0.06579268723726273, 0.9842653870582581, 0.6411626935005188, 1.5441412925720215, 
556, 1190338691, 94.28851318359375, -27.685495376586914, 116.5677261352539, 4.974193096160889, 8.079671859741211, -0.9420490264892578, 1.370707392692566, 0.36455458402633667, 1.090820550918579, 
557, 1190347024, 94.28868865966797, -27.68340492248535, 116.5720443725586, 5.061704635620117, 8.198599815368652, -1.2175530195236206, 1.9096308946609497, 1.515299677848816, 0.21279025077819824, 
558, 1190355357, 94.29228210449219, -27.674333572387695, 116.57515716552734, 4.767785549163818, 9.137422561645508, -0.4128458499908447, 2.33052396774292, 1.5096901655197144, -0.6233479976654053, 
559, 1190363690, 94.28997802734375, -27.672590255737305, 116.57982635498047, 4.158932209014893, 9.447025299072266, -0.14245007932186127, 1.4904282093048096, 1.63576340675354, 0.23794344067573547, 
560, 1190372023, 94.2872543334961, -27.680072784423828, 116.5750503540039, 4.081449508666992, 9.000219345092773, 0.1608874350786209, 0.9104708433151245, 0.715879499912262, 1.4168899059295654, 
561, 1190380356, 94.2883071899414, -27.685741424560547, 116.57536315917969, 4.689693450927734, 8.248340606689453, -0.8884332776069641, 1.3328238725662231, 0.3126601576805115, 1.2398185729980469, 
562, 1190388689, 94.28788757324219, -27.686481475830078, 116.57754516601562, 5.126471996307373, 8.028594970703125, -1.0703843832015991, 1.5741357803344727, 1.3932992219924927, 0.5552782416343689, 
563, 1190397022, 94.29122924804688, -27.677637100219727, 116.58094787597656, 4.836861610412598, 8.68950366973877, -0.9424493312835693, 2.295586109161377, 1.4808740615844727, -0.5954028367996216, 
564, 1190405355, 94.2880859375, -27.671886444091797, 116.58853149414062, 4.306562900543213, 9.49641227722168, 0.15675847232341766, 1.658585786819458, 1.7916007041931152, -0.2468700110912323, 
565, 1190413688, 94.28340911865234, -27.676637649536133, 116.58650970458984, 4.048687934875488, 9.266507148742676, 0.0050360653549432755, 0.8307336568832397, 0.9842398762702942, 1.0670762062072754, 
566, 1190422021, 94.28466033935547, -27.68330955505371, 116.57828521728516, 4.437432765960693, 8.523987770080566, -0.49130740761756897, 1.198067545890808, 0.34111759066581726, 1.347449779510498, 
567, 1190430354, 94.284912109375, -27.68536949157715, 116.57614135742188, 5.104987621307373, 7.929069519042969, -1.1141972541809082, 1.549750804901123, 0.8723312020301819, 0.7635987401008606, 
568, 1190438687, 94.28876495361328, -27.678447723388672, 116.58229064941406, 4.895780086517334, 8.397337913513184, -1.0941622257232666, 2.3125171661376953, 1.744624137878418, -0.39322972297668457, 
569, 1190447020, 94.28875732421875, -27.671358108520508, 116.58786010742188, 4.540921688079834, 9.401504516601562, -0.14103125035762787, 1.8970286846160889, 1.5154790878295898, -0.38736408948898315, 
570, 1190455353, 94.28238677978516, -27.67333984375, 116.5912094116211, 4.054884433746338, 9.404512405395508, 0.02156456932425499, 1.028347373008728, 1.3804407119750977, 0.7140095829963684, 
571, 1190463686, 94.2820053100586, -27.68079376220703, 116.58429718017578, 4.196516513824463, 8.635197639465332, -0.171491801738739, 1.0742738246917725, 0.4896545708179474, 1.4302349090576172, 
572, 1190472019, 94.28343963623047, -27.68489646911621, 116.5782699584961, 4.9915337562561035, 8.092249870300293, -1.0606529712677002, 1.3422242403030396, 0.5532034635543823, 1.0234295129776, 
573, 1190480352, 94.28362274169922, -27.68198013305664, 116.58258819580078, 5.076653480529785, 8.219134330749512, -1.1458719968795776, 1.9631645679473877, 1.6165528297424316, 0.10846348851919174, 
574, 1190488685, 94.28871154785156, -27.672466278076172, 116.5853500366211, 4.689784049987793, 9.1705961227417, -0.35931411385536194, 2.269920587539673, 1.361844778060913, -0.676830530166626, 
575, 1190497018, 94.28421020507812, -27.670839309692383, 116.59014129638672, 4.1576032638549805, 9.486702919006348, -0.05413011834025383, 1.3723208904266357, 1.6017221212387085, 0.26437729597091675, 
576, 1190505351, 94.27930450439453, -27.679061889648438, 116.58711242675781, 4.0155863761901855, 8.884969711303711, 0.06477800011634827, 0.8475878238677979, 0.7697461843490601, 1.5116366147994995, 
577, 1190513684, 94.28243255615234, -27.683870315551758, 116.57850646972656, 4.743015766143799, 8.226736068725586, -0.8485188484191895, 1.4027764797210693, 0.28509923815727234, 1.1276283264160156, 
578, 1190522017, 94.28387451171875, -27.683349609375, 116.58003234863281, 5.114291191101074, 8.101243019104004, -1.2153807878494263, 1.7631174325942993, 1.3130496740341187, 0.40899527072906494, 
579, 1190530350, 94.28851318359375, -27.674524307250977, 116.58941650390625, 4.851893424987793, 8.840496063232422, -0.7561208009719849, 2.4507057666778564, 1.4804387092590332, -0.5923804044723511, 
580, 1190538683, 94.28551483154297, -27.669572830200195, 116.59598541259766, 4.302553653717041, 9.461294174194336, -0.00578102795407176, 1.5129176378250122, 1.8063029050827026, -0.15929493308067322, 
581, 1190547016, 94.28043365478516, -27.675386428833008, 116.59645080566406, 4.047011375427246, 9.240196228027344, 0.07219057530164719, 0.9622371792793274, 0.9995315074920654, 1.2014740705490112, 
582, 1190555349, 94.2806167602539, -27.683067321777344, 116.58792877197266, 4.405767440795898, 8.426325798034668, -0.5551635026931763, 1.198656678199768, 0.268449991941452, 1.4864581823349, 
583, 1190563682, 94.28106689453125, -27.68669891357422, 116.58601379394531, 5.153310775756836, 8.012630462646484, -1.059781551361084, 1.4548499584197998, 0.985213041305542, 0.9317305684089661, 
584, 1190572015, 94.2848892211914, -27.680770874023438, 116.5913314819336, 4.95866584777832, 8.48188304901123, -1.0298644304275513, 2.2610068321228027, 1.664041519165039, -0.2667466700077057, 
585, 1190580348, 94.28374481201172, -27.672826766967773, 116.5956039428711, 4.4980340003967285, 9.378995895385742, -0.10238544642925262, 1.8100172281265259, 1.6017221212387085, -0.49881166219711304, 
586, 1190588681, 94.28054809570312, -27.675479888916016, 116.59626007080078, 4.067558765411377, 9.409684181213379, 0.05839821696281433, 1.159978985786438, 1.247554063796997, 0.7956677675247192, 
587, 1190597014, 94.27703094482422, -27.683259963989258, 116.59059143066406, 4.183994770050049, 8.66643238067627, -0.30276066064834595, 0.9166950583457947, 0.5808156728744507, 1.4738558530807495, 
588, 1190605347, 94.27698516845703, -27.687868118286133, 116.58694458007812, 5.0550103187561035, 8.055935859680176, -1.02619206905365, 1.3838987350463867, 0.6480273604393005, 1.086696743965149, 
589, 1190613680, 94.27796173095703, -27.684579849243164, 116.58985137939453, 5.029746055603027, 8.2274751663208, -1.1678061485290527, 1.7818413972854614, 1.4331293106079102, 0.06773684173822403, 
590, 1190622013, 94.28135681152344, -27.676063537597656, 116.5943603515625, 4.704765319824219, 9.233230590820312, -0.36442098021507263, 2.1652355194091797, 1.5547713041305542, -0.5727343559265137, 
591, 1190630346, 94.27568054199219, -27.675065994262695, 116.59959411621094, 4.1270833015441895, 9.418543815612793, -0.05392834171652794, 1.2479127645492554, 1.6120190620422363, 0.3390428125858307, 
592, 1190638679, 94.27308654785156, -27.68354034423828, 116.59366607666016, 4.091954708099365, 8.894775390625, 0.1130298301577568, 0.8664911985397339, 0.6028183102607727, 1.5429376363754272, 
593, 1190647012, 94.2742691040039, -27.688623428344727, 116.58876037597656, 4.769786357879639, 8.17624282836914, -0.9378824234008789, 1.3649697303771973, 0.3537197709083557, 1.1650762557983398, 
594, 1190655345, 94.27375030517578, -27.688579559326172, 116.59698486328125, 5.112565040588379, 8.095772743225098, -1.1002154350280762, 1.7016432285308838, 1.3069791793823242, 0.47705233097076416, 
595, 1190663678, 94.27947998046875, -27.67913055419922, 116.60076904296875, 4.844554901123047, 8.856291770935059, -0.7683694958686829, 2.4073667526245117, 1.47157621383667, -0.6786748170852661, 
596, 1190672011, 94.27544403076172, -27.674495697021484, 116.6081314086914, 4.204270362854004, 9.46957778930664, -0.026549050584435463, 1.43069589138031, 1.893417239189148, -0.12896768748760223, 
597, 1190680344, 94.26966857910156, -27.68009376525879, 116.60520935058594, 4.044628143310547, 9.158500671386719, 0.14985278248786926, 0.8358564972877502, 0.9332418441772461, 1.1827499866485596, 
598, 1190688677, 94.2712631225586, -27.68815040588379, 116.59700012207031, 4.444436073303223, 8.3927640914917, -0.6105091571807861, 1.2387428283691406, 0.354001522064209, 1.5139164924621582, 
599, 1190697010, 94.27165222167969, -27.69060707092285, 116.59335327148438, 5.144955158233643, 8.01046085357666, -1.053998351097107, 1.625235915184021, 0.996534526348114, 0.8019176125526428, 
600, 1190705343, 94.27356719970703, -27.684520721435547, 116.59841918945312, 4.941280364990234, 8.48646068572998, -1.0307464599609375, 2.141234874725342, 1.5406066179275513, -0.2676175534725189, 
601, 1190713676, 94.2745361328125, -27.67659568786621, 116.60306549072266, 4.574636936187744, 9.373855590820312, -0.07039341330528259, 1.8811734914779663, 1.5746479034423828, -0.5013731122016907, 
602, 1190722009, 94.2698745727539, -27.67829132080078, 116.60430908203125, 4.02282190322876, 9.414462089538574, 0.03005853295326233, 1.0158989429473877, 1.3030344247817993, 0.6768177151679993, 
603, 1190730342, 94.26815032958984, -27.6849365234375, 116.5976791381836, 4.158267021179199, 8.691335678100586, -0.17090943455696106, 1.077706217765808, 0.4652441442012787, 1.342839002609253, 
604, 1190738675, 94.26924133300781, -27.688982009887695, 116.59130096435547, 5.016438007354736, 7.964537620544434, -1.078566551208496, 1.2801610231399536, 0.5138343572616577, 1.018101692199707, 
605, 1190747008, 94.26968383789062, -27.68444061279297, 116.59597778320312, 5.048501014709473, 8.244451522827148, -1.1421254873275757, 1.9378576278686523, 1.5201665163040161, -0.07753429561853409, 
606, 1190755341, 94.27397918701172, -27.674182891845703, 116.60004425048828, 4.714540958404541, 9.15086555480957, -0.37576743960380554, 2.34466290473938, 1.3436330556869507, -0.7572336196899414, 
607, 1190763674, 94.2698974609375, -27.672809600830078, 116.60474395751953, 4.1023736000061035, 9.48805046081543, -0.06939778476953506, 1.275396704673767, 1.6390420198440552, 0.28320375084877014, 
608, 1190772007, 94.26725006103516, -27.6803035736084, 116.59952545166016, 4.092710018157959, 8.922243118286133, 0.11689634621143341, 0.8984833359718323, 0.6693896651268005, 1.4206293821334839, 
609, 1190780340, 94.26832580566406, -27.685688018798828, 116.593505859375, 4.827467918395996, 8.187013626098633, -0.8978776931762695, 1.2790595293045044, 0.21560780704021454, 1.2125905752182007, 
610, 1190788673, 94.26824951171875, -27.68582534790039, 116.59568786621094, 5.130433082580566, 8.041910171508789, -1.171770453453064, 1.6199594736099243, 1.3874846696853638, 0.4820982813835144, 
611, 1190797006, 94.27233123779297, -27.676183700561523, 116.60011291503906, 4.776782035827637, 8.863463401794434, -0.6846446394920349, 2.3907687664031982, 1.5065397024154663, -0.6921479105949402, 
