DeviceID;Timestamp;Temperature;GyroX;GyroY;GyroZ;AccelX;AccelY;AccelZ;Dist1;Dist2;Dist3;Err1;Err2;Err3
1.0;1753875185.975806;16.46875;1.12;-1.68;0.07;0.775188;-0.658312;0.013664;0.0;0.0;0.0;0.0;0.0;0.0
1.0;1753875185.976213;16.46875;1.12;-1.68;0.07;0.771406;-0.66124;0.013786;0.0;0.0;0.0;0.0;0.0;0.0
1.0;1753875185.981042;16.46875;1.05;-1.68;0.14;0.77531;-0.660264;0.012688;0.0;0.0;0.0;0.0;0.0;0.0
1.0;1753875185.985397;16.492188;0.98;-1.68;0.14;0.773236;-0.659532;0.013908;0.0;0.0;0.0;0.0;0.0;0.0
1.0;1753875185.989971;16.492188;1.12;-1.61;0.07;0.773724;-0.660874;0.011956;0.0;0.0;0.0;0.0;0.0;0.0
1.0;1753875185.994539;16.492188;1.05;-1.61;0.07;0.77287;-0.659776;0.01342;0.0;0.0;0.0;0.0;0.0;0.0
1.0;1753875185.999121;16.492188;0.98;-1.61;0.07;0.773236;-0.660264;0.01281;0.0;0.0;0.0;0.0;0.0;0.0
1.0;1753875186.003718;16.487727;0.65;-2.28;-0.26;0.738036;-0.595495;0.017743;0.0;-0.1;-0.0;0.0;0.0;-0.0
1.0;1753875186.008315;16.491603;1.06;-1.34;-0.05;0.787329;-0.642145;0.012751;0.0;0.0;-0.0;0.0;0.0;-0.0
1.0;1753875186.012912;16.491171;1.25;-1.59;0.4;0.80787;-0.643866;0.000409;0.0;-0.1;0.0;0.0;0.0;-0.0
1.0;1753875186.01751;16.490355;1.03;-2.12;1.45;0.774813;-0.620612;0.00121;0.0;-0.1;0.0;0.0;-0.0;-0.0
1.0;1753875186.022107;16.493291;1.15;-1.16;-0.89;0.734568;-0.684404;-6.4e-05;0.0;0.2;-0.0;0.0;-0.0;0.0
1.0;1753875186.026704;16.496036;0.7;-1.72;-1.57;0.759333;-0.624375;0.024736;0.0;0.1;-0.0;0.0;0.0;0.0
1.0;1753875186.031301;16.492251;0.99;-1.62;1.3;0.784571;-0.604171;0.021964;0.0;-0.3;-0.0;0.0;-0.0;-0.0
1.0;1753875186.035898;16.491894;0.83;-1.62;-0.5;0.760397;-0.637234;0.022696;0.0;0.1;0.0;0.0;0.0;-0.0
1.0;1753875186.040496;16.492342;0.4;-2.23;-1.9;0.748105;-0.690364;0.018936;0.0;-0.2;0.0;0.0;-0.0;-0.0
1.0;1753875186.045093;16.491865;1.18;-1.07;-0.7;0.766223;-0.633584;0.024356;0.0;-0.0;-0.0;0.0;0.0;-0.0
1.0;1753875186.04969;16.492357;1.2;-1.51;-3.16;0.777662;-0.706436;0.005013;0.0;0.3;-0.0;0.0;-0.0;0.0
1.0;1753875186.054287;16.49293;1.0;-1.73;0.89;0.76817;-0.677285;0.007383;0.0;-0.1;0.0;0.0;0.0;-0.0
1.0;1753875186.058884;16.491482;1.75;-2.69;1.15;0.76881;-0.653247;0.009951;0.0;0.1;0.0;0.0;0.0;0.0
1.0;1753875186.063482;16.48978;0.77;-1.54;0.21;0.758702;-0.661668;0.02434;0.0;0.1;-0.0;0.0;-0.0;-0.0
1.0;1753875186.068079;16.489562;0.61;-1.33;-3.42;0.764163;-0.611804;0.0146;0.0;-0.1;-0.0;0.0;0.0;-0.0
1.0;1753875186.072676;16.489376;0.85;-2.52;1.11;0.769991;-0.680161;-0.010225;0.0;0.2;-0.0;0.0;0.0;-0.0
1.0;1753875186.077273;16.490857;1.36;-1.95;-2.09;0.770429;-0.667169;0.009197;0.0;0.2;-0.0;0.0;-0.0;0.0
1.0;1753875186.08187;16.489017;1.27;-1.85;-1.42;0.82189;-0.672432;0.016158;0.0;0.1;-0.0;0.0;0.0;-0.0
1.0;1753875186.086468;16.489102;1.38;-1.96;-0.32;0.779496;-0.70859;0.003981;0.0;-0.1;-0.0;0.0;0.0;0.0
1.0;1753875186.091065;16.490738;0.77;-1.89;0.0;0.768416;-0.648324;0.001177;0.0;0.3;0.0;0.0;-0.0;-0.0
1.0;1753875186.095662;16.488541;0.36;-1.85;0.4;0.771394;-0.684706;-0.011836;0.0;-0.1;0.0;0.0;-0.0;-0.0
1.0;1753875186.100259;16.492556;0.91;-2.45;-1.53;0.756805;-0.635613;0.015627;0.0;0.1;0.0;0.0;0.0;0.0
1.0;1753875186.104856;16.493194;0.81;-1.91;-1.18;0.762128;-0.645557;0.015535;0.0;0.2;0.0;0.0;0.0;-0.0
1.0;1753875186.109454;16.488877;1.11;-1.67;-0.89;0.754134;-0.619371;0.005552;0.0;-0.1;-0.0;0.0;0.0;0.0
1.0;1753875186.114051;16.490035;1.27;-1.8;1.58;0.777686;-0.666083;0.035134;0.0;-0.2;-0.0;0.0;0.0;-0.0
1.0;1753875186.118648;16.488795;1.07;-0.57;-0.62;0.759053;-0.657869;-4.4e-05;0.0;-0.2;0.0;0.0;-0.0;0.0
1.0;1753875186.123245;16.489884;2.07;-1.78;1.17;0.746421;-0.658268;0.001264;0.0;-0.1;0.0;0.0;0.0;-0.0
1.0;1753875186.127842;16.486956;1.64;-1.94;-0.46;0.799935;-0.678509;0.022932;0.0;0.1;0.0;0.0;-0.0;0.0
1.0;1753875186.132439;16.48847;1.56;-2.15;-3.36;0.758235;-0.700327;0.013296;0.0;0.0;0.0;0.0;-0.0;0.0
1.0;1753875186.137036;16.48733;1.81;-1.16;-2.59;0.730267;-0.647823;0.026318;0.0;-0.0;0.0;0.0;-0.0;0.0
1.0;1753875186.141634;16.488548;0.81;-1.51;2.8;0.805072;-0.663213;0.02205;0.0;0.0;-0.0;0.0;-0.0;-0.0
1.0;1753875186.146231;16.487313;1.28;-1.82;0.13;0.811105;-0.627752;-0.006606;0.0;-0.1;0.0;0.0;-0.0;-0.0
1.0;1753875186.150828;16.486753;1.11;-1.97;-1.88;0.758259;-0.661167;0.005363;0.0;-0.1;-0.0;0.0;0.0;0.0
1.0;1753875186.155425;16.48694;0.71;-1.5;0.11;0.745189;-0.659012;0.025025;0.0;-0.1;-0.0;0.0;0.0;0.0
1.0;1753875186.160022;16.491751;1.3;-1.49;-0.81;0.751079;-0.653123;0.012237;0.0;0.1;-0.0;0.0;-0.0;-0.0
1.0;1753875186.16462;16.487686;0.21;-1.42;2.18;0.752415;-0.667832;0.022589;0.0;0.0;-0.0;0.0;0.0;0.0
1.0;1753875186.169217;16.487123;0.77;-1.32;-0.37;0.773939;-0.653354;0.007173;0.0;0.1;-0.0;0.0;0.0;-0.0
1.0;1753875186.173814;16.487495;1.38;-2.48;-1.26;0.795248;-0.65147;0.010789;0.0;0.1;-0.0;0.0;-0.0;0.0
1.0;1753875186.178411;16.488168;0.51;-1.18;2.38;0.811668;-0.641034;0.021858;0.0;0.0;0.0;0.0;0.0;0.0
1.0;1753875186.183008;16.490138;1.0;-1.98;2.21;0.812089;-0.667073;0.006842;0.0;0.1;0.0;0.0;-0.0;-0.0
1.0;1753875186.187606;16.488569;1.15;-1.6;1.09;0.727048;-0.676285;0.012505;0.0;-0.1;-0.0;0.0;-0.0;-0.0
1.0;1753875186.192203;16.488547;1.39;-1.68;-1.11;0.762077;-0.661799;-0.004856;0.0;0.1;0.0;0.0;-0.0;-0.0
1.0;1753875186.1968;16.487095;1.3;-1.23;-0.94;0.732577;-0.579807;-0.008125;0.0;-0.3;-0.0;0.0;0.0;-0.0
1.0;1753875186.201397;16.485347;0.95;-2.03;-0.78;0.740148;-0.659381;0.007209;0.0;0.1;-0.0;0.0;-0.0;0.0
1.0;1753875186.205994;16.488545;0.28;-1.42;-1.59;0.85294;-0.607842;0.033154;0.0;0.1;0.0;0.0;-0.0;-0.0
1.0;1753875186.210592;16.488102;1.64;-2.22;-0.3;0.819816;-0.659754;0.01221;0.0;-0.1;0.0;0.0;-0.0;0.0
1.0;1753875186.215189;16.486063;1.6;-1.41;1.98;0.737547;-0.687003;0.012388;0.0;-0.1;-0.0;0.0;-0.0;0.0
1.0;1753875186.219786;16.486759;0.61;-1.95;1.6;0.749647;-0.581091;0.009548;0.0;0.1;-0.0;0.0;-0.0;0.0
1.0;1753875186.224383;16.48858;0.84;-1.21;-3.8;0.767106;-0.682221;0.000527;0.0;-0.1;0.0;0.0;0.0;-0.0
1.0;1753875186.22898;16.487966;1.14;-1.71;-5.05;0.778026;-0.719171;0.013928;0.0;0.1;0.0;0.0;0.0;-0.0
1.0;1753875186.233578;16.484766;0.3;-2.01;1.06;0.821526;-0.665276;0.006725;0.0;-0.0;0.0;0.0;0.0;0.0
1.0;1753875186.238175;16.484406;1.26;-2.04;-3.12;0.802307;-0.673906;0.009681;0.0;-0.0;-0.0;0.0;-0.0;-0.0
1.0;1753875186.242772;16.487883;1.22;-1.97;1.3;0.815738;-0.668006;-0.003142;0.0;0.2;0.0;0.0;0.0;-0.0
1.0;1753875186.247369;16.486159;1.15;-1.73;1.61;0.746803;-0.721644;-0.00234;0.0;0.1;0.0;0.0;-0.0;-0.0
1.0;1753875186.251966;16.485532;1.11;-1.45;4.77;0.757121;-0.691848;0.007207;0.0;-0.1;-0.0;0.0;-0.0;-0.0
1.0;1753875186.256564;16.487715;0.71;-1.65;-3.11;0.7578;-0.636523;0.027125;0.0;-0.0;-0.0;0.0;0.0;-0.0
1.0;1753875186.26116;16.483127;1.06;-1.3;1.64;0.760563;-0.693127;0.052703;0.0;-0.2;0.0;0.0;0.0;-0.0
1.0;1753875186.265758;16.485769;0.63;-1.31;-0.46;0.772439;-0.65379;0.006201;0.0;-0.3;0.0;0.0;-0.0;-0.0
1.0;1753875186.270355;16.482509;1.24;-1.41;-2.29;0.780608;-0.657849;0.022505;0.0;-0.1;0.0;0.0;-0.0;0.0
1.0;1753875186.274952;16.488974;1.32;-2.1;-2.71;0.741491;-0.61126;0.018865;0.0;0.0;-0.0;0.0;0.0;0.0
1.0;1753875186.279549;16.484282;0.71;-1.31;-1.78;0.795693;-0.665823;0.052825;0.0;0.1;-0.0;0.0;-0.0;-0.0
1.0;1753875186.284146;16.48855;0.96;-2.17;1.26;0.762826;-0.643179;0.009811;0.0;-0.1;-0.0;0.0;-0.0;-0.0
1.0;1753875186.288744;16.487239;1.38;-1.81;-2.04;0.788339;-0.650547;0.019013;0.0;0.0;0.0;0.0;-0.0;0.0
1.0;1753875186.293341;16.486453;1.31;-1.43;-2.62;0.738227;-0.659637;0.012207;0.0;0.1;-0.0;0.0;0.0;0.0
1.0;1753875186.297938;16.484185;0.68;-2.22;0.42;0.718103;-0.638823;0.023421;0.0;0.1;0.0;0.0;-0.0;-0.0
1.0;1753875186.302535;16.482519;0.77;-1.66;-1.28;0.741406;-0.643353;0.012682;0.0;-0.0;-0.0;0.0;-0.0;-0.0
1.0;1753875186.307132;16.486106;0.89;-2.12;-1.02;0.733678;-0.660174;0.016316;0.0;0.1;-0.0;0.0;0.0;0.0
1.0;1753875186.31173;16.487974;0.94;-1.99;-2.04;0.725202;-0.624718;0.019391;0.0;-0.1;-0.0;0.0;-0.0;-0.0
1.0;1753875186.316327;16.482253;1.15;-0.74;-0.21;0.822789;-0.692193;0.013914;0.0;0.2;0.0;0.0;0.0;-0.0
1.0;1753875186.320924;16.486161;0.44;-1.78;-0.33;0.777552;-0.653944;0.026538;0.0;-0.3;0.0;0.0;0.0;0.0
1.0;1753875186.325521;16.4869;1.3;-1.57;-3.56;0.799666;-0.655602;0.024076;0.0;0.2;0.0;0.0;-0.0;-0.0
1.0;1753875186.330118;16.483499;1.05;-1.19;-1.77;0.801049;-0.626562;0.022342;0.0;0.1;-0.0;0.0;0.0;-0.0
1.0;1753875186.334716;16.484352;1.57;-1.32;-3.35;0.764214;-0.673817;-0.002072;0.0;0.2;-0.0;0.0;0.0;0.0
1.0;1753875186.339313;16.487115;1.34;-1.86;-1.19;0.827115;-0.682532;0.012147;0.0;-0.1;-0.0;0.0;0.0;0.0
1.0;1753875186.34391;16.48264;0.56;-1.91;0.2;0.776665;-0.650748;0.003115;0.0;-0.0;-0.0;0.0;0.0;-0.0
1.0;1753875186.348507;16.484168;0.39;-1.98;-1.38;0.749756;-0.687715;0.007057;0.0;0.2;0.0;0.0;0.0;-0.0
1.0;1753875186.353104;16.482876;1.47;-1.64;0.11;0.781734;-0.657036;0.006989;0.0;0.2;0.0;0.0;-0.0;0.0
1.0;1753875186.357702;16.48358;1.56;-1.69;-1.43;0.774566;-0.651599;0.015351;0.0;0.1;0.0;0.0;-0.0;0.0
1.0;1753875186.362299;16.486466;1.18;-1.54;0.19;0.765462;-0.679682;0.018589;0.0;0.1;0.0;0.0;-0.0;-0.0
1.0;1753875186.3684;16.484375;1.05;-1.68;0.07;0.77226;-0.660142;0.012688;0.0;0.0;0.0;0.0;0.0;0.0
1.0;1753875186.372997;16.477236;1.06;-1.77;0.07;0.771647;-0.659358;0.012799;0.0;0.0;0.0;0.0;0.0;0.0
1.0;1753875186.377594;16.497262;1.11;-1.71;0.08;0.773267;-0.659737;0.012732;0.0;0.0;0.0;0.0;0.0;0.0
1.0;1753875186.382192;16.475223;1.03;-1.72;0.09;0.774387;-0.658652;0.012745;0.0;0.0;0.0;0.0;0.0;0.0
1.0;1753875186.386789;16.49294;1.11;-1.71;0.07;0.774812;-0.659174;0.012305;0.0;0.0;0.0;0.0;0.0;0.0
1.0;1753875186.391386;16.467354;1.11;-1.67;0.11;0.773496;-0.659864;0.013476;0.0;0.0;0.0;0.0;0.0;0.0
1.0;1753875186.395983;16.476227;1.15;-1.62;0.12;0.77479;-0.661062;0.014005;0.0;0.0;0.0;0.0;0.0;0.0
1.0;1753875186.40252;16.476562;1.12;-1.68;0.14;0.774334;-0.660508;0.013786;0.0;0.0;0.0;0.0;0.0;0.0
1.0;1753875186.407117;16.479309;1.09;-1.7;0.13;0.77518;-0.661078;0.013203;0.0;0.0;0.0;0.0;0.0;0.0
1.0;1753875186.411714;16.479448;1.08;-1.62;0.04;0.773616;-0.660267;0.013488;0.0;0.0;0.0;0.0;0.0;0.0
1.0;1753875186.416312;16.481879;1.09;-1.7;0.06;0.774471;-0.661966;0.013221;0.0;0.0;0.0;0.0;0.0;0.0
1.0;1753875186.420909;16.483584;1.1;-1.72;0.1;0.774763;-0.659727;0.013504;0.0;0.0;0.0;0.0;0.0;0.0
1.0;1753875186.425506;16.462665;1.11;-1.66;0.08;0.773215;-0.659393;0.013408;0.0;0.0;0.0;0.0;0.0;0.0
1.0;1753875186.430103;16.476341;1.0;-1.69;0.14;0.774344;-0.65903;0.012416;0.0;0.0;0.0;0.0;0.0;0.0
1.0;1753875186.4347;16.476523;1.01;-1.61;0.12;0.773678;-0.65983;0.012641;0.0;0.0;0.0;0.0;0.0;0.0
1.0;1753875186.439298;16.466254;1.05;-1.63;0.14;0.774033;-0.658986;0.013313;0.0;0.0;0.0;0.0;0.0;0.0
1.0;1753875186.443894;16.479051;1.01;-1.7;0.03;0.771782;-0.66188;0.013518;0.0;0.0;0.0;0.0;0.0;0.0
1.0;1753875186.44816;16.476562;1.05;-1.68;0.07;0.772748;-0.660386;0.012932;0.0;0.0;0.0;0.0;0.0;0.0
1.0;1753875186.452757;16.472367;1.06;-1.64;0.07;0.773688;-0.659586;0.012923;0.0;0.0;0.0;0.0;0.0;0.0
1.0;1753875186.457354;16.466168;1.04;-1.66;0.04;0.773248;-0.660422;0.012029;0.0;0.0;0.0;0.0;0.0;0.0
1.0;1753875186.461952;16.483294;1.13;-1.71;0.09;0.773964;-0.660552;0.012553;0.0;0.0;0.0;0.0;0.0;0.0
1.0;1753875186.466549;16.484836;1.11;-1.73;0.09;0.773419;-0.659658;0.01218;0.0;0.0;0.0;0.0;0.0;0.0
1.0;1753875186.471146;16.482562;1.0;-1.7;-0.03;0.775364;-0.659494;0.013354;0.0;0.0;0.0;0.0;0.0;0.0
1.0;1753875186.475743;16.494024;1.17;-1.63;0.08;0.771948;-0.660847;0.013354;0.0;0.0;0.0;0.0;0.0;0.0
1.0;1753875186.48034;16.479602;1.14;-1.74;0.08;0.774032;-0.659505;0.013041;0.0;0.0;0.0;0.0;0.0;0.0
1.0;1753875186.484938;16.483182;1.1;-1.64;0.11;0.773933;-0.659186;0.012152;0.0;0.0;0.0;0.0;0.0;0.0
1.0;1753875186.489534;16.459126;1.1;-1.66;0.07;0.774212;-0.658404;0.011595;0.0;0.0;0.0;0.0;0.0;0.0
1.0;1753875186.49386;16.476562;1.12;-1.68;0.07;0.773724;-0.659166;0.012566;0.0;0.0;0.0;0.0;0.0;0.0
1.0;1753875186.498457;16.475066;1.07;-1.69;0.11;0.773984;-0.657942;0.013226;0.0;0.0;0.0;0.0;0.0;0.0
1.0;1753875186.503054;16.468138;1.08;-1.71;0.09;0.774493;-0.659919;0.01264;0.0;0.0;0.0;0.0;0.0;0.0
1.0;1753875186.507652;16.483455;1.1;-1.65;0.03;0.773729;-0.659016;0.012799;0.0;0.0;0.0;0.0;0.0;0.0
1.0;1753875186.512249;16.471005;1.09;-1.67;0.07;0.772217;-0.658559;0.012857;0.0;0.0;0.0;0.0;0.0;0.0
1.0;1753875186.516846;16.473672;1.19;-1.73;0.02;0.77304;-0.65826;0.013268;0.0;0.0;0.0;0.0;0.0;0.0
1.0;1753875186.521443;16.479112;1.03;-1.65;0.12;0.771274;-0.658713;0.013274;0.0;0.0;0.0;0.0;0.0;0.0
1.0;1753875186.52604;16.469092;1.14;-1.61;0.03;0.771445;-0.658197;0.013364;0.0;0.0;0.0;0.0;0.0;0.0
1.0;1753875186.530638;16.478379;1.12;-1.61;0.05;0.772011;-0.659371;0.012678;0.0;0.0;0.0;0.0;0.0;0.0
1.0;1753875186.535235;16.488231;1.14;-1.62;0.07;0.771824;-0.658103;0.011937;0.0;0.0;0.0;0.0;0.0;0.0
1.0;1753875186.53962;16.476562;1.12;-1.61;0.07;0.772138;-0.6588;0.012688;0.0;0.0;0.0;0.0;0.0;0.0
1.0;1753875186.544217;16.49516;1.15;-1.67;-0.0;0.770838;-0.658544;0.01276;0.0;0.0;0.0;0.0;0.0;0.0
1.0;1753875186.548814;16.480988;1.15;-1.63;0.01;0.772787;-0.659326;0.012519;0.0;0.0;0.0;0.0;0.0;0.0
1.0;1753875186.553412;16.472438;1.07;-1.7;0.06;0.770874;-0.660034;0.01175;0.0;0.0;0.0;0.0;0.0;0.0
1.0;1753875186.558009;16.495877;1.03;-1.62;0.06;0.772017;-0.658277;0.012348;0.0;0.0;0.0;0.0;0.0;0.0
1.0;1753875186.562606;16.530725;1.14;-1.71;0.08;0.773214;-0.65861;0.011996;0.0;0.0;0.0;0.0;0.0;0.0
1.0;1753875186.567203;16.498959;1.11;-1.7;0.06;0.773733;-0.659337;0.012523;0.0;0.0;0.0;0.0;0.0;0.0
1.0;1753875186.5718;16.467997;1.11;-1.62;0.06;0.771579;-0.659729;0.012187;0.0;0.0;0.0;0.0;0.0;0.0
1.0;1753875186.576398;16.483252;1.05;-1.67;0.05;0.771482;-0.659321;0.012041;0.0;0.0;0.0;0.0;0.0;0.0
1.0;1753875186.580994;16.517008;1.14;-1.58;0.02;0.772119;-0.661003;0.012674;0.0;0.0;0.0;0.0;0.0;0.0
1.0;1753875186.585592;16.545985;1.15;-1.72;0.0;0.773404;-0.661164;0.013095;0.0;0.0;0.0;0.0;0.0;0.0
1.0;1753875186.590189;16.535505;1.07;-1.71;0.05;0.771789;-0.659916;0.013274;0.0;0.0;0.0;0.0;0.0;0.0
1.0;1753875186.594786;16.508495;1.12;-1.65;-0.0;0.772465;-0.660409;0.013636;0.0;0.0;0.0;0.0;0.0;0.0
1.0;1753875186.599383;16.510019;1.12;-1.74;-0.01;0.771556;-0.659767;0.012614;0.0;0.0;0.0;0.0;0.0;0.0
1.0;1753875186.60398;16.513882;1.12;-1.78;-0.01;0.77121;-0.658722;0.013304;0.0;0.0;0.0;0.0;0.0;0.0
1.0;1753875186.608578;16.515861;1.12;-1.72;-0.05;0.771451;-0.658946;0.012627;0.0;0.0;0.0;0.0;0.0;0.0
1.0;1753875186.613175;16.527208;1.09;-1.77;0.02;0.769854;-0.658147;0.012028;0.0;0.0;0.0;0.0;0.0;0.0
1.0;1753875186.617772;16.5603;1.1;-1.73;0.02;0.771319;-0.658864;0.013317;0.0;0.0;0.0;0.0;0.0;0.0
1.0;1753875186.622369;16.527394;1.0;-1.69;-0.01;0.773325;-0.661303;0.011901;0.0;0.0;0.0;0.0;0.0;0.0
1.0;1753875186.62947;16.542969;1.05;-1.75;0.0;0.772504;-0.660508;0.012078;0.0;0.0;0.0;0.0;0.0;0.0
1.0;1753875186.63152;16.542969;1.12;-1.61;0.0;0.772748;-0.658434;0.01159;0.0;0.0;0.0;0.0;0.0;0.0
1.0;1753875186.636117;16.548725;1.07;-1.61;0.01;0.771844;-0.658899;0.012012;0.0;0.0;0.0;0.0;0.0;0.0
1.0;1753875186.640714;16.539632;1.07;-1.61;0.02;0.771567;-0.659009;0.011279;0.0;0.0;0.0;0.0;0.0;0.0
1.0;1753875186.645312;16.54601;1.2;-1.66;0.04;0.773002;-0.658353;0.01143;0.0;0.0;0.0;0.0;0.0;0.0
1.0;1753875186.649909;16.556836;1.15;-1.58;0.08;0.772991;-0.658631;0.012511;0.0;0.0;0.0;0.0;0.0;0.0
1.0;1753875186.654506;16.539193;1.17;-1.58;0.01;0.774141;-0.6601;0.012682;0.0;0.0;0.0;0.0;0.0;0.0
1.0;1753875186.659103;16.515933;1.22;-1.63;0.09;0.773713;-0.658951;0.012314;0.0;0.0;0.0;0.0;0.0;0.0
1.0;1753875186.6637;16.549799;1.11;-1.65;0.04;0.773336;-0.660242;0.013795;0.0;0.0;0.0;0.0;0.0;0.0
1.0;1753875186.668298;16.557962;1.24;-1.71;0.01;0.77292;-0.660149;0.01276;0.0;0.0;0.0;0.0;0.0;0.0
1.0;1753875186.672895;16.546748;1.15;-1.69;0.11;0.773445;-0.661036;0.012232;0.0;0.0;0.0;0.0;0.0;0.0
1.0;1753875186.67808;16.542969;1.19;-1.68;0.07;0.773358;-0.660508;0.013176;0.0;0.0;0.0;0.0;0.0;0.0
1.0;1753875186.682677;16.541196;1.18;-1.69;0.09;0.773708;-0.661084;0.012952;0.0;0.0;0.0;0.0;0.0;0.0
1.0;1753875186.687274;16.560249;1.15;-1.76;0.03;0.773788;-0.659133;0.012141;0.0;0.0;0.0;0.0;0.0;0.0
1.0;1753875186.691872;16.579644;1.24;-1.64;0.16;0.773401;-0.660431;0.013471;0.0;0.0;0.0;0.0;0.0;0.0
1.0;1753875186.696469;16.546036;1.17;-1.67;0.08;0.773643;-0.659739;0.012771;0.0;0.0;0.0;0.0;0.0;0.0
1.0;1753875186.701066;16.493848;1.24;-1.68;0.05;0.772989;-0.659556;0.011906;0.0;0.0;0.0;0.0;0.0;0.0
1.0;1753875186.705663;16.547127;1.11;-1.66;-0.01;0.773303;-0.660157;0.012238;0.0;0.0;0.0;0.0;0.0;0.0
1.0;1753875186.71026;16.545115;1.12;-1.78;0.12;0.775231;-0.660565;0.011905;0.0;0.0;0.0;0.0;0.0;0.0
1.0;1753875186.714858;16.515943;1.2;-1.68;0.04;0.773546;-0.659696;0.013345;0.0;0.0;0.0;0.0;0.0;0.0
1.0;1753875186.719455;16.510431;1.24;-1.66;-0.01;0.774456;-0.65999;0.01217;0.0;0.0;0.0;0.0;0.0;0.0
1.0;1753875186.724052;16.524114;1.14;-1.64;0.06;0.773818;-0.660562;0.012655;0.0;0.0;0.0;0.0;0.0;0.0
1.0;1753875186.728649;16.52808;1.1;-1.66;0.07;0.772889;-0.660505;0.01181;0.0;0.0;0.0;0.0;0.0;0.0
1.0;1753875186.733246;16.518642;1.21;-1.72;0.04;0.774166;-0.658877;0.01099;0.0;0.0;0.0;0.0;0.0;0.0
1.0;1753875186.737844;16.519491;1.13;-1.63;0.03;0.773691;-0.659561;0.01148;0.0;0.0;0.0;0.0;0.0;0.0
1.0;1753875186.742441;16.552731;1.07;-1.66;0.05;0.774139;-0.660454;0.012164;0.0;0.0;0.0;0.0;0.0;0.0
1.0;1753875186.75005;16.542969;1.12;-1.68;0.07;0.773968;-0.659898;0.011834;0.0;0.0;0.0;0.0;0.0;0.0
1.0;1753875186.754647;16.519063;1.07;-1.73;0.11;0.774698;-0.659852;0.012403;0.0;0.0;0.0;0.0;0.0;0.0
1.0;1753875186.759244;16.542948;1.17;-1.6;0.09;0.773327;-0.659352;0.011624;0.0;0.0;0.0;0.0;0.0;0.0
1.0;1753875186.763842;16.4983;1.19;-1.61;0.07;0.775366;-0.659858;0.012326;0.0;0.0;0.0;0.0;0.0;0.0
1.0;1753875186.77164;16.496094;1.12;-1.61;0.14;0.773968;-0.659898;0.011834;0.0;0.0;0.0;0.0;0.0;0.0
1.0;1753875186.776237;16.504602;1.12;-1.68;0.16;0.773734;-0.658881;0.010243;0.0;0.0;0.0;0.0;0.0;0.0
1.0;1753875186.780834;16.468219;1.15;-1.56;0.16;0.77501;-0.659292;0.012084;0.0;0.0;0.0;0.0;0.0;0.0
1.0;1753875186.785432;16.452785;1.04;-1.64;0.1;0.771288;-0.659075;0.012535;0.0;0.0;0.0;0.0;0.0;0.0
1.0;1753875186.790029;16.505798;1.13;-1.68;0.09;0.772954;-0.658469;0.012802;0.0;0.0;0.0;0.0;0.0;0.0
1.0;1753875186.794626;16.510623;1.05;-1.67;0.11;0.772937;-0.660043;0.013211;0.0;0.0;0.0;0.0;0.0;0.0
1.0;1753875186.799223;16.566163;1.11;-1.71;0.09;0.7742;-0.65942;0.012788;0.0;0.0;0.0;0.0;0.0;0.0
1.0;1753875186.80382;16.462411;1.06;-1.64;-0.01;0.773903;-0.657987;0.012333;0.0;0.0;0.0;0.0;0.0;0.0
1.0;1753875186.808418;16.49049;1.07;-1.72;0.14;0.77328;-0.659072;0.013013;0.0;0.0;0.0;0.0;0.0;0.0
1.0;1753875186.813015;16.507131;1.01;-1.67;0.04;0.774177;-0.660354;0.014717;0.0;0.0;0.0;0.0;0.0;0.0
1.0;1753875186.81736;16.496094;1.05;-1.68;0.07;0.77409;-0.65941;0.013786;0.0;0.0;0.0;0.0;0.0;0.0
1.0;1753875186.821957;16.496989;1.13;-1.62;0.13;0.773506;-0.657716;0.014517;0.0;0.0;0.0;0.0;0.0;0.0
1.0;1753875186.826554;16.469697;1.02;-1.68;0.02;0.772033;-0.660801;0.013662;0.0;0.0;0.0;0.0;0.0;0.0
1.0;1753875186.831152;16.517515;1.05;-1.63;0.03;0.774362;-0.658875;0.013742;0.0;0.0;0.0;0.0;0.0;0.0
1.0;1753875186.835749;16.506731;1.11;-1.65;0.03;0.773559;-0.659786;0.013617;0.0;0.0;0.0;0.0;0.0;0.0
1.0;1753875186.840346;16.493352;1.11;-1.67;0.03;0.772324;-0.659662;0.014158;0.0;0.0;0.0;0.0;0.0;0.0
1.0;1753875186.844943;16.525149;0.98;-1.62;-0.01;0.771892;-0.660509;0.012589;0.0;0.0;0.0;0.0;0.0;0.0
1.0;1753875186.84954;16.46125;0.95;-1.67;0.03;0.771;-0.661146;0.013885;0.0;0.0;0.0;0.0;0.0;0.0
1.0;1753875186.854138;16.527199;0.94;-1.66;0.03;0.771783;-0.659873;0.014169;0.0;0.0;0.0;0.0;0.0;0.0
1.0;1753875186.86002;16.496094;0.98;-1.68;0.0;0.772016;-0.66002;0.014396;0.0;0.0;0.0;0.0;0.0;0.0
1.0;1753875186.864617;16.427859;0.91;-1.72;0.08;0.77198;-0.660343;0.013594;0.0;0.0;0.0;0.0;0.0;0.0
1.0;1753875186.869214;16.48113;0.99;-1.68;0.02;0.771911;-0.661333;0.014114;0.0;0.0;0.0;0.0;0.0;0.0
1.0;1753875186.873812;16.458921;1.11;-1.66;0.06;0.772116;-0.660054;0.0149;0.0;0.0;0.0;0.0;0.0;0.0
1.0;1753875186.878409;16.483737;0.94;-1.67;-0.03;0.772432;-0.661852;0.015189;0.0;0.0;0.0;0.0;0.0;0.0
1.0;1753875186.883006;16.491549;0.92;-1.65;0.07;0.772783;-0.659662;0.013203;0.0;0.0;0.0;0.0;0.0;0.0
1.0;1753875186.887603;16.498054;0.9;-1.73;0.05;0.773924;-0.660263;0.013892;0.0;0.0;0.0;0.0;0.0;0.0
1.0;1753875186.8922;16.516535;0.94;-1.62;0.1;0.774126;-0.659819;0.014003;0.0;0.0;0.0;0.0;0.0;0.0
1.0;1753875186.896798;16.476391;0.95;-1.67;0.09;0.775153;-0.660642;0.013444;0.0;0.0;0.0;0.0;0.0;0.0
1.0;1753875186.901394;16.525761;1.05;-1.63;0.23;0.774584;-0.659146;0.013219;0.0;0.0;0.0;0.0;0.0;0.0
1.0;1753875186.90572;16.496094;0.98;-1.61;0.14;0.77409;-0.660386;0.013054;0.0;0.0;0.0;0.0;0.0;0.0
1.0;1753875186.910317;16.48778;1.04;-1.67;0.15;0.775148;-0.660232;0.013252;0.0;0.0;0.0;0.0;0.0;0.0
1.0;1753875186.914914;16.502001;1.1;-1.61;0.11;0.773181;-0.660776;0.013016;0.0;0.0;0.0;0.0;0.0;0.0
1.0;1753875186.919512;16.463799;1.06;-1.68;0.06;0.774214;-0.659686;0.014177;0.0;0.0;0.0;0.0;0.0;0.0
1.0;1753875186.924109;16.557312;1.0;-1.66;0.13;0.773804;-0.661169;0.013242;0.0;0.0;0.0;0.0;0.0;0.0
1.0;1753875186.928706;16.492735;0.95;-1.66;0.08;0.77451;-0.658489;0.013356;0.0;0.0;0.0;0.0;0.0;0.0
1.0;1753875186.933303;16.51813;1.0;-1.66;0.05;0.775102;-0.659755;0.012653;0.0;0.0;0.0;0.0;0.0;0.0
1.0;1753875186.9379;16.482349;0.87;-1.6;0.12;0.774542;-0.659774;0.013269;0.0;0.0;0.0;0.0;0.0;0.0
1.0;1753875186.942498;16.489289;1.02;-1.65;0.06;0.773059;-0.658835;0.013395;0.0;0.0;0.0;0.0;0.0;0.0
1.0;1753875186.947095;16.50231;1.06;-1.72;0.01;0.773444;-0.659947;0.014229;0.0;0.0;0.0;0.0;0.0;0.0
1.0;1753875186.95154;16.507812;0.98;-1.68;0.07;0.774212;-0.658922;0.013664;0.0;0.0;0.0;0.0;0.0;0.0
1.0;1753875186.959294;16.445312;1.05;-1.68;0.07;0.773724;-0.660386;0.01159;0.0;0.0;0.0;0.0;0.0;0.0
1.0;1753875186.964162;16.445312;1.05;-1.68;0.07;0.772748;-0.660386;0.013908;0.0;0.0;0.0;0.0;0.0;0.0
1.0;1753875186.969507;16.445312;1.19;-1.75;0.07;0.774212;-0.660996;0.013664;0.0;0.0;0.0;0.0;0.0;0.0
1.0;1753875186.973634;16.460938;1.05;-1.75;0.0;0.774334;-0.659654;0.0122;0.0;0.0;0.0;0.0;0.0;0.0
1.0;1753875186.977658;16.460938;1.12;-1.68;0.14;0.772138;-0.658922;0.01342;0.0;0.0;0.0;0.0;0.0;0.0
1.0;1753875186.982259;16.460938;0.98;-1.61;0.07;0.772138;-0.66002;0.013176;0.0;0.0;0.0;0.0;0.0;0.0
1.0;1753875186.986856;16.472537;1.01;-1.67;0.04;0.773169;-0.659795;0.012797;0.0;0.0;0.0;0.0;0.0;0.0
1.0;1753875186.991357;16.476562;0.91;-1.68;0.14;0.773114;-0.659532;0.013054;0.0;0.0;0.0;0.0;0.0;0.0
1.0;1753875186.995954;16.476562;1.05;-1.68;0.07;0.772626;-0.66063;0.013054;0.0;0.0;0.0;0.0;0.0;0.0
1.0;1753875187.000551;16.472491;1.07;-1.64;0.06;0.772262;-0.661063;0.013987;0.0;0.0;0.0;0.0;0.0;0.0
1.0;1753875187.005148;16.461143;0.95;-1.62;0.06;0.772534;-0.660906;0.013706;0.0;0.0;0.0;0.0;0.0;0.0
1.0;1753875187.009746;16.471064;0.99;-1.69;0.13;0.771778;-0.65966;0.012933;0.0;0.0;0.0;0.0;0.0;0.0
1.0;1753875187.014343;16.485327;1.16;-1.69;0.1;0.772942;-0.660208;0.013825;0.0;0.0;0.0;0.0;0.0;0.0
1.0;1753875187.01894;16.478405;1.04;-1.7;0.02;0.77358;-0.660883;0.013215;0.0;0.0;0.0;0.0;0.0;0.0
1.0;1753875187.023537;16.486168;1.09;-1.69;0.08;0.772231;-0.659868;0.012824;0.0;0.0;0.0;0.0;0.0;0.0
1.0;1753875187.028134;16.486623;1.02;-1.75;0.01;0.772891;-0.66019;0.013458;0.0;0.0;0.0;0.0;0.0;0.0
1.0;1753875187.032732;16.474568;1.14;-1.73;0.05;0.772395;-0.65972;0.013946;0.0;0.0;0.0;0.0;0.0;0.0
1.0;1753875187.037329;16.461827;1.03;-1.71;0.07;0.772302;-0.661237;0.01252;0.0;0.0;0.0;0.0;0.0;0.0
1.0;1753875187.041926;16.482339;1.03;-1.73;0.02;0.772608;-0.658957;0.011688;0.0;0.0;0.0;0.0;0.0;0.0
1.0;1753875187.046523;16.466981;1.14;-1.65;0.06;0.772017;-0.660559;0.012957;0.0;0.0;0.0;0.0;0.0;0.0
1.0;1753875187.05112;16.473055;1.05;-1.66;-0.02;0.772278;-0.661404;0.014625;0.0;0.0;0.0;0.0;0.0;0.0
1.0;1753875187.055718;16.467478;1.06;-1.63;-0.03;0.771722;-0.660059;0.013062;0.0;0.0;0.0;0.0;0.0;0.0
1.0;1753875187.060315;16.475266;0.98;-1.67;0.05;0.772669;-0.662103;0.013733;0.0;0.0;0.0;0.0;0.0;0.0
1.0;1753875187.064912;16.483978;1.05;-1.65;0.07;0.773397;-0.661148;0.013712;0.0;0.0;0.0;0.0;0.0;0.0
1.0;1753875187.069509;16.456376;1.06;-1.67;0.06;0.773331;-0.661346;0.012851;0.0;0.0;0.0;0.0;0.0;0.0
1.0;1753875187.074106;16.486266;1.14;-1.68;0.0;0.771284;-0.660043;0.012563;0.0;0.0;0.0;0.0;0.0;0.0
1.0;1753875187.078704;16.486031;1.04;-1.7;0.06;0.77351;-0.659599;0.01283;0.0;0.0;0.0;0.0;0.0;0.0
1.0;1753875187.0833;16.495241;0.99;-1.63;0.07;0.772251;-0.660615;0.013617;0.0;0.0;0.0;0.0;0.0;0.0
1.0;1753875187.087898;16.472241;0.98;-1.66;0.13;0.772449;-0.660468;0.013668;0.0;0.0;0.0;0.0;0.0;0.0
1.0;1753875187.092495;16.469754;1.13;-1.65;0.12;0.772371;-0.660505;0.013631;0.0;0.0;0.0;0.0;0.0;0.0
1.0;1753875187.097092;16.467711;1.08;-1.65;0.09;0.772752;-0.659646;0.014118;0.0;0.0;0.0;0.0;0.0;0.0
1.0;1753875187.101689;16.482685;1.02;-1.7;0.09;0.771896;-0.660693;0.013411;0.0;0.0;0.0;0.0;0.0;0.0
1.0;1753875187.106286;16.486574;1.1;-1.64;0.06;0.773867;-0.66051;0.012821;0.0;0.0;0.0;0.0;0.0;0.0
1.0;1753875187.110884;16.489209;1.1;-1.71;0.06;0.772306;-0.659944;0.012496;0.0;0.0;0.0;0.0;0.0;0.0
1.0;1753875187.115481;16.466387;0.95;-1.7;0.07;0.772483;-0.660332;0.012483;0.0;0.0;0.0;0.0;0.0;0.0
1.0;1753875187.120078;16.484533;0.97;-1.71;0.09;0.771581;-0.659646;0.013002;0.0;0.0;0.0;0.0;0.0;0.0
1.0;1753875187.124675;16.495023;1.1;-1.65;0.13;0.774068;-0.660205;0.013249;0.0;0.0;0.0;0.0;0.0;0.0
1.0;1753875187.129272;16.47703;1.2;-1.72;0.12;0.773195;-0.660402;0.012871;0.0;0.0;0.0;0.0;0.0;0.0
1.0;1753875187.13387;16.475414;1.05;-1.7;0.03;0.773177;-0.660055;0.013568;0.0;0.0;0.0;0.0;0.0;0.0
1.0;1753875187.138467;16.493443;1.05;-1.62;0.04;0.772461;-0.659248;0.013695;0.0;0.0;0.0;0.0;0.0;0.0
1.0;1753875187.143064;16.505042;1.15;-1.77;0.1;0.77281;-0.660192;0.012864;0.0;0.0;0.0;0.0;0.0;0.0
1.0;1753875187.147661;16.481117;1.02;-1.59;-0.06;0.772964;-0.660025;0.012835;0.0;0.0;0.0;0.0;0.0;0.0
1.0;1753875187.152258;16.46372;1.18;-1.64;0.04;0.771694;-0.659929;0.014438;0.0;0.0;0.0;0.0;0.0;0.0
1.0;1753875187.156856;16.475709;1.03;-1.76;0.09;0.773075;-0.660306;0.012356;0.0;0.0;0.0;0.0;0.0;0.0
1.0;1753875187.161453;16.468159;1.13;-1.7;0.08;0.77292;-0.660775;0.012869;0.0;0.0;0.0;0.0;0.0;0.0
1.0;1753875187.16605;16.455797;0.97;-1.64;0.17;0.773317;-0.660096;0.013901;0.0;0.0;0.0;0.0;0.0;0.0
1.0;1753875187.170647;16.475778;0.97;-1.73;-0.05;0.772027;-0.659391;0.012591;0.0;0.0;0.0;0.0;0.0;0.0
1.0;1753875187.175244;16.483623;1.01;-1.67;0.01;0.773617;-0.660508;0.012075;0.0;0.0;0.0;0.0;0.0;0.0
1.0;1753875187.179842;16.493537;1.07;-1.69;0.08;0.773249;-0.659921;0.014708;0.0;0.0;0.0;0.0;0.0;0.0
1.0;1753875187.184439;16.477807;1.04;-1.66;0.04;0.772578;-0.659853;0.013323;0.0;0.0;0.0;0.0;0.0;0.0
1.0;1753875187.189036;16.46459;1.03;-1.68;0.1;0.773161;-0.660102;0.013529;0.0;0.0;0.0;0.0;0.0;0.0
1.0;1753875187.193633;16.485102;1.07;-1.74;0.17;0.773492;-0.660586;0.01226;0.0;0.0;0.0;0.0;0.0;0.0
1.0;1753875187.19823;16.485148;1.12;-1.66;0.13;0.771197;-0.66079;0.014794;0.0;0.0;0.0;0.0;0.0;0.0
1.0;1753875187.202828;16.470763;0.97;-1.7;0.06;0.771743;-0.659959;0.013299;0.0;0.0;0.0;0.0;0.0;0.0
1.0;1753875187.207425;16.480115;1.05;-1.65;0.07;0.773024;-0.659206;0.013052;0.0;0.0;0.0;0.0;0.0;0.0
1.0;1753875187.212022;16.462049;1.04;-1.69;-0.03;0.772802;-0.660107;0.013791;0.0;0.0;0.0;0.0;0.0;0.0
1.0;1753875187.216619;16.453061;0.96;-1.6;0.07;0.772274;-0.660656;0.013356;0.0;0.0;0.0;0.0;0.0;0.0
1.0;1753875187.221216;16.483889;1.08;-1.7;0.06;0.772523;-0.660048;0.013009;0.0;0.0;0.0;0.0;0.0;0.0
1.0;1753875187.225814;16.501617;1.04;-1.67;0.14;0.775252;-0.660308;0.013289;0.0;0.0;0.0;0.0;0.0;0.0
1.0;1753875187.23041;16.48087;1.02;-1.62;0.07;0.772886;-0.6608;0.013387;0.0;0.0;0.0;0.0;0.0;0.0
1.0;1753875187.235008;16.491981;1.13;-1.7;0.04;0.772291;-0.659877;0.013518;0.0;0.0;0.0;0.0;0.0;0.0
1.0;1753875187.239605;16.475131;1.06;-1.65;0.08;0.773719;-0.65902;0.012266;0.0;0.0;0.0;0.0;0.0;0.0
1.0;1753875187.244202;16.48237;0.97;-1.63;0.06;0.77247;-0.661556;0.012512;0.0;0.0;0.0;0.0;0.0;0.0
1.0;1753875187.248799;16.47595;1.02;-1.61;0.01;0.772291;-0.660679;0.013856;0.0;0.0;0.0;0.0;0.0;0.0
1.0;1753875187.253396;16.482009;0.98;-1.67;0.08;0.772569;-0.659916;0.012396;0.0;0.0;0.0;0.0;0.0;0.0
1.0;1753875187.257994;16.474208;1.01;-1.64;0.16;0.772358;-0.659645;0.014533;0.0;0.0;0.0;0.0;0.0;0.0
1.0;1753875187.262591;16.472983;0.92;-1.63;0.16;0.773205;-0.659555;0.014413;0.0;0.0;0.0;0.0;0.0;0.0
1.0;1753875187.267188;16.464864;0.97;-1.76;0.06;0.772205;-0.660208;0.013533;0.0;0.0;0.0;0.0;0.0;0.0
1.0;1753875187.271785;16.476503;1.06;-1.72;0.07;0.772586;-0.660971;0.013139;0.0;0.0;0.0;0.0;0.0;0.0
1.0;1753875187.276382;16.480193;1.05;-1.63;0.03;0.773257;-0.66022;0.014044;0.0;0.0;0.0;0.0;0.0;0.0
1.0;1753875187.28098;16.484703;1.03;-1.59;0.08;0.772611;-0.660822;0.013837;0.0;0.0;0.0;0.0;0.0;0.0
1.0;1753875187.285577;16.46473;0.96;-1.69;0.14;0.773373;-0.660763;0.013151;0.0;0.0;0.0;0.0;0.0;0.0
1.0;1753875187.290174;16.469073;0.91;-1.6;0.03;0.772724;-0.659992;0.012418;0.0;0.0;0.0;0.0;0.0;0.0
1.0;1753875187.294771;16.478238;0.97;-1.68;0.13;0.772262;-0.659403;0.012507;0.0;0.0;0.0;0.0;0.0;0.0
1.0;1753875187.299368;16.466359;1.1;-1.7;0.09;0.772606;-0.658542;0.014164;0.0;0.0;0.0;0.0;0.0;0.0
1.0;1753875187.303966;16.457585;0.98;-1.74;0.08;0.77335;-0.661083;0.013205;0.0;0.0;0.0;0.0;0.0;0.0
1.0;1753875187.308563;16.496707;1.05;-1.75;0.08;0.772991;-0.659909;0.013726;0.0;0.0;0.0;0.0;0.0;0.0
1.0;1753875187.31316;16.462739;1.12;-1.76;0.08;0.772394;-0.659717;0.014037;0.0;0.0;0.0;0.0;0.0;0.0
1.0;1753875187.317757;16.486344;1.1;-1.65;0.11;0.773779;-0.661703;0.01305;0.0;0.0;0.0;0.0;0.0;0.0
1.0;1753875187.322354;16.457258;0.93;-1.72;0.12;0.772799;-0.659414;0.012497;0.0;0.0;0.0;0.0;0.0;0.0
1.0;1753875187.326952;16.468341;1.17;-1.65;0.13;0.774253;-0.658499;0.012252;0.0;0.0;0.0;0.0;0.0;0.0
1.0;1753875187.331549;16.443191;0.92;-1.59;0.17;0.772706;-0.661115;0.012374;0.0;0.0;0.0;0.0;0.0;0.0
1.0;1753875187.336146;16.470439;0.99;-1.64;0.09;0.77249;-0.66145;0.014123;0.0;0.0;0.0;0.0;0.0;0.0
1.0;1753875187.340743;16.466758;0.98;-1.75;0.06;0.773118;-0.659654;0.014144;0.0;0.0;0.0;0.0;0.0;0.0
1.0;1753875187.34534;16.469972;1.06;-1.7;0.03;0.77223;-0.659783;0.013472;0.0;0.0;0.0;0.0;0.0;0.0
1.0;1753875187.349938;16.484604;1.01;-1.76;0.13;0.772322;-0.659564;0.012959;0.0;0.0;0.0;0.0;0.0;0.0
1.0;1753875187.354535;16.481305;1.03;-1.66;0.02;0.773958;-0.660067;0.013104;0.0;0.0;0.0;0.0;0.0;0.0
1.0;1753875187.359132;16.465545;1.0;-1.65;0.08;0.771423;-0.659959;0.013031;0.0;0.0;0.0;0.0;0.0;0.0
1.0;1753875187.363729;16.478072;1.05;-1.69;0.1;0.773713;-0.65926;0.013101;0.0;0.0;0.0;0.0;0.0;0.0
1.0;1753875187.368326;16.485081;1.1;-1.61;0.14;0.772955;-0.659436;0.012744;0.0;0.0;0.0;0.0;0.0;0.0
1.0;1753875187.372923;16.490119;1.05;-1.66;0.17;0.773528;-0.659644;0.012718;0.0;0.0;0.0;0.0;0.0;0.0
1.0;1753875187.37752;16.495738;1.04;-1.74;0.02;0.773248;-0.659982;0.012368;0.0;0.0;0.0;0.0;0.0;0.0
1.0;1753875187.382118;16.471765;1.05;-1.63;0.09;0.772756;-0.658351;0.013018;0.0;0.0;0.0;0.0;0.0;0.0
1.0;1753875187.386715;16.476371;1.11;-1.65;0.05;0.774781;-0.658758;0.012662;0.0;0.0;0.0;0.0;0.0;0.0
1.0;1753875187.391312;16.499204;1.02;-1.64;0.1;0.77265;-0.659047;0.013229;0.0;0.0;0.0;0.0;0.0;0.0
1.0;1753875187.395909;16.472667;1.08;-1.68;0.07;0.773752;-0.658783;0.012261;0.0;0.0;0.0;0.0;0.0;0.0
1.0;1753875187.400506;16.479943;1.16;-1.69;0.08;0.774148;-0.659929;0.013333;0.0;0.0;0.0;0.0;0.0;0.0
1.0;1753875187.405104;16.456555;1.02;-1.71;0.05;0.771874;-0.66038;0.013051;0.0;0.0;0.0;0.0;0.0;0.0
1.0;1753875187.409701;16.475452;1.0;-1.67;0.06;0.77333;-0.659288;0.015274;0.0;0.0;0.0;0.0;0.0;0.0
1.0;1753875187.414298;16.473859;1.0;-1.66;-0.03;0.773644;-0.659823;0.013354;0.0;0.0;0.0;0.0;0.0;0.0
1.0;1753875187.418895;16.476729;1.11;-1.68;0.1;0.773195;-0.659566;0.014145;0.0;0.0;0.0;0.0;0.0;0.0
1.0;1753875187.423492;16.470152;1.14;-1.63;0.15;0.77317;-0.659703;0.01406;0.0;0.0;0.0;0.0;0.0;0.0
1.0;1753875187.42809;16.498518;1.0;-1.74;0.04;0.772483;-0.659544;0.013754;0.0;0.0;0.0;0.0;0.0;0.0
1.0;1753875187.432687;16.462734;1.08;-1.73;0.03;0.773141;-0.659206;0.013163;0.0;0.0;0.0;0.0;0.0;0.0
1.0;1753875187.437284;16.478305;1.03;-1.64;0.03;0.773477;-0.660284;0.013147;0.0;0.0;0.0;0.0;0.0;0.0
1.0;1753875187.441881;16.488905;1.08;-1.71;0.1;0.773273;-0.659968;0.013544;0.0;0.0;0.0;0.0;0.0;0.0
1.0;1753875187.446478;16.472644;1.14;-1.63;0.15;0.771922;-0.65984;0.014506;0.0;0.0;0.0;0.0;0.0;0.0
1.0;1753875187.451076;16.455024;1.04;-1.66;0.11;0.77256;-0.660111;0.012677;0.0;0.0;0.0;0.0;0.0;0.0
1.0;1753875187.455673;16.461323;1.06;-1.71;0.04;0.772243;-0.659366;0.014035;0.0;0.0;0.0;0.0;0.0;0.0
1.0;1753875187.46027;16.480742;1.14;-1.62;0.02;0.772697;-0.660904;0.014506;0.0;0.0;0.0;0.0;0.0;0.0
1.0;1753875187.464867;16.475783;0.99;-1.68;0.05;0.773553;-0.659652;0.015104;0.0;0.0;0.0;0.0;0.0;0.0
1.0;1753875187.469464;16.47025;1.0;-1.7;0.07;0.772949;-0.661812;0.013213;0.0;0.0;0.0;0.0;0.0;0.0
1.0;1753875187.474062;16.463769;1.03;-1.79;0.11;0.773871;-0.660124;0.01369;0.0;0.0;0.0;0.0;0.0;0.0
1.0;1753875187.478659;16.475001;1.09;-1.71;0.05;0.77478;-0.658755;0.014013;0.0;0.0;0.0;0.0;0.0;0.0
1.0;1753875187.483256;16.467278;1.1;-1.66;0.02;0.772964;-0.65948;0.01303;0.0;0.0;0.0;0.0;0.0;0.0
1.0;1753875187.487853;16.469148;1.08;-1.69;0.09;0.77346;-0.659168;0.013493;0.0;0.0;0.0;0.0;0.0;0.0
1.0;1753875187.49245;16.479749;0.97;-1.67;0.03;0.772075;-0.660178;0.012782;0.0;0.0;0.0;0.0;0.0;0.0
1.0;1753875187.497048;16.477957;1.04;-1.73;0.12;0.773587;-0.659894;0.014908;0.0;0.0;0.0;0.0;0.0;0.0
1.0;1753875187.501644;16.492848;1.12;-1.62;0.05;0.772505;-0.660175;0.014231;0.0;0.0;0.0;0.0;0.0;0.0
1.0;1753875187.506242;16.459617;0.96;-1.64;0.1;0.773656;-0.65967;0.013341;0.0;0.0;0.0;0.0;0.0;0.0
1.0;1753875187.510839;16.459006;1.03;-1.78;0.07;0.772999;-0.659599;0.01364;0.0;0.0;0.0;0.0;0.0;0.0
1.0;1753875187.515436;16.460352;1.0;-1.71;0.01;0.772945;-0.659174;0.012875;0.0;0.0;0.0;0.0;0.0;0.0
1.0;1753875187.520033;16.49423;1.0;-1.64;0.03;0.772539;-0.659545;0.013754;0.0;0.0;0.0;0.0;0.0;0.0
1.0;1753875187.52463;16.451993;0.97;-1.64;0.08;0.774428;-0.658927;0.0133;0.0;0.0;0.0;0.0;0.0;0.0
1.0;1753875187.529228;16.472005;1.13;-1.72;0.13;0.774572;-0.659594;0.01393;0.0;0.0;0.0;0.0;0.0;0.0
1.0;1753875187.533825;16.455419;1.03;-1.67;0.14;0.772812;-0.659034;0.015695;0.0;0.0;0.0;0.0;0.0;0.0
1.0;1753875187.538422;16.45265;0.91;-1.7;0.1;0.773934;-0.659844;0.014572;0.0;0.0;0.0;0.0;0.0;0.0
1.0;1753875187.543019;16.481715;0.92;-1.65;0.02;0.774733;-0.65999;0.012938;0.0;0.0;0.0;0.0;0.0;0.0
1.0;1753875187.547616;16.473249;1.06;-1.69;0.02;0.773131;-0.659314;0.015252;0.0;0.0;0.0;0.0;0.0;0.0
1.0;1753875187.552214;16.4732;1.11;-1.69;0.01;0.772924;-0.660467;0.012983;0.0;0.0;0.0;0.0;0.0;0.0
1.0;1753875187.556811;16.4675;1.2;-1.7;0.08;0.772179;-0.659863;0.012677;0.0;0.0;0.0;0.0;0.0;0.0
1.0;1753875187.561408;16.474749;1.02;-1.65;-0.01;0.774978;-0.658215;0.013075;0.0;0.0;0.0;0.0;0.0;0.0
1.0;1753875187.566005;16.460294;1.02;-1.66;-0.01;0.772866;-0.659832;0.013881;0.0;0.0;0.0;0.0;0.0;0.0
1.0;1753875187.570602;16.479106;1.03;-1.62;0.09;0.774438;-0.66065;0.013926;0.0;0.0;0.0;0.0;0.0;0.0
1.0;1753875187.5752;16.482016;1.0;-1.59;0.03;0.772853;-0.660306;0.012626;0.0;0.0;0.0;0.0;0.0;0.0
1.0;1753875187.579797;16.479067;1.03;-1.68;0.08;0.774711;-0.659445;0.01409;0.0;0.0;0.0;0.0;0.0;0.0
1.0;1753875187.584394;16.492568;0.97;-1.62;0.02;0.771737;-0.659323;0.014638;0.0;0.0;0.0;0.0;0.0;0.0
1.0;1753875187.588991;16.471499;1.01;-1.73;0.0;0.773356;-0.658906;0.014229;0.0;0.0;0.0;0.0;0.0;0.0
1.0;1753875187.593588;16.461704;1.07;-1.67;0.06;0.773086;-0.66036;0.013653;0.0;0.0;0.0;0.0;0.0;0.0
1.0;1753875187.598186;16.468227;1.04;-1.62;0.08;0.772666;-0.65898;0.015038;0.0;0.0;0.0;0.0;0.0;0.0
1.0;1753875187.602783;16.469927;1.06;-1.72;0.11;0.773011;-0.658627;0.012931;0.0;0.0;0.0;0.0;0.0;0.0
1.0;1753875187.60738;16.483743;1.04;-1.69;-0.04;0.774698;-0.658957;0.013096;0.0;0.0;0.0;0.0;0.0;0.0
1.0;1753875187.611977;16.484564;0.97;-1.65;0.14;0.772646;-0.658041;0.01556;0.0;0.0;0.0;0.0;0.0;0.0
1.0;1753875187.616574;16.486436;1.01;-1.63;0.03;0.773516;-0.658823;0.013737;0.0;0.0;0.0;0.0;0.0;0.0
1.0;1753875187.621172;16.479514;1.02;-1.69;0.07;0.772261;-0.659051;0.013322;0.0;0.0;0.0;0.0;0.0;0.0
1.0;1753875187.625769;16.480341;1.02;-1.66;0.13;0.774458;-0.659606;0.015656;0.0;0.0;0.0;0.0;0.0;0.0
1.0;1753875187.630366;16.467567;1.1;-1.7;0.1;0.773843;-0.658356;0.013793;0.0;0.0;0.0;0.0;0.0;0.0
1.0;1753875187.634963;16.477015;1.07;-1.7;0.11;0.773271;-0.661177;0.01252;0.0;0.0;0.0;0.0;0.0;0.0
1.0;1753875187.63956;16.459405;1.09;-1.66;0.13;0.772949;-0.6584;0.012114;0.0;0.0;0.0;0.0;0.0;0.0
1.0;1753875187.644158;16.496553;1.12;-1.75;0.06;0.773497;-0.659219;0.012958;0.0;0.0;0.0;0.0;0.0;0.0
1.0;1753875187.648754;16.483303;1.0;-1.74;-0.01;0.773124;-0.660008;0.015546;0.0;0.0;0.0;0.0;0.0;0.0
1.0;1753875187.653352;16.480655;1.01;-1.64;0.14;0.77353;-0.659161;0.012814;0.0;0.0;0.0;0.0;0.0;0.0
1.0;1753875187.657949;16.479754;1.07;-1.66;0.13;0.773633;-0.658415;0.013421;0.0;0.0;0.0;0.0;0.0;0.0
1.0;1753875187.662546;16.456132;1.07;-1.7;-0.04;0.773849;-0.659188;0.013068;0.0;0.0;0.0;0.0;0.0;0.0
1.0;1753875187.667143;16.478214;1.1;-1.69;-0.02;0.773161;-0.659205;0.01466;0.0;0.0;0.0;0.0;0.0;0.0
1.0;1753875187.67174;16.472299;1.1;-1.59;0.08;0.773394;-0.660224;0.013562;0.0;0.0;0.0;0.0;0.0;0.0
1.0;1753875187.676338;16.478072;1.0;-1.71;0.02;0.771746;-0.660112;0.014431;0.0;0.0;0.0;0.0;0.0;0.0
1.0;1753875187.680935;16.471022;1.05;-1.64;0.04;0.774159;-0.659074;0.014991;0.0;0.0;0.0;0.0;0.0;0.0
1.0;1753875187.685532;16.482074;1.08;-1.71;0.08;0.774908;-0.659398;0.015105;0.0;0.0;0.0;0.0;0.0;0.0
1.0;1753875187.690129;16.497382;1.08;-1.61;0.08;0.774711;-0.659419;0.013543;0.0;0.0;0.0;0.0;0.0;0.0
1.0;1753875187.694726;16.497445;1.1;-1.7;0.05;0.774323;-0.659259;0.013361;0.0;0.0;0.0;0.0;0.0;0.0
1.0;1753875187.699324;16.48739;1.1;-1.66;0.15;0.774802;-0.659825;0.014618;0.0;0.0;0.0;0.0;0.0;0.0
1.0;1753875187.703921;16.472408;0.95;-1.65;0.05;0.772971;-0.659212;0.014376;0.0;0.0;0.0;0.0;0.0;0.0
1.0;1753875187.708518;16.489583;0.99;-1.62;0.12;0.773063;-0.660158;0.014129;0.0;0.0;0.0;0.0;0.0;0.0
1.0;1753875187.713115;16.494561;1.1;-1.62;0.13;0.772815;-0.658313;0.014596;0.0;0.0;0.0;0.0;0.0;0.0
1.0;1753875187.717712;16.477553;1.1;-1.62;0.12;0.775035;-0.658479;0.014275;0.0;0.0;0.0;0.0;0.0;0.0
1.0;1753875187.72231;16.481854;1.01;-1.75;0.14;0.774223;-0.657653;0.014645;0.0;0.0;0.0;0.0;0.0;0.0
1.0;1753875187.726907;16.474278;1.02;-1.69;0.09;0.772631;-0.657903;0.013818;0.0;0.0;0.0;0.0;0.0;0.0
1.0;1753875187.731504;16.488324;1.01;-1.73;0.03;0.772671;-0.66039;0.015529;0.0;0.0;0.0;0.0;0.0;0.0
1.0;1753875187.736101;16.484439;1.08;-1.72;0.07;0.773889;-0.658551;0.014965;0.0;0.0;0.0;0.0;0.0;0.0
1.0;1753875187.740698;16.508991;1.05;-1.73;0.04;0.773331;-0.659615;0.014728;0.0;0.0;0.0;0.0;0.0;0.0
1.0;1753875187.745296;16.492224;1.07;-1.68;0.03;0.774425;-0.658988;0.014325;0.0;0.0;0.0;0.0;0.0;0.0
1.0;1753875187.749893;16.460479;1.08;-1.62;0.08;0.774996;-0.659069;0.014203;0.0;0.0;0.0;0.0;0.0;0.0
1.0;1753875187.75449;16.470395;1.05;-1.74;0.05;0.773853;-0.659374;0.015372;0.0;0.0;0.0;0.0;0.0;0.0
1.0;1753875187.759087;16.468011;1.03;-1.64;0.05;0.773195;-0.660387;0.014323;0.0;0.0;0.0;0.0;0.0;0.0
1.0;1753875187.763684;16.464898;1.11;-1.59;0.07;0.774523;-0.658923;0.014554;0.0;0.0;0.0;0.0;0.0;0.0
1.0;1753875187.768282;16.472519;0.99;-1.59;-0.02;0.77279;-0.658605;0.013487;0.0;0.0;0.0;0.0;0.0;0.0
1.0;1753875187.772879;16.505707;0.98;-1.62;0.07;0.773694;-0.660497;0.013348;0.0;0.0;0.0;0.0;0.0;0.0
1.0;1753875187.777476;16.484712;0.98;-1.73;0.05;0.77395;-0.659043;0.014237;0.0;0.0;0.0;0.0;0.0;0.0
1.0;1753875187.782073;16.467642;1.01;-1.69;-0.01;0.774727;-0.660177;0.013799;0.0;0.0;0.0;0.0;0.0;0.0
1.0;1753875187.78667;16.493462;1.03;-1.63;0.03;0.773404;-0.65853;0.013726;0.0;0.0;0.0;0.0;0.0;0.0
1.0;1753875187.791268;16.460941;1.08;-1.7;-0.03;0.772937;-0.658927;0.014039;0.0;0.0;0.0;0.0;0.0;0.0
1.0;1753875187.795864;16.464146;1.07;-1.72;0.06;0.773535;-0.658172;0.014746;0.0;0.0;0.0;0.0;0.0;0.0
1.0;1753875187.800462;16.492766;1.02;-1.72;0.0;0.773304;-0.65807;0.013393;0.0;0.0;0.0;0.0;0.0;0.0
1.0;1753875187.805059;16.487383;1.02;-1.64;0.03;0.772959;-0.660328;0.013676;0.0;0.0;0.0;0.0;0.0;0.0
1.0;1753875187.809656;16.489948;1.1;-1.79;0.1;0.774844;-0.659683;0.014554;0.0;0.0;0.0;0.0;0.0;0.0
1.0;1753875187.814253;16.477713;1.02;-1.76;0.1;0.773351;-0.658234;0.014464;0.0;0.0;0.0;0.0;0.0;0.0
1.0;1753875187.81885;16.476011;1.03;-1.68;0.09;0.773663;-0.658475;0.014584;0.0;0.0;0.0;0.0;0.0;0.0
1.0;1753875187.823448;16.46078;1.01;-1.62;0.11;0.774002;-0.658812;0.014819;0.0;0.0;0.0;0.0;0.0;0.0
1.0;1753875187.828045;16.47892;1.07;-1.65;0.18;0.773663;-0.659387;0.013924;0.0;0.0;0.0;0.0;0.0;0.0
1.0;1753875187.832642;16.464418;1.07;-1.8;0.03;0.773271;-0.659872;0.014108;0.0;0.0;0.0;0.0;0.0;0.0
1.0;1753875187.837239;16.46772;1.0;-1.69;-0.03;0.775032;-0.659265;0.015124;0.0;0.0;0.0;0.0;0.0;0.0
1.0;1753875187.841836;16.472539;1.06;-1.7;0.07;0.773898;-0.658565;0.01431;0.0;0.0;0.0;0.0;0.0;0.0
1.0;1753875187.846434;16.47676;1.08;-1.53;0.02;0.773889;-0.658883;0.014452;0.0;0.0;0.0;0.0;0.0;0.0
1.0;1753875187.851031;16.473992;0.97;-1.74;0.1;0.773939;-0.658002;0.014825;0.0;0.0;0.0;0.0;0.0;0.0
1.0;1753875187.855628;16.483034;1.08;-1.74;0.1;0.774408;-0.658902;0.014157;0.0;0.0;0.0;0.0;0.0;0.0
1.0;1753875187.86;16.476562;1.05;-1.68;0.07;0.773846;-0.659044;0.014274;0.0;0.0;0.0;0.0;0.0;0.0
1.0;1753875187.864597;16.455719;0.99;-1.68;0.17;0.774135;-0.658106;0.014358;0.0;0.0;0.0;0.0;0.0;0.0
1.0;1753875187.869194;16.476309;1.12;-1.64;0.09;0.774693;-0.65964;0.014312;0.0;0.0;0.0;0.0;0.0;0.0
1.0;1753875187.873792;16.471665;1.08;-1.63;0.21;0.77563;-0.659402;0.014356;0.0;0.0;0.0;0.0;0.0;0.0
1.0;1753875187.878389;16.480764;1.01;-1.62;0.14;0.773245;-0.65863;0.013659;0.0;0.0;0.0;0.0;0.0;0.0
1.0;1753875187.882986;16.47839;1.11;-1.69;0.11;0.774117;-0.658977;0.0143;0.0;0.0;0.0;0.0;0.0;0.0
1.0;1753875187.887583;16.476845;1.04;-1.68;0.14;0.773754;-0.658869;0.014182;0.0;0.0;0.0;0.0;0.0;0.0
1.0;1753875187.89218;16.476231;1.1;-1.74;0.1;0.772861;-0.659527;0.01385;0.0;0.0;0.0;0.0;0.0;0.0
1.0;1753875187.896778;16.46205;1.12;-1.63;0.13;0.772757;-0.658299;0.014322;0.0;0.0;0.0;0.0;0.0;0.0
1.0;1753875187.901374;16.479909;1.16;-1.65;0.07;0.773256;-0.659637;0.014611;0.0;0.0;0.0;0.0;0.0;0.0
1.0;1753875187.905972;16.495038;1.02;-1.72;0.09;0.773281;-0.659711;0.014208;0.0;0.0;0.0;0.0;0.0;0.0
1.0;1753875187.910569;16.476991;0.98;-1.64;0.12;0.774959;-0.659405;0.013945;0.0;0.0;0.0;0.0;0.0;0.0
1.0;1753875187.915166;16.461736;1.05;-1.7;0.07;0.773892;-0.658899;0.013447;0.0;0.0;0.0;0.0;0.0;0.0
1.0;1753875187.919763;16.451715;1.15;-1.57;0.16;0.774612;-0.659572;0.014663;0.0;0.0;0.0;0.0;0.0;0.0
1.0;1753875187.92436;16.492429;1.14;-1.65;0.17;0.772542;-0.659066;0.014342;0.0;0.0;0.0;0.0;0.0;0.0
1.0;1753875187.928958;16.445998;1.1;-1.62;0.07;0.772954;-0.660162;0.012956;0.0;0.0;0.0;0.0;0.0;0.0
1.0;1753875187.933555;16.491013;1.19;-1.65;0.02;0.77467;-0.659513;0.013694;0.0;0.0;0.0;0.0;0.0;0.0
1.0;1753875187.938152;16.477583;1.02;-1.58;0.19;0.773561;-0.659647;0.013585;0.0;0.0;0.0;0.0;0.0;0.0
1.0;1753875187.942749;16.448764;1.05;-1.71;0.11;0.773596;-0.659253;0.013619;0.0;0.0;0.0;0.0;0.0;0.0
1.0;1753875187.947346;16.454605;1.14;-1.59;0.07;0.772568;-0.659562;0.014445;0.0;0.0;0.0;0.0;0.0;0.0
1.0;1753875187.951944;16.451523;1.15;-1.57;0.16;0.774799;-0.660707;0.012146;0.0;0.0;0.0;0.0;0.0;0.0
1.0;1753875187.956541;16.468318;1.16;-1.67;0.09;0.773143;-0.65948;0.011448;0.0;0.0;0.0;0.0;0.0;0.0
1.0;1753875187.961138;16.453131;1.24;-1.59;0.01;0.772845;-0.65954;0.012366;0.0;0.0;0.0;0.0;0.0;0.0
1.0;1753875187.9688;16.453125;1.12;-1.61;0.14;0.773968;-0.659654;0.012688;0.0;0.0;0.0;0.0;0.0;0.0
1.0;1753875187.968994;16.460938;1.12;-1.68;0.0;0.773724;-0.659898;0.013176;0.0;0.0;0.0;0.0;0.0;0.0
1.0;1753875187.969895;16.460938;1.05;-1.61;0.14;0.7747;-0.660142;0.01342;0.0;0.0;0.0;0.0;0.0;0.0
1.0;1753875187.974455;16.460938;1.12;-1.54;0.07;0.7747;-0.660142;0.01342;0.0;0.0;0.0;0.0;0.0;0.0
1.0;1753875187.980404;16.414062;1.12;-1.61;0.14;0.77409;-0.658678;0.012688;0.0;0.0;0.0;0.0;0.0;0.0
1.0;1753875187.987192;16.414062;1.05;-1.61;0.0;0.772138;-0.66002;0.012688;0.0;0.0;0.0;0.0;0.0;0.0
1.0;1753875187.988204;16.414062;1.12;-1.61;0.0;0.773114;-0.660142;0.011712;0.0;0.0;0.0;0.0;0.0;0.0
1.0;1753875187.994454;16.414062;1.05;-1.61;0.07;0.772992;-0.66063;0.013908;0.0;0.0;0.0;0.0;0.0;0.0
1.0;1753875187.997461;16.417969;0.98;-1.61;0.14;0.774822;-0.659288;0.013054;0.0;0.0;0.0;0.0;0.0;0.0
1.0;1753875188.002058;16.385229;0.9;-1.65;0.18;0.773526;-0.659096;0.012491;0.0;0.0;0.0;0.0;0.0;0.0
1.0;1753875188.006656;16.437314;1.02;-1.47;0.08;0.775146;-0.659155;0.012883;0.0;0.0;0.0;0.0;0.0;0.0
1.0;1753875188.011253;16.392123;0.9;-1.62;0.16;0.776418;-0.659576;0.013758;0.0;0.0;0.0;0.0;0.0;0.0
1.0;1753875188.01585;16.41704;0.93;-1.6;0.12;0.77338;-0.659582;0.012951;0.0;0.0;0.0;0.0;0.0;0.0
1.0;1753875188.020447;16.404807;1.04;-1.58;0.24;0.773765;-0.659974;0.013732;0.0;0.0;0.0;0.0;0.0;0.0
1.0;1753875188.025044;16.407871;0.98;-1.65;0.15;0.775917;-0.659917;0.013485;0.0;0.0;0.0;0.0;0.0;0.0
1.0;1753875188.029642;16.457764;0.95;-1.58;0.14;0.775548;-0.659571;0.013969;0.0;0.0;0.0;0.0;0.0;0.0
1.0;1753875188.034238;16.362059;0.99;-1.66;0.25;0.773309;-0.659165;0.013771;0.0;0.0;0.0;0.0;0.0;0.0
1.0;1753875188.038836;16.402754;0.96;-1.66;0.15;0.773523;-0.658055;0.013448;0.0;0.0;0.0;0.0;0.0;0.0
1.0;1753875188.043433;16.454101;1.08;-1.57;0.23;0.773023;-0.659412;0.014155;0.0;0.0;0.0;0.0;0.0;0.0
1.0;1753875188.04803;16.404207;1.07;-1.68;0.17;0.774274;-0.661432;0.014016;0.0;0.0;0.0;0.0;0.0;0.0
1.0;1753875188.052627;16.428313;1.11;-1.61;0.15;0.773756;-0.658554;0.013169;0.0;0.0;0.0;0.0;0.0;0.0
1.0;1753875188.057224;16.417746;0.94;-1.7;0.16;0.774115;-0.66013;0.014471;0.0;0.0;0.0;0.0;0.0;0.0
1.0;1753875188.061822;16.430632;0.95;-1.66;0.15;0.774152;-0.659581;0.013894;0.0;0.0;0.0;0.0;0.0;0.0
1.0;1753875188.066419;16.422238;0.91;-1.67;0.15;0.772966;-0.65892;0.012559;0.0;0.0;0.0;0.0;0.0;0.0
1.0;1753875188.071016;16.430861;1.02;-1.75;0.14;0.773567;-0.658883;0.012655;0.0;0.0;0.0;0.0;0.0;0.0
1.0;1753875188.075613;16.373824;0.94;-1.59;0.17;0.772776;-0.658954;0.013727;0.0;0.0;0.0;0.0;0.0;0.0
1.0;1753875188.08021;16.424414;1.03;-1.65;0.08;0.773064;-0.659017;0.013338;0.0;0.0;0.0;0.0;0.0;0.0
1.0;1753875188.084808;16.407804;0.99;-1.63;0.03;0.775436;-0.658302;0.013337;0.0;0.0;0.0;0.0;0.0;0.0
1.0;1753875188.089405;16.421088;0.99;-1.64;0.19;0.773515;-0.659883;0.013783;0.0;0.0;0.0;0.0;0.0;0.0
1.0;1753875188.094002;16.427577;0.97;-1.65;0.21;0.773697;-0.659728;0.013282;0.0;0.0;0.0;0.0;0.0;0.0
1.0;1753875188.098599;16.416193;0.97;-1.59;-0.07;0.775484;-0.660303;0.013638;0.0;0.0;0.0;0.0;0.0;0.0
1.0;1753875188.103196;16.407821;1.08;-1.63;0.02;0.773227;-0.660013;0.014061;0.0;0.0;0.0;0.0;0.0;0.0
1.0;1753875188.107794;16.41786;0.95;-1.59;0.14;0.774653;-0.660617;0.014675;0.0;0.0;0.0;0.0;0.0;0.0
1.0;1753875188.112391;16.431142;0.93;-1.66;0.16;0.774409;-0.659163;0.013358;0.0;0.0;0.0;0.0;0.0;0.0
1.0;1753875188.116988;16.422898;0.96;-1.74;0.04;0.77364;-0.65953;0.013804;0.0;0.0;0.0;0.0;0.0;0.0
1.0;1753875188.121585;16.423377;1.03;-1.72;-0.06;0.772988;-0.659927;0.013853;0.0;0.0;0.0;0.0;0.0;0.0
1.0;1753875188.126182;16.39192;0.84;-1.71;0.17;0.775176;-0.659482;0.012381;0.0;0.0;0.0;0.0;0.0;0.0
1.0;1753875188.13078;16.420604;0.94;-1.65;0.16;0.774006;-0.65957;0.014156;0.0;0.0;0.0;0.0;0.0;0.0
1.0;1753875188.135377;16.443734;1.01;-1.66;0.25;0.77358;-0.660877;0.013238;0.0;0.0;0.0;0.0;0.0;0.0
1.0;1753875188.139974;16.441397;0.91;-1.63;0.22;0.775792;-0.660388;0.014178;0.0;0.0;0.0;0.0;0.0;0.0
1.0;1753875188.144571;16.466705;0.94;-1.68;0.11;0.774414;-0.659319;0.013949;0.0;0.0;0.0;0.0;0.0;0.0
1.0;1753875188.149168;16.404124;0.97;-1.73;0.21;0.773351;-0.659883;0.014217;0.0;0.0;0.0;0.0;0.0;0.0
1.0;1753875188.153766;16.398;0.92;-1.5;0.12;0.773967;-0.661105;0.013044;0.0;0.0;0.0;0.0;0.0;0.0
1.0;1753875188.158363;16.416844;1.08;-1.71;0.1;0.772864;-0.659344;0.013853;0.0;0.0;0.0;0.0;0.0;0.0
1.0;1753875188.16296;16.447345;0.94;-1.69;0.13;0.773398;-0.660077;0.014623;0.0;0.0;0.0;0.0;0.0;0.0
1.0;1753875188.167557;16.388694;0.88;-1.59;0.12;0.774632;-0.658712;0.013947;0.0;0.0;0.0;0.0;0.0;0.0
1.0;1753875188.172154;16.383218;1.04;-1.71;0.08;0.77527;-0.660516;0.013586;0.0;0.0;0.0;0.0;0.0;0.0
1.0;1753875188.176752;16.44658;1.01;-1.72;-0.01;0.775428;-0.659992;0.014136;0.0;0.0;0.0;0.0;0.0;0.0
1.0;1753875188.181348;16.374586;0.95;-1.71;0.22;0.774316;-0.660051;0.013942;0.0;0.0;0.0;0.0;0.0;0.0
1.0;1753875188.185946;16.447157;1.0;-1.62;0.06;0.775335;-0.659893;0.013903;0.0;0.0;0.0;0.0;0.0;0.0
1.0;1753875188.190543;16.444434;1.02;-1.7;0.1;0.774399;-0.660327;0.01269;0.0;0.0;0.0;0.0;0.0;0.0
1.0;1753875188.19514;16.407289;1.04;-1.68;0.11;0.773313;-0.660217;0.013424;0.0;0.0;0.0;0.0;0.0;0.0
1.0;1753875188.199737;16.442857;0.95;-1.63;-0.02;0.774384;-0.659794;0.013505;0.0;0.0;0.0;0.0;0.0;0.0
1.0;1753875188.205;16.417969;0.98;-1.68;0.07;0.773968;-0.660142;0.013908;0.0;0.0;0.0;0.0;0.0;0.0
1.0;1753875188.209597;16.385424;1.12;-1.65;0.08;0.772206;-0.660082;0.01555;0.0;0.0;0.0;0.0;0.0;0.0
1.0;1753875188.214194;16.430803;0.99;-1.73;-0.01;0.772818;-0.659585;0.014275;0.0;0.0;0.0;0.0;0.0;0.0
1.0;1753875188.218792;16.409714;0.9;-1.68;-0.04;0.77343;-0.65997;0.01423;0.0;0.0;0.0;0.0;0.0;0.0
1.0;1753875188.223389;16.385441;0.91;-1.7;0.12;0.772618;-0.659969;0.013447;0.0;0.0;0.0;0.0;0.0;0.0
1.0;1753875188.227986;16.410615;0.99;-1.73;0.09;0.77469;-0.66127;0.014731;0.0;0.0;0.0;0.0;0.0;0.0
1.0;1753875188.232583;16.396449;0.99;-1.64;0.05;0.773949;-0.659821;0.014449;0.0;0.0;0.0;0.0;0.0;0.0
1.0;1753875188.23718;16.402352;0.97;-1.71;0.08;0.775536;-0.660251;0.015437;0.0;0.0;0.0;0.0;0.0;0.0
1.0;1753875188.241778;16.432347;0.9;-1.7;0.06;0.77583;-0.661094;0.012942;0.0;0.0;0.0;0.0;0.0;0.0
1.0;1753875188.246374;16.388181;1.07;-1.67;0.04;0.77326;-0.659828;0.013102;0.0;0.0;0.0;0.0;0.0;0.0
1.0;1753875188.250972;16.405258;0.89;-1.71;0.06;0.772783;-0.659804;0.014368;0.0;0.0;0.0;0.0;0.0;0.0
1.0;1753875188.255569;16.426773;1.01;-1.75;0.05;0.77277;-0.660888;0.013786;0.0;0.0;0.0;0.0;0.0;0.0
1.0;1753875188.260166;16.405662;1.07;-1.66;0.08;0.773696;-0.660649;0.014944;0.0;0.0;0.0;0.0;0.0;0.0
1.0;1753875188.264763;16.405606;0.98;-1.64;0.06;0.776057;-0.660865;0.012707;0.0;0.0;0.0;0.0;0.0;0.0
1.0;1753875188.26936;16.408102;1.01;-1.7;0.13;0.775501;-0.659288;0.014123;0.0;0.0;0.0;0.0;0.0;0.0
1.0;1753875188.273958;16.402816;0.92;-1.71;0.08;0.772359;-0.659561;0.013191;0.0;0.0;0.0;0.0;0.0;0.0
1.0;1753875188.278555;16.394994;0.97;-1.73;0.17;0.774232;-0.660545;0.013729;0.0;0.0;0.0;0.0;0.0;0.0
1.0;1753875188.283152;16.409256;1.02;-1.71;0.08;0.773204;-0.660451;0.013667;0.0;0.0;0.0;0.0;0.0;0.0
1.0;1753875188.287749;16.434522;1.02;-1.63;0.07;0.773036;-0.658665;0.014178;0.0;0.0;0.0;0.0;0.0;0.0
1.0;1753875188.292346;16.429225;0.98;-1.63;0.14;0.773741;-0.659757;0.013872;0.0;0.0;0.0;0.0;0.0;0.0
1.0;1753875188.296944;16.396525;1.02;-1.51;0.01;0.773694;-0.660132;0.01423;0.0;0.0;0.0;0.0;0.0;0.0
1.0;1753875188.301541;16.379266;1.01;-1.67;-0.01;0.774113;-0.659945;0.01271;0.0;0.0;0.0;0.0;0.0;0.0
1.0;1753875188.306138;16.411805;1.12;-1.65;0.12;0.773397;-0.660127;0.014565;0.0;0.0;0.0;0.0;0.0;0.0
1.0;1753875188.310735;16.433778;0.96;-1.64;0.05;0.774585;-0.661758;0.012686;0.0;0.0;0.0;0.0;0.0;0.0
1.0;1753875188.315332;16.414797;1.01;-1.74;0.07;0.773944;-0.661295;0.014082;0.0;0.0;0.0;0.0;0.0;0.0
1.0;1753875188.31993;16.398825;0.87;-1.66;0.11;0.773422;-0.659158;0.01291;0.0;0.0;0.0;0.0;0.0;0.0
1.0;1753875188.324527;16.435128;1.02;-1.67;0.0;0.772794;-0.660373;0.013176;0.0;0.0;0.0;0.0;0.0;0.0
1.0;1753875188.329124;16.399933;0.92;-1.63;-0.13;0.774038;-0.661492;0.01347;0.0;0.0;0.0;0.0;0.0;0.0
1.0;1753875188.333721;16.436499;0.98;-1.65;-0.03;0.771761;-0.65982;0.013346;0.0;0.0;0.0;0.0;0.0;0.0
1.0;1753875188.338318;16.390715;0.93;-1.79;0.03;0.773955;-0.659593;0.012947;0.0;0.0;0.0;0.0;0.0;0.0
1.0;1753875188.342916;16.419194;1.0;-1.62;0.13;0.776685;-0.659075;0.013945;0.0;0.0;0.0;0.0;0.0;0.0
1.0;1753875188.347513;16.374502;1.04;-1.65;0.1;0.774192;-0.660113;0.013785;0.0;0.0;0.0;0.0;0.0;0.0
1.0;1753875188.35211;16.400804;1.01;-1.63;0.17;0.774123;-0.660503;0.01213;0.0;0.0;0.0;0.0;0.0;0.0
1.0;1753875188.356707;16.426367;1.01;-1.6;0.15;0.775067;-0.65988;0.013126;0.0;0.0;0.0;0.0;0.0;0.0
1.0;1753875188.361304;16.411137;0.96;-1.84;0.13;0.774428;-0.661104;0.013835;0.0;0.0;0.0;0.0;0.0;0.0
1.0;1753875188.365902;16.452722;1.0;-1.7;-0.02;0.775047;-0.661999;0.014366;0.0;0.0;0.0;0.0;0.0;0.0
1.0;1753875188.370499;16.429854;1.07;-1.64;0.06;0.775512;-0.660126;0.013161;0.0;0.0;0.0;0.0;0.0;0.0
1.0;1753875188.375096;16.429569;0.95;-1.71;-0.02;0.773259;-0.660245;0.014061;0.0;0.0;0.0;0.0;0.0;0.0
1.0;1753875188.379693;16.422794;1.03;-1.68;0.19;0.774796;-0.659896;0.013377;0.0;0.0;0.0;0.0;0.0;0.0
1.0;1753875188.38429;16.415027;1.07;-1.71;0.05;0.773413;-0.661711;0.013764;0.0;0.0;0.0;0.0;0.0;0.0
1.0;1753875188.388888;16.39802;1.07;-1.67;-0.02;0.774539;-0.660144;0.012713;0.0;0.0;0.0;0.0;0.0;0.0
1.0;1753875188.393484;16.442313;1.06;-1.62;0.06;0.773068;-0.66045;0.01404;0.0;0.0;0.0;0.0;0.0;0.0
1.0;1753875188.398082;16.425109;1.05;-1.6;0.09;0.775822;-0.660119;0.013268;0.0;0.0;0.0;0.0;0.0;0.0
1.0;1753875188.402679;16.419693;1.06;-1.67;0.13;0.775234;-0.661425;0.013792;0.0;0.0;0.0;0.0;0.0;0.0
1.0;1753875188.407276;16.42607;1.05;-1.62;0.11;0.773993;-0.660741;0.012614;0.0;0.0;0.0;0.0;0.0;0.0
1.0;1753875188.411873;16.426066;1.02;-1.6;-0.07;0.772049;-0.660583;0.012713;0.0;0.0;0.0;0.0;0.0;0.0
1.0;1753875188.41647;16.427386;1.03;-1.68;0.1;0.774951;-0.661364;0.013729;0.0;0.0;0.0;0.0;0.0;0.0
1.0;1753875188.421068;16.42958;0.96;-1.59;0.05;0.774895;-0.66093;0.013364;0.0;0.0;0.0;0.0;0.0;0.0
1.0;1753875188.425665;16.424778;1.07;-1.72;0.07;0.774238;-0.661485;0.01359;0.0;0.0;0.0;0.0;0.0;0.0
1.0;1753875188.430262;16.408851;1.04;-1.61;0.14;0.773308;-0.659684;0.013091;0.0;0.0;0.0;0.0;0.0;0.0
1.0;1753875188.434859;16.441415;1.04;-1.64;0.08;0.774526;-0.660399;0.013315;0.0;0.0;0.0;0.0;0.0;0.0
1.0;1753875188.439456;16.393798;1.06;-1.63;0.11;0.774084;-0.660753;0.012003;0.0;0.0;0.0;0.0;0.0;0.0
1.0;1753875188.444054;16.383594;1.02;-1.67;-0.0;0.775236;-0.659995;0.012768;0.0;0.0;0.0;0.0;0.0;0.0
1.0;1753875188.448651;16.374212;1.09;-1.68;0.04;0.775274;-0.659502;0.012997;0.0;0.0;0.0;0.0;0.0;0.0
1.0;1753875188.453248;16.390122;1.04;-1.87;0.18;0.77405;-0.661094;0.012309;0.0;0.0;0.0;0.0;0.0;0.0
1.0;1753875188.457845;16.437389;0.99;-1.65;-0.01;0.772956;-0.660693;0.012544;0.0;0.0;0.0;0.0;0.0;0.0
1.0;1753875188.462442;16.414316;1.09;-1.79;0.11;0.774148;-0.659273;0.01355;0.0;0.0;0.0;0.0;0.0;0.0
1.0;1753875188.46704;16.423408;1.06;-1.63;0.07;0.772538;-0.660642;0.013341;0.0;0.0;0.0;0.0;0.0;0.0
1.0;1753875188.471637;16.405182;1.16;-1.72;0.15;0.773215;-0.657998;0.013359;0.0;0.0;0.0;0.0;0.0;0.0
1.0;1753875188.476234;16.400556;1.05;-1.7;0.0;0.774236;-0.660243;0.0136;0.0;0.0;0.0;0.0;0.0;0.0
1.0;1753875188.480831;16.416388;0.95;-1.64;0.06;0.775295;-0.65854;0.014117;0.0;0.0;0.0;0.0;0.0;0.0
1.0;1753875188.485428;16.418565;1.0;-1.72;0.19;0.776375;-0.659514;0.014118;0.0;0.0;0.0;0.0;0.0;0.0
1.0;1753875188.490026;16.434396;1.07;-1.66;0.02;0.774816;-0.660945;0.014147;0.0;0.0;0.0;0.0;0.0;0.0
1.0;1753875188.494623;16.475285;1.1;-1.64;-0.01;0.774754;-0.660088;0.01284;0.0;0.0;0.0;0.0;0.0;0.0
1.0;1753875188.49922;16.423906;0.98;-1.67;0.15;0.775481;-0.659387;0.012936;0.0;0.0;0.0;0.0;0.0;0.0
1.0;1753875188.503817;16.438395;1.15;-1.69;0.14;0.773417;-0.659949;0.013607;0.0;0.0;0.0;0.0;0.0;0.0
1.0;1753875188.508414;16.448296;1.05;-1.54;0.17;0.77435;-0.659552;0.013294;0.0;0.0;0.0;0.0;0.0;0.0
1.0;1753875188.513012;16.407923;1.08;-1.72;0.03;0.773017;-0.659898;0.012925;0.0;0.0;0.0;0.0;0.0;0.0
1.0;1753875188.517609;16.408865;1.14;-1.63;-0.08;0.773911;-0.660153;0.012674;0.0;0.0;0.0;0.0;0.0;0.0
1.0;1753875188.522206;16.421257;1.13;-1.7;0.11;0.77441;-0.660169;0.012349;0.0;0.0;0.0;0.0;0.0;0.0
1.0;1753875188.526803;16.413475;1.03;-1.7;0.11;0.77605;-0.659527;0.013475;0.0;0.0;0.0;0.0;0.0;0.0
1.0;1753875188.5314;16.402053;1.03;-1.65;-0.0;0.773035;-0.660132;0.012818;0.0;0.0;0.0;0.0;0.0;0.0
1.0;1753875188.535998;16.416179;1.13;-1.72;0.01;0.775467;-0.660042;0.013058;0.0;0.0;0.0;0.0;0.0;0.0
1.0;1753875188.540594;16.4274;1.16;-1.69;0.1;0.775043;-0.659538;0.013035;0.0;0.0;0.0;0.0;0.0;0.0
1.0;1753875188.545192;16.402204;1.11;-1.63;0.1;0.775355;-0.659853;0.013211;0.0;0.0;0.0;0.0;0.0;0.0
1.0;1753875188.549789;16.444077;1.08;-1.71;-0.0;0.774099;-0.660369;0.011996;0.0;0.0;0.0;0.0;0.0;0.0
1.0;1753875188.554386;16.452063;1.0;-1.59;0.12;0.773804;-0.659816;0.011812;0.0;0.0;0.0;0.0;0.0;0.0
1.0;1753875188.558983;16.393799;1.07;-1.71;0.12;0.775484;-0.660045;0.013053;0.0;0.0;0.0;0.0;0.0;0.0
1.0;1753875188.56358;16.400999;1.11;-1.68;0.11;0.773075;-0.660529;0.012162;0.0;0.0;0.0;0.0;0.0;0.0
1.0;1753875188.568178;16.397448;1.07;-1.72;0.01;0.773899;-0.660424;0.01272;0.0;0.0;0.0;0.0;0.0;0.0
1.0;1753875188.572775;16.413358;1.2;-1.62;0.0;0.774729;-0.658664;0.012842;0.0;0.0;0.0;0.0;0.0;0.0
1.0;1753875188.577372;16.434737;1.09;-1.76;-0.0;0.773655;-0.660212;0.012082;0.0;0.0;0.0;0.0;0.0;0.0
1.0;1753875188.581969;16.432442;0.99;-1.73;0.12;0.773545;-0.659761;0.01343;0.0;0.0;0.0;0.0;0.0;0.0
1.0;1753875188.586566;16.395596;1.1;-1.68;0.11;0.773145;-0.660635;0.013307;0.0;0.0;0.0;0.0;0.0;0.0
1.0;1753875188.591164;16.418557;1.15;-1.64;0.01;0.773806;-0.659948;0.012437;0.0;0.0;0.0;0.0;0.0;0.0
1.0;1753875188.595761;16.391338;0.98;-1.71;-0.05;0.773841;-0.660908;0.013088;0.0;0.0;0.0;0.0;0.0;0.0
1.0;1753875188.600358;16.394503;1.14;-1.71;0.1;0.772981;-0.660976;0.011859;0.0;0.0;0.0;0.0;0.0;0.0
1.0;1753875188.604955;16.403488;1.11;-1.59;0.16;0.775139;-0.659812;0.0118;0.0;0.0;0.0;0.0;0.0;0.0
1.0;1753875188.609552;16.424604;1.13;-1.68;0.06;0.776975;-0.660497;0.013015;0.0;0.0;0.0;0.0;0.0;0.0
1.0;1753875188.61415;16.429346;1.06;-1.63;0.05;0.775743;-0.660515;0.012213;0.0;0.0;0.0;0.0;0.0;0.0
1.0;1753875188.618747;16.416746;1.12;-1.73;-0.01;0.774936;-0.660668;0.012612;0.0;0.0;0.0;0.0;0.0;0.0
1.0;1753875188.623344;16.392872;1.13;-1.63;0.14;0.773558;-0.660125;0.011271;0.0;0.0;0.0;0.0;0.0;0.0
1.0;1753875188.627941;16.441657;1.11;-1.71;-0.0;0.77494;-0.660385;0.013422;0.0;0.0;0.0;0.0;0.0;0.0
1.0;1753875188.632538;16.384972;1.0;-1.67;0.06;0.773907;-0.659655;0.012088;0.0;0.0;0.0;0.0;0.0;0.0
1.0;1753875188.637136;16.419481;1.09;-1.77;0.17;0.773391;-0.660889;0.011022;0.0;0.0;0.0;0.0;0.0;0.0
1.0;1753875188.641733;16.412253;1.11;-1.75;0.21;0.775663;-0.6599;0.012103;0.0;0.0;0.0;0.0;0.0;0.0
1.0;1753875188.64633;16.408557;1.14;-1.74;0.05;0.774618;-0.660649;0.011888;0.0;0.0;0.0;0.0;0.0;0.0
1.0;1753875188.650927;16.435445;1.09;-1.63;-0.07;0.77595;-0.660536;0.010773;0.0;0.0;0.0;0.0;0.0;0.0
1.0;1753875188.655524;16.430746;1.25;-1.72;0.12;0.775013;-0.659958;0.01208;0.0;0.0;0.0;0.0;0.0;0.0
1.0;1753875188.660122;16.41556;1.1;-1.69;0.15;0.774813;-0.660053;0.013086;0.0;0.0;0.0;0.0;0.0;0.0
1.0;1753875188.664719;16.40604;1.13;-1.71;0.14;0.773347;-0.660352;0.01282;0.0;0.0;0.0;0.0;0.0;0.0
1.0;1753875188.669316;16.394957;1.14;-1.6;0.05;0.773414;-0.659393;0.012202;0.0;0.0;0.0;0.0;0.0;0.0
1.0;1753875188.673913;16.426739;1.19;-1.76;0.07;0.774321;-0.659579;0.012268;0.0;0.0;0.0;0.0;0.0;0.0
1.0;1753875188.67851;16.415437;1.1;-1.7;0.08;0.774801;-0.659739;0.01224;0.0;0.0;0.0;0.0;0.0;0.0
1.0;1753875188.683108;16.440147;1.02;-1.61;-0.04;0.773243;-0.660046;0.012136;0.0;0.0;0.0;0.0;0.0;0.0
1.0;1753875188.687704;16.410348;1.2;-1.7;0.07;0.775402;-0.660609;0.01225;0.0;0.0;0.0;0.0;0.0;0.0
1.0;1753875188.692302;16.422075;1.14;-1.66;0.0;0.773728;-0.660476;0.012717;0.0;0.0;0.0;0.0;0.0;0.0
1.0;1753875188.6993;16.417969;1.12;-1.68;0.07;0.774212;-0.660264;0.012444;0.0;0.0;0.0;0.0;0.0;0.0
1.0;1753875188.70459;16.375;1.05;-1.61;0.14;0.77409;-0.66002;0.01342;0.0;0.0;0.0;0.0;0.0;0.0
1.0;1753875188.709187;16.404038;0.98;-1.62;0.2;0.773768;-0.65975;0.013647;0.0;0.0;0.0;0.0;0.0;0.0
1.0;1753875188.713784;16.393442;0.97;-1.71;0.13;0.773246;-0.66136;0.012877;0.0;0.0;0.0;0.0;0.0;0.0
1.0;1753875188.718382;16.340583;1.0;-1.62;0.12;0.775394;-0.660944;0.014507;0.0;0.0;0.0;0.0;0.0;0.0
1.0;1753875188.722979;16.393444;0.98;-1.71;0.09;0.77475;-0.661736;0.012847;0.0;0.0;0.0;0.0;0.0;0.0
1.0;1753875188.727576;16.37126;0.97;-1.58;0.17;0.774393;-0.661422;0.014082;0.0;0.0;0.0;0.0;0.0;0.0
1.0;1753875188.732173;16.397055;0.89;-1.63;0.13;0.773865;-0.663726;0.015959;0.0;0.0;0.0;0.0;0.0;0.0
1.0;1753875188.73677;16.395695;1.07;-1.57;0.28;0.774708;-0.660579;0.011971;0.0;0.0;0.0;0.0;0.0;0.0
1.0;1753875188.741368;16.401238;0.9;-1.59;0.1;0.774227;-0.660992;0.012999;0.0;0.0;0.0;0.0;0.0;0.0
1.0;1753875188.745965;16.368498;0.95;-1.57;0.19;0.774242;-0.660734;0.013055;0.0;0.0;0.0;0.0;0.0;0.0
1.0;1753875188.750562;16.407097;0.98;-1.59;0.11;0.773599;-0.661285;0.012699;0.0;0.0;0.0;0.0;0.0;0.0
1.0;1753875188.755159;16.410341;0.92;-1.6;0.22;0.774139;-0.661328;0.014147;0.0;0.0;0.0;0.0;0.0;0.0
1.0;1753875188.76108;16.375;0.98;-1.61;0.14;0.774212;-0.661972;0.013054;0.0;0.0;0.0;0.0;0.0;0.0
1.0;1753875188.765677;16.403844;1.03;-1.64;0.07;0.774555;-0.661292;0.012092;0.0;0.0;0.0;0.0;0.0;0.0
1.0;1753875188.770274;16.401675;0.95;-1.61;0.15;0.773168;-0.661536;0.01292;0.0;0.0;0.0;0.0;0.0;0.0
1.0;1753875188.774872;16.369517;0.96;-1.58;0.06;0.773907;-0.662451;0.012216;0.0;0.0;0.0;0.0;0.0;0.0
1.0;1753875188.779469;16.343198;1.04;-1.63;0.01;0.774628;-0.660284;0.013114;0.0;0.0;0.0;0.0;0.0;0.0
1.0;1753875188.784066;16.392038;1.04;-1.58;0.18;0.774628;-0.6608;0.013993;0.0;0.0;0.0;0.0;0.0;0.0
1.0;1753875188.788663;16.406953;1.04;-1.61;0.11;0.773834;-0.662197;0.012657;0.0;0.0;0.0;0.0;0.0;0.0
1.0;1753875188.7968;16.375;1.05;-1.68;0.07;0.77348;-0.660508;0.012566;0.0;0.0;0.0;0.0;0.0;0.0
1.0;1753875188.801397;16.373579;0.96;-1.72;0.07;0.772595;-0.661282;0.01245;0.0;0.0;0.0;0.0;0.0;0.0
1.0;1753875188.805994;16.370352;1.06;-1.56;0.08;0.774912;-0.662873;0.011229;0.0;0.0;0.0;0.0;0.0;0.0
1.0;1753875188.810592;16.327893;1.01;-1.66;0.09;0.77241;-0.662544;0.011282;0.0;0.0;0.0;0.0;0.0;0.0
1.0;1753875188.815189;16.318588;1.02;-1.67;0.17;0.77457;-0.660855;0.012924;0.0;0.0;0.0;0.0;0.0;0.0
1.0;1753875188.819786;16.427368;1.03;-1.71;0.09;0.771455;-0.661051;0.012703;0.0;0.0;0.0;0.0;0.0;0.0
1.0;1753875188.824383;16.351095;1.07;-1.72;0.09;0.773537;-0.661806;0.011868;0.0;0.0;0.0;0.0;0.0;0.0
1.0;1753875188.82898;16.382721;1.12;-1.63;0.16;0.773753;-0.661876;0.013097;0.0;0.0;0.0;0.0;0.0;0.0
1.0;1753875188.833578;16.35611;1.11;-1.61;0.07;0.772572;-0.659487;0.011145;0.0;0.0;0.0;0.0;0.0;0.0
1.0;1753875188.838174;16.387682;1.09;-1.6;0.1;0.773486;-0.661225;0.012778;0.0;0.0;0.0;0.0;0.0;0.0
1.0;1753875188.842772;16.317893;1.14;-1.58;0.11;0.772542;-0.660699;0.012582;0.0;0.0;0.0;0.0;0.0;0.0
1.0;1753875188.847369;16.358077;1.06;-1.55;0.09;0.7727;-0.660741;0.012705;0.0;0.0;0.0;0.0;0.0;0.0
1.0;1753875188.851966;16.351602;1.07;-1.47;0.11;0.772938;-0.660176;0.013768;0.0;0.0;0.0;0.0;0.0;0.0
1.0;1753875188.856563;16.369843;1.12;-1.63;0.08;0.773256;-0.659468;0.01292;0.0;0.0;0.0;0.0;0.0;0.0
1.0;1753875188.86116;16.388899;1.13;-1.49;0.19;0.77366;-0.661325;0.013232;0.0;0.0;0.0;0.0;0.0;0.0
1.0;1753875188.865758;16.34836;1.06;-1.49;0.09;0.772861;-0.660852;0.013079;0.0;0.0;0.0;0.0;0.0;0.0
1.0;1753875188.87283;16.375;1.12;-1.54;0.14;0.773114;-0.661118;0.012322;0.0;0.0;0.0;0.0;0.0;0.0
1.0;1753875188.877427;16.34551;1.14;-1.56;0.06;0.774113;-0.661411;0.010307;0.0;0.0;0.0;0.0;0.0;0.0
1.0;1753875188.882024;16.35376;1.09;-1.54;0.01;0.77344;-0.661805;0.011632;0.0;0.0;0.0;0.0;0.0;0.0
1.0;1753875188.88807;16.421875;1.12;-1.54;0.0;0.772992;-0.660264;0.011346;0.0;0.0;0.0;0.0;0.0;0.0
1.0;1753875188.892667;16.477091;1.04;-1.49;-0.0;0.772682;-0.659519;0.010141;0.0;0.0;0.0;0.0;0.0;0.0
1.0;1753875188.897264;16.411377;1.13;-1.56;0.04;0.772219;-0.66086;0.010375;0.0;0.0;0.0;0.0;0.0;0.0
1.0;1753875188.901862;16.41995;1.01;-1.54;-0.0;0.773874;-0.662325;0.010821;0.0;0.0;0.0;0.0;0.0;0.0
1.0;1753875188.906459;16.477297;1.11;-1.48;0.09;0.774077;-0.65986;0.012299;0.0;0.0;0.0;0.0;0.0;0.0
1.0;1753875188.911056;16.486369;1.19;-1.56;0.07;0.773169;-0.661781;0.011908;0.0;0.0;0.0;0.0;0.0;0.0
1.0;1753875188.915653;16.423946;1.0;-1.63;0.03;0.773782;-0.660768;0.012093;0.0;0.0;0.0;0.0;0.0;0.0
1.0;1753875188.92025;16.38552;1.06;-1.63;-0.05;0.774177;-0.660278;0.013087;0.0;0.0;0.0;0.0;0.0;0.0
1.0;1753875188.924848;16.400227;1.11;-1.73;0.08;0.773679;-0.659786;0.012397;0.0;0.0;0.0;0.0;0.0;0.0
1.0;1753875188.929445;16.417728;1.14;-1.71;0.03;0.774229;-0.661468;0.011657;0.0;0.0;0.0;0.0;0.0;0.0
1.0;1753875188.93377;16.421875;1.05;-1.61;0.0;0.774212;-0.660508;0.013054;0.0;0.0;0.0;0.0;0.0;0.0
1.0;1753875188.938367;16.427291;1.04;-1.57;-0.1;0.773424;-0.662265;0.012972;0.0;0.0;0.0;0.0;0.0;0.0
1.0;1753875188.942964;16.396571;1.04;-1.65;-0.07;0.773256;-0.659399;0.015019;0.0;0.0;0.0;0.0;0.0;0.0
1.0;1753875188.947562;16.455916;1.04;-1.52;0.02;0.774443;-0.659913;0.013763;0.0;0.0;0.0;0.0;0.0;0.0
1.0;1753875188.952159;16.401965;1.03;-1.62;0.01;0.774062;-0.660005;0.013329;0.0;0.0;0.0;0.0;0.0;0.0
1.0;1753875188.956756;16.411826;1.17;-1.58;0.04;0.772961;-0.661085;0.014391;0.0;0.0;0.0;0.0;0.0;0.0
1.0;1753875188.961353;16.439889;1.15;-1.64;0.04;0.773;-0.661371;0.014537;0.0;0.0;0.0;0.0;0.0;0.0
1.0;1753875188.96595;16.455696;1.12;-1.68;-0.13;0.773323;-0.662188;0.012545;0.0;0.0;0.0;0.0;0.0;0.0
1.0;1753875188.970548;16.414912;1.1;-1.54;0.1;0.773178;-0.660604;0.012374;0.0;0.0;0.0;0.0;0.0;0.0
1.0;1753875188.975144;16.380563;1.11;-1.57;0.05;0.771571;-0.660481;0.012484;0.0;0.0;0.0;0.0;0.0;0.0
1.0;1753875188.979742;16.401579;1.06;-1.64;0.09;0.771058;-0.66121;0.013367;0.0;0.0;0.0;0.0;0.0;0.0
1.0;1753875188.984339;16.425077;1.07;-1.68;0.04;0.771877;-0.660949;0.012763;0.0;0.0;0.0;0.0;0.0;0.0
1.0;1753875188.98865;16.421875;1.12;-1.61;0.07;0.771894;-0.66063;0.012688;0.0;0.0;0.0;0.0;0.0;0.0
1.0;1753875188.989655;16.445312;1.12;-1.61;0.21;0.773968;-0.660874;0.013908;0.0;0.0;0.0;0.0;0.0;0.0
1.0;1753875188.997985;16.445312;1.19;-1.68;0.14;0.773968;-0.660508;0.011834;0.0;0.0;0.0;0.0;0.0;0.0
1.0;1753875188.998745;16.445312;1.19;-1.68;0.21;0.773724;-0.660386;0.012932;0.0;0.0;0.0;0.0;0.0;0.0
1.0;1753875189.003342;16.404428;1.3;-1.8;0.25;0.774143;-0.659607;0.013523;0.0;0.0;0.0;0.0;0.0;0.0
1.0;1753875189.007939;16.424761;1.13;-1.66;0.22;0.772818;-0.65993;0.011049;0.0;0.0;0.0;0.0;0.0;0.0
1.0;1753875189.012536;16.430004;1.09;-1.68;0.11;0.77529;-0.661061;0.013452;0.0;0.0;0.0;0.0;0.0;0.0
1.0;1753875189.017134;16.428734;1.15;-1.71;0.2;0.773311;-0.660133;0.013154;0.0;0.0;0.0;0.0;0.0;0.0
1.0;1753875189.021731;16.492308;1.18;-1.65;0.27;0.772806;-0.660165;0.012228;0.0;0.0;0.0;0.0;0.0;0.0
1.0;1753875189.026328;16.403939;1.2;-1.73;0.24;0.773059;-0.660248;0.013899;0.0;0.0;0.0;0.0;0.0;0.0
1.0;1753875189.030925;16.448654;1.19;-1.65;0.25;0.774;-0.659608;0.01369;0.0;0.0;0.0;0.0;0.0;0.0
1.0;1753875189.035522;16.428043;1.11;-1.74;0.25;0.773311;-0.660074;0.010536;0.0;0.0;0.0;0.0;0.0;0.0
1.0;1753875189.04012;16.452161;1.06;-1.56;0.2;0.774931;-0.66165;0.012293;0.0;0.0;0.0;0.0;0.0;0.0
1.0;1753875189.044717;16.406756;1.08;-1.75;0.2;0.77284;-0.660672;0.013567;0.0;0.0;0.0;0.0;0.0;0.0
1.0;1753875189.049314;16.469129;1.08;-1.76;0.26;0.774132;-0.661328;0.011902;0.0;0.0;0.0;0.0;0.0;0.0
1.0;1753875189.053911;16.411577;1.26;-1.74;0.16;0.772527;-0.659411;0.011307;0.0;0.0;0.0;0.0;0.0;0.0
1.0;1753875189.058508;16.426029;1.09;-1.68;0.25;0.772755;-0.661775;0.012165;0.0;0.0;0.0;0.0;0.0;0.0
1.0;1753875189.063106;16.419274;1.16;-1.72;0.24;0.773958;-0.661208;0.012564;0.0;0.0;0.0;0.0;0.0;0.0
1.0;1753875189.067703;16.411534;1.15;-1.65;0.18;0.774971;-0.660362;0.013844;0.0;0.0;0.0;0.0;0.0;0.0
1.0;1753875189.0723;16.452995;1.15;-1.81;0.22;0.774373;-0.660597;0.013721;0.0;0.0;0.0;0.0;0.0;0.0
1.0;1753875189.076897;16.411795;1.14;-1.58;0.24;0.773801;-0.66023;0.013478;0.0;0.0;0.0;0.0;0.0;0.0
1.0;1753875189.081494;16.418293;1.21;-1.75;0.17;0.775112;-0.66008;0.012134;0.0;0.0;0.0;0.0;0.0;0.0
1.0;1753875189.086092;16.404863;1.15;-1.53;0.27;0.774293;-0.660285;0.011718;0.0;0.0;0.0;0.0;0.0;0.0
1.0;1753875189.090689;16.451219;1.18;-1.64;0.2;0.774692;-0.660923;0.012965;0.0;0.0;0.0;0.0;0.0;0.0
1.0;1753875189.095286;16.48037;1.07;-1.64;0.16;0.774934;-0.65963;0.013326;0.0;0.0;0.0;0.0;0.0;0.0
1.0;1753875189.099883;16.458538;1.22;-1.65;0.27;0.774051;-0.66074;0.012595;0.0;0.0;0.0;0.0;0.0;0.0
1.0;1753875189.10448;16.418654;1.11;-1.69;0.22;0.773626;-0.661886;0.012779;0.0;0.0;0.0;0.0;0.0;0.0
1.0;1753875189.109078;16.482738;1.07;-1.58;0.17;0.773138;-0.659029;0.012178;0.0;0.0;0.0;0.0;0.0;0.0
1.0;1753875189.113675;16.46562;1.25;-1.61;0.22;0.773772;-0.660898;0.012871;0.0;0.0;0.0;0.0;0.0;0.0
1.0;1753875189.118272;16.430374;1.1;-1.69;0.18;0.77154;-0.660665;0.012015;0.0;0.0;0.0;0.0;0.0;0.0
1.0;1753875189.122869;16.448354;1.29;-1.79;0.33;0.773184;-0.660082;0.013133;0.0;0.0;0.0;0.0;0.0;0.0
1.0;1753875189.127466;16.501679;1.02;-1.53;0.24;0.774008;-0.660442;0.012937;0.0;0.0;0.0;0.0;0.0;0.0
1.0;1753875189.132064;16.472142;1.13;-1.65;0.23;0.77302;-0.659939;0.013014;0.0;0.0;0.0;0.0;0.0;0.0
1.0;1753875189.13666;16.497017;1.14;-1.68;0.16;0.773777;-0.660114;0.011727;0.0;0.0;0.0;0.0;0.0;0.0
1.0;1753875189.141258;16.442912;1.2;-1.6;0.22;0.773466;-0.660483;0.010298;0.0;0.0;0.0;0.0;0.0;0.0
1.0;1753875189.145855;16.444102;0.93;-1.67;0.16;0.7727;-0.660668;0.012266;0.0;0.0;0.0;0.0;0.0;0.0
1.0;1753875189.150452;16.497762;1.11;-1.67;0.17;0.774327;-0.661192;0.0134;0.0;0.0;0.0;0.0;0.0;0.0
1.0;1753875189.155049;16.460198;1.21;-1.56;0.09;0.77359;-0.659699;0.010815;0.0;0.0;0.0;0.0;0.0;0.0
1.0;1753875189.159646;16.387978;1.05;-1.63;0.22;0.772488;-0.660783;0.012041;0.0;0.0;0.0;0.0;0.0;0.0
1.0;1753875189.164244;16.4341;0.99;-1.62;0.23;0.773961;-0.660247;0.012219;0.0;0.0;0.0;0.0;0.0;0.0
1.0;1753875189.168841;16.491476;1.11;-1.72;0.05;0.773198;-0.660183;0.011612;0.0;0.0;0.0;0.0;0.0;0.0
1.0;1753875189.173438;16.430893;1.1;-1.71;0.18;0.772688;-0.660542;0.01368;0.0;0.0;0.0;0.0;0.0;0.0
1.0;1753875189.178035;16.378023;1.03;-1.52;0.2;0.772409;-0.660667;0.013014;0.0;0.0;0.0;0.0;0.0;0.0
1.0;1753875189.182632;16.469274;1.08;-1.63;0.27;0.773098;-0.661877;0.013072;0.0;0.0;0.0;0.0;0.0;0.0
1.0;1753875189.18723;16.473524;1.32;-1.61;0.26;0.773919;-0.660285;0.013212;0.0;0.0;0.0;0.0;0.0;0.0
1.0;1753875189.191827;16.463266;1.08;-1.57;0.26;0.77471;-0.660784;0.012488;0.0;0.0;0.0;0.0;0.0;0.0
1.0;1753875189.196424;16.370296;1.14;-1.59;0.2;0.773325;-0.660544;0.011353;0.0;0.0;0.0;0.0;0.0;0.0
1.0;1753875189.201021;16.401214;1.13;-1.48;0.14;0.77287;-0.659786;0.012595;0.0;0.0;0.0;0.0;0.0;0.0
1.0;1753875189.205618;16.422997;1.04;-1.54;0.14;0.772694;-0.6613;0.012371;0.0;0.0;0.0;0.0;0.0;0.0
1.0;1753875189.210216;16.47781;1.05;-1.66;0.21;0.773094;-0.659959;0.013162;0.0;0.0;0.0;0.0;0.0;0.0
1.0;1753875189.214813;16.434667;1.07;-1.6;0.28;0.774063;-0.659962;0.011613;0.0;0.0;0.0;0.0;0.0;0.0
1.0;1753875189.21941;16.48516;1.04;-1.66;0.05;0.774269;-0.659623;0.012497;0.0;0.0;0.0;0.0;0.0;0.0
1.0;1753875189.224007;16.405122;1.17;-1.78;0.1;0.772794;-0.659912;0.012469;0.0;0.0;0.0;0.0;0.0;0.0
1.0;1753875189.228604;16.442855;1.09;-1.68;0.16;0.773019;-0.659633;0.012886;0.0;0.0;0.0;0.0;0.0;0.0
1.0;1753875189.233202;16.41981;1.14;-1.62;0.13;0.774566;-0.660485;0.012219;0.0;0.0;0.0;0.0;0.0;0.0
1.0;1753875189.237799;16.410571;1.18;-1.54;0.29;0.77338;-0.661008;0.012396;0.0;0.0;0.0;0.0;0.0;0.0
1.0;1753875189.242396;16.411645;1.0;-1.66;0.1;0.773764;-0.661017;0.010919;0.0;0.0;0.0;0.0;0.0;0.0
1.0;1753875189.246993;16.424952;1.13;-1.73;0.12;0.772959;-0.660511;0.010679;0.0;0.0;0.0;0.0;0.0;0.0
1.0;1753875189.25159;16.396735;1.1;-1.6;0.13;0.772871;-0.660143;0.011202;0.0;0.0;0.0;0.0;0.0;0.0
1.0;1753875189.256188;16.463691;1.05;-1.64;0.12;0.772984;-0.661074;0.012943;0.0;0.0;0.0;0.0;0.0;0.0
1.0;1753875189.260785;16.410363;1.15;-1.65;0.3;0.773596;-0.659966;0.012871;0.0;0.0;0.0;0.0;0.0;0.0
1.0;1753875189.265382;16.432218;1.05;-1.54;0.19;0.772289;-0.660359;0.012789;0.0;0.0;0.0;0.0;0.0;0.0
1.0;1753875189.269979;16.388669;1.02;-1.77;0.08;0.77194;-0.659383;0.012603;0.0;0.0;0.0;0.0;0.0;0.0
1.0;1753875189.274576;16.40106;1.15;-1.7;0.18;0.773021;-0.660907;0.012563;0.0;0.0;0.0;0.0;0.0;0.0
1.0;1753875189.279173;16.441155;1.12;-1.83;0.09;0.77334;-0.66034;0.013854;0.0;0.0;0.0;0.0;0.0;0.0
1.0;1753875189.28377;16.410602;1.07;-1.57;0.2;0.773417;-0.660503;0.011871;0.0;0.0;0.0;0.0;0.0;0.0
1.0;1753875189.288368;16.433948;0.95;-1.7;0.14;0.772062;-0.659952;0.012128;0.0;0.0;0.0;0.0;0.0;0.0
1.0;1753875189.292965;16.42038;1.08;-1.7;0.06;0.772412;-0.660114;0.012989;0.0;0.0;0.0;0.0;0.0;0.0
1.0;1753875189.297562;16.432183;1.05;-1.72;0.25;0.772902;-0.661201;0.012687;0.0;0.0;0.0;0.0;0.0;0.0
1.0;1753875189.302159;16.435445;1.05;-1.68;0.11;0.772149;-0.661256;0.014224;0.0;0.0;0.0;0.0;0.0;0.0
1.0;1753875189.306756;16.435042;1.02;-1.58;0.26;0.773529;-0.660642;0.011426;0.0;0.0;0.0;0.0;0.0;0.0
1.0;1753875189.311354;16.413925;1.13;-1.62;0.19;0.771373;-0.661005;0.012094;0.0;0.0;0.0;0.0;0.0;0.0
1.0;1753875189.315951;16.453412;1.02;-1.61;0.17;0.773231;-0.660936;0.012179;0.0;0.0;0.0;0.0;0.0;0.0
1.0;1753875189.320548;16.445136;1.07;-1.82;0.13;0.773733;-0.661226;0.011732;0.0;0.0;0.0;0.0;0.0;0.0
1.0;1753875189.325145;16.464691;0.97;-1.44;0.2;0.772841;-0.65965;0.012499;0.0;0.0;0.0;0.0;0.0;0.0
1.0;1753875189.329742;16.395858;1.08;-1.83;0.21;0.773102;-0.659669;0.012825;0.0;0.0;0.0;0.0;0.0;0.0
1.0;1753875189.33434;16.426562;1.05;-1.59;0.17;0.774045;-0.659597;0.012539;0.0;0.0;0.0;0.0;0.0;0.0
1.0;1753875189.338937;16.384808;0.99;-1.47;0.23;0.773781;-0.661349;0.011002;0.0;0.0;0.0;0.0;0.0;0.0
1.0;1753875189.343534;16.412238;0.98;-1.54;0.06;0.773284;-0.660956;0.012899;0.0;0.0;0.0;0.0;0.0;0.0
1.0;1753875189.348131;16.414647;1.08;-1.51;0.12;0.77224;-0.659446;0.01346;0.0;0.0;0.0;0.0;0.0;0.0
1.0;1753875189.352728;16.418034;0.99;-1.43;0.1;0.770527;-0.660242;0.011487;0.0;0.0;0.0;0.0;0.0;0.0
1.0;1753875189.357326;16.451203;1.08;-1.77;0.17;0.77276;-0.659793;0.01183;0.0;0.0;0.0;0.0;0.0;0.0
1.0;1753875189.361923;16.437056;0.95;-1.63;0.13;0.772814;-0.660648;0.012775;0.0;0.0;0.0;0.0;0.0;0.0
1.0;1753875189.36652;16.425165;1.06;-1.64;0.18;0.772566;-0.659699;0.012272;0.0;0.0;0.0;0.0;0.0;0.0
1.0;1753875189.371117;16.502069;0.98;-1.62;0.1;0.770746;-0.660932;0.011528;0.0;0.0;0.0;0.0;0.0;0.0
1.0;1753875189.375714;16.433114;1.09;-1.67;0.21;0.773647;-0.660669;0.011608;0.0;0.0;0.0;0.0;0.0;0.0
1.0;1753875189.380312;16.437301;0.96;-1.47;0.17;0.773583;-0.660074;0.012443;0.0;0.0;0.0;0.0;0.0;0.0
1.0;1753875189.384909;16.465769;1.07;-1.78;0.16;0.772383;-0.660547;0.012788;0.0;0.0;0.0;0.0;0.0;0.0
1.0;1753875189.389506;16.391607;1.04;-1.59;0.09;0.774856;-0.661157;0.01246;0.0;0.0;0.0;0.0;0.0;0.0
1.0;1753875189.394103;16.429742;0.99;-1.53;0.16;0.772052;-0.658771;0.012139;0.0;0.0;0.0;0.0;0.0;0.0
1.0;1753875189.3987;16.423052;1.08;-1.68;0.08;0.774028;-0.659896;0.011845;0.0;0.0;0.0;0.0;0.0;0.0
1.0;1753875189.403298;16.354965;0.97;-1.71;0.23;0.772535;-0.660412;0.012101;0.0;0.0;0.0;0.0;0.0;0.0
1.0;1753875189.407894;16.433183;1.03;-1.62;0.28;0.773488;-0.659646;0.010894;0.0;0.0;0.0;0.0;0.0;0.0
1.0;1753875189.412492;16.440908;0.99;-1.55;0.2;0.77481;-0.660699;0.011391;0.0;0.0;0.0;0.0;0.0;0.0
1.0;1753875189.417089;16.482865;1.02;-1.54;0.09;0.773507;-0.660237;0.010451;0.0;0.0;0.0;0.0;0.0;0.0
1.0;1753875189.421686;16.467265;0.94;-1.6;0.1;0.770856;-0.660638;0.012216;0.0;0.0;0.0;0.0;0.0;0.0
1.0;1753875189.426283;16.455304;0.97;-1.77;0.22;0.770494;-0.661141;0.010743;0.0;0.0;0.0;0.0;0.0;0.0
1.0;1753875189.43088;16.446166;1.01;-1.57;0.24;0.771866;-0.661098;0.011288;0.0;0.0;0.0;0.0;0.0;0.0
1.0;1753875189.435478;16.456937;0.98;-1.56;0.09;0.774282;-0.659562;0.011226;0.0;0.0;0.0;0.0;0.0;0.0
1.0;1753875189.440075;16.405359;1.0;-1.6;0.16;0.774202;-0.660355;0.011837;0.0;0.0;0.0;0.0;0.0;0.0
1.0;1753875189.444672;16.449673;0.89;-1.7;0.1;0.77166;-0.662293;0.011004;0.0;0.0;0.0;0.0;0.0;0.0
1.0;1753875189.449269;16.402444;1.03;-1.52;0.03;0.772294;-0.660982;0.013004;0.0;0.0;0.0;0.0;0.0;0.0
1.0;1753875189.4564;16.425781;0.98;-1.61;0.14;0.77287;-0.660264;0.011834;0.0;0.0;0.0;0.0;0.0;0.0
1.0;1753875189.460997;16.402637;1.01;-1.64;0.13;0.771113;-0.660466;0.012262;0.0;0.0;0.0;0.0;0.0;0.0
1.0;1753875189.465594;16.471127;0.97;-1.59;0.18;0.772493;-0.661028;0.012075;0.0;0.0;0.0;0.0;0.0;0.0
1.0;1753875189.470192;16.416164;0.95;-1.55;0.03;0.771971;-0.660792;0.012273;0.0;0.0;0.0;0.0;0.0;0.0
1.0;1753875189.474789;16.441395;1.05;-1.68;0.13;0.773642;-0.660715;0.012331;0.0;0.0;0.0;0.0;0.0;0.0
1.0;1753875189.479386;16.429856;0.98;-1.64;0.09;0.773214;-0.661271;0.010731;0.0;0.0;0.0;0.0;0.0;0.0
1.0;1753875189.483983;16.449164;0.96;-1.71;0.09;0.770326;-0.661556;0.013275;0.0;0.0;0.0;0.0;0.0;0.0
1.0;1753875189.48858;16.441186;0.97;-1.53;0.08;0.773086;-0.660774;0.01175;0.0;0.0;0.0;0.0;0.0;0.0
1.0;1753875189.493178;16.402633;0.99;-1.56;0.03;0.772961;-0.662195;0.011128;0.0;0.0;0.0;0.0;0.0;0.0
1.0;1753875189.497774;16.417208;0.95;-1.69;0.14;0.774721;-0.659702;0.010777;0.0;0.0;0.0;0.0;0.0;0.0
1.0;1753875189.502372;16.412961;0.93;-1.6;0.01;0.772638;-0.659383;0.011362;0.0;0.0;0.0;0.0;0.0;0.0
1.0;1753875189.506969;16.387726;0.96;-1.54;0.09;0.772332;-0.659676;0.010844;0.0;0.0;0.0;0.0;0.0;0.0
1.0;1753875189.511566;16.413679;1.09;-1.62;0.19;0.772825;-0.660061;0.011797;0.0;0.0;0.0;0.0;0.0;0.0
1.0;1753875189.516163;16.440686;0.9;-1.49;0.14;0.771595;-0.660712;0.011399;0.0;0.0;0.0;0.0;0.0;0.0
1.0;1753875189.52076;16.433095;0.94;-1.53;0.18;0.773904;-0.65941;0.011873;0.0;0.0;0.0;0.0;0.0;0.0
1.0;1753875189.525358;16.44284;0.87;-1.52;0.15;0.773599;-0.660769;0.011198;0.0;0.0;0.0;0.0;0.0;0.0
1.0;1753875189.529955;16.387169;1.03;-1.65;0.19;0.773912;-0.661067;0.012404;0.0;0.0;0.0;0.0;0.0;0.0
1.0;1753875189.534552;16.450768;0.85;-1.69;0.19;0.772862;-0.660924;0.010522;0.0;0.0;0.0;0.0;0.0;0.0
1.0;1753875189.539149;16.414737;1.02;-1.7;0.08;0.772698;-0.659675;0.01137;0.0;0.0;0.0;0.0;0.0;0.0
1.0;1753875189.543746;16.457638;1.06;-1.72;0.07;0.775274;-0.658773;0.011888;0.0;0.0;0.0;0.0;0.0;0.0
1.0;1753875189.548344;16.404942;0.92;-1.6;0.11;0.774885;-0.660241;0.013701;0.0;0.0;0.0;0.0;0.0;0.0
1.0;1753875189.552941;16.421199;1.0;-1.62;0.11;0.773682;-0.661217;0.012061;0.0;0.0;0.0;0.0;0.0;0.0
1.0;1753875189.557538;16.436548;0.95;-1.45;0.07;0.773822;-0.660143;0.012096;0.0;0.0;0.0;0.0;0.0;0.0
1.0;1753875189.562135;16.428889;0.93;-1.53;0.11;0.774274;-0.660076;0.011223;0.0;0.0;0.0;0.0;0.0;0.0
1.0;1753875189.566732;16.416067;0.99;-1.77;0.14;0.773236;-0.660883;0.012024;0.0;0.0;0.0;0.0;0.0;0.0
1.0;1753875189.57133;16.439713;1.06;-1.72;-0.01;0.773357;-0.659793;0.012219;0.0;0.0;0.0;0.0;0.0;0.0
1.0;1753875189.575927;16.415536;0.97;-1.64;0.05;0.773489;-0.661778;0.012819;0.0;0.0;0.0;0.0;0.0;0.0
1.0;1753875189.580524;16.459262;1.0;-1.65;0.17;0.773087;-0.659776;0.010723;0.0;0.0;0.0;0.0;0.0;0.0
1.0;1753875189.585121;16.420199;0.97;-1.54;0.08;0.774385;-0.660324;0.012486;0.0;0.0;0.0;0.0;0.0;0.0
1.0;1753875189.589718;16.455346;1.02;-1.55;0.13;0.773145;-0.660895;0.012055;0.0;0.0;0.0;0.0;0.0;0.0
1.0;1753875189.594316;16.443019;1.1;-1.7;0.13;0.773466;-0.660621;0.011395;0.0;0.0;0.0;0.0;0.0;0.0
1.0;1753875189.598913;16.423892;0.98;-1.61;0.2;0.773356;-0.659684;0.012402;0.0;0.0;0.0;0.0;0.0;0.0
1.0;1753875189.60351;16.401184;1.01;-1.75;0.11;0.775292;-0.660391;0.012005;0.0;0.0;0.0;0.0;0.0;0.0
1.0;1753875189.608107;16.407797;1.11;-1.64;0.14;0.773835;-0.660886;0.011124;0.0;0.0;0.0;0.0;0.0;0.0
1.0;1753875189.612704;16.440478;0.98;-1.47;0.09;0.775858;-0.659811;0.013039;0.0;0.0;0.0;0.0;0.0;0.0
1.0;1753875189.617302;16.405236;0.98;-1.52;0.05;0.774743;-0.660341;0.011053;0.0;0.0;0.0;0.0;0.0;0.0
1.0;1753875189.621899;16.389347;1.03;-1.54;0.09;0.773493;-0.660475;0.011733;0.0;0.0;0.0;0.0;0.0;0.0
1.0;1753875189.626496;16.445586;1.07;-1.52;0.17;0.774199;-0.659769;0.012064;0.0;0.0;0.0;0.0;0.0;0.0
1.0;1753875189.631093;16.429137;0.99;-1.5;0.06;0.771805;-0.661619;0.01221;0.0;0.0;0.0;0.0;0.0;0.0
1.0;1753875189.63569;16.417254;1.03;-1.54;0.09;0.773686;-0.660838;0.0121;0.0;0.0;0.0;0.0;0.0;0.0
1.0;1753875189.640288;16.430935;0.98;-1.64;0.01;0.774314;-0.660016;0.011851;0.0;0.0;0.0;0.0;0.0;0.0
1.0;1753875189.644884;16.418792;0.97;-1.56;0.06;0.775944;-0.660013;0.012203;0.0;0.0;0.0;0.0;0.0;0.0
1.0;1753875189.649482;16.45133;0.95;-1.6;0.05;0.772446;-0.659955;0.012493;0.0;0.0;0.0;0.0;0.0;0.0
1.0;1753875189.654079;16.393097;0.99;-1.59;0.06;0.774102;-0.661188;0.011266;0.0;0.0;0.0;0.0;0.0;0.0
1.0;1753875189.658676;16.419738;1.02;-1.61;-0.01;0.773726;-0.660482;0.012141;0.0;0.0;0.0;0.0;0.0;0.0
1.0;1753875189.663273;16.425197;1.05;-1.57;0.11;0.775045;-0.660515;0.012173;0.0;0.0;0.0;0.0;0.0;0.0
1.0;1753875189.66787;16.391118;1.04;-1.7;0.13;0.774731;-0.660331;0.013551;0.0;0.0;0.0;0.0;0.0;0.0
1.0;1753875189.672468;16.411131;0.96;-1.51;0.01;0.773743;-0.661662;0.011284;0.0;0.0;0.0;0.0;0.0;0.0
1.0;1753875189.677065;16.451582;1.03;-1.55;0.04;0.772332;-0.660856;0.012274;0.0;0.0;0.0;0.0;0.0;0.0
1.0;1753875189.681662;16.424878;0.95;-1.54;0.06;0.774145;-0.660358;0.011569;0.0;0.0;0.0;0.0;0.0;0.0
1.0;1753875189.686259;16.456271;0.95;-1.63;0.2;0.773486;-0.658643;0.012819;0.0;0.0;0.0;0.0;0.0;0.0
1.0;1753875189.690856;16.439957;1.04;-1.6;0.01;0.774099;-0.659494;0.011998;0.0;0.0;0.0;0.0;0.0;0.0
1.0;1753875189.695454;16.401271;1.11;-1.52;-0.02;0.775389;-0.659286;0.011657;0.0;0.0;0.0;0.0;0.0;0.0
1.0;1753875189.700051;16.421453;1.02;-1.36;0.03;0.776015;-0.659881;0.012435;0.0;0.0;0.0;0.0;0.0;0.0
1.0;1753875189.704648;16.397094;0.98;-1.56;0.05;0.773196;-0.659796;0.012151;0.0;0.0;0.0;0.0;0.0;0.0
1.0;1753875189.709245;16.424425;1.09;-1.7;0.03;0.772867;-0.660798;0.012596;0.0;0.0;0.0;0.0;0.0;0.0
1.0;1753875189.713842;16.44335;0.94;-1.74;0.17;0.774396;-0.660991;0.011259;0.0;0.0;0.0;0.0;0.0;0.0
1.0;1753875189.71844;16.414866;1.1;-1.62;0.08;0.77303;-0.66028;0.012432;0.0;0.0;0.0;0.0;0.0;0.0
1.0;1753875189.723037;16.431476;1.05;-1.5;0.06;0.776278;-0.660698;0.013112;0.0;0.0;0.0;0.0;0.0;0.0
1.0;1753875189.727634;16.424738;1.01;-1.47;0.02;0.774213;-0.660992;0.011477;0.0;0.0;0.0;0.0;0.0;0.0
1.0;1753875189.732231;16.485003;1.01;-1.6;0.12;0.774917;-0.660387;0.011802;0.0;0.0;0.0;0.0;0.0;0.0
1.0;1753875189.736828;16.458524;1.02;-1.67;0.05;0.773064;-0.660032;0.012411;0.0;0.0;0.0;0.0;0.0;0.0
1.0;1753875189.741426;16.407686;1.05;-1.54;0.04;0.775454;-0.659703;0.013177;0.0;0.0;0.0;0.0;0.0;0.0
1.0;1753875189.746023;16.396596;1.04;-1.69;0.05;0.773266;-0.660815;0.012685;0.0;0.0;0.0;0.0;0.0;0.0
1.0;1753875189.75062;16.401432;1.01;-1.63;0.0;0.772129;-0.66049;0.01123;0.0;0.0;0.0;0.0;0.0;0.0
1.0;1753875189.755217;16.426918;0.99;-1.58;0.05;0.773738;-0.659173;0.013069;0.0;0.0;0.0;0.0;0.0;0.0
1.0;1753875189.759814;16.403036;1.0;-1.72;-0.01;0.772162;-0.660646;0.012286;0.0;0.0;0.0;0.0;0.0;0.0
1.0;1753875189.764412;16.412847;1.01;-1.67;-0.12;0.773776;-0.659305;0.011753;0.0;0.0;0.0;0.0;0.0;0.0
1.0;1753875189.769009;16.423069;1.03;-1.58;0.04;0.774007;-0.660455;0.012104;0.0;0.0;0.0;0.0;0.0;0.0
1.0;1753875189.773606;16.438459;1.01;-1.62;-0.03;0.774362;-0.660507;0.012725;0.0;0.0;0.0;0.0;0.0;0.0
1.0;1753875189.778203;16.41226;1.08;-1.65;-0.03;0.774105;-0.660762;0.011651;0.0;0.0;0.0;0.0;0.0;0.0
1.0;1753875189.7828;16.470802;1.09;-1.48;-0.03;0.773745;-0.661246;0.013573;0.0;0.0;0.0;0.0;0.0;0.0
1.0;1753875189.787398;16.431327;1.04;-1.64;0.07;0.774265;-0.660135;0.013051;0.0;0.0;0.0;0.0;0.0;0.0
1.0;1753875189.791994;16.4424;1.1;-1.77;0.08;0.774813;-0.661078;0.012944;0.0;0.0;0.0;0.0;0.0;0.0
1.0;1753875189.796592;16.431442;1.08;-1.68;0.08;0.773402;-0.660191;0.012168;0.0;0.0;0.0;0.0;0.0;0.0
1.0;1753875189.801189;16.45895;1.03;-1.45;0.03;0.773954;-0.660947;0.012251;0.0;0.0;0.0;0.0;0.0;0.0
1.0;1753875189.805786;16.396147;0.95;-1.59;0.06;0.772372;-0.661442;0.011345;0.0;0.0;0.0;0.0;0.0;0.0
1.0;1753875189.810383;16.435348;0.98;-1.46;0.07;0.774884;-0.659997;0.011677;0.0;0.0;0.0;0.0;0.0;0.0
1.0;1753875189.81498;16.434244;1.02;-1.64;-0.02;0.774755;-0.661119;0.011976;0.0;0.0;0.0;0.0;0.0;0.0
1.0;1753875189.819578;16.443802;1.02;-1.53;0.05;0.774484;-0.661486;0.012609;0.0;0.0;0.0;0.0;0.0;0.0
1.0;1753875189.824175;16.420881;1.02;-1.51;0.07;0.775888;-0.659092;0.013172;0.0;0.0;0.0;0.0;0.0;0.0
1.0;1753875189.828772;16.393577;1.02;-1.68;-0.06;0.776318;-0.661056;0.013646;0.0;0.0;0.0;0.0;0.0;0.0
1.0;1753875189.833369;16.447825;1.1;-1.66;-0.03;0.774957;-0.660185;0.012737;0.0;0.0;0.0;0.0;0.0;0.0
1.0;1753875189.837966;16.470826;1.06;-1.55;0.0;0.774399;-0.660351;0.012076;0.0;0.0;0.0;0.0;0.0;0.0
1.0;1753875189.842564;16.417725;1.1;-1.53;-0.11;0.774474;-0.660952;0.013445;0.0;0.0;0.0;0.0;0.0;0.0
1.0;1753875189.847161;16.406435;1.06;-1.63;-0.03;0.772486;-0.659378;0.011489;0.0;0.0;0.0;0.0;0.0;0.0
1.0;1753875189.8516;16.425781;1.05;-1.61;0.0;0.774578;-0.660508;0.012444;0.0;0.0;0.0;0.0;0.0;0.0
1.0;1753875189.85679;16.4375;0.98;-1.75;0.14;0.77348;-0.6588;0.012688;0.0;0.0;0.0;0.0;0.0;0.0
1.0;1753875189.861387;16.441867;0.99;-1.59;0.12;0.773228;-0.657803;0.012855;0.0;0.0;0.0;0.0;0.0;0.0
1.0;1753875189.865984;16.43426;0.94;-1.67;0.17;0.774761;-0.659526;0.012405;0.0;0.0;0.0;0.0;0.0;0.0
1.0;1753875189.870582;16.439554;0.97;-1.8;0.15;0.772868;-0.658705;0.013646;0.0;0.0;0.0;0.0;0.0;0.0
1.0;1753875189.875179;16.444345;1.03;-1.67;0.19;0.772298;-0.659703;0.012052;0.0;0.0;0.0;0.0;0.0;0.0
1.0;1753875189.879776;16.417658;1.16;-1.64;0.11;0.772617;-0.660242;0.01289;0.0;0.0;0.0;0.0;0.0;0.0
1.0;1753875189.884373;16.444654;0.91;-1.61;0.12;0.772747;-0.659007;0.012292;0.0;0.0;0.0;0.0;0.0;0.0
1.0;1753875189.88897;16.44118;0.92;-1.66;0.17;0.773433;-0.659326;0.013268;0.0;0.0;0.0;0.0;0.0;0.0
1.0;1753875189.893568;16.442288;0.9;-1.66;0.1;0.774467;-0.658932;0.012486;0.0;0.0;0.0;0.0;0.0;0.0
1.0;1753875189.898165;16.431678;1.0;-1.75;0.12;0.771517;-0.660628;0.012554;0.0;0.0;0.0;0.0;0.0;0.0
1.0;1753875189.902762;16.432005;1.02;-1.71;0.16;0.773879;-0.658778;0.013312;0.0;0.0;0.0;0.0;0.0;0.0
1.0;1753875189.907359;16.46411;1.02;-1.61;0.24;0.771968;-0.658955;0.013367;0.0;0.0;0.0;0.0;0.0;0.0
1.0;1753875189.911956;16.455869;1.08;-1.54;0.14;0.77197;-0.659518;0.012577;0.0;0.0;0.0;0.0;0.0;0.0
1.0;1753875189.916554;16.440878;1.02;-1.71;0.14;0.774109;-0.659838;0.012934;0.0;0.0;0.0;0.0;0.0;0.0
1.0;1753875189.921151;16.449078;0.91;-1.54;0.14;0.771414;-0.661284;0.013012;0.0;0.0;0.0;0.0;0.0;0.0
1.0;1753875189.925748;16.434086;1.0;-1.56;0.14;0.772789;-0.660573;0.012768;0.0;0.0;0.0;0.0;0.0;0.0
1.0;1753875189.930345;16.447884;0.89;-1.55;0.17;0.772789;-0.661153;0.012635;0.0;0.0;0.0;0.0;0.0;0.0
1.0;1753875189.934942;16.422952;1.01;-1.76;0.13;0.772272;-0.660186;0.012931;0.0;0.0;0.0;0.0;0.0;0.0
1.0;1753875189.93954;16.442044;0.92;-1.52;0.12;0.772028;-0.660343;0.012947;0.0;0.0;0.0;0.0;0.0;0.0
1.0;1753875189.94373;16.4375;0.98;-1.61;0.14;0.772992;-0.660996;0.012688;0.0;0.0;0.0;0.0;0.0;0.0
1.0;1753875189.94773;16.417969;1.05;-1.68;0.14;0.772626;-0.660752;0.012688;0.0;0.0;0.0;0.0;0.0;0.0
1.0;1753875189.952327;16.432453;1.11;-1.55;0.11;0.772721;-0.660145;0.012859;0.0;0.0;0.0;0.0;0.0;0.0
1.0;1753875189.956924;16.400126;1.01;-1.69;0.14;0.774054;-0.662;0.012309;0.0;0.0;0.0;0.0;0.0;0.0
1.0;1753875189.961522;16.418996;1.22;-1.76;0.13;0.772302;-0.660341;0.012019;0.0;0.0;0.0;0.0;0.0;0.0
1.0;1753875189.966119;16.417152;1.02;-1.74;0.06;0.773587;-0.660759;0.01174;0.0;0.0;0.0;0.0;0.0;0.0
1.0;1753875189.970716;16.420323;1.16;-1.87;0.14;0.771884;-0.660777;0.012338;0.0;0.0;0.0;0.0;0.0;0.0
1.0;1753875189.975313;16.434192;1.06;-1.71;0.11;0.773849;-0.660062;0.011933;0.0;0.0;0.0;0.0;0.0;0.0
1.0;1753875189.97991;16.411699;1.17;-1.77;0.01;0.773628;-0.65984;0.0118;0.0;0.0;0.0;0.0;0.0;0.0
1.0;1753875189.984508;16.434374;1.15;-1.69;0.09;0.772865;-0.660386;0.012416;0.0;0.0;0.0;0.0;0.0;0.0
1.0;1753875189.989105;16.412822;1.31;-1.68;0.05;0.773068;-0.659876;0.011816;0.0;0.0;0.0;0.0;0.0;0.0
1.0;1753875189.99403;16.417969;1.12;-1.68;0.07;0.772992;-0.659654;0.011712;0.0;0.0;0.0;0.0;0.0;0.0
1.0;1753875189.998627;16.410439;1.07;-1.69;-0.01;0.771553;-0.659555;0.011016;0.0;0.0;0.0;0.0;0.0;0.0
1.0;1753875190.003224;16.423949;1.17;-1.63;0.21;0.773056;-0.660143;0.01175;0.0;0.0;0.0;0.0;0.0;0.0
1.0;1753875190.007822;16.427486;1.09;-1.7;0.04;0.772893;-0.659664;0.012136;0.0;0.0;0.0;0.0;0.0;0.0
1.0;1753875190.012419;16.380149;1.13;-1.68;0.08;0.772752;-0.661078;0.01052;0.0;0.0;0.0;0.0;0.0;0.0
1.0;1753875190.017016;16.414432;1.14;-1.72;0.11;0.773071;-0.658017;0.012501;0.0;0.0;0.0;0.0;0.0;0.0
1.0;1753875190.021613;16.399711;1.03;-1.66;0.02;0.772729;-0.660411;0.012294;0.0;0.0;0.0;0.0;0.0;0.0
1.0;1753875190.02621;16.412017;1.13;-1.62;0.11;0.772135;-0.661944;0.011255;0.0;0.0;0.0;0.0;0.0;0.0
1.0;1753875190.030808;16.42583;1.17;-1.61;0.1;0.773631;-0.659979;0.011883;0.0;0.0;0.0;0.0;0.0;0.0
1.0;1753875190.035405;16.416639;1.15;-1.68;0.03;0.774834;-0.65949;0.012598;0.0;0.0;0.0;0.0;0.0;0.0
1.0;1753875190.040002;16.41686;1.12;-1.73;0.11;0.773097;-0.660147;0.01226;0.0;0.0;0.0;0.0;0.0;0.0
1.0;1753875190.044599;16.442568;1.0;-1.77;0.04;0.773483;-0.659897;0.011012;0.0;0.0;0.0;0.0;0.0;0.0
1.0;1753875190.049196;16.35402;1.08;-1.7;0.06;0.771806;-0.65841;0.011549;0.0;0.0;0.0;0.0;0.0;0.0
1.0;1753875190.053794;16.456741;1.07;-1.61;0.02;0.77329;-0.66081;0.011607;0.0;0.0;0.0;0.0;0.0;0.0
1.0;1753875190.05839;16.440742;1.13;-1.66;0.07;0.772142;-0.661058;0.011161;0.0;0.0;0.0;0.0;0.0;0.0
1.0;1753875190.062988;16.422664;1.15;-1.74;0.03;0.772451;-0.660379;0.011308;0.0;0.0;0.0;0.0;0.0;0.0
1.0;1753875190.067585;16.459783;1.08;-1.59;0.14;0.773806;-0.660515;0.011734;0.0;0.0;0.0;0.0;0.0;0.0
1.0;1753875190.072182;16.37713;1.06;-1.72;0.12;0.773687;-0.661103;0.012155;0.0;0.0;0.0;0.0;0.0;0.0
1.0;1753875190.076779;16.457783;1.15;-1.75;0.01;0.773184;-0.660072;0.011924;0.0;0.0;0.0;0.0;0.0;0.0
1.0;1753875190.081376;16.401975;1.14;-1.7;0.01;0.771906;-0.659506;0.01199;0.0;0.0;0.0;0.0;0.0;0.0
1.0;1753875190.085974;16.444154;1.08;-1.66;0.05;0.77251;-0.659709;0.011653;0.0;0.0;0.0;0.0;0.0;0.0
1.0;1753875190.090571;16.444134;1.12;-1.67;0.12;0.772988;-0.658556;0.012445;0.0;0.0;0.0;0.0;0.0;0.0
1.0;1753875190.095168;16.421397;1.2;-1.73;0.0;0.771912;-0.660608;0.010581;0.0;0.0;0.0;0.0;0.0;0.0
1.0;1753875190.099765;16.425742;1.16;-1.69;0.05;0.773291;-0.659468;0.011558;0.0;0.0;0.0;0.0;0.0;0.0
1.0;1753875190.104362;16.440491;1.08;-1.72;0.12;0.77233;-0.659412;0.011901;0.0;0.0;0.0;0.0;0.0;0.0
1.0;1753875190.10896;16.400425;1.07;-1.59;0.08;0.773285;-0.659751;0.010906;0.0;0.0;0.0;0.0;0.0;0.0
1.0;1753875190.113557;16.431038;1.1;-1.66;0.08;0.772825;-0.657846;0.011607;0.0;0.0;0.0;0.0;0.0;0.0
1.0;1753875190.118154;16.419624;1.05;-1.73;0.11;0.772449;-0.660732;0.013311;0.0;0.0;0.0;0.0;0.0;0.0
1.0;1753875190.122751;16.429029;1.2;-1.74;0.12;0.773413;-0.661039;0.012168;0.0;0.0;0.0;0.0;0.0;0.0
1.0;1753875190.127348;16.425403;1.15;-1.69;0.11;0.773489;-0.658843;0.011728;0.0;0.0;0.0;0.0;0.0;0.0
1.0;1753875190.131946;16.434025;1.19;-1.64;0.17;0.772324;-0.66041;0.012383;0.0;0.0;0.0;0.0;0.0;0.0
1.0;1753875190.136543;16.448311;1.18;-1.77;-0.01;0.774353;-0.657999;0.012087;0.0;0.0;0.0;0.0;0.0;0.0
1.0;1753875190.14114;16.430012;1.11;-1.72;0.08;0.771343;-0.66012;0.0128;0.0;0.0;0.0;0.0;0.0;0.0
1.0;1753875190.145737;16.416235;1.13;-1.6;0.1;0.773032;-0.66045;0.011934;0.0;0.0;0.0;0.0;0.0;0.0
1.0;1753875190.150334;16.423206;1.09;-1.66;0.04;0.773222;-0.659193;0.011919;0.0;0.0;0.0;0.0;0.0;0.0
1.0;1753875190.154932;16.403253;1.2;-1.65;0.07;0.772467;-0.660549;0.011492;0.0;0.0;0.0;0.0;0.0;0.0
1.0;1753875190.159529;16.436049;1.07;-1.66;0.1;0.772531;-0.660396;0.012285;0.0;0.0;0.0;0.0;0.0;0.0
1.0;1753875190.164126;16.42203;1.06;-1.73;0.01;0.773342;-0.65944;0.012968;0.0;0.0;0.0;0.0;0.0;0.0
1.0;1753875190.168723;16.392602;1.03;-1.68;0.09;0.773732;-0.658399;0.012482;0.0;0.0;0.0;0.0;0.0;0.0
1.0;1753875190.17332;16.381358;1.21;-1.69;0.11;0.772679;-0.660141;0.012581;0.0;0.0;0.0;0.0;0.0;0.0
1.0;1753875190.177918;16.412285;1.01;-1.54;0.03;0.771876;-0.659897;0.011159;0.0;0.0;0.0;0.0;0.0;0.0
1.0;1753875190.182515;16.453389;1.05;-1.69;0.11;0.772717;-0.659302;0.012589;0.0;0.0;0.0;0.0;0.0;0.0
1.0;1753875190.187112;16.427292;1.18;-1.67;0.05;0.770786;-0.659312;0.011591;0.0;0.0;0.0;0.0;0.0;0.0
1.0;1753875190.191709;16.42183;1.06;-1.74;0.11;0.771515;-0.65917;0.012001;0.0;0.0;0.0;0.0;0.0;0.0
1.0;1753875190.196306;16.393295;1.05;-1.74;0.13;0.772574;-0.659087;0.012646;0.0;0.0;0.0;0.0;0.0;0.0
1.0;1753875190.200904;16.475875;1.07;-1.62;0.05;0.77386;-0.658838;0.0115;0.0;0.0;0.0;0.0;0.0;0.0
1.0;1753875190.2055;16.470274;1.03;-1.7;0.17;0.77287;-0.658952;0.012222;0.0;0.0;0.0;0.0;0.0;0.0
1.0;1753875190.210098;16.47088;1.19;-1.74;0.06;0.772863;-0.658943;0.012711;0.0;0.0;0.0;0.0;0.0;0.0
1.0;1753875190.214695;16.433462;1.12;-1.65;0.11;0.77161;-0.660367;0.011384;0.0;0.0;0.0;0.0;0.0;0.0
1.0;1753875190.219292;16.420358;1.17;-1.64;0.11;0.772274;-0.659682;0.013357;0.0;0.0;0.0;0.0;0.0;0.0
1.0;1753875190.223889;16.430883;1.21;-1.65;0.04;0.771511;-0.658922;0.012416;0.0;0.0;0.0;0.0;0.0;0.0
1.0;1753875190.228486;16.425126;1.15;-1.6;0.06;0.77395;-0.658044;0.012914;0.0;0.0;0.0;0.0;0.0;0.0
1.0;1753875190.233084;16.410386;1.2;-1.7;0.09;0.773488;-0.659625;0.011959;0.0;0.0;0.0;0.0;0.0;0.0
1.0;1753875190.237681;16.481855;1.21;-1.75;0.08;0.773136;-0.66032;0.012719;0.0;0.0;0.0;0.0;0.0;0.0
1.0;1753875190.242278;16.440756;1.08;-1.66;0.11;0.772103;-0.659446;0.011558;0.0;0.0;0.0;0.0;0.0;0.0
1.0;1753875190.246875;16.4528;1.11;-1.73;0.08;0.77266;-0.657865;0.011486;0.0;0.0;0.0;0.0;0.0;0.0
1.0;1753875190.251472;16.420281;1.02;-1.72;0.1;0.773592;-0.659091;0.012404;0.0;0.0;0.0;0.0;0.0;0.0
1.0;1753875190.25607;16.430854;1.22;-1.64;-0.02;0.773671;-0.65912;0.01162;0.0;0.0;0.0;0.0;0.0;0.0
1.0;1753875190.260667;16.436434;1.1;-1.72;0.14;0.773545;-0.659203;0.013296;0.0;0.0;0.0;0.0;0.0;0.0
1.0;1753875190.265264;16.445152;1.11;-1.71;0.09;0.773859;-0.659673;0.010834;0.0;0.0;0.0;0.0;0.0;0.0
1.0;1753875190.269861;16.435156;1.19;-1.65;0.1;0.77411;-0.658248;0.012632;0.0;0.0;0.0;0.0;0.0;0.0
1.0;1753875190.274458;16.459432;1.15;-1.65;0.12;0.772425;-0.658817;0.012702;0.0;0.0;0.0;0.0;0.0;0.0
1.0;1753875190.279056;16.433064;1.1;-1.61;0.16;0.773255;-0.659139;0.012378;0.0;0.0;0.0;0.0;0.0;0.0
1.0;1753875190.283653;16.467982;1.12;-1.73;0.11;0.77332;-0.659087;0.01209;0.0;0.0;0.0;0.0;0.0;0.0
1.0;1753875190.28825;16.421177;1.14;-1.72;0.06;0.772766;-0.658606;0.01254;0.0;0.0;0.0;0.0;0.0;0.0
1.0;1753875190.292847;16.428133;1.15;-1.64;0.05;0.772176;-0.659336;0.012425;0.0;0.0;0.0;0.0;0.0;0.0
1.0;1753875190.297444;16.423916;0.96;-1.68;0.06;0.774184;-0.65903;0.012803;0.0;0.0;0.0;0.0;0.0;0.0
1.0;1753875190.302042;16.462413;1.16;-1.68;0.01;0.773945;-0.659797;0.012477;0.0;0.0;0.0;0.0;0.0;0.0
1.0;1753875190.306639;16.445653;1.29;-1.73;0.15;0.77245;-0.658463;0.011643;0.0;0.0;0.0;0.0;0.0;0.0
1.0;1753875190.311236;16.438454;1.06;-1.63;0.12;0.773497;-0.660495;0.012595;0.0;0.0;0.0;0.0;0.0;0.0
1.0;1753875190.315833;16.417757;1.18;-1.66;0.08;0.772191;-0.660502;0.011268;0.0;0.0;0.0;0.0;0.0;0.0
1.0;1753875190.32043;16.444592;1.17;-1.66;0.08;0.773011;-0.658235;0.011411;0.0;0.0;0.0;0.0;0.0;0.0
1.0;1753875190.325028;16.366249;1.13;-1.65;0.15;0.773626;-0.658859;0.011849;0.0;0.0;0.0;0.0;0.0;0.0
1.0;1753875190.329625;16.431269;1.11;-1.8;0.11;0.773141;-0.659295;0.012532;0.0;0.0;0.0;0.0;0.0;0.0
1.0;1753875190.334222;16.490217;1.12;-1.63;0.1;0.772489;-0.657272;0.011755;0.0;0.0;0.0;0.0;0.0;0.0
1.0;1753875190.338819;16.500466;1.12;-1.74;0.15;0.773581;-0.658903;0.012167;0.0;0.0;0.0;0.0;0.0;0.0
1.0;1753875190.343416;16.460227;1.17;-1.72;0.08;0.772444;-0.659084;0.012525;0.0;0.0;0.0;0.0;0.0;0.0
1.0;1753875190.348014;16.427018;1.1;-1.65;0.12;0.772872;-0.659624;0.010795;0.0;0.0;0.0;0.0;0.0;0.0
1.0;1753875190.35261;16.450684;1.01;-1.66;0.13;0.773432;-0.66036;0.011945;0.0;0.0;0.0;0.0;0.0;0.0
1.0;1753875190.357208;16.439347;1.08;-1.74;0.12;0.773551;-0.65926;0.012541;0.0;0.0;0.0;0.0;0.0;0.0
1.0;1753875190.361805;16.418155;1.19;-1.68;0.09;0.773475;-0.660712;0.012256;0.0;0.0;0.0;0.0;0.0;0.0
1.0;1753875190.366402;16.444477;0.99;-1.7;0.12;0.773053;-0.658569;0.012878;0.0;0.0;0.0;0.0;0.0;0.0
1.0;1753875190.370999;16.402273;1.13;-1.64;0.19;0.771474;-0.658441;0.011563;0.0;0.0;0.0;0.0;0.0;0.0
1.0;1753875190.375596;16.46664;1.04;-1.61;0.09;0.772856;-0.658839;0.012108;0.0;0.0;0.0;0.0;0.0;0.0
1.0;1753875190.380194;16.486007;1.16;-1.76;0.17;0.773059;-0.659481;0.012263;0.0;0.0;0.0;0.0;0.0;0.0
1.0;1753875190.384791;16.458223;1.19;-1.75;0.1;0.772515;-0.659068;0.013119;0.0;0.0;0.0;0.0;0.0;0.0
1.0;1753875190.389388;16.427658;1.06;-1.72;0.04;0.773789;-0.659239;0.011326;0.0;0.0;0.0;0.0;0.0;0.0
1.0;1753875190.393985;16.453418;1.13;-1.68;0.13;0.771743;-0.659739;0.01263;0.0;0.0;0.0;0.0;0.0;0.0
1.0;1753875190.398582;16.431763;0.93;-1.67;0.16;0.772822;-0.65853;0.011474;0.0;0.0;0.0;0.0;0.0;0.0
1.0;1753875190.40318;16.404733;1.11;-1.68;0.12;0.774589;-0.658005;0.012269;0.0;0.0;0.0;0.0;0.0;0.0
1.0;1753875190.407777;16.469734;1.06;-1.69;0.21;0.774701;-0.659407;0.011711;0.0;0.0;0.0;0.0;0.0;0.0
1.0;1753875190.412374;16.400804;1.16;-1.61;0.06;0.774159;-0.658512;0.011644;0.0;0.0;0.0;0.0;0.0;0.0
1.0;1753875190.416971;16.429011;1.07;-1.64;0.05;0.773501;-0.659457;0.012037;0.0;0.0;0.0;0.0;0.0;0.0
1.0;1753875190.421568;16.469772;1.1;-1.7;0.1;0.773604;-0.657342;0.013248;0.0;0.0;0.0;0.0;0.0;0.0
1.0;1753875190.426166;16.459793;1.12;-1.64;0.07;0.774322;-0.658179;0.012976;0.0;0.0;0.0;0.0;0.0;0.0
1.0;1753875190.430763;16.463592;1.07;-1.63;0.19;0.774146;-0.661335;0.012541;0.0;0.0;0.0;0.0;0.0;0.0
1.0;1753875190.43536;16.459819;1.09;-1.6;0.05;0.77378;-0.658411;0.012285;0.0;0.0;0.0;0.0;0.0;0.0
1.0;1753875190.439957;16.468657;1.11;-1.68;0.14;0.772207;-0.65846;0.011968;0.0;0.0;0.0;0.0;0.0;0.0
1.0;1753875190.444554;16.430116;1.09;-1.61;0.16;0.772547;-0.658191;0.011658;0.0;0.0;0.0;0.0;0.0;0.0
1.0;1753875190.449152;16.512155;1.16;-1.62;0.14;0.770387;-0.660324;0.012381;0.0;0.0;0.0;0.0;0.0;0.0
1.0;1753875190.453749;16.468577;1.17;-1.56;0.13;0.772918;-0.659192;0.011977;0.0;0.0;0.0;0.0;0.0;0.0
1.0;1753875190.458346;16.47522;1.15;-1.65;0.06;0.773101;-0.658776;0.011621;0.0;0.0;0.0;0.0;0.0;0.0
1.0;1753875190.462943;16.400527;1.17;-1.71;0.12;0.772856;-0.659446;0.011625;0.0;0.0;0.0;0.0;0.0;0.0
1.0;1753875190.46754;16.450814;1.15;-1.7;0.1;0.772832;-0.659743;0.011775;0.0;0.0;0.0;0.0;0.0;0.0
1.0;1753875190.472138;16.457882;1.11;-1.64;0.07;0.772913;-0.658834;0.011269;0.0;0.0;0.0;0.0;0.0;0.0
1.0;1753875190.476735;16.46728;1.17;-1.62;0.13;0.771626;-0.658796;0.012643;0.0;0.0;0.0;0.0;0.0;0.0
1.0;1753875190.481332;16.446864;1.11;-1.73;0.21;0.772946;-0.658541;0.011951;0.0;0.0;0.0;0.0;0.0;0.0
1.0;1753875190.485929;16.452208;1.16;-1.69;0.03;0.772838;-0.658105;0.012753;0.0;0.0;0.0;0.0;0.0;0.0
1.0;1753875190.490526;16.454804;1.08;-1.68;0.15;0.773683;-0.658824;0.01201;0.0;0.0;0.0;0.0;0.0;0.0
1.0;1753875190.495124;16.449503;1.12;-1.7;0.09;0.773902;-0.659454;0.013152;0.0;0.0;0.0;0.0;0.0;0.0
1.0;1753875190.49972;16.466677;1.17;-1.66;0.08;0.772302;-0.657855;0.013126;0.0;0.0;0.0;0.0;0.0;0.0
1.0;1753875190.504318;16.482249;1.22;-1.64;0.08;0.772768;-0.659697;0.012334;0.0;0.0;0.0;0.0;0.0;0.0
1.0;1753875190.508915;16.468146;1.18;-1.57;0.15;0.773722;-0.65733;0.010873;0.0;0.0;0.0;0.0;0.0;0.0
1.0;1753875190.513512;16.488196;1.03;-1.75;0.08;0.773075;-0.658834;0.012142;0.0;0.0;0.0;0.0;0.0;0.0
1.0;1753875190.518109;16.467006;1.13;-1.68;0.18;0.772866;-0.658445;0.012299;0.0;0.0;0.0;0.0;0.0;0.0
1.0;1753875190.522706;16.479815;1.14;-1.67;0.18;0.773428;-0.65828;0.012574;0.0;0.0;0.0;0.0;0.0;0.0
1.0;1753875190.527304;16.463819;1.19;-1.7;0.18;0.772579;-0.658132;0.011759;0.0;0.0;0.0;0.0;0.0;0.0
1.0;1753875190.531901;16.442884;1.13;-1.71;0.16;0.773064;-0.660229;0.011622;0.0;0.0;0.0;0.0;0.0;0.0
1.0;1753875190.536498;16.403487;1.08;-1.73;0.12;0.774553;-0.659001;0.012962;0.0;0.0;0.0;0.0;0.0;0.0
1.0;1753875190.541095;16.481269;1.05;-1.63;0.1;0.773357;-0.66034;0.011016;0.0;0.0;0.0;0.0;0.0;0.0
1.0;1753875190.545692;16.46515;1.05;-1.69;0.12;0.773332;-0.659611;0.012992;0.0;0.0;0.0;0.0;0.0;0.0
1.0;1753875190.55029;16.468066;1.12;-1.73;0.06;0.772702;-0.658705;0.012929;0.0;0.0;0.0;0.0;0.0;0.0
1.0;1753875190.554887;16.497631;1.14;-1.69;0.13;0.774222;-0.658098;0.012769;0.0;0.0;0.0;0.0;0.0;0.0
1.0;1753875190.559484;16.438082;1.05;-1.68;0.21;0.772321;-0.65848;0.012031;0.0;0.0;0.0;0.0;0.0;0.0
1.0;1753875190.564081;16.482503;1.14;-1.68;0.18;0.772514;-0.658507;0.011867;0.0;0.0;0.0;0.0;0.0;0.0
1.0;1753875190.568678;16.449226;1.11;-1.64;0.04;0.774211;-0.658016;0.012121;0.0;0.0;0.0;0.0;0.0;0.0
1.0;1753875190.573276;16.430117;1.06;-1.78;0.2;0.774396;-0.659438;0.012689;0.0;0.0;0.0;0.0;0.0;0.0
1.0;1753875190.577873;16.494722;1.06;-1.76;0.25;0.772962;-0.659479;0.012161;0.0;0.0;0.0;0.0;0.0;0.0
1.0;1753875190.58247;16.458503;1.02;-1.67;0.12;0.77387;-0.658747;0.012231;0.0;0.0;0.0;0.0;0.0;0.0
1.0;1753875190.587067;16.405068;1.24;-1.73;0.21;0.773482;-0.658253;0.012453;0.0;0.0;0.0;0.0;0.0;0.0
1.0;1753875190.591664;16.45366;1.06;-1.75;0.08;0.772359;-0.659481;0.012245;0.0;0.0;0.0;0.0;0.0;0.0
1.0;1753875190.596262;16.44949;1.21;-1.72;0.12;0.772806;-0.659913;0.011784;0.0;0.0;0.0;0.0;0.0;0.0
1.0;1753875190.600859;16.451151;1.03;-1.68;0.19;0.773255;-0.659151;0.011774;0.0;0.0;0.0;0.0;0.0;0.0
1.0;1753875190.605456;16.453121;1.14;-1.62;0.1;0.773372;-0.658724;0.012525;0.0;0.0;0.0;0.0;0.0;0.0
1.0;1753875190.610053;16.45338;0.97;-1.65;0.2;0.772832;-0.659505;0.012688;0.0;0.0;0.0;0.0;0.0;0.0
1.0;1753875190.61465;16.47344;1.11;-1.6;0.19;0.773184;-0.659366;0.012333;0.0;0.0;0.0;0.0;0.0;0.0
1.0;1753875190.619248;16.44368;1.11;-1.65;0.1;0.773083;-0.659934;0.011514;0.0;0.0;0.0;0.0;0.0;0.0
1.0;1753875190.623844;16.437394;1.09;-1.68;0.14;0.774541;-0.657586;0.012633;0.0;0.0;0.0;0.0;0.0;0.0
1.0;1753875190.628442;16.463543;1.04;-1.74;0.08;0.773431;-0.660375;0.012257;0.0;0.0;0.0;0.0;0.0;0.0
1.0;1753875190.633039;16.458288;1.14;-1.65;0.17;0.772381;-0.658429;0.012761;0.0;0.0;0.0;0.0;0.0;0.0
1.0;1753875190.637636;16.485576;1.12;-1.64;0.15;0.773754;-0.658828;0.012541;0.0;0.0;0.0;0.0;0.0;0.0
1.0;1753875190.642233;16.453711;1.13;-1.63;0.24;0.774399;-0.659352;0.012049;0.0;0.0;0.0;0.0;0.0;0.0
1.0;1753875190.64683;16.465425;1.17;-1.7;0.14;0.772469;-0.657785;0.012612;0.0;0.0;0.0;0.0;0.0;0.0
1.0;1753875190.651428;16.461942;1.06;-1.73;0.2;0.773046;-0.658636;0.013272;0.0;0.0;0.0;0.0;0.0;0.0
1.0;1753875190.656025;16.486249;1.16;-1.7;0.15;0.77384;-0.658556;0.012462;0.0;0.0;0.0;0.0;0.0;0.0
1.0;1753875190.660622;16.464234;1.16;-1.72;0.23;0.771053;-0.658572;0.012776;0.0;0.0;0.0;0.0;0.0;0.0
1.0;1753875190.665219;16.466351;1.14;-1.76;0.14;0.773424;-0.658885;0.011826;0.0;0.0;0.0;0.0;0.0;0.0
1.0;1753875190.669816;16.48319;1.13;-1.61;0.13;0.773663;-0.658457;0.01306;0.0;0.0;0.0;0.0;0.0;0.0
1.0;1753875190.674414;16.4535;1.11;-1.69;0.2;0.773323;-0.659236;0.012427;0.0;0.0;0.0;0.0;0.0;0.0
1.0;1753875190.679011;16.457565;1.25;-1.72;0.09;0.772574;-0.658553;0.01333;0.0;0.0;0.0;0.0;0.0;0.0
1.0;1753875190.683608;16.483909;1.09;-1.71;0.16;0.77262;-0.659099;0.012674;0.0;0.0;0.0;0.0;0.0;0.0
1.0;1753875190.688205;16.484187;1.03;-1.68;0.14;0.772798;-0.656703;0.013619;0.0;0.0;0.0;0.0;0.0;0.0
1.0;1753875190.694;16.46875;1.12;-1.68;0.14;0.773114;-0.658678;0.012444;0.0;0.0;0.0;0.0;0.0;0.0
1.0;1753875190.698597;16.453426;1.11;-1.77;0.06;0.772552;-0.660092;0.011979;0.0;0.0;0.0;0.0;0.0;0.0
1.0;1753875190.703194;16.419759;1.18;-1.76;0.13;0.772121;-0.65964;0.012238;0.0;0.0;0.0;0.0;0.0;0.0
1.0;1753875190.707792;16.473856;1.04;-1.9;0.09;0.773234;-0.658668;0.011161;0.0;0.0;0.0;0.0;0.0;0.0
1.0;1753875190.712389;16.421966;1.04;-1.7;0.12;0.772532;-0.660235;0.013141;0.0;0.0;0.0;0.0;0.0;0.0
1.0;1753875190.716986;16.40738;1.04;-1.75;0.06;0.772964;-0.661377;0.013791;0.0;0.0;0.0;0.0;0.0;0.0
1.0;1753875190.721583;16.417244;1.18;-1.72;0.06;0.771515;-0.660807;0.010538;0.0;0.0;0.0;0.0;0.0;0.0
1.0;1753875190.72646;16.414062;1.12;-1.82;0.07;0.771894;-0.66063;0.011956;0.0;0.0;0.0;0.0;0.0;0.0
1.0;1753875190.73327;16.414062;1.12;-1.68;0.07;0.775066;-0.659288;0.011712;0.0;0.0;0.0;0.0;0.0;0.0
1.0;1753875190.737867;16.412592;1.2;-1.65;0.05;0.77381;-0.66004;0.011635;0.0;0.0;0.0;0.0;0.0;0.0
1.0;1753875190.742464;16.425646;1.04;-1.7;0.03;0.775572;-0.657844;0.010721;0.0;0.0;0.0;0.0;0.0;0.0
1.0;1753875190.747062;16.408557;1.11;-1.67;0.07;0.774104;-0.657978;0.01271;0.0;0.0;0.0;0.0;0.0;0.0
1.0;1753875190.751659;16.402414;1.05;-1.7;0.07;0.774496;-0.659533;0.012527;0.0;0.0;0.0;0.0;0.0;0.0
1.0;1753875190.756256;16.418599;1.05;-1.69;0.1;0.77448;-0.659299;0.011923;0.0;0.0;0.0;0.0;0.0;0.0
1.0;1753875190.760853;16.430711;1.08;-1.63;0.11;0.772729;-0.6595;0.010535;0.0;0.0;0.0;0.0;0.0;0.0
1.0;1753875190.76545;16.412426;1.08;-1.65;0.06;0.773108;-0.658559;0.01088;0.0;0.0;0.0;0.0;0.0;0.0
1.0;1753875190.770048;16.392711;1.1;-1.8;0.17;0.773774;-0.659997;0.010749;0.0;0.0;0.0;0.0;0.0;0.0
1.0;1753875190.774644;16.410057;1.08;-1.84;0.14;0.771833;-0.659111;0.011182;0.0;0.0;0.0;0.0;0.0;0.0
1.0;1753875190.77955;16.414062;1.12;-1.68;0.14;0.772016;-0.658922;0.011834;0.0;0.0;0.0;0.0;0.0;0.0
1.0;1753875190.784147;16.450499;1.16;-1.6;0.09;0.770648;-0.659272;0.011729;0.0;0.0;0.0;0.0;0.0;0.0
1.0;1753875190.788744;16.400592;1.0;-1.7;0.17;0.772035;-0.65887;0.011138;0.0;0.0;0.0;0.0;0.0;0.0
1.0;1753875190.793342;16.415577;1.07;-1.7;0.15;0.772321;-0.661251;0.012632;0.0;0.0;0.0;0.0;0.0;0.0
1.0;1753875190.797939;16.385298;1.06;-1.66;0.15;0.771425;-0.658888;0.011569;0.0;0.0;0.0;0.0;0.0;0.0
1.0;1753875190.802536;16.41567;1.13;-1.71;0.16;0.771429;-0.658997;0.012181;0.0;0.0;0.0;0.0;0.0;0.0
1.0;1753875190.807133;16.407929;1.26;-1.66;0.13;0.773344;-0.660804;0.013157;0.0;0.0;0.0;0.0;0.0;0.0
1.0;1753875190.81173;16.422721;1.1;-1.69;0.17;0.772614;-0.661327;0.012626;0.0;0.0;0.0;0.0;0.0;0.0
1.0;1753875190.816328;16.478876;1.08;-1.7;0.22;0.77481;-0.660641;0.013177;0.0;0.0;0.0;0.0;0.0;0.0
1.0;1753875190.82505;16.429688;1.19;-1.68;0.14;0.77348;-0.660386;0.012444;0.0;0.0;0.0;0.0;0.0;0.0
1.0;1753875190.829647;16.421203;1.22;-1.72;0.13;0.773315;-0.660655;0.013576;0.0;0.0;0.0;0.0;0.0;0.0
1.0;1753875190.834244;16.401354;1.19;-1.69;0.12;0.771766;-0.659692;0.013042;0.0;0.0;0.0;0.0;0.0;0.0
1.0;1753875190.838842;16.434397;1.22;-1.77;0.15;0.775273;-0.658611;0.011475;0.0;0.0;0.0;0.0;0.0;0.0
1.0;1753875190.843439;16.432028;1.12;-1.62;0.18;0.773166;-0.660335;0.013049;0.0;0.0;0.0;0.0;0.0;0.0
1.0;1753875190.848036;16.444122;1.16;-1.74;0.16;0.774251;-0.657975;0.009625;0.0;0.0;0.0;0.0;0.0;0.0
1.0;1753875190.852633;16.410844;1.27;-1.77;0.13;0.772769;-0.659026;0.010954;0.0;0.0;0.0;0.0;0.0;0.0
1.0;1753875190.85723;16.441224;1.1;-1.72;0.17;0.776232;-0.659732;0.01143;0.0;0.0;0.0;0.0;0.0;0.0
1.0;1753875190.861828;16.431365;1.13;-1.68;0.14;0.773351;-0.658543;0.012707;0.0;0.0;0.0;0.0;0.0;0.0
1.0;1753875190.866425;16.473816;1.15;-1.77;0.09;0.77286;-0.660101;0.011171;0.0;0.0;0.0;0.0;0.0;0.0
1.0;1753875190.871022;16.466136;1.06;-1.78;0.05;0.775357;-0.659818;0.011955;0.0;0.0;0.0;0.0;0.0;0.0
1.0;1753875190.875619;16.423644;1.14;-1.73;0.07;0.773186;-0.659701;0.012325;0.0;0.0;0.0;0.0;0.0;0.0
1.0;1753875190.88245;16.429688;1.12;-1.75;0.07;0.773724;-0.659044;0.01159;0.0;0.0;0.0;0.0;0.0;0.0
1.0;1753875190.887047;16.447817;1.07;-1.81;0.03;0.773571;-0.659453;0.011713;0.0;0.0;0.0;0.0;0.0;0.0
1.0;1753875190.891644;16.456616;1.17;-1.71;0.06;0.774085;-0.659175;0.011999;0.0;0.0;0.0;0.0;0.0;0.0
1.0;1753875190.896242;16.417968;1.07;-1.73;0.0;0.774903;-0.660658;0.010929;0.0;0.0;0.0;0.0;0.0;0.0
1.0;1753875190.900839;16.410548;1.1;-1.79;0.08;0.775435;-0.658761;0.012668;0.0;0.0;0.0;0.0;0.0;0.0
1.0;1753875190.905436;16.409893;1.1;-1.74;0.04;0.7754;-0.659107;0.01086;0.0;0.0;0.0;0.0;0.0;0.0
1.0;1753875190.910033;16.477277;1.12;-1.71;0.05;0.773842;-0.659926;0.011394;0.0;0.0;0.0;0.0;0.0;0.0
1.0;1753875190.91463;16.421254;1.1;-1.65;0.14;0.773351;-0.658911;0.013025;0.0;0.0;0.0;0.0;0.0;0.0
1.0;1753875190.919228;16.406278;1.15;-1.72;0.08;0.773091;-0.659965;0.010341;0.0;0.0;0.0;0.0;0.0;0.0
1.0;1753875190.923825;16.447102;1.13;-1.71;0.04;0.77333;-0.65957;0.01216;0.0;0.0;0.0;0.0;0.0;0.0
1.0;1753875190.928422;16.487899;1.15;-1.64;0.07;0.772278;-0.658946;0.013256;0.0;0.0;0.0;0.0;0.0;0.0
1.0;1753875190.933019;16.435526;1.19;-1.68;0.05;0.773873;-0.658728;0.011352;0.0;0.0;0.0;0.0;0.0;0.0
1.0;1753875190.937616;16.448241;1.17;-1.72;0.09;0.774282;-0.658233;0.01178;0.0;0.0;0.0;0.0;0.0;0.0
1.0;1753875190.942214;16.448255;1.27;-1.71;0.05;0.772373;-0.657876;0.012105;0.0;0.0;0.0;0.0;0.0;0.0
1.0;1753875190.946811;16.416072;1.09;-1.68;0.07;0.772297;-0.658459;0.011461;0.0;0.0;0.0;0.0;0.0;0.0
1.0;1753875190.951408;16.418569;1.15;-1.74;0.03;0.77381;-0.658334;0.00954;0.0;0.0;0.0;0.0;0.0;0.0
1.0;1753875190.956005;16.424512;1.13;-1.61;0.12;0.772907;-0.658163;0.012138;0.0;0.0;0.0;0.0;0.0;0.0
1.0;1753875190.960602;16.394344;1.15;-1.67;0.13;0.770188;-0.658768;0.011364;0.0;0.0;0.0;0.0;0.0;0.0
1.0;1753875190.9652;16.390672;0.92;-1.72;0.0;0.772705;-0.659951;0.010978;0.0;0.0;0.0;0.0;0.0;0.0
1.0;1753875190.969797;16.377824;1.23;-1.77;0.01;0.773284;-0.659383;0.011546;0.0;0.0;0.0;0.0;0.0;0.0
1.0;1753875190.97552;16.429688;1.12;-1.68;0.07;0.77287;-0.659288;0.011834;0.0;0.0;0.0;0.0;0.0;0.0
1.0;1753875190.979595;16.417969;0.98;-1.61;0.14;0.773968;-0.660752;0.0122;0.0;0.0;0.0;0.0;0.0;0.0
1.0;1753875190.98333;16.417969;1.05;-1.75;0.14;0.77226;-0.660264;0.012688;0.0;0.0;0.0;0.0;0.0;0.0
1.0;1753875190.988429;16.417969;0.91;-1.61;0.14;0.774212;-0.659654;0.011468;0.0;0.0;0.0;0.0;0.0;0.0
1.0;1753875190.992489;16.417969;0.91;-1.54;0.07;0.772992;-0.660142;0.012444;0.0;0.0;0.0;0.0;0.0;0.0
1.0;1753875190.997063;16.460938;1.12;-1.61;0.14;0.773114;-0.659044;0.012322;0.0;0.0;0.0;0.0;0.0;0.0
1.0;1753875191.00166;16.471203;1.28;-1.68;0.15;0.772441;-0.659052;0.013588;0.0;0.0;0.0;0.0;0.0;0.0
1.0;1753875191.006257;16.47023;1.2;-1.76;0.09;0.773378;-0.65944;0.012193;0.0;0.0;0.0;0.0;0.0;0.0
1.0;1753875191.010854;16.456501;1.19;-1.58;0.02;0.773909;-0.659058;0.012423;0.0;0.0;0.0;0.0;0.0;0.0
1.0;1753875191.015452;16.48153;1.09;-1.6;0.12;0.771992;-0.658284;0.011516;0.0;0.0;0.0;0.0;0.0;0.0
1.0;1753875191.020049;16.483836;1.01;-1.7;0.16;0.772153;-0.659422;0.013136;0.0;0.0;0.0;0.0;0.0;0.0
1.0;1753875191.024646;16.461914;1.12;-1.57;0.13;0.773534;-0.661144;0.012462;0.0;0.0;0.0;0.0;0.0;0.0
1.0;1753875191.029243;16.437869;1.16;-1.53;0.18;0.773134;-0.660325;0.012535;0.0;0.0;0.0;0.0;0.0;0.0
1.0;1753875191.03384;16.473366;1.0;-1.62;0.07;0.773058;-0.657054;0.013522;0.0;0.0;0.0;0.0;0.0;0.0
1.0;1753875191.038438;16.472231;1.02;-1.66;0.14;0.773614;-0.660239;0.011935;0.0;0.0;0.0;0.0;0.0;0.0
1.0;1753875191.043035;16.464253;1.05;-1.51;0.15;0.77373;-0.659573;0.012138;0.0;0.0;0.0;0.0;0.0;0.0
1.0;1753875191.047632;16.453867;1.11;-1.58;0.14;0.771526;-0.659616;0.012449;0.0;0.0;0.0;0.0;0.0;0.0
1.0;1753875191.052229;16.478216;1.13;-1.62;0.13;0.772925;-0.659153;0.012683;0.0;0.0;0.0;0.0;0.0;0.0
1.0;1753875191.056826;16.452521;1.13;-1.57;0.13;0.772272;-0.658287;0.013055;0.0;0.0;0.0;0.0;0.0;0.0
1.0;1753875191.061424;16.454335;1.09;-1.61;0.12;0.772214;-0.658092;0.012295;0.0;0.0;0.0;0.0;0.0;0.0
1.0;1753875191.066021;16.436252;1.08;-1.69;0.21;0.77437;-0.660536;0.012469;0.0;0.0;0.0;0.0;0.0;0.0
1.0;1753875191.070618;16.483638;1.02;-1.53;0.22;0.773611;-0.657353;0.013057;0.0;0.0;0.0;0.0;0.0;0.0
1.0;1753875191.075215;16.448189;1.1;-1.62;0.12;0.773064;-0.660232;0.013572;0.0;0.0;0.0;0.0;0.0;0.0
1.0;1753875191.079812;16.439831;1.27;-1.68;0.05;0.77195;-0.65967;0.013065;0.0;0.0;0.0;0.0;0.0;0.0
1.0;1753875191.08441;16.459833;1.07;-1.68;0.04;0.77323;-0.658102;0.012567;0.0;0.0;0.0;0.0;0.0;0.0
1.0;1753875191.089007;16.448947;1.15;-1.72;0.1;0.775149;-0.658276;0.012384;0.0;0.0;0.0;0.0;0.0;0.0
1.0;1753875191.093604;16.470705;1.11;-1.7;0.1;0.774526;-0.659693;0.012438;0.0;0.0;0.0;0.0;0.0;0.0
1.0;1753875191.098201;16.476831;1.03;-1.61;0.15;0.772403;-0.65833;0.012769;0.0;0.0;0.0;0.0;0.0;0.0
1.0;1753875191.102798;16.460814;1.17;-1.78;0.18;0.773653;-0.659028;0.013009;0.0;0.0;0.0;0.0;0.0;0.0
1.0;1753875191.107396;16.462297;1.11;-1.65;0.07;0.775034;-0.658072;0.013356;0.0;0.0;0.0;0.0;0.0;0.0
1.0;1753875191.111992;16.475814;1.09;-1.63;0.03;0.775689;-0.659414;0.013345;0.0;0.0;0.0;0.0;0.0;0.0
1.0;1753875191.11659;16.452389;1.09;-1.64;0.19;0.772838;-0.657052;0.013533;0.0;0.0;0.0;0.0;0.0;0.0
1.0;1753875191.121187;16.462373;1.01;-1.59;0.17;0.773308;-0.658463;0.012287;0.0;0.0;0.0;0.0;0.0;0.0
1.0;1753875191.125784;16.460377;1.07;-1.68;0.12;0.772347;-0.661704;0.013184;0.0;0.0;0.0;0.0;0.0;0.0
1.0;1753875191.130381;16.474553;1.15;-1.6;0.04;0.77336;-0.659547;0.01377;0.0;0.0;0.0;0.0;0.0;0.0
1.0;1753875191.134978;16.456817;1.09;-1.68;0.11;0.773606;-0.658635;0.012731;0.0;0.0;0.0;0.0;0.0;0.0
1.0;1753875191.139576;16.45255;1.18;-1.73;0.07;0.772704;-0.66035;0.013188;0.0;0.0;0.0;0.0;0.0;0.0
1.0;1753875191.144173;16.471098;1.08;-1.61;0.13;0.774789;-0.658008;0.012417;0.0;0.0;0.0;0.0;0.0;0.0
1.0;1753875191.14877;16.44649;1.15;-1.63;0.08;0.775467;-0.658713;0.013219;0.0;0.0;0.0;0.0;0.0;0.0
1.0;1753875191.153367;16.434962;1.01;-1.56;0.12;0.772902;-0.660861;0.013621;0.0;0.0;0.0;0.0;0.0;0.0
1.0;1753875191.157964;16.464901;1.17;-1.68;0.11;0.775137;-0.659369;0.01418;0.0;0.0;0.0;0.0;0.0;0.0
1.0;1753875191.162562;16.488509;0.91;-1.7;0.08;0.77441;-0.659771;0.014369;0.0;0.0;0.0;0.0;0.0;0.0
1.0;1753875191.167159;16.446775;0.94;-1.67;0.1;0.77495;-0.658105;0.014072;0.0;0.0;0.0;0.0;0.0;0.0
1.0;1753875191.171756;16.453681;1.09;-1.69;0.17;0.773627;-0.658824;0.013803;0.0;0.0;0.0;0.0;0.0;0.0
1.0;1753875191.176353;16.462105;1.12;-1.68;0.13;0.775193;-0.659403;0.014028;0.0;0.0;0.0;0.0;0.0;0.0
1.0;1753875191.18095;16.451528;1.02;-1.65;0.11;0.772321;-0.657649;0.013531;0.0;0.0;0.0;0.0;0.0;0.0
1.0;1753875191.185548;16.478206;1.13;-1.67;0.15;0.773604;-0.657956;0.013548;0.0;0.0;0.0;0.0;0.0;0.0
1.0;1753875191.190145;16.490303;1.09;-1.65;0.12;0.775358;-0.658743;0.012371;0.0;0.0;0.0;0.0;0.0;0.0
1.0;1753875191.194742;16.449028;1.09;-1.64;0.09;0.775259;-0.657542;0.012498;0.0;0.0;0.0;0.0;0.0;0.0
1.0;1753875191.199339;16.455454;0.98;-1.87;-0.0;0.773756;-0.659781;0.01267;0.0;0.0;0.0;0.0;0.0;0.0
1.0;1753875191.2065;16.460938;1.05;-1.68;0.07;0.773968;-0.659044;0.013786;0.0;0.0;0.0;0.0;0.0;0.0
1.0;1753875191.211097;16.453863;1.08;-1.73;0.13;0.774209;-0.659028;0.01313;0.0;0.0;0.0;0.0;0.0;0.0
1.0;1753875191.215694;16.46468;0.98;-1.75;0.14;0.774027;-0.657958;0.012906;0.0;0.0;0.0;0.0;0.0;0.0
1.0;1753875191.220292;16.482266;1.19;-1.68;0.03;0.774109;-0.65884;0.014407;0.0;0.0;0.0;0.0;0.0;0.0
1.0;1753875191.224889;16.43788;1.01;-1.66;0.02;0.774707;-0.661009;0.01367;0.0;0.0;0.0;0.0;0.0;0.0
1.0;1753875191.229486;16.453337;0.98;-1.71;0.15;0.773121;-0.658523;0.014629;0.0;0.0;0.0;0.0;0.0;0.0
1.0;1753875191.234083;16.445506;0.99;-1.73;0.1;0.772806;-0.659038;0.013661;0.0;0.0;0.0;0.0;0.0;0.0
1.0;1753875191.23868;16.462698;1.01;-1.71;0.14;0.772512;-0.659131;0.013351;0.0;0.0;0.0;0.0;0.0;0.0
1.0;1753875191.243278;16.469374;1.02;-1.62;0.06;0.775615;-0.658012;0.013851;0.0;0.0;0.0;0.0;0.0;0.0
1.0;1753875191.247875;16.447266;1.1;-1.54;0.15;0.774894;-0.659054;0.014372;0.0;0.0;0.0;0.0;0.0;0.0
1.0;1753875191.252472;16.462854;1.02;-1.74;0.08;0.773252;-0.657772;0.014181;0.0;0.0;0.0;0.0;0.0;0.0
1.0;1753875191.257069;16.463854;0.99;-1.63;0.08;0.775515;-0.660376;0.013936;0.0;0.0;0.0;0.0;0.0;0.0
1.0;1753875191.261666;16.484236;1.09;-1.66;0.01;0.774916;-0.659955;0.014266;0.0;0.0;0.0;0.0;0.0;0.0
1.0;1753875191.266264;16.485894;1.1;-1.66;0.13;0.774557;-0.65959;0.013104;0.0;0.0;0.0;0.0;0.0;0.0
1.0;1753875191.270861;16.452188;0.95;-1.61;0.13;0.774191;-0.656777;0.01329;0.0;0.0;0.0;0.0;0.0;0.0
1.0;1753875191.275458;16.448223;1.11;-1.72;0.07;0.773433;-0.658823;0.013775;0.0;0.0;0.0;0.0;0.0;0.0
1.0;1753875191.280055;16.484174;1.04;-1.68;0.02;0.775837;-0.65859;0.011866;0.0;0.0;0.0;0.0;0.0;0.0
1.0;1753875191.284652;16.475537;0.97;-1.7;0.02;0.774164;-0.658151;0.013043;0.0;0.0;0.0;0.0;0.0;0.0
1.0;1753875191.28925;16.436747;1.07;-1.62;0.07;0.772579;-0.660228;0.014562;0.0;0.0;0.0;0.0;0.0;0.0
1.0;1753875191.293846;16.461599;1.1;-1.61;0.07;0.77474;-0.659254;0.013053;0.0;0.0;0.0;0.0;0.0;0.0
1.0;1753875191.298444;16.4549;1.1;-1.56;0.06;0.773285;-0.660025;0.013532;0.0;0.0;0.0;0.0;0.0;0.0
1.0;1753875191.303041;16.471564;1.06;-1.8;0.01;0.774353;-0.660355;0.013147;0.0;0.0;0.0;0.0;0.0;0.0
1.0;1753875191.307638;16.489713;1.05;-1.63;0.06;0.774041;-0.658128;0.013285;0.0;0.0;0.0;0.0;0.0;0.0
1.0;1753875191.312235;16.443377;0.99;-1.62;0.11;0.774948;-0.659385;0.012641;0.0;0.0;0.0;0.0;0.0;0.0
1.0;1753875191.316832;16.449158;0.98;-1.67;0.1;0.775127;-0.658858;0.011613;0.0;0.0;0.0;0.0;0.0;0.0
1.0;1753875191.32143;16.458737;1.09;-1.7;-0.02;0.774505;-0.658725;0.013678;0.0;0.0;0.0;0.0;0.0;0.0
1.0;1753875191.326027;16.439936;1.12;-1.71;0.1;0.77197;-0.660908;0.012469;0.0;0.0;0.0;0.0;0.0;0.0
1.0;1753875191.330624;16.475513;1.0;-1.57;0.04;0.774018;-0.65972;0.012213;0.0;0.0;0.0;0.0;0.0;0.0
1.0;1753875191.335221;16.46763;1.13;-1.77;0.08;0.774584;-0.65856;0.013543;0.0;0.0;0.0;0.0;0.0;0.0
1.0;1753875191.339818;16.463751;1.01;-1.67;0.02;0.772918;-0.660977;0.013865;0.0;0.0;0.0;0.0;0.0;0.0
1.0;1753875191.344416;16.458276;1.07;-1.56;0.13;0.774538;-0.659168;0.013517;0.0;0.0;0.0;0.0;0.0;0.0
1.0;1753875191.349013;16.461813;1.18;-1.65;0.07;0.77242;-0.6603;0.013134;0.0;0.0;0.0;0.0;0.0;0.0
1.0;1753875191.35361;16.442636;1.15;-1.6;0.1;0.773143;-0.65788;0.013307;0.0;0.0;0.0;0.0;0.0;0.0
1.0;1753875191.358207;16.446131;1.09;-1.71;0.11;0.774792;-0.659621;0.014323;0.0;0.0;0.0;0.0;0.0;0.0
1.0;1753875191.362804;16.442919;0.96;-1.63;0.09;0.773373;-0.65837;0.011159;0.0;0.0;0.0;0.0;0.0;0.0
1.0;1753875191.367402;16.462865;1.25;-1.64;0.09;0.774322;-0.660093;0.012422;0.0;0.0;0.0;0.0;0.0;0.0
1.0;1753875191.371999;16.445335;1.02;-1.59;0.02;0.774795;-0.659205;0.012168;0.0;0.0;0.0;0.0;0.0;0.0
1.0;1753875191.376596;16.461488;1.12;-1.62;0.02;0.774823;-0.660626;0.011917;0.0;0.0;0.0;0.0;0.0;0.0
1.0;1753875191.381193;16.433539;1.16;-1.59;0.01;0.773217;-0.659132;0.012685;0.0;0.0;0.0;0.0;0.0;0.0
1.0;1753875191.38579;16.472286;1.09;-1.59;0.07;0.774156;-0.660183;0.012266;0.0;0.0;0.0;0.0;0.0;0.0
1.0;1753875191.390388;16.447541;1.06;-1.6;0.05;0.774751;-0.661627;0.013413;0.0;0.0;0.0;0.0;0.0;0.0
1.0;1753875191.394985;16.472179;1.24;-1.68;0.05;0.771816;-0.659372;0.013672;0.0;0.0;0.0;0.0;0.0;0.0
1.0;1753875191.399582;16.471359;1.18;-1.63;0.18;0.773149;-0.659663;0.011216;0.0;0.0;0.0;0.0;0.0;0.0
1.0;1753875191.404179;16.435003;1.09;-1.68;-0.01;0.775309;-0.660036;0.013477;0.0;0.0;0.0;0.0;0.0;0.0
1.0;1753875191.408776;16.445511;0.96;-1.72;0.05;0.774564;-0.658507;0.011483;0.0;0.0;0.0;0.0;0.0;0.0
1.0;1753875191.413374;16.485321;1.15;-1.73;0.09;0.772348;-0.658762;0.013203;0.0;0.0;0.0;0.0;0.0;0.0
1.0;1753875191.417971;16.465196;0.95;-1.67;0.09;0.773479;-0.660607;0.012906;0.0;0.0;0.0;0.0;0.0;0.0
1.0;1753875191.422568;16.449297;0.98;-1.68;0.06;0.772902;-0.658115;0.012086;0.0;0.0;0.0;0.0;0.0;0.0
1.0;1753875191.427165;16.442758;1.11;-1.66;0.1;0.774823;-0.659982;0.012371;0.0;0.0;0.0;0.0;0.0;0.0
1.0;1753875191.431762;16.46188;1.06;-1.75;0.06;0.773703;-0.660276;0.012304;0.0;0.0;0.0;0.0;0.0;0.0
1.0;1753875191.43636;16.501297;1.05;-1.54;0.14;0.774574;-0.661241;0.013627;0.0;0.0;0.0;0.0;0.0;0.0
1.0;1753875191.440956;16.464184;1.05;-1.57;0.05;0.773903;-0.658895;0.01185;0.0;0.0;0.0;0.0;0.0;0.0
1.0;1753875191.445554;16.436744;1.16;-1.5;0.04;0.773452;-0.65979;0.013155;0.0;0.0;0.0;0.0;0.0;0.0
1.0;1753875191.450151;16.471438;1.06;-1.64;0.04;0.774042;-0.659469;0.014513;0.0;0.0;0.0;0.0;0.0;0.0
1.0;1753875191.454748;16.461052;1.21;-1.63;0.07;0.772653;-0.659631;0.012714;0.0;0.0;0.0;0.0;0.0;0.0
1.0;1753875191.459345;16.452775;1.14;-1.74;0.07;0.772406;-0.659866;0.011619;0.0;0.0;0.0;0.0;0.0;0.0
1.0;1753875191.463942;16.442246;1.09;-1.56;0.08;0.77356;-0.660179;0.013211;0.0;0.0;0.0;0.0;0.0;0.0
1.0;1753875191.46854;16.430093;1.16;-1.58;0.03;0.773114;-0.658526;0.012104;0.0;0.0;0.0;0.0;0.0;0.0
1.0;1753875191.473137;16.448286;1.05;-1.6;-0.0;0.773533;-0.660758;0.013189;0.0;0.0;0.0;0.0;0.0;0.0
1.0;1753875191.477734;16.438492;1.07;-1.59;0.08;0.7739;-0.659974;0.01123;0.0;0.0;0.0;0.0;0.0;0.0
1.0;1753875191.482331;16.454122;0.9;-1.63;0.08;0.772411;-0.65921;0.011514;0.0;0.0;0.0;0.0;0.0;0.0
1.0;1753875191.486928;16.454794;1.03;-1.68;0.01;0.775787;-0.660527;0.011579;0.0;0.0;0.0;0.0;0.0;0.0
1.0;1753875191.491526;16.45126;0.97;-1.74;0.14;0.772993;-0.661113;0.01216;0.0;0.0;0.0;0.0;0.0;0.0
1.0;1753875191.496123;16.484158;0.96;-1.61;0.1;0.773427;-0.660339;0.011853;0.0;0.0;0.0;0.0;0.0;0.0
1.0;1753875191.50072;16.465263;1.1;-1.6;0.07;0.773391;-0.659329;0.011947;0.0;0.0;0.0;0.0;0.0;0.0
1.0;1753875191.505317;16.468606;0.98;-1.61;0.09;0.774011;-0.659854;0.01209;0.0;0.0;0.0;0.0;0.0;0.0
1.0;1753875191.509914;16.447981;1.14;-1.59;0.12;0.773506;-0.660507;0.011998;0.0;0.0;0.0;0.0;0.0;0.0
1.0;1753875191.514512;16.457823;1.07;-1.55;0.11;0.773805;-0.660149;0.012176;0.0;0.0;0.0;0.0;0.0;0.0
1.0;1753875191.519109;16.453177;1.17;-1.73;0.12;0.775045;-0.660417;0.012447;0.0;0.0;0.0;0.0;0.0;0.0
1.0;1753875191.523706;16.449505;1.13;-1.58;0.08;0.774124;-0.659132;0.011395;0.0;0.0;0.0;0.0;0.0;0.0
1.0;1753875191.528303;16.436799;1.23;-1.6;0.05;0.77467;-0.660623;0.010947;0.0;0.0;0.0;0.0;0.0;0.0
1.0;1753875191.5329;16.461593;1.04;-1.63;0.08;0.773044;-0.660762;0.012571;0.0;0.0;0.0;0.0;0.0;0.0
1.0;1753875191.537498;16.418582;1.03;-1.55;0.06;0.773427;-0.659817;0.011923;0.0;0.0;0.0;0.0;0.0;0.0
1.0;1753875191.542095;16.474834;1.08;-1.54;0.04;0.772252;-0.659679;0.01141;0.0;0.0;0.0;0.0;0.0;0.0
1.0;1753875191.546692;16.463706;1.15;-1.7;0.14;0.773498;-0.661201;0.012171;0.0;0.0;0.0;0.0;0.0;0.0
