DeviceID;Timestamp;Temperature;GyroX;GyroY;GyroZ;AccelX;AccelY;AccelZ;Dist1;Dist2;Dist3;Err1;Err2;Err3
2.0;1753875185.968924;18.28906;0.91;-1.61;-0.28;-0.869128;0.488122;0.006954;0.0;0.0;0.0;0.0;0.0;0.0
2.0;1753875185.973506;18.28125;0.91;-1.68;-0.35;-0.86803;0.488366;0.006466;0.0;0.0;0.0;0.0;0.0;0.0
2.0;1753875185.981037;18.28125;0.91;-1.75;-0.35;-0.869982;0.488854;0.0061;0.0;0.0;0.0;0.0;0.0;0.0
2.0;1753875185.982594;18.28125;0.98;-1.68;-0.28;-0.867786;0.488488;0.00549;0.0;0.0;0.0;0.0;0.0;0.0
2.0;1753875185.987175;18.28125;0.84;-1.68;-0.28;-0.86986;0.48922;0.00549;0.0;0.0;0.0;0.0;0.0;0.0
2.0;1753875185.993722;18.25781;0.91;-1.75;-0.28;-0.869738;0.48678;0.005978;0.0;0.0;0.0;0.0;0.0;0.0
2.0;1753875185.996318;18.25781;0.84;-1.68;-0.28;-0.867298;0.48861;0.005734;0.0;0.0;0.0;0.0;0.0;0.0
2.0;1753875186.000917;18.28598;0.9;-1.69;-0.27;-0.869131;0.487247;0.005706;0.0;0.0;0.0;0.0;0.0;0.0
2.0;1753875186.005516;18.23592;0.82;-1.65;-0.25;-0.867744;0.489229;0.006178;0.0;0.0;0.0;0.0;0.0;0.0
2.0;1753875186.010116;18.24015;0.91;-1.8;-0.28;-0.868135;0.488993;0.006623;0.0;0.0;0.0;0.0;0.0;0.0
2.0;1753875186.014714;18.26757;0.78;-1.69;-0.3;-0.868206;0.486663;0.004546;0.0;0.0;0.0;0.0;0.0;0.0
2.0;1753875186.019314;18.26233;0.96;-1.67;-0.25;-0.867114;0.486914;0.006154;0.0;0.0;0.0;0.0;0.0;0.0
2.0;1753875186.023913;18.26658;0.87;-1.66;-0.33;-0.866064;0.489263;0.005579;0.0;0.0;0.0;0.0;0.0;0.0
2.0;1753875186.028512;18.24176;0.93;-1.59;-0.31;-0.86764;0.489161;0.005623;0.0;0.0;0.0;0.0;0.0;0.0
2.0;1753875186.033111;18.23219;0.78;-1.72;-0.33;-0.867329;0.48744;0.004526;0.0;0.0;0.0;0.0;0.0;0.0
2.0;1753875186.03771;18.26739;0.87;-1.68;-0.32;-0.869986;0.4882;0.005502;0.0;0.0;0.0;0.0;0.0;0.0
2.0;1753875186.042309;18.26121;0.96;-1.71;-0.26;-0.867304;0.488674;0.006485;0.0;0.0;0.0;0.0;0.0;0.0
2.0;1753875186.046908;18.25924;0.93;-1.72;-0.36;-0.866279;0.488133;0.005511;0.0;0.0;0.0;0.0;0.0;0.0
2.0;1753875186.051507;18.24563;0.94;-1.68;-0.32;-0.867561;0.488195;0.005236;0.0;0.0;0.0;0.0;0.0;0.0
2.0;1753875186.056106;18.24892;0.97;-1.69;-0.29;-0.868397;0.489289;0.005968;0.0;0.0;0.0;0.0;0.0;0.0
2.0;1753875186.060706;18.24365;0.94;-1.61;-0.37;-0.867124;0.488032;0.005487;0.0;0.0;0.0;0.0;0.0;0.0
2.0;1753875186.065304;18.25786;0.99;-1.68;-0.29;-0.865959;0.486858;0.004781;0.0;0.0;0.0;0.0;0.0;0.0
2.0;1753875186.069904;18.28671;0.89;-1.64;-0.36;-0.868758;0.487246;0.005208;0.0;0.0;0.0;0.0;0.0;0.0
2.0;1753875186.074503;18.24157;1.01;-1.71;-0.38;-0.868923;0.488383;0.006677;0.0;0.0;0.0;0.0;0.0;0.0
2.0;1753875186.079102;18.27847;1.01;-1.7;-0.37;-0.869786;0.487481;0.005673;0.0;0.0;0.0;0.0;0.0;0.0
2.0;1753875186.083701;18.24238;0.95;-1.67;-0.31;-0.870187;0.488311;0.005681;0.0;0.0;0.0;0.0;0.0;0.0
2.0;1753875186.0883;18.24797;0.92;-1.63;-0.41;-0.867479;0.489118;0.006162;0.0;0.0;0.0;0.0;0.0;0.0
2.0;1753875186.092899;18.25535;0.92;-1.7;-0.32;-0.868486;0.487382;0.006093;0.0;0.0;0.0;0.0;0.0;0.0
2.0;1753875186.097498;18.23972;1.05;-1.82;-0.33;-0.867432;0.488041;0.005914;0.0;0.0;0.0;0.0;0.0;0.0
2.0;1753875186.102097;18.26971;0.88;-1.61;-0.33;-0.869728;0.48673;0.00407;0.0;0.0;0.0;0.0;0.0;0.0
2.0;1753875186.1072;18.25781;0.98;-1.68;-0.35;-0.868274;0.487756;0.00549;0.0;0.0;0.0;0.0;0.0;0.0
2.0;1753875186.111799;18.26066;1.14;-1.77;-0.43;-0.867694;0.486128;0.005422;0.0;0.0;0.0;0.0;0.0;0.0
2.0;1753875186.116398;18.25597;0.93;-1.69;-0.37;-0.867992;0.488028;0.006523;0.0;0.0;0.0;0.0;0.0;0.0
2.0;1753875186.120997;18.25955;1.02;-1.71;-0.37;-0.868362;0.487289;0.005673;0.0;0.0;0.0;0.0;0.0;0.0
2.0;1753875186.125596;18.24143;1.04;-1.66;-0.4;-0.869478;0.488538;0.005971;0.0;0.0;0.0;0.0;0.0;0.0
2.0;1753875186.130196;18.24688;0.89;-1.78;-0.35;-0.868081;0.485313;0.006064;0.0;0.0;0.0;0.0;0.0;0.0
2.0;1753875186.134794;18.24271;1.06;-1.61;-0.4;-0.869427;0.487533;0.00554;0.0;0.0;0.0;0.0;0.0;0.0
2.0;1753875186.139394;18.2442;0.96;-1.64;-0.37;-0.867959;0.486925;0.00548;0.0;0.0;0.0;0.0;0.0;0.0
2.0;1753875186.143993;18.27182;1.04;-1.72;-0.31;-0.867709;0.486953;0.004433;0.0;0.0;0.0;0.0;0.0;0.0
2.0;1753875186.148592;18.22256;1.02;-1.66;-0.32;-0.866427;0.487908;0.005342;0.0;0.0;0.0;0.0;0.0;0.0
2.0;1753875186.153191;18.27464;1.05;-1.68;-0.37;-0.867776;0.489014;0.004623;0.0;0.0;0.0;0.0;0.0;0.0
2.0;1753875186.15779;18.26361;1.02;-1.75;-0.33;-0.867766;0.486493;0.004872;0.0;0.0;0.0;0.0;0.0;0.0
2.0;1753875186.162389;18.27914;0.91;-1.66;-0.39;-0.868957;0.488233;0.006383;0.0;0.0;0.0;0.0;0.0;0.0
2.0;1753875186.166988;18.25087;1.01;-1.68;-0.36;-0.868716;0.4875;0.005637;0.0;0.0;0.0;0.0;0.0;0.0
2.0;1753875186.171587;18.24574;0.97;-1.68;-0.33;-0.868988;0.488875;0.005748;0.0;0.0;0.0;0.0;0.0;0.0
2.0;1753875186.176186;18.23669;0.96;-1.69;-0.41;-0.868595;0.487927;0.005082;0.0;0.0;0.0;0.0;0.0;0.0
2.0;1753875186.180786;18.28075;0.9;-1.74;-0.36;-0.869981;0.487696;0.00548;0.0;0.0;0.0;0.0;0.0;0.0
2.0;1753875186.185384;18.24279;0.93;-1.64;-0.35;-0.868502;0.489225;0.005616;0.0;0.0;0.0;0.0;0.0;0.0
2.0;1753875186.189984;18.24303;1.05;-1.69;-0.33;-0.867589;0.489114;0.005373;0.0;0.0;0.0;0.0;0.0;0.0
2.0;1753875186.194583;18.22399;0.95;-1.68;-0.34;-0.86918;0.487499;0.005772;0.0;0.0;0.0;0.0;0.0;0.0
2.0;1753875186.199182;18.25984;1.04;-1.79;-0.26;-0.867205;0.48904;0.005063;0.0;0.0;0.0;0.0;0.0;0.0
2.0;1753875186.203781;18.25368;0.89;-1.7;-0.35;-0.869505;0.490008;0.004579;0.0;0.0;0.0;0.0;0.0;0.0
2.0;1753875186.20838;18.26632;1.01;-1.63;-0.34;-0.868181;0.487129;0.004866;0.0;0.0;0.0;0.0;0.0;0.0
2.0;1753875186.212979;18.2488;1.02;-1.71;-0.35;-0.867724;0.489636;0.00495;0.0;0.0;0.0;0.0;0.0;0.0
2.0;1753875186.217578;18.26063;0.88;-1.7;-0.33;-0.866737;0.488652;0.005162;0.0;0.0;0.0;0.0;0.0;0.0
2.0;1753875186.222177;18.25942;0.88;-1.65;-0.31;-0.867561;0.490716;0.004168;0.0;0.0;0.0;0.0;0.0;0.0
2.0;1753875186.226776;18.26384;1.0;-1.63;-0.32;-0.868521;0.488289;0.006094;0.0;0.0;0.0;0.0;0.0;0.0
2.0;1753875186.231376;18.27209;0.96;-1.75;-0.34;-0.867793;0.486115;0.006366;0.0;0.0;0.0;0.0;0.0;0.0
2.0;1753875186.235974;18.27779;0.97;-1.71;-0.42;-0.86634;0.487853;0.006751;0.0;0.0;0.0;0.0;0.0;0.0
2.0;1753875186.240574;18.26207;0.92;-1.62;-0.38;-0.86907;0.490797;0.00648;0.0;0.0;0.0;0.0;0.0;0.0
2.0;1753875186.245173;18.23774;0.97;-1.69;-0.29;-0.867368;0.486912;0.004519;0.0;0.0;0.0;0.0;0.0;0.0
2.0;1753875186.249772;18.29399;0.88;-1.63;-0.33;-0.867817;0.488104;0.005366;0.0;0.0;0.0;0.0;0.0;0.0
2.0;1753875186.254371;18.26361;0.94;-1.71;-0.3;-0.867259;0.48769;0.005131;0.0;0.0;0.0;0.0;0.0;0.0
2.0;1753875186.25897;18.23503;1.0;-1.62;-0.36;-0.868605;0.488441;0.004916;0.0;0.0;0.0;0.0;0.0;0.0
2.0;1753875186.263569;18.2546;0.9;-1.62;-0.4;-0.868916;0.489832;0.005338;0.0;0.0;0.0;0.0;0.0;0.0
2.0;1753875186.268168;18.29723;1.0;-1.69;-0.36;-0.866717;0.487547;0.00456;0.0;0.0;0.0;0.0;0.0;0.0
2.0;1753875186.272767;18.26652;1.04;-1.72;-0.38;-0.868119;0.486965;0.005386;0.0;0.0;0.0;0.0;0.0;0.0
2.0;1753875186.277366;18.27077;0.94;-1.68;-0.36;-0.866763;0.487769;0.004745;0.0;0.0;0.0;0.0;0.0;0.0
2.0;1753875186.281966;18.27309;0.91;-1.81;-0.33;-0.866982;0.487454;0.005523;0.0;0.0;0.0;0.0;0.0;0.0
2.0;1753875186.286564;18.26044;0.85;-1.68;-0.4;-0.869885;0.489196;0.005379;0.0;0.0;0.0;0.0;0.0;0.0
2.0;1753875186.291164;18.25169;0.94;-1.72;-0.39;-0.868802;0.489085;0.004421;0.0;0.0;0.0;0.0;0.0;0.0
2.0;1753875186.295763;18.2513;0.97;-1.82;-0.37;-0.867446;0.490864;0.005943;0.0;0.0;0.0;0.0;0.0;0.0
2.0;1753875186.300362;18.27947;0.9;-1.66;-0.36;-0.868633;0.488493;0.005163;0.0;0.0;0.0;0.0;0.0;0.0
2.0;1753875186.304961;18.25593;0.92;-1.64;-0.32;-0.868497;0.489667;0.00555;0.0;0.0;0.0;0.0;0.0;0.0
2.0;1753875186.30956;18.25361;0.89;-1.75;-0.4;-0.870574;0.487686;0.004881;0.0;0.0;0.0;0.0;0.0;0.0
2.0;1753875186.314159;18.24933;0.97;-1.73;-0.3;-0.86778;0.487712;0.003279;0.0;0.0;0.0;0.0;0.0;0.0
2.0;1753875186.318758;18.25185;0.94;-1.67;-0.25;-0.869316;0.489822;0.003896;0.0;0.0;0.0;0.0;0.0;0.0
2.0;1753875186.323357;18.24614;0.94;-1.76;-0.34;-0.86902;0.488409;0.004988;0.0;0.0;0.0;0.0;0.0;0.0
2.0;1753875186.327956;18.22274;0.92;-1.74;-0.36;-0.868736;0.4897;0.005636;0.0;0.0;0.0;0.0;0.0;0.0
2.0;1753875186.332556;18.27499;0.94;-1.66;-0.4;-0.867965;0.48804;0.005136;0.0;0.0;0.0;0.0;0.0;0.0
2.0;1753875186.337155;18.28087;0.99;-1.66;-0.39;-0.866753;0.489468;0.005841;0.0;0.0;0.0;0.0;0.0;0.0
2.0;1753875186.341754;18.23575;0.95;-1.63;-0.36;-0.867945;0.489167;0.004818;0.0;0.0;0.0;0.0;0.0;0.0
2.0;1753875186.346353;18.25356;0.92;-1.74;-0.35;-0.86883;0.487506;0.006068;0.0;0.0;0.0;0.0;0.0;0.0
2.0;1753875186.350952;18.22097;1.03;-1.74;-0.4;-0.868798;0.486951;0.006239;0.0;0.0;0.0;0.0;0.0;0.0
2.0;1753875186.355551;18.26629;0.88;-1.68;-0.35;-0.867213;0.486939;0.005151;0.0;0.0;0.0;0.0;0.0;0.0
2.0;1753875186.36015;18.31343;0.94;-1.75;-0.39;-0.868763;0.486964;0.004876;0.0;0.0;0.0;0.0;0.0;0.0
2.0;1753875186.364749;18.24908;0.94;-1.67;-0.35;-0.869122;0.489001;0.004391;0.0;0.0;0.0;0.0;0.0;0.0
2.0;1753875186.369348;18.27817;0.95;-1.64;-0.33;-0.868609;0.487075;0.005336;0.0;0.0;0.0;0.0;0.0;0.0
2.0;1753875186.373948;18.21023;0.99;-1.63;-0.32;-0.869564;0.48917;0.006963;0.0;0.0;0.0;0.0;0.0;0.0
2.0;1753875186.378546;18.28016;1.09;-1.65;-0.32;-0.868483;0.49049;0.004611;0.0;0.0;0.0;0.0;0.0;0.0
2.0;1753875186.383146;18.25261;0.98;-1.75;-0.38;-0.868132;0.488659;0.005944;0.0;0.0;0.0;0.0;0.0;0.0
2.0;1753875186.387745;18.21473;0.99;-1.68;-0.39;-0.866778;0.487626;0.006548;0.0;0.0;0.0;0.0;0.0;0.0
2.0;1753875186.392344;18.23808;0.98;-1.71;-0.32;-0.868331;0.489283;0.003969;0.0;0.0;0.0;0.0;0.0;0.0
2.0;1753875186.396943;18.26045;0.98;-1.77;-0.29;-0.867842;0.488737;0.0065;0.0;0.0;0.0;0.0;0.0;0.0
2.0;1753875186.401542;18.25285;0.95;-1.74;-0.34;-0.868862;0.488614;0.006598;0.0;0.0;0.0;0.0;0.0;0.0
2.0;1753875186.406141;18.25409;0.95;-1.8;-0.33;-0.869243;0.488712;0.006125;0.0;0.0;0.0;0.0;0.0;0.0
2.0;1753875186.41074;18.25564;0.83;-1.75;-0.37;-0.867151;0.488585;0.005354;0.0;0.0;0.0;0.0;0.0;0.0
2.0;1753875186.415339;18.29207;0.95;-1.68;-0.4;-0.868498;0.487616;0.004836;0.0;0.0;0.0;0.0;0.0;0.0
2.0;1753875186.419938;18.23286;0.88;-1.73;-0.26;-0.867411;0.487308;0.004526;0.0;0.0;0.0;0.0;0.0;0.0
2.0;1753875186.424538;18.27732;0.91;-1.69;-0.33;-0.869222;0.489316;0.005741;0.0;0.0;0.0;0.0;0.0;0.0
2.0;1753875186.429136;18.26341;0.97;-1.69;-0.41;-0.868905;0.487958;0.004979;0.0;0.0;0.0;0.0;0.0;0.0
2.0;1753875186.433736;18.24606;0.97;-1.77;-0.33;-0.867068;0.485608;0.005149;0.0;0.0;0.0;0.0;0.0;0.0
2.0;1753875186.438335;18.25282;0.89;-1.73;-0.4;-0.867815;0.487782;0.004776;0.0;0.0;0.0;0.0;0.0;0.0
2.0;1753875186.442934;18.26991;1.03;-1.65;-0.3;-0.867643;0.488438;0.004478;0.0;0.0;0.0;0.0;0.0;0.0
2.0;1753875186.447533;18.26186;1.02;-1.61;-0.36;-0.868707;0.488964;0.00554;0.0;0.0;0.0;0.0;0.0;0.0
2.0;1753875186.452132;18.2512;0.92;-1.65;-0.37;-0.868998;0.487562;0.005679;0.0;0.0;0.0;0.0;0.0;0.0
2.0;1753875186.456731;18.25111;1.08;-1.68;-0.37;-0.868145;0.486313;0.004672;0.0;0.0;0.0;0.0;0.0;0.0
2.0;1753875186.46133;18.25143;0.98;-1.73;-0.34;-0.867544;0.485433;0.005769;0.0;0.0;0.0;0.0;0.0;0.0
2.0;1753875186.465929;18.24546;0.91;-1.75;-0.35;-0.867086;0.488237;0.005607;0.0;0.0;0.0;0.0;0.0;0.0
2.0;1753875186.470528;18.25996;0.86;-1.69;-0.34;-0.868865;0.489926;0.005007;0.0;0.0;0.0;0.0;0.0;0.0
2.0;1753875186.475128;18.27533;0.89;-1.76;-0.37;-0.867012;0.486141;0.005747;0.0;0.0;0.0;0.0;0.0;0.0
2.0;1753875186.479726;18.26265;0.95;-1.72;-0.35;-0.869706;0.487554;0.006837;0.0;0.0;0.0;0.0;0.0;0.0
2.0;1753875186.484326;18.24372;0.93;-1.65;-0.38;-0.866798;0.487249;0.00527;0.0;0.0;0.0;0.0;0.0;0.0
2.0;1753875186.488925;18.26133;0.93;-1.72;-0.35;-0.867035;0.487189;0.00577;0.0;0.0;0.0;0.0;0.0;0.0
2.0;1753875186.493524;18.25549;0.87;-1.75;-0.34;-0.866953;0.487746;0.004883;0.0;0.0;0.0;0.0;0.0;0.0
2.0;1753875186.498123;18.27397;0.86;-1.77;-0.27;-0.868568;0.487868;0.005021;0.0;0.0;0.0;0.0;0.0;0.0
2.0;1753875186.502722;18.22185;0.93;-1.65;-0.44;-0.866522;0.488135;0.00609;0.0;0.0;0.0;0.0;0.0;0.0
2.0;1753875186.507321;18.2363;0.92;-1.83;-0.33;-0.867031;0.488773;0.005228;0.0;0.0;0.0;0.0;0.0;0.0
2.0;1753875186.51192;18.2394;0.83;-1.7;-0.37;-0.867561;0.488094;0.00547;0.0;0.0;0.0;0.0;0.0;0.0
2.0;1753875186.516519;18.23702;0.93;-1.75;-0.39;-0.86777;0.488137;0.005469;0.0;0.0;0.0;0.0;0.0;0.0
2.0;1753875186.521118;18.24624;0.87;-1.73;-0.39;-0.868494;0.487636;0.005515;0.0;0.0;0.0;0.0;0.0;0.0
2.0;1753875186.525718;18.25364;0.96;-1.78;-0.34;-0.868008;0.48804;0.004742;0.0;0.0;0.0;0.0;0.0;0.0
2.0;1753875186.530316;18.25086;0.88;-1.76;-0.29;-0.867377;0.487444;0.005143;0.0;0.0;0.0;0.0;0.0;0.0
2.0;1753875186.534916;18.26149;1.01;-1.73;-0.26;-0.868428;0.487009;0.00549;0.0;0.0;0.0;0.0;0.0;0.0
2.0;1753875186.539515;18.28071;0.95;-1.68;-0.34;-0.867131;0.490399;0.004947;0.0;0.0;0.0;0.0;0.0;0.0
2.0;1753875186.544114;18.26001;0.95;-1.78;-0.3;-0.867218;0.485893;0.006167;0.0;0.0;0.0;0.0;0.0;0.0
2.0;1753875186.548713;18.25923;0.95;-1.78;-0.35;-0.866407;0.489212;0.006153;0.0;0.0;0.0;0.0;0.0;0.0
2.0;1753875186.553312;18.29855;1.02;-1.77;-0.37;-0.867666;0.489394;0.005712;0.0;0.0;0.0;0.0;0.0;0.0
2.0;1753875186.557911;18.27444;1.01;-1.69;-0.28;-0.868363;0.488001;0.003942;0.0;0.0;0.0;0.0;0.0;0.0
2.0;1753875186.56251;18.2586;0.99;-1.73;-0.34;-0.86928;0.487563;0.006805;0.0;0.0;0.0;0.0;0.0;0.0
2.0;1753875186.567109;18.24569;0.85;-1.78;-0.34;-0.867829;0.487763;0.00485;0.0;0.0;0.0;0.0;0.0;0.0
2.0;1753875186.571708;18.26003;0.92;-1.83;-0.34;-0.86701;0.488152;0.005436;0.0;0.0;0.0;0.0;0.0;0.0
2.0;1753875186.576308;18.26477;0.91;-1.67;-0.29;-0.868475;0.488634;0.004534;0.0;0.0;0.0;0.0;0.0;0.0
2.0;1753875186.580907;18.27046;0.85;-1.74;-0.32;-0.868156;0.486802;0.006232;0.0;0.0;0.0;0.0;0.0;0.0
2.0;1753875186.585506;18.27855;0.94;-1.83;-0.39;-0.866845;0.48669;0.006076;0.0;0.0;0.0;0.0;0.0;0.0
2.0;1753875186.590105;18.23591;0.89;-1.7;-0.38;-0.867212;0.488847;0.006175;0.0;0.0;0.0;0.0;0.0;0.0
2.0;1753875186.594704;18.28606;0.89;-1.84;-0.32;-0.868033;0.487046;0.005223;0.0;0.0;0.0;0.0;0.0;0.0
2.0;1753875186.599303;18.27296;0.87;-1.7;-0.34;-0.869065;0.487875;0.005487;0.0;0.0;0.0;0.0;0.0;0.0
2.0;1753875186.603902;18.24958;0.99;-1.7;-0.33;-0.867623;0.488083;0.005413;0.0;0.0;0.0;0.0;0.0;0.0
2.0;1753875186.608501;18.24089;1.0;-1.74;-0.37;-0.86842;0.487985;0.006141;0.0;0.0;0.0;0.0;0.0;0.0
2.0;1753875186.6131;18.23681;0.93;-1.72;-0.35;-0.866912;0.487145;0.005927;0.0;0.0;0.0;0.0;0.0;0.0
2.0;1753875186.6177;18.25244;0.87;-1.72;-0.31;-0.86777;0.488012;0.004893;0.0;0.0;0.0;0.0;0.0;0.0
2.0;1753875186.622298;18.24461;0.92;-1.72;-0.31;-0.867171;0.489511;0.004461;0.0;0.0;0.0;0.0;0.0;0.0
2.0;1753875186.626898;18.28618;0.96;-1.73;-0.35;-0.868124;0.487693;0.005828;0.0;0.0;0.0;0.0;0.0;0.0
2.0;1753875186.631497;18.23915;0.92;-1.77;-0.34;-0.866762;0.489617;0.005934;0.0;0.0;0.0;0.0;0.0;0.0
2.0;1753875186.636096;18.22961;0.9;-1.78;-0.34;-0.867292;0.489486;0.005352;0.0;0.0;0.0;0.0;0.0;0.0
2.0;1753875186.640695;18.24921;0.82;-1.75;-0.39;-0.868038;0.48878;0.005193;0.0;0.0;0.0;0.0;0.0;0.0
2.0;1753875186.645294;18.24106;0.83;-1.73;-0.35;-0.867843;0.48959;0.00574;0.0;0.0;0.0;0.0;0.0;0.0
2.0;1753875186.649893;18.27766;0.96;-1.73;-0.35;-0.868978;0.488202;0.005676;0.0;0.0;0.0;0.0;0.0;0.0
2.0;1753875186.654492;18.24432;0.95;-1.72;-0.3;-0.868088;0.487212;0.006106;0.0;0.0;0.0;0.0;0.0;0.0
2.0;1753875186.659091;18.25018;0.96;-1.72;-0.34;-0.867877;0.488184;0.005293;0.0;0.0;0.0;0.0;0.0;0.0
2.0;1753875186.66369;18.24187;0.91;-1.74;-0.34;-0.868069;0.489347;0.005582;0.0;0.0;0.0;0.0;0.0;0.0
2.0;1753875186.6698;18.25781;0.91;-1.75;-0.35;-0.867786;0.488366;0.005368;0.0;0.0;0.0;0.0;0.0;0.0
2.0;1753875186.674399;18.26494;0.9;-1.65;-0.31;-0.868035;0.48802;0.006293;0.0;0.0;0.0;0.0;0.0;0.0
2.0;1753875186.678998;18.26138;0.92;-1.65;-0.35;-0.868587;0.488787;0.006781;0.0;0.0;0.0;0.0;0.0;0.0
2.0;1753875186.683597;18.26792;0.95;-1.69;-0.29;-0.869502;0.486927;0.005821;0.0;0.0;0.0;0.0;0.0;0.0
2.0;1753875186.688196;18.27452;1.0;-1.66;-0.36;-0.868161;0.487618;0.00647;0.0;0.0;0.0;0.0;0.0;0.0
2.0;1753875186.69639;18.27344;0.98;-1.54;-0.35;-0.868762;0.487756;0.006466;0.0;0.0;0.0;0.0;0.0;0.0
2.0;1753875186.700989;18.28412;0.97;-1.47;-0.37;-0.869224;0.488288;0.006416;0.0;0.0;0.0;0.0;0.0;0.0
2.0;1753875186.705588;18.27831;0.99;-1.5;-0.34;-0.868753;0.48642;0.006291;0.0;0.0;0.0;0.0;0.0;0.0
2.0;1753875186.710187;18.26935;0.89;-1.52;-0.35;-0.869116;0.486689;0.008074;0.0;0.0;0.0;0.0;0.0;0.0
2.0;1753875186.714786;18.26192;0.85;-1.57;-0.33;-0.868608;0.487993;0.008278;0.0;0.0;0.0;0.0;0.0;0.0
2.0;1753875186.719386;18.26686;0.91;-1.53;-0.31;-0.86841;0.48871;0.005777;0.0;0.0;0.0;0.0;0.0;0.0
2.0;1753875186.723984;18.27196;1.04;-1.62;-0.41;-0.869084;0.487393;0.006341;0.0;0.0;0.0;0.0;0.0;0.0
2.0;1753875186.728584;18.27836;0.92;-1.56;-0.27;-0.869623;0.486372;0.006588;0.0;0.0;0.0;0.0;0.0;0.0
2.0;1753875186.733183;18.27819;0.96;-1.55;-0.43;-0.868849;0.487157;0.005441;0.0;0.0;0.0;0.0;0.0;0.0
2.0;1753875186.737782;18.27555;0.94;-1.46;-0.32;-0.867927;0.487078;0.006413;0.0;0.0;0.0;0.0;0.0;0.0
2.0;1753875186.742381;18.2821;0.86;-1.49;-0.28;-0.86879;0.487708;0.006655;0.0;0.0;0.0;0.0;0.0;0.0
2.0;1753875186.74698;18.28032;0.87;-1.51;-0.31;-0.869242;0.486754;0.006439;0.0;0.0;0.0;0.0;0.0;0.0
2.0;1753875186.751579;18.25537;0.83;-1.56;-0.32;-0.868674;0.487005;0.006288;0.0;0.0;0.0;0.0;0.0;0.0
2.0;1753875186.756178;18.2838;0.97;-1.58;-0.34;-0.868368;0.486057;0.005077;0.0;0.0;0.0;0.0;0.0;0.0
2.0;1753875186.760777;18.2771;0.84;-1.53;-0.31;-0.868433;0.48656;0.006072;0.0;0.0;0.0;0.0;0.0;0.0
2.0;1753875186.765376;18.28141;0.81;-1.54;-0.29;-0.869415;0.486995;0.005673;0.0;0.0;0.0;0.0;0.0;0.0
2.0;1753875186.769976;18.27318;0.85;-1.54;-0.35;-0.868254;0.486348;0.006241;0.0;0.0;0.0;0.0;0.0;0.0
2.0;1753875186.774574;18.28504;0.79;-1.63;-0.29;-0.868807;0.486231;0.007411;0.0;0.0;0.0;0.0;0.0;0.0
2.0;1753875186.779174;18.26683;0.78;-1.66;-0.28;-0.868772;0.484843;0.006533;0.0;0.0;0.0;0.0;0.0;0.0
2.0;1753875186.783773;18.29434;0.87;-1.62;-0.3;-0.868779;0.487022;0.007139;0.0;0.0;0.0;0.0;0.0;0.0
2.0;1753875186.788372;18.26985;0.74;-1.62;-0.34;-0.868428;0.486128;0.006105;0.0;0.0;0.0;0.0;0.0;0.0
2.0;1753875186.792971;18.2554;0.73;-1.64;-0.33;-0.869093;0.485414;0.005192;0.0;0.0;0.0;0.0;0.0;0.0
2.0;1753875186.80045;18.27344;0.77;-1.61;-0.28;-0.868274;0.486048;0.006222;0.0;0.0;0.0;0.0;0.0;0.0
2.0;1753875186.805049;18.27444;0.79;-1.6;-0.3;-0.867797;0.485815;0.005666;0.0;0.0;0.0;0.0;0.0;0.0
2.0;1753875186.809648;18.26981;0.81;-1.69;-0.24;-0.869186;0.487051;0.006367;0.0;0.0;0.0;0.0;0.0;0.0
2.0;1753875186.814247;18.24664;0.91;-1.6;-0.33;-0.870173;0.486932;0.005803;0.0;0.0;0.0;0.0;0.0;0.0
2.0;1753875186.818846;18.26611;0.8;-1.56;-0.34;-0.868439;0.487264;0.006843;0.0;0.0;0.0;0.0;0.0;0.0
2.0;1753875186.823446;18.24807;0.88;-1.69;-0.24;-0.867739;0.486756;0.005375;0.0;0.0;0.0;0.0;0.0;0.0
2.0;1753875186.828045;18.2518;0.87;-1.68;-0.32;-0.867949;0.488333;0.00619;0.0;0.0;0.0;0.0;0.0;0.0
2.0;1753875186.83283;18.25;0.98;-1.68;-0.28;-0.86864;0.488;0.005978;0.0;0.0;0.0;0.0;0.0;0.0
2.0;1753875186.837429;18.26207;0.96;-1.67;-0.22;-0.868957;0.487757;0.005642;0.0;0.0;0.0;0.0;0.0;0.0
2.0;1753875186.842028;18.26333;0.98;-1.65;-0.28;-0.868503;0.486953;0.006431;0.0;0.0;0.0;0.0;0.0;0.0
2.0;1753875186.846627;18.23198;0.95;-1.66;-0.27;-0.869672;0.489445;0.005675;0.0;0.0;0.0;0.0;0.0;0.0
2.0;1753875186.851226;18.23731;1.04;-1.68;-0.32;-0.868947;0.489081;0.00503;0.0;0.0;0.0;0.0;0.0;0.0
2.0;1753875186.855826;18.2641;0.94;-1.67;-0.29;-0.868724;0.487993;0.005917;0.0;0.0;0.0;0.0;0.0;0.0
2.0;1753875186.860424;18.25215;0.84;-1.69;-0.34;-0.868109;0.489059;0.00519;0.0;0.0;0.0;0.0;0.0;0.0
2.0;1753875186.865024;18.24314;0.92;-1.61;-0.26;-0.867979;0.48769;0.005504;0.0;0.0;0.0;0.0;0.0;0.0
2.0;1753875186.869623;18.2513;0.93;-1.66;-0.27;-0.868686;0.488962;0.005762;0.0;0.0;0.0;0.0;0.0;0.0
2.0;1753875186.874222;18.26115;0.72;-1.73;-0.24;-0.866642;0.488731;0.00615;0.0;0.0;0.0;0.0;0.0;0.0
2.0;1753875186.878821;18.25512;0.93;-1.67;-0.3;-0.866479;0.487662;0.0045;0.0;0.0;0.0;0.0;0.0;0.0
2.0;1753875186.88342;18.26271;0.95;-1.78;-0.29;-0.86857;0.488265;0.005227;0.0;0.0;0.0;0.0;0.0;0.0
2.0;1753875186.888019;18.27179;0.91;-1.67;-0.32;-0.86716;0.488854;0.005204;0.0;0.0;0.0;0.0;0.0;0.0
2.0;1753875186.892618;18.2385;0.81;-1.56;-0.29;-0.868253;0.488034;0.006201;0.0;0.0;0.0;0.0;0.0;0.0
2.0;1753875186.897217;18.25429;0.86;-1.57;-0.24;-0.8671;0.489538;0.005972;0.0;0.0;0.0;0.0;0.0;0.0
2.0;1753875186.901816;18.26639;0.77;-1.59;-0.33;-0.867343;0.489767;0.005058;0.0;0.0;0.0;0.0;0.0;0.0
2.0;1753875186.906416;18.27458;0.81;-1.62;-0.29;-0.866962;0.490643;0.005499;0.0;0.0;0.0;0.0;0.0;0.0
2.0;1753875186.91269;18.25;0.84;-1.61;-0.28;-0.86681;0.489464;0.005612;0.0;0.0;0.0;0.0;0.0;0.0
2.0;1753875186.917289;18.26069;0.83;-1.67;-0.26;-0.868612;0.488637;0.006355;0.0;0.0;0.0;0.0;0.0;0.0
2.0;1753875186.92381;18.25;0.84;-1.61;-0.35;-0.869616;0.486658;0.007198;0.0;0.0;0.0;0.0;0.0;0.0
2.0;1753875186.928409;18.25454;0.86;-1.68;-0.35;-0.868648;0.486623;0.006774;0.0;0.0;0.0;0.0;0.0;0.0
2.0;1753875186.933008;18.25584;0.84;-1.65;-0.4;-0.86937;0.487143;0.006985;0.0;0.0;0.0;0.0;0.0;0.0
2.0;1753875186.937607;18.27899;0.85;-1.6;-0.41;-0.86964;0.487472;0.006599;0.0;0.0;0.0;0.0;0.0;0.0
2.0;1753875186.942206;18.27641;0.88;-1.57;-0.35;-0.868631;0.48578;0.007224;0.0;0.0;0.0;0.0;0.0;0.0
2.0;1753875186.946806;18.24227;0.76;-1.63;-0.35;-0.867755;0.486327;0.006035;0.0;0.0;0.0;0.0;0.0;0.0
2.0;1753875186.951404;18.23987;0.79;-1.57;-0.37;-0.869173;0.487159;0.00676;0.0;0.0;0.0;0.0;0.0;0.0
2.0;1753875186.956004;18.25872;0.77;-1.68;-0.38;-0.868334;0.487879;0.006741;0.0;0.0;0.0;0.0;0.0;0.0
2.0;1753875186.960603;18.27258;0.87;-1.67;-0.39;-0.867544;0.485928;0.006313;0.0;0.0;0.0;0.0;0.0;0.0
2.0;1753875186.965202;18.25769;0.92;-1.6;-0.28;-0.868159;0.487182;0.005653;0.0;0.0;0.0;0.0;0.0;0.0
2.0;1753875186.969801;18.27377;0.73;-1.67;-0.42;-0.868407;0.488938;0.006104;0.0;0.0;0.0;0.0;0.0;0.0
2.0;1753875186.9744;18.27551;0.88;-1.63;-0.41;-0.868097;0.486471;0.00678;0.0;0.0;0.0;0.0;0.0;0.0
2.0;1753875186.978999;18.25581;0.85;-1.71;-0.41;-0.867415;0.486964;0.006132;0.0;0.0;0.0;0.0;0.0;0.0
2.0;1753875186.98595;18.25;0.84;-1.68;-0.35;-0.86681;0.487756;0.005734;0.0;0.0;0.0;0.0;0.0;0.0
2.0;1753875186.989406;18.27344;0.91;-1.54;-0.28;-0.868884;0.488488;0.004636;0.0;0.0;0.0;0.0;0.0;0.0
2.0;1753875186.993521;18.27344;0.84;-1.68;-0.28;-0.867542;0.488;0.006466;0.0;0.0;0.0;0.0;0.0;0.0
2.0;1753875186.998332;18.25781;0.84;-1.75;-0.35;-0.867542;0.488122;0.005612;0.0;0.0;0.0;0.0;0.0;0.0
2.0;1753875187.002931;18.26387;0.88;-1.71;-0.32;-0.867592;0.486949;0.005212;0.0;0.0;33.7;0.0;0.0;0.1
2.0;1753875187.00753;18.25201;0.73;-1.76;-0.27;-0.866625;0.489351;0.005571;0.0;0.0;10.5;0.0;0.0;11.3
2.0;1753875187.012129;18.25986;0.87;-1.73;-0.45;-0.866341;0.487809;0.005877;0.0;0.0;-32.8;0.0;0.0;-18.3
2.0;1753875187.016728;18.25603;0.88;-1.7;-0.28;-0.867474;0.48902;0.004078;0.0;0.0;44.9;0.0;0.0;8.5
2.0;1753875187.021328;18.2589;0.84;-1.77;-0.46;-0.866947;0.488165;0.004874;0.0;0.0;93.6;0.0;0.0;-3.2
2.0;1753875187.025926;18.25906;0.86;-1.76;-0.29;-0.868119;0.487072;0.004587;0.0;0.0;-38.7;0.0;0.0;-19.3
2.0;1753875187.030526;18.24826;0.83;-1.72;-0.35;-0.86884;0.487921;0.006154;0.0;0.0;15.5;0.0;0.0;-0.2
2.0;1753875187.035125;18.26806;0.85;-1.74;-0.45;-0.867366;0.490089;0.005287;0.0;0.0;3.7;0.0;0.0;5.8
2.0;1753875187.039724;18.262;0.85;-1.82;-0.26;-0.868791;0.49102;0.004527;0.0;0.0;125.0;0.0;0.0;9.2
2.0;1753875187.044323;18.26115;0.83;-1.74;-0.37;-0.869323;0.487203;0.004677;0.0;0.0;-16.4;0.0;0.0;-2.4
2.0;1753875187.048922;18.24262;0.83;-1.74;-0.4;-0.867285;0.487085;0.006168;0.0;0.0;-93.6;0.0;0.0;0.8
2.0;1753875187.053521;18.24842;0.88;-1.83;-0.37;-0.867723;0.485225;0.004915;0.0;0.0;-129.8;0.0;0.0;-0.2
2.0;1753875187.05812;18.24765;0.9;-1.66;-0.4;-0.868352;0.485806;0.006431;0.0;0.0;60.1;0.0;0.0;6.6
2.0;1753875187.062719;18.25811;0.73;-1.72;-0.45;-0.867994;0.489321;0.004186;0.0;0.0;59.9;0.0;0.0;6.7
2.0;1753875187.067318;18.25704;0.92;-1.77;-0.25;-0.867647;0.487904;0.006621;0.0;0.0;74.2;0.0;0.0;-10.7
2.0;1753875187.071918;18.26913;0.74;-1.8;-0.29;-0.870047;0.488172;0.004087;0.0;0.0;51.7;0.0;0.0;-8.3
2.0;1753875187.076517;18.27108;0.93;-1.69;-0.33;-0.866407;0.489126;0.005013;0.0;0.0;14.0;0.0;0.0;7.2
2.0;1753875187.081116;18.27625;0.85;-1.73;-0.37;-0.869573;0.48937;0.005039;0.0;0.0;-16.9;0.0;0.0;-5.0
2.0;1753875187.085715;18.27288;0.76;-1.85;-0.3;-0.868588;0.487326;0.005338;0.0;0.0;-7.9;0.0;0.0;-22.4
2.0;1753875187.090314;18.24398;0.76;-1.65;-0.29;-0.867547;0.486811;0.005332;0.0;0.0;-27.8;0.0;0.0;14.9
2.0;1753875187.094913;18.26305;0.75;-1.83;-0.31;-0.8682;0.488051;0.005178;0.0;0.0;35.1;0.0;0.0;-8.3
2.0;1753875187.099512;18.26644;0.79;-1.75;-0.39;-0.865081;0.486605;0.006349;0.0;0.0;-42.0;0.0;0.0;-5.4
2.0;1753875187.104111;18.25502;0.93;-1.72;-0.37;-0.867979;0.484766;0.003863;0.0;0.0;73.8;0.0;0.0;-0.0
2.0;1753875187.10871;18.25093;0.87;-1.71;-0.39;-0.868794;0.486925;0.003612;0.0;0.0;42.7;0.0;0.0;-4.9
2.0;1753875187.11331;18.2548;0.76;-1.71;-0.38;-0.867445;0.488064;0.005273;0.0;0.0;-43.0;0.0;0.0;10.2
2.0;1753875187.117908;18.24503;0.75;-1.75;-0.37;-0.868215;0.490146;0.004523;0.0;0.0;-29.7;0.0;0.0;6.1
2.0;1753875187.122508;18.25407;0.78;-1.69;-0.42;-0.867795;0.486664;0.00656;0.0;0.0;-34.9;0.0;0.0;10.5
2.0;1753875187.127107;18.25645;0.83;-1.66;-0.38;-0.867611;0.485665;0.005018;0.0;0.0;49.7;0.0;0.0;5.4
2.0;1753875187.131706;18.26277;0.8;-1.83;-0.34;-0.867546;0.48583;0.003939;0.0;0.0;28.9;0.0;0.0;-3.4
2.0;1753875187.136305;18.25255;0.8;-1.74;-0.39;-0.868113;0.485929;0.006449;0.0;0.0;125.3;0.0;0.0;-0.5
2.0;1753875187.140904;18.26873;0.77;-1.8;-0.38;-0.867934;0.486481;0.00532;0.0;0.0;-62.1;0.0;0.0;1.1
2.0;1753875187.145503;18.25783;0.9;-1.78;-0.35;-0.866917;0.48705;0.004662;0.0;0.0;-44.5;0.0;0.0;-17.4
2.0;1753875187.150102;18.24746;0.77;-1.81;-0.32;-0.867415;0.486373;0.005891;0.0;0.0;4.3;0.0;0.0;12.1
2.0;1753875187.154701;18.25727;0.75;-1.78;-0.35;-0.867959;0.487944;0.005632;0.0;0.0;-97.4;0.0;0.0;20.6
2.0;1753875187.1593;18.24806;0.82;-1.65;-0.36;-0.866091;0.488996;0.006086;0.0;0.0;34.5;0.0;0.0;4.0
2.0;1753875187.1639;18.25553;0.72;-1.72;-0.4;-0.868348;0.487981;0.004818;0.0;0.0;-89.7;0.0;0.0;-8.0
2.0;1753875187.168498;18.26395;0.8;-1.77;-0.3;-0.866439;0.486802;0.005508;0.0;0.0;26.4;0.0;0.0;9.8
2.0;1753875187.173098;18.26177;0.8;-1.78;-0.28;-0.866743;0.487799;0.005649;0.0;0.0;11.1;0.0;0.0;13.8
2.0;1753875187.177697;18.24169;0.83;-1.72;-0.41;-0.868035;0.486332;0.005782;0.0;0.0;69.6;0.0;0.0;-10.7
2.0;1753875187.182296;18.26316;0.79;-1.69;-0.26;-0.866552;0.487764;0.004893;0.0;0.0;8.7;0.0;0.0;-5.0
2.0;1753875187.186895;18.2358;0.76;-1.75;-0.32;-0.865171;0.487622;0.005608;0.0;0.0;-58.7;0.0;0.0;-3.2
2.0;1753875187.191494;18.24363;0.81;-1.68;-0.38;-0.867896;0.489929;0.00489;0.0;0.0;162.7;0.0;0.0;-10.5
2.0;1753875187.196093;18.2712;0.66;-1.75;-0.41;-0.868523;0.488676;0.004947;0.0;0.0;-47.3;0.0;0.0;-3.7
2.0;1753875187.200692;18.25808;0.73;-1.81;-0.3;-0.86731;0.48464;0.005421;0.0;0.0;2.1;0.0;0.0;-15.0
2.0;1753875187.205291;18.25552;0.8;-1.73;-0.35;-0.868084;0.487538;0.004449;0.0;0.0;45.8;0.0;0.0;5.7
2.0;1753875187.20989;18.25739;0.8;-1.75;-0.42;-0.867874;0.489034;0.005381;0.0;0.0;20.1;0.0;0.0;-20.8
2.0;1753875187.21449;18.26484;0.8;-1.77;-0.35;-0.86803;0.487152;0.005685;0.0;0.0;99.5;0.0;0.0;3.6
2.0;1753875187.219088;18.27512;0.81;-1.74;-0.34;-0.867576;0.486752;0.004143;0.0;0.0;-42.8;0.0;0.0;0.8
2.0;1753875187.223688;18.27508;0.78;-1.73;-0.39;-0.867039;0.48423;0.004242;0.0;0.0;52.1;0.0;0.0;10.4
2.0;1753875187.228287;18.24498;0.67;-1.72;-0.36;-0.867435;0.48635;0.005664;0.0;0.0;17.8;0.0;0.0;-11.0
2.0;1753875187.232886;18.26565;0.75;-1.8;-0.47;-0.867666;0.486317;0.005896;0.0;0.0;31.5;0.0;0.0;-1.9
2.0;1753875187.237485;18.24794;0.81;-1.83;-0.34;-0.868218;0.488991;0.005748;0.0;0.0;-39.5;0.0;0.0;3.0
2.0;1753875187.242084;18.26264;0.76;-1.66;-0.35;-0.866199;0.48729;0.005454;0.0;0.0;100.4;0.0;0.0;1.5
2.0;1753875187.246683;18.24584;0.75;-1.66;-0.34;-0.868094;0.487899;0.004522;0.0;0.0;6.0;0.0;0.0;-3.0
2.0;1753875187.251282;18.26036;0.74;-1.78;-0.44;-0.868622;0.484666;0.004039;0.0;0.0;-34.8;0.0;0.0;8.4
2.0;1753875187.255881;18.26476;0.75;-1.7;-0.38;-0.867609;0.488995;0.004322;0.0;0.0;-38.7;0.0;0.0;2.0
2.0;1753875187.26048;18.25541;0.8;-1.82;-0.32;-0.868122;0.487631;0.006303;0.0;0.0;43.0;0.0;0.0;1.7
2.0;1753875187.2648;18.25781;0.77;-1.75;-0.35;-0.86742;0.487268;0.005124;0.0;0.0;0.0;0.0;0.0;0.0
2.0;1753875187.269399;18.25256;0.92;-1.75;-0.46;-0.867439;0.485491;0.004789;0.0;0.0;0.0;0.0;0.0;0.0
2.0;1753875187.273998;18.264;0.8;-1.71;-0.34;-0.867827;0.486829;0.004609;0.0;0.0;0.0;0.0;0.0;0.0
2.0;1753875187.278597;18.26171;0.88;-1.79;-0.38;-0.868429;0.486934;0.005407;0.0;0.0;0.0;0.0;0.0;0.0
2.0;1753875187.283196;18.25521;0.86;-1.68;-0.28;-0.866751;0.48552;0.004981;0.0;0.0;0.0;0.0;0.0;0.0
2.0;1753875187.287796;18.25916;0.89;-1.64;-0.35;-0.867916;0.488132;0.0035;0.0;0.0;0.0;0.0;0.0;0.0
2.0;1753875187.292395;18.26971;0.94;-1.68;-0.4;-0.869846;0.485918;0.004584;0.0;0.0;0.0;0.0;0.0;0.0
2.0;1753875187.296994;18.27496;1.02;-1.74;-0.27;-0.868236;0.485949;0.005032;0.0;0.0;0.0;0.0;0.0;0.0
2.0;1753875187.301593;18.26916;0.91;-1.74;-0.32;-0.869505;0.48686;0.005147;0.0;0.0;0.0;0.0;0.0;0.0
2.0;1753875187.30714;18.27344;0.98;-1.68;-0.28;-0.868396;0.486292;0.00549;0.0;0.0;0.0;0.0;0.0;0.0
2.0;1753875187.311739;18.27256;0.93;-1.7;-0.27;-0.868355;0.487465;0.004861;0.0;0.0;0.0;0.0;0.0;0.0
2.0;1753875187.316338;18.27964;1.0;-1.72;-0.36;-0.868957;0.485432;0.005759;0.0;0.0;0.0;0.0;0.0;0.0
2.0;1753875187.320938;18.27132;0.99;-1.72;-0.35;-0.867903;0.487819;0.006786;0.0;0.0;0.0;0.0;0.0;0.0
2.0;1753875187.325536;18.27057;0.86;-1.56;-0.27;-0.868125;0.487919;0.004262;0.0;0.0;0.0;0.0;0.0;0.0
2.0;1753875187.330136;18.26545;0.98;-1.62;-0.2;-0.869029;0.488484;0.005451;0.0;0.0;0.0;0.0;0.0;0.0
2.0;1753875187.334735;18.27239;0.87;-1.79;-0.11;-0.868479;0.488193;0.004608;0.0;0.0;0.0;0.0;0.0;0.0
2.0;1753875187.339334;18.26272;0.78;-1.68;-0.35;-0.869987;0.487909;0.005272;0.0;0.0;0.0;0.0;0.0;0.0
2.0;1753875187.343933;18.27035;0.84;-1.74;-0.31;-0.867987;0.486241;0.004876;0.0;0.0;0.0;0.0;0.0;0.0
2.0;1753875187.34906;18.26562;0.84;-1.75;-0.28;-0.86864;0.487756;0.005246;0.0;0.0;0.0;0.0;0.0;0.0
2.0;1753875187.353659;18.2619;0.9;-1.69;-0.37;-0.867641;0.486467;0.006722;0.0;0.0;0.0;0.0;0.0;0.0
2.0;1753875187.358258;18.27486;0.92;-1.74;-0.28;-0.868464;0.48751;0.00634;0.0;0.0;0.0;0.0;0.0;0.0
2.0;1753875187.362857;18.26437;0.87;-1.54;-0.27;-0.869367;0.488385;0.005674;0.0;0.0;0.0;0.0;0.0;0.0
2.0;1753875187.367456;18.26171;0.8;-1.78;-0.34;-0.868144;0.489699;0.004447;0.0;0.0;0.0;0.0;0.0;0.0
2.0;1753875187.372056;18.27068;0.88;-1.77;-0.28;-0.868241;0.48745;0.005224;0.0;0.0;0.0;0.0;0.0;0.0
2.0;1753875187.376654;18.26153;0.91;-1.53;-0.21;-0.86913;0.490493;0.00526;0.0;0.0;0.0;0.0;0.0;0.0
2.0;1753875187.381254;18.27418;0.89;-1.72;-0.25;-0.868037;0.487728;0.005582;0.0;0.0;0.0;0.0;0.0;0.0
2.0;1753875187.385853;18.25873;0.82;-1.78;-0.17;-0.868306;0.488288;0.006693;0.0;0.0;0.0;0.0;0.0;0.0
2.0;1753875187.39273;18.26562;0.84;-1.68;-0.21;-0.868396;0.488732;0.005978;0.0;0.0;0.0;0.0;0.0;0.0
2.0;1753875187.397329;18.27113;0.8;-1.71;-0.21;-0.867987;0.49137;0.007287;0.0;0.0;0.0;0.0;0.0;0.0
2.0;1753875187.401928;18.26759;0.85;-1.62;-0.29;-0.86913;0.488202;0.004454;0.0;0.0;0.0;0.0;0.0;0.0
2.0;1753875187.406527;18.27455;0.99;-1.67;-0.14;-0.869396;0.488138;0.006349;0.0;0.0;0.0;0.0;0.0;0.0
2.0;1753875187.411126;18.27281;0.85;-1.75;-0.2;-0.869182;0.486291;0.006309;0.0;0.0;0.0;0.0;0.0;0.0
2.0;1753875187.415726;18.25981;0.88;-1.55;-0.2;-0.868928;0.48731;0.0061;0.0;0.0;0.0;0.0;0.0;0.0
2.0;1753875187.420324;18.26631;0.87;-1.73;-0.29;-0.867681;0.487609;0.006582;0.0;0.0;0.0;0.0;0.0;0.0
2.0;1753875187.424924;18.27086;0.98;-1.56;-0.17;-0.868479;0.488694;0.006534;0.0;0.0;0.0;0.0;0.0;0.0
2.0;1753875187.429523;18.26288;0.88;-1.77;-0.2;-0.869491;0.486918;0.005658;0.0;0.0;0.0;0.0;0.0;0.0
2.0;1753875187.434122;18.26753;0.82;-1.67;-0.19;-0.867757;0.485795;0.007309;0.0;0.0;0.0;0.0;0.0;0.0
2.0;1753875187.43839;18.26562;0.91;-1.68;-0.21;-0.868396;0.486536;0.006588;0.0;0.0;0.0;0.0;0.0;0.0
2.0;1753875187.442989;18.2701;0.82;-1.69;-0.26;-0.867562;0.488932;0.00605;0.0;0.0;0.0;0.0;0.0;0.0
2.0;1753875187.447588;18.26398;0.88;-1.62;-0.22;-0.868255;0.486806;0.006066;0.0;0.0;0.0;0.0;0.0;0.0
2.0;1753875187.452187;18.27096;0.86;-1.78;-0.19;-0.869227;0.487;0.005877;0.0;0.0;0.0;0.0;0.0;0.0
2.0;1753875187.456786;18.26598;0.86;-1.62;-0.22;-0.868892;0.484738;0.007405;0.0;0.0;0.0;0.0;0.0;0.0
2.0;1753875187.461386;18.25812;1.04;-1.76;-0.19;-0.867375;0.485569;0.00633;0.0;0.0;0.0;0.0;0.0;0.0
2.0;1753875187.465984;18.27847;1.05;-1.67;-0.23;-0.868044;0.488972;0.006982;0.0;0.0;0.0;0.0;0.0;0.0
2.0;1753875187.470584;18.26242;0.95;-1.57;-0.16;-0.868933;0.485578;0.006602;0.0;0.0;0.0;0.0;0.0;0.0
2.0;1753875187.475183;18.2729;0.99;-1.69;-0.27;-0.869245;0.487483;0.007881;0.0;0.0;0.0;0.0;0.0;0.0
2.0;1753875187.48317;18.26562;0.98;-1.68;-0.21;-0.868396;0.486536;0.006588;0.0;0.0;0.0;0.0;0.0;0.0
2.0;1753875187.487769;18.26474;1.0;-1.74;-0.26;-0.868136;0.486449;0.006766;0.0;0.0;0.0;0.0;0.0;0.0
2.0;1753875187.492368;18.2578;0.91;-1.71;-0.14;-0.86836;0.485301;0.007484;0.0;0.0;0.0;0.0;0.0;0.0
2.0;1753875187.496967;18.26719;0.88;-1.56;-0.22;-0.868624;0.48653;0.007729;0.0;0.0;0.0;0.0;0.0;0.0
2.0;1753875187.501566;18.25425;0.95;-1.7;-0.22;-0.868807;0.48848;0.006116;0.0;0.0;0.0;0.0;0.0;0.0
2.0;1753875187.506166;18.26356;0.99;-1.64;-0.32;-0.867842;0.489337;0.007038;0.0;0.0;0.0;0.0;0.0;0.0
2.0;1753875187.510764;18.25048;0.95;-1.72;-0.28;-0.866419;0.48784;0.005364;0.0;0.0;0.0;0.0;0.0;0.0
2.0;1753875187.515364;18.24499;0.97;-1.76;-0.35;-0.867729;0.486399;0.004679;0.0;0.0;0.0;0.0;0.0;0.0
2.0;1753875187.519963;18.24783;1.04;-1.66;-0.3;-0.86697;0.48854;0.005396;0.0;0.0;0.0;0.0;0.0;0.0
2.0;1753875187.524562;18.26456;0.9;-1.79;-0.44;-0.868272;0.488563;0.007024;0.0;0.0;0.0;0.0;0.0;0.0
2.0;1753875187.529161;18.25245;0.89;-1.69;-0.31;-0.867575;0.489229;0.004709;0.0;0.0;0.0;0.0;0.0;0.0
2.0;1753875187.53701;18.25;0.91;-1.75;-0.35;-0.867664;0.488976;0.005612;0.0;0.0;0.0;0.0;0.0;0.0
2.0;1753875187.541609;18.25219;0.98;-1.82;-0.24;-0.867147;0.49096;0.006492;0.0;0.0;0.0;0.0;0.0;0.0
2.0;1753875187.546208;18.24842;0.92;-1.87;-0.29;-0.868199;0.49291;0.006095;0.0;0.0;0.0;0.0;0.0;0.0
2.0;1753875187.550807;18.24445;0.85;-1.7;-0.36;-0.867634;0.487517;0.005283;0.0;0.0;0.0;0.0;0.0;0.0
2.0;1753875187.555406;18.23974;1.07;-1.68;-0.45;-0.86813;0.48809;0.004474;0.0;0.0;0.0;0.0;0.0;0.0
2.0;1753875187.560006;18.24115;0.94;-1.68;-0.33;-0.868853;0.49021;0.005601;0.0;0.0;0.0;0.0;0.0;0.0
2.0;1753875187.564604;18.25464;0.95;-1.84;-0.31;-0.868568;0.489494;0.004639;0.0;0.0;0.0;0.0;0.0;0.0
2.0;1753875187.569204;18.25188;0.94;-1.78;-0.37;-0.868458;0.489182;0.004309;0.0;0.0;0.0;0.0;0.0;0.0
2.0;1753875187.573803;18.24848;0.87;-1.67;-0.31;-0.868096;0.490175;0.005552;0.0;0.0;0.0;0.0;0.0;0.0
2.0;1753875187.578402;18.24211;0.83;-1.79;-0.31;-0.866142;0.488118;0.002814;0.0;0.0;0.0;0.0;0.0;0.0
2.0;1753875187.583001;18.25073;0.88;-1.65;-0.4;-0.867772;0.490233;0.004168;0.0;0.0;0.0;0.0;0.0;0.0
2.0;1753875187.5876;18.26156;0.85;-1.76;-0.38;-0.868142;0.488375;0.004632;0.0;0.0;0.0;0.0;0.0;0.0
2.0;1753875187.592199;18.26203;0.96;-1.72;-0.29;-0.868131;0.49076;0.003809;0.0;0.0;0.0;0.0;0.0;0.0
2.0;1753875187.596798;18.24321;0.83;-1.74;-0.28;-0.869662;0.486816;0.004174;0.0;0.0;0.0;0.0;0.0;0.0
2.0;1753875187.601397;18.24608;0.88;-1.79;-0.3;-0.867534;0.488991;0.003672;0.0;0.0;0.0;0.0;0.0;0.0
2.0;1753875187.605996;18.25549;0.81;-1.76;-0.26;-0.867763;0.490612;0.004838;0.0;0.0;0.0;0.0;0.0;0.0
2.0;1753875187.610596;18.24644;0.94;-1.75;-0.43;-0.868288;0.487069;0.005456;0.0;0.0;0.0;0.0;0.0;0.0
2.0;1753875187.61567;18.25;0.91;-1.75;-0.35;-0.868518;0.487268;0.004026;0.0;0.0;0.0;0.0;0.0;0.0
2.0;1753875187.62087;18.25;0.91;-1.68;-0.35;-0.868884;0.487878;0.005002;0.0;0.0;0.0;0.0;0.0;0.0
2.0;1753875187.625469;18.25719;0.9;-1.67;-0.25;-0.869452;0.489951;0.005987;0.0;0.0;0.0;0.0;0.0;0.0
2.0;1753875187.630068;18.25525;0.86;-1.83;-0.38;-0.869145;0.489891;0.005025;0.0;0.0;0.0;0.0;0.0;0.0
2.0;1753875187.634668;18.26967;0.96;-1.67;-0.34;-0.868538;0.488369;0.004883;0.0;0.0;0.0;0.0;0.0;0.0
2.0;1753875187.639266;18.24648;0.86;-1.74;-0.3;-0.869193;0.487781;0.00418;0.0;0.0;0.0;0.0;0.0;0.0
2.0;1753875187.643866;18.24735;0.84;-1.69;-0.3;-0.867508;0.488273;0.005493;0.0;0.0;0.0;0.0;0.0;0.0
2.0;1753875187.648465;18.24822;1.0;-1.79;-0.29;-0.868008;0.488163;0.005085;0.0;0.0;0.0;0.0;0.0;0.0
2.0;1753875187.653064;18.25381;0.93;-1.75;-0.31;-0.868918;0.486082;0.005047;0.0;0.0;0.0;0.0;0.0;0.0
2.0;1753875187.657663;18.24905;0.92;-1.74;-0.25;-0.868639;0.487598;0.004788;0.0;0.0;0.0;0.0;0.0;0.0
2.0;1753875187.662262;18.25666;0.9;-1.74;-0.32;-0.867001;0.487338;0.004615;0.0;0.0;0.0;0.0;0.0;0.0
2.0;1753875187.666861;18.25655;0.94;-1.6;-0.29;-0.869057;0.489114;0.004682;0.0;0.0;0.0;0.0;0.0;0.0
2.0;1753875187.67146;18.24849;0.97;-1.62;-0.33;-0.868615;0.487154;0.005634;0.0;0.0;0.0;0.0;0.0;0.0
2.0;1753875187.676059;18.25157;0.93;-1.66;-0.35;-0.86788;0.489289;0.005927;0.0;0.0;0.0;0.0;0.0;0.0
2.0;1753875187.680658;18.23456;0.91;-1.79;-0.17;-0.867781;0.488282;0.006226;0.0;0.0;0.0;0.0;0.0;0.0
2.0;1753875187.685258;18.25602;0.95;-1.72;-0.23;-0.865859;0.488169;0.0039;0.0;0.0;0.0;0.0;0.0;0.0
2.0;1753875187.689856;18.25121;1.04;-1.59;-0.31;-0.867535;0.488645;0.004461;0.0;0.0;0.0;0.0;0.0;0.0
2.0;1753875187.69462;18.25;0.98;-1.68;-0.28;-0.867664;0.48861;0.00549;0.0;0.0;0.0;0.0;0.0;0.0
2.0;1753875187.699219;18.24297;1.04;-1.64;-0.27;-0.868031;0.48876;0.005453;0.0;0.0;0.0;0.0;0.0;0.0
2.0;1753875187.703818;18.24271;0.95;-1.66;-0.23;-0.869219;0.486532;0.005715;0.0;0.0;0.0;0.0;0.0;0.0
2.0;1753875187.708417;18.24544;1.03;-1.69;-0.37;-0.868562;0.487569;0.006531;0.0;0.0;0.0;0.0;0.0;0.0
2.0;1753875187.713016;18.25138;0.99;-1.71;-0.22;-0.868835;0.486759;0.005562;0.0;0.0;0.0;0.0;0.0;0.0
2.0;1753875187.71743;18.25781;0.98;-1.68;-0.35;-0.869616;0.486536;0.005612;0.0;0.0;0.0;0.0;0.0;0.0
2.0;1753875187.722029;18.23949;0.88;-1.68;-0.39;-0.869881;0.486934;0.005836;0.0;0.0;0.0;0.0;0.0;0.0
2.0;1753875187.726628;18.263;0.87;-1.6;-0.28;-0.869142;0.488468;0.004851;0.0;0.0;0.0;0.0;0.0;0.0
2.0;1753875187.731228;18.26405;0.91;-1.71;-0.42;-0.868972;0.487088;0.006315;0.0;0.0;0.0;0.0;0.0;0.0
2.0;1753875187.735826;18.25423;0.96;-1.64;-0.35;-0.868922;0.487332;0.005619;0.0;0.0;0.0;0.0;0.0;0.0
2.0;1753875187.740426;18.25836;0.93;-1.6;-0.35;-0.868057;0.486574;0.004984;0.0;0.0;0.0;0.0;0.0;0.0
2.0;1753875187.745025;18.27465;0.9;-1.62;-0.42;-0.869195;0.488113;0.004924;0.0;0.0;0.0;0.0;0.0;0.0
2.0;1753875187.749624;18.26761;1.01;-1.64;-0.34;-0.869103;0.489524;0.005455;0.0;0.0;0.0;0.0;0.0;0.0
2.0;1753875187.754223;18.25305;0.99;-1.69;-0.46;-0.869807;0.488579;0.005736;0.0;0.0;0.0;0.0;0.0;0.0
2.0;1753875187.7627;18.25781;0.91;-1.61;-0.35;-0.869128;0.489708;0.00488;0.0;0.0;0.0;0.0;0.0;0.0
2.0;1753875187.767299;18.26678;0.87;-1.66;-0.28;-0.869182;0.488386;0.003635;0.0;0.0;0.0;0.0;0.0;0.0
2.0;1753875187.771898;18.25553;0.87;-1.54;-0.35;-0.868561;0.490059;0.005381;0.0;0.0;0.0;0.0;0.0;0.0
2.0;1753875187.776497;18.25082;0.88;-1.6;-0.26;-0.868535;0.488592;0.005485;0.0;0.0;0.0;0.0;0.0;0.0
2.0;1753875187.781096;18.25382;0.89;-1.58;-0.35;-0.869744;0.489409;0.005491;0.0;0.0;0.0;0.0;0.0;0.0
2.0;1753875187.785696;18.26097;0.88;-1.64;-0.39;-0.867832;0.487741;0.006338;0.0;0.0;0.0;0.0;0.0;0.0
2.0;1753875187.790295;18.26358;0.79;-1.42;-0.31;-0.868672;0.488459;0.005657;0.0;0.0;0.0;0.0;0.0;0.0
2.0;1753875187.794894;18.25803;0.82;-1.54;-0.36;-0.868728;0.486463;0.005675;0.0;0.0;0.0;0.0;0.0;0.0
2.0;1753875187.799493;18.26345;0.97;-1.56;-0.33;-0.86756;0.486704;0.005762;0.0;0.0;0.0;0.0;0.0;0.0
2.0;1753875187.8043;18.25781;0.84;-1.61;-0.35;-0.867908;0.486292;0.005978;0.0;0.0;0.0;0.0;0.0;0.0
2.0;1753875187.808899;18.26551;0.81;-1.62;-0.37;-0.86822;0.485954;0.006694;0.0;0.0;0.0;0.0;0.0;0.0
2.0;1753875187.813498;18.25096;0.87;-1.64;-0.25;-0.867476;0.486342;0.006006;0.0;0.0;0.0;0.0;0.0;0.0
2.0;1753875187.818097;18.25472;0.87;-1.76;-0.38;-0.867133;0.487568;0.004427;0.0;0.0;0.0;0.0;0.0;0.0
2.0;1753875187.822696;18.26853;0.96;-1.57;-0.31;-0.869908;0.487408;0.006223;0.0;0.0;0.0;0.0;0.0;0.0
2.0;1753875187.827296;18.2629;0.94;-1.55;-0.31;-0.868421;0.488749;0.005735;0.0;0.0;0.0;0.0;0.0;0.0
2.0;1753875187.831895;18.26231;1.01;-1.58;-0.31;-0.868406;0.488247;0.006472;0.0;0.0;0.0;0.0;0.0;0.0
2.0;1753875187.836494;18.2534;0.89;-1.69;-0.32;-0.868889;0.489358;0.006022;0.0;0.0;0.0;0.0;0.0;0.0
2.0;1753875187.841093;18.26017;1.01;-1.58;-0.29;-0.869267;0.488677;0.005662;0.0;0.0;0.0;0.0;0.0;0.0
2.0;1753875187.845692;18.26588;0.87;-1.65;-0.23;-0.868616;0.489778;0.007425;0.0;0.0;0.0;0.0;0.0;0.0
2.0;1753875187.85014;18.25781;0.91;-1.61;-0.35;-0.868884;0.488854;0.005856;0.0;0.0;0.0;0.0;0.0;0.0
2.0;1753875187.854739;18.25641;0.83;-1.59;-0.39;-0.868257;0.489315;0.005139;0.0;0.0;0.0;0.0;0.0;0.0
2.0;1753875187.859338;18.25324;0.9;-1.62;-0.48;-0.869199;0.489254;0.006561;0.0;0.0;0.0;0.0;0.0;0.0
2.0;1753875187.863938;18.27528;0.85;-1.73;-0.5;-0.869229;0.488812;0.004888;0.0;0.0;0.0;0.0;0.0;0.0
2.0;1753875187.868536;18.27483;0.88;-1.61;-0.47;-0.869463;0.487791;0.00746;0.0;0.0;0.0;0.0;0.0;0.0
2.0;1753875187.873136;18.25719;0.89;-1.64;-0.35;-0.869212;0.486578;0.00698;0.0;0.0;0.0;0.0;0.0;0.0
2.0;1753875187.877735;18.27721;0.89;-1.7;-0.36;-0.869393;0.487026;0.006236;0.0;0.0;0.0;0.0;0.0;0.0
2.0;1753875187.882334;18.28605;0.86;-1.62;-0.49;-0.869065;0.487457;0.005778;0.0;0.0;0.0;0.0;0.0;0.0
2.0;1753875187.886933;18.2813;0.89;-1.61;-0.49;-0.868665;0.487033;0.005469;0.0;0.0;0.0;0.0;0.0;0.0
2.0;1753875187.891532;18.27661;0.83;-1.6;-0.43;-0.867672;0.488148;0.005647;0.0;0.0;0.0;0.0;0.0;0.0
2.0;1753875187.8958;18.28906;0.91;-1.68;-0.42;-0.868396;0.487878;0.006588;0.0;0.0;0.0;0.0;0.0;0.0
2.0;1753875187.900399;18.29597;0.93;-1.65;-0.45;-0.868625;0.487422;0.006643;0.0;0.0;0.0;0.0;0.0;0.0
2.0;1753875187.904998;18.30865;0.99;-1.69;-0.36;-0.868849;0.489008;0.006696;0.0;0.0;0.0;0.0;0.0;0.0
2.0;1753875187.909598;18.26292;0.83;-1.76;-0.44;-0.868895;0.487484;0.006161;0.0;0.0;0.0;0.0;0.0;0.0
2.0;1753875187.914196;18.29412;0.93;-1.72;-0.3;-0.869117;0.487448;0.006704;0.0;0.0;0.0;0.0;0.0;0.0
2.0;1753875187.918796;18.28061;0.85;-1.72;-0.34;-0.867115;0.48731;0.005268;0.0;0.0;0.0;0.0;0.0;0.0
2.0;1753875187.923395;18.26591;0.93;-1.69;-0.49;-0.86855;0.488256;0.006979;0.0;0.0;0.0;0.0;0.0;0.0
2.0;1753875187.927994;18.28708;0.96;-1.69;-0.38;-0.867503;0.486945;0.006725;0.0;0.0;0.0;0.0;0.0;0.0
2.0;1753875187.932593;18.29855;1.07;-1.74;-0.39;-0.868317;0.4874;0.00507;0.0;0.0;0.0;0.0;0.0;0.0
2.0;1753875187.94116;18.28906;0.98;-1.75;-0.35;-0.86864;0.487878;0.005978;0.0;0.0;0.0;0.0;0.0;0.0
2.0;1753875187.945759;18.28078;0.94;-1.79;-0.3;-0.869124;0.487223;0.006816;0.0;0.0;0.0;0.0;0.0;0.0
2.0;1753875187.950358;18.28723;0.86;-1.7;-0.49;-0.869966;0.488539;0.005341;0.0;0.0;0.0;0.0;0.0;0.0
2.0;1753875187.954957;18.31097;0.92;-1.83;-0.43;-0.869251;0.48872;0.006801;0.0;0.0;0.0;0.0;0.0;0.0
2.0;1753875187.959556;18.30447;0.91;-1.62;-0.28;-0.868551;0.489145;0.005832;0.0;0.0;0.0;0.0;0.0;0.0
2.0;1753875187.964156;18.29225;0.86;-1.72;-0.27;-0.869137;0.488875;0.006253;0.0;0.0;0.0;0.0;0.0;0.0
2.0;1753875187.968754;18.27961;0.88;-1.64;-0.21;-0.868791;0.488929;0.005228;0.0;0.0;0.0;0.0;0.0;0.0
2.0;1753875187.973354;18.27946;0.97;-1.68;-0.3;-0.86934;0.486362;0.006272;0.0;0.0;0.0;0.0;0.0;0.0
2.0;1753875187.977953;18.29613;0.98;-1.63;-0.3;-0.868318;0.488607;0.006141;0.0;0.0;0.0;0.0;0.0;0.0
2.0;1753875187.982552;18.29188;1.02;-1.62;-0.4;-0.86813;0.488654;0.00609;0.0;0.0;0.0;0.0;0.0;0.0
2.0;1753875187.987151;18.30626;0.92;-1.61;-0.29;-0.868159;0.488831;0.00677;0.0;0.0;0.0;0.0;0.0;0.0
2.0;1753875187.9949;18.28906;0.91;-1.61;-0.28;-0.868884;0.488976;0.005978;0.0;0.0;0.0;0.0;0.0;0.0
2.0;1753875187.999499;18.30972;0.88;-1.57;-0.27;-0.867952;0.488406;0.005181;0.0;0.0;0.0;0.0;0.0;0.0
2.0;1753875188.004098;18.28001;0.94;-1.71;-0.28;-0.866954;0.488109;0.005972;0.0;0.0;0.0;0.0;0.0;0.0
2.0;1753875188.008697;18.26323;0.91;-1.59;-0.26;-0.867956;0.490053;0.006451;0.0;0.0;0.0;0.0;0.0;0.0
2.0;1753875188.013296;18.2704;0.95;-1.6;-0.21;-0.868527;0.491802;0.006144;0.0;0.0;0.0;0.0;0.0;0.0
2.0;1753875188.017896;18.27569;0.87;-1.66;-0.24;-0.868766;0.488949;0.00554;0.0;0.0;0.0;0.0;0.0;0.0
2.0;1753875188.022494;18.26546;0.88;-1.61;-0.3;-0.869038;0.486947;0.00504;0.0;0.0;0.0;0.0;0.0;0.0
2.0;1753875188.027094;18.27381;0.88;-1.58;-0.42;-0.868162;0.490149;0.005961;0.0;0.0;0.0;0.0;0.0;0.0
2.0;1753875188.031693;18.28781;0.92;-1.62;-0.26;-0.869678;0.48856;0.006298;0.0;0.0;0.0;0.0;0.0;0.0
2.0;1753875188.036292;18.23105;0.87;-1.56;-0.37;-0.870049;0.487891;0.006144;0.0;0.0;0.0;0.0;0.0;0.0
2.0;1753875188.040891;18.33665;0.89;-1.6;-0.2;-0.86949;0.487739;0.006114;0.0;0.0;0.0;0.0;0.0;0.0
2.0;1753875188.04549;18.31257;1.02;-1.59;-0.18;-0.868865;0.490158;0.007053;0.0;0.0;0.0;0.0;0.0;0.0
2.0;1753875188.050089;18.25784;0.91;-1.67;-0.31;-0.870081;0.488523;0.005955;0.0;0.0;0.0;0.0;0.0;0.0
2.0;1753875188.054688;18.27815;1.14;-1.66;-0.21;-0.869482;0.488997;0.005795;0.0;0.0;0.0;0.0;0.0;0.0
2.0;1753875188.059287;18.23891;0.88;-1.63;-0.35;-0.867843;0.48731;0.0058;0.0;0.0;0.0;0.0;0.0;0.0
2.0;1753875188.063886;18.2339;0.9;-1.66;-0.25;-0.869387;0.48915;0.006357;0.0;0.0;0.0;0.0;0.0;0.0
2.0;1753875188.068486;18.29067;0.91;-1.56;-0.27;-0.868015;0.489344;0.004575;0.0;0.0;0.0;0.0;0.0;0.0
2.0;1753875188.073084;18.31049;0.79;-1.65;-0.21;-0.867248;0.490135;0.00763;0.0;0.0;0.0;0.0;0.0;0.0
2.0;1753875188.077684;18.25469;0.93;-1.65;-0.3;-0.870032;0.489414;0.006063;0.0;0.0;0.0;0.0;0.0;0.0
2.0;1753875188.082283;18.27923;0.84;-1.66;-0.29;-0.869464;0.490124;0.005225;0.0;0.0;0.0;0.0;0.0;0.0
2.0;1753875188.086882;18.29932;0.88;-1.57;-0.31;-0.868806;0.49018;0.005488;0.0;0.0;0.0;0.0;0.0;0.0
2.0;1753875188.091481;18.26158;0.82;-1.65;-0.33;-0.868474;0.488731;0.004993;0.0;0.0;0.0;0.0;0.0;0.0
2.0;1753875188.09608;18.26532;0.89;-1.62;-0.35;-0.869311;0.488647;0.006823;0.0;0.0;0.0;0.0;0.0;0.0
2.0;1753875188.100679;18.23928;0.93;-1.59;-0.35;-0.868781;0.48969;0.005977;0.0;0.0;0.0;0.0;0.0;0.0
2.0;1753875188.105278;18.25625;0.92;-1.53;-0.31;-0.869142;0.490422;0.005099;0.0;0.0;0.0;0.0;0.0;0.0
2.0;1753875188.109877;18.22239;0.87;-1.61;-0.34;-0.867625;0.486953;0.00701;0.0;0.0;0.0;0.0;0.0;0.0
2.0;1753875188.114476;18.26856;0.96;-1.6;-0.17;-0.867642;0.488501;0.006033;0.0;0.0;0.0;0.0;0.0;0.0
2.0;1753875188.119076;18.25269;0.96;-1.64;-0.3;-0.868947;0.489145;0.006536;0.0;0.0;0.0;0.0;0.0;0.0
2.0;1753875188.123675;18.25475;0.75;-1.61;-0.3;-0.867516;0.488938;0.005019;0.0;0.0;0.0;0.0;0.0;0.0
2.0;1753875188.128274;18.2067;0.87;-1.65;-0.27;-0.868697;0.489609;0.004567;0.0;0.0;0.0;0.0;0.0;0.0
2.0;1753875188.132873;18.25681;0.88;-1.69;-0.36;-0.867473;0.487442;0.005544;0.0;0.0;0.0;0.0;0.0;0.0
2.0;1753875188.137472;18.26419;0.93;-1.61;-0.25;-0.867937;0.488397;0.005027;0.0;0.0;0.0;0.0;0.0;0.0
2.0;1753875188.142071;18.25049;0.85;-1.61;-0.24;-0.869117;0.490165;0.005362;0.0;0.0;0.0;0.0;0.0;0.0
2.0;1753875188.14667;18.25138;0.84;-1.64;-0.28;-0.869193;0.49071;0.005413;0.0;0.0;0.0;0.0;0.0;0.0
2.0;1753875188.151269;18.24661;0.83;-1.66;-0.33;-0.868024;0.487907;0.006176;0.0;0.0;0.0;0.0;0.0;0.0
2.0;1753875188.155868;18.23949;0.95;-1.64;-0.26;-0.867686;0.48848;0.004897;0.0;0.0;0.0;0.0;0.0;0.0
2.0;1753875188.160468;18.25942;0.98;-1.64;-0.36;-0.86813;0.49121;0.005476;0.0;0.0;0.0;0.0;0.0;0.0
2.0;1753875188.165066;18.23694;0.85;-1.68;-0.37;-0.867785;0.489992;0.006112;0.0;0.0;0.0;0.0;0.0;0.0
2.0;1753875188.169666;18.26954;0.9;-1.68;-0.35;-0.869417;0.488452;0.004627;0.0;0.0;0.0;0.0;0.0;0.0
2.0;1753875188.174265;18.26169;0.94;-1.58;-0.29;-0.867172;0.48869;0.00506;0.0;0.0;0.0;0.0;0.0;0.0
2.0;1753875188.178864;18.257;0.88;-1.71;-0.3;-0.867374;0.489561;0.005001;0.0;0.0;0.0;0.0;0.0;0.0
2.0;1753875188.183463;18.22115;0.9;-1.6;-0.35;-0.869353;0.490243;0.005526;0.0;0.0;0.0;0.0;0.0;0.0
2.0;1753875188.188062;18.1953;0.96;-1.75;-0.21;-0.86749;0.489797;0.006484;0.0;0.0;0.0;0.0;0.0;0.0
2.0;1753875188.192661;18.2497;0.91;-1.73;-0.31;-0.868979;0.489484;0.005569;0.0;0.0;0.0;0.0;0.0;0.0
2.0;1753875188.19726;18.25446;0.79;-1.69;-0.26;-0.868072;0.488493;0.006877;0.0;0.0;0.0;0.0;0.0;0.0
2.0;1753875188.201859;18.24649;0.87;-1.56;-0.24;-0.86682;0.489297;0.005716;0.0;0.0;0.0;0.0;0.0;0.0
2.0;1753875188.206458;18.20248;0.86;-1.6;-0.3;-0.869531;0.489649;0.005445;0.0;0.0;0.0;0.0;0.0;0.0
2.0;1753875188.211058;18.21848;0.87;-1.63;-0.24;-0.870574;0.49049;0.00525;0.0;0.0;0.0;0.0;0.0;0.0
2.0;1753875188.215656;18.24941;0.98;-1.57;-0.2;-0.868957;0.489531;0.005295;0.0;0.0;0.0;0.0;0.0;0.0
2.0;1753875188.220256;18.26584;0.91;-1.7;-0.31;-0.867058;0.48838;0.006313;0.0;0.0;0.0;0.0;0.0;0.0
2.0;1753875188.224855;18.2354;0.94;-1.69;-0.3;-0.86849;0.488725;0.006902;0.0;0.0;0.0;0.0;0.0;0.0
2.0;1753875188.229454;18.22584;0.73;-1.7;-0.34;-0.86635;0.486605;0.004729;0.0;0.0;0.0;0.0;0.0;0.0
2.0;1753875188.234053;18.24909;0.79;-1.65;-0.27;-0.868104;0.489438;0.005314;0.0;0.0;0.0;0.0;0.0;0.0
2.0;1753875188.238652;18.25229;0.8;-1.69;-0.16;-0.867611;0.488937;0.00718;0.0;0.0;0.0;0.0;0.0;0.0
2.0;1753875188.243251;18.20532;0.81;-1.59;-0.34;-0.86675;0.489313;0.004654;0.0;0.0;0.0;0.0;0.0;0.0
2.0;1753875188.24785;18.25586;0.86;-1.68;-0.22;-0.869752;0.489689;0.004941;0.0;0.0;0.0;0.0;0.0;0.0
2.0;1753875188.252449;18.2263;0.82;-1.65;-0.29;-0.867056;0.488443;0.006344;0.0;0.0;0.0;0.0;0.0;0.0
2.0;1753875188.257048;18.21335;0.89;-1.62;-0.4;-0.868912;0.489603;0.006649;0.0;0.0;0.0;0.0;0.0;0.0
2.0;1753875188.261648;18.20487;0.73;-1.64;-0.2;-0.868893;0.488687;0.004267;0.0;0.0;0.0;0.0;0.0;0.0
2.0;1753875188.266246;18.23945;0.9;-1.63;-0.14;-0.867856;0.489104;0.004493;0.0;0.0;0.0;0.0;0.0;0.0
2.0;1753875188.270846;18.24135;0.9;-1.6;-0.32;-0.866564;0.491047;0.006074;0.0;0.0;0.0;0.0;0.0;0.0
2.0;1753875188.275445;18.23075;0.79;-1.7;-0.29;-0.867728;0.489784;0.006498;0.0;0.0;0.0;0.0;0.0;0.0
2.0;1753875188.280044;18.20602;0.83;-1.68;-0.26;-0.868362;0.488508;0.005057;0.0;0.0;0.0;0.0;0.0;0.0
2.0;1753875188.284643;18.23059;0.78;-1.72;-0.35;-0.868628;0.490419;0.004973;0.0;0.0;0.0;0.0;0.0;0.0
2.0;1753875188.289242;18.20838;0.88;-1.7;-0.16;-0.866657;0.488598;0.005056;0.0;0.0;0.0;0.0;0.0;0.0
2.0;1753875188.293841;18.22588;0.84;-1.69;-0.35;-0.866831;0.490156;0.005497;0.0;0.0;0.0;0.0;0.0;0.0
2.0;1753875188.29844;18.22404;0.84;-1.68;-0.22;-0.867818;0.487709;0.00541;0.0;0.0;0.0;0.0;0.0;0.0
2.0;1753875188.303039;18.23708;0.85;-1.72;-0.3;-0.867272;0.489668;0.005476;0.0;0.0;0.0;0.0;0.0;0.0
2.0;1753875188.307638;18.21823;0.8;-1.6;-0.28;-0.866135;0.489268;0.005643;0.0;0.0;0.0;0.0;0.0;0.0
2.0;1753875188.312238;18.2276;0.78;-1.67;-0.32;-0.866908;0.489411;0.003401;0.0;0.0;0.0;0.0;0.0;0.0
2.0;1753875188.316836;18.24259;0.83;-1.75;-0.3;-0.866701;0.489496;0.004164;0.0;0.0;0.0;0.0;0.0;0.0
2.0;1753875188.321436;18.22276;0.79;-1.67;-0.33;-0.867394;0.487461;0.005746;0.0;0.0;0.0;0.0;0.0;0.0
2.0;1753875188.326035;18.25939;0.84;-1.67;-0.2;-0.8671;0.488964;0.004239;0.0;0.0;0.0;0.0;0.0;0.0
2.0;1753875188.330634;18.23212;0.71;-1.77;-0.29;-0.866843;0.489121;0.004887;0.0;0.0;0.0;0.0;0.0;0.0
2.0;1753875188.335233;18.20877;0.83;-1.64;-0.13;-0.868056;0.4896;0.004592;0.0;0.0;0.0;0.0;0.0;0.0
2.0;1753875188.34;18.21484;0.84;-1.68;-0.28;-0.86742;0.48922;0.005124;0.0;0.0;0.0;0.0;0.0;0.0
2.0;1753875188.344599;18.17498;0.8;-1.64;-0.28;-0.867785;0.489551;0.005049;0.0;0.0;0.0;0.0;0.0;0.0
2.0;1753875188.349198;18.17022;0.88;-1.71;-0.37;-0.866833;0.489475;0.006003;0.0;0.0;0.0;0.0;0.0;0.0
2.0;1753875188.353797;18.2035;0.86;-1.71;-0.25;-0.867346;0.489854;0.005273;0.0;0.0;0.0;0.0;0.0;0.0
2.0;1753875188.358396;18.23062;0.74;-1.77;-0.34;-0.867409;0.489637;0.005205;0.0;0.0;0.0;0.0;0.0;0.0
2.0;1753875188.362996;18.20145;0.95;-1.73;-0.31;-0.867354;0.488637;0.004465;0.0;0.0;0.0;0.0;0.0;0.0
2.0;1753875188.367594;18.21396;0.71;-1.71;-0.27;-0.868041;0.48755;0.005265;0.0;0.0;0.0;0.0;0.0;0.0
2.0;1753875188.372194;18.24477;0.8;-1.69;-0.25;-0.869606;0.488712;0.007839;0.0;0.0;0.0;0.0;0.0;0.0
2.0;1753875188.376793;18.20623;0.87;-1.77;-0.28;-0.867487;0.489205;0.005943;0.0;0.0;0.0;0.0;0.0;0.0
2.0;1753875188.381392;18.22712;0.83;-1.64;-0.26;-0.868326;0.487883;0.003914;0.0;0.0;0.0;0.0;0.0;0.0
2.0;1753875188.385991;18.22407;0.78;-1.72;-0.3;-0.869347;0.4897;0.005792;0.0;0.0;0.0;0.0;0.0;0.0
2.0;1753875188.39059;18.1718;0.79;-1.73;-0.31;-0.867455;0.488037;0.005994;0.0;0.0;0.0;0.0;0.0;0.0
2.0;1753875188.395189;18.23791;0.82;-1.75;-0.35;-0.868662;0.487564;0.004322;0.0;0.0;0.0;0.0;0.0;0.0
2.0;1753875188.399788;18.17832;0.84;-1.59;-0.29;-0.8691;0.487715;0.005068;0.0;0.0;0.0;0.0;0.0;0.0
2.0;1753875188.404387;18.24415;0.83;-1.72;-0.37;-0.868182;0.487836;0.005386;0.0;0.0;0.0;0.0;0.0;0.0
2.0;1753875188.408986;18.2227;0.81;-1.79;-0.31;-0.86795;0.487241;0.005343;0.0;0.0;0.0;0.0;0.0;0.0
2.0;1753875188.413586;18.17036;0.74;-1.71;-0.36;-0.869226;0.488034;0.005894;0.0;0.0;0.0;0.0;0.0;0.0
2.0;1753875188.418184;18.19392;0.91;-1.77;-0.22;-0.868028;0.486054;0.004552;0.0;0.0;0.0;0.0;0.0;0.0
2.0;1753875188.422784;18.23571;0.86;-1.8;-0.37;-0.867371;0.487601;0.006231;0.0;0.0;0.0;0.0;0.0;0.0
2.0;1753875188.427383;18.22244;0.82;-1.73;-0.19;-0.86917;0.486811;0.005286;0.0;0.0;0.0;0.0;0.0;0.0
2.0;1753875188.431982;18.20965;0.91;-1.84;-0.31;-0.867976;0.486117;0.006571;0.0;0.0;0.0;0.0;0.0;0.0
2.0;1753875188.436581;18.18845;0.84;-1.62;-0.32;-0.868784;0.487971;0.00455;0.0;0.0;0.0;0.0;0.0;0.0
2.0;1753875188.441;18.19922;0.84;-1.75;-0.28;-0.868396;0.48678;0.005856;0.0;0.0;0.0;0.0;0.0;0.0
2.0;1753875188.445599;18.22316;0.77;-1.76;-0.35;-0.868671;0.486143;0.005467;0.0;0.0;0.0;0.0;0.0;0.0
2.0;1753875188.450198;18.20863;0.78;-1.75;-0.29;-0.869044;0.486565;0.007124;0.0;0.0;0.0;0.0;0.0;0.0
2.0;1753875188.454797;18.20602;0.79;-1.78;-0.34;-0.867547;0.486659;0.006247;0.0;0.0;0.0;0.0;0.0;0.0
2.0;1753875188.459396;18.19814;0.95;-1.71;-0.33;-0.868538;0.48768;0.005702;0.0;0.0;0.0;0.0;0.0;0.0
2.0;1753875188.463996;18.22881;0.78;-1.77;-0.22;-0.868452;0.487093;0.005741;0.0;0.0;0.0;0.0;0.0;0.0
2.0;1753875188.468594;18.13988;0.8;-1.72;-0.26;-0.868782;0.485579;0.005623;0.0;0.0;0.0;0.0;0.0;0.0
2.0;1753875188.473194;18.19239;0.83;-1.84;-0.24;-0.868421;0.485942;0.004876;0.0;0.0;0.0;0.0;0.0;0.0
2.0;1753875188.477793;18.1737;0.8;-1.72;-0.26;-0.869828;0.485448;0.006293;0.0;0.0;0.0;0.0;0.0;0.0
2.0;1753875188.482392;18.18156;0.86;-1.68;-0.33;-0.867646;0.487337;0.006237;0.0;0.0;0.0;0.0;0.0;0.0
2.0;1753875188.486991;18.15899;0.94;-1.7;-0.35;-0.868189;0.485759;0.005535;0.0;0.0;0.0;0.0;0.0;0.0
2.0;1753875188.49159;18.21963;0.87;-1.69;-0.37;-0.867048;0.487193;0.005358;0.0;0.0;0.0;0.0;0.0;0.0
2.0;1753875188.496189;18.25634;0.71;-1.79;-0.22;-0.870239;0.487661;0.005852;0.0;0.0;0.0;0.0;0.0;0.0
2.0;1753875188.500788;18.2331;0.79;-1.84;-0.33;-0.869314;0.486371;0.005057;0.0;0.0;0.0;0.0;0.0;0.0
2.0;1753875188.505387;18.21864;0.88;-1.73;-0.34;-0.868572;0.487179;0.005278;0.0;0.0;0.0;0.0;0.0;0.0
2.0;1753875188.509986;18.1801;0.84;-1.71;-0.23;-0.868693;0.485717;0.007069;0.0;0.0;0.0;0.0;0.0;0.0
2.0;1753875188.514586;18.18937;0.89;-1.69;-0.26;-0.868673;0.486518;0.005914;0.0;0.0;0.0;0.0;0.0;0.0
2.0;1753875188.519184;18.21983;0.75;-1.67;-0.28;-0.867854;0.486529;0.0054;0.0;0.0;0.0;0.0;0.0;0.0
2.0;1753875188.523784;18.1997;0.85;-1.7;-0.25;-0.8686;0.485261;0.006741;0.0;0.0;0.0;0.0;0.0;0.0
2.0;1753875188.528383;18.22309;0.82;-1.67;-0.24;-0.867628;0.486609;0.004847;0.0;0.0;0.0;0.0;0.0;0.0
2.0;1753875188.532982;18.24972;0.83;-1.74;-0.25;-0.868675;0.487462;0.005127;0.0;0.0;0.0;0.0;0.0;0.0
2.0;1753875188.537581;18.20002;0.88;-1.68;-0.4;-0.86756;0.488315;0.006627;0.0;0.0;0.0;0.0;0.0;0.0
2.0;1753875188.54218;18.18853;0.72;-1.77;-0.32;-0.868776;0.487684;0.004068;0.0;0.0;0.0;0.0;0.0;0.0
2.0;1753875188.546779;18.21938;0.87;-1.64;-0.36;-0.867188;0.488671;0.00404;0.0;0.0;0.0;0.0;0.0;0.0
2.0;1753875188.551378;18.15298;0.86;-1.76;-0.19;-0.869523;0.485675;0.005589;0.0;0.0;0.0;0.0;0.0;0.0
2.0;1753875188.555977;18.18541;0.84;-1.66;-0.37;-0.869634;0.486462;0.004399;0.0;0.0;0.0;0.0;0.0;0.0
2.0;1753875188.560576;18.18055;0.83;-1.72;-0.4;-0.867418;0.486807;0.004916;0.0;0.0;0.0;0.0;0.0;0.0
2.0;1753875188.565176;18.19601;0.92;-1.79;-0.17;-0.868903;0.488299;0.00513;0.0;0.0;0.0;0.0;0.0;0.0
2.0;1753875188.569775;18.2039;0.89;-1.69;-0.27;-0.867978;0.486693;0.006104;0.0;0.0;0.0;0.0;0.0;0.0
2.0;1753875188.574374;18.18174;0.77;-1.58;-0.33;-0.867459;0.485997;0.005499;0.0;0.0;0.0;0.0;0.0;0.0
2.0;1753875188.578973;18.19386;0.81;-1.69;-0.34;-0.869006;0.487426;0.006582;0.0;0.0;0.0;0.0;0.0;0.0
2.0;1753875188.583572;18.20592;0.81;-1.69;-0.15;-0.869051;0.486044;0.006142;0.0;0.0;0.0;0.0;0.0;0.0
2.0;1753875188.588171;18.18;0.9;-1.61;-0.38;-0.866153;0.487631;0.006656;0.0;0.0;0.0;0.0;0.0;0.0
2.0;1753875188.59277;18.19015;0.81;-1.6;-0.23;-0.868838;0.48531;0.005687;0.0;0.0;0.0;0.0;0.0;0.0
2.0;1753875188.597369;18.19957;0.87;-1.77;-0.21;-0.868488;0.488361;0.004433;0.0;0.0;0.0;0.0;0.0;0.0
2.0;1753875188.601968;18.20339;0.85;-1.67;-0.24;-0.867641;0.486289;0.006587;0.0;0.0;0.0;0.0;0.0;0.0
2.0;1753875188.606568;18.22305;0.81;-1.74;-0.34;-0.866758;0.487511;0.005399;0.0;0.0;0.0;0.0;0.0;0.0
2.0;1753875188.611166;18.19842;0.93;-1.65;-0.32;-0.86842;0.487717;0.007376;0.0;0.0;0.0;0.0;0.0;0.0
2.0;1753875188.615766;18.20962;0.95;-1.67;-0.27;-0.869363;0.486736;0.005131;0.0;0.0;0.0;0.0;0.0;0.0
2.0;1753875188.620365;18.16095;0.74;-1.66;-0.31;-0.867816;0.487433;0.005016;0.0;0.0;0.0;0.0;0.0;0.0
2.0;1753875188.624964;18.21727;0.94;-1.71;-0.22;-0.868643;0.489644;0.005431;0.0;0.0;0.0;0.0;0.0;0.0
2.0;1753875188.629563;18.20492;0.86;-1.67;-0.26;-0.869584;0.486719;0.004766;0.0;0.0;0.0;0.0;0.0;0.0
2.0;1753875188.634162;18.14985;0.83;-1.76;-0.26;-0.868455;0.487861;0.004537;0.0;0.0;0.0;0.0;0.0;0.0
2.0;1753875188.638761;18.18919;0.88;-1.73;-0.26;-0.868956;0.4861;0.005951;0.0;0.0;0.0;0.0;0.0;0.0
2.0;1753875188.64336;18.25064;0.87;-1.75;-0.27;-0.868313;0.487827;0.005544;0.0;0.0;0.0;0.0;0.0;0.0
2.0;1753875188.647959;18.17358;0.75;-1.62;-0.35;-0.868349;0.485359;0.007038;0.0;0.0;0.0;0.0;0.0;0.0
2.0;1753875188.652558;18.22056;0.8;-1.67;-0.29;-0.86835;0.487997;0.005639;0.0;0.0;0.0;0.0;0.0;0.0
2.0;1753875188.657158;18.19823;0.84;-1.72;-0.28;-0.867689;0.486487;0.005283;0.0;0.0;0.0;0.0;0.0;0.0
2.0;1753875188.661756;18.21898;0.82;-1.68;-0.26;-0.869358;0.487499;0.005863;0.0;0.0;0.0;0.0;0.0;0.0
2.0;1753875188.666356;18.18625;0.79;-1.75;-0.32;-0.868696;0.485809;0.005698;0.0;0.0;0.0;0.0;0.0;0.0
2.0;1753875188.670955;18.20431;0.83;-1.65;-0.42;-0.867492;0.484825;0.006142;0.0;0.0;0.0;0.0;0.0;0.0
2.0;1753875188.675554;18.17895;0.83;-1.71;-0.3;-0.868566;0.486176;0.007043;0.0;0.0;0.0;0.0;0.0;0.0
2.0;1753875188.680153;18.22489;0.81;-1.68;-0.29;-0.869913;0.486598;0.005396;0.0;0.0;0.0;0.0;0.0;0.0
2.0;1753875188.684752;18.18586;0.94;-1.75;-0.23;-0.867443;0.486895;0.00653;0.0;0.0;0.0;0.0;0.0;0.0
2.0;1753875188.689351;18.21593;0.86;-1.72;-0.29;-0.868639;0.487453;0.006113;0.0;0.0;0.0;0.0;0.0;0.0
2.0;1753875188.69395;18.20097;0.83;-1.63;-0.3;-0.868607;0.489559;0.006351;0.0;0.0;0.0;0.0;0.0;0.0
2.0;1753875188.698549;18.21902;0.94;-1.6;-0.29;-0.868765;0.487463;0.00588;0.0;0.0;0.0;0.0;0.0;0.0
2.0;1753875188.703148;18.21531;0.88;-1.64;-0.25;-0.867789;0.48722;0.006132;0.0;0.0;0.0;0.0;0.0;0.0
2.0;1753875188.707748;18.21882;0.92;-1.63;-0.34;-0.867833;0.485568;0.005345;0.0;0.0;0.0;0.0;0.0;0.0
2.0;1753875188.712346;18.17737;0.85;-1.67;-0.32;-0.86816;0.487022;0.004998;0.0;0.0;0.0;0.0;0.0;0.0
2.0;1753875188.716946;18.21266;0.88;-1.63;-0.28;-0.86711;0.486468;0.00664;0.0;0.0;0.0;0.0;0.0;0.0
2.0;1753875188.721545;18.18511;0.83;-1.74;-0.27;-0.86718;0.488831;0.007179;0.0;0.0;0.0;0.0;0.0;0.0
2.0;1753875188.726144;18.21607;0.98;-1.72;-0.21;-0.869173;0.485504;0.005354;0.0;0.0;0.0;0.0;0.0;0.0
2.0;1753875188.730743;18.22539;0.81;-1.68;-0.33;-0.868763;0.486588;0.007447;0.0;0.0;0.0;0.0;0.0;0.0
2.0;1753875188.735342;18.16378;0.89;-1.67;-0.25;-0.869586;0.487478;0.006257;0.0;0.0;0.0;0.0;0.0;0.0
2.0;1753875188.739941;18.20209;0.93;-1.62;-0.18;-0.868132;0.486832;0.005395;0.0;0.0;0.0;0.0;0.0;0.0
2.0;1753875188.74454;18.23392;0.9;-1.76;-0.25;-0.869297;0.484256;0.005115;0.0;0.0;0.0;0.0;0.0;0.0
2.0;1753875188.749139;18.19939;0.95;-1.64;-0.26;-0.867388;0.483619;0.005494;0.0;0.0;0.0;0.0;0.0;0.0
2.0;1753875188.753738;18.20063;0.85;-1.61;-0.33;-0.867692;0.485831;0.003815;0.0;0.0;0.0;0.0;0.0;0.0
2.0;1753875188.758338;18.15344;0.86;-1.68;-0.28;-0.86872;0.486542;0.006648;0.0;0.0;0.0;0.0;0.0;0.0
2.0;1753875188.762936;18.18224;0.84;-1.67;-0.31;-0.866408;0.486786;0.005642;0.0;0.0;0.0;0.0;0.0;0.0
2.0;1753875188.767536;18.21122;0.85;-1.71;-0.27;-0.868729;0.488699;0.005447;0.0;0.0;0.0;0.0;0.0;0.0
2.0;1753875188.772135;18.19801;0.9;-1.66;-0.25;-0.867661;0.485724;0.006126;0.0;0.0;0.0;0.0;0.0;0.0
2.0;1753875188.776734;18.17354;0.9;-1.62;-0.25;-0.86881;0.487473;0.007396;0.0;0.0;0.0;0.0;0.0;0.0
2.0;1753875188.781333;18.17398;0.92;-1.55;-0.32;-0.86774;0.485724;0.005768;0.0;0.0;0.0;0.0;0.0;0.0
2.0;1753875188.785932;18.1899;0.81;-1.7;-0.36;-0.868186;0.486828;0.004729;0.0;0.0;0.0;0.0;0.0;0.0
2.0;1753875188.790531;18.20115;0.91;-1.66;-0.33;-0.870114;0.487378;0.005385;0.0;0.0;0.0;0.0;0.0;0.0
2.0;1753875188.79513;18.17712;0.93;-1.74;-0.18;-0.868241;0.488545;0.005106;0.0;0.0;0.0;0.0;0.0;0.0
2.0;1753875188.799729;18.18746;0.94;-1.67;-0.25;-0.867474;0.485237;0.005922;0.0;0.0;0.0;0.0;0.0;0.0
2.0;1753875188.804328;18.18627;0.91;-1.58;-0.22;-0.869056;0.487001;0.006588;0.0;0.0;0.0;0.0;0.0;0.0
2.0;1753875188.808928;18.19225;0.86;-1.63;-0.18;-0.869529;0.484474;0.005478;0.0;0.0;0.0;0.0;0.0;0.0
2.0;1753875188.813527;18.22831;0.85;-1.64;-0.27;-0.868312;0.485715;0.004146;0.0;0.0;0.0;0.0;0.0;0.0
2.0;1753875188.818126;18.17852;0.91;-1.66;-0.27;-0.869049;0.486925;0.004891;0.0;0.0;0.0;0.0;0.0;0.0
2.0;1753875188.822725;18.19165;0.9;-1.57;-0.29;-0.869023;0.485597;0.006134;0.0;0.0;0.0;0.0;0.0;0.0
2.0;1753875188.827324;18.18817;0.9;-1.66;-0.34;-0.869188;0.488075;0.006859;0.0;0.0;0.0;0.0;0.0;0.0
2.0;1753875188.831923;18.20207;0.87;-1.58;-0.2;-0.868537;0.486179;0.00628;0.0;0.0;0.0;0.0;0.0;0.0
2.0;1753875188.836522;18.19431;0.87;-1.64;-0.32;-0.868956;0.487423;0.006875;0.0;0.0;0.0;0.0;0.0;0.0
2.0;1753875188.841121;18.18694;0.93;-1.55;-0.24;-0.868079;0.487172;0.005658;0.0;0.0;0.0;0.0;0.0;0.0
2.0;1753875188.84572;18.20308;0.89;-1.61;-0.25;-0.868298;0.48786;0.006277;0.0;0.0;0.0;0.0;0.0;0.0
2.0;1753875188.85032;18.18482;0.95;-1.62;-0.28;-0.867162;0.487162;0.006129;0.0;0.0;0.0;0.0;0.0;0.0
2.0;1753875188.854918;18.16323;0.94;-1.66;-0.28;-0.868684;0.486599;0.00652;0.0;0.0;0.0;0.0;0.0;0.0
2.0;1753875188.859518;18.18291;0.91;-1.62;-0.3;-0.867067;0.486653;0.005464;0.0;0.0;0.0;0.0;0.0;0.0
2.0;1753875188.864117;18.22345;0.95;-1.65;-0.28;-0.868552;0.48675;0.006764;0.0;0.0;0.0;0.0;0.0;0.0
2.0;1753875188.868716;18.22424;0.9;-1.65;-0.2;-0.866521;0.487561;0.005352;0.0;0.0;0.0;0.0;0.0;0.0
2.0;1753875188.873315;18.21712;0.89;-1.59;-0.21;-0.868134;0.486641;0.005893;0.0;0.0;0.0;0.0;0.0;0.0
2.0;1753875188.877914;18.18052;0.9;-1.64;-0.31;-0.867801;0.486653;0.005553;0.0;0.0;0.0;0.0;0.0;0.0
2.0;1753875188.882513;18.17269;0.92;-1.59;-0.32;-0.867701;0.488606;0.006043;0.0;0.0;0.0;0.0;0.0;0.0
2.0;1753875188.8886;18.19922;0.91;-1.61;-0.28;-0.868396;0.48678;0.005856;0.0;0.0;0.0;0.0;0.0;0.0
2.0;1753875188.893199;18.18753;0.86;-1.6;-0.27;-0.868004;0.487981;0.006488;0.0;0.0;0.0;0.0;0.0;0.0
2.0;1753875188.897798;18.21553;0.93;-1.73;-0.22;-0.867379;0.483401;0.006154;0.0;0.0;0.0;0.0;0.0;0.0
2.0;1753875188.902398;18.19586;0.92;-1.64;-0.23;-0.868008;0.488083;0.006334;0.0;0.0;0.0;0.0;0.0;0.0
2.0;1753875188.906996;18.1796;0.85;-1.69;-0.42;-0.868308;0.487145;0.005127;0.0;0.0;0.0;0.0;0.0;0.0
2.0;1753875188.911596;18.18991;0.94;-1.57;-0.36;-0.867525;0.489679;0.005431;0.0;0.0;0.0;0.0;0.0;0.0
2.0;1753875188.916195;18.20578;0.9;-1.62;-0.31;-0.867425;0.488281;0.004707;0.0;0.0;0.0;0.0;0.0;0.0
2.0;1753875188.920794;18.21054;0.88;-1.59;-0.31;-0.868126;0.485526;0.006443;0.0;0.0;0.0;0.0;0.0;0.0
2.0;1753875188.925393;18.19149;0.95;-1.69;-0.33;-0.86778;0.486827;0.005614;0.0;0.0;0.0;0.0;0.0;0.0
2.0;1753875188.929992;18.18832;0.91;-1.58;-0.35;-0.867458;0.487457;0.004992;0.0;0.0;0.0;0.0;0.0;0.0
2.0;1753875188.93425;18.19922;0.91;-1.61;-0.35;-0.867786;0.48739;0.005612;0.0;0.0;0.0;0.0;0.0;0.0
2.0;1753875188.938849;18.1764;0.86;-1.62;-0.33;-0.867454;0.485675;0.005508;0.0;0.0;0.0;0.0;0.0;0.0
2.0;1753875188.943448;18.20526;0.97;-1.48;-0.31;-0.869107;0.48623;0.006127;0.0;0.0;0.0;0.0;0.0;0.0
2.0;1753875188.948048;18.19894;0.91;-1.66;-0.31;-0.867584;0.486182;0.005743;0.0;0.0;0.0;0.0;0.0;0.0
2.0;1753875188.952646;18.21996;0.9;-1.54;-0.22;-0.867718;0.487167;0.005041;0.0;0.0;0.0;0.0;0.0;0.0
2.0;1753875188.957246;18.16126;0.91;-1.64;-0.34;-0.867627;0.484527;0.005481;0.0;0.0;0.0;0.0;0.0;0.0
2.0;1753875188.961845;18.22303;0.96;-1.63;-0.3;-0.868341;0.489496;0.005031;0.0;0.0;0.0;0.0;0.0;0.0
2.0;1753875188.966444;18.1818;0.96;-1.67;-0.35;-0.869059;0.487014;0.005013;0.0;0.0;0.0;0.0;0.0;0.0
2.0;1753875188.971043;18.18001;0.92;-1.64;-0.36;-0.86745;0.490778;0.004779;0.0;0.0;0.0;0.0;0.0;0.0
2.0;1753875188.975642;18.20302;0.93;-1.61;-0.3;-0.868649;0.487096;0.005302;0.0;0.0;0.0;0.0;0.0;0.0
2.0;1753875188.980241;18.21534;0.98;-1.64;-0.28;-0.867791;0.486957;0.005562;0.0;0.0;0.0;0.0;0.0;0.0
2.0;1753875188.98555;18.20703;0.91;-1.68;-0.28;-0.868152;0.488244;0.00488;0.0;0.0;0.0;0.0;0.0;0.0
2.0;1753875188.987841;18.23047;0.91;-1.68;-0.28;-0.86925;0.48922;0.004026;0.0;0.0;0.0;0.0;0.0;0.0
2.0;1753875188.992407;18.19141;0.91;-1.68;-0.21;-0.868884;0.487268;0.005612;0.0;0.0;0.0;0.0;0.0;0.0
2.0;1753875188.997561;18.19141;0.84;-1.68;-0.28;-0.868396;0.48861;0.005246;0.0;0.0;0.0;0.0;0.0;0.0
2.0;1753875189.00216;18.20526;0.88;-1.72;-0.28;-0.868962;0.489848;0.00524;0.0;0.0;0.0;0.0;0.0;0.0
2.0;1753875189.006759;18.18461;0.9;-1.69;-0.29;-0.868093;0.487909;0.004639;0.0;0.0;0.0;0.0;0.0;0.0
2.0;1753875189.011358;18.16129;0.79;-1.66;-0.3;-0.86934;0.49001;0.006475;0.0;0.0;0.0;0.0;0.0;0.0
2.0;1753875189.015957;18.1825;0.89;-1.63;-0.33;-0.868163;0.487151;0.005294;0.0;0.0;0.0;0.0;0.0;0.0
2.0;1753875189.020556;18.18498;0.84;-1.64;-0.3;-0.867954;0.488211;0.006374;0.0;0.0;0.0;0.0;0.0;0.0
2.0;1753875189.025156;18.22193;0.84;-1.63;-0.21;-0.869699;0.48992;0.006129;0.0;0.0;0.0;0.0;0.0;0.0
2.0;1753875189.029755;18.18471;0.87;-1.66;-0.24;-0.868584;0.488363;0.005167;0.0;0.0;0.0;0.0;0.0;0.0
2.0;1753875189.034354;18.21387;0.9;-1.69;-0.3;-0.866576;0.487826;0.005745;0.0;0.0;0.0;0.0;0.0;0.0
2.0;1753875189.038953;18.1832;0.93;-1.54;-0.3;-0.86839;0.489999;0.003889;0.0;0.0;0.0;0.0;0.0;0.0
2.0;1753875189.043552;18.21041;0.74;-1.72;-0.25;-0.86907;0.489296;0.005608;0.0;0.0;0.0;0.0;0.0;0.0
2.0;1753875189.048151;18.15723;0.75;-1.67;-0.37;-0.86886;0.488759;0.006752;0.0;0.0;0.0;0.0;0.0;0.0
2.0;1753875189.05275;18.1972;1.05;-1.7;-0.25;-0.86776;0.485921;0.005906;0.0;0.0;0.0;0.0;0.0;0.0
2.0;1753875189.057349;18.19013;0.68;-1.68;-0.31;-0.86776;0.488873;0.004479;0.0;0.0;0.0;0.0;0.0;0.0
2.0;1753875189.061948;18.21667;0.93;-1.64;-0.24;-0.867059;0.488618;0.00595;0.0;0.0;0.0;0.0;0.0;0.0
2.0;1753875189.066548;18.16122;0.7;-1.69;-0.4;-0.868237;0.487579;0.004615;0.0;0.0;0.0;0.0;0.0;0.0
2.0;1753875189.071146;18.15944;0.83;-1.63;-0.28;-0.867613;0.49008;0.005486;0.0;0.0;0.0;0.0;0.0;0.0
2.0;1753875189.075746;18.18601;0.74;-1.57;-0.29;-0.86885;0.488713;0.005445;0.0;0.0;0.0;0.0;0.0;0.0
2.0;1753875189.080345;18.16391;0.77;-1.65;-0.38;-0.86868;0.488878;0.006767;0.0;0.0;0.0;0.0;0.0;0.0
2.0;1753875189.084944;18.1784;0.84;-1.63;-0.38;-0.86822;0.487765;0.005655;0.0;0.0;0.0;0.0;0.0;0.0
2.0;1753875189.089543;18.17866;0.86;-1.6;-0.3;-0.868077;0.489968;0.005845;0.0;0.0;0.0;0.0;0.0;0.0
2.0;1753875189.094142;18.18103;0.78;-1.63;-0.23;-0.868659;0.489388;0.005667;0.0;0.0;0.0;0.0;0.0;0.0
2.0;1753875189.098741;18.18198;0.78;-1.63;-0.43;-0.867657;0.487857;0.005623;0.0;0.0;0.0;0.0;0.0;0.0
2.0;1753875189.10334;18.18929;0.84;-1.68;-0.36;-0.868293;0.487459;0.005422;0.0;0.0;0.0;0.0;0.0;0.0
2.0;1753875189.107939;18.20578;0.84;-1.63;-0.25;-0.868396;0.487298;0.004228;0.0;0.0;0.0;0.0;0.0;0.0
2.0;1753875189.112538;18.19979;0.75;-1.64;-0.34;-0.867799;0.488812;0.006117;0.0;0.0;0.0;0.0;0.0;0.0
2.0;1753875189.117138;18.17427;0.85;-1.66;-0.31;-0.866922;0.488121;0.00518;0.0;0.0;0.0;0.0;0.0;0.0
2.0;1753875189.121736;18.20821;0.79;-1.66;-0.28;-0.867931;0.489737;0.005333;0.0;0.0;0.0;0.0;0.0;0.0
2.0;1753875189.126336;18.1633;0.88;-1.63;-0.32;-0.86853;0.487857;0.005336;0.0;0.0;0.0;0.0;0.0;0.0
2.0;1753875189.130935;18.19849;0.8;-1.59;-0.43;-0.86805;0.490258;0.004642;0.0;0.0;0.0;0.0;0.0;0.0
2.0;1753875189.135534;18.1758;0.92;-1.66;-0.32;-0.868701;0.489287;0.00482;0.0;0.0;0.0;0.0;0.0;0.0
2.0;1753875189.140133;18.19476;0.76;-1.65;-0.17;-0.868415;0.488583;0.006748;0.0;0.0;0.0;0.0;0.0;0.0
2.0;1753875189.144732;18.17617;0.89;-1.63;-0.4;-0.868114;0.489537;0.006329;0.0;0.0;0.0;0.0;0.0;0.0
2.0;1753875189.149331;18.19948;0.78;-1.63;-0.29;-0.868052;0.490845;0.00545;0.0;0.0;0.0;0.0;0.0;0.0
2.0;1753875189.15393;18.22386;0.8;-1.64;-0.27;-0.869223;0.488807;0.004465;0.0;0.0;0.0;0.0;0.0;0.0
2.0;1753875189.158529;18.17608;0.95;-1.64;-0.25;-0.866686;0.488346;0.00526;0.0;0.0;0.0;0.0;0.0;0.0
2.0;1753875189.163128;18.18771;0.88;-1.57;-0.36;-0.868397;0.489092;0.006494;0.0;0.0;0.0;0.0;0.0;0.0
2.0;1753875189.167728;18.17372;0.82;-1.65;-0.25;-0.868791;0.488696;0.005846;0.0;0.0;0.0;0.0;0.0;0.0
2.0;1753875189.172326;18.20924;0.9;-1.63;-0.4;-0.869016;0.490241;0.003154;0.0;0.0;0.0;0.0;0.0;0.0
2.0;1753875189.176926;18.20414;0.7;-1.65;-0.37;-0.867825;0.489408;0.004657;0.0;0.0;0.0;0.0;0.0;0.0
2.0;1753875189.181525;18.21154;0.82;-1.61;-0.3;-0.867979;0.487281;0.004308;0.0;0.0;0.0;0.0;0.0;0.0
2.0;1753875189.186124;18.19168;0.77;-1.6;-0.34;-0.867815;0.488066;0.005885;0.0;0.0;0.0;0.0;0.0;0.0
2.0;1753875189.190723;18.20269;0.82;-1.56;-0.35;-0.868647;0.488331;0.004073;0.0;0.0;0.0;0.0;0.0;0.0
2.0;1753875189.195322;18.22647;0.93;-1.7;-0.33;-0.86908;0.488304;0.004249;0.0;0.0;0.0;0.0;0.0;0.0
2.0;1753875189.199921;18.1611;0.81;-1.7;-0.37;-0.867642;0.490734;0.007277;0.0;0.0;0.0;0.0;0.0;0.0
2.0;1753875189.20452;18.17531;0.85;-1.62;-0.25;-0.868881;0.489917;0.0071;0.0;0.0;0.0;0.0;0.0;0.0
2.0;1753875189.209119;18.16927;0.74;-1.55;-0.28;-0.869022;0.488832;0.005962;0.0;0.0;0.0;0.0;0.0;0.0
2.0;1753875189.213718;18.1825;0.65;-1.66;-0.29;-0.86854;0.489134;0.003385;0.0;0.0;0.0;0.0;0.0;0.0
2.0;1753875189.218318;18.16728;0.75;-1.61;-0.42;-0.867869;0.488915;0.005592;0.0;0.0;0.0;0.0;0.0;0.0
2.0;1753875189.222916;18.21548;0.81;-1.62;-0.38;-0.868034;0.489865;0.006285;0.0;0.0;0.0;0.0;0.0;0.0
2.0;1753875189.2285;18.19141;0.84;-1.61;-0.35;-0.868396;0.488854;0.005612;0.0;0.0;0.0;0.0;0.0;0.0
2.0;1753875189.233099;18.20234;0.72;-1.61;-0.45;-0.868109;0.486912;0.006315;0.0;0.0;0.0;0.0;0.0;0.0
2.0;1753875189.237698;18.20757;0.89;-1.58;-0.41;-0.868277;0.48954;0.005627;0.0;0.0;0.0;0.0;0.0;0.0
2.0;1753875189.242297;18.18851;0.89;-1.67;-0.36;-0.868881;0.487568;0.004672;0.0;0.0;0.0;0.0;0.0;0.0
2.0;1753875189.246896;18.1545;0.94;-1.59;-0.34;-0.868795;0.488774;0.005216;0.0;0.0;0.0;0.0;0.0;0.0
2.0;1753875189.251495;18.17178;0.82;-1.62;-0.41;-0.867946;0.486873;0.006497;0.0;0.0;0.0;0.0;0.0;0.0
2.0;1753875189.256094;18.18108;0.89;-1.61;-0.34;-0.868416;0.489341;0.006396;0.0;0.0;0.0;0.0;0.0;0.0
2.0;1753875189.260694;18.20087;0.92;-1.62;-0.33;-0.86849;0.488931;0.00635;0.0;0.0;0.0;0.0;0.0;0.0
2.0;1753875189.265293;18.20011;0.91;-1.58;-0.42;-0.868282;0.487325;0.004643;0.0;0.0;0.0;0.0;0.0;0.0
2.0;1753875189.269892;18.16679;0.77;-1.63;-0.36;-0.867731;0.486865;0.004749;0.0;0.0;0.0;0.0;0.0;0.0
2.0;1753875189.274491;18.15689;0.86;-1.58;-0.43;-0.86788;0.489529;0.005916;0.0;0.0;0.0;0.0;0.0;0.0
2.0;1753875189.27909;18.18205;0.89;-1.61;-0.41;-0.868135;0.487974;0.005301;0.0;0.0;0.0;0.0;0.0;0.0
2.0;1753875189.283689;18.20611;0.98;-1.67;-0.31;-0.868501;0.488476;0.005284;0.0;0.0;0.0;0.0;0.0;0.0
2.0;1753875189.288288;18.22728;0.77;-1.61;-0.36;-0.868717;0.488724;0.006461;0.0;0.0;0.0;0.0;0.0;0.0
2.0;1753875189.292887;18.22022;0.83;-1.67;-0.42;-0.867565;0.489485;0.006276;0.0;0.0;0.0;0.0;0.0;0.0
2.0;1753875189.297486;18.17763;0.87;-1.6;-0.27;-0.867172;0.488218;0.003894;0.0;0.0;0.0;0.0;0.0;0.0
2.0;1753875189.302086;18.15932;0.83;-1.62;-0.3;-0.867768;0.488825;0.004639;0.0;0.0;0.0;0.0;0.0;0.0
2.0;1753875189.306684;18.19381;0.9;-1.64;-0.28;-0.869172;0.487916;0.005704;0.0;0.0;0.0;0.0;0.0;0.0
2.0;1753875189.311284;18.18302;0.91;-1.68;-0.32;-0.868338;0.48875;0.003791;0.0;0.0;0.0;0.0;0.0;0.0
2.0;1753875189.315883;18.19008;0.86;-1.66;-0.33;-0.867515;0.487524;0.006277;0.0;0.0;0.0;0.0;0.0;0.0
2.0;1753875189.320482;18.17345;0.79;-1.57;-0.29;-0.867121;0.487494;0.00499;0.0;0.0;0.0;0.0;0.0;0.0
2.0;1753875189.325081;18.21635;0.88;-1.57;-0.34;-0.868814;0.487669;0.00586;0.0;0.0;0.0;0.0;0.0;0.0
2.0;1753875189.32968;18.2199;0.84;-1.6;-0.29;-0.868985;0.488975;0.005061;0.0;0.0;0.0;0.0;0.0;0.0
2.0;1753875189.334279;18.17245;0.85;-1.65;-0.32;-0.86867;0.486591;0.005862;0.0;0.0;0.0;0.0;0.0;0.0
2.0;1753875189.338878;18.18544;0.85;-1.64;-0.31;-0.869097;0.488515;0.00677;0.0;0.0;0.0;0.0;0.0;0.0
2.0;1753875189.343477;18.18829;0.83;-1.6;-0.41;-0.867919;0.487926;0.005176;0.0;0.0;0.0;0.0;0.0;0.0
2.0;1753875189.348076;18.20663;0.81;-1.63;-0.3;-0.868413;0.487465;0.006052;0.0;0.0;0.0;0.0;0.0;0.0
2.0;1753875189.352676;18.19829;0.81;-1.64;-0.35;-0.868772;0.486203;0.004315;0.0;0.0;0.0;0.0;0.0;0.0
2.0;1753875189.357274;18.19014;0.8;-1.65;-0.29;-0.868832;0.488135;0.00602;0.0;0.0;0.0;0.0;0.0;0.0
2.0;1753875189.361874;18.18323;0.91;-1.61;-0.31;-0.869625;0.48701;0.00713;0.0;0.0;0.0;0.0;0.0;0.0
2.0;1753875189.366473;18.2021;0.88;-1.62;-0.28;-0.869545;0.488827;0.006266;0.0;0.0;0.0;0.0;0.0;0.0
2.0;1753875189.371072;18.21102;0.83;-1.67;-0.32;-0.868072;0.488747;0.005836;0.0;0.0;0.0;0.0;0.0;0.0
2.0;1753875189.375671;18.19769;0.9;-1.64;-0.23;-0.867476;0.488375;0.005147;0.0;0.0;0.0;0.0;0.0;0.0
2.0;1753875189.38027;18.17098;0.81;-1.64;-0.24;-0.868428;0.489672;0.006692;0.0;0.0;0.0;0.0;0.0;0.0
2.0;1753875189.384869;18.20835;0.82;-1.61;-0.3;-0.869256;0.487295;0.005263;0.0;0.0;0.0;0.0;0.0;0.0
2.0;1753875189.389468;18.16549;0.88;-1.65;-0.36;-0.867512;0.487704;0.005718;0.0;0.0;0.0;0.0;0.0;0.0
2.0;1753875189.394067;18.15892;0.74;-1.66;-0.33;-0.868595;0.487763;0.004992;0.0;0.0;0.0;0.0;0.0;0.0
2.0;1753875189.398666;18.1634;0.92;-1.64;-0.3;-0.869361;0.486855;0.006597;0.0;0.0;0.0;0.0;0.0;0.0
2.0;1753875189.403266;18.19687;0.94;-1.62;-0.34;-0.868416;0.487963;0.005729;0.0;0.0;0.0;0.0;0.0;0.0
2.0;1753875189.407864;18.13116;0.92;-1.65;-0.29;-0.867149;0.487312;0.004313;0.0;0.0;0.0;0.0;0.0;0.0
2.0;1753875189.412464;18.17643;0.83;-1.61;-0.36;-0.868589;0.486191;0.004383;0.0;0.0;0.0;0.0;0.0;0.0
2.0;1753875189.417063;18.18626;0.96;-1.65;-0.35;-0.868738;0.488718;0.005402;0.0;0.0;0.0;0.0;0.0;0.0
2.0;1753875189.421662;18.18173;0.84;-1.66;-0.32;-0.868718;0.487985;0.005915;0.0;0.0;0.0;0.0;0.0;0.0
2.0;1753875189.426261;18.20885;0.81;-1.63;-0.3;-0.868137;0.487573;0.005962;0.0;0.0;0.0;0.0;0.0;0.0
2.0;1753875189.43086;18.22987;0.85;-1.68;-0.24;-0.870217;0.487821;0.006786;0.0;0.0;0.0;0.0;0.0;0.0
2.0;1753875189.435459;18.19238;0.93;-1.64;-0.39;-0.86911;0.486629;0.007534;0.0;0.0;0.0;0.0;0.0;0.0
2.0;1753875189.440058;18.18395;0.84;-1.59;-0.36;-0.868359;0.486263;0.005779;0.0;0.0;0.0;0.0;0.0;0.0
2.0;1753875189.444657;18.16467;0.99;-1.64;-0.32;-0.867583;0.487329;0.006393;0.0;0.0;0.0;0.0;0.0;0.0
2.0;1753875189.449256;18.21007;0.88;-1.66;-0.35;-0.869157;0.488661;0.005676;0.0;0.0;0.0;0.0;0.0;0.0
2.0;1753875189.453856;18.1974;0.83;-1.67;-0.36;-0.869455;0.486378;0.006267;0.0;0.0;0.0;0.0;0.0;0.0
2.0;1753875189.458454;18.1968;0.81;-1.67;-0.36;-0.869627;0.486676;0.005321;0.0;0.0;0.0;0.0;0.0;0.0
2.0;1753875189.463054;18.19569;0.8;-1.66;-0.3;-0.869492;0.486645;0.005931;0.0;0.0;0.0;0.0;0.0;0.0
2.0;1753875189.467653;18.16439;0.77;-1.65;-0.24;-0.868519;0.487606;0.005806;0.0;0.0;0.0;0.0;0.0;0.0
2.0;1753875189.472252;18.18373;0.96;-1.6;-0.27;-0.869501;0.486244;0.006355;0.0;0.0;0.0;0.0;0.0;0.0
2.0;1753875189.476851;18.16427;0.82;-1.62;-0.31;-0.869193;0.487787;0.004657;0.0;0.0;0.0;0.0;0.0;0.0
2.0;1753875189.48145;18.20767;0.75;-1.65;-0.3;-0.869044;0.486125;0.005981;0.0;0.0;0.0;0.0;0.0;0.0
2.0;1753875189.486049;18.18796;0.75;-1.66;-0.27;-0.868441;0.48853;0.006477;0.0;0.0;0.0;0.0;0.0;0.0
2.0;1753875189.490648;18.17785;0.75;-1.64;-0.31;-0.867935;0.487271;0.005844;0.0;0.0;0.0;0.0;0.0;0.0
2.0;1753875189.495247;18.20341;0.82;-1.67;-0.34;-0.870086;0.488464;0.006287;0.0;0.0;0.0;0.0;0.0;0.0
2.0;1753875189.499846;18.19197;0.82;-1.65;-0.23;-0.869795;0.486786;0.006019;0.0;0.0;0.0;0.0;0.0;0.0
2.0;1753875189.504446;18.19638;0.87;-1.69;-0.28;-0.868393;0.48784;0.006402;0.0;0.0;0.0;0.0;0.0;0.0
2.0;1753875189.509045;18.20062;0.91;-1.64;-0.39;-0.868199;0.486968;0.005394;0.0;0.0;0.0;0.0;0.0;0.0
2.0;1753875189.513644;18.19407;0.82;-1.7;-0.28;-0.869045;0.487366;0.006372;0.0;0.0;0.0;0.0;0.0;0.0
2.0;1753875189.518243;18.20043;0.84;-1.65;-0.31;-0.868235;0.487044;0.00513;0.0;0.0;0.0;0.0;0.0;0.0
2.0;1753875189.522842;18.17291;0.88;-1.67;-0.37;-0.868791;0.489969;0.003536;0.0;0.0;0.0;0.0;0.0;0.0
2.0;1753875189.527441;18.20632;0.81;-1.71;-0.39;-0.868173;0.488328;0.005712;0.0;0.0;0.0;0.0;0.0;0.0
2.0;1753875189.53204;18.17414;0.8;-1.67;-0.23;-0.86822;0.487074;0.007577;0.0;0.0;0.0;0.0;0.0;0.0
2.0;1753875189.536639;18.19736;0.8;-1.67;-0.37;-0.869669;0.486823;0.006349;0.0;0.0;0.0;0.0;0.0;0.0
2.0;1753875189.541238;18.20759;0.74;-1.64;-0.3;-0.869244;0.485819;0.005061;0.0;0.0;0.0;0.0;0.0;0.0
2.0;1753875189.545838;18.18818;0.88;-1.67;-0.32;-0.868588;0.487502;0.005279;0.0;0.0;0.0;0.0;0.0;0.0
2.0;1753875189.550436;18.20559;0.88;-1.69;-0.32;-0.86893;0.486219;0.006849;0.0;0.0;0.0;0.0;0.0;0.0
2.0;1753875189.555036;18.18597;0.92;-1.71;-0.3;-0.868693;0.485981;0.006093;0.0;0.0;0.0;0.0;0.0;0.0
2.0;1753875189.559635;18.21756;0.82;-1.67;-0.35;-0.869201;0.48685;0.006208;0.0;0.0;0.0;0.0;0.0;0.0
2.0;1753875189.564234;18.22894;0.83;-1.65;-0.35;-0.868976;0.484872;0.007028;0.0;0.0;0.0;0.0;0.0;0.0
2.0;1753875189.568833;18.21064;0.73;-1.67;-0.3;-0.869894;0.485386;0.005336;0.0;0.0;0.0;0.0;0.0;0.0
2.0;1753875189.573432;18.20369;0.79;-1.7;-0.35;-0.868565;0.487982;0.005557;0.0;0.0;0.0;0.0;0.0;0.0
2.0;1753875189.578031;18.17219;0.73;-1.69;-0.29;-0.868725;0.487199;0.005873;0.0;0.0;0.0;0.0;0.0;0.0
2.0;1753875189.58263;18.18325;0.89;-1.66;-0.32;-0.86869;0.486202;0.006125;0.0;0.0;0.0;0.0;0.0;0.0
2.0;1753875189.587229;18.19372;0.8;-1.65;-0.26;-0.869547;0.485293;0.006073;0.0;0.0;0.0;0.0;0.0;0.0
2.0;1753875189.591828;18.20674;0.81;-1.66;-0.27;-0.868568;0.485608;0.005972;0.0;0.0;0.0;0.0;0.0;0.0
2.0;1753875189.596428;18.1775;0.93;-1.63;-0.28;-0.869181;0.486123;0.006225;0.0;0.0;0.0;0.0;0.0;0.0
2.0;1753875189.601026;18.21806;0.94;-1.71;-0.25;-0.869773;0.486879;0.006472;0.0;0.0;0.0;0.0;0.0;0.0
2.0;1753875189.605626;18.20197;0.85;-1.68;-0.28;-0.869306;0.486459;0.006802;0.0;0.0;0.0;0.0;0.0;0.0
2.0;1753875189.610225;18.21155;0.87;-1.71;-0.28;-0.868682;0.486202;0.005895;0.0;0.0;0.0;0.0;0.0;0.0
2.0;1753875189.614824;18.19874;0.73;-1.63;-0.33;-0.868894;0.486615;0.005924;0.0;0.0;0.0;0.0;0.0;0.0
2.0;1753875189.619423;18.17771;0.78;-1.72;-0.29;-0.869079;0.486797;0.005915;0.0;0.0;0.0;0.0;0.0;0.0
2.0;1753875189.624022;18.22241;0.69;-1.68;-0.19;-0.868414;0.485943;0.006759;0.0;0.0;0.0;0.0;0.0;0.0
2.0;1753875189.628621;18.16135;0.86;-1.67;-0.31;-0.868627;0.485993;0.006327;0.0;0.0;0.0;0.0;0.0;0.0
2.0;1753875189.63322;18.19065;0.88;-1.65;-0.3;-0.8698;0.484947;0.006622;0.0;0.0;0.0;0.0;0.0;0.0
2.0;1753875189.637819;18.1692;0.84;-1.66;-0.26;-0.86791;0.485792;0.004619;0.0;0.0;0.0;0.0;0.0;0.0
2.0;1753875189.6445;18.19141;0.84;-1.68;-0.28;-0.869128;0.485926;0.0061;0.0;0.0;0.0;0.0;0.0;0.0
2.0;1753875189.649099;18.19745;0.93;-1.67;-0.31;-0.869802;0.486385;0.007124;0.0;0.0;0.0;0.0;0.0;0.0
2.0;1753875189.653698;18.19125;0.79;-1.64;-0.36;-0.86837;0.48691;0.005221;0.0;0.0;0.0;0.0;0.0;0.0
2.0;1753875189.658297;18.32016;0.88;-1.69;-0.32;-0.869791;0.488778;0.00532;0.0;0.0;0.0;0.0;0.0;0.0
2.0;1753875189.66367;18.20312;0.84;-1.61;-0.35;-0.868884;0.488366;0.005734;0.0;0.0;0.0;0.0;0.0;0.0
2.0;1753875189.668269;18.21513;0.86;-1.64;-0.4;-0.869626;0.489297;0.007253;0.0;0.0;0.0;0.0;0.0;0.0
2.0;1753875189.672868;18.19631;0.84;-1.57;-0.44;-0.869111;0.486602;0.006012;0.0;0.0;0.0;0.0;0.0;0.0
2.0;1753875189.677467;18.18119;0.81;-1.72;-0.35;-0.868528;0.485018;0.005741;0.0;0.0;0.0;0.0;0.0;0.0
2.0;1753875189.682066;18.213;0.97;-1.59;-0.37;-0.869526;0.487882;0.007561;0.0;0.0;0.0;0.0;0.0;0.0
2.0;1753875189.686666;18.16712;0.91;-1.66;-0.39;-0.86899;0.487395;0.005871;0.0;0.0;0.0;0.0;0.0;0.0
2.0;1753875189.691265;18.13668;0.91;-1.64;-0.3;-0.868348;0.489006;0.007214;0.0;0.0;0.0;0.0;0.0;0.0
2.0;1753875189.695864;18.16721;0.79;-1.62;-0.33;-0.868781;0.48806;0.004127;0.0;0.0;0.0;0.0;0.0;0.0
2.0;1753875189.700463;18.15803;0.8;-1.54;-0.38;-0.869105;0.488888;0.005728;0.0;0.0;0.0;0.0;0.0;0.0
2.0;1753875189.705062;18.16839;0.95;-1.67;-0.31;-0.868027;0.487896;0.007265;0.0;0.0;0.0;0.0;0.0;0.0
2.0;1753875189.709661;18.24111;0.91;-1.64;-0.23;-0.870154;0.487657;0.007167;0.0;0.0;0.0;0.0;0.0;0.0
2.0;1753875189.71426;18.20415;0.89;-1.77;-0.27;-0.868795;0.489205;0.005685;0.0;0.0;0.0;0.0;0.0;0.0
2.0;1753875189.718859;18.21168;0.87;-1.7;-0.32;-0.868614;0.487886;0.005761;0.0;0.0;0.0;0.0;0.0;0.0
2.0;1753875189.723458;18.25708;0.88;-1.66;-0.37;-0.869576;0.487346;0.005758;0.0;0.0;0.0;0.0;0.0;0.0
2.0;1753875189.728058;18.2563;0.83;-1.73;-0.38;-0.869702;0.487171;0.004576;0.0;0.0;0.0;0.0;0.0;0.0
2.0;1753875189.732656;18.19555;0.97;-1.75;-0.38;-0.868652;0.489435;0.005105;0.0;0.0;0.0;0.0;0.0;0.0
2.0;1753875189.737256;18.16044;0.94;-1.72;-0.32;-0.868388;0.488371;0.006738;0.0;0.0;0.0;0.0;0.0;0.0
2.0;1753875189.741855;18.18364;0.82;-1.74;-0.36;-0.868674;0.489042;0.003672;0.0;0.0;0.0;0.0;0.0;0.0
2.0;1753875189.746454;18.18111;0.98;-1.71;-0.32;-0.869547;0.486761;0.006053;0.0;0.0;0.0;0.0;0.0;0.0
2.0;1753875189.751053;18.17459;0.91;-1.7;-0.44;-0.868703;0.488402;0.005196;0.0;0.0;0.0;0.0;0.0;0.0
2.0;1753875189.755652;18.18453;0.94;-1.75;-0.36;-0.868034;0.487948;0.007016;0.0;0.0;0.0;0.0;0.0;0.0
2.0;1753875189.760251;18.2689;0.89;-1.76;-0.29;-0.869509;0.488363;0.006292;0.0;0.0;0.0;0.0;0.0;0.0
2.0;1753875189.76485;18.22177;0.87;-1.74;-0.26;-0.869222;0.487437;0.005044;0.0;0.0;0.0;0.0;0.0;0.0
2.0;1753875189.769449;18.24483;1.03;-1.73;-0.33;-0.869414;0.490311;0.005155;0.0;0.0;0.0;0.0;0.0;0.0
2.0;1753875189.7759;18.20312;0.98;-1.75;-0.28;-0.86864;0.488366;0.005246;0.0;0.0;0.0;0.0;0.0;0.0
2.0;1753875189.780499;18.16221;1.07;-1.68;-0.29;-0.868159;0.487151;0.005538;0.0;0.0;0.0;0.0;0.0;0.0
2.0;1753875189.785098;18.15668;0.88;-1.75;-0.29;-0.867301;0.488104;0.00435;0.0;0.0;0.0;0.0;0.0;0.0
2.0;1753875189.789697;18.24708;0.97;-1.68;-0.33;-0.869092;0.489265;0.00493;0.0;0.0;0.0;0.0;0.0;0.0
2.0;1753875189.79779;18.20312;0.91;-1.68;-0.35;-0.868274;0.487634;0.004636;0.0;0.0;0.0;0.0;0.0;0.0
2.0;1753875189.802389;18.18751;0.89;-1.72;-0.31;-0.869153;0.488255;0.002801;0.0;0.0;0.0;0.0;0.0;0.0
2.0;1753875189.806988;18.25237;0.95;-1.64;-0.33;-0.867316;0.488564;0.003796;0.0;0.0;0.0;0.0;0.0;0.0
2.0;1753875189.811587;18.18101;0.86;-1.64;-0.27;-0.867973;0.48635;0.006159;0.0;0.0;0.0;0.0;0.0;0.0
2.0;1753875189.816186;18.23682;0.89;-1.73;-0.33;-0.867645;0.487795;0.004943;0.0;0.0;0.0;0.0;0.0;0.0
2.0;1753875189.820786;18.23602;0.85;-1.7;-0.29;-0.867429;0.4873;0.007019;0.0;0.0;0.0;0.0;0.0;0.0
2.0;1753875189.825384;18.2084;0.88;-1.7;-0.38;-0.868366;0.487189;0.004816;0.0;0.0;0.0;0.0;0.0;0.0
2.0;1753875189.829984;18.14873;0.83;-1.63;-0.28;-0.867318;0.488664;0.003821;0.0;0.0;0.0;0.0;0.0;0.0
2.0;1753875189.834583;18.2157;1.01;-1.59;-0.24;-0.86766;0.486623;0.006386;0.0;0.0;0.0;0.0;0.0;0.0
2.0;1753875189.8406;18.20703;0.98;-1.68;-0.28;-0.867298;0.487268;0.00488;0.0;0.0;0.0;0.0;0.0;0.0
2.0;1753875189.845199;18.21031;0.97;-1.66;-0.24;-0.866799;0.488561;0.003796;0.0;0.0;0.0;0.0;0.0;0.0
2.0;1753875189.849798;18.20598;1.02;-1.65;-0.19;-0.867675;0.486646;0.004157;0.0;0.0;0.0;0.0;0.0;0.0
2.0;1753875189.854397;18.1923;0.99;-1.77;-0.29;-0.868636;0.486484;0.006383;0.0;0.0;0.0;0.0;0.0;0.0
2.0;1753875189.858996;18.30835;0.89;-1.7;-0.28;-0.867698;0.486134;0.006498;0.0;0.0;0.0;0.0;0.0;0.0
2.0;1753875189.863596;18.14946;0.92;-1.63;-0.34;-0.867935;0.486785;0.004047;0.0;0.0;0.0;0.0;0.0;0.0
2.0;1753875189.868194;18.20975;0.9;-1.66;-0.22;-0.869429;0.487532;0.003739;0.0;0.0;0.0;0.0;0.0;0.0
2.0;1753875189.872794;18.24056;0.91;-1.68;-0.3;-0.870101;0.489657;0.005395;0.0;0.0;0.0;0.0;0.0;0.0
2.0;1753875189.877393;18.26247;0.88;-1.63;-0.27;-0.868743;0.48759;0.005352;0.0;0.0;0.0;0.0;0.0;0.0
2.0;1753875189.881992;18.20887;1.0;-1.71;-0.2;-0.86617;0.489011;0.004534;0.0;0.0;0.0;0.0;0.0;0.0
2.0;1753875189.886591;18.20291;0.98;-1.63;-0.31;-0.868304;0.486963;0.004923;0.0;0.0;0.0;0.0;0.0;0.0
2.0;1753875189.89137;18.20703;0.84;-1.68;-0.28;-0.868396;0.488732;0.00488;0.0;0.0;0.0;0.0;0.0;0.0
2.0;1753875189.895969;18.23772;0.78;-1.69;-0.38;-0.868407;0.489486;0.004419;0.0;0.0;0.0;0.0;0.0;0.0
2.0;1753875189.900568;18.19283;0.74;-1.62;-0.32;-0.867935;0.486629;0.003472;0.0;0.0;0.0;0.0;0.0;0.0
2.0;1753875189.905167;18.25192;0.86;-1.74;-0.28;-0.869914;0.488013;0.002146;0.0;0.0;0.0;0.0;0.0;0.0
2.0;1753875189.909766;18.17502;0.78;-1.74;-0.26;-0.868846;0.487596;0.00475;0.0;0.0;0.0;0.0;0.0;0.0
2.0;1753875189.914366;18.23459;0.8;-1.76;-0.33;-0.868959;0.486629;0.004638;0.0;0.0;0.0;0.0;0.0;0.0
2.0;1753875189.918964;18.17198;0.89;-1.69;-0.28;-0.869071;0.48795;0.00468;0.0;0.0;0.0;0.0;0.0;0.0
2.0;1753875189.923564;18.19025;0.8;-1.77;-0.3;-0.868348;0.488288;0.003382;0.0;0.0;0.0;0.0;0.0;0.0
2.0;1753875189.93087;18.20703;0.84;-1.75;-0.28;-0.869128;0.487146;0.004026;0.0;0.0;0.0;0.0;0.0;0.0
2.0;1753875189.935469;18.15327;0.9;-1.81;-0.25;-0.86962;0.487953;0.004042;0.0;0.0;0.0;0.0;0.0;0.0
2.0;1753875189.940068;18.21528;0.87;-1.78;-0.21;-0.870326;0.486859;0.005891;0.0;0.0;0.0;0.0;0.0;0.0
2.0;1753875189.944667;18.21978;0.89;-1.68;-0.31;-0.86774;0.485838;0.005606;0.0;0.0;0.0;0.0;0.0;0.0
2.0;1753875189.949266;18.16444;0.86;-1.68;-0.3;-0.868434;0.48775;0.003074;0.0;0.0;0.0;0.0;0.0;0.0
2.0;1753875189.953866;18.2321;0.84;-1.76;-0.36;-0.868984;0.484603;0.004452;0.0;0.0;0.0;0.0;0.0;0.0
2.0;1753875189.958464;18.21174;0.76;-1.8;-0.27;-0.868613;0.487555;0.003267;0.0;0.0;0.0;0.0;0.0;0.0
2.0;1753875189.963064;18.21039;0.73;-1.81;-0.27;-0.867935;0.487731;0.003789;0.0;0.0;0.0;0.0;0.0;0.0
2.0;1753875189.967663;18.14799;0.89;-1.73;-0.29;-0.868585;0.486314;0.006169;0.0;0.0;0.0;0.0;0.0;0.0
2.0;1753875189.972262;18.2115;0.87;-1.77;-0.31;-0.869372;0.486633;0.004131;0.0;0.0;0.0;0.0;0.0;0.0
2.0;1753875189.976861;18.19852;0.96;-1.74;-0.25;-0.867189;0.487084;0.004694;0.0;0.0;0.0;0.0;0.0;0.0
2.0;1753875189.98146;18.14932;0.88;-1.8;-0.29;-0.868309;0.486994;0.004913;0.0;0.0;0.0;0.0;0.0;0.0
2.0;1753875189.98669;18.20703;0.91;-1.75;-0.28;-0.867908;0.487268;0.004514;0.0;0.0;0.0;0.0;0.0;0.0
2.0;1753875189.989581;18.21484;0.91;-1.68;-0.28;-0.868884;0.488;0.004148;0.0;0.0;0.0;0.0;0.0;0.0
2.0;1753875189.99415;18.21484;0.84;-1.68;-0.35;-0.867542;0.488;0.002928;0.0;0.0;0.0;0.0;0.0;0.0
2.0;1753875189.998749;18.20418;0.81;-1.68;-0.34;-0.867365;0.488295;0.003664;0.0;0.0;0.0;0.0;0.0;0.0
2.0;1753875190.003348;18.20471;0.79;-1.69;-0.32;-0.868741;0.487407;0.002586;0.0;0.0;0.0;0.0;0.0;0.0
2.0;1753875190.007947;18.21094;0.73;-1.69;-0.36;-0.867563;0.488025;0.003441;0.0;0.0;0.0;0.0;0.0;0.0
2.0;1753875190.012546;18.22119;0.78;-1.69;-0.32;-0.867486;0.487407;0.002303;0.0;0.0;0.0;0.0;0.0;0.0
2.0;1753875190.017146;18.20114;0.82;-1.7;-0.39;-0.866613;0.487731;0.002684;0.0;0.0;0.0;0.0;0.0;0.0
2.0;1753875190.021744;18.21992;0.83;-1.65;-0.34;-0.867454;0.488017;0.003855;0.0;0.0;0.0;0.0;0.0;0.0
2.0;1753875190.026344;18.20974;0.88;-1.7;-0.35;-0.867709;0.487704;0.005134;0.0;0.0;0.0;0.0;0.0;0.0
2.0;1753875190.030943;18.20825;0.77;-1.65;-0.25;-0.868604;0.487853;0.004198;0.0;0.0;0.0;0.0;0.0;0.0
2.0;1753875190.035542;18.21429;0.79;-1.75;-0.29;-0.867893;0.487324;0.003022;0.0;0.0;0.0;0.0;0.0;0.0
2.0;1753875190.040141;18.21094;0.83;-1.68;-0.32;-0.867848;0.488114;0.002565;0.0;0.0;0.0;0.0;0.0;0.0
2.0;1753875190.04474;18.21138;0.72;-1.63;-0.42;-0.867772;0.486861;0.003147;0.0;0.0;0.0;0.0;0.0;0.0
2.0;1753875190.049339;18.20567;0.79;-1.74;-0.36;-0.867868;0.487826;0.003988;0.0;0.0;0.0;0.0;0.0;0.0
2.0;1753875190.053938;18.22405;0.86;-1.65;-0.33;-0.868323;0.487932;0.002501;0.0;0.0;0.0;0.0;0.0;0.0
2.0;1753875190.058537;18.23331;0.76;-1.72;-0.37;-0.868025;0.489264;0.003355;0.0;0.0;0.0;0.0;0.0;0.0
2.0;1753875190.063136;18.21355;0.77;-1.71;-0.36;-0.867859;0.488307;0.002827;0.0;0.0;0.0;0.0;0.0;0.0
2.0;1753875190.067736;18.22485;0.73;-1.63;-0.4;-0.868142;0.487934;0.002269;0.0;0.0;0.0;0.0;0.0;0.0
2.0;1753875190.072334;18.20758;0.9;-1.71;-0.26;-0.866304;0.488565;0.004753;0.0;0.0;0.0;0.0;0.0;0.0
2.0;1753875190.076934;18.2222;0.86;-1.58;-0.21;-0.866603;0.488017;0.001645;0.0;0.0;0.0;0.0;0.0;0.0
2.0;1753875190.081533;18.21243;0.93;-1.71;-0.33;-0.866864;0.489023;0.004284;0.0;0.0;0.0;0.0;0.0;0.0
2.0;1753875190.086132;18.20124;0.71;-1.71;-0.38;-0.86628;0.487958;0.004157;0.0;0.0;0.0;0.0;0.0;0.0
2.0;1753875190.090731;18.21817;0.85;-1.79;-0.32;-0.867199;0.489317;0.002917;0.0;0.0;0.0;0.0;0.0;0.0
2.0;1753875190.09533;18.2075;0.94;-1.65;-0.42;-0.867837;0.487577;0.004386;0.0;0.0;0.0;0.0;0.0;0.0
2.0;1753875190.099929;18.2173;0.9;-1.71;-0.4;-0.867586;0.488378;0.005124;0.0;0.0;0.0;0.0;0.0;0.0
2.0;1753875190.104528;18.19976;0.87;-1.79;-0.29;-0.86755;0.486409;0.003705;0.0;0.0;0.0;0.0;0.0;0.0
2.0;1753875190.109127;18.19909;0.83;-1.67;-0.26;-0.868342;0.488123;0.004279;0.0;0.0;0.0;0.0;0.0;0.0
2.0;1753875190.113726;18.22641;0.87;-1.62;-0.39;-0.866425;0.488273;0.001689;0.0;0.0;0.0;0.0;0.0;0.0
2.0;1753875190.118326;18.21429;0.84;-1.61;-0.32;-0.867797;0.486947;0.003012;0.0;0.0;0.0;0.0;0.0;0.0
2.0;1753875190.122924;18.22515;0.87;-1.72;-0.34;-0.867717;0.487113;0.004433;0.0;0.0;0.0;0.0;0.0;0.0
2.0;1753875190.127524;18.20443;0.83;-1.68;-0.33;-0.867358;0.487209;0.003345;0.0;0.0;0.0;0.0;0.0;0.0
2.0;1753875190.132123;18.21192;0.85;-1.69;-0.35;-0.867251;0.48976;0.002375;0.0;0.0;0.0;0.0;0.0;0.0
2.0;1753875190.136722;18.20549;0.83;-1.7;-0.4;-0.869248;0.487531;0.004271;0.0;0.0;0.0;0.0;0.0;0.0
2.0;1753875190.141321;18.21652;0.87;-1.63;-0.36;-0.869183;0.48761;0.005012;0.0;0.0;0.0;0.0;0.0;0.0
2.0;1753875190.14592;18.22141;0.83;-1.71;-0.34;-0.867897;0.487027;0.00378;0.0;0.0;0.0;0.0;0.0;0.0
2.0;1753875190.150519;18.22398;0.89;-1.67;-0.39;-0.867903;0.487586;0.002949;0.0;0.0;0.0;0.0;0.0;0.0
2.0;1753875190.155118;18.22143;0.9;-1.63;-0.37;-0.868505;0.487872;0.001488;0.0;0.0;0.0;0.0;0.0;0.0
2.0;1753875190.159717;18.22152;0.91;-1.69;-0.36;-0.86855;0.488084;0.004312;0.0;0.0;0.0;0.0;0.0;0.0
2.0;1753875190.164316;18.21051;0.87;-1.6;-0.44;-0.867949;0.489509;0.003137;0.0;0.0;0.0;0.0;0.0;0.0
2.0;1753875190.168916;18.20693;0.96;-1.73;-0.38;-0.868631;0.488094;0.00289;0.0;0.0;0.0;0.0;0.0;0.0
2.0;1753875190.173514;18.20094;0.87;-1.74;-0.4;-0.867671;0.487639;0.002814;0.0;0.0;0.0;0.0;0.0;0.0
2.0;1753875190.178114;18.22347;0.91;-1.71;-0.39;-0.868931;0.488216;0.004359;0.0;0.0;0.0;0.0;0.0;0.0
2.0;1753875190.182713;18.23179;0.85;-1.66;-0.24;-0.867564;0.489212;0.004843;0.0;0.0;0.0;0.0;0.0;0.0
2.0;1753875190.187312;18.22506;0.88;-1.68;-0.36;-0.867083;0.488145;0.003384;0.0;0.0;0.0;0.0;0.0;0.0
2.0;1753875190.191911;18.23114;0.82;-1.66;-0.35;-0.867127;0.488374;0.00213;0.0;0.0;0.0;0.0;0.0;0.0
2.0;1753875190.19651;18.22061;0.88;-1.63;-0.36;-0.8668;0.487557;0.004329;0.0;0.0;0.0;0.0;0.0;0.0
2.0;1753875190.201109;18.20807;0.79;-1.68;-0.34;-0.869979;0.488348;0.003728;0.0;0.0;0.0;0.0;0.0;0.0
2.0;1753875190.205708;18.23276;0.93;-1.62;-0.28;-0.869114;0.488877;0.004761;0.0;0.0;0.0;0.0;0.0;0.0
2.0;1753875190.210307;18.22525;0.86;-1.69;-0.29;-0.868312;0.488274;0.003432;0.0;0.0;0.0;0.0;0.0;0.0
2.0;1753875190.214906;18.22407;0.8;-1.68;-0.38;-0.867885;0.487875;0.003282;0.0;0.0;0.0;0.0;0.0;0.0
2.0;1753875190.219506;18.22169;0.92;-1.58;-0.37;-0.867109;0.488474;0.004062;0.0;0.0;0.0;0.0;0.0;0.0
2.0;1753875190.224105;18.21407;0.88;-1.75;-0.32;-0.868902;0.489149;0.002755;0.0;0.0;0.0;0.0;0.0;0.0
2.0;1753875190.228704;18.21869;0.81;-1.72;-0.36;-0.867834;0.488952;0.005769;0.0;0.0;0.0;0.0;0.0;0.0
2.0;1753875190.233303;18.20315;0.92;-1.64;-0.4;-0.868304;0.488877;0.003465;0.0;0.0;0.0;0.0;0.0;0.0
2.0;1753875190.237902;18.20718;0.83;-1.65;-0.35;-0.86815;0.487445;0.004337;0.0;0.0;0.0;0.0;0.0;0.0
2.0;1753875190.242501;18.22449;0.81;-1.66;-0.27;-0.868512;0.488439;0.004462;0.0;0.0;0.0;0.0;0.0;0.0
2.0;1753875190.2471;18.19782;0.82;-1.74;-0.36;-0.868515;0.488773;0.003413;0.0;0.0;0.0;0.0;0.0;0.0
2.0;1753875190.251699;18.22835;0.86;-1.68;-0.36;-0.867369;0.487783;0.001122;0.0;0.0;0.0;0.0;0.0;0.0
2.0;1753875190.256298;18.21471;0.89;-1.64;-0.42;-0.867984;0.487514;0.004899;0.0;0.0;0.0;0.0;0.0;0.0
2.0;1753875190.260898;18.22183;0.89;-1.65;-0.3;-0.867446;0.488863;0.003783;0.0;0.0;0.0;0.0;0.0;0.0
2.0;1753875190.265496;18.22651;0.78;-1.67;-0.37;-0.868774;0.487941;0.002675;0.0;0.0;0.0;0.0;0.0;0.0
2.0;1753875190.270096;18.20334;0.86;-1.7;-0.31;-0.867155;0.487849;0.003715;0.0;0.0;0.0;0.0;0.0;0.0
2.0;1753875190.274695;18.23549;0.88;-1.65;-0.3;-0.867859;0.487749;0.004904;0.0;0.0;0.0;0.0;0.0;0.0
2.0;1753875190.279294;18.22216;0.87;-1.7;-0.34;-0.868664;0.488961;0.004294;0.0;0.0;0.0;0.0;0.0;0.0
2.0;1753875190.283893;18.20924;0.8;-1.71;-0.45;-0.868136;0.488135;0.004903;0.0;0.0;0.0;0.0;0.0;0.0
2.0;1753875190.288492;18.23176;0.79;-1.63;-0.35;-0.868081;0.488766;0.00236;0.0;0.0;0.0;0.0;0.0;0.0
2.0;1753875190.293091;18.22252;0.83;-1.7;-0.44;-0.868293;0.487827;0.004102;0.0;0.0;0.0;0.0;0.0;0.0
2.0;1753875190.29769;18.20558;0.88;-1.63;-0.27;-0.868289;0.487883;0.001614;0.0;0.0;0.0;0.0;0.0;0.0
2.0;1753875190.302289;18.21029;0.9;-1.71;-0.33;-0.867413;0.487779;0.00532;0.0;0.0;0.0;0.0;0.0;0.0
2.0;1753875190.306888;18.23122;0.87;-1.67;-0.44;-0.868069;0.488456;0.003078;0.0;0.0;0.0;0.0;0.0;0.0
2.0;1753875190.311488;18.20552;0.77;-1.66;-0.39;-0.868508;0.489449;0.002955;0.0;0.0;0.0;0.0;0.0;0.0
2.0;1753875190.316086;18.22233;0.86;-1.68;-0.3;-0.869307;0.488882;0.004812;0.0;0.0;0.0;0.0;0.0;0.0
2.0;1753875190.320686;18.22869;1.01;-1.66;-0.34;-0.868834;0.489085;0.004139;0.0;0.0;0.0;0.0;0.0;0.0
2.0;1753875190.325285;18.21939;0.89;-1.59;-0.39;-0.868534;0.488619;0.003698;0.0;0.0;0.0;0.0;0.0;0.0
2.0;1753875190.329884;18.20218;0.88;-1.7;-0.33;-0.867666;0.487904;0.006005;0.0;0.0;0.0;0.0;0.0;0.0
2.0;1753875190.334483;18.23861;0.84;-1.63;-0.27;-0.868504;0.490285;0.006694;0.0;0.0;0.0;0.0;0.0;0.0
2.0;1753875190.339082;18.20445;0.78;-1.69;-0.34;-0.869404;0.488013;0.003959;0.0;0.0;0.0;0.0;0.0;0.0
2.0;1753875190.343681;18.23733;0.94;-1.7;-0.37;-0.867978;0.487732;0.005735;0.0;0.0;0.0;0.0;0.0;0.0
2.0;1753875190.34828;18.2103;0.89;-1.71;-0.37;-0.866956;0.488653;0.004837;0.0;0.0;0.0;0.0;0.0;0.0
2.0;1753875190.352879;18.21567;0.92;-1.58;-0.4;-0.868363;0.489424;0.00424;0.0;0.0;0.0;0.0;0.0;0.0
2.0;1753875190.357478;18.2204;0.9;-1.66;-0.39;-0.868854;0.488681;0.00581;0.0;0.0;0.0;0.0;0.0;0.0
2.0;1753875190.362078;18.20352;0.84;-1.68;-0.4;-0.867584;0.48879;0.005137;0.0;0.0;0.0;0.0;0.0;0.0
2.0;1753875190.366676;18.22229;0.88;-1.74;-0.29;-0.868035;0.48943;0.004603;0.0;0.0;0.0;0.0;0.0;0.0
2.0;1753875190.371276;18.21788;0.92;-1.7;-0.34;-0.867457;0.489562;0.005178;0.0;0.0;0.0;0.0;0.0;0.0
2.0;1753875190.375875;18.20664;0.88;-1.68;-0.43;-0.868828;0.487455;0.003564;0.0;0.0;0.0;0.0;0.0;0.0
2.0;1753875190.380474;18.22836;0.9;-1.63;-0.25;-0.868651;0.487409;0.005622;0.0;0.0;0.0;0.0;0.0;0.0
2.0;1753875190.385073;18.21873;0.89;-1.68;-0.32;-0.86836;0.489185;0.004536;0.0;0.0;0.0;0.0;0.0;0.0
2.0;1753875190.389672;18.23102;0.88;-1.73;-0.29;-0.867673;0.488822;0.006135;0.0;0.0;0.0;0.0;0.0;0.0
2.0;1753875190.394271;18.20766;0.88;-1.68;-0.38;-0.86801;0.488349;0.004784;0.0;0.0;0.0;0.0;0.0;0.0
2.0;1753875190.39887;18.22422;0.93;-1.63;-0.33;-0.868092;0.489423;0.004938;0.0;0.0;0.0;0.0;0.0;0.0
2.0;1753875190.403469;18.22062;0.85;-1.66;-0.3;-0.867595;0.489127;0.006164;0.0;0.0;0.0;0.0;0.0;0.0
2.0;1753875190.408068;18.22629;0.93;-1.65;-0.36;-0.868967;0.488519;0.003192;0.0;0.0;0.0;0.0;0.0;0.0
2.0;1753875190.412668;18.22547;0.79;-1.71;-0.37;-0.86791;0.488414;0.003774;0.0;0.0;0.0;0.0;0.0;0.0
2.0;1753875190.417266;18.20555;0.87;-1.69;-0.28;-0.867889;0.48881;0.003558;0.0;0.0;0.0;0.0;0.0;0.0
2.0;1753875190.421866;18.22778;0.98;-1.64;-0.29;-0.86907;0.488057;0.004185;0.0;0.0;0.0;0.0;0.0;0.0
2.0;1753875190.426465;18.20756;0.84;-1.68;-0.34;-0.868587;0.488842;0.004912;0.0;0.0;0.0;0.0;0.0;0.0
2.0;1753875190.431064;18.2084;1.0;-1.7;-0.37;-0.86827;0.487235;0.005207;0.0;0.0;0.0;0.0;0.0;0.0
2.0;1753875190.435663;18.23134;0.84;-1.71;-0.38;-0.869711;0.488969;0.005152;0.0;0.0;0.0;0.0;0.0;0.0
2.0;1753875190.440262;18.21986;0.9;-1.71;-0.38;-0.869163;0.488665;0.005431;0.0;0.0;0.0;0.0;0.0;0.0
2.0;1753875190.444861;18.21292;1.02;-1.74;-0.32;-0.869224;0.488099;0.005345;0.0;0.0;0.0;0.0;0.0;0.0
2.0;1753875190.44946;18.22792;0.84;-1.66;-0.34;-0.869497;0.4895;0.005285;0.0;0.0;0.0;0.0;0.0;0.0
2.0;1753875190.458;18.22266;0.91;-1.68;-0.35;-0.868518;0.488488;0.004758;0.0;0.0;0.0;0.0;0.0;0.0
2.0;1753875190.462599;18.2286;0.98;-1.78;-0.39;-0.869437;0.489084;0.004903;0.0;0.0;0.0;0.0;0.0;0.0
2.0;1753875190.467198;18.21967;0.86;-1.69;-0.34;-0.868145;0.487828;0.005892;0.0;0.0;0.0;0.0;0.0;0.0
2.0;1753875190.471797;18.23316;0.87;-1.7;-0.27;-0.868241;0.489049;0.004984;0.0;0.0;0.0;0.0;0.0;0.0
2.0;1753875190.476396;18.229;0.87;-1.67;-0.32;-0.867911;0.488456;0.005401;0.0;0.0;0.0;0.0;0.0;0.0
2.0;1753875190.480996;18.2381;0.8;-1.63;-0.48;-0.869082;0.488645;0.003319;0.0;0.0;0.0;0.0;0.0;0.0
2.0;1753875190.485594;18.21319;0.98;-1.64;-0.36;-0.869503;0.488207;0.004206;0.0;0.0;0.0;0.0;0.0;0.0
2.0;1753875190.490194;18.21503;1.02;-1.69;-0.35;-0.868169;0.48795;0.005122;0.0;0.0;0.0;0.0;0.0;0.0
2.0;1753875190.494793;18.23855;0.86;-1.73;-0.31;-0.867943;0.488103;0.004457;0.0;0.0;0.0;0.0;0.0;0.0
2.0;1753875190.499392;18.22339;0.96;-1.73;-0.3;-0.869041;0.489568;0.004773;0.0;0.0;0.0;0.0;0.0;0.0
2.0;1753875190.503991;18.22676;0.93;-1.7;-0.33;-0.867868;0.489276;0.00585;0.0;0.0;0.0;0.0;0.0;0.0
2.0;1753875190.50859;18.22237;0.94;-1.75;-0.38;-0.868792;0.488451;0.004753;0.0;0.0;0.0;0.0;0.0;0.0
2.0;1753875190.513189;18.21301;0.93;-1.64;-0.3;-0.869191;0.487896;0.00422;0.0;0.0;0.0;0.0;0.0;0.0
2.0;1753875190.517788;18.23056;0.92;-1.63;-0.34;-0.869512;0.488175;0.004911;0.0;0.0;0.0;0.0;0.0;0.0
2.0;1753875190.522387;18.23174;0.83;-1.7;-0.29;-0.868284;0.487439;0.003341;0.0;0.0;0.0;0.0;0.0;0.0
2.0;1753875190.526986;18.22111;0.92;-1.7;-0.35;-0.866742;0.488404;0.005038;0.0;0.0;0.0;0.0;0.0;0.0
2.0;1753875190.531586;18.23553;0.91;-1.66;-0.4;-0.86704;0.487957;0.006848;0.0;0.0;0.0;0.0;0.0;0.0
2.0;1753875190.536184;18.23319;0.9;-1.65;-0.27;-0.868308;0.488579;0.005109;0.0;0.0;0.0;0.0;0.0;0.0
2.0;1753875190.540784;18.21523;0.97;-1.63;-0.28;-0.867997;0.488992;0.004877;0.0;0.0;0.0;0.0;0.0;0.0
2.0;1753875190.545383;18.22148;0.9;-1.65;-0.35;-0.867456;0.489029;0.003814;0.0;0.0;0.0;0.0;0.0;0.0
2.0;1753875190.549982;18.22676;0.88;-1.6;-0.27;-0.868904;0.487836;0.005079;0.0;0.0;0.0;0.0;0.0;0.0
2.0;1753875190.554581;18.21603;0.89;-1.7;-0.29;-0.867512;0.488454;0.004712;0.0;0.0;0.0;0.0;0.0;0.0
2.0;1753875190.55918;18.21473;0.88;-1.75;-0.36;-0.868533;0.488166;0.004015;0.0;0.0;0.0;0.0;0.0;0.0
2.0;1753875190.563779;18.2148;0.89;-1.63;-0.29;-0.868966;0.487105;0.004994;0.0;0.0;0.0;0.0;0.0;0.0
2.0;1753875190.568378;18.22359;0.94;-1.68;-0.36;-0.868003;0.487397;0.005749;0.0;0.0;0.0;0.0;0.0;0.0
2.0;1753875190.572977;18.22375;0.87;-1.7;-0.34;-0.867375;0.487827;0.004663;0.0;0.0;0.0;0.0;0.0;0.0
2.0;1753875190.577576;18.23453;0.93;-1.62;-0.34;-0.867491;0.488656;0.005006;0.0;0.0;0.0;0.0;0.0;0.0
2.0;1753875190.582176;18.22412;0.74;-1.68;-0.39;-0.868461;0.488889;0.003118;0.0;0.0;0.0;0.0;0.0;0.0
2.0;1753875190.586774;18.23167;0.89;-1.67;-0.43;-0.869172;0.488923;0.005808;0.0;0.0;0.0;0.0;0.0;0.0
2.0;1753875190.591374;18.22541;0.88;-1.7;-0.34;-0.867961;0.487697;0.00453;0.0;0.0;0.0;0.0;0.0;0.0
2.0;1753875190.595973;18.2293;0.91;-1.65;-0.28;-0.867979;0.488565;0.003699;0.0;0.0;0.0;0.0;0.0;0.0
2.0;1753875190.600572;18.22173;1.02;-1.71;-0.26;-0.86855;0.489359;0.0056;0.0;0.0;0.0;0.0;0.0;0.0
2.0;1753875190.605171;18.22805;0.88;-1.68;-0.37;-0.868246;0.488573;0.003837;0.0;0.0;0.0;0.0;0.0;0.0
2.0;1753875190.60977;18.23114;0.81;-1.66;-0.28;-0.868783;0.487933;0.002503;0.0;0.0;0.0;0.0;0.0;0.0
2.0;1753875190.614369;18.21582;0.91;-1.69;-0.25;-0.868845;0.489438;0.003243;0.0;0.0;0.0;0.0;0.0;0.0
2.0;1753875190.618968;18.23244;0.96;-1.62;-0.35;-0.868432;0.488275;0.005298;0.0;0.0;0.0;0.0;0.0;0.0
2.0;1753875190.623567;18.2286;0.89;-1.66;-0.35;-0.869141;0.488241;0.004516;0.0;0.0;0.0;0.0;0.0;0.0
2.0;1753875190.628166;18.21323;0.92;-1.67;-0.4;-0.869035;0.488922;0.004742;0.0;0.0;0.0;0.0;0.0;0.0
2.0;1753875190.632766;18.23286;0.9;-1.67;-0.32;-0.868561;0.48819;0.005739;0.0;0.0;0.0;0.0;0.0;0.0
2.0;1753875190.637365;18.22382;0.88;-1.65;-0.19;-0.869292;0.48786;0.002124;0.0;0.0;0.0;0.0;0.0;0.0
2.0;1753875190.641964;18.22686;0.85;-1.73;-0.34;-0.868291;0.489098;0.005546;0.0;0.0;0.0;0.0;0.0;0.0
2.0;1753875190.646563;18.22888;0.88;-1.72;-0.31;-0.867886;0.487255;0.006184;0.0;0.0;0.0;0.0;0.0;0.0
2.0;1753875190.651162;18.20289;0.8;-1.62;-0.38;-0.867593;0.487298;0.006086;0.0;0.0;0.0;0.0;0.0;0.0
2.0;1753875190.655761;18.20885;0.94;-1.68;-0.33;-0.868301;0.488263;0.003608;0.0;0.0;0.0;0.0;0.0;0.0
2.0;1753875190.66036;18.22392;0.87;-1.66;-0.17;-0.868679;0.488527;0.005046;0.0;0.0;0.0;0.0;0.0;0.0
2.0;1753875190.664959;18.21575;0.86;-1.72;-0.3;-0.868273;0.488565;0.004756;0.0;0.0;0.0;0.0;0.0;0.0
2.0;1753875190.669558;18.21924;0.98;-1.71;-0.27;-0.8672;0.489264;0.00385;0.0;0.0;0.0;0.0;0.0;0.0
2.0;1753875190.674158;18.21912;0.98;-1.64;-0.34;-0.868408;0.487967;0.00304;0.0;0.0;0.0;0.0;0.0;0.0
2.0;1753875190.678756;18.21581;0.94;-1.65;-0.38;-0.868478;0.487226;0.002987;0.0;0.0;0.0;0.0;0.0;0.0
2.0;1753875190.683356;18.24092;0.86;-1.65;-0.32;-0.867662;0.487553;0.005543;0.0;0.0;0.0;0.0;0.0;0.0
2.0;1753875190.687955;18.23001;0.91;-1.68;-0.34;-0.866857;0.487538;0.003067;0.0;0.0;0.0;0.0;0.0;0.0
2.0;1753875190.692554;18.22424;0.96;-1.73;-0.32;-0.867611;0.487907;0.003776;0.0;0.0;0.0;0.0;0.0;0.0
2.0;1753875190.697153;18.22013;0.97;-1.7;-0.31;-0.867151;0.488512;0.002263;0.0;0.0;0.0;0.0;0.0;0.0
2.0;1753875190.701752;18.2151;0.94;-1.67;-0.39;-0.867567;0.487884;0.003879;0.0;0.0;0.0;0.0;0.0;0.0
2.0;1753875190.706351;18.22673;0.97;-1.64;-0.28;-0.869211;0.487028;0.004375;0.0;0.0;0.0;0.0;0.0;0.0
2.0;1753875190.71095;18.23004;1.01;-1.72;-0.35;-0.868296;0.488493;0.00513;0.0;0.0;0.0;0.0;0.0;0.0
2.0;1753875190.715549;18.21731;0.98;-1.64;-0.33;-0.868067;0.489278;0.005206;0.0;0.0;0.0;0.0;0.0;0.0
2.0;1753875190.720148;18.23312;0.88;-1.67;-0.19;-0.866962;0.48839;0.00441;0.0;0.0;0.0;0.0;0.0;0.0
2.0;1753875190.724748;18.22353;1.0;-1.65;-0.26;-0.869016;0.488791;0.004569;0.0;0.0;0.0;0.0;0.0;0.0
2.0;1753875190.729346;18.22918;0.89;-1.66;-0.25;-0.868255;0.488767;0.004066;0.0;0.0;0.0;0.0;0.0;0.0
2.0;1753875190.733946;18.22662;0.91;-1.75;-0.18;-0.868266;0.487708;0.005114;0.0;0.0;0.0;0.0;0.0;0.0
2.0;1753875190.738545;18.20016;0.97;-1.69;-0.32;-0.869227;0.487708;0.00414;0.0;0.0;0.0;0.0;0.0;0.0
2.0;1753875190.743144;18.22602;0.93;-1.75;-0.21;-0.869446;0.487942;0.002993;0.0;0.0;0.0;0.0;0.0;0.0
2.0;1753875190.747743;18.23548;0.86;-1.7;-0.33;-0.867727;0.489406;0.004515;0.0;0.0;0.0;0.0;0.0;0.0
2.0;1753875190.752342;18.21859;0.86;-1.65;-0.23;-0.869266;0.487172;0.005595;0.0;0.0;0.0;0.0;0.0;0.0
2.0;1753875190.756941;18.21679;0.93;-1.68;-0.36;-0.868101;0.487156;0.005647;0.0;0.0;0.0;0.0;0.0;0.0
2.0;1753875190.76154;18.22477;0.97;-1.67;-0.39;-0.867498;0.487801;0.004395;0.0;0.0;0.0;0.0;0.0;0.0
2.0;1753875190.766139;18.23568;0.89;-1.75;-0.22;-0.869263;0.48809;0.004308;0.0;0.0;0.0;0.0;0.0;0.0
2.0;1753875190.770738;18.23858;0.92;-1.67;-0.36;-0.868206;0.488026;0.006089;0.0;0.0;0.0;0.0;0.0;0.0
2.0;1753875190.775338;18.22656;0.88;-1.59;-0.36;-0.86876;0.488375;0.004122;0.0;0.0;0.0;0.0;0.0;0.0
2.0;1753875190.779936;18.21776;0.79;-1.65;-0.36;-0.867956;0.488166;0.004897;0.0;0.0;0.0;0.0;0.0;0.0
2.0;1753875190.784536;18.22452;0.94;-1.74;-0.34;-0.86745;0.487117;0.003893;0.0;0.0;0.0;0.0;0.0;0.0
2.0;1753875190.789135;18.20881;0.91;-1.71;-0.33;-0.869515;0.488353;0.003989;0.0;0.0;0.0;0.0;0.0;0.0
2.0;1753875190.793734;18.2299;0.97;-1.65;-0.26;-0.869326;0.488047;0.00305;0.0;0.0;0.0;0.0;0.0;0.0
2.0;1753875190.798333;18.22087;0.94;-1.67;-0.28;-0.86893;0.487787;0.004778;0.0;0.0;0.0;0.0;0.0;0.0
2.0;1753875190.802932;18.2236;0.91;-1.68;-0.2;-0.867601;0.487382;0.007268;0.0;0.0;0.0;0.0;0.0;0.0
2.0;1753875190.807531;18.22107;0.87;-1.68;-0.26;-0.867339;0.486971;0.004836;0.0;0.0;0.0;0.0;0.0;0.0
2.0;1753875190.81213;18.21417;0.98;-1.72;-0.32;-0.868382;0.4877;0.005507;0.0;0.0;0.0;0.0;0.0;0.0
2.0;1753875190.816729;18.22488;1.02;-1.63;-0.22;-0.868033;0.488364;0.00397;0.0;0.0;0.0;0.0;0.0;0.0
2.0;1753875190.821328;18.21599;0.84;-1.69;-0.34;-0.867335;0.487488;0.005618;0.0;0.0;0.0;0.0;0.0;0.0
2.0;1753875190.825928;18.24031;0.92;-1.67;-0.29;-0.868195;0.488719;0.004317;0.0;0.0;0.0;0.0;0.0;0.0
2.0;1753875190.830526;18.22198;0.97;-1.75;-0.26;-0.867399;0.487882;0.004653;0.0;0.0;0.0;0.0;0.0;0.0
2.0;1753875190.835126;18.21786;0.89;-1.7;-0.28;-0.868295;0.487574;0.006156;0.0;0.0;0.0;0.0;0.0;0.0
2.0;1753875190.839725;18.22437;0.82;-1.67;-0.35;-0.868511;0.488025;0.005109;0.0;0.0;0.0;0.0;0.0;0.0
2.0;1753875190.844324;18.2082;0.99;-1.69;-0.29;-0.868851;0.488504;0.004061;0.0;0.0;0.0;0.0;0.0;0.0
2.0;1753875190.848923;18.2297;0.91;-1.67;-0.22;-0.867344;0.488282;0.003818;0.0;0.0;0.0;0.0;0.0;0.0
2.0;1753875190.853522;18.2368;0.89;-1.74;-0.31;-0.867331;0.488034;0.004182;0.0;0.0;0.0;0.0;0.0;0.0
2.0;1753875190.858121;18.22526;0.97;-1.65;-0.3;-0.8675;0.487939;0.004883;0.0;0.0;0.0;0.0;0.0;0.0
2.0;1753875190.86272;18.20992;0.98;-1.71;-0.28;-0.868684;0.488567;0.004105;0.0;0.0;0.0;0.0;0.0;0.0
2.0;1753875190.867319;18.2231;0.73;-1.66;-0.31;-0.867962;0.487406;0.006489;0.0;0.0;0.0;0.0;0.0;0.0
2.0;1753875190.871918;18.22944;0.99;-1.67;-0.28;-0.868422;0.488936;0.004736;0.0;0.0;0.0;0.0;0.0;0.0
2.0;1753875190.876518;18.23348;0.83;-1.73;-0.26;-0.867171;0.487538;0.004966;0.0;0.0;0.0;0.0;0.0;0.0
2.0;1753875190.881117;18.22736;0.83;-1.65;-0.28;-0.867712;0.48733;0.006168;0.0;0.0;0.0;0.0;0.0;0.0
2.0;1753875190.885716;18.21531;0.92;-1.64;-0.3;-0.868689;0.487884;0.003408;0.0;0.0;0.0;0.0;0.0;0.0
2.0;1753875190.890315;18.21154;1.0;-1.73;-0.27;-0.86851;0.488248;0.005954;0.0;0.0;0.0;0.0;0.0;0.0
2.0;1753875190.894914;18.21532;0.88;-1.67;-0.23;-0.868637;0.488339;0.004169;0.0;0.0;0.0;0.0;0.0;0.0
2.0;1753875190.899513;18.22477;0.85;-1.65;-0.25;-0.86678;0.487755;0.005425;0.0;0.0;0.0;0.0;0.0;0.0
2.0;1753875190.904112;18.22494;0.93;-1.66;-0.41;-0.86712;0.487458;0.005836;0.0;0.0;0.0;0.0;0.0;0.0
2.0;1753875190.908711;18.23324;0.93;-1.74;-0.26;-0.868587;0.488068;0.00595;0.0;0.0;0.0;0.0;0.0;0.0
2.0;1753875190.91331;18.21031;0.96;-1.6;-0.27;-0.867704;0.487821;0.003776;0.0;0.0;0.0;0.0;0.0;0.0
2.0;1753875190.91791;18.2105;0.94;-1.65;-0.24;-0.868124;0.487413;0.003551;0.0;0.0;0.0;0.0;0.0;0.0
2.0;1753875190.922508;18.22406;0.95;-1.69;-0.26;-0.8667;0.488393;0.00309;0.0;0.0;0.0;0.0;0.0;0.0
2.0;1753875190.927108;18.21878;0.97;-1.68;-0.34;-0.86837;0.488391;0.005505;0.0;0.0;0.0;0.0;0.0;0.0
2.0;1753875190.9318;18.22266;0.91;-1.68;-0.28;-0.867664;0.487756;0.004758;0.0;0.0;0.0;0.0;0.0;0.0
2.0;1753875190.936399;18.20673;0.82;-1.7;-0.27;-0.868647;0.488738;0.004459;0.0;0.0;0.0;0.0;0.0;0.0
2.0;1753875190.940998;18.20738;0.86;-1.62;-0.35;-0.867204;0.487798;0.005558;0.0;0.0;0.0;0.0;0.0;0.0
2.0;1753875190.945597;18.2375;1.03;-1.65;-0.26;-0.868128;0.487439;0.004584;0.0;0.0;0.0;0.0;0.0;0.0
2.0;1753875190.950196;18.25187;0.82;-1.57;-0.26;-0.867544;0.487849;0.004222;0.0;0.0;0.0;0.0;0.0;0.0
2.0;1753875190.954795;18.22105;0.93;-1.63;-0.26;-0.86814;0.486566;0.004614;0.0;0.0;0.0;0.0;0.0;0.0
2.0;1753875190.959394;18.22648;0.85;-1.58;-0.24;-0.86669;0.48734;0.004874;0.0;0.0;0.0;0.0;0.0;0.0
2.0;1753875190.963994;18.18497;0.92;-1.63;-0.32;-0.865613;0.488694;0.005614;0.0;0.0;0.0;0.0;0.0;0.0
2.0;1753875190.968593;18.23838;0.87;-1.7;-0.29;-0.868966;0.486489;0.005489;0.0;0.0;0.0;0.0;0.0;0.0
2.0;1753875190.973192;18.2411;0.86;-1.5;-0.28;-0.868015;0.486891;0.004629;0.0;0.0;0.0;0.0;0.0;0.0
2.0;1753875190.97813;18.20703;0.91;-1.61;-0.28;-0.867908;0.487634;0.004514;0.0;0.0;0.0;0.0;0.0;0.0
2.0;1753875190.982162;18.22266;0.98;-1.68;-0.35;-0.868152;0.487512;0.00366;0.0;0.0;0.0;0.0;0.0;0.0
2.0;1753875190.986745;18.19141;0.91;-1.68;-0.35;-0.86925;0.487756;0.005124;0.0;0.0;0.0;0.0;0.0;0.0
2.0;1753875190.99317;18.19141;0.91;-1.61;-0.35;-0.868274;0.488244;0.004148;0.0;0.0;0.0;0.0;0.0;0.0
2.0;1753875190.99586;18.19141;0.91;-1.61;-0.28;-0.86925;0.487146;0.005124;0.0;0.0;0.0;0.0;0.0;0.0
2.0;1753875191.000459;18.20534;0.87;-1.66;-0.35;-0.868041;0.48885;0.004411;0.0;0.0;0.0;0.0;0.0;0.0
2.0;1753875191.005058;18.19284;0.84;-1.67;-0.29;-0.869321;0.487396;0.005803;0.0;0.0;0.0;0.0;0.0;0.0
2.0;1753875191.009658;18.21641;0.96;-1.47;-0.33;-0.86903;0.486151;0.005549;0.0;0.0;0.0;0.0;0.0;0.0
2.0;1753875191.014256;18.17946;0.88;-1.58;-0.21;-0.86872;0.486587;0.00463;0.0;0.0;0.0;0.0;0.0;0.0
2.0;1753875191.018856;18.19916;0.88;-1.64;-0.33;-0.869021;0.487694;0.003584;0.0;0.0;0.0;0.0;0.0;0.0
2.0;1753875191.023455;18.1876;0.84;-1.59;-0.23;-0.86773;0.487526;0.003798;0.0;0.0;0.0;0.0;0.0;0.0
2.0;1753875191.028054;18.19855;0.91;-1.64;-0.28;-0.869511;0.488652;0.004534;0.0;0.0;0.0;0.0;0.0;0.0
2.0;1753875191.032653;18.17045;0.86;-1.65;-0.3;-0.869352;0.488559;0.004165;0.0;0.0;0.0;0.0;0.0;0.0
2.0;1753875191.037252;18.17898;0.86;-1.58;-0.26;-0.870276;0.488537;0.004685;0.0;0.0;0.0;0.0;0.0;0.0
2.0;1753875191.041851;18.1971;0.96;-1.64;-0.32;-0.869792;0.488163;0.005094;0.0;0.0;0.0;0.0;0.0;0.0
2.0;1753875191.04645;18.1964;0.89;-1.52;-0.31;-0.868463;0.486712;0.00609;0.0;0.0;0.0;0.0;0.0;0.0
2.0;1753875191.051049;18.18456;0.85;-1.53;-0.33;-0.87095;0.486356;0.005363;0.0;0.0;0.0;0.0;0.0;0.0
2.0;1753875191.055648;18.18803;1.08;-1.53;-0.29;-0.869548;0.486757;0.004397;0.0;0.0;0.0;0.0;0.0;0.0
2.0;1753875191.060248;18.20007;0.91;-1.56;-0.26;-0.870734;0.487059;0.00654;0.0;0.0;0.0;0.0;0.0;0.0
2.0;1753875191.064846;18.17683;0.81;-1.67;-0.32;-0.868687;0.488853;0.005422;0.0;0.0;0.0;0.0;0.0;0.0
2.0;1753875191.069446;18.20886;0.88;-1.66;-0.33;-0.868992;0.48893;0.004833;0.0;0.0;0.0;0.0;0.0;0.0
2.0;1753875191.074045;18.19967;0.84;-1.59;-0.31;-0.868955;0.48485;0.004805;0.0;0.0;0.0;0.0;0.0;0.0
2.0;1753875191.078644;18.20077;0.9;-1.63;-0.17;-0.869109;0.488191;0.00404;0.0;0.0;0.0;0.0;0.0;0.0
2.0;1753875191.083243;18.20531;0.83;-1.63;-0.32;-0.868932;0.48586;0.006088;0.0;0.0;0.0;0.0;0.0;0.0
2.0;1753875191.087842;18.2179;0.99;-1.55;-0.33;-0.86922;0.49032;0.004487;0.0;0.0;0.0;0.0;0.0;0.0
2.0;1753875191.092441;18.22111;0.77;-1.63;-0.29;-0.868199;0.487664;0.004883;0.0;0.0;0.0;0.0;0.0;0.0
2.0;1753875191.09704;18.17184;0.98;-1.62;-0.28;-0.868919;0.488635;0.004675;0.0;0.0;0.0;0.0;0.0;0.0
2.0;1753875191.101639;18.1912;0.97;-1.58;-0.26;-0.868938;0.486458;0.005342;0.0;0.0;0.0;0.0;0.0;0.0
2.0;1753875191.106238;18.18799;0.95;-1.54;-0.38;-0.868999;0.486141;0.0049;0.0;0.0;0.0;0.0;0.0;0.0
2.0;1753875191.110838;18.18458;0.84;-1.57;-0.36;-0.869407;0.487406;0.004377;0.0;0.0;0.0;0.0;0.0;0.0
2.0;1753875191.115436;18.19779;0.98;-1.59;-0.25;-0.869629;0.488805;0.004242;0.0;0.0;0.0;0.0;0.0;0.0
2.0;1753875191.120036;18.20653;0.91;-1.59;-0.28;-0.869843;0.487416;0.005177;0.0;0.0;0.0;0.0;0.0;0.0
2.0;1753875191.124635;18.17963;0.87;-1.56;-0.35;-0.868672;0.487908;0.005511;0.0;0.0;0.0;0.0;0.0;0.0
2.0;1753875191.129234;18.19093;0.93;-1.56;-0.25;-0.869254;0.488417;0.004823;0.0;0.0;0.0;0.0;0.0;0.0
2.0;1753875191.133833;18.18772;0.94;-1.67;-0.21;-0.869081;0.488028;0.003742;0.0;0.0;0.0;0.0;0.0;0.0
2.0;1753875191.138432;18.19399;0.88;-1.55;-0.26;-0.868916;0.489162;0.003659;0.0;0.0;0.0;0.0;0.0;0.0
2.0;1753875191.143031;18.19386;0.73;-1.61;-0.27;-0.868311;0.488994;0.005189;0.0;0.0;0.0;0.0;0.0;0.0
2.0;1753875191.14763;18.19375;0.93;-1.68;-0.25;-0.86682;0.48736;0.005118;0.0;0.0;0.0;0.0;0.0;0.0
2.0;1753875191.152229;18.20062;0.87;-1.67;-0.27;-0.869791;0.48709;0.005011;0.0;0.0;0.0;0.0;0.0;0.0
2.0;1753875191.156828;18.20517;0.87;-1.75;-0.34;-0.867673;0.489487;0.00412;0.0;0.0;0.0;0.0;0.0;0.0
2.0;1753875191.161428;18.17474;1.0;-1.5;-0.23;-0.86759;0.487389;0.005946;0.0;0.0;0.0;0.0;0.0;0.0
2.0;1753875191.166026;18.19498;0.93;-1.68;-0.39;-0.868949;0.489305;0.003875;0.0;0.0;0.0;0.0;0.0;0.0
2.0;1753875191.170626;18.19439;0.78;-1.71;-0.28;-0.868632;0.489289;0.00634;0.0;0.0;0.0;0.0;0.0;0.0
2.0;1753875191.175225;18.20052;0.93;-1.61;-0.18;-0.869931;0.48893;0.00512;0.0;0.0;0.0;0.0;0.0;0.0
2.0;1753875191.179824;18.19035;0.91;-1.64;-0.29;-0.868362;0.487341;0.005001;0.0;0.0;0.0;0.0;0.0;0.0
2.0;1753875191.184423;18.19186;0.99;-1.57;-0.31;-0.869876;0.488236;0.004946;0.0;0.0;0.0;0.0;0.0;0.0
2.0;1753875191.189022;18.17211;0.87;-1.56;-0.25;-0.868511;0.488109;0.005175;0.0;0.0;0.0;0.0;0.0;0.0
2.0;1753875191.193621;18.18791;0.86;-1.64;-0.24;-0.869691;0.487609;0.004449;0.0;0.0;0.0;0.0;0.0;0.0
2.0;1753875191.19822;18.18451;0.96;-1.69;-0.25;-0.868255;0.488167;0.004173;0.0;0.0;0.0;0.0;0.0;0.0
2.0;1753875191.202819;18.18615;0.88;-1.69;-0.35;-0.868751;0.487653;0.006126;0.0;0.0;0.0;0.0;0.0;0.0
2.0;1753875191.207418;18.15927;0.89;-1.67;-0.22;-0.86825;0.487522;0.003985;0.0;0.0;0.0;0.0;0.0;0.0
2.0;1753875191.212018;18.1678;0.98;-1.64;-0.2;-0.869433;0.487534;0.00563;0.0;0.0;0.0;0.0;0.0;0.0
2.0;1753875191.216617;18.20253;0.83;-1.72;-0.31;-0.868034;0.487121;0.005694;0.0;0.0;0.0;0.0;0.0;0.0
2.0;1753875191.221216;18.20898;0.95;-1.61;-0.25;-0.868223;0.488791;0.004988;0.0;0.0;0.0;0.0;0.0;0.0
2.0;1753875191.225815;18.18161;0.98;-1.73;-0.29;-0.870126;0.488041;0.004422;0.0;0.0;0.0;0.0;0.0;0.0
2.0;1753875191.230414;18.20665;0.95;-1.72;-0.32;-0.86777;0.48767;0.004802;0.0;0.0;0.0;0.0;0.0;0.0
2.0;1753875191.235013;18.1969;0.96;-1.59;-0.25;-0.868125;0.487696;0.005185;0.0;0.0;0.0;0.0;0.0;0.0
2.0;1753875191.239612;18.20972;0.85;-1.69;-0.26;-0.868314;0.488938;0.005401;0.0;0.0;0.0;0.0;0.0;0.0
2.0;1753875191.244211;18.183;0.84;-1.7;-0.3;-0.869121;0.486998;0.005016;0.0;0.0;0.0;0.0;0.0;0.0
2.0;1753875191.24881;18.19296;0.97;-1.63;-0.26;-0.868465;0.488651;0.005075;0.0;0.0;0.0;0.0;0.0;0.0
2.0;1753875191.25341;18.18573;0.77;-1.63;-0.31;-0.867865;0.487949;0.006227;0.0;0.0;0.0;0.0;0.0;0.0
2.0;1753875191.258008;18.19411;0.86;-1.61;-0.28;-0.869013;0.489249;0.004496;0.0;0.0;0.0;0.0;0.0;0.0
2.0;1753875191.262608;18.18748;0.85;-1.71;-0.31;-0.869396;0.488278;0.004797;0.0;0.0;0.0;0.0;0.0;0.0
2.0;1753875191.267207;18.19928;0.95;-1.64;-0.3;-0.868776;0.489479;0.005377;0.0;0.0;0.0;0.0;0.0;0.0
2.0;1753875191.271806;18.19035;0.97;-1.6;-0.25;-0.868492;0.487568;0.004809;0.0;0.0;0.0;0.0;0.0;0.0
2.0;1753875191.276405;18.21649;0.91;-1.68;-0.17;-0.868328;0.488705;0.005295;0.0;0.0;0.0;0.0;0.0;0.0
2.0;1753875191.281004;18.18659;0.9;-1.62;-0.29;-0.867527;0.488959;0.004214;0.0;0.0;0.0;0.0;0.0;0.0
2.0;1753875191.285603;18.18782;1.04;-1.61;-0.17;-0.867713;0.489315;0.005103;0.0;0.0;0.0;0.0;0.0;0.0
2.0;1753875191.290202;18.2163;0.88;-1.68;-0.32;-0.867128;0.48811;0.004832;0.0;0.0;0.0;0.0;0.0;0.0
2.0;1753875191.294801;18.19091;0.9;-1.63;-0.25;-0.866849;0.489383;0.00508;0.0;0.0;0.0;0.0;0.0;0.0
2.0;1753875191.2994;18.18085;0.8;-1.67;-0.33;-0.868533;0.489133;0.005453;0.0;0.0;0.0;0.0;0.0;0.0
2.0;1753875191.304;18.1747;0.95;-1.73;-0.2;-0.869353;0.487877;0.006151;0.0;0.0;0.0;0.0;0.0;0.0
2.0;1753875191.308598;18.20048;1.0;-1.59;-0.36;-0.868501;0.488969;0.005901;0.0;0.0;0.0;0.0;0.0;0.0
2.0;1753875191.313198;18.20935;0.85;-1.65;-0.29;-0.868959;0.488746;0.003984;0.0;0.0;0.0;0.0;0.0;0.0
2.0;1753875191.317797;18.16415;0.89;-1.72;-0.26;-0.868468;0.486981;0.00478;0.0;0.0;0.0;0.0;0.0;0.0
2.0;1753875191.322396;18.19101;0.96;-1.64;-0.19;-0.868251;0.489358;0.004637;0.0;0.0;0.0;0.0;0.0;0.0
2.0;1753875191.326995;18.18288;0.97;-1.66;-0.32;-0.868605;0.489326;0.004771;0.0;0.0;0.0;0.0;0.0;0.0
2.0;1753875191.331594;18.16768;0.99;-1.68;-0.31;-0.867905;0.490564;0.005512;0.0;0.0;0.0;0.0;0.0;0.0
2.0;1753875191.336193;18.19161;0.96;-1.61;-0.3;-0.869798;0.489451;0.005304;0.0;0.0;0.0;0.0;0.0;0.0
2.0;1753875191.340792;18.19639;0.87;-1.69;-0.24;-0.869423;0.487923;0.004883;0.0;0.0;0.0;0.0;0.0;0.0
2.0;1753875191.345391;18.21653;0.92;-1.62;-0.23;-0.867145;0.487705;0.004815;0.0;0.0;0.0;0.0;0.0;0.0
2.0;1753875191.34999;18.21656;0.8;-1.62;-0.13;-0.869193;0.489979;0.005316;0.0;0.0;0.0;0.0;0.0;0.0
2.0;1753875191.35459;18.20055;0.99;-1.67;-0.21;-0.868451;0.48913;0.004641;0.0;0.0;0.0;0.0;0.0;0.0
2.0;1753875191.359188;18.17664;0.96;-1.63;-0.25;-0.86921;0.488741;0.0046;0.0;0.0;0.0;0.0;0.0;0.0
2.0;1753875191.363788;18.19122;0.83;-1.72;-0.3;-0.868217;0.489308;0.004415;0.0;0.0;0.0;0.0;0.0;0.0
2.0;1753875191.368387;18.21261;0.88;-1.69;-0.23;-0.870247;0.490504;0.0041;0.0;0.0;0.0;0.0;0.0;0.0
2.0;1753875191.372986;18.21074;0.87;-1.69;-0.3;-0.867848;0.488723;0.004925;0.0;0.0;0.0;0.0;0.0;0.0
2.0;1753875191.377585;18.25905;0.95;-1.64;-0.22;-0.868957;0.488473;0.004973;0.0;0.0;0.0;0.0;0.0;0.0
2.0;1753875191.382184;18.18251;0.77;-1.67;-0.26;-0.868506;0.490484;0.004015;0.0;0.0;0.0;0.0;0.0;0.0
2.0;1753875191.386783;18.17597;0.94;-1.64;-0.35;-0.868359;0.48787;0.005089;0.0;0.0;0.0;0.0;0.0;0.0
2.0;1753875191.391382;18.20275;0.97;-1.65;-0.4;-0.868535;0.488281;0.003752;0.0;0.0;0.0;0.0;0.0;0.0
2.0;1753875191.395981;18.20326;0.93;-1.67;-0.21;-0.868469;0.491017;0.004866;0.0;0.0;0.0;0.0;0.0;0.0
2.0;1753875191.40058;18.18397;0.88;-1.61;-0.27;-0.867605;0.487755;0.004395;0.0;0.0;0.0;0.0;0.0;0.0
2.0;1753875191.40518;18.16865;0.82;-1.74;-0.31;-0.867541;0.490491;0.006281;0.0;0.0;0.0;0.0;0.0;0.0
2.0;1753875191.409778;18.18695;0.88;-1.74;-0.22;-0.868392;0.487567;0.004935;0.0;0.0;0.0;0.0;0.0;0.0
2.0;1753875191.414378;18.16074;0.91;-1.63;-0.3;-0.868674;0.489764;0.004964;0.0;0.0;0.0;0.0;0.0;0.0
2.0;1753875191.418977;18.164;0.89;-1.75;-0.35;-0.867576;0.488165;0.006337;0.0;0.0;0.0;0.0;0.0;0.0
2.0;1753875191.423576;18.19929;0.93;-1.7;-0.25;-0.869268;0.490544;0.003638;0.0;0.0;0.0;0.0;0.0;0.0
2.0;1753875191.428175;18.20542;1.02;-1.74;-0.34;-0.867852;0.488204;0.003832;0.0;0.0;0.0;0.0;0.0;0.0
2.0;1753875191.432774;18.18432;0.9;-1.73;-0.27;-0.866603;0.490031;0.005513;0.0;0.0;0.0;0.0;0.0;0.0
2.0;1753875191.437373;18.19877;0.89;-1.74;-0.28;-0.868341;0.489843;0.003846;0.0;0.0;0.0;0.0;0.0;0.0
2.0;1753875191.441972;18.19386;0.84;-1.63;-0.35;-0.867707;0.489378;0.004761;0.0;0.0;0.0;0.0;0.0;0.0
2.0;1753875191.45;18.19141;0.91;-1.68;-0.28;-0.86803;0.489098;0.00488;0.0;0.0;0.0;0.0;0.0;0.0
2.0;1753875191.454599;18.20741;0.89;-1.74;-0.21;-0.867818;0.488477;0.004884;0.0;0.0;0.0;0.0;0.0;0.0
2.0;1753875191.459198;18.1763;1.08;-1.67;-0.3;-0.869289;0.489109;0.003307;0.0;0.0;0.0;0.0;0.0;0.0
2.0;1753875191.463797;18.19472;0.89;-1.67;-0.35;-0.869722;0.487368;0.004355;0.0;0.0;0.0;0.0;0.0;0.0
2.0;1753875191.468396;18.18175;0.91;-1.6;-0.43;-0.867439;0.489058;0.004583;0.0;0.0;0.0;0.0;0.0;0.0
2.0;1753875191.472996;18.1805;0.99;-1.61;-0.3;-0.866795;0.488816;0.004734;0.0;0.0;0.0;0.0;0.0;0.0
2.0;1753875191.477594;18.21321;0.88;-1.62;-0.33;-0.868338;0.487788;0.006514;0.0;0.0;0.0;0.0;0.0;0.0
2.0;1753875191.482194;18.21116;1.05;-1.64;-0.37;-0.865843;0.48813;0.004617;0.0;0.0;0.0;0.0;0.0;0.0
2.0;1753875191.486793;18.17793;0.8;-1.67;-0.43;-0.868245;0.48766;0.00442;0.0;0.0;0.0;0.0;0.0;0.0
2.0;1753875191.491392;18.20861;0.96;-1.66;-0.36;-0.867548;0.489195;0.004253;0.0;0.0;0.0;0.0;0.0;0.0
2.0;1753875191.4985;18.19141;0.98;-1.61;-0.35;-0.867542;0.487024;0.005002;0.0;0.0;0.0;0.0;0.0;0.0
2.0;1753875191.503099;18.19657;0.95;-1.61;-0.37;-0.867414;0.486596;0.005299;0.0;0.0;0.0;0.0;0.0;0.0
2.0;1753875191.51126;18.25781;0.91;-1.61;-0.28;-0.869128;0.489342;0.004392;0.0;0.0;0.0;0.0;0.0;0.0
2.0;1753875191.515859;18.25155;0.89;-1.63;-0.27;-0.868527;0.488445;0.004222;0.0;0.0;0.0;0.0;0.0;0.0
2.0;1753875191.520458;18.2187;0.81;-1.61;-0.15;-0.86937;0.489915;0.004659;0.0;0.0;0.0;0.0;0.0;0.0
2.0;1753875191.525057;18.30335;0.94;-1.64;-0.23;-0.869326;0.489106;0.003685;0.0;0.0;0.0;0.0;0.0;0.0
2.0;1753875191.529656;18.27652;0.88;-1.62;-0.28;-0.86841;0.48951;0.003656;0.0;0.0;0.0;0.0;0.0;0.0
2.0;1753875191.534256;18.25046;0.84;-1.58;-0.24;-0.869681;0.488255;0.004145;0.0;0.0;0.0;0.0;0.0;0.0
2.0;1753875191.538854;18.27092;0.88;-1.59;-0.16;-0.867645;0.486951;0.003238;0.0;0.0;0.0;0.0;0.0;0.0
2.0;1753875191.543454;18.2586;0.95;-1.74;-0.25;-0.868583;0.487156;0.00374;0.0;0.0;0.0;0.0;0.0;0.0
2.0;1753875191.548053;18.22819;0.78;-1.55;-0.29;-0.869475;0.486365;0.003347;0.0;0.0;0.0;0.0;0.0;0.0
2.0;1753875191.55339;18.25781;0.84;-1.61;-0.21;-0.868396;0.486902;0.003294;0.0;0.0;0.0;0.0;0.0;0.0
2.0;1753875191.557989;18.25895;0.82;-1.69;-0.19;-0.867741;0.487121;0.002869;0.0;0.0;0.0;0.0;0.0;0.0
2.0;1753875191.562588;18.23574;0.91;-1.65;-0.21;-0.868289;0.489059;0.003136;0.0;0.0;0.0;0.0;0.0;0.0
2.0;1753875191.567187;18.24594;0.89;-1.54;-0.17;-0.868801;0.488797;0.003666;0.0;0.0;0.0;0.0;0.0;0.0
2.0;1753875191.571786;18.25571;0.78;-1.63;-0.26;-0.869364;0.4864;0.00177;0.0;0.0;0.0;0.0;0.0;0.0
2.0;1753875191.576386;18.23235;0.87;-1.61;-0.24;-0.868985;0.48928;0.003024;0.0;0.0;0.0;0.0;0.0;0.0
2.0;1753875191.580984;18.23822;0.84;-1.61;-0.29;-0.868331;0.488701;0.004122;0.0;0.0;0.0;0.0;0.0;0.0
