DeviceID;Timestamp;Temperature;GyroX;GyroY;GyroZ;AccelX;AccelY;AccelZ;Dist1;Dist2;Dist3;Err1;Err2;Err3
1.0;1753874606.312985;19.859375;1.05;-1.68;0.07;0.043798;-1.017358;-0.023424;0.0;0.0;0.0;0.0;0.0;0.0
1.0;1753874606.318345;19.859375;1.19;-1.61;0.07;0.042944;-1.017602;-0.023546;0.0;0.0;0.0;0.0;0.0;0.0
1.0;1753874606.321156;19.859375;1.12;-1.68;0.07;0.044042;-1.017846;-0.02379;0.0;0.0;0.0;0.0;0.0;0.0
1.0;1753874606.325742;19.796875;1.12;-1.54;0.0;0.041968;-1.01809;-0.023302;0.0;0.0;0.0;0.0;0.0;0.0
1.0;1753874606.330315;19.796875;1.05;-1.68;0.07;0.043676;-1.018456;-0.023302;0.0;0.0;0.0;0.0;0.0;0.0
1.0;1753874606.337085;19.796875;1.05;-1.75;0.0;0.044896;-1.01748;-0.022326;0.0;0.0;0.0;0.0;0.0;0.0
1.0;1753874606.339661;19.796875;1.05;-1.75;0.07;0.04575;-1.01809;-0.024888;0.0;0.0;0.0;0.0;0.0;0.0
1.0;1753874606.344045;19.804688;1.12;-1.82;0.07;0.042944;-1.0187;-0.02318;0.0;0.0;0.0;0.0;0.0;0.0
1.0;1753874606.348585;19.804688;1.12;-1.68;0.0;0.044408;-1.018578;-0.023546;0.0;0.0;0.0;0.0;0.0;0.0
1.0;1753874606.353404;19.804688;1.19;-1.61;0.14;0.044774;-1.017846;-0.023302;0.0;0.0;0.0;0.0;0.0;0.0
1.0;1753874606.357653;19.804688;1.12;-1.68;0.14;0.044774;-1.017846;-0.023302;0.0;0.0;0.0;0.0;0.0;0.0
1.0;1753874606.362254;19.822946;0.92;-1.88;-0.03;0.032788;-1.005962;-0.023079;0.0;-0.2;0.2;0.0;0.0;-0.0
1.0;1753874606.366635;19.835938;0.98;-1.61;0.14;0.044774;-1.017236;-0.02318;0.0;0.0;0.0;0.0;0.0;0.0
1.0;1753874606.36685;19.835938;0.98;-1.68;0.07;0.044652;-1.01748;-0.022814;0.0;0.0;0.0;0.0;0.0;0.0
1.0;1753874606.37217;19.835938;1.05;-1.75;0.14;0.044652;-1.01748;-0.022814;0.0;0.0;0.0;0.0;0.0;0.0
1.0;1753874606.376669;19.835938;1.12;-1.68;0.07;0.044774;-1.018944;-0.023302;0.0;0.0;0.0;0.0;0.0;0.0
1.0;1753874606.38074;19.796875;1.12;-1.61;0.07;0.044652;-1.016992;-0.02318;0.0;0.0;0.0;0.0;0.0;0.0
1.0;1753874606.386418;19.796875;0.98;-1.61;0.07;0.04392;-1.017846;-0.022082;0.0;0.0;0.0;0.0;0.0;0.0
1.0;1753874606.390385;19.796875;1.05;-1.68;0.07;0.043554;-1.017724;-0.022936;0.0;0.0;0.0;0.0;0.0;0.0
1.0;1753874606.394411;19.796875;0.98;-1.61;0.07;0.043188;-1.01748;-0.023546;0.0;0.0;0.0;0.0;0.0;0.0
1.0;1753874606.398928;19.828125;1.05;-1.68;0.07;0.04392;-1.018578;-0.02318;0.0;0.0;0.0;0.0;0.0;0.0
1.0;1753874606.403481;19.828125;1.05;-1.68;0.14;0.044652;-1.017846;-0.023546;0.0;0.0;0.0;0.0;0.0;0.0
1.0;1753874606.408064;19.828125;1.12;-1.68;0.14;0.043066;-1.016626;-0.022326;0.0;0.0;0.0;0.0;0.0;0.0
1.0;1753874606.416369;19.828125;0.98;-1.75;0.07;0.043676;-1.017724;-0.022692;0.0;0.0;0.0;0.0;0.0;0.0
1.0;1753874606.417152;19.792969;1.12;-1.61;0.07;0.045018;-1.017358;-0.024034;0.0;0.0;0.0;0.0;0.0;0.0
1.0;1753874606.421779;19.792969;1.05;-1.61;0.14;0.044164;-1.018212;-0.024034;0.0;0.0;0.0;0.0;0.0;0.0
1.0;1753874606.426351;19.792969;1.12;-1.61;0.07;0.044896;-1.0187;-0.022204;0.0;0.0;0.0;0.0;0.0;0.0
1.0;1753874606.434632;19.792969;1.12;-1.61;0.07;0.042822;-1.017724;-0.024278;0.0;0.0;0.0;0.0;0.0;0.0
1.0;1753874606.435441;19.816406;1.12;-1.61;0.07;0.044896;-1.017236;-0.02318;0.0;0.0;0.0;0.0;0.0;0.0
1.0;1753874606.440187;19.816406;1.12;-1.54;0.14;0.0427;-1.016992;-0.024156;0.0;0.0;0.0;0.0;0.0;0.0
1.0;1753874606.444636;19.816406;1.12;-1.68;0.07;0.044408;-1.017114;-0.023668;0.0;0.0;0.0;0.0;0.0;0.0
1.0;1753874606.449436;19.816406;1.05;-1.68;0.14;0.04392;-1.018578;-0.023546;0.0;0.0;0.0;0.0;0.0;0.0
1.0;1753874606.453795;19.820312;1.12;-1.75;0.0;0.044286;-1.017602;-0.023912;0.0;0.0;0.0;0.0;0.0;0.0
1.0;1753874606.458365;19.820312;1.26;-1.75;0.0;0.044042;-1.018456;-0.024034;0.0;0.0;0.0;0.0;0.0;0.0
1.0;1753874606.465856;19.820312;1.12;-1.68;0.07;0.044042;-1.017236;-0.024644;0.0;0.0;0.0;0.0;0.0;0.0
1.0;1753874606.467455;19.820312;1.12;-1.82;0.07;0.0427;-1.019432;-0.02318;0.0;0.0;0.0;0.0;0.0;0.0
1.0;1753874606.472225;19.8125;1.05;-1.68;0.07;0.044774;-1.017724;-0.024522;0.0;0.0;0.0;0.0;0.0;0.0
1.0;1753874606.476654;19.8125;0.98;-1.61;0.07;0.044896;-1.01809;-0.02257;0.0;0.0;0.0;0.0;0.0;0.0
1.0;1753874606.483751;19.8125;0.98;-1.61;0.07;0.04453;-1.017602;-0.023668;0.0;0.0;0.0;0.0;0.0;0.0
1.0;1753874606.485933;19.8125;1.12;-1.68;0.0;0.04453;-1.017602;-0.023668;0.0;0.0;0.0;0.0;0.0;0.0
1.0;1753874606.491041;19.804688;1.12;-1.68;0.07;0.04453;-1.017724;-0.023546;0.0;0.0;0.0;0.0;0.0;0.0
1.0;1753874606.494841;19.804688;1.05;-1.75;0.14;0.04453;-1.017724;-0.023546;0.0;0.0;0.0;0.0;0.0;0.0
1.0;1753874606.499482;19.804688;0.98;-1.75;0.0;0.04514;-1.018212;-0.023424;0.0;0.0;0.0;0.0;0.0;0.0
1.0;1753874606.50549;19.804688;1.12;-1.68;0.0;0.044286;-1.01748;-0.024034;0.0;0.0;0.0;0.0;0.0;0.0
1.0;1753874606.509605;19.828125;1.19;-1.61;0.14;0.044286;-1.017236;-0.023058;0.0;0.0;0.0;0.0;0.0;0.0
1.0;1753874606.515091;19.828125;1.05;-1.68;0.07;0.043798;-1.01626;-0.022692;0.0;0.0;0.0;0.0;0.0;0.0
1.0;1753874606.517802;19.828125;1.05;-1.68;0.07;0.044652;-1.01748;-0.02318;0.0;0.0;0.0;0.0;0.0;0.0
1.0;1753874606.522386;19.828125;1.05;-1.61;0.14;0.043554;-1.017968;-0.024156;0.0;0.0;0.0;0.0;0.0;0.0
1.0;1753874606.527068;19.804688;0.98;-1.68;0.07;0.04514;-1.017602;-0.023424;0.0;0.0;0.0;0.0;0.0;0.0
1.0;1753874606.532022;19.804688;1.05;-1.75;0.07;0.043188;-1.018822;-0.022204;0.0;0.0;0.0;0.0;0.0;0.0
1.0;1753874606.536106;19.804688;1.12;-1.75;0.07;0.043432;-1.017724;-0.023424;0.0;0.0;0.0;0.0;0.0;0.0
1.0;1753874606.540631;19.804688;1.12;-1.68;0.07;0.04453;-1.016748;-0.022204;0.0;0.0;0.0;0.0;0.0;0.0
1.0;1753874606.545254;19.835938;1.12;-1.68;0.07;0.043432;-1.017236;-0.023546;0.0;0.0;0.0;0.0;0.0;0.0
1.0;1753874606.550356;19.835938;1.05;-1.61;0.07;0.045018;-1.016504;-0.024522;0.0;0.0;0.0;0.0;0.0;0.0
1.0;1753874606.554399;19.835938;1.12;-1.75;0.07;0.044042;-1.01687;-0.02196;0.0;0.0;0.0;0.0;0.0;0.0
1.0;1753874606.559;19.816046;1.14;-1.81;0.02;0.044141;-1.017554;-0.023157;0.0;0.0;0.0;0.0;0.0;0.0
1.0;1753874606.56435;19.804688;1.12;-1.68;0.07;0.045018;-1.017236;-0.022692;0.0;0.0;0.0;0.0;0.0;0.0
1.0;1753874606.568107;19.804688;1.05;-1.68;0.07;0.04392;-1.017114;-0.024034;0.0;0.0;0.0;0.0;0.0;0.0
1.0;1753874606.574387;19.804688;0.98;-1.61;0.07;0.044286;-1.0187;-0.0244;0.0;0.0;0.0;0.0;0.0;0.0
1.0;1753874606.581609;19.828125;1.05;-1.61;0.14;0.044896;-1.016748;-0.025132;0.0;0.0;0.0;0.0;0.0;0.0
1.0;1753874606.581803;19.828125;1.12;-1.75;0.14;0.045262;-1.017358;-0.022448;0.0;0.0;0.0;0.0;0.0;0.0
1.0;1753874606.588187;19.828125;1.05;-1.75;0.07;0.045628;-1.017724;-0.022692;0.0;0.0;0.0;0.0;0.0;0.0
1.0;1753874606.591048;19.828125;1.05;-1.75;0.0;0.043554;-1.017724;-0.022448;0.0;0.0;0.0;0.0;0.0;0.0
1.0;1753874606.595555;19.828125;1.12;-1.75;0.07;0.042822;-1.0187;-0.023424;0.0;0.0;0.0;0.0;0.0;0.0
1.0;1753874606.600134;19.820312;0.98;-1.68;0.14;0.043554;-1.017846;-0.02257;0.0;0.0;0.0;0.0;0.0;0.0
1.0;1753874606.604726;19.820312;0.98;-1.61;0.07;0.04575;-1.017724;-0.022326;0.0;0.0;0.0;0.0;0.0;0.0
1.0;1753874606.609327;19.831085;1.19;-1.61;-0.05;0.045198;-1.017448;-0.02245;0.0;0.0;0.0;0.0;0.0;0.0
1.0;1753874606.613489;19.820312;1.19;-1.68;-0.07;0.04514;-1.017724;-0.023668;0.0;0.0;0.0;0.0;0.0;0.0
1.0;1753874606.613794;19.820312;1.19;-1.68;0.07;0.045018;-1.017602;-0.021838;0.0;0.0;0.0;0.0;0.0;0.0
1.0;1753874606.619904;19.804688;1.19;-1.75;0.0;0.043798;-1.016382;-0.023058;0.0;0.0;0.0;0.0;0.0;0.0
1.0;1753874606.624743;19.804688;1.12;-1.61;0.07;0.044164;-1.017968;-0.022448;0.0;0.0;0.0;0.0;0.0;0.0
1.0;1753874606.631288;19.804688;1.05;-1.61;0.07;0.045018;-1.017846;-0.024888;0.0;0.0;0.0;0.0;0.0;0.0
1.0;1753874606.632093;19.804688;1.05;-1.68;0.07;0.044286;-1.018456;-0.02379;0.0;0.0;0.0;0.0;0.0;0.0
1.0;1753874606.636906;19.835938;1.05;-1.61;0.07;0.043676;-1.017602;-0.024156;0.0;0.0;0.0;0.0;0.0;0.0
1.0;1753874606.642148;19.835938;1.12;-1.61;0.07;0.04392;-1.017236;-0.022814;0.0;0.0;0.0;0.0;0.0;0.0
1.0;1753874606.647317;19.835938;1.12;-1.68;0.14;0.04453;-1.018334;-0.02318;0.0;0.0;0.0;0.0;0.0;0.0
1.0;1753874606.650385;19.835938;1.12;-1.61;0.07;0.044896;-1.018578;-0.023668;0.0;0.0;0.0;0.0;0.0;0.0
1.0;1753874606.655408;19.835938;1.05;-1.61;0.07;0.042944;-1.016382;-0.02379;0.0;0.0;0.0;0.0;0.0;0.0
1.0;1753874606.6625;19.835938;1.05;-1.61;0.07;0.044042;-1.016992;-0.02318;0.0;0.0;0.0;0.0;0.0;0.0
1.0;1753874606.664123;19.835938;1.19;-1.68;0.07;0.043798;-1.017602;-0.022814;0.0;0.0;0.0;0.0;0.0;0.0
1.0;1753874606.668728;19.835938;1.12;-1.75;0.07;0.044164;-1.018212;-0.02318;0.0;0.0;0.0;0.0;0.0;0.0
1.0;1753874606.673291;19.820312;1.05;-1.61;0.21;0.043798;-1.017724;-0.023424;0.0;0.0;0.0;0.0;0.0;0.0
1.0;1753874606.681231;19.820312;1.12;-1.54;0.14;0.04453;-1.017602;-0.022692;0.0;0.0;0.0;0.0;0.0;0.0
1.0;1753874606.682414;19.820312;1.05;-1.68;0.07;0.044896;-1.01809;-0.023668;0.0;0.0;0.0;0.0;0.0;0.0
1.0;1753874606.687979;19.820312;1.26;-1.68;0.14;0.044042;-1.018334;-0.022936;0.0;0.0;0.0;0.0;0.0;0.0
1.0;1753874606.691551;19.8125;1.19;-1.61;0.07;0.043188;-1.017968;-0.024522;0.0;0.0;0.0;0.0;0.0;0.0
1.0;1753874606.696169;19.8125;1.05;-1.68;0.07;0.044164;-1.01748;-0.023912;0.0;0.0;0.0;0.0;0.0;0.0
1.0;1753874606.700994;19.8125;1.05;-1.68;0.14;0.044408;-1.018212;-0.02379;0.0;0.0;0.0;0.0;0.0;0.0
1.0;1753874606.705595;19.791638;1.03;-1.71;0.18;0.043238;-1.018476;-0.022589;0.0;0.0;0.0;0.0;0.0;0.0
1.0;1753874606.710291;19.773438;1.12;-1.68;0.14;0.043432;-1.01809;-0.023302;0.0;0.0;0.0;0.0;0.0;0.0
1.0;1753874606.715138;19.773438;1.12;-1.68;0.07;0.044164;-1.016748;-0.02318;0.0;0.0;0.0;0.0;0.0;0.0
1.0;1753874606.719028;19.773438;1.05;-1.61;0.07;0.043188;-1.015772;-0.024766;0.0;0.0;0.0;0.0;0.0;0.0
1.0;1753874606.723629;19.749783;1.06;-1.67;0.04;0.043181;-1.016487;-0.024678;0.0;0.0;0.0;0.0;0.0;0.0
1.0;1753874606.7289;19.769531;1.05;-1.68;0.14;0.044042;-1.016748;-0.022692;0.0;0.0;0.0;0.0;0.0;0.0
1.0;1753874606.733148;19.769531;1.12;-1.61;0.14;0.04392;-1.018944;-0.024278;0.0;0.0;0.0;0.0;0.0;0.0
1.0;1753874606.737324;19.769531;1.12;-1.75;0.21;0.044286;-1.01931;-0.022692;0.0;0.0;0.0;0.0;0.0;0.0
1.0;1753874606.741901;19.769531;1.12;-1.68;0.07;0.044164;-1.016992;-0.02196;0.0;0.0;0.0;0.0;0.0;0.0
1.0;1753874606.74652;19.792969;1.26;-1.82;0.07;0.04392;-1.017358;-0.022692;0.0;0.0;0.0;0.0;0.0;0.0
1.0;1753874606.751054;19.792969;1.19;-1.68;0.07;0.043432;-1.01809;-0.023302;0.0;0.0;0.0;0.0;0.0;0.0
1.0;1753874606.759399;19.792969;1.05;-1.75;0.0;0.042944;-1.017236;-0.023546;0.0;0.0;0.0;0.0;0.0;0.0
1.0;1753874606.760139;19.792969;1.05;-1.68;0.0;0.044164;-1.017602;-0.023302;0.0;0.0;0.0;0.0;0.0;0.0
1.0;1753874606.764764;19.792969;1.12;-1.68;0.07;0.043432;-1.017114;-0.023546;0.0;0.0;0.0;0.0;0.0;0.0
1.0;1753874606.769332;19.792969;1.05;-1.68;0.07;0.044408;-1.017846;-0.02318;0.0;0.0;0.0;0.0;0.0;0.0
1.0;1753874606.777652;19.792969;1.12;-1.75;0.07;0.042944;-1.0187;-0.023058;0.0;0.0;0.0;0.0;0.0;0.0
1.0;1753874606.779164;19.792969;1.19;-1.61;0.0;0.043066;-1.017846;-0.023668;0.0;0.0;0.0;0.0;0.0;0.0
1.0;1753874606.783066;19.824219;1.12;-1.61;0.07;0.043066;-1.017846;-0.023668;0.0;0.0;0.0;0.0;0.0;0.0
1.0;1753874606.787578;19.824219;0.98;-1.61;0.07;0.044652;-1.017602;-0.022448;0.0;0.0;0.0;0.0;0.0;0.0
1.0;1753874606.792155;19.824219;0.98;-1.68;0.07;0.04392;-1.017724;-0.024644;0.0;0.0;0.0;0.0;0.0;0.0
1.0;1753874606.79826;19.824219;0.98;-1.61;0.07;0.044286;-1.017358;-0.023424;0.0;0.0;0.0;0.0;0.0;0.0
1.0;1753874606.801306;19.792969;1.05;-1.75;0.07;0.042944;-1.017846;-0.02379;0.0;0.0;0.0;0.0;0.0;0.0
1.0;1753874606.809909;19.792969;1.05;-1.68;0.0;0.04514;-1.018334;-0.02501;0.0;0.0;0.0;0.0;0.0;0.0
1.0;1753874606.810441;19.792969;1.05;-1.68;0.0;0.04514;-1.017968;-0.024034;0.0;0.0;0.0;0.0;0.0;0.0
1.0;1753874606.815072;19.792969;1.05;-1.68;0.07;0.0427;-1.017968;-0.025376;0.0;0.0;0.0;0.0;0.0;0.0
1.0;1753874606.819641;19.816406;1.05;-1.75;0.07;0.045018;-1.017968;-0.023668;0.0;0.0;0.0;0.0;0.0;0.0
1.0;1753874606.826603;19.816406;1.05;-1.68;0.07;0.043554;-1.016504;-0.023302;0.0;0.0;0.0;0.0;0.0;0.0
1.0;1753874606.829046;19.816406;1.05;-1.68;0.14;0.044164;-1.017358;-0.022936;0.0;0.0;0.0;0.0;0.0;0.0
1.0;1753874606.834329;19.816406;1.05;-1.68;0.07;0.043066;-1.016626;-0.022814;0.0;0.0;0.0;0.0;0.0;0.0
1.0;1753874606.837951;19.8125;1.12;-1.68;0.0;0.042944;-1.017968;-0.02379;0.0;0.0;0.0;0.0;0.0;0.0
1.0;1753874606.842395;19.8125;1.19;-1.75;-0.07;0.042944;-1.017968;-0.02379;0.0;0.0;0.0;0.0;0.0;0.0
1.0;1753874606.848303;19.8125;1.05;-1.61;0.07;0.04392;-1.017968;-0.02318;0.0;0.0;0.0;0.0;0.0;0.0
1.0;1753874606.853209;19.8125;1.05;-1.68;0.07;0.044164;-1.017724;-0.022814;0.0;0.0;0.0;0.0;0.0;0.0
1.0;1753874606.859327;19.8125;1.12;-1.75;0.07;0.043798;-1.016626;-0.024522;0.0;0.0;0.0;0.0;0.0;0.0
1.0;1753874606.860751;19.8125;1.05;-1.61;0.14;0.043798;-1.017602;-0.023424;0.0;0.0;0.0;0.0;0.0;0.0
1.0;1753874606.865778;19.8125;1.05;-1.61;0.14;0.043554;-1.018212;-0.023302;0.0;0.0;0.0;0.0;0.0;0.0
1.0;1753874606.870379;19.795427;1.13;-1.67;0.16;0.042476;-1.017154;-0.025307;0.0;0.0;0.0;0.0;0.0;0.0
1.0;1753874606.875955;19.773438;1.12;-1.75;0.07;0.043432;-1.017968;-0.023912;0.0;0.0;0.0;0.0;0.0;0.0
1.0;1753874606.879977;19.773438;1.19;-1.68;0.07;0.04575;-1.018944;-0.023668;0.0;0.0;0.0;0.0;0.0;0.0
1.0;1753874606.883662;19.773438;1.05;-1.68;0.0;0.04392;-1.018822;-0.023912;0.0;0.0;0.0;0.0;0.0;0.0
1.0;1753874606.888237;19.773438;1.05;-1.68;0.0;0.045018;-1.017236;-0.022448;0.0;0.0;0.0;0.0;0.0;0.0
1.0;1753874606.892818;19.800781;1.05;-1.68;0.0;0.043554;-1.01626;-0.022692;0.0;0.0;0.0;0.0;0.0;0.0
1.0;1753874606.897836;19.800781;1.12;-1.68;0.07;0.04392;-1.017114;-0.023546;0.0;0.0;0.0;0.0;0.0;0.0
1.0;1753874606.902437;19.805852;1.14;-1.61;0.21;0.044259;-1.017092;-0.022955;0.0;0.0;0.0;0.0;0.0;0.0
1.0;1753874606.907526;19.800781;1.05;-1.68;0.07;0.04514;-1.017602;-0.02379;0.0;0.0;0.0;0.0;0.0;0.0
1.0;1753874606.911167;19.796875;1.05;-1.54;0.0;0.045628;-1.017724;-0.022692;0.0;0.0;0.0;0.0;0.0;0.0
1.0;1753874606.91568;19.796875;1.05;-1.68;0.07;0.043676;-1.017846;-0.023668;0.0;0.0;0.0;0.0;0.0;0.0
1.0;1753874606.923855;19.796875;1.05;-1.68;0.0;0.044896;-1.017602;-0.02318;0.0;0.0;0.0;0.0;0.0;0.0
1.0;1753874606.924778;19.796875;1.05;-1.68;0.07;0.043676;-1.018578;-0.021838;0.0;0.0;0.0;0.0;0.0;0.0
1.0;1753874606.9293;19.804688;0.98;-1.61;0.21;0.043676;-1.018578;-0.021838;0.0;0.0;0.0;0.0;0.0;0.0
1.0;1753874606.933971;19.804688;0.98;-1.68;0.07;0.044774;-1.016748;-0.02318;0.0;0.0;0.0;0.0;0.0;0.0
1.0;1753874606.938549;19.804688;1.12;-1.68;0.07;0.044774;-1.01626;-0.023912;0.0;0.0;0.0;0.0;0.0;0.0
1.0;1753874606.944547;19.804688;1.05;-1.68;0.14;0.044042;-1.018822;-0.022814;0.0;0.0;0.0;0.0;0.0;0.0
1.0;1753874606.947643;19.804688;1.05;-1.68;0.07;0.043798;-1.016992;-0.023546;0.0;0.0;0.0;0.0;0.0;0.0
1.0;1753874606.956276;19.804688;1.12;-1.68;0.14;0.045262;-1.017114;-0.022204;0.0;0.0;0.0;0.0;0.0;0.0
1.0;1753874606.95678;19.804688;1.19;-1.61;0.0;0.04453;-1.017358;-0.021716;0.0;0.0;0.0;0.0;0.0;0.0
1.0;1753874606.962151;19.804688;1.12;-1.68;0.07;0.043798;-1.017602;-0.022692;0.0;0.0;0.0;0.0;0.0;0.0
1.0;1753874606.967753;19.796875;1.05;-1.61;0.14;0.04453;-1.017968;-0.023668;0.0;0.0;0.0;0.0;0.0;0.0
1.0;1753874606.975422;19.796875;1.05;-1.68;0.07;0.04331;-1.017724;-0.022448;0.0;0.0;0.0;0.0;0.0;0.0
1.0;1753874606.979682;19.796875;1.05;-1.61;0.07;0.045262;-1.017724;-0.024156;0.0;0.0;0.0;0.0;0.0;0.0
1.0;1753874606.984517;19.78125;1.12;-1.68;0.07;0.045262;-1.017358;-0.021594;0.0;0.0;0.0;0.0;0.0;0.0
1.0;1753874606.989074;19.78125;1.05;-1.68;0.14;0.044164;-1.017846;-0.02257;0.0;0.0;0.0;0.0;0.0;0.0
1.0;1753874606.993377;19.78125;1.05;-1.68;0.07;0.045018;-1.0187;-0.023302;0.0;0.0;0.0;0.0;0.0;0.0
1.0;1753874606.998009;19.78125;1.12;-1.68;0.14;0.04392;-1.017602;-0.024156;0.0;0.0;0.0;0.0;0.0;0.0
1.0;1753874607.00261;19.776445;1.19;-1.66;0.07;0.044464;-1.017788;-0.02492;0.0;0.0;0.0;0.0;0.0;0.0
1.0;1753874607.007211;19.784775;1.12;-1.61;0.08;0.043481;-1.018372;-0.02438;0.0;0.0;0.0;0.0;0.0;0.0
1.0;1753874607.011812;19.796141;1.07;-1.7;0.18;0.042923;-1.016906;-0.02417;0.0;0.0;0.0;0.0;0.0;0.0
1.0;1753874607.016413;19.780338;1.06;-1.66;0.13;0.044083;-1.017569;-0.02328;0.0;0.0;0.0;0.0;0.0;0.0
1.0;1753874607.021014;19.781501;1.17;-1.66;0.2;0.044032;-1.017909;-0.024142;0.0;0.0;0.0;0.0;0.0;0.0
1.0;1753874607.025615;19.793426;1.04;-1.65;0.17;0.042922;-1.016631;-0.024453;0.0;0.0;0.0;0.0;0.0;0.0
1.0;1753874607.030216;19.791632;1.13;-1.69;0.16;0.044127;-1.018779;-0.024066;0.0;0.0;0.0;0.0;0.0;0.0
1.0;1753874607.034817;19.773279;1.19;-1.69;0.17;0.043619;-1.018071;-0.024787;0.0;0.0;0.0;0.0;0.0;0.0
1.0;1753874607.039418;19.781018;1.12;-1.71;0.14;0.042658;-1.017691;-0.023699;0.0;0.0;0.0;0.0;0.0;0.0
1.0;1753874607.044019;19.788448;1.17;-1.6;0.08;0.043689;-1.016835;-0.02473;0.0;0.0;0.0;0.0;0.0;0.0
1.0;1753874607.04862;19.783084;1.04;-1.66;0.1;0.04401;-1.017414;-0.023627;0.0;0.0;0.0;0.0;0.0;0.0
1.0;1753874607.053221;19.787252;1.02;-1.78;0.12;0.043118;-1.016974;-0.025847;0.0;0.0;0.0;0.0;0.0;0.0
1.0;1753874607.057822;19.777236;1.19;-1.71;0.16;0.043114;-1.016355;-0.024691;0.0;0.0;0.0;0.0;0.0;0.0
1.0;1753874607.062423;19.773134;1.17;-1.69;0.15;0.044435;-1.017333;-0.023449;0.0;0.0;0.0;0.0;0.0;0.0
1.0;1753874607.067024;19.789945;1.17;-1.65;0.19;0.043016;-1.017182;-0.023918;0.0;0.0;0.0;0.0;0.0;0.0
1.0;1753874607.071625;19.770705;1.11;-1.7;0.1;0.044249;-1.018663;-0.02399;0.0;0.0;0.0;0.0;0.0;0.0
1.0;1753874607.076226;19.792707;1.17;-1.63;0.22;0.044152;-1.01783;-0.024769;0.0;0.0;0.0;0.0;0.0;0.0
1.0;1753874607.080827;19.766409;1.24;-1.77;0.18;0.04398;-1.018051;-0.024118;0.0;0.0;0.0;0.0;0.0;0.0
1.0;1753874607.085428;19.795533;1.16;-1.76;0.08;0.043928;-1.016696;-0.024742;0.0;0.0;0.0;0.0;0.0;0.0
1.0;1753874607.090029;19.778305;1.16;-1.67;0.15;0.044458;-1.018156;-0.023342;0.0;0.0;0.0;0.0;0.0;0.0
1.0;1753874607.09463;19.760393;1.15;-1.7;0.14;0.044134;-1.017529;-0.023486;0.0;0.0;0.0;0.0;0.0;0.0
1.0;1753874607.099231;19.77117;1.15;-1.74;0.16;0.043553;-1.017555;-0.023235;0.0;0.0;0.0;0.0;0.0;0.0
1.0;1753874607.103832;19.796162;1.07;-1.76;0.16;0.044641;-1.01692;-0.025445;0.0;0.0;0.0;0.0;0.0;0.0
1.0;1753874607.108433;19.792858;1.13;-1.7;0.21;0.044783;-1.018371;-0.02247;0.0;0.0;0.0;0.0;0.0;0.0
1.0;1753874607.113034;19.790121;1.16;-1.72;0.14;0.043384;-1.018138;-0.024311;0.0;0.0;0.0;0.0;0.0;0.0
1.0;1753874607.117635;19.784431;1.3;-1.75;0.19;0.043587;-1.017188;-0.024302;0.0;0.0;0.0;0.0;0.0;0.0
1.0;1753874607.122236;19.791001;1.09;-1.64;0.2;0.044619;-1.016526;-0.024523;0.0;0.0;0.0;0.0;0.0;0.0
1.0;1753874607.126837;19.785719;1.23;-1.66;0.06;0.043852;-1.018412;-0.022173;0.0;0.0;0.0;0.0;0.0;0.0
1.0;1753874607.131438;19.785354;1.18;-1.7;0.22;0.044572;-1.017996;-0.024129;0.0;0.0;0.0;0.0;0.0;0.0
1.0;1753874607.136039;19.771269;1.11;-1.75;0.14;0.044213;-1.018178;-0.024015;0.0;0.0;0.0;0.0;0.0;0.0
1.0;1753874607.14064;19.77698;1.22;-1.74;0.08;0.044295;-1.017512;-0.02401;0.0;0.0;0.0;0.0;0.0;0.0
1.0;1753874607.145241;19.795004;1.14;-1.67;0.17;0.042476;-1.016824;-0.023996;0.0;0.0;0.0;0.0;0.0;0.0
1.0;1753874607.149842;19.780603;1.07;-1.7;0.08;0.044639;-1.017856;-0.024486;0.0;0.0;0.0;0.0;0.0;0.0
1.0;1753874607.154443;19.788557;1.09;-1.64;0.15;0.043545;-1.018223;-0.023984;0.0;0.0;0.0;0.0;0.0;0.0
1.0;1753874607.159044;19.791977;1.1;-1.61;0.17;0.043667;-1.018223;-0.025838;0.0;0.0;0.0;0.0;0.0;0.0
1.0;1753874607.163645;19.771412;1.14;-1.73;0.17;0.044155;-1.017698;-0.02526;0.0;0.0;0.0;0.0;0.0;0.0
1.0;1753874607.168246;19.777794;1.22;-1.63;0.19;0.043587;-1.01749;-0.024812;0.0;0.0;0.0;0.0;0.0;0.0
1.0;1753874607.172847;19.772384;1.19;-1.71;0.09;0.044271;-1.017184;-0.023832;0.0;0.0;0.0;0.0;0.0;0.0
1.0;1753874607.177448;19.782142;1.2;-1.72;0.12;0.04402;-1.017313;-0.024938;0.0;0.0;0.0;0.0;0.0;0.0
1.0;1753874607.182049;19.760745;1.17;-1.77;0.02;0.045988;-1.017129;-0.023;0.0;0.0;0.0;0.0;0.0;0.0
1.0;1753874607.18665;19.767789;1.03;-1.64;0.16;0.04351;-1.017397;-0.023804;0.0;0.0;0.0;0.0;0.0;0.0
1.0;1753874607.191251;19.792281;1.09;-1.67;0.08;0.043116;-1.017324;-0.024578;0.0;0.0;0.0;0.0;0.0;0.0
1.0;1753874607.195852;19.788735;1.27;-1.68;0.18;0.044372;-1.018129;-0.023061;0.0;0.0;0.0;0.0;0.0;0.0
1.0;1753874607.200453;19.761609;1.22;-1.79;0.15;0.044093;-1.01772;-0.023026;0.0;0.0;0.0;0.0;0.0;0.0
1.0;1753874607.205054;19.788284;1.19;-1.63;0.2;0.044387;-1.018129;-0.024671;0.0;0.0;0.0;0.0;0.0;0.0
1.0;1753874607.209655;19.746934;1.13;-1.7;0.14;0.04512;-1.016933;-0.025415;0.0;0.0;0.0;0.0;0.0;0.0
1.0;1753874607.214256;19.795821;1.2;-1.64;0.04;0.044083;-1.019705;-0.023462;0.0;0.0;0.0;0.0;0.0;0.0
1.0;1753874607.218857;19.773095;1.21;-1.68;0.13;0.04411;-1.017211;-0.023029;0.0;0.0;0.0;0.0;0.0;0.0
1.0;1753874607.223458;19.774543;1.12;-1.7;0.05;0.04561;-1.016887;-0.023408;0.0;0.0;0.0;0.0;0.0;0.0
1.0;1753874607.228059;19.769948;1.12;-1.71;0.14;0.044447;-1.018011;-0.022333;0.0;0.0;0.0;0.0;0.0;0.0
1.0;1753874607.23266;19.781159;1.18;-1.7;0.1;0.043452;-1.017191;-0.023994;0.0;0.0;0.0;0.0;0.0;0.0
1.0;1753874607.237261;19.792016;1.28;-1.73;0.13;0.044384;-1.016451;-0.023142;0.0;0.0;0.0;0.0;0.0;0.0
1.0;1753874607.241862;19.78085;1.22;-1.69;0.16;0.044812;-1.017665;-0.023229;0.0;0.0;0.0;0.0;0.0;0.0
1.0;1753874607.246463;19.772734;1.16;-1.7;0.11;0.043414;-1.017884;-0.023855;0.0;0.0;0.0;0.0;0.0;0.0
1.0;1753874607.251064;19.783395;1.22;-1.73;0.13;0.044418;-1.017567;-0.023415;0.0;0.0;0.0;0.0;0.0;0.0
1.0;1753874607.255665;19.773076;1.16;-1.72;0.27;0.04334;-1.018253;-0.025388;0.0;0.0;0.0;0.0;0.0;0.0
1.0;1753874607.260266;19.773876;1.17;-1.67;0.13;0.044858;-1.017161;-0.023206;0.0;0.0;0.0;0.0;0.0;0.0
1.0;1753874607.264867;19.766601;1.16;-1.76;0.15;0.043971;-1.018711;-0.022765;0.0;0.0;0.0;0.0;0.0;0.0
1.0;1753874607.269468;19.754772;1.2;-1.6;0.01;0.043394;-1.017745;-0.024271;0.0;0.0;0.0;0.0;0.0;0.0
1.0;1753874607.274069;19.77682;1.22;-1.74;0.13;0.045203;-1.017592;-0.023018;0.0;0.0;0.0;0.0;0.0;0.0
1.0;1753874607.27867;19.789528;1.14;-1.7;0.09;0.043569;-1.017211;-0.024544;0.0;0.0;0.0;0.0;0.0;0.0
1.0;1753874607.283271;19.775963;1.11;-1.68;0.1;0.043741;-1.017794;-0.023112;0.0;0.0;0.0;0.0;0.0;0.0
1.0;1753874607.287872;19.786141;1.16;-1.66;0.1;0.044304;-1.017289;-0.023827;0.0;0.0;0.0;0.0;0.0;0.0
1.0;1753874607.292473;19.777721;1.22;-1.74;0.13;0.044587;-1.017258;-0.02418;0.0;0.0;0.0;0.0;0.0;0.0
1.0;1753874607.297074;19.761835;1.25;-1.72;0.06;0.04415;-1.018046;-0.024096;0.0;0.0;0.0;0.0;0.0;0.0
1.0;1753874607.301675;19.763866;1.15;-1.7;0.02;0.043188;-1.018006;-0.023093;0.0;0.0;0.0;0.0;0.0;0.0
1.0;1753874607.306276;19.772831;1.14;-1.7;0.08;0.04429;-1.017685;-0.026664;0.0;0.0;0.0;0.0;0.0;0.0
1.0;1753874607.310877;19.789228;1.14;-1.74;0.06;0.043846;-1.016849;-0.02369;0.0;0.0;0.0;0.0;0.0;0.0
1.0;1753874607.315478;19.791741;1.22;-1.65;0.12;0.043518;-1.017718;-0.023468;0.0;0.0;0.0;0.0;0.0;0.0
1.0;1753874607.320079;19.77562;1.26;-1.65;0.14;0.044775;-1.016864;-0.023112;0.0;0.0;0.0;0.0;0.0;0.0
1.0;1753874607.32468;19.767763;1.29;-1.65;0.15;0.043989;-1.017542;-0.023538;0.0;0.0;0.0;0.0;0.0;0.0
1.0;1753874607.329281;19.779759;1.17;-1.68;0.07;0.042946;-1.018024;-0.02378;0.0;0.0;0.0;0.0;0.0;0.0
1.0;1753874607.333882;19.778324;1.13;-1.7;0.18;0.043278;-1.018951;-0.023906;0.0;0.0;0.0;0.0;0.0;0.0
1.0;1753874607.338483;19.786464;1.28;-1.76;0.13;0.044325;-1.017301;-0.024252;0.0;0.0;0.0;0.0;0.0;0.0
1.0;1753874607.343084;19.799612;1.18;-1.77;0.02;0.044097;-1.017731;-0.024197;0.0;0.0;0.0;0.0;0.0;0.0
1.0;1753874607.347685;19.774763;1.32;-1.68;0.09;0.044003;-1.017416;-0.022497;0.0;0.0;0.0;0.0;0.0;0.0
1.0;1753874607.352286;19.776368;1.19;-1.71;0.07;0.045793;-1.017461;-0.024345;0.0;0.0;0.0;0.0;0.0;0.0
1.0;1753874607.356887;19.782658;1.26;-1.71;0.05;0.044185;-1.01723;-0.023955;0.0;0.0;0.0;0.0;0.0;0.0
1.0;1753874607.361488;19.774049;1.17;-1.69;0.06;0.043861;-1.016763;-0.024351;0.0;0.0;0.0;0.0;0.0;0.0
1.0;1753874607.366089;19.764136;1.34;-1.74;0.19;0.044454;-1.017218;-0.022682;0.0;0.0;0.0;0.0;0.0;0.0
1.0;1753874607.37069;19.787853;1.13;-1.8;0.12;0.043204;-1.017995;-0.024603;0.0;0.0;0.0;0.0;0.0;0.0
1.0;1753874607.375291;19.781057;1.29;-1.76;-0.0;0.044261;-1.01691;-0.022757;0.0;0.0;0.0;0.0;0.0;0.0
1.0;1753874607.379892;19.763309;1.14;-1.68;0.09;0.044469;-1.017129;-0.024303;0.0;0.0;0.0;0.0;0.0;0.0
1.0;1753874607.384493;19.776263;1.28;-1.85;0.06;0.043555;-1.017333;-0.023064;0.0;0.0;0.0;0.0;0.0;0.0
1.0;1753874607.389094;19.77003;1.18;-1.74;0.11;0.042162;-1.017272;-0.022952;0.0;0.0;0.0;0.0;0.0;0.0
1.0;1753874607.393695;19.785977;1.18;-1.79;0.06;0.043843;-1.017243;-0.022423;0.0;0.0;0.0;0.0;0.0;0.0
1.0;1753874607.398296;19.755753;1.22;-1.82;0.14;0.044529;-1.018255;-0.02479;0.0;0.0;0.0;0.0;0.0;0.0
1.0;1753874607.402897;19.785042;1.25;-1.73;0.05;0.044749;-1.018288;-0.022797;0.0;0.0;0.0;0.0;0.0;0.0
1.0;1753874607.407498;19.775978;1.27;-1.73;0.15;0.04404;-1.018053;-0.023082;0.0;0.0;0.0;0.0;0.0;0.0
1.0;1753874607.412099;19.784991;1.26;-1.75;0.09;0.044243;-1.017227;-0.022782;0.0;0.0;0.0;0.0;0.0;0.0
1.0;1753874607.4167;19.781087;1.26;-1.66;-0.02;0.04319;-1.017576;-0.024431;0.0;0.0;0.0;0.0;0.0;0.0
1.0;1753874607.421301;19.787178;1.07;-1.68;0.13;0.04373;-1.017933;-0.023704;0.0;0.0;0.0;0.0;0.0;0.0
1.0;1753874607.425902;19.758461;1.31;-1.78;0.08;0.043427;-1.016358;-0.022976;0.0;0.0;0.0;0.0;0.0;0.0
1.0;1753874607.430503;19.769357;1.14;-1.68;0.18;0.043228;-1.017211;-0.023105;0.0;0.0;0.0;0.0;0.0;0.0
1.0;1753874607.435104;19.768291;1.39;-1.62;0.04;0.044683;-1.017889;-0.023303;0.0;0.0;0.0;0.0;0.0;0.0
1.0;1753874607.439705;19.757338;1.21;-1.77;0.12;0.043649;-1.017635;-0.024073;0.0;0.0;0.0;0.0;0.0;0.0
1.0;1753874607.444306;19.782874;1.21;-1.7;0.09;0.043778;-1.018153;-0.022399;0.0;0.0;0.0;0.0;0.0;0.0
1.0;1753874607.448907;19.754509;1.27;-1.65;0.01;0.043935;-1.016933;-0.024246;0.0;0.0;0.0;0.0;0.0;0.0
1.0;1753874607.453508;19.774817;1.1;-1.7;0.05;0.044257;-1.01792;-0.023373;0.0;0.0;0.0;0.0;0.0;0.0
1.0;1753874607.458109;19.785469;1.19;-1.69;0.12;0.044518;-1.016072;-0.023751;0.0;0.0;0.0;0.0;0.0;0.0
1.0;1753874607.46271;19.791981;1.27;-1.68;-0.0;0.044602;-1.017907;-0.024007;0.0;0.0;0.0;0.0;0.0;0.0
1.0;1753874607.467311;19.775894;1.3;-1.73;0.06;0.043228;-1.017301;-0.024919;0.0;0.0;0.0;0.0;0.0;0.0
1.0;1753874607.471912;19.790853;1.26;-1.77;0.07;0.04337;-1.017919;-0.024927;0.0;0.0;0.0;0.0;0.0;0.0
1.0;1753874607.476513;19.76994;1.3;-1.74;0.18;0.044509;-1.017643;-0.023521;0.0;0.0;0.0;0.0;0.0;0.0
1.0;1753874607.481114;19.772994;1.31;-1.72;0.12;0.044276;-1.017441;-0.024514;0.0;0.0;0.0;0.0;0.0;0.0
1.0;1753874607.485715;19.774856;1.32;-1.73;-0.01;0.044707;-1.018299;-0.024368;0.0;0.0;0.0;0.0;0.0;0.0
1.0;1753874607.490316;19.771121;1.28;-1.66;0.12;0.043154;-1.017426;-0.02427;0.0;0.0;0.0;0.0;0.0;0.0
1.0;1753874607.494917;19.755482;1.2;-1.71;0.03;0.044646;-1.017436;-0.024035;0.0;0.0;0.0;0.0;0.0;0.0
1.0;1753874607.499518;19.773741;1.33;-1.68;0.08;0.043997;-1.018091;-0.023092;0.0;0.0;0.0;0.0;0.0;0.0
1.0;1753874607.504119;19.769486;1.31;-1.64;0.1;0.045385;-1.017787;-0.023581;0.0;0.0;0.0;0.0;0.0;0.0
1.0;1753874607.50872;19.765069;1.13;-1.75;0.14;0.042968;-1.015991;-0.024518;0.0;0.0;0.0;0.0;0.0;0.0
1.0;1753874607.513321;19.77528;1.3;-1.71;0.01;0.044044;-1.017691;-0.023502;0.0;0.0;0.0;0.0;0.0;0.0
1.0;1753874607.517922;19.768141;1.12;-1.73;0.08;0.04349;-1.018339;-0.025562;0.0;0.0;0.0;0.0;0.0;0.0
1.0;1753874607.522523;19.780912;1.22;-1.73;0.1;0.044198;-1.017656;-0.023904;0.0;0.0;0.0;0.0;0.0;0.0
1.0;1753874607.527124;19.766335;1.23;-1.77;0.14;0.043764;-1.017184;-0.023888;0.0;0.0;0.0;0.0;0.0;0.0
1.0;1753874607.531725;19.782951;1.29;-1.77;0.1;0.044883;-1.017929;-0.024188;0.0;0.0;0.0;0.0;0.0;0.0
1.0;1753874607.536326;19.768255;1.22;-1.7;-0.0;0.043771;-1.017861;-0.024303;0.0;0.0;0.0;0.0;0.0;0.0
1.0;1753874607.540927;19.772506;1.22;-1.73;0.01;0.043833;-1.016965;-0.025025;0.0;0.0;0.0;0.0;0.0;0.0
1.0;1753874607.545528;19.787046;1.23;-1.64;0.17;0.043165;-1.017255;-0.025222;0.0;0.0;0.0;0.0;0.0;0.0
1.0;1753874607.550129;19.782735;1.22;-1.75;0.08;0.044023;-1.017785;-0.023554;0.0;0.0;0.0;0.0;0.0;0.0
1.0;1753874607.55473;19.758013;1.27;-1.77;0.11;0.043832;-1.01767;-0.024318;0.0;0.0;0.0;0.0;0.0;0.0
1.0;1753874607.559331;19.765554;1.25;-1.75;0.11;0.043626;-1.017164;-0.024445;0.0;0.0;0.0;0.0;0.0;0.0
1.0;1753874607.563932;19.780416;1.32;-1.73;0.18;0.044878;-1.016904;-0.023672;0.0;0.0;0.0;0.0;0.0;0.0
1.0;1753874607.568533;19.74762;1.24;-1.71;0.12;0.04389;-1.018754;-0.022827;0.0;0.0;0.0;0.0;0.0;0.0
1.0;1753874607.573134;19.780984;1.3;-1.76;0.08;0.043477;-1.017736;-0.024642;0.0;0.0;0.0;0.0;0.0;0.0
1.0;1753874607.577735;19.760151;1.25;-1.75;0.16;0.043674;-1.0179;-0.023691;0.0;0.0;0.0;0.0;0.0;0.0
1.0;1753874607.582336;19.769462;1.15;-1.68;0.05;0.044208;-1.018186;-0.023189;0.0;0.0;0.0;0.0;0.0;0.0
1.0;1753874607.586937;19.778581;1.27;-1.72;-0.02;0.043954;-1.017632;-0.02534;0.0;0.0;0.0;0.0;0.0;0.0
1.0;1753874607.591538;19.754788;1.33;-1.81;0.09;0.043723;-1.016285;-0.023908;0.0;0.0;0.0;0.0;0.0;0.0
1.0;1753874607.596139;19.793489;1.21;-1.8;-0.02;0.044275;-1.017756;-0.024389;0.0;0.0;0.0;0.0;0.0;0.0
1.0;1753874607.60074;19.772705;1.25;-1.68;-0.01;0.045121;-1.017034;-0.024111;0.0;0.0;0.0;0.0;0.0;0.0
1.0;1753874607.605341;19.765819;1.12;-1.76;0.01;0.043956;-1.018737;-0.023658;0.0;0.0;0.0;0.0;0.0;0.0
1.0;1753874607.609942;19.761316;1.19;-1.8;-0.09;0.044067;-1.017236;-0.025641;0.0;0.0;0.0;0.0;0.0;0.0
1.0;1753874607.614543;19.770056;1.24;-1.76;0.13;0.043464;-1.017625;-0.022476;0.0;0.0;0.0;0.0;0.0;0.0
1.0;1753874607.619144;19.772918;1.23;-1.73;0.13;0.044362;-1.018047;-0.022343;0.0;0.0;0.0;0.0;0.0;0.0
1.0;1753874607.623745;19.76223;1.33;-1.8;0.14;0.044044;-1.016856;-0.022398;0.0;0.0;0.0;0.0;0.0;0.0
1.0;1753874607.628346;19.768371;1.34;-1.78;0.18;0.043653;-1.018198;-0.023836;0.0;0.0;0.0;0.0;0.0;0.0
1.0;1753874607.632947;19.768619;1.13;-1.73;-0.03;0.042874;-1.017933;-0.023708;0.0;0.0;0.0;0.0;0.0;0.0
1.0;1753874607.637548;19.748898;1.17;-1.78;-0.04;0.043681;-1.016917;-0.023558;0.0;0.0;0.0;0.0;0.0;0.0
1.0;1753874607.642149;19.761478;1.26;-1.68;-0.03;0.044602;-1.019548;-0.02261;0.0;0.0;0.0;0.0;0.0;0.0
1.0;1753874607.64675;19.772023;1.33;-1.77;0.1;0.043424;-1.017765;-0.022027;0.0;0.0;0.0;0.0;0.0;0.0
1.0;1753874607.6528;19.769531;1.26;-1.75;0.07;0.04392;-1.017724;-0.02379;0.0;0.0;0.0;0.0;0.0;0.0
1.0;1753874607.657401;19.773678;1.32;-1.78;0.13;0.044164;-1.018549;-0.023552;0.0;0.0;0.0;0.0;0.0;0.0
1.0;1753874607.662002;19.787614;1.33;-1.76;0.02;0.043078;-1.018434;-0.021899;0.0;0.0;0.0;0.0;0.0;0.0
1.0;1753874607.666603;19.775338;1.19;-1.71;0.06;0.044055;-1.016707;-0.02417;0.0;0.0;0.0;0.0;0.0;0.0
1.0;1753874607.671204;19.764988;1.16;-1.63;-0.01;0.043212;-1.016846;-0.023312;0.0;0.0;0.0;0.0;0.0;0.0
1.0;1753874607.675805;19.744349;1.25;-1.8;0.07;0.043646;-1.017792;-0.024215;0.0;0.0;0.0;0.0;0.0;0.0
1.0;1753874607.680406;19.768565;1.28;-1.74;-0.03;0.043184;-1.016938;-0.024887;0.0;0.0;0.0;0.0;0.0;0.0
1.0;1753874607.685007;19.776136;1.32;-1.69;0.01;0.043778;-1.01763;-0.022624;0.0;0.0;0.0;0.0;0.0;0.0
1.0;1753874607.689608;19.759424;1.12;-1.68;-0.01;0.043552;-1.017817;-0.02289;0.0;0.0;0.0;0.0;0.0;0.0
1.0;1753874607.694209;19.765517;1.21;-1.74;0.04;0.043592;-1.016908;-0.023196;0.0;0.0;0.0;0.0;0.0;0.0
1.0;1753874607.69881;19.772171;1.13;-1.68;0.03;0.044522;-1.016639;-0.022635;0.0;0.0;0.0;0.0;0.0;0.0
1.0;1753874607.703411;19.76462;1.14;-1.64;0.06;0.043478;-1.017701;-0.024981;0.0;0.0;0.0;0.0;0.0;0.0
1.0;1753874607.7087;19.769531;1.12;-1.68;0.07;0.044042;-1.01748;-0.023302;0.0;0.0;0.0;0.0;0.0;0.0
1.0;1753874607.713301;19.764925;1.07;-1.63;0.1;0.04377;-1.0181;-0.022959;0.0;0.0;0.0;0.0;0.0;0.0
1.0;1753874607.717902;19.740256;1.03;-1.6;0.16;0.042914;-1.017439;-0.023869;0.0;0.0;0.0;0.0;0.0;0.0
1.0;1753874607.72298;19.734375;1.12;-1.61;0.07;0.043798;-1.018334;-0.02379;0.0;0.0;0.0;0.0;0.0;0.0
1.0;1753874607.727581;19.734554;1.06;-1.52;0.07;0.043644;-1.017926;-0.024069;0.0;0.0;0.0;0.0;0.0;0.0
1.0;1753874607.732182;19.704882;1.1;-1.6;0.07;0.044091;-1.018331;-0.02329;0.0;0.0;0.0;0.0;0.0;0.0
1.0;1753874607.736783;19.742953;1.09;-1.64;0.11;0.044396;-1.016834;-0.02232;0.0;0.0;0.0;0.0;0.0;0.0
1.0;1753874607.741384;19.722875;1.17;-1.65;0.1;0.044487;-1.018184;-0.022278;0.0;0.0;0.0;0.0;0.0;0.0
1.0;1753874607.745985;19.721822;1.13;-1.58;0.15;0.043271;-1.017287;-0.023021;0.0;0.0;0.0;0.0;0.0;0.0
1.0;1753874607.750586;19.719112;1.16;-1.61;0.09;0.044181;-1.018612;-0.023112;0.0;0.0;0.0;0.0;0.0;0.0
1.0;1753874607.755187;19.743517;1.19;-1.68;0.18;0.044896;-1.018226;-0.023321;0.0;0.0;0.0;0.0;0.0;0.0
1.0;1753874607.759788;19.752137;1.13;-1.58;0.14;0.044877;-1.017222;-0.022514;0.0;0.0;0.0;0.0;0.0;0.0
1.0;1753874607.76438;19.753906;1.12;-1.61;0.14;0.04453;-1.01748;-0.022326;0.0;0.0;0.0;0.0;0.0;0.0
1.0;1753874607.768981;19.747743;1.11;-1.62;0.09;0.043604;-1.017649;-0.023234;0.0;0.0;0.0;0.0;0.0;0.0
1.0;1753874607.773582;19.755739;1.08;-1.63;0.08;0.042992;-1.017856;-0.022056;0.0;0.0;0.0;0.0;0.0;0.0
1.0;1753874607.778183;19.731359;1.06;-1.63;0.05;0.043679;-1.017608;-0.021884;0.0;0.0;0.0;0.0;0.0;0.0
1.0;1753874607.782784;19.745912;1.07;-1.63;0.11;0.043954;-1.017562;-0.023875;0.0;0.0;0.0;0.0;0.0;0.0
1.0;1753874607.787385;19.771117;1.23;-1.57;0.04;0.044145;-1.017106;-0.022323;0.0;0.0;0.0;0.0;0.0;0.0
1.0;1753874607.791986;19.765013;1.13;-1.58;0.05;0.044492;-1.016987;-0.023329;0.0;0.0;0.0;0.0;0.0;0.0
1.0;1753874607.796587;19.754922;1.11;-1.55;0.06;0.043711;-1.016904;-0.023692;0.0;0.0;0.0;0.0;0.0;0.0
1.0;1753874607.80307;19.753906;1.19;-1.54;0.07;0.04331;-1.01687;-0.022326;0.0;0.0;0.0;0.0;0.0;0.0
1.0;1753874607.807671;19.794059;1.2;-1.51;0.06;0.04379;-1.017784;-0.02334;0.0;0.0;0.0;0.0;0.0;0.0
1.0;1753874607.812272;19.723848;1.15;-1.55;0.11;0.044072;-1.017016;-0.022418;0.0;0.0;0.0;0.0;0.0;0.0
1.0;1753874607.816873;19.758189;1.22;-1.65;0.1;0.043444;-1.016843;-0.023186;0.0;0.0;0.0;0.0;0.0;0.0
1.0;1753874607.821474;19.765846;1.06;-1.46;0.09;0.042926;-1.018911;-0.021343;0.0;0.0;0.0;0.0;0.0;0.0
1.0;1753874607.826075;19.751096;1.0;-1.61;0.06;0.043174;-1.016776;-0.023535;0.0;0.0;0.0;0.0;0.0;0.0
1.0;1753874607.830676;19.748754;1.0;-1.64;0.08;0.044276;-1.016242;-0.022718;0.0;0.0;0.0;0.0;0.0;0.0
1.0;1753874607.835277;19.792063;1.02;-1.7;0.06;0.044261;-1.01623;-0.023029;0.0;0.0;0.0;0.0;0.0;0.0
1.0;1753874607.839878;19.75573;0.93;-1.65;0.08;0.044545;-1.01849;-0.023086;0.0;0.0;0.0;0.0;0.0;0.0
1.0;1753874607.844479;19.798817;1.02;-1.68;0.09;0.043804;-1.017273;-0.021335;0.0;0.0;0.0;0.0;0.0;0.0
1.0;1753874607.84871;19.753906;0.98;-1.68;0.07;0.044164;-1.01748;-0.023424;0.0;0.0;0.0;0.0;0.0;0.0
1.0;1753874607.853311;19.712786;1.02;-1.65;0.09;0.044812;-1.016973;-0.023987;0.0;0.0;0.0;0.0;0.0;0.0
1.0;1753874607.857912;19.753904;0.96;-1.68;0.05;0.044132;-1.017908;-0.022652;0.0;0.0;0.0;0.0;0.0;0.0
1.0;1753874607.862513;19.750128;1.06;-1.67;0.18;0.043783;-1.01766;-0.022299;0.0;0.0;0.0;0.0;0.0;0.0
1.0;1753874607.867114;19.779369;1.02;-1.67;0.07;0.044851;-1.016819;-0.02247;0.0;0.0;0.0;0.0;0.0;0.0
1.0;1753874607.871715;19.767077;0.99;-1.65;0.12;0.044457;-1.016999;-0.024341;0.0;0.0;0.0;0.0;0.0;0.0
1.0;1753874607.876316;19.734834;1.12;-1.62;0.08;0.045013;-1.018179;-0.02213;0.0;0.0;0.0;0.0;0.0;0.0
1.0;1753874607.880917;19.763214;0.96;-1.63;0.08;0.044609;-1.016672;-0.024366;0.0;0.0;0.0;0.0;0.0;0.0
1.0;1753874607.885518;19.747467;0.96;-1.74;0.08;0.044134;-1.017405;-0.02271;0.0;0.0;0.0;0.0;0.0;0.0
1.0;1753874607.89345;19.753906;0.98;-1.61;0.07;0.044164;-1.01748;-0.023424;0.0;0.0;0.0;0.0;0.0;0.0
1.0;1753874607.898051;19.744621;0.98;-1.58;0.07;0.044119;-1.017545;-0.024296;0.0;0.0;0.0;0.0;0.0;0.0
1.0;1753874607.902652;19.746084;0.86;-1.78;0.1;0.043813;-1.016571;-0.024259;0.0;0.0;0.0;0.0;0.0;0.0
1.0;1753874607.907253;19.781762;0.98;-1.68;0.1;0.044256;-1.017199;-0.02229;0.0;0.0;0.0;0.0;0.0;0.0
1.0;1753874607.911854;19.729185;0.92;-1.66;0.01;0.042621;-1.017011;-0.023347;0.0;0.0;0.0;0.0;0.0;0.0
1.0;1753874607.916455;19.747089;0.91;-1.61;0.07;0.045092;-1.018262;-0.022725;0.0;0.0;0.0;0.0;0.0;0.0
1.0;1753874607.921056;19.767648;1.08;-1.61;0.07;0.044416;-1.017429;-0.021466;0.0;0.0;0.0;0.0;0.0;0.0
1.0;1753874607.925657;19.743572;1.03;-1.62;0.11;0.043327;-1.017893;-0.022155;0.0;0.0;0.0;0.0;0.0;0.0
1.0;1753874607.930258;19.731167;0.94;-1.62;0.07;0.044285;-1.018836;-0.023345;0.0;0.0;0.0;0.0;0.0;0.0
1.0;1753874607.934859;19.745862;1.11;-1.56;0.01;0.043182;-1.018687;-0.022294;0.0;0.0;0.0;0.0;0.0;0.0
1.0;1753874607.94045;19.753906;1.05;-1.68;0.07;0.04392;-1.018456;-0.022326;0.0;0.0;0.0;0.0;0.0;0.0
1.0;1753874607.94459;19.707031;1.05;-1.61;0.0;0.044164;-1.019066;-0.02379;0.0;0.0;0.0;0.0;0.0;0.0
1.0;1753874607.952289;19.707031;0.98;-1.68;0.07;0.044408;-1.018456;-0.023668;0.0;0.0;0.0;0.0;0.0;0.0
1.0;1753874607.953739;19.746094;1.05;-1.75;0.07;0.044286;-1.017846;-0.023302;0.0;0.0;0.0;0.0;0.0;0.0
1.0;1753874607.958306;19.746094;1.05;-1.68;0.0;0.04392;-1.018578;-0.022936;0.0;0.0;0.0;0.0;0.0;0.0
1.0;1753874607.962883;19.746094;1.05;-1.68;0.07;0.044652;-1.01748;-0.022692;0.0;0.0;0.0;0.0;0.0;0.0
1.0;1753874607.967455;19.746094;1.12;-1.54;0.0;0.044652;-1.017968;-0.023424;0.0;0.0;0.0;0.0;0.0;0.0
1.0;1753874607.972027;19.746094;1.05;-1.54;0.07;0.044042;-1.017236;-0.023424;0.0;0.0;0.0;0.0;0.0;0.0
1.0;1753874607.976601;19.746094;0.98;-1.54;0.0;0.044408;-1.017724;-0.023546;0.0;0.0;0.0;0.0;0.0;0.0
1.0;1753874607.98314;19.746094;0.98;-1.68;0.0;0.044042;-1.018456;-0.023424;0.0;0.0;0.0;0.0;0.0;0.0
1.0;1753874607.985751;19.746094;0.98;-1.75;0.0;0.043432;-1.01748;-0.022326;0.0;0.0;0.0;0.0;0.0;0.0
1.0;1753874607.990318;19.722656;1.12;-1.68;0.0;0.044652;-1.018334;-0.023058;0.0;0.0;0.0;0.0;0.0;0.0
1.0;1753874607.995446;19.722656;1.05;-1.68;0.0;0.044286;-1.017968;-0.022936;0.0;0.0;0.0;0.0;0.0;0.0
1.0;1753874608.000047;19.741726;1.09;-1.6;0.01;0.044584;-1.018258;-0.023619;0.0;0.0;0.0;0.0;0.0;0.0
1.0;1753874608.004648;19.710893;1.05;-1.7;-0.02;0.043821;-1.017685;-0.02253;0.0;0.0;0.0;0.0;0.0;0.0
1.0;1753874608.009249;19.730968;1.03;-1.61;0.02;0.041939;-1.017736;-0.022488;0.0;0.0;0.0;0.0;0.0;0.0
1.0;1753874608.01385;19.718823;1.03;-1.69;0.08;0.043749;-1.018822;-0.022664;0.0;0.0;0.0;0.0;0.0;0.0
1.0;1753874608.018451;19.695948;1.08;-1.78;-0.03;0.043806;-1.017975;-0.024335;0.0;0.0;0.0;0.0;0.0;0.0
1.0;1753874608.023052;19.736611;1.06;-1.74;0.02;0.043972;-1.017044;-0.022987;0.0;0.0;0.0;0.0;0.0;0.0
1.0;1753874608.027653;19.710078;1.13;-1.7;0.04;0.042976;-1.019528;-0.023228;0.0;0.0;0.0;0.0;0.0;0.0
1.0;1753874608.032254;19.720108;1.07;-1.61;0.12;0.044173;-1.019741;-0.02264;0.0;0.0;0.0;0.0;0.0;0.0
1.0;1753874608.036855;19.742016;1.08;-1.74;0.01;0.042226;-1.018195;-0.024036;0.0;0.0;0.0;0.0;0.0;0.0
1.0;1753874608.041456;19.715813;0.96;-1.62;0.02;0.044193;-1.019441;-0.02342;0.0;0.0;0.0;0.0;0.0;0.0
1.0;1753874608.046057;19.749289;1.1;-1.62;0.02;0.044043;-1.017811;-0.023185;0.0;0.0;0.0;0.0;0.0;0.0
1.0;1753874608.050658;19.716233;0.94;-1.71;-0.05;0.044532;-1.018097;-0.023321;0.0;0.0;0.0;0.0;0.0;0.0
1.0;1753874608.055259;19.754721;1.01;-1.6;-0.03;0.044263;-1.019289;-0.023306;0.0;0.0;0.0;0.0;0.0;0.0
1.0;1753874608.05986;19.742349;1.0;-1.65;0.0;0.042068;-1.018764;-0.022582;0.0;0.0;0.0;0.0;0.0;0.0
1.0;1753874608.064461;19.741365;1.1;-1.65;0.05;0.043754;-1.018773;-0.024582;0.0;0.0;0.0;0.0;0.0;0.0
1.0;1753874608.069062;19.709885;1.03;-1.71;-0.0;0.044619;-1.018647;-0.02378;0.0;0.0;0.0;0.0;0.0;0.0
1.0;1753874608.073663;19.747584;1.08;-1.63;0.03;0.043367;-1.018383;-0.023931;0.0;0.0;0.0;0.0;0.0;0.0
1.0;1753874608.078264;19.727463;1.11;-1.8;0.03;0.043061;-1.01815;-0.023024;0.0;0.0;0.0;0.0;0.0;0.0
1.0;1753874608.082865;19.730138;1.06;-1.6;-0.02;0.042808;-1.019398;-0.024361;0.0;0.0;0.0;0.0;0.0;0.0
1.0;1753874608.087466;19.753591;1.11;-1.74;0.02;0.044749;-1.018611;-0.023531;0.0;0.0;0.0;0.0;0.0;0.0
1.0;1753874608.092067;19.715114;1.1;-1.7;-0.04;0.044335;-1.01931;-0.023378;0.0;0.0;0.0;0.0;0.0;0.0
1.0;1753874608.096668;19.739115;1.01;-1.67;0.04;0.04303;-1.019816;-0.023258;0.0;0.0;0.0;0.0;0.0;0.0
1.0;1753874608.101269;19.721316;1.05;-1.75;-0.01;0.042975;-1.018431;-0.023992;0.0;0.0;0.0;0.0;0.0;0.0
1.0;1753874608.10587;19.716542;1.06;-1.59;0.03;0.04207;-1.018985;-0.023651;0.0;0.0;0.0;0.0;0.0;0.0
1.0;1753874608.110471;19.739909;1.11;-1.65;0.01;0.043321;-1.019741;-0.023542;0.0;0.0;0.0;0.0;0.0;0.0
1.0;1753874608.115072;19.751634;1.07;-1.77;0.03;0.045424;-1.019479;-0.023494;0.0;0.0;0.0;0.0;0.0;0.0
1.0;1753874608.119673;19.716238;1.12;-1.56;0.01;0.04382;-1.019525;-0.023338;0.0;0.0;0.0;0.0;0.0;0.0
1.0;1753874608.124274;19.718007;1.06;-1.68;0.07;0.04505;-1.019371;-0.024082;0.0;0.0;0.0;0.0;0.0;0.0
1.0;1753874608.128875;19.740276;1.08;-1.64;0.08;0.042648;-1.020029;-0.024378;0.0;0.0;0.0;0.0;0.0;0.0
1.0;1753874608.133476;19.739663;1.1;-1.71;0.07;0.043282;-1.018602;-0.024346;0.0;0.0;0.0;0.0;0.0;0.0
1.0;1753874608.138077;19.735613;1.09;-1.74;0.02;0.041616;-1.020605;-0.023185;0.0;0.0;0.0;0.0;0.0;0.0
1.0;1753874608.142678;19.707903;0.99;-1.62;-0.03;0.04198;-1.02089;-0.024047;0.0;0.0;0.0;0.0;0.0;0.0
1.0;1753874608.147279;19.69206;1.07;-1.66;0.08;0.043231;-1.019618;-0.024198;0.0;0.0;0.0;0.0;0.0;0.0
1.0;1753874608.15188;19.727099;1.05;-1.57;-0.01;0.04453;-1.019558;-0.023659;0.0;0.0;0.0;0.0;0.0;0.0
1.0;1753874608.156481;19.709814;1.07;-1.74;0.04;0.042437;-1.018988;-0.023652;0.0;0.0;0.0;0.0;0.0;0.0
1.0;1753874608.161082;19.743604;1.06;-1.69;0.05;0.042264;-1.021516;-0.025191;0.0;0.0;0.0;0.0;0.0;0.0
1.0;1753874608.165683;19.701757;0.94;-1.61;0.04;0.042469;-1.019684;-0.023854;0.0;0.0;0.0;0.0;0.0;0.0
1.0;1753874608.170284;19.729694;1.19;-1.67;0.06;0.044074;-1.019417;-0.024444;0.0;0.0;0.0;0.0;0.0;0.0
1.0;1753874608.1756;19.722656;1.05;-1.68;0.07;0.042944;-1.020042;-0.024156;0.0;0.0;0.0;0.0;0.0;0.0
1.0;1753874608.180201;19.752894;1.06;-1.67;0.12;0.041878;-1.020219;-0.024246;0.0;0.0;0.0;0.0;0.0;0.0
1.0;1753874608.184802;19.72384;0.98;-1.76;0.16;0.042107;-1.020925;-0.024279;0.0;0.0;0.0;0.0;0.0;0.0
1.0;1753874608.189403;19.707832;1.01;-1.77;0.08;0.044342;-1.020577;-0.02488;0.0;0.0;0.0;0.0;0.0;0.0
1.0;1753874608.194004;19.727374;1.03;-1.73;0.03;0.042843;-1.019235;-0.024165;0.0;0.0;0.0;0.0;0.0;0.0
1.0;1753874608.198605;19.697558;0.99;-1.73;0.2;0.043206;-1.019599;-0.024063;0.0;0.0;0.0;0.0;0.0;0.0
1.0;1753874608.203206;19.733793;1.06;-1.61;0.12;0.042848;-1.020689;-0.024162;0.0;0.0;0.0;0.0;0.0;0.0
1.0;1753874608.207807;19.718727;0.99;-1.55;0.11;0.042846;-1.020591;-0.023964;0.0;0.0;0.0;0.0;0.0;0.0
1.0;1753874608.212408;19.711006;0.99;-1.61;0.09;0.04366;-1.020237;-0.023733;0.0;0.0;0.0;0.0;0.0;0.0
1.0;1753874608.217009;19.69856;1.02;-1.67;0.05;0.044067;-1.020265;-0.024659;0.0;0.0;0.0;0.0;0.0;0.0
1.0;1753874608.22161;19.70016;1.08;-1.64;0.03;0.042104;-1.020251;-0.024405;0.0;0.0;0.0;0.0;0.0;0.0
1.0;1753874608.226211;19.715236;1.08;-1.67;0.04;0.043323;-1.020221;-0.024549;0.0;0.0;0.0;0.0;0.0;0.0
1.0;1753874608.230812;19.731068;1.08;-1.71;0.05;0.043837;-1.018427;-0.02446;0.0;0.0;0.0;0.0;0.0;0.0
1.0;1753874608.235413;19.73921;0.96;-1.66;0.1;0.04389;-1.020091;-0.023328;0.0;0.0;0.0;0.0;0.0;0.0
1.0;1753874608.240014;19.730747;1.06;-1.72;0.03;0.044105;-1.02013;-0.024323;0.0;0.0;0.0;0.0;0.0;0.0
1.0;1753874608.244615;19.73309;1.02;-1.63;0.08;0.04323;-1.018812;-0.024622;0.0;0.0;0.0;0.0;0.0;0.0
1.0;1753874608.249216;19.726588;1.04;-1.7;0.02;0.042838;-1.018822;-0.024079;0.0;0.0;0.0;0.0;0.0;0.0
1.0;1753874608.253817;19.709924;1.09;-1.56;0.03;0.043533;-1.020813;-0.02358;0.0;0.0;0.0;0.0;0.0;0.0
1.0;1753874608.258418;19.731324;1.0;-1.6;-0.0;0.0434;-1.020288;-0.024328;0.0;0.0;0.0;0.0;0.0;0.0
1.0;1753874608.263019;19.714618;1.04;-1.63;0.18;0.043232;-1.018638;-0.023467;0.0;0.0;0.0;0.0;0.0;0.0
1.0;1753874608.26762;19.733761;1.06;-1.66;0.06;0.043213;-1.018032;-0.022879;0.0;0.0;0.0;0.0;0.0;0.0
1.0;1753874608.272221;19.744081;1.08;-1.62;0.04;0.043941;-1.01914;-0.024213;0.0;0.0;0.0;0.0;0.0;0.0
1.0;1753874608.276822;19.726978;1.04;-1.78;0.13;0.043232;-1.019238;-0.024658;0.0;0.0;0.0;0.0;0.0;0.0
1.0;1753874608.281423;19.722135;1.08;-1.59;0.14;0.0424;-1.019087;-0.022703;0.0;0.0;0.0;0.0;0.0;0.0
1.0;1753874608.286024;19.718573;1.06;-1.67;0.08;0.043966;-1.019629;-0.02416;0.0;0.0;0.0;0.0;0.0;0.0
1.0;1753874608.290625;19.752247;1.0;-1.66;0.06;0.042998;-1.018411;-0.024044;0.0;0.0;0.0;0.0;0.0;0.0
1.0;1753874608.295226;19.743112;1.02;-1.56;0.09;0.042798;-1.019079;-0.024221;0.0;0.0;0.0;0.0;0.0;0.0
1.0;1753874608.299827;19.716415;1.03;-1.64;0.19;0.042537;-1.018871;-0.023785;0.0;0.0;0.0;0.0;0.0;0.0
1.0;1753874608.304428;19.71245;1.03;-1.61;0.01;0.043969;-1.019106;-0.023964;0.0;0.0;0.0;0.0;0.0;0.0
1.0;1753874608.309029;19.717085;0.98;-1.65;-0.02;0.04312;-1.019565;-0.023299;0.0;0.0;0.0;0.0;0.0;0.0
1.0;1753874608.31363;19.695345;1.08;-1.66;0.09;0.044416;-1.018746;-0.024269;0.0;0.0;0.0;0.0;0.0;0.0
1.0;1753874608.318231;19.705399;1.03;-1.54;0.11;0.043707;-1.01841;-0.02338;0.0;0.0;0.0;0.0;0.0;0.0
1.0;1753874608.322832;19.677576;0.99;-1.54;0.02;0.044184;-1.01933;-0.022799;0.0;0.0;0.0;0.0;0.0;0.0
1.0;1753874608.327433;19.730879;1.12;-1.66;0.05;0.044992;-1.017908;-0.023624;0.0;0.0;0.0;0.0;0.0;0.0
1.0;1753874608.332034;19.761072;1.02;-1.79;0.05;0.044879;-1.018619;-0.023297;0.0;0.0;0.0;0.0;0.0;0.0
1.0;1753874608.336635;19.705886;1.06;-1.59;0.17;0.042184;-1.018798;-0.02332;0.0;0.0;0.0;0.0;0.0;0.0
1.0;1753874608.341236;19.713721;1.04;-1.64;0.14;0.044166;-1.018609;-0.023829;0.0;0.0;0.0;0.0;0.0;0.0
1.0;1753874608.345837;19.742246;1.08;-1.7;0.11;0.043213;-1.017585;-0.024649;0.0;0.0;0.0;0.0;0.0;0.0
1.0;1753874608.350438;19.718227;0.97;-1.58;0.05;0.044489;-1.018997;-0.024674;0.0;0.0;0.0;0.0;0.0;0.0
1.0;1753874608.355039;19.732547;1.04;-1.7;-0.02;0.044724;-1.018698;-0.024357;0.0;0.0;0.0;0.0;0.0;0.0
1.0;1753874608.35964;19.720683;1.09;-1.55;0.02;0.043831;-1.018557;-0.024648;0.0;0.0;0.0;0.0;0.0;0.0
1.0;1753874608.364241;19.700367;0.99;-1.67;0.09;0.043704;-1.018953;-0.024506;0.0;0.0;0.0;0.0;0.0;0.0
1.0;1753874608.368842;19.694611;1.06;-1.65;0.16;0.044521;-1.020721;-0.024052;0.0;0.0;0.0;0.0;0.0;0.0
1.0;1753874608.373443;19.711833;1.04;-1.65;-0.03;0.0434;-1.018709;-0.024292;0.0;0.0;0.0;0.0;0.0;0.0
1.0;1753874608.378044;19.727132;0.97;-1.7;0.05;0.043452;-1.019696;-0.023517;0.0;0.0;0.0;0.0;0.0;0.0
1.0;1753874608.382645;19.68938;1.0;-1.64;0.09;0.044266;-1.018548;-0.024339;0.0;0.0;0.0;0.0;0.0;0.0
1.0;1753874608.387246;19.71692;1.01;-1.53;0.07;0.04418;-1.018868;-0.024117;0.0;0.0;0.0;0.0;0.0;0.0
1.0;1753874608.391847;19.750981;1.05;-1.63;0.07;0.044956;-1.017938;-0.023471;0.0;0.0;0.0;0.0;0.0;0.0
1.0;1753874608.396448;19.729212;0.95;-1.59;-0.0;0.043378;-1.017301;-0.023838;0.0;0.0;0.0;0.0;0.0;0.0
1.0;1753874608.401049;19.722333;1.02;-1.63;0.0;0.043853;-1.017067;-0.023331;0.0;0.0;0.0;0.0;0.0;0.0
1.0;1753874608.4064;19.722656;1.05;-1.61;0.07;0.04392;-1.017968;-0.023912;0.0;0.0;0.0;0.0;0.0;0.0
1.0;1753874608.411001;19.727889;1.03;-1.58;0.1;0.044737;-1.018189;-0.023203;0.0;0.0;0.0;0.0;0.0;0.0
1.0;1753874608.415602;19.709442;1.01;-1.66;0.0;0.043793;-1.01816;-0.024255;0.0;0.0;0.0;0.0;0.0;0.0
1.0;1753874608.420203;19.706064;1.03;-1.65;0.12;0.042203;-1.019372;-0.023019;0.0;0.0;0.0;0.0;0.0;0.0
1.0;1753874608.424804;19.717219;1.08;-1.67;0.07;0.043436;-1.018539;-0.023766;0.0;0.0;0.0;0.0;0.0;0.0
1.0;1753874608.429405;19.741182;1.03;-1.44;0.1;0.044487;-1.018518;-0.024083;0.0;0.0;0.0;0.0;0.0;0.0
1.0;1753874608.434006;19.723371;1.07;-1.59;0.11;0.043585;-1.016668;-0.02361;0.0;0.0;0.0;0.0;0.0;0.0
1.0;1753874608.438607;19.705144;0.99;-1.66;0.05;0.044795;-1.018222;-0.024369;0.0;0.0;0.0;0.0;0.0;0.0
1.0;1753874608.443208;19.696796;0.98;-1.61;0.03;0.043827;-1.017732;-0.023753;0.0;0.0;0.0;0.0;0.0;0.0
1.0;1753874608.447809;19.718706;1.07;-1.68;0.0;0.043637;-1.017838;-0.023762;0.0;0.0;0.0;0.0;0.0;0.0
1.0;1753874608.45241;19.734523;1.01;-1.56;0.21;0.044464;-1.017869;-0.024903;0.0;0.0;0.0;0.0;0.0;0.0
1.0;1753874608.457011;19.684719;1.12;-1.47;0.01;0.044486;-1.018594;-0.023421;0.0;0.0;0.0;0.0;0.0;0.0
1.0;1753874608.461612;19.729138;1.04;-1.56;0.04;0.043788;-1.018594;-0.024433;0.0;0.0;0.0;0.0;0.0;0.0
1.0;1753874608.466213;19.717677;1.04;-1.59;0.02;0.043829;-1.017781;-0.023681;0.0;0.0;0.0;0.0;0.0;0.0
1.0;1753874608.470814;19.732307;1.08;-1.68;-0.04;0.044395;-1.01874;-0.024756;0.0;0.0;0.0;0.0;0.0;0.0
1.0;1753874608.475415;19.738264;1.0;-1.66;0.02;0.043022;-1.017641;-0.024771;0.0;0.0;0.0;0.0;0.0;0.0
1.0;1753874608.480016;19.732974;1.06;-1.66;0.04;0.04434;-1.017415;-0.024222;0.0;0.0;0.0;0.0;0.0;0.0
1.0;1753874608.484617;19.716181;1.07;-1.68;0.0;0.043317;-1.018356;-0.024494;0.0;0.0;0.0;0.0;0.0;0.0
1.0;1753874608.489218;19.748313;1.11;-1.62;-0.03;0.042296;-1.017776;-0.023927;0.0;0.0;0.0;0.0;0.0;0.0
1.0;1753874608.493819;19.732436;1.12;-1.57;0.01;0.043875;-1.017762;-0.024281;0.0;0.0;0.0;0.0;0.0;0.0
1.0;1753874608.49842;19.72236;1.08;-1.79;0.06;0.043419;-1.01654;-0.02393;0.0;0.0;0.0;0.0;0.0;0.0
1.0;1753874608.503021;19.720597;1.11;-1.59;0.08;0.044609;-1.01812;-0.023361;0.0;0.0;0.0;0.0;0.0;0.0
1.0;1753874608.507622;19.727509;1.04;-1.61;0.09;0.043048;-1.017279;-0.023287;0.0;0.0;0.0;0.0;0.0;0.0
1.0;1753874608.512223;19.734664;1.04;-1.69;0.06;0.043323;-1.018541;-0.022924;0.0;0.0;0.0;0.0;0.0;0.0
1.0;1753874608.516824;19.726463;1.11;-1.6;0.09;0.044363;-1.018097;-0.02354;0.0;0.0;0.0;0.0;0.0;0.0
1.0;1753874608.521425;19.729363;1.03;-1.66;0.03;0.043363;-1.016808;-0.023098;0.0;0.0;0.0;0.0;0.0;0.0
1.0;1753874608.526026;19.742783;1.11;-1.71;0.07;0.043993;-1.016856;-0.024099;0.0;0.0;0.0;0.0;0.0;0.0
1.0;1753874608.530627;19.697828;1.05;-1.64;0.06;0.043199;-1.017749;-0.023044;0.0;0.0;0.0;0.0;0.0;0.0
1.0;1753874608.535228;19.728293;0.98;-1.68;0.13;0.04361;-1.017408;-0.023229;0.0;0.0;0.0;0.0;0.0;0.0
1.0;1753874608.539829;19.748169;1.15;-1.65;0.05;0.043028;-1.018039;-0.022651;0.0;0.0;0.0;0.0;0.0;0.0
1.0;1753874608.54443;19.694551;1.04;-1.71;-0.08;0.044463;-1.017599;-0.024096;0.0;0.0;0.0;0.0;0.0;0.0
1.0;1753874608.549031;19.725364;1.14;-1.69;0.05;0.043512;-1.016472;-0.023166;0.0;0.0;0.0;0.0;0.0;0.0
1.0;1753874608.553632;19.738065;1.16;-1.7;-0.04;0.043866;-1.017811;-0.02382;0.0;0.0;0.0;0.0;0.0;0.0
1.0;1753874608.558233;19.722402;1.08;-1.66;0.04;0.044043;-1.017174;-0.024311;0.0;0.0;0.0;0.0;0.0;0.0
1.0;1753874608.562834;19.725558;1.16;-1.75;0.01;0.044438;-1.018593;-0.023661;0.0;0.0;0.0;0.0;0.0;0.0
1.0;1753874608.567435;19.742018;1.08;-1.68;0.09;0.042939;-1.018969;-0.023259;0.0;0.0;0.0;0.0;0.0;0.0
1.0;1753874608.572036;19.714427;1.17;-1.64;0.09;0.044799;-1.018023;-0.023085;0.0;0.0;0.0;0.0;0.0;0.0
1.0;1753874608.576637;19.703298;1.07;-1.74;0.08;0.043371;-1.017453;-0.023718;0.0;0.0;0.0;0.0;0.0;0.0
1.0;1753874608.581238;19.737633;1.08;-1.57;0.04;0.044691;-1.01707;-0.023756;0.0;0.0;0.0;0.0;0.0;0.0
1.0;1753874608.585839;19.718395;1.04;-1.68;0.0;0.042623;-1.016659;-0.023682;0.0;0.0;0.0;0.0;0.0;0.0
1.0;1753874608.59044;19.682985;1.04;-1.67;0.06;0.043545;-1.01863;-0.023479;0.0;0.0;0.0;0.0;0.0;0.0
1.0;1753874608.595041;19.719909;1.04;-1.64;0.09;0.042272;-1.018438;-0.02328;0.0;0.0;0.0;0.0;0.0;0.0
1.0;1753874608.599642;19.717031;1.01;-1.64;0.04;0.044128;-1.018611;-0.023557;0.0;0.0;0.0;0.0;0.0;0.0
1.0;1753874608.604243;19.720016;1.12;-1.61;0.08;0.044635;-1.015926;-0.023205;0.0;0.0;0.0;0.0;0.0;0.0
1.0;1753874608.608844;19.718287;1.05;-1.68;-0.09;0.044025;-1.016815;-0.023869;0.0;0.0;0.0;0.0;0.0;0.0
1.0;1753874608.613445;19.71163;1.09;-1.74;-0.03;0.042877;-1.017703;-0.023027;0.0;0.0;0.0;0.0;0.0;0.0
1.0;1753874608.618046;19.721544;1.15;-1.7;0.08;0.044196;-1.017817;-0.024134;0.0;0.0;0.0;0.0;0.0;0.0
1.0;1753874608.622647;19.736691;1.18;-1.77;0.05;0.042889;-1.017404;-0.023854;0.0;0.0;0.0;0.0;0.0;0.0
1.0;1753874608.627248;19.731501;1.03;-1.78;-0.03;0.044637;-1.017585;-0.023053;0.0;0.0;0.0;0.0;0.0;0.0
1.0;1753874608.631849;19.731883;1.1;-1.67;0.06;0.043386;-1.017117;-0.023145;0.0;0.0;0.0;0.0;0.0;0.0
1.0;1753874608.63645;19.711829;1.09;-1.75;0.02;0.043858;-1.01738;-0.023633;0.0;0.0;0.0;0.0;0.0;0.0
1.0;1753874608.641051;19.725608;1.1;-1.75;0.06;0.043466;-1.017754;-0.023934;0.0;0.0;0.0;0.0;0.0;0.0
1.0;1753874608.645652;19.737244;1.1;-1.73;-0.0;0.042947;-1.018632;-0.022794;0.0;0.0;0.0;0.0;0.0;0.0
1.0;1753874608.650253;19.697375;1.13;-1.74;-0.04;0.043298;-1.01789;-0.023519;0.0;0.0;0.0;0.0;0.0;0.0
1.0;1753874608.654854;19.731203;1.06;-1.6;-0.02;0.043948;-1.018981;-0.024395;0.0;0.0;0.0;0.0;0.0;0.0
1.0;1753874608.659455;19.732877;1.06;-1.68;0.03;0.04384;-1.016463;-0.023481;0.0;0.0;0.0;0.0;0.0;0.0
1.0;1753874608.664056;19.699113;1.01;-1.75;-0.02;0.042945;-1.017231;-0.022922;0.0;0.0;0.0;0.0;0.0;0.0
1.0;1753874608.668657;19.738955;1.07;-1.74;0.03;0.044004;-1.019047;-0.023159;0.0;0.0;0.0;0.0;0.0;0.0
1.0;1753874608.673258;19.706237;1.03;-1.62;0.02;0.043066;-1.017347;-0.022476;0.0;0.0;0.0;0.0;0.0;0.0
1.0;1753874608.677859;19.710835;1.11;-1.81;-0.01;0.043122;-1.018578;-0.022488;0.0;0.0;0.0;0.0;0.0;0.0
1.0;1753874608.68246;19.714982;1.04;-1.62;0.07;0.041968;-1.018095;-0.023549;0.0;0.0;0.0;0.0;0.0;0.0
1.0;1753874608.687061;19.700642;1.11;-1.65;0.14;0.043133;-1.017136;-0.02353;0.0;0.0;0.0;0.0;0.0;0.0
1.0;1753874608.691662;19.731773;1.01;-1.7;0.02;0.042951;-1.017617;-0.023072;0.0;0.0;0.0;0.0;0.0;0.0
1.0;1753874608.696263;19.694446;1.02;-1.7;-0.03;0.043941;-1.018205;-0.022909;0.0;0.0;0.0;0.0;0.0;0.0
1.0;1753874608.700864;19.732917;1.07;-1.71;0.0;0.043889;-1.017405;-0.023635;0.0;0.0;0.0;0.0;0.0;0.0
1.0;1753874608.705465;19.72683;1.1;-1.67;-0.1;0.044135;-1.016796;-0.023786;0.0;0.0;0.0;0.0;0.0;0.0
1.0;1753874608.710066;19.730468;1.06;-1.68;0.04;0.044076;-1.018039;-0.023559;0.0;0.0;0.0;0.0;0.0;0.0
1.0;1753874608.714667;19.753465;1.12;-1.78;0.01;0.043914;-1.017516;-0.022378;0.0;0.0;0.0;0.0;0.0;0.0
1.0;1753874608.719268;19.72066;1.11;-1.72;0.08;0.04291;-1.017928;-0.022701;0.0;0.0;0.0;0.0;0.0;0.0
1.0;1753874608.723869;19.719096;1.08;-1.67;-0.13;0.042643;-1.017512;-0.022678;0.0;0.0;0.0;0.0;0.0;0.0
1.0;1753874608.72847;19.707066;1.12;-1.78;0.09;0.043262;-1.017307;-0.023048;0.0;0.0;0.0;0.0;0.0;0.0
1.0;1753874608.733071;19.729641;1.1;-1.7;0.09;0.044587;-1.017137;-0.023958;0.0;0.0;0.0;0.0;0.0;0.0
1.0;1753874608.737672;19.702232;1.15;-1.73;0.0;0.043413;-1.016724;-0.023504;0.0;0.0;0.0;0.0;0.0;0.0
1.0;1753874608.742273;19.734075;1.11;-1.73;0.03;0.044138;-1.017902;-0.022686;0.0;0.0;0.0;0.0;0.0;0.0
1.0;1753874608.746874;19.726004;1.13;-1.59;-0.02;0.042855;-1.017099;-0.023123;0.0;0.0;0.0;0.0;0.0;0.0
1.0;1753874608.751475;19.727559;1.13;-1.6;-0.06;0.043473;-1.016719;-0.023419;0.0;0.0;0.0;0.0;0.0;0.0
1.0;1753874608.756076;19.722597;1.13;-1.62;0.09;0.043438;-1.019173;-0.023023;0.0;0.0;0.0;0.0;0.0;0.0
1.0;1753874608.760677;19.710974;1.15;-1.73;0.05;0.042946;-1.017388;-0.022798;0.0;0.0;0.0;0.0;0.0;0.0
1.0;1753874608.765278;19.700747;1.16;-1.7;0.0;0.043256;-1.017706;-0.023242;0.0;0.0;0.0;0.0;0.0;0.0
1.0;1753874608.769879;19.74136;1.14;-1.74;-0.05;0.043969;-1.016542;-0.02317;0.0;0.0;0.0;0.0;0.0;0.0
1.0;1753874608.77448;19.711023;1.11;-1.66;-0.04;0.044811;-1.017961;-0.023463;0.0;0.0;0.0;0.0;0.0;0.0
1.0;1753874608.779081;19.731385;1.17;-1.72;-0.03;0.042011;-1.018316;-0.022747;0.0;0.0;0.0;0.0;0.0;0.0
1.0;1753874608.783682;19.706859;1.03;-1.72;-0.01;0.043919;-1.017751;-0.023008;0.0;0.0;0.0;0.0;0.0;0.0
1.0;1753874608.788283;19.707507;1.17;-1.66;0.0;0.043837;-1.018921;-0.023153;0.0;0.0;0.0;0.0;0.0;0.0
1.0;1753874608.792884;19.709548;1.07;-1.68;0.05;0.042564;-1.018154;-0.023092;0.0;0.0;0.0;0.0;0.0;0.0
1.0;1753874608.797485;19.725935;1.16;-1.66;0.0;0.043462;-1.016956;-0.022385;0.0;0.0;0.0;0.0;0.0;0.0
1.0;1753874608.802086;19.715092;1.07;-1.72;-0.01;0.043549;-1.017083;-0.022656;0.0;0.0;0.0;0.0;0.0;0.0
1.0;1753874608.806687;19.710338;1.12;-1.71;0.05;0.04232;-1.017748;-0.022258;0.0;0.0;0.0;0.0;0.0;0.0
1.0;1753874608.811288;19.694936;1.13;-1.71;0.01;0.043279;-1.016651;-0.023355;0.0;0.0;0.0;0.0;0.0;0.0
1.0;1753874608.815889;19.72835;1.16;-1.62;-0.12;0.043548;-1.017098;-0.022985;0.0;0.0;0.0;0.0;0.0;0.0
1.0;1753874608.82049;19.729295;1.09;-1.83;-0.0;0.043631;-1.018066;-0.023699;0.0;0.0;0.0;0.0;0.0;0.0
1.0;1753874608.825091;19.704331;1.12;-1.78;0.0;0.042262;-1.016802;-0.02326;0.0;0.0;0.0;0.0;0.0;0.0
1.0;1753874608.829692;19.730145;1.08;-1.81;0.04;0.042784;-1.017437;-0.023084;0.0;0.0;0.0;0.0;0.0;0.0
1.0;1753874608.834293;19.7285;1.08;-1.9;-0.01;0.042565;-1.017997;-0.022661;0.0;0.0;0.0;0.0;0.0;0.0
1.0;1753874608.838894;19.71429;1.12;-1.83;0.03;0.043576;-1.016332;-0.023253;0.0;0.0;0.0;0.0;0.0;0.0
1.0;1753874608.843495;19.70329;1.11;-1.83;0.05;0.044112;-1.017215;-0.023154;0.0;0.0;0.0;0.0;0.0;0.0
1.0;1753874608.848096;19.701043;1.02;-1.73;-0.07;0.043295;-1.017491;-0.02233;0.0;0.0;0.0;0.0;0.0;0.0
1.0;1753874608.852697;19.688372;1.12;-1.74;0.0;0.043013;-1.017407;-0.023709;0.0;0.0;0.0;0.0;0.0;0.0
1.0;1753874608.857298;19.703372;1.13;-1.68;0.02;0.043236;-1.017675;-0.02274;0.0;0.0;0.0;0.0;0.0;0.0
1.0;1753874608.861899;19.716051;1.18;-1.81;0.05;0.043141;-1.017814;-0.022848;0.0;0.0;0.0;0.0;0.0;0.0
1.0;1753874608.8665;19.759655;1.14;-1.69;-0.02;0.043641;-1.017397;-0.023007;0.0;0.0;0.0;0.0;0.0;0.0
1.0;1753874608.8717;19.714844;1.12;-1.75;0.0;0.04331;-1.017236;-0.022936;0.0;0.0;0.0;0.0;0.0;0.0
1.0;1753874608.876301;19.719936;1.02;-1.7;-0.01;0.043084;-1.015916;-0.02429;0.0;0.0;0.0;0.0;0.0;0.0
1.0;1753874608.880902;19.74898;1.14;-1.66;0.03;0.043454;-1.017931;-0.022136;0.0;0.0;0.0;0.0;0.0;0.0
1.0;1753874608.885503;19.714034;0.93;-1.68;0.01;0.044747;-1.018065;-0.023876;0.0;0.0;0.0;0.0;0.0;0.0
1.0;1753874608.890104;19.711206;1.02;-1.64;-0.02;0.04366;-1.018404;-0.022804;0.0;0.0;0.0;0.0;0.0;0.0
1.0;1753874608.894705;19.70951;1.08;-1.56;0.05;0.043933;-1.018133;-0.023808;0.0;0.0;0.0;0.0;0.0;0.0
1.0;1753874608.899306;19.717927;1.0;-1.67;0.02;0.043996;-1.016306;-0.023728;0.0;0.0;0.0;0.0;0.0;0.0
1.0;1753874608.903907;19.709143;1.1;-1.59;0.02;0.043058;-1.019075;-0.023929;0.0;0.0;0.0;0.0;0.0;0.0
1.0;1753874608.90993;19.714844;0.98;-1.61;0.07;0.04453;-1.017724;-0.023668;0.0;0.0;0.0;0.0;0.0;0.0
1.0;1753874608.914531;19.727028;0.95;-1.69;0.11;0.04533;-1.017464;-0.024233;0.0;0.0;0.0;0.0;0.0;0.0
1.0;1753874608.919132;19.691172;0.97;-1.68;0.07;0.043646;-1.018558;-0.023226;0.0;0.0;0.0;0.0;0.0;0.0
1.0;1753874608.923733;19.713836;0.95;-1.66;0.04;0.04515;-1.016476;-0.022684;0.0;0.0;0.0;0.0;0.0;0.0
1.0;1753874608.928334;19.71722;1.08;-1.64;0.04;0.045228;-1.017802;-0.024058;0.0;0.0;0.0;0.0;0.0;0.0
1.0;1753874608.932935;19.714681;1.11;-1.6;0.07;0.045017;-1.017553;-0.023375;0.0;0.0;0.0;0.0;0.0;0.0
1.0;1753874608.937536;19.712698;1.09;-1.62;0.04;0.043823;-1.017378;-0.023147;0.0;0.0;0.0;0.0;0.0;0.0
1.0;1753874608.942137;19.717824;1.04;-1.62;0.07;0.045706;-1.015937;-0.024083;0.0;0.0;0.0;0.0;0.0;0.0
1.0;1753874608.946738;19.719729;0.99;-1.66;-0.0;0.04488;-1.017978;-0.023423;0.0;0.0;0.0;0.0;0.0;0.0
1.0;1753874608.951339;19.695067;0.89;-1.69;0.04;0.046742;-1.016266;-0.023199;0.0;0.0;0.0;0.0;0.0;0.0
1.0;1753874608.95594;19.744535;1.06;-1.67;0.03;0.045158;-1.017722;-0.023944;0.0;0.0;0.0;0.0;0.0;0.0
1.0;1753874608.960541;19.710138;1.05;-1.68;-0.0;0.045083;-1.019647;-0.023487;0.0;0.0;0.0;0.0;0.0;0.0
1.0;1753874608.965142;19.708652;1.12;-1.64;-0.04;0.045616;-1.018609;-0.024416;0.0;0.0;0.0;0.0;0.0;0.0
1.0;1753874608.969743;19.726035;1.08;-1.67;0.02;0.045985;-1.018846;-0.023435;0.0;0.0;0.0;0.0;0.0;0.0
1.0;1753874608.974344;19.715211;1.12;-1.72;-0.0;0.043742;-1.018827;-0.02448;0.0;0.0;0.0;0.0;0.0;0.0
1.0;1753874608.978945;19.71695;0.98;-1.74;0.02;0.044909;-1.018334;-0.024179;0.0;0.0;0.0;0.0;0.0;0.0
1.0;1753874608.983546;19.718176;1.19;-1.77;0.04;0.046143;-1.017074;-0.024889;0.0;0.0;0.0;0.0;0.0;0.0
1.0;1753874608.988147;19.717254;1.16;-1.78;0.07;0.044884;-1.018945;-0.025796;0.0;0.0;0.0;0.0;0.0;0.0
1.0;1753874608.99325;19.714844;1.19;-1.75;0.0;0.045628;-1.018212;-0.024644;0.0;0.0;0.0;0.0;0.0;0.0
1.0;1753874608.996422;19.683594;1.19;-1.68;0.07;0.045262;-1.016016;-0.023058;0.0;0.0;0.0;0.0;0.0;0.0
1.0;1753874609.001023;19.681609;1.16;-1.63;0.21;0.044454;-1.016847;-0.022967;0.0;0.0;0.0;0.0;0.0;0.0
1.0;1753874609.005624;19.687257;1.17;-1.77;0.0;0.04521;-1.016111;-0.022657;0.0;0.0;0.0;0.0;0.0;0.0
1.0;1753874609.010225;19.67579;1.13;-1.71;0.11;0.044771;-1.015451;-0.021674;0.0;0.0;0.0;0.0;0.0;0.0
1.0;1753874609.014826;19.678341;1.19;-1.67;0.07;0.04503;-1.016862;-0.022955;0.0;0.0;0.0;0.0;0.0;0.0
1.0;1753874609.019427;19.681086;1.14;-1.72;0.01;0.045825;-1.017437;-0.02153;0.0;0.0;0.0;0.0;0.0;0.0
1.0;1753874609.024028;19.671402;1.09;-1.72;0.02;0.044514;-1.01677;-0.023732;0.0;0.0;0.0;0.0;0.0;0.0
1.0;1753874609.028629;19.68871;1.22;-1.69;0.04;0.043667;-1.016693;-0.022136;0.0;0.0;0.0;0.0;0.0;0.0
1.0;1753874609.03323;19.70669;1.21;-1.6;0.06;0.043685;-1.016026;-0.022461;0.0;0.0;0.0;0.0;0.0;0.0
1.0;1753874609.037831;19.695186;1.23;-1.67;0.08;0.044518;-1.01704;-0.023127;0.0;0.0;0.0;0.0;0.0;0.0
1.0;1753874609.042432;19.687626;1.2;-1.7;0.08;0.04287;-1.016706;-0.022591;0.0;0.0;0.0;0.0;0.0;0.0
1.0;1753874609.047033;19.678229;1.18;-1.64;-0.07;0.044109;-1.018145;-0.02337;0.0;0.0;0.0;0.0;0.0;0.0
1.0;1753874609.051634;19.686065;1.15;-1.65;0.08;0.042163;-1.017467;-0.021834;0.0;0.0;0.0;0.0;0.0;0.0
1.0;1753874609.056235;19.690848;1.16;-1.63;0.04;0.044007;-1.015727;-0.021786;0.0;0.0;0.0;0.0;0.0;0.0
1.0;1753874609.060836;19.670827;1.11;-1.73;0.0;0.043745;-1.017875;-0.022223;0.0;0.0;0.0;0.0;0.0;0.0
1.0;1753874609.065437;19.708618;1.2;-1.72;0.04;0.044643;-1.019477;-0.023136;0.0;0.0;0.0;0.0;0.0;0.0
1.0;1753874609.070038;19.689868;1.21;-1.71;0.0;0.044816;-1.017833;-0.023321;0.0;0.0;0.0;0.0;0.0;0.0
1.0;1753874609.074639;19.690003;1.07;-1.66;0.07;0.04322;-1.018203;-0.022421;0.0;0.0;0.0;0.0;0.0;0.0
1.0;1753874609.07924;19.676873;1.13;-1.61;-0.02;0.044024;-1.017543;-0.023786;0.0;0.0;0.0;0.0;0.0;0.0
1.0;1753874609.083841;19.697973;1.18;-1.69;0.05;0.042361;-1.017731;-0.023269;0.0;0.0;0.0;0.0;0.0;0.0
1.0;1753874609.088442;19.674672;1.15;-1.72;-0.07;0.043448;-1.018374;-0.022381;0.0;0.0;0.0;0.0;0.0;0.0
1.0;1753874609.093043;19.691001;1.1;-1.71;-0.01;0.04222;-1.017754;-0.022263;0.0;0.0;0.0;0.0;0.0;0.0
1.0;1753874609.1001;19.683594;1.19;-1.68;0.0;0.042456;-1.018212;-0.02257;0.0;0.0;0.0;0.0;0.0;0.0
1.0;1753874609.104701;19.680698;1.1;-1.66;-0.13;0.041879;-1.01804;-0.022888;0.0;0.0;0.0;0.0;0.0;0.0
1.0;1753874609.109302;19.687082;1.23;-1.7;0.05;0.043049;-1.018687;-0.022841;0.0;0.0;0.0;0.0;0.0;0.0
1.0;1753874609.113903;19.682787;1.23;-1.71;0.05;0.043361;-1.017732;-0.022226;0.0;0.0;0.0;0.0;0.0;0.0
1.0;1753874609.118504;19.677695;1.25;-1.6;0.06;0.041028;-1.018391;-0.021777;0.0;0.0;0.0;0.0;0.0;0.0
1.0;1753874609.123105;19.692096;1.15;-1.75;0.01;0.043846;-1.01982;-0.023552;0.0;0.0;0.0;0.0;0.0;0.0
1.0;1753874609.127706;19.679706;1.08;-1.69;-0.07;0.043064;-1.017863;-0.024084;0.0;0.0;0.0;0.0;0.0;0.0
1.0;1753874609.132307;19.687718;1.21;-1.69;-0.04;0.042022;-1.019227;-0.022607;0.0;0.0;0.0;0.0;0.0;0.0
1.0;1753874609.136908;19.673934;1.14;-1.76;-0.01;0.042215;-1.017568;-0.02254;0.0;0.0;0.0;0.0;0.0;0.0
1.0;1753874609.141509;19.669322;1.09;-1.57;-0.03;0.044666;-1.018141;-0.0229;0.0;0.0;0.0;0.0;0.0;0.0
1.0;1753874609.14611;19.687828;1.15;-1.64;0.08;0.042889;-1.018435;-0.023959;0.0;0.0;0.0;0.0;0.0;0.0
1.0;1753874609.150711;19.682708;1.16;-1.65;-0.01;0.044087;-1.017816;-0.02282;0.0;0.0;0.0;0.0;0.0;0.0
1.0;1753874609.155312;19.694444;1.15;-1.7;0.01;0.042085;-1.017726;-0.022921;0.0;0.0;0.0;0.0;0.0;0.0
1.0;1753874609.159913;19.688429;1.12;-1.63;-0.01;0.041922;-1.018114;-0.023334;0.0;0.0;0.0;0.0;0.0;0.0
1.0;1753874609.164514;19.664418;1.22;-1.73;-0.01;0.043927;-1.019013;-0.022915;0.0;0.0;0.0;0.0;0.0;0.0
1.0;1753874609.169115;19.701224;1.24;-1.69;0.06;0.042438;-1.018471;-0.022925;0.0;0.0;0.0;0.0;0.0;0.0
1.0;1753874609.173716;19.682637;1.18;-1.7;-0.0;0.042793;-1.017801;-0.022925;0.0;0.0;0.0;0.0;0.0;0.0
1.0;1753874609.178317;19.67941;1.21;-1.73;0.03;0.042836;-1.01817;-0.023132;0.0;0.0;0.0;0.0;0.0;0.0
1.0;1753874609.182918;19.709205;1.17;-1.71;-0.06;0.042356;-1.019364;-0.02247;0.0;0.0;0.0;0.0;0.0;0.0
1.0;1753874609.187519;19.676836;1.16;-1.68;0.07;0.042726;-1.018901;-0.023468;0.0;0.0;0.0;0.0;0.0;0.0
1.0;1753874609.19212;19.677149;1.15;-1.65;-0.03;0.042642;-1.018924;-0.02335;0.0;0.0;0.0;0.0;0.0;0.0
1.0;1753874609.196721;19.681157;1.17;-1.71;0.02;0.04384;-1.017816;-0.022364;0.0;0.0;0.0;0.0;0.0;0.0
1.0;1753874609.201322;19.678705;1.15;-1.68;0.04;0.042141;-1.018345;-0.02381;0.0;0.0;0.0;0.0;0.0;0.0
1.0;1753874609.205923;19.695935;1.13;-1.72;0.08;0.043235;-1.018293;-0.022503;0.0;0.0;0.0;0.0;0.0;0.0
1.0;1753874609.210524;19.692338;1.19;-1.7;0.06;0.042291;-1.018107;-0.023413;0.0;0.0;0.0;0.0;0.0;0.0
1.0;1753874609.215125;19.683683;1.15;-1.75;-0.1;0.043252;-1.01617;-0.022371;0.0;0.0;0.0;0.0;0.0;0.0
1.0;1753874609.219726;19.673136;1.15;-1.65;0.05;0.043382;-1.017114;-0.022562;0.0;0.0;0.0;0.0;0.0;0.0
1.0;1753874609.224327;19.694185;1.13;-1.64;0.08;0.041219;-1.019595;-0.022314;0.0;0.0;0.0;0.0;0.0;0.0
1.0;1753874609.228928;19.674032;1.18;-1.65;-0.02;0.043455;-1.017819;-0.024636;0.0;0.0;0.0;0.0;0.0;0.0
1.0;1753874609.233529;19.694631;1.07;-1.63;0.02;0.043484;-1.017833;-0.024042;0.0;0.0;0.0;0.0;0.0;0.0
1.0;1753874609.23813;19.673547;1.29;-1.72;0.07;0.042901;-1.018161;-0.024108;0.0;0.0;0.0;0.0;0.0;0.0
1.0;1753874609.242731;19.687652;1.15;-1.69;0.02;0.042907;-1.018729;-0.022287;0.0;0.0;0.0;0.0;0.0;0.0
1.0;1753874609.247332;19.69422;1.19;-1.74;0.09;0.044197;-1.018637;-0.025103;0.0;0.0;0.0;0.0;0.0;0.0
1.0;1753874609.251933;19.710752;1.11;-1.69;-0.08;0.043041;-1.017381;-0.022282;0.0;0.0;0.0;0.0;0.0;0.0
1.0;1753874609.256534;19.66815;1.25;-1.74;0.08;0.042447;-1.017326;-0.025361;0.0;0.0;0.0;0.0;0.0;0.0
1.0;1753874609.261135;19.716108;1.25;-1.68;0.06;0.042335;-1.017879;-0.024633;0.0;0.0;0.0;0.0;0.0;0.0
1.0;1753874609.265736;19.678313;1.17;-1.65;0.03;0.042902;-1.018737;-0.021801;0.0;0.0;0.0;0.0;0.0;0.0
1.0;1753874609.270337;19.689055;1.13;-1.66;0.04;0.042148;-1.01801;-0.024247;0.0;0.0;0.0;0.0;0.0;0.0
1.0;1753874609.274938;19.696345;1.16;-1.67;-0.05;0.043656;-1.017246;-0.024977;0.0;0.0;0.0;0.0;0.0;0.0
1.0;1753874609.279539;19.680642;1.28;-1.73;0.06;0.042182;-1.018;-0.024462;0.0;0.0;0.0;0.0;0.0;0.0
1.0;1753874609.28414;19.719597;1.17;-1.71;0.05;0.043343;-1.01795;-0.024905;0.0;0.0;0.0;0.0;0.0;0.0
1.0;1753874609.288741;19.685432;1.12;-1.68;-0.01;0.041425;-1.016731;-0.023264;0.0;0.0;0.0;0.0;0.0;0.0
1.0;1753874609.293342;19.692453;1.15;-1.7;-0.01;0.042135;-1.017532;-0.024384;0.0;0.0;0.0;0.0;0.0;0.0
1.0;1753874609.297943;19.676765;1.07;-1.69;0.04;0.042834;-1.017671;-0.024831;0.0;0.0;0.0;0.0;0.0;0.0
1.0;1753874609.302544;19.678245;1.0;-1.68;-0.08;0.042585;-1.017937;-0.022136;0.0;0.0;0.0;0.0;0.0;0.0
1.0;1753874609.307145;19.687384;1.11;-1.73;0.05;0.043852;-1.01714;-0.023506;0.0;0.0;0.0;0.0;0.0;0.0
1.0;1753874609.311746;19.682955;1.24;-1.69;0.04;0.043038;-1.018327;-0.023715;0.0;0.0;0.0;0.0;0.0;0.0
1.0;1753874609.316347;19.685328;1.02;-1.69;-0.03;0.043455;-1.018441;-0.022786;0.0;0.0;0.0;0.0;0.0;0.0
1.0;1753874609.320948;19.657818;1.25;-1.67;0.0;0.043693;-1.018922;-0.024425;0.0;0.0;0.0;0.0;0.0;0.0
1.0;1753874609.325549;19.697563;1.25;-1.69;0.08;0.04387;-1.01758;-0.024708;0.0;0.0;0.0;0.0;0.0;0.0
1.0;1753874609.33015;19.684778;1.12;-1.75;0.02;0.042125;-1.018844;-0.025054;0.0;0.0;0.0;0.0;0.0;0.0
1.0;1753874609.334751;19.683815;1.18;-1.69;0.07;0.043572;-1.017707;-0.023418;0.0;0.0;0.0;0.0;0.0;0.0
1.0;1753874609.339352;19.675767;1.12;-1.7;-0.0;0.043065;-1.017453;-0.025242;0.0;0.0;0.0;0.0;0.0;0.0
1.0;1753874609.343953;19.668178;1.14;-1.68;0.08;0.043088;-1.017948;-0.025923;0.0;0.0;0.0;0.0;0.0;0.0
1.0;1753874609.348554;19.699878;1.08;-1.74;0.04;0.042561;-1.018695;-0.024463;0.0;0.0;0.0;0.0;0.0;0.0
1.0;1753874609.353155;19.685711;1.12;-1.76;0.03;0.043909;-1.018391;-0.023914;0.0;0.0;0.0;0.0;0.0;0.0
1.0;1753874609.357756;19.671458;1.12;-1.76;0.07;0.042424;-1.019588;-0.024021;0.0;0.0;0.0;0.0;0.0;0.0
1.0;1753874609.362357;19.66676;1.11;-1.68;-0.04;0.043909;-1.016667;-0.022581;0.0;0.0;0.0;0.0;0.0;0.0
1.0;1753874609.366958;19.692485;1.19;-1.71;-0.02;0.042471;-1.018676;-0.024773;0.0;0.0;0.0;0.0;0.0;0.0
1.0;1753874609.371559;19.687238;1.15;-1.7;-0.0;0.044628;-1.017671;-0.024635;0.0;0.0;0.0;0.0;0.0;0.0
1.0;1753874609.37616;19.679518;1.13;-1.72;0.05;0.042163;-1.016881;-0.023474;0.0;0.0;0.0;0.0;0.0;0.0
1.0;1753874609.380761;19.683463;1.15;-1.74;-0.02;0.044604;-1.018883;-0.025002;0.0;0.0;0.0;0.0;0.0;0.0
1.0;1753874609.385362;19.685007;1.12;-1.7;0.04;0.042987;-1.017558;-0.024122;0.0;0.0;0.0;0.0;0.0;0.0
1.0;1753874609.389963;19.700545;1.08;-1.73;0.04;0.042762;-1.019672;-0.024948;0.0;0.0;0.0;0.0;0.0;0.0
1.0;1753874609.394564;19.689667;1.22;-1.74;0.09;0.043329;-1.018369;-0.025335;0.0;0.0;0.0;0.0;0.0;0.0
1.0;1753874609.399165;19.684683;1.07;-1.72;0.06;0.042184;-1.018313;-0.024804;0.0;0.0;0.0;0.0;0.0;0.0
1.0;1753874609.403766;19.675734;1.05;-1.67;-0.0;0.043591;-1.016803;-0.025489;0.0;0.0;0.0;0.0;0.0;0.0
1.0;1753874609.408367;19.68617;1.19;-1.71;0.06;0.04431;-1.018783;-0.023933;0.0;0.0;0.0;0.0;0.0;0.0
1.0;1753874609.412968;19.697622;1.17;-1.72;0.06;0.043071;-1.017708;-0.025616;0.0;0.0;0.0;0.0;0.0;0.0
1.0;1753874609.417569;19.669956;1.13;-1.73;0.0;0.044235;-1.018344;-0.024573;0.0;0.0;0.0;0.0;0.0;0.0
1.0;1753874609.42217;19.690282;1.15;-1.75;-0.0;0.042576;-1.017863;-0.025981;0.0;0.0;0.0;0.0;0.0;0.0
1.0;1753874609.426771;19.658128;1.07;-1.72;0.06;0.04474;-1.018522;-0.025601;0.0;0.0;0.0;0.0;0.0;0.0
1.0;1753874609.431372;19.703799;1.11;-1.68;0.18;0.043737;-1.016834;-0.02526;0.0;0.0;0.0;0.0;0.0;0.0
1.0;1753874609.435973;19.674357;1.17;-1.72;0.07;0.042569;-1.017628;-0.025246;0.0;0.0;0.0;0.0;0.0;0.0
1.0;1753874609.440574;19.690875;1.17;-1.69;0.12;0.044092;-1.018945;-0.025585;0.0;0.0;0.0;0.0;0.0;0.0
1.0;1753874609.445175;19.681888;1.05;-1.8;0.06;0.044326;-1.02002;-0.024932;0.0;0.0;0.0;0.0;0.0;0.0
1.0;1753874609.449776;19.707972;1.2;-1.77;0.08;0.043719;-1.018723;-0.02577;0.0;0.0;0.0;0.0;0.0;0.0
1.0;1753874609.454377;19.682459;1.01;-1.71;0.05;0.04421;-1.019418;-0.025042;0.0;0.0;0.0;0.0;0.0;0.0
1.0;1753874609.458978;19.682429;1.13;-1.7;0.04;0.044343;-1.017967;-0.025266;0.0;0.0;0.0;0.0;0.0;0.0
1.0;1753874609.463579;19.689887;1.11;-1.71;0.11;0.043259;-1.01542;-0.023946;0.0;0.0;0.0;0.0;0.0;0.0
1.0;1753874609.46818;19.684653;1.14;-1.76;0.02;0.043757;-1.018253;-0.024418;0.0;0.0;0.0;0.0;0.0;0.0
1.0;1753874609.472781;19.683499;1.26;-1.74;0.08;0.04237;-1.018461;-0.025635;0.0;0.0;0.0;0.0;0.0;0.0
1.0;1753874609.477382;19.69321;1.21;-1.78;0.05;0.043025;-1.019742;-0.023835;0.0;0.0;0.0;0.0;0.0;0.0
1.0;1753874609.481983;19.687529;1.18;-1.77;0.06;0.045558;-1.01785;-0.025433;0.0;0.0;0.0;0.0;0.0;0.0
1.0;1753874609.486584;19.668948;1.1;-1.7;0.06;0.044301;-1.016729;-0.026907;0.0;0.0;0.0;0.0;0.0;0.0
1.0;1753874609.491185;19.683738;1.1;-1.73;0.04;0.042944;-1.017833;-0.0238;0.0;0.0;0.0;0.0;0.0;0.0
1.0;1753874609.495786;19.673631;1.15;-1.75;0.03;0.044232;-1.017691;-0.024889;0.0;0.0;0.0;0.0;0.0;0.0
1.0;1753874609.500387;19.690717;1.27;-1.74;0.11;0.042648;-1.016908;-0.026003;0.0;0.0;0.0;0.0;0.0;0.0
1.0;1753874609.504988;19.696128;1.11;-1.65;0.05;0.043456;-1.018454;-0.025141;0.0;0.0;0.0;0.0;0.0;0.0
1.0;1753874609.509589;19.703926;1.08;-1.71;0.11;0.044333;-1.0181;-0.025602;0.0;0.0;0.0;0.0;0.0;0.0
1.0;1753874609.51419;19.682196;1.14;-1.72;-0.0;0.04283;-1.017937;-0.026403;0.0;0.0;0.0;0.0;0.0;0.0
1.0;1753874609.518791;19.672363;1.11;-1.78;0.02;0.04296;-1.018413;-0.024627;0.0;0.0;0.0;0.0;0.0;0.0
1.0;1753874609.523392;19.699149;1.09;-1.79;0.05;0.043922;-1.017545;-0.027874;0.0;0.0;0.0;0.0;0.0;0.0
1.0;1753874609.527993;19.678393;1.21;-1.77;0.08;0.042424;-1.017205;-0.027477;0.0;0.0;0.0;0.0;0.0;0.0
1.0;1753874609.532594;19.693972;1.08;-1.69;0.05;0.044905;-1.017806;-0.025732;0.0;0.0;0.0;0.0;0.0;0.0
1.0;1753874609.537195;19.689551;1.2;-1.76;0.03;0.043247;-1.017854;-0.024883;0.0;0.0;0.0;0.0;0.0;0.0
1.0;1753874609.541796;19.677202;1.11;-1.79;0.08;0.042774;-1.018327;-0.024896;0.0;0.0;0.0;0.0;0.0;0.0
1.0;1753874609.546397;19.671344;1.13;-1.79;0.01;0.044441;-1.018781;-0.02499;0.0;0.0;0.0;0.0;0.0;0.0
1.0;1753874609.550998;19.717625;1.08;-1.72;0.08;0.043703;-1.018715;-0.026327;0.0;0.0;0.0;0.0;0.0;0.0
1.0;1753874609.555599;19.699484;1.19;-1.71;0.07;0.044305;-1.017959;-0.02459;0.0;0.0;0.0;0.0;0.0;0.0
1.0;1753874609.5612;19.683594;1.12;-1.75;0.07;0.043798;-1.01809;-0.025864;0.0;0.0;0.0;0.0;0.0;0.0
1.0;1753874609.565801;19.693271;1.1;-1.79;0.11;0.043663;-1.018912;-0.025248;0.0;0.0;0.0;0.0;0.0;0.0
1.0;1753874609.570402;19.668787;0.99;-1.59;0.09;0.045129;-1.017199;-0.026549;0.0;0.0;0.0;0.0;0.0;0.0
1.0;1753874609.575003;19.688614;1.11;-1.64;0.05;0.042645;-1.017558;-0.025028;0.0;0.0;0.0;0.0;0.0;0.0
1.0;1753874609.579604;19.702969;1.08;-1.69;0.04;0.04535;-1.018364;-0.025387;0.0;0.0;0.0;0.0;0.0;0.0
1.0;1753874609.584205;19.703817;1.21;-1.7;0.09;0.043653;-1.017341;-0.025659;0.0;0.0;0.0;0.0;0.0;0.0
1.0;1753874609.588806;19.691082;1.02;-1.7;-0.01;0.044272;-1.017049;-0.024464;0.0;0.0;0.0;0.0;0.0;0.0
1.0;1753874609.593407;19.695002;1.11;-1.66;0.18;0.043632;-1.017818;-0.025311;0.0;0.0;0.0;0.0;0.0;0.0
1.0;1753874609.598008;19.703606;1.09;-1.61;0.11;0.043284;-1.018201;-0.02618;0.0;0.0;0.0;0.0;0.0;0.0
1.0;1753874609.602609;19.711639;1.07;-1.68;0.08;0.044785;-1.017192;-0.026461;0.0;0.0;0.0;0.0;0.0;0.0
1.0;1753874609.60721;19.692938;1.15;-1.64;0.08;0.04371;-1.018563;-0.024818;0.0;0.0;0.0;0.0;0.0;0.0
1.0;1753874609.611811;19.693381;1.16;-1.63;0.12;0.045805;-1.016245;-0.025089;0.0;0.0;0.0;0.0;0.0;0.0
1.0;1753874609.616412;19.707083;1.16;-1.66;0.08;0.045064;-1.017456;-0.024201;0.0;0.0;0.0;0.0;0.0;0.0
1.0;1753874609.621013;19.712393;1.16;-1.68;-0.07;0.044601;-1.018194;-0.024591;0.0;0.0;0.0;0.0;0.0;0.0
1.0;1753874609.62734;19.707031;1.12;-1.61;0.07;0.044896;-1.017602;-0.024766;0.0;0.0;0.0;0.0;0.0;0.0
1.0;1753874609.631941;19.708442;1.13;-1.58;0.08;0.044881;-1.018088;-0.024752;0.0;0.0;0.0;0.0;0.0;0.0
1.0;1753874609.636542;19.702931;1.05;-1.75;0.07;0.044929;-1.017453;-0.0253;0.0;0.0;0.0;0.0;0.0;0.0
1.0;1753874609.641143;19.682878;1.12;-1.62;0.14;0.044215;-1.018458;-0.022449;0.0;0.0;0.0;0.0;0.0;0.0
1.0;1753874609.645744;19.708239;1.04;-1.57;0.14;0.042661;-1.016983;-0.022404;0.0;0.0;0.0;0.0;0.0;0.0
1.0;1753874609.65011;19.707031;1.05;-1.68;0.14;0.043798;-1.017358;-0.023302;0.0;0.0;0.0;0.0;0.0;0.0
1.0;1753874609.654711;19.714256;1.05;-1.68;0.14;0.044773;-1.017714;-0.023416;0.0;0.0;0.0;0.0;0.0;0.0
1.0;1753874609.659312;19.692364;1.03;-1.64;0.18;0.045136;-1.018796;-0.023587;0.0;0.0;0.0;0.0;0.0;0.0
1.0;1753874609.663913;19.704891;1.21;-1.68;0.17;0.042485;-1.017926;-0.021892;0.0;0.0;0.0;0.0;0.0;0.0
1.0;1753874609.668514;19.679235;1.1;-1.64;0.11;0.043254;-1.017025;-0.024102;0.0;0.0;0.0;0.0;0.0;0.0
1.0;1753874609.673115;19.684074;1.13;-1.71;0.11;0.044861;-1.017077;-0.021254;0.0;0.0;0.0;0.0;0.0;0.0
1.0;1753874609.677716;19.67691;1.19;-1.65;0.15;0.044161;-1.017308;-0.023077;0.0;0.0;0.0;0.0;0.0;0.0
1.0;1753874609.682317;19.690761;1.09;-1.62;0.18;0.043361;-1.017261;-0.021744;0.0;0.0;0.0;0.0;0.0;0.0
1.0;1753874609.686918;19.67699;1.06;-1.71;0.12;0.046329;-1.017393;-0.02202;0.0;0.0;0.0;0.0;0.0;0.0
1.0;1753874609.691519;19.677324;1.13;-1.52;0.05;0.04417;-1.01886;-0.023843;0.0;0.0;0.0;0.0;0.0;0.0
1.0;1753874609.69629;19.664062;1.12;-1.68;0.14;0.044896;-1.017968;-0.023424;0.0;0.0;0.0;0.0;0.0;0.0
1.0;1753874609.700891;19.669594;1.03;-1.66;0.11;0.045264;-1.018814;-0.023511;0.0;0.0;0.0;0.0;0.0;0.0
1.0;1753874609.705492;19.653776;1.2;-1.72;0.14;0.0438;-1.017992;-0.022703;0.0;0.0;0.0;0.0;0.0;0.0
1.0;1753874609.710093;19.64935;1.1;-1.74;0.07;0.043808;-1.017638;-0.024335;0.0;0.0;0.0;0.0;0.0;0.0
1.0;1753874609.714694;19.686645;1.09;-1.7;0.16;0.044606;-1.018196;-0.023408;0.0;0.0;0.0;0.0;0.0;0.0
1.0;1753874609.719295;19.685347;1.23;-1.6;0.08;0.047681;-1.018354;-0.023537;0.0;0.0;0.0;0.0;0.0;0.0
1.0;1753874609.723896;19.674875;1.13;-1.65;0.19;0.045202;-1.018777;-0.023166;0.0;0.0;0.0;0.0;0.0;0.0
1.0;1753874609.728497;19.672628;1.19;-1.66;0.17;0.045114;-1.018927;-0.022888;0.0;0.0;0.0;0.0;0.0;0.0
1.0;1753874609.733098;19.659159;1.14;-1.58;0.06;0.044613;-1.017047;-0.022789;0.0;0.0;0.0;0.0;0.0;0.0
1.0;1753874609.737699;19.660601;1.13;-1.65;0.05;0.045553;-1.01839;-0.022598;0.0;0.0;0.0;0.0;0.0;0.0
1.0;1753874609.7423;19.678364;1.18;-1.68;0.14;0.044544;-1.019466;-0.022719;0.0;0.0;0.0;0.0;0.0;0.0
1.0;1753874609.746901;19.681602;1.14;-1.68;0.14;0.043528;-1.019115;-0.023325;0.0;0.0;0.0;0.0;0.0;0.0
1.0;1753874609.751502;19.647708;1.05;-1.7;0.19;0.0447;-1.018817;-0.022154;0.0;0.0;0.0;0.0;0.0;0.0
1.0;1753874609.756103;19.652396;1.08;-1.77;0.13;0.044264;-1.020361;-0.023185;0.0;0.0;0.0;0.0;0.0;0.0
1.0;1753874609.760704;19.652439;1.13;-1.66;0.07;0.044735;-1.019613;-0.022591;0.0;0.0;0.0;0.0;0.0;0.0
1.0;1753874609.765305;19.631217;1.05;-1.65;0.23;0.043408;-1.019593;-0.022921;0.0;0.0;0.0;0.0;0.0;0.0
1.0;1753874609.769906;19.672739;1.39;-1.8;0.17;0.043728;-1.019807;-0.023332;0.0;0.0;0.0;0.0;0.0;0.0
1.0;1753874609.774507;19.672379;1.22;-1.77;0.13;0.04563;-1.019506;-0.022113;0.0;0.0;0.0;0.0;0.0;0.0
1.0;1753874609.779108;19.641265;1.09;-1.68;0.22;0.04379;-1.020654;-0.024083;0.0;0.0;0.0;0.0;0.0;0.0
1.0;1753874609.78523;19.664062;1.19;-1.68;0.14;0.044164;-1.01931;-0.022692;0.0;0.0;0.0;0.0;0.0;0.0
1.0;1753874609.78732;19.664062;1.12;-1.68;0.07;0.044042;-1.01809;-0.023912;0.0;0.0;0.0;0.0;0.0;0.0
1.0;1753874609.791921;19.672634;1.13;-1.73;0.13;0.044084;-1.017702;-0.024507;0.0;0.0;0.0;0.0;0.0;0.0
1.0;1753874609.796522;19.690258;1.21;-1.72;0.09;0.045076;-1.018764;-0.023115;0.0;0.0;0.0;0.0;0.0;0.0
1.0;1753874609.801123;19.656813;1.14;-1.68;0.12;0.042941;-1.018257;-0.02393;0.0;0.0;0.0;0.0;0.0;0.0
1.0;1753874609.805724;19.67498;1.21;-1.67;0.02;0.045075;-1.018455;-0.022609;0.0;0.0;0.0;0.0;0.0;0.0
1.0;1753874609.810325;19.653026;1.28;-1.65;0.03;0.043093;-1.017638;-0.022872;0.0;0.0;0.0;0.0;0.0;0.0
1.0;1753874609.814926;19.662153;1.04;-1.71;0.18;0.042368;-1.017346;-0.022263;0.0;0.0;0.0;0.0;0.0;0.0
1.0;1753874609.819527;19.682224;1.24;-1.73;0.13;0.042466;-1.019053;-0.024178;0.0;0.0;0.0;0.0;0.0;0.0
1.0;1753874609.824128;19.68466;1.11;-1.65;0.07;0.043591;-1.016977;-0.022822;0.0;0.0;0.0;0.0;0.0;0.0
1.0;1753874609.828729;19.671308;1.12;-1.55;0.09;0.042891;-1.017996;-0.022219;0.0;0.0;0.0;0.0;0.0;0.0
1.0;1753874609.83556;19.664062;1.19;-1.61;0.14;0.042944;-1.017602;-0.022204;0.0;0.0;0.0;0.0;0.0;0.0
1.0;1753874609.840161;19.648913;1.08;-1.65;0.09;0.044006;-1.017136;-0.022468;0.0;0.0;0.0;0.0;0.0;0.0
1.0;1753874609.844762;19.667119;1.32;-1.65;0.09;0.042118;-1.017092;-0.022264;0.0;0.0;0.0;0.0;0.0;0.0
1.0;1753874609.849363;19.690168;1.11;-1.71;0.05;0.042872;-1.01753;-0.024783;0.0;0.0;0.0;0.0;0.0;0.0
1.0;1753874609.853964;19.66492;1.11;-1.58;0.08;0.04348;-1.017385;-0.022985;0.0;0.0;0.0;0.0;0.0;0.0
1.0;1753874609.858565;19.674307;1.21;-1.69;0.09;0.043192;-1.016694;-0.023415;0.0;0.0;0.0;0.0;0.0;0.0
1.0;1753874609.863166;19.6701;1.09;-1.68;0.08;0.043755;-1.017971;-0.022728;0.0;0.0;0.0;0.0;0.0;0.0
1.0;1753874609.867767;19.648587;1.22;-1.61;0.15;0.044199;-1.017501;-0.024952;0.0;0.0;0.0;0.0;0.0;0.0
1.0;1753874609.872368;19.643242;1.18;-1.68;0.03;0.046043;-1.017654;-0.024582;0.0;0.0;0.0;0.0;0.0;0.0
1.0;1753874609.8794;19.660156;1.12;-1.68;0.07;0.044896;-1.017236;-0.02379;0.0;0.0;0.0;0.0;0.0;0.0
1.0;1753874609.884001;19.635978;1.05;-1.74;0.06;0.044596;-1.01836;-0.024944;0.0;0.0;0.0;0.0;0.0;0.0
1.0;1753874609.888602;19.685308;1.15;-1.63;0.1;0.044996;-1.017819;-0.025082;0.0;0.0;0.0;0.0;0.0;0.0
1.0;1753874609.893203;19.650952;1.1;-1.76;0.11;0.046705;-1.016911;-0.023757;0.0;0.0;0.0;0.0;0.0;0.0
1.0;1753874609.897804;19.657642;1.01;-1.79;0.08;0.044512;-1.017576;-0.022048;0.0;0.0;0.0;0.0;0.0;0.0
1.0;1753874609.902405;19.660073;1.11;-1.7;0.04;0.043283;-1.017956;-0.024766;0.0;0.0;0.0;0.0;0.0;0.0
1.0;1753874609.907006;19.674721;1.0;-1.73;0.08;0.045129;-1.016332;-0.023052;0.0;0.0;0.0;0.0;0.0;0.0
1.0;1753874609.911607;19.662335;1.06;-1.68;0.07;0.044042;-1.016847;-0.023834;0.0;0.0;0.0;0.0;0.0;0.0
1.0;1753874609.916208;19.655759;1.02;-1.74;0.14;0.045195;-1.016912;-0.025121;0.0;0.0;0.0;0.0;0.0;0.0
1.0;1753874609.92452;19.660156;1.05;-1.75;0.14;0.044896;-1.016992;-0.02379;0.0;0.0;0.0;0.0;0.0;0.0
1.0;1753874609.929121;19.647845;0.99;-1.68;0.14;0.042742;-1.017053;-0.024863;0.0;0.0;0.0;0.0;0.0;0.0
1.0;1753874609.933722;19.655409;1.15;-1.63;0.12;0.046043;-1.017411;-0.023762;0.0;0.0;0.0;0.0;0.0;0.0
1.0;1753874609.938323;19.680624;1.03;-1.62;0.07;0.045638;-1.016287;-0.024634;0.0;0.0;0.0;0.0;0.0;0.0
1.0;1753874609.942924;19.670575;1.06;-1.82;0.02;0.043696;-1.017828;-0.023919;0.0;0.0;0.0;0.0;0.0;0.0
1.0;1753874609.947525;19.650069;0.99;-1.82;0.04;0.044915;-1.017919;-0.022746;0.0;0.0;0.0;0.0;0.0;0.0
1.0;1753874609.952126;19.646683;1.02;-1.73;0.14;0.044454;-1.017818;-0.023384;0.0;0.0;0.0;0.0;0.0;0.0
1.0;1753874609.956727;19.621942;1.03;-1.73;0.18;0.045025;-1.017121;-0.023831;0.0;0.0;0.0;0.0;0.0;0.0
1.0;1753874609.961328;19.654019;0.93;-1.78;0.08;0.044833;-1.017716;-0.024513;0.0;0.0;0.0;0.0;0.0;0.0
1.0;1753874609.965929;19.63432;0.94;-1.82;0.01;0.043972;-1.016706;-0.02307;0.0;0.0;0.0;0.0;0.0;0.0
1.0;1753874609.97074;19.660156;0.98;-1.75;0.07;0.044774;-1.017358;-0.023668;0.0;0.0;0.0;0.0;0.0;0.0
1.0;1753874609.9753;19.640625;1.12;-1.75;0.0;0.044652;-1.01748;-0.024522;0.0;0.0;0.0;0.0;0.0;0.0
1.0;1753874609.981404;19.640625;1.05;-1.68;0.14;0.044652;-1.01748;-0.024522;0.0;0.0;0.0;0.0;0.0;0.0
1.0;1753874609.98426;19.632812;0.98;-1.75;0.14;0.044042;-1.01809;-0.023424;0.0;0.0;0.0;0.0;0.0;0.0
1.0;1753874609.988861;19.649949;0.9;-1.67;0.15;0.045357;-1.017721;-0.023493;0.0;0.0;0.0;0.0;0.0;0.0
1.0;1753874609.993643;19.632812;1.05;-1.68;0.07;0.044896;-1.018334;-0.023912;0.0;0.0;0.0;0.0;0.0;0.0
1.0;1753874609.997999;19.632812;1.05;-1.68;0.14;0.045018;-1.01748;-0.024766;0.0;0.0;0.0;0.0;0.0;0.0
1.0;1753874610.0026;19.643785;1.02;-1.71;0.04;0.046799;-1.017484;-0.022328;0.0;0.0;0.0;0.0;0.0;0.0
1.0;1753874610.007201;19.572784;0.99;-1.75;0.2;0.045993;-1.017648;-0.023536;0.0;0.0;0.0;0.0;0.0;0.0
1.0;1753874610.011802;19.68477;1.08;-1.72;0.22;0.045703;-1.017158;-0.026513;0.0;0.0;0.0;0.0;0.0;0.0
1.0;1753874610.016403;19.616067;1.11;-1.56;0.01;0.045536;-1.018108;-0.024403;0.0;0.0;0.0;0.0;0.0;0.0
1.0;1753874610.021004;19.648035;1.09;-1.67;0.17;0.044398;-1.017772;-0.023145;0.0;0.0;0.0;0.0;0.0;0.0
1.0;1753874610.025605;19.633865;0.95;-1.79;0.21;0.04582;-1.017056;-0.025067;0.0;0.0;0.0;0.0;0.0;0.0
1.0;1753874610.030206;19.644638;0.97;-1.7;0.18;0.044706;-1.017291;-0.025281;0.0;0.0;0.0;0.0;0.0;0.0
1.0;1753874610.034807;19.605531;1.09;-1.67;0.08;0.04386;-1.017004;-0.022865;0.0;0.0;0.0;0.0;0.0;0.0
1.0;1753874610.039408;19.639593;1.04;-1.72;0.07;0.044841;-1.017652;-0.02435;0.0;0.0;0.0;0.0;0.0;0.0
1.0;1753874610.044009;19.647752;1.13;-1.77;0.16;0.046224;-1.017023;-0.023716;0.0;0.0;0.0;0.0;0.0;0.0
1.0;1753874610.04861;19.626969;1.07;-1.69;0.1;0.044565;-1.017195;-0.025078;0.0;0.0;0.0;0.0;0.0;0.0
1.0;1753874610.053211;19.65834;1.07;-1.57;0.16;0.044663;-1.017044;-0.026797;0.0;0.0;0.0;0.0;0.0;0.0
1.0;1753874610.057812;19.650804;1.1;-1.78;0.09;0.043952;-1.017372;-0.024361;0.0;0.0;0.0;0.0;0.0;0.0
1.0;1753874610.062413;19.653571;1.01;-1.76;0.16;0.042552;-1.018202;-0.024411;0.0;0.0;0.0;0.0;0.0;0.0
1.0;1753874610.067014;19.61787;1.07;-1.71;0.11;0.043949;-1.017918;-0.024399;0.0;0.0;0.0;0.0;0.0;0.0
1.0;1753874610.071615;19.645548;1.03;-1.64;0.09;0.044788;-1.017401;-0.023806;0.0;0.0;0.0;0.0;0.0;0.0
1.0;1753874610.076216;19.668842;1.02;-1.65;0.16;0.044807;-1.018088;-0.025173;0.0;0.0;0.0;0.0;0.0;0.0
1.0;1753874610.080817;19.646572;1.09;-1.77;0.07;0.044473;-1.017474;-0.024087;0.0;0.0;0.0;0.0;0.0;0.0
1.0;1753874610.085418;19.647638;1.05;-1.61;0.18;0.045633;-1.017334;-0.025917;0.0;0.0;0.0;0.0;0.0;0.0
1.0;1753874610.090019;19.642062;1.06;-1.72;0.1;0.045064;-1.017486;-0.025449;0.0;0.0;0.0;0.0;0.0;0.0
1.0;1753874610.09462;19.636361;1.06;-1.67;0.12;0.044537;-1.017717;-0.025281;0.0;0.0;0.0;0.0;0.0;0.0
1.0;1753874610.099221;19.622277;1.0;-1.68;0.16;0.043637;-1.017816;-0.024445;0.0;0.0;0.0;0.0;0.0;0.0
1.0;1753874610.103822;19.677339;0.99;-1.72;0.13;0.043848;-1.017506;-0.023916;0.0;0.0;0.0;0.0;0.0;0.0
1.0;1753874610.108423;19.636198;1.12;-1.67;0.09;0.045492;-1.018059;-0.024049;0.0;0.0;0.0;0.0;0.0;0.0
1.0;1753874610.113024;19.625266;1.01;-1.72;0.12;0.04368;-1.017896;-0.024485;0.0;0.0;0.0;0.0;0.0;0.0
1.0;1753874610.117625;19.64573;1.05;-1.75;0.17;0.043783;-1.017905;-0.024036;0.0;0.0;0.0;0.0;0.0;0.0
1.0;1753874610.122226;19.599601;1.11;-1.8;0.11;0.045988;-1.017432;-0.025196;0.0;0.0;0.0;0.0;0.0;0.0
1.0;1753874610.126827;19.620383;1.1;-1.87;0.13;0.045278;-1.017064;-0.025308;0.0;0.0;0.0;0.0;0.0;0.0
1.0;1753874610.131428;19.64552;1.11;-1.69;0.1;0.044977;-1.016923;-0.024994;0.0;0.0;0.0;0.0;0.0;0.0
1.0;1753874610.136029;19.664663;1.1;-1.78;0.14;0.045031;-1.017255;-0.024891;0.0;0.0;0.0;0.0;0.0;0.0
1.0;1753874610.14063;19.647298;1.07;-1.82;0.16;0.045855;-1.017374;-0.024494;0.0;0.0;0.0;0.0;0.0;0.0
1.0;1753874610.145231;19.655808;1.02;-1.7;0.2;0.043813;-1.017251;-0.024321;0.0;0.0;0.0;0.0;0.0;0.0
1.0;1753874610.149832;19.651589;1.03;-1.72;0.14;0.04298;-1.017451;-0.025474;0.0;0.0;0.0;0.0;0.0;0.0
1.0;1753874610.154433;19.650979;0.98;-1.69;0.16;0.043778;-1.018195;-0.024305;0.0;0.0;0.0;0.0;0.0;0.0
1.0;1753874610.159034;19.642579;1.03;-1.64;0.14;0.045089;-1.01808;-0.025319;0.0;0.0;0.0;0.0;0.0;0.0
1.0;1753874610.163635;19.638672;1.06;-1.65;0.13;0.045714;-1.017481;-0.02426;0.0;0.0;0.0;0.0;0.0;0.0
1.0;1753874610.168236;19.670084;1.07;-1.69;0.22;0.04457;-1.017835;-0.02261;0.0;0.0;0.0;0.0;0.0;0.0
1.0;1753874610.172837;19.63852;1.17;-1.59;0.17;0.044445;-1.017597;-0.025234;0.0;0.0;0.0;0.0;0.0;0.0
1.0;1753874610.177438;19.643884;1.17;-1.62;0.08;0.046661;-1.01721;-0.023888;0.0;0.0;0.0;0.0;0.0;0.0
1.0;1753874610.182039;19.601045;1.08;-1.66;0.17;0.044144;-1.017845;-0.026387;0.0;0.0;0.0;0.0;0.0;0.0
1.0;1753874610.18664;19.616043;1.02;-1.56;0.08;0.045713;-1.017225;-0.024794;0.0;0.0;0.0;0.0;0.0;0.0
1.0;1753874610.191241;19.652635;1.07;-1.75;0.13;0.04496;-1.017502;-0.023115;0.0;0.0;0.0;0.0;0.0;0.0
1.0;1753874610.195842;19.619459;1.09;-1.59;0.18;0.043732;-1.016678;-0.02475;0.0;0.0;0.0;0.0;0.0;0.0
1.0;1753874610.200443;19.689727;1.07;-1.76;0.13;0.044514;-1.017906;-0.026042;0.0;0.0;0.0;0.0;0.0;0.0
1.0;1753874610.205044;19.621451;1.1;-1.68;0.13;0.043276;-1.01769;-0.023846;0.0;0.0;0.0;0.0;0.0;0.0
1.0;1753874610.209645;19.653174;1.07;-1.8;0.13;0.043538;-1.017828;-0.024038;0.0;0.0;0.0;0.0;0.0;0.0
1.0;1753874610.214246;19.616299;1.14;-1.65;0.15;0.043805;-1.017972;-0.024438;0.0;0.0;0.0;0.0;0.0;0.0
1.0;1753874610.218847;19.630309;1.15;-1.72;0.14;0.044272;-1.018806;-0.024264;0.0;0.0;0.0;0.0;0.0;0.0
1.0;1753874610.223448;19.666788;1.18;-1.66;0.14;0.044053;-1.017848;-0.024081;0.0;0.0;0.0;0.0;0.0;0.0
1.0;1753874610.228049;19.648857;1.08;-1.83;0.11;0.045189;-1.017698;-0.023587;0.0;0.0;0.0;0.0;0.0;0.0
1.0;1753874610.23265;19.628766;1.08;-1.71;0.08;0.044922;-1.017667;-0.024754;0.0;0.0;0.0;0.0;0.0;0.0
1.0;1753874610.237251;19.621717;1.14;-1.65;0.07;0.043833;-1.017526;-0.025331;0.0;0.0;0.0;0.0;0.0;0.0
1.0;1753874610.241852;19.59665;1.14;-1.68;0.19;0.044021;-1.016957;-0.023945;0.0;0.0;0.0;0.0;0.0;0.0
1.0;1753874610.246453;19.609394;1.11;-1.55;0.26;0.044821;-1.018035;-0.025668;0.0;0.0;0.0;0.0;0.0;0.0
1.0;1753874610.251054;19.643961;1.1;-1.74;0.22;0.045192;-1.017388;-0.022715;0.0;0.0;0.0;0.0;0.0;0.0
1.0;1753874610.255655;19.674387;1.16;-1.67;0.04;0.044669;-1.018204;-0.024019;0.0;0.0;0.0;0.0;0.0;0.0
1.0;1753874610.260256;19.633755;1.2;-1.74;0.14;0.044082;-1.018395;-0.025708;0.0;0.0;0.0;0.0;0.0;0.0
1.0;1753874610.264857;19.63236;1.01;-1.74;0.08;0.042382;-1.018236;-0.024484;0.0;0.0;0.0;0.0;0.0;0.0
1.0;1753874610.269458;19.65203;1.14;-1.7;0.2;0.043737;-1.017639;-0.023798;0.0;0.0;0.0;0.0;0.0;0.0
1.0;1753874610.274059;19.60958;1.01;-1.8;0.01;0.044934;-1.0175;-0.023972;0.0;0.0;0.0;0.0;0.0;0.0
1.0;1753874610.27866;19.659339;1.07;-1.79;0.16;0.043584;-1.017759;-0.025218;0.0;0.0;0.0;0.0;0.0;0.0
1.0;1753874610.283261;19.617262;1.24;-1.7;0.13;0.046375;-1.017308;-0.023435;0.0;0.0;0.0;0.0;0.0;0.0
1.0;1753874610.287862;19.622962;1.06;-1.73;0.08;0.044251;-1.017233;-0.024233;0.0;0.0;0.0;0.0;0.0;0.0
1.0;1753874610.292463;19.664773;1.13;-1.71;0.08;0.043641;-1.017191;-0.026129;0.0;0.0;0.0;0.0;0.0;0.0
1.0;1753874610.297064;19.647232;1.1;-1.6;0.1;0.043147;-1.017709;-0.024457;0.0;0.0;0.0;0.0;0.0;0.0
1.0;1753874610.301665;19.631788;1.06;-1.72;0.19;0.045126;-1.017421;-0.023295;0.0;0.0;0.0;0.0;0.0;0.0
1.0;1753874610.306266;19.624354;1.1;-1.72;0.08;0.043155;-1.018088;-0.022526;0.0;0.0;0.0;0.0;0.0;0.0
1.0;1753874610.310867;19.662434;1.12;-1.81;0.11;0.0431;-1.017088;-0.024518;0.0;0.0;0.0;0.0;0.0;0.0
1.0;1753874610.315468;19.604488;1.17;-1.75;0.05;0.044474;-1.017765;-0.025139;0.0;0.0;0.0;0.0;0.0;0.0
1.0;1753874610.320069;19.630162;1.08;-1.68;0.21;0.043681;-1.017476;-0.024019;0.0;0.0;0.0;0.0;0.0;0.0
1.0;1753874610.32467;19.668148;1.09;-1.64;0.14;0.04306;-1.018303;-0.02379;0.0;0.0;0.0;0.0;0.0;0.0
1.0;1753874610.329271;19.657121;1.12;-1.81;0.1;0.042254;-1.018301;-0.023694;0.0;0.0;0.0;0.0;0.0;0.0
1.0;1753874610.333872;19.614668;1.03;-1.8;0.17;0.044322;-1.01702;-0.021237;0.0;0.0;0.0;0.0;0.0;0.0
1.0;1753874610.338473;19.636766;1.07;-1.7;0.07;0.04544;-1.017927;-0.024435;0.0;0.0;0.0;0.0;0.0;0.0
1.0;1753874610.343074;19.610395;1.11;-1.84;0.11;0.043379;-1.018399;-0.024717;0.0;0.0;0.0;0.0;0.0;0.0
1.0;1753874610.347675;19.656279;1.18;-1.72;0.07;0.043515;-1.017936;-0.024416;0.0;0.0;0.0;0.0;0.0;0.0
1.0;1753874610.352276;19.634082;1.16;-1.68;0.14;0.043768;-1.017427;-0.02477;0.0;0.0;0.0;0.0;0.0;0.0
1.0;1753874610.356877;19.625296;1.08;-1.77;0.15;0.04422;-1.017777;-0.025066;0.0;0.0;0.0;0.0;0.0;0.0
1.0;1753874610.361478;19.600698;1.16;-1.67;0.11;0.044449;-1.017715;-0.022515;0.0;0.0;0.0;0.0;0.0;0.0
1.0;1753874610.366079;19.653132;1.15;-1.74;0.1;0.045089;-1.017447;-0.025047;0.0;0.0;0.0;0.0;0.0;0.0
1.0;1753874610.37068;19.68067;1.06;-1.84;0.07;0.044152;-1.01755;-0.025021;0.0;0.0;0.0;0.0;0.0;0.0
1.0;1753874610.375281;19.614031;1.09;-1.65;0.19;0.043806;-1.017929;-0.022223;0.0;0.0;0.0;0.0;0.0;0.0
1.0;1753874610.379882;19.640306;1.18;-1.71;0.14;0.045269;-1.017534;-0.023748;0.0;0.0;0.0;0.0;0.0;0.0
1.0;1753874610.384483;19.659211;1.11;-1.79;0.17;0.044123;-1.017632;-0.023916;0.0;0.0;0.0;0.0;0.0;0.0
1.0;1753874610.389084;19.657969;1.11;-1.88;0.16;0.043703;-1.01874;-0.023666;0.0;0.0;0.0;0.0;0.0;0.0
1.0;1753874610.393685;19.648995;1.22;-1.76;0.17;0.043275;-1.017719;-0.023276;0.0;0.0;0.0;0.0;0.0;0.0
1.0;1753874610.398286;19.607959;1.09;-1.77;0.15;0.043156;-1.017749;-0.022723;0.0;0.0;0.0;0.0;0.0;0.0
1.0;1753874610.402887;19.638916;1.16;-1.72;0.2;0.043586;-1.017735;-0.023357;0.0;0.0;0.0;0.0;0.0;0.0
1.0;1753874610.407488;19.619197;1.11;-1.74;0.04;0.044351;-1.018519;-0.024293;0.0;0.0;0.0;0.0;0.0;0.0
1.0;1753874610.412089;19.631271;1.03;-1.69;0.22;0.045868;-1.017883;-0.022569;0.0;0.0;0.0;0.0;0.0;0.0
1.0;1753874610.41669;19.649443;1.1;-1.77;0.09;0.0443;-1.017948;-0.024628;0.0;0.0;0.0;0.0;0.0;0.0
1.0;1753874610.421291;19.654894;1.14;-1.69;0.15;0.040851;-1.017782;-0.024243;0.0;0.0;0.0;0.0;0.0;0.0
1.0;1753874610.425892;19.607787;1.23;-1.77;0.17;0.04378;-1.017629;-0.022784;0.0;0.0;0.0;0.0;0.0;0.0
1.0;1753874610.430493;19.658123;1.21;-1.75;0.22;0.043638;-1.017919;-0.022972;0.0;0.0;0.0;0.0;0.0;0.0
1.0;1753874610.435094;19.657775;1.22;-1.73;0.15;0.044822;-1.017748;-0.023818;0.0;0.0;0.0;0.0;0.0;0.0
1.0;1753874610.439695;19.619933;1.11;-1.75;0.15;0.044179;-1.017721;-0.025008;0.0;0.0;0.0;0.0;0.0;0.0
1.0;1753874610.444296;19.644797;1.18;-1.77;0.21;0.042169;-1.018023;-0.024737;0.0;0.0;0.0;0.0;0.0;0.0
1.0;1753874610.448897;19.63234;1.07;-1.64;0.08;0.04422;-1.018016;-0.024419;0.0;0.0;0.0;0.0;0.0;0.0
1.0;1753874610.453498;19.631378;1.18;-1.75;0.06;0.041893;-1.018401;-0.023037;0.0;0.0;0.0;0.0;0.0;0.0
1.0;1753874610.458099;19.661449;1.18;-1.7;0.21;0.042565;-1.017158;-0.02427;0.0;0.0;0.0;0.0;0.0;0.0
1.0;1753874610.4627;19.692149;1.13;-1.76;0.17;0.04325;-1.017813;-0.024672;0.0;0.0;0.0;0.0;0.0;0.0
1.0;1753874610.467301;19.639792;1.08;-1.81;0.07;0.043995;-1.017434;-0.02404;0.0;0.0;0.0;0.0;0.0;0.0
1.0;1753874610.471902;19.632599;1.18;-1.74;0.16;0.043836;-1.0175;-0.02295;0.0;0.0;0.0;0.0;0.0;0.0
1.0;1753874610.476503;19.650198;1.15;-1.7;0.19;0.043814;-1.017251;-0.025165;0.0;0.0;0.0;0.0;0.0;0.0
1.0;1753874610.481104;19.663293;1.22;-1.88;0.15;0.042706;-1.017616;-0.026112;0.0;0.0;0.0;0.0;0.0;0.0
1.0;1753874610.485705;19.65405;1.17;-1.74;0.16;0.044568;-1.017357;-0.023173;0.0;0.0;0.0;0.0;0.0;0.0
1.0;1753874610.490306;19.685265;1.25;-1.8;0.2;0.042306;-1.017576;-0.023158;0.0;0.0;0.0;0.0;0.0;0.0
1.0;1753874610.494907;19.63745;1.15;-1.66;0.1;0.043905;-1.017694;-0.025208;0.0;0.0;0.0;0.0;0.0;0.0
1.0;1753874610.499508;19.647289;1.17;-1.64;0.08;0.04348;-1.017739;-0.023733;0.0;0.0;0.0;0.0;0.0;0.0
1.0;1753874610.504109;19.645637;1.22;-1.85;0.15;0.04409;-1.017971;-0.02564;0.0;0.0;0.0;0.0;0.0;0.0
1.0;1753874610.50871;19.627851;1.18;-1.64;0.09;0.04378;-1.018447;-0.024484;0.0;0.0;0.0;0.0;0.0;0.0
1.0;1753874610.513311;19.637667;1.17;-1.63;0.11;0.043995;-1.018002;-0.023439;0.0;0.0;0.0;0.0;0.0;0.0
1.0;1753874610.517912;19.679215;1.14;-1.67;0.09;0.042984;-1.017384;-0.024603;0.0;0.0;0.0;0.0;0.0;0.0
1.0;1753874610.522513;19.651239;1.21;-1.65;0.13;0.043101;-1.017757;-0.024131;0.0;0.0;0.0;0.0;0.0;0.0
1.0;1753874610.527114;19.648235;1.07;-1.75;0.22;0.043401;-1.017229;-0.022877;0.0;0.0;0.0;0.0;0.0;0.0
1.0;1753874610.531715;19.64961;1.21;-1.7;0.19;0.041598;-1.018047;-0.024737;0.0;0.0;0.0;0.0;0.0;0.0
1.0;1753874610.536316;19.641146;1.18;-1.76;0.15;0.043412;-1.0174;-0.022843;0.0;0.0;0.0;0.0;0.0;0.0
1.0;1753874610.540917;19.625004;1.19;-1.74;0.19;0.043884;-1.017925;-0.024446;0.0;0.0;0.0;0.0;0.0;0.0
1.0;1753874610.545518;19.678611;1.14;-1.76;0.09;0.043198;-1.017809;-0.024029;0.0;0.0;0.0;0.0;0.0;0.0
1.0;1753874610.550119;19.629943;1.15;-1.67;0.16;0.045485;-1.018059;-0.023265;0.0;0.0;0.0;0.0;0.0;0.0
1.0;1753874610.55472;19.655407;1.18;-1.66;0.15;0.046066;-1.018232;-0.022499;0.0;0.0;0.0;0.0;0.0;0.0
1.0;1753874610.559321;19.614572;1.2;-1.76;0.19;0.044434;-1.017332;-0.023944;0.0;0.0;0.0;0.0;0.0;0.0
1.0;1753874610.563922;19.616566;1.12;-1.75;0.16;0.043258;-1.01828;-0.02352;0.0;0.0;0.0;0.0;0.0;0.0
1.0;1753874610.568523;19.632644;1.13;-1.71;0.1;0.04293;-1.017852;-0.022664;0.0;0.0;0.0;0.0;0.0;0.0
1.0;1753874610.573124;19.637611;1.04;-1.76;0.15;0.043392;-1.017732;-0.021534;0.0;0.0;0.0;0.0;0.0;0.0
1.0;1753874610.577725;19.693503;1.17;-1.68;0.14;0.042361;-1.017651;-0.023659;0.0;0.0;0.0;0.0;0.0;0.0
1.0;1753874610.582326;19.626972;1.21;-1.73;0.08;0.043608;-1.017525;-0.024578;0.0;0.0;0.0;0.0;0.0;0.0
1.0;1753874610.586927;19.637344;1.25;-1.71;0.13;0.043946;-1.018542;-0.022211;0.0;0.0;0.0;0.0;0.0;0.0
1.0;1753874610.591528;19.651949;1.06;-1.81;0.16;0.042846;-1.017999;-0.025167;0.0;0.0;0.0;0.0;0.0;0.0
1.0;1753874610.596129;19.63616;1.21;-1.76;0.07;0.043949;-1.017625;-0.024039;0.0;0.0;0.0;0.0;0.0;0.0
1.0;1753874610.60073;19.683483;1.17;-1.78;0.04;0.041921;-1.01767;-0.021162;0.0;0.0;0.0;0.0;0.0;0.0
1.0;1753874610.605331;19.65959;1.21;-1.78;0.18;0.043619;-1.018226;-0.022662;0.0;0.0;0.0;0.0;0.0;0.0
1.0;1753874610.609932;19.643893;1.15;-1.84;0.15;0.043016;-1.017755;-0.024261;0.0;0.0;0.0;0.0;0.0;0.0
1.0;1753874610.614533;19.635441;1.09;-1.75;0.12;0.043016;-1.017302;-0.022043;0.0;0.0;0.0;0.0;0.0;0.0
1.0;1753874610.619134;19.656237;1.18;-1.64;0.12;0.043279;-1.017901;-0.02413;0.0;0.0;0.0;0.0;0.0;0.0
1.0;1753874610.623735;19.633656;1.25;-1.74;0.24;0.04295;-1.017606;-0.024085;0.0;0.0;0.0;0.0;0.0;0.0
1.0;1753874610.628336;19.648269;1.17;-1.84;0.13;0.042423;-1.017748;-0.023937;0.0;0.0;0.0;0.0;0.0;0.0
1.0;1753874610.632937;19.679324;1.3;-1.75;0.15;0.044515;-1.017477;-0.024573;0.0;0.0;0.0;0.0;0.0;0.0
1.0;1753874610.637538;19.639254;1.2;-1.83;0.12;0.043192;-1.018142;-0.021677;0.0;0.0;0.0;0.0;0.0;0.0
1.0;1753874610.642139;19.699943;1.22;-1.73;0.1;0.044752;-1.017953;-0.02341;0.0;0.0;0.0;0.0;0.0;0.0
1.0;1753874610.64674;19.667407;1.18;-1.76;0.15;0.042154;-1.017901;-0.02406;0.0;0.0;0.0;0.0;0.0;0.0
1.0;1753874610.651341;19.643573;1.11;-1.74;0.16;0.042866;-1.018155;-0.023681;0.0;0.0;0.0;0.0;0.0;0.0
1.0;1753874610.655942;19.643916;1.08;-1.76;0.08;0.042489;-1.018355;-0.022651;0.0;0.0;0.0;0.0;0.0;0.0
1.0;1753874610.660543;19.662464;1.23;-1.77;0.09;0.043758;-1.018279;-0.02231;0.0;0.0;0.0;0.0;0.0;0.0
1.0;1753874610.665144;19.665938;1.21;-1.75;0.18;0.043949;-1.017804;-0.0237;0.0;0.0;0.0;0.0;0.0;0.0
1.0;1753874610.6707;19.648438;1.19;-1.75;0.14;0.043188;-1.017968;-0.023424;0.0;0.0;0.0;0.0;0.0;0.0
1.0;1753874610.675301;19.630047;1.13;-1.77;0.19;0.044606;-1.017805;-0.023951;0.0;0.0;0.0;0.0;0.0;0.0
1.0;1753874610.679902;19.657498;1.17;-1.71;0.15;0.042662;-1.017503;-0.023301;0.0;0.0;0.0;0.0;0.0;0.0
1.0;1753874610.684503;19.646843;1.16;-1.71;0.06;0.04413;-1.017839;-0.024657;0.0;0.0;0.0;0.0;0.0;0.0
1.0;1753874610.689104;19.643371;1.19;-1.66;0.09;0.043047;-1.018132;-0.024364;0.0;0.0;0.0;0.0;0.0;0.0
1.0;1753874610.693705;19.627725;1.1;-1.67;0.18;0.043288;-1.018296;-0.023175;0.0;0.0;0.0;0.0;0.0;0.0
1.0;1753874610.698306;19.655603;1.12;-1.65;0.12;0.044155;-1.017521;-0.023026;0.0;0.0;0.0;0.0;0.0;0.0
1.0;1753874610.702907;19.679576;1.11;-1.71;0.1;0.043357;-1.017046;-0.024361;0.0;0.0;0.0;0.0;0.0;0.0
1.0;1753874610.7081;19.648438;1.05;-1.61;0.14;0.044286;-1.017602;-0.0244;0.0;0.0;0.0;0.0;0.0;0.0
1.0;1753874610.71155;19.648438;1.12;-1.68;0.14;0.04392;-1.017968;-0.023546;0.0;0.0;0.0;0.0;0.0;0.0
1.0;1753874610.716151;19.638309;0.99;-1.7;0.14;0.043837;-1.017734;-0.023301;0.0;0.0;0.0;0.0;0.0;0.0
1.0;1753874610.720752;19.649557;1.15;-1.72;0.14;0.044343;-1.018519;-0.023709;0.0;0.0;0.0;0.0;0.0;0.0
1.0;1753874610.725353;19.660849;1.21;-1.58;0.06;0.043514;-1.018331;-0.023708;0.0;0.0;0.0;0.0;0.0;0.0
1.0;1753874610.729954;19.639567;1.05;-1.62;0.14;0.043926;-1.018017;-0.0234;0.0;0.0;0.0;0.0;0.0;0.0
1.0;1753874610.734555;19.627656;1.08;-1.7;0.15;0.04436;-1.018161;-0.023105;0.0;0.0;0.0;0.0;0.0;0.0
1.0;1753874610.739156;19.643343;1.12;-1.68;0.08;0.044687;-1.017346;-0.022444;0.0;0.0;0.0;0.0;0.0;0.0
1.0;1753874610.743757;19.647739;1.03;-1.66;0.09;0.043353;-1.017003;-0.023377;0.0;0.0;0.0;0.0;0.0;0.0
1.0;1753874610.748358;19.621725;1.13;-1.59;0.06;0.045141;-1.018008;-0.023537;0.0;0.0;0.0;0.0;0.0;0.0
1.0;1753874610.752959;19.652338;1.08;-1.59;0.06;0.045026;-1.017866;-0.023553;0.0;0.0;0.0;0.0;0.0;0.0
1.0;1753874610.75727;19.632812;1.05;-1.61;0.07;0.045262;-1.017968;-0.023546;0.0;0.0;0.0;0.0;0.0;0.0
1.0;1753874610.761871;19.629713;1.05;-1.58;0.09;0.043847;-1.01883;-0.021599;0.0;0.0;0.0;0.0;0.0;0.0
1.0;1753874610.766472;19.633095;1.03;-1.54;0.05;0.043425;-1.018311;-0.023678;0.0;0.0;0.0;0.0;0.0;0.0
1.0;1753874610.771073;19.641888;1.02;-1.52;0.03;0.045669;-1.016827;-0.023581;0.0;0.0;0.0;0.0;0.0;0.0
1.0;1753874610.775674;19.642599;1.0;-1.56;0.06;0.044563;-1.017778;-0.023074;0.0;0.0;0.0;0.0;0.0;0.0
1.0;1753874610.780275;19.610688;1.02;-1.52;0.06;0.045608;-1.017149;-0.024225;0.0;0.0;0.0;0.0;0.0;0.0
1.0;1753874610.784876;19.649921;0.91;-1.74;0.03;0.046507;-1.016887;-0.023816;0.0;0.0;0.0;0.0;0.0;0.0
1.0;1753874610.789477;19.633773;1.09;-1.56;0.02;0.044508;-1.016512;-0.023616;0.0;0.0;0.0;0.0;0.0;0.0
1.0;1753874610.794078;19.633729;1.13;-1.63;-0.05;0.045288;-1.017067;-0.022915;0.0;0.0;0.0;0.0;0.0;0.0
1.0;1753874610.798679;19.624366;1.12;-1.63;-0.02;0.045023;-1.016621;-0.023459;0.0;0.0;0.0;0.0;0.0;0.0
1.0;1753874610.80328;19.627058;1.05;-1.49;-0.01;0.045228;-1.016668;-0.025;0.0;0.0;0.0;0.0;0.0;0.0
1.0;1753874610.807881;19.639711;1.02;-1.57;-0.01;0.046346;-1.016373;-0.023726;0.0;0.0;0.0;0.0;0.0;0.0
1.0;1753874610.81464;19.632812;1.05;-1.54;0.0;0.04514;-1.015772;-0.023424;0.0;0.0;0.0;0.0;0.0;0.0
1.0;1753874610.819241;19.631281;1.05;-1.5;-0.04;0.04628;-1.015818;-0.023322;0.0;0.0;0.0;0.0;0.0;0.0
1.0;1753874610.823842;19.632601;1.11;-1.67;-0.01;0.044195;-1.015448;-0.023174;0.0;0.0;0.0;0.0;0.0;0.0
1.0;1753874610.828443;19.63284;1.06;-1.59;0.02;0.043458;-1.015465;-0.02425;0.0;0.0;0.0;0.0;0.0;0.0
1.0;1753874610.833044;19.650675;1.13;-1.55;0.04;0.044305;-1.016055;-0.023573;0.0;0.0;0.0;0.0;0.0;0.0
1.0;1753874610.837645;19.640433;1.16;-1.61;-0.17;0.042752;-1.015615;-0.022874;0.0;0.0;0.0;0.0;0.0;0.0
1.0;1753874610.842246;19.64849;1.08;-1.71;-0.06;0.042662;-1.017773;-0.023528;0.0;0.0;0.0;0.0;0.0;0.0
1.0;1753874610.84841;19.632812;1.19;-1.75;-0.07;0.042822;-1.017114;-0.023546;0.0;0.0;0.0;0.0;0.0;0.0
1.0;1753874610.853011;19.630404;1.24;-1.79;-0.17;0.043879;-1.016563;-0.02307;0.0;0.0;0.0;0.0;0.0;0.0
1.0;1753874610.857612;19.631924;1.32;-1.7;-0.16;0.043664;-1.016916;-0.024395;0.0;0.0;0.0;0.0;0.0;0.0
1.0;1753874610.862213;19.615046;1.2;-1.63;-0.05;0.042757;-1.016538;-0.023219;0.0;0.0;0.0;0.0;0.0;0.0
1.0;1753874610.866814;19.614134;1.2;-1.72;0.02;0.043608;-1.017231;-0.023356;0.0;0.0;0.0;0.0;0.0;0.0
1.0;1753874610.871415;19.62398;1.28;-1.68;-0.11;0.043284;-1.016815;-0.022921;0.0;0.0;0.0;0.0;0.0;0.0
1.0;1753874610.876016;19.622396;1.26;-1.71;-0.03;0.043645;-1.017428;-0.022845;0.0;0.0;0.0;0.0;0.0;0.0
1.0;1753874610.880617;19.622739;1.12;-1.74;0.06;0.042824;-1.016683;-0.023244;0.0;0.0;0.0;0.0;0.0;0.0
1.0;1753874610.885218;19.625828;1.28;-1.71;-0.01;0.043328;-1.017145;-0.024152;0.0;0.0;0.0;0.0;0.0;0.0
1.0;1753874610.889819;19.62958;1.01;-1.74;0.03;0.043778;-1.016835;-0.023444;0.0;0.0;0.0;0.0;0.0;0.0
1.0;1753874610.89442;19.63096;1.22;-1.73;0.08;0.042803;-1.017831;-0.024348;0.0;0.0;0.0;0.0;0.0;0.0
1.0;1753874610.899021;19.644223;1.11;-1.67;0.03;0.042226;-1.017752;-0.023478;0.0;0.0;0.0;0.0;0.0;0.0
1.0;1753874610.903622;19.638172;1.06;-1.72;0.09;0.042903;-1.018105;-0.022844;0.0;0.0;0.0;0.0;0.0;0.0
1.0;1753874610.908223;19.623431;1.24;-1.71;-0.01;0.043022;-1.017475;-0.022793;0.0;0.0;0.0;0.0;0.0;0.0
1.0;1753874610.912824;19.619968;1.09;-1.75;0.11;0.043653;-1.017909;-0.023232;0.0;0.0;0.0;0.0;0.0;0.0
1.0;1753874610.917425;19.634278;1.17;-1.73;0.12;0.043913;-1.017569;-0.023879;0.0;0.0;0.0;0.0;0.0;0.0
1.0;1753874610.922026;19.643276;1.16;-1.75;-0.02;0.044588;-1.016636;-0.023103;0.0;0.0;0.0;0.0;0.0;0.0
1.0;1753874610.926627;19.624849;1.16;-1.77;0.02;0.043753;-1.018259;-0.023082;0.0;0.0;0.0;0.0;0.0;0.0
1.0;1753874610.931228;19.638558;1.14;-1.66;-0.06;0.042985;-1.017241;-0.023231;0.0;0.0;0.0;0.0;0.0;0.0
1.0;1753874610.935829;19.63414;1.19;-1.72;0.03;0.04289;-1.01743;-0.022483;0.0;0.0;0.0;0.0;0.0;0.0
1.0;1753874610.94287;19.632812;1.12;-1.68;0.07;0.043798;-1.017846;-0.023302;0.0;0.0;0.0;0.0;0.0;0.0
1.0;1753874610.947471;19.632249;1.11;-1.65;0.1;0.042899;-1.018351;-0.022863;0.0;0.0;0.0;0.0;0.0;0.0
1.0;1753874610.952072;19.630916;1.14;-1.72;0.1;0.04498;-1.017059;-0.023375;0.0;0.0;0.0;0.0;0.0;0.0
1.0;1753874610.956673;19.62317;1.2;-1.83;0.01;0.043693;-1.018691;-0.022758;0.0;0.0;0.0;0.0;0.0;0.0
1.0;1753874610.961274;19.624344;1.15;-1.66;0.13;0.043834;-1.016638;-0.02275;0.0;0.0;0.0;0.0;0.0;0.0
1.0;1753874610.965875;19.640762;1.02;-1.65;0.09;0.044782;-1.017423;-0.023157;0.0;0.0;0.0;0.0;0.0;0.0
1.0;1753874610.970476;19.617868;1.13;-1.7;0.1;0.042442;-1.018151;-0.023456;0.0;0.0;0.0;0.0;0.0;0.0
1.0;1753874610.975077;19.638547;1.12;-1.57;0.21;0.043405;-1.017693;-0.023987;0.0;0.0;0.0;0.0;0.0;0.0
1.0;1753874610.979678;19.61781;1.15;-1.61;0.17;0.042302;-1.017195;-0.023107;0.0;0.0;0.0;0.0;0.0;0.0
1.0;1753874610.98581;19.632812;1.12;-1.61;0.14;0.043432;-1.017236;-0.023302;0.0;0.0;0.0;0.0;0.0;0.0
1.0;1753874610.985822;19.632812;1.05;-1.68;0.07;0.044164;-1.01626;-0.024156;0.0;0.0;0.0;0.0;0.0;0.0
1.0;1753874610.990361;19.679688;0.98;-1.68;0.0;0.043432;-1.016992;-0.024522;0.0;0.0;0.0;0.0;0.0;0.0
1.0;1753874610.994936;19.679688;1.12;-1.61;0.07;0.044896;-1.017236;-0.02379;0.0;0.0;0.0;0.0;0.0;0.0
1.0;1753874610.999537;19.710244;1.25;-1.64;0.06;0.045629;-1.016915;-0.022438;0.0;0.0;0.0;0.0;0.0;0.0
1.0;1753874611.004138;19.683198;1.22;-1.6;0.08;0.046432;-1.016835;-0.024259;0.0;0.0;0.0;0.0;0.0;0.0
1.0;1753874611.008739;19.664192;1.14;-1.55;0.05;0.045078;-1.018398;-0.022493;0.0;0.0;0.0;0.0;0.0;0.0
1.0;1753874611.01334;19.699045;1.06;-1.7;0.06;0.045053;-1.017032;-0.023796;0.0;0.0;0.0;0.0;0.0;0.0
1.0;1753874611.017941;19.687764;1.15;-1.65;0.1;0.044492;-1.017493;-0.023041;0.0;0.0;0.0;0.0;0.0;0.0
1.0;1753874611.022542;19.650396;1.17;-1.63;0.01;0.044807;-1.018314;-0.023639;0.0;0.0;0.0;0.0;0.0;0.0
1.0;1753874611.027143;19.677653;0.95;-1.68;0.0;0.044219;-1.016583;-0.024842;0.0;0.0;0.0;0.0;0.0;0.0
1.0;1753874611.031744;19.684482;1.19;-1.66;0.0;0.044669;-1.015902;-0.024976;0.0;0.0;0.0;0.0;0.0;0.0
1.0;1753874611.036345;19.661883;1.04;-1.62;-0.0;0.04289;-1.019927;-0.0243;0.0;0.0;0.0;0.0;0.0;0.0
1.0;1753874611.040946;19.653267;1.17;-1.68;0.11;0.043763;-1.017505;-0.023623;0.0;0.0;0.0;0.0;0.0;0.0
1.0;1753874611.045547;19.718075;1.12;-1.63;0.02;0.04576;-1.018376;-0.023605;0.0;0.0;0.0;0.0;0.0;0.0
1.0;1753874611.050148;19.705282;1.16;-1.57;0.02;0.044815;-1.01641;-0.023818;0.0;0.0;0.0;0.0;0.0;0.0
1.0;1753874611.054749;19.675596;1.02;-1.67;0.06;0.045113;-1.018792;-0.023838;0.0;0.0;0.0;0.0;0.0;0.0
1.0;1753874611.05935;19.666075;1.1;-1.61;0.05;0.044858;-1.01741;-0.023716;0.0;0.0;0.0;0.0;0.0;0.0
1.0;1753874611.063951;19.706821;1.09;-1.61;0.07;0.042522;-1.018017;-0.024008;0.0;0.0;0.0;0.0;0.0;0.0
1.0;1753874611.068552;19.690865;1.15;-1.63;0.04;0.043525;-1.01785;-0.025437;0.0;0.0;0.0;0.0;0.0;0.0
1.0;1753874611.073153;19.665295;1.16;-1.58;-0.01;0.043757;-1.017605;-0.025058;0.0;0.0;0.0;0.0;0.0;0.0
1.0;1753874611.077754;19.695409;1.2;-1.62;0.0;0.04476;-1.018226;-0.023842;0.0;0.0;0.0;0.0;0.0;0.0
1.0;1753874611.082355;19.657339;1.18;-1.57;-0.01;0.044088;-1.018319;-0.024171;0.0;0.0;0.0;0.0;0.0;0.0
1.0;1753874611.086956;19.693935;1.13;-1.6;0.03;0.04333;-1.018397;-0.025032;0.0;0.0;0.0;0.0;0.0;0.0
1.0;1753874611.091557;19.658601;1.09;-1.76;0.02;0.043176;-1.018244;-0.025056;0.0;0.0;0.0;0.0;0.0;0.0
1.0;1753874611.096158;19.621194;1.14;-1.57;0.03;0.044406;-1.017387;-0.025094;0.0;0.0;0.0;0.0;0.0;0.0
1.0;1753874611.100759;19.674677;1.18;-1.59;0.03;0.044236;-1.018662;-0.024411;0.0;0.0;0.0;0.0;0.0;0.0
1.0;1753874611.10536;19.688033;1.19;-1.58;-0.0;0.041984;-1.019372;-0.024679;0.0;0.0;0.0;0.0;0.0;0.0
1.0;1753874611.109961;19.694678;1.1;-1.58;-0.01;0.044093;-1.018653;-0.023875;0.0;0.0;0.0;0.0;0.0;0.0
1.0;1753874611.114562;19.665435;1.02;-1.53;-0.02;0.043191;-1.017838;-0.025317;0.0;0.0;0.0;0.0;0.0;0.0
1.0;1753874611.122;19.679688;1.12;-1.61;0.0;0.044042;-1.018822;-0.024766;0.0;0.0;0.0;0.0;0.0;0.0
1.0;1753874611.126601;19.691611;0.93;-1.66;0.03;0.044987;-1.019076;-0.024668;0.0;0.0;0.0;0.0;0.0;0.0
1.0;1753874611.131202;19.719903;1.16;-1.6;-0.04;0.044776;-1.017904;-0.023927;0.0;0.0;0.0;0.0;0.0;0.0
1.0;1753874611.135803;19.694317;1.05;-1.57;0.06;0.044871;-1.019811;-0.024647;0.0;0.0;0.0;0.0;0.0;0.0
1.0;1753874611.140404;19.704099;1.2;-1.6;0.08;0.044487;-1.018343;-0.023984;0.0;0.0;0.0;0.0;0.0;0.0
1.0;1753874611.145005;19.668713;1.29;-1.7;0.01;0.04296;-1.018558;-0.025826;0.0;0.0;0.0;0.0;0.0;0.0
1.0;1753874611.149606;19.682667;1.16;-1.58;-0.04;0.044313;-1.019274;-0.02412;0.0;0.0;0.0;0.0;0.0;0.0
1.0;1753874611.154207;19.677971;1.0;-1.64;-0.03;0.042941;-1.01966;-0.023966;0.0;0.0;0.0;0.0;0.0;0.0
1.0;1753874611.158808;19.652737;1.28;-1.56;0.03;0.043283;-1.018115;-0.026326;0.0;0.0;0.0;0.0;0.0;0.0
1.0;1753874611.163409;19.667952;1.11;-1.59;-0.04;0.044158;-1.016982;-0.025771;0.0;0.0;0.0;0.0;0.0;0.0
1.0;1753874611.16801;19.694676;0.97;-1.61;0.17;0.045111;-1.01866;-0.024203;0.0;0.0;0.0;0.0;0.0;0.0
1.0;1753874611.172611;19.650962;1.1;-1.65;0.1;0.044063;-1.020383;-0.025037;0.0;0.0;0.0;0.0;0.0;0.0
1.0;1753874611.177212;19.681452;1.16;-1.6;0.06;0.044921;-1.019322;-0.02544;0.0;0.0;0.0;0.0;0.0;0.0
1.0;1753874611.181813;19.690406;1.17;-1.65;0.03;0.044963;-1.019376;-0.024029;0.0;0.0;0.0;0.0;0.0;0.0
1.0;1753874611.186414;19.650959;1.06;-1.54;0.04;0.044247;-1.018775;-0.022962;0.0;0.0;0.0;0.0;0.0;0.0
1.0;1753874611.191015;19.690445;1.05;-1.64;-0.05;0.04455;-1.019432;-0.025116;0.0;0.0;0.0;0.0;0.0;0.0
1.0;1753874611.195616;19.672113;1.11;-1.64;0.09;0.044422;-1.018682;-0.023619;0.0;0.0;0.0;0.0;0.0;0.0
1.0;1753874611.200217;19.677882;1.03;-1.56;0.02;0.044371;-1.018721;-0.02591;0.0;0.0;0.0;0.0;0.0;0.0
1.0;1753874611.204818;19.689244;0.94;-1.68;0.01;0.043758;-1.019198;-0.024409;0.0;0.0;0.0;0.0;0.0;0.0
1.0;1753874611.209419;19.618319;1.05;-1.67;0.1;0.04322;-1.018419;-0.023207;0.0;0.0;0.0;0.0;0.0;0.0
1.0;1753874611.21402;19.669846;0.94;-1.64;0.04;0.04583;-1.01945;-0.022914;0.0;0.0;0.0;0.0;0.0;0.0
1.0;1753874611.218621;19.718539;1.09;-1.68;0.09;0.044104;-1.018798;-0.022743;0.0;0.0;0.0;0.0;0.0;0.0
1.0;1753874611.223222;19.684288;1.02;-1.63;0.1;0.044177;-1.01757;-0.02391;0.0;0.0;0.0;0.0;0.0;0.0
1.0;1753874611.227823;19.642011;1.04;-1.64;0.03;0.045652;-1.017831;-0.024577;0.0;0.0;0.0;0.0;0.0;0.0
1.0;1753874611.232424;19.656934;1.06;-1.7;0.02;0.043891;-1.017886;-0.022994;0.0;0.0;0.0;0.0;0.0;0.0
1.0;1753874611.237025;19.641887;1.1;-1.63;0.05;0.044452;-1.018699;-0.022043;0.0;0.0;0.0;0.0;0.0;0.0
1.0;1753874611.241626;19.682544;1.07;-1.65;0.11;0.044203;-1.016867;-0.022455;0.0;0.0;0.0;0.0;0.0;0.0
1.0;1753874611.246227;19.648556;1.09;-1.54;0.14;0.044077;-1.019103;-0.023317;0.0;0.0;0.0;0.0;0.0;0.0
1.0;1753874611.250828;19.698778;1.02;-1.6;0.01;0.043489;-1.019178;-0.023835;0.0;0.0;0.0;0.0;0.0;0.0
1.0;1753874611.255429;19.710525;1.11;-1.65;0.03;0.043607;-1.018628;-0.02319;0.0;0.0;0.0;0.0;0.0;0.0
1.0;1753874611.26003;19.690958;1.12;-1.68;0.13;0.044119;-1.019077;-0.023009;0.0;0.0;0.0;0.0;0.0;0.0
1.0;1753874611.264631;19.662871;1.06;-1.68;0.14;0.04394;-1.017873;-0.024801;0.0;0.0;0.0;0.0;0.0;0.0
1.0;1753874611.269232;19.676349;1.09;-1.62;0.12;0.043543;-1.019127;-0.021845;0.0;0.0;0.0;0.0;0.0;0.0
1.0;1753874611.273833;19.651888;1.09;-1.58;0.09;0.043371;-1.018205;-0.023789;0.0;0.0;0.0;0.0;0.0;0.0
1.0;1753874611.278434;19.681177;1.1;-1.57;0.09;0.042805;-1.018611;-0.022303;0.0;0.0;0.0;0.0;0.0;0.0
1.0;1753874611.283035;19.651086;1.0;-1.66;0.14;0.044383;-1.018619;-0.023057;0.0;0.0;0.0;0.0;0.0;0.0
1.0;1753874611.287636;19.676836;1.07;-1.58;0.1;0.043297;-1.018875;-0.024487;0.0;0.0;0.0;0.0;0.0;0.0
1.0;1753874611.292237;19.651029;1.05;-1.73;0.13;0.042747;-1.018165;-0.023061;0.0;0.0;0.0;0.0;0.0;0.0
1.0;1753874611.296838;19.713152;1.01;-1.6;0.09;0.043221;-1.018819;-0.02278;0.0;0.0;0.0;0.0;0.0;0.0
1.0;1753874611.301439;19.674243;1.01;-1.74;0.1;0.043401;-1.018576;-0.0244;0.0;0.0;0.0;0.0;0.0;0.0
1.0;1753874611.30604;19.695962;1.02;-1.69;0.11;0.041663;-1.017685;-0.022829;0.0;0.0;0.0;0.0;0.0;0.0
1.0;1753874611.310641;19.69764;1.1;-1.67;0.17;0.043188;-1.016938;-0.023666;0.0;0.0;0.0;0.0;0.0;0.0
1.0;1753874611.315242;19.732479;1.05;-1.68;0.13;0.043881;-1.016802;-0.022572;0.0;0.0;0.0;0.0;0.0;0.0
1.0;1753874611.319843;19.672292;0.94;-1.66;0.23;0.044223;-1.017763;-0.02391;0.0;0.0;0.0;0.0;0.0;0.0
1.0;1753874611.324444;19.726185;0.88;-1.61;0.08;0.042715;-1.017193;-0.023226;0.0;0.0;0.0;0.0;0.0;0.0
1.0;1753874611.329045;19.662228;1.01;-1.63;0.12;0.043973;-1.017894;-0.023788;0.0;0.0;0.0;0.0;0.0;0.0
1.0;1753874611.333646;19.644993;0.94;-1.77;0.18;0.043226;-1.018165;-0.024034;0.0;0.0;0.0;0.0;0.0;0.0
1.0;1753874611.338247;19.664979;0.92;-1.64;0.19;0.044231;-1.018642;-0.023941;0.0;0.0;0.0;0.0;0.0;0.0
1.0;1753874611.342848;19.703949;1.03;-1.7;0.2;0.042643;-1.017669;-0.023837;0.0;0.0;0.0;0.0;0.0;0.0
1.0;1753874611.347449;19.701686;0.88;-1.71;0.21;0.043417;-1.018994;-0.02358;0.0;0.0;0.0;0.0;0.0;0.0
1.0;1753874611.35205;19.685301;1.02;-1.74;0.23;0.044386;-1.017831;-0.024061;0.0;0.0;0.0;0.0;0.0;0.0
1.0;1753874611.356651;19.667867;1.08;-1.57;0.14;0.043357;-1.018898;-0.024094;0.0;0.0;0.0;0.0;0.0;0.0
1.0;1753874611.361252;19.675488;1.09;-1.64;0.16;0.044033;-1.017805;-0.02206;0.0;0.0;0.0;0.0;0.0;0.0
1.0;1753874611.365853;19.700851;1.11;-1.68;0.16;0.042754;-1.017656;-0.022564;0.0;0.0;0.0;0.0;0.0;0.0
1.0;1753874611.370454;19.690061;1.02;-1.63;0.19;0.042242;-1.018872;-0.023432;0.0;0.0;0.0;0.0;0.0;0.0
1.0;1753874611.375055;19.676179;1.04;-1.73;0.14;0.043885;-1.017999;-0.023211;0.0;0.0;0.0;0.0;0.0;0.0
1.0;1753874611.379656;19.65994;1.02;-1.62;0.12;0.043028;-1.017309;-0.022326;0.0;0.0;0.0;0.0;0.0;0.0
1.0;1753874611.384257;19.70058;1.03;-1.71;0.25;0.043273;-1.018362;-0.023086;0.0;0.0;0.0;0.0;0.0;0.0
1.0;1753874611.388858;19.703782;0.98;-1.66;0.13;0.042371;-1.018821;-0.023605;0.0;0.0;0.0;0.0;0.0;0.0
1.0;1753874611.393459;19.681914;1.01;-1.65;0.18;0.043086;-1.018965;-0.022989;0.0;0.0;0.0;0.0;0.0;0.0
1.0;1753874611.39806;19.683585;1.06;-1.7;0.19;0.043782;-1.019407;-0.023075;0.0;0.0;0.0;0.0;0.0;0.0
1.0;1753874611.4036;19.679688;0.98;-1.68;0.21;0.043676;-1.017968;-0.022692;0.0;0.0;0.0;0.0;0.0;0.0
1.0;1753874611.408201;19.691084;1.04;-1.63;0.26;0.043648;-1.018733;-0.02314;0.0;0.0;0.0;0.0;0.0;0.0
1.0;1753874611.412802;19.668983;0.9;-1.65;0.18;0.043322;-1.016712;-0.02202;0.0;0.0;0.0;0.0;0.0;0.0
1.0;1753874611.417403;19.669205;1.0;-1.63;0.15;0.044055;-1.017103;-0.023236;0.0;0.0;0.0;0.0;0.0;0.0
1.0;1753874611.422004;19.686921;1.02;-1.71;0.24;0.043401;-1.017467;-0.021714;0.0;0.0;0.0;0.0;0.0;0.0
1.0;1753874611.426605;19.67444;1.15;-1.65;0.26;0.043323;-1.018226;-0.023238;0.0;0.0;0.0;0.0;0.0;0.0
1.0;1753874611.431206;19.694008;1.02;-1.67;0.17;0.043777;-1.017665;-0.02522;0.0;0.0;0.0;0.0;0.0;0.0
1.0;1753874611.435807;19.687942;0.95;-1.68;0.16;0.042666;-1.016847;-0.022313;0.0;0.0;0.0;0.0;0.0;0.0
1.0;1753874611.440408;19.659476;0.98;-1.62;0.2;0.04365;-1.017427;-0.021938;0.0;0.0;0.0;0.0;0.0;0.0
1.0;1753874611.445009;19.6698;1.06;-1.7;0.18;0.042961;-1.017653;-0.02469;0.0;0.0;0.0;0.0;0.0;0.0
1.0;1753874611.44961;19.646743;0.95;-1.66;0.15;0.044061;-1.018667;-0.021226;0.0;0.0;0.0;0.0;0.0;0.0
1.0;1753874611.454211;19.70527;1.02;-1.64;0.25;0.043722;-1.017085;-0.022436;0.0;0.0;0.0;0.0;0.0;0.0
1.0;1753874611.458812;19.691256;0.99;-1.7;0.21;0.043481;-1.016522;-0.022232;0.0;0.0;0.0;0.0;0.0;0.0
1.0;1753874611.463413;19.692801;1.03;-1.63;0.24;0.044042;-1.017629;-0.022095;0.0;0.0;0.0;0.0;0.0;0.0
1.0;1753874611.468014;19.714018;1.17;-1.68;0.19;0.044213;-1.017928;-0.020668;0.0;0.0;0.0;0.0;0.0;0.0
1.0;1753874611.472615;19.671124;1.05;-1.75;0.14;0.043817;-1.018673;-0.020953;0.0;0.0;0.0;0.0;0.0;0.0
1.0;1753874611.477216;19.683976;0.92;-1.63;0.21;0.044742;-1.019108;-0.023568;0.0;0.0;0.0;0.0;0.0;0.0
1.0;1753874611.481817;19.661254;1.03;-1.71;0.23;0.044036;-1.01863;-0.025025;0.0;0.0;0.0;0.0;0.0;0.0
1.0;1753874611.486418;19.682254;0.84;-1.73;0.16;0.043431;-1.018294;-0.024595;0.0;0.0;0.0;0.0;0.0;0.0
1.0;1753874611.491019;19.676628;0.96;-1.72;0.11;0.044494;-1.017777;-0.022354;0.0;0.0;0.0;0.0;0.0;0.0
1.0;1753874611.49562;19.666391;1.07;-1.62;0.07;0.043146;-1.017465;-0.021626;0.0;0.0;0.0;0.0;0.0;0.0
1.0;1753874611.500221;19.684954;1.04;-1.7;0.07;0.04221;-1.017065;-0.022937;0.0;0.0;0.0;0.0;0.0;0.0
1.0;1753874611.504822;19.661533;1.09;-1.59;0.16;0.044503;-1.019012;-0.022275;0.0;0.0;0.0;0.0;0.0;0.0
1.0;1753874611.509423;19.69044;1.06;-1.73;0.17;0.042866;-1.0174;-0.022502;0.0;0.0;0.0;0.0;0.0;0.0
1.0;1753874611.514024;19.685112;1.02;-1.74;0.2;0.043482;-1.016655;-0.022205;0.0;0.0;0.0;0.0;0.0;0.0
1.0;1753874611.518625;19.695673;1.01;-1.7;0.27;0.042938;-1.016822;-0.022226;0.0;0.0;0.0;0.0;0.0;0.0
1.0;1753874611.523226;19.660309;0.9;-1.69;0.07;0.043986;-1.01735;-0.021395;0.0;0.0;0.0;0.0;0.0;0.0
1.0;1753874611.527827;19.71291;0.97;-1.67;0.13;0.043379;-1.017995;-0.022583;0.0;0.0;0.0;0.0;0.0;0.0
1.0;1753874611.532428;19.66325;0.98;-1.75;0.19;0.044942;-1.017486;-0.023443;0.0;0.0;0.0;0.0;0.0;0.0
1.0;1753874611.537029;19.656099;1.0;-1.66;0.17;0.044814;-1.018915;-0.022133;0.0;0.0;0.0;0.0;0.0;0.0
1.0;1753874611.54163;19.646568;1.11;-1.59;0.1;0.044271;-1.017249;-0.021206;0.0;0.0;0.0;0.0;0.0;0.0
1.0;1753874611.546231;19.640981;1.19;-1.71;0.11;0.043085;-1.018552;-0.023056;0.0;0.0;0.0;0.0;0.0;0.0
1.0;1753874611.550832;19.674295;1.04;-1.6;0.05;0.043364;-1.018787;-0.023001;0.0;0.0;0.0;0.0;0.0;0.0
1.0;1753874611.555433;19.662256;1.03;-1.69;0.15;0.043831;-1.018154;-0.021466;0.0;0.0;0.0;0.0;0.0;0.0
1.0;1753874611.560034;19.727446;1.04;-1.6;0.18;0.043255;-1.016229;-0.023588;0.0;0.0;0.0;0.0;0.0;0.0
1.0;1753874611.564635;19.694775;1.1;-1.65;0.15;0.043476;-1.017709;-0.023836;0.0;0.0;0.0;0.0;0.0;0.0
1.0;1753874611.569236;19.631087;1.1;-1.66;0.16;0.042513;-1.017339;-0.02218;0.0;0.0;0.0;0.0;0.0;0.0
1.0;1753874611.573837;19.653671;1.04;-1.6;0.11;0.044722;-1.017366;-0.023857;0.0;0.0;0.0;0.0;0.0;0.0
1.0;1753874611.578438;19.663301;1.0;-1.62;0.2;0.043785;-1.01848;-0.02185;0.0;0.0;0.0;0.0;0.0;0.0
1.0;1753874611.583039;19.66648;1.03;-1.71;0.18;0.044549;-1.017299;-0.025147;0.0;0.0;0.0;0.0;0.0;0.0
1.0;1753874611.58764;19.645995;1.09;-1.69;0.21;0.042783;-1.017272;-0.022293;0.0;0.0;0.0;0.0;0.0;0.0
1.0;1753874611.592241;19.687213;0.97;-1.71;0.22;0.044596;-1.017041;-0.021939;0.0;0.0;0.0;0.0;0.0;0.0
1.0;1753874611.596842;19.698881;1.05;-1.69;0.16;0.042863;-1.018302;-0.022748;0.0;0.0;0.0;0.0;0.0;0.0
1.0;1753874611.601443;19.678864;1.08;-1.66;0.11;0.043676;-1.017636;-0.021506;0.0;0.0;0.0;0.0;0.0;0.0
1.0;1753874611.606044;19.671234;0.96;-1.66;0.17;0.043441;-1.017532;-0.021777;0.0;0.0;0.0;0.0;0.0;0.0
1.0;1753874611.610645;19.643219;0.99;-1.69;0.13;0.041938;-1.018113;-0.024541;0.0;0.0;0.0;0.0;0.0;0.0
1.0;1753874611.615246;19.661619;1.04;-1.69;0.15;0.04405;-1.017986;-0.023455;0.0;0.0;0.0;0.0;0.0;0.0
1.0;1753874611.619847;19.659004;1.04;-1.69;0.13;0.043894;-1.017872;-0.022486;0.0;0.0;0.0;0.0;0.0;0.0
1.0;1753874611.624448;19.660637;0.97;-1.7;0.14;0.04318;-1.017905;-0.023491;0.0;0.0;0.0;0.0;0.0;0.0
1.0;1753874611.629049;19.683888;0.96;-1.65;0.18;0.043842;-1.01866;-0.021766;0.0;0.0;0.0;0.0;0.0;0.0
1.0;1753874611.63365;19.688336;1.07;-1.62;0.15;0.0437;-1.017561;-0.02368;0.0;0.0;0.0;0.0;0.0;0.0
1.0;1753874611.638251;19.672038;1.02;-1.74;0.25;0.043004;-1.017707;-0.021839;0.0;0.0;0.0;0.0;0.0;0.0
1.0;1753874611.642852;19.708973;1.16;-1.61;0.16;0.043134;-1.017297;-0.023032;0.0;0.0;0.0;0.0;0.0;0.0
1.0;1753874611.647453;19.658063;0.99;-1.65;0.16;0.042801;-1.01926;-0.022609;0.0;0.0;0.0;0.0;0.0;0.0
1.0;1753874611.652054;19.700844;1.08;-1.68;0.17;0.043215;-1.01685;-0.023384;0.0;0.0;0.0;0.0;0.0;0.0
1.0;1753874611.656655;19.659898;1.06;-1.66;0.19;0.043613;-1.017795;-0.022136;0.0;0.0;0.0;0.0;0.0;0.0
1.0;1753874611.661256;19.662798;1.12;-1.7;0.11;0.042376;-1.017197;-0.022302;0.0;0.0;0.0;0.0;0.0;0.0
1.0;1753874611.665857;19.667858;1.07;-1.7;0.1;0.042217;-1.018881;-0.023733;0.0;0.0;0.0;0.0;0.0;0.0
1.0;1753874611.670458;19.653121;1.12;-1.71;0.11;0.043338;-1.017596;-0.021821;0.0;0.0;0.0;0.0;0.0;0.0
1.0;1753874611.675059;19.639109;1.11;-1.63;0.16;0.043825;-1.016972;-0.024085;0.0;0.0;0.0;0.0;0.0;0.0
1.0;1753874611.67966;19.664711;1.08;-1.7;0.03;0.044293;-1.017396;-0.021396;0.0;0.0;0.0;0.0;0.0;0.0
1.0;1753874611.684261;19.627914;1.1;-1.68;0.09;0.043481;-1.019005;-0.022243;0.0;0.0;0.0;0.0;0.0;0.0
1.0;1753874611.688862;19.64884;1.03;-1.76;0.09;0.042926;-1.018064;-0.0227;0.0;0.0;0.0;0.0;0.0;0.0
1.0;1753874611.693463;19.643992;1.12;-1.67;0.17;0.044197;-1.017415;-0.022152;0.0;0.0;0.0;0.0;0.0;0.0
1.0;1753874611.698064;19.678161;1.02;-1.72;0.05;0.043171;-1.018184;-0.023451;0.0;0.0;0.0;0.0;0.0;0.0
1.0;1753874611.702665;19.625628;1.12;-1.77;0.14;0.042629;-1.018902;-0.020872;0.0;0.0;0.0;0.0;0.0;0.0
1.0;1753874611.707266;19.657448;0.93;-1.68;0.13;0.04409;-1.018467;-0.022394;0.0;0.0;0.0;0.0;0.0;0.0
1.0;1753874611.711867;19.620616;1.0;-1.65;0.06;0.043575;-1.017047;-0.02299;0.0;0.0;0.0;0.0;0.0;0.0
1.0;1753874611.716468;19.669302;0.95;-1.74;0.12;0.04282;-1.01936;-0.022847;0.0;0.0;0.0;0.0;0.0;0.0
1.0;1753874611.721069;19.655261;1.11;-1.58;0.19;0.043482;-1.018174;-0.023749;0.0;0.0;0.0;0.0;0.0;0.0
1.0;1753874611.72567;19.670155;1.14;-1.67;0.19;0.042321;-1.017999;-0.02225;0.0;0.0;0.0;0.0;0.0;0.0
1.0;1753874611.730271;19.649955;1.02;-1.65;0.04;0.044303;-1.016769;-0.020758;0.0;0.0;0.0;0.0;0.0;0.0
1.0;1753874611.734872;19.646784;0.98;-1.7;0.15;0.042687;-1.017453;-0.022897;0.0;0.0;0.0;0.0;0.0;0.0
1.0;1753874611.739473;19.653372;1.03;-1.69;0.1;0.041755;-1.017897;-0.022985;0.0;0.0;0.0;0.0;0.0;0.0
1.0;1753874611.744074;19.662493;1.15;-1.62;0.03;0.043367;-1.017699;-0.022893;0.0;0.0;0.0;0.0;0.0;0.0
1.0;1753874611.748675;19.679161;1.16;-1.71;0.1;0.04308;-1.017398;-0.022979;0.0;0.0;0.0;0.0;0.0;0.0
1.0;1753874611.753276;19.634378;1.16;-1.66;0.15;0.044395;-1.017745;-0.02234;0.0;0.0;0.0;0.0;0.0;0.0
1.0;1753874611.757877;19.658264;1.11;-1.72;0.09;0.044253;-1.018031;-0.022637;0.0;0.0;0.0;0.0;0.0;0.0
1.0;1753874611.762478;19.649958;1.08;-1.61;0.09;0.043183;-1.018545;-0.023489;0.0;0.0;0.0;0.0;0.0;0.0
1.0;1753874611.767079;19.63572;1.12;-1.68;0.09;0.042076;-1.018741;-0.022259;0.0;0.0;0.0;0.0;0.0;0.0
1.0;1753874611.77168;19.63359;1.03;-1.7;0.05;0.043436;-1.017685;-0.02109;0.0;0.0;0.0;0.0;0.0;0.0
1.0;1753874611.776281;19.6562;1.1;-1.73;0.05;0.042694;-1.018147;-0.024554;0.0;0.0;0.0;0.0;0.0;0.0
1.0;1753874611.780882;19.665186;1.08;-1.54;0.13;0.043705;-1.018255;-0.022244;0.0;0.0;0.0;0.0;0.0;0.0
1.0;1753874611.785483;19.681954;1.19;-1.69;0.07;0.041873;-1.017666;-0.024567;0.0;0.0;0.0;0.0;0.0;0.0
1.0;1753874611.790084;19.636293;1.13;-1.66;0.08;0.042832;-1.016675;-0.021771;0.0;0.0;0.0;0.0;0.0;0.0
1.0;1753874611.794685;19.621732;1.13;-1.68;0.09;0.043223;-1.019218;-0.021961;0.0;0.0;0.0;0.0;0.0;0.0
1.0;1753874611.799286;19.620858;1.26;-1.67;0.08;0.042488;-1.017232;-0.020686;0.0;0.0;0.0;0.0;0.0;0.0
1.0;1753874611.803887;19.635531;1.2;-1.7;0.07;0.042106;-1.017672;-0.020607;0.0;0.0;0.0;0.0;0.0;0.0
1.0;1753874611.808488;19.652178;1.06;-1.59;0.08;0.042471;-1.017628;-0.022181;0.0;0.0;0.0;0.0;0.0;0.0
1.0;1753874611.813089;19.642988;1.13;-1.72;0.08;0.044735;-1.01816;-0.02421;0.0;0.0;0.0;0.0;0.0;0.0
1.0;1753874611.81769;19.642813;1.18;-1.78;0.06;0.042517;-1.016446;-0.02261;0.0;0.0;0.0;0.0;0.0;0.0
1.0;1753874611.822291;19.652177;1.1;-1.76;0.1;0.042635;-1.01638;-0.021758;0.0;0.0;0.0;0.0;0.0;0.0
1.0;1753874611.826892;19.648079;1.17;-1.66;0.11;0.043068;-1.017937;-0.021696;0.0;0.0;0.0;0.0;0.0;0.0
1.0;1753874611.831493;19.617478;1.02;-1.68;0.05;0.044544;-1.016848;-0.020596;0.0;0.0;0.0;0.0;0.0;0.0
