sep=,
PacketCounter,SampleTimeFine,Euler_X,Euler_Y,Euler_Z,Acc_X,Acc_Y,Acc_Z,Gyr_X,Gyr_Y,Gyr_Z,Mag_X,Mag_Y,Mag_Z,Status,
0, 2274137004, -92.61688232421875, -50.32673263549805, 55.823001861572266, 0, 0, 0, 0, 0, 0, -0.99267578125, 0.25537109375, -0.8544921875, 0, 
1, 2274137004, -92.61576080322266, -50.325626373291016, 55.8213005065918, NaN, NaN, NaN, Infinity, -Infinity, Infinity, -0.9921875, 0.2548828125, -0.8515625, 0, 
2, 2274145337, -92.61367797851562, -50.32650375366211, 55.82014846801758, 7.521977424621582, -6.614850044250488, -0.3709027171134949, 1.7461864948272705, -1.0741841793060303, -0.13411614298820496, -0.99267578125, 0.25439453125, -0.85205078125, 0, 
3, 2274153670, -92.61128997802734, -50.32927703857422, 55.816505432128906, 7.339885234832764, -5.952966690063477, -0.21525700390338898, 1.7221858501434326, -1.013913869857788, -0.35542312264442444, -0.99365234375, 0.25341796875, -0.85791015625, 0, 
4, 2274162003, -92.6129150390625, -50.32939529418945, 55.818145751953125, 7.416090965270996, -5.760120868682861, -0.1717214733362198, 1.55812668800354, -1.2916489839553833, -0.05402041971683502, -0.99267578125, 0.25537109375, -0.8515625, 0, 
5, 2274170336, -92.61488342285156, -50.32734680175781, 55.816871643066406, 7.783323764801025, -6.121635437011719, -0.29549962282180786, 1.3448370695114136, -1.152051568031311, 0.21658118069171906, -0.99462890625, 0.25732421875, -0.85693359375, 0, 
6, 2274178669, -92.61700439453125, -50.32406234741211, 55.81690216064453, 7.875436782836914, -6.7204508781433105, -0.3650878071784973, 1.4182217121124268, -1.2337608337402344, 0.3616601824760437, -0.9931640625, 0.25439453125, -0.853515625, 0, 
7, 2274187002, -92.61363983154297, -50.32426452636719, 55.81394958496094, 7.6052422523498535, -6.8407883644104, -0.4493396282196045, 1.7334562540054321, -0.9405034780502319, -0.04595194384455681, -0.9921875, 0.255859375, -0.85205078125, 0, 
8, 2274195335, -92.61162567138672, -50.32715606689453, 55.81370544433594, 7.395711421966553, -6.261250019073486, -0.1928435117006302, 1.821082592010498, -1.1320979595184326, -0.3804226219654083, -0.9931640625, 0.25537109375, -0.85107421875, 0, 
9, 2274203668, -92.61172485351562, -50.329341888427734, 55.816444396972656, 7.413321018218994, -5.7175493240356445, -0.19022245705127716, 1.6373515129089355, -1.1839412450790405, -0.2930012345314026, -0.99462890625, 0.25537109375, -0.85205078125, 0, 
10, 2274212001, -92.61265563964844, -50.328468322753906, 55.81795883178711, 7.63080358505249, -5.857854843139648, -0.2312844842672348, 1.631408929824829, -1.2882423400878906, 0.06576455384492874, -0.9921875, 0.25537109375, -0.8544921875, 0, 
11, 2274220334, -92.61351013183594, -50.3255500793457, 55.81703186035156, 7.813709735870361, -6.48451566696167, -0.39007067680358887, 1.5670148134231567, -1.2248214483261108, 0.3179366886615753, -0.99267578125, 0.255859375, -0.8525390625, 0, 
12, 2274228667, -92.61219024658203, -50.32545852661133, 55.81258773803711, 7.796692848205566, -6.780285358428955, -0.40100595355033875, 1.5179893970489502, -0.9618657827377319, -0.008631997741758823, -0.9921875, 0.25634765625, -0.85546875, 0, 
13, 2274237000, -92.61073303222656, -50.32855224609375, 55.8126106262207, 7.4056267738342285, -6.544821262359619, -0.3025476038455963, 1.7797410488128662, -1.1507962942123413, -0.40429505705833435, -0.994140625, 0.25439453125, -0.8603515625, 0, 
14, 2274245333, -92.61066436767578, -50.33110046386719, 55.81368637084961, 7.406708717346191, -5.924150466918945, -0.19104380905628204, 1.710941195487976, -1.2368601560592651, -0.34402480721473694, -0.99365234375, 0.25390625, -0.8525390625, 0, 
15, 2274253666, -92.61388397216797, -50.330230712890625, 55.81425476074219, 7.5882062911987305, -5.774141311645508, -0.17613375186920166, 1.421372413635254, -1.3281750679016113, 0.06494489312171936, -0.99462890625, 0.255859375, -0.853515625, 0, 
16, 2274261999, -92.61416625976562, -50.327144622802734, 55.813289642333984, 7.750477313995361, -6.294619560241699, -0.3992686867713928, 1.4794142246246338, -1.110505223274231, 0.34132251143455505, -0.9931640625, 0.2548828125, -0.85693359375, 0, 
17, 2274270332, -92.6150131225586, -50.325401306152344, 55.81428909301758, 7.813737392425537, -6.742154121398926, -0.3789113461971283, 1.5306681394577026, -1.1896531581878662, 0.17792925238609314, -0.9912109375, 0.2548828125, -0.85400390625, 0, 
18, 2274278665, -92.61166381835938, -50.326080322265625, 55.812007904052734, 7.576672077178955, -6.672374725341797, -0.4002910554409027, 1.766088843345642, -0.9549499750137329, -0.10092009603977203, -0.99560546875, 0.25390625, -0.8564453125, 0, 
19, 2274286998, -92.61123657226562, -50.330047607421875, 55.81276321411133, 7.3394036293029785, -6.118873596191406, -0.16452981531620026, 1.723389744758606, -1.2032287120819092, -0.5128993988037109, -0.9931640625, 0.2548828125, -0.859375, 0, 
20, 2274295331, -92.61477661132812, -50.331390380859375, 55.81694793701172, 7.445834159851074, -5.801738739013672, -0.17592953145503998, 1.5641461610794067, -1.4792733192443848, -0.20768022537231445, -0.99365234375, 0.2548828125, -0.85693359375, 0, 
21, 2274303664, -92.6167221069336, -50.328712463378906, 55.822357177734375, 7.794220924377441, -6.032637596130371, -0.2391871213912964, 1.5159144401550293, -1.3053780794143677, 0.2846637964248657, -0.9931640625, 0.255859375, -0.8564453125, 0, 
22, 2274311997, -92.61676025390625, -50.32588577270508, 55.82161331176758, 7.8171820640563965, -6.641332149505615, -0.38898494839668274, 1.5306426286697388, -1.1255918741226196, 0.30781903862953186, -0.99365234375, 0.25390625, -0.849609375, 0, 
23, 2274320330, -92.61377716064453, -50.32601547241211, 55.81864547729492, 7.682994842529297, -6.804370880126953, -0.43369606137275696, 1.7197011709213257, -0.9569478034973145, -0.03673080727458, -0.99365234375, 0.2568359375, -0.8525390625, 0, 
24, 2274328663, -92.61248779296875, -50.328304290771484, 55.81931686401367, 7.388797760009766, -6.344132423400879, -0.2695600390434265, 1.805201530456543, -1.1868098974227905, -0.3062181770801544, -0.99267578125, 0.25537109375, -0.8525390625, 0, 
25, 2274336996, -92.6135025024414, -50.33102798461914, 55.820159912109375, 7.3176140785217285, -5.844851970672607, -0.24515703320503235, 1.5586389303207397, -1.216676115989685, -0.3612375259399414, -0.994140625, 0.25244140625, -0.85205078125, 0, 
26, 2274345329, -92.61683654785156, -50.33063888549805, 55.82331466674805, 7.600197792053223, -5.8530073165893555, -0.23661501705646515, 1.4944241046905518, -1.4114468097686768, 0.0024973880499601364, -0.994140625, 0.25634765625, -0.8525390625, 0, 
27, 2274353662, -92.6189193725586, -50.32807159423828, 55.82680892944336, 7.886395454406738, -6.416070461273193, -0.3406723439693451, 1.4127658605575562, -1.2166247367858887, 0.2751352787017822, -0.99365234375, 0.25634765625, -0.8583984375, 0, 
28, 2274361995, -92.61587524414062, -50.3262939453125, 55.823974609375, 7.803985118865967, -6.85775899887085, -0.3563091456890106, 1.7038718461990356, -0.9590738415718079, 0.18925078213214874, -0.99365234375, 0.255859375, -0.8564453125, 0, 
29, 2274370328, -92.61467742919922, -50.32884216308594, 55.82488250732422, 7.48939847946167, -6.629199028015137, -0.36783501505851746, 1.7521802186965942, -1.151641607284546, -0.3366479277610779, -0.99267578125, 0.25439453125, -0.8583984375, 0, 
30, 2274378661, -92.61416625976562, -50.331905364990234, 55.82590866088867, 7.448694705963135, -5.856761455535889, -0.18656504154205322, 1.7276161909103394, -1.2038434743881226, -0.39942842721939087, -0.99072265625, 0.25390625, -0.8544921875, 0, 
31, 2274386994, -92.61578369140625, -50.33195877075195, 55.82841110229492, 7.452507019042969, -5.703835964202881, -0.17761020362377167, 1.641859531402588, -1.3600646257400513, -0.04789861664175987, -0.9951171875, 0.25537109375, -0.8505859375, 0, 
32, 2274395327, -92.61661529541016, -50.32975387573242, 55.82747268676758, 7.664779186248779, -6.2170515060424805, -0.3901823163032532, 1.415711522102356, -1.1052541732788086, 0.23412691056728363, -0.994140625, 0.2578125, -0.8525390625, 0, 
33, 2274403660, -92.61807250976562, -50.327728271484375, 55.82945251464844, 7.926403522491455, -6.698378086090088, -0.37487462162971497, 1.4306191205978394, -1.1723378896713257, 0.21291831135749817, -0.99560546875, 0.2568359375, -0.85791015625, 0, 
34, 2274411993, -92.61565399169922, -50.32843780517578, 55.826168060302734, 7.619227886199951, -6.800113677978516, -0.4348040521144867, 1.5902981758117676, -0.913557231426239, -0.10719557106494904, -0.9912109375, 0.25439453125, -0.85498046875, 0, 
35, 2274420326, -92.61476135253906, -50.3322639465332, 55.826690673828125, 7.320274353027344, -6.320284843444824, -0.20919418334960938, 1.7094299793243408, -1.1391161680221558, -0.4890013039112091, -0.994140625, 0.255859375, -0.85888671875, 0, 
36, 2274428659, -92.61630249023438, -50.33405685424805, 55.827117919921875, 7.4583821296691895, -5.780564308166504, -0.14917786419391632, 1.5972139835357666, -1.295593500137329, -0.25160861015319824, -0.99365234375, 0.25537109375, -0.85693359375, 0, 
37, 2274436992, -92.61822509765625, -50.33272933959961, 55.82827377319336, 7.718899726867676, -5.891438007354736, -0.25526055693626404, 1.478492021560669, -1.2621413469314575, 0.12165480852127075, -0.99755859375, 0.255859375, -0.8623046875, 0, 
38, 2274445325, -92.61958312988281, -50.329917907714844, 55.82801055908203, 7.769080638885498, -6.532785415649414, -0.42368748784065247, 1.4158908128738403, -1.1628094911575317, 0.30402815341949463, -0.994140625, 0.25634765625, -0.85693359375, 0, 
39, 2274453658, -92.62016296386719, -50.329586029052734, 55.82541275024414, 7.719052791595459, -6.771515369415283, -0.3531595468521118, 1.4743168354034424, -1.1108124256134033, 0.014792220667004585, -0.99365234375, 0.25537109375, -0.85986328125, 0, 
40, 2274461991, -92.62092590332031, -50.33187484741211, 55.826995849609375, 7.433803081512451, -6.432965278625488, -0.27063268423080444, 1.6599433422088623, -1.275281548500061, -0.31513193249702454, -0.994140625, 0.2568359375, -0.86181640625, 0, 
41, 2274470324, -92.6203842163086, -50.33451843261719, 55.825618743896484, 7.366865634918213, -5.902602672576904, -0.25623229146003723, 1.6848658323287964, -1.1606577634811401, -0.34673988819122314, -0.9951171875, 0.25537109375, -0.859375, 0, 
42, 2274478657, -92.62345886230469, -50.333309173583984, 55.828643798828125, 7.6016011238098145, -5.863717555999756, -0.14455319941043854, 1.4792605638504028, -1.3670574426651, 0.10631188750267029, -0.99609375, 0.25439453125, -0.8642578125, 0, 
43, 2274486990, -92.62462615966797, -50.33056640625, 55.82866287231445, 7.828751564025879, -6.390038013458252, -0.3441048264503479, 1.4641993045806885, -1.182481050491333, 0.2939617931842804, -0.99462890625, 0.25634765625, -0.857421875, 0, 
44, 2274495323, -92.62466430664062, -50.32919692993164, 55.827762603759766, 7.804247856140137, -6.794295310974121, -0.3889217674732208, 1.5163497924804688, -1.1065349578857422, 0.13359102606773376, -0.994140625, 0.25439453125, -0.8583984375, 0, 
45, 2274503656, -92.6226577758789, -50.33119201660156, 55.827449798583984, 7.554083347320557, -6.63681173324585, -0.4349833130836487, 1.760888695716858, -1.0738767385482788, -0.26649048924446106, -0.99462890625, 0.255859375, -0.85693359375, 0, 
46, 2274511989, -92.62083435058594, -50.33488082885742, 55.826751708984375, 7.344639301300049, -6.020648956298828, -0.22894585132598877, 1.7573543787002563, -1.094317078590393, -0.47306931018829346, -0.99609375, 0.25634765625, -0.85986328125, 0, 
47, 2274520322, -92.62275695800781, -50.33523178100586, 55.829837799072266, 7.408247947692871, -5.748819351196289, -0.17240889370441437, 1.697724461555481, -1.4283009767532349, -0.08457820862531662, -0.99560546875, 0.25439453125, -0.85546875, 0, 
48, 2274528655, -92.62422943115234, -50.33389663696289, 55.82999038696289, 7.780331611633301, -6.113687515258789, -0.28323599696159363, 1.3851794004440308, -1.1368621587753296, 0.13325804471969604, -0.99462890625, 0.25537109375, -0.85888671875, 0, 
49, 2274536988, -92.62433624267578, -50.33073043823242, 55.830074310302734, 7.886325836181641, -6.730434894561768, -0.3729036748409271, 1.5981616973876953, -1.1885772943496704, 0.3442937135696411, -0.99560546875, 0.2568359375, -0.85498046875, 0, 
50, 2274545321, -92.62093353271484, -50.33177947998047, 55.82658004760742, 7.63242244720459, -6.845475673675537, -0.457659512758255, 1.6890922784805298, -0.8926304578781128, -0.14707693457603455, -0.9951171875, 0.25390625, -0.8603515625, 0, 
51, 2274553654, -92.6197738647461, -50.33500671386719, 55.82805633544922, 7.418327331542969, -6.268371105194092, -0.18487469851970673, 1.8181880712509155, -1.203689694404602, -0.4192025363445282, -0.9931640625, 0.25634765625, -0.853515625, 0, 
52, 2274561987, -92.61901092529297, -50.33707046508789, 55.828216552734375, 7.44256067276001, -5.724824905395508, -0.22333084046840668, 1.7109155654907227, -1.168931245803833, -0.28196150064468384, -0.99365234375, 0.2568359375, -0.8603515625, 0, 
53, 2274570320, -92.62088775634766, -50.33551025390625, 55.830238342285156, 7.573012828826904, -5.885890960693359, -0.29114070534706116, 1.481770634651184, -1.24544095993042, 0.1542617231607437, -0.99609375, 0.2568359375, -0.85888671875, 0, 
54, 2274578653, -92.62244415283203, -50.331817626953125, 55.832130432128906, 7.827240467071533, -6.492988109588623, -0.3679666221141815, 1.514249563217163, -1.2597849369049072, 0.40953320264816284, -0.9951171875, 0.25537109375, -0.85791015625, 0, 
55, 2274586986, -92.6207275390625, -50.33106231689453, 55.829036712646484, 7.851105690002441, -6.793117523193359, -0.4480619430541992, 1.5234192609786987, -0.9347658157348633, 0.06712209433317184, -0.99658203125, 0.25537109375, -0.85546875, 0, 
56, 2274595319, -92.61862182617188, -50.3340950012207, 55.82767105102539, 7.442618370056152, -6.605322360992432, -0.3698081374168396, 1.7303310632705688, -1.0465463399887085, -0.39376765489578247, -0.9951171875, 0.25537109375, -0.85498046875, 0, 
57, 2274603652, -92.61856079101562, -50.337135314941406, 55.827392578125, 7.357865810394287, -5.946364402770996, -0.1569342017173767, 1.6774121522903442, -1.1997706890106201, -0.39453601837158203, -0.9951171875, 0.25341796875, -0.85546875, 0, 
58, 2274611985, -92.62407684326172, -50.33674240112305, 55.83259582519531, 7.571767330169678, -5.737898349761963, -0.1426088660955429, 1.4221919775009155, -1.566515326499939, -0.004175120033323765, -0.9951171875, 0.255859375, -0.8564453125, 0, 
59, 2274620318, -92.62570190429688, -50.334022521972656, 55.83419418334961, 7.759333610534668, -6.244438648223877, -0.3799521028995514, 1.391454815864563, -1.1656781435012817, 0.2964463233947754, -0.9951171875, 0.25732421875, -0.85693359375, 0, 
60, 2274628651, -92.62491607666016, -50.33088684082031, 55.8337287902832, 7.7906389236450195, -6.747335433959961, -0.3774954676628113, 1.6161174774169922, -1.1112223863601685, 0.350492388010025, -0.99560546875, 0.25439453125, -0.85498046875, 0, 
61, 2274636984, -92.62271881103516, -50.332069396972656, 55.831504821777344, 7.602670192718506, -6.690705299377441, -0.4156826436519623, 1.6597639322280884, -0.9886837601661682, -0.16802938282489777, -0.99609375, 0.255859375, -0.861328125, 0, 
62, 2274645317, -92.62132263183594, -50.33566665649414, 55.830997467041016, 7.361071586608887, -6.127580642700195, -0.1767452210187912, 1.7261816263198853, -1.109326958656311, -0.4647703170776367, -0.9951171875, 0.25439453125, -0.8603515625, 0, 
63, 2274653650, -92.62297821044922, -50.33572006225586, 55.83168411254883, 7.449242115020752, -5.811362266540527, -0.1895735263824463, 1.6526943445205688, -1.3673902750015259, -0.04331366717815399, -0.9951171875, 0.2529296875, -0.8583984375, 0, 
64, 2274661983, -92.6257095336914, -50.333675384521484, 55.833980560302734, 7.7822771072387695, -6.053499221801758, -0.2673889398574829, 1.4884048700332642, -1.3518425226211548, 0.20236527919769287, -0.99658203125, 0.2568359375, -0.853515625, 0, 
65, 2274670316, -92.62559509277344, -50.32982635498047, 55.833553314208984, 7.862687587738037, -6.645140647888184, -0.3428836762905121, 1.6058971881866455, -1.1625277996063232, 0.4317663311958313, -0.99560546875, 0.25390625, -0.86083984375, 0, 
66, 2274678649, -92.62394714355469, -50.33047103881836, 55.83196258544922, 7.681939125061035, -6.813012599945068, -0.45780640840530396, 1.6350975036621094, -1.0218030214309692, -0.09723163396120071, -0.99462890625, 0.2548828125, -0.85791015625, 0, 
67, 2274686982, -92.62068939208984, -50.33287811279297, 55.831825256347656, 7.464634895324707, -6.304617404937744, -0.23935234546661377, 1.9830156564712524, -1.1441622972488403, -0.32373833656311035, -0.9951171875, 0.25634765625, -0.85302734375, 0, 
68, 2274695315, -92.61990356445312, -50.334861755371094, 55.832763671875, 7.3679890632629395, -5.750417709350586, -0.20972700417041779, 1.7508227825164795, -1.1914204359054565, -0.2703326344490051, -0.99365234375, 0.255859375, -0.859375, 0, 
69, 2274703648, -92.62322235107422, -50.333675384521484, 55.83512878417969, 7.585471153259277, -5.8793745040893555, -0.1944006383419037, 1.4236007928848267, -1.3533536195755005, 0.10036937892436981, -0.9951171875, 0.25732421875, -0.85546875, 0, 
70, 2274711981, -92.62386322021484, -50.32905578613281, 55.83541488647461, 7.834936141967773, -6.4836578369140625, -0.41204211115837097, 1.5525940656661987, -1.2141402959823608, 0.5183424353599548, -0.99609375, 0.2548828125, -0.85400390625, 0, 
71, 2274720314, -92.621337890625, -50.32783889770508, 55.83308792114258, 7.845525741577148, -6.821103572845459, -0.398473858833313, 1.6386579275131226, -0.9415025115013123, 0.12659835815429688, -0.99658203125, 0.25439453125, -0.85595703125, 0, 
72, 2274728647, -92.62077331542969, -50.32960510253906, 55.83374786376953, 7.4362077713012695, -6.65428352355957, -0.33824312686920166, 1.729870080947876, -1.208223581314087, -0.2470492720603943, -0.99365234375, 0.255859375, -0.85888671875, 0, 
73, 2274736980, -92.61772918701172, -50.332557678222656, 55.83246612548828, 7.353862762451172, -5.975885391235352, -0.20179253816604614, 1.8178038597106934, -1.0148359537124634, -0.3794492483139038, -0.9951171875, 0.2548828125, -0.85400390625, 0, 
74, 2274745313, -92.62015533447266, -50.33258819580078, 55.83628463745117, 7.508036136627197, -5.704514503479004, -0.20615710318088531, 1.572419285774231, -1.3742293119430542, -0.04323682188987732, -0.9970703125, 0.25537109375, -0.85986328125, 0, 
75, 2274753646, -92.62071990966797, -50.329612731933594, 55.83497619628906, 7.763570308685303, -6.156106472015381, -0.3283062279224396, 1.4133038520812988, -1.0816634893417358, 0.3280543088912964, -0.99560546875, 0.25439453125, -0.86181640625, 0, 
76, 2274761979, -92.62055969238281, -50.32614517211914, 55.83414840698242, 7.819128513336182, -6.681601047515869, -0.38042283058166504, 1.5459085702896118, -1.1244392395019531, 0.38535335659980774, -0.99609375, 0.255859375, -0.85498046875, 0, 
77, 2274770312, -92.61677551269531, -50.32703399658203, 55.83299255371094, 7.607313632965088, -6.781109809875488, -0.43041089177131653, 1.6990563869476318, -0.864813506603241, -0.12146272510290146, -0.99267578125, 0.25732421875, -0.8623046875, 0, 
78, 2274778645, -92.61566925048828, -50.33051681518555, 55.8327751159668, 7.372845649719238, -6.226223945617676, -0.19994179904460907, 1.7158335447311401, -1.1320723295211792, -0.4509385824203491, -0.99462890625, 0.25537109375, -0.85498046875, 0, 
79, 2274786978, -92.6174545288086, -50.33225631713867, 55.83945083618164, 7.443464756011963, -5.765039920806885, -0.1348579078912735, 1.6016708612442017, -1.3198758363723755, -0.24589665234088898, -0.9951171875, 0.25390625, -0.8583984375, 0, 
80, 2274795311, -92.6190185546875, -50.33008575439453, 55.83852767944336, 7.674891471862793, -5.960501670837402, -0.2606091797351837, 1.385230541229248, -1.1456477642059326, 0.23161670565605164, -0.994140625, 0.25537109375, -0.8525390625, 0, 
81, 2274803644, -92.62017059326172, -50.32665252685547, 55.837791442871094, 7.801295280456543, -6.617552280426025, -0.39705222845077515, 1.3957839012145996, -1.1290498971939087, 0.3805891275405884, -0.994140625, 0.255859375, -0.8564453125, 0, 
82, 2274811977, -92.6159439086914, -50.32636260986328, 55.83330154418945, 7.774716377258301, -6.8132734298706055, -0.41879886388778687, 1.6970070600509644, -0.8239330649375916, 0.016892587766051292, -0.994140625, 0.25341796875, -0.85009765625, 0, 
83, 2274820310, -92.614990234375, -50.32887649536133, 55.833351135253906, 7.415337562561035, -6.41953182220459, -0.2561379373073578, 1.7188559770584106, -1.141242265701294, -0.3296295702457428, -0.994140625, 0.2568359375, -0.85693359375, 0, 
84, 2274828643, -92.61486053466797, -50.332847595214844, 55.83407974243164, 7.315428256988525, -5.8738112449646, -0.17516562342643738, 1.6854294538497925, -1.2011793851852417, -0.5119773149490356, -0.994140625, 0.25390625, -0.8515625, 0, 
85, 2274836976, -92.61715698242188, -50.332374572753906, 55.8387451171875, 7.594605445861816, -5.792082786560059, -0.15050838887691498, 1.6164504289627075, -1.4100123643875122, 0.014664149843156338, -0.99267578125, 0.25341796875, -0.85009765625, 0, 
86, 2274845309, -92.61811065673828, -50.33002853393555, 55.83395004272461, 7.874536037445068, -6.341958522796631, -0.3417539894580841, 1.4079760313034058, -1.1103770732879639, 0.25643688440322876, -0.99169921875, 0.25537109375, -0.85888671875, 0, 
87, 2274853642, -92.61810302734375, -50.32844924926758, 55.83384704589844, 7.810164928436279, -6.828152179718018, -0.3431588411331177, 1.5944733619689941, -1.1670869588851929, 0.15600349009037018, -0.99267578125, 0.2568359375, -0.84912109375, 0, 
88, 2274861975, -92.61619567871094, -50.33005905151367, 55.832611083984375, 7.52894926071167, -6.684900283813477, -0.3639848530292511, 1.7190865278244019, -1.0635285377502441, -0.22358664870262146, -0.994140625, 0.2548828125, -0.85546875, 0, 
89, 2274870308, -92.61442565917969, -50.33381271362305, 55.834022521972656, 7.385936260223389, -6.002171516418457, -0.17624689638614655, 1.792548418045044, -1.1243880987167358, -0.4782433807849884, -0.99560546875, 0.25439453125, -0.8515625, 0, 
90, 2274878641, -92.61723327636719, -50.334285736083984, 55.83659744262695, 7.423116683959961, -5.729753017425537, -0.18244537711143494, 1.5039269924163818, -1.3615758419036865, -0.09961375594139099, -0.99365234375, 0.25537109375, -0.85302734375, 0, 
91, 2274886974, -92.61957550048828, -50.33193588256836, 55.83695602416992, 7.694466590881348, -6.114903450012207, -0.3273654878139496, 1.439993977546692, -1.273667812347412, 0.24857337772846222, -0.99462890625, 0.255859375, -0.85400390625, 0, 
92, 2274895307, -92.62014770507812, -50.32876968383789, 55.838592529296875, 7.8897929191589355, -6.7169599533081055, -0.31313231587409973, 1.5528758764266968, -1.2016918659210205, 0.3483920395374298, -0.994140625, 0.25537109375, -0.85595703125, 0, 
93, 2274903640, -92.61724090576172, -50.328399658203125, 55.83465576171875, 7.660209655761719, -6.849447250366211, -0.45774778723716736, 1.5873267650604248, -0.8687835931777954, 0.023885274305939674, -0.99267578125, 0.25439453125, -0.85009765625, 0, 
94, 2274911973, -92.61570739746094, -50.33183670043945, 55.83513641357422, 7.4166154861450195, -6.318981647491455, -0.2171584516763687, 1.8313792943954468, -1.1842997074127197, -0.4468403160572052, -0.99365234375, 0.25439453125, -0.8583984375, 0, 
95, 2274920306, -92.6161880493164, -50.33403015136719, 55.83842086791992, 7.4365553855896, -5.734603404998779, -0.18928369879722595, 1.7095324993133545, -1.2823255062103271, -0.29978904128074646, -0.9921875, 0.25537109375, -0.857421875, 0, 
96, 2274928639, -92.61923217773438, -50.33265686035156, 55.84107208251953, 7.634317398071289, -5.841177940368652, -0.24676670134067535, 1.4813350439071655, -1.3788141012191772, 0.12314042448997498, -0.9931640625, 0.25537109375, -0.8525390625, 0, 
97, 2274936972, -92.62077331542969, -50.32837677001953, 55.83964538574219, 7.753207683563232, -6.48847770690918, -0.4225514233112335, 1.4764940738677979, -1.2234126329421997, 0.480049192905426, -0.99462890625, 0.25439453125, -0.85791015625, 0, 
98, 2274945305, -92.62030029296875, -50.32722091674805, 55.8394889831543, 7.815499305725098, -6.788735866546631, -0.37715911865234375, 1.5684494972229004, -1.0961613655090332, 0.11479020118713379, -0.99365234375, 0.2548828125, -0.8564453125, 0, 
99, 2274953638, -92.61829376220703, -50.32835006713867, 55.83942413330078, 7.427811622619629, -6.572469711303711, -0.33867737650871277, 1.8389099836349487, -1.154894471168518, -0.170974999666214, -0.9921875, 0.2548828125, -0.85693359375, 0, 
100, 2274961971, -92.61859893798828, -50.33061218261719, 55.84038543701172, 7.374298572540283, -5.996572494506836, -0.18665815889835358, 1.6545642614364624, -1.2287403345108032, -0.30877959728240967, -0.99365234375, 0.25537109375, -0.8544921875, 0, 
101, 2274970304, -92.62152862548828, -50.330806732177734, 55.84217071533203, 7.622899055480957, -5.7884087562561035, -0.20376232266426086, 1.4726263284683228, -1.3452339172363281, -0.058963969349861145, -0.99365234375, 0.25439453125, -0.85107421875, 0, 
102, 2274978637, -92.62159729003906, -50.328365325927734, 55.84049606323242, 7.822854995727539, -6.265846252441406, -0.3374003767967224, 1.4408135414123535, -1.0531549453735352, 0.26304540038108826, -0.9921875, 0.2548828125, -0.85888671875, 0, 
103, 2274986970, -92.6224365234375, -50.326210021972656, 55.84101486206055, 7.744872093200684, -6.7671332359313965, -0.39131999015808105, 1.5196541547775269, -1.186118245124817, 0.2287479192018509, -0.99609375, 0.2548828125, -0.85009765625, 0, 
104, 2274995303, -92.62032318115234, -50.3275032043457, 55.83858871459961, 7.57623291015625, -6.657436847686768, -0.41931188106536865, 1.6544106006622314, -0.9859174489974976, -0.17801891267299652, -0.99462890625, 0.25537109375, -0.85595703125, 0, 
105, 2275003636, -92.61974334716797, -50.33060836791992, 55.838134765625, 7.393176555633545, -6.043059825897217, -0.23254019021987915, 1.6300770044326782, -1.113629937171936, -0.4035010039806366, -0.99365234375, 0.25439453125, -0.85302734375, 0, 
106, 2275011969, -92.62349700927734, -50.33091354370117, 55.841983795166016, 7.403363227844238, -5.832396030426025, -0.18759748339653015, 1.5090241432189941, -1.4591405391693115, -0.08450136333703995, -0.9921875, 0.25634765625, -0.849609375, 0, 
107, 2275020302, -92.625, -50.328575134277344, 55.84381103515625, 7.757240295410156, -6.138796806335449, -0.29574719071388245, 1.4886609315872192, -1.236322283744812, 0.2493673861026764, -0.9912109375, 0.25830078125, -0.85400390625, 0, 
108, 2275028635, -92.62630462646484, -50.32587432861328, 55.84425354003906, 7.902617454528809, -6.668682098388672, -0.37020403146743774, 1.487713098526001, -1.2154465913772583, 0.28970980644226074, -0.99169921875, 0.255859375, -0.85107421875, 0, 
109, 2275036968, -92.62300109863281, -50.326324462890625, 55.844547271728516, 7.6537370681762695, -6.778619289398193, -0.4634045660495758, 1.6722636222839355, -0.8848693370819092, -0.07082335650920868, -0.9931640625, 0.25439453125, -0.859375, 0, 
110, 2275045301, -92.6217269897461, -50.32871627807617, 55.84436798095703, 7.392950534820557, -6.309584140777588, -0.24424532055854797, 1.8287410736083984, -1.2183667421340942, -0.3213818073272705, -0.9921875, 0.25341796875, -0.8583984375, 0, 
111, 2275053634, -92.6205062866211, -50.33062744140625, 55.842376708984375, 7.391011714935303, -5.786721229553223, -0.17197205126285553, 1.5647095441818237, -1.0044878721237183, -0.2535809278488159, -0.9921875, 0.25390625, -0.85693359375, 0, 
112, 2275061967, -92.62210845947266, -50.328975677490234, 55.84340286254883, 7.596922397613525, -5.887307643890381, -0.20686639845371246, 1.5062322616577148, -1.2548414468765259, 0.1582319289445877, -0.994140625, 0.255859375, -0.85546875, 0, 
113, 2275070300, -92.62346649169922, -50.324974060058594, 55.84337615966797, 7.797590255737305, -6.472405433654785, -0.3939318060874939, 1.4996237754821777, -1.2136536836624146, 0.44854363799095154, -0.99560546875, 0.2548828125, -0.85302734375, 0, 
114, 2275078633, -92.62191772460938, -50.32352828979492, 55.841209411621094, 7.798288822174072, -6.763402462005615, -0.3492582440376282, 1.5898114442825317, -1.0103280544281006, 0.14803746342658997, -0.99267578125, 0.255859375, -0.8583984375, 0, 
115, 2275086966, -92.61979675292969, -50.32551574707031, 55.83992004394531, 7.464188575744629, -6.5858612060546875, -0.32330647110939026, 1.8025633096694946, -1.1086864471435547, -0.2653891146183014, -0.99169921875, 0.255859375, -0.85009765625, 0, 
116, 2275095299, -92.61946105957031, -50.327354431152344, 55.84164810180664, 7.3777899742126465, -5.954442977905273, -0.20150335133075714, 1.7502590417861938, -1.2371931076049805, -0.25496408343315125, -0.99365234375, 0.25341796875, -0.857421875, 0, 
117, 2275103632, -92.62017059326172, -50.327423095703125, 55.842506408691406, 7.571689605712891, -5.7477030754089355, -0.17035417258739471, 1.5959588289260864, -1.2329667806625366, -0.044312622398138046, -0.99365234375, 0.25439453125, -0.8564453125, 0, 
118, 2275111965, -92.61991119384766, -50.32437515258789, 55.84204864501953, 7.693131446838379, -6.249958038330078, -0.3710470497608185, 1.592885136604309, -1.150463342666626, 0.33374062180519104, -0.994140625, 0.25341796875, -0.8583984375, 0, 
119, 2275120298, -92.61913299560547, -50.3217658996582, 55.841617584228516, 7.754612445831299, -6.672290802001953, -0.349763423204422, 1.6530017852783203, -1.1320723295211792, 0.2815132439136505, -0.994140625, 0.25537109375, -0.85400390625, 0, 
120, 2275128631, -92.61669921875, -50.322265625, 55.838844299316406, 7.586211681365967, -6.628683090209961, -0.46090951561927795, 1.6381970643997192, -0.953182578086853, -0.08339995890855789, -0.9921875, 0.255859375, -0.8525390625, 0, 
121, 2275136964, -92.61558532714844, -50.325904846191406, 55.838279724121094, 7.35299825668335, -6.2074809074401855, -0.16960225999355316, 1.7460072040557861, -1.149285078048706, -0.4647703170776367, -0.9951171875, 0.25732421875, -0.85986328125, 0, 
122, 2275145297, -92.61605072021484, -50.326210021972656, 55.83662796020508, 7.494685649871826, -5.853723526000977, -0.1491071879863739, 1.65410315990448, -1.2407279014587402, -0.07113072276115417, -0.9931640625, 0.25390625, -0.85546875, 0, 
123, 2275153630, -92.61751556396484, -50.324729919433594, 55.83697509765625, 7.778243064880371, -6.025264739990234, -0.28858768939971924, 1.4598191976547241, -1.2022552490234375, 0.14227426052093506, -0.99267578125, 0.2548828125, -0.85986328125, 0, 
124, 2275161963, -92.61812591552734, -50.32124328613281, 55.8371467590332, 7.774286270141602, -6.561010360717773, -0.40536215901374817, 1.5443205833435059, -1.2004623413085938, 0.38471299409866333, -0.9931640625, 0.2548828125, -0.85205078125, 0, 
125, 2275170296, -92.61579895019531, -50.32101821899414, 55.83732986450195, 7.62662935256958, -6.692100524902344, -0.39142540097236633, 1.640809416770935, -0.960405707359314, 0.006621279288083315, -0.9931640625, 0.2548828125, -0.8515625, 0, 
126, 2275178629, -92.6156234741211, -50.323822021484375, 55.83919143676758, 7.394771575927734, -6.306145668029785, -0.226202130317688, 1.7968257665634155, -1.2950299978256226, -0.37834787368774414, -0.99560546875, 0.25439453125, -0.8525390625, 0, 
127, 2275186962, -92.61509704589844, -50.32706069946289, 55.839202880859375, 7.391202449798584, -5.888998985290527, -0.222873717546463, 1.7219809293746948, -1.1868098974227905, -0.4189207851886749, -0.9921875, 0.255859375, -0.85693359375, 0, 
128, 2275195295, -92.61773681640625, -50.326637268066406, 55.8408317565918, 7.650951385498047, -5.9349846839904785, -0.1867053061723709, 1.5780034065246582, -1.3990752696990967, 0.01087324321269989, -0.99267578125, 0.25439453125, -0.85205078125, 0, 
129, 2275203628, -92.61968231201172, -50.32406234741211, 55.842227935791016, 7.840715408325195, -6.481588363647461, -0.28781330585479736, 1.5000591278076172, -1.2897790670394897, 0.2688342034816742, -0.9931640625, 0.25634765625, -0.8505859375, 0, 
130, 2275211961, -92.61813354492188, -50.32318115234375, 55.84016036987305, 7.743583679199219, -6.7851948738098145, -0.44441333413124084, 1.5968554019927979, -1.011915922164917, 0.07872534543275833, -0.9951171875, 0.25341796875, -0.85302734375, 0, 
131, 2275220294, -92.61738586425781, -50.3252067565918, 55.8427619934082, 7.47214412689209, -6.562399864196777, -0.30909407138824463, 1.7614268064498901, -1.208453893661499, -0.2749175727367401, -0.99462890625, 0.2548828125, -0.85888671875, 0, 
132, 2275228627, -92.61563873291016, -50.328556060791016, 55.84272003173828, 7.408858299255371, -5.944873332977295, -0.1365809440612793, 1.8094791173934937, -1.1444439888000488, -0.43508338928222656, -0.99560546875, 0.2568359375, -0.853515625, 0, 
133, 2275236960, -92.6181640625, -50.329227447509766, 55.84541320800781, 7.464141368865967, -5.840248107910156, -0.18258441984653473, 1.580231785774231, -1.3825539350509644, -0.12015637010335922, -0.99560546875, 0.25439453125, -0.86279296875, 0, 
134, 2275245293, -92.61909484863281, -50.3274040222168, 55.8438606262207, 7.769322395324707, -6.231159210205078, -0.35603076219558716, 1.436356544494629, -1.1271287202835083, 0.19445045292377472, -0.9951171875, 0.2568359375, -0.857421875, 0, 
135, 2275253626, -92.61947631835938, -50.32544708251953, 55.843284606933594, 7.9169020652771, -6.691779613494873, -0.37097129225730896, 1.5056174993515015, -1.1338140964508057, 0.20031611621379852, -0.9951171875, 0.25634765625, -0.8564453125, 0, 
136, 2275261959, -92.61518096923828, -50.32609558105469, 55.839019775390625, 7.585912704467773, -6.767047882080078, -0.3855683505535126, 1.7254645824432373, -0.8369196057319641, -0.09592531621456146, -0.99365234375, 0.25634765625, -0.86083984375, 0, 
137, 2275270292, -92.61531066894531, -50.328922271728516, 55.83988952636719, 7.320650100708008, -6.229848384857178, -0.19733788073062897, 1.7641931772232056, -1.2980270385742188, -0.37606820464134216, -0.994140625, 0.25390625, -0.8544921875, 0, 
138, 2275278625, -92.61683654785156, -50.33111572265625, 55.84161376953125, 7.525961875915527, -5.758752822875977, -0.2253292351961136, 1.5798988342285156, -1.2882425785064697, -0.304758220911026, -0.99365234375, 0.25439453125, -0.86376953125, 0, 
139, 2275286958, -92.6175537109375, -50.32893753051758, 55.84075164794922, 7.734218597412109, -5.921899795532227, -0.3059084117412567, 1.5010324716567993, -1.160862684249878, 0.23271812498569489, -0.9951171875, 0.255859375, -0.85546875, 0, 
140, 2275295291, -92.6186294555664, -50.3248291015625, 55.840213775634766, 7.758928298950195, -6.574093341827393, -0.42822057008743286, 1.5029791593551636, -1.2215684652328491, 0.46332305669784546, -0.99658203125, 0.25732421875, -0.85546875, 0, 
141, 2275303624, -92.6170654296875, -50.324920654296875, 55.83872985839844, 7.730294704437256, -6.75785493850708, -0.4159652590751648, 1.6520540714263916, -1.0527451038360596, -0.03860064968466759, -0.99560546875, 0.255859375, -0.8544921875, 0, 
142, 2275311957, -92.61486053466797, -50.32688522338867, 55.83832550048828, 7.469206809997559, -6.414432048797607, -0.2785561680793762, 1.8301498889923096, -1.126821517944336, -0.26718205213546753, -0.99560546875, 0.25634765625, -0.85498046875, 0, 
143, 2275320290, -92.61563110351562, -50.328243255615234, 55.83885955810547, 7.373030185699463, -5.905673503875732, -0.2010885328054428, 1.6459580659866333, -1.2578126192092896, -0.19833101332187653, -0.99609375, 0.2548828125, -0.85888671875, 0, 
144, 2275328623, -92.61809539794922, -50.32743835449219, 55.840919494628906, 7.630710601806641, -5.8686699867248535, -0.1686241179704666, 1.4970623254776, -1.329583764076233, 0.0568251796066761, -0.9951171875, 0.25439453125, -0.85986328125, 0, 
145, 2275336956, -92.61955261230469, -50.32486343383789, 55.84125900268555, 7.843576908111572, -6.375366687774658, -0.40392547845840454, 1.4821805953979492, -1.218418002128601, 0.2762623727321625, -0.99609375, 0.2578125, -0.8603515625, 0, 
146, 2275345289, -92.61861419677734, -50.323631286621094, 55.839691162109375, 7.76353120803833, -6.765298366546631, -0.4363204538822174, 1.5905030965805054, -1.0608134269714355, 0.12106567621231079, -0.9970703125, 0.25537109375, -0.857421875, 0, 
147, 2275353622, -92.61752319335938, -50.3239860534668, 55.83903121948242, 7.468863487243652, -6.601687431335449, -0.3703137934207916, 1.673877239227295, -1.1155253648757935, -0.07458864897489548, -0.9951171875, 0.255859375, -0.85400390625, 0, 
148, 2275361955, -92.6178207397461, -50.327308654785156, 55.839637756347656, 7.3915629386901855, -5.944759368896484, -0.1615464836359024, 1.6241858005523682, -1.1951088905334473, -0.43349531292915344, -0.9951171875, 0.255859375, -0.8623046875, 0, 
149, 2275370288, -92.61981964111328, -50.32810974121094, 55.8421516418457, 7.48705530166626, -5.802254676818848, -0.22353893518447876, 1.5895553827285767, -1.3407256603240967, -0.13380876183509827, -0.9951171875, 0.25439453125, -0.857421875, 0, 
150, 2275378621, -92.62055969238281, -50.32535171508789, 55.84173583984375, 7.799521446228027, -6.198457717895508, -0.3180534243583679, 1.4739071130752563, -1.1496692895889282, 0.29800882935523987, -0.99462890625, 0.2548828125, -0.859375, 0, 
151, 2275386954, -92.62130737304688, -50.3224983215332, 55.84173583984375, 7.8833112716674805, -6.710764408111572, -0.3518757224082947, 1.5327683687210083, -1.1918305158615112, 0.3118148744106293, -0.994140625, 0.25390625, -0.853515625, 0, 
152, 2275395287, -92.61908721923828, -50.32310104370117, 55.83966827392578, 7.597977638244629, -6.739919185638428, -0.4033421576023102, 1.615861177444458, -0.9488281011581421, -0.09154527634382248, -0.99365234375, 0.2548828125, -0.85400390625, 0, 
153, 2275403620, -92.61479949951172, -50.32595443725586, 55.837608337402344, 7.3597493171691895, -6.204082489013672, -0.2217956781387329, 1.9288926124572754, -0.9944983124732971, -0.3688705861568451, -0.9951171875, 0.255859375, -0.853515625, 0, 
154, 2275411953, -92.61644744873047, -50.32748794555664, 55.83916473388672, 7.418271541595459, -5.772684097290039, -0.21563315391540527, 1.549059271812439, -1.2774587869644165, -0.22222912311553955, -0.99365234375, 0.255859375, -0.861328125, 0, 
155, 2275420286, -92.6190414428711, -50.32551956176758, 55.84321212768555, 7.634982109069824, -5.97149658203125, -0.21470335125923157, 1.4257267713546753, -1.2806349992752075, 0.20049543678760529, -0.99462890625, 0.255859375, -0.85693359375, 0, 
156, 2275428619, -92.62138366699219, -50.32236862182617, 55.844207763671875, 7.849104881286621, -6.627928733825684, -0.34889426827430725, 1.4157884120941162, -1.261577844619751, 0.3382231593132019, -0.994140625, 0.25537109375, -0.8525390625, 0, 
157, 2275436952, -92.61775207519531, -50.32183074951172, 55.8412971496582, 7.756968975067139, -6.854491233825684, -0.4041881859302521, 1.7321240901947021, -0.9123277068138123, 0.04798826202750206, -0.9951171875, 0.25537109375, -0.85595703125, 0, 
158, 2275445285, -92.61622619628906, -50.32421875, 55.840797424316406, 7.417062282562256, -6.475189208984375, -0.3473103642463684, 1.7333792448043823, -1.102283000946045, -0.3159515857696533, -0.99560546875, 0.25439453125, -0.85302734375, 0, 
159, 2275453618, -92.6154556274414, -50.32703399658203, 55.84114074707031, 7.401625156402588, -5.843514919281006, -0.18530479073524475, 1.728153944015503, -1.1776399612426758, -0.37312254309654236, -0.994140625, 0.25439453125, -0.85791015625, 0, 
160, 2275461951, -92.61742401123047, -50.32638168334961, 55.84267044067383, 7.561697959899902, -5.777021408081055, -0.15623079240322113, 1.5080766677856445, -1.2861932516098022, 0.04017593339085579, -0.9951171875, 0.255859375, -0.85693359375, 0, 
161, 2275470284, -92.61811828613281, -50.323585510253906, 55.84282684326172, 7.73841667175293, -6.332457542419434, -0.38217970728874207, 1.4800288677215576, -1.142113208770752, 0.30991944670677185, -0.99462890625, 0.25634765625, -0.85986328125, 0, 
162, 2275478617, -92.61872100830078, -50.32284927368164, 55.842674255371094, 7.835884094238281, -6.739414215087891, -0.3724561333656311, 1.5172719955444336, -1.1591465473175049, 0.05603113770484924, -0.99365234375, 0.25634765625, -0.861328125, 0, 
163, 2275486950, -92.6159439086914, -50.32381820678711, 55.83995819091797, 7.55036735534668, -6.650382995605469, -0.4023987650871277, 1.7404489517211914, -0.9861480593681335, -0.14144180715084076, -0.99560546875, 0.25537109375, -0.8564453125, 0, 
164, 2275495283, -92.61356353759766, -50.32716369628906, 55.839229583740234, 7.342496871948242, -6.125393390655518, -0.18171416223049164, 1.8342738151550293, -1.0858131647109985, -0.42816758155822754, -0.99462890625, 0.255859375, -0.8583984375, 0, 
165, 2275503616, -92.61583709716797, -50.32832717895508, 55.84233856201172, 7.508204936981201, -5.77030086517334, -0.18207165598869324, 1.6177053451538086, -1.3978968858718872, -0.18593372404575348, -0.99365234375, 0.2548828125, -0.8603515625, 0, 
166, 2275511949, -92.61634826660156, -50.32699203491211, 55.84175109863281, 7.827868938446045, -6.026454448699951, -0.246618390083313, 1.4862533807754517, -1.1315600872039795, 0.13015873730182648, -0.994140625, 0.255859375, -0.85595703125, 0, 
167, 2275520282, -92.61579132080078, -50.32426452636719, 55.84206771850586, 7.772336483001709, -6.660656452178955, -0.3937353789806366, 1.5756980180740356, -1.0886561870574951, 0.3003396987915039, -0.994140625, 0.255859375, -0.86083984375, 0, 
168, 2275528615, -92.61297607421875, -50.325042724609375, 55.839324951171875, 7.605038166046143, -6.762658596038818, -0.4345189034938812, 1.6889132261276245, -0.9534899592399597, -0.11874759942293167, -0.99658203125, 0.25634765625, -0.85400390625, 0, 
169, 2275536948, -92.61298370361328, -50.32823944091797, 55.839839935302734, 7.457843780517578, -6.194634914398193, -0.19939327239990234, 1.6954957246780396, -1.208786964416504, -0.4140028655529022, -0.99462890625, 0.25390625, -0.86083984375, 0, 
170, 2275545281, -92.61392211914062, -50.330413818359375, 55.84050750732422, 7.425691604614258, -5.828873634338379, -0.18202556669712067, 1.7432407140731812, -1.356555461883545, -0.3004293143749237, -0.994140625, 0.255859375, -0.85595703125, 0, 
171, 2275553614, -92.61592102050781, -50.32939147949219, 55.84219741821289, 7.610013961791992, -6.001370906829834, -0.23154622316360474, 1.52019202709198, -1.3020739555358887, 0.08259309828281403, -0.99462890625, 0.25390625, -0.85400390625, 0, 
172, 2275561947, -92.61840057373047, -50.32573318481445, 55.84418869018555, 7.893157958984375, -6.519321918487549, -0.3261324167251587, 1.4895572662353516, -1.33906090259552, 0.3978530466556549, -0.99462890625, 0.2578125, -0.859375, 0, 
173, 2275570280, -92.61666870117188, -50.3247184753418, 55.841163635253906, 7.80255651473999, -6.762502670288086, -0.41824817657470703, 1.620753288269043, -1.011634111404419, 0.09870444238185883, -0.994140625, 0.25634765625, -0.85595703125, 0, 
174, 2275578613, -92.61611938476562, -50.32730484008789, 55.84186553955078, 7.423537254333496, -6.531833648681641, -0.32348325848579407, 1.7340706586837769, -1.207173228263855, -0.34420403838157654, -0.998046875, 0.255859375, -0.8525390625, 0, 
175, 2275586946, -92.61488342285156, -50.33009719848633, 55.84168243408203, 7.386062145233154, -5.91115140914917, -0.1845465451478958, 1.8096073865890503, -1.1909852027893066, -0.3663604259490967, -0.994140625, 0.25537109375, -0.85546875, 0, 
176, 2275595279, -92.6194839477539, -50.33000946044922, 55.84579849243164, 7.586927890777588, -5.791986465454102, -0.22144664824008942, 1.4339488744735718, -1.4775314331054688, -0.03135182335972786, -0.99169921875, 0.25439453125, -0.85546875, 0, 
177, 2275603612, -92.62141418457031, -50.32734680175781, 55.84508514404297, 7.778481960296631, -6.289109706878662, -0.3907544016838074, 1.3070303201675415, -1.1271030902862549, 0.28522732853889465, -0.99462890625, 0.25439453125, -0.85302734375, 0, 
178, 2275611945, -92.62145233154297, -50.3249626159668, 55.843658447265625, 7.83505916595459, -6.740333080291748, -0.353152871131897, 1.4666582345962524, -1.0698298215866089, 0.25779443979263306, -0.9931640625, 0.25537109375, -0.85205078125, 0, 
179, 2275620278, -92.6189956665039, -50.32575607299805, 55.842994689941406, 7.529962539672852, -6.7498908042907715, -0.3799532353878021, 1.7362736463546753, -1.0278480052947998, -0.12133462727069855, -0.99365234375, 0.25341796875, -0.859375, 0, 
180, 2275628611, -92.61785888671875, -50.32897186279297, 55.843875885009766, 7.334536552429199, -6.138182163238525, -0.16048824787139893, 1.8214921951293945, -1.2163945436477661, -0.42189204692840576, -0.994140625, 0.25439453125, -0.8525390625, 0, 
181, 2275636944, -92.62112426757812, -50.330570220947266, 55.84710693359375, 7.4842848777771, -5.774392127990723, -0.21351978182792664, 1.5528243780136108, -1.442234992980957, -0.23265409469604492, -0.9931640625, 0.2529296875, -0.8525390625, 0, 
182, 2275645277, -92.6232681274414, -50.32819366455078, 55.84601593017578, 7.725447177886963, -6.044389247894287, -0.33720436692237854, 1.4346917867660522, -1.2354001998901367, 0.25121161341667175, -0.9931640625, 0.25390625, -0.85791015625, 0, 
183, 2275653610, -92.62474060058594, -50.325260162353516, 55.845542907714844, 7.795474529266357, -6.608221530914307, -0.391120582818985, 1.3826693296432495, -1.145263671875, 0.32019078731536865, -0.994140625, 0.25390625, -0.85205078125, 0, 
184, 2275661943, -92.62238311767578, -50.32599639892578, 55.84228515625, 7.705577850341797, -6.764267444610596, -0.43466711044311523, 1.584535002708435, -0.9148635864257812, -0.10939839482307434, -0.9931640625, 0.25390625, -0.85546875, 0, 
185, 2275670276, -92.62075805664062, -50.32918930053711, 55.843502044677734, 7.431387424468994, -6.294228553771973, -0.2949584722518921, 1.7878607511520386, -1.137143850326538, -0.4125428795814514, -0.99169921875, 0.255859375, -0.859375, 0, 
186, 2275678609, -92.62162780761719, -50.33065414428711, 55.8452033996582, 7.361901760101318, -5.84517765045166, -0.2328718602657318, 1.6565111875534058, -1.2893182039260864, -0.21613293886184692, -0.9931640625, 0.25634765625, -0.8603515625, 0, 
187, 2275686942, -92.62408447265625, -50.32976531982422, 55.8490104675293, 7.683004856109619, -5.888172149658203, -0.21001386642456055, 1.4827953577041626, -1.3140103816986084, 0.06909440457820892, -0.99169921875, 0.25537109375, -0.859375, 0, 
188, 2275695275, -92.62505340576172, -50.32692337036133, 55.84965133666992, 7.829156398773193, -6.448290824890137, -0.3977898061275482, 1.4506237506866455, -1.1462112665176392, 0.3134285807609558, -0.99365234375, 0.255859375, -0.85595703125, 0, 
189, 2275703608, -92.62368774414062, -50.3258056640625, 55.84856033325195, 7.744826793670654, -6.787531852722168, -0.42343804240226746, 1.6681400537490845, -1.0900393724441528, 0.10487748682498932, -0.9931640625, 0.255859375, -0.8525390625, 0, 
190, 2275711941, -92.62263488769531, -50.3268928527832, 55.8490104675293, 7.451418399810791, -6.552788734436035, -0.371601402759552, 1.7707760334014893, -1.1972094774246216, -0.16772200167179108, -0.9921875, 0.255859375, -0.85595703125, 0, 
191, 2275720274, -92.62263488769531, -50.32933044433594, 55.8504638671875, 7.39684534072876, -5.909878730773926, -0.14292846620082855, 1.6920123100280762, -1.2062512636184692, -0.3259924054145813, -0.9951171875, 0.255859375, -0.8544921875, 0, 
192, 2275728607, -92.6241455078125, -50.32942581176758, 55.85248565673828, 7.517961502075195, -5.795608043670654, -0.21083082258701324, 1.6088942289352417, -1.3219505548477173, -0.05097232386469841, -0.9931640625, 0.25390625, -0.85693359375, 0, 
193, 2275736940, -92.62451934814453, -50.327293395996094, 55.8508415222168, 7.81271505355835, -6.268221378326416, -0.3517761826515198, 1.4956536293029785, -1.1200593709945679, 0.23197531700134277, -0.99365234375, 0.25439453125, -0.8544921875, 0, 
194, 2275745273, -92.62417602539062, -50.3255729675293, 55.8498649597168, 7.848930358886719, -6.72804594039917, -0.35387325286865234, 1.5599966049194336, -1.1079950332641602, 0.17938931286334991, -0.9951171875, 0.25390625, -0.8564453125, 0, 
195, 2275753606, -92.62194061279297, -50.326839447021484, 55.84769821166992, 7.566556453704834, -6.6954803466796875, -0.4637615382671356, 1.6718794107437134, -0.9949336051940918, -0.1774810254573822, -0.9931640625, 0.25439453125, -0.853515625, 0, 
196, 2275761939, -92.62090301513672, -50.32975387573242, 55.84782409667969, 7.361167907714844, -6.108640670776367, -0.20243817567825317, 1.7378361225128174, -1.1612213850021362, -0.38339388370513916, -0.994140625, 0.25244140625, -0.85693359375, 0, 
197, 2275770272, -92.62276458740234, -50.3298454284668, 55.84907913208008, 7.454068660736084, -5.715785980224609, -0.17756550014019012, 1.5697555541992188, -1.3163923025131226, -0.049230556935071945, -0.9931640625, 0.25634765625, -0.85498046875, 0, 
198, 2275778605, -92.62437438964844, -50.32819366455078, 55.84942626953125, 7.681119918823242, -6.035990238189697, -0.2919609248638153, 1.4433749914169312, -1.2026140689849854, 0.1626375913619995, -0.9931640625, 0.25732421875, -0.85302734375, 0, 
199, 2275786938, -92.62661743164062, -50.324710845947266, 55.85105514526367, 7.844480514526367, -6.659564018249512, -0.37395280599594116, 1.4884302616119385, -1.3022276163101196, 0.3837396502494812, -0.9931640625, 0.2568359375, -0.85546875, 0, 
200, 2275795271, -92.62342834472656, -50.324642181396484, 55.84920883178711, 7.771658897399902, -6.811412334442139, -0.44485151767730713, 1.6123521327972412, -0.8485484719276428, -0.006480402313172817, -0.994140625, 0.25390625, -0.85791015625, 0, 
201, 2275803604, -92.6221694946289, -50.326148986816406, 55.850006103515625, 7.383729457855225, -6.444643497467041, -0.24743439257144928, 1.8284337520599365, -1.2204413414001465, -0.21792590618133545, -0.99560546875, 0.2548828125, -0.85400390625, 0, 
202, 2275811937, -92.62124633789062, -50.32893371582031, 55.850860595703125, 7.383659839630127, -5.836620330810547, -0.16531355679035187, 1.7928557395935059, -1.218161702156067, -0.3712783455848694, -0.99462890625, 0.25634765625, -0.8525390625, 0, 
203, 2275820270, -92.62359619140625, -50.32884216308594, 55.85321044921875, 7.652029991149902, -5.781030178070068, -0.19669967889785767, 1.5702677965164185, -1.369644284248352, -0.02745845727622509, -0.99267578125, 0.255859375, -0.8525390625, 0, 
204, 2275828603, -92.621826171875, -50.3246955871582, 55.850189208984375, 7.802250862121582, -6.38809061050415, -0.46515581011772156, 1.5359447002410889, -0.9587663412094116, 0.47400420904159546, -0.9921875, 0.25537109375, -0.85693359375, 0, 
205, 2275836936, -92.62208557128906, -50.3224983215332, 55.849830627441406, 7.762889385223389, -6.796239852905273, -0.3707451820373535, 1.5705496072769165, -1.1723378896713257, 0.23361463844776154, -0.99462890625, 0.25439453125, -0.8515625, 0, 
206, 2275845269, -92.6207504272461, -50.3235969543457, 55.848690032958984, 7.525586128234863, -6.646360397338867, -0.31579574942588806, 1.737221360206604, -1.1303049325942993, -0.15860334038734436, -0.99462890625, 0.2568359375, -0.853515625, 0, 
207, 2275853602, -92.61823272705078, -50.327449798583984, 55.84721374511719, 7.375536918640137, -6.031861782073975, -0.20476916432380676, 1.7699307203292847, -1.0336111783981323, -0.4924848675727844, -0.9931640625, 0.25439453125, -0.8525390625, 0, 
208, 2275861935, -92.620361328125, -50.327632904052734, 55.85020065307617, 7.493893146514893, -5.816425800323486, -0.1917143017053604, 1.6230076551437378, -1.3933888673782349, -0.06485524773597717, -0.99365234375, 0.25439453125, -0.85400390625, 0, 
209, 2275870268, -92.62147521972656, -50.32549285888672, 55.850643157958984, 7.805640697479248, -6.176613807678223, -0.3041565716266632, 1.5273382663726807, -1.2212355136871338, 0.22421419620513916, -0.9921875, 0.25341796875, -0.857421875, 0, 
210, 2275878601, -92.62100982666016, -50.32200622558594, 55.849525451660156, 7.807814598083496, -6.688671112060547, -0.40505507588386536, 1.5564361810684204, -1.101104736328125, 0.38922107219696045, -0.9951171875, 0.2548828125, -0.853515625, 0, 
211, 2275886934, -92.61888885498047, -50.323570251464844, 55.84941482543945, 7.55979061126709, -6.751749038696289, -0.44539719820022583, 1.6508246660232544, -0.9595604538917542, -0.2066812664270401, -0.9931640625, 0.25341796875, -0.85546875, 0, 
212, 2275895267, -92.61795043945312, -50.32685852050781, 55.849857330322266, 7.403441905975342, -6.175547122955322, -0.21423843502998352, 1.8027682304382324, -1.1996426582336426, -0.42437663674354553, -0.99267578125, 0.25439453125, -0.85205078125, 0, 
213, 2275903600, -92.6190185546875, -50.32772445678711, 55.8514289855957, 7.414849758148193, -5.769311428070068, -0.1455344706773758, 1.6193959712982178, -1.2840158939361572, -0.14408007264137268, -0.99267578125, 0.25537109375, -0.857421875, 0, 
214, 2275911933, -92.6207275390625, -50.3265266418457, 55.851844787597656, 7.642821788787842, -5.996553421020508, -0.2033761441707611, 1.435178518295288, -1.2058157920837402, 0.11017964035272598, -0.9921875, 0.2568359375, -0.85595703125, 0, 
215, 2275920266, -92.62251281738281, -50.322574615478516, 55.85466003417969, 7.88095760345459, -6.581544876098633, -0.33176523447036743, 1.5391209125518799, -1.3069919347763062, 0.4351218044757843, -0.994140625, 0.255859375, -0.8544921875, 0, 
216, 2275928599, -92.62023162841797, -50.32175064086914, 55.852699279785156, 7.769887924194336, -6.7705912590026855, -0.41040411591529846, 1.6960593461990356, -1.0223922729492188, 0.07309021800756454, -0.99462890625, 0.25439453125, -0.85205078125, 0, 
217, 2275936932, -92.61949920654297, -50.32332229614258, 55.852943420410156, 7.378578186035156, -6.493441104888916, -0.27966371178627014, 1.6900399923324585, -1.1500535011291504, -0.21743923425674438, -0.9912109375, 0.25537109375, -0.853515625, 0, 
218, 2275945265, -92.61991882324219, -50.32620620727539, 55.853538513183594, 7.371719837188721, -5.897674560546875, -0.15497595071792603, 1.6801785230636597, -1.2512809038162231, -0.3814471662044525, -0.99072265625, 0.25537109375, -0.85205078125, 0, 
219, 2275953598, -92.62493133544922, -50.325157165527344, 55.857460021972656, 7.570647239685059, -5.814636707305908, -0.1767158806324005, 1.3649697303771973, -1.4739967584609985, 0.07718849927186966, -0.99365234375, 0.25537109375, -0.85107421875, 0, 
220, 2275961931, -92.6255111694336, -50.32268142700195, 55.8560791015625, 7.7870707511901855, -6.3527045249938965, -0.3458734452724457, 1.4052097797393799, -1.0726473331451416, 0.2673741579055786, -0.99462890625, 0.255859375, -0.8564453125, 0, 
221, 2275970264, -92.62498474121094, -50.320716857910156, 55.85623550415039, 7.814671516418457, -6.79224157333374, -0.3515405058860779, 1.5612003803253174, -1.093753457069397, 0.211074098944664, -0.9921875, 0.25537109375, -0.84912109375, 0, 
222, 2275978597, -92.62297058105469, -50.32249069213867, 55.85452651977539, 7.540797233581543, -6.69908332824707, -0.42014050483703613, 1.686889410018921, -1.027361273765564, -0.23770008981227875, -0.9931640625, 0.25341796875, -0.85400390625, 0, 
223, 2275986930, -92.62277221679688, -50.326717376708984, 55.856483459472656, 7.360374450683594, -6.043478965759277, -0.18825934827327728, 1.7462120056152344, -1.2321983575820923, -0.5419716238975525, -0.99462890625, 0.25439453125, -0.85595703125, 0, 
224, 2275995263, -92.62596130371094, -50.32825469970703, 55.86005783081055, 7.454530715942383, -5.73345422744751, -0.17811153829097748, 1.5522099733352661, -1.4227938652038574, -0.2266603708267212, -0.99365234375, 0.25390625, -0.85205078125, 0, 
225, 2276003596, -92.62891387939453, -50.32657241821289, 55.86095428466797, 7.728321552276611, -6.03538179397583, -0.30435484647750854, 1.331158995628357, -1.2454665899276733, 0.1655575931072235, -0.99267578125, 0.25439453125, -0.8564453125, 0, 
226, 2276011929, -92.6327896118164, -50.324920654296875, 55.86439895629883, 7.807950496673584, -6.630860805511475, -0.37394577264785767, 1.4575650691986084, -1.4388283491134644, 0.15203328430652618, -0.99365234375, 0.25390625, -0.85205078125, 0, 
227, 2276020262, -92.63127136230469, -50.324493408203125, 55.86400604248047, 7.677070617675781, -6.7764482498168945, -0.4612577259540558, 1.6066914796829224, -1.015117883682251, 0.029597250744700432, -0.9951171875, 0.25732421875, -0.85546875, 0, 
228, 2276028595, -92.6314468383789, -50.327388763427734, 55.86512756347656, 7.395566940307617, -6.371031761169434, -0.20431098341941833, 1.6861722469329834, -1.235144019126892, -0.38526368141174316, -0.99365234375, 0.2548828125, -0.86328125, 0, 
229, 2276036928, -92.63220977783203, -50.32910919189453, 55.86674499511719, 7.363215446472168, -5.866873264312744, -0.23114055395126343, 1.6898607015609741, -1.29751455783844, -0.24279733002185822, -0.99560546875, 0.25439453125, -0.85498046875, 0, 
230, 2276045261, -92.63630676269531, -50.329689025878906, 55.87147903442383, 7.681888103485107, -5.877293586730957, -0.22062264382839203, 1.4192975759506226, -1.4161086082458496, -0.1114475280046463, -0.99462890625, 0.25537109375, -0.85791015625, 0, 
231, 2276053594, -92.63661193847656, -50.32803726196289, 55.87107467651367, 7.8363566398620605, -6.439659118652344, -0.3864511251449585, 1.5281580686569214, -1.1462370157241821, 0.16719691455364227, -0.99658203125, 0.25341796875, -0.86181640625, 0, 
232, 2276061927, -92.6368637084961, -50.3279914855957, 55.87021255493164, 7.709234714508057, -6.794244289398193, -0.4229086935520172, 1.493194580078125, -1.10194993019104, -0.025204405188560486, -0.99658203125, 0.25439453125, -0.85498046875, 0, 
233, 2276070260, -92.63712310791016, -50.33118438720703, 55.87031555175781, 7.473816871643066, -6.489732265472412, -0.35710975527763367, 1.6549742221832275, -1.2080954313278198, -0.41466885805130005, -0.99560546875, 0.25439453125, -0.85498046875, 0, 
234, 2276078593, -92.63822937011719, -50.3349494934082, 55.87133026123047, 7.463203430175781, -5.897157669067383, -0.15953490138053894, 1.5655548572540283, -1.224360466003418, -0.48935994505882263, -0.99462890625, 0.25439453125, -0.86083984375, 0, 
235, 2276086926, -92.640380859375, -50.334529876708984, 55.8741455078125, 7.522924423217773, -5.859773635864258, -0.2302854210138321, 1.574750304222107, -1.3564016819000244, 0.01138552650809288, -0.994140625, 0.25634765625, -0.861328125, 0, 
236, 2276095259, -92.6427230834961, -50.332244873046875, 55.8756217956543, 7.774809837341309, -6.301982402801514, -0.3805069327354431, 1.4240106344223022, -1.2490525245666504, 0.23958273231983185, -0.994140625, 0.25537109375, -0.8603515625, 0, 
237, 2276103592, -92.64158630371094, -50.329566955566406, 55.87424087524414, 7.906016826629639, -6.7007832527160645, -0.35676810145378113, 1.6116094589233398, -1.0760284662246704, 0.2914772033691406, -0.99609375, 0.25537109375, -0.861328125, 0, 
238, 2276111925, -92.63827514648438, -50.330684661865234, 55.87242889404297, 7.555837631225586, -6.683572769165039, -0.492582231760025, 1.834094524383545, -1.0207784175872803, -0.16172827780246735, -0.99853515625, 0.25537109375, -0.8603515625, 0, 
239, 2276120258, -92.6375503540039, -50.334739685058594, 55.86941909790039, 7.3258490562438965, -6.1405816078186035, -0.22853423655033112, 1.7770771980285645, -1.201102614402771, -0.5165366530418396, -0.994140625, 0.255859375, -0.8603515625, 0, 
240, 2276128591, -92.63947296142578, -50.33658218383789, 55.87320327758789, 7.479414463043213, -5.776280403137207, -0.19307422637939453, 1.7225444316864014, -1.4460259675979614, -0.2688213884830475, -0.994140625, 0.25439453125, -0.853515625, 0, 
241, 2276136924, -92.64057159423828, -50.33474349975586, 55.874210357666016, 7.735381603240967, -6.022665023803711, -0.30969130992889404, 1.4941935539245605, -1.1903960704803467, 0.18948130309581757, -0.9951171875, 0.25439453125, -0.861328125, 0, 
242, 2276145257, -92.6402587890625, -50.33185958862305, 55.87274932861328, 7.787259101867676, -6.659529209136963, -0.3814364969730377, 1.6094319820404053, -1.1476713418960571, 0.3204468786716461, -0.99609375, 0.2578125, -0.85302734375, 0, 
243, 2276153590, -92.63706970214844, -50.33130645751953, 55.869483947753906, 7.736598491668701, -6.817759990692139, -0.41067981719970703, 1.6862235069274902, -0.9191155433654785, 0.04258366674184799, -0.99365234375, 0.2548828125, -0.85546875, 0, 
244, 2276161923, -92.63463592529297, -50.332496643066406, 55.86875534057617, 7.4173502922058105, -6.380218982696533, -0.25154951214790344, 1.828023910522461, -1.105151891708374, -0.17353644967079163, -0.99560546875, 0.25537109375, -0.853515625, 0, 
245, 2276170256, -92.63410949707031, -50.334903717041016, 55.86911392211914, 7.432069301605225, -5.859543323516846, -0.20414474606513977, 1.7093018293380737, -1.1850426197052002, -0.3197169005870819, -0.9951171875, 0.25634765625, -0.85986328125, 0, 
246, 2276178589, -92.63614654541016, -50.33272933959961, 55.87066650390625, 7.645835876464844, -5.835437774658203, -0.25727710127830505, 1.5030816793441772, -1.2974634170532227, 0.22083312273025513, -0.9951171875, 0.2548828125, -0.8564453125, 0, 
247, 2276186922, -92.6373291015625, -50.32976531982422, 55.86798095703125, 7.78032112121582, -6.413452625274658, -0.4032307267189026, 1.4407366514205933, -1.1598381996154785, 0.3274395763874054, -0.994140625, 0.25390625, -0.85986328125, 0, 
248, 2276195255, -92.63531494140625, -50.32838439941406, 55.86399459838867, 7.758116245269775, -6.748250484466553, -0.4402219355106354, 1.5915788412094116, -0.9555389881134033, 0.14457954466342926, -0.99462890625, 0.25732421875, -0.85302734375, 0, 
249, 2276203588, -92.63311004638672, -50.327964782714844, 55.863525390625, 7.518896579742432, -6.595028877258301, -0.3240841329097748, 1.8247196674346924, -1.1337628364562988, 0.018583128228783607, -0.9921875, 0.25537109375, -0.859375, 0, 
250, 2276211921, -92.63150787353516, -50.330657958984375, 55.86349105834961, 7.401961326599121, -6.00312614440918, -0.1674158275127411, 1.7924712896347046, -1.1512829065322876, -0.35644763708114624, -0.99462890625, 0.25537109375, -0.8564453125, 0, 
251, 2276220254, -92.6340560913086, -50.33103561401367, 55.8670654296875, 7.504858493804932, -5.8086256980896, -0.1722545325756073, 1.559868335723877, -1.3785580396652222, -0.08380977064371109, -0.994140625, 0.25390625, -0.85888671875, 0, 
252, 2276228587, -92.63406372070312, -50.32781219482422, 55.867156982421875, 7.790746688842773, -6.2098822593688965, -0.34787267446517944, 1.6099185943603516, -1.19203519821167, 0.35313060879707336, -0.99462890625, 0.255859375, -0.861328125, 0, 
253, 2276236920, -92.63429260253906, -50.32489776611328, 55.8657112121582, 7.826486110687256, -6.6718950271606445, -0.3899488151073456, 1.5721375942230225, -1.1698276996612549, 0.31893566250801086, -0.9970703125, 0.2548828125, -0.85791015625, 0, 
254, 2276245253, -92.63121795654297, -50.32500457763672, 55.863433837890625, 7.524572372436523, -6.721694469451904, -0.40282565355300903, 1.7658839225769043, -0.9873008728027344, -0.032530080527067184, -0.99609375, 0.25439453125, -0.859375, 0, 
255, 2276253586, -92.63043975830078, -50.32813262939453, 55.864959716796875, 7.36411714553833, -6.156991958618164, -0.16645993292331696, 1.8374756574630737, -1.2659579515457153, -0.4143359065055847, -0.99755859375, 0.2548828125, -0.8603515625, 0, 
256, 2276261919, -92.62981414794922, -50.32887649536133, 55.86472702026367, 7.4607110023498535, -5.772171974182129, -0.1634334772825241, 1.6562803983688354, -1.1456477642059326, -0.12302517145872116, -0.99462890625, 0.25439453125, -0.8564453125, 0, 
257, 2276270252, -92.63225555419922, -50.327880859375, 55.86629867553711, 7.704893112182617, -6.040618896484375, -0.2693449556827545, 1.398498773574829, -1.2359635829925537, 0.0849752202630043, -0.9970703125, 0.2548828125, -0.85546875, 0, 
258, 2276278585, -92.63150787353516, -50.3238639831543, 55.86619186401367, 7.842722415924072, -6.62163782119751, -0.3614942729473114, 1.6855831146240234, -1.1814309358596802, 0.44687873125076294, -0.9951171875, 0.255859375, -0.85498046875, 0, 
259, 2276286918, -92.62876892089844, -50.32398223876953, 55.864418029785156, 7.74380350112915, -6.771905899047852, -0.4507397711277008, 1.7745413780212402, -1.033431887626648, -0.03519396111369133, -0.9951171875, 0.255859375, -0.8564453125, 0, 
260, 2276295251, -92.62701416015625, -50.326351165771484, 55.864830017089844, 7.388899326324463, -6.371872901916504, -0.28379902243614197, 1.8410871028900146, -1.1680346727371216, -0.31461966037750244, -0.9951171875, 0.255859375, -0.85791015625, 0, 
261, 2276303584, -92.62908935546875, -50.329322814941406, 55.868011474609375, 7.382364749908447, -5.796383857727051, -0.1998487263917923, 1.648186206817627, -1.3939265012741089, -0.39937710762023926, -0.99462890625, 0.25634765625, -0.85400390625, 0, 
262, 2276311917, -92.63137817382812, -50.32920837402344, 55.869537353515625, 7.593861103057861, -5.825603008270264, -0.21848155558109283, 1.4710125923156738, -1.2837085723876953, -0.027484072372317314, -0.99560546875, 0.2548828125, -0.861328125, 0, 
263, 2276320250, -92.63276672363281, -50.32640075683594, 55.8699836730957, 7.7922539710998535, -6.418006896972656, -0.3637871742248535, 1.4707566499710083, -1.1956982612609863, 0.3074604868888855, -0.9951171875, 0.25537109375, -0.8583984375, 0, 
264, 2276328583, -92.63160705566406, -50.3244743347168, 55.869022369384766, 7.829182147979736, -6.811517238616943, -0.4008246660232544, 1.6546156406402588, -1.102411150932312, 0.19990628957748413, -0.99462890625, 0.25537109375, -0.8544921875, 0, 
265, 2276336916, -92.62931823730469, -50.32544708251953, 55.86807632446289, 7.532827377319336, -6.653094291687012, -0.3353424072265625, 1.792778730392456, -1.0862740278244019, -0.14174917340278625, -0.99560546875, 0.25439453125, -0.8564453125, 0, 
266, 2276345249, -92.62677764892578, -50.32879638671875, 55.86613845825195, 7.362992286682129, -6.023200035095215, -0.18984657526016235, 1.8023842573165894, -1.058226466178894, -0.4266563355922699, -0.99462890625, 0.25537109375, -0.8564453125, 0, 
267, 2276353582, -92.628173828125, -50.3297004699707, 55.86909103393555, 7.480291366577148, -5.720449447631836, -0.21699804067611694, 1.7078418731689453, -1.389136791229248, -0.15301944315433502, -0.99560546875, 0.255859375, -0.85791015625, 0, 
268, 2276361915, -92.62860107421875, -50.327430725097656, 55.868080139160156, 7.776703834533691, -6.083353042602539, -0.356812983751297, 1.458103060722351, -1.1030256748199463, 0.24206732213497162, -0.99560546875, 0.25537109375, -0.85498046875, 0, 
269, 2276370248, -92.62914276123047, -50.324546813964844, 55.86620330810547, 7.7967119216918945, -6.708603858947754, -0.37578079104423523, 1.4451422691345215, -1.0979286432266235, 0.32088232040405273, -0.99560546875, 0.25537109375, -0.86328125, 0, 
270, 2276378581, -92.6275634765625, -50.32591247558594, 55.86503219604492, 7.627236843109131, -6.816019058227539, -0.4381796419620514, 1.6841230392456055, -1.0684977769851685, -0.19482187926769257, -0.99609375, 0.255859375, -0.85400390625, 0, 
271, 2276386914, -92.62623596191406, -50.32902145385742, 55.86665344238281, 7.425717830657959, -6.2537031173706055, -0.2552841007709503, 1.7797410488128662, -1.1574560403823853, -0.40001749992370605, -0.99658203125, 0.2548828125, -0.859375, 0, 
272, 2276395247, -92.62796020507812, -50.33054733276367, 55.86774444580078, 7.440420150756836, -5.831982135772705, -0.22095035016536713, 1.6328433752059937, -1.3530462980270386, -0.22263891994953156, -0.99267578125, 0.255859375, -0.85986328125, 0, 
273, 2276403580, -92.63013458251953, -50.32886505126953, 55.868709564208984, 7.652749538421631, -5.962286949157715, -0.27068692445755005, 1.4320021867752075, -1.2506920099258423, 0.16478918492794037, -0.9951171875, 0.25537109375, -0.853515625, 0, 
274, 2276411913, -92.63059997558594, -50.325477600097656, 55.868377685546875, 7.864182949066162, -6.524921417236328, -0.31888347864151, 1.5173488855361938, -1.1610676050186157, 0.37341710925102234, -0.99462890625, 0.2548828125, -0.8525390625, 0, 
275, 2276420246, -92.62895202636719, -50.3249626159668, 55.8646354675293, 7.7223896980285645, -6.780407428741455, -0.4748532772064209, 1.497959017753601, -0.9154528379440308, 0.045811064541339874, -0.99365234375, 0.25341796875, -0.85791015625, 0, 
276, 2276428579, -92.6274185180664, -50.327964782714844, 55.86458206176758, 7.414403915405273, -6.468075275421143, -0.2890155017375946, 1.783685564994812, -1.1472358703613281, -0.394510418176651, -0.9951171875, 0.25390625, -0.8515625, 0, 
277, 2276436912, -92.62625885009766, -50.329833984375, 55.863155364990234, 7.415246486663818, -5.874175071716309, -0.20975083112716675, 1.6930367946624756, -1.1162171363830566, -0.2514805495738983, -0.9931640625, 0.255859375, -0.85498046875, 0, 
278, 2276445245, -92.62918853759766, -50.3288688659668, 55.86555099487305, 7.587724685668945, -5.870565891265869, -0.13055765628814697, 1.5002127885818481, -1.3649824857711792, 0.07583093643188477, -0.994140625, 0.25390625, -0.85302734375, 0, 
279, 2276453578, -92.63187408447266, -50.32579040527344, 55.866294860839844, 7.792230606079102, -6.372068881988525, -0.38203907012939453, 1.3498575687408447, -1.2424185276031494, 0.33240875601768494, -0.994140625, 0.25537109375, -0.8525390625, 0, 
280, 2276461911, -92.63230895996094, -50.32410430908203, 55.865478515625, 7.873111248016357, -6.7360429763793945, -0.3244476318359375, 1.4761099815368652, -1.1121188402175903, 0.17139765620231628, -0.994140625, 0.2568359375, -0.85791015625, 0, 
281, 2276470244, -92.62931060791016, -50.32444381713867, 55.86280059814453, 7.511824607849121, -6.661263465881348, -0.3455080986022949, 1.7014639377593994, -0.9422451853752136, -0.061294857412576675, -0.99267578125, 0.255859375, -0.8525390625, 0, 
282, 2276478577, -92.62928009033203, -50.32854461669922, 55.86457824707031, 7.328946113586426, -6.086114406585693, -0.17298631370067596, 1.7716981172561646, -1.281633734703064, -0.530624508857727, -0.99267578125, 0.25439453125, -0.85205078125, 0, 
283, 2276486910, -92.631591796875, -50.329124450683594, 55.86674880981445, 7.488492488861084, -5.740897178649902, -0.1644798070192337, 1.557742714881897, -1.3427751064300537, -0.10788717120885849, -0.99365234375, 0.2548828125, -0.8583984375, 0, 
284, 2276495243, -92.63509368896484, -50.32736587524414, 55.86980438232422, 7.7713422775268555, -6.095196723937988, -0.26053595542907715, 1.3436330556869507, -1.3004345893859863, 0.17823664844036102, -0.9921875, 0.255859375, -0.85791015625, 0, 
285, 2276503576, -92.63549041748047, -50.324058532714844, 55.869815826416016, 7.77138090133667, -6.675544261932373, -0.3873545527458191, 1.5566667318344116, -1.185349941253662, 0.36168578267097473, -0.99658203125, 0.25537109375, -0.8515625, 0, 
286, 2276511909, -92.63294982910156, -50.32389450073242, 55.86776351928711, 7.6696367263793945, -6.770668029785156, -0.43738430738449097, 1.7180362939834595, -1.012658715248108, -0.005711973644793034, -0.994140625, 0.25537109375, -0.85693359375, 0, 
287, 2276520242, -92.63053131103516, -50.32606887817383, 55.86961364746094, 7.4412312507629395, -6.275854110717773, -0.23754346370697021, 1.784608006477356, -1.0676013231277466, -0.28593170642852783, -0.99365234375, 0.255859375, -0.85791015625, 0, 
288, 2276528575, -92.63103485107422, -50.327518463134766, 55.87113952636719, 7.422873020172119, -5.795894145965576, -0.20560410618782043, 1.6841486692428589, -1.276613473892212, -0.21349464356899261, -0.99267578125, 0.25341796875, -0.85986328125, 0, 
289, 2276536908, -92.63367462158203, -50.32659149169922, 55.874794006347656, 7.6191558837890625, -5.875594615936279, -0.250887930393219, 1.4651981592178345, -1.309502124786377, 0.07442215830087662, -0.99365234375, 0.25537109375, -0.85302734375, 0, 
290, 2276545241, -92.63506317138672, -50.32345962524414, 55.87533950805664, 7.806634426116943, -6.420106887817383, -0.3909198045730591, 1.4535950422286987, -1.1902421712875366, 0.3439607620239258, -0.9951171875, 0.25439453125, -0.8515625, 0, 
291, 2276553574, -92.63462829589844, -50.32219696044922, 55.874576568603516, 7.754572868347168, -6.728874206542969, -0.4164562523365021, 1.584944725036621, -1.1161401271820068, 0.12093761563301086, -0.9921875, 0.2548828125, -0.8603515625, 0, 
292, 2276561907, -92.63259887695312, -50.323429107666016, 55.87313461303711, 7.427729606628418, -6.567300319671631, -0.3244268000125885, 1.7155261039733887, -1.0505934953689575, -0.1755855828523636, -0.994140625, 0.2548828125, -0.857421875, 0, 
293, 2276570240, -92.63269805908203, -50.32748794555664, 55.8760986328125, 7.387486934661865, -5.999330520629883, -0.2012902945280075, 1.7800483703613281, -1.292161226272583, -0.5228889584541321, -0.9921875, 0.25439453125, -0.853515625, 0, 
294, 2276578573, -92.63548278808594, -50.327735900878906, 55.880069732666016, 7.581502437591553, -5.805264472961426, -0.21629869937896729, 1.637197732925415, -1.4719476699829102, -0.07653532922267914, -0.994140625, 0.25439453125, -0.85888671875, 0, 
295, 2276586906, -92.6379623413086, -50.32565689086914, 55.88044738769531, 7.822395324707031, -6.22756814956665, -0.3538939654827118, 1.349165916442871, -1.2075320482254028, 0.21660679578781128, -0.99267578125, 0.25439453125, -0.857421875, 0, 
296, 2276595239, -92.6395034790039, -50.3234977722168, 55.88169860839844, 7.76554536819458, -6.705179214477539, -0.34749311208724976, 1.46980881690979, -1.2121423482894897, 0.22877353429794312, -0.994140625, 0.2568359375, -0.85302734375, 0, 
297, 2276603572, -92.63788604736328, -50.32455062866211, 55.88003158569336, 7.482189178466797, -6.655398845672607, -0.4227668344974518, 1.6443442106246948, -1.0348150730133057, -0.15535032749176025, -0.99462890625, 0.25341796875, -0.85546875, 0, 
298, 2276611905, -92.63711547851562, -50.328495025634766, 55.88064956665039, 7.428250789642334, -6.0644001960754395, -0.20206503570079803, 1.7523852586746216, -1.1919071674346924, -0.5086474418640137, -0.99365234375, 0.2568359375, -0.85107421875, 0, 
299, 2276620238, -92.63888549804688, -50.33021926879883, 55.88181686401367, 7.501485824584961, -5.833467483520508, -0.16518060863018036, 1.6000316143035889, -1.3151885271072388, -0.24420610070228577, -0.99365234375, 0.25537109375, -0.85009765625, 0, 
300, 2276628571, -92.64118194580078, -50.32941818237305, 55.88230514526367, 7.635526180267334, -6.122476100921631, -0.24658145010471344, 1.3735251426696777, -1.210221529006958, 0.06287014484405518, -0.99462890625, 0.25390625, -0.85595703125, 0, 
301, 2276636904, -92.64254760742188, -50.3268928527832, 55.88560104370117, 7.86428689956665, -6.652175426483154, -0.3524841070175171, 1.5014935731887817, -1.2349903583526611, 0.2686292827129364, -0.99365234375, 0.25390625, -0.85302734375, 0, 
302, 2276645237, -92.63789367675781, -50.32743835449219, 55.880924224853516, 7.777221202850342, -6.71352481842041, -0.4863450825214386, 1.699876070022583, -0.7781093120574951, -0.07300057262182236, -0.9951171875, 0.25341796875, -0.8515625, 0, 
303, 2276653570, -92.63627624511719, -50.32946014404297, 55.88130569458008, 7.378380298614502, -6.360857009887695, -0.2808160185813904, 1.8326343297958374, -1.183480143547058, -0.27904149889945984, -0.99267578125, 0.25439453125, -0.8525390625, 0, 
304, 2276661903, -92.6361083984375, -50.332881927490234, 55.88246154785156, 7.406414985656738, -5.92785120010376, -0.19014160335063934, 1.729716420173645, -1.2359635829925537, -0.4497603178024292, -0.99609375, 0.251953125, -0.8525390625, 0, 
305, 2276670236, -92.63825988769531, -50.333675384521484, 55.88438034057617, 7.6955485343933105, -5.8629536628723145, -0.1869133561849594, 1.561046838760376, -1.3368581533432007, -0.1280967891216278, -0.994140625, 0.25390625, -0.8583984375, 0, 
306, 2276678569, -92.63737487792969, -50.331050872802734, 55.88243103027344, 7.790180206298828, -6.330965518951416, -0.43059244751930237, 1.5290035009384155, -1.030255913734436, 0.28804492950439453, -0.99365234375, 0.25341796875, -0.8564453125, 0, 
307, 2276686902, -92.6371078491211, -50.330352783203125, 55.882362365722656, 7.724140644073486, -6.749325275421143, -0.3911413848400116, 1.6092528104782104, -1.1445976495742798, 0.05428937077522278, -0.9931640625, 0.25732421875, -0.85107421875, 0, 
308, 2276695235, -92.63665008544922, -50.33171081542969, 55.88276672363281, 7.481424808502197, -6.623802661895752, -0.33333832025527954, 1.6091246604919434, -1.111324667930603, -0.19121024012565613, -0.99267578125, 0.25390625, -0.853515625, 0, 
309, 2276703568, -92.63678741455078, -50.33600997924805, 55.8840217590332, 7.425174713134766, -6.0782270431518555, -0.1582353413105011, 1.7042303085327148, -1.239370346069336, -0.55336993932724, -0.990234375, 0.2548828125, -0.857421875, 0, 
310, 2276711901, -92.63894653320312, -50.336814880371094, 55.886383056640625, 7.576546669006348, -5.929105281829834, -0.2390645146369934, 1.5632750988006592, -1.3444143533706665, -0.13867546617984772, -0.994140625, 0.255859375, -0.85205078125, 0, 
311, 2276720234, -92.64129638671875, -50.33566665649414, 55.89112854003906, 7.777118682861328, -6.122588634490967, -0.3325546085834503, 1.49293851852417, -1.3049170970916748, 0.10180377215147018, -0.9921875, 0.255859375, -0.85888671875, 0, 
312, 2276728567, -92.64186096191406, -50.333133697509766, 55.89057922363281, 7.758694648742676, -6.516861915588379, -0.36845308542251587, 1.4843064546585083, -1.1377073526382446, 0.2737264633178711, -0.9921875, 0.25390625, -0.8505859375, 0, 
313, 2276736900, -92.64086151123047, -50.3333740234375, 55.89104080200195, 7.56351375579834, -6.675034523010254, -0.44014689326286316, 1.6594055891036987, -1.0950597524642944, -0.05857975780963898, -0.9921875, 0.25341796875, -0.85205078125, 0, 
314, 2276745233, -92.6409683227539, -50.3355827331543, 55.892601013183594, 7.426224231719971, -6.243594646453857, -0.20739087462425232, 1.7302799224853516, -1.2493598461151123, -0.29986581206321716, -0.99267578125, 0.2548828125, -0.85107421875, 0, 
315, 2276753566, -92.64269256591797, -50.33739471435547, 55.89456558227539, 7.459094524383545, -5.912384033203125, -0.18195220828056335, 1.5772351026535034, -1.3073763847351074, -0.2571413218975067, -0.9921875, 0.25341796875, -0.85791015625, 0, 
316, 2276761899, -92.6461410522461, -50.335960388183594, 55.8959846496582, 7.726069450378418, -6.0373735427856445, -0.2739713788032532, 1.3214255571365356, -1.2825303077697754, 0.13202856481075287, -0.9931640625, 0.25341796875, -0.85791015625, 0, 
317, 2276770232, -92.64816284179688, -50.33309555053711, 55.89997863769531, 7.831194877624512, -6.508721828460693, -0.38938745856285095, 1.4681951999664307, -1.264497995376587, 0.3111232817173004, -0.994140625, 0.25341796875, -0.85693359375, 0, 
318, 2276778565, -92.64751434326172, -50.33182144165039, 55.89801025390625, 7.684942722320557, -6.7190985679626465, -0.4077901542186737, 1.4987530708312988, -1.0240058898925781, 0.12721309065818787, -0.994140625, 0.25634765625, -0.8515625, 0, 
319, 2276786898, -92.6474838256836, -50.33242416381836, 55.89792251586914, 7.351562023162842, -6.436978816986084, -0.3130791485309601, 1.6977498531341553, -1.224616527557373, -0.1043267697095871, -0.99365234375, 0.25341796875, -0.859375, 0, 
320, 2276795231, -92.64749908447266, -50.33430099487305, 55.899314880371094, 7.417643070220947, -5.883230686187744, -0.22488166391849518, 1.7957241535186768, -1.3119099140167236, -0.2621104419231415, -0.99365234375, 0.25439453125, -0.85498046875, 0, 
321, 2276803564, -92.65084838867188, -50.3336067199707, 55.90211486816406, 7.657534122467041, -5.892655849456787, -0.23617403209209442, 1.4618172645568848, -1.3857812881469727, 0.03943311423063278, -0.9931640625, 0.25341796875, -0.8525390625, 0, 
322, 2276811897, -92.65018463134766, -50.33124542236328, 55.90105056762695, 7.779879570007324, -6.418125629425049, -0.3453002870082855, 1.5829724073410034, -1.0987225770950317, 0.2532351315021515, -0.994140625, 0.25390625, -0.85205078125, 0, 
323, 2276820230, -92.64926147460938, -50.329833984375, 55.89950942993164, 7.79370641708374, -6.699204921722412, -0.33468520641326904, 1.6348927021026611, -1.1032819747924805, 0.1430426985025406, -0.99365234375, 0.2548828125, -0.853515625, 0, 
324, 2276828563, -92.64724731445312, -50.33070755004883, 55.89738082885742, 7.536570072174072, -6.574446201324463, -0.4233073890209198, 1.6490826606750488, -0.9998260736465454, -0.13158030807971954, -0.994140625, 0.25537109375, -0.85595703125, 0, 
325, 2276836896, -92.64632415771484, -50.333309173583984, 55.89738082885742, 7.3333563804626465, -6.009106159210205, -0.23886150121688843, 1.736478567123413, -1.1750274896621704, -0.3427184522151947, -0.99365234375, 0.25439453125, -0.8583984375, 0, 
326, 2276845229, -92.6490249633789, -50.33326721191406, 55.90019989013672, 7.46368408203125, -5.769345283508301, -0.2034108191728592, 1.6235709190368652, -1.452045202255249, -0.03632098063826561, -0.99658203125, 0.2548828125, -0.86181640625, 0, 
327, 2276853562, -92.65128326416016, -50.331390380859375, 55.90157699584961, 7.738108158111572, -6.084878921508789, -0.32938727736473083, 1.459998369216919, -1.2844001054763794, 0.1854342371225357, -0.99658203125, 0.255859375, -0.857421875, 0, 
328, 2276861895, -92.65101623535156, -50.32874298095703, 55.899845123291016, 7.808560371398926, -6.675737380981445, -0.42730844020843506, 1.475162148475647, -1.0485442876815796, 0.2913235127925873, -0.994140625, 0.255859375, -0.85693359375, 0, 
329, 2276870228, -92.64923095703125, -50.329410552978516, 55.89836120605469, 7.650634288787842, -6.755468845367432, -0.4039842486381531, 1.63215172290802, -0.9964192509651184, -0.10132990777492523, -0.99560546875, 0.25537109375, -0.86083984375, 0, 
330, 2276878561, -92.64689636230469, -50.3317756652832, 55.8974609375, 7.3942131996154785, -6.3087310791015625, -0.25950220227241516, 1.8006423711776733, -1.0840967893600464, -0.3155161738395691, -1, 0.25244140625, -0.857421875, 0, 
331, 2276886894, -92.64849853515625, -50.33369064331055, 55.8979606628418, 7.400637626647949, -5.833382606506348, -0.24737460911273956, 1.5735976696014404, -1.2808910608291626, -0.2649536430835724, -0.99609375, 0.251953125, -0.8544921875, 0, 
332, 2276895227, -92.65151977539062, -50.33282470703125, 55.90288543701172, 7.67977237701416, -5.842264652252197, -0.24862073361873627, 1.4971903562545776, -1.3772773742675781, 0.06527786701917648, -0.99658203125, 0.255859375, -0.85546875, 0, 
333, 2276903560, -92.6505355834961, -50.33036804199219, 55.901397705078125, 7.801042556762695, -6.407801628112793, -0.4008864760398865, 1.5845094919204712, -1.066628098487854, 0.265529990196228, -0.99609375, 0.25634765625, -0.86181640625, 0, 
334, 2276911893, -92.64775085449219, -50.329620361328125, 55.89825439453125, 7.718101501464844, -6.750998020172119, -0.40857887268066406, 1.6461372375488281, -0.9311800003051758, 0.0678136870265007, -0.99560546875, 0.2548828125, -0.8583984375, 0, 
335, 2276920226, -92.64765167236328, -50.33079528808594, 55.89936447143555, 7.47055721282959, -6.523702621459961, -0.3363392651081085, 1.7517958879470825, -1.2447749376296997, -0.17356206476688385, -0.99462890625, 0.2529296875, -0.8583984375, 0, 
336, 2276928559, -92.64647674560547, -50.3339958190918, 55.899681091308594, 7.450504302978516, -5.978644371032715, -0.2142726480960846, 1.773568034172058, -1.1733111143112183, -0.41792184114456177, -0.9970703125, 0.25537109375, -0.85595703125, 0, 
337, 2276936892, -92.6480712890625, -50.334381103515625, 55.90264129638672, 7.535974025726318, -5.883179664611816, -0.17577926814556122, 1.580334186553955, -1.2891387939453125, -0.08211923390626907, -0.99462890625, 0.25390625, -0.85546875, 0, 
338, 2276945225, -92.64855194091797, -50.33256912231445, 55.902099609375, 7.776670455932617, -6.259698390960693, -0.30295228958129883, 1.5346126556396484, -1.1688287258148193, 0.18643321096897125, -0.998046875, 0.25390625, -0.85595703125, 0, 
339, 2276953558, -92.64893341064453, -50.33021926879883, 55.90131759643555, 7.835936069488525, -6.683434963226318, -0.39363789558410645, 1.4849467277526855, -1.1202898025512695, 0.2512628436088562, -0.99609375, 0.25390625, -0.85595703125, 0, 
340, 2276961891, -92.64706420898438, -50.33144760131836, 55.899532318115234, 7.527409076690674, -6.678555488586426, -0.48532214760780334, 1.6629146337509155, -1.0231349468231201, -0.17499645054340363, -0.9970703125, 0.25341796875, -0.8623046875, 0, 
341, 2276970224, -92.64686584472656, -50.33393859863281, 55.90143585205078, 7.333454132080078, -6.192746162414551, -0.13419318199157715, 1.762221097946167, -1.2782528400421143, -0.33178120851516724, -0.9970703125, 0.25439453125, -0.85546875, 0, 
342, 2276978557, -92.64878845214844, -50.33448028564453, 55.90349578857422, 7.489328384399414, -5.855274677276611, -0.18319223821163177, 1.5632240772247314, -1.3210797309875488, -0.10670889914035797, -0.99365234375, 0.25439453125, -0.8603515625, 0, 
343, 2276986890, -92.6506118774414, -50.3333854675293, 55.904052734375, 7.755127906799316, -6.061073303222656, -0.28906315565109253, 1.4778004884719849, -1.2420085668563843, 0.10083043575286865, -0.99462890625, 0.2548828125, -0.86083984375, 0, 
344, 2276995223, -92.65082550048828, -50.32954025268555, 55.9046516418457, 7.859347343444824, -6.577104568481445, -0.3306403160095215, 1.568116307258606, -1.1865025758743286, 0.4298964738845825, -0.99609375, 0.25537109375, -0.85693359375, 0, 
345, 2277003556, -92.6476821899414, -50.32933044433594, 55.90095520019531, 7.727020263671875, -6.765863418579102, -0.4058104157447815, 1.63863205909729, -0.8869696855545044, 0.0042391554452478886, -0.99609375, 0.2548828125, -0.85595703125, 0, 
346, 2277011889, -92.64700317382812, -50.331321716308594, 55.902191162109375, 7.4193434715271, -6.36328125, -0.32157397270202637, 1.798721194267273, -1.2503589391708374, -0.27788883447647095, -0.99560546875, 0.255859375, -0.8583984375, 0, 
347, 2277020222, -92.64704132080078, -50.33382797241211, 55.90327453613281, 7.402947425842285, -5.84398078918457, -0.2066471129655838, 1.7253363132476807, -1.254380226135254, -0.3325752019882202, -0.9951171875, 0.25537109375, -0.85400390625, 0, 
348, 2277028555, -92.65174865722656, -50.33356475830078, 55.90809631347656, 7.635135650634766, -5.859592914581299, -0.1892571896314621, 1.4857410192489624, -1.5375458002090454, -0.018954535946249962, -0.99560546875, 0.2548828125, -0.857421875, 0, 
349, 2277036888, -92.65316009521484, -50.33066177368164, 55.90850067138672, 7.793612480163574, -6.408185958862305, -0.3302532434463501, 1.390609622001648, -1.1427022218704224, 0.3190893232822418, -0.99560546875, 0.25537109375, -0.8564453125, 0, 
350, 2277045221, -92.65361022949219, -50.32941818237305, 55.907676696777344, 7.761728763580322, -6.841111183166504, -0.4030131995677948, 1.4650957584381104, -1.10194993019104, 0.12434430420398712, -0.9951171875, 0.25439453125, -0.86328125, 0, 
351, 2277053554, -92.652099609375, -50.33137130737305, 55.90658950805664, 7.552533149719238, -6.6592864990234375, -0.4046170711517334, 1.68673574924469, -1.0761051177978516, -0.26374974846839905, -0.9951171875, 0.2548828125, -0.85546875, 0, 
352, 2277061887, -92.65283966064453, -50.33444595336914, 55.90788650512695, 7.40847110748291, -5.978500843048096, -0.22789229452610016, 1.632023811340332, -1.2485657930374146, -0.4060368537902832, -0.99658203125, 0.25439453125, -0.86376953125, 0, 
353, 2277070220, -92.65509796142578, -50.33454513549805, 55.91144943237305, 7.496514320373535, -5.757370948791504, -0.18076926469802856, 1.6964950561523438, -1.4588075876235962, -0.057145364582538605, -0.9951171875, 0.2548828125, -0.85693359375, 0, 
354, 2277078553, -92.65760803222656, -50.33152770996094, 55.912147521972656, 7.742566108703613, -6.088604927062988, -0.3686530590057373, 1.3663272857666016, -1.2351183891296387, 0.3263893723487854, -0.99462890625, 0.2548828125, -0.86279296875, 0, 
355, 2277086886, -92.65925598144531, -50.32798385620117, 55.91217803955078, 7.837394714355469, -6.600038528442383, -0.3904963731765747, 1.4652494192123413, -1.2182897329330444, 0.39406219124794006, -0.9951171875, 0.25439453125, -0.853515625, 0, 
356, 2277095219, -92.65687561035156, -50.32747268676758, 55.910030364990234, 7.6084980964660645, -6.750387191772461, -0.3897629976272583, 1.7316889762878418, -1.0299997329711914, 0.03953557461500168, -0.99365234375, 0.2529296875, -0.861328125, 0, 
357, 2277103552, -92.65562438964844, -50.330467224121094, 55.909812927246094, 7.3730149269104, -6.351326942443848, -0.21181650459766388, 1.7331230640411377, -1.134275197982788, -0.39320412278175354, -0.9951171875, 0.25439453125, -0.86279296875, 0, 
358, 2277111885, -92.6571044921875, -50.33185958862305, 55.9127197265625, 7.439661979675293, -5.841213703155518, -0.23388132452964783, 1.693088173866272, -1.3822466135025024, -0.20832058787345886, -0.99560546875, 0.25439453125, -0.85400390625, 0, 
359, 2277120218, -92.65974426269531, -50.33060073852539, 55.911415100097656, 7.71304178237915, -5.89316987991333, -0.2452368587255478, 1.5110222101211548, -1.3525596857070923, 0.11076875776052475, -0.99658203125, 0.25439453125, -0.861328125, 0, 
360, 2277128551, -92.65923309326172, -50.3270263671875, 55.910072326660156, 7.778810024261475, -6.48168420791626, -0.41471531987190247, 1.5383267402648926, -1.083328366279602, 0.39874956011772156, -0.99609375, 0.255859375, -0.85498046875, 0, 
361, 2277136884, -92.65862274169922, -50.326210021972656, 55.90983581542969, 7.6925740242004395, -6.701115131378174, -0.38971132040023804, 1.5880184173583984, -1.0843786001205444, 0.07370495796203613, -0.9951171875, 0.255859375, -0.86181640625, 0, 
362, 2277145217, -92.65681457519531, -50.32724380493164, 55.91156768798828, 7.433300018310547, -6.43917989730835, -0.3396880030632019, 1.8386024236679077, -1.1667028665542603, -0.1549917459487915, -0.9970703125, 0.2548828125, -0.85546875, 0, 
363, 2277153550, -92.65689849853516, -50.330013275146484, 55.912864685058594, 7.406331539154053, -5.9387311935424805, -0.21307455003261566, 1.7134770154953003, -1.2515627145767212, -0.37027937173843384, -0.9951171875, 0.25390625, -0.8564453125, 0, 
364, 2277161883, -92.65809631347656, -50.32919692993164, 55.913822174072266, 7.571690082550049, -5.8891987800598145, -0.21863038837909698, 1.5471382141113281, -1.2444418668746948, 0.06253715604543686, -0.994140625, 0.2568359375, -0.86083984375, 0, 
365, 2277170216, -92.65902709960938, -50.32624435424805, 55.91439437866211, 7.78650426864624, -6.36916971206665, -0.3493677079677582, 1.5242646932601929, -1.2052010297775269, 0.320984810590744, -0.99658203125, 0.25537109375, -0.85888671875, 0, 
366, 2277178549, -92.65751647949219, -50.32426834106445, 55.913211822509766, 7.840590000152588, -6.759123802185059, -0.378717303276062, 1.675567865371704, -1.0886560678482056, 0.2089737057685852, -0.9951171875, 0.2568359375, -0.85546875, 0, 
367, 2277186882, -92.6544418334961, -50.32638168334961, 55.91143035888672, 7.534223556518555, -6.6284499168396, -0.41867294907569885, 1.7255157232284546, -0.9385311603546143, -0.2746101915836334, -0.99609375, 0.25537109375, -0.8525390625, 0, 
368, 2277195215, -92.65324401855469, -50.330204010009766, 55.90907287597656, 7.313050746917725, -6.100928783416748, -0.22616562247276306, 1.6151440143585205, -1.0306657552719116, -0.48249539732933044, -0.9931640625, 0.255859375, -0.85205078125, 0, 
369, 2277203548, -92.65479278564453, -50.33180618286133, 55.91168212890625, 7.460737228393555, -5.763517379760742, -0.21632418036460876, 1.6585344076156616, -1.3585532903671265, -0.23360180854797363, -0.994140625, 0.25537109375, -0.85205078125, 0, 
370, 2277211881, -92.65607452392578, -50.329524993896484, 55.912147521972656, 7.780407428741455, -6.042678356170654, -0.2558974027633667, 1.4923235177993774, -1.2147293090820312, 0.2373286932706833, -0.99462890625, 0.25537109375, -0.85791015625, 0, 
371, 2277220214, -92.65453338623047, -50.32630157470703, 55.91115188598633, 7.793975353240967, -6.677186012268066, -0.40827271342277527, 1.6563317775726318, -1.0711106061935425, 0.3632739186286926, -0.99267578125, 0.25439453125, -0.85302734375, 0, 
372, 2277228547, -92.65274810791016, -50.32647705078125, 55.90874481201172, 7.697872161865234, -6.869411468505859, -0.40834519267082214, 1.5950623750686646, -0.9817935228347778, -0.04523473605513573, -0.994140625, 0.255859375, -0.85791015625, 0, 
373, 2277236880, -92.65074920654297, -50.329429626464844, 55.90853500366211, 7.434390544891357, -6.377019882202148, -0.24502602219581604, 1.7771539688110352, -1.0895270109176636, -0.38147276639938354, -0.9951171875, 0.25390625, -0.853515625, 0, 
374, 2277245213, -92.65135192871094, -50.33222579956055, 55.9100456237793, 7.390555381774902, -5.847496509552002, -0.23410548269748688, 1.6475716829299927, -1.2414708137512207, -0.3680765628814697, -0.9951171875, 0.25341796875, -0.85400390625, 0, 
375, 2277253546, -92.65354919433594, -50.330657958984375, 55.911865234375, 7.6090006828308105, -5.818084716796875, -0.25079551339149475, 1.5081534385681152, -1.3132675886154175, 0.1501890867948532, -0.99267578125, 0.2548828125, -0.85400390625, 0, 
376, 2277261879, -92.65259552001953, -50.32786560058594, 55.910518646240234, 7.838863372802734, -6.380176067352295, -0.36446258425712585, 1.5928082466125488, -1.080869436264038, 0.30374637246131897, -0.994140625, 0.25537109375, -0.85888671875, 0, 
377, 2277270212, -92.6519775390625, -50.326725006103516, 55.90858459472656, 7.765711784362793, -6.8029398918151855, -0.4299892783164978, 1.4716529846191406, -0.9935504794120789, 0.11706985533237457, -0.9951171875, 0.2548828125, -0.8525390625, 0, 
378, 2277278545, -92.6488265991211, -50.32946014404297, 55.90730667114258, 7.484891891479492, -6.639856815338135, -0.375235915184021, 1.8623981475830078, -1.0557419061660767, -0.3561915457248688, -0.9951171875, 0.25390625, -0.85986328125, 0, 
379, 2277286878, -92.64762115478516, -50.33273696899414, 55.90555191040039, 7.43544340133667, -5.993714809417725, -0.17436636984348297, 1.713144063949585, -1.1080461740493774, -0.42145660519599915, -0.99169921875, 0.25341796875, -0.85888671875, 0, 
380, 2277295211, -92.64885711669922, -50.332298278808594, 55.90928649902344, 7.4858784675598145, -5.812323093414307, -0.18571725487709045, 1.6912951469421387, -1.347129464149475, 0.015125205740332603, -0.9931640625, 0.25439453125, -0.85986328125, 0, 
381, 2277303544, -92.65032958984375, -50.32962417602539, 55.91038513183594, 7.725210189819336, -6.195384502410889, -0.36826667189598083, 1.528823971748352, -1.265625, 0.2805655300617218, -0.9951171875, 0.25390625, -0.8544921875, 0, 
382, 2277311877, -92.65009307861328, -50.326778411865234, 55.909671783447266, 7.875716686248779, -6.6869425773620605, -0.38861003518104553, 1.5652217864990234, -1.1292802095413208, 0.3125320374965668, -0.99267578125, 0.25537109375, -0.85205078125, 0, 
383, 2277320210, -92.64888763427734, -50.32764434814453, 55.90839767456055, 7.58470344543457, -6.754075050354004, -0.46354082226753235, 1.6282072067260742, -1.0514386892318726, -0.13099120557308197, -0.9931640625, 0.2548828125, -0.85986328125, 0, 
384, 2277328543, -92.64698791503906, -50.3306999206543, 55.908809661865234, 7.362928867340088, -6.2474141120910645, -0.25558024644851685, 1.8697748184204102, -1.1824299097061157, -0.4010676443576813, -0.99462890625, 0.25390625, -0.8564453125, 0, 
385, 2277336876, -92.64722442626953, -50.331783294677734, 55.911319732666016, 7.468086242675781, -5.76321268081665, -0.2232731431722641, 1.683534026145935, -1.253637433052063, -0.1613696813583374, -0.99365234375, 0.2548828125, -0.85302734375, 0, 
386, 2277345209, -92.6495361328125, -50.33102798461914, 55.9130973815918, 7.753396034240723, -5.962775230407715, -0.23910975456237793, 1.4337440729141235, -1.273565411567688, 0.05618482828140259, -0.9931640625, 0.25341796875, -0.85986328125, 0, 
387, 2277353542, -92.64911651611328, -50.327606201171875, 55.91130447387695, 7.798510551452637, -6.570080280303955, -0.3534904718399048, 1.4888402223587036, -1.049415111541748, 0.3827919661998749, -0.994140625, 0.2529296875, -0.8525390625, 0, 
388, 2277361875, -92.64722442626953, -50.327510833740234, 55.9092903137207, 7.788180351257324, -6.770280361175537, -0.43641021847724915, 1.6442416906356812, -1.012607455253601, -0.017520135268568993, -0.99462890625, 0.25341796875, -0.85400390625, 0, 
389, 2277370208, -92.64366912841797, -50.32919692993164, 55.905818939208984, 7.451264381408691, -6.431005001068115, -0.30273404717445374, 1.8278956413269043, -0.9900670051574707, -0.22097399830818176, -0.99365234375, 0.25439453125, -0.85498046875, 0, 
390, 2277378541, -92.64366149902344, -50.33157730102539, 55.906768798828125, 7.334070682525635, -5.882609844207764, -0.18286192417144775, 1.6917561292648315, -1.2285099029541016, -0.32317477464675903, -0.99365234375, 0.255859375, -0.859375, 0, 
391, 2277386874, -92.64800262451172, -50.33123779296875, 55.91108322143555, 7.558613300323486, -5.79646635055542, -0.20005950331687927, 1.4854590892791748, -1.488724946975708, -0.00491793267428875, -0.99267578125, 0.25390625, -0.8525390625, 0, 
392, 2277395207, -92.6487808227539, -50.327880859375, 55.909915924072266, 7.789859294891357, -6.30144739151001, -0.3760550916194916, 1.4105631113052368, -1.0902442932128906, 0.3784887194633484, -0.99462890625, 0.25390625, -0.85302734375, 0, 
393, 2277403540, -92.6479263305664, -50.32511901855469, 55.90734100341797, 7.779001712799072, -6.774219512939453, -0.3565913140773773, 1.4693477153778076, -0.9838939905166626, 0.30623096227645874, -0.99365234375, 0.25439453125, -0.85546875, 0, 
394, 2277411873, -92.64673614501953, -50.32659912109375, 55.90671157836914, 7.550210475921631, -6.695037364959717, -0.36635178327560425, 1.6880676746368408, -1.1117346286773682, -0.20947320759296417, -0.99267578125, 0.255859375, -0.8583984375, 0, 
395, 2277420206, -92.6458511352539, -50.329673767089844, 55.907222747802734, 7.379261493682861, -6.106143951416016, -0.18962892889976501, 1.753383994102478, -1.1775888204574585, -0.3976609706878662, -0.99462890625, 0.25439453125, -0.8583984375, 0, 
396, 2277428539, -92.64669799804688, -50.330509185791016, 55.909019470214844, 7.438071250915527, -5.728631973266602, -0.18434007465839386, 1.6686776876449585, -1.3018178939819336, -0.13911089301109314, -0.99365234375, 0.25439453125, -0.8583984375, 0, 
397, 2277436872, -92.6483383178711, -50.32852554321289, 55.91045379638672, 7.732142448425293, -5.985040664672852, -0.2652871608734131, 1.4629952907562256, -1.218084692955017, 0.20564387738704681, -0.99365234375, 0.25439453125, -0.85986328125, 0, 
398, 2277445205, -92.64945983886719, -50.325347900390625, 55.91171646118164, 7.792688846588135, -6.596321105957031, -0.3615199625492096, 1.5961637496948242, -1.2846819162368774, 0.3488786816596985, -0.99462890625, 0.25537109375, -0.8603515625, 0, 
399, 2277453538, -92.64676666259766, -50.32491683959961, 55.90866470336914, 7.6207499504089355, -6.796459197998047, -0.4459465742111206, 1.6443955898284912, -0.9363284707069397, 0.02621617168188095, -0.99560546875, 0.25341796875, -0.857421875, 0, 
400, 2277461871, -92.6456069946289, -50.32820510864258, 55.90990447998047, 7.427562236785889, -6.3708062171936035, -0.2553882598876953, 1.8572241067886353, -1.2447235584259033, -0.4331110715866089, -0.99560546875, 0.25537109375, -0.857421875, 0, 
401, 2277470204, -92.6449203491211, -50.330135345458984, 55.90825271606445, 7.455739498138428, -5.87072229385376, -0.2018672376871109, 1.6878114938735962, -1.150027871131897, -0.25726938247680664, -0.99365234375, 0.25390625, -0.853515625, 0, 
402, 2277478537, -92.64698028564453, -50.33042907714844, 55.91022872924805, 7.604118824005127, -5.8817644119262695, -0.2094394564628601, 1.537660837173462, -1.317417025566101, -0.07589498162269592, -0.99462890625, 0.255859375, -0.85546875, 0, 
403, 2277486870, -92.6474380493164, -50.327327728271484, 55.90976333618164, 7.808405876159668, -6.438754558563232, -0.35226237773895264, 1.473983883857727, -1.1119909286499023, 0.3445754647254944, -0.994140625, 0.2548828125, -0.8525390625, 0, 
404, 2277495203, -92.64611053466797, -50.326820373535156, 55.90937042236328, 7.776538848876953, -6.748083114624023, -0.43156182765960693, 1.6584320068359375, -1.0664230585098267, 0.03656431660056114, -0.9951171875, 0.25537109375, -0.8603515625, 0, 
405, 2277503536, -92.64572143554688, -50.32759475708008, 55.90935516357422, 7.424432277679443, -6.547192573547363, -0.33550122380256653, 1.64821195602417, -1.1616567373275757, -0.12863469123840332, -0.99462890625, 0.25537109375, -0.8544921875, 0, 
406, 2277511869, -92.64505767822266, -50.331546783447266, 55.91012191772461, 7.380645275115967, -5.939810752868652, -0.1722734421491623, 1.7528717517852783, -1.2030749320983887, -0.5097745060920715, -0.9931640625, 0.25390625, -0.853515625, 0, 
407, 2277520202, -92.64755249023438, -50.33193588256836, 55.912593841552734, 7.577291488647461, -5.804313659667969, -0.15415683388710022, 1.5338443517684937, -1.346258521080017, -0.0845525860786438, -0.994140625, 0.25439453125, -0.85888671875, 0, 
408, 2277528535, -92.64911651611328, -50.33000946044922, 55.91353988647461, 7.740757465362549, -6.2647576332092285, -0.3635694682598114, 1.503004789352417, -1.248284101486206, 0.19511643052101135, -0.9951171875, 0.25537109375, -0.8583984375, 0, 
409, 2277536868, -92.65015411376953, -50.32814025878906, 55.91386032104492, 7.855493068695068, -6.728943824768066, -0.3309764862060547, 1.586891531944275, -1.2584530115127563, 0.1895069032907486, -0.99267578125, 0.25634765625, -0.85986328125, 0, 
410, 2277545201, -92.64854431152344, -50.32986831665039, 55.90773010253906, 7.605836391448975, -6.701735496520996, -0.40347468852996826, 1.6653735637664795, -1.0418846607208252, -0.23109160363674164, -0.994140625, 0.255859375, -0.859375, 0, 
411, 2277553534, -92.64762115478516, -50.332889556884766, 55.908172607421875, 7.326614856719971, -6.2113213539123535, -0.21795736253261566, 1.7545877695083618, -1.1831214427947998, -0.39489465951919556, -0.994140625, 0.25390625, -0.85400390625, 0, 
412, 2277561867, -92.650146484375, -50.33473205566406, 55.911067962646484, 7.424037933349609, -5.823514461517334, -0.20568236708641052, 1.5674501657485962, -1.3788143396377563, -0.2643645107746124, -0.9921875, 0.25341796875, -0.85400390625, 0, 
413, 2277570200, -92.65237426757812, -50.33369445800781, 55.91313552856445, 7.777403831481934, -5.966097831726074, -0.24282801151275635, 1.529438853263855, -1.3248194456100464, 0.08584611117839813, -0.99365234375, 0.25439453125, -0.853515625, 0, 
414, 2277578533, -92.65347290039062, -50.329681396484375, 55.91179656982422, 7.82234525680542, -6.5997796058654785, -0.3678341507911682, 1.34775710105896, -1.0862998962402344, 0.4522833824157715, -0.99560546875, 0.25537109375, -0.857421875, 0, 
415, 2277586866, -92.65288543701172, -50.329559326171875, 55.91021728515625, 7.6843109130859375, -6.853488922119141, -0.4290619492530823, 1.5329222679138184, -1.0451889038085938, -0.008888138458132744, -0.9951171875, 0.25439453125, -0.85791015625, 0, 
416, 2277595199, -92.65293884277344, -50.332176208496094, 55.9114990234375, 7.504562854766846, -6.383861541748047, -0.25035008788108826, 1.7841211557388306, -1.2980269193649292, -0.35152971744537354, -0.99560546875, 0.25341796875, -0.85595703125, 0, 
417, 2277603532, -92.65406799316406, -50.33473205566406, 55.91351318359375, 7.4438652992248535, -5.796480178833008, -0.18630105257034302, 1.6543594598770142, -1.3068128824234009, -0.3481999337673187, -0.99560546875, 0.2529296875, -0.85546875, 0, 
418, 2277611865, -92.65724182128906, -50.33436584472656, 55.915592193603516, 7.566639423370361, -5.85531759262085, -0.2547474503517151, 1.4145334959030151, -1.3277651071548462, 0.004264770541340113, -0.994140625, 0.25390625, -0.85302734375, 0, 
419, 2277620198, -92.65991973876953, -50.33042907714844, 55.91718673706055, 7.809332370758057, -6.362732887268066, -0.42659103870391846, 1.4931434392929077, -1.3634456396102905, 0.43463510274887085, -0.99462890625, 0.25390625, -0.8583984375, 0, 
420, 2277628531, -92.65946960449219, -50.329689025878906, 55.91603469848633, 7.853235244750977, -6.7502899169921875, -0.43344631791114807, 1.5499299764633179, -1.0837125778198242, 0.05995011329650879, -0.99560546875, 0.255859375, -0.8583984375, 0, 
421, 2277636864, -92.65669250488281, -50.33183670043945, 55.91440963745117, 7.4621052742004395, -6.717769622802734, -0.36908990144729614, 1.7783833742141724, -1.0158092975616455, -0.2808856964111328, -0.99658203125, 0.25537109375, -0.85791015625, 0, 
422, 2277645197, -92.65603637695312, -50.336265563964844, 55.914878845214844, 7.384296894073486, -6.076347351074219, -0.17178359627723694, 1.7492344379425049, -1.1917022466659546, -0.5627447962760925, -0.99609375, 0.25439453125, -0.86376953125, 0, 
423, 2277653530, -92.6587142944336, -50.337345123291016, 55.91913604736328, 7.559670448303223, -5.739131927490234, -0.2612316906452179, 1.674594521522522, -1.4851900339126587, -0.17840313911437988, -0.99658203125, 0.25341796875, -0.8583984375, 0, 
424, 2277661863, -92.65927124023438, -50.33462142944336, 55.917144775390625, 7.772393703460693, -6.132236957550049, -0.3403860032558441, 1.352649450302124, -1.0304608345031738, 0.2995457053184509, -0.9970703125, 0.2568359375, -0.8642578125, 0, 
425, 2277670196, -92.6595458984375, -50.33187484741211, 55.91514205932617, 7.779004096984863, -6.6693525314331055, -0.3430982232093811, 1.5595612525939941, -1.152896761894226, 0.30164605379104614, -0.99560546875, 0.25439453125, -0.8544921875, 0, 
426, 2277678529, -92.65623474121094, -50.332481384277344, 55.9125862121582, 7.588637351989746, -6.692434787750244, -0.45742493867874146, 1.765064001083374, -0.9686535000801086, -0.09876849502325058, -0.9951171875, 0.255859375, -0.86474609375, 0, 
427, 2277686862, -92.65602111816406, -50.33590316772461, 55.9146614074707, 7.394449710845947, -6.179450511932373, -0.2279091328382492, 1.7625025510787964, -1.261833906173706, -0.44363853335380554, -0.99658203125, 0.25439453125, -0.85595703125, 0, 
428, 2277695195, -92.6552963256836, -50.337318420410156, 55.91628646850586, 7.4329657554626465, -5.8135857582092285, -0.17738337814807892, 1.7334818840026855, -1.1693410873413086, -0.20002156496047974, -0.9951171875, 0.255859375, -0.8623046875, 0, 
429, 2277703528, -92.65718078613281, -50.33493423461914, 55.918296813964844, 7.653727054595947, -6.0197858810424805, -0.2900044322013855, 1.5607393980026245, -1.3342454433441162, 0.2472926378250122, -0.99609375, 0.25341796875, -0.8642578125, 0, 
430, 2277711861, -92.65697479248047, -50.332130432128906, 55.91728973388672, 7.829176902770996, -6.629973411560059, -0.3379586637020111, 1.5357911586761475, -1.1052542924880981, 0.30628225207328796, -0.998046875, 0.25537109375, -0.857421875, 0, 
431, 2277720194, -92.65390014648438, -50.331817626953125, 55.912837982177734, 7.754006862640381, -6.7721171379089355, -0.47604605555534363, 1.6321518421173096, -0.8792085647583008, 0.022322803735733032, -0.99658203125, 0.25390625, -0.86181640625, 0, 
432, 2277728527, -92.65130615234375, -50.33405685424805, 55.91252517700195, 7.419318199157715, -6.447614669799805, -0.3094538450241089, 1.886168122291565, -1.1300231218338013, -0.30050620436668396, -0.99658203125, 0.25390625, -0.85498046875, 0, 
433, 2277736860, -92.64998626708984, -50.33638000488281, 55.910667419433594, 7.2775983810424805, -5.8863348960876465, -0.21536894142627716, 1.660737156867981, -1.0705981254577637, -0.30445075035095215, -0.99560546875, 0.25341796875, -0.86328125, 0, 
434, 2277745193, -92.65397644042969, -50.33602523803711, 55.91244888305664, 7.619326114654541, -5.776447296142578, -0.19620460271835327, 1.4906845092773438, -1.4628033638000488, -0.002561422996222973, -0.99609375, 0.25390625, -0.86279296875, 0, 
435, 2277753526, -92.65354919433594, -50.33384323120117, 55.90995407104492, 7.839150905609131, -6.34559965133667, -0.3839918375015259, 1.424676775932312, -0.9882996678352356, 0.2347417026758194, -0.9970703125, 0.25439453125, -0.85693359375, 0, 
436, 2277761859, -92.65370178222656, -50.33323669433594, 55.90864181518555, 7.769399642944336, -6.824953556060791, -0.33812806010246277, 1.4650702476501465, -1.071110486984253, 0.044325437396764755, -0.99609375, 0.2548828125, -0.85888671875, 0, 
437, 2277770192, -92.64987182617188, -50.33545684814453, 55.90580749511719, 7.5263471603393555, -6.690162181854248, -0.33091220259666443, 1.804894208908081, -0.9391459226608276, -0.28324222564697266, -0.994140625, 0.2548828125, -0.8623046875, 0, 
438, 2277778525, -92.64817810058594, -50.339324951171875, 55.90538787841797, 7.413666248321533, -6.000009059906006, -0.1881173551082611, 1.7685987949371338, -1.1128872632980347, -0.49440598487854004, -0.9951171875, 0.25439453125, -0.86572265625, 0, 
439, 2277786858, -92.64987182617188, -50.34036636352539, 55.91104507446289, 7.4757399559021, -5.739696979522705, -0.17941580712795258, 1.6938821077346802, -1.3807353973388672, -0.16664621233940125, -0.99658203125, 0.25390625, -0.85595703125, 0, 
440, 2277795191, -92.65132904052734, -50.336891174316406, 55.91183853149414, 7.7167649269104, -6.140902519226074, -0.27581384778022766, 1.4888657331466675, -1.2287403345108032, 0.38658279180526733, -0.99560546875, 0.25341796875, -0.86328125, 0, 
441, 2277803524, -92.65154266357422, -50.3344841003418, 55.91066360473633, 7.8567938804626465, -6.677762031555176, -0.306443989276886, 1.4680157899856567, -1.0906028747558594, 0.2572309374809265, -0.9970703125, 0.2529296875, -0.85986328125, 0, 
442, 2277811857, -92.64987182617188, -50.33475112915039, 55.90879821777344, 7.6017608642578125, -6.801868438720703, -0.46918803453445435, 1.6329201459884644, -1.0227763652801514, -0.05727342516183853, -0.99658203125, 0.255859375, -0.86181640625, 0, 
443, 2277820190, -92.64826202392578, -50.33719253540039, 55.9090690612793, 7.430349349975586, -6.28932523727417, -0.16164954006671906, 1.8407800197601318, -1.1827629804611206, -0.3243274688720703, -0.994140625, 0.25390625, -0.8564453125, 0, 
444, 2277828523, -92.64781951904297, -50.33811569213867, 55.91031265258789, 7.447967529296875, -5.781185150146484, -0.12026306986808777, 1.7724921703338623, -1.257120966911316, -0.15114960074424744, -0.9951171875, 0.25341796875, -0.85498046875, 0, 
445, 2277836856, -92.6492919921875, -50.33663558959961, 55.91078567504883, 7.651330471038818, -5.941529273986816, -0.23820097744464874, 1.5189369916915894, -1.2466447353363037, 0.14632131159305573, -0.99658203125, 0.25341796875, -0.8642578125, 0, 
446, 2277845189, -92.6504898071289, -50.33370590209961, 55.906192779541016, 7.791083812713623, -6.511875629425049, -0.39980557560920715, 1.4186060428619385, -1.137067198753357, 0.3230851888656616, -0.998046875, 0.255859375, -0.85693359375, 0, 
447, 2277853522, -92.64946746826172, -50.33287048339844, 55.90354919433594, 7.780288219451904, -6.756806373596191, -0.3827488422393799, 1.4822059869766235, -0.9700621962547302, 0.07706042379140854, -0.99462890625, 0.25341796875, -0.85595703125, 0, 
448, 2277861855, -92.64801025390625, -50.33497619628906, 55.90367889404297, 7.3975958824157715, -6.465472221374512, -0.30231866240501404, 1.7916260957717896, -1.165601372718811, -0.2875710129737854, -0.99755859375, 0.25341796875, -0.86572265625, 0, 
449, 2277870188, -92.64584350585938, -50.338077545166016, 55.903079986572266, 7.392065525054932, -5.8892822265625, -0.18935292959213257, 1.7475695610046387, -1.0499531030654907, -0.3962266147136688, -0.99658203125, 0.2529296875, -0.85986328125, 0, 
450, 2277878521, -92.6498031616211, -50.33737564086914, 55.90677261352539, 7.6151533126831055, -5.799874782562256, -0.2100297212600708, 1.4701930284500122, -1.4540687799453735, 0.036794841289520264, -0.99755859375, 0.25634765625, -0.8642578125, 0, 
451, 2277886854, -92.65116119384766, -50.33440017700195, 55.90570068359375, 7.80046272277832, -6.316520690917969, -0.35857394337654114, 1.4289283752441406, -1.1669076681137085, 0.32992416620254517, -0.9951171875, 0.25244140625, -0.86083984375, 0, 
452, 2277895187, -92.65214538574219, -50.33197021484375, 55.90654754638672, 7.801933288574219, -6.76365852355957, -0.40595370531082153, 1.5113040208816528, -1.1932392120361328, 0.2615085542201996, -0.99658203125, 0.25341796875, -0.86279296875, 0, 
453, 2277903520, -92.6505355834961, -50.333641052246094, 55.90536880493164, 7.540908336639404, -6.6304426193237305, -0.36615878343582153, 1.687683343887329, -1.0688307285308838, -0.23170632123947144, -0.9970703125, 0.25341796875, -0.85986328125, 0, 
454, 2277911853, -92.64933776855469, -50.33627700805664, 55.906211853027344, 7.350805282592773, -6.019062042236328, -0.24382884800434113, 1.824412226676941, -1.2172139883041382, -0.35114553570747375, -0.99658203125, 0.25390625, -0.85986328125, 0, 
455, 2277920186, -92.65109252929688, -50.3375358581543, 55.90959930419922, 7.427635192871094, -5.790474891662598, -0.17777776718139648, 1.6873760223388672, -1.3965648412704468, -0.19115902483463287, -0.998046875, 0.25244140625, -0.85888671875, 0, 
456, 2277928519, -92.65338134765625, -50.335140228271484, 55.910789489746094, 7.77277135848999, -6.095256328582764, -0.3108205795288086, 1.4384827613830566, -1.2724127769470215, 0.24993091821670532, -0.99462890625, 0.25390625, -0.861328125, 0, 
457, 2277936852, -92.65359497070312, -50.33149337768555, 55.91315841674805, 7.860814571380615, -6.724879264831543, -0.3968450725078583, 1.6135560274124146, -1.2089920043945312, 0.4041542410850525, -0.99658203125, 0.251953125, -0.86083984375, 0, 
458, 2277945185, -92.65050506591797, -50.332088470458984, 55.910133361816406, 7.610741138458252, -6.8303961753845215, -0.44786936044692993, 1.5958051681518555, -0.8480873107910156, -0.08255467563867569, -0.99658203125, 0.25439453125, -0.85693359375, 0, 
459, 2277953518, -92.6497573852539, -50.335182189941406, 55.911827087402344, 7.423439979553223, -6.273496627807617, -0.18451425433158875, 1.849924087524414, -1.2799688577651978, -0.41110843420028687, -0.99560546875, 0.25390625, -0.85986328125, 0, 
460, 2277961851, -92.64974975585938, -50.33717346191406, 55.91260528564453, 7.39470100402832, -5.726589679718018, -0.1808362752199173, 1.6777453422546387, -1.214114785194397, -0.27540427446365356, -0.99609375, 0.25439453125, -0.86328125, 0, 
461, 2277970184, -92.65386962890625, -50.33647537231445, 55.91718673706055, 7.635740756988525, -5.871694564819336, -0.24394959211349487, 1.501877784729004, -1.4968702793121338, 0.04043206945061684, -0.9970703125, 0.25439453125, -0.857421875, 0, 
462, 2277978517, -92.65510559082031, -50.33286666870117, 55.91659927368164, 7.817021369934082, -6.466691017150879, -0.409288227558136, 1.4029045104980469, -1.140499472618103, 0.3993387520313263, -0.99609375, 0.25537109375, -0.8642578125, 0, 
463, 2277986850, -92.65499877929688, -50.332275390625, 55.91641616821289, 7.78255558013916, -6.799661159515381, -0.38389062881469727, 1.5676807165145874, -1.1245672702789307, 0.04473526030778885, -0.99560546875, 0.25537109375, -0.86279296875, 0, 
464, 2277995183, -92.653564453125, -50.334930419921875, 55.91974639892578, 7.412354946136475, -6.5966901779174805, -0.3477741777896881, 1.838679313659668, -1.1990278959274292, -0.35030025243759155, -0.99658203125, 0.25390625, -0.85498046875, 0, 
465, 2278003516, -92.65264892578125, -50.33828353881836, 55.919532775878906, 7.391325950622559, -5.9430060386657715, -0.21043984591960907, 1.6944968700408936, -1.1313037872314453, -0.435313880443573, -0.994140625, 0.2529296875, -0.861328125, 0, 
466, 2278011849, -92.65562438964844, -50.33757781982422, 55.923255920410156, 7.598108768463135, -5.781613826751709, -0.17696915566921234, 1.5903236865997314, -1.4569376707077026, 0.036974143236875534, -0.994140625, 0.251953125, -0.86083984375, 0, 
467, 2278020182, -92.6560287475586, -50.33536148071289, 55.92158126831055, 7.756897449493408, -6.305140495300293, -0.4032069146633148, 1.4317971467971802, -1.069650411605835, 0.24147818982601166, -0.994140625, 0.25341796875, -0.85546875, 0, 
468, 2278028515, -92.65618896484375, -50.33456039428711, 55.92144012451172, 7.828629493713379, -6.75788688659668, -0.3868104815483093, 1.5713948011398315, -1.1595820188522339, 0.06128205358982086, -0.9951171875, 0.25439453125, -0.85986328125, 0, 
469, 2278036848, -92.65589141845703, -50.336036682128906, 55.92142868041992, 7.533302307128906, -6.6629557609558105, -0.42189937829971313, 1.6613264083862305, -1.165319561958313, -0.2039405256509781, -0.99462890625, 0.2529296875, -0.86181640625, 0, 
470, 2278045181, -92.6549301147461, -50.33873748779297, 55.92119598388672, 7.358169078826904, -6.050609588623047, -0.16256235539913177, 1.7204443216323853, -1.1433939933776855, -0.353502094745636, -0.994140625, 0.2568359375, -0.85986328125, 0, 
471, 2278053514, -92.6579360961914, -50.34005355834961, 55.924591064453125, 7.463473796844482, -5.779571533203125, -0.1834171563386917, 1.5559495687484741, -1.4201300144195557, -0.2016352415084839, -0.99755859375, 0.25244140625, -0.8544921875, 0, 
472, 2278061847, -92.65967559814453, -50.33861541748047, 55.92592239379883, 7.731820583343506, -6.07276725769043, -0.3003574311733246, 1.5185271501541138, -1.2759730815887451, 0.13312998414039612, -0.994140625, 0.25341796875, -0.861328125, 0, 
473, 2278070180, -92.66197967529297, -50.33663558959961, 55.92546081542969, 7.8617424964904785, -6.673700332641602, -0.3814134895801544, 1.4312595129013062, -1.2586324214935303, 0.2040814310312271, -0.99365234375, 0.25341796875, -0.8544921875, 0, 
474, 2278078513, -92.65843200683594, -50.3366584777832, 55.922054290771484, 7.719620227813721, -6.784402370452881, -0.46141713857650757, 1.7162177562713623, -0.9055656790733337, -0.02346264012157917, -0.99365234375, 0.25537109375, -0.86181640625, 0, 
475, 2278086846, -92.6569595336914, -50.3409309387207, 55.9215202331543, 7.413315296173096, -6.316206932067871, -0.2492993175983429, 1.7497211694717407, -1.1141679286956787, -0.5420228242874146, -0.9970703125, 0.2548828125, -0.85986328125, 0, 
476, 2278095179, -92.65711212158203, -50.3431510925293, 55.92154312133789, 7.343607425689697, -5.796669006347656, -0.2209966629743576, 1.6930111646652222, -1.23358154296875, -0.29868757724761963, -0.99609375, 0.2548828125, -0.86083984375, 0, 
477, 2278103512, -92.66049194335938, -50.34190368652344, 55.92472457885742, 7.649735450744629, -5.843615531921387, -0.20745864510536194, 1.4925541877746582, -1.4180550575256348, 0.10500555485486984, -0.99462890625, 0.25390625, -0.85595703125, 0, 
478, 2278111845, -92.6618423461914, -50.33827209472656, 55.92479705810547, 7.836411952972412, -6.473130226135254, -0.3971744477748871, 1.4457314014434814, -1.1925475597381592, 0.40197697281837463, -0.9951171875, 0.25439453125, -0.857421875, 0, 
479, 2278120178, -92.66024780273438, -50.33728790283203, 55.92206573486328, 7.734775066375732, -6.8619160652160645, -0.4343475103378296, 1.5629422664642334, -0.9710355997085571, 0.09614302963018417, -0.99658203125, 0.25341796875, -0.8564453125, 0, 
480, 2278128511, -92.6589584350586, -50.33922576904297, 55.92241287231445, 7.496589183807373, -6.611352443695068, -0.2934790849685669, 1.7891414165496826, -1.183249592781067, -0.2653891146183014, -0.99365234375, 0.25390625, -0.859375, 0, 
481, 2278136844, -92.65745544433594, -50.34221649169922, 55.92379379272461, 7.467714309692383, -5.9031758308410645, -0.1974254846572876, 1.8200324773788452, -1.167778730392456, -0.3879531919956207, -0.99462890625, 0.25390625, -0.85888671875, 0, 
482, 2278145177, -92.66110229492188, -50.34262466430664, 55.925411224365234, 7.48404598236084, -5.7740583419799805, -0.18715853989124298, 1.512123465538025, -1.4372915029525757, -0.09351757168769836, -0.9951171875, 0.2529296875, -0.85595703125, 0, 
483, 2278153510, -92.66267395019531, -50.339393615722656, 55.92485809326172, 7.726537704467773, -6.242305278778076, -0.4004287123680115, 1.3611787557601929, -1.1421129703521729, 0.356921523809433, -0.9951171875, 0.25439453125, -0.85595703125, 0, 
484, 2278161843, -92.6620864868164, -50.33774948120117, 55.92396926879883, 7.872276782989502, -6.670023441314697, -0.37312257289886475, 1.593525767326355, -1.1081488132476807, 0.16509656608104706, -0.99462890625, 0.25439453125, -0.85546875, 0, 
485, 2278170176, -92.65943908691406, -50.33927536010742, 55.92042541503906, 7.5411882400512695, -6.756038665771484, -0.41879674792289734, 1.6016967296600342, -0.8899154663085938, -0.19899700582027435, -0.9951171875, 0.25390625, -0.8583984375, 0, 
486, 2278178509, -92.6568832397461, -50.34286880493164, 55.919437408447266, 7.323178768157959, -6.23464822769165, -0.11740013211965561, 1.8179577589035034, -1.07064950466156, -0.46028777956962585, -0.99658203125, 0.25439453125, -0.85693359375, 0, 
