sep=,
PacketCounter,SampleTimeFine,Euler_X,Euler_Y,Euler_Z,Acc_X,Acc_Y,Acc_Z,Gyr_X,Gyr_Y,Gyr_Z,Mag_X,Mag_Y,Mag_Z,Status,
0, 2406725554, 74.00426483154297, -72.32600402832031, 172.69113159179688, 0, 0, 0, 0, 0, 0, -1.02587890625, 0.3193359375, 0.17431640625, 0, 
1, 2406733887, 73.97068786621094, -72.3305435180664, 172.7136688232422, 10.039852142333984, 3.508340358734131, 0.41205620765686035, 1.2763444185256958, 1.133878231048584, 1.053218960762024, -1.0166015625, 0.318359375, 0.19189453125, 0, 
2, 2406742220, 73.95376586914062, -72.32750701904297, 172.72286987304688, 8.04899787902832, 1.1752656698226929, 0.9113975763320923, 1.8194433450698853, 0.9718425273895264, 0.026241784915328026, -1.01025390625, 0.31787109375, 0.1845703125, 0, 
3, 2406750553, 73.93489837646484, -72.31866455078125, 172.74853515625, 8.293086051940918, 0.9600245952606201, 1.260030746459961, 3.199230909347534, 1.625543475151062, -0.47642481327056885, -1.0322265625, 0.328125, 0.15380859375, 0, 
4, 2406758886, 74.00386047363281, -72.32098388671875, 172.69268798828125, 9.5286865234375, 2.821749210357666, 1.3422822952270508, 4.682679653167725, -1.4846010208129883, -0.006992687005549669, -1.02978515625, 0.32373046875, 0.16162109375, 0, 
5, 2406767219, 74.00625610351562, -72.3216781616211, 172.6948699951172, 10.695815086364746, 5.291123390197754, 0.28072893619537354, 4.002621173858643, 0.7734857797622681, 0.46183738112449646, -1.02490234375, 0.3251953125, 0.1689453125, 0, 
6, 2406775552, 74.00277709960938, -72.33306884765625, 172.68479919433594, 10.471229553222656, 4.547120571136475, 0.3936198949813843, 1.2229387760162354, -0.18058034777641296, 1.4989322423934937, -1.021484375, 0.31591796875, 0.18408203125, 0, 
7, 2406783885, 73.93563079833984, -72.32955169677734, 172.72256469726562, 8.433300971984863, 1.9266291856765747, 1.0137176513671875, 1.4752391576766968, 2.6951940059661865, 0.49252334237098694, -1.0078125, 0.31787109375, 0.19384765625, 0, 
8, 2406792218, 73.94149017333984, -72.3256607055664, 172.71116638183594, 8.367532730102539, 0.7610630393028259, 1.0831880569458008, 2.1973042488098145, 0.27923357486724854, -0.2775558531284332, -1.0205078125, 0.32373046875, 0.16015625, 0, 
9, 2406800551, 73.97357940673828, -72.32220458984375, 172.69918823242188, 8.682989120483398, 1.7341423034667969, 1.468108057975769, 4.407505989074707, -0.058810289949178696, -0.28721243143081665, -1.03369140625, 0.328125, 0.1513671875, 0, 
10, 2406808884, 74.0024642944336, -72.32240295410156, 172.68634033203125, 10.643491744995117, 4.444413661956787, 0.1220763549208641, 4.791130065917969, 0.09486233443021774, 0.17562399804592133, -1.0283203125, 0.32568359375, 0.16650390625, 0, 
11, 2406817217, 74.00897216796875, -72.33038330078125, 172.67088317871094, 10.230751991271973, 5.266500473022461, 0.942118227481842, 1.8042924404144287, -0.29494789242744446, 1.0739024877548218, -1.02294921875, 0.322265625, 0.1728515625, 0, 
12, 2406825550, 73.94746398925781, -72.33332824707031, 172.7227020263672, 9.626016616821289, 2.927112102508545, 0.5139920115470886, 1.3425060510635376, 2.2679226398468018, 1.1398974657058716, -1.01416015625, 0.3173828125, 0.19970703125, 0, 
13, 2406833883, 73.94474792480469, -72.33004760742188, 172.71731567382812, 8.141944885253906, 0.9351340532302856, 1.1139694452285767, 1.6243138313293457, 0.36685988306999207, -0.139802485704422, -1.013671875, 0.322265625, 0.17724609375, 0, 
14, 2406842216, 73.93331909179688, -72.32184600830078, 172.73800659179688, 8.312965393066406, 1.1661046743392944, 1.424477219581604, 3.792328119277954, 1.546292781829834, -0.4528084099292755, -1.03125, 0.3271484375, 0.15283203125, 0, 
15, 2406850549, 74.00048065185547, -72.3239974975586, 172.68572998046875, 10.027213096618652, 3.282345771789551, 0.871397078037262, 4.7797064781188965, -1.4176198244094849, 0.01671328768134117, -1.0341796875, 0.3271484375, 0.1630859375, 0, 
16, 2406858882, 73.9955825805664, -72.32722473144531, 172.6952667236328, 10.472024917602539, 5.4324727058410645, 0.42755281925201416, 3.297025680541992, 0.7756118178367615, 0.7529687881469727, -1.02685546875, 0.3203125, 0.1708984375, 0, 
17, 2406867215, 73.97835540771484, -72.33619689941406, 172.70083618164062, 10.134150505065918, 4.05327033996582, 0.5859735608100891, 0.9822931885719299, 0.2961646020412445, 1.3663018941879272, -1.01953125, 0.3203125, 0.185546875, 0, 
18, 2406875548, 73.93453979492188, -72.33247375488281, 172.73611450195312, 8.20700740814209, 1.4085041284561157, 0.8216885328292847, 1.5766457319259644, 1.9087599515914917, 0.2074112594127655, -1.0087890625, 0.31982421875, 0.193359375, 0, 
19, 2406883881, 73.9176025390625, -72.32516479492188, 172.75521850585938, 8.470687866210938, 0.8921701312065125, 1.1060510873794556, 2.7990593910217285, 1.3823106288909912, -0.3510943055152893, -1.0234375, 0.32666015625, 0.1533203125, 0, 
20, 2406892214, 73.97181701660156, -72.32453155517578, 172.71434020996094, 9.084159851074219, 2.245150089263916, 1.6381816864013672, 4.630964279174805, -0.8601773381233215, -0.2016608864068985, -1.0322265625, 0.328125, 0.158203125, 0, 
21, 2406900547, 73.98314666748047, -72.32271575927734, 172.7285614013672, 10.794635772705078, 4.853780269622803, 0.18815644085407257, 4.47005558013916, 0.6720279455184937, 0.12311481684446335, -1.02490234375, 0.322265625, 0.16845703125, 0, 
22, 2406908880, 73.99411010742188, -72.33354187011719, 172.7050018310547, 10.424064636230469, 4.848718643188477, 0.5384044647216797, 1.4218077659606934, -0.6323642134666443, 1.294018268585205, -1.01904296875, 0.3193359375, 0.1787109375, 0, 
23, 2406917213, 73.92034149169922, -72.3298110961914, 172.79644775390625, 9.024054527282715, 2.482058048248291, 0.6916292905807495, 1.5137372016906738, 2.9555625915527344, 0.5433931350708008, -1.0087890625, 0.31689453125, 0.19677734375, 0, 
24, 2406925546, 73.92740631103516, -72.3262710571289, 172.78126525878906, 8.11788558959961, 0.9388628005981445, 1.256165862083435, 1.908836841583252, 0.13827845454216003, -0.2779400646686554, -1.01904296875, 0.32080078125, 0.166015625, 0, 
25, 2406933879, 73.93712615966797, -72.32091522216797, 172.78286743164062, 8.47180461883545, 1.409074306488037, 1.4436510801315308, 4.169549465179443, 0.755325436592102, -0.29295000433921814, -1.03466796875, 0.33154296875, 0.14794921875, 0, 
26, 2406942212, 73.9844970703125, -72.32240295410156, 172.7507781982422, 10.56904411315918, 3.833488941192627, 0.2681652009487152, 4.813209533691406, -0.6215550899505615, 0.130081906914711, -1.0302734375, 0.3232421875, 0.16455078125, 0, 
27, 2406950545, 73.98377227783203, -72.3274917602539, 172.74755859375, 10.254809379577637, 5.416255474090576, 1.0568796396255493, 2.228092670440674, 0.19747294485569, 0.8525570631027222, -1.0244140625, 0.322265625, 0.1708984375, 0, 
28, 2406958878, 73.9411392211914, -72.33234405517578, 172.77859497070312, 10.026399612426758, 3.4042906761169434, 0.33556145429611206, 1.2275750637054443, 1.4768015146255493, 1.1592363119125366, -1.01513671875, 0.31591796875, 0.193359375, 0, 
29, 2406967211, 73.92709350585938, -72.32815551757812, 172.79537963867188, 8.097180366516113, 1.0975302457809448, 0.9353261590003967, 1.716986060142517, 0.840774416923523, -0.12356305867433548, -1.01025390625, 0.3193359375, 0.1796875, 0, 
30, 2406975544, 73.90882110595703, -72.3196792602539, 172.82066345214844, 8.248991012573242, 0.935891330242157, 1.3996102809906006, 3.495356798171997, 1.7159615755081177, -0.4345966875553131, -1.0302734375, 0.3271484375, 0.14794921875, 0, 
31, 2406983877, 73.97860717773438, -72.320556640625, 172.76271057128906, 9.529772758483887, 2.8855159282684326, 1.2571043968200684, 4.808995723724365, -1.4634565114974976, -0.1551838517189026, -1.0322265625, 0.32568359375, 0.1572265625, 0, 
32, 2406992210, 73.97838592529297, -72.32154083251953, 172.77130126953125, 10.654424667358398, 5.436727523803711, 0.2100716531276703, 3.7544448375701904, 0.8183363676071167, 0.48150917887687683, -1.02490234375, 0.32275390625, 0.16748046875, 0, 
33, 2407000543, 73.96875, -72.33362579345703, 172.76022338867188, 10.435158729553223, 4.502302646636963, 0.4541154205799103, 1.0360060930252075, -0.07051598280668259, 1.647341012954712, -1.0234375, 0.3203125, 0.181640625, 0, 
34, 2407008876, 73.9123764038086, -72.33008575439453, 172.80856323242188, 8.374842643737793, 1.7399033308029175, 1.165191411972046, 1.5601247549057007, 2.361132860183716, 0.3638373911380768, -1.01025390625, 0.3154296875, 0.19482421875, 0, 
35, 2407017209, 73.90645599365234, -72.32392883300781, 172.82537841796875, 8.543506622314453, 0.6811774373054504, 0.8873304724693298, 2.3372349739074707, 0.7966155409812927, -0.37773311138153076, -1.021484375, 0.32568359375, 0.1591796875, 0, 
36, 2407025542, 73.944091796875, -72.31969451904297, 172.79983520507812, 8.66990852355957, 2.009026527404785, 1.5553216934204102, 4.395671844482422, -0.2027110755443573, -0.45957061648368835, -1.03271484375, 0.32568359375, 0.15283203125, 0, 
37, 2407033875, 73.97281646728516, -72.31920623779297, 172.78749084472656, 10.612737655639648, 4.331352710723877, 0.15970776975154877, 4.831088066101074, 0.0973212942481041, 0.12367834895849228, -1.0302734375, 0.32421875, 0.16748046875, 0, 
38, 2407042208, 73.98123931884766, -72.32718658447266, 172.77099609375, 10.163363456726074, 5.139372825622559, 0.956274151802063, 1.9194411039352417, -0.2928731441497803, 1.0419485569000244, -1.021484375, 0.3232421875, 0.177734375, 0, 
39, 2407050541, 73.9177017211914, -72.32852935791016, 172.8193817138672, 9.645009994506836, 2.931509494781494, 0.2878592312335968, 1.2352594137191772, 2.32816743850708, 0.9932815432548523, -1.01220703125, 0.31640625, 0.1943359375, 0, 
40, 2407058874, 73.92292785644531, -72.32484436035156, 172.8038330078125, 7.99976110458374, 1.0984978675842285, 1.3560287952423096, 1.6446514129638672, 0.12708501517772675, -0.29515281319618225, -1.01318359375, 0.32080078125, 0.17529296875, 0, 
41, 2407067207, 73.90690612792969, -72.3182144165039, 172.82777404785156, 8.422667503356934, 1.2455968856811523, 1.3837329149246216, 3.6267452239990234, 1.5782723426818848, -0.21868152916431427, -1.03125, 0.328125, 0.14892578125, 0, 
42, 2407075540, 73.9740982055664, -72.32037353515625, 172.7754364013672, 10.188505172729492, 3.2569868564605713, 0.8079922199249268, 4.875144958496094, -1.3536611795425415, 0.005110039841383696, -1.02734375, 0.32470703125, 0.1669921875, 0, 
43, 2407083873, 73.96484375, -72.32341003417969, 172.78904724121094, 10.4287691116333, 5.353489875793457, 0.637580156326294, 2.9985177516937256, 0.8154419660568237, 0.7731272578239441, -1.0234375, 0.3203125, 0.169921875, 0, 
44, 2407092206, 73.9447250366211, -72.32965850830078, 172.79669189453125, 10.133569717407227, 3.9367992877960205, 0.5436190962791443, 1.2584658861160278, 0.6098365187644958, 1.0844171047210693, -1.0166015625, 0.31884765625, 0.19140625, 0, 
45, 2407100539, 73.914794921875, -72.32522583007812, 172.8426971435547, 8.101404190063477, 1.400262475013733, 0.839888334274292, 1.7853503227233887, 1.4517762660980225, 0.024115800857543945, -1.01025390625, 0.318359375, 0.1826171875, 0, 
46, 2407108872, 73.90074920654297, -72.3177261352539, 172.85813903808594, 8.405592918395996, 0.893743097782135, 1.172731876373291, 2.8779258728027344, 1.3418912887573242, -0.42294222116470337, -1.02685546875, 0.3291015625, 0.14990234375, 0, 
47, 2407117205, 73.95838165283203, -72.31866455078125, 172.83399963378906, 9.1821928024292, 2.397514581680298, 1.5991973876953125, 4.545413017272949, -1.0990556478500366, -0.04382595419883728, -1.0361328125, 0.32666015625, 0.154296875, 0, 
48, 2407125538, 73.9702377319336, -72.31892395019531, 172.83448791503906, 10.766773223876953, 5.0626301765441895, 0.21516558527946472, 4.270290374755859, 0.558275043964386, 0.3202419877052307, -1.0302734375, 0.3193359375, 0.173828125, 0, 
49, 2407133871, 73.97103881835938, -72.32975769042969, 172.8148956298828, 10.45849609375, 4.855907440185547, 0.37398195266723633, 1.3616015911102295, -0.3121734857559204, 1.4200018644332886, -1.03076171875, 0.3095703125, 0.1982421875, 0, 
50, 2407142204, 73.90007781982422, -72.3257064819336, 172.87710571289062, 8.721352577209473, 2.231243848800659, 0.9216406345367432, 1.3921208381652832, 2.860123872756958, 0.44575169682502747, -1.0166015625, 0.30419921875, 0.2177734375, 0, 
51, 2407150537, 73.90286254882812, -72.32140350341797, 172.8684844970703, 8.29341983795166, 0.763775646686554, 1.1629821062088013, 1.953277826309204, 0.2989822030067444, -0.2911570072174072, -1.025390625, 0.3125, 0.177734375, 0, 
52, 2407158870, 73.93002319335938, -72.31681823730469, 172.85401916503906, 8.581884384155273, 1.4505810737609863, 1.4606869220733643, 4.399514198303223, 0.1958848536014557, -0.3881325125694275, -1.03759765625, 0.31689453125, 0.16552734375, 0, 
53, 2407167203, 73.96385192871094, -72.31658172607422, 172.84161376953125, 10.5320405960083, 4.273303031921387, 0.13914605975151062, 4.9646148681640625, -0.05711974576115608, 0.10510800778865814, -1.03662109375, 0.31591796875, 0.18115234375, 0, 
54, 2407175536, 73.97171783447266, -72.32428741455078, 172.82601928710938, 10.211990356445312, 5.422307968139648, 1.0808850526809692, 1.9529188871383667, -0.25224897265434265, 1.0206375122070312, -1.0283203125, 0.3095703125, 0.181640625, 0, 
55, 2407183869, 73.91458892822266, -72.32757568359375, 172.87356567382812, 9.901875495910645, 3.100198745727539, 0.32181063294410706, 1.2232334613800049, 2.024754047393799, 1.1509244441986084, -1.02001953125, 0.306640625, 0.2041015625, 0, 
56, 2407192202, 73.9109115600586, -72.32516479492188, 172.8675994873047, 8.161231994628906, 0.8949152827262878, 1.2020870447158813, 1.6759904623031616, 0.42186641693115234, -0.05513463914394379, -1.01708984375, 0.31103515625, 0.189453125, 0, 
57, 2407200535, 73.89507293701172, -72.31623077392578, 172.89247131347656, 8.263415336608887, 0.9972361326217651, 1.3948720693588257, 3.687540292739868, 1.6656296253204346, -0.47842270135879517, -1.0361328125, 0.32080078125, 0.16162109375, 0, 
58, 2407208868, 73.96929931640625, -72.31803894042969, 172.83177185058594, 9.714839935302734, 3.2366554737091064, 1.0952836275100708, 4.763492107391357, -1.6359299421310425, -0.1199258342385292, -1.0380859375, 0.31591796875, 0.17578125, 0, 
59, 2407217201, 73.96119689941406, -72.31889343261719, 172.8481903076172, 10.511222839355469, 5.415624141693115, 0.23534607887268066, 3.6519365310668945, 1.044535756111145, 0.5636283755302429, -1.0322265625, 0.3173828125, 0.18017578125, 0, 
60, 2407225534, 73.95271301269531, -72.32858276367188, 172.84063720703125, 10.252520561218262, 4.185006618499756, 0.48999834060668945, 0.913902997970581, -0.03414377197623253, 1.3274961709976196, -1.025390625, 0.3115234375, 0.19921875, 0, 
61, 2407233867, 73.89405822753906, -72.3233413696289, 172.88890075683594, 8.369619369506836, 1.5910884141921997, 0.9443836808204651, 1.421807885169983, 2.4218900203704834, 0.20359474420547485, -1.017578125, 0.3095703125, 0.2021484375, 0, 
62, 2407242200, 73.89208984375, -72.31890869140625, 172.88929748535156, 8.583410263061523, 0.9319395422935486, 1.0071756839752197, 2.604301929473877, 0.7115890979766846, -0.2224980741739273, -1.02978515625, 0.32080078125, 0.166015625, 0, 
63, 2407250533, 73.93807983398438, -72.3178939819336, 172.85888671875, 8.836329460144043, 1.9912298917770386, 1.7572001218795776, 4.469338417053223, -0.6287782788276672, -0.14769169688224792, -1.03955078125, 0.3193359375, 0.171875, 0, 
64, 2407258866, 73.95600128173828, -72.31819152832031, 172.85545349121094, 10.652709007263184, 4.800760746002197, 0.18572382628917694, 4.554402828216553, 0.4186262786388397, 0.2840234637260437, -1.02685546875, 0.31396484375, 0.18017578125, 0, 
65, 2407267199, 73.96700286865234, -72.3287582397461, 172.83489990234375, 10.466166496276855, 4.915615558624268, 0.5548237562179565, 1.6534627676010132, -0.5903568267822266, 1.3069535493850708, -1.029296875, 0.3154296875, 0.18798828125, 0, 
66, 2407275532, 73.89769744873047, -72.32727813720703, 172.8978729248047, 9.106908798217773, 2.5664446353912354, 0.8203408718109131, 1.6792051792144775, 2.804643392562866, 0.7469751834869385, -1.0146484375, 0.3076171875, 0.21337890625, 0, 
67, 2407283865, 73.90528869628906, -72.32298278808594, 172.8828887939453, 8.192350387573242, 0.9742911458015442, 1.0309772491455078, 1.815588116645813, 0.07927605509757996, -0.35031306743621826, -1.02197265625, 0.31982421875, 0.17724609375, 0, 
68, 2407292198, 73.9146957397461, -72.31714630126953, 172.88421630859375, 8.412464141845703, 1.378476858139038, 1.4254268407821655, 4.074955940246582, 0.7895715832710266, -0.37074044346809387, -1.0390625, 0.3232421875, 0.16455078125, 0, 
69, 2407300531, 73.96546173095703, -72.31696319580078, 172.85220336914062, 10.453934669494629, 3.6380250453948975, 0.4944613575935364, 4.800249099731445, -0.7319779992103577, -0.08268275856971741, -1.0361328125, 0.3173828125, 0.17822265625, 0, 
70, 2407308864, 73.96589660644531, -72.32364654541016, 172.84910583496094, 10.411881446838379, 5.465386390686035, 0.8363335132598877, 2.496119976043701, 0.21988539397716522, 1.0254018306732178, -1.03076171875, 0.31640625, 0.1787109375, 0, 
71, 2407317197, 73.93255615234375, -72.32862854003906, 172.86624145507812, 9.951515197753906, 3.584263324737549, 0.47571638226509094, 1.1575970649719238, 1.0709953308105469, 1.0926135778427124, -1.02001953125, 0.310546875, 0.20458984375, 0, 
72, 2407325530, 73.91806030273438, -72.3241958618164, 172.8710174560547, 8.086660385131836, 1.1827796697616577, 0.9122772812843323, 1.5987251996994019, 0.8633918166160583, -0.17917156219482422, -1.0146484375, 0.310546875, 0.19140625, 0, 
73, 2407333863, 73.8968734741211, -72.31524658203125, 172.9001007080078, 8.349802017211914, 0.8394240140914917, 1.308614730834961, 3.3584482669830322, 1.7646284103393555, -0.4531157612800598, -1.03564453125, 0.3203125, 0.1611328125, 0, 
74, 2407342196, 73.96795654296875, -72.31776428222656, 172.84506225585938, 9.42153263092041, 2.675229787826538, 1.4132229089736938, 5.033594131469727, -1.4621374607086182, 0.0189417265355587, -1.03759765625, 0.3173828125, 0.17333984375, 0, 
75, 2407350529, 73.96971893310547, -72.31800079345703, 172.8500213623047, 10.62782096862793, 5.444976329803467, 0.17271704971790314, 3.759106397628784, 0.7374210357666016, 0.3988008499145508, -1.029296875, 0.31689453125, 0.18017578125, 0, 
76, 2407358862, 73.96178436279297, -72.3291244506836, 172.84410095214844, 10.518082618713379, 4.6464948654174805, 0.4062393605709076, 1.1630526781082153, -0.028995314612984657, 1.5117648839950562, -1.021484375, 0.31103515625, 0.1904296875, 0, 
77, 2407367195, 73.90409088134766, -72.32464599609375, 172.87791442871094, 8.458266258239746, 1.6836336851119995, 1.0415990352630615, 1.2784961462020874, 2.3184595108032227, 0.2647871673107147, -1.01513671875, 0.310546875, 0.20458984375, 0, 
78, 2407375528, 73.90296936035156, -72.31912231445312, 172.87689208984375, 8.51361083984375, 0.7058538198471069, 0.9627128839492798, 2.5396900177001953, 0.6973347663879395, -0.3584456443786621, -1.02490234375, 0.31787109375, 0.1669921875, 0, 
79, 2407383861, 73.94524383544922, -72.31746673583984, 172.8413543701172, 8.540972709655762, 1.9083518981933594, 1.7029907703399658, 4.484835147857666, -0.4671524465084076, -0.18995516002178192, -1.03759765625, 0.3212890625, 0.16162109375, 0, 
80, 2407392194, 73.96572875976562, -72.31666564941406, 172.83740234375, 10.622406005859375, 4.580851078033447, 0.05977100878953934, 4.800351142883301, 0.43883591890335083, 0.15285295248031616, -1.03173828125, 0.314453125, 0.17431640625, 0, 
81, 2407400527, 73.97760009765625, -72.3262710571289, 172.81353759765625, 10.373717308044434, 5.220597267150879, 0.7467994093894958, 1.5990583896636963, -0.6068012714385986, 1.1825451850891113, -1.0263671875, 0.31396484375, 0.185546875, 0, 
82, 2407408860, 73.91154479980469, -72.32650756835938, 172.8702392578125, 9.536993980407715, 2.7387313842773438, 0.4878711998462677, 1.3538787364959717, 2.5278303623199463, 0.8840369582176208, -1.013671875, 0.30859375, 0.20361328125, 0, 
83, 2407417193, 73.91687774658203, -72.3230209350586, 172.86053466796875, 7.9708123207092285, 0.9089219570159912, 1.4357085227966309, 1.7171525955200195, 0.10693942755460739, -0.24216978251934052, -1.02197265625, 0.31591796875, 0.1796875, 0, 
84, 2407425526, 73.91311645507812, -72.31625366210938, 172.8744659423828, 8.43105697631836, 1.2691409587860107, 1.2175168991088867, 3.9364211559295654, 1.2621668577194214, -0.35436010360717773, -1.0361328125, 0.3212890625, 0.15869140625, 0, 
85, 2407433859, 73.97180938720703, -72.31806945800781, 172.83535766601562, 10.132465362548828, 3.510744571685791, 0.9239486455917358, 4.8316521644592285, -1.0787947177886963, 0.0714765265583992, -1.03466796875, 0.31787109375, 0.17529296875, 0, 
86, 2407442192, 73.96402740478516, -72.3211898803711, 172.84446716308594, 10.465577125549316, 5.38741397857666, 0.5932174324989319, 2.902848482131958, 0.7652636766433716, 0.7385992407798767, -1.0283203125, 0.31591796875, 0.1806640625, 0, 
87, 2407450525, 73.94007873535156, -72.32872009277344, 172.84934997558594, 10.171205520629883, 3.85713267326355, 0.3859657049179077, 1.0590335130691528, 0.614037275314331, 1.2708631753921509, -1.02294921875, 0.31005859375, 0.201171875, 0, 
88, 2407458858, 73.90802001953125, -72.32433319091797, 172.87188720703125, 8.066438674926758, 1.3851088285446167, 1.0797773599624634, 1.5348432064056396, 1.4853053092956543, 0.0025230017490684986, -1.013671875, 0.31103515625, 0.19873046875, 0, 
89, 2407467191, 73.89217376708984, -72.31708526611328, 172.8896942138672, 8.476632118225098, 0.864478588104248, 0.9689096808433533, 2.9823551177978516, 1.398678183555603, -0.33669912815093994, -1.02880859375, 0.32177734375, 0.16162109375, 0, 
90, 2407475524, 73.9544448852539, -72.31857299804688, 172.84129333496094, 9.14150619506836, 2.4048171043395996, 1.5708696842193604, 4.7363409996032715, -1.194775938987732, -0.03247884660959244, -1.0380859375, 0.31640625, 0.17041015625, 0, 
91, 2407483857, 73.96296691894531, -72.3173828125, 172.85130310058594, 10.677501678466797, 5.098158359527588, 0.21974991261959076, 4.010894298553467, 0.6122185587882996, 0.18392299115657806, -1.02978515625, 0.318359375, 0.177734375, 0, 
92, 2407492190, 73.96778106689453, -72.32917022705078, 172.83383178710938, 10.583643913269043, 4.762088298797607, 0.3788376450538635, 1.3753948211669922, -0.4532182812690735, 1.4686050415039062, -1.02490234375, 0.3125, 0.18115234375, 0, 
93, 2407500523, 73.9007797241211, -72.32603454589844, 172.8985137939453, 8.655585289001465, 2.164076328277588, 1.128869891166687, 1.5072057247161865, 2.685844659805298, 0.5436749458312988, -1.009765625, 0.31640625, 0.19384765625, 0, 
94, 2407508856, 73.90312957763672, -72.32250213623047, 172.88966369628906, 8.375753402709961, 0.7923086881637573, 0.9569040536880493, 2.071640729904175, 0.35940611362457275, -0.21339218318462372, -1.01806640625, 0.32373046875, 0.16455078125, 0, 
95, 2407517189, 73.92618560791016, -72.31732940673828, 172.86605834960938, 8.419528007507324, 1.6312824487686157, 1.6382471323013306, 4.245598316192627, 0.28438204526901245, -0.40734317898750305, -1.033203125, 0.330078125, 0.14892578125, 0, 
96, 2407525522, 73.96624755859375, -72.31794738769531, 172.84217834472656, 10.636320114135742, 4.029079437255859, 0.13925862312316895, 4.873992443084717, -0.3075757622718811, 0.11686494946479797, -1.02783203125, 0.32421875, 0.16796875, 0, 
97, 2407533855, 73.97073364257812, -72.32535552978516, 172.8306427001953, 10.318343162536621, 5.393805503845215, 0.9542245864868164, 1.9866527318954468, -0.1421077698469162, 1.043229341506958, -1.02392578125, 0.3193359375, 0.17041015625, 0, 
98, 2407542188, 73.92066192626953, -72.32896423339844, 172.86920166015625, 9.815520286560059, 3.2303738594055176, 0.426972895860672, 1.194968342781067, 1.7792034149169922, 1.0911792516708374, -1.01318359375, 0.31640625, 0.1982421875, 0, 
99, 2407550521, 73.91368865966797, -72.32532501220703, 172.85125732421875, 8.08207893371582, 1.0468878746032715, 1.0815410614013672, 1.6759649515151978, 0.5510902404785156, -0.13868826627731323, -1.01611328125, 0.32080078125, 0.1796875, 0, 
100, 2407558854, 73.89561462402344, -72.3167495727539, 172.87689208984375, 8.2364501953125, 0.9086461663246155, 1.4562221765518188, 3.5610828399658203, 1.7330974340438843, -0.44668662548065186, -1.0302734375, 0.3291015625, 0.15283203125, 0, 
101, 2407567187, 73.96369171142578, -72.31956481933594, 172.82037353515625, 9.844514846801758, 2.991183280944824, 1.09285569190979, 4.980188369750977, -1.4131884574890137, 0.10669609159231186, -1.0341796875, 0.32568359375, 0.1611328125, 0, 
102, 2407575520, 73.96498107910156, -72.32019805908203, 172.82667541503906, 10.481684684753418, 5.448897361755371, 0.37399521470069885, 3.675476312637329, 0.7501257061958313, 0.4176529049873352, -1.02734375, 0.3203125, 0.17333984375, 0, 
103, 2407583853, 73.9534683227539, -72.32923889160156, 172.8178253173828, 10.375831604003906, 4.352376461029053, 0.373698353767395, 1.2140506505966187, 0.15469714999198914, 1.3348472118377686, -1.01806640625, 0.318359375, 0.18505859375, 0, 
104, 2407592186, 73.9070053100586, -72.32475280761719, 172.853759765625, 8.255751609802246, 1.5177751779556274, 0.918891966342926, 1.329686164855957, 1.9576447010040283, 0.12627817690372467, -1.0126953125, 0.318359375, 0.19140625, 0, 
105, 2407600519, 73.8940200805664, -72.31851196289062, 172.88157653808594, 8.481887817382812, 0.8167580366134644, 1.1255955696105957, 2.6280460357666016, 1.148849606513977, -0.2923992872238159, -1.0224609375, 0.326171875, 0.1513671875, 0, 
106, 2407608852, 73.95233154296875, -72.31932830810547, 172.83506774902344, 8.851580619812012, 2.060422897338867, 1.6817822456359863, 4.473820686340332, -1.1081486940383911, -0.08729331195354462, -1.033203125, 0.32470703125, 0.15771484375, 0, 
107, 2407617185, 73.96578979492188, -72.31851196289062, 172.83438110351562, 10.725133895874023, 4.929940700531006, 0.2248888462781906, 4.570950031280518, 0.5894476175308228, 0.22513632476329803, -1.02783203125, 0.32421875, 0.16748046875, 0, 
108, 2407625518, 73.97920227050781, -72.33038330078125, 172.80882263183594, 10.508169174194336, 4.970908164978027, 0.445780873298645, 1.4801058769226074, -0.737305760383606, 1.3959629535675049, -1.02392578125, 0.31884765625, 0.1767578125, 0, 
109, 2407633851, 73.90342712402344, -72.32696533203125, 172.85902404785156, 9.159683227539062, 2.5032143592834473, 0.7023555636405945, 1.6515932083129883, 3.0614519119262695, 0.6171622276306152, -1.0126953125, 0.31494140625, 0.197265625, 0, 
110, 2407642184, 73.91171264648438, -72.32327270507812, 172.8418426513672, 8.090469360351562, 0.8079575896263123, 1.2173802852630615, 1.8260003328323364, 0.07332074642181396, -0.3120326101779938, -1.01806640625, 0.32666015625, 0.1669921875, 0, 
111, 2407650517, 73.91962432861328, -72.31655883789062, 172.841796875, 8.480058670043945, 1.4004265069961548, 1.3570277690887451, 4.278589248657227, 0.900506854057312, -0.427629679441452, -1.03515625, 0.32666015625, 0.14892578125, 0, 
112, 2407658850, 73.97352600097656, -72.3174819946289, 172.80465698242188, 10.376805305480957, 3.801607847213745, 0.46478167176246643, 5.024244785308838, -0.7805426120758057, 0.015560646541416645, -1.02978515625, 0.326171875, 0.1689453125, 0, 
113, 2407667183, 73.97410583496094, -72.32237243652344, 172.80226135253906, 10.40213680267334, 5.563155651092529, 0.9191319942474365, 2.478830337524414, 0.23476725816726685, 0.8395705223083496, -1.025390625, 0.322265625, 0.1689453125, 0, 
114, 2407675516, 73.93427276611328, -72.32787322998047, 172.82809448242188, 10.02180004119873, 3.5549120903015137, 0.40433013439178467, 0.9762481451034546, 1.2730146646499634, 1.1792153120040894, -1.01708984375, 0.3173828125, 0.19140625, 0, 
115, 2407683849, 73.9221420288086, -72.3233642578125, 172.82595825195312, 8.120287895202637, 1.0824854373931885, 1.0021377801895142, 1.515299677848816, 0.7195678353309631, -0.19543661177158356, -1.01123046875, 0.32080078125, 0.1787109375, 0, 
116, 2407692182, 73.8992919921875, -72.31591796875, 172.85549926757812, 8.339090347290039, 0.8877649307250977, 1.2763903141021729, 3.4340102672576904, 1.833146572113037, -0.2783754765987396, -1.03125, 0.32763671875, 0.14794921875, 0, 
117, 2407700515, 73.96945190429688, -72.31805419921875, 172.78916931152344, 9.442048072814941, 2.801069974899292, 1.3287527561187744, 4.922760963439941, -1.485113263130188, -0.0034323071595281363, -1.03369140625, 0.32568359375, 0.15673828125, 0, 
118, 2407708848, 73.9717025756836, -72.3196792602539, 172.79434204101562, 10.627963066101074, 5.492152214050293, 0.20270943641662598, 3.654907703399658, 0.6753576993942261, 0.5254119634628296, -1.0283203125, 0.322265625, 0.17236328125, 0, 
119, 2407717181, 73.9574203491211, -72.33024597167969, 172.78173828125, 10.52517318725586, 4.548433780670166, 0.4823627769947052, 1.1404608488082886, 0.18464019894599915, 1.5329222679138184, -1.021484375, 0.31982421875, 0.177734375, 0, 
120, 2407725514, 73.90873718261719, -72.32755279541016, 172.8219451904297, 8.339227676391602, 1.6071076393127441, 1.0980793237686157, 1.5578961372375488, 2.048767328262329, 0.3755943477153778, -1.013671875, 0.314453125, 0.19287109375, 0, 
121, 2407733847, 73.9005355834961, -72.3207015991211, 172.83480834960938, 8.562185287475586, 0.7174631953239441, 0.8575749397277832, 2.5399460792541504, 0.9653621912002563, -0.41779381036758423, -1.02490234375, 0.32763671875, 0.15625, 0, 
122, 2407742180, 73.93970489501953, -72.31864166259766, 172.80833435058594, 8.54015064239502, 2.0473358631134033, 1.7203811407089233, 4.475485801696777, -0.3075501322746277, -0.21979576349258423, -1.033203125, 0.3271484375, 0.15380859375, 0, 
123, 2407750513, 73.96298217773438, -72.3188247680664, 172.7957763671875, 10.708073616027832, 4.4877800941467285, 0.05563325062394142, 4.704272270202637, 0.23799468576908112, 0.2507249712944031, -1.0283203125, 0.32568359375, 0.16455078125, 0, 
124, 2407758846, 73.97210693359375, -72.32887268066406, 172.77777099609375, 10.290990829467773, 5.0886311531066895, 0.7406140565872192, 1.8324294090270996, -0.41474565863609314, 1.2653559446334839, -1.02490234375, 0.3212890625, 0.1796875, 0, 
125, 2407767179, 73.90977478027344, -72.32869720458984, 172.8140411376953, 9.394566535949707, 2.8346519470214844, 0.5046979188919067, 1.2968103885650635, 2.3511433601379395, 0.8113949298858643, -1.0166015625, 0.31591796875, 0.19482421875, 0, 
126, 2407775512, 73.91888427734375, -72.3259506225586, 172.79632568359375, 8.016535758972168, 0.9935222268104553, 1.1995809078216553, 1.8652924299240112, 0.022860703989863396, -0.21136866509914398, -1.01953125, 0.32373046875, 0.16748046875, 0, 
127, 2407783845, 73.9150619506836, -72.32026672363281, 172.80613708496094, 8.362933158874512, 1.223024606704712, 1.5236915349960327, 3.814253807067871, 1.1563929319381714, -0.21836134791374207, -1.03564453125, 0.32958984375, 0.1494140625, 0, 
128, 2407792178, 73.97500610351562, -72.32250213623047, 172.76206970214844, 10.354761123657227, 3.4533498287200928, 0.4180912971496582, 4.954202651977539, -1.0666663646697998, 0.09641198068857193, -1.03125, 0.322265625, 0.16650390625, 0, 
129, 2407800511, 73.96922302246094, -72.32743835449219, 172.76634216308594, 10.375941276550293, 5.385510444641113, 0.8825958371162415, 2.722114086151123, 0.5402169823646545, 0.9311413168907166, -1.02490234375, 0.3251953125, 0.16943359375, 0, 
130, 2407808844, 73.93545532226562, -72.33184814453125, 172.7893829345703, 10.114531517028809, 3.699147939682007, 0.30498895049095154, 1.3767009973526, 1.2110282182693481, 1.0268874168395996, -1.01513671875, 0.31494140625, 0.19287109375, 0, 
131, 2407817177, 73.91402435302734, -72.32759094238281, 172.8015594482422, 8.082863807678223, 1.2971768379211426, 1.0310821533203125, 1.6993635892868042, 1.1085712909698486, -0.05212496593594551, -1.013671875, 0.318359375, 0.18115234375, 0, 
132, 2407825510, 73.89534759521484, -72.32017517089844, 172.82443237304688, 8.322263717651367, 0.8316644430160522, 1.2583072185516357, 3.168750047683716, 1.5967530012130737, -0.3398240804672241, -1.0283203125, 0.32763671875, 0.150390625, 0, 
133, 2407833843, 73.9605484008789, -72.3216781616211, 172.7797088623047, 9.422868728637695, 2.6011927127838135, 1.3857191801071167, 4.813004493713379, -1.3127552270889282, -0.035270802676677704, -1.02978515625, 0.32568359375, 0.1611328125, 0, 
134, 2407842176, 73.96197509765625, -72.32233428955078, 172.7898712158203, 10.684247016906738, 5.230607986450195, 0.19673407077789307, 4.132818698883057, 0.8848822116851807, 0.46158134937286377, -1.0263671875, 0.31982421875, 0.1708984375, 0, 
135, 2407850509, 73.95624542236328, -72.33293914794922, 172.7963409423828, 10.548794746398926, 4.680520057678223, 0.3726349174976349, 1.3011518716812134, -0.08336152881383896, 1.4634692668914795, -1.0205078125, 0.3173828125, 0.17822265625, 0, 
136, 2407858842, 73.88986206054688, -72.32757568359375, 172.85476684570312, 8.401166915893555, 2.019788980484009, 1.1188141107559204, 1.520064115524292, 2.775059223175049, 0.24772807955741882, -1.0078125, 0.31494140625, 0.19091796875, 0, 
137, 2407867175, 73.892822265625, -72.32212829589844, 172.8456268310547, 8.435687065124512, 0.6835107207298279, 0.9702934622764587, 2.164261817932129, 0.3969053328037262, -0.4023739695549011, -1.02392578125, 0.330078125, 0.15478515625, 0, 
138, 2407875508, 73.93065643310547, -72.31945037841797, 172.82138061523438, 8.60336971282959, 1.5707329511642456, 1.6689850091934204, 4.563675403594971, -0.21103568375110626, -0.2682066559791565, -1.03369140625, 0.32666015625, 0.1494140625, 0, 
139, 2407883841, 73.95783233642578, -72.31814575195312, 172.8148193359375, 10.62109661102295, 4.578869819641113, 0.060434382408857346, 4.743384838104248, 0.15713052451610565, 0.038075558841228485, -1.03076171875, 0.3232421875, 0.1630859375, 0, 
140, 2407892174, 73.96805572509766, -72.32707977294922, 172.79583740234375, 10.474180221557617, 5.355266094207764, 0.6889583468437195, 1.8543298244476318, -0.4114670753479004, 1.1241191625595093, -1.02490234375, 0.32080078125, 0.171875, 0, 
141, 2407900507, 73.90113067626953, -72.32678985595703, 172.8440399169922, 9.562610626220703, 2.9811439514160156, 0.6090149283409119, 1.268378496170044, 2.5183022022247314, 0.8526595234870911, -1.0126953125, 0.31982421875, 0.19091796875, 0, 
142, 2407908840, 73.90340423583984, -72.32354736328125, 172.8317413330078, 8.253642082214355, 0.8016265034675598, 1.0729395151138306, 1.6645922660827637, 0.22735194861888885, -0.21445517241954803, -1.01611328125, 0.322265625, 0.16796875, 0, 
143, 2407917173, 73.8936996459961, -72.31453704833984, 172.84703063964844, 8.215432167053223, 1.0005662441253662, 1.5843926668167114, 4.018629550933838, 1.5459343194961548, -0.5273715257644653, -1.0341796875, 0.32861328125, 0.1484375, 0, 
144, 2407925506, 73.9563217163086, -72.31571960449219, 172.80099487304688, 10.140795707702637, 3.4626832008361816, 0.5906380414962769, 5.051446914672852, -1.1012071371078491, -0.044082097709178925, -1.029296875, 0.322265625, 0.1650390625, 0, 
145, 2407933839, 73.9529037475586, -72.31974792480469, 172.80728149414062, 10.428441047668457, 5.634467601776123, 0.5966011881828308, 3.038270950317383, 0.5816608667373657, 0.8333719968795776, -1.0322265625, 0.3115234375, 0.18701171875, 0, 
146, 2407942172, 73.92125701904297, -72.32698822021484, 172.8265380859375, 10.20546817779541, 3.9119105339050293, 0.47424644231796265, 1.200244665145874, 0.9822930693626404, 1.3159185647964478, -1.02392578125, 0.30810546875, 0.20458984375, 0, 
147, 2407950505, 73.89481353759766, -72.3226547241211, 172.8456268310547, 8.196739196777344, 1.16158926486969, 0.8752742409706116, 1.5897603034973145, 1.2653559446334839, -0.01928751915693283, -1.01708984375, 0.30908203125, 0.19384765625, 0, 
148, 2407958838, 73.87118530273438, -72.31353759765625, 172.873046875, 8.304801940917969, 0.8435692191123962, 1.3480569124221802, 3.100949287414551, 1.8131422996520996, -0.4881817400455475, -1.0302734375, 0.31982421875, 0.1640625, 0, 
149, 2407967171, 73.93975067138672, -72.31511688232422, 172.8184814453125, 9.21329116821289, 2.53853440284729, 1.477429986000061, 4.668514728546143, -1.4819884300231934, -0.07617674022912979, -1.03564453125, 0.31640625, 0.17578125, 0, 
150, 2407975504, 73.94322204589844, -72.31537628173828, 172.82704162597656, 10.719711303710938, 5.221577167510986, 0.27073511481285095, 4.190834999084473, 0.8409794569015503, 0.40356510877609253, -1.0283203125, 0.3115234375, 0.18017578125, 0, 
151, 2407983837, 73.94722747802734, -72.32601928710938, 172.8182830810547, 10.622323036193848, 4.70829963684082, 0.2619982957839966, 1.4276477098464966, -0.4025532901287079, 1.3710404634475708, -1.02587890625, 0.31298828125, 0.197265625, 0, 
152, 2407992170, 73.87294006347656, -72.32026672363281, 172.88461303710938, 8.639201164245605, 2.1429996490478516, 0.9469690918922424, 1.4716532230377197, 3.064269542694092, 0.2895561456680298, -1.0146484375, 0.3095703125, 0.2060546875, 0, 
153, 2408000503, 73.87661743164062, -72.3156967163086, 172.8728485107422, 8.247626304626465, 0.7666005492210388, 1.137533187866211, 2.1601383686065674, 0.33830004930496216, -0.31380000710487366, -1.0263671875, 0.322265625, 0.1708984375, 0, 
154, 2408008836, 73.90705108642578, -72.3120346069336, 172.85581970214844, 8.536009788513184, 1.5989396572113037, 1.5849425792694092, 4.498807430267334, 0.0748191773891449, -0.3085874915122986, -1.03759765625, 0.31884765625, 0.16259765625, 0, 
155, 2408017169, 73.93833923339844, -72.31285095214844, 172.84197998046875, 10.588157653808594, 4.361260414123535, 0.26623865962028503, 4.8677167892456055, -0.027714604511857033, 0.24993091821670532, -1.03125, 0.318359375, 0.17333984375, 0, 
156, 2408025502, 73.94671630859375, -72.32203674316406, 172.8260955810547, 10.448785781860352, 5.354218482971191, 0.8997184038162231, 1.9830156564712524, -0.31251925230026245, 1.1866434812545776, -1.0302734375, 0.31103515625, 0.1845703125, 0, 
157, 2408033835, 73.88945007324219, -72.32357025146484, 172.86984252929688, 9.6931734085083, 2.9959869384765625, 0.40763550996780396, 1.3681460618972778, 2.131091356277466, 0.9612382650375366, -1.0205078125, 0.310546875, 0.2041015625, 0, 
158, 2408042168, 73.89104461669922, -72.32037353515625, 172.8584747314453, 8.149816513061523, 0.9122682213783264, 1.0381488800048828, 1.688144564628601, 0.25820428133010864, -0.19794680178165436, -1.01708984375, 0.3115234375, 0.18603515625, 0, 
159, 2408050501, 73.87882232666016, -72.31172943115234, 172.87939453125, 8.1066312789917, 0.9979841113090515, 1.5359920263290405, 3.7812116146087646, 1.5549249649047852, -0.4722752571105957, -1.0390625, 0.32177734375, 0.1572265625, 0, 
160, 2408058834, 73.94628143310547, -72.31333923339844, 172.82693481445312, 10.019368171691895, 3.30806565284729, 0.8243672847747803, 4.8933305740356445, -1.3422373533248901, -0.06019345670938492, -1.03466796875, 0.318359375, 0.171875, 0, 
161, 2408067167, 73.94440460205078, -72.31623077392578, 172.83258056640625, 10.513742446899414, 5.622539043426514, 0.47557735443115234, 3.264803647994995, 0.6329405903816223, 0.6987179517745972, -1.0302734375, 0.3154296875, 0.177734375, 0, 
162, 2408075500, 73.91793060302734, -72.32454681396484, 172.84410095214844, 10.270146369934082, 4.141855239868164, 0.6186097264289856, 0.9307572245597839, 0.6750247478485107, 1.3629206418991089, -1.02197265625, 0.3125, 0.19873046875, 0, 
163, 2408083833, 73.88017272949219, -72.3213119506836, 172.87611389160156, 8.278341293334961, 1.3035333156585693, 0.9123207926750183, 1.5502630472183228, 1.62928307056427, 0.22654511034488678, -1.01708984375, 0.310546875, 0.1962890625, 0, 
164, 2408092166, 73.86027526855469, -72.31394958496094, 172.89686584472656, 8.368059158325195, 0.6723164916038513, 1.2008062601089478, 2.7840750217437744, 1.522189736366272, -0.35457783937454224, -1.03125, 0.3232421875, 0.16162109375, 0, 
165, 2408100499, 73.91646575927734, -72.3132553100586, 172.86370849609375, 8.980731964111328, 2.290806293487549, 1.5810949802398682, 4.711034297943115, -0.9408621191978455, -0.20540057122707367, -1.0390625, 0.31982421875, 0.16845703125, 0, 
166, 2408108832, 73.92626953125, -72.31170654296875, 172.8676300048828, 10.60738754272461, 5.046911239624023, 0.17997825145721436, 4.413832187652588, 0.7375491857528687, 0.1486009806394577, -1.03125, 0.3173828125, 0.17822265625, 0, 
167, 2408117165, 73.93597412109375, -72.32278442382812, 172.85289001464844, 10.477899551391602, 4.8901777267456055, 0.46578869223594666, 1.4651981592178345, -0.6133584976196289, 1.3638683557510376, -1.02783203125, 0.314453125, 0.18896484375, 0, 
168, 2408125498, 73.86048889160156, -72.32041931152344, 172.9180908203125, 8.91933822631836, 2.3904075622558594, 0.7655807137489319, 1.1967097520828247, 2.9101994037628174, 0.671054482460022, -1.017578125, 0.30859375, 0.2080078125, 0, 
169, 2408133831, 73.86839294433594, -72.31725311279297, 172.9037322998047, 8.25574779510498, 0.8084436058998108, 1.1522324085235596, 1.943313717842102, 0.07173267006874084, -0.21513397991657257, -1.021484375, 0.3154296875, 0.17431640625, 0, 
170, 2408142164, 73.88362121582031, -72.3133544921875, 172.89996337890625, 8.380413055419922, 1.4531898498535156, 1.5759178400039673, 4.196547031402588, 0.5465694069862366, -0.20201948285102844, -1.03564453125, 0.32080078125, 0.16259765625, 0, 
171, 2408150497, 73.9245834350586, -72.31362915039062, 172.87767028808594, 10.636025428771973, 3.998626470565796, 0.21126797795295715, 4.771432876586914, -0.39573994278907776, 0.07478076219558716, -1.03125, 0.31591796875, 0.17578125, 0, 
172, 2408158830, 73.9322738647461, -72.32134246826172, 172.86448669433594, 10.299954414367676, 5.381435394287109, 1.038761854171753, 2.2073707580566406, -0.16971994936466217, 1.0431525707244873, -1.02783203125, 0.31494140625, 0.18017578125, 0, 
173, 2408167163, 73.89146423339844, -72.32449340820312, 172.89630126953125, 9.892250061035156, 3.245779037475586, 0.33792391419410706, 1.4622271060943604, 1.5042088031768799, 0.9801415205001831, -1.0205078125, 0.310546875, 0.2041015625, 0, 
174, 2408175496, 73.88603973388672, -72.3205795288086, 172.8929901123047, 8.008106231689453, 1.0964491367340088, 1.0520774126052856, 1.7711604833602905, 0.5640127062797546, -0.19786997139453888, -1.015625, 0.31640625, 0.185546875, 0, 
175, 2408183829, 73.87202453613281, -72.31134033203125, 172.91659545898438, 8.292047500610352, 0.950148344039917, 1.419540286064148, 3.522277355194092, 1.5639922618865967, -0.5460186004638672, -1.0341796875, 0.32275390625, 0.15771484375, 0, 
176, 2408192162, 73.94129943847656, -72.31475067138672, 172.86318969726562, 9.819951057434082, 3.0365395545959473, 1.0697264671325684, 5.002933979034424, -1.4339358806610107, 0.14040441811084747, -1.03564453125, 0.3154296875, 0.1728515625, 0, 
177, 2408200495, 73.94049835205078, -72.3161392211914, 172.87937927246094, 10.648155212402344, 5.466048240661621, 0.34200626611709595, 3.5125956535339355, 0.7158282399177551, 0.539884090423584, -1.02978515625, 0.318359375, 0.1796875, 0, 
178, 2408208828, 73.92781829833984, -72.32611083984375, 172.87745666503906, 10.361227989196777, 4.364455223083496, 0.41116467118263245, 1.051297664642334, 0.1508806347846985, 1.4162238836288452, -1.0205078125, 0.31005859375, 0.1953125, 0, 
179, 2408217161, 73.8775634765625, -72.32007598876953, 172.92152404785156, 8.196098327636719, 1.6014297008514404, 1.146218180656433, 1.381388545036316, 2.1311941146850586, 0.025217214599251747, -1.013671875, 0.30908203125, 0.201171875, 0, 
180, 2408225494, 73.86995697021484, -72.31422424316406, 172.92823791503906, 8.58176326751709, 0.6879985928535461, 0.8369086980819702, 2.6539547443389893, 0.9820369482040405, -0.32435303926467896, -1.02978515625, 0.3203125, 0.1640625, 0, 
181, 2408233827, 73.92232513427734, -72.31319427490234, 172.8965606689453, 8.797460556030273, 1.9134745597839355, 1.7206567525863647, 4.675379276275635, -0.7986518144607544, -0.20798757672309875, -1.0400390625, 0.31884765625, 0.16357421875, 0, 
182, 2408242160, 73.93804168701172, -72.31250762939453, 172.89515686035156, 10.605019569396973, 5.06810188293457, 0.09397698193788528, 4.526048183441162, 0.5237982869148254, 0.18845674395561218, -1.03125, 0.31640625, 0.17333984375, 0, 
183, 2408250493, 73.95209503173828, -72.32428741455078, 172.86984252929688, 10.620317459106445, 5.138282299041748, 0.41967442631721497, 1.4471914768218994, -0.8057469725608826, 1.401854157447815, -1.02978515625, 0.31591796875, 0.1875, 0, 
184, 2408258826, 73.87893676757812, -72.32219696044922, 172.93557739257812, 9.031960487365723, 2.4714560508728027, 0.9683536291122437, 1.5355350971221924, 2.921905755996704, 0.7065046429634094, -1.01708984375, 0.30859375, 0.20751953125, 0, 
185, 2408267159, 73.88632202148438, -72.3191146850586, 172.9269561767578, 8.348674774169922, 0.6694013476371765, 1.080784797668457, 1.901921033859253, 0.07309022545814514, -0.2006106823682785, -1.0244140625, 0.3173828125, 0.1748046875, 0, 
186, 2408275492, 73.8934326171875, -72.31436920166016, 172.93211364746094, 8.412381172180176, 1.3724825382232666, 1.375064492225647, 4.233687877655029, 0.8887243866920471, -0.20696301758289337, -1.0390625, 0.32177734375, 0.16015625, 0, 
187, 2408283825, 73.94470977783203, -72.31534576416016, 172.91123962402344, 10.354652404785156, 3.817002058029175, 0.4895932674407959, 4.853833198547363, -0.7725509405136108, 0.054673586040735245, -1.03564453125, 0.318359375, 0.17626953125, 0, 
188, 2408292158, 73.93977355957031, -72.32118225097656, 172.91354370117188, 10.346328735351562, 5.448751449584961, 0.6957893371582031, 2.4677138328552246, 0.4381699562072754, 0.98170405626297, -1.02392578125, 0.31640625, 0.177734375, 0, 
189, 2408300491, 73.90372467041016, -72.32622528076172, 172.95298767089844, 9.951340675354004, 3.5281801223754883, 0.36840203404426575, 1.137028694152832, 1.1658446788787842, 1.1206353902816772, -1.01611328125, 0.31787109375, 0.19580078125, 0, 
190, 2408308824, 73.88319396972656, -72.322509765625, 172.96388244628906, 8.099173545837402, 1.1600755453109741, 1.0305911302566528, 1.5807441473007202, 1.0536288022994995, -0.0306090097874403, -1.0107421875, 0.3203125, 0.181640625, 0, 
191, 2408317157, 73.862060546875, -72.3145980834961, 172.99363708496094, 8.3193941116333, 0.9190798997879028, 1.3536401987075806, 3.2774817943573, 1.706330418586731, -0.34087416529655457, -1.033203125, 0.3291015625, 0.150390625, 0, 
192, 2408325490, 73.93189239501953, -72.31619262695312, 172.93861389160156, 9.611979484558105, 2.8038220405578613, 1.2624506950378418, 4.883647918701172, -1.4330395460128784, -0.082887664437294, -1.03076171875, 0.32275390625, 0.1630859375, 0, 
193, 2408333823, 73.93023681640625, -72.31700134277344, 172.95310974121094, 10.62817668914795, 5.384442329406738, 0.31769299507141113, 3.672607183456421, 0.8194634318351746, 0.492369681596756, -1.02490234375, 0.32177734375, 0.17041015625, 0, 
194, 2408342156, 73.9207992553711, -72.32720947265625, 172.9486846923828, 10.47489070892334, 4.489955425262451, 0.424808531999588, 1.1602351665496826, 0.05641534924507141, 1.4180424213409424, -1.01806640625, 0.31884765625, 0.18505859375, 0, 
195, 2408350489, 73.86713409423828, -72.32246398925781, 173.0102996826172, 8.357769012451172, 1.7434204816818237, 1.0420111417770386, 1.5609186887741089, 2.268742322921753, 0.22477774322032928, -1.01171875, 0.31640625, 0.19580078125, 0, 
196, 2408358822, 73.85826873779297, -72.31693267822266, 173.01683044433594, 8.411937713623047, 0.7714799046516418, 1.0559558868408203, 2.4821860790252686, 0.9632362127304077, -0.2895945608615875, -1.0234375, 0.32861328125, 0.15185546875, 0, 
197, 2408367155, 73.902587890625, -72.31488800048828, 172.98574829101562, 8.617380142211914, 1.9609471559524536, 1.6556679010391235, 4.544695854187012, -0.5071106553077698, -0.24453911185264587, -1.0341796875, 0.33056640625, 0.15234375, 0, 
198, 2408375488, 73.92308044433594, -72.31465911865234, 172.98004150390625, 10.693582534790039, 4.648685455322266, 0.12566503882408142, 4.608603000640869, 0.35733139514923096, 0.19965015351772308, -1.02734375, 0.32373046875, 0.166015625, 0, 
199, 2408383821, 73.93148040771484, -72.32525634765625, 172.9606475830078, 10.511739730834961, 5.09956169128418, 0.6650047302246094, 1.5828700065612793, -0.5163829326629639, 1.3301854133605957, -1.02587890625, 0.32373046875, 0.17333984375, 0, 
200, 2408392154, 73.86558532714844, -72.32386016845703, 173.0177001953125, 9.37848949432373, 2.7080931663513184, 0.5914701819419861, 1.4101020097732544, 2.5950422286987305, 0.6998961567878723, -1.01318359375, 0.31640625, 0.1923828125, 0, 
201, 2408400487, 73.87171173095703, -72.32061767578125, 173.00376892089844, 8.10705852508545, 0.871612012386322, 1.2331714630126953, 1.7993870973587036, 0.0939658060669899, -0.217874675989151, -1.01513671875, 0.32275390625, 0.16357421875, 0, 
202, 2408408820, 73.87076568603516, -72.3128890991211, 173.01559448242188, 8.248613357543945, 1.156498908996582, 1.545091152191162, 4.0315399169921875, 1.2218375205993652, -0.48541539907455444, -1.03466796875, 0.3291015625, 0.14501953125, 0, 
203, 2408417153, 73.92932891845703, -72.31396484375, 172.9710235595703, 10.267049789428711, 3.536433219909668, 0.4818536639213562, 5.009990215301514, -0.9944854974746704, 0.001408782904036343, -1.03173828125, 0.32666015625, 0.16015625, 0, 
204, 2408425486, 73.92887878417969, -72.31851196289062, 172.9712677001953, 10.323176383972168, 5.546116352081299, 0.8252202272415161, 2.7745211124420166, 0.4068692922592163, 0.8105239868164062, -1.02734375, 0.3251953125, 0.16748046875, 0, 
205, 2408433819, 73.89510345458984, -72.32487487792969, 172.987548828125, 10.185308456420898, 3.7599706649780273, 0.3338274657726288, 1.0921140909194946, 1.026029348373413, 1.246977686882019, -1.015625, 0.3154296875, 0.1923828125, 0, 
206, 2408442152, 73.87480163574219, -72.32105255126953, 172.99697875976562, 8.187419891357422, 1.1593923568725586, 1.0269320011138916, 1.4398144483566284, 1.0051153898239136, -0.05824676528573036, -1.0126953125, 0.32177734375, 0.18310546875, 0, 
207, 2408450485, 73.85260009765625, -72.31211853027344, 173.0181884765625, 8.395902633666992, 0.7646172046661377, 1.2638614177703857, 3.215623378753662, 1.7620925903320312, -0.45170697569847107, -1.03125, 0.32861328125, 0.1484375, 0, 
208, 2408458818, 73.92375183105469, -72.31340026855469, 172.9608612060547, 9.29816722869873, 2.535665273666382, 1.4921342134475708, 4.781371116638184, -1.50214684009552, -0.14633414149284363, -1.0322265625, 0.328125, 0.15576171875, 0, 
209, 2408467151, 73.9281005859375, -72.3128890991211, 172.9613494873047, 10.531249046325684, 5.3308024406433105, 0.28020673990249634, 4.058588027954102, 0.7585271000862122, 0.3126857578754425, -1.02783203125, 0.32421875, 0.16796875, 0, 
210, 2408475484, 73.93207550048828, -72.32447052001953, 172.9445037841797, 10.533747673034668, 4.6792731285095215, 0.3024959862232208, 1.3430439233779907, -0.4269636571407318, 1.4538254737854004, -1.02001953125, 0.31591796875, 0.1806640625, 0, 
211, 2408483817, 73.86865997314453, -72.31990051269531, 173.00048828125, 8.477304458618164, 1.9890704154968262, 1.0984463691711426, 1.4348710775375366, 2.5843868255615234, 0.33087190985679626, -1.01220703125, 0.31640625, 0.189453125, 0, 
212, 2408492150, 73.87136840820312, -72.31499481201172, 172.9925994873047, 8.54013729095459, 0.721683144569397, 0.8671683669090271, 2.2237894535064697, 0.43591582775115967, -0.3617498278617859, -1.0234375, 0.32421875, 0.15771484375, 0, 
213, 2408500483, 73.90625762939453, -72.3117904663086, 172.96585083007812, 8.520832061767578, 1.7550958395004272, 1.735547661781311, 4.4260759353637695, -0.15824474394321442, -0.2872636318206787, -1.033203125, 0.32763671875, 0.1513671875, 0, 
214, 2408508816, 73.93839263916016, -72.31175994873047, 172.9493865966797, 10.714187622070312, 4.353860855102539, 0.1466403603553772, 4.769921779632568, -0.027330387383699417, 0.11589161306619644, -1.02587890625, 0.32373046875, 0.1689453125, 0, 
215, 2408517149, 73.95093536376953, -72.3196792602539, 172.9258575439453, 10.344738960266113, 5.2468414306640625, 0.8145053386688232, 1.9528166055679321, -0.4636945128440857, 1.0143877267837524, -1.02001953125, 0.32177734375, 0.17333984375, 0, 
216, 2408525482, 73.8947525024414, -72.32073211669922, 172.9733428955078, 9.548568725585938, 3.0108022689819336, 0.5796347856521606, 1.4905821084976196, 2.1777095794677734, 0.885496973991394, -1.01123046875, 0.31494140625, 0.197265625, 0, 
217, 2408533815, 73.89557647705078, -72.31753540039062, 172.96649169921875, 8.15491771697998, 0.9817675352096558, 0.9281827211380005, 1.7664984464645386, 0.2760574221611023, -0.16149772703647614, -1.01416015625, 0.32275390625, 0.17529296875, 0, 
218, 2408542148, 73.88819885253906, -72.3094482421875, 172.98316955566406, 8.218050956726074, 1.097575306892395, 1.4488320350646973, 3.8156626224517822, 1.402699589729309, -0.47826895117759705, -1.03125, 0.3291015625, 0.14892578125, 0, 
219, 2408550481, 73.95228576660156, -72.31216430664062, 172.93482971191406, 10.049802780151367, 3.3125767707824707, 0.7833809852600098, 5.050832271575928, -1.2375261783599854, 0.13727949559688568, -1.0322265625, 0.32568359375, 0.15771484375, 0, 
220, 2408558814, 73.95378875732422, -72.31471252441406, 172.93507385253906, 10.505927085876465, 5.563049793243408, 0.5728898644447327, 3.0049211978912354, 0.47295400500297546, 0.5808412432670593, -1.0234375, 0.3203125, 0.17333984375, 0, 
221, 2408567147, 73.93145751953125, -72.32294464111328, 172.929931640625, 10.248931884765625, 4.044859886169434, 0.5975088477134705, 1.1037814617156982, 0.5454423427581787, 1.3413535356521606, -1.015625, 0.31982421875, 0.1865234375, 0, 
222, 2408575480, 73.90261840820312, -72.31917572021484, 172.94883728027344, 8.262027740478516, 1.3153001070022583, 0.881307065486908, 1.4998286962509155, 1.3372808694839478, 0.04107242450118065, -1.00927734375, 0.3173828125, 0.19091796875, 0, 
223, 2408583813, 73.88154602050781, -72.31124877929688, 172.9883270263672, 8.372465133666992, 0.7896497845649719, 1.0820544958114624, 2.956740617752075, 1.6056156158447266, -0.3655151128768921, -1.02685546875, 0.330078125, 0.15087890625, 0, 
224, 2408592146, 73.94892120361328, -72.31299591064453, 172.93368530273438, 8.97769546508789, 2.3581912517547607, 1.5971320867538452, 4.640416145324707, -1.4227428436279297, -0.06521384418010712, -1.03173828125, 0.3251953125, 0.15673828125, 0, 
225, 2408600479, 73.95429992675781, -72.3128662109375, 172.9468536376953, 10.6708984375, 5.11557674407959, 0.07067526876926422, 4.337988376617432, 0.7952324151992798, 0.3712911605834961, -1.02587890625, 0.326171875, 0.16650390625, 0, 
226, 2408608812, 73.96571350097656, -72.32453155517578, 172.9217987060547, 10.633243560791016, 4.919778823852539, 0.39733749628067017, 1.2996022701263428, -0.7161741256713867, 1.3804664611816406, -1.02490234375, 0.32080078125, 0.1767578125, 0, 
227, 2408617145, 73.89440155029297, -72.32115173339844, 172.9702911376953, 8.863863945007324, 2.349524736404419, 1.0760231018066406, 1.5229072570800781, 2.859304428100586, 0.5538182258605957, -1.01171875, 0.3154296875, 0.197265625, 0, 
228, 2408625478, 73.90449523925781, -72.31790161132812, 172.95266723632812, 8.332724571228027, 0.7052975296974182, 1.0050805807113647, 1.9933379888534546, 0.04017592594027519, -0.26638802886009216, -1.0185546875, 0.32470703125, 0.16357421875, 0, 
229, 2408633811, 73.9201431274414, -72.31261444091797, 172.9446258544922, 8.474173545837402, 1.492840051651001, 1.4355945587158203, 4.329715251922607, 0.586501955986023, -0.3320373594760895, -1.03271484375, 0.328125, 0.14892578125, 0, 
230, 2408642144, 73.96517944335938, -72.31279754638672, 172.9158477783203, 10.503096580505371, 3.919546365737915, 0.31466177105903625, 4.917075157165527, -0.4639250636100769, 0.011795355938374996, -1.0302734375, 0.3232421875, 0.16650390625, 0, 
231, 2408650477, 73.96793365478516, -72.31847381591797, 172.90982055664062, 10.236413955688477, 5.372623920440674, 0.9178200364112854, 2.4033195972442627, 0.10784873366355896, 0.898764967918396, -1.025390625, 0.32275390625, 0.1728515625, 0, 
232, 2408658810, 73.9190444946289, -72.322509765625, 172.9468231201172, 9.923273086547852, 3.4226722717285156, 0.2378094345331192, 1.1569052934646606, 1.7101730108261108, 1.1248875856399536, -1.01708984375, 0.31640625, 0.19677734375, 0, 
233, 2408667143, 73.9084701538086, -72.31859588623047, 172.94342041015625, 7.994246959686279, 1.1351715326309204, 1.1929311752319336, 1.5490078926086426, 0.6567361354827881, -0.13683123886585236, -1.01611328125, 0.3232421875, 0.17919921875, 0, 
234, 2408675476, 73.88536071777344, -72.31053924560547, 172.97262573242188, 8.332969665527344, 0.9809814691543579, 1.3060259819030762, 3.366389274597168, 1.8403955698013306, -0.3501209616661072, -1.02978515625, 0.32421875, 0.1513671875, 0, 
235, 2408683809, 73.95774841308594, -72.3135757446289, 172.907470703125, 9.866487503051758, 2.8652658462524414, 1.0271061658859253, 4.748175621032715, -1.6473795175552368, 0.056569039821624756, -1.0302734375, 0.32666015625, 0.162109375, 0, 
236, 2408692142, 73.9530029296875, -72.31548309326172, 172.918212890625, 10.577847480773926, 5.4769287109375, 0.4482753574848175, 3.454732894897461, 0.861624538898468, 0.6136531233787537, -1.025390625, 0.32373046875, 0.171875, 0, 
237, 2408700475, 73.93692016601562, -72.32489013671875, 172.92230224609375, 10.39779281616211, 4.387362003326416, 0.43871647119522095, 1.182929277420044, 0.3022351861000061, 1.4183241128921509, -1.0185546875, 0.3173828125, 0.18505859375, 0, 
238, 2408708808, 73.88346099853516, -72.32162475585938, 172.96705627441406, 8.23505687713623, 1.5929757356643677, 0.9919899702072144, 1.4968318939208984, 2.2246346473693848, 0.36329948902130127, -1.009765625, 0.31640625, 0.1943359375, 0, 
239, 2408717141, 73.86463928222656, -72.31488800048828, 172.97366333007812, 8.405665397644043, 0.6123427748680115, 0.9745367765426636, 2.441049337387085, 1.323064923286438, -0.30457890033721924, -1.02783203125, 0.328125, 0.154296875, 0, 
240, 2408725474, 73.91187286376953, -72.31377410888672, 172.93931579589844, 8.820571899414062, 2.159442663192749, 1.6924670934677124, 4.5346293449401855, -0.6168676614761353, -0.18718884885311127, -1.0341796875, 0.32470703125, 0.1552734375, 0, 
241, 2408733807, 73.92798614501953, -72.31221008300781, 172.9362030029297, 10.777756690979004, 4.663224220275879, 0.04603220894932747, 4.612649917602539, 0.5329169631004333, 0.11673688888549805, -1.0390625, 0.31201171875, 0.18603515625, 0, 
242, 2408742140, 73.93379974365234, -72.32150268554688, 172.91912841796875, 10.453442573547363, 5.14516544342041, 0.6611236333847046, 1.5426557064056396, -0.35644766688346863, 1.1845685243606567, -1.02978515625, 0.31005859375, 0.193359375, 0, 
243, 2408750473, 73.8647232055664, -72.32003784179688, 172.9706573486328, 9.306857109069824, 2.701143741607666, 0.5854233503341675, 1.1496052742004395, 2.5996782779693604, 0.7245627045631409, -1.01708984375, 0.3076171875, 0.2109375, 0, 
244, 2408758806, 73.86778259277344, -72.31631469726562, 172.95916748046875, 8.135285377502441, 0.8301999568939209, 1.2715377807617188, 1.8473881483078003, 0.2705247104167938, -0.25790974497795105, -1.0224609375, 0.31298828125, 0.18115234375, 0, 
245, 2408767139, 73.8642349243164, -72.30949401855469, 172.97348022460938, 8.283775329589844, 1.171057105064392, 1.5940440893173218, 4.091067314147949, 1.2732195854187012, -0.33011627197265625, -1.03955078125, 0.32080078125, 0.1611328125, 0, 
246, 2408775472, 73.9144515991211, -72.30937957763672, 172.94114685058594, 10.395952224731445, 3.7356021404266357, 0.2855263650417328, 5.125241279602051, -0.58062344789505, -0.05645376816391945, -1.0341796875, 0.314453125, 0.17626953125, 0, 
247, 2408783805, 73.91111755371094, -72.31574249267578, 172.94039916992188, 10.279840469360352, 5.596534729003906, 1.0144500732421875, 2.3929970264434814, 0.3063078224658966, 1.0311137437820435, -1.03369140625, 0.3173828125, 0.1826171875, 0, 
248, 2408792138, 73.868408203125, -72.32046508789062, 172.97084045410156, 10.217020988464355, 3.588324785232544, 0.2604820132255554, 1.1526789665222168, 1.457718849182129, 1.1409220695495605, -1.02197265625, 0.3095703125, 0.2041015625, 0, 
249, 2408800471, 73.84972381591797, -72.31590270996094, 172.97940063476562, 8.177358627319336, 1.0637346506118774, 1.0970876216888428, 1.4666070938110352, 0.9498909711837769, -0.1305813491344452, -1.017578125, 0.3115234375, 0.1923828125, 0, 
250, 2408808804, 73.82939147949219, -72.30677032470703, 173.0060577392578, 8.20516300201416, 0.7884416580200195, 1.4382646083831787, 3.405911922454834, 1.7880144119262695, -0.4993494749069214, -1.03564453125, 0.3212890625, 0.16064453125, 0, 
251, 2408817137, 73.9002914428711, -72.30770874023438, 172.9552764892578, 9.47234058380127, 2.8316338062286377, 1.2864329814910889, 4.8581109046936035, -1.4892884492874146, -0.16121600568294525, -1.0390625, 0.31787109375, 0.16943359375, 0, 
252, 2408825470, 73.9000015258789, -72.30873107910156, 172.96612548828125, 10.500354766845703, 5.337736129760742, 0.35348212718963623, 4.00059700012207, 0.8934885263442993, 0.5148077011108398, -1.02880859375, 0.314453125, 0.18310546875, 0, 
253, 2408833803, 73.89813995361328, -72.3182373046875, 172.9560089111328, 10.457032203674316, 4.535995006561279, 0.3104528784751892, 1.184773564338684, -0.22271576523780823, 1.2834652662277222, -1.0244140625, 0.3125, 0.19580078125, 0, 
254, 2408842136, 73.83426666259766, -72.3132553100586, 173.00979614257812, 8.464330673217773, 1.8445265293121338, 0.9529210925102234, 1.2835549116134644, 2.598231077194214, 0.2559374272823334, -1.01513671875, 0.310546875, 0.2041015625, 0, 
255, 2408850469, 73.83734130859375, -72.3085708618164, 173.0045166015625, 8.496490478515625, 0.7951686978340149, 1.0704602003097534, 2.332022190093994, 0.42002221941947937, -0.3066920340061188, -1.02783203125, 0.31982421875, 0.16259765625, 0, 
256, 2408858802, 73.8765869140625, -72.30652618408203, 172.97869873046875, 8.628033638000488, 1.7474949359893799, 1.6940239667892456, 4.550804615020752, -0.2876094579696655, -0.21010078489780426, -1.037109375, 0.3193359375, 0.16259765625, 0, 
257, 2408867135, 73.90027618408203, -72.30529022216797, 172.97470092773438, 10.603568077087402, 4.571430683135986, 0.21674789488315582, 4.756628036499023, 0.2873021066188812, 0.08103063702583313, -1.0322265625, 0.31591796875, 0.17529296875, 0, 
258, 2408875468, 73.9092788696289, -72.3148422241211, 172.95578002929688, 10.378081321716309, 5.1582112312316895, 0.8060221672058105, 1.715013861656189, -0.4314461648464203, 1.1971709728240967, -1.0263671875, 0.31591796875, 0.18359375, 0, 
259, 2408883801, 73.84610748291016, -72.31385040283203, 173.0090789794922, 9.394632339477539, 2.8568992614746094, 0.6332651972770691, 1.4760075807571411, 2.4697887897491455, 0.7431842088699341, -1.01513671875, 0.3095703125, 0.20458984375, 0, 
260, 2408892134, 73.85154724121094, -72.3113784790039, 172.99453735351562, 8.227218627929688, 0.9282799959182739, 0.9409587979316711, 1.7834550142288208, 0.12155234068632126, -0.1423383206129074, -1.01806640625, 0.314453125, 0.1826171875, 0, 
261, 2408900467, 73.85279846191406, -72.30481719970703, 173.00274658203125, 8.191973686218262, 1.145846962928772, 1.5249595642089844, 3.90234112739563, 1.026784896850586, -0.3650796413421631, -1.03662109375, 0.32177734375, 0.16064453125, 0, 
262, 2408908800, 73.91386413574219, -72.30618286132812, 172.95741271972656, 10.241775512695312, 3.478691577911377, 0.6111165881156921, 4.9360809326171875, -1.0840200185775757, -0.017135923728346825, -1.03125, 0.3193359375, 0.17236328125, 0, 
263, 2408917133, 73.91521453857422, -72.31079864501953, 172.95767211914062, 10.433112144470215, 5.585258483886719, 0.7224202156066895, 2.7691290378570557, 0.3063206076622009, 0.819988489151001, -1.03076171875, 0.31689453125, 0.17724609375, 0, 
264, 2408925466, 73.88662719726562, -72.31725311279297, 172.9732666015625, 10.129579544067383, 3.864842653274536, 0.5770034193992615, 1.1569181680679321, 0.8827177286148071, 1.184478998184204, -1.0185546875, 0.31103515625, 0.1962890625, 0, 
265, 2408933799, 73.86429595947266, -72.31364440917969, 172.98472595214844, 8.188255310058594, 1.1565567255020142, 0.8571414947509766, 1.6105973720550537, 1.0949572324752808, 0.0243847519159317, -1.01611328125, 0.31201171875, 0.19140625, 0, 
266, 2408942132, 73.84217071533203, -72.30542755126953, 173.0108184814453, 8.30661678314209, 0.768600583076477, 1.3317840099334717, 3.125128984451294, 1.736786127090454, -0.3934859335422516, -1.03173828125, 0.322265625, 0.1611328125, 0, 
267, 2408950465, 73.90880584716797, -72.30632781982422, 172.94956970214844, 9.224506378173828, 2.525660991668701, 1.449346899986267, 4.831882476806641, -1.3386768102645874, -0.12002831697463989, -1.03662109375, 0.3212890625, 0.16650390625, 0, 
268, 2408958798, 73.91563415527344, -72.3060531616211, 172.95516967773438, 10.60526180267334, 5.376018524169922, 0.19822578132152557, 4.259275913238525, 0.7547619342803955, 0.30802401900291443, -1.029296875, 0.314453125, 0.17626953125, 0, 
269, 2408967131, 73.91747283935547, -72.31707763671875, 172.92613220214844, 10.518329620361328, 4.748701572418213, 0.36402270197868347, 1.1836210489273071, -0.40941792726516724, 1.4171972274780273, -1.02294921875, 0.3125, 0.19091796875, 0, 
270, 2408975464, 73.85698699951172, -72.31316375732422, 172.97613525390625, 8.713614463806152, 2.0437073707580566, 0.9392557144165039, 1.2570058107376099, 2.4311110973358154, 0.3401186466217041, -1.013671875, 0.31103515625, 0.205078125, 0, 
271, 2408983797, 73.85533905029297, -72.30844116210938, 172.97622680664062, 8.419818878173828, 0.6472411155700684, 1.028852105140686, 2.2181034088134766, 0.5576603412628174, -0.27043506503105164, -1.02685546875, 0.3232421875, 0.1669921875, 0, 
272, 2408992130, 73.8880615234375, -72.30436706542969, 172.9568328857422, 8.45154094696045, 1.654237151145935, 1.6841368675231934, 4.505684852600098, 0.005827238783240318, -0.3777587413787842, -1.037109375, 0.31884765625, 0.16455078125, 0, 
273, 2409000463, 73.9189682006836, -72.3034439086914, 172.9586639404297, 10.596540451049805, 4.35842752456665, 0.044956982135772705, 4.979010105133057, 0.0789046511054039, 0.06181996315717697, -1.0302734375, 0.3173828125, 0.1748046875, 0, 
274, 2409008796, 73.93145751953125, -72.3121566772461, 172.93714904785156, 10.333279609680176, 5.306919574737549, 0.8460720181465149, 1.8378596305847168, -0.4934326112270355, 1.0731723308563232, -1.029296875, 0.31298828125, 0.1865234375, 0, 
275, 2409017129, 73.87105560302734, -72.3130874633789, 172.99851989746094, 9.713401794433594, 2.977881908416748, 0.3269079029560089, 1.359129786491394, 2.2675130367279053, 0.9282727837562561, -1.017578125, 0.31005859375, 0.203125, 0, 
276, 2409025462, 73.87236785888672, -72.30989837646484, 172.98660278320312, 8.03860092163086, 1.0261540412902832, 1.323755145072937, 1.5927314758300781, 0.23804588615894318, -0.20330016314983368, -1.02001953125, 0.31591796875, 0.18505859375, 0, 
277, 2409033795, 73.86615753173828, -72.30252838134766, 173.0030059814453, 8.288948059082031, 1.0769412517547607, 1.2626068592071533, 3.7215685844421387, 1.2750508785247803, -0.39075788855552673, -1.03564453125, 0.32080078125, 0.158203125, 0, 
278, 2409042128, 73.9320068359375, -72.30513000488281, 172.95147705078125, 10.076870918273926, 3.3501136302948, 0.9235494136810303, 4.80799674987793, -1.343658685684204, 0.06152539700269699, -1.0322265625, 0.3173828125, 0.17626953125, 0, 
279, 2409050461, 73.92707061767578, -72.30853271484375, 172.96444702148438, 10.545169830322266, 5.451922416687012, 0.4916042983531952, 3.1491165161132812, 0.6946068406105042, 0.7794668674468994, -1.0302734375, 0.3173828125, 0.18212890625, 0, 
280, 2409058794, 73.90526580810547, -72.31602478027344, 172.972412109375, 10.281503677368164, 4.099747657775879, 0.43871045112609863, 1.0950212478637695, 0.5798165798187256, 1.227805495262146, -1.02099609375, 0.30908203125, 0.20166015625, 0, 
281, 2409067127, 73.86763763427734, -72.31087493896484, 173.00338745117188, 8.111143112182617, 1.4271395206451416, 1.028205394744873, 1.5906823873519897, 1.703615427017212, 0.007645849138498306, -1.01220703125, 0.3115234375, 0.20361328125, 0, 
282, 2409075460, 73.85736083984375, -72.30403137207031, 173.01499938964844, 8.419669151306152, 0.7475268840789795, 0.988182544708252, 2.8899388313293457, 1.1845687627792358, -0.3864675760269165, -1.02880859375, 0.32080078125, 0.162109375, 0, 
283, 2409083793, 73.92040252685547, -72.30496215820312, 172.9613037109375, 9.045352935791016, 2.3002734184265137, 1.6477996110916138, 4.749865531921387, -1.2340426445007324, -0.08322064578533173, -1.03955078125, 0.3193359375, 0.1640625, 0, 
284, 2409092126, 73.93167877197266, -72.30431365966797, 172.96279907226562, 10.676809310913086, 5.108144283294678, 0.14248594641685486, 4.318367958068848, 0.6224386692047119, 0.22626332938671112, -1.0322265625, 0.3212890625, 0.171875, 0, 
285, 2409100459, 73.93921661376953, -72.3150634765625, 172.93983459472656, 10.693500518798828, 4.945575714111328, 0.40160834789276123, 1.3971155881881714, -0.5452246069908142, 1.340789794921875, -1.021484375, 0.31884765625, 0.17529296875, 0, 
286, 2409108792, 73.86727142333984, -72.31253814697266, 173.00247192382812, 8.77889347076416, 2.2696728706359863, 0.9983687400817871, 1.3244479894638062, 2.8268508911132812, 0.6279201507568359, -1.009765625, 0.3154296875, 0.19140625, 0, 
287, 2409117125, 73.8733139038086, -72.3079833984375, 172.9945068359375, 8.34920597076416, 0.7622791528701782, 1.0183703899383545, 2.17753005027771, 0.2585628926753998, -0.33165308833122253, -1.0224609375, 0.32373046875, 0.162109375, 0, 
288, 2409125458, 73.89353942871094, -72.30426788330078, 172.98629760742188, 8.286223411560059, 1.5237162113189697, 1.6934373378753662, 4.287785053253174, 0.3868646025657654, -0.22578948736190796, -1.03271484375, 0.328125, 0.14794921875, 0, 
289, 2409133791, 73.93293762207031, -72.30458068847656, 172.9662322998047, 10.634269714355469, 4.069336891174316, 0.08751998841762543, 4.831088066101074, -0.3192814588546753, 0.10016447305679321, -1.0302734375, 0.32373046875, 0.16455078125, 0, 
290, 2409142124, 73.93826293945312, -72.31342315673828, 172.9550018310547, 10.36114501953125, 5.493095874786377, 0.9159199595451355, 2.150007724761963, -0.14019949734210968, 1.194186806678772, -1.02587890625, 0.322265625, 0.17138671875, 0, 
291, 2409150457, 73.88262939453125, -72.316650390625, 173.00025939941406, 9.962135314941406, 3.2585439682006836, 0.3206181228160858, 1.1721969842910767, 1.9597578048706055, 1.1244007349014282, -1.01806640625, 0.31689453125, 0.193359375, 0, 
292, 2409158790, 73.8750991821289, -72.31353759765625, 172.9976043701172, 8.033971786499023, 0.9933469295501709, 1.2652194499969482, 1.590938687324524, 0.5587874054908752, -0.09915270656347275, -1.015625, 0.322265625, 0.17724609375, 0, 
293, 2409167123, 73.85623931884766, -72.30598449707031, 173.02520751953125, 8.214346885681152, 0.853854775428772, 1.4420894384384155, 3.5417189598083496, 1.69203782081604, -0.29822656512260437, -1.0341796875, 0.3291015625, 0.14501953125, 0, 
294, 2409175456, 73.92447662353516, -72.30897521972656, 172.9725799560547, 9.745290756225586, 3.0382421016693115, 1.0536612272262573, 4.969865798950195, -1.3950793743133545, 0.09865322709083557, -1.033203125, 0.32470703125, 0.1611328125, 0, 
295, 2409183789, 73.92118835449219, -72.31085205078125, 172.98431396484375, 10.518206596374512, 5.509798526763916, 0.42730870842933655, 3.596379041671753, 0.8233309984207153, 0.6250256299972534, -1.0283203125, 0.32421875, 0.16650390625, 0, 
296, 2409192122, 73.90773010253906, -72.32030487060547, 172.98399353027344, 10.339461326599121, 4.346434593200684, 0.3637702465057373, 1.1483887434005737, 0.22317685186862946, 1.3728461265563965, -1.0185546875, 0.31689453125, 0.18505859375, 0, 
297, 2409200455, 73.85687255859375, -72.31537628173828, 173.03054809570312, 8.301397323608398, 1.5631808042526245, 0.9595149755477905, 1.2488477230072021, 2.079594373703003, 0.14643658697605133, -1.01220703125, 0.318359375, 0.1865234375, 0, 
298, 2409208788, 73.84600830078125, -72.3101577758789, 173.04141235351562, 8.464402198791504, 0.7064760327339172, 1.0516772270202637, 2.7306952476501465, 1.1018604040145874, -0.20455527305603027, -1.02587890625, 0.3251953125, 0.154296875, 0, 
299, 2409217121, 73.89887237548828, -72.3102798461914, 172.9961700439453, 8.878390312194824, 2.001096487045288, 1.664909839630127, 4.506158828735352, -0.9066031575202942, -0.09319739788770676, -1.03466796875, 0.326171875, 0.1513671875, 0, 
300, 2409225454, 73.91305541992188, -72.30996704101562, 172.99603271484375, 10.62342643737793, 4.942718982696533, 0.1920400708913803, 4.48544979095459, 0.5560210347175598, 0.2454996556043625, -1.02587890625, 0.32177734375, 0.16748046875, 0, 
301, 2409233787, 73.92198944091797, -72.3207015991211, 172.97567749023438, 10.569499969482422, 5.071559429168701, 0.5227741003036499, 1.5320513248443604, -0.555290937423706, 1.3377161026000977, -1.02490234375, 0.32080078125, 0.177734375, 0, 
302, 2409242120, 73.84757232666016, -72.3183822631836, 173.04371643066406, 9.001174926757812, 2.445777416229248, 0.9234197735786438, 1.648468255996704, 3.00886607170105, 0.7068120837211609, -1.0126953125, 0.31494140625, 0.19482421875, 0, 
303, 2409250453, 73.84974670410156, -72.31433868408203, 173.0298309326172, 8.27880859375, 0.7575512528419495, 0.9812350869178772, 1.8202883005142212, 0.27695390582084656, -0.2666441798210144, -1.02099609375, 0.32421875, 0.17041015625, 0, 
304, 2409258786, 73.86266326904297, -72.30762481689453, 173.02854919433594, 8.413833618164062, 1.3878085613250732, 1.3778289556503296, 4.199978828430176, 0.7277132868766785, -0.49581480026245117, -1.033203125, 0.32666015625, 0.15185546875, 0, 
305, 2409267119, 73.91218566894531, -72.30895233154297, 172.99163818359375, 10.302948951721191, 3.7599895000457764, 0.714174211025238, 4.719871520996094, -0.7580789923667908, 0.09888375550508499, -1.02783203125, 0.3251953125, 0.166015625, 0, 
306, 2409275452, 73.9109115600586, -72.31385040283203, 172.99166870117188, 10.435373306274414, 5.443556308746338, 0.627773642539978, 2.6528279781341553, 0.38683900237083435, 0.8485355377197266, -1.0244140625, 0.32275390625, 0.17236328125, 0, 
307, 2409283785, 73.8744125366211, -72.31851196289062, 173.00120544433594, 10.025440216064453, 3.6659204959869385, 0.48700639605522156, 0.9900285601615906, 1.1515262126922607, 1.0781415700912476, -1.015625, 0.31787109375, 0.193359375, 0, 
308, 2409292118, 73.84974670410156, -72.31405639648438, 173.01483154296875, 8.138069152832031, 1.19402277469635, 0.992000937461853, 1.397960901260376, 1.1751937866210938, -0.09328703582286835, -1.01318359375, 0.31787109375, 0.1865234375, 0, 
309, 2409300451, 73.82701110839844, -72.30562591552734, 173.0435333251953, 8.419875144958496, 0.8557332158088684, 1.1954246759414673, 3.270284414291382, 1.7821487188339233, -0.38452085852622986, -1.03076171875, 0.330078125, 0.14599609375, 0, 
310, 2409308784, 73.89657592773438, -72.3067626953125, 172.990478515625, 9.362955093383789, 2.5655250549316406, 1.4163836240768433, 5.077202796936035, -1.3483717441558838, -0.11696740239858627, -1.03466796875, 0.3251953125, 0.15966796875, 0, 
311, 2409317117, 73.89895629882812, -72.3072280883789, 172.9976043701172, 10.52717113494873, 5.402791500091553, 0.2838229835033417, 3.7873075008392334, 0.7200032472610474, 0.41926655173301697, -1.02685546875, 0.32470703125, 0.1689453125, 0, 
312, 2409325450, 73.8956527709961, -72.31771850585938, 172.98817443847656, 10.533232688903809, 4.645384788513184, 0.38223615288734436, 1.3221938610076904, -0.13127295672893524, 1.4003686904907227, -1.01806640625, 0.31689453125, 0.1806640625, 0, 
313, 2409333783, 73.83871459960938, -72.31330871582031, 173.0360870361328, 8.445561408996582, 1.843601107597351, 1.0868457555770874, 1.4614074230194092, 2.34952974319458, 0.28668731451034546, -1.01123046875, 0.31591796875, 0.19482421875, 0, 
314, 2409342116, 73.83207702636719, -72.30731964111328, 173.03890991210938, 8.578286170959473, 0.7444573044776917, 0.9030442237854004, 2.3245303630828857, 0.8474085927009583, -0.37345555424690247, -1.025390625, 0.3291015625, 0.15283203125, 0, 
315, 2409350449, 73.86891174316406, -72.30487823486328, 173.0089569091797, 8.487617492675781, 1.882832646369934, 1.856603741645813, 4.411527156829834, -0.26103466749191284, -0.22335614264011383, -1.03662109375, 0.32763671875, 0.15380859375, 0, 
316, 2409358782, 73.8927001953125, -72.30387878417969, 173.00091552734375, 10.744061470031738, 4.368217468261719, -0.02208963967859745, 4.739133358001709, 0.30313166975975037, 0.08530820906162262, -1.02490234375, 0.326171875, 0.1689453125, 0, 
317, 2409367115, 73.90167999267578, -72.3131103515625, 172.98033142089844, 10.31653881072998, 5.161664962768555, 0.7977496385574341, 1.7726458311080933, -0.43295741081237793, 1.182929277420044, -1.0234375, 0.31982421875, 0.17041015625, 0, 
318, 2409375448, 73.83953094482422, -72.31277465820312, 173.0317840576172, 9.4813871383667, 2.9779694080352783, 0.45283427834510803, 1.221043348312378, 2.3626699447631836, 0.768030047416687, -1.01318359375, 0.3154296875, 0.19580078125, 0, 
319, 2409383781, 73.8437271118164, -72.31036376953125, 173.01475524902344, 8.041275978088379, 1.0495223999023438, 1.234101414680481, 1.6536550521850586, 0.09469582140445709, -0.11558422446250916, -1.01513671875, 0.32470703125, 0.16650390625, 0, 
320, 2409392114, 73.84007263183594, -72.30315399169922, 173.0272674560547, 8.32198715209961, 1.0996264219284058, 1.466675877571106, 3.7866928577423096, 1.2276772260665894, -0.4167691469192505, -1.03271484375, 0.32861328125, 0.1474609375, 0, 
321, 2409400447, 73.89566040039062, -72.30445861816406, 172.9824676513672, 10.271676063537598, 3.3981540203094482, 0.632522702217102, 4.919009208679199, -0.9202811121940613, 0.0538923554122448, -1.02978515625, 0.32568359375, 0.16064453125, 0, 
322, 2409408780, 73.889892578125, -72.30752563476562, 172.9888153076172, 10.390838623046875, 5.522252082824707, 0.8305811882019043, 2.8340871334075928, 0.6699403524398804, 0.701369047164917, -1.0263671875, 0.32373046875, 0.1669921875, 0, 
323, 2409417113, 73.86225128173828, -72.31433868408203, 172.993896484375, 10.248231887817383, 3.962135076522827, 0.4245529770851135, 1.189448356628418, 0.8155828714370728, 1.2476694583892822, -1.0146484375, 0.32080078125, 0.19091796875, 0, 
324, 2409425446, 73.83634185791016, -72.31134033203125, 173.01011657714844, 8.127269744873047, 1.2934988737106323, 1.0352905988693237, 1.5378913879394531, 1.2162535190582275, 0.10467257350683212, -1.01025390625, 0.31982421875, 0.18603515625, 0, 
325, 2409433779, 73.81307220458984, -72.30374145507812, 173.04209899902344, 8.389019012451172, 0.734405517578125, 1.1400399208068848, 3.065012216567993, 1.7110694646835327, -0.2964847683906555, -1.0283203125, 0.32763671875, 0.1513671875, 0, 
326, 2409442112, 73.87830352783203, -72.30484008789062, 172.98985290527344, 9.173385620117188, 2.537459373474121, 1.4652549028396606, 4.6567063331604, -1.3168789148330688, -0.11779986321926117, -1.02880859375, 0.32861328125, 0.15625, 0, 
327, 2409450445, 73.88446807861328, -72.30416107177734, 172.9934539794922, 10.644935607910156, 5.158677577972412, 0.20553714036941528, 4.190681457519531, 0.7389323115348816, 0.2841002941131592, -1.02734375, 0.32373046875, 0.1630859375, 0, 
328, 2409458778, 73.8886489868164, -72.31607818603516, 172.97601318359375, 10.596297264099121, 4.801882743835449, 0.37798500061035156, 1.3061593770980835, -0.45726531744003296, 1.4815399646759033, -1.01904296875, 0.31884765625, 0.1796875, 0, 
329, 2409467111, 73.81692504882812, -72.31270599365234, 173.0430145263672, 8.69572639465332, 2.1868011951446533, 1.091550350189209, 1.3825923204421997, 2.832742214202881, 0.5558416843414307, -1.009765625, 0.31884765625, 0.19384765625, 0, 
330, 2409475444, 73.82587432861328, -72.30902099609375, 173.0277099609375, 8.382606506347656, 0.7019098401069641, 1.077925205230713, 2.1192831993103027, 0.13766370713710785, -0.2939489483833313, -1.01904296875, 0.32421875, 0.162109375, 0, 
331, 2409483777, 73.8438949584961, -72.30416107177734, 173.02101135253906, 8.437678337097168, 1.5553926229476929, 1.5594500303268433, 4.3773579597473145, 0.5003868937492371, -0.3067304790019989, -1.03369140625, 0.32861328125, 0.1494140625, 0, 
332, 2409492110, 73.88752746582031, -72.30449676513672, 172.99392700195312, 10.561772346496582, 4.108811378479004, 0.22555327415466309, 4.94058895111084, -0.40975093841552734, 0.05042162537574768, -1.02880859375, 0.32373046875, 0.1630859375, 0, 
333, 2409500443, 73.89143371582031, -72.31283569335938, 172.9833526611328, 10.23743724822998, 5.334036827087402, 0.9131883978843689, 2.084038257598877, -0.1230764091014862, 1.1641799211502075, -1.02685546875, 0.32275390625, 0.16845703125, 0, 
334, 2409508776, 73.83826446533203, -72.31629943847656, 173.0260772705078, 9.89376449584961, 3.2684285640716553, 0.3649846613407135, 1.3022148609161377, 1.9310956001281738, 1.1168701648712158, -1.013671875, 0.31591796875, 0.19287109375, 0, 
335, 2409517109, 73.83114624023438, -72.31372833251953, 173.02630615234375, 8.132195472717285, 1.0410033464431763, 1.1328743696212769, 1.5554629564285278, 0.4866320490837097, -0.01979980245232582, -1.013671875, 0.32421875, 0.17529296875, 0, 
336, 2409525442, 73.80945587158203, -72.30546569824219, 173.05697631835938, 8.280234336853027, 0.9896730184555054, 1.4501017332077026, 3.702960252761841, 1.8984375, -0.3545266091823578, -1.03369140625, 0.32861328125, 0.14794921875, 0, 
337, 2409533775, 73.8794174194336, -72.30714416503906, 173.00267028808594, 9.773446083068848, 2.9771409034729004, 0.9926710724830627, 4.859391689300537, -1.4791964292526245, -0.06639209389686584, -1.04052734375, 0.31494140625, 0.17626953125, 0, 
338, 2409542108, 73.87651062011719, -72.30818939208984, 173.0125732421875, 10.420378684997559, 5.4081645011901855, 0.46166494488716125, 3.5798709392547607, 0.8614323139190674, 0.506700873374939, -1.0341796875, 0.31005859375, 0.18359375, 0, 
339, 2409550441, 73.86331176757812, -72.31859588623047, 173.00086975097656, 10.252044677734375, 4.29204797744751, 0.4238473176956177, 1.0675371885299683, 0.12726432085037231, 1.49824059009552, -1.025390625, 0.30810546875, 0.1982421875, 0, 
340, 2409558774, 73.81671905517578, -72.31431579589844, 173.0371551513672, 8.308955192565918, 1.568563461303711, 0.8969569206237793, 1.3616143465042114, 1.965828537940979, 0.15523508191108704, -1.01513671875, 0.30615234375, 0.20556640625, 0, 
341, 2409567107, 73.79822540283203, -72.30764770507812, 173.05552673339844, 8.48568058013916, 0.7954544425010681, 1.0688191652297974, 2.589099645614624, 1.358694076538086, -0.27850353717803955, -1.0322265625, 0.31787109375, 0.16796875, 0, 
342, 2409575440, 73.8537826538086, -72.30740356445312, 173.01185607910156, 8.866864204406738, 2.0901994705200195, 1.7209364175796509, 4.472168922424316, -0.9724060297012329, -0.18871288001537323, -1.0390625, 0.3173828125, 0.16943359375, 0, 
343, 2409583773, 73.87049865722656, -72.30647277832031, 173.0157928466797, 10.724189758300781, 4.693536281585693, 0.15587031841278076, 4.639711856842041, 0.49881160259246826, 0.18516530096530914, -1.033203125, 0.318359375, 0.181640625, 0, 
344, 2409592106, 73.88618469238281, -72.31756591796875, 172.98915100097656, 10.403884887695312, 5.023721218109131, 0.6128692030906677, 1.630717396736145, -0.7547746896743774, 1.2975786924362183, -1.02587890625, 0.310546875, 0.1865234375, 0, 
345, 2409600439, 73.8172378540039, -72.31621551513672, 173.05592346191406, 9.168644905090332, 2.6409425735473633, 0.5818403363227844, 1.448344111442566, 2.686689615249634, 0.7618826627731323, -1.015625, 0.31103515625, 0.20654296875, 0, 
346, 2409608772, 73.82502746582031, -72.31358337402344, 173.03794860839844, 8.20235824584961, 0.9385918974876404, 1.195281744003296, 1.6783342361450195, 0.008824103511869907, -0.2019682228565216, -1.02099609375, 0.31640625, 0.1796875, 0, 
347, 2409617105, 73.83159637451172, -72.30724334716797, 173.04212951660156, 8.39574146270752, 1.2589993476867676, 1.5383695363998413, 4.032872200012207, 0.8668753504753113, -0.37688785791397095, -1.0390625, 0.32177734375, 0.1611328125, 0, 
348, 2409625438, 73.88232421875, -72.30807495117188, 173.00865173339844, 10.390058517456055, 3.679986000061035, 0.41523686051368713, 5.063485622406006, -0.6494489312171936, 0.03820363059639931, -1.0361328125, 0.31591796875, 0.17431640625, 0, 
349, 2409633771, 73.88429260253906, -72.31210327148438, 173.00572204589844, 10.212333679199219, 5.474705219268799, 0.9865451455116272, 2.5262808799743652, 0.2306562066078186, 0.7224239706993103, -1.03076171875, 0.3173828125, 0.18603515625, 0, 
350, 2409642104, 73.84967041015625, -72.31854248046875, 173.0276336669922, 10.205052375793457, 3.665807008743286, 0.28091442584991455, 1.1521283388137817, 1.101975679397583, 1.2485915422439575, -1.01904296875, 0.31005859375, 0.20458984375, 0, 
351, 2409650437, 73.8350830078125, -72.3152847290039, 173.034912109375, 8.1970796585083, 1.1255069971084595, 1.0618395805358887, 1.4841527938842773, 0.7622412443161011, -0.023437023162841797, -1.01611328125, 0.3115234375, 0.19873046875, 0, 
352, 2409658770, 73.80915069580078, -72.30467224121094, 173.06625366210938, 8.300317764282227, 0.8281821012496948, 1.2691402435302734, 3.269592523574829, 2.0015344619750977, -0.616918683052063, -1.02978515625, 0.31982421875, 0.162109375, 0, 
353, 2409667103, 73.87986755371094, -72.30598449707031, 173.0066375732422, 9.35240364074707, 2.755831718444824, 1.373874545097351, 4.7022480964660645, -1.543001413345337, -0.12968486547470093, -1.03515625, 0.3173828125, 0.17431640625, 0, 
354, 2409675436, 73.88021087646484, -72.30546569824219, 173.01657104492188, 10.486955642700195, 5.30396032333374, 0.29423853754997253, 3.972728729248047, 0.9134930968284607, 0.3274138867855072, -1.0302734375, 0.31591796875, 0.18115234375, 0, 
355, 2409683769, 73.8797836303711, -72.31609344482422, 173.00267028808594, 10.560386657714844, 4.6671905517578125, 0.41001003980636597, 1.0814203023910522, -0.34435781836509705, 1.3808763027191162, -1.02734375, 0.3134765625, 0.19140625, 0, 
356, 2409692102, 73.8177490234375, -72.31282043457031, 173.0556182861328, 8.579968452453613, 2.0002291202545166, 1.0979173183441162, 1.4075661897659302, 2.512026309967041, 0.44739097356796265, -1.013671875, 0.30859375, 0.208984375, 0, 
357, 2409700435, 73.81843566894531, -72.30833435058594, 173.0462646484375, 8.63029670715332, 0.6978747248649597, 0.8657666444778442, 2.2680509090423584, 0.48176535964012146, -0.25747427344322205, -1.02685546875, 0.32275390625, 0.1689453125, 0, 
358, 2409708768, 73.84940338134766, -72.30521392822266, 173.02947998046875, 8.550702095031738, 1.7335171699523926, 1.683706283569336, 4.597230434417725, 0.06409961730241776, -0.2475103735923767, -1.0400390625, 0.3193359375, 0.162109375, 0, 
359, 2409717101, 73.88127899169922, -72.30459594726562, 173.00474548339844, 10.580387115478516, 4.266625881195068, 0.16147008538246155, 4.924324035644531, 0.017712244763970375, 0.07846920937299728, -1.03466796875, 0.31494140625, 0.17578125, 0, 
360, 2409725434, 73.89224243164062, -72.3131332397461, 172.98626708984375, 10.221323013305664, 5.197149753570557, 0.8794475793838501, 1.9959251880645752, -0.3834451138973236, 1.0857234001159668, -1.0263671875, 0.31103515625, 0.18994140625, 0, 
361, 2409733767, 73.8377685546875, -72.31385040283203, 173.0301513671875, 9.684368133544922, 3.1319775581359863, 0.3731827735900879, 1.3665579557418823, 2.057706832885742, 0.8417221903800964, -1.0185546875, 0.30859375, 0.2080078125, 0, 
362, 2409742100, 73.83844757080078, -72.31128692626953, 173.01837158203125, 8.14441967010498, 1.095465064048767, 1.08138108253479, 1.5310908555984497, 0.22158873081207275, -0.12825046479701996, -1.01708984375, 0.31591796875, 0.18505859375, 0, 
363, 2409750433, 73.82559204101562, -72.30286407470703, 173.0391082763672, 8.276305198669434, 1.1255525350570679, 1.5399001836776733, 3.6753222942352295, 1.5400686264038086, -0.4512203335762024, -1.03564453125, 0.32421875, 0.15869140625, 0, 
364, 2409758766, 73.89513397216797, -72.30583953857422, 172.98501586914062, 10.16771125793457, 3.1829094886779785, 0.6143587827682495, 4.961516380310059, -1.443695306777954, 0.07875096797943115, -1.03271484375, 0.31787109375, 0.1748046875, 0, 
365, 2409767099, 73.8941650390625, -72.30928802490234, 172.98512268066406, 10.459548950195312, 5.526671409606934, 0.7371214628219604, 3.024157762527466, 0.5100690126419067, 0.7381382584571838, -1.029296875, 0.3154296875, 0.18310546875, 0, 
366, 2409775432, 73.87054443359375, -72.31753540039062, 172.99594116210938, 10.208502769470215, 4.058389186859131, 0.5391263961791992, 1.208338737487793, 0.652868390083313, 1.3440428972244263, -1.02197265625, 0.3115234375, 0.197265625, 0, 
367, 2409783765, 73.8437271118164, -72.31497955322266, 173.00946044921875, 8.22802734375, 1.3167873620986938, 0.8244464993476868, 1.731432557106018, 1.2649718523025513, 0.20505475997924805, -1.01806640625, 0.31103515625, 0.203125, 0, 
368, 2409792098, 73.8184585571289, -72.3060073852539, 173.03570556640625, 8.276020050048828, 0.6886429786682129, 1.2083978652954102, 2.7662734985351562, 1.7698540687561035, -0.48398101329803467, -1.02978515625, 0.3203125, 0.16552734375, 0, 
369, 2409800431, 73.87821960449219, -72.30592346191406, 172.979736328125, 9.124722480773926, 2.4926559925079346, 1.499292016029358, 4.595437049865723, -1.1268470287322998, -0.1839870661497116, -1.03759765625, 0.31982421875, 0.16943359375, 0, 
370, 2409808764, 73.8914566040039, -72.30538177490234, 172.9808349609375, 10.698869705200195, 4.9835944175720215, 0.1519751250743866, 4.5153422355651855, 0.6078898310661316, 0.2324363887310028, -1.03271484375, 0.31591796875, 0.18017578125, 0, 
371, 2409817097, 73.89976501464844, -72.31648254394531, 172.95372009277344, 10.52862548828125, 4.9080810546875, 0.506499707698822, 1.273988127708435, -0.6230919361114502, 1.3686071634292603, -1.0283203125, 0.310546875, 0.1875, 0, 
372, 2409825430, 73.82716369628906, -72.314208984375, 173.01600646972656, 8.937604904174805, 2.382617235183716, 0.8032186031341553, 1.208082675933838, 2.80615496635437, 0.6537905931472778, -1.01416015625, 0.306640625, 0.20751953125, 0, 
373, 2409833763, 73.83546447753906, -72.31031036376953, 172.99986267089844, 8.27652645111084, 0.759956419467926, 1.2235420942306519, 1.984168291091919, 0.09478547424077988, -0.30603888630867004, -1.0234375, 0.31591796875, 0.17626953125, 0, 
374, 2409842096, 73.84998321533203, -72.30451202392578, 172.9985809326172, 8.393556594848633, 1.3399754762649536, 1.4453363418579102, 4.3887810707092285, 0.6961053013801575, -0.38872164487838745, -1.03759765625, 0.3203125, 0.1591796875, 0, 
375, 2409850429, 73.89681243896484, -72.30553436279297, 172.9738006591797, 10.467631340026855, 4.012418746948242, 0.2132348120212555, 4.998963832855225, -0.5620018839836121, 0.11986181885004044, -1.03466796875, 0.31787109375, 0.173828125, 0, 
376, 2409858762, 73.89876556396484, -72.3123779296875, 172.9662322998047, 10.147964477539062, 5.38650369644165, 1.042242407798767, 2.164851427078247, 0.05654342100024223, 0.9968932271003723, -1.02783203125, 0.3154296875, 0.1767578125, 0, 
377, 2409867095, 73.85110473632812, -72.31644439697266, 173.0160675048828, 10.115083694458008, 3.3356456756591797, 0.25981324911117554, 1.2980399131774902, 1.6766951084136963, 1.1550099849700928, -1.02197265625, 0.31494140625, 0.20263671875, 0, 
378, 2409875428, 73.83854675292969, -72.31314849853516, 173.01766967773438, 8.173017501831055, 1.049193263053894, 1.12947678565979, 1.477006435394287, 0.7153159379959106, -0.08263152837753296, -1.01611328125, 0.3154296875, 0.1904296875, 0, 
379, 2409883761, 73.8147964477539, -72.3023910522461, 173.04684448242188, 8.21633529663086, 1.0058633089065552, 1.5497370958328247, 3.5283992290496826, 1.9753825664520264, -0.61763596534729, -1.03466796875, 0.32275390625, 0.1552734375, 0, 
380, 2409892094, 73.88996887207031, -72.30484771728516, 172.9845733642578, 9.681024551391602, 2.998079538345337, 1.0146139860153198, 4.695845603942871, -1.715769648551941, -0.06083381548523903, -1.03515625, 0.3232421875, 0.16650390625, 0, 
381, 2409900427, 73.88369750976562, -72.3052749633789, 172.99752807617188, 10.427265167236328, 5.31817102432251, 0.3724629580974579, 3.6332125663757324, 0.9916934370994568, 0.49605801701545715, -1.0234375, 0.3232421875, 0.17236328125, 0, 
382, 2409908760, 73.87647247314453, -72.31522369384766, 172.99053955078125, 10.29676342010498, 4.377850532531738, 0.4318488836288452, 1.1290497779846191, -0.028418993577361107, 1.3651106357574463, -1.0205078125, 0.31640625, 0.18408203125, 0, 
383, 2409917093, 73.82002258300781, -72.3108139038086, 173.0323486328125, 8.426040649414062, 1.8347910642623901, 0.948648989200592, 1.5619304180145264, 2.363323211669922, 0.2914387881755829, -1.01171875, 0.31884765625, 0.19384765625, 0, 
384, 2409925426, 73.81281280517578, -72.3054428100586, 173.0350799560547, 8.556292533874512, 0.7913324236869812, 0.9898315668106079, 2.246624708175659, 0.824880838394165, -0.30866435170173645, -1.02197265625, 0.32568359375, 0.154296875, 0, 
385, 2409933759, 73.85370635986328, -72.30265045166016, 173.0010223388672, 8.783793449401855, 1.8803082704544067, 1.7693605422973633, 4.4499101638793945, -0.3853533864021301, -0.30446359515190125, -1.03271484375, 0.32958984375, 0.1513671875, 0, 
386, 2409942092, 73.88021850585938, -72.3017578125, 172.990478515625, 10.655646324157715, 4.433534622192383, 0.16793610155582428, 4.778015613555908, 0.21012639999389648, 0.07296214997768402, -1.02294921875, 0.32177734375, 0.166015625, 0, 
387, 2409950425, 73.89358520507812, -72.31034851074219, 172.96640014648438, 10.304689407348633, 5.133613109588623, 0.8439062237739563, 1.8030756711959839, -0.5635387301445007, 1.0704060792922974, -1.02490234375, 0.32568359375, 0.17138671875, 0, 
388, 2409958758, 73.83370971679688, -72.31111907958984, 173.01773071289062, 9.3653564453125, 2.9560718536376953, 0.5499576330184937, 1.4824494123458862, 2.3211617469787598, 0.8949357271194458, -1.01220703125, 0.31640625, 0.19970703125, 0, 
389, 2409967091, 73.83690643310547, -72.30740356445312, 173.00746154785156, 8.236030578613281, 1.0157917737960815, 1.0254772901535034, 1.7104929685592651, 0.1942327320575714, -0.2507633864879608, -1.01318359375, 0.3232421875, 0.17431640625, 0, 
390, 2409975424, 73.8338851928711, -72.30079650878906, 173.01966857910156, 8.292349815368652, 1.1291491985321045, 1.5335009098052979, 3.8311593532562256, 1.1981441974639893, -0.3536813259124756, -1.02978515625, 0.330078125, 0.1484375, 0, 
391, 2409983757, 73.89491271972656, -72.30259704589844, 172.97222900390625, 10.239221572875977, 3.4201531410217285, 0.6297808885574341, 4.9751296043396, -1.120430588722229, 0.049973368644714355, -1.0322265625, 0.32666015625, 0.16015625, 0, 
392, 2409992090, 73.89571380615234, -72.30725860595703, 172.97171020507812, 10.308509826660156, 5.5499372482299805, 0.7794036269187927, 2.830308675765991, 0.37426239252090454, 0.8234335780143738, -1.02490234375, 0.32421875, 0.1728515625, 0, 
393, 2410000423, 73.86866760253906, -72.31419372558594, 172.9845733642578, 10.185087203979492, 3.8945600986480713, 0.5380845665931702, 1.1273976564407349, 0.7689265012741089, 1.2474515438079834, -1.01708984375, 0.3212890625, 0.1845703125, 0, 
394, 2410008756, 73.84408569335938, -72.31196594238281, 173.0006103515625, 8.265582084655762, 1.2577215433120728, 0.7692030668258667, 1.683021903038025, 1.187565565109253, 0.1906595528125763, -1.01171875, 0.318359375, 0.19091796875, 0, 
395, 2410017089, 73.82086181640625, -72.3023681640625, 173.02792358398438, 8.340490341186523, 0.8509252071380615, 1.3471503257751465, 2.9645018577575684, 1.746493935585022, -0.5386162400245667, -1.02685546875, 0.3271484375, 0.14892578125, 0, 
396, 2410025422, 73.88842010498047, -72.30329895019531, 172.97474670410156, 9.146562576293945, 2.4719910621643066, 1.4862290620803833, 4.822021007537842, -1.3466428518295288, -0.14448989927768707, -1.0341796875, 0.32861328125, 0.158203125, 0, 
397, 2410033755, 73.8960189819336, -72.30257415771484, 172.987060546875, 10.657262802124023, 5.169085502624512, 0.14905135333538055, 4.363705635070801, 0.7426207065582275, 0.2790799140930176, -1.02685546875, 0.32421875, 0.1728515625, 0, 
398, 2410042088, 73.89966583251953, -72.31529235839844, 172.9695281982422, 10.47618293762207, 4.788997173309326, 0.42785653471946716, 1.2291886806488037, -0.48823291063308716, 1.5773630142211914, -1.02294921875, 0.3193359375, 0.17919921875, 0, 
399, 2410050421, 73.83393859863281, -72.31239318847656, 173.030029296875, 8.812315940856934, 2.2661709785461426, 1.0091313123703003, 1.3559023141860962, 2.5881261825561523, 0.5400633215904236, -1.0107421875, 0.31787109375, 0.19873046875, 0, 
400, 2410058754, 73.83983612060547, -72.30892181396484, 173.01702880859375, 8.473064422607422, 0.7109740972518921, 0.9362548589706421, 2.0207712650299072, 0.2102288454771042, -0.24617843329906464, -1.01953125, 0.32275390625, 0.1630859375, 0, 
401, 2410067087, 73.86390686035156, -72.30445861816406, 173.00209045410156, 8.47488784790039, 1.4950655698776245, 1.5801103115081787, 4.4021782875061035, 0.27434128522872925, -0.3198449909687042, -1.03515625, 0.3291015625, 0.14892578125, 0, 
402, 2410075420, 73.90574645996094, -72.30412292480469, 172.97805786132812, 10.512803077697754, 4.059236526489258, 0.1604430079460144, 5.0731940269470215, -0.2813211679458618, 0.002394930925220251, -1.02734375, 0.32275390625, 0.16748046875, 0, 
403, 2410083753, 73.91326141357422, -72.311279296875, 172.9630889892578, 10.112948417663574, 5.36744499206543, 1.0825289487838745, 2.083346366882324, -0.21387885510921478, 0.9891321063041687, -1.02197265625, 0.3232421875, 0.16943359375, 0, 
404, 2410092086, 73.86212158203125, -72.31471252441406, 173.0044708251953, 9.900625228881836, 3.246291160583496, 0.18882600963115692, 1.3946824073791504, 1.8855533599853516, 1.1000417470932007, -1.01318359375, 0.31494140625, 0.1923828125, 0, 
405, 2410100419, 73.85652923583984, -72.3114242553711, 173.00714111328125, 8.106038093566895, 1.1011086702346802, 1.2092238664627075, 1.4258803129196167, 0.4149377942085266, -0.1286090761423111, -1.009765625, 0.322265625, 0.177734375, 0, 
406, 2410108752, 73.83850860595703, -72.30338287353516, 173.031982421875, 8.327132225036621, 1.0231077671051025, 1.272603988647461, 3.4726109504699707, 1.6865049600601196, -0.3859040141105652, -1.02978515625, 0.32861328125, 0.1474609375, 0, 
407, 2410117085, 73.91488647460938, -72.30618286132812, 172.96847534179688, 9.863624572753906, 3.0431621074676514, 1.071077585220337, 4.7779130935668945, -1.776808261871338, -0.01247413083910942, -1.03173828125, 0.3251953125, 0.16455078125, 0, 
408, 2410125418, 73.91053771972656, -72.30697631835938, 172.97955322265625, 10.504171371459961, 5.351263999938965, 0.405529260635376, 3.542409896850586, 0.9093436598777771, 0.487297922372818, -1.0234375, 0.32177734375, 0.17138671875, 0, 
409, 2410133751, 73.90513610839844, -72.31647491455078, 172.96714782714844, 10.336554527282715, 4.275332450866699, 0.46650874614715576, 1.1354405879974365, -0.10696504265069962, 1.3124605417251587, -1.0205078125, 0.318359375, 0.185546875, 0, 
410, 2410142084, 73.85017395019531, -72.31267547607422, 173.01251220703125, 8.259528160095215, 1.7196742296218872, 0.9671930074691772, 1.3843342065811157, 2.265002727508545, 0.3088436424732208, -1.009765625, 0.31591796875, 0.19384765625, 0, 
411, 2410150417, 73.8464126586914, -72.3071060180664, 173.01405334472656, 8.524413108825684, 0.7229670286178589, 0.9582275748252869, 2.3984529972076416, 0.7204388380050659, -0.3324984014034271, -1.0263671875, 0.3271484375, 0.154296875, 0, 
412, 2410158750, 73.89617156982422, -72.30618286132812, 172.97799682617188, 8.827469825744629, 1.9450879096984863, 1.7029972076416016, 4.649176120758057, -0.6842586994171143, -0.18613864481449127, -1.0341796875, 0.3271484375, 0.15283203125, 0, 
413, 2410167083, 73.91519165039062, -72.30652618408203, 172.9817657470703, 10.677720069885254, 4.7328267097473145, 0.12694111466407776, 4.688621997833252, 0.3879404067993164, 0.31306999921798706, -1.02880859375, 0.32568359375, 0.16455078125, 0, 
414, 2410175416, 73.92472076416016, -72.31745147705078, 172.96170043945312, 10.443050384521484, 5.09538459777832, 0.6196333765983582, 1.6437679529190063, -0.5175228118896484, 1.3426214456558228, -1.02392578125, 0.322265625, 0.1806640625, 0, 
415, 2410183749, 73.8544692993164, -72.31587982177734, 173.0116424560547, 9.185457229614258, 2.746025800704956, 0.7377988696098328, 1.2228235006332397, 2.6710779666900635, 0.7345393896102905, -1.0166015625, 0.31884765625, 0.19384765625, 0, 
416, 2410192082, 73.86071014404297, -72.3128662109375, 172.99623107910156, 8.347394943237305, 0.8592924475669861, 1.004581093788147, 1.788040041923523, 0.10889891535043716, -0.22061538696289062, -1.01708984375, 0.32080078125, 0.1640625, 0, 
417, 2410200415, 73.86512756347656, -72.30614471435547, 172.98719787597656, 8.227580070495605, 1.1837655305862427, 1.606184959411621, 4.064364910125732, 0.9701904058456421, -0.4007219076156616, -1.03369140625, 0.32958984375, 0.1494140625, 0, 
418, 2410208748, 73.9207992553711, -72.30659484863281, 172.9473876953125, 10.441828727722168, 3.6385958194732666, 0.30440953373908997, 4.9310994148254395, -0.8593961000442505, -0.067711241543293, -1.02880859375, 0.32275390625, 0.16650390625, 0, 
419, 2410217081, 73.92252349853516, -72.31230163574219, 172.9436492919922, 10.274921417236328, 5.620872497558594, 0.9319593906402588, 2.592941999435425, 0.20305685698986053, 0.9267615079879761, -1.02587890625, 0.32275390625, 0.16748046875, 0, 
420, 2410225414, 73.88341522216797, -72.31822967529297, 172.96975708007812, 10.113941192626953, 3.6991629600524902, 0.4011729955673218, 1.0875164270401, 1.2652536630630493, 1.2329028844833374, -1.017578125, 0.31787109375, 0.1884765625, 0, 
421, 2410233747, 73.86360168457031, -72.31668090820312, 172.96446228027344, 8.284646987915039, 1.1338998079299927, 0.9029021263122559, 1.5819224119186401, 0.9284519553184509, 0.23474165797233582, -1.01171875, 0.3212890625, 0.1806640625, 0, 
422, 2410242080, 73.83499908447266, -72.30755615234375, 172.9978790283203, 8.242077827453613, 0.7553607821464539, 1.5478237867355347, 3.1889591217041016, 2.0246129035949707, -0.4302166700363159, -1.02734375, 0.32958984375, 0.1474609375, 0, 
423, 2410250413, 73.9046401977539, -72.30896759033203, 172.9300537109375, 9.420377731323242, 2.729323625564575, 1.2709282636642456, 4.907316207885742, -1.443823218345642, -0.08342555910348892, -1.03466796875, 0.32373046875, 0.16064453125, 0, 
424, 2410258746, 73.9058609008789, -72.30827331542969, 172.94119262695312, 10.536883354187012, 5.301008224487305, 0.24708350002765656, 4.221956253051758, 0.9624677896499634, 0.3170914649963379, -1.0263671875, 0.32373046875, 0.17041015625, 0, 
425, 2410267079, 73.90541076660156, -72.31954193115234, 172.92901611328125, 10.44699478149414, 4.6680006980896, 0.3681133985519409, 1.2073909044265747, -0.32327723503112793, 1.4761611223220825, -1.02294921875, 0.3203125, 0.1826171875, 0, 
426, 2410275412, 73.83734130859375, -72.314208984375, 172.98561096191406, 8.661354064941406, 1.975887417793274, 0.8242590427398682, 1.103550910949707, 2.707463026046753, 0.2435017228126526, -1.0107421875, 0.31591796875, 0.197265625, 0, 
427, 2410283745, 73.83512878417969, -72.31001281738281, 172.9741668701172, 8.444618225097656, 0.8238920569419861, 1.1488456726074219, 2.202657699584961, 0.5578140020370483, -0.20427349209785461, -1.02197265625, 0.328125, 0.15576171875, 0, 
428, 2410292078, 73.87109375, -72.30690002441406, 172.9497528076172, 8.546355247497559, 1.5837829113006592, 1.6962459087371826, 4.324259281158447, -0.20084123313426971, -0.32238078117370605, -1.0341796875, 0.326171875, 0.1533203125, 0, 
429, 2410300411, 73.89091491699219, -72.30551147460938, 172.9420623779297, 10.600264549255371, 4.503395080566406, 0.16601228713989258, 4.79128360748291, 0.4455724060535431, 0.11233122646808624, -1.02734375, 0.32373046875, 0.16650390625, 0, 
430, 2410308744, 73.90465545654297, -72.31537628173828, 172.91928100585938, 10.426589965820312, 5.197899341583252, 0.7729849815368652, 1.8469655513763428, -0.5757951736450195, 1.1913691759109497, -1.0234375, 0.32080078125, 0.17724609375, 0, 
431, 2410317077, 73.83882141113281, -72.3147964477539, 172.96632385253906, 9.522469520568848, 2.9186179637908936, 0.6075999736785889, 1.6872352361679077, 2.617774724960327, 0.8417093753814697, -1.01513671875, 0.3173828125, 0.1962890625, 0, 
432, 2410325410, 73.8416519165039, -72.31101989746094, 172.95339965820312, 8.111318588256836, 0.8998510241508484, 1.0904231071472168, 1.6583038568496704, 0.22180646657943726, -0.2803221642971039, -1.01611328125, 0.32373046875, 0.1748046875, 0, 
433, 2410333743, 73.83941650390625, -72.30264282226562, 172.96400451660156, 8.30219841003418, 1.1608636379241943, 1.295127272605896, 3.81896710395813, 1.1925859451293945, -0.5475042462348938, -1.03955078125, 0.3193359375, 0.166015625, 0, 
434, 2410342076, 73.89771270751953, -72.30438232421875, 172.92010498046875, 10.037866592407227, 3.405052661895752, 0.9984469413757324, 4.775940895080566, -1.0460342168807983, 0.04032961651682854, -1.03662109375, 0.3134765625, 0.18115234375, 0, 
435, 2410350409, 73.90055847167969, -72.30657196044922, 172.9149627685547, 10.47909164428711, 5.483721733093262, 0.5125550627708435, 3.025822639465332, 0.4088928699493408, 0.5548940300941467, -1.03271484375, 0.3154296875, 0.18701171875, 0, 
436, 2410358742, 73.87689208984375, -72.31475067138672, 172.92420959472656, 10.213541030883789, 4.024115085601807, 0.43982434272766113, 1.0143364667892456, 0.6006665825843811, 1.321066975593567, -1.02294921875, 0.30810546875, 0.2001953125, 0, 
437, 2410367075, 73.8405990600586, -72.31001281738281, 172.94776916503906, 8.085801124572754, 1.3464372158050537, 1.0369795560836792, 1.4248813390731812, 1.5913739204406738, 0.02529405616223812, -1.01611328125, 0.30810546875, 0.19921875, 0, 
438, 2410375408, 73.82723236083984, -72.30443572998047, 172.9637908935547, 8.534360885620117, 0.7295911908149719, 1.0256695747375488, 3.0276405811309814, 1.296912670135498, -0.19489869475364685, -1.03515625, 0.32080078125, 0.16015625, 0, 
439, 2410383741, 73.89081573486328, -72.3040771484375, 172.9165802001953, 9.012608528137207, 2.1895487308502197, 1.6382203102111816, 4.917049407958984, -1.1556117534637451, -0.2228950560092926, -1.04052734375, 0.32080078125, 0.166015625, 0, 
440, 2410392074, 73.90010833740234, -72.30388641357422, 172.91835021972656, 10.581421852111816, 5.316900730133057, 0.09625318646430969, 4.12216329574585, 0.618955135345459, 0.27828583121299744, -1.03076171875, 0.31298828125, 0.1796875, 0, 
441, 2410400407, 73.91036224365234, -72.31536102294922, 172.8972625732422, 10.58107852935791, 4.879552841186523, 0.40080785751342773, 1.5233169794082642, -0.6279329657554626, 1.4125608205795288, -1.02587890625, 0.31640625, 0.19287109375, 0, 
442, 2410408740, 73.85172271728516, -72.31283569335938, 172.94638061523438, 8.703740119934082, 2.145265817642212, 1.16144859790802, 1.378007411956787, 2.3510923385620117, 0.492395281791687, -1.01708984375, 0.30859375, 0.2021484375, 0, 
443, 2410417073, 73.85147857666016, -72.30703735351562, 172.9400634765625, 8.544600486755371, 0.6615992784500122, 0.768815279006958, 2.081655979156494, 0.5002844333648682, -0.42135417461395264, -1.0234375, 0.3193359375, 0.17041015625, 0, 
444, 2410425406, 73.87499237060547, -72.30322265625, 172.92825317382812, 8.340203285217285, 1.6936020851135254, 1.7247785329818726, 4.270495414733887, 0.26294296979904175, -0.27422600984573364, -1.0390625, 0.318359375, 0.1611328125, 0, 
445, 2410433739, 73.91192626953125, -72.3026123046875, 172.91024780273438, 10.577352523803711, 4.033583164215088, 0.101878821849823, 4.849299907684326, -0.18987834453582764, 0.025319671258330345, -1.0322265625, 0.31787109375, 0.17822265625, 0, 
446, 2410442072, 73.91688537597656, -72.31043243408203, 172.89840698242188, 10.25374698638916, 5.397012233734131, 0.9419382810592651, 2.03912353515625, -0.12622694671154022, 1.0658082962036133, -1.02978515625, 0.31396484375, 0.18017578125, 0, 
447, 2410450405, 73.86679077148438, -72.31410217285156, 172.94468688964844, 9.822781562805176, 3.1787667274475098, 0.3081476092338562, 1.1829038858413696, 1.7474159002304077, 1.121737003326416, -1.02001953125, 0.30859375, 0.2041015625, 0, 
448, 2410458738, 73.86309814453125, -72.31158447265625, 172.93768310546875, 8.021820068359375, 1.0961874723434448, 1.2189302444458008, 1.5548479557037354, 0.38722315430641174, -0.07522900402545929, -1.01806640625, 0.31591796875, 0.1845703125, 0, 
449, 2410467071, 73.8516616821289, -72.30403900146484, 172.95693969726562, 8.315295219421387, 0.9375699162483215, 1.4205490350723267, 3.6028854846954346, 1.4386874437332153, -0.3680509626865387, -1.03515625, 0.32421875, 0.15771484375, 0, 
450, 2410475404, 73.92123413085938, -72.30752563476562, 172.90402221679688, 9.962359428405762, 3.106247663497925, 0.9186804294586182, 5.099628448486328, -1.4198740720748901, 0.15052206814289093, -1.03466796875, 0.31640625, 0.17431640625, 0, 
451, 2410483737, 73.91572570800781, -72.31018829345703, 172.911865234375, 10.45583724975586, 5.468645095825195, 0.6009896993637085, 3.183913469314575, 0.7508684992790222, 0.7018428444862366, -1.0283203125, 0.31689453125, 0.17626953125, 0, 
452, 2410492070, 73.90069580078125, -72.31871032714844, 172.9145050048828, 10.434183120727539, 4.2697296142578125, 0.17007660865783691, 1.2911239862442017, 0.3569728136062622, 1.2969385385513306, -1.021484375, 0.3134765625, 0.203125, 0, 
453, 2410500403, 73.85855102539062, -72.31430053710938, 172.9420928955078, 8.168375968933105, 1.464769721031189, 1.0616228580474854, 1.4256370067596436, 1.7934573888778687, 0.12448516488075256, -1.01513671875, 0.3115234375, 0.19775390625, 0, 
454, 2410508736, 73.84498596191406, -72.30743408203125, 172.95645141601562, 8.409570693969727, 0.735012948513031, 1.0303441286087036, 2.8172457218170166, 1.2818516492843628, -0.36203160881996155, -1.02978515625, 0.32177734375, 0.16552734375, 0, 
455, 2410517069, 73.90666198730469, -72.30878448486328, 172.90744018554688, 8.9572114944458, 2.14208984375, 1.6193972826004028, 4.669462203979492, -1.2198779582977295, -0.02768898941576481, -1.0380859375, 0.3193359375, 0.166015625, 0, 
456, 2410525402, 73.91973114013672, -72.3083724975586, 172.9076690673828, 10.56954574584961, 5.101146697998047, 0.226629838347435, 4.392815589904785, 0.5698912143707275, 0.2403639853000641, -1.03271484375, 0.3173828125, 0.17626953125, 0, 
457, 2410533735, 73.92691040039062, -72.32014465332031, 172.8858184814453, 10.67052936553955, 4.980936050415039, 0.28394439816474915, 1.328392744064331, -0.586207389831543, 1.465531349182129, -1.02587890625, 0.3154296875, 0.1884765625, 0, 
458, 2410542068, 73.85558319091797, -72.31629943847656, 172.94908142089844, 8.863720893859863, 2.3706960678100586, 1.0001442432403564, 1.4726265668869019, 2.8920395374298096, 0.4826362729072571, -1.01513671875, 0.3095703125, 0.2060546875, 0, 
459, 2410550401, 73.86347198486328, -72.3122787475586, 172.93814086914062, 8.35827922821045, 0.6465703248977661, 1.038212776184082, 1.9952847957611084, 0.11904215812683105, -0.31157153844833374, -1.02490234375, 0.31689453125, 0.16748046875, 0, 
460, 2410558734, 73.88868713378906, -72.30731201171875, 172.9261474609375, 8.326139450073242, 1.3997687101364136, 1.5977941751480103, 4.452535629272461, 0.2946021258831024, -0.40831655263900757, -1.04052734375, 0.32080078125, 0.1591796875, 0, 
461, 2410567067, 73.93206024169922, -72.30902099609375, 172.9086456298828, 10.494693756103516, 4.121945381164551, 0.2048119157552719, 5.022042274475098, -0.4546782672405243, 0.23599675297737122, -1.03564453125, 0.31787109375, 0.17626953125, 0, 
462, 2410575400, 73.93693542480469, -72.31805419921875, 172.8982391357422, 10.329291343688965, 5.5064897537231445, 0.8987742066383362, 2.1930525302886963, -0.1147005558013916, 1.2224010229110718, -1.02783203125, 0.31396484375, 0.1787109375, 0, 
463, 2410583733, 73.88517761230469, -72.32144927978516, 172.95098876953125, 10.002811431884766, 3.379434108734131, 0.3506926894187927, 1.1564825773239136, 1.8067511320114136, 1.1038967370986938, -1.021484375, 0.3115234375, 0.20458984375, 0, 
464, 2410592066, 73.88056945800781, -72.31867218017578, 172.9452362060547, 8.211899757385254, 0.9487674236297607, 1.1051499843597412, 1.5859819650650024, 0.439719557762146, -0.09122508764266968, -1.0166015625, 0.31591796875, 0.18408203125, 0, 
465, 2410600399, 73.8589859008789, -72.31018829345703, 172.97415161132812, 8.20569896697998, 0.8658896684646606, 1.472429633140564, 3.5729293823242188, 1.83464515209198, -0.3785143196582794, -1.0361328125, 0.32421875, 0.15625, 0, 
466, 2410608732, 73.93379974365234, -72.3128890991211, 172.9144744873047, 9.70097827911377, 3.061500072479248, 1.0508577823638916, 4.954458713531494, -1.6312041282653809, -0.007031106855720282, -1.0390625, 0.3203125, 0.17041015625, 0, 
467, 2410617065, 73.93777465820312, -72.31549835205078, 172.92330932617188, 10.473419189453125, 5.548795700073242, 0.3955436944961548, 3.536468029022217, 0.5114266276359558, 0.6290215849876404, -1.02978515625, 0.31884765625, 0.18017578125, 0, 
468, 2410625398, 73.92272186279297, -72.32408905029297, 172.923583984375, 10.398246765136719, 4.356010437011719, 0.41902729868888855, 1.0213547945022583, 0.2724713981151581, 1.2811599969863892, -1.0224609375, 0.31201171875, 0.19384765625, 0, 
469, 2410633731, 73.87891387939453, -72.31977844238281, 172.96641540527344, 8.381463050842285, 1.4522837400436401, 0.918609619140625, 1.248911738395691, 1.79987370967865, 0.1386626660823822, -1.01708984375, 0.30908203125, 0.2001953125, 0, 
470, 2410642064, 73.86552429199219, -72.31327056884766, 172.97911071777344, 8.439462661743164, 0.7339903712272644, 1.082558035850525, 2.6435811519622803, 1.20846688747406, -0.3353928029537201, -1.03076171875, 0.32080078125, 0.1630859375, 0, 
471, 2410650397, 73.92501068115234, -72.31301879882812, 172.9263153076172, 8.782195091247559, 2.1431069374084473, 1.6965705156326294, 4.495055198669434, -1.1374770402908325, -0.20209632813930511, -1.03857421875, 0.3212890625, 0.16748046875, 0, 
472, 2410658730, 73.93592071533203, -72.31272888183594, 172.92959594726562, 10.665098190307617, 4.931233882904053, 0.19058233499526978, 4.483938694000244, 0.6738209128379822, 0.2834855616092682, -1.029296875, 0.318359375, 0.18115234375, 0, 
473, 2410667063, 73.9469985961914, -72.32350158691406, 172.89993286132812, 10.575726509094238, 4.980411052703857, 0.44061219692230225, 1.5267236232757568, -0.6358477473258972, 1.3197861909866333, -1.02783203125, 0.31494140625, 0.1904296875, 0, 
474, 2410675396, 73.87434387207031, -72.3210678100586, 172.96421813964844, 9.051777839660645, 2.5312588214874268, 0.8530787825584412, 1.4248559474945068, 2.880051851272583, 0.6569923162460327, -1.01513671875, 0.31103515625, 0.20458984375, 0, 
475, 2410683729, 73.87943267822266, -72.31781005859375, 172.95484924316406, 8.200812339782715, 0.8066019415855408, 1.0221136808395386, 1.9254604578018188, 0.17452256381511688, -0.1991506665945053, -1.021484375, 0.3212890625, 0.177734375, 0, 
476, 2410692062, 73.89360809326172, -72.31205749511719, 172.95191955566406, 8.305584907531738, 1.3613327741622925, 1.4809200763702393, 4.167705059051514, 0.6371924877166748, -0.4070102274417877, -1.0380859375, 0.322265625, 0.158203125, 0, 
477, 2410700395, 73.94094848632812, -72.31262969970703, 172.92428588867188, 10.376627922058105, 3.744671583175659, 0.491397887468338, 4.891537666320801, -0.5974264740943909, 0.05738869681954384, -1.03125, 0.32421875, 0.1650390625, 0, 
478, 2410708728, 73.94459533691406, -72.31767272949219, 172.91668701171875, 10.380252838134766, 5.442989349365234, 0.8729740381240845, 2.3675622940063477, 0.1154305562376976, 0.7908011078834534, -1.02587890625, 0.32470703125, 0.17236328125, 0, 
479, 2410717061, 73.9063949584961, -72.32278442382812, 172.94024658203125, 10.060083389282227, 3.5907623767852783, 0.3149406909942627, 1.0854672193527222, 1.2313401699066162, 1.1499382257461548, -1.0166015625, 0.31494140625, 0.1962890625, 0, 
480, 2410725394, 73.89256286621094, -72.31990051269531, 172.9427947998047, 8.117396354675293, 1.0970815420150757, 1.0896140336990356, 1.432616949081421, 0.7347314953804016, -0.02207946963608265, -1.013671875, 0.322265625, 0.18359375, 0, 
481, 2410733727, 73.87090301513672, -72.31061553955078, 172.97927856445312, 8.281868934631348, 0.8539137244224548, 1.3028271198272705, 3.4365973472595215, 1.823105812072754, -0.4743499755859375, -1.03125, 0.3291015625, 0.1474609375, 0, 
482, 2410742060, 73.94346618652344, -72.31277465820312, 172.92079162597656, 9.499320030212402, 2.742417573928833, 1.2498525381088257, 4.818126678466797, -1.5730470418930054, -0.0588102824985981, -1.0302734375, 0.32470703125, 0.16064453125, 0, 
483, 2410750393, 73.94091033935547, -72.3139419555664, 172.93545532226562, 10.530851364135742, 5.47919225692749, 0.340774804353714, 3.680675745010376, 0.8443604111671448, 0.5453398823738098, -1.02685546875, 0.326171875, 0.1650390625, 0, 
484, 2410758726, 73.9332275390625, -72.32514190673828, 172.92893981933594, 10.529695510864258, 4.566606521606445, 0.44779375195503235, 1.1303434371948242, -0.04966600239276886, 1.5111501216888428, -1.02197265625, 0.31689453125, 0.18359375, 0, 
485, 2410767059, 73.87972259521484, -72.32051849365234, 172.97451782226562, 8.413519859313965, 1.681178092956543, 1.0332895517349243, 1.3134851455688477, 2.1870076656341553, 0.21094602346420288, -1.01171875, 0.31982421875, 0.1875, 0, 
486, 2410775392, 73.86746215820312, -72.31360626220703, 172.98487854003906, 8.532188415527344, 0.6624066829681396, 0.975215494632721, 2.510002851486206, 1.140947699546814, -0.4035522937774658, -1.02587890625, 0.32958984375, 0.15283203125, 0, 
487, 2410783725, 73.9150390625, -72.31163024902344, 172.94825744628906, 8.573518753051758, 1.9482260942459106, 1.815171718597412, 4.611484527587891, -0.6065579056739807, -0.27006369829177856, -1.03662109375, 0.32763671875, 0.1533203125, 0, 
488, 2410792058, 73.93611145019531, -72.3111801147461, 172.94317626953125, 10.71069049835205, 4.598962306976318, 0.027998588979244232, 4.748136520385742, 0.384700208902359, 0.18065719306468964, -1.02734375, 0.32275390625, 0.16796875, 0, 
489, 2410800391, 73.95110321044922, -72.32195281982422, 172.90853881835938, 10.396193504333496, 5.139847755432129, 0.644072413444519, 1.6579325199127197, -0.7380869388580322, 1.294364094734192, -1.02392578125, 0.3232421875, 0.1796875, 0, 
490, 2410808724, 73.88549041748047, -72.32070922851562, 172.9636993408203, 9.341068267822266, 2.8459224700927734, 0.5061505436897278, 1.2361814975738525, 2.5229127407073975, 0.6944659352302551, -1.013671875, 0.31591796875, 0.19970703125, 0, 
491, 2410817057, 73.8914566040039, -72.31700134277344, 172.9648895263672, 8.092885971069336, 0.912065327167511, 1.2567083835601807, 1.7393345832824707, 0.09917830675840378, -0.27224087715148926, -1.01953125, 0.3251953125, 0.16796875, 0, 
492, 2410825390, 73.8967056274414, -72.31097412109375, 172.96926879882812, 8.280790328979492, 1.1153324842453003, 1.6498427391052246, 3.927020311355591, 0.9025431275367737, -0.3626847565174103, -1.03564453125, 0.3271484375, 0.14697265625, 0, 
493, 2410833723, 73.9472885131836, -72.31201171875, 172.9371337890625, 10.42970085144043, 3.6893036365509033, 0.28454381227493286, 5.008851051330566, -0.6982440948486328, 0.08187590539455414, -1.03125, 0.3271484375, 0.16357421875, 0, 
494, 2410842056, 73.95026397705078, -72.31810760498047, 172.9307403564453, 10.3260498046875, 5.584112167358398, 1.0942330360412598, 2.4232985973358154, 0.1220134049654007, 0.9263004660606384, -1.025390625, 0.31982421875, 0.17041015625, 0, 
495, 2410850389, 73.90923309326172, -72.32354736328125, 172.9638671875, 10.215407371520996, 3.646416425704956, 0.22828654944896698, 1.381670355796814, 1.4117670059204102, 1.2462990283966064, -1.01416015625, 0.31884765625, 0.1904296875, 0, 
496, 2410858722, 73.89378356933594, -72.31987762451172, 172.96958923339844, 8.073195457458496, 1.0874240398406982, 1.0682216882705688, 1.6000828742980957, 0.872228741645813, -0.08163256198167801, -1.01318359375, 0.32080078125, 0.1826171875, 0, 
