sep=,
PacketCounter,SampleTimeFine,Euler_X,Euler_Y,Euler_Z,Acc_X,Acc_Y,Acc_Z,Gyr_X,Gyr_Y,Gyr_Z,Mag_X,Mag_Y,Mag_Z,Status,
0, 2406700555, 71.26664733886719, -80.0187759399414, -26.62661361694336, 0, 0, 0, 0, 0, 0, -0.900390625, 0.27001953125, 0.38134765625, 0, 
1, 2406708888, 71.26451110839844, -80.01911163330078, -26.625825881958008, 9.307063102722168, 1.694166898727417, 0.6573457717895508, 1.6665387153625488, -3.291569709777832, 0.6544179916381836, -0.900390625, 0.2705078125, 0.38525390625, 0, 
2, 2406717221, 71.27095031738281, -80.01991271972656, -26.632898330688477, 9.451428413391113, 1.5621957778930664, 0.6915134787559509, 1.7714804410934448, -3.460982322692871, 0.6555195450782776, -0.900390625, 0.26953125, 0.3828125, 0, 
3, 2406725554, 71.2787857055664, -80.02030944824219, -26.64090919494629, 9.90119743347168, 1.4589792490005493, 0.5279462933540344, 1.8276267051696777, -3.465336799621582, 0.5967091917991638, -0.8984375, 0.2685546875, 0.3857421875, 0, 
4, 2406733887, 71.27973175048828, -80.01897430419922, -26.640968322753906, 10.167089462280273, 1.5057427883148193, 0.42382168769836426, 1.9425835609436035, -3.2398033142089844, 0.4560358226299286, -0.90087890625, 0.27099609375, 0.38427734375, 0, 
5, 2406742220, 71.27005004882812, -80.0180435180664, -26.630094528198242, 9.874407768249512, 1.720647931098938, 0.41108402609825134, 1.955185890197754, -3.040576457977295, 0.5738356709480286, -0.89990234375, 0.2685546875, 0.38330078125, 0, 
6, 2406750553, 71.26605224609375, -80.01782989501953, -26.6257381439209, 9.413752555847168, 1.842786192893982, 0.7129449248313904, 1.8708637952804565, -3.196105718612671, 0.6131022572517395, -0.89892578125, 0.26806640625, 0.38623046875, 0, 
7, 2406758886, 71.26638793945312, -80.01901245117188, -26.627336502075195, 9.348841667175293, 1.799743413925171, 0.7225363850593567, 1.690744400024414, -3.3674137592315674, 0.7229873538017273, -0.89892578125, 0.26904296875, 0.3818359375, 0, 
8, 2406767219, 71.28359985351562, -80.02086639404297, -26.645835876464844, 9.72439193725586, 1.4945765733718872, 0.6397119164466858, 1.7054980993270874, -3.7281644344329834, 0.7069016695022583, -0.90087890625, 0.26953125, 0.3837890625, 0, 
9, 2406775552, 71.29027557373047, -80.02035522460938, -26.65203285217285, 10.111516952514648, 1.4103360176086426, 0.3999965488910675, 1.9101558923721313, -3.3941805362701416, 0.49860668182373047, -0.9013671875, 0.2705078125, 0.38330078125, 0, 
10, 2406783885, 71.27735137939453, -80.01990509033203, -26.63726234436035, 9.984540939331055, 1.6928811073303223, 0.42451953887939453, 2.0285446643829346, -2.9809203147888184, 0.6558011770248413, -0.89892578125, 0.2724609375, 0.38330078125, 0, 
11, 2406792218, 71.28045654296875, -80.01968383789062, -26.639875411987305, 9.562647819519043, 1.8395267724990845, 0.5412455797195435, 1.8976305723190308, -3.3342690467834473, 0.5635643601417542, -0.8994140625, 0.26953125, 0.3837890625, 0, 
12, 2406800551, 71.27738189697266, -80.02110290527344, -26.637313842773438, 9.376188278198242, 1.6468725204467773, 0.6593766212463379, 1.7697898149490356, -3.2929017543792725, 0.7824892401695251, -0.90087890625, 0.2705078125, 0.38623046875, 0, 
13, 2406808884, 71.28656005859375, -80.02177429199219, -26.646930694580078, 9.513129234313965, 1.6303110122680664, 0.714390754699707, 1.8032933473587036, -3.50488543510437, 0.6135633587837219, -0.9013671875, 0.26953125, 0.38525390625, 0, 
14, 2406817217, 71.29557800292969, -80.02298736572266, -26.656572341918945, 10.014931678771973, 1.5074336528778076, 0.4740361273288727, 1.771864652633667, -3.5292186737060547, 0.6902267932891846, -0.8984375, 0.27099609375, 0.38427734375, 0, 
15, 2406825550, 71.2878189086914, -80.0230712890625, -26.647859573364258, 10.139579772949219, 1.4581310749053955, 0.4049201011657715, 1.9344894886016846, -3.1228232383728027, 0.6731164455413818, -0.90087890625, 0.2685546875, 0.3837890625, 0, 
16, 2406833883, 71.28065490722656, -80.02259826660156, -26.63896369934082, 9.660170555114746, 1.803633451461792, 0.3840264678001404, 2.0278022289276123, -3.0954673290252686, 0.6120008826255798, -0.89990234375, 0.271484375, 0.3857421875, 0, 
17, 2406842216, 71.2755126953125, -80.02283477783203, -26.633543014526367, 9.292059898376465, 1.7183622121810913, 0.7264649271965027, 1.8571600914001465, -3.1933135986328125, 0.6667641401290894, -0.8984375, 0.2685546875, 0.38720703125, 0, 
18, 2406850549, 71.28776550292969, -80.02293395996094, -26.64638900756836, 9.436565399169922, 1.6299909353256226, 0.6655999422073364, 1.7876174449920654, -3.5480709075927734, 0.541612982749939, -0.904296875, 0.27099609375, 0.3837890625, 0, 
19, 2406858882, 71.29704284667969, -80.02465057373047, -26.6561279296875, 9.873973846435547, 1.5051383972167969, 0.5347917079925537, 1.803037166595459, -3.5462265014648438, 0.7222957015037537, -0.9013671875, 0.27001953125, 0.38427734375, 0, 
20, 2406867215, 71.29924774169922, -80.02472686767578, -26.65912437438965, 10.196263313293457, 1.4896652698516846, 0.42500847578048706, 1.7439451217651367, -3.3523781299591064, 0.5986815690994263, -0.89892578125, 0.27099609375, 0.3837890625, 0, 
21, 2406875548, 71.28555297851562, -80.0245132446289, -26.644718170166016, 9.930778503417969, 1.6896570920944214, 0.3832572400569916, 1.8895881175994873, -3.001002311706543, 0.6823889017105103, -0.900390625, 0.2705078125, 0.38525390625, 0, 
22, 2406883881, 71.27606964111328, -80.02457427978516, -26.634450912475586, 9.400489807128906, 1.8271136283874512, 0.5706053972244263, 1.9162520170211792, -3.0877060890197754, 0.6770867109298706, -0.8994140625, 0.27197265625, 0.3837890625, 0, 
23, 2406892214, 71.2787857055664, -80.02533721923828, -26.63662338256836, 9.285110473632812, 1.6598201990127563, 0.6656510829925537, 1.899986982345581, -3.364903450012207, 0.6829779148101807, -0.900390625, 0.26953125, 0.3818359375, 0, 
24, 2406900547, 71.28981018066406, -80.02654266357422, -26.648008346557617, 9.620701789855957, 1.5293846130371094, 0.6476848721504211, 1.8134366273880005, -3.5611085891723633, 0.6696842312812805, -0.8984375, 0.27099609375, 0.38427734375, 0, 
25, 2406908880, 71.29151916503906, -80.0262451171875, -26.650041580200195, 10.056633949279785, 1.4602360725402832, 0.42193374037742615, 1.7999378442764282, -3.320129632949829, 0.5592867732048035, -0.89990234375, 0.27099609375, 0.38525390625, 0, 
26, 2406917213, 71.2835693359375, -80.02629852294922, -26.64126968383789, 10.079031944274902, 1.5995867252349854, 0.40758079290390015, 1.9169180393218994, -3.119852304458618, 0.6713747382164001, -0.8994140625, 0.26904296875, 0.3857421875, 0, 
27, 2406925546, 71.27516174316406, -80.02616882324219, -26.63273048400879, 9.647985458374023, 1.8404011726379395, 0.49473461508750916, 1.833338737487793, -3.118187427520752, 0.6503198146820068, -0.90087890625, 0.2705078125, 0.3837890625, 0, 
28, 2406933879, 71.27156066894531, -80.02738952636719, -26.629610061645508, 9.31651782989502, 1.7560521364212036, 0.733454704284668, 1.7716341018676758, -3.275484323501587, 0.7706298828125, -0.9013671875, 0.271484375, 0.384765625, 0, 
29, 2406942212, 71.2844009399414, -80.02816009521484, -26.643301010131836, 9.466235160827637, 1.6176961660385132, 0.6751537919044495, 1.7600821256637573, -3.590052366256714, 0.5954797267913818, -0.8984375, 0.27099609375, 0.38330078125, 0, 
30, 2406950545, 71.28919982910156, -80.0283203125, -26.650175094604492, 9.971253395080566, 1.3951294422149658, 0.44745567440986633, 1.597252368927002, -3.433908224105835, 0.5907922983169556, -0.89892578125, 0.2705078125, 0.38525390625, 0, 
31, 2406958878, 71.2877426147461, -80.02772521972656, -26.648548126220703, 10.105792999267578, 1.494149923324585, 0.38158532977104187, 1.8497064113616943, -3.2360639572143555, 0.5440719723701477, -0.90185546875, 0.27099609375, 0.38330078125, 0, 
32, 2406967211, 71.2776107788086, -80.02716827392578, -26.637964248657227, 9.785136222839355, 1.7792572975158691, 0.4224180579185486, 1.874168038368225, -3.0565085411071777, 0.6086198687553406, -0.90380859375, 0.27001953125, 0.3857421875, 0, 
33, 2406975544, 71.26805114746094, -80.02539825439453, -26.627792358398438, 9.405539512634277, 1.7573775053024292, 0.707214891910553, 1.8914577960968018, -3.0242857933044434, 0.4742475748062134, -0.89990234375, 0.27099609375, 0.3828125, 0, 
34, 2406983877, 71.27336120605469, -80.02595520019531, -26.633588790893555, 9.374067306518555, 1.6989333629608154, 0.6795246601104736, 1.7817004919052124, -3.425788640975952, 0.6371028423309326, -0.8974609375, 0.27001953125, 0.3837890625, 0, 
35, 2406992210, 71.27667236328125, -80.02674102783203, -26.637619018554688, 9.72530460357666, 1.5730042457580566, 0.5875007510185242, 1.759569525718689, -3.4022743701934814, 0.6665847301483154, -0.89892578125, 0.26953125, 0.3828125, 0, 
36, 2407000543, 71.28263092041016, -80.02516174316406, -26.643383026123047, 10.161252975463867, 1.4521238803863525, 0.3832155466079712, 1.8679949045181274, -3.3407750129699707, 0.3887472450733185, -0.89990234375, 0.271484375, 0.38818359375, 0, 
37, 2407008876, 71.27594757080078, -80.02471160888672, -26.63552474975586, 9.968499183654785, 1.6223552227020264, 0.364561527967453, 1.958156943321228, -3.121004819869995, 0.6131791472434998, -0.900390625, 0.26953125, 0.3828125, 0, 
38, 2407017209, 71.27179718017578, -80.02368927001953, -26.631258010864258, 9.447186470031738, 1.7934054136276245, 0.5277714729309082, 1.8422781229019165, -3.1653685569763184, 0.5168696045875549, -0.9013671875, 0.267578125, 0.384765625, 0, 
39, 2407025542, 71.2705078125, -80.02323150634766, -26.630674362182617, 9.328964233398438, 1.6107056140899658, 0.7240474224090576, 1.750732660293579, -3.261908531188965, 0.5559569001197815, -0.89990234375, 0.2724609375, 0.38330078125, 0, 
40, 2407033875, 71.2857437133789, -80.0232925415039, -26.646406173706055, 9.59643268585205, 1.6444644927978516, 0.6693553328514099, 1.8061363697052002, -3.6022703647613525, 0.5104148387908936, -0.90185546875, 0.271484375, 0.38330078125, 0, 
41, 2407042208, 71.28865814208984, -80.02407836914062, -26.64908218383789, 10.03576946258545, 1.5895525217056274, 0.4512082636356354, 1.8685071468353271, -3.373330593109131, 0.6740641593933105, -0.8984375, 0.2734375, 0.3828125, 0, 
42, 2407050541, 71.2792739868164, -80.02404022216797, -26.639387130737305, 10.176851272583008, 1.5249735116958618, 0.4363953769207001, 1.8565196990966797, -3.09731125831604, 0.6658163666725159, -0.8994140625, 0.27099609375, 0.3857421875, 0, 
43, 2407058874, 71.26823425292969, -80.02349090576172, -26.627639770507812, 9.666935920715332, 1.8152425289154053, 0.4077371060848236, 1.894300937652588, -3.039449453353882, 0.6268828511238098, -0.89892578125, 0.26953125, 0.38427734375, 0, 
44, 2407067207, 71.26409912109375, -80.023193359375, -26.62344741821289, 9.271543502807617, 1.7789981365203857, 0.6539399027824402, 1.8374114036560059, -3.195542335510254, 0.6019856929779053, -0.90185546875, 0.271484375, 0.38525390625, 0, 
45, 2407075540, 71.27409362792969, -80.02386474609375, -26.633819580078125, 9.421106338500977, 1.5726717710494995, 0.772579550743103, 1.8039848804473877, -3.523609161376953, 0.6173542737960815, -0.900390625, 0.26904296875, 0.38330078125, 0, 
46, 2407083873, 71.27690124511719, -80.0249252319336, -26.637773513793945, 9.903011322021484, 1.4019876718521118, 0.5298193097114563, 1.7051395177841187, -3.4083452224731445, 0.6982184052467346, -0.90185546875, 0.27099609375, 0.3837890625, 0, 
47, 2407092206, 71.2738037109375, -80.02420043945312, -26.634641647338867, 10.17507266998291, 1.5347793102264404, 0.39165809750556946, 1.836079478263855, -3.2008190155029297, 0.5461210608482361, -0.900390625, 0.26953125, 0.38427734375, 0, 
48, 2407100539, 71.26521301269531, -80.02371978759766, -26.62462043762207, 9.938393592834473, 1.7051808834075928, 0.421779602766037, 1.987561821937561, -3.0727732181549072, 0.6164065599441528, -0.900390625, 0.27001953125, 0.38720703125, 0, 
49, 2407108872, 71.25444793701172, -80.02226257324219, -26.613582611083984, 9.446246147155762, 1.846606969833374, 0.6554798483848572, 1.8472474813461304, -3.019470453262329, 0.5179198384284973, -0.90234375, 0.2724609375, 0.38330078125, 0, 
50, 2407117205, 71.25375366210938, -80.02228546142578, -26.613821029663086, 9.31691837310791, 1.807631015777588, 0.7122742533683777, 1.7244271039962769, -3.291903018951416, 0.6008330583572388, -0.89892578125, 0.27001953125, 0.38427734375, 0, 
51, 2407125538, 71.26287841796875, -80.02374267578125, -26.62382698059082, 9.644813537597656, 1.5330020189285278, 0.6422478556632996, 1.7530381679534912, -3.5448179244995117, 0.7049805521965027, -0.89990234375, 0.2705078125, 0.38232421875, 0, 
52, 2407133871, 71.26615142822266, -80.02405548095703, -26.62692642211914, 10.077444076538086, 1.3652360439300537, 0.416759192943573, 1.8626670837402344, -3.3615736961364746, 0.6176103353500366, -0.9013671875, 0.271484375, 0.36962890625, 0, 
53, 2407142204, 71.25845336914062, -80.02298736572266, -26.618144989013672, 9.984954833984375, 1.6459155082702637, 0.4028351902961731, 1.9448117017745972, -3.0793557167053223, 0.546863853931427, -0.90478515625, 0.27001953125, 0.36572265625, 0, 
54, 2407150537, 71.25547790527344, -80.02244567871094, -26.61481285095215, 9.59797191619873, 1.865572452545166, 0.5360009670257568, 1.8679180145263672, -3.2046096324920654, 0.5787280201911926, -0.9072265625, 0.2705078125, 0.36767578125, 0, 
55, 2407158870, 71.25324249267578, -80.02264404296875, -26.612966537475586, 9.405919075012207, 1.6795486211776733, 0.6939002871513367, 1.7858244180679321, -3.262779474258423, 0.6381530165672302, -0.90576171875, 0.27099609375, 0.3671875, 0, 
56, 2407167203, 71.25596618652344, -80.02293395996094, -26.615821838378906, 9.482307434082031, 1.654448390007019, 0.7006726264953613, 1.826525330543518, -3.3558619022369385, 0.6189680099487305, -0.9072265625, 0.27099609375, 0.369140625, 0, 
57, 2407175536, 71.26061248779297, -80.02474975585938, -26.620990753173828, 9.992592811584473, 1.444224238395691, 0.4980752468109131, 1.7844412326812744, -3.4650039672851562, 0.7780835628509521, -0.904296875, 0.2705078125, 0.3671875, 0, 
58, 2407183869, 71.25970458984375, -80.02394104003906, -26.61998176574707, 10.120088577270508, 1.412122130393982, 0.3439832329750061, 1.8363866806030273, -3.2411863803863525, 0.5335188508033752, -0.9052734375, 0.26953125, 0.36767578125, 0, 
59, 2407192202, 71.24833679199219, -80.02316284179688, -26.60651969909668, 9.690557479858398, 1.739511251449585, 0.40530967712402344, 2.069732189178467, -2.9918062686920166, 0.5944807529449463, -0.90380859375, 0.27099609375, 0.3701171875, 0, 
60, 2407200535, 71.24666595458984, -80.02342987060547, -26.60738754272461, 9.327946662902832, 1.820875644683838, 0.7158710956573486, 1.7615164518356323, -3.27999210357666, 0.6451712846755981, -0.9033203125, 0.271484375, 0.37060546875, 0, 
61, 2407208868, 71.25235748291016, -80.02389526367188, -26.613746643066406, 9.407831192016602, 1.6864476203918457, 0.669901430606842, 1.7631558179855347, -3.435112237930298, 0.6171237230300903, -0.90380859375, 0.27099609375, 0.37060546875, 0, 
62, 2407217201, 71.25527954101562, -80.02460479736328, -26.618215560913086, 9.78745174407959, 1.5357170104980469, 0.5279358625411987, 1.778037428855896, -3.3849334716796875, 0.6676092743873596, -0.9033203125, 0.2724609375, 0.36962890625, 0, 
63, 2407225534, 71.26178741455078, -80.02381896972656, -26.62384605407715, 10.106989860534668, 1.4875085353851318, 0.47988930344581604, 1.9537508487701416, -3.3728690147399902, 0.48003631830215454, -0.90283203125, 0.26953125, 0.373046875, 0, 
64, 2407233867, 71.2513427734375, -80.0235824584961, -26.610332489013672, 9.946085929870605, 1.6935468912124634, 0.3831172585487366, 2.016864538192749, -3.040550470352173, 0.6625121235847473, -0.9033203125, 0.271484375, 0.37158203125, 0, 
65, 2407242200, 71.24629211425781, -80.02374267578125, -26.605207443237305, 9.467719078063965, 1.8517218828201294, 0.5421196222305298, 1.83405601978302, -3.196643590927124, 0.6585419774055481, -0.90625, 0.27001953125, 0.3701171875, 0, 
66, 2407250533, 71.24891662597656, -80.02449035644531, -26.60797691345215, 9.318455696105957, 1.6315217018127441, 0.7119691967964172, 1.7266043424606323, -3.387495279312134, 0.6710160970687866, -0.90673828125, 0.27197265625, 0.3701171875, 0, 
67, 2407258866, 71.2562255859375, -80.02468872070312, -26.6156005859375, 9.604738235473633, 1.4738235473632812, 0.7024539709091187, 1.8142049312591553, -3.4475605487823486, 0.5722731947898865, -0.90185546875, 0.271484375, 0.3720703125, 0, 
68, 2407267199, 71.2616195678711, -80.02555847167969, -26.619680404663086, 10.062747955322266, 1.4602835178375244, 0.4786466658115387, 1.7837494611740112, -3.4391074180603027, 0.66322922706604, -0.9013671875, 0.27001953125, 0.37109375, 0, 
69, 2407275532, 71.2599868774414, -80.02539825439453, -26.61665153503418, 10.094866752624512, 1.5632253885269165, 0.3797362744808197, 1.9986273050308228, -3.2265098094940186, 0.6121033430099487, -0.90283203125, 0.27099609375, 0.373046875, 0, 
70, 2407283865, 71.24784851074219, -80.02496337890625, -26.60163688659668, 9.675233840942383, 1.7927180528640747, 0.47243982553482056, 1.9382548332214355, -3.01432204246521, 0.6564928889274597, -0.9033203125, 0.2705078125, 0.3720703125, 0, 
71, 2407292198, 71.24369812011719, -80.02437591552734, -26.5977783203125, 9.313578605651855, 1.8072377443313599, 0.8311817646026611, 1.802038311958313, -3.190521717071533, 0.5587745308876038, -0.904296875, 0.2705078125, 0.37353515625, 0, 
72, 2407300531, 71.2538070678711, -80.02474975585938, -26.60775375366211, 9.413594245910645, 1.7003968954086304, 0.6782411336898804, 1.7892565727233887, -3.5148744583129883, 0.5789584517478943, -0.90283203125, 0.26953125, 0.3740234375, 0, 
73, 2407308864, 71.2609634399414, -80.02597045898438, -26.61534309387207, 9.962936401367188, 1.3727049827575684, 0.48361942172050476, 1.7957626581192017, -3.489823818206787, 0.6966046094894409, -0.90478515625, 0.27099609375, 0.37109375, 0, 
74, 2407317197, 71.26548767089844, -80.02539825439453, -26.616676330566406, 10.149184226989746, 1.4637342691421509, 0.4311648905277252, 1.8979377746582031, -3.3462305068969727, 0.5154863595962524, -0.9033203125, 0.2734375, 0.373046875, 0, 
75, 2407325530, 71.25662231445312, -80.02476501464844, -26.60686683654785, 9.793002128601074, 1.83121657371521, 0.413994699716568, 1.928700566291809, -3.074847936630249, 0.6074928045272827, -0.904296875, 0.27099609375, 0.373046875, 0, 
76, 2407333863, 71.24983978271484, -80.02440643310547, -26.60029411315918, 9.426366806030273, 1.7575292587280273, 0.6665151715278625, 1.7883087396621704, -3.146772623062134, 0.6052899360656738, -0.90283203125, 0.2724609375, 0.37255859375, 0, 
77, 2407342196, 71.2523422241211, -80.02397918701172, -26.603473663330078, 9.406367301940918, 1.6295534372329712, 0.7271760702133179, 1.7629762887954712, -3.3361382484436035, 0.5317002534866333, -0.90478515625, 0.26953125, 0.37353515625, 0, 
78, 2407350529, 71.26285552978516, -80.02389526367188, -26.609373092651367, 9.728909492492676, 1.5672354698181152, 0.6193431615829468, 1.8239128589630127, -3.498276710510254, 0.5371817946434021, -0.90234375, 0.27197265625, 0.37060546875, 0, 
79, 2407358862, 71.2603988647461, -80.0242919921875, -26.60689353942871, 10.16208267211914, 1.4376966953277588, 0.36407095193862915, 1.832749605178833, -3.258373737335205, 0.6633573770523071, -0.90380859375, 0.2724609375, 0.37353515625, 0, 
80, 2407367195, 71.25053405761719, -80.02405548095703, -26.595691680908203, 9.990035057067871, 1.5971693992614746, 0.3940560817718506, 1.92104172706604, -3.071389675140381, 0.6626401543617249, -0.90185546875, 0.27099609375, 0.373046875, 0, 
81, 2407375528, 71.24227142333984, -80.02267456054688, -26.586761474609375, 9.411124229431152, 1.8756507635116577, 0.5257182121276855, 1.9018824100494385, -3.0605809688568115, 0.5041905641555786, -0.90478515625, 0.271484375, 0.37109375, 0, 
82, 2407383861, 71.2403335571289, -80.02368927001953, -26.58527374267578, 9.319786071777344, 1.6873756647109985, 0.7560616731643677, 1.6991970539093018, -3.3130860328674316, 0.723576545715332, -0.90283203125, 0.27099609375, 0.37548828125, 0, 
83, 2407392194, 71.25692749023438, -80.02466583251953, -26.60205841064453, 9.616623878479004, 1.5478110313415527, 0.6618117690086365, 1.837104082107544, -3.658493995666504, 0.6036763191223145, -0.90234375, 0.27001953125, 0.37158203125, 0, 
84, 2407400527, 71.26300048828125, -80.02496337890625, -26.607873916625977, 10.049225807189941, 1.4899040460586548, 0.38569512963294983, 1.859849452972412, -3.42171573638916, 0.6081076264381409, -0.900390625, 0.27197265625, 0.373046875, 0, 
85, 2407408860, 71.262939453125, -80.02326965332031, -26.60706329345703, 10.138769149780273, 1.5676844120025635, 0.4453372359275818, 1.930006980895996, -3.2086052894592285, 0.40731754899024963, -0.904296875, 0.27099609375, 0.373046875, 0, 
86, 2407417193, 71.2584457397461, -80.02326965332031, -26.60114097595215, 9.655921936035156, 1.7936066389083862, 0.45556965470314026, 1.894684910774231, -3.1902143955230713, 0.6506271958351135, -0.90380859375, 0.271484375, 0.37451171875, 0, 
87, 2407425526, 71.25347137451172, -80.02364349365234, -26.5958309173584, 9.273144721984863, 1.7600749731063843, 0.6809854507446289, 1.8654077053070068, -3.2019200325012207, 0.684770941734314, -0.9033203125, 0.26953125, 0.37060546875, 0, 
88, 2407433859, 71.26260375976562, -80.02364349365234, -26.606801986694336, 9.376988410949707, 1.6432366371154785, 0.6994690299034119, 1.8021663427352905, -3.4773755073547363, 0.5429193377494812, -0.90380859375, 0.2685546875, 0.37353515625, 0, 
89, 2407442192, 71.27435302734375, -80.02574920654297, -26.61895179748535, 9.914163589477539, 1.4569724798202515, 0.507651686668396, 1.8076989650726318, -3.613054037094116, 0.7641494870185852, -0.90185546875, 0.2705078125, 0.37353515625, 0, 
90, 2407450525, 71.27725982666016, -80.02577209472656, -26.622045516967773, 10.137584686279297, 1.519784688949585, 0.42639294266700745, 1.8979380130767822, -3.33575439453125, 0.5921754837036133, -0.90185546875, 0.2724609375, 0.37451171875, 0, 
91, 2407458858, 71.27007293701172, -80.02644348144531, -26.614368438720703, 9.878958702087402, 1.7380808591842651, 0.4094637632369995, 1.8792136907577515, -3.1664695739746094, 0.7373825311660767, -0.904296875, 0.27099609375, 0.37451171875, 0, 
92, 2407467191, 71.26634979248047, -80.0262680053711, -26.613637924194336, 9.42789077758789, 1.7900009155273438, 0.6460505723953247, 1.8078525066375732, -3.211294651031494, 0.6111555695533752, -0.9052734375, 0.2705078125, 0.37451171875, 0, 
93, 2407475524, 71.2665786743164, -80.02593231201172, -26.61407470703125, 9.323956489562988, 1.6806766986846924, 0.7458182573318481, 1.8078527450561523, -3.288470506668091, 0.5649474859237671, -0.90283203125, 0.27001953125, 0.37451171875, 0, 
94, 2407483857, 71.27896881103516, -80.02632141113281, -26.631629943847656, 9.698613166809082, 1.5375345945358276, 0.684558629989624, 1.8027042150497437, -3.5588033199310303, 0.5725805759429932, -0.90283203125, 0.2724609375, 0.37060546875, 0, 
95, 2407492190, 71.28213500976562, -80.02583312988281, -26.634706497192383, 10.135130882263184, 1.428676962852478, 0.37896275520324707, 1.8559305667877197, -3.333116054534912, 0.5251686573028564, -0.904296875, 0.27197265625, 0.3740234375, 0, 
96, 2407500523, 71.27300262451172, -80.02574920654297, -26.624244689941406, 10.032892227172852, 1.5862704515457153, 0.3936958312988281, 1.950242042541504, -3.0833516120910645, 0.6651504039764404, -0.900390625, 0.271484375, 0.3798828125, 0, 
97, 2407508856, 71.26561737060547, -80.02527618408203, -26.61700439453125, 9.518522262573242, 1.836876630783081, 0.5377167463302612, 1.806341290473938, -3.1306869983673096, 0.5976057052612305, -0.900390625, 0.2685546875, 0.38037109375, 0, 
98, 2407517189, 71.26104736328125, -80.02555847167969, -26.60570526123047, 9.329689979553223, 1.7099007368087769, 0.7323145866394043, 1.737797737121582, -3.226022958755493, 0.6698634624481201, -0.9013671875, 0.271484375, 0.38330078125, 0, 
99, 2407525522, 71.27027893066406, -80.02649688720703, -26.61509895324707, 9.527678489685059, 1.682674765586853, 0.6959386467933655, 1.831571340560913, -3.5153615474700928, 0.6510113477706909, -0.8994140625, 0.27001953125, 0.384765625, 0, 
100, 2407533855, 71.27704620361328, -80.02705383300781, -26.62272834777832, 10.00766658782959, 1.5044987201690674, 0.4877987802028656, 1.7501437664031982, -3.459547996520996, 0.6167394518852234, -0.8994140625, 0.27099609375, 0.384765625, 0, 
101, 2407542188, 71.27403259277344, -80.02705383300781, -26.619443893432617, 10.14320182800293, 1.4617552757263184, 0.37902170419692993, 1.855315923690796, -3.230403184890747, 0.6345670819282532, -0.89990234375, 0.2705078125, 0.384765625, 0, 
102, 2407550521, 71.2614517211914, -80.02753448486328, -26.60541343688965, 9.728015899658203, 1.7704097032546997, 0.3893791735172272, 1.9882535934448242, -3.029843330383301, 0.7514190673828125, -0.89990234375, 0.27197265625, 0.3837890625, 0, 
103, 2407558854, 71.25955963134766, -80.02740478515625, -26.60432243347168, 9.312846183776855, 1.768162488937378, 0.698931097984314, 1.7352874279022217, -3.2663145065307617, 0.6022418737411499, -0.89990234375, 0.27001953125, 0.3837890625, 0, 
104, 2407567187, 71.26947021484375, -80.0282974243164, -26.614871978759766, 9.401571273803711, 1.5967602729797363, 0.6987516283988953, 1.7790366411209106, -3.529961585998535, 0.6349512338638306, -0.90185546875, 0.271484375, 0.3857421875, 0, 
105, 2407575520, 71.27693939208984, -80.02880859375, -26.622209548950195, 9.836856842041016, 1.4878770112991333, 0.5715770125389099, 1.867226481437683, -3.455296039581299, 0.6137426495552063, -0.89990234375, 0.27001953125, 0.384765625, 0, 
106, 2407583853, 71.2784652709961, -80.02857208251953, -26.623891830444336, 10.149885177612305, 1.5257753133773804, 0.4078086316585541, 1.8145891427993774, -3.3141872882843018, 0.5724524855613708, -0.8984375, 0.27294921875, 0.38330078125, 0, 
107, 2407592186, 71.26541137695312, -80.02896881103516, -26.61054801940918, 9.934168815612793, 1.6822758913040161, 0.38809382915496826, 1.851806879043579, -3.0438549518585205, 0.7372801303863525, -0.90185546875, 0.27099609375, 0.3857421875, 0, 
108, 2407600519, 71.25294494628906, -80.02818298339844, -26.5976505279541, 9.427325248718262, 1.8622032403945923, 0.5879316329956055, 1.8630002737045288, -3.002462387084961, 0.5987072587013245, -0.90087890625, 0.26806640625, 0.3837890625, 0, 
109, 2407608852, 71.2515640258789, -80.02924346923828, -26.596651077270508, 9.28541374206543, 1.7231301069259644, 0.7010558247566223, 1.7859268188476562, -3.3148789405822754, 0.7399696111679077, -0.9013671875, 0.26904296875, 0.38427734375, 0, 
110, 2407617185, 71.26515197753906, -80.03040313720703, -26.610862731933594, 9.62543773651123, 1.5112048387527466, 0.6139156222343445, 1.7824431657791138, -3.614488363265991, 0.6449918746948242, -0.89892578125, 0.2705078125, 0.38330078125, 0, 
111, 2407625518, 71.26785278320312, -80.03084564208984, -26.61381721496582, 10.079705238342285, 1.4059089422225952, 0.39689454436302185, 1.809210181236267, -3.369206666946411, 0.6405351758003235, -0.89990234375, 0.26953125, 0.38671875, 0, 
112, 2407633851, 71.2632827758789, -80.03052520751953, -26.608617782592773, 10.063937187194824, 1.5745253562927246, 0.4439655840396881, 1.9084142446517944, -3.172719717025757, 0.598758339881897, -0.89990234375, 0.27294921875, 0.38671875, 0, 
113, 2407642184, 71.25527954101562, -80.02989196777344, -26.599973678588867, 9.698643684387207, 1.819453239440918, 0.5081707835197449, 1.8909963369369507, -3.100231409072876, 0.6009098887443542, -0.900390625, 0.26904296875, 0.38623046875, 0, 
114, 2407650517, 71.25066375732422, -80.02874755859375, -26.595539093017578, 9.389430046081543, 1.75844144821167, 0.7538323402404785, 1.8056751489639282, -3.1580426692962646, 0.5080582499504089, -0.90185546875, 0.26708984375, 0.38525390625, 0, 
115, 2407658850, 71.26199340820312, -80.0288314819336, -26.607421875, 9.462508201599121, 1.7045724391937256, 0.7097572088241577, 1.7908446788787842, -3.5298590660095215, 0.5371048450469971, -0.9033203125, 0.2685546875, 0.38427734375, 0, 
116, 2407667183, 71.26950073242188, -80.02934265136719, -26.616119384765625, 9.94519329071045, 1.4187854528427124, 0.49993738532066345, 1.7046782970428467, -3.480858564376831, 0.6117447018623352, -0.9013671875, 0.2705078125, 0.38525390625, 0, 
117, 2407675516, 71.26815795898438, -80.02835845947266, -26.614025115966797, 10.139416694641113, 1.4649055004119873, 0.4350987374782562, 1.9273430109024048, -3.2095274925231934, 0.4968392848968506, -0.900390625, 0.26904296875, 0.3857421875, 0, 
118, 2407683849, 71.26084899902344, -80.0283203125, -26.605693817138672, 9.75142765045166, 1.8291491270065308, 0.4272748529911041, 1.9438642263412476, -3.1248724460601807, 0.6564159989356995, -0.8994140625, 0.2705078125, 0.3857421875, 0, 
119, 2407692182, 71.25596618652344, -80.02764892578125, -26.601001739501953, 9.391239166259766, 1.846136212348938, 0.6954682469367981, 1.8042664527893066, -3.172975778579712, 0.5604137778282166, -0.900390625, 0.27001953125, 0.38330078125, 0, 
120, 2407700515, 71.26126861572266, -80.02772521972656, -26.606834411621094, 9.440037727355957, 1.638456106185913, 0.7255580425262451, 1.7795231342315674, -3.4079864025115967, 0.5885381698608398, -0.90087890625, 0.27001953125, 0.38623046875, 0, 
121, 2407708848, 71.26968383789062, -80.02857208251953, -26.61538314819336, 9.780805587768555, 1.5485336780548096, 0.6225384473800659, 1.8331849575042725, -3.4925386905670166, 0.6393824219703674, -0.89990234375, 0.2724609375, 0.3837890625, 0, 
122, 2407717181, 71.27297973632812, -80.02896881103516, -26.619110107421875, 10.116814613342285, 1.467189073562622, 0.38828927278518677, 1.7908449172973633, -3.379401206970215, 0.6246030926704407, -0.89990234375, 0.27294921875, 0.3828125, 0, 
123, 2407725514, 71.26252746582031, -80.02760314941406, -26.607776641845703, 9.95462417602539, 1.5561612844467163, 0.39834433794021606, 1.9194029569625854, -3.0152695178985596, 0.5297280550003052, -0.90087890625, 0.27099609375, 0.384765625, 0, 
124, 2407733847, 71.25817108154297, -80.02598571777344, -26.60236358642578, 9.468840599060059, 1.884178638458252, 0.561137318611145, 1.9535720348358154, -3.1231563091278076, 0.4617990255355835, -0.8994140625, 0.2685546875, 0.38427734375, 0, 
125, 2407742180, 71.25650787353516, -80.02529907226562, -26.600160598754883, 9.309550285339355, 1.7457555532455444, 0.7455231547355652, 1.8909451961517334, -3.221540689468384, 0.5474785566329956, -0.89990234375, 0.271484375, 0.38671875, 0, 
126, 2407750513, 71.27086639404297, -80.02635955810547, -26.615257263183594, 9.611100196838379, 1.5279089212417603, 0.6360413432121277, 1.7824686765670776, -3.6265780925750732, 0.6179689168930054, -0.89794921875, 0.26953125, 0.38623046875, 0, 
127, 2407758846, 71.27859497070312, -80.02606964111328, -26.623306274414062, 9.990704536437988, 1.4741312265396118, 0.39612555503845215, 1.8073148727416992, -3.441182851791382, 0.5271921753883362, -0.8984375, 0.26953125, 0.38623046875, 0, 
128, 2407767179, 71.2742919921875, -80.02616882324219, -26.618576049804688, 10.029714584350586, 1.569016695022583, 0.47356387972831726, 1.8814165592193604, -3.1976938247680664, 0.6425843238830566, -0.900390625, 0.27197265625, 0.384765625, 0, 
129, 2407775512, 71.26972961425781, -80.0261459350586, -26.61448097229004, 9.679510116577148, 1.8331012725830078, 0.44867458939552307, 1.7687140703201294, -3.2103726863861084, 0.6320568323135376, -0.90087890625, 0.2685546875, 0.3857421875, 0, 
130, 2407783845, 71.26383972167969, -80.02737426757812, -26.609050750732422, 9.375782012939453, 1.7846705913543701, 0.6404713988304138, 1.7753738164901733, -3.2285077571868896, 0.7809779644012451, -0.9013671875, 0.26904296875, 0.3837890625, 0, 
131, 2407792178, 71.27111053466797, -80.02816009521484, -26.616640090942383, 9.396759033203125, 1.5957154035568237, 0.6714097857475281, 1.8087745904922485, -3.471022844314575, 0.6432245969772339, -0.90185546875, 0.26953125, 0.3828125, 0, 
132, 2407800511, 71.2877197265625, -80.028076171875, -26.63311004638672, 9.882973670959473, 1.3053576946258545, 0.5131915807723999, 1.8818007707595825, -3.6135666370391846, 0.49573785066604614, -0.89892578125, 0.27099609375, 0.38330078125, 0, 
133, 2407808844, 71.29203796386719, -80.0263442993164, -26.636762619018555, 10.112040519714355, 1.4485923051834106, 0.35527244210243225, 1.920657753944397, -3.295923948287964, 0.38221555948257446, -0.900390625, 0.271484375, 0.38671875, 0, 
134, 2407817177, 71.28141021728516, -80.02555847167969, -26.624826431274414, 9.85395336151123, 1.8437261581420898, 0.41994917392730713, 1.9687613248825073, -3.0242085456848145, 0.6029078364372253, -0.90234375, 0.2705078125, 0.384765625, 0, 
135, 2407825510, 71.27752685546875, -80.02538299560547, -26.620895385742188, 9.439122200012207, 1.8490047454833984, 0.6785959601402283, 1.8328520059585571, -3.2075042724609375, 0.6084405183792114, -0.9013671875, 0.26904296875, 0.38232421875, 0, 
136, 2407833843, 71.27629089355469, -80.0255126953125, -26.619787216186523, 9.320504188537598, 1.672743797302246, 0.6501734852790833, 1.82094144821167, -3.2732045650482178, 0.6296491026878357, -0.900390625, 0.27001953125, 0.384765625, 0, 
137, 2407842176, 71.28720092773438, -80.02587127685547, -26.631607055664062, 9.695840835571289, 1.4763129949569702, 0.5627558827400208, 1.7444062232971191, -3.5379276275634766, 0.5663050413131714, -0.9013671875, 0.2685546875, 0.38720703125, 0, 
138, 2407850509, 71.29088592529297, -80.02571105957031, -26.634523391723633, 10.09142017364502, 1.3909696340560913, 0.4058105945587158, 1.9300198554992676, -3.3432466983795166, 0.5802008509635925, -0.900390625, 0.2705078125, 0.3828125, 0, 
139, 2407858842, 71.2826156616211, -80.02516174316406, -26.62497329711914, 9.981847763061523, 1.658254623413086, 0.4064423739910126, 1.973730206489563, -3.081737756729126, 0.6030102372169495, -0.900390625, 0.27099609375, 0.3857421875, 0, 
140, 2407867175, 71.28099822998047, -80.02471160888672, -26.62295150756836, 9.53328800201416, 1.8805276155471802, 0.545132040977478, 1.8729640245437622, -3.233272075653076, 0.574937105178833, -0.8994140625, 0.27001953125, 0.3857421875, 0, 
141, 2407875508, 71.28053283691406, -80.02555847167969, -26.6230525970459, 9.381966590881348, 1.6317461729049683, 0.7030467391014099, 1.7763727903366089, -3.32515025138855, 0.6933261156082153, -0.9013671875, 0.27197265625, 0.380859375, 0, 
142, 2407883841, 71.28704833984375, -80.0255126953125, -26.629192352294922, 9.533245086669922, 1.570289969444275, 0.6424556970596313, 1.891610860824585, -3.409600019454956, 0.5666892528533936, -0.900390625, 0.2705078125, 0.3857421875, 0, 
143, 2407892174, 71.28733825683594, -80.02484893798828, -26.62972640991211, 10.039965629577637, 1.4802225828170776, 0.4710179567337036, 1.8047020435333252, -3.2759454250335693, 0.5241696834564209, -0.90234375, 0.2724609375, 0.3818359375, 0, 
144, 2407900507, 71.2852783203125, -80.02354431152344, -26.626663208007812, 10.148951530456543, 1.5368156433105469, 0.409478098154068, 1.9558004140853882, -3.17930269241333, 0.47857630252838135, -0.90087890625, 0.26953125, 0.38623046875, 0, 
145, 2407908840, 71.27387237548828, -80.0223388671875, -26.613706588745117, 9.62690258026123, 1.8630884885787964, 0.3830455243587494, 1.9956308603286743, -2.9901161193847656, 0.5552141666412354, -0.89990234375, 0.27001953125, 0.384765625, 0, 
146, 2407917173, 71.27167510986328, -80.02177429199219, -26.61296272277832, 9.255570411682129, 1.7279939651489258, 0.7710402011871338, 1.6640030145645142, -3.2506895065307617, 0.5446098446846008, -0.900390625, 0.27001953125, 0.38427734375, 0, 
147, 2407925506, 71.28118896484375, -80.02191162109375, -26.62282943725586, 9.452725410461426, 1.594097375869751, 0.6615527272224426, 1.8053679466247559, -3.4949214458465576, 0.5638205409049988, -0.900390625, 0.2705078125, 0.3837890625, 0, 
148, 2407933839, 71.28712463378906, -80.02192687988281, -26.62896728515625, 9.968498229980469, 1.5164306163787842, 0.4841494560241699, 1.817765474319458, -3.4135961532592773, 0.5716584324836731, -0.8974609375, 0.2724609375, 0.36767578125, 0, 
149, 2407942172, 71.2860336303711, -80.0218505859375, -26.62856101989746, 10.174751281738281, 1.5561195611953735, 0.4056445062160492, 1.7544468641281128, -3.280428171157837, 0.601114809513092, -0.9052734375, 0.27197265625, 0.36669921875, 0, 
150, 2407950505, 71.27641296386719, -80.02262115478516, -26.61834716796875, 9.847006797790527, 1.7169673442840576, 0.40047770738601685, 1.8873082399368286, -3.1180078983306885, 0.7668901681900024, -0.90380859375, 0.26953125, 0.36865234375, 0, 
151, 2407958838, 71.26472473144531, -80.0223617553711, -26.606698989868164, 9.387853622436523, 1.8033695220947266, 0.6353704333305359, 1.8069562911987305, -3.0498228073120117, 0.6504734754562378, -0.90576171875, 0.26953125, 0.36669921875, 0, 
152, 2407967171, 71.2656021118164, -80.02192687988281, -26.6077880859375, 9.343189239501953, 1.7119724750518799, 0.6670750975608826, 1.8173553943634033, -3.2957706451416016, 0.5483494997024536, -0.904296875, 0.2705078125, 0.36767578125, 0, 
153, 2407975504, 71.27600860595703, -80.02287292480469, -26.618877410888672, 9.708943367004395, 1.4782404899597168, 0.6163538694381714, 1.7738882303237915, -3.5454580783843994, 0.6375895142555237, -0.9052734375, 0.27001953125, 0.36865234375, 0, 
154, 2407983837, 71.28047943115234, -80.02291107177734, -26.62371826171875, 10.143105506896973, 1.4002037048339844, 0.41413336992263794, 1.8021150827407837, -3.3855741024017334, 0.5758079886436462, -0.9033203125, 0.271484375, 0.36962890625, 0, 
155, 2407992170, 71.2699203491211, -80.02197265625, -26.612224578857422, 10.01810073852539, 1.6916781663894653, 0.4050481617450714, 1.9232960939407349, -3.0293829441070557, 0.5798807144165039, -0.90380859375, 0.2724609375, 0.36962890625, 0, 
156, 2408000503, 71.25895690917969, -80.02197265625, -26.600887298583984, 9.558246612548828, 1.8641234636306763, 0.5169565677642822, 1.777499794960022, -3.0812511444091797, 0.6845660209655762, -0.904296875, 0.2705078125, 0.3720703125, 0, 
157, 2408008836, 71.25731658935547, -80.0213394165039, -26.599071502685547, 9.359810829162598, 1.6546329259872437, 0.7962327003479004, 1.8532665967941284, -3.2311205863952637, 0.5435596108436584, -0.9033203125, 0.26953125, 0.37353515625, 0, 
158, 2408017169, 71.26725769042969, -80.0212631225586, -26.612607955932617, 9.531396865844727, 1.6330881118774414, 0.7235919833183289, 1.7605557441711426, -3.4976744651794434, 0.5333779454231262, -0.90576171875, 0.2705078125, 0.3701171875, 0, 
159, 2408025502, 71.27140045166016, -80.02161407470703, -26.616836547851562, 10.043707847595215, 1.426847219467163, 0.44252631068229675, 1.8300089836120605, -3.390031099319458, 0.6216830611228943, -0.90380859375, 0.2724609375, 0.369140625, 0, 
160, 2408033835, 71.26641082763672, -80.02078247070312, -26.607315063476562, 10.125636100769043, 1.4477546215057373, 0.4797212779521942, 1.8964521884918213, -3.145850419998169, 0.5329553484916687, -0.9033203125, 0.27294921875, 0.3720703125, 0, 
161, 2408042168, 71.25837707519531, -80.02106475830078, -26.59855079650879, 9.64539623260498, 1.867707371711731, 0.4861445426940918, 1.905007243156433, -3.1318647861480713, 0.7011383771896362, -0.90234375, 0.271484375, 0.37451171875, 0, 
162, 2408050501, 71.25353240966797, -80.02056884765625, -26.597986221313477, 9.352877616882324, 1.7837862968444824, 0.7489122152328491, 1.8013465404510498, -3.179276704788208, 0.5860535502433777, -0.904296875, 0.27099609375, 0.36962890625, 0, 
163, 2408058834, 71.25782775878906, -80.02094268798828, -26.603260040283203, 9.453956604003906, 1.6417112350463867, 0.6990076899528503, 1.721199631690979, -3.4094722270965576, 0.6188654899597168, -0.90576171875, 0.2705078125, 0.37353515625, 0, 
164, 2408067167, 71.26313781738281, -80.02159881591797, -26.609880447387695, 9.85152530670166, 1.5244101285934448, 0.5758576989173889, 1.8145891427993774, -3.426633834838867, 0.6405863761901855, -0.904296875, 0.27001953125, 0.37451171875, 0, 
165, 2408075500, 71.26798248291016, -80.02033233642578, -26.615076065063477, 10.109713554382324, 1.4559985399246216, 0.4219781160354614, 1.801910161972046, -3.3443353176116943, 0.4266819357872009, -0.904296875, 0.27099609375, 0.37109375, 0, 
166, 2408083833, 71.26385498046875, -80.01982116699219, -26.611053466796875, 9.872666358947754, 1.5965193510055542, 0.34874585270881653, 1.9175835847854614, -3.17376971244812, 0.5823907852172852, -0.90185546875, 0.2705078125, 0.373046875, 0, 
167, 2408092166, 71.26029205322266, -80.0193862915039, -26.60756492614746, 9.426751136779785, 1.7922236919403076, 0.6083887815475464, 1.8181240558624268, -3.2078371047973633, 0.5813663005828857, -0.900390625, 0.27099609375, 0.3701171875, 0, 
168, 2408100499, 71.2608642578125, -80.02056884765625, -26.607816696166992, 9.32663631439209, 1.711427927017212, 0.7254084944725037, 1.8052655458450317, -3.352787733078003, 0.7371776103973389, -0.90478515625, 0.26953125, 0.373046875, 0, 
169, 2408108832, 71.27354431152344, -80.02145385742188, -26.6209716796875, 9.658743858337402, 1.5215954780578613, 0.6513389945030212, 1.7995280027389526, -3.5855958461761475, 0.6183532476425171, -0.90380859375, 0.27392578125, 0.37255859375, 0, 
170, 2408117165, 71.27674102783203, -80.02156829833984, -26.626798629760742, 10.072465896606445, 1.4385088682174683, 0.4225105047225952, 1.7923814058303833, -3.362034320831299, 0.5992961525917053, -0.90380859375, 0.271484375, 0.37060546875, 0, 
171, 2408125498, 71.271728515625, -80.02037048339844, -26.62093162536621, 9.981724739074707, 1.604677438735962, 0.44740623235702515, 1.9299812316894531, -3.1306354999542236, 0.506290853023529, -0.90625, 0.2705078125, 0.373046875, 0, 
172, 2408133831, 71.26737976074219, -80.01885986328125, -26.620887756347656, 9.570357322692871, 1.9255784749984741, 0.5166086554527283, 1.8567758798599243, -3.1396007537841797, 0.4748879075050354, -0.90234375, 0.271484375, 0.373046875, 0, 
173, 2408142164, 71.26655578613281, -80.01901245117188, -26.620943069458008, 9.301422119140625, 1.7790471315383911, 0.6783496141433716, 1.733929991722107, -3.299638271331787, 0.6188399195671082, -0.90283203125, 0.27099609375, 0.373046875, 0, 
174, 2408150497, 71.28146362304688, -80.019287109375, -26.63475799560547, 9.430242538452148, 1.5505229234695435, 0.6727185845375061, 1.8133853673934937, -3.6032185554504395, 0.5370792150497437, -0.90234375, 0.271484375, 0.3720703125, 0, 
175, 2408158830, 71.28971099853516, -80.02001953125, -26.642745971679688, 9.948739051818848, 1.3679263591766357, 0.5004019737243652, 1.8795466423034668, -3.4778876304626465, 0.6354890465736389, -0.8994140625, 0.27099609375, 0.37353515625, 0, 
176, 2408167163, 71.29471588134766, -80.01968383789062, -26.647422790527344, 10.138985633850098, 1.5238760709762573, 0.36997467279434204, 1.88974130153656, -3.3667733669281006, 0.5327247977256775, -0.9033203125, 0.2705078125, 0.3740234375, 0, 
177, 2408175496, 71.28619384765625, -80.0192642211914, -26.637409210205078, 9.791297912597656, 1.806174874305725, 0.41000229120254517, 1.9958611726760864, -3.0816357135772705, 0.6344645619392395, -0.90185546875, 0.27099609375, 0.37158203125, 0, 
178, 2408183829, 71.28466796875, -80.01932525634766, -26.637046813964844, 9.420292854309082, 1.7766369581222534, 0.7227295637130737, 1.7759371995925903, -3.2706427574157715, 0.6202230453491211, -0.90087890625, 0.2705078125, 0.37255859375, 0, 
179, 2408192162, 71.28446197509766, -80.02042388916016, -26.63748550415039, 9.383535385131836, 1.7119696140289307, 0.6522377729415894, 1.7602101564407349, -3.3434898853302, 0.7275978922843933, -0.90234375, 0.27294921875, 0.3720703125, 0, 
180, 2408200495, 71.2919692993164, -80.021728515625, -26.650726318359375, 9.73770523071289, 1.4926446676254272, 0.5780214071273804, 1.7528845071792603, -3.5016322135925293, 0.6952983736991882, -0.90283203125, 0.2705078125, 0.37158203125, 0, 
181, 2408208828, 71.29895782470703, -80.02208709716797, -26.657499313354492, 10.134078025817871, 1.372888445854187, 0.405495822429657, 1.867969274520874, -3.4421303272247314, 0.6065963506698608, -0.90478515625, 0.2685546875, 0.37353515625, 0, 
182, 2408217161, 71.28534698486328, -80.02088165283203, -26.63895034790039, 9.945856094360352, 1.7247775793075562, 0.3883950412273407, 1.9446327686309814, -2.9518229961395264, 0.5621812343597412, -0.900390625, 0.27001953125, 0.373046875, 0, 
183, 2408225494, 71.27763366699219, -80.02042388916016, -26.630496978759766, 9.497994422912598, 1.9261152744293213, 0.5635924935340881, 1.9035472869873047, -3.108940362930298, 0.6193521022796631, -0.90234375, 0.2705078125, 0.37060546875, 0, 
184, 2408233827, 71.27649688720703, -80.02197265625, -26.627161026000977, 9.396452903747559, 1.6457875967025757, 0.7343138456344604, 1.682522177696228, -3.349048137664795, 0.7795179486274719, -0.90283203125, 0.27197265625, 0.373046875, 0, 
185, 2408242160, 71.28665924072266, -80.0225601196289, -26.6375732421875, 9.641715049743652, 1.544512152671814, 0.6791857481002808, 1.8230417966842651, -3.521406412124634, 0.6066731214523315, -0.90234375, 0.26953125, 0.373046875, 0, 
186, 2408250493, 71.2845687866211, -80.02275848388672, -26.63299560546875, 10.059016227722168, 1.4691333770751953, 0.37343931198120117, 1.74514901638031, -3.272538661956787, 0.6422513127326965, -0.9013671875, 0.27392578125, 0.3740234375, 0, 
187, 2408258826, 71.28026580810547, -80.02287292480469, -26.628005981445312, 10.091154098510742, 1.5172150135040283, 0.4031384289264679, 1.9153554439544678, -3.1967713832855225, 0.6490646004676819, -0.9033203125, 0.27001953125, 0.37451171875, 0, 
188, 2408267159, 71.26891326904297, -80.0223159790039, -26.608837127685547, 9.610678672790527, 1.8380435705184937, 0.4812338650226593, 1.9190441370010376, -3.027513265609741, 0.6271389722824097, -0.904296875, 0.27197265625, 0.373046875, 0, 
189, 2408275492, 71.26337432861328, -80.02169036865234, -26.6036319732666, 9.32585334777832, 1.7861578464508057, 0.7131930589675903, 1.782084584236145, -3.163421869277954, 0.5658696293830872, -0.90234375, 0.27099609375, 0.37451171875, 0, 
190, 2408283825, 71.2716293334961, -80.02228546142578, -26.613977432250977, 9.478819847106934, 1.6176879405975342, 0.6656423211097717, 1.6085995435714722, -3.518127918243408, 0.6013197898864746, -0.90380859375, 0.27099609375, 0.3720703125, 0, 
191, 2408292158, 71.25279235839844, -80.01826477050781, -26.60449981689453, 9.99131965637207, 1.4101014137268066, 0.4842199981212616, 1.8279852867126465, -3.519587755203247, 0.5791378021240234, -0.90185546875, 0.2705078125, 0.37939453125, 0, 
192, 2408300491, 71.25294494628906, -80.01728057861328, -26.586782455444336, 10.139507293701172, 1.5631159543991089, 0.46412622928619385, 1.9277530908584595, -3.2400856018066406, 0.5057786703109741, -0.90234375, 0.2705078125, 0.38134765625, 0, 
193, 2408308824, 71.24288940429688, -80.01708221435547, -26.576641082763672, 9.807670593261719, 1.8514639139175415, 0.468528687953949, 1.8240411281585693, -3.0827629566192627, 0.6521897315979004, -0.9013671875, 0.2685546875, 0.38671875, 0, 
194, 2408317157, 71.24117279052734, -80.01654815673828, -26.575239181518555, 9.417073249816895, 1.761907935142517, 0.6309539079666138, 1.7987852096557617, -3.242544174194336, 0.5534723997116089, -0.900390625, 0.2705078125, 0.3857421875, 0, 
195, 2408325490, 71.24394226074219, -80.01692199707031, -26.578083038330078, 9.34012222290039, 1.6576420068740845, 0.695435106754303, 1.8318531513214111, -3.36198353767395, 0.6349256634712219, -0.89990234375, 0.271484375, 0.3857421875, 0, 
196, 2408333823, 71.2525863647461, -80.0178451538086, -26.587400436401367, 9.737770080566406, 1.4895910024642944, 0.6406171917915344, 1.7739393711090088, -3.5070624351501465, 0.6418671011924744, -0.89892578125, 0.267578125, 0.3818359375, 0, 
197, 2408342156, 71.25727081298828, -80.01736450195312, -26.591737747192383, 10.17863941192627, 1.4692840576171875, 0.37799468636512756, 1.8824669122695923, -3.3598830699920654, 0.5227352976799011, -0.8984375, 0.27001953125, 0.38623046875, 0, 
198, 2408350489, 71.24732971191406, -80.01546478271484, -26.580717086791992, 9.966639518737793, 1.6636865139007568, 0.40550151467323303, 1.9452472925186157, -3.000002861022949, 0.46666574478149414, -0.8994140625, 0.2685546875, 0.38623046875, 0, 
199, 2408358822, 71.24552917480469, -80.0149917602539, -26.57759666442871, 9.490591049194336, 1.8766006231307983, 0.6363269686698914, 1.9882279634475708, -3.2132930755615234, 0.578753650188446, -0.90087890625, 0.27197265625, 0.38525390625, 0, 
200, 2408367155, 71.24759674072266, -80.01467895507812, -26.57961654663086, 9.333301544189453, 1.734057903289795, 0.7450570464134216, 1.846990942955017, -3.318106174468994, 0.559414803981781, -0.89990234375, 0.271484375, 0.38671875, 0, 
201, 2408375488, 71.25682830810547, -80.01454162597656, -26.589988708496094, 9.572525978088379, 1.58181631565094, 0.6863791942596436, 1.7210203409194946, -3.4897472858428955, 0.5159988403320312, -0.8984375, 0.27197265625, 0.3837890625, 0, 
202, 2408383821, 71.25796508789062, -80.01558685302734, -26.59052848815918, 10.055500984191895, 1.3655247688293457, 0.39210590720176697, 1.9083629846572876, -3.3416457176208496, 0.7268038988113403, -0.90185546875, 0.2724609375, 0.38427734375, 0, 
203, 2408392154, 71.25804138183594, -80.01527404785156, -26.58978843688965, 10.055267333984375, 1.497847318649292, 0.448882132768631, 1.9320814609527588, -3.2633683681488037, 0.5727086067199707, -0.900390625, 0.26953125, 0.38330078125, 0, 
204, 2408400487, 71.25382995605469, -80.01416778564453, -26.584352493286133, 9.628877639770508, 1.8737431764602661, 0.46652159094810486, 1.9764964580535889, -3.1390111446380615, 0.517356276512146, -0.900390625, 0.26953125, 0.38525390625, 0, 
205, 2408408820, 71.25426483154297, -80.01353454589844, -26.585824966430664, 9.370999336242676, 1.7611478567123413, 0.7702111005783081, 1.7077522277832031, -3.300534963607788, 0.5298560261726379, -0.900390625, 0.2705078125, 0.380859375, 0, 
206, 2408417153, 71.26335144042969, -80.01335906982422, -26.595298767089844, 9.458608627319336, 1.6033231019973755, 0.6868087649345398, 1.80739164352417, -3.4694607257843018, 0.5257577896118164, -0.900390625, 0.2724609375, 0.38623046875, 0, 
207, 2408425486, 71.26868438720703, -80.01384735107422, -26.6009464263916, 9.882499694824219, 1.4873509407043457, 0.5520758032798767, 1.8088769912719727, -3.422022819519043, 0.6224002242088318, -0.8974609375, 0.27099609375, 0.384765625, 0, 
208, 2408433819, 71.27323150634766, -80.01273345947266, -26.605321884155273, 10.09291934967041, 1.5114246606826782, 0.4386295676231384, 1.8632562160491943, -3.33465313911438, 0.45659932494163513, -0.8984375, 0.2705078125, 0.3837890625, 0, 
209, 2408442152, 71.26434326171875, -80.0129623413086, -26.59571075439453, 9.801779747009277, 1.7024004459381104, 0.37113121151924133, 1.9075177907943726, -3.1111433506011963, 0.6949141621589661, -0.90087890625, 0.26953125, 0.3837890625, 0, 
210, 2408450485, 71.25701904296875, -80.01207733154297, -26.58847999572754, 9.368157386779785, 1.8027468919754028, 0.6427364349365234, 1.8156135082244873, -3.1136529445648193, 0.555393397808075, -0.8994140625, 0.27001953125, 0.38623046875, 0, 
211, 2408458818, 71.26248168945312, -80.01264953613281, -26.59496307373047, 9.306809425354004, 1.6904091835021973, 0.7538514733314514, 1.7236840724945068, -3.4395687580108643, 0.6251665949821472, -0.89892578125, 0.27001953125, 0.38427734375, 0, 
212, 2408467151, 71.28263854980469, -80.01403045654297, -26.615230560302734, 9.76823616027832, 1.470023512840271, 0.6340561509132385, 1.8568272590637207, -3.745070457458496, 0.6321593523025513, -0.90087890625, 0.26904296875, 0.38623046875, 0, 
213, 2408475484, 71.28764343261719, -80.01338195800781, -26.619476318359375, 10.152915000915527, 1.4545986652374268, 0.38769301772117615, 1.940098762512207, -3.3479723930358887, 0.4973771572113037, -0.900390625, 0.26953125, 0.3857421875, 0, 
214, 2408483817, 71.27791595458984, -80.01237487792969, -26.608530044555664, 9.98943042755127, 1.687996506690979, 0.4340437948703766, 1.9628443717956543, -3.0374767780303955, 0.5709925293922424, -0.8994140625, 0.271484375, 0.38330078125, 0, 
215, 2408492150, 71.27387237548828, -80.01294708251953, -26.604188919067383, 9.503530502319336, 1.851759433746338, 0.5739238262176514, 1.858133316040039, -3.2303009033203125, 0.7077724933624268, -0.89990234375, 0.27294921875, 0.3828125, 0, 
216, 2408500483, 71.26622772216797, -80.01319885253906, -26.597267150878906, 9.313140869140625, 1.7057948112487793, 0.702311635017395, 1.7390528917312622, -3.1612446308135986, 0.6747813820838928, -0.90185546875, 0.2705078125, 0.38720703125, 0, 
217, 2408508816, 71.28013610839844, -80.0137710571289, -26.611736297607422, 9.512053489685059, 1.5932003259658813, 0.6853561401367188, 1.7966848611831665, -3.598991870880127, 0.5782668590545654, -0.89892578125, 0.271484375, 0.384765625, 0, 
218, 2408517149, 71.28267669677734, -80.01400756835938, -26.61491584777832, 10.015519142150879, 1.3989497423171997, 0.43922099471092224, 1.7690471410751343, -3.3607540130615234, 0.6062376499176025, -0.8994140625, 0.2685546875, 0.3837890625, 0, 
219, 2408525482, 71.27899932861328, -80.01342010498047, -26.610151290893555, 10.151169776916504, 1.5208792686462402, 0.4208366870880127, 1.95610773563385, -3.1751015186309814, 0.5720170140266418, -0.8974609375, 0.2685546875, 0.384765625, 0, 
220, 2408533815, 71.2746810913086, -80.01380920410156, -26.605194091796875, 9.734752655029297, 1.8866363763809204, 0.4214940369129181, 1.899986982345581, -3.208221435546875, 0.6894583702087402, -0.8984375, 0.27001953125, 0.384765625, 0, 
221, 2408542148, 71.26820373535156, -80.01516723632812, -26.599754333496094, 9.382401466369629, 1.7656843662261963, 0.7054486870765686, 1.700119137763977, -3.2375752925872803, 0.7967307567596436, -0.900390625, 0.27001953125, 0.384765625, 0, 
222, 2408550481, 71.27474975585938, -80.01570129394531, -26.606670379638672, 9.449267387390137, 1.6598386764526367, 0.7421680092811584, 1.8079805374145508, -3.447432041168213, 0.6207609176635742, -0.8994140625, 0.26904296875, 0.3837890625, 0, 
223, 2408558814, 71.28407287597656, -80.01728057861328, -26.616680145263672, 9.816007614135742, 1.4920982122421265, 0.5280585289001465, 1.7730556726455688, -3.5515670776367188, 0.7226672172546387, -0.9013671875, 0.26953125, 0.38232421875, 0, 
224, 2408567147, 71.29073333740234, -80.01660919189453, -26.623329162597656, 10.137499809265137, 1.394263505935669, 0.38552361726760864, 1.8472217321395874, -3.3948464393615723, 0.48592761158943176, -0.900390625, 0.26953125, 0.38525390625, 0, 
225, 2408575480, 71.28459167480469, -80.01609802246094, -26.6159725189209, 9.898577690124512, 1.6987749338150024, 0.34681785106658936, 1.9731413125991821, -3.1268703937530518, 0.5949161648750305, -0.90185546875, 0.27001953125, 0.38330078125, 0, 
226, 2408583813, 71.2778549194336, -80.01583862304688, -26.609628677368164, 9.404013633728027, 1.9312952756881714, 0.624628484249115, 1.775886058807373, -3.155097246170044, 0.6205304265022278, -0.900390625, 0.2685546875, 0.3837890625, 0, 
227, 2408592146, 71.27924346923828, -80.01660919189453, -26.613033294677734, 9.364755630493164, 1.6937144994735718, 0.6706414222717285, 1.602298378944397, -3.3882124423980713, 0.6734494566917419, -0.89990234375, 0.267578125, 0.38671875, 0, 
228, 2408600479, 71.29195404052734, -80.0174331665039, -26.626995086669922, 9.702188491821289, 1.5145635604858398, 0.6055397391319275, 1.7061384916305542, -3.600144624710083, 0.6151769757270813, -0.8994140625, 0.27197265625, 0.3837890625, 0, 
229, 2408608812, 71.29573059082031, -80.01892852783203, -26.63066291809082, 10.084321975708008, 1.4720362424850464, 0.3498481512069702, 1.851550579071045, -3.421997547149658, 0.7497286200523376, -0.900390625, 0.2705078125, 0.38427734375, 0, 
230, 2408617145, 71.28077697753906, -80.0192642211914, -26.615062713623047, 10.040867805480957, 1.5654274225234985, 0.3727496564388275, 1.8860530853271484, -2.9964940547943115, 0.7539550065994263, -0.900390625, 0.27001953125, 0.38623046875, 0, 
231, 2408625478, 71.27577209472656, -80.0186767578125, -26.60907745361328, 9.613483428955078, 1.7994486093521118, 0.4675329625606537, 1.9444786310195923, -3.1502301692962646, 0.577396035194397, -0.89794921875, 0.2705078125, 0.38427734375, 0, 
232, 2408633811, 71.2694091796875, -80.01786804199219, -26.603343963623047, 9.293096542358398, 1.7123489379882812, 0.6998660564422607, 1.7488375902175903, -3.1452105045318604, 0.5530882477760315, -0.8974609375, 0.27001953125, 0.3857421875, 0, 
233, 2408642144, 71.27814483642578, -80.01759338378906, -26.61216163635254, 9.485936164855957, 1.610703468322754, 0.675838828086853, 1.843584656715393, -3.4559106826782227, 0.5183553099632263, -0.9013671875, 0.2705078125, 0.3837890625, 0, 
234, 2408650477, 71.28410339355469, -80.01779174804688, -26.618858337402344, 10.02607250213623, 1.4350568056106567, 0.49503111839294434, 1.7592880725860596, -3.4294002056121826, 0.585823118686676, -0.90185546875, 0.2685546875, 0.38330078125, 0, 
235, 2408658810, 71.28451538085938, -80.01710510253906, -26.61883544921875, 10.148866653442383, 1.576975703239441, 0.38406679034233093, 1.8899972438812256, -3.2669029235839844, 0.5264749526977539, -0.8994140625, 0.27099609375, 0.38720703125, 0, 
236, 2408667143, 71.27656555175781, -80.01605987548828, -26.610218048095703, 9.769998550415039, 1.847374439239502, 0.3959207236766815, 1.8987319469451904, -3.078895092010498, 0.5510646104812622, -0.8974609375, 0.26953125, 0.3828125, 0, 
237, 2408675476, 71.26608276367188, -80.01538848876953, -26.600555419921875, 9.363091468811035, 1.7856022119522095, 0.6276990175247192, 1.7247344255447388, -3.0755650997161865, 0.5882564783096313, -0.8994140625, 0.2705078125, 0.3828125, 0, 
238, 2408683809, 71.26454162597656, -80.01546478271484, -26.600143432617188, 9.340873718261719, 1.6380504369735718, 0.6789069771766663, 1.6975576877593994, -3.284961462020874, 0.623706579208374, -0.89990234375, 0.27001953125, 0.384765625, 0, 
239, 2408692142, 71.26942443847656, -80.01692199707031, -26.605911254882812, 9.774640083312988, 1.438398838043213, 0.5610346794128418, 1.7395907640457153, -3.461597442626953, 0.732464611530304, -0.90185546875, 0.27001953125, 0.38671875, 0, 
240, 2408700475, 71.27264404296875, -80.01666259765625, -26.609569549560547, 10.191195487976074, 1.4083110094070435, 0.3679693341255188, 1.7949172258377075, -3.351942300796509, 0.5513463020324707, -0.89990234375, 0.2685546875, 0.3857421875, 0, 
241, 2408708808, 71.26216125488281, -80.01546478271484, -26.598041534423828, 9.946295738220215, 1.6308836936950684, 0.32676398754119873, 1.935949683189392, -3.0183944702148438, 0.5489643216133118, -0.89990234375, 0.26953125, 0.38427734375, 0, 
242, 2408717141, 71.25366973876953, -80.01365661621094, -26.58909034729004, 9.506796836853027, 1.8403942584991455, 0.593988835811615, 1.8725030422210693, -3.044008255004883, 0.46802330017089844, -0.8994140625, 0.27099609375, 0.38720703125, 0, 
243, 2408725474, 71.2510986328125, -80.0147933959961, -26.587383270263672, 9.360130310058594, 1.7093456983566284, 0.7293972373008728, 1.729857325553894, -3.3012778759002686, 0.7426591515541077, -0.89794921875, 0.27099609375, 0.3798828125, 0, 
244, 2408733807, 71.25792694091797, -80.0147933959961, -26.595020294189453, 9.549137115478516, 1.6066581010818481, 0.6356322169303894, 1.7567522525787354, -3.43997859954834, 0.5524477958679199, -0.89892578125, 0.27197265625, 0.37109375, 0, 
245, 2408742140, 71.25968170166016, -80.01519012451172, -26.596059799194336, 10.027482986450195, 1.4227439165115356, 0.43393245339393616, 1.9260367155075073, -3.3274807929992676, 0.6480145454406738, -0.90234375, 0.27099609375, 0.36572265625, 0, 
246, 2408750473, 71.25212860107422, -80.01292419433594, -26.58711814880371, 10.03017807006836, 1.5364208221435547, 0.45213571190834045, 1.9889967441558838, -3.0245676040649414, 0.4066516160964966, -0.90234375, 0.271484375, 0.36767578125, 0, 
247, 2408758806, 71.24365234375, -80.01164245605469, -26.577468872070312, 9.640527725219727, 1.9080430269241333, 0.45924854278564453, 1.9562872648239136, -3.0539209842681885, 0.5298560261726379, -0.90478515625, 0.2705078125, 0.3681640625, 0, 
248, 2408767139, 71.2354965209961, -80.01121520996094, -26.569324493408203, 9.36640739440918, 1.7500264644622803, 0.7478985786437988, 1.8090050220489502, -3.114600896835327, 0.621606171131134, -0.90478515625, 0.2724609375, 0.36767578125, 0, 
249, 2408775472, 71.245361328125, -80.0112533569336, -26.57965850830078, 9.484214782714844, 1.5689564943313599, 0.7651007771492004, 1.8021150827407837, -3.4960744380950928, 0.5398968458175659, -0.9052734375, 0.27001953125, 0.36962890625, 0, 
250, 2408783805, 71.24869537353516, -80.01168823242188, -26.582693099975586, 9.937360763549805, 1.479663610458374, 0.5128933787345886, 1.8766013383865356, -3.365543842315674, 0.6361806988716125, -0.904296875, 0.271484375, 0.36767578125, 0, 
251, 2408792138, 71.25244140625, -80.0101089477539, -26.58643341064453, 10.128878593444824, 1.5118365287780762, 0.4163433313369751, 1.8461201190948486, -3.304786443710327, 0.3952019512653351, -0.90380859375, 0.2724609375, 0.37255859375, 0, 
252, 2408800471, 71.23674774169922, -80.00892639160156, -26.573026657104492, 9.80295181274414, 1.6736582517623901, 0.3576923906803131, 1.9869987964630127, -2.9067163467407227, 0.5941734313964844, -0.904296875, 0.2724609375, 0.37060546875, 0, 
253, 2408808804, 71.226806640625, -80.00749206542969, -26.562767028808594, 9.325275421142578, 1.8086735010147095, 0.7243614196777344, 1.8552392721176147, -3.0338399410247803, 0.5098769664764404, -0.9052734375, 0.26953125, 0.3681640625, 0, 
254, 2408817137, 71.2284927368164, -80.00782775878906, -26.56451416015625, 9.351438522338867, 1.738447904586792, 0.7124674916267395, 1.788283348083496, -3.343515634536743, 0.6341059803962708, -0.90283203125, 0.2724609375, 0.37158203125, 0, 
255, 2408825470, 71.23777770996094, -80.00837707519531, -26.57477378845215, 9.762200355529785, 1.4492952823638916, 0.6159485578536987, 1.7349801063537598, -3.515848159790039, 0.596657931804657, -0.90478515625, 0.271484375, 0.37451171875, 0, 
256, 2408833803, 71.23633575439453, -80.00843048095703, -26.574342727661133, 10.133496284484863, 1.441192626953125, 0.4185537099838257, 1.8453775644302368, -3.2633941173553467, 0.6208378076553345, -0.90380859375, 0.26953125, 0.37109375, 0, 
257, 2408842136, 71.22460174560547, -80.00814056396484, -26.56124496459961, 9.911428451538086, 1.690696120262146, 0.4764564037322998, 1.97334623336792, -3.0223896503448486, 0.6639465689659119, -0.904296875, 0.27001953125, 0.3720703125, 0, 
258, 2408850469, 71.21902465820312, -80.00711822509766, -26.557580947875977, 9.528532028198242, 1.8778547048568726, 0.5426999926567078, 1.8708381652832031, -3.1330947875976562, 0.5355936288833618, -0.90478515625, 0.271484375, 0.37158203125, 0, 
259, 2408858802, 71.21526336669922, -80.00861358642578, -26.554529190063477, 9.322908401489258, 1.6555784940719604, 0.6773968935012817, 1.7483251094818115, -3.287830114364624, 0.7924275398254395, -0.90478515625, 0.27197265625, 0.37353515625, 0, 
260, 2408867135, 71.23197174072266, -80.00898742675781, -26.56972885131836, 9.501012802124023, 1.5518184900283813, 0.7056028842926025, 1.8374114036560059, -3.6386685371398926, 0.5375915169715881, -0.90380859375, 0.27197265625, 0.37255859375, 0, 
261, 2408875468, 71.23895263671875, -80.00926208496094, -26.57697296142578, 10.020790100097656, 1.421952247619629, 0.4624195396900177, 1.81748366355896, -3.4473812580108643, 0.595274806022644, -0.9033203125, 0.2724609375, 0.3740234375, 0, 
262, 2408883801, 71.2366714477539, -80.00907135009766, -26.57546043395996, 10.107722282409668, 1.5310148000717163, 0.4240773320198059, 2.027033567428589, -3.2014074325561523, 0.602984607219696, -0.90185546875, 0.27001953125, 0.37353515625, 0, 
263, 2408892134, 71.23529815673828, -80.00857543945312, -26.5726318359375, 9.667725563049316, 1.8797329664230347, 0.4680846035480499, 2.0043907165527344, -3.2202341556549072, 0.5731697678565979, -0.90283203125, 0.2705078125, 0.37255859375, 0, 
264, 2408900467, 71.22853088378906, -80.00890350341797, -26.56557846069336, 9.307104110717773, 1.7830578088760376, 0.7608582973480225, 1.7699179649353027, -3.1794564723968506, 0.6902267336845398, -0.90380859375, 0.27001953125, 0.37451171875, 0, 
265, 2408908800, 71.24298858642578, -80.00963592529297, -26.580665588378906, 9.452469825744629, 1.6685298681259155, 0.6702910661697388, 1.789026141166687, -3.6173057556152344, 0.5870782732963562, -0.90771484375, 0.27001953125, 0.37353515625, 0, 
266, 2408917133, 71.25096130371094, -80.01123046875, -26.592451095581055, 9.893494606018066, 1.4466917514801025, 0.5146955251693726, 1.8146660327911377, -3.515284776687622, 0.7315425276756287, -0.904296875, 0.26953125, 0.3701171875, 0, 
267, 2408925466, 71.25173950195312, -80.01045989990234, -26.592554092407227, 10.107622146606445, 1.4192399978637695, 0.3649696111679077, 1.9179681539535522, -3.2640092372894287, 0.5129250288009644, -0.90576171875, 0.27001953125, 0.37255859375, 0, 
268, 2408933799, 71.2448959350586, -80.00896453857422, -26.58773422241211, 9.860516548156738, 1.7343485355377197, 0.39682236313819885, 1.8526265621185303, -3.0961334705352783, 0.4994775950908661, -0.90185546875, 0.2724609375, 0.37353515625, 0, 
269, 2408942132, 71.24186706542969, -80.00898742675781, -26.584497451782227, 9.400046348571777, 1.841978669166565, 0.6501951813697815, 1.8554439544677734, -3.2301981449127197, 0.6316213011741638, -0.904296875, 0.271484375, 0.37353515625, 0, 
270, 2408950465, 71.24579620361328, -80.00947570800781, -26.58892250061035, 9.407418251037598, 1.6831793785095215, 0.6955693960189819, 1.7919974327087402, -3.3930535316467285, 0.627036452293396, -0.9033203125, 0.2705078125, 0.37109375, 0, 
271, 2408958798, 71.25202941894531, -80.01091003417969, -26.596370697021484, 9.741742134094238, 1.5117928981781006, 0.6508318781852722, 1.6980185508728027, -3.4960222244262695, 0.7248570919036865, -0.90380859375, 0.271484375, 0.37158203125, 0, 
272, 2408967131, 71.24823760986328, -80.01090240478516, -26.590595245361328, 10.100757598876953, 1.5213676691055298, 0.41480183601379395, 1.7781398296356201, -3.223179578781128, 0.6257812976837158, -0.90380859375, 0.27099609375, 0.373046875, 0, 
273, 2408975464, 71.24042510986328, -80.0112533569336, -26.581707000732422, 9.970433235168457, 1.6224453449249268, 0.37781599164009094, 1.9499859809875488, -3.1286377906799316, 0.7000370025634766, -0.9013671875, 0.2705078125, 0.37353515625, 0, 
274, 2408983797, 71.23471069335938, -80.01097106933594, -26.574792861938477, 9.503544807434082, 1.8383803367614746, 0.4978395104408264, 1.8244507312774658, -3.166700601577759, 0.6266522407531738, -0.90185546875, 0.26806640625, 0.37158203125, 0, 
275, 2408992130, 71.2343521118164, -80.01136779785156, -26.57464599609375, 9.31142520904541, 1.6990443468093872, 0.7336323857307434, 1.810542106628418, -3.303685188293457, 0.6534190773963928, -0.904296875, 0.26904296875, 0.373046875, 0, 
276, 2409000463, 71.24960327148438, -80.01152801513672, -26.59038543701172, 9.52785587310791, 1.594569206237793, 0.664109468460083, 1.812591314315796, -3.6078546047210693, 0.5214802026748657, -0.90625, 0.2685546875, 0.37109375, 0, 
277, 2409008796, 71.25128936767578, -80.01139068603516, -26.592891693115234, 10.1043701171875, 1.4441155195236206, 0.433917760848999, 1.7483251094818115, -3.3351142406463623, 0.5686360001564026, -0.9013671875, 0.26904296875, 0.37109375, 0, 
278, 2409017129, 71.25479125976562, -80.01032257080078, -26.59381103515625, 10.092085838317871, 1.5498003959655762, 0.4228709936141968, 1.9523169994354248, -3.29738450050354, 0.4677671790122986, -0.900390625, 0.27099609375, 0.3759765625, 0, 
279, 2409025462, 71.24415588378906, -80.01036834716797, -26.58265495300293, 9.683026313781738, 1.8811805248260498, 0.4221615195274353, 1.8726054430007935, -3.074591875076294, 0.6920198202133179, -0.9013671875, 0.27001953125, 0.36962890625, 0, 
280, 2409033795, 71.24012756347656, -80.00979614257812, -26.575857162475586, 9.320672035217285, 1.7510910034179688, 0.6979075074195862, 1.8709661960601807, -3.18224835395813, 0.5772680044174194, -0.90234375, 0.27294921875, 0.37255859375, 0, 
281, 2409042128, 71.24864959716797, -80.01038360595703, -26.585079193115234, 9.366301536560059, 1.697409987449646, 0.6375486254692078, 1.7734013795852661, -3.4943063259124756, 0.6031383275985718, -0.90283203125, 0.27197265625, 0.37158203125, 0, 
282, 2409050461, 71.25582122802734, -80.01211547851562, -26.591203689575195, 9.814753532409668, 1.4777731895446777, 0.5391198992729187, 1.7589294910430908, -3.511852264404297, 0.7472696900367737, -0.90380859375, 0.2724609375, 0.37158203125, 0, 
283, 2409058794, 71.26069641113281, -80.01174926757812, -26.596303939819336, 10.150822639465332, 1.4028716087341309, 0.43059414625167847, 1.8165102005004883, -3.3811941146850586, 0.5350557565689087, -0.90478515625, 0.27001953125, 0.373046875, 0, 
284, 2409067127, 71.25148010253906, -80.01160430908203, -26.586444854736328, 9.92331314086914, 1.7382614612579346, 0.37286636233329773, 1.9112313985824585, -3.0894992351531982, 0.660872757434845, -0.90185546875, 0.26904296875, 0.3720703125, 0, 
285, 2409075460, 71.24671936035156, -80.01111602783203, -26.581890106201172, 9.488567352294922, 1.8947750329971313, 0.6631912589073181, 1.8029091358184814, -3.1831960678100586, 0.5780876278877258, -0.90478515625, 0.27001953125, 0.3740234375, 0, 
286, 2409083793, 71.25155639648438, -80.01190185546875, -26.5877685546875, 9.432902336120605, 1.6934734582901, 0.7777203917503357, 1.740845799446106, -3.4339590072631836, 0.659002959728241, -0.90380859375, 0.271484375, 0.37353515625, 0, 
287, 2409092126, 71.25740051269531, -80.01318359375, -26.593791961669922, 9.687947273254395, 1.5416960716247559, 0.6420239210128784, 1.8194044828414917, -3.461904287338257, 0.7175571322441101, -0.90283203125, 0.2734375, 0.37255859375, 0, 
288, 2409100459, 71.26126861572266, -80.01233673095703, -26.593994140625, 10.054835319519043, 1.412925362586975, 0.4123294949531555, 1.9493968486785889, -3.316723108291626, 0.4949950873851776, -0.904296875, 0.2705078125, 0.376953125, 0, 
289, 2409108792, 71.2533950805664, -80.01146697998047, -26.585031509399414, 10.040783882141113, 1.5520570278167725, 0.42167139053344727, 1.9535977840423584, -3.081738233566284, 0.5714792013168335, -0.90087890625, 0.267578125, 0.3828125, 0, 
290, 2409117125, 71.24530029296875, -80.01032257080078, -26.5762882232666, 9.643271446228027, 1.9517765045166016, 0.4628334939479828, 1.894095778465271, -3.074002504348755, 0.5341591835021973, -0.89990234375, 0.2685546875, 0.384765625, 0, 
291, 2409125458, 71.24073791503906, -80.0100326538086, -26.572437286376953, 9.368109703063965, 1.8047797679901123, 0.7579097151756287, 1.7505279779434204, -3.204455852508545, 0.5953516364097595, -0.9013671875, 0.27099609375, 0.38134765625, 0, 
292, 2409133791, 71.25039672851562, -80.01093292236328, -26.59421730041504, 9.528556823730469, 1.5739434957504272, 0.6951571702957153, 1.715999960899353, -3.5335731506347656, 0.6336193084716797, -0.89990234375, 0.2685546875, 0.38330078125, 0, 
293, 2409142124, 71.25244903564453, -80.01099395751953, -26.597251892089844, 9.981345176696777, 1.4002952575683594, 0.44910290837287903, 1.7187150716781616, -3.356809377670288, 0.5982972383499146, -0.89990234375, 0.27001953125, 0.38525390625, 0, 
294, 2409150457, 71.2480239868164, -80.01026153564453, -26.592388153076172, 10.093710899353027, 1.5089761018753052, 0.4460640847682953, 1.8841320276260376, -3.167187213897705, 0.5551629066467285, -0.90283203125, 0.2705078125, 0.3828125, 0, 
295, 2409158790, 71.23853302001953, -80.00969696044922, -26.582136154174805, 9.775215148925781, 1.7784701585769653, 0.39204591512680054, 1.9044181108474731, -3.0663950443267822, 0.6122825741767883, -0.89990234375, 0.267578125, 0.3828125, 0, 
296, 2409167123, 71.22733306884766, -80.008056640625, -26.570510864257812, 9.38965892791748, 1.7632602453231812, 0.6302356123924255, 1.8638710975646973, -2.9990813732147217, 0.5058811902999878, -0.900390625, 0.2705078125, 0.38427734375, 0, 
297, 2409175456, 71.2266616821289, -80.00822448730469, -26.569753646850586, 9.377208709716797, 1.6779794692993164, 0.6497899889945984, 1.8494244813919067, -3.281477689743042, 0.6242445111274719, -0.900390625, 0.26806640625, 0.38330078125, 0, 
298, 2409183789, 71.23975372314453, -80.00943756103516, -26.582626342773438, 9.778417587280273, 1.4424983263015747, 0.5615179538726807, 1.8887935876846313, -3.588874340057373, 0.6530349254608154, -0.90283203125, 0.271484375, 0.38671875, 0, 
299, 2409192122, 71.23841857910156, -80.00841522216797, -26.58026885986328, 10.108241081237793, 1.4346394538879395, 0.3951270282268524, 1.9515483379364014, -3.209578275680542, 0.5137190222740173, -0.900390625, 0.26953125, 0.38671875, 0, 
300, 2409200455, 71.22769165039062, -80.00668334960938, -26.56825828552246, 9.908438682556152, 1.720140814781189, 0.4002670347690582, 1.9715020656585693, -2.984865427017212, 0.4869266450405121, -0.89892578125, 0.26904296875, 0.38623046875, 0, 
301, 2409208788, 71.22242736816406, -80.0058364868164, -26.56180763244629, 9.479703903198242, 1.9244365692138672, 0.6134467720985413, 1.960769534111023, -3.1338374614715576, 0.5647426247596741, -0.8994140625, 0.27197265625, 0.3857421875, 0, 
302, 2409217121, 71.22349548339844, -80.005859375, -26.563629150390625, 9.376429557800293, 1.706253170967102, 0.723777174949646, 1.7514244318008423, -3.325047731399536, 0.5941733717918396, -0.90087890625, 0.27197265625, 0.384765625, 0, 
303, 2409225454, 71.23650360107422, -80.00704193115234, -26.576444625854492, 9.523245811462402, 1.4835407733917236, 0.6859222054481506, 1.882287621498108, -3.591512441635132, 0.6538545489311218, -0.900390625, 0.2705078125, 0.3857421875, 0, 
304, 2409233787, 71.2441635131836, -80.00675964355469, -26.584272384643555, 10.012829780578613, 1.3454861640930176, 0.40111619234085083, 1.8294708728790283, -3.4320123195648193, 0.5201738476753235, -0.900390625, 0.2705078125, 0.38525390625, 0, 
305, 2409242120, 71.2444076538086, -80.0053482055664, -26.58346176147461, 10.025918006896973, 1.46626615524292, 0.39273887872695923, 1.968248963356018, -3.2230262756347656, 0.44912001490592957, -0.900390625, 0.26904296875, 0.384765625, 0, 
306, 2409250453, 71.23616027832031, -80.0033187866211, -26.57422637939453, 9.669968605041504, 1.8704357147216797, 0.5382820963859558, 1.9302634000778198, -3.0309455394744873, 0.44576457142829895, -0.8994140625, 0.2685546875, 0.38525390625, 0, 
307, 2409258786, 71.23445892333984, -80.00310516357422, -26.57345199584961, 9.398136138916016, 1.8406308889389038, 0.7619031071662903, 1.7221729755401611, -3.26872181892395, 0.5870526432991028, -0.900390625, 0.27099609375, 0.3857421875, 0, 
308, 2409267119, 71.23579406738281, -80.00326538085938, -26.575822830200195, 9.456768989562988, 1.6566343307495117, 0.6417219638824463, 1.7213021516799927, -3.3428494930267334, 0.6077744960784912, -0.90185546875, 0.2685546875, 0.3837890625, 0, 
309, 2409275452, 71.23564147949219, -80.00418853759766, -26.576519012451172, 9.81419849395752, 1.4059022665023804, 0.506566047668457, 1.7316757440567017, -3.3418757915496826, 0.710718035697937, -0.8984375, 0.27099609375, 0.3818359375, 0, 
310, 2409283785, 71.24044799804688, -80.00269317626953, -26.58050537109375, 10.034041404724121, 1.429822325706482, 0.46955356001853943, 1.9437873363494873, -3.309474229812622, 0.4054733216762543, -0.896484375, 0.26953125, 0.384765625, 0, 
311, 2409292118, 71.23222351074219, -80.00162506103516, -26.57096290588379, 9.795060157775879, 1.773070216178894, 0.4103844165802002, 1.9771368503570557, -3.0637052059173584, 0.5519098043441772, -0.90234375, 0.26953125, 0.384765625, 0, 
312, 2409300451, 71.22444152832031, -80.00154876708984, -26.56357765197754, 9.466466903686523, 1.882959246635437, 0.5846734642982483, 1.775450587272644, -3.140599489212036, 0.6514468789100647, -0.9013671875, 0.27001953125, 0.38427734375, 0, 
313, 2409308784, 71.22943878173828, -80.00235748291016, -26.568687438964844, 9.412886619567871, 1.6596390008926392, 0.7449761033058167, 1.8273450136184692, -3.424917697906494, 0.6617693305015564, -0.89794921875, 0.27001953125, 0.38134765625, 0, 
314, 2409317117, 71.23869323730469, -80.0033187866211, -26.579050064086914, 9.724712371826172, 1.4556788206100464, 0.6443983316421509, 1.7224034070968628, -3.533419132232666, 0.6508319973945618, -0.90185546875, 0.27099609375, 0.3828125, 0, 
315, 2409325450, 71.23562622070312, -80.00261688232422, -26.57585906982422, 10.094382286071777, 1.4657138586044312, 0.376577228307724, 1.8442761898040771, -3.1999478340148926, 0.5450708866119385, -0.89892578125, 0.2724609375, 0.38330078125, 0, 
316, 2409333783, 71.2264404296875, -80.00251007080078, -26.5667724609375, 9.98505687713623, 1.606075644493103, 0.3794940710067749, 1.808954119682312, -3.108274459838867, 0.6572611927986145, -0.90087890625, 0.2685546875, 0.38916015625, 0, 
317, 2409342116, 71.21961975097656, -80.00192260742188, -26.559412002563477, 9.473929405212402, 1.8467717170715332, 0.5485857129096985, 1.890842318534851, -3.1230790615081787, 0.5870013236999512, -0.89794921875, 0.26953125, 0.384765625, 0, 
318, 2409350449, 71.21468353271484, -80.00251007080078, -26.555002212524414, 9.320077896118164, 1.7688698768615723, 0.7168267965316772, 1.7582634687423706, -3.228097915649414, 0.7116914987564087, -0.89990234375, 0.27099609375, 0.38232421875, 0, 
319, 2409358782, 71.22805786132812, -80.00442504882812, -26.569103240966797, 9.554248809814453, 1.6165560483932495, 0.6870879530906677, 1.7748870849609375, -3.6435861587524414, 0.7281101942062378, -0.9013671875, 0.271484375, 0.384765625, 0, 
320, 2409367115, 71.23640441894531, -80.00530242919922, -26.578102111816406, 10.054052352905273, 1.3896100521087646, 0.43023553490638733, 1.7743492126464844, -3.5016579627990723, 0.6464008092880249, -0.904296875, 0.267578125, 0.38525390625, 0, 
321, 2409375448, 71.2301254272461, -80.0039291381836, -26.5704402923584, 10.085739135742188, 1.545019268989563, 0.48950234055519104, 1.9872032403945923, -3.0885772705078125, 0.5041136741638184, -0.89892578125, 0.27001953125, 0.38330078125, 0, 
322, 2409383781, 71.22132873535156, -80.00379180908203, -26.560911178588867, 9.739721298217773, 1.9363477230072021, 0.4795467257499695, 1.9065696001052856, -3.0955183506011963, 0.6545974016189575, -0.89990234375, 0.27001953125, 0.3837890625, 0, 
323, 2409392114, 71.21304321289062, -80.00507354736328, -26.553478240966797, 9.423144340515137, 1.7326054573059082, 0.6760483384132385, 1.725246548652649, -3.194030523300171, 0.8003679513931274, -0.8994140625, 0.26904296875, 0.38134765625, 0, 
324, 2409400447, 71.21025848388672, -80.0057373046875, -26.551097869873047, 9.464482307434082, 1.6282334327697754, 0.6989037394523621, 1.787899136543274, -3.2689781188964844, 0.6934541463851929, -0.8994140625, 0.27197265625, 0.38525390625, 0, 
325, 2409408780, 71.21772766113281, -80.00623321533203, -26.559490203857422, 9.799525260925293, 1.4591776132583618, 0.5550909042358398, 1.7370290756225586, -3.4749162197113037, 0.6067242622375488, -0.8994140625, 0.27001953125, 0.38330078125, 0, 
326, 2409417113, 71.21958923339844, -80.00505065917969, -26.561641693115234, 10.109402656555176, 1.392170786857605, 0.40233755111694336, 1.804317831993103, -3.2882909774780273, 0.4598523676395416, -0.89892578125, 0.26953125, 0.3857421875, 0, 
327, 2409425446, 71.21247863769531, -80.00425720214844, -26.553373336791992, 9.954121589660645, 1.7228425741195679, 0.40268582105636597, 1.962050437927246, -3.097695827484131, 0.5714535713195801, -0.90087890625, 0.26953125, 0.38671875, 0, 
328, 2409433779, 71.20297241210938, -80.00231170654297, -26.54360008239746, 9.454872131347656, 1.9097955226898193, 0.6711138486862183, 1.8471192121505737, -3.0245163440704346, 0.46000608801841736, -0.89892578125, 0.26904296875, 0.3837890625, 0, 
329, 2409442112, 71.20220947265625, -80.00259399414062, -26.543598175048828, 9.40927505493164, 1.7176618576049805, 0.7164862751960754, 1.7430741786956787, -3.302584171295166, 0.6394081115722656, -0.90087890625, 0.271484375, 0.384765625, 0, 
330, 2409450445, 71.21146392822266, -80.0033187866211, -26.553813934326172, 9.730008125305176, 1.4867873191833496, 0.5864995718002319, 1.7405896186828613, -3.519639015197754, 0.6189680099487305, -0.89892578125, 0.271484375, 0.3828125, 0, 
331, 2409458778, 71.21144104003906, -80.0027084350586, -26.553789138793945, 10.077978134155273, 1.4170703887939453, 0.4075049161911011, 1.8351318836212158, -3.2686707973480225, 0.5388466715812683, -0.8984375, 0.27099609375, 0.384765625, 0, 
332, 2409467111, 71.199951171875, -80.0024185180664, -26.541841506958008, 9.951762199401855, 1.5617913007736206, 0.4796220362186432, 1.872336745262146, -3.040410041809082, 0.6501277089118958, -0.89990234375, 0.26904296875, 0.384765625, 0, 
333, 2409475444, 71.19432830810547, -80.00133514404297, -26.53490447998047, 9.604342460632324, 1.8343473672866821, 0.49421387910842896, 1.9800058603286743, -3.1116554737091064, 0.5293694138526917, -0.900390625, 0.27001953125, 0.384765625, 0, 
334, 2409483777, 71.19255065917969, -80.00086212158203, -26.533554077148438, 9.40192699432373, 1.7603893280029297, 0.6794929504394531, 1.7818796634674072, -3.246847152709961, 0.5661001205444336, -0.9013671875, 0.27001953125, 0.3837890625, 0, 
335, 2409492110, 71.20053100585938, -80.00093841552734, -26.541860580444336, 9.540708541870117, 1.632805585861206, 0.6898831725120544, 1.8108748197555542, -3.459547519683838, 0.5616176724433899, -0.8994140625, 0.27197265625, 0.3857421875, 0, 
336, 2409500443, 71.2009506225586, -80.0010986328125, -26.542888641357422, 9.936457633972168, 1.4086835384368896, 0.49887359142303467, 1.764461874961853, -3.3165433406829834, 0.6199668645858765, -0.9013671875, 0.26953125, 0.38623046875, 0, 
337, 2409508776, 71.19631958007812, -79.99966430664062, -26.53781509399414, 10.01760196685791, 1.4626963138580322, 0.4283773601055145, 1.8794443607330322, -3.137756586074829, 0.4771420359611511, -0.9013671875, 0.2705078125, 0.38427734375, 0, 
338, 2409517109, 71.1899185180664, -79.99884033203125, -26.5307559967041, 9.73304557800293, 1.7861881256103516, 0.40271124243736267, 1.8997565507888794, -3.1200056076049805, 0.5658184289932251, -0.90185546875, 0.2705078125, 0.3818359375, 0, 
339, 2409525442, 71.18636322021484, -79.99826049804688, -26.526386260986328, 9.388619422912598, 1.8277801275253296, 0.6750330924987793, 1.9265234470367432, -3.1831703186035156, 0.5690202116966248, -0.90087890625, 0.27099609375, 0.3857421875, 0, 
340, 2409533775, 71.18914794921875, -79.99910736083984, -26.52968406677246, 9.380288124084473, 1.7182679176330566, 0.6858915686607361, 1.7790879011154175, -3.3869831562042236, 0.6866151690483093, -0.90087890625, 0.27197265625, 0.37451171875, 0, 
341, 2409542108, 71.19578552246094, -80.0010757446289, -26.536888122558594, 9.76167106628418, 1.4311652183532715, 0.5617772936820984, 1.7791391611099243, -3.512057304382324, 0.7806961536407471, -0.90380859375, 0.27197265625, 0.365234375, 0, 
342, 2409550441, 71.20057678222656, -80.00015258789062, -26.541486740112305, 10.088329315185547, 1.3672512769699097, 0.3885965347290039, 1.8734506368637085, -3.343310832977295, 0.4688172936439514, -0.90673828125, 0.2685546875, 0.365234375, 0, 
343, 2409558774, 71.19566345214844, -79.99964141845703, -26.53474998474121, 9.875696182250977, 1.6907999515533447, 0.4347161054611206, 2.043452501296997, -3.1402151584625244, 0.5942245721817017, -0.9033203125, 0.27197265625, 0.3671875, 0, 
344, 2409567107, 71.19482421875, -79.9986572265625, -26.53306770324707, 9.496665000915527, 1.9250457286834717, 0.6260544657707214, 1.9280474185943604, -3.220503091812134, 0.5127585530281067, -0.90380859375, 0.271484375, 0.3671875, 0, 
345, 2409575440, 71.19691467285156, -79.99920654296875, -26.535999298095703, 9.403382301330566, 1.7170333862304688, 0.6804662942886353, 1.744252324104309, -3.368617057800293, 0.6389469504356384, -0.90380859375, 0.27001953125, 0.369140625, 0, 
346, 2409583773, 71.20753479003906, -80.00031280517578, -26.547229766845703, 9.479121208190918, 1.543394923210144, 0.6705278158187866, 1.7801892757415771, -3.5581374168395996, 0.6698634028434753, -0.904296875, 0.27001953125, 0.3671875, 0, 
347, 2409592106, 71.20954132080078, -80.0009994506836, -26.549705505371094, 9.934861183166504, 1.3739262819290161, 0.497271329164505, 1.785235047340393, -3.3679256439208984, 0.6675580739974976, -0.904296875, 0.27099609375, 0.36767578125, 0, 
348, 2409600439, 71.21305847167969, -80.0003890991211, -26.551668167114258, 10.089604377746582, 1.5139398574829102, 0.4457632303237915, 2.023293972015381, -3.304633140563965, 0.5249636769294739, -0.904296875, 0.27099609375, 0.37158203125, 0, 
349, 2409608772, 71.20274353027344, -79.99956512451172, -26.540098190307617, 9.716291427612305, 1.919944167137146, 0.4650217592716217, 1.9704773426055908, -3.0308427810668945, 0.5892298817634583, -0.90283203125, 0.27294921875, 0.37060546875, 0, 
350, 2409617105, 71.19740295410156, -80.00022888183594, -26.537364959716797, 9.379597663879395, 1.7889381647109985, 0.7223125696182251, 1.7612860202789307, -3.2204906940460205, 0.7118964195251465, -0.904296875, 0.26953125, 0.3701171875, 0, 
351, 2409625438, 71.202392578125, -80.0015869140625, -26.543556213378906, 9.463763236999512, 1.5982598066329956, 0.706466794013977, 1.7029879093170166, -3.4670019149780273, 0.7163020372390747, -0.904296875, 0.26904296875, 0.36962890625, 0, 
352, 2409633771, 71.21102142333984, -80.00251007080078, -26.548824310302734, 9.861800193786621, 1.3807581663131714, 0.4944150447845459, 1.7742979526519775, -3.511212110519409, 0.6593872308731079, -0.9052734375, 0.27001953125, 0.3740234375, 0, 
353, 2409642104, 71.21710968017578, -80.002197265625, -26.55475425720215, 10.069021224975586, 1.42963707447052, 0.40298742055892944, 1.86366605758667, -3.395768642425537, 0.527832567691803, -0.9013671875, 0.2705078125, 0.37158203125, 0, 
354, 2409650437, 71.20476531982422, -80.00182342529297, -26.540321350097656, 9.837284088134766, 1.7765767574310303, 0.3951791226863861, 2.013458013534546, -2.997749090194702, 0.6605654954910278, -0.90478515625, 0.27099609375, 0.37060546875, 0, 
355, 2409658770, 71.19446563720703, -80.00203704833984, -26.529727935791016, 9.42836856842041, 1.8634406328201294, 0.6715952157974243, 1.858414888381958, -3.0882441997528076, 0.7002163529396057, -0.90283203125, 0.27099609375, 0.373046875, 0, 
356, 2409667103, 71.20201110839844, -80.00208282470703, -26.53559684753418, 9.45403003692627, 1.7304078340530396, 0.6837207674980164, 1.7293705940246582, -3.4605724811553955, 0.5589025616645813, -0.9052734375, 0.271484375, 0.37060546875, 0, 
357, 2409675436, 71.21492004394531, -80.00382995605469, -26.54857635498047, 9.755589485168457, 1.521968126296997, 0.6225425601005554, 1.851115107536316, -3.6172807216644287, 0.7169680595397949, -0.9033203125, 0.27099609375, 0.3701171875, 0, 
358, 2409683769, 71.2168960571289, -80.0040054321289, -26.553434371948242, 10.090469360351562, 1.4219304323196411, 0.42373427748680115, 1.830136775970459, -3.334627151489258, 0.6049056053161621, -0.90380859375, 0.271484375, 0.37060546875, 0, 
359, 2409692102, 71.21146392822266, -80.0045394897461, -26.5472412109375, 9.999390602111816, 1.5922375917434692, 0.35983532667160034, 1.9158422946929932, -3.1918280124664307, 0.7123318314552307, -0.9052734375, 0.26708984375, 0.373046875, 0, 
360, 2409700435, 71.20393371582031, -80.00422668457031, -26.546072006225586, 9.56594181060791, 1.847749948501587, 0.489535391330719, 1.953264594078064, -3.1068146228790283, 0.6196082830429077, -0.90380859375, 0.271484375, 0.37109375, 0, 
361, 2409708768, 71.20417785644531, -80.00440216064453, -26.54715347290039, 9.380925178527832, 1.6981769800186157, 0.6931609511375427, 1.7337507009506226, -3.3226914405822754, 0.6313140988349915, -0.90576171875, 0.2724609375, 0.3740234375, 0, 
362, 2409717101, 71.21183013916016, -80.00526428222656, -26.55352210998535, 9.515789031982422, 1.6214723587036133, 0.6784238815307617, 1.7072402238845825, -3.4969704151153564, 0.6430709958076477, -0.9052734375, 0.27197265625, 0.3720703125, 0, 
363, 2409725434, 71.21649932861328, -80.0041275024414, -26.558547973632812, 10.020129203796387, 1.4076231718063354, 0.44024857878685, 1.8018333911895752, -3.3483564853668213, 0.4444069564342499, -0.9052734375, 0.27197265625, 0.37353515625, 0, 
364, 2409733767, 71.21336364746094, -80.00379180908203, -26.554391860961914, 10.146080017089844, 1.5329583883285522, 0.39499959349632263, 1.9277011156082153, -3.1984360218048096, 0.6042909026145935, -0.90234375, 0.26904296875, 0.3720703125, 0, 
365, 2409742100, 71.2046127319336, -80.0039291381836, -26.544313430786133, 9.734374046325684, 1.9493796825408936, 0.4627178907394409, 1.980262041091919, -3.094468355178833, 0.6808775067329407, -0.9013671875, 0.27197265625, 0.375, 0, 
366, 2409750433, 71.20160675048828, -80.00396728515625, -26.546932220458984, 9.354879379272461, 1.7897635698318481, 0.685461699962616, 1.7214045524597168, -3.253788948059082, 0.6326459646224976, -0.90380859375, 0.2705078125, 0.3740234375, 0, 
367, 2409758766, 71.21092987060547, -80.00428771972656, -26.557344436645508, 9.40636157989502, 1.5820392370224, 0.6732285022735596, 1.7193810939788818, -3.5100338459014893, 0.5746041536331177, -0.90283203125, 0.271484375, 0.37060546875, 0, 
368, 2409767099, 71.22098541259766, -80.00558471679688, -26.567548751831055, 9.808557510375977, 1.406786322593689, 0.5589960217475891, 1.8447884321212769, -3.541513681411743, 0.6885617971420288, -0.9033203125, 0.2705078125, 0.373046875, 0, 
369, 2409775432, 71.21939086914062, -80.00458526611328, -26.564884185791016, 10.147420883178711, 1.46500563621521, 0.4087677299976349, 1.9600780010223389, -3.2017664909362793, 0.511669933795929, -0.90234375, 0.271484375, 0.3720703125, 0, 
370, 2409783765, 71.2115707397461, -80.0040512084961, -26.556669235229492, 9.9495849609375, 1.6742061376571655, 0.41148316860198975, 1.9240131378173828, -3.095134735107422, 0.5983484983444214, -0.90283203125, 0.2705078125, 0.3740234375, 0, 
371, 2409792098, 71.2083969116211, -80.002197265625, -26.553438186645508, 9.488842010498047, 1.8546720743179321, 0.618735671043396, 1.8324166536331177, -3.1591954231262207, 0.42291662096977234, -0.90087890625, 0.2724609375, 0.37451171875, 0, 
372, 2409800431, 71.2020034790039, -80.00235748291016, -26.54322052001953, 9.370336532592773, 1.7986035346984863, 0.7526922225952148, 1.6818050146102905, -3.196617841720581, 0.663101315498352, -0.90380859375, 0.2705078125, 0.37255859375, 0, 
373, 2409808764, 71.21232604980469, -80.00259399414062, -26.55430030822754, 9.553818702697754, 1.5329828262329102, 0.6246067881584167, 1.7621822357177734, -3.5188446044921875, 0.5589025616645813, -0.90380859375, 0.27001953125, 0.3720703125, 0, 
374, 2409817097, 71.21280670166016, -80.0024185180664, -26.55475425720215, 9.997077941894531, 1.3717819452285767, 0.40251481533050537, 1.898552656173706, -3.2808632850646973, 0.5872063636779785, -0.90283203125, 0.2724609375, 0.37255859375, 0, 
375, 2409825430, 71.20806121826172, -80.00056457519531, -26.549442291259766, 9.971217155456543, 1.5245198011398315, 0.44497600197792053, 1.8931993246078491, -3.118929862976074, 0.4415125548839569, -0.90380859375, 0.271484375, 0.3720703125, 0, 
376, 2409833763, 71.20586395263672, -79.99879455566406, -26.547100067138672, 9.629742622375488, 1.8814810514450073, 0.4999644160270691, 1.8645625114440918, -3.1711318492889404, 0.4125940501689911, -0.904296875, 0.26953125, 0.373046875, 0, 
377, 2409842096, 71.201416015625, -79.99910736083984, -26.543886184692383, 9.391622543334961, 1.7686867713928223, 0.690684974193573, 1.6776043176651, -3.2415449619293213, 0.6671995520591736, -0.90283203125, 0.2685546875, 0.373046875, 0, 
378, 2409850429, 71.20281219482422, -79.99887084960938, -26.549989700317383, 9.466389656066895, 1.5752720832824707, 0.7274084687232971, 1.7602611780166626, -3.3203086853027344, 0.5682773590087891, -0.904296875, 0.26953125, 0.37353515625, 0, 
379, 2409858762, 71.21234130859375, -79.99905395507812, -26.55927276611328, 9.933455467224121, 1.4122281074523926, 0.5022048950195312, 1.8823388814926147, -3.4822421073913574, 0.5645633339881897, -0.90380859375, 0.26953125, 0.37109375, 0, 
380, 2409867095, 71.21195983886719, -79.99839782714844, -26.55891227722168, 10.06385326385498, 1.4874327182769775, 0.353446364402771, 1.8375650644302368, -3.25811767578125, 0.5362852215766907, -0.90234375, 0.271484375, 0.3720703125, 0, 
381, 2409875428, 71.19898223876953, -79.99799346923828, -26.544843673706055, 9.73831844329834, 1.7964866161346436, 0.4617360532283783, 1.9445559978485107, -2.9944965839385986, 0.6467594504356384, -0.9033203125, 0.2724609375, 0.37353515625, 0, 
382, 2409883761, 71.1990737915039, -79.99777221679688, -26.543649673461914, 9.3523588180542, 1.8019049167633057, 0.7062994241714478, 1.947680950164795, -3.2660584449768066, 0.5947625041007996, -0.90234375, 0.27197265625, 0.37158203125, 0, 
383, 2409892094, 71.20047760009766, -79.99859619140625, -26.54536247253418, 9.39979362487793, 1.6833972930908203, 0.6445658802986145, 1.8028067350387573, -3.356194496154785, 0.6839768886566162, -0.904296875, 0.26953125, 0.375, 0, 
384, 2409900427, 71.21055603027344, -79.99954223632812, -26.553607940673828, 9.743701934814453, 1.5139507055282593, 0.6147223114967346, 1.7859524488449097, -3.5396692752838135, 0.651344358921051, -0.900390625, 0.27001953125, 0.3818359375, 0, 
385, 2409908760, 71.2122802734375, -79.99901580810547, -26.556154251098633, 10.143394470214844, 1.4413752555847168, 0.4425349533557892, 1.7467114925384521, -3.3206162452697754, 0.5222998261451721, -0.9013671875, 0.27099609375, 0.3837890625, 0, 
386, 2409917093, 71.19380187988281, -79.99905395507812, -26.547258377075195, 10.008453369140625, 1.6875910758972168, 0.40052005648612976, 1.8957608938217163, -2.909482717514038, 0.7487297654151917, -0.8984375, 0.2705078125, 0.38427734375, 0, 
387, 2409925426, 71.1784439086914, -79.99893188476562, -26.53168487548828, 9.492369651794434, 1.8485790491104126, 0.5403797626495361, 1.8252451419830322, -2.98161244392395, 0.7034950256347656, -0.89892578125, 0.27099609375, 0.3857421875, 0, 
388, 2409933759, 71.17791748046875, -79.9992904663086, -26.53203773498535, 9.379586219787598, 1.650612235069275, 0.7130511999130249, 1.7381563186645508, -3.310012102127075, 0.6400741338729858, -0.90234375, 0.2685546875, 0.38623046875, 0, 
389, 2409942092, 71.18582916259766, -80.00005340576172, -26.5412654876709, 9.52707290649414, 1.5910264253616333, 0.6970661282539368, 1.6932801008224487, -3.504040002822876, 0.6300333142280579, -0.8994140625, 0.271484375, 0.38671875, 0, 
390, 2409950425, 71.1954574584961, -80.00101470947266, -26.550987243652344, 9.989055633544922, 1.4379901885986328, 0.44341352581977844, 1.8440966606140137, -3.5200998783111572, 0.6530348062515259, -0.8994140625, 0.27197265625, 0.3828125, 0, 
391, 2409958758, 71.19294738769531, -80.00106048583984, -26.54779052734375, 10.117921829223633, 1.5159138441085815, 0.3927941918373108, 1.9056990146636963, -3.2305827140808105, 0.6341571807861328, -0.900390625, 0.271484375, 0.38720703125, 0, 
392, 2409967091, 71.18199157714844, -79.99956512451172, -26.535619735717773, 9.729351043701172, 1.894626259803772, 0.41935837268829346, 1.9644838571548462, -2.990679979324341, 0.514103353023529, -0.900390625, 0.27099609375, 0.38525390625, 0, 
393, 2409975424, 71.17750549316406, -80.00007629394531, -26.532438278198242, 9.377997398376465, 1.8599189519882202, 0.7414339184761047, 1.6677170991897583, -3.2516884803771973, 0.6966047286987305, -0.90087890625, 0.267578125, 0.38427734375, 0, 
394, 2409983757, 71.18424224853516, -80.00092315673828, -26.53993797302246, 9.469905853271484, 1.658914566040039, 0.6504783034324646, 1.7601333856582642, -3.47084379196167, 0.6496025919914246, -0.9033203125, 0.271484375, 0.38427734375, 0, 
395, 2409992090, 71.19066619873047, -80.0015869140625, -26.54659652709961, 9.881519317626953, 1.4037519693374634, 0.5387150049209595, 1.8229138851165771, -3.4487900733947754, 0.6342852711677551, -0.90283203125, 0.2685546875, 0.38427734375, 0, 
396, 2410000423, 71.19056701660156, -80.00121307373047, -26.54603385925293, 10.08500862121582, 1.4395798444747925, 0.4264741837978363, 1.8913037776947021, -3.263317346572876, 0.5685335397720337, -0.8994140625, 0.26953125, 0.3857421875, 0, 
397, 2410008756, 71.18164825439453, -80.00101470947266, -26.53536033630371, 9.903630256652832, 1.724549651145935, 0.44174522161483765, 2.025855302810669, -3.0743863582611084, 0.6589004993438721, -0.8994140625, 0.271484375, 0.38525390625, 0, 
398, 2410017089, 71.17401123046875, -79.99934387207031, -26.527496337890625, 9.500822067260742, 1.8579853773117065, 0.6513247489929199, 1.8476829528808594, -3.071671962738037, 0.4765528738498688, -0.89990234375, 0.27099609375, 0.3818359375, 0, 
399, 2410025422, 71.17896270751953, -79.99980163574219, -26.53290557861328, 9.414259910583496, 1.7739734649658203, 0.7025895118713379, 1.798529028892517, -3.415158748626709, 0.6109507083892822, -0.89892578125, 0.2685546875, 0.3876953125, 0, 
400, 2410033755, 71.18931579589844, -80.00076293945312, -26.544198989868164, 9.659027099609375, 1.5505157709121704, 0.6601061820983887, 1.7371829748153687, -3.551656723022461, 0.6491928100585938, -0.90283203125, 0.27099609375, 0.38720703125, 0, 
401, 2410042088, 71.19112396240234, -79.9998779296875, -26.5468692779541, 10.089032173156738, 1.3953065872192383, 0.4319281578063965, 1.7371571063995361, -3.308654308319092, 0.48257213830947876, -0.89892578125, 0.27099609375, 0.38427734375, 0, 
402, 2410050421, 71.18505859375, -79.99971771240234, -26.539783477783203, 10.000326156616211, 1.6197727918624878, 0.4298587143421173, 1.9474502801895142, -3.1459784507751465, 0.6453250050544739, -0.89990234375, 0.26806640625, 0.38623046875, 0, 
403, 2410058754, 71.1761703491211, -79.99938201904297, -26.53013801574707, 9.578760147094727, 1.8624933958053589, 0.4689781963825226, 1.9036242961883545, -3.090216636657715, 0.6369491815567017, -0.89990234375, 0.27001953125, 0.3857421875, 0, 
404, 2410067087, 71.1766586303711, -79.99919128417969, -26.531246185302734, 9.356735229492188, 1.670169472694397, 0.6975818276405334, 1.7692008018493652, -3.303992748260498, 0.5764995813369751, -0.8994140625, 0.27197265625, 0.3837890625, 0, 
405, 2410075420, 71.18830108642578, -79.99890899658203, -26.543209075927734, 9.481858253479004, 1.6135125160217285, 0.7197772264480591, 1.814691424369812, -3.5182809829711914, 0.49560973048210144, -0.8994140625, 0.27197265625, 0.38525390625, 0, 
406, 2410083753, 71.19522857666016, -79.99903106689453, -26.551464080810547, 10.005573272705078, 1.468061089515686, 0.49213773012161255, 1.696071982383728, -3.456422805786133, 0.5624629259109497, -0.900390625, 0.26953125, 0.38623046875, 0, 
407, 2410092086, 71.19987487792969, -79.99873352050781, -26.555145263671875, 10.144536972045898, 1.4970790147781372, 0.43199479579925537, 1.9568507671356201, -3.3524293899536133, 0.5472224950790405, -0.900390625, 0.271484375, 0.38427734375, 0, 
408, 2410100419, 71.19271850585938, -79.9979476928711, -26.547452926635742, 9.749748229980469, 1.8278985023498535, 0.42747804522514343, 1.8824925422668457, -3.110426187515259, 0.5731697678565979, -0.89794921875, 0.2724609375, 0.38671875, 0, 
409, 2410108752, 71.1902847290039, -79.9981460571289, -26.54524803161621, 9.330994606018066, 1.8007086515426636, 0.6736274361610413, 1.8065462112426758, -3.2562735080718994, 0.644633412361145, -0.9013671875, 0.27001953125, 0.38427734375, 0, 
410, 2410117085, 71.19477844238281, -79.99864196777344, -26.550376892089844, 9.368038177490234, 1.642910361289978, 0.6921437978744507, 1.7726842164993286, -3.4095747470855713, 0.6269596219062805, -0.89990234375, 0.27099609375, 0.3857421875, 0, 
411, 2410125418, 71.20767974853516, -79.99974060058594, -26.563522338867188, 9.72065258026123, 1.4697977304458618, 0.5842105746269226, 1.8304188251495361, -3.59320330619812, 0.6455811858177185, -0.8984375, 0.2705078125, 0.38525390625, 0, 
412, 2410133751, 71.21381378173828, -80.00005340576172, -26.569549560546875, 10.122186660766602, 1.4302502870559692, 0.43264883756637573, 1.8601570129394531, -3.4222793579101562, 0.6022162437438965, -0.89892578125, 0.27099609375, 0.38671875, 0, 
413, 2410142084, 71.20709228515625, -79.99944305419922, -26.562335968017578, 9.996353149414062, 1.6324080228805542, 0.363271027803421, 1.877395510673523, -3.127382755279541, 0.5919961929321289, -0.8984375, 0.26953125, 0.3876953125, 0, 
414, 2410150417, 71.19961547851562, -79.99839782714844, -26.555225372314453, 9.510950088500977, 1.871024489402771, 0.5252874493598938, 1.7797540426254272, -3.10786509513855, 0.5345178842544556, -0.9013671875, 0.27197265625, 0.38525390625, 0, 
415, 2410158750, 71.19828033447266, -79.9993667602539, -26.55414390563965, 9.370275497436523, 1.7213313579559326, 0.742815375328064, 1.8067255020141602, -3.3090901374816895, 0.7201697826385498, -0.89892578125, 0.26953125, 0.38671875, 0, 
416, 2410167083, 71.20880889892578, -80.00017547607422, -26.565526962280273, 9.555464744567871, 1.5281383991241455, 0.6572968363761902, 1.7467883825302124, -3.548506259918213, 0.6316726207733154, -0.9013671875, 0.271484375, 0.3828125, 0, 
417, 2410175416, 71.21387481689453, -80.00052642822266, -26.57111358642578, 10.042631149291992, 1.4410830736160278, 0.3815954029560089, 1.791946291923523, -3.414339065551758, 0.5983484983444214, -0.900390625, 0.26953125, 0.384765625, 0, 
418, 2410183749, 71.20860290527344, -80.00022888183594, -26.56489372253418, 10.069707870483398, 1.5563629865646362, 0.39695197343826294, 1.938562035560608, -3.154841184616089, 0.6168419718742371, -0.89892578125, 0.27294921875, 0.38671875, 0, 
419, 2410192082, 71.19793701171875, -79.99889373779297, -26.553546905517578, 9.654321670532227, 1.8704952001571655, 0.4507039487361908, 1.891764760017395, -3.0183684825897217, 0.5373353958129883, -0.90283203125, 0.2705078125, 0.38671875, 0, 
420, 2410200415, 71.19367218017578, -79.99932861328125, -26.549312591552734, 9.33961009979248, 1.776312232017517, 0.6987269520759583, 1.8248093128204346, -3.223461627960205, 0.6889972686767578, -0.90185546875, 0.27197265625, 0.38671875, 0, 
421, 2410208748, 71.19963073730469, -79.9998779296875, -26.55593490600586, 9.473418235778809, 1.6547397375106812, 0.686410129070282, 1.7680222988128662, -3.4423348903656006, 0.6177896857261658, -0.900390625, 0.2705078125, 0.38671875, 0, 
422, 2410217081, 71.20494842529297, -80.00127410888672, -26.561573028564453, 9.96108627319336, 1.431857705116272, 0.5291685461997986, 1.8109773397445679, -3.456346035003662, 0.7296213507652283, -0.8974609375, 0.27001953125, 0.38525390625, 0, 
423, 2410225414, 71.19903564453125, -80.00047302246094, -26.555713653564453, 10.115585327148438, 1.4710423946380615, 0.3602480888366699, 1.8206084966659546, -3.1434171199798584, 0.5499888062477112, -0.8984375, 0.2705078125, 0.384765625, 0, 
424, 2410233747, 71.18767547607422, -80.00060272216797, -26.543855667114258, 9.840912818908691, 1.7419712543487549, 0.4098146855831146, 1.867072582244873, -3.064115285873413, 0.7126647233963013, -0.89794921875, 0.27001953125, 0.38720703125, 0, 
425, 2410242080, 71.18012237548828, -79.99986267089844, -26.536399841308594, 9.405308723449707, 1.7173181772232056, 0.6607357859611511, 1.8139744997024536, -3.1142168045043945, 0.5606955885887146, -0.89794921875, 0.2705078125, 0.384765625, 0, 
426, 2410250413, 71.18085479736328, -79.99884796142578, -26.537158966064453, 9.41124439239502, 1.6695183515548706, 0.6534402370452881, 1.8303419351577759, -3.2684147357940674, 0.4957123100757599, -0.8984375, 0.271484375, 0.38330078125, 0, 
427, 2410258746, 71.18630981445312, -79.99887084960938, -26.543352127075195, 9.741690635681152, 1.5700712203979492, 0.6594539284706116, 1.7615420818328857, -3.416516065597534, 0.5696093440055847, -0.89892578125, 0.27001953125, 0.38232421875, 0, 
428, 2410267079, 71.19031524658203, -79.99781036376953, -26.547138214111328, 10.159272193908691, 1.453043818473816, 0.4352635443210602, 1.8689935207366943, -3.32307505607605, 0.4586484432220459, -0.89990234375, 0.271484375, 0.38427734375, 0, 
429, 2410275412, 71.1741943359375, -79.9970474243164, -26.530323028564453, 9.989215850830078, 1.6596782207489014, 0.37925198674201965, 1.8870006799697876, -2.93005108833313, 0.6354379653930664, -0.8994140625, 0.26953125, 0.38525390625, 0, 
430, 2410283745, 71.16213989257812, -79.99543762207031, -26.51724624633789, 9.480121612548828, 1.931154489517212, 0.541609525680542, 1.9411747455596924, -2.969727039337158, 0.5109783411026001, -0.9013671875, 0.27099609375, 0.3857421875, 0, 
431, 2410292078, 71.16139221191406, -79.995849609375, -26.516937255859375, 9.318699836730957, 1.6474759578704834, 0.7368171215057373, 1.7759884595870972, -3.3023791313171387, 0.659925103187561, -0.90087890625, 0.27099609375, 0.384765625, 0, 
432, 2410300411, 71.16968536376953, -79.99541473388672, -26.52606201171875, 9.543878555297852, 1.4758226871490479, 0.6737992763519287, 1.7519878149032593, -3.4533233642578125, 0.49847859144210815, -0.8994140625, 0.27197265625, 0.38720703125, 0, 
433, 2410308744, 71.1746597290039, -79.99547576904297, -26.531328201293945, 10.049955368041992, 1.4519695043563843, 0.47093620896339417, 1.810644268989563, -3.3991236686706543, 0.5773192048072815, -0.89990234375, 0.2724609375, 0.38623046875, 0, 
434, 2410317077, 71.17564392089844, -79.9947280883789, -26.531831741333008, 10.11315631866455, 1.5098681449890137, 0.41425561904907227, 1.8960423469543457, -3.271693468093872, 0.5184064507484436, -0.90185546875, 0.27197265625, 0.3857421875, 0, 
435, 2410325410, 71.16182708740234, -79.99307250976562, -26.515758514404297, 9.726258277893066, 1.7684197425842285, 0.4342031478881836, 2.0797736644744873, -2.9097132682800293, 0.5250918865203857, -0.90185546875, 0.2685546875, 0.38720703125, 0, 
436, 2410333743, 71.15937805175781, -79.99264526367188, -26.51316261291504, 9.335952758789062, 1.8311212062835693, 0.7897589206695557, 1.8451980352401733, -3.2248189449310303, 0.5780619978904724, -0.90185546875, 0.2705078125, 0.37548828125, 0, 
437, 2410342076, 71.16608428955078, -79.99232482910156, -26.520992279052734, 9.380061149597168, 1.7467613220214844, 0.6298620700836182, 1.7119271755218506, -3.4346251487731934, 0.5230681896209717, -0.90283203125, 0.2724609375, 0.365234375, 0, 
438, 2410350409, 71.17583465576172, -79.99346923828125, -26.531282424926758, 9.874470710754395, 1.4129126071929932, 0.5308038592338562, 1.7961980104446411, -3.535519599914551, 0.6626145243644714, -0.9052734375, 0.27001953125, 0.37060546875, 0, 
439, 2410358742, 71.1863021850586, -79.99183654785156, -26.540918350219727, 10.063000679016113, 1.4394497871398926, 0.4690375328063965, 1.949883222579956, -3.420537233352661, 0.3569086790084839, -0.90576171875, 0.2724609375, 0.36767578125, 0, 
440, 2410367075, 71.17729187011719, -79.99166107177734, -26.531124114990234, 9.805794715881348, 1.7536405324935913, 0.4171135723590851, 1.9164313077926636, -3.0897297859191895, 0.6541106104850769, -0.904296875, 0.271484375, 0.37060546875, 0, 
441, 2410375408, 71.17433166503906, -79.99154663085938, -26.527402877807617, 9.47552490234375, 1.8122167587280273, 0.628690779209137, 1.9184547662734985, -3.213728189468384, 0.6206328272819519, -0.90478515625, 0.2705078125, 0.37109375, 0, 
442, 2410383741, 71.17904663085938, -79.9922866821289, -26.533384323120117, 9.392707824707031, 1.6617958545684814, 0.7398800253868103, 1.6928447484970093, -3.43710994720459, 0.6516516804695129, -0.90478515625, 0.27294921875, 0.3681640625, 0, 
443, 2410392074, 71.19216918945312, -79.99275970458984, -26.54764747619629, 9.648181915283203, 1.503764271736145, 0.6427950263023376, 1.725221037864685, -3.5918455123901367, 0.564102292060852, -0.9052734375, 0.2724609375, 0.37109375, 0, 
444, 2410400407, 71.19310760498047, -79.9933853149414, -26.549232482910156, 10.091025352478027, 1.440004587173462, 0.4080475866794586, 1.7583144903182983, -3.3479208946228027, 0.673500657081604, -0.90283203125, 0.26953125, 0.3720703125, 0, 
445, 2410408740, 71.18840789794922, -79.99319458007812, -26.543149948120117, 9.99195671081543, 1.5773941278457642, 0.43232476711273193, 1.9905589818954468, -3.163677930831909, 0.6218111515045166, -0.9033203125, 0.27197265625, 0.373046875, 0, 
446, 2410417073, 71.18236541748047, -79.99270629882812, -26.535850524902344, 9.466297149658203, 1.8643099069595337, 0.5176916718482971, 1.9823881387710571, -3.1235406398773193, 0.6006538271903992, -0.904296875, 0.27197265625, 0.37109375, 0, 
447, 2410425406, 71.18352508544922, -79.99270629882812, -26.537296295166016, 9.329818725585938, 1.7327967882156372, 0.7691195011138916, 1.8016541004180908, -3.3220510482788086, 0.5970165729522705, -0.90380859375, 0.27197265625, 0.3720703125, 0, 
448, 2410433739, 71.19903564453125, -79.99405670166016, -26.552658081054688, 9.521622657775879, 1.6682426929473877, 0.6605730652809143, 1.828446626663208, -3.6551382541656494, 0.6518054008483887, -0.90380859375, 0.271484375, 0.373046875, 0, 
449, 2410442072, 71.20364379882812, -79.99515533447266, -26.5572566986084, 10.017044067382812, 1.4779213666915894, 0.4514041841030121, 1.8445067405700684, -3.422945261001587, 0.6991149187088013, -0.90380859375, 0.271484375, 0.373046875, 0, 
450, 2410450405, 71.20761108398438, -79.99439239501953, -26.561199188232422, 10.141556739807129, 1.5059088468551636, 0.4674506187438965, 1.8490656614303589, -3.338956117630005, 0.4941241145133972, -0.90478515625, 0.2734375, 0.3740234375, 0, 
451, 2410458738, 71.19705963134766, -79.99395751953125, -26.550182342529297, 9.756869316101074, 1.8481472730636597, 0.38754773139953613, 1.8642040491104126, -3.0600688457489014, 0.6389214992523193, -0.90234375, 0.26904296875, 0.37255859375, 0, 
452, 2410467071, 71.19355773925781, -79.99433898925781, -26.54983901977539, 9.376317024230957, 1.7577288150787354, 0.6512354016304016, 1.7520649433135986, -3.2470011711120605, 0.6648175120353699, -0.90283203125, 0.2734375, 0.375, 0, 
453, 2410475404, 71.20055389404297, -79.99527740478516, -26.556806564331055, 9.428863525390625, 1.5919575691223145, 0.7333554625511169, 1.8512943983078003, -3.4661309719085693, 0.6649454236030579, -0.9033203125, 0.2744140625, 0.3720703125, 0, 
454, 2410483737, 71.21501922607422, -79.996337890625, -26.576553344726562, 9.788111686706543, 1.459862470626831, 0.5809076428413391, 1.911692500114441, -3.6085455417633057, 0.638127326965332, -0.90234375, 0.27001953125, 0.37451171875, 0, 
455, 2410492070, 71.21934509277344, -79.99549102783203, -26.58036231994629, 10.104531288146973, 1.4398993253707886, 0.3481655716896057, 1.9064671993255615, -3.334550380706787, 0.48518478870391846, -0.90478515625, 0.27001953125, 0.3740234375, 0, 
456, 2410500403, 71.2095718383789, -79.99533081054688, -26.566904067993164, 9.980691909790039, 1.6729328632354736, 0.3665519654750824, 2.0770070552825928, -3.0486700534820557, 0.6697097420692444, -0.90234375, 0.2705078125, 0.375, 0, 
457, 2410508736, 71.20342254638672, -79.99425506591797, -26.56012725830078, 9.436567306518555, 1.9355220794677734, 0.6194655895233154, 1.8977841138839722, -3.115215539932251, 0.5301889777183533, -0.9033203125, 0.27294921875, 0.37158203125, 0, 
458, 2410517069, 71.20270538330078, -79.99468231201172, -26.558679580688477, 9.355433464050293, 1.7474411725997925, 0.7443423271179199, 1.7247600555419922, -3.312983512878418, 0.6538801789283752, -0.90234375, 0.26806640625, 0.37451171875, 0, 
459, 2410525402, 71.21678924560547, -79.99602508544922, -26.573665618896484, 9.677629470825195, 1.4613239765167236, 0.6362753510475159, 1.755676507949829, -3.637720823287964, 0.651933491230011, -0.90478515625, 0.2705078125, 0.373046875, 0, 
460, 2410533735, 71.21705627441406, -79.9958267211914, -26.573673248291016, 10.044279098510742, 1.3978478908538818, 0.3346715271472931, 1.8039336204528809, -3.2944130897521973, 0.5915863513946533, -0.90380859375, 0.27197265625, 0.376953125, 0, 
461, 2410542068, 71.21696472167969, -79.99507904052734, -26.572532653808594, 10.003114700317383, 1.6209766864776611, 0.4129151403903961, 1.955570101737976, -3.242211103439331, 0.5323406457901001, -0.90087890625, 0.26904296875, 0.37451171875, 0, 
462, 2410550401, 71.21514129638672, -79.9945297241211, -26.567991256713867, 9.627717018127441, 1.8736544847488403, 0.4994718134403229, 1.901318907737732, -3.2225396633148193, 0.5535492300987244, -0.90234375, 0.271484375, 0.37548828125, 0, 
463, 2410558734, 71.21195983886719, -79.99476623535156, -26.565473556518555, 9.376755714416504, 1.7220518589019775, 0.7240333557128906, 1.7547285556793213, -3.2518162727355957, 0.649602472782135, -0.90283203125, 0.27294921875, 0.373046875, 0, 
464, 2410567067, 71.22003936767578, -79.99519348144531, -26.5718994140625, 9.465344429016113, 1.641004204750061, 0.680180013179779, 1.7417677640914917, -3.4839324951171875, 0.5948905348777771, -0.90625, 0.27392578125, 0.37451171875, 0, 
465, 2410575400, 71.2223129272461, -79.99535369873047, -26.57424545288086, 10.0092191696167, 1.408919334411621, 0.524476945400238, 1.8263972997665405, -3.346973419189453, 0.613896369934082, -0.90087890625, 0.26904296875, 0.3740234375, 0, 
466, 2410583733, 71.21961975097656, -79.9946517944336, -26.5645694732666, 10.122170448303223, 1.4962981939315796, 0.3735171854496002, 1.9299556016921997, -3.1912388801574707, 0.550834059715271, -0.90087890625, 0.27197265625, 0.3740234375, 0, 
467, 2410592066, 71.20632934570312, -79.99335479736328, -26.550683975219727, 9.72607707977295, 1.8391472101211548, 0.3918268382549286, 1.8810838460922241, -2.9673707485198975, 0.5515769720077515, -0.9033203125, 0.27392578125, 0.375, 0, 
468, 2410600399, 71.20418548583984, -79.99378204345703, -26.549312591552734, 9.34106159210205, 1.7185028791427612, 0.7502753138542175, 1.814589023590088, -3.2662370204925537, 0.6708367466926575, -0.90185546875, 0.271484375, 0.37548828125, 0, 
469, 2410608732, 71.2127456665039, -79.99307250976562, -26.559144973754883, 9.393059730529785, 1.609026551246643, 0.7059532999992371, 1.701271653175354, -3.461596965789795, 0.46279793977737427, -0.90283203125, 0.2724609375, 0.37451171875, 0, 
470, 2410617065, 71.22370910644531, -79.9941177368164, -26.573495864868164, 9.849184036254883, 1.5123711824417114, 0.5883171558380127, 1.7416141033172607, -3.5642588138580322, 0.6450944542884827, -0.90380859375, 0.2705078125, 0.37744140625, 0, 
471, 2410625398, 71.22842407226562, -79.99358367919922, -26.578474044799805, 10.166404724121094, 1.5000388622283936, 0.4041982591152191, 1.8147683143615723, -3.369744062423706, 0.5138214826583862, -0.90234375, 0.27099609375, 0.37451171875, 0, 
472, 2410633731, 71.2169189453125, -79.9935073852539, -26.56632423400879, 9.931380271911621, 1.6691312789916992, 0.4028255045413971, 1.9756512641906738, -3.0324816703796387, 0.6863589286804199, -0.90234375, 0.27197265625, 0.37158203125, 0, 
473, 2410642064, 71.20460510253906, -79.99360656738281, -26.553674697875977, 9.377610206604004, 1.9218077659606934, 0.5954244136810303, 1.8494246006011963, -3.0476458072662354, 0.7011640667915344, -0.90234375, 0.27294921875, 0.37353515625, 0, 
474, 2410650397, 71.20282745361328, -79.99417877197266, -26.552736282348633, 9.334248542785645, 1.6669280529022217, 0.693135678768158, 1.689335584640503, -3.302276849746704, 0.6830035448074341, -0.9033203125, 0.27099609375, 0.375, 0, 
475, 2410658730, 71.21630096435547, -79.99580383300781, -26.5667724609375, 9.613251686096191, 1.5094494819641113, 0.6811666488647461, 1.797837257385254, -3.6297285556793213, 0.6918148398399353, -0.90234375, 0.26953125, 0.37646484375, 0, 
476, 2410667063, 71.21863555908203, -79.99568939208984, -26.571048736572266, 10.068893432617188, 1.5027809143066406, 0.38196614384651184, 1.793969750404358, -3.340134620666504, 0.5817248821258545, -0.9052734375, 0.2724609375, 0.37548828125, 0, 
477, 2410675396, 71.21221160888672, -79.9957275390625, -26.564172744750977, 10.082525253295898, 1.5429761409759521, 0.43691930174827576, 1.8779332637786865, -3.1575820446014404, 0.6593104600906372, -0.9033203125, 0.2705078125, 0.3779296875, 0, 
478, 2410683729, 71.20701599121094, -79.99507904052734, -26.552242279052734, 9.648650169372559, 1.8047878742218018, 0.4390706717967987, 1.8743215799331665, -3.15338134765625, 0.577831506729126, -0.900390625, 0.2705078125, 0.3740234375, 0, 
479, 2410692062, 71.20278930664062, -79.99530029296875, -26.5484676361084, 9.334138870239258, 1.7650490999221802, 0.7398082613945007, 1.7750407457351685, -3.2259461879730225, 0.6521127820014954, -0.9052734375, 0.26953125, 0.37353515625, 0, 
480, 2410700395, 71.213134765625, -79.99515533447266, -26.555007934570312, 9.451391220092773, 1.6329034566879272, 0.6609017848968506, 1.8140002489089966, -3.4975082874298096, 0.5229402184486389, -0.90478515625, 0.27099609375, 0.37548828125, 0, 
481, 2410708728, 71.21504211425781, -79.99578857421875, -26.55741310119629, 9.97601318359375, 1.4221220016479492, 0.45210403203964233, 1.7837495803833008, -3.362316370010376, 0.6540338397026062, -0.89990234375, 0.271484375, 0.38330078125, 0, 
482, 2410717061, 71.2169189453125, -79.99495697021484, -26.55938148498535, 10.104840278625488, 1.4863896369934082, 0.366371750831604, 1.9242438077926636, -3.280888795852661, 0.5018340349197388, -0.9013671875, 0.27294921875, 0.38720703125, 0, 
483, 2410725394, 71.21267700195312, -79.99445343017578, -26.55457878112793, 9.751969337463379, 1.8031448125839233, 0.42470741271972656, 1.8938908576965332, -3.1785855293273926, 0.5868733525276184, -0.89892578125, 0.27197265625, 0.38818359375, 0, 
484, 2410733727, 71.2108154296875, -79.9939193725586, -26.552719116210938, 9.353819847106934, 1.7774149179458618, 0.6708042025566101, 1.8357465267181396, -3.2326571941375732, 0.5568534135818481, -0.90185546875, 0.2705078125, 0.38671875, 0, 
485, 2410742060, 71.21357727050781, -79.99335479736328, -26.55654525756836, 9.385491371154785, 1.6719931364059448, 0.6997478604316711, 1.7135666608810425, -3.345590114593506, 0.5184064507484436, -0.8994140625, 0.2705078125, 0.38623046875, 0, 
486, 2410750393, 71.22852325439453, -79.9933853149414, -26.571346282958984, 9.791372299194336, 1.51595938205719, 0.6273476481437683, 1.877241611480713, -3.5846993923187256, 0.5163317322731018, -0.90185546875, 0.27001953125, 0.38623046875, 0, 
487, 2410758726, 71.22825622558594, -79.99295806884766, -26.571144104003906, 10.167376518249512, 1.4647116661071777, 0.3535563051700592, 1.8306235074996948, -3.271692991256714, 0.5536003708839417, -0.8984375, 0.26904296875, 0.390625, 0, 
488, 2410767059, 71.21257019042969, -79.99252319335938, -26.554317474365234, 9.971630096435547, 1.6142103672027588, 0.3989984095096588, 1.9380501508712769, -2.940476179122925, 0.6745509505271912, -0.900390625, 0.27197265625, 0.3857421875, 0, 
489, 2410775392, 71.21155548095703, -79.99189758300781, -26.55274772644043, 9.385404586791992, 1.796199083328247, 0.6104675531387329, 1.899449348449707, -3.236806869506836, 0.544558584690094, -0.8974609375, 0.271484375, 0.388671875, 0, 
490, 2410783725, 71.21492767333984, -79.99140930175781, -26.556547164916992, 9.338274955749512, 1.6641401052474976, 0.7382758259773254, 1.789025902748108, -3.3468196392059326, 0.5317002534866333, -0.90087890625, 0.271484375, 0.3837890625, 0, 
491, 2410792058, 71.22901153564453, -79.99166107177734, -26.570615768432617, 9.577197074890137, 1.5969693660736084, 0.692737340927124, 1.8632816076278687, -3.581061840057373, 0.5425350666046143, -0.8994140625, 0.27197265625, 0.38623046875, 0, 
492, 2410800391, 71.23751831054688, -79.99237060546875, -26.578929901123047, 10.11235523223877, 1.4932368993759155, 0.4298844039440155, 1.8766010999679565, -3.482293128967285, 0.6319798827171326, -0.89892578125, 0.27001953125, 0.38720703125, 0, 
493, 2410808724, 71.2274169921875, -79.9911117553711, -26.56856346130371, 10.101156234741211, 1.5591044425964355, 0.4536723792552948, 1.8434054851531982, -3.040217876434326, 0.5412800908088684, -0.8994140625, 0.27392578125, 0.38623046875, 0, 
494, 2410817057, 71.21913146972656, -79.99065399169922, -26.559524536132812, 9.618291854858398, 1.9041755199432373, 0.43577179312705994, 1.9231164455413818, -3.090088367462158, 0.6007562279701233, -0.8984375, 0.2705078125, 0.38818359375, 0, 
