Timestamp;PosX;PosY;PosZ;Roll;Pitch;Yaw;Q1;Q2;Q3;Q4;M1;M2;M3;M4;AccelX;AccelY;AccelZ;GyroX;GyroY;GyroZ
1753877732.9495459;-1.786;0.945;-0.035;-1.63;-1.09;-43.1;0.0;0.0;0.0;0.0;-25.0;-59.0;-36.0;8.0;-0.22;0.35;-10.62;0.62;0.16;0.97
1753877732.954546;-1.786;0.945;-0.035;-1.63;-1.09;-43.1;0.0;0.0;0.0;0.0;-25.0;-59.0;-36.0;8.0;-0.23;0.36;-10.64;0.59;0.31;1.12
1753877732.959546;-1.786;0.945;-0.035;-1.63;-1.09;-43.1;0.0;0.0;0.0;0.0;-25.0;-59.0;-36.0;8.0;-0.23;0.35;-10.63;0.6;0.27;1.04
1753877732.9645462;-1.786;0.945;-0.035;-1.63;-1.09;-43.1;0.0;0.0;0.0;0.0;-25.0;-59.0;-36.0;8.0;-0.21;0.36;-10.63;0.71;0.3;0.84
1753877732.9695463;-1.786;0.945;-0.035;-1.63;-1.09;-43.1;0.0;0.0;0.0;0.0;-25.0;-59.0;-36.0;8.0;-0.2;0.36;-10.64;0.69;0.22;0.82
1753877732.9745464;-1.786;0.945;-0.035;-1.63;-1.09;-43.1;0.0;0.0;0.0;0.0;-25.0;-59.0;-36.0;8.0;-0.21;0.36;-10.63;0.7;0.24;0.81
1753877732.9795465;-1.786;0.945;-0.035;-1.63;-1.09;-43.1;0.0;0.0;0.0;0.0;-25.0;-59.0;-36.0;8.0;-0.22;0.36;-10.62;0.69;0.23;1.04
1753877732.9845467;-1.786;0.945;-0.035;-1.63;-1.09;-43.1;0.0;0.0;0.0;0.0;-25.0;-59.0;-36.0;8.0;-0.24;0.36;-10.62;0.6;0.12;1.12
1753877732.9895468;-1.786;0.945;-0.035;-1.63;-1.09;-43.1;0.0;0.0;0.0;0.0;-25.0;-59.0;-36.0;8.0;-0.22;0.36;-10.61;0.7;0.18;1.14
1753877732.9945447;-1.786;0.945;-0.035;-1.63;-1.09;-43.1;0.0;0.0;0.0;0.0;-25.0;-59.0;-36.0;8.0;-0.22;0.36;-10.62;0.65;0.27;1.07
1753877732.9995449;-1.786;0.945;-0.035;-1.63;-1.09;-43.1;0.0;0.0;0.0;0.0;-25.0;-59.0;-36.0;8.0;-0.22;0.36;-10.63;0.87;0.43;0.93
1753877733.0045447;-1.786;0.945;-0.035;-1.63;-1.09;-43.1;0.0;0.0;0.0;0.0;-25.0;-59.0;-36.0;8.0;-0.22;0.36;-10.64;0.67;0.23;0.96
1753877733.0095448;-1.786;0.945;-0.035;-1.63;-1.09;-43.1;0.0;0.0;0.0;0.0;-25.0;-59.0;-36.0;8.0;-0.22;0.36;-10.63;0.71;0.22;1.06
1753877733.0145447;-1.786;0.945;-0.035;-1.63;-1.09;-43.1;0.0;0.0;0.0;0.0;-25.0;-59.0;-36.0;8.0;-0.22;0.37;-10.63;0.8;0.38;1.08
1753877733.0195448;-1.786;0.945;-0.035;-1.63;-1.09;-43.1;0.0;0.0;0.0;0.0;-25.0;-59.0;-36.0;8.0;-0.22;0.36;-10.64;0.79;0.47;1.05
1753877733.0245447;-1.786;0.945;-0.035;-1.63;-1.09;-43.1;0.0;0.0;0.0;0.0;-25.0;-59.0;-36.0;8.0;-0.22;0.36;-10.63;0.66;0.24;0.92
1753877733.0295448;-1.786;0.945;-0.035;-1.63;-1.09;-43.1;0.0;0.0;0.0;0.0;-25.0;-59.0;-36.0;8.0;-0.22;0.36;-10.64;0.64;0.35;0.98
1753877733.0345447;-1.786;0.945;-0.035;-1.63;-1.09;-43.1;0.0;0.0;0.0;0.0;-25.0;-59.0;-36.0;8.0;-0.23;0.35;-10.65;0.74;0.33;1.09
1753877733.0395448;-1.786;0.945;-0.035;-1.63;-1.09;-43.1;0.0;0.0;0.0;0.0;-25.0;-59.0;-36.0;8.0;-0.23;0.35;-10.65;0.77;0.36;0.93
1753877733.044545;-1.786;0.945;-0.035;-1.63;-1.09;-43.1;0.0;0.0;0.0;0.0;-25.0;-59.0;-36.0;8.0;-0.23;0.35;-10.65;0.71;0.32;0.9
1753877733.0495448;-1.786;0.945;-0.035;-1.63;-1.09;-43.1;0.0;0.0;0.0;0.0;-25.0;-59.0;-36.0;8.0;-0.23;0.34;-10.65;0.63;0.47;1.05
1753877733.054545;-1.786;0.945;-0.035;-1.63;-1.09;-43.1;0.0;0.0;0.0;0.0;-25.0;-59.0;-36.0;8.0;-0.22;0.35;-10.64;0.83;0.33;0.81
1753877733.0595448;-1.786;0.945;-0.035;-1.63;-1.09;-43.1;0.0;0.0;0.0;0.0;-25.0;-59.0;-36.0;8.0;-0.23;0.35;-10.63;0.74;0.41;1.06
1753877733.064545;-1.786;0.945;-0.035;-1.63;-1.09;-43.1;0.0;0.0;0.0;0.0;-25.0;-59.0;-36.0;8.0;-0.23;0.35;-10.64;0.72;0.33;1.06
1753877733.0695448;-1.786;0.945;-0.035;-1.63;-1.09;-43.1;0.0;0.0;0.0;0.0;-25.0;-59.0;-36.0;8.0;-0.23;0.35;-10.63;0.67;0.28;0.9
1753877733.074545;-1.786;0.945;-0.035;-1.63;-1.09;-43.1;0.0;0.0;0.0;0.0;-25.0;-59.0;-36.0;8.0;-0.23;0.36;-10.63;0.77;0.29;0.93
1753877733.0795448;-1.786;0.945;-0.035;-1.63;-1.09;-43.1;0.0;0.0;0.0;0.0;-25.0;-59.0;-36.0;8.0;-0.23;0.36;-10.64;0.72;0.26;1.03
1753877733.084545;-1.786;0.945;-0.035;-1.63;-1.09;-43.1;0.0;0.0;0.0;0.0;-25.0;-59.0;-36.0;8.0;-0.23;0.36;-10.63;0.79;0.28;0.94
1753877733.089545;-1.786;0.945;-0.035;-1.63;-1.09;-43.1;0.0;0.0;0.0;0.0;-24.9;-58.7;-35.9;8.5;-0.24;0.36;-10.62;0.85;0.33;1.14
1753877733.0945451;-1.786;0.945;-0.035;-1.63;-1.09;-43.1;0.0;0.0;0.0;0.0;-24.5;-60.7;-35.3;8.3;-0.22;0.35;-10.64;0.85;0.28;0.85
1753877733.0995452;-1.786;0.945;-0.035;-1.63;-1.09;-43.1;0.0;0.0;0.0;0.0;-25.5;-60.9;-36.4;11.6;-0.22;0.35;-10.65;0.88;0.23;0.92
1753877733.1045454;-1.786;0.945;-0.035;-1.63;-1.09;-43.1;0.0;0.0;0.0;0.0;-24.6;-59.6;-36.2;8.7;-0.23;0.35;-10.64;0.79;0.41;1.01
1753877733.1095455;-1.786;0.945;-0.035;-1.63;-1.09;-43.1;0.0;0.0;0.0;0.0;-24.7;-57.7;-35.4;10.8;-0.23;0.35;-10.62;0.79;0.28;0.86
1753877733.1145456;-1.786;0.945;-0.035;-1.63;-1.09;-43.1;0.0;0.0;0.0;0.0;-24.0;-57.8;-36.0;8.4;-0.23;0.35;-10.62;0.86;0.3;0.87
1753877733.1195457;-1.786;0.945;-0.035;-1.63;-1.08;-43.1;0.0;0.0;0.0;0.0;-24.6;-61.4;-36.0;8.4;-0.22;0.37;-10.64;0.9;0.26;0.95
1753877733.1245458;-1.786;0.945;-0.035;-1.63;-1.08;-43.1;0.0;0.0;0.0;0.0;-24.1;-60.7;-34.5;10.4;-0.23;0.37;-10.63;0.77;0.43;0.93
1753877733.129546;-1.786;0.945;-0.035;-1.63;-1.08;-43.1;0.0;0.0;0.0;0.0;-24.7;-60.8;-34.3;9.4;-0.23;0.36;-10.61;0.75;0.28;0.95
1753877733.134546;-1.786;0.945;-0.035;-1.63;-1.09;-43.1;0.0;0.0;0.0;0.0;-23.4;-60.0;-35.8;9.4;-0.23;0.37;-10.63;0.89;0.39;0.91
1753877733.1395462;-1.786;0.945;-0.035;-1.63;-1.09;-43.1;0.0;0.0;0.0;0.0;-24.2;-59.9;-35.5;8.2;-0.25;0.35;-10.62;0.8;0.26;0.94
1753877733.1445463;-1.786;0.945;-0.035;-1.62;-1.09;-43.1;0.0;0.0;0.0;0.0;-25.1;-60.1;-33.9;12.4;-0.24;0.35;-10.64;0.8;0.3;0.86
1753877733.1495464;-1.786;0.945;-0.035;-1.63;-1.09;-43.1;0.0;0.0;0.0;0.0;-24.0;-63.5;-34.3;10.8;-0.24;0.37;-10.63;0.84;0.19;0.94
1753877733.1545465;-1.786;0.945;-0.035;-1.62;-1.09;-43.1;0.0;0.0;0.0;0.0;-24.0;-62.2;-34.2;11.9;-0.24;0.36;-10.65;0.77;0.16;0.98
1753877733.1595466;-1.786;0.945;-0.035;-1.62;-1.09;-43.1;0.0;0.0;0.0;0.0;-23.3;-65.6;-34.3;10.7;-0.23;0.36;-10.62;0.88;0.23;0.81
1753877733.1645467;-1.786;0.945;-0.035;-1.63;-1.08;-43.1;0.0;0.0;0.0;0.0;-23.8;-63.6;-33.8;11.4;-0.24;0.37;-10.62;0.82;0.31;0.79
1753877733.1695468;-1.786;0.945;-0.035;-1.62;-1.08;-43.1;0.0;0.0;0.0;0.0;-23.9;-63.9;-32.8;12.9;-0.24;0.37;-10.63;0.8;0.3;0.95
1753877733.174547;-1.786;0.945;-0.035;-1.62;-1.08;-43.1;0.0;0.0;0.0;0.0;-23.8;-62.4;-34.8;12.3;-0.25;0.36;-10.64;0.9;0.21;0.82
1753877733.179547;-1.786;0.945;-0.035;-1.62;-1.08;-43.1;0.0;0.0;0.0;0.0;-23.9;-63.9;-33.0;11.1;-0.25;0.35;-10.62;0.88;0.27;0.82
1753877733.1845472;-1.786;0.945;-0.035;-1.62;-1.08;-43.1;0.0;0.0;0.0;0.0;-22.2;-62.2;-31.5;14.5;-0.23;0.37;-10.63;0.7;0.35;0.95
1753877733.1895473;-1.786;0.945;-0.035;-1.62;-1.08;-43.1;0.0;0.0;0.0;0.0;-22.8;-62.5;-33.9;12.2;-0.25;0.36;-10.63;0.77;0.2;0.93
1753877733.1945474;-1.786;0.945;-0.035;-1.62;-1.08;-43.1;0.0;0.0;0.0;0.0;-22.3;-63.1;-31.8;12.5;-0.24;0.36;-10.64;0.84;0.26;0.93
1753877733.199545;-1.786;0.945;-0.035;-1.62;-1.08;-43.1;0.0;0.0;0.0;0.0;-23.0;-64.0;-33.0;13.0;-0.24;0.36;-10.63;0.82;0.32;0.93
1753877733.204545;-1.786;0.945;-0.035;-1.62;-1.09;-43.1;0.0;0.0;0.0;0.0;-22.5;-62.0;-33.6;13.8;-0.23;0.37;-10.63;0.71;0.32;1.01
1753877733.209545;-1.786;0.945;-0.035;-1.62;-1.08;-43.1;0.0;0.0;0.0;0.0;-23.0;-64.0;-33.0;13.0;-0.24;0.36;-10.63;0.72;0.22;0.99
1753877733.214545;-1.786;0.945;-0.035;-1.62;-1.08;-43.1;0.0;0.0;0.0;0.0;-24.3;-65.5;-34.7;14.4;-0.24;0.37;-10.64;0.61;0.28;1.01
1753877733.219545;-1.786;0.945;-0.035;-1.62;-1.08;-43.1;0.0;0.0;0.0;0.0;-23.0;-64.0;-33.0;13.0;-0.23;0.36;-10.64;0.6;0.34;0.96
1753877733.224545;-1.786;0.945;-0.035;-1.62;-1.08;-43.1;0.0;0.0;0.0;0.0;-22.3;-63.1;-33.1;15.6;-0.25;0.36;-10.64;0.61;0.35;0.94
1753877733.2295449;-1.786;0.945;-0.035;-1.62;-1.08;-43.1;0.0;0.0;0.0;0.0;-23.0;-64.0;-33.0;13.0;-0.23;0.36;-10.63;0.61;0.23;0.93
1753877733.234545;-1.786;0.945;-0.035;-1.62;-1.07;-43.1;0.0;0.0;0.0;0.0;-25.1;-62.0;-32.1;13.2;-0.23;0.35;-10.63;0.6;0.29;0.7
1753877733.239545;-1.786;0.945;-0.035;-1.62;-1.09;-43.1;0.0;0.0;0.0;0.0;-23.4;-61.5;-33.0;15.5;-0.23;0.35;-10.63;0.65;0.25;0.84
1753877733.2445447;-1.786;0.945;-0.035;-1.62;-1.08;-43.1;0.0;0.0;0.0;0.0;-23.0;-64.0;-33.0;13.0;-0.23;0.35;-10.63;0.67;0.27;0.85
1753877733.2495449;-1.786;0.945;-0.035;-1.63;-1.08;-43.1;0.0;0.0;0.0;0.0;-23.1;-65.7;-34.1;14.9;-0.23;0.34;-10.63;0.69;0.23;0.95
1753877733.2545447;-1.786;0.945;-0.035;-1.62;-1.08;-43.1;0.0;0.0;0.0;0.0;-23.0;-64.0;-33.0;13.0;-0.22;0.35;-10.63;0.67;0.25;0.96
1753877733.2595448;-1.786;0.945;-0.035;-1.62;-1.08;-43.1;0.0;0.0;0.0;0.0;-21.8;-62.9;-31.0;13.0;-0.22;0.35;-10.62;0.69;0.3;0.96
1753877733.2645447;-1.786;0.945;-0.035;-1.62;-1.08;-43.1;0.0;0.0;0.0;0.0;-23.0;-64.0;-33.0;13.0;-0.22;0.35;-10.63;0.71;0.36;0.97
1753877733.2695448;-1.786;0.945;-0.035;-1.61;-1.07;-43.1;0.0;0.0;0.0;0.0;-22.3;-62.9;-29.6;16.4;-0.22;0.36;-10.63;0.63;0.27;1.06
1753877733.2745447;-1.786;0.945;-0.035;-1.62;-1.08;-43.1;0.0;0.0;0.0;0.0;-23.0;-64.0;-33.0;13.0;-0.23;0.35;-10.63;0.61;0.28;0.92
1753877733.2795448;-1.786;0.945;-0.035;-1.62;-1.08;-43.1;0.0;0.0;0.0;0.0;-24.0;-62.0;-35.4;16.5;-0.24;0.36;-10.62;0.79;0.23;0.99
1753877733.2845447;-1.786;0.945;-0.035;-1.62;-1.08;-43.1;0.0;0.0;0.0;0.0;-23.0;-64.0;-33.0;13.0;-0.23;0.36;-10.63;0.76;0.25;0.85
1753877733.2895448;-1.786;0.945;-0.035;-1.62;-1.08;-43.1;0.0;0.0;0.0;0.0;-23.1;-63.3;-31.8;11.4;-0.22;0.36;-10.62;0.77;0.3;0.94
1753877733.294545;-1.786;0.945;-0.035;-1.62;-1.08;-43.1;0.0;0.0;0.0;0.0;-23.0;-64.0;-33.0;13.0;-0.22;0.37;-10.63;0.67;0.32;1.08
1753877733.299545;-1.786;0.945;-0.035;-1.62;-1.08;-43.1;0.0;0.0;0.0;0.0;-21.3;-66.5;-35.5;11.2;-0.21;0.36;-10.63;0.68;0.12;1.2
1753877733.304545;-1.786;0.945;-0.035;-1.62;-1.08;-43.1;0.0;0.0;0.0;0.0;-23.0;-64.0;-33.0;13.0;-0.22;0.37;-10.63;0.7;0.26;1.12
1753877733.309545;-1.786;0.945;-0.035;-1.62;-1.08;-43.1;0.0;0.0;0.0;0.0;-22.1;-60.0;-33.2;13.7;-0.23;0.38;-10.63;0.77;0.45;1.09
1753877733.314545;-1.786;0.945;-0.035;-1.62;-1.08;-43.1;0.0;0.0;0.0;0.0;-23.0;-64.0;-33.0;13.0;-0.22;0.37;-10.63;0.68;0.39;1.02
1753877733.319545;-1.786;0.945;-0.035;-1.61;-1.08;-43.1;0.0;0.0;0.0;0.0;-23.5;-66.3;-34.8;18.0;-0.21;0.38;-10.62;0.73;0.31;0.93
1753877733.324545;-1.786;0.945;-0.035;-1.62;-1.08;-43.1;0.0;0.0;0.0;0.0;-23.0;-64.0;-33.0;13.0;-0.23;0.37;-10.63;0.61;0.27;0.88
1753877733.329545;-1.786;0.945;-0.035;-1.62;-1.08;-43.1;0.0;0.0;0.0;0.0;-23.2;-62.3;-32.1;15.6;-0.22;0.35;-10.63;0.64;0.32;0.84
1753877733.334545;-1.786;0.945;-0.035;-1.62;-1.08;-43.1;0.0;0.0;0.0;0.0;-23.0;-64.0;-33.0;13.0;-0.22;0.35;-10.63;0.74;0.39;0.99
1753877733.339545;-1.786;0.945;-0.035;-1.62;-1.07;-43.1;0.0;0.0;0.0;0.0;-24.0;-59.9;-32.6;12.2;-0.22;0.34;-10.63;0.77;0.36;1.02
1753877733.344545;-1.786;0.945;-0.035;-1.62;-1.08;-43.1;0.0;0.0;0.0;0.0;-23.0;-64.0;-33.0;13.0;-0.22;0.35;-10.63;0.72;0.19;1.0
1753877733.349545;-1.786;0.945;-0.035;-1.62;-1.08;-43.1;0.0;0.0;0.0;0.0;-22.7;-61.2;-31.5;12.5;-0.23;0.35;-10.64;0.64;0.19;0.88
1753877733.3545449;-1.786;0.945;-0.035;-1.62;-1.08;-43.1;0.0;0.0;0.0;0.0;-23.0;-64.0;-33.0;13.0;-0.22;0.35;-10.64;0.63;0.35;0.9
1753877733.359545;-1.786;0.945;-0.035;-1.62;-1.08;-43.1;0.0;0.0;0.0;0.0;-22.0;-63.5;-33.6;13.8;-0.21;0.35;-10.64;0.7;0.22;0.95
1753877733.3645449;-1.786;0.945;-0.035;-1.62;-1.08;-43.1;0.0;0.0;0.0;0.0;-23.0;-64.0;-33.0;13.0;-0.22;0.35;-10.63;0.64;0.16;0.93
1753877733.369545;-1.786;0.945;-0.035;-1.61;-1.08;-43.1;0.0;0.0;0.0;0.0;-23.3;-62.0;-32.4;13.6;-0.22;0.34;-10.63;0.68;0.12;0.96
1753877733.3745449;-1.786;0.945;-0.035;-1.62;-1.08;-43.1;0.0;0.0;0.0;0.0;-23.0;-64.0;-33.0;13.0;-0.22;0.35;-10.63;0.67;0.1;1.1
1753877733.3795447;-1.786;0.945;-0.035;-1.62;-1.08;-43.1;0.0;0.0;0.0;0.0;-23.0;-64.0;-33.0;13.0;-0.22;0.35;-10.64;0.67;0.27;0.95
1753877733.3845448;-1.786;0.945;-0.035;-1.62;-1.08;-43.1;0.0;0.0;0.0;0.0;-23.0;-64.0;-33.0;13.0;-0.22;0.35;-10.64;0.64;0.32;0.86
1753877733.3895447;-1.786;0.945;-0.035;-1.62;-1.08;-43.1;0.0;0.0;0.0;0.0;-23.0;-64.0;-33.0;13.0;-0.22;0.35;-10.65;0.61;0.25;0.9
1753877733.3945448;-1.786;0.945;-0.035;-1.62;-1.08;-43.1;0.0;0.0;0.0;0.0;-23.3;-64.3;-33.2;11.8;-0.22;0.36;-10.65;0.61;0.38;0.89
1753877733.399545;-1.786;0.945;-0.035;-1.62;-1.08;-43.1;0.0;0.0;0.0;0.0;-23.4;-63.8;-33.1;13.5;-0.22;0.36;-10.66;0.65;0.25;0.82
1753877733.404545;-1.786;0.945;-0.035;-1.62;-1.08;-43.1;0.0;0.0;0.0;0.0;-24.0;-64.3;-33.6;13.6;-0.22;0.36;-10.64;0.65;0.24;1.04
1753877733.4095452;-1.786;0.945;-0.035;-1.62;-1.08;-43.1;0.0;0.0;0.0;0.0;-22.7;-64.2;-33.7;15.7;-0.22;0.35;-10.65;0.63;0.15;0.97
1753877733.4145453;-1.786;0.945;-0.035;-1.62;-1.08;-43.1;0.0;0.0;0.0;0.0;-23.1;-64.2;-33.1;10.7;-0.22;0.36;-10.65;0.64;0.34;0.97
1753877733.4195454;-1.786;0.945;-0.035;-1.62;-1.08;-43.1;0.0;0.0;0.0;0.0;-23.9;-64.3;-33.2;13.9;-0.21;0.36;-10.64;0.61;0.25;1.06
1753877733.4245455;-1.786;0.945;-0.035;-1.63;-1.08;-43.1;0.0;0.0;0.0;0.0;-22.4;-64.3;-33.1;11.1;-0.22;0.34;-10.64;0.64;0.32;0.75
1753877733.4295456;-1.786;0.945;-0.035;-1.62;-1.08;-43.1;0.0;0.0;0.0;0.0;-22.9;-64.5;-33.0;13.9;-0.22;0.35;-10.64;0.66;0.28;0.86
1753877733.4345458;-1.786;0.945;-0.035;-1.62;-1.08;-43.1;0.0;0.0;0.0;0.0;-24.0;-64.1;-33.2;11.4;-0.22;0.36;-10.65;0.61;0.25;0.86
1753877733.4395459;-1.786;0.945;-0.035;-1.62;-1.08;-43.1;0.0;0.0;0.0;0.0;-23.7;-64.6;-33.1;11.4;-0.21;0.35;-10.64;0.75;0.33;0.86
1753877733.444546;-1.786;0.945;-0.035;-1.62;-1.08;-43.1;0.0;0.0;0.0;0.0;-23.8;-64.5;-33.4;11.7;-0.22;0.35;-10.63;0.69;0.25;0.82
1753877733.449546;-1.786;0.945;-0.035;-1.63;-1.08;-43.1;0.0;0.0;0.0;0.0;-24.2;-64.2;-33.1;11.0;-0.23;0.35;-10.64;0.62;0.29;1.04
1753877733.4545462;-1.786;0.945;-0.035;-1.62;-1.08;-43.1;0.0;0.0;0.0;0.0;-23.2;-64.4;-33.3;8.6;-0.22;0.35;-10.64;0.66;0.24;0.95
1753877733.4595463;-1.786;0.945;-0.035;-1.63;-1.08;-43.1;0.0;0.0;0.0;0.0;-23.6;-64.7;-33.2;8.6;-0.22;0.37;-10.63;0.61;0.29;0.8
1753877733.4645464;-1.786;0.945;-0.035;-1.63;-1.08;-43.1;0.0;0.0;0.0;0.0;-24.3;-64.4;-33.6;7.9;-0.21;0.34;-10.63;0.63;0.31;1.01
1753877733.4695466;-1.786;0.945;-0.035;-1.62;-1.08;-43.1;0.0;0.0;0.0;0.0;-23.1;-64.7;-33.4;10.2;-0.22;0.34;-10.64;0.66;0.17;0.93
1753877733.4745467;-1.786;0.945;-0.035;-1.62;-1.08;-43.1;0.0;0.0;0.0;0.0;-24.4;-64.5;-33.3;10.1;-0.22;0.35;-10.64;0.65;0.27;0.86
1753877733.4795468;-1.786;0.945;-0.035;-1.62;-1.08;-43.1;0.0;0.0;0.0;0.0;-23.8;-64.7;-33.7;11.4;-0.23;0.35;-10.63;0.69;0.46;0.79
1753877733.484547;-1.786;0.945;-0.035;-1.62;-1.08;-43.1;0.0;0.0;0.0;0.0;-24.1;-64.5;-33.8;8.5;-0.22;0.38;-10.64;0.76;0.37;0.94
1753877733.489547;-1.786;0.945;-0.035;-1.62;-1.08;-43.1;0.0;0.0;0.0;0.0;-23.0;-64.5;-34.0;6.1;-0.22;0.36;-10.64;0.65;0.24;0.94
1753877733.4945471;-1.786;0.945;-0.035;-1.62;-1.08;-43.1;0.0;0.0;0.0;0.0;-24.2;-65.0;-33.6;7.2;-0.22;0.36;-10.62;0.66;0.29;0.72
1753877733.4995472;-1.786;0.945;-0.035;-1.63;-1.08;-43.1;0.0;0.0;0.0;0.0;-24.1;-64.5;-33.6;7.2;-0.22;0.36;-10.63;0.74;0.23;0.86
1753877733.5045474;-1.786;0.945;-0.035;-1.63;-1.08;-43.1;0.0;0.0;0.0;0.0;-24.1;-64.6;-33.3;6.7;-0.23;0.35;-10.64;0.6;0.28;0.91
1753877733.5095475;-1.786;0.945;-0.035;-1.63;-1.08;-43.1;0.0;0.0;0.0;0.0;-24.6;-64.8;-33.8;6.7;-0.21;0.36;-10.62;0.63;0.41;0.87
1753877733.5145476;-1.786;0.945;-0.035;-1.63;-1.08;-43.1;0.0;0.0;0.0;0.0;-24.0;-64.4;-33.6;6.4;-0.22;0.34;-10.63;0.66;0.23;0.79
1753877733.5195477;-1.786;0.945;-0.035;-1.63;-1.08;-43.1;0.0;0.0;0.0;0.0;-24.6;-64.5;-34.3;4.8;-0.22;0.37;-10.63;0.68;0.33;0.82
1753877733.5245478;-1.786;0.945;-0.035;-1.63;-1.08;-43.1;0.0;0.0;0.0;0.0;-23.8;-64.7;-34.0;6.7;-0.23;0.36;-10.62;0.74;0.37;0.75
1753877733.529548;-1.786;0.945;-0.035;-1.63;-1.08;-43.1;0.0;0.0;0.0;0.0;-23.9;-64.8;-33.8;5.1;-0.21;0.35;-10.63;0.65;0.34;0.95
1753877733.534548;-1.786;0.945;-0.035;-1.63;-1.08;-43.1;0.0;0.0;0.0;0.0;-24.2;-64.9;-33.3;6.1;-0.21;0.37;-10.62;0.67;0.24;1.0
1753877733.5395482;-1.786;0.945;-0.035;-1.63;-1.08;-43.1;0.0;0.0;0.0;0.0;-24.4;-64.6;-33.8;6.4;-0.21;0.36;-10.62;0.58;0.27;0.94
1753877733.5445483;-1.786;0.945;-0.035;-1.63;-1.08;-43.1;0.0;0.0;0.0;0.0;-25.6;-64.4;-33.5;4.9;-0.22;0.36;-10.62;0.75;0.39;0.87
1753877733.5495484;-1.786;0.945;-0.035;-1.63;-1.08;-43.1;0.0;0.0;0.0;0.0;-25.0;-64.9;-34.4;5.3;-0.22;0.35;-10.62;0.68;0.28;0.95
1753877733.5545485;-1.786;0.945;-0.035;-1.63;-1.08;-43.1;0.0;0.0;0.0;0.0;-24.0;-64.8;-34.1;3.3;-0.22;0.37;-10.62;0.75;0.29;0.78
1753877733.5595448;-1.786;0.945;-0.035;-1.63;-1.08;-43.1;0.0;0.0;0.0;0.0;-25.0;-65.0;-34.0;5.0;-0.22;0.36;-10.62;0.7;0.33;0.88
1753877733.564545;-1.786;0.945;-0.035;-1.63;-1.08;-43.1;0.0;0.0;0.0;0.0;-25.0;-65.0;-34.0;5.0;-0.23;0.36;-10.61;0.68;0.37;0.95
1753877733.5695448;-1.786;0.945;-0.035;-1.63;-1.08;-43.1;0.0;0.0;0.0;0.0;-25.0;-65.0;-34.0;5.0;-0.23;0.36;-10.62;0.63;0.25;0.99
1753877733.574545;-1.786;0.945;-0.035;-1.63;-1.08;-43.1;0.0;0.0;0.0;0.0;-25.0;-65.0;-34.0;5.0;-0.22;0.35;-10.62;0.79;0.31;0.83
1753877733.5795448;-1.786;0.945;-0.035;-1.63;-1.08;-43.1;0.0;0.0;0.0;0.0;-25.0;-65.0;-34.0;5.0;-0.23;0.36;-10.62;0.71;0.32;0.83
1753877733.584545;-1.786;0.945;-0.035;-1.63;-1.08;-43.1;0.0;0.0;0.0;0.0;-25.0;-65.0;-34.0;5.0;-0.23;0.36;-10.62;0.74;0.31;1.05
1753877733.5895448;-1.786;0.945;-0.035;-1.63;-1.08;-43.1;0.0;0.0;0.0;0.0;-25.0;-65.0;-34.0;5.0;-0.23;0.36;-10.63;0.64;0.48;1.02
1753877733.594545;-1.786;0.945;-0.035;-1.63;-1.08;-43.1;0.0;0.0;0.0;0.0;-25.0;-65.0;-34.0;5.0;-0.23;0.36;-10.63;0.67;0.31;0.8
1753877733.5995448;-1.786;0.945;-0.035;-1.63;-1.08;-43.1;0.0;0.0;0.0;0.0;-25.0;-65.0;-34.0;5.0;-0.23;0.36;-10.63;0.66;0.29;1.03
1753877733.6045449;-1.786;0.945;-0.035;-1.63;-1.08;-43.1;0.0;0.0;0.0;0.0;-25.0;-65.0;-34.0;5.0;-0.23;0.36;-10.63;0.73;0.4;1.03
1753877733.609545;-1.786;0.945;-0.035;-1.63;-1.08;-43.1;0.0;0.0;0.0;0.0;-25.9;-66.2;-33.9;6.6;-0.23;0.35;-10.62;0.78;0.43;1.04
1753877733.614545;-1.786;0.945;-0.035;-1.63;-1.08;-43.1;0.0;0.0;0.0;0.0;-25.4;-65.0;-33.8;1.3;-0.22;0.36;-10.63;0.76;0.53;1.01
1753877733.6195452;-1.786;0.945;-0.035;-1.62;-1.08;-43.1;0.0;0.0;0.0;0.0;-24.3;-65.3;-34.0;5.0;-0.23;0.35;-10.64;0.66;0.44;0.96
1753877733.6245453;-1.786;0.945;-0.035;-1.63;-1.08;-43.1;0.0;0.0;0.0;0.0;-24.9;-65.2;-34.3;9.2;-0.23;0.35;-10.64;0.63;0.47;0.97
1753877733.6295455;-1.786;0.945;-0.035;-1.64;-1.08;-43.1;0.0;0.0;0.0;0.0;-24.3;-65.3;-33.5;-1.1;-0.24;0.36;-10.65;0.84;0.39;1.02
1753877733.6345456;-1.786;0.945;-0.035;-1.63;-1.08;-43.1;0.0;0.0;0.0;0.0;-25.9;-63.1;-34.4;7.9;-0.23;0.35;-10.63;0.65;0.33;0.88
1753877733.6395457;-1.786;0.945;-0.035;-1.63;-1.08;-43.1;0.0;0.0;0.0;0.0;-25.0;-63.9;-33.7;11.6;-0.22;0.37;-10.63;0.69;0.37;0.97
1753877733.6445458;-1.786;0.945;-0.035;-1.63;-1.08;-43.1;0.0;0.0;0.0;0.0;-24.2;-63.4;-34.8;5.5;-0.22;0.36;-10.64;0.87;0.47;1.06
1753877733.649546;-1.786;0.945;-0.035;-1.62;-1.08;-43.1;0.0;0.0;0.0;0.0;-23.7;-63.1;-34.1;8.9;-0.23;0.35;-10.63;0.67;0.29;0.96
1753877733.654546;-1.786;0.945;-0.035;-1.63;-1.08;-43.1;0.0;0.0;0.0;0.0;-23.7;-63.6;-34.2;-3.0;-0.22;0.36;-10.63;0.81;0.43;1.18
1753877733.6595461;-1.786;0.945;-0.035;-1.64;-1.08;-43.1;0.0;0.0;0.0;0.0;-23.7;-63.9;-33.6;8.2;-0.23;0.36;-10.64;0.65;0.39;0.95
1753877733.6645463;-1.786;0.945;-0.035;-1.63;-1.08;-43.1;0.0;0.0;0.0;0.0;-24.7;-62.9;-33.4;13.2;-0.24;0.35;-10.65;0.7;0.43;0.98
1753877733.6695464;-1.786;0.945;-0.035;-1.63;-1.08;-43.1;0.0;0.0;0.0;0.0;-26.0;-63.8;-33.7;8.4;-0.23;0.36;-10.63;0.76;0.31;0.96
1753877733.6745465;-1.786;0.945;-0.035;-1.63;-1.08;-43.1;0.0;0.0;0.0;0.0;-23.9;-62.0;-32.9;8.3;-0.23;0.36;-10.63;0.62;0.32;1.01
1753877733.6795466;-1.786;0.945;-0.035;-1.63;-1.08;-43.1;0.0;0.0;0.0;0.0;-24.4;-64.1;-33.6;6.7;-0.24;0.35;-10.64;0.7;0.25;0.92
1753877733.6845467;-1.786;0.945;-0.035;-1.62;-1.08;-43.1;0.0;0.0;0.0;0.0;-23.1;-63.6;-33.6;9.2;-0.22;0.36;-10.65;0.68;0.49;1.05
1753877733.6895468;-1.786;0.945;-0.035;-1.64;-1.08;-43.1;0.0;0.0;0.0;0.0;-24.0;-62.6;-32.4;10.0;-0.25;0.37;-10.64;0.71;0.29;0.91
1753877733.694547;-1.786;0.945;-0.035;-1.63;-1.08;-43.1;0.0;0.0;0.0;0.0;-24.2;-62.4;-33.5;8.1;-0.23;0.35;-10.66;0.77;0.4;0.92
1753877733.699547;-1.786;0.945;-0.035;-1.63;-1.08;-43.1;0.0;0.0;0.0;0.0;-23.0;-63.5;-33.6;13.0;-0.24;0.36;-10.64;0.62;0.29;0.93
1753877733.7045472;-1.786;0.945;-0.035;-1.62;-1.08;-43.1;0.0;0.0;0.0;0.0;-23.9;-62.4;-33.5;3.6;-0.24;0.37;-10.63;0.61;0.36;0.8
1753877733.7095473;-1.786;0.945;-0.035;-1.63;-1.08;-43.1;0.0;0.0;0.0;0.0;-21.7;-61.8;-33.1;6.8;-0.24;0.35;-10.63;0.74;0.29;0.87
1753877733.7145474;-1.786;0.945;-0.035;-1.63;-1.08;-43.1;0.0;0.0;0.0;0.0;-25.1;-63.9;-33.4;1.4;-0.24;0.36;-10.64;0.75;0.51;0.9
1753877733.7195475;-1.786;0.945;-0.035;-1.62;-1.08;-43.1;0.0;0.0;0.0;0.0;-23.6;-62.1;-33.1;5.8;-0.24;0.35;-10.64;0.68;0.21;0.88
1753877733.7245476;-1.786;0.945;-0.035;-1.63;-1.08;-43.1;0.0;0.0;0.0;0.0;-24.0;-60.9;-33.2;9.7;-0.25;0.36;-10.65;0.67;0.35;1.04
1753877733.7295477;-1.786;0.945;-0.035;-1.63;-1.08;-43.1;0.0;0.0;0.0;0.0;-23.6;-61.3;-31.8;8.3;-0.24;0.36;-10.64;0.72;0.27;0.91
1753877733.7345479;-1.786;0.945;-0.035;-1.63;-1.08;-43.1;0.0;0.0;0.0;0.0;-23.3;-61.8;-32.9;6.3;-0.25;0.36;-10.63;0.71;0.24;0.93
1753877733.7395449;-1.786;0.945;-0.035;-1.63;-1.08;-43.1;0.0;0.0;0.0;0.0;-24.0;-62.0;-33.0;7.0;-0.24;0.36;-10.64;0.68;0.28;0.9
1753877733.7445447;-1.786;0.945;-0.035;-1.63;-1.08;-43.1;0.0;0.0;0.0;0.0;-24.0;-62.0;-33.0;7.0;-0.24;0.36;-10.63;0.66;0.31;0.91
1753877733.7495449;-1.786;0.945;-0.035;-1.63;-1.08;-43.1;0.0;0.0;0.0;0.0;-25.5;-61.6;-33.4;8.6;-0.24;0.35;-10.63;0.69;0.27;0.87
1753877733.754545;-1.786;0.945;-0.035;-1.63;-1.08;-43.1;0.0;0.0;0.0;0.0;-23.9;-63.0;-33.0;7.6;-0.24;0.36;-10.63;0.59;0.41;0.84
1753877733.759545;-1.786;0.945;-0.035;-1.62;-1.08;-43.1;0.0;0.0;0.0;0.0;-23.3;-61.8;-32.6;4.4;-0.24;0.36;-10.63;0.73;0.18;0.94
1753877733.7645452;-1.786;0.945;-0.035;-1.64;-1.08;-43.1;0.0;0.0;0.0;0.0;-23.0;-59.8;-32.7;5.2;-0.24;0.36;-10.64;0.69;0.28;0.95
1753877733.7695453;-1.786;0.945;-0.035;-1.63;-1.08;-43.1;0.0;0.0;0.0;0.0;-24.2;-62.8;-32.8;7.7;-0.22;0.36;-10.62;0.65;0.25;0.92
1753877733.7745454;-1.786;0.945;-0.035;-1.64;-1.08;-43.1;0.0;0.0;0.0;0.0;-22.8;-62.6;-32.7;8.9;-0.25;0.36;-10.62;0.66;0.29;0.83
1753877733.7795455;-1.786;0.945;-0.035;-1.63;-1.08;-43.1;0.0;0.0;0.0;0.0;-24.9;-62.1;-33.0;14.2;-0.24;0.36;-10.62;0.67;0.25;0.74
1753877733.7845457;-1.786;0.945;-0.035;-1.62;-1.08;-43.1;0.0;0.0;0.0;0.0;-24.8;-63.6;-33.6;15.0;-0.25;0.36;-10.63;0.65;0.32;0.9
1753877733.7895458;-1.786;0.945;-0.035;-1.62;-1.08;-43.1;0.0;0.0;0.0;0.0;-25.5;-62.9;-33.3;5.7;-0.24;0.35;-10.63;0.71;0.37;0.9
1753877733.794546;-1.786;0.945;-0.035;-1.63;-1.08;-43.1;0.0;0.0;0.0;0.0;-23.7;-61.2;-33.1;-0.1;-0.24;0.36;-10.61;0.66;0.25;0.93
1753877733.799546;-1.786;0.945;-0.035;-1.64;-1.08;-43.1;0.0;0.0;0.0;0.0;-24.8;-62.8;-33.5;11.5;-0.23;0.35;-10.62;0.69;0.37;0.91
1753877733.804546;-1.786;0.945;-0.035;-1.63;-1.08;-43.1;0.0;0.0;0.0;0.0;-24.7;-61.7;-33.0;2.3;-0.23;0.35;-10.63;0.56;0.24;1.03
1753877733.8095462;-1.786;0.945;-0.035;-1.64;-1.08;-43.1;0.0;0.0;0.0;0.0;-23.6;-62.9;-33.3;4.3;-0.22;0.35;-10.63;0.64;0.27;0.93
1753877733.8145463;-1.786;0.945;-0.035;-1.63;-1.08;-43.1;0.0;0.0;0.0;0.0;-24.0;-62.9;-33.0;13.0;-0.23;0.37;-10.65;0.77;0.36;0.84
1753877733.8195465;-1.786;0.945;-0.035;-1.62;-1.08;-43.1;0.0;0.0;0.0;0.0;-24.5;-61.0;-33.4;3.5;-0.24;0.36;-10.64;0.72;0.35;0.86
1753877733.8245466;-1.786;0.945;-0.035;-1.63;-1.08;-43.1;0.0;0.0;0.0;0.0;-23.2;-61.9;-34.2;4.9;-0.25;0.36;-10.64;0.67;0.13;0.66
1753877733.8295467;-1.786;0.945;-0.035;-1.62;-1.08;-43.1;0.0;0.0;0.0;0.0;-21.5;-63.2;-33.3;6.3;-0.23;0.36;-10.64;0.68;0.31;0.71
1753877733.8345468;-1.786;0.945;-0.035;-1.64;-1.08;-43.1;0.0;0.0;0.0;0.0;-23.5;-61.2;-32.6;3.0;-0.23;0.35;-10.64;0.7;0.52;0.82
1753877733.839547;-1.786;0.945;-0.035;-1.63;-1.08;-43.1;0.0;0.0;0.0;0.0;-25.0;-61.5;-33.7;-0.5;-0.24;0.36;-10.63;0.67;0.19;0.61
1753877733.844547;-1.786;0.945;-0.035;-1.62;-1.08;-43.1;0.0;0.0;0.0;0.0;-23.7;-62.3;-33.1;1.8;-0.23;0.36;-10.63;0.71;0.27;0.85
1753877733.8495471;-1.786;0.945;-0.035;-1.63;-1.08;-43.1;0.0;0.0;0.0;0.0;-23.8;-61.6;-32.9;8.9;-0.23;0.35;-10.63;0.65;0.21;0.93
1753877733.8545473;-1.786;0.945;-0.035;-1.63;-1.08;-43.1;0.0;0.0;0.0;0.0;-23.5;-63.4;-33.7;8.5;-0.23;0.35;-10.64;0.62;0.4;0.86
1753877733.8595474;-1.786;0.945;-0.035;-1.63;-1.08;-43.1;0.0;0.0;0.0;0.0;-22.5;-59.8;-33.0;7.4;-0.25;0.35;-10.62;0.67;0.33;1.05
1753877733.8645475;-1.786;0.945;-0.035;-1.63;-1.08;-43.1;0.0;0.0;0.0;0.0;-24.3;-63.0;-33.9;14.7;-0.24;0.36;-10.64;0.65;0.42;0.69
1753877733.8695476;-1.786;0.945;-0.035;-1.63;-1.08;-43.1;0.0;0.0;0.0;0.0;-24.6;-62.8;-33.5;6.9;-0.23;0.36;-10.62;0.67;0.34;0.76
1753877733.8745477;-1.786;0.945;-0.035;-1.63;-1.08;-43.1;0.0;0.0;0.0;0.0;-23.2;-60.3;-33.5;10.2;-0.24;0.35;-10.63;0.66;0.49;0.75
1753877733.8795478;-1.786;0.945;-0.035;-1.63;-1.08;-43.1;0.0;0.0;0.0;0.0;-23.1;-60.5;-33.3;6.1;-0.23;0.35;-10.63;0.67;0.34;0.74
1753877733.884548;-1.786;0.945;-0.035;-1.63;-1.08;-43.1;0.0;0.0;0.0;0.0;-23.9;-59.6;-33.4;2.7;-0.23;0.35;-10.63;0.69;0.52;0.84
1753877733.889548;-1.786;0.945;-0.035;-1.63;-1.08;-43.1;0.0;0.0;0.0;0.0;-23.4;-60.0;-32.7;7.9;-0.22;0.36;-10.63;0.72;0.13;0.85
1753877733.8945482;-1.786;0.945;-0.035;-1.63;-1.08;-43.1;0.0;0.0;0.0;0.0;-24.7;-61.9;-32.9;8.5;-0.22;0.35;-10.61;0.69;0.46;0.86
1753877733.8995483;-1.786;0.945;-0.035;-1.64;-1.08;-43.1;0.0;0.0;0.0;0.0;-22.9;-61.4;-33.0;8.5;-0.22;0.36;-10.63;0.76;0.48;0.78
1753877733.9045484;-1.786;0.945;-0.035;-1.63;-1.08;-43.1;0.0;0.0;0.0;0.0;-25.5;-62.7;-33.7;3.3;-0.23;0.36;-10.63;0.54;0.32;0.81
1753877733.9095485;-1.786;0.945;-0.035;-1.63;-1.08;-43.1;0.0;0.0;0.0;0.0;-24.5;-60.8;-33.2;4.7;-0.23;0.35;-10.62;0.71;0.33;0.7
1753877733.9145486;-1.786;0.945;-0.035;-1.63;-1.08;-43.1;0.0;0.0;0.0;0.0;-23.6;-62.0;-33.7;8.4;-0.23;0.35;-10.63;0.67;0.39;0.84
1753877733.9195487;-1.786;0.945;-0.035;-1.63;-1.08;-43.1;0.0;0.0;0.0;0.0;-22.2;-61.4;-31.9;10.3;-0.23;0.36;-10.63;0.64;0.28;0.8
1753877733.9245448;-1.786;0.945;-0.035;-1.63;-1.08;-43.1;0.0;0.0;0.0;0.0;-24.0;-62.0;-33.0;7.0;-0.23;0.35;-10.63;0.69;0.35;0.75
1753877733.929545;-1.786;0.945;-0.035;-1.63;-1.08;-43.1;0.0;0.0;0.0;0.0;-24.0;-62.0;-33.0;7.0;-0.23;0.35;-10.63;0.68;0.51;0.86
1753877733.9345448;-1.786;0.945;-0.035;-1.63;-1.08;-43.1;0.0;0.0;0.0;0.0;-24.0;-62.0;-33.0;7.0;-0.23;0.36;-10.63;0.62;0.42;0.93
1753877733.939545;-1.786;0.945;-0.035;-1.63;-1.08;-43.1;0.0;0.0;0.0;0.0;-24.0;-62.0;-33.0;7.0;-0.23;0.36;-10.64;0.74;0.36;0.88
1753877733.9445448;-1.786;0.945;-0.035;-1.63;-1.08;-43.1;0.0;0.0;0.0;0.0;-24.0;-62.0;-33.0;7.0;-0.23;0.36;-10.64;0.74;0.28;0.96
1753877733.949545;-1.786;0.945;-0.035;-1.63;-1.08;-43.1;0.0;0.0;0.0;0.0;-24.0;-62.0;-33.0;7.0;-0.23;0.36;-10.64;0.71;0.3;0.99
1753877733.9545448;-1.786;0.945;-0.035;-1.63;-1.08;-43.1;0.0;0.0;0.0;0.0;-24.0;-62.0;-33.0;7.0;-0.23;0.36;-10.64;0.56;0.37;0.8
1753877733.959545;-1.786;0.945;-0.035;-1.63;-1.08;-43.1;0.0;0.0;0.0;0.0;-24.0;-62.0;-33.0;7.0;-0.23;0.36;-10.64;0.78;0.32;0.93
1753877733.9645448;-1.786;0.945;-0.035;-1.63;-1.08;-43.1;0.0;0.0;0.0;0.0;-24.0;-62.0;-33.0;7.0;-0.23;0.36;-10.64;0.69;0.42;0.99
1753877733.969545;-1.786;0.945;-0.035;-1.63;-1.08;-43.1;0.0;0.0;0.0;0.0;-24.0;-62.0;-33.0;7.0;-0.23;0.36;-10.63;0.64;0.32;0.88
1753877733.9745448;-1.786;0.945;-0.035;-1.63;-1.08;-43.1;0.0;0.0;0.0;0.0;-24.0;-62.0;-33.0;7.0;-0.23;0.36;-10.62;0.73;0.25;0.9
1753877733.9795449;-1.786;0.945;-0.035;-1.63;-1.08;-43.1;0.0;0.0;0.0;0.0;-24.0;-62.0;-33.0;7.0;-0.23;0.36;-10.63;0.7;0.45;1.02
1753877733.9845448;-1.786;0.945;-0.035;-1.63;-1.08;-43.1;0.0;0.0;0.0;0.0;-24.0;-62.0;-33.0;7.0;-0.23;0.36;-10.62;0.54;0.37;0.94
1753877733.9895449;-1.786;0.945;-0.035;-1.63;-1.08;-43.1;0.0;0.0;0.0;0.0;-24.0;-62.0;-33.0;7.0;-0.23;0.36;-10.63;0.8;0.22;0.93
1753877733.9945447;-1.786;0.945;-0.035;-1.63;-1.08;-43.1;0.0;0.0;0.0;0.0;-24.0;-62.0;-33.0;7.0;-0.23;0.36;-10.62;0.68;0.27;1.0
1753877733.9995449;-1.786;0.945;-0.035;-1.63;-1.08;-43.1;0.0;0.0;0.0;0.0;-23.7;-62.1;-32.7;8.4;-0.23;0.37;-10.62;0.67;0.22;0.95
1753877734.004545;-1.786;0.945;-0.035;-1.63;-1.08;-43.1;0.0;0.0;0.0;0.0;-24.1;-62.8;-34.1;6.4;-0.24;0.36;-10.61;0.77;0.16;0.97
1753877734.009545;-1.786;0.945;-0.035;-1.63;-1.08;-43.1;0.0;0.0;0.0;0.0;-24.3;-61.6;-33.0;8.6;-0.22;0.36;-10.63;0.73;0.23;1.02
1753877734.0145452;-1.786;0.945;-0.035;-1.63;-1.08;-43.1;0.0;0.0;0.0;0.0;-24.6;-61.9;-32.8;9.3;-0.23;0.38;-10.63;0.71;0.4;0.86
1753877734.0195453;-1.786;0.945;-0.035;-1.63;-1.08;-43.1;0.0;0.0;0.0;0.0;-24.0;-62.3;-32.9;9.4;-0.23;0.36;-10.62;0.68;0.31;0.95
1753877734.0245454;-1.786;0.945;-0.035;-1.63;-1.09;-43.1;0.0;0.0;0.0;0.0;-23.9;-62.6;-33.4;9.7;-0.23;0.36;-10.62;0.63;0.17;0.99
1753877734.0295455;-1.786;0.945;-0.035;-1.63;-1.08;-43.1;0.0;0.0;0.0;0.0;-24.5;-62.4;-33.1;8.3;-0.23;0.36;-10.62;0.7;0.21;0.92
1753877734.0345457;-1.786;0.945;-0.035;-1.63;-1.08;-43.1;0.0;0.0;0.0;0.0;-24.7;-61.7;-32.8;10.1;-0.22;0.36;-10.63;0.67;0.24;0.9
1753877734.0395458;-1.786;0.945;-0.035;-1.63;-1.08;-43.1;0.0;0.0;0.0;0.0;-24.4;-60.7;-33.2;10.1;-0.22;0.36;-10.63;0.71;0.24;0.96
1753877734.044546;-1.786;0.945;-0.035;-1.63;-1.09;-43.1;0.0;0.0;0.0;0.0;-24.8;-61.6;-33.0;14.3;-0.22;0.36;-10.61;0.69;0.17;1.07
1753877734.049546;-1.786;0.945;-0.035;-1.63;-1.09;-43.1;0.0;0.0;0.0;0.0;-24.7;-62.9;-32.1;10.7;-0.22;0.37;-10.63;0.67;0.2;1.04
1753877734.054546;-1.786;0.945;-0.035;-1.63;-1.08;-43.1;0.0;0.0;0.0;0.0;-23.8;-61.9;-33.0;9.2;-0.22;0.37;-10.64;0.67;0.19;0.93
1753877734.0595462;-1.786;0.945;-0.035;-1.63;-1.08;-43.1;0.0;0.0;0.0;0.0;-24.5;-62.8;-33.4;9.7;-0.23;0.37;-10.61;0.68;0.27;0.89
1753877734.0645463;-1.786;0.945;-0.035;-1.63;-1.09;-43.1;0.0;0.0;0.0;0.0;-24.7;-61.7;-32.7;7.6;-0.22;0.37;-10.62;0.62;0.25;1.02
1753877734.0695465;-1.786;0.945;-0.035;-1.63;-1.09;-43.1;0.0;0.0;0.0;0.0;-24.9;-63.1;-31.5;8.2;-0.23;0.37;-10.64;0.71;0.31;0.94
1753877734.0745466;-1.786;0.945;-0.035;-1.63;-1.08;-43.1;0.0;0.0;0.0;0.0;-24.9;-62.1;-32.8;11.9;-0.22;0.36;-10.63;0.73;0.33;1.01
1753877734.0795467;-1.786;0.945;-0.035;-1.63;-1.08;-43.1;0.0;0.0;0.0;0.0;-24.2;-63.6;-31.8;12.0;-0.22;0.36;-10.63;0.57;0.23;0.83
1753877734.0845468;-1.786;0.945;-0.035;-1.63;-1.09;-43.1;0.0;0.0;0.0;0.0;-24.8;-61.2;-31.8;10.8;-0.23;0.36;-10.63;0.73;0.29;0.97
1753877734.089547;-1.786;0.945;-0.035;-1.63;-1.09;-43.1;0.0;0.0;0.0;0.0;-24.8;-62.4;-32.3;10.0;-0.22;0.36;-10.62;0.58;0.23;0.83
1753877734.094547;-1.786;0.945;-0.035;-1.63;-1.09;-43.1;0.0;0.0;0.0;0.0;-24.9;-64.4;-32.0;12.1;-0.23;0.37;-10.62;0.53;0.33;0.79
1753877734.0995471;-1.786;0.945;-0.035;-1.63;-1.09;-43.1;0.0;0.0;0.0;0.0;-25.6;-64.4;-31.9;14.0;-0.22;0.37;-10.64;0.71;0.3;0.98
1753877734.1045473;-1.786;0.945;-0.035;-1.63;-1.09;-43.1;0.0;0.0;0.0;0.0;-24.8;-62.2;-31.8;14.6;-0.23;0.37;-10.64;0.63;0.28;0.87
1753877734.1095448;-1.786;0.945;-0.035;-1.63;-1.09;-43.1;0.0;0.0;0.0;0.0;-25.0;-63.0;-32.0;13.0;-0.22;0.37;-10.63;0.64;0.32;0.9
1753877734.1145449;-1.786;0.945;-0.035;-1.63;-1.09;-43.1;0.0;0.0;0.0;0.0;-25.0;-63.0;-32.0;13.0;-0.22;0.37;-10.63;0.65;0.27;0.88
1753877734.1195447;-1.786;0.945;-0.035;-1.63;-1.09;-43.1;0.0;0.0;0.0;0.0;-25.0;-63.0;-32.0;13.0;-0.23;0.37;-10.63;0.7;0.26;0.96
1753877734.1245449;-1.786;0.945;-0.035;-1.63;-1.09;-43.1;0.0;0.0;0.0;0.0;-25.0;-63.0;-32.0;13.0;-0.22;0.37;-10.62;0.84;0.33;0.96
1753877734.1295447;-1.786;0.945;-0.035;-1.63;-1.09;-43.1;0.0;0.0;0.0;0.0;-25.0;-63.0;-32.0;13.0;-0.22;0.37;-10.62;0.77;0.25;0.91
1753877734.1345448;-1.786;0.945;-0.035;-1.63;-1.09;-43.1;0.0;0.0;0.0;0.0;-25.0;-63.0;-32.0;13.0;-0.23;0.36;-10.62;0.65;0.25;1.03
1753877734.139545;-1.786;0.945;-0.035;-1.63;-1.1;-43.1;0.0;0.0;0.0;0.0;-25.2;-62.7;-31.4;10.8;-0.23;0.35;-10.62;0.57;0.22;1.0
1753877734.144545;-1.786;0.945;-0.035;-1.63;-1.09;-43.1;0.0;0.0;0.0;0.0;-24.7;-63.2;-32.4;13.2;-0.23;0.36;-10.61;0.61;0.31;1.05
1753877734.1495452;-1.786;0.945;-0.035;-1.63;-1.09;-43.1;0.0;0.0;0.0;0.0;-24.9;-63.4;-31.8;10.3;-0.23;0.36;-10.63;0.77;0.2;1.09
1753877734.1545453;-1.786;0.945;-0.035;-1.63;-1.09;-43.1;0.0;0.0;0.0;0.0;-25.0;-63.8;-33.0;11.7;-0.23;0.36;-10.63;0.62;0.35;1.08
1753877734.1595454;-1.786;0.945;-0.035;-1.63;-1.09;-43.1;0.0;0.0;0.0;0.0;-23.5;-62.8;-33.4;17.1;-0.23;0.36;-10.62;0.62;0.28;0.96
1753877734.1645455;-1.786;0.945;-0.035;-1.63;-1.09;-43.1;0.0;0.0;0.0;0.0;-23.8;-62.7;-33.1;7.7;-0.24;0.35;-10.63;0.7;0.23;0.92
1753877734.1695457;-1.786;0.945;-0.035;-1.63;-1.09;-43.1;0.0;0.0;0.0;0.0;-24.2;-62.3;-31.3;10.7;-0.23;0.36;-10.63;0.62;0.18;0.97
1753877734.1745458;-1.786;0.945;-0.035;-1.63;-1.09;-43.1;0.0;0.0;0.0;0.0;-23.9;-62.6;-31.7;10.9;-0.23;0.36;-10.62;0.55;0.31;0.94
1753877734.1795459;-1.786;0.945;-0.035;-1.63;-1.09;-43.1;0.0;0.0;0.0;0.0;-25.5;-63.1;-32.6;8.3;-0.23;0.36;-10.61;0.71;0.29;1.01
1753877734.184546;-1.786;0.945;-0.035;-1.63;-1.09;-43.1;0.0;0.0;0.0;0.0;-24.6;-62.4;-32.4;11.6;-0.24;0.36;-10.63;0.58;0.33;0.97
1753877734.189546;-1.786;0.945;-0.035;-1.63;-1.08;-43.1;0.0;0.0;0.0;0.0;-23.6;-62.5;-32.9;15.0;-0.23;0.36;-10.63;0.62;0.29;0.95
1753877734.1945462;-1.786;0.945;-0.035;-1.63;-1.08;-43.1;0.0;0.0;0.0;0.0;-23.5;-63.1;-33.4;11.8;-0.23;0.36;-10.64;0.63;0.27;0.91
1753877734.1995463;-1.786;0.945;-0.035;-1.63;-1.08;-43.1;0.0;0.0;0.0;0.0;-25.3;-61.8;-32.5;10.2;-0.23;0.37;-10.62;0.66;0.26;0.95
1753877734.2045465;-1.786;0.945;-0.035;-1.63;-1.08;-43.1;0.0;0.0;0.0;0.0;-23.9;-61.9;-32.4;7.7;-0.23;0.36;-10.62;0.73;0.29;0.98
1753877734.2095466;-1.786;0.945;-0.035;-1.63;-1.09;-43.1;0.0;0.0;0.0;0.0;-23.4;-61.9;-32.3;8.2;-0.23;0.37;-10.62;0.59;0.31;1.05
1753877734.2145467;-1.786;0.945;-0.035;-1.63;-1.08;-43.1;0.0;0.0;0.0;0.0;-23.9;-61.8;-32.5;7.9;-0.24;0.36;-10.61;0.57;0.34;1.04
1753877734.2195468;-1.786;0.945;-0.035;-1.63;-1.09;-43.1;0.0;0.0;0.0;0.0;-23.8;-61.7;-33.3;8.4;-0.23;0.36;-10.62;0.61;0.41;1.06
1753877734.224547;-1.786;0.945;-0.035;-1.63;-1.09;-43.1;0.0;0.0;0.0;0.0;-24.2;-60.8;-33.4;12.5;-0.21;0.36;-10.63;0.73;0.37;1.0
1753877734.229547;-1.786;0.945;-0.035;-1.63;-1.09;-43.1;0.0;0.0;0.0;0.0;-23.6;-61.3;-32.4;10.8;-0.22;0.36;-10.63;0.58;0.36;0.99
1753877734.2345471;-1.786;0.945;-0.035;-1.63;-1.09;-43.1;0.0;0.0;0.0;0.0;-23.7;-61.0;-33.2;8.1;-0.23;0.36;-10.63;0.58;0.37;0.97
1753877734.2395473;-1.786;0.945;-0.035;-1.63;-1.08;-43.1;0.0;0.0;0.0;0.0;-23.4;-61.5;-33.6;12.3;-0.23;0.36;-10.64;0.69;0.29;0.94
1753877734.2445474;-1.786;0.945;-0.035;-1.63;-1.07;-43.1;0.0;0.0;0.0;0.0;-23.4;-60.8;-32.0;9.7;-0.23;0.36;-10.63;0.48;0.35;0.86
1753877734.2495475;-1.786;0.945;-0.035;-1.63;-1.08;-43.1;0.0;0.0;0.0;0.0;-22.1;-61.0;-33.4;4.9;-0.23;0.36;-10.61;0.58;0.34;0.95
1753877734.2545476;-1.786;0.945;-0.035;-1.63;-1.08;-43.1;0.0;0.0;0.0;0.0;-23.5;-61.6;-33.6;7.2;-0.24;0.36;-10.63;0.73;0.39;0.84
1753877734.2595477;-1.786;0.945;-0.035;-1.63;-1.09;-43.1;0.0;0.0;0.0;0.0;-23.3;-61.8;-32.9;10.9;-0.23;0.36;-10.64;0.47;0.35;0.95
1753877734.2645478;-1.786;0.945;-0.035;-1.63;-1.08;-43.1;0.0;0.0;0.0;0.0;-23.1;-61.4;-33.4;7.2;-0.23;0.36;-10.63;0.51;0.3;0.95
1753877734.269548;-1.786;0.945;-0.035;-1.63;-1.09;-43.1;0.0;0.0;0.0;0.0;-22.8;-61.3;-34.4;10.2;-0.23;0.36;-10.64;0.69;0.33;0.92
1753877734.274548;-1.786;0.945;-0.035;-1.63;-1.09;-43.1;0.0;0.0;0.0;0.0;-22.9;-60.5;-32.8;7.5;-0.23;0.36;-10.63;0.55;0.42;0.98
1753877734.2795482;-1.786;0.945;-0.035;-1.63;-1.07;-43.1;0.0;0.0;0.0;0.0;-22.8;-61.9;-34.5;6.3;-0.23;0.36;-10.64;0.53;0.46;0.94
1753877734.2845483;-1.786;0.945;-0.035;-1.63;-1.07;-43.1;0.0;0.0;0.0;0.0;-23.6;-60.3;-33.3;7.9;-0.23;0.37;-10.63;0.63;0.48;0.98
1753877734.2895484;-1.786;0.945;-0.035;-1.63;-1.09;-43.1;0.0;0.0;0.0;0.0;-23.4;-61.1;-33.4;7.3;-0.23;0.36;-10.63;0.67;0.31;0.97
1753877734.294545;-1.786;0.945;-0.035;-1.63;-1.08;-43.1;0.0;0.0;0.0;0.0;-23.0;-61.0;-34.0;7.0;-0.23;0.36;-10.63;0.57;0.37;0.88
1753877734.2995448;-1.786;0.945;-0.035;-1.63;-1.08;-43.1;0.0;0.0;0.0;0.0;-23.0;-61.0;-34.0;7.0;-0.22;0.36;-10.63;0.57;0.38;0.99
1753877734.304545;-1.786;0.945;-0.035;-1.63;-1.08;-43.1;0.0;0.0;0.0;0.0;-23.0;-61.0;-34.0;7.0;-0.22;0.35;-10.63;0.65;0.25;0.97
1753877734.3095448;-1.786;0.945;-0.035;-1.63;-1.08;-43.1;0.0;0.0;0.0;0.0;-23.0;-61.0;-34.0;7.0;-0.22;0.36;-10.63;0.61;0.48;0.98
1753877734.314545;-1.786;0.945;-0.035;-1.63;-1.08;-43.1;0.0;0.0;0.0;0.0;-23.0;-61.0;-34.0;7.0;-0.22;0.36;-10.64;0.74;0.21;0.96
1753877734.3195448;-1.786;0.945;-0.035;-1.63;-1.08;-43.1;0.0;0.0;0.0;0.0;-23.0;-61.0;-34.0;7.0;-0.22;0.37;-10.64;0.81;0.23;1.07
1753877734.324545;-1.786;0.945;-0.035;-1.63;-1.08;-43.1;0.0;0.0;0.0;0.0;-23.0;-61.0;-34.0;7.0;-0.22;0.36;-10.63;0.51;0.31;1.05
1753877734.3295448;-1.786;0.945;-0.035;-1.63;-1.08;-43.1;0.0;0.0;0.0;0.0;-23.0;-61.0;-34.0;7.0;-0.22;0.37;-10.62;0.47;0.43;0.99
1753877734.334545;-1.786;0.945;-0.035;-1.63;-1.08;-43.1;0.0;0.0;0.0;0.0;-23.0;-61.0;-34.0;7.0;-0.22;0.37;-10.62;0.58;0.27;0.99
1753877734.3395448;-1.786;0.945;-0.035;-1.63;-1.08;-43.1;0.0;0.0;0.0;0.0;-23.0;-61.0;-34.0;7.0;-0.22;0.37;-10.62;0.65;0.29;0.93
1753877734.344545;-1.786;0.945;-0.035;-1.63;-1.08;-43.1;0.0;0.0;0.0;0.0;-23.0;-61.0;-34.0;7.0;-0.23;0.37;-10.63;0.7;0.41;1.1
1753877734.3495448;-1.786;0.945;-0.035;-1.63;-1.08;-43.1;0.0;0.0;0.0;0.0;-23.0;-61.0;-34.0;7.0;-0.23;0.36;-10.62;0.72;0.45;0.96
1753877734.3545449;-1.786;0.945;-0.035;-1.63;-1.08;-43.1;0.0;0.0;0.0;0.0;-23.0;-61.0;-34.0;7.0;-0.23;0.37;-10.62;0.69;0.47;0.93
1753877734.3595448;-1.786;0.945;-0.035;-1.63;-1.08;-43.1;0.0;0.0;0.0;0.0;-23.0;-61.0;-34.0;7.0;-0.23;0.37;-10.62;0.79;0.45;0.93
1753877734.3645449;-1.786;0.945;-0.035;-1.63;-1.08;-43.1;0.0;0.0;0.0;0.0;-23.0;-61.0;-34.0;7.0;-0.23;0.37;-10.62;0.65;0.28;1.02
1753877734.3695447;-1.786;0.945;-0.035;-1.63;-1.08;-43.1;0.0;0.0;0.0;0.0;-23.0;-61.0;-34.0;7.0;-0.23;0.36;-10.61;0.72;0.32;0.98
1753877734.3745449;-1.786;0.945;-0.035;-1.63;-1.08;-43.1;0.0;0.0;0.0;0.0;-23.0;-61.0;-34.0;7.0;-0.22;0.36;-10.62;0.73;0.27;0.97
1753877734.3795447;-1.786;0.945;-0.035;-1.63;-1.08;-43.1;0.0;0.0;0.0;0.0;-23.0;-61.0;-34.0;7.0;-0.22;0.36;-10.63;0.71;0.32;0.93
1753877734.3845448;-1.786;0.945;-0.035;-1.63;-1.08;-43.1;0.0;0.0;0.0;0.0;-23.0;-61.0;-34.0;7.0;-0.22;0.36;-10.63;0.71;0.25;0.93
1753877734.3895447;-1.786;0.945;-0.035;-1.63;-1.08;-43.1;0.0;0.0;0.0;0.0;-23.0;-61.0;-34.0;7.0;-0.22;0.35;-10.63;0.66;0.26;0.95
1753877734.3945448;-1.786;0.945;-0.035;-1.63;-1.08;-43.1;0.0;0.0;0.0;0.0;-23.0;-61.0;-34.0;7.0;-0.22;0.35;-10.63;0.66;0.33;0.89
1753877734.3995447;-1.786;0.945;-0.035;-1.63;-1.08;-43.1;0.0;0.0;0.0;0.0;-23.0;-61.0;-34.0;7.0;-0.22;0.35;-10.63;0.68;0.25;1.11
1753877734.4045448;-1.786;0.945;-0.035;-1.63;-1.08;-43.1;0.0;0.0;0.0;0.0;-23.0;-61.0;-34.0;7.0;-0.22;0.35;-10.64;0.77;0.34;0.9
1753877734.4095447;-1.786;0.945;-0.035;-1.63;-1.08;-43.1;0.0;0.0;0.0;0.0;-23.0;-61.0;-34.0;7.0;-0.21;0.36;-10.64;0.75;0.4;0.87
1753877734.4145448;-1.786;0.945;-0.035;-1.63;-1.08;-43.1;0.0;0.0;0.0;0.0;-23.0;-61.0;-34.0;7.0;-0.22;0.36;-10.64;0.71;0.3;1.01
1753877734.419545;-1.786;0.945;-0.035;-1.63;-1.08;-43.1;0.0;0.0;0.0;0.0;-23.0;-61.0;-34.0;7.0;-0.22;0.36;-10.64;0.85;0.34;0.74
1753877734.4245448;-1.786;0.945;-0.035;-1.63;-1.08;-43.1;0.0;0.0;0.0;0.0;-23.0;-61.0;-34.0;7.0;-0.21;0.36;-10.64;0.63;0.33;0.83
1753877734.429545;-1.786;0.945;-0.035;-1.63;-1.08;-43.1;0.0;0.0;0.0;0.0;-23.0;-61.0;-34.0;7.0;-0.22;0.36;-10.65;0.64;0.41;0.9
1753877734.4345448;-1.786;0.945;-0.035;-1.63;-1.08;-43.1;0.0;0.0;0.0;0.0;-23.0;-61.0;-34.0;7.0;-0.22;0.36;-10.64;0.74;0.35;0.96
1753877734.439545;-1.786;0.945;-0.035;-1.63;-1.08;-43.1;0.0;0.0;0.0;0.0;-23.0;-61.0;-34.0;7.0;-0.22;0.36;-10.65;0.66;0.28;0.96
1753877734.4445448;-1.786;0.945;-0.035;-1.63;-1.08;-43.1;0.0;0.0;0.0;0.0;-23.0;-61.0;-34.0;7.0;-0.22;0.37;-10.65;0.67;0.36;0.96
1753877734.449545;-1.786;0.945;-0.035;-1.63;-1.08;-43.1;0.0;0.0;0.0;0.0;-23.0;-61.0;-34.0;7.0;-0.22;0.37;-10.64;0.78;0.2;0.95
1753877734.4545448;-1.786;0.945;-0.035;-1.63;-1.08;-43.1;0.0;0.0;0.0;0.0;-23.0;-61.0;-34.0;7.0;-0.22;0.37;-10.63;0.7;0.18;0.9
1753877734.459545;-1.786;0.945;-0.035;-1.63;-1.08;-43.1;0.0;0.0;0.0;0.0;-23.0;-61.0;-34.0;7.0;-0.22;0.37;-10.63;0.64;0.33;1.06
1753877734.4645448;-1.786;0.945;-0.035;-1.63;-1.08;-43.1;0.0;0.0;0.0;0.0;-23.0;-61.0;-34.0;7.0;-0.22;0.37;-10.63;0.78;0.24;0.95
1753877734.469545;-1.786;0.945;-0.035;-1.63;-1.08;-43.1;0.0;0.0;0.0;0.0;-23.0;-61.0;-34.0;7.0;-0.22;0.37;-10.63;0.68;0.34;0.99
1753877734.474545;-1.786;0.945;-0.035;-1.63;-1.08;-43.1;0.0;0.0;0.0;0.0;-23.0;-61.0;-34.0;7.0;-0.22;0.38;-10.61;0.76;0.45;1.1
1753877734.479545;-1.786;0.945;-0.035;-1.63;-1.08;-43.1;0.0;0.0;0.0;0.0;-23.0;-61.0;-34.0;7.0;-0.22;0.36;-10.62;0.73;0.32;0.99
1753877734.4845452;-1.786;0.945;-0.035;-1.63;-1.08;-43.1;0.0;0.0;0.0;0.0;-23.0;-61.0;-34.0;7.0;-0.21;0.37;-10.62;0.75;0.29;1.03
1753877734.4895453;-1.786;0.945;-0.035;-1.63;-1.08;-43.1;0.0;0.0;0.0;0.0;-23.0;-61.0;-34.0;7.0;-0.22;0.37;-10.61;0.72;0.31;0.86
1753877734.4945447;-1.786;0.945;-0.035;-1.63;-1.08;-43.1;0.0;0.0;0.0;0.0;-23.0;-61.0;-34.0;7.0;-0.22;0.37;-10.62;0.81;0.33;0.86
1753877734.4995449;-1.786;0.945;-0.035;-1.63;-1.08;-43.1;0.0;0.0;0.0;0.0;-23.0;-61.0;-34.0;7.0;-0.22;0.37;-10.63;0.86;0.32;0.97
1753877734.5045447;-1.786;0.945;-0.035;-1.63;-1.08;-43.1;0.0;0.0;0.0;0.0;-23.0;-61.0;-34.0;7.0;-0.22;0.36;-10.63;0.8;0.35;0.93
1753877734.5095448;-1.786;0.945;-0.035;-1.63;-1.08;-43.1;0.0;0.0;0.0;0.0;-23.0;-61.0;-34.0;7.0;-0.22;0.36;-10.63;0.67;0.32;1.13
1753877734.5145447;-1.786;0.945;-0.035;-1.63;-1.08;-43.1;0.0;0.0;0.0;0.0;-23.0;-61.0;-34.0;7.0;-0.22;0.36;-10.64;0.71;0.31;0.86
1753877734.5195448;-1.786;0.945;-0.035;-1.63;-1.08;-43.1;0.0;0.0;0.0;0.0;-22.7;-61.2;-34.0;7.6;-0.23;0.37;-10.63;0.75;0.38;0.81
1753877734.524545;-1.786;0.945;-0.035;-1.63;-1.08;-43.1;0.0;0.0;0.0;0.0;-23.0;-60.8;-34.0;6.7;-0.22;0.36;-10.63;0.76;0.38;0.91
1753877734.529545;-1.786;0.945;-0.035;-1.63;-1.08;-43.1;0.0;0.0;0.0;0.0;-23.3;-60.9;-34.0;7.4;-0.22;0.37;-10.62;0.78;0.24;0.94
1753877734.5345452;-1.786;0.945;-0.035;-1.63;-1.08;-43.1;0.0;0.0;0.0;0.0;-23.1;-60.7;-34.0;10.4;-0.22;0.37;-10.65;0.64;0.38;0.99
1753877734.5395453;-1.786;0.945;-0.035;-1.63;-1.08;-43.1;0.0;0.0;0.0;0.0;-23.3;-62.0;-34.0;9.3;-0.23;0.37;-10.65;0.58;0.29;0.85
1753877734.5445454;-1.786;0.945;-0.035;-1.63;-1.08;-43.1;0.0;0.0;0.0;0.0;-23.8;-61.6;-34.0;7.3;-0.23;0.36;-10.64;0.81;0.34;0.95
1753877734.5495455;-1.786;0.945;-0.035;-1.63;-1.08;-43.1;0.0;0.0;0.0;0.0;-23.2;-61.3;-34.0;8.9;-0.22;0.35;-10.63;0.69;0.32;0.92
1753877734.5545456;-1.786;0.945;-0.035;-1.63;-1.08;-43.1;0.0;0.0;0.0;0.0;-23.4;-61.7;-34.0;7.8;-0.23;0.36;-10.64;0.77;0.33;1.13
1753877734.5595458;-1.786;0.945;-0.035;-1.64;-1.08;-43.1;0.0;0.0;0.0;0.0;-24.0;-61.5;-34.0;9.0;-0.22;0.37;-10.63;0.72;0.27;0.78
1753877734.5645459;-1.786;0.945;-0.035;-1.63;-1.08;-43.1;0.0;0.0;0.0;0.0;-23.5;-61.8;-34.0;7.8;-0.23;0.36;-10.64;0.7;0.26;0.81
1753877734.569546;-1.786;0.945;-0.035;-1.63;-1.08;-43.1;0.0;0.0;0.0;0.0;-24.2;-61.1;-34.0;6.4;-0.22;0.35;-10.64;0.69;0.3;0.87
1753877734.574546;-1.786;0.945;-0.035;-1.64;-1.08;-43.1;0.0;0.0;0.0;0.0;-23.6;-62.1;-34.0;9.8;-0.23;0.37;-10.62;0.8;0.34;0.91
1753877734.5795462;-1.786;0.945;-0.035;-1.64;-1.07;-43.1;0.0;0.0;0.0;0.0;-23.5;-60.9;-34.0;8.9;-0.22;0.36;-10.65;0.84;0.23;1.0
1753877734.5845463;-1.786;0.945;-0.035;-1.64;-1.08;-43.1;0.0;0.0;0.0;0.0;-23.5;-62.6;-34.0;10.8;-0.23;0.36;-10.64;0.78;0.29;1.11
1753877734.5895464;-1.786;0.945;-0.035;-1.64;-1.07;-43.1;0.0;0.0;0.0;0.0;-22.9;-61.9;-34.0;9.4;-0.23;0.35;-10.64;0.72;0.28;1.11
1753877734.5945466;-1.786;0.945;-0.035;-1.64;-1.07;-43.1;0.0;0.0;0.0;0.0;-24.3;-62.4;-34.0;9.1;-0.24;0.35;-10.62;0.65;0.4;1.05
1753877734.5995467;-1.786;0.945;-0.035;-1.63;-1.08;-43.1;0.0;0.0;0.0;0.0;-23.5;-61.9;-34.0;10.2;-0.23;0.36;-10.64;0.65;0.36;0.93
1753877734.6045468;-1.786;0.945;-0.035;-1.64;-1.07;-43.1;0.0;0.0;0.0;0.0;-24.4;-62.1;-34.0;10.5;-0.23;0.35;-10.64;0.66;0.36;1.01
1753877734.609547;-1.786;0.945;-0.035;-1.63;-1.07;-43.1;0.0;0.0;0.0;0.0;-24.2;-62.1;-34.0;11.9;-0.23;0.36;-10.64;0.71;0.33;0.93
1753877734.614547;-1.786;0.945;-0.035;-1.64;-1.08;-43.1;0.0;0.0;0.0;0.0;-24.1;-62.4;-34.0;11.0;-0.23;0.36;-10.63;0.8;0.38;1.18
1753877734.6195471;-1.786;0.945;-0.035;-1.64;-1.07;-43.1;0.0;0.0;0.0;0.0;-23.6;-62.0;-34.0;12.3;-0.24;0.37;-10.64;0.6;0.45;1.07
1753877734.6245472;-1.786;0.945;-0.035;-1.64;-1.07;-43.1;0.0;0.0;0.0;0.0;-23.8;-61.8;-34.0;9.5;-0.24;0.36;-10.63;0.7;0.27;0.95
1753877734.6295474;-1.786;0.945;-0.035;-1.64;-1.08;-43.1;0.0;0.0;0.0;0.0;-24.2;-63.0;-34.0;11.9;-0.23;0.36;-10.64;0.82;0.32;1.05
1753877734.6345475;-1.786;0.945;-0.035;-1.64;-1.07;-43.1;0.0;0.0;0.0;0.0;-24.2;-62.4;-34.0;11.4;-0.24;0.36;-10.64;0.7;0.26;1.1
1753877734.6395476;-1.786;0.945;-0.035;-1.63;-1.07;-43.1;0.0;0.0;0.0;0.0;-24.6;-62.8;-34.0;12.9;-0.23;0.36;-10.63;0.78;0.28;1.0
1753877734.6445477;-1.786;0.945;-0.035;-1.64;-1.08;-43.1;0.0;0.0;0.0;0.0;-24.8;-63.3;-34.0;9.3;-0.23;0.35;-10.64;0.69;0.18;0.95
1753877734.6495478;-1.786;0.945;-0.035;-1.63;-1.08;-43.1;0.0;0.0;0.0;0.0;-24.8;-62.9;-34.0;12.5;-0.24;0.35;-10.63;0.7;0.32;1.09
1753877734.654548;-1.786;0.945;-0.035;-1.64;-1.07;-43.1;0.0;0.0;0.0;0.0;-25.4;-63.5;-34.0;11.7;-0.23;0.35;-10.61;0.76;0.4;1.0
1753877734.659548;-1.786;0.945;-0.035;-1.64;-1.07;-43.1;0.0;0.0;0.0;0.0;-24.0;-63.5;-34.0;11.3;-0.23;0.35;-10.62;0.75;0.28;1.04
1753877734.6645482;-1.786;0.945;-0.035;-1.64;-1.07;-43.1;0.0;0.0;0.0;0.0;-24.2;-62.7;-34.0;13.1;-0.24;0.34;-10.64;0.79;0.38;1.11
1753877734.6695483;-1.786;0.945;-0.035;-1.64;-1.07;-43.1;0.0;0.0;0.0;0.0;-25.2;-63.2;-34.0;8.8;-0.24;0.36;-10.64;0.76;0.3;1.26
1753877734.6745484;-1.786;0.945;-0.035;-1.64;-1.07;-43.1;0.0;0.0;0.0;0.0;-24.7;-62.6;-34.0;12.5;-0.24;0.36;-10.64;0.76;0.21;1.16
1753877734.6795485;-1.786;0.945;-0.035;-1.64;-1.07;-43.1;0.0;0.0;0.0;0.0;-25.3;-63.4;-34.0;12.6;-0.24;0.35;-10.64;0.71;0.24;1.0
1753877734.6845448;-1.786;0.945;-0.035;-1.64;-1.07;-43.1;0.0;0.0;0.0;0.0;-25.0;-63.0;-34.0;13.0;-0.24;0.35;-10.63;0.72;0.28;1.15
1753877734.689545;-1.786;0.945;-0.035;-1.64;-1.07;-43.1;0.0;0.0;0.0;0.0;-25.0;-63.0;-34.0;13.0;-0.24;0.35;-10.63;0.82;0.33;1.0
1753877734.6945448;-1.786;0.945;-0.035;-1.64;-1.07;-43.1;0.0;0.0;0.0;0.0;-25.0;-63.0;-34.0;13.0;-0.24;0.35;-10.62;0.75;0.32;1.03
1753877734.699545;-1.786;0.945;-0.035;-1.64;-1.07;-43.1;0.0;0.0;0.0;0.0;-25.0;-63.0;-34.0;13.0;-0.24;0.35;-10.62;0.77;0.33;1.08
1753877734.704545;-1.786;0.945;-0.035;-1.63;-1.07;-43.1;0.0;0.0;0.0;0.0;-26.1;-63.1;-34.0;13.3;-0.26;0.35;-10.63;0.82;0.36;1.11
1753877734.7095451;-1.786;0.945;-0.035;-1.63;-1.07;-43.1;0.0;0.0;0.0;0.0;-23.6;-63.2;-34.0;14.5;-0.24;0.36;-10.61;0.82;0.34;1.17
1753877734.7145452;-1.786;0.945;-0.035;-1.64;-1.07;-43.1;0.0;0.0;0.0;0.0;-24.4;-62.9;-34.0;9.3;-0.22;0.36;-10.62;0.85;0.28;1.02
1753877734.7195454;-1.786;0.945;-0.035;-1.64;-1.06;-43.1;0.0;0.0;0.0;0.0;-25.2;-62.5;-34.0;15.0;-0.23;0.35;-10.64;0.84;0.32;0.93
1753877734.7245455;-1.786;0.945;-0.035;-1.64;-1.07;-43.1;0.0;0.0;0.0;0.0;-24.9;-62.7;-34.0;18.0;-0.24;0.34;-10.63;0.75;0.33;1.04
1753877734.7295456;-1.786;0.945;-0.035;-1.64;-1.07;-43.1;0.0;0.0;0.0;0.0;-24.5;-63.0;-34.0;16.4;-0.23;0.35;-10.62;0.84;0.36;1.14
1753877734.7345457;-1.786;0.945;-0.035;-1.64;-1.08;-43.1;0.0;0.0;0.0;0.0;-25.0;-61.7;-34.0;11.2;-0.23;0.34;-10.63;0.81;0.28;1.0
1753877734.7395458;-1.786;0.945;-0.035;-1.63;-1.06;-43.1;0.0;0.0;0.0;0.0;-23.5;-63.7;-34.0;13.4;-0.23;0.36;-10.63;0.8;0.29;1.14
1753877734.744546;-1.786;0.945;-0.035;-1.64;-1.07;-43.1;0.0;0.0;0.0;0.0;-25.5;-61.6;-34.0;11.8;-0.22;0.35;-10.61;0.71;0.3;1.14
1753877734.749546;-1.786;0.945;-0.035;-1.62;-1.07;-43.1;0.0;0.0;0.0;0.0;-25.5;-61.6;-34.0;16.3;-0.23;0.34;-10.64;0.67;0.23;1.03
1753877734.7545462;-1.786;0.945;-0.035;-1.63;-1.07;-43.1;0.0;0.0;0.0;0.0;-24.8;-62.0;-34.0;11.8;-0.23;0.35;-10.62;0.85;0.36;0.98
1753877734.7595463;-1.786;0.945;-0.035;-1.64;-1.07;-43.1;0.0;0.0;0.0;0.0;-23.2;-62.2;-34.0;10.7;-0.23;0.34;-10.61;0.8;0.36;1.06
1753877734.7645464;-1.786;0.945;-0.035;-1.63;-1.07;-43.1;0.0;0.0;0.0;0.0;-25.2;-63.5;-34.0;10.8;-0.23;0.36;-10.66;0.74;0.32;1.01
1753877734.7695465;-1.786;0.945;-0.035;-1.64;-1.07;-43.1;0.0;0.0;0.0;0.0;-24.7;-64.1;-34.0;14.8;-0.23;0.34;-10.63;0.85;0.29;0.98
1753877734.7745466;-1.786;0.945;-0.035;-1.64;-1.07;-43.1;0.0;0.0;0.0;0.0;-22.9;-63.0;-34.0;17.3;-0.23;0.36;-10.61;0.73;0.24;0.98
1753877734.7795467;-1.786;0.945;-0.035;-1.63;-1.07;-43.1;0.0;0.0;0.0;0.0;-24.8;-63.0;-34.0;8.3;-0.23;0.35;-10.63;0.72;0.29;0.96
1753877734.7845469;-1.786;0.945;-0.035;-1.63;-1.07;-43.1;0.0;0.0;0.0;0.0;-23.9;-61.7;-34.0;7.8;-0.23;0.36;-10.63;0.83;0.22;0.99
1753877734.789547;-1.786;0.945;-0.035;-1.63;-1.07;-43.1;0.0;0.0;0.0;0.0;-23.8;-62.3;-34.0;8.6;-0.23;0.37;-10.65;0.75;0.23;0.99
1753877734.794547;-1.786;0.945;-0.035;-1.63;-1.07;-43.1;0.0;0.0;0.0;0.0;-24.3;-62.1;-34.0;11.5;-0.21;0.36;-10.64;0.74;0.32;1.01
1753877734.7995472;-1.786;0.945;-0.035;-1.62;-1.08;-43.1;0.0;0.0;0.0;0.0;-23.3;-63.5;-34.0;13.4;-0.23;0.35;-10.64;0.68;0.22;1.04
1753877734.8045473;-1.786;0.945;-0.035;-1.63;-1.08;-43.1;0.0;0.0;0.0;0.0;-22.1;-63.0;-34.0;10.7;-0.25;0.35;-10.63;0.66;0.37;1.04
1753877734.8095474;-1.786;0.945;-0.035;-1.63;-1.08;-43.1;0.0;0.0;0.0;0.0;-22.3;-62.3;-34.0;13.0;-0.21;0.35;-10.62;0.8;0.29;1.24
1753877734.8145475;-1.786;0.945;-0.035;-1.63;-1.08;-43.1;0.0;0.0;0.0;0.0;-25.0;-61.1;-34.0;11.8;-0.22;0.37;-10.63;0.61;0.23;0.99
1753877734.8195477;-1.786;0.945;-0.035;-1.61;-1.08;-43.1;0.0;0.0;0.0;0.0;-24.1;-63.3;-34.0;13.5;-0.23;0.36;-10.66;0.8;0.34;1.04
1753877734.8245478;-1.786;0.945;-0.035;-1.62;-1.07;-43.1;0.0;0.0;0.0;0.0;-24.5;-62.5;-34.0;10.5;-0.21;0.35;-10.64;0.61;0.19;0.96
1753877734.829548;-1.786;0.945;-0.035;-1.62;-1.08;-43.1;0.0;0.0;0.0;0.0;-23.6;-63.8;-34.0;12.2;-0.21;0.35;-10.64;0.57;0.28;1.0
1753877734.834548;-1.786;0.945;-0.035;-1.63;-1.08;-43.1;0.0;0.0;0.0;0.0;-22.7;-63.7;-34.0;9.5;-0.22;0.36;-10.65;0.64;0.25;1.15
1753877734.839548;-1.786;0.945;-0.035;-1.62;-1.08;-43.1;0.0;0.0;0.0;0.0;-24.2;-63.5;-34.0;10.9;-0.22;0.37;-10.64;0.63;0.29;0.95
1753877734.8445482;-1.786;0.945;-0.035;-1.62;-1.08;-43.1;0.0;0.0;0.0;0.0;-24.2;-63.8;-34.0;12.1;-0.22;0.36;-10.65;0.61;0.24;1.08
1753877734.8495483;-1.786;0.945;-0.035;-1.61;-1.08;-43.1;0.0;0.0;0.0;0.0;-23.0;-62.2;-34.0;9.6;-0.21;0.37;-10.64;0.65;0.25;0.99
1753877734.8545485;-1.786;0.945;-0.035;-1.62;-1.08;-43.1;0.0;0.0;0.0;0.0;-22.6;-62.5;-34.0;8.4;-0.22;0.36;-10.66;0.62;0.23;0.98
1753877734.8595486;-1.786;0.945;-0.035;-1.62;-1.08;-43.1;0.0;0.0;0.0;0.0;-23.7;-63.3;-34.0;9.7;-0.21;0.35;-10.64;0.61;0.27;1.07
1753877734.8645487;-1.786;0.945;-0.035;-1.63;-1.07;-43.1;0.0;0.0;0.0;0.0;-23.3;-63.0;-34.0;4.0;-0.21;0.35;-10.65;0.64;0.23;1.09
1753877734.8695447;-1.786;0.945;-0.035;-1.62;-1.08;-43.1;0.0;0.0;0.0;0.0;-23.0;-63.0;-34.0;9.0;-0.21;0.36;-10.65;0.67;0.25;1.0
1753877734.8745449;-1.786;0.945;-0.035;-1.62;-1.08;-43.1;0.0;0.0;0.0;0.0;-23.0;-63.0;-34.0;9.0;-0.21;0.36;-10.65;0.71;0.3;0.84
1753877734.8795447;-1.786;0.945;-0.035;-1.62;-1.08;-43.1;0.0;0.0;0.0;0.0;-23.0;-63.0;-34.0;9.0;-0.22;0.36;-10.64;0.82;0.22;0.95
1753877734.8845448;-1.786;0.945;-0.035;-1.62;-1.08;-43.1;0.0;0.0;0.0;0.0;-23.5;-62.9;-34.3;13.9;-0.23;0.34;-10.65;0.85;0.27;0.88
1753877734.889545;-1.786;0.945;-0.035;-1.62;-1.07;-43.1;0.0;0.0;0.0;0.0;-23.7;-62.6;-33.7;4.4;-0.22;0.35;-10.65;0.91;0.19;0.99
1753877734.894545;-1.786;0.945;-0.035;-1.62;-1.08;-43.1;0.0;0.0;0.0;0.0;-22.2;-62.2;-33.9;8.7;-0.24;0.37;-10.64;0.8;0.22;0.9
1753877734.8995452;-1.786;0.945;-0.035;-1.61;-1.07;-43.1;0.0;0.0;0.0;0.0;-22.1;-61.6;-33.9;11.0;-0.23;0.37;-10.62;0.78;0.22;1.07
1753877734.9045453;-1.786;0.945;-0.035;-1.62;-1.08;-43.1;0.0;0.0;0.0;0.0;-23.9;-63.9;-33.9;12.6;-0.23;0.37;-10.66;0.77;0.2;1.06
1753877734.9095454;-1.786;0.945;-0.035;-1.62;-1.08;-43.1;0.0;0.0;0.0;0.0;-24.1;-62.4;-33.5;8.4;-0.2;0.35;-10.65;0.74;0.29;1.01
1753877734.9145455;-1.786;0.945;-0.035;-1.62;-1.07;-43.1;0.0;0.0;0.0;0.0;-23.1;-62.9;-34.1;6.8;-0.24;0.37;-10.63;0.78;0.31;0.93
1753877734.9195457;-1.786;0.945;-0.035;-1.61;-1.08;-43.1;0.0;0.0;0.0;0.0;-22.4;-61.4;-34.2;5.7;-0.23;0.37;-10.63;0.79;0.25;0.99
1753877734.9245458;-1.786;0.945;-0.035;-1.63;-1.08;-43.1;0.0;0.0;0.0;0.0;-23.8;-61.7;-33.6;8.0;-0.23;0.35;-10.65;0.81;0.21;0.94
1753877734.9295459;-1.786;0.945;-0.035;-1.62;-1.07;-43.1;0.0;0.0;0.0;0.0;-22.5;-61.8;-33.6;16.5;-0.23;0.35;-10.66;0.77;0.24;0.92
1753877734.934546;-1.786;0.945;-0.035;-1.63;-1.08;-43.1;0.0;0.0;0.0;0.0;-23.7;-63.8;-33.5;8.8;-0.23;0.36;-10.63;0.83;0.19;1.02
1753877734.939546;-1.786;0.945;-0.035;-1.63;-1.07;-43.1;0.0;0.0;0.0;0.0;-22.4;-62.8;-33.9;7.5;-0.23;0.36;-10.68;0.85;0.23;0.85
1753877734.9445462;-1.786;0.945;-0.035;-1.62;-1.08;-43.1;0.0;0.0;0.0;0.0;-22.7;-61.6;-33.5;14.2;-0.23;0.35;-10.65;0.86;0.29;0.95
1753877734.9495463;-1.786;0.945;-0.035;-1.61;-1.07;-43.1;0.0;0.0;0.0;0.0;-24.6;-63.6;-33.4;17.1;-0.24;0.37;-10.66;0.78;0.3;0.99
1753877734.9545465;-1.786;0.945;-0.035;-1.62;-1.07;-43.1;0.0;0.0;0.0;0.0;-24.3;-60.5;-33.1;12.7;-0.24;0.39;-10.65;0.78;0.3;1.01
1753877734.9595466;-1.786;0.945;-0.035;-1.62;-1.08;-43.1;0.0;0.0;0.0;0.0;-23.3;-63.6;-33.7;8.0;-0.26;0.37;-10.65;0.83;0.2;0.93
1753877734.9645467;-1.786;0.945;-0.035;-1.62;-1.08;-43.1;0.0;0.0;0.0;0.0;-23.2;-62.1;-33.2;11.5;-0.23;0.37;-10.66;0.7;0.3;0.91
1753877734.9695468;-1.786;0.945;-0.035;-1.63;-1.07;-43.1;0.0;0.0;0.0;0.0;-24.5;-63.6;-33.7;13.1;-0.23;0.35;-10.67;0.86;0.31;0.98
1753877734.974547;-1.786;0.945;-0.035;-1.62;-1.08;-43.1;0.0;0.0;0.0;0.0;-24.6;-63.7;-33.8;13.8;-0.23;0.36;-10.67;0.85;0.36;0.87
1753877734.979547;-1.786;0.945;-0.035;-1.64;-1.08;-43.1;0.0;0.0;0.0;0.0;-24.7;-63.7;-33.4;13.1;-0.22;0.36;-10.66;0.74;0.26;0.82
1753877734.9845471;-1.786;0.945;-0.035;-1.61;-1.08;-43.1;0.0;0.0;0.0;0.0;-24.4;-63.7;-33.2;13.0;-0.23;0.37;-10.67;0.89;0.24;0.91
1753877734.9895473;-1.786;0.945;-0.035;-1.61;-1.07;-43.1;0.0;0.0;0.0;0.0;-24.4;-62.9;-33.4;11.9;-0.23;0.36;-10.67;0.78;0.27;1.01
1753877734.9945474;-1.786;0.945;-0.035;-1.61;-1.08;-43.1;0.0;0.0;0.0;0.0;-23.2;-62.1;-33.2;8.9;-0.24;0.36;-10.64;0.8;0.28;1.0
1753877734.9995475;-1.786;0.945;-0.035;-1.61;-1.07;-43.1;0.0;0.0;0.0;0.0;-24.1;-61.3;-33.3;13.4;-0.23;0.37;-10.64;0.72;0.3;0.88
1753877735.0045476;-1.786;0.945;-0.035;-1.61;-1.07;-43.1;0.0;0.0;0.0;0.0;-24.9;-61.0;-33.2;10.5;-0.24;0.37;-10.63;0.77;0.36;0.9
1753877735.0095477;-1.786;0.945;-0.035;-1.63;-1.07;-43.1;0.0;0.0;0.0;0.0;-24.6;-62.1;-33.3;10.4;-0.22;0.35;-10.65;0.8;0.35;0.92
1753877735.0145478;-1.786;0.945;-0.035;-1.62;-1.07;-43.1;0.0;0.0;0.0;0.0;-23.9;-61.2;-33.6;17.1;-0.24;0.36;-10.68;0.73;0.42;1.06
1753877735.019548;-1.786;0.945;-0.035;-1.62;-1.06;-43.1;0.0;0.0;0.0;0.0;-25.0;-63.4;-33.6;11.5;-0.22;0.36;-10.67;0.74;0.28;1.01
1753877735.024548;-1.786;0.945;-0.035;-1.64;-1.07;-43.1;0.0;0.0;0.0;0.0;-24.0;-61.8;-33.1;12.2;-0.24;0.35;-10.64;0.72;0.27;1.02
1753877735.0295482;-1.786;0.945;-0.035;-1.62;-1.07;-43.1;0.0;0.0;0.0;0.0;-22.9;-61.2;-33.2;17.3;-0.24;0.37;-10.67;0.88;0.38;0.92
1753877735.0345483;-1.786;0.945;-0.035;-1.62;-1.07;-43.1;0.0;0.0;0.0;0.0;-23.8;-62.5;-33.1;12.3;-0.24;0.37;-10.66;0.7;0.24;0.91
1753877735.0395484;-1.786;0.945;-0.035;-1.62;-1.07;-43.1;0.0;0.0;0.0;0.0;-23.2;-62.2;-33.3;11.8;-0.23;0.36;-10.67;0.84;0.35;0.94
1753877735.0445485;-1.786;0.945;-0.035;-1.62;-1.06;-43.1;0.0;0.0;0.0;0.0;-23.8;-64.2;-32.8;16.2;-0.24;0.36;-10.66;0.78;0.23;0.81
1753877735.0495448;-1.786;0.945;-0.035;-1.62;-1.07;-43.1;0.0;0.0;0.0;0.0;-24.0;-62.0;-33.0;13.0;-0.24;0.36;-10.67;0.77;0.34;0.91
1753877735.054545;-1.786;0.945;-0.035;-1.62;-1.07;-43.1;0.0;0.0;0.0;0.0;-24.0;-62.0;-33.0;13.0;-0.24;0.36;-10.66;0.7;0.35;0.99
1753877735.0595448;-1.786;0.945;-0.035;-1.62;-1.07;-43.1;0.0;0.0;0.0;0.0;-24.0;-62.0;-33.0;13.0;-0.24;0.36;-10.66;0.68;0.33;0.82
1753877735.064545;-1.786;0.945;-0.035;-1.62;-1.07;-43.1;0.0;0.0;0.0;0.0;-24.0;-62.0;-33.0;13.0;-0.24;0.36;-10.66;0.73;0.39;0.78
1753877735.0695448;-1.786;0.945;-0.035;-1.62;-1.07;-43.1;0.0;0.0;0.0;0.0;-24.0;-62.0;-33.0;13.0;-0.24;0.36;-10.65;0.8;0.35;0.98
1753877735.074545;-1.786;0.945;-0.035;-1.62;-1.07;-43.1;0.0;0.0;0.0;0.0;-24.0;-62.0;-33.0;13.0;-0.24;0.36;-10.65;0.72;0.3;0.89
1753877735.0795448;-1.786;0.945;-0.035;-1.62;-1.07;-43.1;0.0;0.0;0.0;0.0;-24.0;-62.0;-33.0;13.0;-0.23;0.36;-10.64;0.6;0.38;0.99
1753877735.084545;-1.786;0.945;-0.035;-1.62;-1.07;-43.1;0.0;0.0;0.0;0.0;-24.0;-62.0;-33.0;13.0;-0.23;0.36;-10.64;0.59;0.34;0.98
1753877735.0895448;-1.786;0.945;-0.035;-1.62;-1.07;-43.1;0.0;0.0;0.0;0.0;-24.0;-62.0;-33.0;13.0;-0.23;0.37;-10.63;0.7;0.34;0.9
1753877735.094545;-1.786;0.945;-0.035;-1.62;-1.07;-43.1;0.0;0.0;0.0;0.0;-24.0;-62.0;-33.0;13.0;-0.24;0.36;-10.62;0.77;0.41;0.81
1753877735.0995448;-1.786;0.945;-0.035;-1.62;-1.07;-43.1;0.0;0.0;0.0;0.0;-24.0;-62.0;-33.0;13.0;-0.23;0.36;-10.62;0.82;0.21;0.91
1753877735.1045449;-1.786;0.945;-0.035;-1.62;-1.07;-43.1;0.0;0.0;0.0;0.0;-24.0;-62.0;-33.0;13.0;-0.24;0.36;-10.62;0.82;0.27;0.88
1753877735.1095448;-1.786;0.945;-0.035;-1.62;-1.07;-43.1;0.0;0.0;0.0;0.0;-24.0;-62.0;-33.0;13.0;-0.23;0.36;-10.62;0.65;0.32;0.99
1753877735.1145449;-1.786;0.945;-0.035;-1.62;-1.07;-43.1;0.0;0.0;0.0;0.0;-24.0;-62.0;-33.0;13.0;-0.23;0.36;-10.62;0.7;0.41;0.91
1753877735.1195447;-1.786;0.945;-0.035;-1.62;-1.07;-43.1;0.0;0.0;0.0;0.0;-24.0;-62.0;-33.0;13.0;-0.24;0.35;-10.63;0.68;0.38;0.86
1753877735.1245449;-1.786;0.945;-0.035;-1.62;-1.07;-43.1;0.0;0.0;0.0;0.0;-24.0;-62.0;-33.0;13.0;-0.23;0.35;-10.64;0.65;0.28;0.91
1753877735.129545;-1.786;0.945;-0.035;-1.62;-1.07;-43.1;0.0;0.0;0.0;0.0;-23.3;-61.6;-33.3;13.2;-0.23;0.35;-10.63;0.68;0.29;0.83
1753877735.134545;-1.786;0.945;-0.035;-1.62;-1.07;-43.1;0.0;0.0;0.0;0.0;-22.8;-62.0;-32.4;14.5;-0.24;0.35;-10.66;0.7;0.26;0.83
1753877735.1395452;-1.786;0.945;-0.035;-1.62;-1.07;-43.1;0.0;0.0;0.0;0.0;-23.8;-62.4;-34.0;16.9;-0.22;0.35;-10.64;0.55;0.4;0.84
1753877735.1445453;-1.786;0.945;-0.035;-1.62;-1.07;-43.1;0.0;0.0;0.0;0.0;-23.7;-62.2;-32.6;13.6;-0.23;0.35;-10.64;0.56;0.3;0.96
1753877735.1495454;-1.786;0.945;-0.035;-1.62;-1.07;-43.1;0.0;0.0;0.0;0.0;-24.0;-61.8;-33.6;13.2;-0.24;0.35;-10.62;0.78;0.24;0.78
1753877735.1545455;-1.786;0.945;-0.035;-1.62;-1.07;-43.1;0.0;0.0;0.0;0.0;-23.9;-61.4;-32.9;13.8;-0.23;0.35;-10.63;0.6;0.31;0.89
1753877735.1595457;-1.786;0.945;-0.035;-1.62;-1.08;-43.1;0.0;0.0;0.0;0.0;-22.4;-62.5;-32.7;13.9;-0.23;0.36;-10.65;0.6;0.28;0.74
1753877735.1645458;-1.786;0.945;-0.035;-1.62;-1.08;-43.1;0.0;0.0;0.0;0.0;-23.8;-61.7;-33.2;12.1;-0.23;0.36;-10.65;0.78;0.33;0.83
1753877735.169546;-1.786;0.945;-0.035;-1.62;-1.07;-43.1;0.0;0.0;0.0;0.0;-23.7;-61.9;-33.6;12.7;-0.23;0.36;-10.65;0.74;0.32;0.97
1753877735.174546;-1.786;0.945;-0.035;-1.62;-1.07;-43.1;0.0;0.0;0.0;0.0;-22.9;-60.7;-33.2;14.0;-0.22;0.36;-10.64;0.71;0.2;0.95
1753877735.179546;-1.786;0.945;-0.035;-1.62;-1.07;-43.1;0.0;0.0;0.0;0.0;-22.9;-62.3;-33.6;15.2;-0.24;0.35;-10.63;0.68;0.21;0.87
1753877735.1845462;-1.786;0.945;-0.035;-1.62;-1.07;-43.1;0.0;0.0;0.0;0.0;-22.9;-60.7;-33.2;15.9;-0.23;0.36;-10.65;0.74;0.33;0.94
1753877735.1895463;-1.786;0.945;-0.035;-1.62;-1.07;-43.1;0.0;0.0;0.0;0.0;-23.7;-61.5;-33.1;15.3;-0.22;0.36;-10.64;0.81;0.3;0.87
1753877735.1945465;-1.786;0.945;-0.035;-1.62;-1.07;-43.1;0.0;0.0;0.0;0.0;-23.7;-61.1;-34.1;11.1;-0.21;0.37;-10.64;0.73;0.37;0.99
1753877735.1995466;-1.786;0.945;-0.035;-1.62;-1.07;-43.1;0.0;0.0;0.0;0.0;-23.9;-61.3;-33.8;13.7;-0.23;0.37;-10.62;0.78;0.38;0.95
1753877735.2045467;-1.786;0.945;-0.035;-1.62;-1.08;-43.1;0.0;0.0;0.0;0.0;-23.5;-62.1;-33.5;14.7;-0.22;0.37;-10.63;0.68;0.41;0.8
1753877735.2095468;-1.786;0.945;-0.035;-1.62;-1.08;-43.1;0.0;0.0;0.0;0.0;-23.4;-61.5;-34.1;13.6;-0.22;0.37;-10.65;0.64;0.34;1.02
1753877735.214547;-1.786;0.945;-0.035;-1.62;-1.08;-43.1;0.0;0.0;0.0;0.0;-24.0;-61.0;-34.5;15.1;-0.21;0.36;-10.62;0.72;0.29;1.01
1753877735.219547;-1.786;0.945;-0.035;-1.62;-1.08;-43.1;0.0;0.0;0.0;0.0;-23.4;-61.4;-34.1;12.8;-0.23;0.36;-10.65;0.74;0.38;0.99
1753877735.2245471;-1.786;0.945;-0.035;-1.62;-1.08;-43.1;0.0;0.0;0.0;0.0;-23.2;-60.7;-34.1;15.1;-0.24;0.36;-10.64;0.71;0.37;1.03
1753877735.2295473;-1.786;0.945;-0.035;-1.62;-1.07;-43.1;0.0;0.0;0.0;0.0;-22.7;-61.4;-34.3;13.7;-0.22;0.37;-10.64;0.76;0.28;0.91
1753877735.2345448;-1.786;0.945;-0.035;-1.62;-1.08;-43.1;0.0;0.0;0.0;0.0;-23.0;-61.0;-34.0;15.0;-0.23;0.37;-10.63;0.76;0.38;0.95
1753877735.2395449;-1.786;0.945;-0.035;-1.62;-1.08;-43.1;0.0;0.0;0.0;0.0;-23.0;-61.0;-34.0;15.0;-0.23;0.36;-10.63;0.75;0.3;1.01
1753877735.244545;-1.786;0.945;-0.035;-1.62;-1.08;-43.1;0.0;0.0;0.0;0.0;-23.1;-58.8;-34.3;13.7;-0.22;0.36;-10.61;0.78;0.28;0.99
1753877735.249545;-1.786;0.945;-0.035;-1.62;-1.08;-43.1;0.0;0.0;0.0;0.0;-23.5;-61.7;-34.6;14.2;-0.22;0.37;-10.64;0.68;0.28;1.1
1753877735.2545452;-1.786;0.945;-0.035;-1.62;-1.08;-43.1;0.0;0.0;0.0;0.0;-22.7;-60.7;-34.2;15.5;-0.23;0.36;-10.62;0.67;0.39;1.15
1753877735.2595453;-1.786;0.945;-0.035;-1.62;-1.08;-43.1;0.0;0.0;0.0;0.0;-23.2;-60.5;-34.7;19.0;-0.22;0.36;-10.61;0.65;0.3;0.99
1753877735.2645454;-1.786;0.945;-0.035;-1.62;-1.08;-43.1;0.0;0.0;0.0;0.0;-23.0;-61.9;-34.1;16.4;-0.23;0.36;-10.61;0.81;0.29;0.87
1753877735.2695456;-1.786;0.945;-0.035;-1.62;-1.08;-43.1;0.0;0.0;0.0;0.0;-23.5;-60.2;-33.7;15.1;-0.24;0.36;-10.63;0.83;0.38;1.0
1753877735.2745457;-1.786;0.945;-0.035;-1.62;-1.08;-43.1;0.0;0.0;0.0;0.0;-23.2;-58.9;-33.4;15.1;-0.22;0.36;-10.61;0.65;0.24;0.94
1753877735.2795458;-1.786;0.945;-0.035;-1.63;-1.08;-43.1;0.0;0.0;0.0;0.0;-23.6;-59.1;-34.7;16.4;-0.23;0.36;-10.64;0.78;0.34;1.0
1753877735.284546;-1.786;0.945;-0.035;-1.62;-1.08;-43.1;0.0;0.0;0.0;0.0;-22.8;-61.5;-34.0;14.2;-0.23;0.36;-10.63;0.78;0.29;0.93
1753877735.289546;-1.786;0.945;-0.035;-1.62;-1.08;-43.1;0.0;0.0;0.0;0.0;-23.0;-58.8;-34.2;13.7;-0.23;0.37;-10.65;0.77;0.38;1.03
1753877735.2945461;-1.786;0.945;-0.035;-1.62;-1.08;-43.1;0.0;0.0;0.0;0.0;-22.8;-60.3;-34.2;14.4;-0.23;0.37;-10.65;0.59;0.37;1.01
1753877735.2995462;-1.786;0.945;-0.035;-1.62;-1.09;-43.1;0.0;0.0;0.0;0.0;-22.7;-59.2;-33.8;16.9;-0.23;0.36;-10.64;0.89;0.4;1.05
1753877735.3045464;-1.786;0.945;-0.035;-1.62;-1.08;-43.1;0.0;0.0;0.0;0.0;-23.1;-60.4;-34.0;11.6;-0.21;0.36;-10.64;0.77;0.28;1.12
1753877735.3095465;-1.786;0.945;-0.035;-1.62;-1.08;-43.1;0.0;0.0;0.0;0.0;-23.0;-59.1;-33.8;15.4;-0.22;0.35;-10.63;0.78;0.26;1.05
1753877735.3145466;-1.786;0.945;-0.035;-1.63;-1.07;-43.1;0.0;0.0;0.0;0.0;-23.3;-60.5;-34.1;14.5;-0.23;0.36;-10.64;0.74;0.3;0.95
1753877735.3195467;-1.786;0.945;-0.035;-1.62;-1.08;-43.1;0.0;0.0;0.0;0.0;-23.1;-60.0;-34.5;15.2;-0.22;0.37;-10.62;0.77;0.37;1.02
1753877735.3245468;-1.786;0.945;-0.035;-1.62;-1.08;-43.1;0.0;0.0;0.0;0.0;-23.0;-59.9;-34.6;14.5;-0.24;0.37;-10.62;0.64;0.32;0.93
1753877735.329547;-1.786;0.945;-0.035;-1.62;-1.08;-43.1;0.0;0.0;0.0;0.0;-23.9;-56.6;-34.4;15.3;-0.24;0.36;-10.67;0.65;0.31;1.03
1753877735.334547;-1.786;0.945;-0.035;-1.62;-1.08;-43.1;0.0;0.0;0.0;0.0;-23.5;-59.0;-34.5;15.2;-0.23;0.38;-10.63;0.73;0.34;0.98
1753877735.3395472;-1.786;0.945;-0.035;-1.63;-1.08;-43.1;0.0;0.0;0.0;0.0;-23.1;-58.6;-34.2;16.5;-0.22;0.37;-10.63;0.76;0.38;1.07
1753877735.3445473;-1.786;0.945;-0.035;-1.63;-1.08;-43.1;0.0;0.0;0.0;0.0;-23.1;-60.2;-34.4;16.3;-0.22;0.36;-10.64;0.74;0.38;1.01
1753877735.3495474;-1.786;0.945;-0.035;-1.63;-1.09;-43.1;0.0;0.0;0.0;0.0;-23.4;-60.3;-33.6;17.5;-0.23;0.35;-10.61;0.65;0.39;0.92
1753877735.3545475;-1.786;0.945;-0.035;-1.63;-1.08;-43.1;0.0;0.0;0.0;0.0;-23.5;-57.6;-33.9;18.0;-0.23;0.36;-10.64;0.67;0.32;0.99
1753877735.3595476;-1.786;0.945;-0.035;-1.63;-1.08;-43.1;0.0;0.0;0.0;0.0;-22.9;-57.5;-34.1;16.3;-0.23;0.37;-10.62;0.61;0.49;1.04
1753877735.3645477;-1.786;0.945;-0.035;-1.63;-1.08;-43.1;0.0;0.0;0.0;0.0;-23.5;-58.1;-33.7;15.9;-0.23;0.37;-10.65;0.63;0.45;0.95
1753877735.3695478;-1.786;0.945;-0.035;-1.63;-1.09;-43.1;0.0;0.0;0.0;0.0;-22.8;-58.0;-34.6;16.6;-0.23;0.37;-10.62;0.71;0.39;0.8
1753877735.374548;-1.786;0.945;-0.035;-1.62;-1.08;-43.1;0.0;0.0;0.0;0.0;-23.0;-57.4;-34.4;16.3;-0.23;0.37;-10.63;0.51;0.37;1.06
1753877735.379548;-1.786;0.945;-0.035;-1.63;-1.08;-43.1;0.0;0.0;0.0;0.0;-23.3;-58.8;-34.2;13.8;-0.24;0.37;-10.62;0.7;0.39;1.15
1753877735.3845482;-1.786;0.945;-0.035;-1.63;-1.07;-43.1;0.0;0.0;0.0;0.0;-23.8;-58.1;-33.6;16.4;-0.24;0.37;-10.65;0.49;0.38;1.01
1753877735.3895483;-1.786;0.945;-0.035;-1.63;-1.08;-43.1;0.0;0.0;0.0;0.0;-23.0;-59.2;-34.4;14.5;-0.24;0.36;-10.62;0.69;0.38;0.97
1753877735.3945484;-1.786;0.945;-0.035;-1.63;-1.08;-43.1;0.0;0.0;0.0;0.0;-22.9;-56.5;-34.0;15.6;-0.22;0.37;-10.64;0.53;0.47;0.99
1753877735.3995485;-1.786;0.945;-0.035;-1.63;-1.07;-43.1;0.0;0.0;0.0;0.0;-22.7;-56.7;-34.2;16.8;-0.24;0.38;-10.64;0.58;0.41;1.01
1753877735.4045486;-1.786;0.945;-0.035;-1.62;-1.08;-43.1;0.0;0.0;0.0;0.0;-23.4;-58.4;-34.7;16.7;-0.23;0.37;-10.63;0.53;0.42;0.95
1753877735.4095488;-1.786;0.945;-0.035;-1.63;-1.08;-43.1;0.0;0.0;0.0;0.0;-23.2;-55.8;-33.3;17.3;-0.22;0.36;-10.64;0.68;0.39;1.0
1753877735.4145448;-1.786;0.945;-0.035;-1.63;-1.08;-43.1;0.0;0.0;0.0;0.0;-23.0;-57.0;-34.0;16.0;-0.23;0.37;-10.63;0.59;0.39;0.99
1753877735.419545;-1.786;0.945;-0.035;-1.63;-1.08;-43.1;0.0;0.0;0.0;0.0;-23.0;-57.0;-34.0;16.0;-0.23;0.37;-10.63;0.64;0.33;0.95
1753877735.4245448;-1.786;0.945;-0.035;-1.63;-1.08;-43.1;0.0;0.0;0.0;0.0;-23.0;-57.0;-34.0;16.0;-0.22;0.37;-10.64;0.83;0.29;0.96
1753877735.429545;-1.786;0.945;-0.035;-1.63;-1.08;-43.1;0.0;0.0;0.0;0.0;-23.0;-57.0;-34.0;16.0;-0.22;0.36;-10.63;0.73;0.32;1.05
1753877735.4345448;-1.786;0.945;-0.035;-1.63;-1.08;-43.1;0.0;0.0;0.0;0.0;-23.0;-57.0;-34.0;16.0;-0.22;0.36;-10.63;0.75;0.31;0.97
1753877735.439545;-1.786;0.945;-0.035;-1.63;-1.08;-43.1;0.0;0.0;0.0;0.0;-23.2;-55.6;-34.1;13.2;-0.23;0.36;-10.62;0.88;0.31;0.9
1753877735.444545;-1.786;0.945;-0.035;-1.63;-1.08;-43.1;0.0;0.0;0.0;0.0;-22.3;-56.0;-34.2;17.7;-0.22;0.36;-10.63;0.9;0.33;1.03
1753877735.4495451;-1.786;0.945;-0.035;-1.62;-1.08;-43.1;0.0;0.0;0.0;0.0;-22.6;-58.9;-33.7;13.4;-0.22;0.36;-10.62;0.76;0.3;0.95
1753877735.4545453;-1.786;0.945;-0.035;-1.64;-1.09;-43.1;0.0;0.0;0.0;0.0;-23.2;-58.9;-34.1;16.7;-0.21;0.37;-10.64;0.82;0.2;1.0
1753877735.4595454;-1.786;0.945;-0.035;-1.63;-1.08;-43.1;0.0;0.0;0.0;0.0;-22.9;-56.3;-34.0;13.3;-0.21;0.36;-10.61;0.78;0.34;0.96
1753877735.4645455;-1.786;0.945;-0.035;-1.63;-1.08;-43.1;0.0;0.0;0.0;0.0;-22.8;-57.7;-33.9;12.2;-0.23;0.36;-10.62;0.65;0.41;0.88
1753877735.4695456;-1.786;0.945;-0.035;-1.63;-1.09;-43.1;0.0;0.0;0.0;0.0;-23.7;-53.9;-34.1;19.4;-0.22;0.37;-10.64;0.82;0.32;0.97
1753877735.4745457;-1.786;0.945;-0.035;-1.64;-1.08;-43.1;0.0;0.0;0.0;0.0;-23.6;-56.8;-33.4;11.5;-0.23;0.36;-10.63;0.76;0.3;0.93
1753877735.4795458;-1.786;0.945;-0.035;-1.63;-1.08;-43.1;0.0;0.0;0.0;0.0;-24.0;-56.8;-34.3;13.7;-0.22;0.36;-10.62;0.72;0.38;0.88
1753877735.484546;-1.786;0.945;-0.035;-1.63;-1.08;-43.1;0.0;0.0;0.0;0.0;-23.8;-58.0;-33.4;12.5;-0.22;0.36;-10.62;0.68;0.4;0.95
1753877735.489546;-1.786;0.945;-0.035;-1.62;-1.08;-43.1;0.0;0.0;0.0;0.0;-23.0;-59.4;-33.7;14.1;-0.22;0.35;-10.62;0.64;0.37;0.96
1753877735.4945462;-1.786;0.945;-0.035;-1.63;-1.08;-43.1;0.0;0.0;0.0;0.0;-23.0;-53.0;-33.6;10.4;-0.23;0.35;-10.62;0.72;0.33;0.86
1753877735.4995463;-1.786;0.945;-0.035;-1.63;-1.08;-43.1;0.0;0.0;0.0;0.0;-23.4;-60.0;-34.2;9.3;-0.23;0.36;-10.62;0.64;0.33;0.9
1753877735.5045464;-1.786;0.945;-0.035;-1.64;-1.08;-43.1;0.0;0.0;0.0;0.0;-23.3;-55.7;-34.5;8.8;-0.23;0.36;-10.64;0.7;0.35;0.96
1753877735.5095465;-1.786;0.945;-0.035;-1.63;-1.07;-43.1;0.0;0.0;0.0;0.0;-23.1;-57.4;-34.3;5.8;-0.24;0.36;-10.61;0.75;0.34;0.87
1753877735.5145466;-1.786;0.945;-0.035;-1.63;-1.07;-43.1;0.0;0.0;0.0;0.0;-23.2;-60.6;-32.6;9.0;-0.23;0.36;-10.62;0.62;0.3;0.94
1753877735.5195467;-1.786;0.945;-0.035;-1.63;-1.09;-43.1;0.0;0.0;0.0;0.0;-23.6;-58.9;-33.9;11.9;-0.22;0.36;-10.62;0.69;0.29;0.84
1753877735.5245469;-1.786;0.945;-0.035;-1.64;-1.07;-43.1;0.0;0.0;0.0;0.0;-24.0;-58.0;-33.3;8.7;-0.23;0.36;-10.62;0.7;0.3;0.89
1753877735.529547;-1.786;0.945;-0.035;-1.64;-1.08;-43.1;0.0;0.0;0.0;0.0;-23.6;-60.9;-33.7;7.8;-0.23;0.37;-10.61;0.68;0.31;0.87
1753877735.534547;-1.786;0.945;-0.035;-1.64;-1.09;-43.1;0.0;0.0;0.0;0.0;-23.9;-59.1;-34.0;9.2;-0.22;0.36;-10.62;0.65;0.35;0.94
1753877735.5395472;-1.786;0.945;-0.035;-1.64;-1.07;-43.1;0.0;0.0;0.0;0.0;-23.7;-58.2;-34.4;5.3;-0.23;0.37;-10.62;0.67;0.37;0.92
1753877735.5445473;-1.786;0.945;-0.035;-1.64;-1.08;-43.1;0.0;0.0;0.0;0.0;-24.2;-62.9;-33.8;12.0;-0.24;0.37;-10.63;0.62;0.4;0.74
1753877735.5495474;-1.786;0.945;-0.035;-1.64;-1.08;-43.1;0.0;0.0;0.0;0.0;-23.6;-60.7;-33.6;6.2;-0.22;0.35;-10.63;0.78;0.39;0.85
1753877735.5545475;-1.786;0.945;-0.035;-1.64;-1.07;-43.1;0.0;0.0;0.0;0.0;-23.6;-57.1;-33.9;11.7;-0.23;0.36;-10.61;0.56;0.34;0.81
1753877735.5595477;-1.786;0.945;-0.035;-1.63;-1.08;-43.1;0.0;0.0;0.0;0.0;-25.3;-60.3;-34.0;12.4;-0.23;0.37;-10.6;0.59;0.4;0.94
1753877735.5645478;-1.786;0.945;-0.035;-1.63;-1.07;-43.1;0.0;0.0;0.0;0.0;-24.0;-55.5;-34.5;6.7;-0.22;0.36;-10.62;0.64;0.29;0.78
1753877735.569548;-1.786;0.945;-0.035;-1.65;-1.08;-43.1;0.0;0.0;0.0;0.0;-23.1;-55.6;-34.5;8.5;-0.22;0.35;-10.59;0.63;0.43;0.81
1753877735.574548;-1.786;0.945;-0.035;-1.64;-1.08;-43.1;0.0;0.0;0.0;0.0;-23.7;-58.0;-33.4;8.9;-0.22;0.36;-10.61;0.63;0.39;0.76
1753877735.5795481;-1.786;0.945;-0.035;-1.63;-1.09;-43.1;0.0;0.0;0.0;0.0;-22.7;-61.5;-35.0;3.9;-0.23;0.37;-10.61;0.65;0.37;0.86
1753877735.5845482;-1.786;0.945;-0.035;-1.65;-1.08;-43.1;0.0;0.0;0.0;0.0;-23.8;-55.1;-34.6;10.5;-0.23;0.35;-10.62;0.62;0.27;0.81
1753877735.5895483;-1.786;0.945;-0.035;-1.63;-1.08;-43.1;0.0;0.0;0.0;0.0;-23.4;-60.2;-34.0;8.5;-0.23;0.36;-10.61;0.67;0.33;0.75
1753877735.594545;-1.786;0.945;-0.035;-1.64;-1.08;-43.1;0.0;0.0;0.0;0.0;-24.0;-59.0;-34.0;7.0;-0.23;0.36;-10.62;0.64;0.38;0.83
1753877735.5995448;-1.786;0.945;-0.035;-1.64;-1.08;-43.1;0.0;0.0;0.0;0.0;-24.0;-59.0;-34.0;7.0;-0.23;0.36;-10.62;0.62;0.37;1.0
1753877735.6045449;-1.786;0.945;-0.035;-1.64;-1.08;-43.1;0.0;0.0;0.0;0.0;-24.0;-59.0;-34.0;7.0;-0.23;0.36;-10.62;0.61;0.42;0.89
1753877735.6095448;-1.786;0.945;-0.035;-1.64;-1.08;-43.1;0.0;0.0;0.0;0.0;-24.0;-59.0;-34.0;7.0;-0.24;0.36;-10.61;0.67;0.34;0.92
1753877735.6145449;-1.786;0.945;-0.035;-1.64;-1.08;-43.1;0.0;0.0;0.0;0.0;-24.0;-59.0;-34.0;7.0;-0.23;0.36;-10.62;0.63;0.4;0.94
1753877735.6195447;-1.786;0.945;-0.035;-1.64;-1.08;-43.1;0.0;0.0;0.0;0.0;-24.0;-59.0;-34.0;7.0;-0.23;0.36;-10.62;0.72;0.33;1.0
1753877735.6245449;-1.786;0.945;-0.035;-1.64;-1.08;-43.1;0.0;0.0;0.0;0.0;-24.0;-59.0;-34.0;7.0;-0.23;0.35;-10.62;0.7;0.41;0.99
1753877735.6295447;-1.786;0.945;-0.035;-1.64;-1.08;-43.1;0.0;0.0;0.0;0.0;-24.0;-59.0;-34.0;7.0;-0.23;0.36;-10.62;0.71;0.29;1.16
1753877735.6345448;-1.786;0.945;-0.035;-1.64;-1.08;-43.1;0.0;0.0;0.0;0.0;-24.0;-59.0;-34.0;7.0;-0.23;0.36;-10.61;0.7;0.34;0.93
1753877735.6395447;-1.786;0.945;-0.035;-1.64;-1.08;-43.1;0.0;0.0;0.0;0.0;-24.0;-59.0;-34.0;7.0;-0.22;0.36;-10.62;0.62;0.39;1.01
1753877735.6445448;-1.786;0.945;-0.035;-1.64;-1.08;-43.1;0.0;0.0;0.0;0.0;-23.7;-59.2;-34.8;4.7;-0.23;0.35;-10.61;0.63;0.45;0.96
1753877735.6495447;-1.786;0.945;-0.035;-1.64;-1.08;-43.1;0.0;0.0;0.0;0.0;-24.0;-59.0;-34.0;7.0;-0.23;0.35;-10.61;0.74;0.45;0.9
1753877735.6545448;-1.786;0.945;-0.035;-1.64;-1.08;-43.1;0.0;0.0;0.0;0.0;-24.0;-59.0;-34.0;7.0;-0.22;0.35;-10.61;0.58;0.19;0.85
1753877735.6595447;-1.786;0.945;-0.035;-1.64;-1.08;-43.1;0.0;0.0;0.0;0.0;-24.0;-59.0;-34.0;7.0;-0.22;0.36;-10.62;0.6;0.13;0.95
1753877735.6645448;-1.786;0.945;-0.035;-1.64;-1.08;-43.1;0.0;0.0;0.0;0.0;-24.0;-59.0;-34.0;7.0;-0.22;0.35;-10.61;0.82;0.29;1.05
1753877735.669545;-1.786;0.945;-0.035;-1.64;-1.08;-43.1;0.0;0.0;0.0;0.0;-24.0;-59.0;-34.0;7.0;-0.23;0.35;-10.62;0.77;0.15;0.88
1753877735.6745448;-1.786;0.945;-0.035;-1.64;-1.08;-43.1;0.0;0.0;0.0;0.0;-24.0;-59.0;-34.0;7.0;-0.22;0.35;-10.62;0.76;0.34;0.88
1753877735.679545;-1.786;0.945;-0.035;-1.64;-1.08;-43.1;0.0;0.0;0.0;0.0;-24.0;-59.0;-34.0;7.0;-0.22;0.36;-10.62;0.67;0.45;0.92
1753877735.6845448;-1.786;0.945;-0.035;-1.64;-1.08;-43.1;0.0;0.0;0.0;0.0;-24.0;-59.0;-34.0;7.0;-0.22;0.36;-10.62;0.86;0.35;0.96
1753877735.689545;-1.786;0.945;-0.035;-1.64;-1.08;-43.1;0.0;0.0;0.0;0.0;-24.0;-59.0;-34.0;7.0;-0.23;0.36;-10.63;0.7;0.35;0.98
1753877735.6945448;-1.786;0.945;-0.035;-1.64;-1.08;-43.1;0.0;0.0;0.0;0.0;-24.0;-59.0;-34.0;7.0;-0.23;0.36;-10.63;0.71;0.32;0.94
1753877735.699545;-1.786;0.945;-0.035;-1.64;-1.08;-43.1;0.0;0.0;0.0;0.0;-24.0;-59.0;-34.0;7.0;-0.22;0.36;-10.63;0.77;0.26;0.9
1753877735.7045448;-1.786;0.945;-0.035;-1.64;-1.08;-43.1;0.0;0.0;0.0;0.0;-24.0;-59.0;-34.0;7.0;-0.23;0.36;-10.63;0.61;0.24;0.96
1753877735.709545;-1.786;0.945;-0.035;-1.64;-1.08;-43.1;0.0;0.0;0.0;0.0;-24.0;-59.0;-34.0;7.0;-0.23;0.36;-10.64;0.6;0.35;0.9
1753877735.7145448;-1.786;0.945;-0.035;-1.64;-1.08;-43.1;0.0;0.0;0.0;0.0;-24.0;-59.0;-34.0;7.0;-0.23;0.36;-10.63;0.66;0.46;0.93
1753877735.719545;-1.786;0.945;-0.035;-1.64;-1.08;-43.1;0.0;0.0;0.0;0.0;-24.0;-59.0;-34.0;7.0;-0.24;0.36;-10.63;0.71;0.28;0.84
1753877735.7245448;-1.786;0.945;-0.035;-1.64;-1.08;-43.1;0.0;0.0;0.0;0.0;-24.0;-59.0;-34.0;7.0;-0.23;0.36;-10.63;0.85;0.45;0.89
1753877735.7295449;-1.786;0.945;-0.035;-1.64;-1.08;-43.1;0.0;0.0;0.0;0.0;-24.0;-59.0;-34.0;7.0;-0.24;0.36;-10.64;0.72;0.26;0.99
1753877735.7345448;-1.786;0.945;-0.035;-1.64;-1.08;-43.1;0.0;0.0;0.0;0.0;-24.0;-59.0;-34.0;7.0;-0.24;0.36;-10.63;0.64;0.22;0.99
1753877735.7395449;-1.786;0.945;-0.035;-1.64;-1.08;-43.1;0.0;0.0;0.0;0.0;-24.0;-59.0;-34.0;7.0;-0.24;0.36;-10.63;0.9;0.32;0.92
1753877735.7445447;-1.786;0.945;-0.035;-1.64;-1.08;-43.1;0.0;0.0;0.0;0.0;-24.0;-59.0;-34.0;7.0;-0.24;0.36;-10.63;0.76;0.44;0.91
1753877735.7495449;-1.786;0.945;-0.035;-1.64;-1.08;-43.1;0.0;0.0;0.0;0.0;-24.0;-59.0;-34.0;7.0;-0.24;0.36;-10.63;0.66;0.32;0.94
1753877735.7545447;-1.786;0.945;-0.035;-1.64;-1.08;-43.1;0.0;0.0;0.0;0.0;-24.0;-59.0;-34.0;7.0;-0.23;0.36;-10.63;0.76;0.35;0.94
1753877735.7595448;-1.786;0.945;-0.035;-1.64;-1.08;-43.1;0.0;0.0;0.0;0.0;-24.0;-59.0;-34.0;7.0;-0.23;0.35;-10.63;0.74;0.46;0.94
1753877735.7645447;-1.786;0.945;-0.035;-1.64;-1.08;-43.1;0.0;0.0;0.0;0.0;-24.0;-59.0;-34.0;7.0;-0.23;0.35;-10.63;0.75;0.45;0.98
1753877735.7695448;-1.786;0.945;-0.035;-1.64;-1.08;-43.1;0.0;0.0;0.0;0.0;-24.0;-59.0;-34.0;7.0;-0.23;0.35;-10.63;0.68;0.28;0.85
1753877735.7745447;-1.786;0.945;-0.035;-1.64;-1.08;-43.1;0.0;0.0;0.0;0.0;-24.0;-59.0;-34.0;7.0;-0.22;0.35;-10.63;0.61;0.31;0.95
1753877735.7795448;-1.786;0.945;-0.035;-1.64;-1.08;-43.1;0.0;0.0;0.0;0.0;-24.0;-59.0;-34.0;7.0;-0.22;0.35;-10.63;0.69;0.44;0.86
1753877735.7845447;-1.786;0.945;-0.035;-1.64;-1.08;-43.1;0.0;0.0;0.0;0.0;-24.0;-59.0;-34.0;7.0;-0.22;0.36;-10.63;0.61;0.35;0.9
1753877735.7895448;-1.786;0.945;-0.035;-1.64;-1.08;-43.1;0.0;0.0;0.0;0.0;-24.0;-59.0;-34.0;7.0;-0.22;0.36;-10.64;0.72;0.39;0.87
1753877735.794545;-1.786;0.945;-0.035;-1.64;-1.08;-43.1;0.0;0.0;0.0;0.0;-24.0;-59.0;-34.0;7.0;-0.22;0.36;-10.64;0.77;0.35;0.92
1753877735.7995448;-1.786;0.945;-0.035;-1.64;-1.08;-43.1;0.0;0.0;0.0;0.0;-24.0;-59.0;-34.0;7.0;-0.23;0.36;-10.64;0.76;0.35;0.91
1753877735.804545;-1.786;0.945;-0.035;-1.64;-1.08;-43.1;0.0;0.0;0.0;0.0;-24.0;-59.0;-34.0;7.0;-0.23;0.36;-10.64;0.72;0.18;0.93
1753877735.8095448;-1.786;0.945;-0.035;-1.64;-1.08;-43.1;0.0;0.0;0.0;0.0;-24.0;-59.0;-34.0;7.0;-0.24;0.36;-10.64;0.7;0.32;0.99
1753877735.814545;-1.786;0.945;-0.035;-1.64;-1.08;-43.1;0.0;0.0;0.0;0.0;-24.0;-59.0;-34.0;7.0;-0.24;0.37;-10.64;0.52;0.43;1.02
1753877735.8195448;-1.786;0.945;-0.035;-1.64;-1.08;-43.1;0.0;0.0;0.0;0.0;-24.0;-59.0;-34.0;7.0;-0.24;0.37;-10.64;0.67;0.35;0.84
1753877735.824545;-1.786;0.945;-0.035;-1.64;-1.08;-43.1;0.0;0.0;0.0;0.0;-24.0;-59.0;-34.0;7.0;-0.24;0.37;-10.64;0.7;0.38;0.93
1753877735.8295448;-1.786;0.945;-0.035;-1.64;-1.08;-43.1;0.0;0.0;0.0;0.0;-24.0;-59.0;-34.0;7.0;-0.24;0.37;-10.65;0.59;0.17;1.05
1753877735.834545;-1.786;0.945;-0.035;-1.64;-1.08;-43.1;0.0;0.0;0.0;0.0;-24.0;-59.0;-34.0;7.0;-0.24;0.37;-10.64;0.67;0.36;1.14
1753877735.839545;-1.786;0.945;-0.035;-1.64;-1.08;-43.1;0.0;0.0;0.0;0.0;-24.0;-59.0;-34.0;7.0;-0.24;0.37;-10.65;0.68;0.32;0.93
1753877735.844545;-1.786;0.945;-0.035;-1.64;-1.08;-43.1;0.0;0.0;0.0;0.0;-24.0;-59.0;-34.0;7.0;-0.24;0.37;-10.64;0.72;0.3;1.02
1753877735.8495448;-1.786;0.945;-0.035;-1.64;-1.08;-43.1;0.0;0.0;0.0;0.0;-24.0;-59.0;-34.0;7.0;-0.24;0.37;-10.64;0.74;0.21;0.94
1753877735.8545449;-1.786;0.945;-0.035;-1.64;-1.08;-43.1;0.0;0.0;0.0;0.0;-24.0;-59.0;-34.0;7.0;-0.23;0.37;-10.63;0.7;0.41;0.81
1753877735.8595448;-1.786;0.945;-0.035;-1.64;-1.08;-43.1;0.0;0.0;0.0;0.0;-24.0;-59.0;-34.0;7.0;-0.23;0.37;-10.63;0.7;0.32;0.97
1753877735.8645449;-1.786;0.945;-0.035;-1.64;-1.08;-43.1;0.0;0.0;0.0;0.0;-24.0;-59.0;-34.0;7.0;-0.23;0.37;-10.63;0.76;0.26;1.15
1753877735.8695447;-1.786;0.945;-0.035;-1.64;-1.08;-43.1;0.0;0.0;0.0;0.0;-24.0;-59.0;-34.0;7.0;-0.23;0.37;-10.63;0.8;0.21;1.04
1753877735.8745449;-1.786;0.945;-0.035;-1.64;-1.08;-43.1;0.0;0.0;0.0;0.0;-24.0;-59.0;-34.0;7.0;-0.23;0.36;-10.63;0.74;0.09;0.95
1753877735.879545;-1.786;0.945;-0.035;-1.64;-1.08;-43.1;0.0;0.0;0.0;0.0;-24.0;-59.0;-34.0;7.0;-0.23;0.36;-10.62;0.93;0.06;1.01
1753877735.8845448;-1.786;0.945;-0.035;-1.64;-1.08;-43.1;0.0;0.0;0.0;0.0;-24.0;-59.0;-34.0;7.0;-0.23;0.37;-10.63;0.79;0.22;0.94
1753877735.8895447;-1.786;0.945;-0.035;-1.64;-1.08;-43.1;0.0;0.0;0.0;0.0;-24.0;-59.0;-34.0;7.0;-0.22;0.37;-10.63;0.76;0.39;0.86
1753877735.8945448;-1.786;0.945;-0.035;-1.64;-1.08;-43.1;0.0;0.0;0.0;0.0;-24.0;-59.0;-34.0;7.0;-0.22;0.38;-10.64;0.6;0.45;0.89
1753877735.8995447;-1.786;0.945;-0.035;-1.64;-1.08;-43.1;0.0;0.0;0.0;0.0;-24.0;-59.0;-34.0;7.0;-0.22;0.37;-10.64;0.83;0.29;0.89
1753877735.9045448;-1.786;0.945;-0.035;-1.64;-1.08;-43.1;0.0;0.0;0.0;0.0;-24.0;-59.0;-34.0;7.0;-0.22;0.37;-10.64;0.67;0.28;0.91
1753877735.9095447;-1.786;0.945;-0.035;-1.64;-1.08;-43.1;0.0;0.0;0.0;0.0;-24.0;-59.0;-34.0;7.0;-0.22;0.37;-10.64;0.67;0.15;1.0
1753877735.9145448;-1.786;0.945;-0.035;-1.64;-1.08;-43.1;0.0;0.0;0.0;0.0;-24.0;-59.0;-34.0;7.0;-0.22;0.37;-10.64;0.71;0.25;0.9
1753877735.919545;-1.786;0.945;-0.035;-1.64;-1.08;-43.1;0.0;0.0;0.0;0.0;-24.0;-59.0;-34.0;7.0;-0.23;0.37;-10.64;0.64;0.28;0.93
1753877735.9245448;-1.786;0.945;-0.035;-1.64;-1.08;-43.1;0.0;0.0;0.0;0.0;-24.0;-59.0;-34.0;7.0;-0.22;0.37;-10.63;0.65;0.19;0.9
1753877735.929545;-1.786;0.945;-0.035;-1.64;-1.08;-43.1;0.0;0.0;0.0;0.0;-24.0;-59.0;-34.0;7.0;-0.22;0.37;-10.64;0.7;0.29;1.02
1753877735.9345448;-1.786;0.945;-0.035;-1.64;-1.08;-43.1;0.0;0.0;0.0;0.0;-24.0;-59.0;-34.0;7.0;-0.23;0.37;-10.64;0.66;0.24;1.01
1753877735.939545;-1.786;0.945;-0.035;-1.64;-1.08;-43.1;0.0;0.0;0.0;0.0;-24.0;-59.0;-34.0;7.0;-0.22;0.37;-10.63;0.71;0.28;0.99
1753877735.9445448;-1.786;0.945;-0.035;-1.64;-1.08;-43.1;0.0;0.0;0.0;0.0;-24.0;-59.0;-34.0;7.0;-0.22;0.37;-10.63;0.77;0.35;0.88
1753877735.949545;-1.786;0.945;-0.035;-1.64;-1.08;-43.1;0.0;0.0;0.0;0.0;-24.0;-59.0;-34.0;7.0;-0.22;0.36;-10.62;0.77;0.35;0.94
1753877735.9545448;-1.786;0.945;-0.035;-1.64;-1.08;-43.1;0.0;0.0;0.0;0.0;-24.0;-59.0;-34.0;7.0;-0.22;0.37;-10.62;0.81;0.33;0.9
1753877735.959545;-1.786;0.945;-0.035;-1.64;-1.08;-43.1;0.0;0.0;0.0;0.0;-24.0;-59.0;-34.0;7.0;-0.23;0.36;-10.61;0.74;0.38;0.87
1753877735.9645448;-1.786;0.945;-0.035;-1.64;-1.08;-43.1;0.0;0.0;0.0;0.0;-24.0;-59.0;-34.0;7.0;-0.22;0.36;-10.61;0.61;0.31;0.92
1753877735.969545;-1.786;0.945;-0.035;-1.64;-1.08;-43.1;0.0;0.0;0.0;0.0;-24.0;-59.0;-34.0;7.0;-0.23;0.36;-10.61;0.83;0.51;0.77
1753877735.9745448;-1.786;0.945;-0.035;-1.64;-1.08;-43.1;0.0;0.0;0.0;0.0;-24.0;-59.0;-34.0;7.0;-0.22;0.36;-10.61;0.68;0.37;0.87
1753877735.9795449;-1.786;0.945;-0.035;-1.64;-1.08;-43.1;0.0;0.0;0.0;0.0;-24.0;-59.0;-34.0;7.0;-0.23;0.36;-10.61;0.66;0.42;0.87
1753877735.9845448;-1.786;0.945;-0.035;-1.64;-1.08;-43.1;0.0;0.0;0.0;0.0;-24.0;-59.0;-34.0;7.0;-0.23;0.36;-10.62;0.73;0.36;0.93
1753877735.9895449;-1.786;0.945;-0.035;-1.64;-1.08;-43.1;0.0;0.0;0.0;0.0;-24.0;-59.0;-34.0;7.0;-0.23;0.36;-10.61;0.66;0.29;0.96
1753877735.9945447;-1.786;0.945;-0.035;-1.64;-1.08;-43.1;0.0;0.0;0.0;0.0;-24.0;-59.0;-34.0;7.0;-0.23;0.35;-10.62;0.6;0.34;0.93
1753877735.9995449;-1.786;0.945;-0.035;-1.64;-1.08;-43.1;0.0;0.0;0.0;0.0;-24.0;-59.0;-34.0;7.0;-0.24;0.35;-10.62;0.65;0.24;1.04
1753877736.0045447;-1.786;0.945;-0.035;-1.64;-1.08;-43.1;0.0;0.0;0.0;0.0;-24.0;-59.0;-34.0;7.0;-0.24;0.35;-10.62;0.78;0.41;1.06
1753877736.0095448;-1.786;0.945;-0.035;-1.64;-1.08;-43.1;0.0;0.0;0.0;0.0;-24.0;-59.0;-34.0;7.0;-0.23;0.35;-10.62;0.83;0.39;0.87
1753877736.0145447;-1.786;0.945;-0.035;-1.64;-1.08;-43.1;0.0;0.0;0.0;0.0;-24.0;-59.0;-34.0;7.0;-0.23;0.35;-10.63;0.91;0.45;1.02
1753877736.0195448;-1.786;0.945;-0.035;-1.64;-1.08;-43.1;0.0;0.0;0.0;0.0;-24.0;-59.0;-34.0;7.0;-0.23;0.35;-10.64;0.86;0.41;0.93
1753877736.0245447;-1.786;0.945;-0.035;-1.64;-1.08;-43.1;0.0;0.0;0.0;0.0;-24.0;-59.0;-34.0;7.0;-0.23;0.36;-10.65;0.71;0.37;0.86
1753877736.0295448;-1.786;0.945;-0.035;-1.64;-1.08;-43.1;0.0;0.0;0.0;0.0;-24.0;-59.0;-34.0;7.0;-0.23;0.36;-10.65;0.72;0.37;0.96
1753877736.0345447;-1.786;0.945;-0.035;-1.64;-1.08;-43.1;0.0;0.0;0.0;0.0;-24.0;-59.0;-34.0;7.0;-0.23;0.36;-10.65;0.66;0.28;0.93
1753877736.0395448;-1.786;0.945;-0.035;-1.64;-1.08;-43.1;0.0;0.0;0.0;0.0;-24.0;-59.0;-34.0;7.0;-0.23;0.36;-10.65;0.56;0.39;0.9
1753877736.044545;-1.786;0.945;-0.035;-1.64;-1.08;-43.1;0.0;0.0;0.0;0.0;-24.0;-59.0;-34.0;7.0;-0.23;0.36;-10.66;0.68;0.21;1.01
1753877736.0495448;-1.786;0.945;-0.035;-1.64;-1.08;-43.1;0.0;0.0;0.0;0.0;-24.0;-59.0;-34.0;7.0;-0.23;0.36;-10.66;0.9;0.36;0.93
1753877736.054545;-1.786;0.945;-0.035;-1.64;-1.08;-43.1;0.0;0.0;0.0;0.0;-24.0;-59.0;-34.0;7.0;-0.23;0.37;-10.66;0.7;0.33;0.82
1753877736.0595448;-1.786;0.945;-0.035;-1.64;-1.08;-43.1;0.0;0.0;0.0;0.0;-24.0;-59.0;-34.0;7.0;-0.23;0.37;-10.65;0.59;0.33;0.95
1753877736.064545;-1.786;0.945;-0.035;-1.64;-1.08;-43.1;0.0;0.0;0.0;0.0;-24.0;-59.0;-34.0;7.0;-0.23;0.37;-10.65;0.59;0.25;1.07
1753877736.0695448;-1.786;0.945;-0.035;-1.64;-1.08;-43.1;0.0;0.0;0.0;0.0;-24.0;-59.0;-34.0;7.0;-0.23;0.37;-10.65;0.57;0.33;0.93
1753877736.074545;-1.786;0.945;-0.035;-1.64;-1.08;-43.1;0.0;0.0;0.0;0.0;-24.0;-59.0;-34.0;7.0;-0.23;0.37;-10.65;0.67;0.3;0.88
1753877736.0795448;-1.786;0.945;-0.035;-1.64;-1.08;-43.1;0.0;0.0;0.0;0.0;-24.0;-59.0;-34.0;7.0;-0.23;0.37;-10.65;0.7;0.25;0.81
1753877736.084545;-1.786;0.945;-0.035;-1.64;-1.08;-43.1;0.0;0.0;0.0;0.0;-24.0;-59.0;-34.0;7.0;-0.23;0.37;-10.65;0.71;0.48;0.91
1753877736.0895448;-1.786;0.945;-0.035;-1.64;-1.08;-43.1;0.0;0.0;0.0;0.0;-24.0;-59.0;-34.0;7.0;-0.23;0.37;-10.65;0.73;0.49;0.91
1753877736.094545;-1.786;0.945;-0.035;-1.64;-1.08;-43.1;0.0;0.0;0.0;0.0;-24.0;-59.0;-34.0;7.0;-0.23;0.36;-10.64;0.68;0.63;0.8
1753877736.099545;-1.786;0.945;-0.035;-1.64;-1.08;-43.1;0.0;0.0;0.0;0.0;-24.0;-59.0;-34.0;7.0;-0.23;0.36;-10.64;0.58;0.46;0.73
1753877736.104545;-1.786;0.945;-0.035;-1.64;-1.08;-43.1;0.0;0.0;0.0;0.0;-24.0;-59.0;-34.0;7.0;-0.23;0.37;-10.65;0.77;0.6;0.88
1753877736.1095452;-1.786;0.945;-0.035;-1.64;-1.08;-43.1;0.0;0.0;0.0;0.0;-24.0;-59.0;-34.0;7.0;-0.23;0.37;-10.64;0.62;0.53;0.88
1753877736.1145453;-1.786;0.945;-0.035;-1.64;-1.08;-43.1;0.0;0.0;0.0;0.0;-24.0;-59.0;-34.0;7.0;-0.23;0.36;-10.65;0.64;0.33;0.9
1753877736.1195455;-1.786;0.945;-0.035;-1.64;-1.08;-43.1;0.0;0.0;0.0;0.0;-24.0;-59.0;-34.0;7.0;-0.23;0.37;-10.66;0.76;0.56;0.94
1753877736.1245456;-1.786;0.945;-0.035;-1.64;-1.08;-43.1;0.0;0.0;0.0;0.0;-24.0;-59.0;-34.0;7.0;-0.23;0.37;-10.66;0.74;0.6;0.94
1753877736.1295457;-1.786;0.945;-0.035;-1.64;-1.08;-43.1;0.0;0.0;0.0;0.0;-24.0;-59.0;-34.0;7.0;-0.23;0.36;-10.63;0.83;0.33;0.95
1753877736.1345458;-1.786;0.945;-0.035;-1.64;-1.08;-43.1;0.0;0.0;0.0;0.0;-24.0;-59.0;-34.0;7.0;-0.23;0.38;-10.65;0.68;0.64;0.94
1753877736.139546;-1.786;0.945;-0.035;-1.64;-1.08;-43.1;0.0;0.0;0.0;0.0;-24.0;-59.0;-34.0;7.0;-0.23;0.36;-10.62;0.77;0.51;0.9
1753877736.144546;-1.786;0.945;-0.035;-1.64;-1.08;-43.1;0.0;0.0;0.0;0.0;-24.0;-59.0;-34.0;7.0;-0.23;0.37;-10.62;0.65;0.41;0.89
1753877736.1495461;-1.786;0.945;-0.035;-1.64;-1.08;-43.1;0.0;0.0;0.0;0.0;-24.0;-59.0;-34.0;7.0;-0.23;0.35;-10.63;0.56;0.43;0.83
1753877736.1545463;-1.786;0.945;-0.035;-1.64;-1.08;-43.1;0.0;0.0;0.0;0.0;-24.0;-59.0;-34.0;7.0;-0.23;0.38;-10.61;0.63;0.49;1.01
1753877736.1595464;-1.786;0.945;-0.035;-1.64;-1.08;-43.1;0.0;0.0;0.0;0.0;-24.0;-59.0;-34.0;7.0;-0.23;0.37;-10.63;0.57;0.51;0.94
1753877736.1645465;-1.786;0.945;-0.035;-1.64;-1.08;-43.1;0.0;0.0;0.0;0.0;-24.0;-59.0;-34.0;7.0;-0.23;0.37;-10.61;0.72;0.38;0.89
1753877736.1695466;-1.786;0.945;-0.035;-1.64;-1.08;-43.1;0.0;0.0;0.0;0.0;-24.0;-59.0;-34.0;7.0;-0.23;0.37;-10.64;0.47;0.49;0.75
1753877736.1745448;-1.786;0.945;-0.035;-1.64;-1.08;-43.1;0.0;0.0;0.0;0.0;-24.0;-59.0;-34.0;7.0;-0.23;0.36;-10.62;0.63;0.51;0.9
1753877736.179545;-1.786;0.945;-0.035;-1.64;-1.08;-43.1;0.0;0.0;0.0;0.0;-24.0;-59.0;-34.0;7.0;-0.23;0.37;-10.62;0.71;0.41;0.84
1753877736.1845448;-1.786;0.945;-0.035;-1.64;-1.08;-43.1;0.0;0.0;0.0;0.0;-24.0;-59.0;-34.0;7.0;-0.23;0.36;-10.62;0.67;0.28;0.96
1753877736.189545;-1.786;0.945;-0.035;-1.64;-1.08;-43.1;0.0;0.0;0.0;0.0;-24.0;-59.0;-34.0;7.0;-0.23;0.36;-10.62;0.63;0.35;0.87
1753877736.1945448;-1.786;0.945;-0.035;-1.64;-1.08;-43.1;0.0;0.0;0.0;0.0;-24.0;-59.0;-34.0;7.0;-0.24;0.35;-10.62;0.7;0.15;0.93
1753877736.199545;-1.786;0.945;-0.035;-1.64;-1.08;-43.1;0.0;0.0;0.0;0.0;-24.0;-59.0;-34.0;7.0;-0.24;0.36;-10.62;0.6;0.36;0.99
1753877736.2045448;-1.786;0.945;-0.035;-1.64;-1.08;-43.1;0.0;0.0;0.0;0.0;-24.0;-59.0;-34.0;7.0;-0.24;0.35;-10.63;0.67;0.36;0.83
1753877736.209545;-1.786;0.945;-0.035;-1.64;-1.08;-43.1;0.0;0.0;0.0;0.0;-24.0;-59.0;-34.0;7.0;-0.24;0.35;-10.63;0.83;0.32;0.93
1753877736.2145448;-1.786;0.945;-0.035;-1.64;-1.08;-43.1;0.0;0.0;0.0;0.0;-24.0;-59.0;-34.0;7.0;-0.24;0.35;-10.63;0.84;0.03;0.99
1753877736.219545;-1.786;0.945;-0.035;-1.64;-1.08;-43.1;0.0;0.0;0.0;0.0;-24.0;-59.0;-34.0;7.0;-0.23;0.36;-10.62;0.74;0.46;0.85
1753877736.2245448;-1.786;0.945;-0.035;-1.64;-1.08;-43.1;0.0;0.0;0.0;0.0;-24.0;-59.0;-34.0;7.0;-0.23;0.36;-10.62;0.65;0.38;1.0
1753877736.2295449;-1.786;0.945;-0.035;-1.64;-1.08;-43.1;0.0;0.0;0.0;0.0;-24.0;-59.0;-34.0;7.0;-0.23;0.35;-10.61;0.81;0.48;1.02
1753877736.234545;-1.786;0.945;-0.035;-1.64;-1.08;-43.1;0.0;0.0;0.0;0.0;-24.0;-59.0;-34.0;7.0;-0.23;0.37;-10.62;0.74;0.3;0.95
1753877736.239545;-1.786;0.945;-0.035;-1.64;-1.08;-43.1;0.0;0.0;0.0;0.0;-24.0;-59.0;-34.0;7.0;-0.23;0.36;-10.59;0.62;0.3;1.02
1753877736.2445452;-1.786;0.945;-0.035;-1.64;-1.08;-43.1;0.0;0.0;0.0;0.0;-24.0;-59.0;-34.0;7.0;-0.22;0.36;-10.61;0.78;0.25;1.01
1753877736.2495453;-1.786;0.945;-0.035;-1.64;-1.08;-43.1;0.0;0.0;0.0;0.0;-24.0;-59.0;-34.0;7.0;-0.24;0.36;-10.59;0.71;0.61;0.9
1753877736.2545455;-1.786;0.945;-0.035;-1.64;-1.08;-43.1;0.0;0.0;0.0;0.0;-24.0;-59.0;-34.0;7.0;-0.23;0.35;-10.61;0.7;0.29;0.92
1753877736.2595456;-1.786;0.945;-0.035;-1.64;-1.08;-43.1;0.0;0.0;0.0;0.0;-24.0;-59.0;-34.0;7.0;-0.23;0.36;-10.61;0.86;0.24;1.05
1753877736.2645457;-1.786;0.945;-0.035;-1.64;-1.08;-43.1;0.0;0.0;0.0;0.0;-24.0;-59.0;-34.0;7.0;-0.22;0.37;-10.62;0.84;0.33;0.79
1753877736.2695458;-1.786;0.945;-0.035;-1.64;-1.08;-43.1;0.0;0.0;0.0;0.0;-24.0;-59.0;-34.0;7.0;-0.23;0.36;-10.61;0.85;0.29;1.05
1753877736.2745447;-1.786;0.945;-0.035;-1.64;-1.08;-43.1;0.0;0.0;0.0;0.0;-24.0;-59.0;-34.0;7.0;-0.23;0.36;-10.63;0.81;0.33;0.93
1753877736.2795448;-1.786;0.945;-0.035;-1.64;-1.08;-43.1;0.0;0.0;0.0;0.0;-24.0;-59.0;-34.0;7.0;-0.22;0.36;-10.64;0.86;0.43;0.93
1753877736.284545;-1.786;0.945;-0.035;-1.64;-1.08;-43.1;0.0;0.0;0.0;0.0;-24.0;-59.0;-34.0;7.0;-0.22;0.37;-10.62;0.79;0.23;0.98
1753877736.289545;-1.786;0.945;-0.035;-1.64;-1.08;-43.1;0.0;0.0;0.0;0.0;-24.0;-59.0;-34.0;7.0;-0.23;0.36;-10.64;0.8;0.21;0.88
1753877736.2945452;-1.786;0.945;-0.035;-1.64;-1.08;-43.1;0.0;0.0;0.0;0.0;-24.0;-59.0;-34.0;7.0;-0.23;0.37;-10.64;0.66;0.27;0.95
1753877736.2995453;-1.786;0.945;-0.035;-1.64;-1.08;-43.1;0.0;0.0;0.0;0.0;-24.0;-59.0;-34.0;7.0;-0.22;0.37;-10.65;0.71;0.4;0.85
1753877736.3045454;-1.786;0.945;-0.035;-1.64;-1.08;-43.1;0.0;0.0;0.0;0.0;-24.0;-59.0;-34.0;7.0;-0.22;0.37;-10.62;0.63;0.16;0.95
1753877736.3095455;-1.786;0.945;-0.035;-1.64;-1.08;-43.1;0.0;0.0;0.0;0.0;-24.0;-59.0;-34.0;7.0;-0.23;0.36;-10.64;0.79;0.19;0.87
1753877736.3145456;-1.786;0.945;-0.035;-1.64;-1.08;-43.1;0.0;0.0;0.0;0.0;-24.0;-59.0;-34.0;7.0;-0.22;0.36;-10.62;0.86;0.26;0.86
1753877736.3195457;-1.786;0.945;-0.035;-1.64;-1.08;-43.1;0.0;0.0;0.0;0.0;-24.0;-59.0;-34.0;7.0;-0.23;0.36;-10.61;0.62;0.26;0.82
1753877736.3245459;-1.786;0.945;-0.035;-1.64;-1.08;-43.1;0.0;0.0;0.0;0.0;-24.0;-59.0;-34.0;7.0;-0.22;0.36;-10.61;0.72;0.49;0.8
1753877736.3295448;-1.786;0.945;-0.035;-1.64;-1.08;-43.1;0.0;0.0;0.0;0.0;-24.0;-59.0;-34.0;7.0;-0.22;0.36;-10.63;0.64;0.19;0.77
1753877736.334545;-1.786;0.945;-0.035;-1.64;-1.08;-43.1;0.0;0.0;0.0;0.0;-24.0;-59.0;-34.0;7.0;-0.22;0.36;-10.63;0.59;0.38;0.96
1753877736.339545;-1.786;0.945;-0.035;-1.64;-1.08;-43.1;0.0;0.0;0.0;0.0;-24.0;-59.0;-34.0;7.0;-0.22;0.36;-10.63;0.66;0.19;0.97
1753877736.344545;-1.786;0.945;-0.035;-1.64;-1.08;-43.1;0.0;0.0;0.0;0.0;-24.0;-59.0;-34.0;7.0;-0.23;0.36;-10.64;0.68;0.22;1.02
1753877736.3495448;-1.786;0.945;-0.035;-1.64;-1.08;-43.1;0.0;0.0;0.0;0.0;-24.0;-59.0;-34.0;7.0;-0.23;0.37;-10.64;0.6;0.25;0.99
1753877736.3545449;-1.786;0.945;-0.035;-1.64;-1.08;-43.1;0.0;0.0;0.0;0.0;-24.0;-59.0;-34.0;7.0;-0.23;0.37;-10.64;0.75;0.38;1.09
1753877736.3595448;-1.786;0.945;-0.035;-1.64;-1.08;-43.1;0.0;0.0;0.0;0.0;-24.0;-59.0;-34.0;7.0;-0.23;0.37;-10.63;0.82;0.34;0.89
1753877736.3645449;-1.786;0.945;-0.035;-1.64;-1.08;-43.1;0.0;0.0;0.0;0.0;-24.0;-59.0;-34.0;7.0;-0.23;0.36;-10.63;0.77;0.41;0.93
1753877736.3695447;-1.786;0.945;-0.035;-1.64;-1.08;-43.1;0.0;0.0;0.0;0.0;-24.0;-59.0;-34.0;7.0;-0.23;0.37;-10.63;0.72;0.24;0.98
1753877736.3745449;-1.786;0.945;-0.035;-1.64;-1.08;-43.1;0.0;0.0;0.0;0.0;-24.0;-59.0;-34.0;7.0;-0.23;0.36;-10.63;0.7;0.25;0.96
1753877736.3795447;-1.786;0.945;-0.035;-1.64;-1.08;-43.1;0.0;0.0;0.0;0.0;-24.0;-59.0;-34.0;7.0;-0.23;0.36;-10.64;0.69;0.32;0.89
1753877736.3845448;-1.786;0.945;-0.035;-1.64;-1.08;-43.1;0.0;0.0;0.0;0.0;-24.0;-59.0;-34.0;7.0;-0.22;0.37;-10.64;0.73;0.41;1.01
1753877736.3895447;-1.786;0.945;-0.035;-1.64;-1.08;-43.1;0.0;0.0;0.0;0.0;-24.0;-59.0;-34.0;7.0;-0.23;0.36;-10.64;0.76;0.35;0.92
1753877736.3945448;-1.786;0.945;-0.035;-1.64;-1.08;-43.1;0.0;0.0;0.0;0.0;-24.0;-59.0;-34.0;7.0;-0.22;0.36;-10.64;0.66;0.27;0.94
1753877736.3995447;-1.786;0.945;-0.035;-1.64;-1.08;-43.1;0.0;0.0;0.0;0.0;-24.0;-59.0;-34.0;7.0;-0.23;0.36;-10.63;0.74;0.35;0.96
1753877736.4045448;-1.786;0.945;-0.035;-1.64;-1.08;-43.1;0.0;0.0;0.0;0.0;-24.0;-59.0;-34.0;7.0;-0.22;0.35;-10.63;0.63;0.68;1.01
1753877736.4095447;-1.786;0.945;-0.035;-1.64;-1.08;-43.1;0.0;0.0;0.0;0.0;-24.0;-59.0;-34.0;7.0;-0.22;0.35;-10.63;0.71;0.41;1.05
1753877736.4145448;-1.786;0.945;-0.035;-1.64;-1.08;-43.1;0.0;0.0;0.0;0.0;-24.0;-59.0;-34.0;7.0;-0.22;0.35;-10.64;0.74;0.35;0.99
1753877736.419545;-1.786;0.945;-0.035;-1.64;-1.08;-43.1;0.0;0.0;0.0;0.0;-24.0;-59.0;-34.0;7.0;-0.22;0.36;-10.63;0.61;0.28;1.01
1753877736.4245448;-1.786;0.945;-0.035;-1.64;-1.08;-43.1;0.0;0.0;0.0;0.0;-24.0;-59.0;-34.0;7.0;-0.22;0.35;-10.64;0.68;0.38;0.92
1753877736.429545;-1.786;0.945;-0.035;-1.64;-1.08;-43.1;0.0;0.0;0.0;0.0;-24.0;-59.0;-34.0;7.0;-0.22;0.36;-10.64;0.64;0.29;0.92
1753877736.4345448;-1.786;0.945;-0.035;-1.64;-1.08;-43.1;0.0;0.0;0.0;0.0;-24.0;-59.0;-34.0;7.0;-0.22;0.36;-10.63;0.67;0.38;1.06
1753877736.439545;-1.786;0.945;-0.035;-1.64;-1.08;-43.1;0.0;0.0;0.0;0.0;-24.0;-59.0;-34.0;7.0;-0.22;0.36;-10.63;0.77;0.29;0.96
1753877736.4445448;-1.786;0.945;-0.035;-1.64;-1.08;-43.1;0.0;0.0;0.0;0.0;-24.0;-59.0;-34.0;7.0;-0.22;0.36;-10.63;0.73;0.34;0.9
1753877736.449545;-1.786;0.945;-0.035;-1.64;-1.08;-43.1;0.0;0.0;0.0;0.0;-24.0;-59.0;-34.0;7.0;-0.21;0.36;-10.62;0.64;0.38;1.0
1753877736.4545448;-1.786;0.945;-0.035;-1.64;-1.08;-43.1;0.0;0.0;0.0;0.0;-24.0;-59.0;-34.0;7.0;-0.21;0.36;-10.63;0.61;0.3;0.77
1753877736.459545;-1.786;0.945;-0.035;-1.64;-1.08;-43.1;0.0;0.0;0.0;0.0;-24.0;-59.0;-34.0;7.0;-0.21;0.36;-10.63;0.7;0.3;0.96
1753877736.4645448;-1.786;0.945;-0.035;-1.64;-1.08;-43.1;0.0;0.0;0.0;0.0;-24.0;-59.0;-34.0;7.0;-0.21;0.36;-10.63;0.68;0.21;1.0
1753877736.469545;-1.786;0.945;-0.035;-1.64;-1.08;-43.1;0.0;0.0;0.0;0.0;-24.0;-59.0;-34.0;7.0;-0.21;0.36;-10.63;0.7;0.31;0.96
1753877736.4745448;-1.786;0.945;-0.035;-1.64;-1.08;-43.1;0.0;0.0;0.0;0.0;-24.0;-59.0;-34.0;7.0;-0.21;0.36;-10.63;0.68;0.47;0.93
1753877736.4795449;-1.786;0.945;-0.035;-1.64;-1.08;-43.1;0.0;0.0;0.0;0.0;-24.0;-59.0;-34.0;7.0;-0.21;0.37;-10.63;0.77;0.35;1.05
1753877736.4845448;-1.786;0.945;-0.035;-1.64;-1.08;-43.1;0.0;0.0;0.0;0.0;-24.0;-59.0;-34.0;7.0;-0.22;0.37;-10.63;0.77;0.28;0.99
1753877736.4895449;-1.786;0.945;-0.035;-1.64;-1.08;-43.1;0.0;0.0;0.0;0.0;-24.0;-59.0;-34.0;7.0;-0.22;0.36;-10.63;0.6;0.25;0.96
1753877736.4945447;-1.786;0.945;-0.035;-1.64;-1.08;-43.1;0.0;0.0;0.0;0.0;-24.0;-59.0;-34.0;7.0;-0.23;0.36;-10.63;0.59;0.28;0.92
1753877736.4995449;-1.786;0.945;-0.035;-1.64;-1.08;-43.1;0.0;0.0;0.0;0.0;-24.0;-59.0;-34.0;7.0;-0.23;0.36;-10.63;0.57;0.36;0.87
1753877736.5045447;-1.786;0.945;-0.035;-1.64;-1.08;-43.1;0.0;0.0;0.0;0.0;-24.0;-59.0;-34.0;7.0;-0.23;0.36;-10.63;0.76;0.28;0.85
1753877736.5095448;-1.786;0.945;-0.035;-1.64;-1.08;-43.1;0.0;0.0;0.0;0.0;-24.0;-59.0;-34.0;7.0;-0.23;0.36;-10.63;0.69;0.32;0.96
1753877736.5145447;-1.786;0.945;-0.035;-1.64;-1.08;-43.1;0.0;0.0;0.0;0.0;-24.0;-59.0;-34.0;7.0;-0.23;0.36;-10.62;0.74;0.35;0.9
1753877736.5195448;-1.786;0.945;-0.035;-1.64;-1.08;-43.1;0.0;0.0;0.0;0.0;-24.0;-59.0;-34.0;7.0;-0.23;0.36;-10.62;0.71;0.22;0.97
1753877736.5245447;-1.786;0.945;-0.035;-1.64;-1.08;-43.1;0.0;0.0;0.0;0.0;-24.0;-59.0;-34.0;7.0;-0.24;0.36;-10.61;0.66;0.28;0.93
1753877736.5295448;-1.786;0.945;-0.035;-1.64;-1.08;-43.1;0.0;0.0;0.0;0.0;-24.0;-59.0;-34.0;7.0;-0.23;0.35;-10.61;0.83;0.32;0.86
1753877736.5345447;-1.786;0.945;-0.035;-1.64;-1.08;-43.1;0.0;0.0;0.0;0.0;-24.0;-59.0;-34.0;7.0;-0.23;0.35;-10.61;0.64;0.39;0.89
1753877736.5395448;-1.786;0.945;-0.035;-1.64;-1.08;-43.1;0.0;0.0;0.0;0.0;-24.0;-59.0;-34.0;7.0;-0.23;0.35;-10.62;0.63;0.35;0.91
1753877736.544545;-1.786;0.945;-0.035;-1.64;-1.08;-43.1;0.0;0.0;0.0;0.0;-24.0;-59.0;-34.0;7.0;-0.23;0.35;-10.61;0.75;0.35;0.98
1753877736.5495448;-1.786;0.945;-0.035;-1.64;-1.08;-43.1;0.0;0.0;0.0;0.0;-24.0;-59.0;-34.0;7.0;-0.23;0.35;-10.62;0.73;0.28;0.8
1753877736.554545;-1.786;0.945;-0.035;-1.64;-1.08;-43.1;0.0;0.0;0.0;0.0;-24.0;-59.0;-34.0;7.0;-0.23;0.36;-10.63;0.64;0.32;1.0
1753877736.5595448;-1.786;0.945;-0.035;-1.64;-1.08;-43.1;0.0;0.0;0.0;0.0;-24.0;-59.0;-34.0;7.0;-0.22;0.36;-10.63;0.68;0.27;1.0
1753877736.564545;-1.786;0.945;-0.035;-1.64;-1.08;-43.1;0.0;0.0;0.0;0.0;-24.0;-59.0;-34.0;7.0;-0.23;0.36;-10.63;0.72;0.36;0.97
1753877736.5695448;-1.786;0.945;-0.035;-1.64;-1.08;-43.1;0.0;0.0;0.0;0.0;-24.0;-59.0;-34.0;7.0;-0.22;0.36;-10.63;0.69;0.38;1.01
1753877736.574545;-1.786;0.945;-0.035;-1.64;-1.08;-43.1;0.0;0.0;0.0;0.0;-24.0;-59.0;-34.0;7.0;-0.22;0.37;-10.62;0.56;0.34;1.0
1753877736.5795448;-1.786;0.945;-0.035;-1.64;-1.08;-43.1;0.0;0.0;0.0;0.0;-24.0;-59.0;-34.0;7.0;-0.22;0.37;-10.63;0.64;0.27;0.93
1753877736.584545;-1.786;0.945;-0.035;-1.64;-1.08;-43.1;0.0;0.0;0.0;0.0;-24.0;-59.0;-34.0;7.0;-0.22;0.37;-10.63;0.7;0.24;0.74
1753877736.5895448;-1.786;0.945;-0.035;-1.64;-1.08;-43.1;0.0;0.0;0.0;0.0;-24.0;-59.0;-34.0;7.0;-0.22;0.37;-10.64;0.72;0.45;1.04
1753877736.594545;-1.786;0.945;-0.035;-1.64;-1.08;-43.1;0.0;0.0;0.0;0.0;-23.8;-60.5;-34.0;7.0;-0.22;0.37;-10.63;0.78;0.49;0.99
1753877736.599545;-1.786;0.945;-0.035;-1.64;-1.08;-43.1;0.0;0.0;0.0;0.0;-23.9;-60.3;-34.0;7.0;-0.22;0.36;-10.65;0.77;0.48;0.89
1753877736.604545;-1.786;0.945;-0.035;-1.64;-1.08;-43.1;0.0;0.0;0.0;0.0;-24.1;-58.3;-34.0;7.0;-0.21;0.35;-10.63;0.84;0.43;0.94
1753877736.6095452;-1.786;0.945;-0.035;-1.64;-1.07;-43.1;0.0;0.0;0.0;0.0;-24.2;-59.7;-34.0;6.6;-0.22;0.37;-10.63;0.68;0.41;1.04
1753877736.6145453;-1.786;0.945;-0.035;-1.64;-1.08;-43.1;0.0;0.0;0.0;0.0;-23.8;-61.9;-34.0;6.3;-0.22;0.38;-10.65;0.6;0.46;0.93
1753877736.6195455;-1.786;0.945;-0.035;-1.64;-1.08;-43.1;0.0;0.0;0.0;0.0;-24.8;-62.3;-34.0;7.1;-0.23;0.37;-10.63;0.64;0.36;0.97
1753877736.6245456;-1.786;0.945;-0.035;-1.64;-1.08;-43.1;0.0;0.0;0.0;0.0;-24.4;-60.8;-34.0;6.6;-0.22;0.37;-10.62;0.69;0.52;0.98
1753877736.6295457;-1.786;0.945;-0.035;-1.63;-1.07;-43.1;0.0;0.0;0.0;0.0;-24.5;-59.7;-34.0;6.7;-0.23;0.37;-10.64;0.82;0.32;1.09
1753877736.6345458;-1.786;0.945;-0.035;-1.64;-1.07;-43.1;0.0;0.0;0.0;0.0;-24.1;-59.7;-34.0;7.0;-0.23;0.37;-10.63;0.58;0.39;0.82
1753877736.639546;-1.786;0.945;-0.035;-1.64;-1.07;-43.1;0.0;0.0;0.0;0.0;-24.3;-63.4;-34.0;6.7;-0.22;0.37;-10.64;0.77;0.49;1.06
1753877736.644546;-1.786;0.945;-0.035;-1.63;-1.07;-43.1;0.0;0.0;0.0;0.0;-24.4;-63.0;-34.0;6.4;-0.22;0.37;-10.63;0.69;0.4;1.06
1753877736.6495461;-1.786;0.945;-0.035;-1.63;-1.07;-43.1;0.0;0.0;0.0;0.0;-24.3;-61.0;-34.0;6.5;-0.22;0.37;-10.64;0.75;0.41;0.92
1753877736.6545463;-1.786;0.945;-0.035;-1.64;-1.06;-43.1;0.0;0.0;0.0;0.0;-24.7;-62.2;-34.0;6.4;-0.23;0.36;-10.63;0.87;0.44;1.03
1753877736.6595464;-1.786;0.945;-0.035;-1.63;-1.07;-43.1;0.0;0.0;0.0;0.0;-24.5;-60.4;-34.0;6.6;-0.23;0.36;-10.62;0.73;0.49;0.88
1753877736.6645465;-1.786;0.945;-0.035;-1.63;-1.07;-43.1;0.0;0.0;0.0;0.0;-24.8;-64.3;-34.0;6.5;-0.23;0.36;-10.61;0.87;0.34;0.95
1753877736.6695466;-1.786;0.945;-0.035;-1.63;-1.06;-43.1;0.0;0.0;0.0;0.0;-24.3;-64.8;-34.0;6.5;-0.23;0.37;-10.63;0.95;0.29;0.82
1753877736.6745467;-1.786;0.945;-0.035;-1.63;-1.07;-43.1;0.0;0.0;0.0;0.0;-24.2;-63.9;-34.0;6.3;-0.23;0.37;-10.63;0.73;0.39;0.91
1753877736.6795468;-1.786;0.945;-0.035;-1.63;-1.06;-43.1;0.0;0.0;0.0;0.0;-24.8;-63.6;-34.0;6.3;-0.22;0.36;-10.62;0.86;0.31;0.94
1753877736.684547;-1.786;0.945;-0.035;-1.63;-1.06;-43.1;0.0;0.0;0.0;0.0;-24.9;-64.3;-34.0;6.2;-0.23;0.37;-10.62;0.77;0.43;0.95
1753877736.689547;-1.786;0.945;-0.035;-1.63;-1.06;-43.1;0.0;0.0;0.0;0.0;-25.0;-65.9;-34.0;5.9;-0.23;0.36;-10.61;0.75;0.46;0.95
1753877736.6945472;-1.786;0.945;-0.035;-1.63;-1.06;-43.1;0.0;0.0;0.0;0.0;-25.0;-63.8;-34.0;6.1;-0.22;0.37;-10.62;0.78;0.44;0.94
1753877736.699545;-1.786;0.945;-0.035;-1.63;-1.06;-43.1;0.0;0.0;0.0;0.0;-25.0;-65.0;-34.0;6.0;-0.23;0.36;-10.62;0.84;0.37;0.9
1753877736.7045448;-1.786;0.945;-0.035;-1.63;-1.06;-43.1;0.0;0.0;0.0;0.0;-25.0;-65.0;-34.0;6.0;-0.23;0.36;-10.62;0.55;0.21;0.87
1753877736.709545;-1.786;0.945;-0.035;-1.63;-1.06;-43.1;0.0;0.0;0.0;0.0;-25.0;-65.0;-34.0;6.0;-0.23;0.36;-10.63;0.46;0.34;0.9
1753877736.7145448;-1.786;0.945;-0.035;-1.63;-1.06;-43.1;0.0;0.0;0.0;0.0;-25.0;-65.0;-34.0;6.0;-0.23;0.36;-10.63;0.65;0.17;0.93
1753877736.719545;-1.786;0.945;-0.035;-1.63;-1.06;-43.1;0.0;0.0;0.0;0.0;-25.0;-65.0;-34.0;6.0;-0.23;0.36;-10.63;0.74;0.38;0.99
1753877736.7245448;-1.786;0.945;-0.035;-1.63;-1.06;-43.1;0.0;0.0;0.0;0.0;-25.0;-65.0;-34.0;6.0;-0.23;0.35;-10.63;0.64;0.5;0.84
1753877736.7295449;-1.786;0.945;-0.035;-1.63;-1.06;-43.1;0.0;0.0;0.0;0.0;-25.0;-65.0;-34.0;6.0;-0.23;0.35;-10.62;0.68;0.38;0.86
1753877736.7345448;-1.786;0.945;-0.035;-1.63;-1.06;-43.1;0.0;0.0;0.0;0.0;-25.0;-65.0;-34.0;6.0;-0.23;0.35;-10.62;0.66;0.29;0.84
1753877736.7395449;-1.786;0.945;-0.035;-1.63;-1.06;-43.1;0.0;0.0;0.0;0.0;-25.0;-65.0;-34.0;6.0;-0.23;0.35;-10.64;0.68;0.25;0.93
1753877736.7445447;-1.786;0.945;-0.035;-1.63;-1.06;-43.1;0.0;0.0;0.0;0.0;-25.0;-65.0;-34.0;6.0;-0.23;0.35;-10.63;0.73;0.34;0.97
1753877736.7495449;-1.786;0.945;-0.035;-1.63;-1.06;-43.1;0.0;0.0;0.0;0.0;-25.0;-65.0;-34.0;6.0;-0.24;0.35;-10.63;0.7;0.32;1.03
1753877736.7545447;-1.786;0.945;-0.035;-1.63;-1.06;-43.1;0.0;0.0;0.0;0.0;-25.0;-65.0;-34.0;6.0;-0.24;0.35;-10.62;0.74;0.32;0.92
1753877736.7595448;-1.786;0.945;-0.035;-1.63;-1.06;-43.1;0.0;0.0;0.0;0.0;-25.0;-65.0;-34.0;6.0;-0.24;0.35;-10.62;0.76;0.28;0.8
1753877736.7645447;-1.786;0.945;-0.035;-1.63;-1.06;-43.1;0.0;0.0;0.0;0.0;-25.0;-65.0;-34.0;6.0;-0.24;0.35;-10.62;0.82;0.35;0.98
1753877736.7695448;-1.786;0.945;-0.035;-1.63;-1.06;-43.1;0.0;0.0;0.0;0.0;-25.0;-65.0;-34.0;6.0;-0.25;0.35;-10.62;0.74;0.28;0.94
1753877736.7745447;-1.786;0.945;-0.035;-1.63;-1.06;-43.1;0.0;0.0;0.0;0.0;-25.0;-65.0;-34.0;6.0;-0.24;0.35;-10.62;0.7;0.36;0.96
1753877736.7795448;-1.786;0.945;-0.035;-1.63;-1.06;-43.1;0.0;0.0;0.0;0.0;-25.0;-65.0;-34.0;6.0;-0.24;0.35;-10.62;0.62;0.27;0.91
1753877736.7845447;-1.786;0.945;-0.035;-1.63;-1.06;-43.1;0.0;0.0;0.0;0.0;-25.0;-65.0;-34.0;6.0;-0.24;0.36;-10.62;0.84;0.4;0.89
1753877736.7895448;-1.786;0.945;-0.035;-1.63;-1.06;-43.1;0.0;0.0;0.0;0.0;-25.0;-65.0;-34.0;6.0;-0.24;0.36;-10.63;0.8;0.24;0.76
1753877736.794545;-1.786;0.945;-0.035;-1.63;-1.06;-43.1;0.0;0.0;0.0;0.0;-25.0;-65.0;-34.0;6.0;-0.23;0.36;-10.62;0.84;0.38;0.99
1753877736.7995448;-1.786;0.945;-0.035;-1.63;-1.06;-43.1;0.0;0.0;0.0;0.0;-25.0;-65.0;-34.0;6.0;-0.23;0.35;-10.62;0.74;0.33;0.87
1753877736.804545;-1.786;0.945;-0.035;-1.63;-1.06;-43.1;0.0;0.0;0.0;0.0;-25.0;-65.0;-34.0;6.0;-0.23;0.36;-10.62;0.57;0.2;0.99
1753877736.8095448;-1.786;0.945;-0.035;-1.63;-1.06;-43.1;0.0;0.0;0.0;0.0;-25.0;-65.0;-34.0;6.0;-0.22;0.36;-10.63;0.65;0.24;0.93
1753877736.814545;-1.786;0.945;-0.035;-1.63;-1.06;-43.1;0.0;0.0;0.0;0.0;-25.0;-65.0;-34.0;6.0;-0.22;0.36;-10.63;0.74;0.29;0.9
1753877736.8195448;-1.786;0.945;-0.035;-1.63;-1.06;-43.1;0.0;0.0;0.0;0.0;-25.0;-65.0;-34.0;6.0;-0.22;0.36;-10.63;0.64;0.36;1.02
1753877736.824545;-1.786;0.945;-0.035;-1.63;-1.06;-43.1;0.0;0.0;0.0;0.0;-25.0;-65.0;-34.0;6.0;-0.21;0.36;-10.63;0.76;0.27;1.0
1753877736.8295448;-1.786;0.945;-0.035;-1.63;-1.06;-43.1;0.0;0.0;0.0;0.0;-25.0;-65.0;-34.0;6.0;-0.21;0.37;-10.63;0.67;0.28;0.94
1753877736.834545;-1.786;0.945;-0.035;-1.63;-1.06;-43.1;0.0;0.0;0.0;0.0;-25.0;-65.0;-34.0;6.0;-0.21;0.37;-10.63;0.61;0.25;1.02
1753877736.8395448;-1.786;0.945;-0.035;-1.63;-1.06;-43.1;0.0;0.0;0.0;0.0;-25.0;-65.0;-34.0;6.0;-0.21;0.37;-10.63;0.9;0.27;0.96
1753877736.844545;-1.786;0.945;-0.035;-1.63;-1.06;-43.1;0.0;0.0;0.0;0.0;-25.0;-65.0;-34.0;6.0;-0.22;0.37;-10.62;0.8;0.34;0.88
1753877736.8495448;-1.786;0.945;-0.035;-1.63;-1.06;-43.1;0.0;0.0;0.0;0.0;-25.0;-65.0;-34.0;6.0;-0.22;0.37;-10.62;0.68;0.35;0.9
1753877736.8545449;-1.786;0.945;-0.035;-1.63;-1.06;-43.1;0.0;0.0;0.0;0.0;-25.0;-65.0;-34.0;6.0;-0.22;0.37;-10.62;0.7;0.29;1.0
1753877736.859545;-1.786;0.945;-0.035;-1.63;-1.06;-43.1;0.0;0.0;0.0;0.0;-25.0;-65.0;-34.0;6.0;-0.22;0.37;-10.62;0.66;0.36;1.06
1753877736.8645449;-1.786;0.945;-0.035;-1.63;-1.06;-43.1;0.0;0.0;0.0;0.0;-25.0;-65.0;-34.0;6.0;-0.22;0.37;-10.62;0.69;0.47;0.92
1753877736.8695447;-1.786;0.945;-0.035;-1.63;-1.06;-43.1;0.0;0.0;0.0;0.0;-25.0;-65.0;-34.0;6.0;-0.22;0.37;-10.62;0.8;0.25;1.01
1753877736.8745449;-1.786;0.945;-0.035;-1.63;-1.06;-43.1;0.0;0.0;0.0;0.0;-25.0;-65.0;-34.0;6.0;-0.22;0.38;-10.62;0.74;0.19;0.86
1753877736.879545;-1.786;0.945;-0.035;-1.63;-1.06;-43.1;0.0;0.0;0.0;0.0;-25.0;-65.0;-34.0;6.0;-0.23;0.36;-10.63;0.8;0.19;0.84
1753877736.8845448;-1.786;0.945;-0.035;-1.63;-1.06;-43.1;0.0;0.0;0.0;0.0;-25.0;-65.0;-34.0;6.0;-0.21;0.37;-10.62;0.75;0.28;0.83
1753877736.8895447;-1.786;0.945;-0.035;-1.63;-1.06;-43.1;0.0;0.0;0.0;0.0;-25.0;-65.0;-34.0;6.0;-0.22;0.37;-10.62;0.77;0.34;0.92
1753877736.8945448;-1.786;0.945;-0.035;-1.63;-1.06;-43.1;0.0;0.0;0.0;0.0;-25.0;-65.0;-34.0;6.0;-0.22;0.37;-10.63;0.71;0.28;1.02
1753877736.8995447;-1.786;0.945;-0.035;-1.63;-1.06;-43.1;0.0;0.0;0.0;0.0;-25.0;-65.0;-34.0;6.0;-0.22;0.37;-10.63;0.64;0.29;0.94
1753877736.9045448;-1.786;0.945;-0.035;-1.63;-1.06;-43.1;0.0;0.0;0.0;0.0;-25.0;-65.0;-34.0;6.0;-0.22;0.37;-10.63;0.75;0.19;0.98
1753877736.9095447;-1.786;0.945;-0.035;-1.63;-1.06;-43.1;0.0;0.0;0.0;0.0;-25.0;-65.0;-34.0;6.0;-0.22;0.38;-10.63;0.59;0.34;1.04
1753877736.9145448;-1.786;0.945;-0.035;-1.63;-1.06;-43.1;0.0;0.0;0.0;0.0;-25.0;-65.0;-34.0;6.0;-0.22;0.38;-10.63;0.8;0.2;0.93
1753877736.919545;-1.786;0.945;-0.035;-1.63;-1.06;-43.1;0.0;0.0;0.0;0.0;-25.0;-65.0;-34.0;6.0;-0.23;0.37;-10.62;0.77;0.35;0.91
1753877736.9245448;-1.786;0.945;-0.035;-1.63;-1.06;-43.1;0.0;0.0;0.0;0.0;-25.0;-65.0;-34.0;6.0;-0.23;0.37;-10.63;0.77;0.25;0.99
1753877736.929545;-1.786;0.945;-0.035;-1.63;-1.06;-43.1;0.0;0.0;0.0;0.0;-25.0;-65.0;-34.0;6.0;-0.24;0.37;-10.62;0.64;0.24;0.95
1753877736.9345448;-1.786;0.945;-0.035;-1.63;-1.06;-43.1;0.0;0.0;0.0;0.0;-25.0;-65.0;-34.0;6.0;-0.24;0.37;-10.62;0.56;0.23;0.91
1753877736.939545;-1.786;0.945;-0.035;-1.63;-1.06;-43.1;0.0;0.0;0.0;0.0;-25.0;-65.0;-34.0;6.0;-0.25;0.37;-10.62;0.65;0.33;0.78
1753877736.9445448;-1.786;0.945;-0.035;-1.63;-1.06;-43.1;0.0;0.0;0.0;0.0;-25.0;-65.0;-34.0;6.0;-0.25;0.36;-10.62;0.68;0.41;0.99
1753877736.949545;-1.786;0.945;-0.035;-1.63;-1.06;-43.1;0.0;0.0;0.0;0.0;-25.0;-65.0;-34.0;6.0;-0.24;0.36;-10.61;0.63;0.43;1.06
1753877736.9545448;-1.786;0.945;-0.035;-1.63;-1.06;-43.1;0.0;0.0;0.0;0.0;-25.0;-65.0;-34.0;6.0;-0.24;0.36;-10.61;0.7;0.16;1.0
1753877736.959545;-1.786;0.945;-0.035;-1.63;-1.06;-43.1;0.0;0.0;0.0;0.0;-25.0;-65.0;-34.0;6.0;-0.24;0.36;-10.62;0.77;0.26;0.95
1753877736.9645448;-1.786;0.945;-0.035;-1.63;-1.06;-43.1;0.0;0.0;0.0;0.0;-25.0;-65.0;-34.0;6.0;-0.23;0.36;-10.62;0.85;0.35;1.08
1753877736.969545;-1.786;0.945;-0.035;-1.63;-1.06;-43.1;0.0;0.0;0.0;0.0;-25.0;-65.0;-34.0;6.0;-0.23;0.36;-10.63;0.7;0.19;0.92
1753877736.974545;-1.786;0.945;-0.035;-1.63;-1.06;-43.1;0.0;0.0;0.0;0.0;-24.9;-63.2;-33.6;6.0;-0.21;0.37;-10.65;0.59;0.23;0.86
1753877736.9795449;-1.786;0.945;-0.035;-1.64;-1.07;-43.1;0.0;0.0;0.0;0.0;-24.0;-62.0;-33.0;7.0;-0.23;0.37;-10.64;0.61;0.29;1.07
1753877736.9845448;-1.786;0.945;-0.035;-1.64;-1.07;-43.1;0.0;0.0;0.0;0.0;-24.0;-62.0;-33.0;7.0;-0.23;0.37;-10.65;0.74;0.19;0.95
1753877736.9895449;-1.786;0.945;-0.035;-1.64;-1.07;-43.1;0.0;0.0;0.0;0.0;-24.0;-62.0;-33.0;7.0;-0.23;0.36;-10.66;0.79;0.3;0.97
1753877736.994545;-1.786;0.945;-0.035;-1.64;-1.06;-43.1;0.0;0.0;0.0;0.0;-24.3;-61.6;-33.3;7.1;-0.25;0.35;-10.65;0.79;0.3;1.01
1753877736.999545;-1.786;0.945;-0.035;-1.64;-1.07;-43.1;0.0;0.0;0.0;0.0;-23.5;-61.0;-33.5;6.6;-0.23;0.36;-10.65;0.88;0.25;1.08
1753877737.0045452;-1.786;0.945;-0.035;-1.64;-1.07;-43.1;0.0;0.0;0.0;0.0;-23.8;-62.7;-33.0;7.2;-0.22;0.36;-10.65;0.9;0.26;1.02
1753877737.0095453;-1.786;0.945;-0.035;-1.64;-1.07;-43.1;0.0;0.0;0.0;0.0;-24.4;-61.8;-32.5;7.4;-0.22;0.36;-10.65;0.78;0.26;0.86
1753877737.0145454;-1.786;0.945;-0.035;-1.64;-1.07;-43.1;0.0;0.0;0.0;0.0;-23.8;-64.3;-32.9;6.2;-0.23;0.36;-10.66;0.81;0.34;0.99
1753877737.0195456;-1.786;0.945;-0.035;-1.64;-1.07;-43.1;0.0;0.0;0.0;0.0;-23.9;-61.9;-32.8;6.7;-0.22;0.36;-10.68;0.84;0.43;0.89
1753877737.0245457;-1.786;0.945;-0.035;-1.64;-1.07;-43.1;0.0;0.0;0.0;0.0;-24.1;-60.8;-33.1;6.9;-0.22;0.35;-10.65;0.73;0.31;0.89
1753877737.0295458;-1.786;0.945;-0.035;-1.63;-1.07;-43.1;0.0;0.0;0.0;0.0;-23.5;-60.5;-33.1;7.3;-0.22;0.35;-10.63;0.73;0.39;0.91
1753877737.034546;-1.786;0.945;-0.035;-1.64;-1.07;-43.1;0.0;0.0;0.0;0.0;-24.1;-63.1;-33.3;7.4;-0.22;0.36;-10.63;0.76;0.29;0.82
1753877737.039546;-1.786;0.945;-0.035;-1.64;-1.07;-43.1;0.0;0.0;0.0;0.0;-24.0;-61.1;-33.0;6.8;-0.22;0.36;-10.65;0.7;0.37;0.99
1753877737.0445461;-1.786;0.945;-0.035;-1.64;-1.07;-43.1;0.0;0.0;0.0;0.0;-23.2;-63.4;-32.8;7.5;-0.24;0.36;-10.62;0.62;0.2;1.0
1753877737.0495462;-1.786;0.945;-0.035;-1.65;-1.07;-43.1;0.0;0.0;0.0;0.0;-23.5;-61.2;-32.9;7.1;-0.23;0.36;-10.64;0.65;0.28;0.91
1753877737.0545464;-1.786;0.945;-0.035;-1.64;-1.08;-43.1;0.0;0.0;0.0;0.0;-23.3;-62.6;-33.0;7.1;-0.22;0.36;-10.64;0.68;0.26;0.97
1753877737.0595465;-1.786;0.945;-0.035;-1.64;-1.07;-43.1;0.0;0.0;0.0;0.0;-24.1;-63.9;-33.3;6.7;-0.22;0.36;-10.65;0.73;0.32;0.97
1753877737.064545;-1.786;0.945;-0.035;-1.64;-1.07;-43.1;0.0;0.0;0.0;0.0;-24.0;-62.0;-33.0;7.0;-0.23;0.36;-10.63;0.68;0.32;0.99
1753877737.0695448;-1.786;0.945;-0.035;-1.64;-1.07;-43.1;0.0;0.0;0.0;0.0;-24.0;-62.0;-33.0;7.0;-0.23;0.35;-10.64;0.67;0.33;0.96
1753877737.074545;-1.786;0.945;-0.035;-1.64;-1.07;-43.1;0.0;0.0;0.0;0.0;-24.0;-62.0;-33.0;7.0;-0.23;0.35;-10.64;0.66;0.2;0.96
1753877737.079545;-1.786;0.945;-0.035;-1.64;-1.07;-43.1;0.0;0.0;0.0;0.0;-25.7;-63.5;-33.4;5.7;-0.23;0.35;-10.66;0.56;0.22;1.02
1753877737.0845451;-1.786;0.945;-0.035;-1.63;-1.07;-43.1;0.0;0.0;0.0;0.0;-24.4;-62.0;-33.0;8.4;-0.22;0.35;-10.63;0.6;0.34;1.03
1753877737.0895452;-1.786;0.945;-0.035;-1.64;-1.07;-43.1;0.0;0.0;0.0;0.0;-24.9;-64.1;-33.1;15.2;-0.24;0.35;-10.64;0.64;0.15;0.89
1753877737.0945454;-1.786;0.945;-0.035;-1.64;-1.07;-43.1;0.0;0.0;0.0;0.0;-24.9;-61.2;-32.7;7.2;-0.23;0.35;-10.63;0.77;0.25;1.05
1753877737.0995455;-1.786;0.945;-0.035;-1.64;-1.08;-43.1;0.0;0.0;0.0;0.0;-25.1;-61.2;-33.7;11.3;-0.24;0.35;-10.62;0.62;0.05;1.13
1753877737.1045456;-1.786;0.945;-0.035;-1.64;-1.06;-43.1;0.0;0.0;0.0;0.0;-24.1;-63.7;-33.0;4.4;-0.23;0.36;-10.65;0.75;0.26;0.97
1753877737.1095457;-1.786;0.945;-0.035;-1.64;-1.07;-43.1;0.0;0.0;0.0;0.0;-23.9;-62.3;-34.1;10.8;-0.23;0.36;-10.65;0.73;0.21;0.95
1753877737.1145458;-1.786;0.945;-0.035;-1.64;-1.07;-43.1;0.0;0.0;0.0;0.0;-23.7;-62.7;-33.4;8.6;-0.23;0.37;-10.62;0.72;0.22;1.1
1753877737.119546;-1.786;0.945;-0.035;-1.63;-1.07;-43.1;0.0;0.0;0.0;0.0;-24.7;-64.1;-34.3;9.4;-0.24;0.34;-10.65;0.78;0.05;1.08
1753877737.124546;-1.786;0.945;-0.035;-1.63;-1.08;-43.1;0.0;0.0;0.0;0.0;-24.9;-63.4;-33.5;8.3;-0.23;0.36;-10.63;0.57;0.21;0.96
1753877737.1295462;-1.786;0.945;-0.035;-1.64;-1.08;-43.1;0.0;0.0;0.0;0.0;-23.4;-64.5;-33.4;11.0;-0.22;0.36;-10.64;0.78;0.21;0.93
1753877737.1345463;-1.786;0.945;-0.035;-1.64;-1.07;-43.1;0.0;0.0;0.0;0.0;-24.3;-62.4;-33.8;8.4;-0.24;0.35;-10.64;0.68;0.26;1.0
1753877737.1395464;-1.786;0.945;-0.035;-1.64;-1.07;-43.1;0.0;0.0;0.0;0.0;-23.6;-63.0;-34.0;9.9;-0.22;0.37;-10.66;0.71;0.2;1.01
1753877737.1445465;-1.786;0.945;-0.035;-1.64;-1.07;-43.1;0.0;0.0;0.0;0.0;-23.8;-64.5;-33.8;6.9;-0.24;0.35;-10.64;0.69;0.24;0.94
1753877737.1495466;-1.786;0.945;-0.035;-1.64;-1.07;-43.1;0.0;0.0;0.0;0.0;-24.8;-60.3;-33.1;8.2;-0.23;0.36;-10.67;0.71;0.2;0.82
1753877737.1545467;-1.786;0.945;-0.035;-1.63;-1.07;-43.1;0.0;0.0;0.0;0.0;-23.7;-64.8;-33.6;11.9;-0.23;0.35;-10.64;0.69;0.21;0.97
1753877737.1595469;-1.786;0.945;-0.035;-1.63;-1.07;-43.1;0.0;0.0;0.0;0.0;-24.5;-61.3;-34.6;10.2;-0.24;0.36;-10.63;0.7;0.3;1.12
1753877737.164547;-1.786;0.945;-0.035;-1.63;-1.07;-43.1;0.0;0.0;0.0;0.0;-23.4;-64.6;-34.6;11.9;-0.24;0.37;-10.63;0.67;0.21;1.0
1753877737.169547;-1.786;0.945;-0.035;-1.64;-1.07;-43.1;0.0;0.0;0.0;0.0;-23.8;-63.9;-34.5;13.1;-0.23;0.36;-10.64;0.76;0.07;1.03
1753877737.1745472;-1.786;0.945;-0.035;-1.63;-1.07;-43.1;0.0;0.0;0.0;0.0;-23.3;-62.9;-34.0;8.1;-0.24;0.35;-10.63;0.68;0.18;0.92
1753877737.1795473;-1.786;0.945;-0.035;-1.63;-1.06;-43.1;0.0;0.0;0.0;0.0;-24.0;-65.4;-33.6;12.0;-0.22;0.35;-10.63;0.75;0.18;0.95
1753877737.1845474;-1.786;0.945;-0.035;-1.63;-1.07;-43.1;0.0;0.0;0.0;0.0;-24.2;-64.8;-35.4;13.9;-0.25;0.37;-10.61;0.72;0.12;0.99
1753877737.1895475;-1.786;0.945;-0.035;-1.64;-1.07;-43.1;0.0;0.0;0.0;0.0;-23.6;-64.8;-33.3;15.5;-0.24;0.35;-10.63;0.8;0.17;1.02
1753877737.1945477;-1.786;0.945;-0.035;-1.63;-1.07;-43.1;0.0;0.0;0.0;0.0;-24.1;-64.7;-35.4;12.2;-0.24;0.35;-10.63;0.82;0.35;1.06
1753877737.1995478;-1.786;0.945;-0.035;-1.63;-1.07;-43.1;0.0;0.0;0.0;0.0;-23.6;-63.3;-35.6;13.8;-0.24;0.35;-10.61;0.8;0.2;0.98
1753877737.204548;-1.786;0.945;-0.035;-1.63;-1.07;-43.1;0.0;0.0;0.0;0.0;-24.1;-64.7;-34.6;12.7;-0.25;0.37;-10.64;0.61;0.27;0.99
1753877737.209548;-1.786;0.945;-0.035;-1.64;-1.07;-43.1;0.0;0.0;0.0;0.0;-24.8;-62.7;-33.5;13.2;-0.24;0.35;-10.63;0.74;0.32;0.93
1753877737.214548;-1.786;0.945;-0.035;-1.63;-1.07;-43.1;0.0;0.0;0.0;0.0;-23.6;-64.6;-35.7;9.8;-0.22;0.36;-10.63;0.84;0.18;1.04
1753877737.2195482;-1.786;0.945;-0.035;-1.63;-1.07;-43.1;0.0;0.0;0.0;0.0;-24.5;-63.7;-35.1;13.0;-0.23;0.35;-10.61;0.89;0.16;1.09
1753877737.2245483;-1.786;0.945;-0.035;-1.63;-1.07;-43.1;0.0;0.0;0.0;0.0;-23.8;-65.5;-35.0;11.4;-0.25;0.37;-10.62;0.77;0.37;0.94
1753877737.2295485;-1.786;0.945;-0.035;-1.62;-1.06;-43.1;0.0;0.0;0.0;0.0;-24.3;-64.0;-35.2;15.7;-0.25;0.35;-10.64;0.71;0.32;0.96
1753877737.2345486;-1.786;0.945;-0.035;-1.63;-1.08;-43.1;0.0;0.0;0.0;0.0;-24.3;-62.5;-33.9;17.8;-0.23;0.36;-10.62;0.78;0.16;1.08
1753877737.2395487;-1.786;0.945;-0.035;-1.63;-1.06;-43.1;0.0;0.0;0.0;0.0;-24.2;-66.4;-34.9;16.0;-0.23;0.37;-10.64;0.83;0.2;1.03
1753877737.2445447;-1.786;0.945;-0.035;-1.63;-1.07;-43.1;0.0;0.0;0.0;0.0;-24.0;-65.0;-35.0;15.0;-0.24;0.36;-10.63;0.76;0.18;1.0
1753877737.2495449;-1.786;0.945;-0.035;-1.63;-1.07;-43.1;0.0;0.0;0.0;0.0;-24.0;-65.0;-35.0;15.0;-0.24;0.35;-10.63;0.64;0.39;1.09
1753877737.2545447;-1.786;0.945;-0.035;-1.63;-1.07;-43.1;0.0;0.0;0.0;0.0;-24.0;-65.0;-35.0;15.0;-0.24;0.35;-10.64;0.71;0.33;1.03
1753877737.2595448;-1.786;0.945;-0.035;-1.63;-1.07;-43.1;0.0;0.0;0.0;0.0;-24.0;-65.0;-35.0;15.0;-0.24;0.35;-10.64;0.72;0.35;0.89
1753877737.2645447;-1.786;0.945;-0.035;-1.63;-1.07;-43.1;0.0;0.0;0.0;0.0;-24.0;-65.0;-35.0;15.0;-0.24;0.35;-10.64;0.73;0.35;0.9
1753877737.2695448;-1.786;0.945;-0.035;-1.63;-1.07;-43.1;0.0;0.0;0.0;0.0;-24.0;-65.0;-35.0;15.0;-0.24;0.35;-10.64;0.67;0.28;0.87
1753877737.2745447;-1.786;0.945;-0.035;-1.63;-1.07;-43.1;0.0;0.0;0.0;0.0;-24.0;-65.0;-35.0;15.0;-0.24;0.36;-10.64;0.68;0.37;0.95
1753877737.2795448;-1.786;0.945;-0.035;-1.63;-1.07;-43.1;0.0;0.0;0.0;0.0;-24.0;-65.0;-35.0;15.0;-0.24;0.36;-10.64;0.65;0.32;0.93
1753877737.284545;-1.786;0.945;-0.035;-1.63;-1.07;-43.1;0.0;0.0;0.0;0.0;-24.3;-63.7;-36.5;14.0;-0.23;0.35;-10.64;0.68;0.31;0.96
1753877737.289545;-1.786;0.945;-0.035;-1.63;-1.07;-43.1;0.0;0.0;0.0;0.0;-23.2;-65.0;-35.5;8.3;-0.26;0.34;-10.65;0.61;0.38;0.91
1753877737.2945452;-1.786;0.945;-0.035;-1.63;-1.07;-43.1;0.0;0.0;0.0;0.0;-24.2;-66.7;-35.7;13.2;-0.24;0.37;-10.64;0.7;0.28;0.97
1753877737.2995453;-1.786;0.945;-0.035;-1.63;-1.07;-43.1;0.0;0.0;0.0;0.0;-24.0;-63.3;-34.2;10.7;-0.23;0.35;-10.64;0.74;0.32;0.83
1753877737.3045454;-1.786;0.945;-0.035;-1.63;-1.07;-43.1;0.0;0.0;0.0;0.0;-23.1;-61.6;-34.7;12.7;-0.24;0.37;-10.63;0.62;0.33;0.93
1753877737.3095455;-1.786;0.945;-0.035;-1.63;-1.07;-43.1;0.0;0.0;0.0;0.0;-23.5;-63.5;-36.5;14.2;-0.24;0.36;-10.64;0.61;0.37;1.05
1753877737.3145456;-1.786;0.945;-0.035;-1.63;-1.08;-43.1;0.0;0.0;0.0;0.0;-23.7;-62.1;-34.2;9.3;-0.23;0.36;-10.63;0.64;0.27;0.85
1753877737.3195457;-1.786;0.945;-0.035;-1.63;-1.07;-43.1;0.0;0.0;0.0;0.0;-23.9;-66.4;-33.8;8.9;-0.24;0.38;-10.63;0.67;0.22;1.08
1753877737.3245459;-1.786;0.945;-0.035;-1.63;-1.08;-43.1;0.0;0.0;0.0;0.0;-23.2;-66.2;-34.2;19.5;-0.22;0.37;-10.63;0.7;0.4;0.93
1753877737.329546;-1.786;0.945;-0.035;-1.64;-1.08;-43.1;0.0;0.0;0.0;0.0;-23.5;-62.1;-35.2;2.2;-0.25;0.37;-10.62;0.83;0.13;0.91
1753877737.334546;-1.786;0.945;-0.035;-1.63;-1.08;-43.1;0.0;0.0;0.0;0.0;-23.6;-64.9;-35.4;17.6;-0.24;0.36;-10.61;0.65;0.32;0.95
1753877737.3395462;-1.786;0.945;-0.035;-1.64;-1.07;-43.1;0.0;0.0;0.0;0.0;-23.0;-64.5;-33.7;9.9;-0.22;0.35;-10.62;0.7;0.33;1.04
1753877737.3445463;-1.786;0.945;-0.035;-1.64;-1.07;-43.1;0.0;0.0;0.0;0.0;-23.3;-64.0;-35.7;11.2;-0.23;0.37;-10.63;0.75;0.32;0.82
1753877737.3495464;-1.786;0.945;-0.035;-1.63;-1.07;-43.1;0.0;0.0;0.0;0.0;-23.4;-64.3;-36.2;9.5;-0.23;0.38;-10.64;0.72;0.37;1.01
1753877737.3545465;-1.786;0.945;-0.035;-1.63;-1.08;-43.1;0.0;0.0;0.0;0.0;-22.7;-62.4;-33.3;15.8;-0.24;0.36;-10.62;0.72;0.33;0.92
1753877737.3595467;-1.786;0.945;-0.035;-1.64;-1.07;-43.1;0.0;0.0;0.0;0.0;-23.9;-62.2;-35.0;9.2;-0.23;0.36;-10.6;0.75;0.23;0.97
1753877737.3645468;-1.786;0.945;-0.035;-1.63;-1.08;-43.1;0.0;0.0;0.0;0.0;-23.5;-61.0;-34.0;11.9;-0.23;0.36;-10.64;0.71;0.33;0.88
1753877737.369547;-1.786;0.945;-0.035;-1.63;-1.08;-43.1;0.0;0.0;0.0;0.0;-23.9;-64.1;-33.7;11.2;-0.23;0.35;-10.62;0.68;0.3;0.84
1753877737.374547;-1.786;0.945;-0.035;-1.64;-1.07;-43.1;0.0;0.0;0.0;0.0;-23.1;-64.8;-35.0;7.5;-0.23;0.37;-10.62;0.75;0.37;0.98
1753877737.379547;-1.786;0.945;-0.035;-1.64;-1.07;-43.1;0.0;0.0;0.0;0.0;-23.4;-62.0;-35.2;13.1;-0.25;0.37;-10.64;0.62;0.23;0.85
1753877737.3845472;-1.786;0.945;-0.035;-1.64;-1.07;-43.1;0.0;0.0;0.0;0.0;-23.3;-63.3;-34.3;5.3;-0.23;0.36;-10.63;0.81;0.35;0.97
1753877737.3895473;-1.786;0.945;-0.035;-1.65;-1.07;-43.1;0.0;0.0;0.0;0.0;-23.1;-64.7;-33.8;10.8;-0.22;0.36;-10.63;0.78;0.29;0.91
1753877737.3945475;-1.786;0.945;-0.035;-1.63;-1.07;-43.1;0.0;0.0;0.0;0.0;-22.6;-62.7;-33.5;10.7;-0.23;0.38;-10.61;0.81;0.29;0.92
1753877737.3995476;-1.786;0.945;-0.035;-1.64;-1.07;-43.1;0.0;0.0;0.0;0.0;-23.8;-60.1;-36.1;9.1;-0.22;0.38;-10.63;0.84;0.34;0.97
1753877737.4045477;-1.786;0.945;-0.035;-1.63;-1.08;-43.1;0.0;0.0;0.0;0.0;-23.6;-62.6;-33.5;2.5;-0.22;0.36;-10.63;0.69;0.28;0.86
1753877737.4095478;-1.786;0.945;-0.035;-1.65;-1.08;-43.1;0.0;0.0;0.0;0.0;-22.7;-63.2;-33.4;7.1;-0.23;0.37;-10.64;0.79;0.25;0.89
1753877737.414548;-1.786;0.945;-0.035;-1.64;-1.07;-43.1;0.0;0.0;0.0;0.0;-23.9;-62.3;-33.7;7.9;-0.22;0.38;-10.62;0.8;0.42;0.96
1753877737.419548;-1.786;0.945;-0.035;-1.64;-1.08;-43.1;0.0;0.0;0.0;0.0;-23.5;-62.8;-33.5;9.9;-0.22;0.36;-10.64;0.77;0.22;0.95
1753877737.4245481;-1.786;0.945;-0.035;-1.64;-1.08;-43.1;0.0;0.0;0.0;0.0;-23.1;-60.8;-33.1;10.6;-0.22;0.37;-10.61;0.75;0.28;0.92
1753877737.429545;-1.786;0.945;-0.035;-1.64;-1.08;-43.1;0.0;0.0;0.0;0.0;-23.0;-62.0;-34.0;6.0;-0.22;0.37;-10.62;0.78;0.3;0.96
1753877737.4345448;-1.786;0.945;-0.035;-1.64;-1.08;-43.1;0.0;0.0;0.0;0.0;-23.0;-62.0;-34.0;6.0;-0.22;0.37;-10.62;0.66;0.25;0.93
1753877737.439545;-1.786;0.945;-0.035;-1.64;-1.08;-43.1;0.0;0.0;0.0;0.0;-23.0;-62.0;-34.0;6.0;-0.22;0.37;-10.63;0.64;0.21;0.94
1753877737.4445448;-1.786;0.945;-0.035;-1.64;-1.08;-43.1;0.0;0.0;0.0;0.0;-23.0;-62.0;-34.0;6.0;-0.22;0.37;-10.63;0.67;0.29;0.96
1753877737.449545;-1.786;0.945;-0.035;-1.64;-1.08;-43.1;0.0;0.0;0.0;0.0;-23.0;-62.0;-34.0;6.0;-0.22;0.37;-10.63;0.65;0.41;0.92
1753877737.4545448;-1.786;0.945;-0.035;-1.64;-1.08;-43.1;0.0;0.0;0.0;0.0;-23.0;-62.0;-34.0;6.0;-0.23;0.36;-10.63;0.6;0.29;0.86
1753877737.459545;-1.786;0.945;-0.035;-1.64;-1.08;-43.1;0.0;0.0;0.0;0.0;-23.0;-62.0;-34.0;6.0;-0.23;0.37;-10.63;0.64;0.41;0.96
1753877737.4645448;-1.786;0.945;-0.035;-1.64;-1.08;-43.1;0.0;0.0;0.0;0.0;-23.0;-62.0;-34.0;6.0;-0.23;0.36;-10.62;0.77;0.41;0.92
1753877737.469545;-1.786;0.945;-0.035;-1.64;-1.08;-43.1;0.0;0.0;0.0;0.0;-23.0;-62.0;-34.0;6.0;-0.23;0.36;-10.63;0.74;0.39;0.95
1753877737.4745448;-1.786;0.945;-0.035;-1.64;-1.08;-43.1;0.0;0.0;0.0;0.0;-23.0;-62.0;-34.0;6.0;-0.23;0.36;-10.63;0.84;0.33;0.92
1753877737.4795449;-1.786;0.945;-0.035;-1.64;-1.08;-43.1;0.0;0.0;0.0;0.0;-23.0;-62.0;-34.0;6.0;-0.23;0.36;-10.63;0.59;0.21;0.95
1753877737.4845448;-1.786;0.945;-0.035;-1.64;-1.08;-43.1;0.0;0.0;0.0;0.0;-23.0;-62.0;-34.0;6.0;-0.23;0.35;-10.63;0.73;0.31;1.02
1753877737.4895449;-1.786;0.945;-0.035;-1.64;-1.08;-43.1;0.0;0.0;0.0;0.0;-23.0;-62.0;-34.0;6.0;-0.23;0.35;-10.63;0.63;0.25;0.97
1753877737.4945447;-1.786;0.945;-0.035;-1.64;-1.08;-43.1;0.0;0.0;0.0;0.0;-23.0;-62.0;-34.0;6.0;-0.22;0.34;-10.63;0.68;0.38;0.94
1753877737.4995449;-1.786;0.945;-0.035;-1.64;-1.08;-43.1;0.0;0.0;0.0;0.0;-23.0;-62.0;-34.0;6.0;-0.23;0.34;-10.63;0.66;0.28;0.95
1753877737.5045447;-1.786;0.945;-0.035;-1.64;-1.08;-43.1;0.0;0.0;0.0;0.0;-23.0;-62.0;-34.0;6.0;-0.23;0.34;-10.63;0.74;0.35;0.9
1753877737.5095448;-1.786;0.945;-0.035;-1.64;-1.08;-43.1;0.0;0.0;0.0;0.0;-23.0;-62.0;-34.0;6.0;-0.23;0.35;-10.63;0.62;0.32;0.96
1753877737.5145447;-1.786;0.945;-0.035;-1.64;-1.08;-43.1;0.0;0.0;0.0;0.0;-23.0;-62.0;-34.0;6.0;-0.23;0.35;-10.64;0.7;0.35;1.0
1753877737.5195448;-1.786;0.945;-0.035;-1.64;-1.08;-43.1;0.0;0.0;0.0;0.0;-23.0;-62.0;-34.0;6.0;-0.23;0.35;-10.64;0.59;0.38;0.74
1753877737.5245447;-1.786;0.945;-0.035;-1.64;-1.08;-43.1;0.0;0.0;0.0;0.0;-23.0;-62.0;-34.0;6.0;-0.23;0.35;-10.63;0.69;0.43;0.85
1753877737.5295448;-1.786;0.945;-0.035;-1.64;-1.08;-43.1;0.0;0.0;0.0;0.0;-23.0;-62.0;-34.0;6.0;-0.23;0.35;-10.64;0.78;0.38;1.02
1753877737.5345447;-1.786;0.945;-0.035;-1.64;-1.08;-43.1;0.0;0.0;0.0;0.0;-23.0;-62.0;-34.0;6.0;-0.24;0.36;-10.64;0.77;0.26;1.09
1753877737.5395448;-1.786;0.945;-0.035;-1.64;-1.08;-43.1;0.0;0.0;0.0;0.0;-23.0;-62.0;-34.0;6.0;-0.24;0.36;-10.65;0.62;0.28;1.06
1753877737.544545;-1.786;0.945;-0.035;-1.64;-1.08;-43.1;0.0;0.0;0.0;0.0;-23.0;-62.0;-34.0;6.0;-0.25;0.36;-10.64;0.72;0.26;0.99
1753877737.5495448;-1.786;0.945;-0.035;-1.64;-1.08;-43.1;0.0;0.0;0.0;0.0;-23.0;-62.0;-34.0;6.0;-0.25;0.36;-10.64;0.67;0.38;0.89
1753877737.554545;-1.786;0.945;-0.035;-1.64;-1.08;-43.1;0.0;0.0;0.0;0.0;-23.0;-62.0;-34.0;6.0;-0.24;0.37;-10.65;0.62;0.4;0.91
1753877737.5595448;-1.786;0.945;-0.035;-1.64;-1.08;-43.1;0.0;0.0;0.0;0.0;-23.0;-62.0;-34.0;6.0;-0.24;0.37;-10.64;0.58;0.29;0.76
1753877737.564545;-1.786;0.945;-0.035;-1.64;-1.08;-43.1;0.0;0.0;0.0;0.0;-23.0;-62.0;-34.0;6.0;-0.24;0.37;-10.63;0.69;0.25;0.91
1753877737.5695448;-1.786;0.945;-0.035;-1.64;-1.08;-43.1;0.0;0.0;0.0;0.0;-23.0;-62.0;-34.0;6.0;-0.24;0.37;-10.63;0.65;0.21;0.95
1753877737.574545;-1.786;0.945;-0.035;-1.64;-1.08;-43.1;0.0;0.0;0.0;0.0;-23.0;-62.0;-34.0;6.0;-0.24;0.37;-10.63;0.8;0.35;0.95
1753877737.5795448;-1.786;0.945;-0.035;-1.64;-1.08;-43.1;0.0;0.0;0.0;0.0;-23.0;-62.0;-34.0;6.0;-0.25;0.37;-10.64;0.63;0.45;0.92
1753877737.584545;-1.786;0.945;-0.035;-1.64;-1.08;-43.1;0.0;0.0;0.0;0.0;-23.0;-62.0;-34.0;6.0;-0.24;0.37;-10.63;0.67;0.38;0.74
1753877737.5895448;-1.786;0.945;-0.035;-1.64;-1.08;-43.1;0.0;0.0;0.0;0.0;-23.0;-62.0;-34.0;6.0;-0.23;0.38;-10.62;0.62;0.38;0.92
1753877737.594545;-1.786;0.945;-0.035;-1.64;-1.08;-43.1;0.0;0.0;0.0;0.0;-23.0;-62.0;-34.0;6.0;-0.22;0.39;-10.62;0.76;0.22;0.9
1753877737.5995448;-1.786;0.945;-0.035;-1.64;-1.08;-43.1;0.0;0.0;0.0;0.0;-23.0;-62.0;-34.0;6.0;-0.21;0.4;-10.62;0.77;0.39;0.84
1753877737.6045449;-1.786;0.945;-0.035;-1.64;-1.08;-43.1;0.0;0.0;0.0;0.0;-23.0;-62.0;-34.0;6.0;-0.2;0.4;-10.62;0.71;0.54;0.62
1753877737.6095448;-1.786;0.945;-0.035;-1.64;-1.08;-43.1;0.0;0.0;0.0;0.0;-23.0;-62.0;-34.0;6.0;-0.17;0.4;-10.61;0.8;0.28;0.83
1753877737.6145449;-1.786;0.945;-0.035;-1.64;-1.08;-43.1;0.0;0.0;0.0;0.0;-23.0;-62.0;-34.0;6.0;-0.15;0.39;-10.61;0.77;0.33;0.9
1753877737.619545;-1.786;0.945;-0.035;-1.64;-1.08;-43.1;-0.1;34.1;-11.7;-30.6;-32.6;-38.0;-22.3;-2.2;-0.12;0.38;-10.6;0.79;0.44;1.08
1753877737.624545;-1.786;0.945;-0.035;-1.63;-1.09;-43.1;-9.5;52.5;43.1;-52.2;-16.4;-60.5;-33.2;9.0;-0.12;0.37;-10.61;0.82;0.29;1.05
1753877737.6295452;-1.786;0.945;-0.035;-1.64;-1.08;-43.1;64.5;51.0;47.0;14.6;-21.9;-38.7;-27.4;10.1;-0.09;0.39;-10.61;0.73;0.33;0.76
1753877737.6345453;-1.786;0.945;-0.035;-1.64;-1.09;-43.1;68.7;48.7;11.4;34.1;-42.1;-42.2;-20.8;23.6;-0.1;0.36;-10.62;0.81;0.39;1.17
