DeviceID;Timestamp;Temperature;GyroX;GyroY;GyroZ;AccelX;AccelY;AccelZ;Dist1;Dist2;Dist3;Err1;Err2;Err3
2.0;1753873616.369135;14.808594;1.05;-1.68;-0.28;-0.938668;-0.386252;0.026962;0.0;0.0;90.0;0.0;0.0;7.0
2.0;1753873616.37396;14.796875;0.98;-1.68;-0.35;-0.9394;-0.383934;0.024888;0.0;0.0;90.0;0.0;0.0;7.0
2.0;1753873616.378569;14.7954;0.7;-1.6;-0.49;-0.910231;-0.376031;0.01273;-0.3;0.0;90.8;-0.2;0.0;6.9
2.0;1753873616.384927;14.796875;0.98;-1.68;-0.35;-0.940498;-0.384666;0.026596;0.0;0.0;90.0;0.0;0.0;7.0
2.0;1753873616.389865;14.796875;0.98;-1.68;-0.35;-0.9394;-0.385642;0.02623;0.0;0.0;90.0;0.0;0.0;7.0
2.0;1753873616.392023;14.828125;0.98;-1.61;-0.35;-0.940864;-0.385276;0.026352;0.0;0.0;90.0;0.0;0.0;7.0
2.0;1753873616.396633;14.828125;0.98;-1.61;-0.35;-0.94001;-0.385642;0.025498;0.0;0.0;90.0;0.0;0.0;7.0
2.0;1753873616.4012;14.828125;0.91;-1.61;-0.28;-0.939766;-0.38491;0.02562;0.0;0.0;90.0;0.0;0.0;7.0
2.0;1753873616.405777;14.828125;0.84;-1.75;-0.28;-0.93879;-0.386008;0.025742;0.0;0.0;90.0;0.0;0.0;7.0
2.0;1753873616.411598;14.800781;0.91;-1.61;-0.35;-0.939888;-0.385276;0.025742;0.0;0.0;90.0;0.0;0.0;7.0
2.0;1753873616.414894;14.800781;0.98;-1.54;-0.28;-0.938424;-0.38613;0.02623;0.0;0.0;90.0;0.0;0.0;7.0
2.0;1753873616.419497;14.800781;0.98;-1.68;-0.28;-0.939156;-0.386374;0.027694;0.0;0.0;90.0;0.0;0.0;7.0
2.0;1753873616.424295;14.800781;0.98;-1.75;-0.35;-0.93818;-0.38552;0.024888;0.0;0.0;90.0;0.0;0.0;7.0
2.0;1753873616.432081;14.796875;0.91;-1.68;-0.28;-0.939644;-0.386984;0.026108;0.0;0.0;81.0;0.0;0.0;9.0
2.0;1753873616.437522;14.796875;0.91;-1.75;-0.28;-0.94001;-0.385642;0.02562;0.0;0.0;81.0;0.0;0.0;9.0
2.0;1753873616.437736;14.796875;0.91;-1.68;-0.28;-0.938546;-0.38674;0.026962;0.0;0.0;81.0;0.0;0.0;9.0
2.0;1753873616.442372;14.796875;1.05;-1.68;-0.28;-0.940498;-0.385886;0.025376;0.0;0.0;81.0;0.0;0.0;9.0
2.0;1753873616.44689;14.777344;0.98;-1.68;-0.42;-0.939522;-0.386862;0.027084;0.0;0.0;81.0;0.0;0.0;9.0
2.0;1753873616.451603;14.777344;0.98;-1.75;-0.28;-0.939522;-0.386862;0.027084;0.0;0.0;81.0;0.0;0.0;9.0
2.0;1753873616.45723;14.777344;0.98;-1.75;-0.35;-0.93879;-0.386862;0.025132;0.0;0.0;81.0;0.0;0.0;9.0
2.0;1753873616.460629;14.777344;0.98;-1.61;-0.28;-0.94184;-0.38491;0.027206;0.0;0.0;81.0;0.0;0.0;9.0
2.0;1753873616.465228;14.792969;0.98;-1.68;-0.35;-0.938424;-0.388448;0.02501;0.0;0.0;81.0;0.0;0.0;9.0
2.0;1753873616.469884;14.792969;0.91;-1.68;-0.28;-0.941108;-0.384056;0.026474;0.0;0.0;81.0;0.0;0.0;9.0
2.0;1753873616.474683;14.792969;0.98;-1.61;-0.28;-0.941108;-0.384056;0.026474;0.0;0.0;81.0;0.0;0.0;9.0
2.0;1753873616.481307;14.792969;0.98;-1.68;-0.35;-0.942328;-0.383934;0.024278;0.0;0.0;91.0;0.0;0.0;7.0
2.0;1753873616.487963;14.828125;0.91;-1.68;-0.35;-0.940498;-0.385642;0.02684;0.0;0.0;91.0;0.0;0.0;7.0
2.0;1753873616.492648;14.828125;0.84;-1.75;-0.35;-0.939156;-0.385398;0.025986;0.0;0.0;91.0;0.0;0.0;7.0
2.0;1753873616.497264;14.828125;0.91;-1.68;-0.28;-0.939888;-0.385398;0.026474;0.0;0.0;91.0;0.0;0.0;7.0
2.0;1753873616.501743;14.808594;0.91;-1.68;-0.35;-0.939888;-0.385398;0.026474;0.0;0.0;91.0;0.0;0.0;7.0
2.0;1753873616.50638;14.808594;0.91;-1.68;-0.35;-0.940376;-0.385764;0.026352;0.0;0.0;91.0;0.0;0.0;7.0
2.0;1753873616.511464;14.808594;1.05;-1.61;-0.28;-0.940986;-0.384788;0.026352;0.0;0.0;91.0;0.0;0.0;7.0
2.0;1753873616.51559;14.808594;0.91;-1.61;-0.35;-0.93879;-0.387228;0.027084;0.0;0.0;91.0;0.0;0.0;7.0
2.0;1753873616.520106;14.789062;0.91;-1.68;-0.35;-0.940254;-0.384544;0.02684;0.0;0.0;91.0;0.0;0.0;7.0
2.0;1753873616.524715;14.781322;0.85;-1.65;-0.3;-0.940767;-0.384628;0.025705;0.0;0.0;88.7;0.0;0.0;8.0
2.0;1753873616.530664;14.789062;0.91;-1.68;-0.28;-0.940742;-0.38552;0.02745;0.0;0.0;91.0;0.0;0.0;7.0
2.0;1753873616.536352;14.789062;0.84;-1.61;-0.28;-0.939766;-0.385764;0.026718;0.0;0.0;91.0;0.0;0.0;7.0
2.0;1753873616.538726;14.792969;0.77;-1.61;-0.28;-0.938424;-0.38674;0.026352;0.0;0.0;91.0;0.0;0.0;7.0
2.0;1753873616.54295;14.792969;0.91;-1.68;-0.28;-0.940864;-0.384178;0.027694;0.0;0.0;91.0;0.0;0.0;7.0
2.0;1753873616.547636;14.792969;0.98;-1.75;-0.28;-0.93818;-0.386008;0.027328;0.0;0.0;91.0;0.0;0.0;7.0
2.0;1753873616.55213;14.792969;0.98;-1.68;-0.28;-0.939888;-0.384056;0.027938;0.0;0.0;91.0;0.0;0.0;7.0
2.0;1753873616.556781;14.828125;0.91;-1.61;-0.35;-0.941474;-0.386008;0.025864;0.0;0.0;91.0;0.0;0.0;7.0
2.0;1753873616.561179;14.828125;0.98;-1.75;-0.35;-0.941474;-0.386008;0.025864;0.0;0.0;91.0;0.0;0.0;7.0
2.0;1753873616.565892;14.828125;0.91;-1.68;-0.35;-0.940498;-0.386618;0.026352;0.0;0.0;91.0;0.0;0.0;7.0
2.0;1753873616.570423;14.828125;0.84;-1.68;-0.35;-0.94001;-0.386496;0.025864;0.0;0.0;91.0;0.0;0.0;7.0
2.0;1753873616.575032;14.828088;0.94;-1.68;-0.29;-0.940485;-0.385097;0.025277;0.0;0.0;91.7;0.0;0.0;8.0
2.0;1753873616.579826;14.800781;0.91;-1.61;-0.21;-0.939888;-0.384666;0.02562;0.0;0.0;92.0;0.0;0.0;8.0
2.0;1753873616.586478;14.800781;0.91;-1.68;-0.35;-0.939034;-0.385886;0.025986;0.0;0.0;92.0;0.0;0.0;8.0
2.0;1753873616.588846;14.800781;0.84;-1.68;-0.28;-0.941352;-0.383568;0.026108;0.0;0.0;92.0;0.0;0.0;8.0
2.0;1753873616.593421;14.789062;0.91;-1.75;-0.35;-0.941352;-0.383568;0.026108;0.0;0.0;92.0;0.0;0.0;8.0
2.0;1753873616.597869;14.789062;0.84;-1.68;-0.35;-0.941962;-0.385154;0.02562;0.0;0.0;92.0;0.0;0.0;8.0
2.0;1753873616.602439;14.789062;0.84;-1.68;-0.35;-0.940742;-0.387472;0.02684;0.0;0.0;92.0;0.0;0.0;8.0
2.0;1753873616.607875;14.789062;0.91;-1.68;-0.28;-0.939156;-0.386008;0.025864;0.0;0.0;92.0;0.0;0.0;8.0
2.0;1753873616.611484;14.785156;0.98;-1.68;-0.28;-0.939156;-0.386008;0.025864;0.0;0.0;92.0;0.0;0.0;8.0
2.0;1753873616.616159;14.785156;0.91;-1.61;-0.28;-0.94062;-0.38491;0.027938;0.0;0.0;92.0;0.0;0.0;8.0
2.0;1753873616.620732;14.785156;0.98;-1.61;-0.28;-0.940132;-0.386374;0.025376;0.0;0.0;92.0;0.0;0.0;8.0
2.0;1753873616.628856;14.785156;0.91;-1.68;-0.28;-0.940132;-0.384422;0.026962;0.0;0.0;97.0;0.0;0.0;8.0
2.0;1753873616.634713;14.785156;0.91;-1.61;-0.28;-0.9394;-0.387106;0.026718;0.0;0.0;97.0;0.0;0.0;8.0
2.0;1753873616.639038;14.785156;0.91;-1.75;-0.28;-0.941108;-0.384788;0.026596;0.0;0.0;97.0;0.0;0.0;8.0
2.0;1753873616.643603;14.785156;0.91;-1.75;-0.28;-0.940376;-0.386252;0.027084;0.0;0.0;97.0;0.0;0.0;8.0
2.0;1753873616.64818;14.792969;0.91;-1.75;-0.28;-0.940498;-0.384788;0.02562;0.0;0.0;97.0;0.0;0.0;8.0
2.0;1753873616.652741;14.792969;0.91;-1.75;-0.35;-0.939034;-0.38552;0.02684;0.0;0.0;97.0;0.0;0.0;8.0
2.0;1753873616.657225;14.792969;0.91;-1.75;-0.35;-0.939034;-0.38552;0.02684;0.0;0.0;97.0;0.0;0.0;8.0
2.0;1753873616.661885;14.792969;1.05;-1.68;-0.28;-0.939278;-0.387472;0.02501;0.0;0.0;97.0;0.0;0.0;8.0
2.0;1753873616.666475;14.828125;0.98;-1.75;-0.28;-0.939766;-0.38491;0.027694;0.0;0.0;97.0;0.0;0.0;8.0
2.0;1753873616.672715;14.828125;0.91;-1.68;-0.28;-0.939644;-0.387716;0.026474;0.0;0.0;97.0;0.0;0.0;8.0
2.0;1753873616.678826;14.828125;0.98;-1.75;-0.35;-0.941352;-0.384056;0.027206;0.0;0.0;90.0;0.0;0.0;8.0
2.0;1753873616.686284;14.773438;0.91;-1.68;-0.35;-0.93879;-0.384422;0.02623;0.0;0.0;90.0;0.0;0.0;8.0
2.0;1753873616.689576;14.773438;0.91;-1.68;-0.42;-0.939644;-0.385154;0.026474;0.0;0.0;90.0;0.0;0.0;8.0
2.0;1753873616.693911;14.773438;0.91;-1.61;-0.35;-0.94062;-0.38552;0.025742;0.0;0.0;90.0;0.0;0.0;8.0
2.0;1753873616.699224;14.773438;0.98;-1.61;-0.35;-0.939888;-0.38735;0.026352;0.0;0.0;90.0;0.0;0.0;8.0
2.0;1753873616.704344;14.769531;0.91;-1.68;-0.28;-0.940864;-0.38369;0.025986;0.0;0.0;90.0;0.0;0.0;8.0
2.0;1753873616.707655;14.769531;0.98;-1.61;-0.28;-0.939522;-0.387228;0.02684;0.0;0.0;90.0;0.0;0.0;8.0
2.0;1753873616.712212;14.769531;0.98;-1.68;-0.28;-0.941474;-0.383202;0.027084;0.0;0.0;90.0;0.0;0.0;8.0
2.0;1753873616.716774;14.769531;1.05;-1.75;-0.28;-0.938912;-0.387716;0.027328;0.0;0.0;90.0;0.0;0.0;8.0
2.0;1753873616.721327;14.785156;0.91;-1.68;-0.35;-0.939888;-0.384178;0.025498;0.0;0.0;90.0;0.0;0.0;8.0
2.0;1753873616.72883;14.785156;0.91;-1.68;-0.35;-0.940132;-0.386374;0.02623;0.0;0.0;94.0;0.0;0.0;11.0
2.0;1753873616.73365;14.785156;0.98;-1.75;-0.35;-0.939888;-0.385886;0.024278;0.0;0.0;94.0;0.0;0.0;11.0
2.0;1753873616.735084;14.785156;0.91;-1.68;-0.35;-0.9394;-0.385764;0.027816;0.0;0.0;94.0;0.0;0.0;11.0
2.0;1753873616.739649;14.769531;0.91;-1.68;-0.35;-0.940742;-0.386496;0.026474;0.0;0.0;94.0;0.0;0.0;11.0
2.0;1753873616.744223;14.769531;0.91;-1.61;-0.35;-0.9394;-0.38613;0.02684;0.0;0.0;94.0;0.0;0.0;11.0
2.0;1753873616.748799;14.769531;0.91;-1.68;-0.28;-0.940132;-0.386252;0.027084;0.0;0.0;94.0;0.0;0.0;11.0
2.0;1753873616.754611;14.769531;0.84;-1.68;-0.28;-0.939156;-0.385276;0.025986;0.0;0.0;94.0;0.0;0.0;11.0
2.0;1753873616.757921;14.804688;0.98;-1.75;-0.28;-0.939644;-0.386374;0.026474;0.0;0.0;94.0;0.0;0.0;11.0
2.0;1753873616.762523;14.804688;0.91;-1.82;-0.28;-0.940254;-0.3843;0.02562;0.0;0.0;94.0;0.0;0.0;11.0
2.0;1753873616.767092;14.804688;0.91;-1.68;-0.35;-0.940132;-0.38613;0.027328;0.0;0.0;94.0;0.0;0.0;11.0
2.0;1753873616.771701;14.830274;0.95;-1.69;-0.34;-0.939787;-0.386421;0.026373;0.0;0.0;92.7;0.0;0.0;8.8
2.0;1753873616.778464;14.824219;0.84;-1.61;-0.28;-0.94001;-0.386984;0.027206;0.0;0.0;96.0;0.0;0.0;7.0
2.0;1753873616.783433;14.824219;0.98;-1.61;-0.35;-0.939644;-0.385886;0.026962;0.0;0.0;96.0;0.0;0.0;7.0
2.0;1753873616.785341;14.824219;1.05;-1.75;-0.28;-0.93879;-0.386862;0.027328;0.0;0.0;96.0;0.0;0.0;7.0
2.0;1753873616.789981;14.824219;0.98;-1.68;-0.35;-0.941596;-0.385032;0.025864;0.0;0.0;96.0;0.0;0.0;7.0
2.0;1753873616.794794;14.808594;0.91;-1.61;-0.35;-0.938302;-0.386618;0.027206;0.0;0.0;96.0;0.0;0.0;7.0
2.0;1753873616.799087;14.808594;0.98;-1.61;-0.28;-0.942084;-0.384056;0.027084;0.0;0.0;96.0;0.0;0.0;7.0
2.0;1753873616.804629;14.808594;0.84;-1.61;-0.28;-0.939766;-0.386618;0.025498;0.0;0.0;96.0;0.0;0.0;7.0
2.0;1753873616.809736;14.808594;0.91;-1.68;-0.28;-0.94123;-0.383934;0.027816;0.0;0.0;96.0;0.0;0.0;7.0
2.0;1753873616.814143;14.722656;0.91;-1.75;-0.28;-0.938668;-0.38674;0.026718;0.0;0.0;96.0;0.0;0.0;7.0
2.0;1753873616.818618;14.722656;0.98;-1.68;-0.35;-0.940742;-0.384788;0.02562;0.0;0.0;96.0;0.0;0.0;7.0
2.0;1753873616.823227;14.693536;0.95;-1.56;-0.39;-0.938483;-0.385778;0.027347;0.0;0.0;95.9;0.0;0.0;8.0
2.0;1753873616.831379;14.820312;0.98;-1.68;-0.28;-0.939522;-0.386618;0.028182;0.0;0.0;95.0;0.0;0.0;8.0
2.0;1753873616.835678;14.820312;0.91;-1.68;-0.35;-0.939034;-0.38491;0.026108;0.0;0.0;95.0;0.0;0.0;8.0
2.0;1753873616.840171;14.820312;0.98;-1.68;-0.35;-0.939034;-0.38491;0.026108;0.0;0.0;95.0;0.0;0.0;8.0
2.0;1753873616.845839;14.820312;0.91;-1.68;-0.35;-0.941108;-0.386496;0.025742;0.0;0.0;95.0;0.0;0.0;8.0
2.0;1753873616.849401;14.816406;0.91;-1.68;-0.35;-0.939644;-0.385886;0.026108;0.0;0.0;95.0;0.0;0.0;8.0
2.0;1753873616.853891;14.816406;0.98;-1.68;-0.28;-0.939644;-0.385886;0.026108;0.0;0.0;95.0;0.0;0.0;8.0
2.0;1753873616.859472;14.816406;0.91;-1.75;-0.35;-0.940864;-0.385398;0.027938;0.0;0.0;95.0;0.0;0.0;8.0
2.0;1753873616.86359;14.816406;0.98;-1.68;-0.21;-0.938546;-0.38674;0.026108;0.0;0.0;95.0;0.0;0.0;8.0
2.0;1753873616.867695;14.824219;0.91;-1.68;-0.28;-0.940376;-0.384544;0.026962;0.0;0.0;95.0;0.0;0.0;8.0
2.0;1753873616.872304;14.864056;0.78;-1.68;-0.29;-0.941007;-0.385174;0.026128;0.0;0.0;93.8;0.0;0.0;7.1
2.0;1753873616.876635;14.824219;0.84;-1.68;-0.35;-0.939644;-0.386618;0.026352;0.0;0.0;92.0;0.0;0.0;7.0
2.0;1753873616.881411;14.824219;0.84;-1.68;-0.42;-0.939034;-0.387838;0.026718;0.0;0.0;92.0;0.0;0.0;7.0
2.0;1753873616.886009;14.789062;1.05;-1.68;-0.35;-0.939278;-0.385032;0.026718;0.0;0.0;92.0;0.0;0.0;7.0
2.0;1753873616.890591;14.789062;0.98;-1.68;-0.35;-0.939278;-0.385276;0.027572;0.0;0.0;92.0;0.0;0.0;7.0
2.0;1753873616.895158;14.789062;0.91;-1.75;-0.35;-0.94123;-0.384666;0.026352;0.0;0.0;92.0;0.0;0.0;7.0
2.0;1753873616.901281;14.789062;0.91;-1.68;-0.35;-0.939644;-0.386496;0.025864;0.0;0.0;92.0;0.0;0.0;7.0
2.0;1753873616.904269;14.777344;0.84;-1.68;-0.35;-0.94001;-0.385032;0.027694;0.0;0.0;92.0;0.0;0.0;7.0
2.0;1753873616.908775;14.777344;1.05;-1.68;-0.28;-0.94001;-0.385032;0.027694;0.0;0.0;92.0;0.0;0.0;7.0
2.0;1753873616.913449;14.777344;1.05;-1.68;-0.28;-0.93879;-0.384788;0.02562;0.0;0.0;92.0;0.0;0.0;7.0
2.0;1753873616.918632;14.777344;0.91;-1.75;-0.28;-0.938424;-0.386618;0.025864;0.0;0.0;92.0;0.0;0.0;7.0
2.0;1753873616.925345;14.769531;0.91;-1.75;-0.35;-0.940254;-0.38613;0.027206;0.0;0.0;97.0;0.0;0.0;8.0
2.0;1753873616.930135;14.769531;0.91;-1.68;-0.35;-0.939156;-0.386862;0.026352;0.0;0.0;97.0;0.0;0.0;8.0
2.0;1753873616.931693;14.769531;0.91;-1.61;-0.35;-0.940498;-0.385398;0.02623;0.0;0.0;97.0;0.0;0.0;8.0
2.0;1753873616.936564;14.769531;0.91;-1.75;-0.35;-0.9394;-0.386862;0.025742;0.0;0.0;97.0;0.0;0.0;8.0
2.0;1753873616.941365;14.792969;0.91;-1.61;-0.28;-0.940986;-0.385154;0.026962;0.0;0.0;97.0;0.0;0.0;8.0
2.0;1753873616.94542;14.792969;0.91;-1.75;-0.42;-0.939644;-0.385032;0.026718;0.0;0.0;97.0;0.0;0.0;8.0
2.0;1753873616.949939;14.792969;0.91;-1.82;-0.28;-0.939644;-0.385032;0.026718;0.0;0.0;97.0;0.0;0.0;8.0
2.0;1753873616.955065;14.792969;0.98;-1.68;-0.28;-0.939156;-0.386252;0.027572;0.0;0.0;97.0;0.0;0.0;8.0
2.0;1753873616.959181;14.777344;0.98;-1.68;-0.28;-0.940376;-0.385398;0.02745;0.0;0.0;97.0;0.0;0.0;8.0
2.0;1753873616.963857;14.777344;0.84;-1.68;-0.35;-0.940498;-0.386496;0.026474;0.0;0.0;97.0;0.0;0.0;8.0
2.0;1753873616.968466;14.782842;0.86;-1.62;-0.35;-0.942268;-0.386496;0.025993;0.0;0.0;96.1;0.0;0.0;7.8
2.0;1753873616.973075;14.774507;0.95;-1.68;-0.37;-0.940243;-0.385663;0.025802;0.0;0.0;99.7;0.0;0.0;8.1
2.0;1753873616.97787;14.777344;0.91;-1.68;-0.28;-0.940132;-0.386618;0.025132;0.0;0.0;98.0;0.0;0.0;8.0
2.0;1753873616.982271;14.777344;0.91;-1.68;-0.28;-0.940498;-0.385642;0.027938;0.0;0.0;98.0;0.0;0.0;8.0
2.0;1753873616.986528;14.777344;1.05;-1.61;-0.28;-0.940498;-0.385642;0.027938;0.0;0.0;98.0;0.0;0.0;8.0
2.0;1753873616.991151;14.777344;0.98;-1.68;-0.28;-0.941596;-0.384788;0.028426;0.0;0.0;98.0;0.0;0.0;8.0
2.0;1753873616.995746;14.769531;0.98;-1.61;-0.28;-0.93757;-0.386374;0.02623;0.0;0.0;98.0;0.0;0.0;8.0
2.0;1753873617.000355;14.770505;0.94;-1.53;-0.28;-0.937642;-0.38499;0.024785;0.0;0.0;102.1;0.0;0.0;7.6
2.0;1753873617.004964;14.760945;0.88;-1.55;-0.26;-0.937889;-0.387055;0.026662;0.0;0.0;94.8;0.0;0.0;7.7
2.0;1753873617.009573;14.77515;0.94;-1.66;-0.21;-0.938649;-0.384825;0.027012;0.0;0.0;97.6;0.0;0.0;8.2
2.0;1753873617.014182;14.745138;1.05;-1.51;-0.28;-0.936145;-0.385882;0.024911;0.0;0.0;96.2;0.0;0.0;8.3
2.0;1753873617.018792;14.769693;0.98;-1.62;-0.3;-0.937327;-0.38592;0.026185;0.0;0.0;102.9;0.0;0.0;7.7
2.0;1753873617.0234;14.759465;1.01;-1.6;-0.28;-0.937042;-0.385517;0.026998;0.0;0.0;96.8;0.0;0.0;7.6
2.0;1753873617.02801;14.771911;1.0;-1.64;-0.33;-0.936217;-0.385121;0.024376;0.0;0.0;96.9;0.0;0.0;7.7
2.0;1753873617.032619;14.767929;0.97;-1.67;-0.25;-0.939089;-0.384797;0.026527;0.0;0.0;97.3;0.0;0.0;8.0
2.0;1753873617.037228;14.761318;1.01;-1.54;-0.27;-0.938698;-0.387212;0.025562;0.0;0.0;101.5;0.0;0.0;7.9
2.0;1753873617.041837;14.768538;0.93;-1.56;-0.31;-0.93863;-0.386667;0.02709;0.0;0.0;99.2;0.0;0.0;7.8
2.0;1753873617.046446;14.778619;1.06;-1.66;-0.26;-0.937559;-0.385236;0.026445;0.0;0.0;96.4;0.0;0.0;8.3
2.0;1753873617.051055;14.754337;1.03;-1.59;-0.28;-0.936894;-0.384722;0.0257;0.0;0.0;94.8;0.0;0.0;8.1
2.0;1753873617.055664;14.790491;1.03;-1.52;-0.37;-0.937558;-0.386168;0.026634;0.0;0.0;98.1;0.0;0.0;8.1
2.0;1753873617.060274;14.76546;1.04;-1.58;-0.27;-0.938149;-0.385689;0.027679;0.0;0.0;97.0;0.0;0.0;8.8
2.0;1753873617.064882;14.773659;0.99;-1.67;-0.29;-0.939419;-0.385263;0.025584;0.0;0.0;97.5;0.0;0.0;8.8
2.0;1753873617.069492;14.764904;1.04;-1.61;-0.27;-0.938716;-0.387027;0.02456;0.0;0.0;101.2;0.0;0.0;8.4
2.0;1753873617.074101;14.763192;1.06;-1.68;-0.32;-0.936581;-0.385075;0.027386;0.0;0.0;99.8;0.0;0.0;7.4
2.0;1753873617.07871;14.775042;0.94;-1.63;-0.3;-0.939392;-0.387285;0.027192;0.0;0.0;96.7;0.0;0.0;8.3
2.0;1753873617.083319;14.772774;0.91;-1.64;-0.25;-0.939212;-0.386561;0.025693;0.0;0.0;94.2;0.0;0.0;8.2
2.0;1753873617.087928;14.760868;1.05;-1.61;-0.3;-0.937773;-0.387241;0.027809;0.0;0.0;100.1;0.0;0.0;8.2
2.0;1753873617.092537;14.761763;0.92;-1.61;-0.21;-0.938147;-0.386127;0.025253;0.0;0.0;97.3;0.0;0.0;6.9
2.0;1753873617.097146;14.772556;0.98;-1.61;-0.27;-0.93756;-0.386387;0.026436;0.0;0.0;101.6;0.0;0.0;8.1
2.0;1753873617.101756;14.767732;0.86;-1.54;-0.32;-0.938737;-0.38473;0.027755;0.0;0.0;98.7;0.0;0.0;7.5
2.0;1753873617.106364;14.778778;1.0;-1.69;-0.28;-0.937774;-0.386043;0.026592;0.0;0.0;99.9;0.0;0.0;7.8
2.0;1753873617.110974;14.776837;0.93;-1.72;-0.28;-0.93828;-0.38553;0.026227;0.0;0.0;98.0;0.0;0.0;8.7
2.0;1753873617.115583;14.767841;0.86;-1.57;-0.33;-0.936158;-0.385268;0.026613;0.0;0.0;100.7;0.0;0.0;7.8
2.0;1753873617.120192;14.761308;1.06;-1.79;-0.25;-0.937769;-0.386461;0.02767;0.0;0.0;97.5;0.0;0.0;7.9
2.0;1753873617.124801;14.786989;0.89;-1.7;-0.27;-0.936889;-0.384494;0.023093;0.0;0.0;98.4;0.0;0.0;8.2
2.0;1753873617.12941;14.770268;1.04;-1.59;-0.27;-0.938875;-0.385884;0.025416;0.0;0.0;97.9;0.0;0.0;8.4
2.0;1753873617.134019;14.759342;1.0;-1.69;-0.29;-0.939443;-0.386372;0.026409;0.0;0.0;97.1;0.0;0.0;8.3
2.0;1753873617.138628;14.780495;0.99;-1.75;-0.3;-0.938534;-0.386267;0.025256;0.0;0.0;100.5;0.0;0.0;7.8
2.0;1753873617.143237;14.76603;0.93;-1.6;-0.34;-0.937091;-0.386131;0.027498;0.0;0.0;97.0;0.0;0.0;8.1
2.0;1753873617.147846;14.765031;0.98;-1.57;-0.32;-0.938549;-0.385629;0.02691;0.0;0.0;100.2;0.0;0.0;8.1
2.0;1753873617.152456;14.765087;0.98;-1.63;-0.25;-0.938956;-0.386955;0.025526;0.0;0.0;97.6;0.0;0.0;8.5
2.0;1753873617.157065;14.773335;0.94;-1.62;-0.3;-0.937611;-0.385435;0.025292;0.0;0.0;98.5;0.0;0.0;7.6
2.0;1753873617.161674;14.778737;0.86;-1.73;-0.26;-0.938796;-0.385415;0.025811;0.0;0.0;97.3;0.0;0.0;7.4
2.0;1753873617.166283;14.787557;0.99;-1.6;-0.26;-0.939489;-0.385746;0.02668;0.0;0.0;99.5;0.0;0.0;8.2
2.0;1753873617.170892;14.762087;0.91;-1.64;-0.35;-0.938676;-0.386235;0.026352;0.0;0.0;94.3;0.0;0.0;8.1
2.0;1753873617.175501;14.765767;0.99;-1.54;-0.3;-0.936352;-0.386213;0.026624;0.0;0.0;97.5;0.0;0.0;7.8
2.0;1753873617.18011;14.778284;0.92;-1.59;-0.26;-0.937428;-0.386368;0.026493;0.0;0.0;97.0;0.0;0.0;8.5
2.0;1753873617.184719;14.768159;0.87;-1.6;-0.28;-0.93829;-0.385811;0.025913;0.0;0.0;98.8;0.0;0.0;7.9
2.0;1753873617.189328;14.764773;0.98;-1.62;-0.29;-0.937431;-0.386557;0.027747;0.0;0.0;99.9;0.0;0.0;8.0
2.0;1753873617.193938;14.765603;0.92;-1.53;-0.25;-0.938638;-0.385831;0.027135;0.0;0.0;94.5;0.0;0.0;8.0
2.0;1753873617.198547;14.7726;1.04;-1.62;-0.31;-0.939767;-0.385935;0.026418;0.0;0.0;98.1;0.0;0.0;8.0
2.0;1753873617.203156;14.771483;0.87;-1.66;-0.28;-0.938683;-0.385682;0.025397;0.0;0.0;94.8;0.0;0.0;7.8
2.0;1753873617.207765;14.778431;0.94;-1.58;-0.27;-0.938514;-0.386831;0.025445;0.0;0.0;95.6;0.0;0.0;8.2
2.0;1753873617.212374;14.768197;1.04;-1.67;-0.35;-0.941369;-0.385146;0.026855;0.0;0.0;99.1;0.0;0.0;8.6
2.0;1753873617.216983;14.768973;0.9;-1.64;-0.35;-0.938564;-0.385466;0.024394;0.0;0.0;96.2;0.0;0.0;8.2
2.0;1753873617.221592;14.781814;0.91;-1.54;-0.34;-0.940149;-0.385801;0.027568;0.0;0.0;94.4;0.0;0.0;8.7
2.0;1753873617.226201;14.777051;1.01;-1.77;-0.29;-0.940281;-0.386354;0.026613;0.0;0.0;99.3;0.0;0.0;7.2
2.0;1753873617.23081;14.768979;0.79;-1.59;-0.31;-0.938894;-0.386904;0.025803;0.0;0.0;97.2;0.0;0.0;8.3
2.0;1753873617.23542;14.771108;0.76;-1.52;-0.32;-0.940411;-0.386299;0.026711;0.0;0.0;95.4;0.0;0.0;7.8
2.0;1753873617.240028;14.782299;0.82;-1.61;-0.25;-0.940902;-0.383752;0.023755;0.0;0.0;97.3;0.0;0.0;8.4
2.0;1753873617.244638;14.776628;0.92;-1.65;-0.31;-0.939246;-0.386384;0.026194;0.0;0.0;96.7;0.0;0.0;7.6
2.0;1753873617.249247;14.765324;0.9;-1.67;-0.38;-0.938357;-0.385276;0.027156;0.0;0.0;100.5;0.0;0.0;8.0
2.0;1753873617.253856;14.75411;0.89;-1.54;-0.31;-0.941411;-0.385446;0.027307;0.0;0.0;100.9;0.0;0.0;7.9
2.0;1753873617.258465;14.754379;0.9;-1.55;-0.28;-0.939052;-0.385593;0.027033;0.0;0.0;95.6;0.0;0.0;7.5
2.0;1753873617.263074;14.769675;0.81;-1.63;-0.31;-0.939228;-0.38485;0.025053;0.0;0.0;96.8;0.0;0.0;8.8
2.0;1753873617.267683;14.758243;0.89;-1.51;-0.34;-0.940817;-0.385616;0.026407;0.0;0.0;99.6;0.0;0.0;7.3
2.0;1753873617.272292;14.771256;0.92;-1.57;-0.28;-0.940087;-0.385727;0.025925;0.0;0.0;98.0;0.0;0.0;7.2
2.0;1753873617.276902;14.774081;0.9;-1.6;-0.35;-0.940456;-0.384374;0.025642;0.0;0.0;99.6;0.0;0.0;8.2
2.0;1753873617.28151;14.773178;0.93;-1.64;-0.27;-0.939897;-0.384834;0.024655;0.0;0.0;97.0;0.0;0.0;8.3
2.0;1753873617.28612;14.765633;1.02;-1.55;-0.27;-0.941336;-0.385262;0.024464;0.0;0.0;98.3;0.0;0.0;8.2
2.0;1753873617.290729;14.766307;0.92;-1.62;-0.34;-0.940387;-0.385761;0.026212;0.0;0.0;102.7;0.0;0.0;8.6
2.0;1753873617.295338;14.776213;0.86;-1.65;-0.24;-0.939202;-0.386534;0.025429;0.0;0.0;98.2;0.0;0.0;8.4
2.0;1753873617.299947;14.756673;0.83;-1.55;-0.4;-0.938948;-0.384624;0.025621;0.0;0.0;95.9;0.0;0.0;8.1
2.0;1753873617.304556;14.766726;0.77;-1.62;-0.36;-0.938609;-0.385111;0.026578;0.0;0.0;100.3;0.0;0.0;7.8
2.0;1753873617.309165;14.760969;0.87;-1.64;-0.33;-0.93931;-0.384576;0.026788;0.0;0.0;97.9;0.0;0.0;8.4
2.0;1753873617.313774;14.764353;0.83;-1.57;-0.33;-0.938974;-0.384849;0.02508;0.0;0.0;97.7;0.0;0.0;8.1
2.0;1753873617.318384;14.769456;0.86;-1.68;-0.27;-0.940111;-0.384923;0.025908;0.0;0.0;99.8;0.0;0.0;8.1
2.0;1753873617.322992;14.762758;0.92;-1.65;-0.3;-0.940308;-0.383679;0.024548;0.0;0.0;100.3;0.0;0.0;7.8
2.0;1753873617.327602;14.752826;0.93;-1.62;-0.31;-0.940475;-0.384813;0.024557;0.0;0.0;98.1;0.0;0.0;7.5
2.0;1753873617.332211;14.774694;0.98;-1.78;-0.34;-0.941603;-0.385091;0.02714;0.0;0.0;99.4;0.0;0.0;8.3
2.0;1753873617.33682;14.759368;0.77;-1.64;-0.36;-0.940029;-0.385013;0.026859;0.0;0.0;99.6;0.0;0.0;8.1
2.0;1753873617.341429;14.767999;0.88;-1.67;-0.34;-0.940393;-0.385862;0.026195;0.0;0.0;103.3;0.0;0.0;7.8
2.0;1753873617.346038;14.756906;0.88;-1.62;-0.26;-0.939992;-0.384538;0.025702;0.0;0.0;101.8;0.0;0.0;8.1
2.0;1753873617.350647;14.774073;0.92;-1.66;-0.24;-0.93949;-0.384951;0.02628;0.0;0.0;96.6;0.0;0.0;8.3
2.0;1753873617.355256;14.776094;0.98;-1.46;-0.31;-0.940377;-0.384315;0.02608;0.0;0.0;98.5;0.0;0.0;8.0
2.0;1753873617.359866;14.771563;0.89;-1.55;-0.34;-0.941447;-0.385264;0.025439;0.0;0.0;100.4;0.0;0.0;8.1
2.0;1753873617.364474;14.764305;0.8;-1.69;-0.34;-0.939168;-0.385961;0.027241;0.0;0.0;98.8;0.0;0.0;8.0
2.0;1753873617.369084;14.765254;0.75;-1.64;-0.2;-0.940354;-0.38477;0.025029;0.0;0.0;100.9;0.0;0.0;7.8
2.0;1753873617.373693;14.770072;0.86;-1.61;-0.28;-0.939618;-0.383356;0.026123;0.0;0.0;98.5;0.0;0.0;7.7
2.0;1753873617.378302;14.775237;0.92;-1.51;-0.37;-0.940087;-0.385846;0.026029;0.0;0.0;97.1;0.0;0.0;8.1
2.0;1753873617.382911;14.771902;0.86;-1.64;-0.31;-0.939288;-0.385608;0.024122;0.0;0.0;99.3;0.0;0.0;8.7
2.0;1753873617.38752;14.774061;0.96;-1.53;-0.32;-0.940092;-0.384116;0.02569;0.0;0.0;99.2;0.0;0.0;8.4
2.0;1753873617.392129;14.777924;0.85;-1.57;-0.3;-0.940797;-0.384791;0.026212;0.0;0.0;97.1;0.0;0.0;7.8
2.0;1753873617.396738;14.763536;0.93;-1.58;-0.34;-0.942242;-0.383987;0.026545;0.0;0.0;97.5;0.0;0.0;7.8
2.0;1753873617.401348;14.775064;0.9;-1.61;-0.36;-0.94078;-0.38386;0.027857;0.0;0.0;96.5;0.0;0.0;8.3
2.0;1753873617.405956;14.766776;0.88;-1.72;-0.34;-0.93855;-0.385472;0.025433;0.0;0.0;101.6;0.0;0.0;7.7
2.0;1753873617.410566;14.757185;1.03;-1.53;-0.3;-0.93968;-0.385272;0.024613;0.0;0.0;100.6;0.0;0.0;8.0
2.0;1753873617.415175;14.767026;1.06;-1.58;-0.3;-0.94028;-0.383907;0.024621;0.0;0.0;99.8;0.0;0.0;8.4
2.0;1753873617.419784;14.771394;0.95;-1.61;-0.3;-0.94158;-0.384362;0.025317;0.0;0.0;97.5;0.0;0.0;7.6
2.0;1753873617.424393;14.764918;0.96;-1.53;-0.37;-0.9399;-0.383955;0.02645;0.0;0.0;99.0;0.0;0.0;8.2
2.0;1753873617.429002;14.762141;0.82;-1.72;-0.27;-0.939724;-0.385076;0.025706;0.0;0.0;93.8;0.0;0.0;7.9
2.0;1753873617.433611;14.787479;0.87;-1.68;-0.32;-0.938564;-0.384423;0.025762;0.0;0.0;97.9;0.0;0.0;7.7
2.0;1753873617.43822;14.761079;0.98;-1.62;-0.34;-0.939905;-0.383805;0.025163;0.0;0.0;91.7;0.0;0.0;8.3
2.0;1753873617.442829;14.759814;0.84;-1.62;-0.21;-0.941579;-0.384221;0.024436;0.0;0.0;102.6;0.0;0.0;7.8
2.0;1753873617.447438;14.778687;0.84;-1.61;-0.38;-0.939862;-0.385881;0.025652;0.0;0.0;99.2;0.0;0.0;7.9
2.0;1753873617.452048;14.77295;0.88;-1.56;-0.33;-0.939661;-0.384315;0.025866;0.0;0.0;96.5;0.0;0.0;7.4
2.0;1753873617.456657;14.748161;0.77;-1.68;-0.34;-0.941047;-0.385297;0.025374;0.0;0.0;95.7;0.0;0.0;8.4
2.0;1753873617.461266;14.774376;0.74;-1.65;-0.36;-0.938199;-0.385672;0.026419;0.0;0.0;98.0;0.0;0.0;7.9
2.0;1753873617.465875;14.754065;0.91;-1.67;-0.32;-0.941861;-0.38428;0.025165;0.0;0.0;100.9;0.0;0.0;7.7
2.0;1753873617.470484;14.767662;0.88;-1.6;-0.26;-0.940747;-0.385031;0.025935;0.0;0.0;97.3;0.0;0.0;8.1
2.0;1753873617.475093;14.779571;0.84;-1.62;-0.39;-0.941123;-0.384791;0.026224;0.0;0.0;98.6;0.0;0.0;7.7
2.0;1753873617.479702;14.779036;0.89;-1.59;-0.33;-0.942342;-0.382104;0.024786;0.0;0.0;93.4;0.0;0.0;8.1
2.0;1753873617.484311;14.77403;0.8;-1.63;-0.34;-0.94155;-0.384718;0.027591;0.0;0.0;99.5;0.0;0.0;8.1
2.0;1753873617.48892;14.764653;0.93;-1.59;-0.44;-0.940107;-0.384559;0.025712;0.0;0.0;95.3;0.0;0.0;8.1
2.0;1753873617.49353;14.771216;0.69;-1.64;-0.37;-0.938899;-0.38358;0.026935;0.0;0.0;96.8;0.0;0.0;7.7
2.0;1753873617.498139;14.765868;0.89;-1.56;-0.31;-0.939793;-0.384575;0.025292;0.0;0.0;99.5;0.0;0.0;7.5
2.0;1753873617.502748;14.780347;0.81;-1.61;-0.27;-0.941195;-0.383813;0.023973;0.0;0.0;100.5;0.0;0.0;7.7
2.0;1753873617.507357;14.760866;1.02;-1.5;-0.34;-0.94208;-0.383669;0.02526;0.0;0.0;96.6;0.0;0.0;7.8
2.0;1753873617.511966;14.737332;0.93;-1.57;-0.27;-0.939875;-0.385426;0.025798;0.0;0.0;99.4;0.0;0.0;7.7
2.0;1753873617.516575;14.773829;0.86;-1.58;-0.3;-0.93963;-0.38414;0.026826;0.0;0.0;97.2;0.0;0.0;8.1
2.0;1753873617.521184;14.771024;0.8;-1.66;-0.35;-0.942103;-0.383803;0.025122;0.0;0.0;96.8;0.0;0.0;7.4
2.0;1753873617.525793;14.766472;0.88;-1.68;-0.38;-0.941356;-0.383686;0.026089;0.0;0.0;96.1;0.0;0.0;8.8
2.0;1753873617.530402;14.757011;0.78;-1.65;-0.25;-0.941875;-0.383212;0.02564;0.0;0.0;96.4;0.0;0.0;8.1
2.0;1753873617.535012;14.778307;0.83;-1.53;-0.38;-0.939361;-0.385104;0.025258;0.0;0.0;102.7;0.0;0.0;8.2
2.0;1753873617.539621;14.761167;0.8;-1.65;-0.39;-0.941729;-0.384783;0.025065;0.0;0.0;96.9;0.0;0.0;7.5
2.0;1753873617.54423;14.762701;0.8;-1.59;-0.32;-0.940863;-0.385394;0.02513;0.0;0.0;99.1;0.0;0.0;7.8
2.0;1753873617.548839;14.756939;0.87;-1.66;-0.29;-0.939487;-0.38379;0.025826;0.0;0.0;101.0;0.0;0.0;7.2
2.0;1753873617.553448;14.773823;0.79;-1.62;-0.35;-0.940634;-0.385424;0.025852;0.0;0.0;97.8;0.0;0.0;7.9
2.0;1753873617.558057;14.768933;0.83;-1.65;-0.36;-0.941787;-0.384185;0.026046;0.0;0.0;98.3;0.0;0.0;7.6
2.0;1753873617.562666;14.772544;0.87;-1.56;-0.35;-0.941959;-0.384249;0.025515;0.0;0.0;96.0;0.0;0.0;7.6
2.0;1753873617.567275;14.766277;0.79;-1.58;-0.35;-0.942235;-0.384635;0.025336;0.0;0.0;98.2;0.0;0.0;7.6
2.0;1753873617.571884;14.764979;0.76;-1.62;-0.32;-0.941302;-0.38448;0.026323;0.0;0.0;99.9;0.0;0.0;7.3
2.0;1753873617.576494;14.76298;0.77;-1.52;-0.38;-0.940855;-0.384171;0.025343;0.0;0.0;96.4;0.0;0.0;8.0
2.0;1753873617.581102;14.772568;0.89;-1.64;-0.38;-0.940535;-0.384418;0.026098;0.0;0.0;97.2;0.0;0.0;7.6
2.0;1753873617.585712;14.768287;0.83;-1.59;-0.32;-0.941842;-0.385047;0.025952;0.0;0.0;102.2;0.0;0.0;7.3
2.0;1753873617.594;14.769531;0.84;-1.61;-0.35;-0.941352;-0.384056;0.025742;0.0;0.0;98.0;0.0;0.0;8.0
2.0;1753873617.598609;14.771405;0.77;-1.57;-0.31;-0.941883;-0.383239;0.024151;0.0;0.0;98.3;0.0;0.0;8.3
2.0;1753873617.603218;14.749717;0.77;-1.51;-0.33;-0.941417;-0.385909;0.025499;0.0;0.0;99.1;0.0;0.0;7.7
2.0;1753873617.607828;14.776818;0.98;-1.58;-0.35;-0.942572;-0.383426;0.025147;0.0;0.0;98.8;0.0;0.0;7.7
2.0;1753873617.612436;14.752933;0.89;-1.68;-0.46;-0.93992;-0.384124;0.025073;0.0;0.0;96.7;0.0;0.0;8.1
2.0;1753873617.617046;14.768191;0.86;-1.61;-0.33;-0.940084;-0.383778;0.02595;0.0;0.0;102.7;0.0;0.0;8.2
2.0;1753873617.621655;14.769135;0.82;-1.68;-0.35;-0.942285;-0.38384;0.025421;0.0;0.0;100.4;0.0;0.0;7.5
2.0;1753873617.626264;14.779566;0.87;-1.61;-0.29;-0.941366;-0.384162;0.0257;0.0;0.0;97.4;0.0;0.0;7.7
2.0;1753873617.630873;14.773166;0.75;-1.69;-0.44;-0.942305;-0.383622;0.025226;0.0;0.0;94.7;0.0;0.0;8.3
2.0;1753873617.635482;14.772058;0.86;-1.54;-0.33;-0.940734;-0.382934;0.026144;0.0;0.0;101.2;0.0;0.0;7.7
2.0;1753873617.640091;14.761674;0.92;-1.69;-0.35;-0.941665;-0.384123;0.026543;0.0;0.0;98.8;0.0;0.0;8.2
2.0;1753873617.6447;14.760351;0.84;-1.59;-0.31;-0.941839;-0.383194;0.024322;0.0;0.0;97.1;0.0;0.0;8.3
2.0;1753873617.64931;14.77278;0.88;-1.68;-0.3;-0.940684;-0.385137;0.027596;0.0;0.0;96.6;0.0;0.0;7.7
2.0;1753873617.653918;14.75361;0.8;-1.61;-0.31;-0.941017;-0.384823;0.02627;0.0;0.0;101.9;0.0;0.0;7.7
2.0;1753873617.658528;14.762313;0.97;-1.68;-0.33;-0.941472;-0.384356;0.024832;0.0;0.0;99.3;0.0;0.0;7.5
2.0;1753873617.663137;14.75621;0.94;-1.63;-0.33;-0.940115;-0.383871;0.025933;0.0;0.0;98.1;0.0;0.0;7.7
2.0;1753873617.667746;14.751341;0.82;-1.62;-0.31;-0.942816;-0.384625;0.025464;0.0;0.0;98.1;0.0;0.0;8.3
2.0;1753873617.672355;14.776168;0.92;-1.61;-0.24;-0.940801;-0.384133;0.025318;0.0;0.0;99.4;0.0;0.0;7.9
2.0;1753873617.676964;14.789889;0.85;-1.59;-0.4;-0.942263;-0.384518;0.025443;0.0;0.0;99.0;0.0;0.0;8.0
2.0;1753873617.681573;14.761929;0.89;-1.74;-0.29;-0.942076;-0.382941;0.02645;0.0;0.0;96.5;0.0;0.0;8.2
2.0;1753873617.686182;14.768899;0.88;-1.61;-0.4;-0.942423;-0.382759;0.026603;0.0;0.0;98.4;0.0;0.0;7.6
2.0;1753873617.690791;14.756275;0.79;-1.64;-0.34;-0.940817;-0.38357;0.025549;0.0;0.0;99.6;0.0;0.0;7.6
2.0;1753873617.6954;14.77395;0.8;-1.52;-0.37;-0.94199;-0.383598;0.02533;0.0;0.0;97.6;0.0;0.0;7.8
2.0;1753873617.70001;14.779148;0.92;-1.59;-0.32;-0.941433;-0.38473;0.025749;0.0;0.0;99.2;0.0;0.0;7.9
2.0;1753873617.704619;14.762426;0.94;-1.54;-0.37;-0.940693;-0.382183;0.025601;0.0;0.0;100.0;0.0;0.0;8.1
2.0;1753873617.709228;14.761427;0.89;-1.65;-0.38;-0.941078;-0.384738;0.024888;0.0;0.0;96.9;0.0;0.0;8.3
2.0;1753873617.713837;14.776096;0.9;-1.64;-0.34;-0.942035;-0.383897;0.024941;0.0;0.0;98.4;0.0;0.0;7.9
2.0;1753873617.718446;14.77029;0.85;-1.65;-0.34;-0.940496;-0.3848;0.026413;0.0;0.0;98.7;0.0;0.0;8.3
2.0;1753873617.723055;14.767045;0.81;-1.61;-0.32;-0.939366;-0.382151;0.025484;0.0;0.0;95.5;0.0;0.0;7.5
2.0;1753873617.727664;14.769907;0.9;-1.68;-0.44;-0.941425;-0.383597;0.026848;0.0;0.0;99.5;0.0;0.0;8.2
2.0;1753873617.732273;14.769823;0.95;-1.69;-0.38;-0.941482;-0.38387;0.025842;0.0;0.0;95.9;0.0;0.0;8.3
2.0;1753873617.736882;14.774513;0.88;-1.71;-0.38;-0.941784;-0.382646;0.025008;0.0;0.0;97.9;0.0;0.0;8.0
2.0;1753873617.741492;14.765448;0.87;-1.54;-0.35;-0.941206;-0.38613;0.026122;0.0;0.0;96.7;0.0;0.0;8.2
2.0;1753873617.746101;14.779292;0.78;-1.71;-0.37;-0.941842;-0.384323;0.027757;0.0;0.0;98.2;0.0;0.0;8.0
2.0;1753873617.75071;14.769645;0.79;-1.61;-0.36;-0.94228;-0.3824;0.027103;0.0;0.0;99.0;0.0;0.0;8.1
2.0;1753873617.755319;14.771423;0.77;-1.6;-0.31;-0.941276;-0.384922;0.026572;0.0;0.0;100.8;0.0;0.0;8.4
2.0;1753873617.759928;14.755974;0.89;-1.63;-0.3;-0.941172;-0.382912;0.026693;0.0;0.0;98.9;0.0;0.0;7.6
2.0;1753873617.764537;14.77763;0.78;-1.63;-0.23;-0.940693;-0.383693;0.025172;0.0;0.0;96.3;0.0;0.0;7.9
2.0;1753873617.769146;14.769326;0.81;-1.63;-0.4;-0.942609;-0.382512;0.026035;0.0;0.0;102.1;0.0;0.0;7.8
2.0;1753873617.773755;14.754521;0.86;-1.67;-0.28;-0.941885;-0.384691;0.027702;0.0;0.0;97.7;0.0;0.0;7.8
2.0;1753873617.778364;14.782977;0.9;-1.69;-0.39;-0.941945;-0.384945;0.025504;0.0;0.0;98.8;0.0;0.0;8.2
2.0;1753873617.782974;14.772883;0.86;-1.67;-0.36;-0.940592;-0.384316;0.026855;0.0;0.0;98.7;0.0;0.0;8.3
2.0;1753873617.787583;14.761941;0.85;-1.62;-0.32;-0.942593;-0.38291;0.025293;0.0;0.0;94.3;0.0;0.0;7.4
2.0;1753873617.792192;14.755004;0.87;-1.56;-0.32;-0.942305;-0.383059;0.027588;0.0;0.0;99.1;0.0;0.0;7.5
2.0;1753873617.796801;14.793397;0.94;-1.6;-0.37;-0.939775;-0.382529;0.024505;0.0;0.0;99.3;0.0;0.0;7.8
2.0;1753873617.80141;14.76764;1.01;-1.52;-0.34;-0.942303;-0.38347;0.026693;0.0;0.0;97.4;0.0;0.0;8.2
2.0;1753873617.806019;14.76908;0.84;-1.65;-0.37;-0.941121;-0.383441;0.027512;0.0;0.0;97.5;0.0;0.0;7.9
2.0;1753873617.810628;14.775731;0.9;-1.6;-0.35;-0.941731;-0.386072;0.027216;0.0;0.0;94.7;0.0;0.0;7.9
2.0;1753873617.815237;14.765139;0.99;-1.62;-0.27;-0.941873;-0.383961;0.02634;0.0;0.0;101.1;0.0;0.0;8.1
2.0;1753873617.819846;14.76075;0.79;-1.68;-0.28;-0.94086;-0.382396;0.025613;0.0;0.0;98.2;0.0;0.0;7.8
2.0;1753873617.824456;14.773065;0.98;-1.69;-0.29;-0.93993;-0.384302;0.02625;0.0;0.0;99.6;0.0;0.0;8.3
2.0;1753873617.829064;14.772232;0.82;-1.54;-0.4;-0.941754;-0.384013;0.027639;0.0;0.0;94.2;0.0;0.0;7.8
2.0;1753873617.833674;14.767287;0.86;-1.67;-0.39;-0.940401;-0.384625;0.026536;0.0;0.0;98.3;0.0;0.0;7.9
2.0;1753873617.838283;14.75662;0.99;-1.6;-0.41;-0.940343;-0.386136;0.026116;0.0;0.0;95.5;0.0;0.0;8.4
2.0;1753873617.842892;14.771373;0.83;-1.55;-0.35;-0.941446;-0.384046;0.02578;0.0;0.0;97.4;0.0;0.0;8.0
2.0;1753873617.847501;14.768775;0.91;-1.61;-0.3;-0.940705;-0.384903;0.026729;0.0;0.0;99.0;0.0;0.0;7.9
2.0;1753873617.85211;14.765058;0.79;-1.62;-0.36;-0.941727;-0.383509;0.025068;0.0;0.0;101.1;0.0;0.0;7.8
2.0;1753873617.856719;14.769318;0.97;-1.63;-0.36;-0.940739;-0.384864;0.025196;0.0;0.0;97.5;0.0;0.0;7.6
2.0;1753873617.861328;14.758564;0.73;-1.62;-0.37;-0.942412;-0.385857;0.025827;0.0;0.0;100.1;0.0;0.0;7.9
2.0;1753873617.865938;14.784742;0.89;-1.74;-0.29;-0.939621;-0.383937;0.025412;0.0;0.0;100.8;0.0;0.0;7.8
2.0;1753873617.870546;14.77828;0.82;-1.53;-0.38;-0.94106;-0.384509;0.026688;0.0;0.0;97.9;0.0;0.0;8.7
2.0;1753873617.875156;14.758222;0.9;-1.6;-0.37;-0.943383;-0.386526;0.025803;0.0;0.0;95.6;0.0;0.0;8.4
2.0;1753873617.879765;14.774785;1.0;-1.74;-0.34;-0.942724;-0.383431;0.025727;0.0;0.0;97.2;0.0;0.0;7.9
2.0;1753873617.884374;14.774269;0.99;-1.57;-0.34;-0.941712;-0.383513;0.02632;0.0;0.0;95.9;0.0;0.0;7.8
2.0;1753873617.888983;14.765965;0.8;-1.66;-0.35;-0.941396;-0.385412;0.025939;0.0;0.0;97.9;0.0;0.0;7.9
2.0;1753873617.893592;14.759165;0.89;-1.53;-0.34;-0.939317;-0.385429;0.027971;0.0;0.0;96.5;0.0;0.0;8.2
2.0;1753873617.898201;14.749944;0.87;-1.63;-0.33;-0.940284;-0.383827;0.026392;0.0;0.0;100.0;0.0;0.0;7.7
2.0;1753873617.90281;14.770929;0.86;-1.64;-0.44;-0.942064;-0.383502;0.026657;0.0;0.0;99.7;0.0;0.0;8.2
2.0;1753873617.90742;14.770225;1.02;-1.51;-0.46;-0.940643;-0.384829;0.027546;0.0;0.0;95.8;0.0;0.0;8.1
2.0;1753873617.912028;14.778528;0.9;-1.66;-0.34;-0.941442;-0.383473;0.027583;0.0;0.0;101.5;0.0;0.0;7.8
2.0;1753873617.916638;14.774879;1.0;-1.64;-0.41;-0.941213;-0.3863;0.025805;0.0;0.0;98.4;0.0;0.0;7.8
2.0;1753873617.921247;14.76171;0.92;-1.64;-0.36;-0.941832;-0.38456;0.026379;0.0;0.0;96.6;0.0;0.0;7.7
2.0;1753873617.925856;14.759098;0.8;-1.61;-0.35;-0.942326;-0.383508;0.027847;0.0;0.0;98.8;0.0;0.0;7.7
2.0;1753873617.930465;14.766081;0.91;-1.61;-0.28;-0.942156;-0.383895;0.026665;0.0;0.0;98.0;0.0;0.0;8.0
2.0;1753873617.935074;14.770103;1.08;-1.54;-0.36;-0.941047;-0.383908;0.025719;0.0;0.0;97.6;0.0;0.0;7.9
2.0;1753873617.939683;14.766096;0.94;-1.64;-0.37;-0.942392;-0.383337;0.026244;0.0;0.0;100.1;0.0;0.0;7.6
2.0;1753873617.9479;14.769531;0.91;-1.61;-0.35;-0.941352;-0.3843;0.026596;0.0;0.0;98.0;0.0;0.0;8.0
2.0;1753873617.952509;14.768144;0.91;-1.55;-0.4;-0.941854;-0.383773;0.026154;0.0;0.0;97.0;0.0;0.0;8.1
2.0;1753873617.957118;14.740099;0.97;-1.64;-0.3;-0.940854;-0.384632;0.025357;0.0;0.0;96.1;0.0;0.0;7.1
2.0;1753873617.961728;14.730013;0.92;-1.5;-0.39;-0.939172;-0.384407;0.026592;0.0;0.0;96.8;0.0;0.0;7.9
2.0;1753873617.96971;14.742188;0.91;-1.61;-0.35;-0.940132;-0.3843;0.027084;0.0;0.0;95.0;0.0;0.0;7.0
2.0;1753873617.970532;14.71875;0.91;-1.68;-0.35;-0.939278;-0.386374;0.026352;0.0;0.0;98.0;0.0;0.0;7.0
2.0;1753873617.974534;14.71875;0.91;-1.68;-0.42;-0.940132;-0.384422;0.027084;0.0;0.0;98.0;0.0;0.0;7.0
2.0;1753873617.979005;14.71875;0.98;-1.68;-0.28;-0.940132;-0.384422;0.027084;0.0;0.0;98.0;0.0;0.0;7.0
2.0;1753873617.983666;14.769531;0.91;-1.75;-0.21;-0.941352;-0.382836;0.026474;0.0;0.0;98.0;0.0;0.0;7.0
2.0;1753873617.988268;14.769531;0.91;-1.68;-0.28;-0.939522;-0.387106;0.027206;0.0;0.0;98.0;0.0;0.0;7.0
2.0;1753873617.993029;14.769531;0.84;-1.68;-0.28;-0.939644;-0.385032;0.024522;0.0;0.0;98.0;0.0;0.0;7.0
2.0;1753873617.997638;14.743166;0.94;-1.66;-0.34;-0.939563;-0.383454;0.024335;0.0;0.0;99.4;0.0;0.0;6.7
2.0;1753873618.002247;14.800793;0.86;-1.73;-0.2;-0.938973;-0.384625;0.023893;0.0;0.0;95.3;0.0;0.0;7.1
2.0;1753873618.006856;14.720561;0.83;-1.67;-0.27;-0.940426;-0.386064;0.025102;0.0;0.0;97.0;0.0;0.0;7.2
2.0;1753873618.011466;14.799153;0.84;-1.62;-0.23;-0.939751;-0.385361;0.024116;0.0;0.0;100.7;0.0;0.0;6.9
2.0;1753873618.016075;14.753325;0.86;-1.66;-0.28;-0.94064;-0.388705;0.025031;0.0;0.0;94.2;0.0;0.0;6.6
2.0;1753873618.020684;14.799577;0.88;-1.64;-0.35;-0.940708;-0.383489;0.024469;0.0;0.0;94.1;0.0;0.0;7.1
2.0;1753873618.025293;14.784045;0.81;-1.68;-0.27;-0.940133;-0.383967;0.025092;0.0;0.0;97.3;0.0;0.0;7.5
2.0;1753873618.029902;14.758761;0.92;-1.68;-0.31;-0.937837;-0.386287;0.024671;0.0;0.0;97.3;0.0;0.0;7.8
2.0;1753873618.034511;14.772267;0.81;-1.77;-0.33;-0.938703;-0.38309;0.02373;0.0;0.0;97.9;0.0;0.0;6.6
2.0;1753873618.03912;14.783449;0.78;-1.63;-0.2;-0.940127;-0.386077;0.025381;0.0;0.0;96.7;0.0;0.0;8.5
2.0;1753873618.043729;14.763297;0.95;-1.6;-0.31;-0.93996;-0.386165;0.025238;0.0;0.0;100.1;0.0;0.0;6.4
2.0;1753873618.048338;14.735234;0.84;-1.69;-0.31;-0.939502;-0.382573;0.025852;0.0;0.0;99.9;0.0;0.0;7.3
2.0;1753873618.052948;14.780239;0.92;-1.67;-0.32;-0.940545;-0.3857;0.025078;0.0;0.0;96.3;0.0;0.0;6.9
2.0;1753873618.057557;14.78063;0.81;-1.63;-0.4;-0.939858;-0.384679;0.024166;0.0;0.0;97.7;0.0;0.0;7.3
2.0;1753873618.062166;14.77243;0.8;-1.72;-0.32;-0.940085;-0.385621;0.023718;0.0;0.0;97.0;0.0;0.0;6.3
2.0;1753873618.066775;14.758694;0.98;-1.66;-0.26;-0.93924;-0.386605;0.024822;0.0;0.0;95.7;0.0;0.0;6.5
2.0;1753873618.071384;14.780357;0.9;-1.7;-0.27;-0.941156;-0.384395;0.025814;0.0;0.0;97.4;0.0;0.0;6.3
2.0;1753873618.075993;14.717834;0.76;-1.67;-0.32;-0.938512;-0.385228;0.024266;0.0;0.0;97.5;0.0;0.0;7.4
2.0;1753873618.080602;14.797164;0.88;-1.75;-0.39;-0.939466;-0.384456;0.025685;0.0;0.0;97.8;0.0;0.0;6.7
2.0;1753873618.085211;14.741005;0.88;-1.69;-0.29;-0.94049;-0.38607;0.026197;0.0;0.0;98.5;0.0;0.0;6.8
2.0;1753873618.08982;14.75487;0.87;-1.7;-0.27;-0.939603;-0.382896;0.026002;0.0;0.0;99.9;0.0;0.0;6.6
2.0;1753873618.09443;14.713423;0.93;-1.72;-0.25;-0.940227;-0.384921;0.025271;0.0;0.0;99.9;0.0;0.0;7.2
2.0;1753873618.099038;14.776833;0.89;-1.71;-0.26;-0.938634;-0.38465;0.025212;0.0;0.0;102.5;0.0;0.0;7.6
2.0;1753873618.103648;14.769898;0.87;-1.57;-0.23;-0.939928;-0.384582;0.024984;0.0;0.0;101.3;0.0;0.0;6.6
2.0;1753873618.108257;14.763078;0.78;-1.68;-0.25;-0.939036;-0.384754;0.024865;0.0;0.0;97.9;0.0;0.0;7.4
2.0;1753873618.112866;14.782707;0.83;-1.67;-0.3;-0.939826;-0.386178;0.025137;0.0;0.0;95.9;0.0;0.0;5.9
2.0;1753873618.117475;14.767447;0.92;-1.67;-0.24;-0.939015;-0.385881;0.024553;0.0;0.0;98.3;0.0;0.0;6.6
2.0;1753873618.122084;14.785936;0.86;-1.71;-0.33;-0.939545;-0.383296;0.023831;0.0;0.0;96.2;0.0;0.0;6.4
2.0;1753873618.126693;14.793043;0.94;-1.6;-0.26;-0.939645;-0.386315;0.026337;0.0;0.0;95.5;0.0;0.0;8.0
2.0;1753873618.131302;14.778696;0.85;-1.67;-0.28;-0.939784;-0.385664;0.024651;0.0;0.0;96.9;0.0;0.0;7.5
2.0;1753873618.135912;14.788525;0.9;-1.64;-0.3;-0.939585;-0.383063;0.02372;0.0;0.0;98.1;0.0;0.0;7.5
2.0;1753873618.14052;14.747187;0.94;-1.74;-0.28;-0.939138;-0.388301;0.025145;0.0;0.0;96.6;0.0;0.0;6.9
2.0;1753873618.14513;14.784519;0.91;-1.65;-0.33;-0.939246;-0.385718;0.025486;0.0;0.0;98.6;0.0;0.0;6.9
2.0;1753873618.149739;14.744551;0.88;-1.7;-0.24;-0.940169;-0.385232;0.026503;0.0;0.0;98.9;0.0;0.0;6.2
2.0;1753873618.154348;14.760187;0.92;-1.69;-0.32;-0.938587;-0.384484;0.024365;0.0;0.0;99.1;0.0;0.0;7.0
2.0;1753873618.158957;14.710882;0.9;-1.66;-0.33;-0.940196;-0.384402;0.024881;0.0;0.0;96.9;0.0;0.0;6.9
2.0;1753873618.163566;14.744804;0.86;-1.7;-0.27;-0.939853;-0.385326;0.024349;0.0;0.0;97.8;0.0;0.0;7.1
2.0;1753873618.168175;14.736676;0.94;-1.73;-0.32;-0.938562;-0.385405;0.02473;0.0;0.0;100.2;0.0;0.0;6.8
2.0;1753873618.172784;14.823898;0.88;-1.72;-0.27;-0.939507;-0.385466;0.02722;0.0;0.0;97.0;0.0;0.0;7.0
2.0;1753873618.177394;14.761378;0.91;-1.7;-0.31;-0.940561;-0.385329;0.024426;0.0;0.0;98.4;0.0;0.0;6.7
2.0;1753873618.182002;14.7847;0.95;-1.62;-0.31;-0.938111;-0.385775;0.025731;0.0;0.0;97.9;0.0;0.0;6.4
2.0;1753873618.186612;14.763548;0.86;-1.69;-0.25;-0.938753;-0.385461;0.024286;0.0;0.0;102.1;0.0;0.0;7.9
2.0;1753873618.191221;14.721848;0.84;-1.62;-0.35;-0.939346;-0.385554;0.026024;0.0;0.0;100.4;0.0;0.0;7.6
2.0;1753873618.19583;14.744901;0.91;-1.6;-0.24;-0.939623;-0.384762;0.025232;0.0;0.0;97.9;0.0;0.0;6.7
2.0;1753873618.200439;14.800659;0.89;-1.65;-0.28;-0.939298;-0.385639;0.023532;0.0;0.0;98.2;0.0;0.0;6.0
2.0;1753873618.205048;14.7492;0.84;-1.62;-0.33;-0.938261;-0.386293;0.024548;0.0;0.0;97.8;0.0;0.0;7.3
2.0;1753873618.209657;14.787074;0.84;-1.66;-0.15;-0.93895;-0.384122;0.025987;0.0;0.0;95.6;0.0;0.0;7.5
2.0;1753873618.214266;14.773492;0.93;-1.63;-0.24;-0.939252;-0.383888;0.024948;0.0;0.0;96.7;0.0;0.0;7.5
2.0;1753873618.218876;14.764322;0.96;-1.61;-0.31;-0.939984;-0.387407;0.025422;0.0;0.0;97.7;0.0;0.0;6.3
2.0;1753873618.223484;14.770446;0.9;-1.62;-0.28;-0.939448;-0.387156;0.024127;0.0;0.0;98.0;0.0;0.0;6.9
2.0;1753873618.228094;14.772401;0.88;-1.65;-0.25;-0.938213;-0.38307;0.024185;0.0;0.0;93.5;0.0;0.0;7.4
2.0;1753873618.232703;14.791793;0.84;-1.63;-0.25;-0.938853;-0.385881;0.0253;0.0;0.0;97.3;0.0;0.0;6.9
2.0;1753873618.237312;14.782926;0.9;-1.62;-0.3;-0.939697;-0.387422;0.024998;0.0;0.0;95.2;0.0;0.0;6.4
2.0;1753873618.241921;14.747965;0.93;-1.64;-0.3;-0.93879;-0.388052;0.026496;0.0;0.0;98.2;0.0;0.0;6.7
2.0;1753873618.24653;14.77578;0.88;-1.63;-0.32;-0.938756;-0.386686;0.024984;0.0;0.0;97.7;0.0;0.0;7.7
2.0;1753873618.251139;14.782013;0.8;-1.63;-0.25;-0.939783;-0.385182;0.025554;0.0;0.0;98.6;0.0;0.0;6.1
2.0;1753873618.255748;14.780426;0.96;-1.7;-0.24;-0.938286;-0.38577;0.025057;0.0;0.0;101.1;0.0;0.0;7.3
2.0;1753873618.260358;14.692506;0.91;-1.67;-0.27;-0.940683;-0.385409;0.025371;0.0;0.0;102.4;0.0;0.0;7.6
2.0;1753873618.264966;14.835474;0.95;-1.72;-0.23;-0.940204;-0.386589;0.025404;0.0;0.0;98.1;0.0;0.0;6.8
2.0;1753873618.269576;14.759803;0.96;-1.64;-0.3;-0.940271;-0.384862;0.024695;0.0;0.0;100.4;0.0;0.0;7.0
2.0;1753873618.274185;14.789523;1.04;-1.61;-0.37;-0.939809;-0.386967;0.02586;0.0;0.0;99.0;0.0;0.0;7.3
2.0;1753873618.278794;14.772281;0.92;-1.69;-0.26;-0.940142;-0.38656;0.025881;0.0;0.0;93.9;0.0;0.0;7.8
2.0;1753873618.283403;14.712751;0.93;-1.63;-0.27;-0.939577;-0.384147;0.025623;0.0;0.0;95.0;0.0;0.0;7.8
2.0;1753873618.288012;14.847965;0.91;-1.59;-0.26;-0.938867;-0.387388;0.024202;0.0;0.0;96.4;0.0;0.0;6.8
2.0;1753873618.292621;14.791193;0.94;-1.72;-0.27;-0.939834;-0.387042;0.025812;0.0;0.0;98.8;0.0;0.0;7.6
2.0;1753873618.29723;14.74587;1.02;-1.66;-0.3;-0.938891;-0.386711;0.024615;0.0;0.0;97.9;0.0;0.0;7.2
2.0;1753873618.301839;14.802245;1.03;-1.6;-0.23;-0.939191;-0.385622;0.026702;0.0;0.0;97.6;0.0;0.0;7.0
2.0;1753873618.306448;14.773449;0.85;-1.69;-0.32;-0.939035;-0.384906;0.026239;0.0;0.0;95.9;0.0;0.0;6.6
2.0;1753873618.311058;14.795796;0.96;-1.7;-0.24;-0.939063;-0.386322;0.023581;0.0;0.0;95.8;0.0;0.0;7.0
2.0;1753873618.315667;14.792445;0.95;-1.65;-0.3;-0.938601;-0.383951;0.025592;0.0;0.0;95.4;0.0;0.0;7.0
2.0;1753873618.320276;14.770685;0.95;-1.65;-0.35;-0.939668;-0.38256;0.026213;0.0;0.0;95.8;0.0;0.0;7.5
2.0;1753873618.324885;14.788985;0.98;-1.62;-0.26;-0.939095;-0.384116;0.02651;0.0;0.0;98.2;0.0;0.0;6.8
2.0;1753873618.329494;14.788428;0.96;-1.65;-0.36;-0.938537;-0.386404;0.02651;0.0;0.0;98.3;0.0;0.0;7.5
2.0;1753873618.334103;14.748526;0.82;-1.65;-0.22;-0.939755;-0.386708;0.02471;0.0;0.0;98.0;0.0;0.0;7.1
2.0;1753873618.338712;14.797334;0.96;-1.67;-0.18;-0.93915;-0.386469;0.023933;0.0;0.0;98.2;0.0;0.0;7.3
2.0;1753873618.343321;14.78979;0.93;-1.62;-0.27;-0.940603;-0.38397;0.02394;0.0;0.0;94.5;0.0;0.0;6.3
2.0;1753873618.34793;14.728121;0.97;-1.57;-0.27;-0.940183;-0.385795;0.025683;0.0;0.0;97.8;0.0;0.0;7.0
2.0;1753873618.35254;14.766286;0.94;-1.63;-0.33;-0.940139;-0.383017;0.024776;0.0;0.0;97.8;0.0;0.0;6.5
2.0;1753873618.357149;14.76406;0.89;-1.58;-0.33;-0.938999;-0.386511;0.027649;0.0;0.0;95.9;0.0;0.0;7.1
2.0;1753873618.361758;14.744393;0.95;-1.65;-0.28;-0.940256;-0.384654;0.025814;0.0;0.0;99.0;0.0;0.0;8.2
2.0;1753873618.366367;14.760686;0.87;-1.62;-0.24;-0.939466;-0.386473;0.02557;0.0;0.0;97.1;0.0;0.0;6.3
2.0;1753873618.370976;14.76961;1.0;-1.62;-0.26;-0.939882;-0.388683;0.026565;0.0;0.0;99.2;0.0;0.0;7.2
2.0;1753873618.375585;14.772774;0.78;-1.74;-0.38;-0.939428;-0.388023;0.0262;0.0;0.0;98.6;0.0;0.0;6.8
2.0;1753873618.380194;14.773984;0.95;-1.65;-0.3;-0.939179;-0.385753;0.02623;0.0;0.0;98.5;0.0;0.0;7.1
2.0;1753873618.384803;14.767232;0.98;-1.64;-0.32;-0.940384;-0.386566;0.026322;0.0;0.0;98.8;0.0;0.0;6.8
2.0;1753873618.389412;14.850377;0.96;-1.59;-0.31;-0.938657;-0.389479;0.024453;0.0;0.0;98.0;0.0;0.0;6.8
2.0;1753873618.394022;14.752803;0.92;-1.66;-0.26;-0.939135;-0.385583;0.026801;0.0;0.0;97.7;0.0;0.0;7.0
2.0;1753873618.39863;14.773214;0.97;-1.69;-0.39;-0.938671;-0.386859;0.026186;0.0;0.0;99.4;0.0;0.0;7.0
2.0;1753873618.40324;14.776411;0.94;-1.6;-0.23;-0.937784;-0.386779;0.026925;0.0;0.0;94.4;0.0;0.0;7.1
2.0;1753873618.407849;14.762085;1.09;-1.63;-0.37;-0.939534;-0.384775;0.02524;0.0;0.0;95.1;0.0;0.0;7.8
2.0;1753873618.412458;14.716852;0.96;-1.67;-0.26;-0.938615;-0.384776;0.02634;0.0;0.0;101.1;0.0;0.0;6.5
2.0;1753873618.417067;14.819935;1.03;-1.55;-0.27;-0.938897;-0.386055;0.026508;0.0;0.0;96.7;0.0;0.0;7.7
2.0;1753873618.421676;14.829321;1.02;-1.56;-0.32;-0.938255;-0.386496;0.027093;0.0;0.0;94.4;0.0;0.0;6.7
2.0;1753873618.426285;14.741786;0.98;-1.62;-0.31;-0.940048;-0.38603;0.027302;0.0;0.0;97.8;0.0;0.0;7.1
2.0;1753873618.430894;14.719768;0.96;-1.61;-0.26;-0.939594;-0.390135;0.025947;0.0;0.0;99.4;0.0;0.0;6.7
2.0;1753873618.435504;14.746704;0.99;-1.56;-0.25;-0.938144;-0.387216;0.026832;0.0;0.0;100.4;0.0;0.0;7.0
2.0;1753873618.441;14.769531;0.98;-1.61;-0.28;-0.939156;-0.386496;0.025864;0.0;0.0;98.0;0.0;0.0;7.0
2.0;1753873618.445609;14.772717;0.99;-1.67;-0.33;-0.939254;-0.386981;0.026255;0.0;0.0;97.8;0.0;0.0;6.4
2.0;1753873618.450218;14.806429;1.01;-1.57;-0.27;-0.938403;-0.384232;0.025999;0.0;0.0;101.1;0.0;0.0;6.7
2.0;1753873618.454827;14.760079;0.95;-1.54;-0.35;-0.939335;-0.385521;0.026055;0.0;0.0;100.3;0.0;0.0;6.4
2.0;1753873618.459436;14.760554;0.97;-1.64;-0.24;-0.939721;-0.386029;0.026518;0.0;0.0;91.6;0.0;0.0;6.9
2.0;1753873618.464046;14.767068;0.96;-1.69;-0.42;-0.93951;-0.387245;0.02704;0.0;0.0;96.9;0.0;0.0;7.6
2.0;1753873618.468655;14.790411;1.06;-1.63;-0.32;-0.939505;-0.386923;0.024941;0.0;0.0;99.0;0.0;0.0;7.5
2.0;1753873618.473264;14.75368;0.9;-1.69;-0.24;-0.938516;-0.384005;0.025853;0.0;0.0;100.2;0.0;0.0;6.9
2.0;1753873618.477873;14.749588;0.93;-1.63;-0.15;-0.940071;-0.386014;0.026069;0.0;0.0;98.2;0.0;0.0;7.2
2.0;1753873618.482482;14.795517;0.93;-1.62;-0.25;-0.938909;-0.387712;0.0259;0.0;0.0;101.1;0.0;0.0;7.5
2.0;1753873618.487091;14.785843;0.94;-1.69;-0.27;-0.940663;-0.386184;0.026327;0.0;0.0;95.3;0.0;0.0;7.1
2.0;1753873618.4917;14.723726;0.9;-1.64;-0.35;-0.939597;-0.385888;0.025201;0.0;0.0;97.4;0.0;0.0;7.4
2.0;1753873618.496309;14.779693;0.85;-1.62;-0.15;-0.939614;-0.387636;0.02434;0.0;0.0;97.9;0.0;0.0;7.6
2.0;1753873618.500918;14.732974;0.98;-1.61;-0.31;-0.938358;-0.385321;0.025323;0.0;0.0;96.8;0.0;0.0;7.4
2.0;1753873618.505528;14.760868;0.94;-1.61;-0.35;-0.9394;-0.387309;0.026689;0.0;0.0;99.1;0.0;0.0;7.3
2.0;1753873618.510136;14.758254;1.0;-1.73;-0.32;-0.939577;-0.386836;0.024375;0.0;0.0;96.4;0.0;0.0;6.8
2.0;1753873618.514746;14.775048;1.0;-1.65;-0.25;-0.938455;-0.387617;0.02664;0.0;0.0;94.5;0.0;0.0;7.7
2.0;1753873618.519355;14.750875;1.09;-1.69;-0.3;-0.939002;-0.387465;0.026542;0.0;0.0;97.4;0.0;0.0;8.7
2.0;1753873618.523964;14.797958;1.12;-1.67;-0.24;-0.939985;-0.387111;0.026637;0.0;0.0;97.9;0.0;0.0;7.3
2.0;1753873618.528573;14.754888;1.07;-1.69;-0.3;-0.939232;-0.387819;0.025709;0.0;0.0;96.0;0.0;0.0;7.9
2.0;1753873618.533182;14.755188;1.08;-1.57;-0.25;-0.939036;-0.387357;0.026541;0.0;0.0;95.9;0.0;0.0;7.8
2.0;1753873618.537791;14.765433;0.92;-1.62;-0.29;-0.940255;-0.387223;0.025519;0.0;0.0;98.1;0.0;0.0;7.8
2.0;1753873618.5424;14.779261;0.94;-1.72;-0.35;-0.939072;-0.384194;0.025863;0.0;0.0;92.4;0.0;0.0;6.3
2.0;1753873618.54701;14.738265;0.96;-1.66;-0.29;-0.939185;-0.387514;0.026135;0.0;0.0;96.9;0.0;0.0;7.3
2.0;1753873618.551618;14.764055;1.08;-1.63;-0.33;-0.939467;-0.387383;0.026991;0.0;0.0;95.0;0.0;0.0;7.7
2.0;1753873618.556228;14.731621;1.0;-1.66;-0.43;-0.939774;-0.386424;0.026592;0.0;0.0;94.1;0.0;0.0;8.2
2.0;1753873618.560837;14.749032;0.93;-1.61;-0.35;-0.93809;-0.387027;0.024833;0.0;0.0;91.4;0.0;0.0;7.4
2.0;1753873618.565446;14.743223;1.0;-1.63;-0.22;-0.939459;-0.389377;0.024893;0.0;0.0;95.8;0.0;0.0;7.1
2.0;1753873618.570055;14.768119;0.96;-1.66;-0.36;-0.939953;-0.386545;0.027255;0.0;0.0;95.6;0.0;0.0;8.1
2.0;1753873618.574664;14.771415;0.97;-1.69;-0.42;-0.939009;-0.387242;0.025582;0.0;0.0;95.6;0.0;0.0;7.5
2.0;1753873618.579273;14.761628;1.04;-1.65;-0.32;-0.939165;-0.386541;0.026393;0.0;0.0;96.8;0.0;0.0;6.8
2.0;1753873618.583882;14.756501;0.98;-1.63;-0.44;-0.939992;-0.384151;0.024773;0.0;0.0;95.3;0.0;0.0;7.2
2.0;1753873618.588492;14.70725;0.97;-1.72;-0.27;-0.939281;-0.388067;0.025809;0.0;0.0;93.3;0.0;0.0;8.3
2.0;1753873618.5931;14.737611;1.02;-1.66;-0.33;-0.939597;-0.386226;0.025222;0.0;0.0;96.2;0.0;0.0;7.4
2.0;1753873618.59771;14.733808;1.02;-1.71;-0.31;-0.940287;-0.387664;0.025917;0.0;0.0;95.9;0.0;0.0;8.1
2.0;1753873618.602319;14.734763;0.99;-1.64;-0.32;-0.938653;-0.387993;0.025317;0.0;0.0;93.9;0.0;0.0;7.4
2.0;1753873618.606928;14.757322;0.98;-1.65;-0.25;-0.939987;-0.386155;0.025711;0.0;0.0;93.4;0.0;0.0;7.5
2.0;1753873618.611537;14.758355;1.06;-1.68;-0.28;-0.939768;-0.385036;0.023712;0.0;0.0;98.8;0.0;0.0;7.6
2.0;1753873618.616146;14.76405;0.94;-1.7;-0.29;-0.940045;-0.389176;0.026455;0.0;0.0;96.6;0.0;0.0;7.1
2.0;1753873618.620755;14.749397;0.84;-1.75;-0.32;-0.938511;-0.386302;0.024635;0.0;0.0;93.4;0.0;0.0;7.6
2.0;1753873618.625364;14.745672;0.96;-1.69;-0.24;-0.939425;-0.38556;0.024942;0.0;0.0;97.4;0.0;0.0;8.5
2.0;1753873618.629974;14.771512;0.95;-1.65;-0.34;-0.940623;-0.386923;0.026134;0.0;0.0;94.9;0.0;0.0;7.1
2.0;1753873618.634582;14.747443;0.94;-1.7;-0.35;-0.939699;-0.386903;0.025919;0.0;0.0;95.2;0.0;0.0;7.7
2.0;1753873618.639192;14.789306;1.11;-1.66;-0.47;-0.93858;-0.387158;0.025853;0.0;0.0;93.8;0.0;0.0;7.7
2.0;1753873618.643801;14.731593;0.98;-1.79;-0.26;-0.940585;-0.386323;0.02566;0.0;0.0;98.3;0.0;0.0;7.9
2.0;1753873618.64841;14.731109;0.95;-1.59;-0.31;-0.939528;-0.387665;0.025264;0.0;0.0;95.1;0.0;0.0;7.1
2.0;1753873618.653019;14.772832;0.96;-1.67;-0.48;-0.939792;-0.387859;0.026077;0.0;0.0;95.0;0.0;0.0;7.4
2.0;1753873618.657628;14.754596;0.97;-1.74;-0.31;-0.93861;-0.38752;0.024283;0.0;0.0;93.7;0.0;0.0;7.4
2.0;1753873618.662237;14.758166;1.02;-1.67;-0.27;-0.939997;-0.3881;0.025938;0.0;0.0;94.3;0.0;0.0;7.7
2.0;1753873618.666846;14.755723;1.02;-1.64;-0.35;-0.939061;-0.387708;0.02471;0.0;0.0;93.9;0.0;0.0;8.1
2.0;1753873618.671456;14.747673;0.99;-1.69;-0.29;-0.939215;-0.386463;0.02508;0.0;0.0;92.0;0.0;0.0;7.9
2.0;1753873618.676064;14.762039;0.95;-1.65;-0.3;-0.939633;-0.386198;0.025734;0.0;0.0;94.6;0.0;0.0;7.4
2.0;1753873618.680674;14.757313;0.98;-1.67;-0.39;-0.9393;-0.387942;0.026198;0.0;0.0;95.4;0.0;0.0;7.5
2.0;1753873618.685283;14.748783;0.98;-1.64;-0.37;-0.939072;-0.385323;0.0246;0.0;0.0;96.1;0.0;0.0;7.5
2.0;1753873618.689892;14.701755;0.86;-1.59;-0.42;-0.940035;-0.386423;0.025291;0.0;0.0;89.7;0.0;0.0;8.2
2.0;1753873618.694501;14.729137;0.96;-1.58;-0.38;-0.939881;-0.388549;0.027032;0.0;0.0;99.3;0.0;0.0;7.9
2.0;1753873618.69911;14.762723;0.92;-1.72;-0.31;-0.939698;-0.386702;0.025669;0.0;0.0;92.0;0.0;0.0;7.7
2.0;1753873618.703719;14.774605;1.06;-1.7;-0.37;-0.938115;-0.389178;0.026815;0.0;0.0;93.1;0.0;0.0;7.4
2.0;1753873618.712;14.742188;0.98;-1.68;-0.35;-0.9394;-0.387472;0.025498;0.0;0.0;94.0;0.0;0.0;8.0
2.0;1753873618.716609;14.715053;0.95;-1.67;-0.36;-0.936691;-0.388098;0.026845;0.0;0.0;92.5;0.0;0.0;7.1
2.0;1753873618.721218;14.716331;0.99;-1.66;-0.36;-0.938987;-0.38814;0.026086;0.0;0.0;92.7;0.0;0.0;7.8
2.0;1753873618.725827;14.765756;0.95;-1.66;-0.36;-0.938386;-0.39019;0.026028;0.0;0.0;89.9;0.0;0.0;6.6
2.0;1753873618.730436;14.746563;1.07;-1.66;-0.34;-0.938622;-0.385659;0.025265;0.0;0.0;91.9;0.0;0.0;8.2
2.0;1753873618.735046;14.688696;1.23;-1.67;-0.43;-0.938004;-0.384127;0.026953;0.0;0.0;94.5;0.0;0.0;5.9
2.0;1753873618.739654;14.699743;1.02;-1.7;-0.35;-0.939724;-0.38843;0.026954;0.0;0.0;91.8;0.0;0.0;7.1
2.0;1753873618.744264;14.754805;0.98;-1.72;-0.34;-0.940211;-0.387239;0.025801;0.0;0.0;88.6;0.0;0.0;5.5
2.0;1753873618.75154;14.71875;1.05;-1.68;-0.35;-0.939034;-0.387106;0.026474;0.0;0.0;93.0;0.0;0.0;6.0
2.0;1753873618.756149;14.714776;0.99;-1.67;-0.32;-0.938282;-0.384258;0.027142;0.0;0.0;94.1;0.0;0.0;4.8
2.0;1753873618.760758;14.727311;1.1;-1.74;-0.29;-0.9396;-0.388196;0.026104;0.0;0.0;91.9;0.0;0.0;6.3
2.0;1753873618.765367;14.693597;0.91;-1.65;-0.3;-0.939943;-0.385842;0.026214;0.0;0.0;94.1;0.0;0.0;7.0
2.0;1753873618.769976;14.70145;1.08;-1.68;-0.35;-0.938114;-0.386951;0.02623;0.0;0.0;94.4;0.0;0.0;7.2
2.0;1753873618.774586;14.70607;0.94;-1.54;-0.3;-0.941065;-0.386438;0.0249;0.0;0.0;93.0;0.0;0.0;5.9
2.0;1753873618.779194;14.771623;0.96;-1.69;-0.38;-0.939318;-0.38657;0.027269;0.0;0.0;93.4;0.0;0.0;6.4
2.0;1753873618.783804;14.756769;0.83;-1.64;-0.23;-0.940442;-0.384999;0.026773;0.0;0.0;95.7;0.0;0.0;4.8
2.0;1753873618.788413;14.681096;0.94;-1.63;-0.28;-0.939974;-0.384421;0.02493;0.0;0.0;91.4;0.0;0.0;6.1
2.0;1753873618.793022;14.746778;0.89;-1.69;-0.25;-0.9391;-0.385846;0.02515;0.0;0.0;92.0;0.0;0.0;5.6
2.0;1753873618.797631;14.797115;0.73;-1.53;-0.26;-0.939027;-0.385709;0.026241;0.0;0.0;92.2;0.0;0.0;6.9
2.0;1753873618.80312;14.71875;0.84;-1.61;-0.28;-0.940376;-0.385276;0.025742;0.0;0.0;93.0;0.0;0.0;6.0
2.0;1753873618.807729;14.692853;0.79;-1.72;-0.3;-0.94109;-0.385152;0.027175;0.0;0.0;93.7;0.0;0.0;5.2
2.0;1753873618.812338;14.707451;0.95;-1.6;-0.31;-0.938128;-0.386761;0.026493;0.0;0.0;93.0;0.0;0.0;5.6
2.0;1753873618.816947;14.730342;0.87;-1.73;-0.26;-0.938707;-0.385052;0.025127;0.0;0.0;88.9;0.0;0.0;7.5
2.0;1753873618.821556;14.731603;0.84;-1.66;-0.37;-0.939764;-0.38499;0.026422;0.0;0.0;93.3;0.0;0.0;3.1
2.0;1753873618.826166;14.725988;0.91;-1.73;-0.35;-0.940428;-0.382506;0.02579;0.0;0.0;91.9;0.0;0.0;5.2
2.0;1753873618.830774;14.7026;0.74;-1.65;-0.35;-0.940147;-0.38369;0.027095;0.0;0.0;93.8;0.0;0.0;5.7
2.0;1753873618.835384;14.7388;0.91;-1.73;-0.28;-0.938332;-0.38291;0.02633;0.0;0.0;94.5;0.0;0.0;6.1
2.0;1753873618.839993;14.744181;0.74;-1.61;-0.26;-0.939572;-0.385809;0.025297;0.0;0.0;89.9;0.0;0.0;6.8
2.0;1753873618.84553;14.71875;0.84;-1.68;-0.35;-0.939156;-0.385032;0.026596;0.0;0.0;93.0;0.0;0.0;6.0
2.0;1753873618.850139;14.732258;0.91;-1.67;-0.42;-0.937944;-0.386149;0.027349;0.0;0.0;92.6;0.0;0.0;6.5
2.0;1753873618.854748;14.729257;0.89;-1.69;-0.3;-0.937865;-0.38597;0.027254;0.0;0.0;91.3;0.0;0.0;4.9
2.0;1753873618.859357;14.750733;0.83;-1.67;-0.32;-0.939397;-0.386633;0.025814;0.0;0.0;91.8;0.0;0.0;6.3
2.0;1753873618.863966;14.739736;0.87;-1.7;-0.29;-0.942452;-0.385534;0.026821;0.0;0.0;93.7;0.0;0.0;6.4
2.0;1753873618.868576;14.735548;0.91;-1.7;-0.29;-0.938939;-0.385519;0.02558;0.0;0.0;93.2;0.0;0.0;6.5
2.0;1753873618.873185;14.698767;1.0;-1.66;-0.33;-0.939658;-0.384902;0.026184;0.0;0.0;92.6;0.0;0.0;6.7
2.0;1753873618.877794;14.73442;0.94;-1.72;-0.29;-0.940903;-0.389247;0.026231;0.0;0.0;95.8;0.0;0.0;3.9
2.0;1753873618.882403;14.735373;0.92;-1.64;-0.2;-0.937925;-0.384252;0.027298;0.0;0.0;92.0;0.0;0.0;6.4
2.0;1753873618.8885;14.71875;0.98;-1.68;-0.28;-0.940376;-0.386984;0.026474;0.0;0.0;93.0;0.0;0.0;6.0
2.0;1753873618.893109;14.730254;0.96;-1.74;-0.32;-0.93939;-0.388847;0.027021;0.0;0.0;91.2;0.0;0.0;5.5
2.0;1753873618.897718;14.75071;0.91;-1.68;-0.27;-0.93984;-0.383999;0.026216;0.0;0.0;91.9;0.0;0.0;7.5
2.0;1753873618.902327;14.742982;0.91;-1.71;-0.22;-0.940454;-0.385379;0.025867;0.0;0.0;92.7;0.0;0.0;7.8
2.0;1753873618.906936;14.7063;0.97;-1.72;-0.26;-0.942233;-0.387241;0.026435;0.0;0.0;92.7;0.0;0.0;6.7
2.0;1753873618.911546;14.740459;0.95;-1.75;-0.3;-0.942026;-0.387051;0.027434;0.0;0.0;92.9;0.0;0.0;7.7
2.0;1753873618.916154;14.705054;1.07;-1.64;-0.29;-0.94063;-0.388581;0.026225;0.0;0.0;93.7;0.0;0.0;6.2
2.0;1753873618.920764;14.765648;1.08;-1.7;-0.24;-0.939918;-0.386343;0.026149;0.0;0.0;91.3;0.0;0.0;5.6
2.0;1753873618.925373;14.714066;0.98;-1.72;-0.28;-0.941238;-0.389621;0.027345;0.0;0.0;93.5;0.0;0.0;6.8
2.0;1753873618.929982;14.735097;0.76;-1.63;-0.27;-0.940926;-0.384856;0.02717;0.0;0.0;92.8;0.0;0.0;5.6
2.0;1753873618.934591;14.724219;0.92;-1.77;-0.32;-0.940609;-0.383766;0.025263;0.0;0.0;91.5;0.0;0.0;7.4
2.0;1753873618.9392;14.73882;1.05;-1.74;-0.24;-0.940839;-0.385976;0.026399;0.0;0.0;94.5;0.0;0.0;5.3
2.0;1753873618.943809;14.728528;0.96;-1.74;-0.3;-0.941507;-0.385362;0.025384;0.0;0.0;93.5;0.0;0.0;6.2
2.0;1753873618.948418;14.760259;0.92;-1.72;-0.31;-0.939436;-0.385684;0.025574;0.0;0.0;92.3;0.0;0.0;4.4
2.0;1753873618.953028;14.733523;0.87;-1.67;-0.21;-0.941827;-0.387569;0.026693;0.0;0.0;91.6;0.0;0.0;6.7
2.0;1753873618.957636;14.751835;0.85;-1.68;-0.26;-0.941005;-0.384301;0.02684;0.0;0.0;94.2;0.0;0.0;6.8
2.0;1753873618.962246;14.712447;0.91;-1.68;-0.2;-0.939101;-0.386754;0.025803;0.0;0.0;93.4;0.0;0.0;6.4
2.0;1753873618.966855;14.780436;0.84;-1.62;-0.29;-0.943034;-0.384569;0.025883;0.0;0.0;93.4;0.0;0.0;5.6
2.0;1753873618.971464;14.756312;0.92;-1.69;-0.28;-0.941935;-0.389066;0.027645;0.0;0.0;92.6;0.0;0.0;6.1
2.0;1753873618.97754;14.742188;0.91;-1.68;-0.28;-0.940986;-0.385276;0.026108;0.0;0.0;93.0;0.0;0.0;6.0
2.0;1753873618.97967;14.742188;0.91;-1.61;-0.35;-0.939156;-0.384544;0.024888;0.0;0.0;93.0;0.0;0.0;6.0
2.0;1753873618.98068;14.695312;0.91;-1.61;-0.35;-0.939644;-0.385642;0.026352;0.0;0.0;88.0;0.0;0.0;7.0
2.0;1753873618.985323;14.695312;0.98;-1.75;-0.35;-0.94001;-0.385886;0.02684;0.0;0.0;88.0;0.0;0.0;7.0
2.0;1753873618.992836;14.703125;0.98;-1.75;-0.28;-0.941718;-0.385032;0.025254;0.0;0.0;97.0;0.0;0.0;9.0
2.0;1753873618.994403;14.703125;0.91;-1.68;-0.35;-0.938424;-0.386862;0.026474;0.0;0.0;97.0;0.0;0.0;9.0
2.0;1753873618.999025;14.703125;0.91;-1.61;-0.28;-0.940376;-0.384422;0.025254;0.0;0.0;97.0;0.0;0.0;9.0
2.0;1753873619.003634;14.703171;0.95;-1.65;-0.21;-0.940273;-0.385742;0.024883;0.0;0.0;97.7;0.0;0.0;9.7
2.0;1753873619.008243;14.722145;0.86;-1.66;-0.33;-0.939597;-0.384082;0.025519;0.0;0.0;95.8;0.0;0.0;9.0
2.0;1753873619.012852;14.72936;0.89;-1.68;-0.27;-0.942369;-0.384742;0.026766;0.0;0.0;93.1;0.0;0.0;8.8
2.0;1753873619.017462;14.706996;0.91;-1.57;-0.31;-0.939916;-0.383744;0.025148;0.0;0.0;94.2;0.0;0.0;9.4
2.0;1753873619.022071;14.706596;0.97;-1.65;-0.19;-0.940611;-0.385626;0.026253;0.0;0.0;102.0;0.0;0.0;8.2
2.0;1753873619.02668;14.697654;0.92;-1.66;-0.29;-0.941123;-0.385636;0.025255;0.0;0.0;95.9;0.0;0.0;9.6
2.0;1753873619.031289;14.696199;1.01;-1.61;-0.3;-0.939751;-0.384477;0.024669;0.0;0.0;89.9;0.0;0.0;9.7
2.0;1753873619.035898;14.68211;0.9;-1.61;-0.32;-0.940037;-0.385403;0.025646;0.0;0.0;99.7;0.0;0.0;8.5
2.0;1753873619.040507;14.705755;0.91;-1.56;-0.32;-0.940536;-0.385372;0.025833;0.0;0.0;95.9;0.0;0.0;9.2
2.0;1753873619.045116;14.739655;0.86;-1.64;-0.38;-0.939439;-0.385478;0.024431;0.0;0.0;101.4;0.0;0.0;9.1
2.0;1753873619.049725;14.704587;0.85;-1.65;-0.31;-0.941157;-0.384931;0.024697;0.0;0.0;100.9;0.0;0.0;9.1
2.0;1753873619.054334;14.736435;0.94;-1.57;-0.39;-0.941036;-0.381618;0.026343;0.0;0.0;100.4;0.0;0.0;9.1
2.0;1753873619.058944;14.706607;0.94;-1.65;-0.21;-0.94102;-0.386836;0.025859;0.0;0.0;96.3;0.0;0.0;8.0
2.0;1753873619.063552;14.682709;0.92;-1.55;-0.34;-0.940585;-0.384192;0.025995;0.0;0.0;95.0;0.0;0.0;8.2
2.0;1753873619.068162;14.703155;0.82;-1.6;-0.24;-0.94001;-0.385408;0.025221;0.0;0.0;97.1;0.0;0.0;8.9
2.0;1753873619.072771;14.715029;0.91;-1.63;-0.3;-0.940846;-0.386886;0.023722;0.0;0.0;91.4;0.0;0.0;8.8
2.0;1753873619.07738;14.690751;0.9;-1.79;-0.32;-0.940214;-0.381665;0.027285;0.0;0.0;98.0;0.0;0.0;8.3
2.0;1753873619.081989;14.695717;0.99;-1.61;-0.24;-0.940624;-0.384638;0.026756;0.0;0.0;98.4;0.0;0.0;8.9
2.0;1753873619.086598;14.708496;1.0;-1.58;-0.26;-0.941089;-0.384642;0.02698;0.0;0.0;92.1;0.0;0.0;10.4
2.0;1753873619.091207;14.711414;0.91;-1.69;-0.25;-0.939368;-0.383206;0.025202;0.0;0.0;98.3;0.0;0.0;8.2
2.0;1753873619.095816;14.702648;0.99;-1.59;-0.29;-0.93871;-0.387318;0.025199;0.0;0.0;91.3;0.0;0.0;9.7
2.0;1753873619.100426;14.701242;0.96;-1.62;-0.28;-0.940521;-0.385697;0.025475;0.0;0.0;100.4;0.0;0.0;10.5
2.0;1753873619.105034;14.723723;0.94;-1.68;-0.29;-0.940095;-0.38579;0.024907;0.0;0.0;94.6;0.0;0.0;9.7
2.0;1753873619.109644;14.697401;1.0;-1.67;-0.33;-0.938729;-0.386109;0.026588;0.0;0.0;88.6;0.0;0.0;9.8
2.0;1753873619.114253;14.706044;1.03;-1.64;-0.18;-0.939096;-0.38724;0.026121;0.0;0.0;98.0;0.0;0.0;8.6
2.0;1753873619.118862;14.714459;1.04;-1.62;-0.24;-0.939524;-0.383886;0.025285;0.0;0.0;97.0;0.0;0.0;8.7
2.0;1753873619.123471;14.708189;0.94;-1.69;-0.36;-0.938788;-0.386677;0.027117;0.0;0.0;95.3;0.0;0.0;9.1
2.0;1753873619.12808;14.696065;0.97;-1.73;-0.27;-0.939097;-0.38367;0.026271;0.0;0.0;88.8;0.0;0.0;10.4
2.0;1753873619.132689;14.684876;0.93;-1.7;-0.25;-0.938962;-0.383796;0.025152;0.0;0.0;98.4;0.0;0.0;7.9
2.0;1753873619.137298;14.702471;1.03;-1.7;-0.26;-0.938634;-0.385794;0.024064;0.0;0.0;101.2;0.0;0.0;10.5
2.0;1753873619.141908;14.707611;0.9;-1.65;-0.31;-0.939765;-0.384937;0.025539;0.0;0.0;95.8;0.0;0.0;10.8
2.0;1753873619.146516;14.690506;0.87;-1.7;-0.28;-0.940546;-0.385214;0.02542;0.0;0.0;93.7;0.0;0.0;9.1
2.0;1753873619.151126;14.701737;0.99;-1.61;-0.29;-0.940474;-0.38723;0.025636;0.0;0.0;95.0;0.0;0.0;9.7
2.0;1753873619.155735;14.714801;1.01;-1.58;-0.35;-0.940351;-0.385733;0.027521;0.0;0.0;94.3;0.0;0.0;9.1
2.0;1753873619.160344;14.660662;0.9;-1.7;-0.27;-0.938872;-0.384695;0.025729;0.0;0.0;97.5;0.0;0.0;9.0
2.0;1753873619.164953;14.684348;0.94;-1.65;-0.24;-0.938926;-0.385677;0.025502;0.0;0.0;97.1;0.0;0.0;10.3
2.0;1753873619.169562;14.729466;0.85;-1.62;-0.2;-0.940378;-0.38673;0.027032;0.0;0.0;94.2;0.0;0.0;8.8
2.0;1753873619.174171;14.69351;0.91;-1.76;-0.37;-0.938166;-0.384752;0.025279;0.0;0.0;94.7;0.0;0.0;8.8
2.0;1753873619.17878;14.722463;0.88;-1.61;-0.25;-0.939918;-0.384098;0.026034;0.0;0.0;101.3;0.0;0.0;7.5
2.0;1753873619.18339;14.683763;0.84;-1.64;-0.24;-0.939305;-0.38596;0.024845;0.0;0.0;92.2;0.0;0.0;9.8
2.0;1753873619.187998;14.690207;0.86;-1.68;-0.36;-0.939619;-0.384645;0.026201;0.0;0.0;90.7;0.0;0.0;8.5
2.0;1753873619.192608;14.69867;0.94;-1.75;-0.3;-0.938422;-0.386955;0.024593;0.0;0.0;91.7;0.0;0.0;9.3
2.0;1753873619.197217;14.687235;0.91;-1.66;-0.31;-0.938638;-0.385304;0.027158;0.0;0.0;95.7;0.0;0.0;9.4
2.0;1753873619.201826;14.70305;0.92;-1.71;-0.27;-0.941106;-0.384326;0.026112;0.0;0.0;101.1;0.0;0.0;8.0
2.0;1753873619.206435;14.722323;0.95;-1.64;-0.27;-0.938907;-0.387009;0.024912;0.0;0.0;95.0;0.0;0.0;8.2
2.0;1753873619.211044;14.722533;0.98;-1.67;-0.2;-0.940531;-0.386234;0.026501;0.0;0.0;101.4;0.0;0.0;9.5
2.0;1753873619.215653;14.718061;0.94;-1.71;-0.23;-0.93955;-0.384771;0.025654;0.0;0.0;99.1;0.0;0.0;9.3
2.0;1753873619.220262;14.708709;0.95;-1.73;-0.23;-0.938271;-0.387494;0.02496;0.0;0.0;99.8;0.0;0.0;8.6
2.0;1753873619.224872;14.706564;0.95;-1.67;-0.27;-0.937995;-0.386016;0.02617;0.0;0.0;102.2;0.0;0.0;8.5
2.0;1753873619.22948;14.717461;0.97;-1.68;-0.27;-0.939731;-0.384817;0.026716;0.0;0.0;97.1;0.0;0.0;6.9
2.0;1753873619.23409;14.685063;0.93;-1.68;-0.22;-0.938467;-0.386845;0.026665;0.0;0.0;101.3;0.0;0.0;8.3
2.0;1753873619.238699;14.706529;0.99;-1.68;-0.34;-0.94001;-0.384791;0.025862;0.0;0.0;102.3;0.0;0.0;9.0
2.0;1753873619.243308;14.708443;0.97;-1.78;-0.33;-0.941428;-0.385776;0.026475;0.0;0.0;95.5;0.0;0.0;9.1
2.0;1753873619.247917;14.679555;0.98;-1.66;-0.35;-0.939838;-0.386832;0.026703;0.0;0.0;91.6;0.0;0.0;10.5
2.0;1753873619.252526;14.718073;1.04;-1.63;-0.19;-0.938572;-0.386275;0.025156;0.0;0.0;100.4;0.0;0.0;9.7
2.0;1753873619.257135;14.711435;0.94;-1.79;-0.27;-0.937353;-0.387728;0.026441;0.0;0.0;98.4;0.0;0.0;7.4
2.0;1753873619.261744;14.694327;0.91;-1.56;-0.3;-0.939396;-0.38563;0.025081;0.0;0.0;96.1;0.0;0.0;7.9
2.0;1753873619.266353;14.696145;0.99;-1.66;-0.19;-0.939637;-0.385282;0.026645;0.0;0.0;97.8;0.0;0.0;9.2
2.0;1753873619.270962;14.71751;0.98;-1.79;-0.29;-0.939601;-0.384118;0.02711;0.0;0.0;97.3;0.0;0.0;9.5
2.0;1753873619.275572;14.691043;0.94;-1.69;-0.37;-0.938649;-0.386347;0.025485;0.0;0.0;96.5;0.0;0.0;8.8
2.0;1753873619.280181;14.715277;0.92;-1.72;-0.31;-0.940078;-0.384286;0.027589;0.0;0.0;100.9;0.0;0.0;9.4
2.0;1753873619.28479;14.733561;1.02;-1.68;-0.26;-0.938873;-0.384048;0.024402;0.0;0.0;94.2;0.0;0.0;8.7
2.0;1753873619.289399;14.705673;0.93;-1.66;-0.3;-0.937616;-0.385306;0.027107;0.0;0.0;100.1;0.0;0.0;8.8
2.0;1753873619.294008;14.690279;1.03;-1.74;-0.25;-0.938873;-0.387033;0.025989;0.0;0.0;102.6;0.0;0.0;9.9
2.0;1753873619.298617;14.704205;0.97;-1.76;-0.31;-0.940328;-0.387781;0.024972;0.0;0.0;102.4;0.0;0.0;10.1
2.0;1753873619.303226;14.697388;0.98;-1.67;-0.3;-0.938607;-0.390168;0.024869;0.0;0.0;96.5;0.0;0.0;9.1
2.0;1753873619.307835;14.707271;0.98;-1.81;-0.24;-0.938643;-0.386695;0.025161;0.0;0.0;95.0;0.0;0.0;9.6
2.0;1753873619.312444;14.695433;0.95;-1.72;-0.2;-0.939529;-0.38621;0.025592;0.0;0.0;98.3;0.0;0.0;9.7
2.0;1753873619.317054;14.655615;0.86;-1.67;-0.31;-0.938795;-0.386241;0.026593;0.0;0.0;98.1;0.0;0.0;8.5
2.0;1753873619.321663;14.663882;0.98;-1.62;-0.26;-0.939528;-0.386669;0.02682;0.0;0.0;102.3;0.0;0.0;9.3
2.0;1753873619.326272;14.721535;1.04;-1.69;-0.25;-0.938963;-0.386598;0.026757;0.0;0.0;100.9;0.0;0.0;9.0
2.0;1753873619.330881;14.691256;0.93;-1.79;-0.29;-0.939679;-0.386681;0.026104;0.0;0.0;93.7;0.0;0.0;9.7
2.0;1753873619.33549;14.723553;1.01;-1.74;-0.26;-0.938162;-0.385812;0.02676;0.0;0.0;102.1;0.0;0.0;10.5
2.0;1753873619.340099;14.693477;1.05;-1.73;-0.37;-0.939888;-0.385327;0.028316;0.0;0.0;90.6;0.0;0.0;8.5
2.0;1753873619.344708;14.709836;1.04;-1.75;-0.29;-0.938144;-0.38552;0.026893;0.0;0.0;96.4;0.0;0.0;8.7
2.0;1753873619.349317;14.726492;0.93;-1.76;-0.23;-0.939123;-0.384584;0.026596;0.0;0.0;97.1;0.0;0.0;8.5
2.0;1753873619.353926;14.69081;1.08;-1.78;-0.31;-0.939527;-0.38672;0.025394;0.0;0.0;94.2;0.0;0.0;8.6
2.0;1753873619.358536;14.676281;0.96;-1.75;-0.29;-0.939134;-0.384959;0.025178;0.0;0.0;93.6;0.0;0.0;8.8
2.0;1753873619.363145;14.70824;0.96;-1.76;-0.28;-0.939495;-0.385802;0.026619;0.0;0.0;102.6;0.0;0.0;8.6
2.0;1753873619.367754;14.688249;1.0;-1.86;-0.19;-0.940335;-0.386501;0.024523;0.0;0.0;100.8;0.0;0.0;9.3
2.0;1753873619.372363;14.717957;0.99;-1.84;-0.35;-0.939611;-0.385024;0.025963;0.0;0.0;95.2;0.0;0.0;8.6
2.0;1753873619.376972;14.707435;1.03;-1.75;-0.21;-0.94007;-0.387563;0.027275;0.0;0.0;88.9;0.0;0.0;9.4
2.0;1753873619.3832;14.703125;0.98;-1.75;-0.28;-0.939034;-0.38674;0.026474;0.0;0.0;97.0;0.0;0.0;9.0
2.0;1753873619.387809;14.709243;0.9;-1.83;-0.24;-0.939198;-0.385362;0.027131;0.0;0.0;100.1;0.0;0.0;8.6
2.0;1753873619.392418;14.707819;1.02;-1.73;-0.3;-0.940036;-0.388038;0.027191;0.0;0.0;97.1;0.0;0.0;7.0
2.0;1753873619.397027;14.704152;0.95;-1.69;-0.28;-0.93904;-0.388306;0.027038;0.0;0.0;93.0;0.0;0.0;9.2
2.0;1753873619.401636;14.686495;1.07;-1.67;-0.24;-0.939687;-0.385833;0.025405;0.0;0.0;103.7;0.0;0.0;9.3
2.0;1753873619.406246;14.709114;0.95;-1.74;-0.21;-0.940198;-0.386222;0.027286;0.0;0.0;95.4;0.0;0.0;8.2
2.0;1753873619.410854;14.691567;0.96;-1.73;-0.35;-0.938565;-0.385447;0.026184;0.0;0.0;96.1;0.0;0.0;7.7
2.0;1753873619.415464;14.734409;0.9;-1.74;-0.32;-0.938388;-0.385668;0.026244;0.0;0.0;88.8;0.0;0.0;9.5
2.0;1753873619.420073;14.704213;0.95;-1.76;-0.28;-0.938591;-0.387503;0.026012;0.0;0.0;98.8;0.0;0.0;9.4
2.0;1753873619.424682;14.711753;0.96;-1.73;-0.31;-0.939396;-0.386842;0.026361;0.0;0.0;95.5;0.0;0.0;7.8
2.0;1753873619.429291;14.691379;1.02;-1.66;-0.23;-0.939729;-0.385967;0.026694;0.0;0.0;100.9;0.0;0.0;9.6
2.0;1753873619.4339;14.713186;1.02;-1.79;-0.29;-0.938509;-0.385965;0.027291;0.0;0.0;89.5;0.0;0.0;9.8
2.0;1753873619.438509;14.683585;1.09;-1.77;-0.26;-0.940158;-0.387316;0.02798;0.0;0.0;96.8;0.0;0.0;8.2
2.0;1753873619.443118;14.707926;1.01;-1.75;-0.32;-0.939199;-0.383648;0.026282;0.0;0.0;90.9;0.0;0.0;11.9
2.0;1753873619.447728;14.72458;0.95;-1.78;-0.38;-0.938458;-0.386098;0.027701;0.0;0.0;99.2;0.0;0.0;9.9
2.0;1753873619.452336;14.69284;0.98;-1.76;-0.26;-0.937193;-0.388333;0.025662;0.0;0.0;98.7;0.0;0.0;8.5
2.0;1753873619.456946;14.730992;1.01;-1.75;-0.28;-0.94094;-0.384917;0.026995;0.0;0.0;102.3;0.0;0.0;9.2
2.0;1753873619.461555;14.693975;0.99;-1.8;-0.16;-0.936525;-0.385785;0.027494;0.0;0.0;101.1;0.0;0.0;8.5
2.0;1753873619.466164;14.730692;0.95;-1.71;-0.32;-0.939521;-0.385745;0.02625;0.0;0.0;105.5;0.0;0.0;10.6
2.0;1753873619.470773;14.697829;0.99;-1.71;-0.4;-0.939871;-0.386942;0.027545;0.0;0.0;96.2;0.0;0.0;9.7
2.0;1753873619.475382;14.682166;1.01;-1.68;-0.34;-0.939099;-0.38845;0.025462;0.0;0.0;99.0;0.0;0.0;9.2
2.0;1753873619.479991;14.700431;1.04;-1.66;-0.32;-0.941305;-0.385656;0.026221;0.0;0.0;96.4;0.0;0.0;9.5
2.0;1753873619.4846;14.745681;1.02;-1.76;-0.28;-0.938203;-0.386239;0.02498;0.0;0.0;98.4;0.0;0.0;9.9
2.0;1753873619.48921;14.694761;0.95;-1.76;-0.23;-0.939821;-0.387451;0.025277;0.0;0.0;92.9;0.0;0.0;8.8
2.0;1753873619.493818;14.692932;1.04;-1.72;-0.25;-0.93829;-0.387611;0.026581;0.0;0.0;90.6;0.0;0.0;9.7
2.0;1753873619.498428;14.697489;0.96;-1.73;-0.26;-0.941057;-0.387029;0.02769;0.0;0.0;94.7;0.0;0.0;8.9
2.0;1753873619.503037;14.705511;1.0;-1.67;-0.25;-0.938976;-0.386201;0.027547;0.0;0.0;94.5;0.0;0.0;6.8
2.0;1753873619.507646;14.689448;0.95;-1.7;-0.25;-0.94029;-0.385871;0.025635;0.0;0.0;102.2;0.0;0.0;9.8
2.0;1753873619.512255;14.735909;1.06;-1.79;-0.2;-0.938963;-0.387198;0.025294;0.0;0.0;94.2;0.0;0.0;7.3
2.0;1753873619.516864;14.694482;1.04;-1.78;-0.31;-0.938848;-0.386762;0.025373;0.0;0.0;99.5;0.0;0.0;7.5
2.0;1753873619.521473;14.703501;0.92;-1.74;-0.29;-0.939139;-0.386123;0.027776;0.0;0.0;90.6;0.0;0.0;8.7
2.0;1753873619.526082;14.723303;0.87;-1.73;-0.21;-0.938136;-0.386787;0.02573;0.0;0.0;96.8;0.0;0.0;9.9
2.0;1753873619.530692;14.728449;0.89;-1.72;-0.34;-0.941192;-0.386185;0.025432;0.0;0.0;92.0;0.0;0.0;9.5
2.0;1753873619.5353;14.7269;0.98;-1.76;-0.36;-0.938854;-0.385525;0.026028;0.0;0.0;97.9;0.0;0.0;7.9
2.0;1753873619.53991;14.734382;0.93;-1.63;-0.32;-0.937219;-0.386842;0.024962;0.0;0.0;94.2;0.0;0.0;9.7
2.0;1753873619.544519;14.707732;0.97;-1.62;-0.22;-0.937889;-0.383502;0.025431;0.0;0.0;92.9;0.0;0.0;8.2
2.0;1753873619.549128;14.708989;0.97;-1.74;-0.24;-0.937716;-0.384726;0.026879;0.0;0.0;91.4;0.0;0.0;7.4
2.0;1753873619.553737;14.686483;0.95;-1.77;-0.25;-0.939373;-0.387284;0.025895;0.0;0.0;91.3;0.0;0.0;9.7
2.0;1753873619.558346;14.714286;0.91;-1.69;-0.35;-0.9397;-0.386591;0.027158;0.0;0.0;95.6;0.0;0.0;8.9
2.0;1753873619.562955;14.678623;1.04;-1.68;-0.24;-0.939211;-0.388;0.025909;0.0;0.0;89.7;0.0;0.0;8.8
2.0;1753873619.567564;14.668172;1.06;-1.75;-0.21;-0.937596;-0.385926;0.026355;0.0;0.0;95.9;0.0;0.0;9.9
2.0;1753873619.572173;14.728488;0.9;-1.68;-0.25;-0.938169;-0.386751;0.027601;0.0;0.0;95.8;0.0;0.0;9.9
2.0;1753873619.576782;14.69182;0.93;-1.66;-0.31;-0.938432;-0.385306;0.025364;0.0;0.0;95.1;0.0;0.0;10.5
2.0;1753873619.581392;14.683327;0.95;-1.68;-0.25;-0.940501;-0.382824;0.026031;0.0;0.0;98.2;0.0;0.0;9.0
2.0;1753873619.586001;14.700744;1.0;-1.77;-0.29;-0.937459;-0.386204;0.026573;0.0;0.0;97.6;0.0;0.0;8.0
2.0;1753873619.59061;14.693862;0.99;-1.67;-0.31;-0.94024;-0.384765;0.026746;0.0;0.0;96.6;0.0;0.0;9.7
2.0;1753873619.595219;14.712584;0.93;-1.62;-0.27;-0.938324;-0.385141;0.02781;0.0;0.0;95.3;0.0;0.0;8.1
2.0;1753873619.599828;14.68516;1.02;-1.65;-0.27;-0.939652;-0.387359;0.025836;0.0;0.0;95.0;0.0;0.0;8.5
2.0;1753873619.604437;14.72877;0.92;-1.71;-0.26;-0.938644;-0.385163;0.026359;0.0;0.0;102.6;0.0;0.0;8.6
2.0;1753873619.609046;14.68034;1.0;-1.62;-0.3;-0.938134;-0.383792;0.026167;0.0;0.0;94.8;0.0;0.0;9.9
2.0;1753873619.613655;14.701361;0.98;-1.73;-0.18;-0.941445;-0.384699;0.02815;0.0;0.0;95.7;0.0;0.0;8.2
2.0;1753873619.618264;14.71143;0.96;-1.73;-0.16;-0.93853;-0.38871;0.026761;0.0;0.0;100.3;0.0;0.0;9.8
2.0;1753873619.622874;14.7113;1.11;-1.69;-0.31;-0.938354;-0.386843;0.025866;0.0;0.0;93.6;0.0;0.0;10.3
2.0;1753873619.627483;14.675992;0.99;-1.68;-0.34;-0.93948;-0.384825;0.026329;0.0;0.0;93.6;0.0;0.0;7.9
2.0;1753873619.632092;14.710525;0.98;-1.65;-0.35;-0.939913;-0.38546;0.024925;0.0;0.0;91.4;0.0;0.0;8.7
2.0;1753873619.636701;14.703104;1.01;-1.68;-0.3;-0.939441;-0.384959;0.025647;0.0;0.0;100.4;0.0;0.0;8.5
2.0;1753873619.64131;14.666304;1.0;-1.69;-0.27;-0.94029;-0.383385;0.026;0.0;0.0;99.7;0.0;0.0;10.0
2.0;1753873619.645919;14.70412;0.91;-1.74;-0.28;-0.941285;-0.38665;0.02535;0.0;0.0;97.5;0.0;0.0;7.2
2.0;1753873619.650528;14.689584;0.98;-1.67;-0.3;-0.93967;-0.383373;0.026439;0.0;0.0;92.5;0.0;0.0;8.7
2.0;1753873619.655137;14.704961;0.98;-1.63;-0.31;-0.938856;-0.385637;0.026636;0.0;0.0;97.6;0.0;0.0;8.0
2.0;1753873619.659746;14.706842;1.04;-1.76;-0.27;-0.938683;-0.387884;0.026616;0.0;0.0;98.4;0.0;0.0;8.2
2.0;1753873619.664356;14.69681;0.97;-1.69;-0.28;-0.941288;-0.386468;0.027735;0.0;0.0;100.1;0.0;0.0;10.9
2.0;1753873619.668964;14.707841;1.05;-1.74;-0.28;-0.93867;-0.385457;0.02617;0.0;0.0;94.6;0.0;0.0;9.0
2.0;1753873619.673574;14.685535;0.91;-1.61;-0.21;-0.939315;-0.385538;0.026356;0.0;0.0;96.4;0.0;0.0;8.7
2.0;1753873619.678183;14.700047;1.03;-1.64;-0.26;-0.938429;-0.383029;0.027391;0.0;0.0;91.9;0.0;0.0;7.9
2.0;1753873619.682792;14.687158;1.0;-1.69;-0.32;-0.939169;-0.385177;0.026449;0.0;0.0;93.5;0.0;0.0;7.3
2.0;1753873619.687401;14.709819;0.97;-1.71;-0.3;-0.939983;-0.385801;0.025379;0.0;0.0;92.7;0.0;0.0;8.0
2.0;1753873619.69201;14.716566;0.96;-1.62;-0.33;-0.939701;-0.387864;0.025858;0.0;0.0;92.3;0.0;0.0;8.3
2.0;1753873619.696619;14.66497;0.98;-1.58;-0.26;-0.939094;-0.383955;0.025839;0.0;0.0;89.8;0.0;0.0;8.8
2.0;1753873619.701228;14.689947;0.95;-1.56;-0.4;-0.93868;-0.385974;0.026927;0.0;0.0;95.0;0.0;0.0;7.9
2.0;1753873619.705838;14.720726;0.96;-1.62;-0.28;-0.93984;-0.383624;0.026305;0.0;0.0;99.4;0.0;0.0;9.0
2.0;1753873619.710446;14.687359;1.05;-1.57;-0.35;-0.940502;-0.38703;0.026963;0.0;0.0;103.3;0.0;0.0;9.0
2.0;1753873619.715056;14.716773;0.99;-1.62;-0.32;-0.939681;-0.386647;0.026074;0.0;0.0;92.4;0.0;0.0;9.8
2.0;1753873619.719665;14.699957;0.92;-1.6;-0.28;-0.940524;-0.38394;0.027088;0.0;0.0;93.7;0.0;0.0;8.3
2.0;1753873619.724274;14.718453;0.91;-1.63;-0.32;-0.939166;-0.384121;0.026895;0.0;0.0;94.4;0.0;0.0;8.4
2.0;1753873619.728883;14.688415;1.02;-1.59;-0.27;-0.939319;-0.38423;0.025802;0.0;0.0;90.4;0.0;0.0;7.3
2.0;1753873619.733492;14.704746;1.04;-1.69;-0.19;-0.940866;-0.384204;0.026508;0.0;0.0;98.9;0.0;0.0;8.8
2.0;1753873619.738101;14.718346;0.99;-1.61;-0.38;-0.937132;-0.383149;0.024756;0.0;0.0;94.3;0.0;0.0;10.3
2.0;1753873619.74271;14.692828;1.01;-1.56;-0.33;-0.940471;-0.384718;0.025484;0.0;0.0;93.8;0.0;0.0;9.4
2.0;1753873619.74732;14.680798;1.06;-1.59;-0.32;-0.938848;-0.384185;0.026451;0.0;0.0;99.4;0.0;0.0;9.3
2.0;1753873619.751928;14.714691;0.92;-1.57;-0.23;-0.939449;-0.384477;0.025882;0.0;0.0;99.3;0.0;0.0;9.5
2.0;1753873619.756538;14.71915;0.94;-1.69;-0.3;-0.939887;-0.384685;0.026057;0.0;0.0;97.4;0.0;0.0;9.4
2.0;1753873619.761147;14.675408;0.96;-1.52;-0.31;-0.939169;-0.383741;0.02686;0.0;0.0;101.0;0.0;0.0;7.9
2.0;1753873619.765756;14.716613;0.97;-1.63;-0.27;-0.939717;-0.386527;0.025808;0.0;0.0;95.0;0.0;0.0;8.6
2.0;1753873619.770365;14.695226;1.04;-1.7;-0.31;-0.940911;-0.386504;0.024873;0.0;0.0;91.2;0.0;0.0;9.0
2.0;1753873619.774974;14.680365;0.95;-1.58;-0.34;-0.939416;-0.38404;0.024768;0.0;0.0;97.7;0.0;0.0;9.5
2.0;1753873619.779583;14.723537;0.93;-1.61;-0.18;-0.94014;-0.385064;0.027113;0.0;0.0;101.5;0.0;0.0;9.9
2.0;1753873619.784192;14.697344;1.03;-1.59;-0.32;-0.940443;-0.384651;0.027431;0.0;0.0;102.6;0.0;0.0;8.6
2.0;1753873619.788802;14.673646;1.0;-1.65;-0.23;-0.939001;-0.384353;0.02633;0.0;0.0;104.9;0.0;0.0;9.0
2.0;1753873619.79341;14.694324;0.91;-1.59;-0.26;-0.939622;-0.384371;0.02646;0.0;0.0;98.5;0.0;0.0;10.6
2.0;1753873619.79802;14.671032;0.98;-1.61;-0.35;-0.938834;-0.384027;0.026516;0.0;0.0;100.6;0.0;0.0;9.1
2.0;1753873619.802629;14.708;0.99;-1.61;-0.29;-0.939751;-0.383502;0.026295;0.0;0.0;101.1;0.0;0.0;9.1
2.0;1753873619.807238;14.654819;0.98;-1.58;-0.32;-0.939603;-0.384277;0.026432;0.0;0.0;99.0;0.0;0.0;9.4
2.0;1753873619.811847;14.696592;0.98;-1.55;-0.24;-0.938634;-0.384952;0.026276;0.0;0.0;95.0;0.0;0.0;8.1
2.0;1753873619.8176;14.703125;0.98;-1.61;-0.28;-0.939644;-0.384544;0.025986;0.0;0.0;97.0;0.0;0.0;9.0
2.0;1753873619.822209;14.680019;0.89;-1.57;-0.3;-0.940719;-0.384839;0.026144;0.0;0.0;98.2;0.0;0.0;8.2
2.0;1753873619.826818;14.722664;0.92;-1.66;-0.33;-0.939878;-0.384035;0.025632;0.0;0.0;96.5;0.0;0.0;8.3
2.0;1753873619.831427;14.720138;0.98;-1.58;-0.3;-0.939857;-0.384148;0.026561;0.0;0.0;97.7;0.0;0.0;9.3
2.0;1753873619.836036;14.726021;0.94;-1.71;-0.27;-0.939034;-0.383706;0.026176;0.0;0.0;97.1;0.0;0.0;9.0
2.0;1753873619.840646;14.640273;0.9;-1.59;-0.35;-0.938962;-0.384234;0.025297;0.0;0.0;97.3;0.0;0.0;8.4
2.0;1753873619.845255;14.723153;0.92;-1.51;-0.31;-0.93907;-0.383006;0.025746;0.0;0.0;97.5;0.0;0.0;8.2
2.0;1753873619.849864;14.702;0.96;-1.58;-0.32;-0.94026;-0.384246;0.027364;0.0;0.0;97.9;0.0;0.0;7.6
2.0;1753873619.854473;14.717598;0.9;-1.56;-0.28;-0.94018;-0.385668;0.026871;0.0;0.0;97.4;0.0;0.0;9.1
2.0;1753873619.86139;14.710938;0.91;-1.68;-0.35;-0.939522;-0.384666;0.026718;0.0;0.0;98.0;0.0;0.0;8.0
2.0;1753873619.865999;14.684657;0.88;-1.77;-0.43;-0.9399;-0.384685;0.027275;0.0;0.0;94.3;0.0;0.0;7.6
2.0;1753873619.870608;14.722512;0.89;-1.67;-0.39;-0.939496;-0.385703;0.027835;0.0;0.0;94.2;0.0;0.0;7.8
2.0;1753873619.875218;14.727379;0.9;-1.61;-0.37;-0.938598;-0.385624;0.026914;0.0;0.0;94.3;0.0;0.0;7.8
2.0;1753873619.879826;14.680804;0.87;-1.74;-0.36;-0.940161;-0.385244;0.027405;0.0;0.0;94.8;0.0;0.0;7.7
2.0;1753873619.884436;14.750641;0.91;-1.69;-0.23;-0.938974;-0.384479;0.025286;0.0;0.0;96.6;0.0;0.0;7.6
2.0;1753873619.889045;14.696176;0.95;-1.69;-0.26;-0.940521;-0.385593;0.026756;0.0;0.0;94.3;0.0;0.0;8.6
2.0;1753873619.893654;14.694106;0.93;-1.61;-0.3;-0.93839;-0.385241;0.026067;0.0;0.0;90.4;0.0;0.0;6.7
2.0;1753873619.898263;14.67044;0.89;-1.72;-0.4;-0.938608;-0.385737;0.026802;0.0;0.0;91.2;0.0;0.0;7.7
2.0;1753873619.90692;14.710938;0.91;-1.68;-0.35;-0.93818;-0.38613;0.02623;0.0;0.0;88.0;0.0;0.0;7.0
2.0;1753873619.911529;14.719713;0.84;-1.7;-0.38;-0.938979;-0.385425;0.026531;0.0;0.0;88.5;0.0;0.0;7.5
2.0;1753873619.916138;14.751992;1.03;-1.71;-0.3;-0.939654;-0.387162;0.026333;0.0;0.0;88.3;0.0;0.0;6.7
2.0;1753873619.920747;14.730959;0.92;-1.72;-0.3;-0.938503;-0.386733;0.024864;0.0;0.0;87.5;0.0;0.0;5.7
2.0;1753873619.925356;14.686321;0.82;-1.72;-0.35;-0.937171;-0.383884;0.026535;0.0;0.0;86.5;0.0;0.0;8.2
2.0;1753873619.929966;14.687577;0.85;-1.67;-0.38;-0.940027;-0.386208;0.026111;0.0;0.0;86.0;0.0;0.0;6.9
2.0;1753873619.934574;14.760904;0.93;-1.65;-0.33;-0.939818;-0.388462;0.02694;0.0;0.0;86.9;0.0;0.0;6.9
2.0;1753873619.939184;14.718991;0.87;-1.68;-0.33;-0.939796;-0.385582;0.025451;0.0;0.0;83.3;0.0;0.0;7.1
2.0;1753873619.943793;14.684244;0.89;-1.65;-0.36;-0.940163;-0.38494;0.025697;0.0;0.0;85.8;0.0;0.0;6.2
2.0;1753873619.948402;14.711406;0.87;-1.61;-0.34;-0.941765;-0.385147;0.025616;0.0;0.0;88.5;0.0;0.0;6.9
2.0;1753873619.953011;14.705514;0.87;-1.63;-0.31;-0.940687;-0.386447;0.02557;0.0;0.0;84.7;0.0;0.0;6.6
2.0;1753873619.95734;14.710938;0.91;-1.68;-0.35;-0.940986;-0.385764;0.025254;0.0;0.0;88.0;0.0;0.0;7.0
2.0;1753873619.961949;14.707768;0.84;-1.7;-0.33;-0.940225;-0.384388;0.0257;0.0;0.0;87.6;0.0;0.0;6.1
2.0;1753873619.966558;14.731624;0.94;-1.73;-0.27;-0.941253;-0.384734;0.02499;0.0;0.0;95.5;0.0;0.0;7.1
2.0;1753873619.971167;14.705119;0.95;-1.63;-0.32;-0.941599;-0.385759;0.026189;0.0;0.0;85.3;0.0;0.0;5.8
2.0;1753873619.975776;14.673016;0.9;-1.62;-0.35;-0.940021;-0.385586;0.024614;0.0;0.0;91.4;0.0;0.0;7.1
2.0;1753873619.980386;14.683672;0.89;-1.76;-0.4;-0.941027;-0.385025;0.024165;0.0;0.0;91.8;0.0;0.0;8.4
2.0;1753873619.984995;14.7027;0.92;-1.66;-0.31;-0.941017;-0.384032;0.024656;0.0;0.0;87.9;0.0;0.0;7.7
2.0;1753873619.989604;14.692406;0.93;-1.67;-0.42;-0.939542;-0.384442;0.023999;0.0;0.0;94.1;0.0;0.0;6.9
2.0;1753873619.99647;14.703125;0.91;-1.68;-0.35;-0.940498;-0.384056;0.024766;0.0;0.0;88.0;0.0;0.0;7.0
2.0;1753873620.001079;14.709799;0.88;-1.61;-0.38;-0.940169;-0.384218;0.023678;0.0;0.0;91.3;0.0;0.0;6.0
2.0;1753873620.005688;14.716337;0.83;-1.65;-0.32;-0.939723;-0.385993;0.024913;0.0;0.0;87.5;0.0;0.0;7.8
2.0;1753873620.010297;14.694195;0.94;-1.67;-0.32;-0.939565;-0.383922;0.024959;0.0;0.0;89.1;0.0;0.0;8.1
2.0;1753873620.014906;14.692744;1.02;-1.64;-0.31;-0.940938;-0.38426;0.024036;0.0;0.0;90.3;0.0;0.0;7.6
2.0;1753873620.019516;14.691937;0.98;-1.71;-0.37;-0.939103;-0.383041;0.026051;0.0;0.0;90.6;0.0;0.0;7.7
2.0;1753873620.024124;14.717398;0.92;-1.73;-0.43;-0.940624;-0.38375;0.025077;0.0;0.0;86.6;0.0;0.0;8.1
2.0;1753873620.028734;14.714019;0.86;-1.65;-0.35;-0.939946;-0.384794;0.025221;0.0;0.0;84.2;0.0;0.0;8.0
2.0;1753873620.033343;14.716153;0.88;-1.67;-0.33;-0.93965;-0.385096;0.024539;0.0;0.0;83.6;0.0;0.0;7.0
2.0;1753873620.037952;14.71834;0.97;-1.65;-0.32;-0.939581;-0.385063;0.025716;0.0;0.0;91.0;0.0;0.0;8.1
2.0;1753873620.042561;14.712301;0.88;-1.65;-0.37;-0.940056;-0.384412;0.025292;0.0;0.0;90.2;0.0;0.0;7.4
2.0;1753873620.04717;14.696794;0.86;-1.64;-0.37;-0.940074;-0.384242;0.024319;0.0;0.0;94.9;0.0;0.0;6.8
2.0;1753873620.051779;14.704776;0.91;-1.7;-0.35;-0.940895;-0.384211;0.026318;0.0;0.0;85.9;0.0;0.0;7.7
2.0;1753873620.056388;14.699083;0.95;-1.74;-0.27;-0.940681;-0.384435;0.025242;0.0;0.0;94.1;0.0;0.0;7.0
2.0;1753873620.060998;14.701806;0.85;-1.72;-0.28;-0.941961;-0.384205;0.024508;0.0;0.0;85.9;0.0;0.0;6.2
2.0;1753873620.065606;14.699081;0.94;-1.76;-0.36;-0.940141;-0.384161;0.025814;0.0;0.0;97.4;0.0;0.0;7.3
2.0;1753873620.070216;14.697579;0.83;-1.58;-0.36;-0.941147;-0.384239;0.027122;0.0;0.0;90.5;0.0;0.0;7.2
2.0;1753873620.074825;14.715739;0.92;-1.76;-0.29;-0.940796;-0.383555;0.02446;0.0;0.0;94.1;0.0;0.0;5.8
2.0;1753873620.079434;14.696302;0.98;-1.7;-0.36;-0.940767;-0.384663;0.024774;0.0;0.0;95.2;0.0;0.0;7.0
2.0;1753873620.084043;14.70287;0.93;-1.69;-0.31;-0.940803;-0.383541;0.02666;0.0;0.0;87.7;0.0;0.0;7.0
2.0;1753873620.088652;14.726113;0.97;-1.6;-0.34;-0.941529;-0.386792;0.025754;0.0;0.0;93.8;0.0;0.0;9.0
2.0;1753873620.093261;14.714894;0.92;-1.68;-0.35;-0.939702;-0.383878;0.025202;0.0;0.0;90.2;0.0;0.0;7.4
2.0;1753873620.09787;14.703804;0.89;-1.66;-0.3;-0.940671;-0.384358;0.026229;0.0;0.0;89.9;0.0;0.0;7.4
2.0;1753873620.10248;14.7284;0.94;-1.7;-0.3;-0.939603;-0.383818;0.024678;0.0;0.0;93.3;0.0;0.0;8.2
2.0;1753873620.107088;14.699917;0.93;-1.65;-0.24;-0.9419;-0.385422;0.02638;0.0;0.0;92.5;0.0;0.0;9.0
2.0;1753873620.111698;14.690199;0.85;-1.7;-0.35;-0.939518;-0.384261;0.024449;0.0;0.0;92.1;0.0;0.0;6.3
2.0;1753873620.116307;14.698428;0.96;-1.75;-0.32;-0.940838;-0.386954;0.025425;0.0;0.0;95.0;0.0;0.0;7.5
2.0;1753873620.120916;14.707691;0.87;-1.63;-0.34;-0.940891;-0.385513;0.025185;0.0;0.0;93.8;0.0;0.0;7.4
2.0;1753873620.125525;14.722648;0.85;-1.71;-0.36;-0.940817;-0.383048;0.026205;0.0;0.0;90.7;0.0;0.0;6.8
2.0;1753873620.130134;14.69691;0.94;-1.69;-0.31;-0.942987;-0.386401;0.02515;0.0;0.0;95.0;0.0;0.0;7.2
2.0;1753873620.134743;14.718152;0.88;-1.65;-0.34;-0.939325;-0.383933;0.025761;0.0;0.0;90.7;0.0;0.0;7.6
2.0;1753873620.139352;14.697082;0.76;-1.6;-0.26;-0.941372;-0.38237;0.026441;0.0;0.0;96.8;0.0;0.0;7.0
2.0;1753873620.143962;14.711776;0.85;-1.65;-0.32;-0.939259;-0.3863;0.02692;0.0;0.0;91.7;0.0;0.0;8.1
2.0;1753873620.14857;14.71731;0.86;-1.61;-0.37;-0.940495;-0.383878;0.026101;0.0;0.0;88.7;0.0;0.0;6.3
2.0;1753873620.15318;14.714307;0.96;-1.68;-0.38;-0.942345;-0.383987;0.025137;0.0;0.0;96.4;0.0;0.0;7.6
2.0;1753873620.157789;14.714411;0.9;-1.69;-0.31;-0.94099;-0.384584;0.025615;0.0;0.0;91.2;0.0;0.0;8.2
2.0;1753873620.162398;14.715536;0.88;-1.7;-0.28;-0.94013;-0.384003;0.024886;0.0;0.0;89.5;0.0;0.0;7.7
2.0;1753873620.167007;14.715681;0.9;-1.7;-0.27;-0.941258;-0.383729;0.027035;0.0;0.0;89.1;0.0;0.0;7.5
2.0;1753873620.171616;14.692749;0.95;-1.79;-0.29;-0.94013;-0.383821;0.024924;0.0;0.0;97.2;0.0;0.0;6.5
2.0;1753873620.176225;14.706007;0.81;-1.64;-0.33;-0.94161;-0.384289;0.026362;0.0;0.0;99.0;0.0;0.0;6.1
2.0;1753873620.180834;14.707851;0.95;-1.68;-0.35;-0.942551;-0.384598;0.026162;0.0;0.0;95.3;0.0;0.0;7.8
2.0;1753873620.185444;14.713779;0.88;-1.73;-0.24;-0.942241;-0.385622;0.026497;0.0;0.0;102.1;0.0;0.0;8.3
2.0;1753873620.190052;14.712241;0.9;-1.64;-0.3;-0.941674;-0.38545;0.026896;0.0;0.0;87.9;0.0;0.0;6.9
2.0;1753873620.194662;14.717593;0.89;-1.69;-0.26;-0.941897;-0.386028;0.027007;0.0;0.0;99.0;0.0;0.0;7.2
2.0;1753873620.199271;14.70054;1.03;-1.64;-0.34;-0.939519;-0.385809;0.024896;0.0;0.0;96.5;0.0;0.0;7.2
2.0;1753873620.20388;14.727134;0.84;-1.65;-0.37;-0.942759;-0.38334;0.026713;0.0;0.0;100.5;0.0;0.0;6.2
2.0;1753873620.208489;14.715341;0.99;-1.69;-0.38;-0.941007;-0.381448;0.027355;0.0;0.0;90.6;0.0;0.0;9.1
2.0;1753873620.213098;14.708159;1.04;-1.63;-0.27;-0.941382;-0.385908;0.026175;0.0;0.0;99.3;0.0;0.0;7.8
2.0;1753873620.217707;14.710698;0.84;-1.64;-0.35;-0.939069;-0.384428;0.0268;0.0;0.0;101.0;0.0;0.0;7.8
2.0;1753873620.222316;14.705016;0.96;-1.65;-0.31;-0.941306;-0.385881;0.026227;0.0;0.0;108.9;0.0;0.0;7.6
2.0;1753873620.226925;14.710105;0.95;-1.7;-0.26;-0.939494;-0.384391;0.024936;0.0;0.0;94.6;0.0;0.0;6.5
2.0;1753873620.231534;14.691719;0.99;-1.7;-0.42;-0.942524;-0.383602;0.028899;0.0;0.0;99.5;0.0;0.0;7.2
2.0;1753873620.236144;14.715904;0.93;-1.69;-0.34;-0.941776;-0.385527;0.02742;0.0;0.0;102.1;0.0;0.0;7.1
2.0;1753873620.240753;14.709925;0.92;-1.64;-0.28;-0.941785;-0.385368;0.025911;0.0;0.0;95.0;0.0;0.0;6.5
2.0;1753873620.245362;14.699813;0.93;-1.75;-0.35;-0.942967;-0.384832;0.026264;0.0;0.0;99.8;0.0;0.0;8.0
2.0;1753873620.249971;14.720137;0.93;-1.67;-0.29;-0.940549;-0.384549;0.028485;0.0;0.0;97.9;0.0;0.0;7.8
2.0;1753873620.25458;14.716117;0.87;-1.68;-0.3;-0.9398;-0.382935;0.026779;0.0;0.0;94.7;0.0;0.0;7.0
2.0;1753873620.259189;14.723893;0.92;-1.71;-0.26;-0.940763;-0.385925;0.027138;0.0;0.0;95.1;0.0;0.0;8.9
2.0;1753873620.263798;14.70624;0.93;-1.63;-0.32;-0.942102;-0.38425;0.02721;0.0;0.0;98.8;0.0;0.0;8.8
2.0;1753873620.268407;14.715397;0.97;-1.71;-0.29;-0.939919;-0.384671;0.02724;0.0;0.0;90.0;0.0;0.0;8.4
2.0;1753873620.273016;14.706267;0.83;-1.69;-0.3;-0.942274;-0.385709;0.027731;0.0;0.0;98.3;0.0;0.0;7.7
2.0;1753873620.277626;14.718274;0.91;-1.64;-0.22;-0.939529;-0.384663;0.028554;0.0;0.0;97.0;0.0;0.0;8.2
2.0;1753873620.282235;14.731084;0.96;-1.61;-0.28;-0.941659;-0.386976;0.028422;0.0;0.0;100.9;0.0;0.0;7.2
2.0;1753873620.286844;14.716049;0.89;-1.64;-0.2;-0.941406;-0.385449;0.027393;0.0;0.0;99.5;0.0;0.0;8.1
2.0;1753873620.291453;14.716863;0.93;-1.63;-0.29;-0.940043;-0.384924;0.027789;0.0;0.0;97.8;0.0;0.0;7.2
2.0;1753873620.296062;14.700399;0.88;-1.68;-0.37;-0.941245;-0.386583;0.02761;0.0;0.0;97.2;0.0;0.0;7.9
2.0;1753873620.300671;14.697329;0.96;-1.7;-0.26;-0.941466;-0.385742;0.028072;0.0;0.0;104.6;0.0;0.0;8.0
2.0;1753873620.30528;14.71478;0.88;-1.64;-0.28;-0.941732;-0.385627;0.0271;0.0;0.0;101.2;0.0;0.0;9.0
2.0;1753873620.309889;14.696951;0.85;-1.67;-0.27;-0.940604;-0.386686;0.027226;0.0;0.0;95.3;0.0;0.0;7.5
2.0;1753873620.314498;14.710246;0.84;-1.62;-0.32;-0.942663;-0.386165;0.027597;0.0;0.0;106.7;0.0;0.0;7.0
2.0;1753873620.319108;14.690505;0.83;-1.69;-0.25;-0.942173;-0.386998;0.028839;0.0;0.0;101.3;0.0;0.0;6.4
2.0;1753873620.323717;14.702316;0.93;-1.67;-0.26;-0.941861;-0.384078;0.028379;0.0;0.0;101.8;0.0;0.0;9.2
2.0;1753873620.328326;14.706029;1.01;-1.71;-0.28;-0.94042;-0.387451;0.02755;0.0;0.0;106.4;0.0;0.0;8.9
2.0;1753873620.332935;14.718782;0.92;-1.77;-0.38;-0.940564;-0.384985;0.029099;0.0;0.0;102.6;0.0;0.0;7.5
2.0;1753873620.337544;14.712192;0.93;-1.67;-0.32;-0.940909;-0.384925;0.027537;0.0;0.0;95.5;0.0;0.0;8.3
2.0;1753873620.342153;14.725873;0.9;-1.68;-0.33;-0.941141;-0.386401;0.027672;0.0;0.0;103.4;0.0;0.0;8.5
2.0;1753873620.346762;14.713381;0.92;-1.67;-0.27;-0.941337;-0.3878;0.028594;0.0;0.0;101.4;0.0;0.0;8.1
2.0;1753873620.351371;14.720313;0.9;-1.69;-0.23;-0.942509;-0.386158;0.027187;0.0;0.0;102.5;0.0;0.0;7.8
2.0;1753873620.3565;14.71875;0.91;-1.68;-0.28;-0.941352;-0.385764;0.02806;0.0;0.0;100.0;0.0;0.0;8.0
2.0;1753873620.361109;14.738161;0.83;-1.65;-0.23;-0.941051;-0.386745;0.027288;0.0;0.0;102.3;0.0;0.0;9.0
2.0;1753873620.365718;14.71982;0.94;-1.71;-0.25;-0.941943;-0.385358;0.027781;0.0;0.0;95.0;0.0;0.0;8.6
2.0;1753873620.370327;14.732348;0.87;-1.65;-0.23;-0.940225;-0.383166;0.027938;0.0;0.0;98.2;0.0;0.0;8.5
2.0;1753873620.374936;14.730531;0.92;-1.69;-0.25;-0.940553;-0.386135;0.027282;0.0;0.0;101.8;0.0;0.0;7.3
2.0;1753873620.379546;14.698739;0.91;-1.69;-0.24;-0.941121;-0.386658;0.028364;0.0;0.0;101.0;0.0;0.0;8.0
2.0;1753873620.384154;14.709929;0.93;-1.71;-0.39;-0.940426;-0.388055;0.0271;0.0;0.0;94.5;0.0;0.0;7.9
2.0;1753873620.388764;14.717369;0.89;-1.66;-0.25;-0.938427;-0.38608;0.027766;0.0;0.0;100.2;0.0;0.0;7.6
2.0;1753873620.393373;14.723629;0.94;-1.67;-0.33;-0.94112;-0.387225;0.027626;0.0;0.0;96.2;0.0;0.0;9.4
2.0;1753873620.397982;14.724067;0.89;-1.71;-0.24;-0.941395;-0.384694;0.026623;0.0;0.0;105.2;0.0;0.0;7.6
2.0;1753873620.402591;14.72484;0.88;-1.67;-0.27;-0.940144;-0.386799;0.02772;0.0;0.0;99.4;0.0;0.0;8.5
2.0;1753873620.4072;14.728214;0.95;-1.59;-0.27;-0.941501;-0.388257;0.027699;0.0;0.0;103.6;0.0;0.0;7.5
2.0;1753873620.411809;14.741049;0.98;-1.66;-0.22;-0.941465;-0.385867;0.028142;0.0;0.0;97.8;0.0;0.0;8.1
2.0;1753873620.416418;14.732653;0.94;-1.66;-0.33;-0.941461;-0.387267;0.028365;0.0;0.0;91.2;0.0;0.0;6.8
2.0;1753873620.421028;14.722158;0.92;-1.7;-0.27;-0.938498;-0.386756;0.027884;0.0;0.0;99.6;0.0;0.0;7.8
2.0;1753873620.425636;14.708938;0.99;-1.7;-0.26;-0.940652;-0.385567;0.02725;0.0;0.0;103.9;0.0;0.0;7.2
2.0;1753873620.430246;14.710378;0.96;-1.7;-0.3;-0.940434;-0.386694;0.027323;0.0;0.0;94.5;0.0;0.0;8.2
2.0;1753873620.434855;14.696117;0.94;-1.71;-0.26;-0.940805;-0.385651;0.027216;0.0;0.0;104.2;0.0;0.0;8.5
2.0;1753873620.439464;14.721657;0.88;-1.73;-0.3;-0.940267;-0.386542;0.026501;0.0;0.0;101.5;0.0;0.0;7.9
2.0;1753873620.444073;14.715613;0.88;-1.64;-0.33;-0.940767;-0.3863;0.026909;0.0;0.0;93.9;0.0;0.0;7.3
2.0;1753873620.448682;14.731187;0.93;-1.64;-0.26;-0.940886;-0.385243;0.027693;0.0;0.0;102.0;0.0;0.0;8.8
2.0;1753873620.453291;14.715531;0.9;-1.69;-0.31;-0.938782;-0.38341;0.026808;0.0;0.0;99.3;0.0;0.0;7.9
2.0;1753873620.4579;14.724988;0.87;-1.68;-0.37;-0.939114;-0.387331;0.027524;0.0;0.0;101.7;0.0;0.0;7.2
2.0;1753873620.46251;14.706768;0.94;-1.65;-0.29;-0.939854;-0.386667;0.02622;0.0;0.0;102.9;0.0;0.0;9.8
2.0;1753873620.467118;14.721733;0.9;-1.59;-0.25;-0.939542;-0.38555;0.025875;0.0;0.0;94.5;0.0;0.0;8.4
2.0;1753873620.471728;14.720331;0.86;-1.72;-0.26;-0.940269;-0.386518;0.026461;0.0;0.0;98.5;0.0;0.0;8.3
2.0;1753873620.476337;14.720185;0.82;-1.77;-0.27;-0.935931;-0.386644;0.026829;0.0;0.0;99.8;0.0;0.0;9.0
2.0;1753873620.480946;14.71008;0.91;-1.64;-0.23;-0.939844;-0.384589;0.026073;0.0;0.0;102.1;0.0;0.0;7.8
2.0;1753873620.485555;14.726111;0.88;-1.68;-0.27;-0.939631;-0.386877;0.026516;0.0;0.0;98.7;0.0;0.0;8.6
2.0;1753873620.490164;14.714714;0.9;-1.6;-0.29;-0.939955;-0.386383;0.026442;0.0;0.0;99.3;0.0;0.0;7.4
2.0;1753873620.494773;14.729665;1.02;-1.65;-0.28;-0.940459;-0.384099;0.02598;0.0;0.0;100.5;0.0;0.0;7.3
2.0;1753873620.499382;14.703213;0.89;-1.76;-0.24;-0.938827;-0.386296;0.025785;0.0;0.0;97.7;0.0;0.0;8.1
2.0;1753873620.503991;14.725768;0.92;-1.71;-0.33;-0.939414;-0.387018;0.025624;0.0;0.0;98.7;0.0;0.0;7.0
2.0;1753873620.5086;14.728239;0.86;-1.65;-0.25;-0.939951;-0.385868;0.026501;0.0;0.0;101.6;0.0;0.0;7.4
2.0;1753873620.51321;14.716897;0.96;-1.65;-0.24;-0.937982;-0.388015;0.025845;0.0;0.0;95.3;0.0;0.0;7.1
2.0;1753873620.5177;14.71875;0.91;-1.68;-0.28;-0.93879;-0.38613;0.025742;0.0;0.0;100.0;0.0;0.0;8.0
2.0;1753873620.522309;14.73033;0.92;-1.63;-0.25;-0.93952;-0.385792;0.025349;0.0;0.0;100.6;0.0;0.0;9.7
2.0;1753873620.526918;14.705174;0.96;-1.7;-0.28;-0.940019;-0.386526;0.025626;0.0;0.0;96.0;0.0;0.0;6.9
2.0;1753873620.531527;14.729273;0.91;-1.61;-0.24;-0.938913;-0.386755;0.025763;0.0;0.0;100.7;0.0;0.0;8.3
2.0;1753873620.536136;14.734803;0.9;-1.67;-0.28;-0.939637;-0.384678;0.025931;0.0;0.0;101.3;0.0;0.0;9.2
2.0;1753873620.540746;14.721405;0.89;-1.68;-0.37;-0.936989;-0.387189;0.025959;0.0;0.0;95.5;0.0;0.0;7.3
2.0;1753873620.545354;14.71081;0.91;-1.62;-0.27;-0.939342;-0.38569;0.024717;0.0;0.0;98.5;0.0;0.0;7.1
2.0;1753873620.549964;14.719527;0.88;-1.67;-0.31;-0.939039;-0.38691;0.025667;0.0;0.0;104.5;0.0;0.0;7.9
2.0;1753873620.554573;14.724711;0.82;-1.72;-0.36;-0.938242;-0.384631;0.026704;0.0;0.0;95.4;0.0;0.0;8.5
2.0;1753873620.559182;14.735076;0.85;-1.68;-0.31;-0.938671;-0.385649;0.024593;0.0;0.0;98.6;0.0;0.0;8.7
2.0;1753873620.563791;14.722286;0.95;-1.68;-0.31;-0.937623;-0.38559;0.026248;0.0;0.0;100.6;0.0;0.0;7.4
2.0;1753873620.5684;14.71727;0.84;-1.67;-0.28;-0.938011;-0.387031;0.026123;0.0;0.0;105.4;0.0;0.0;8.5
2.0;1753873620.573009;14.717876;0.84;-1.58;-0.29;-0.937105;-0.387441;0.02551;0.0;0.0;102.3;0.0;0.0;7.6
2.0;1753873620.577618;14.71871;0.94;-1.61;-0.26;-0.942188;-0.387402;0.025534;0.0;0.0;102.8;0.0;0.0;8.0
2.0;1753873620.582228;14.711705;0.94;-1.69;-0.27;-0.938661;-0.385999;0.02518;0.0;0.0;101.5;0.0;0.0;7.5
2.0;1753873620.586836;14.708182;0.88;-1.67;-0.26;-0.939167;-0.38435;0.026255;0.0;0.0;102.2;0.0;0.0;7.8
2.0;1753873620.591446;14.726029;0.91;-1.69;-0.28;-0.936547;-0.385881;0.025409;0.0;0.0;101.0;0.0;0.0;6.5
2.0;1753873620.596055;14.722582;0.84;-1.74;-0.17;-0.938801;-0.385647;0.02528;0.0;0.0;98.9;0.0;0.0;6.8
2.0;1753873620.600664;14.718666;0.9;-1.61;-0.23;-0.937897;-0.383654;0.026827;0.0;0.0;101.2;0.0;0.0;8.1
2.0;1753873620.605273;14.724178;0.82;-1.62;-0.27;-0.938871;-0.385954;0.024483;0.0;0.0;100.4;0.0;0.0;7.6
2.0;1753873620.609882;14.72659;0.9;-1.69;-0.25;-0.937119;-0.386314;0.026442;0.0;0.0;96.0;0.0;0.0;8.1
2.0;1753873620.614491;14.726662;0.88;-1.63;-0.29;-0.939688;-0.385416;0.02606;0.0;0.0;97.7;0.0;0.0;7.5
2.0;1753873620.6191;14.719481;0.82;-1.65;-0.31;-0.938428;-0.386051;0.026595;0.0;0.0;102.0;0.0;0.0;9.2
2.0;1753873620.62371;14.705925;0.88;-1.66;-0.26;-0.939962;-0.386557;0.026536;0.0;0.0;102.1;0.0;0.0;9.6
2.0;1753873620.628318;14.704274;0.87;-1.73;-0.31;-0.94011;-0.386153;0.026717;0.0;0.0;99.9;0.0;0.0;8.8
2.0;1753873620.632928;14.702737;0.87;-1.63;-0.24;-0.940275;-0.387807;0.025926;0.0;0.0;98.1;0.0;0.0;8.3
2.0;1753873620.637537;14.716517;0.79;-1.62;-0.3;-0.937637;-0.386421;0.025442;0.0;0.0;97.3;0.0;0.0;8.9
2.0;1753873620.642146;14.738824;0.85;-1.61;-0.27;-0.938814;-0.387357;0.025171;0.0;0.0;97.4;0.0;0.0;7.7
2.0;1753873620.646755;14.713599;0.89;-1.62;-0.31;-0.93995;-0.386542;0.025948;0.0;0.0;99.2;0.0;0.0;8.4
2.0;1753873620.651364;14.726893;0.93;-1.61;-0.28;-0.939227;-0.388475;0.02545;0.0;0.0;98.4;0.0;0.0;7.5
2.0;1753873620.655973;14.718118;0.88;-1.68;-0.29;-0.938875;-0.387169;0.025798;0.0;0.0;101.4;0.0;0.0;9.0
2.0;1753873620.660582;14.714568;0.92;-1.72;-0.35;-0.940644;-0.386709;0.024821;0.0;0.0;103.5;0.0;0.0;7.3
2.0;1753873620.665192;14.730134;0.92;-1.69;-0.34;-0.937611;-0.38539;0.028387;0.0;0.0;98.2;0.0;0.0;7.9
2.0;1753873620.6698;14.728438;0.82;-1.66;-0.27;-0.939807;-0.387367;0.025556;0.0;0.0;104.4;0.0;0.0;8.6
2.0;1753873620.67441;14.710235;0.98;-1.67;-0.32;-0.940545;-0.38588;0.025746;0.0;0.0;100.0;0.0;0.0;8.0
2.0;1753873620.679019;14.720904;0.88;-1.64;-0.33;-0.939658;-0.386257;0.025889;0.0;0.0;101.1;0.0;0.0;9.4
2.0;1753873620.683628;14.713221;0.92;-1.6;-0.26;-0.940692;-0.386599;0.024976;0.0;0.0;96.9;0.0;0.0;7.5
2.0;1753873620.688237;14.714543;0.85;-1.62;-0.31;-0.938357;-0.386937;0.026005;0.0;0.0;101.8;0.0;0.0;6.9
2.0;1753873620.692846;14.722886;0.93;-1.67;-0.27;-0.938837;-0.384109;0.026431;0.0;0.0;98.2;0.0;0.0;7.2
2.0;1753873620.697455;14.715154;0.96;-1.63;-0.26;-0.939332;-0.385855;0.024704;0.0;0.0;95.6;0.0;0.0;8.5
2.0;1753873620.702064;14.718189;0.91;-1.67;-0.29;-0.93823;-0.38584;0.02576;0.0;0.0;104.5;0.0;0.0;7.4
2.0;1753873620.706674;14.729071;0.94;-1.71;-0.25;-0.940464;-0.385193;0.025614;0.0;0.0;99.1;0.0;0.0;7.5
2.0;1753873620.711282;14.724236;0.84;-1.62;-0.27;-0.938471;-0.386285;0.02575;0.0;0.0;98.5;0.0;0.0;8.0
2.0;1753873620.715892;14.707222;0.78;-1.61;-0.29;-0.940564;-0.387723;0.026806;0.0;0.0;103.7;0.0;0.0;8.9
2.0;1753873620.720501;14.730077;0.9;-1.58;-0.32;-0.940388;-0.389437;0.024808;0.0;0.0;99.0;0.0;0.0;7.9
2.0;1753873620.72511;14.720788;0.94;-1.62;-0.32;-0.941543;-0.385947;0.026427;0.0;0.0;98.0;0.0;0.0;7.8
2.0;1753873620.729719;14.717871;0.9;-1.66;-0.3;-0.939559;-0.386739;0.026426;0.0;0.0;103.1;0.0;0.0;6.6
2.0;1753873620.734328;14.730204;0.85;-1.62;-0.27;-0.940495;-0.385522;0.024982;0.0;0.0;100.1;0.0;0.0;8.2
2.0;1753873620.738937;14.722993;0.84;-1.67;-0.34;-0.940326;-0.385476;0.02632;0.0;0.0;103.7;0.0;0.0;7.5
2.0;1753873620.743546;14.72236;0.82;-1.57;-0.28;-0.93996;-0.385027;0.024904;0.0;0.0;98.3;0.0;0.0;9.1
2.0;1753873620.748155;14.708268;0.87;-1.62;-0.27;-0.939057;-0.386778;0.026626;0.0;0.0;96.4;0.0;0.0;7.7
2.0;1753873620.752764;14.724095;0.89;-1.52;-0.28;-0.939392;-0.388242;0.025342;0.0;0.0;102.3;0.0;0.0;9.5
2.0;1753873620.757374;14.725268;0.89;-1.59;-0.33;-0.938875;-0.387439;0.025403;0.0;0.0;105.4;0.0;0.0;8.8
2.0;1753873620.761983;14.714684;0.87;-1.55;-0.25;-0.941618;-0.38692;0.026672;0.0;0.0;104.5;0.0;0.0;7.1
2.0;1753873620.766592;14.722297;0.89;-1.59;-0.26;-0.938514;-0.386093;0.025525;0.0;0.0;106.8;0.0;0.0;7.3
2.0;1753873620.771201;14.704673;0.89;-1.71;-0.26;-0.939052;-0.385727;0.02574;0.0;0.0;97.0;0.0;0.0;8.4
2.0;1753873620.77581;14.696085;0.83;-1.61;-0.22;-0.940256;-0.386296;0.026921;0.0;0.0;97.4;0.0;0.0;7.4
2.0;1753873620.780419;14.707453;0.8;-1.6;-0.23;-0.939338;-0.384382;0.025544;0.0;0.0;100.4;0.0;0.0;8.5
2.0;1753873620.785028;14.714216;0.79;-1.52;-0.21;-0.938578;-0.387505;0.025917;0.0;0.0;97.1;0.0;0.0;8.6
2.0;1753873620.789637;14.730542;0.91;-1.63;-0.26;-0.939868;-0.384153;0.024819;0.0;0.0;100.4;0.0;0.0;8.2
2.0;1753873620.794246;14.699973;0.86;-1.64;-0.31;-0.940771;-0.387488;0.026024;0.0;0.0;103.1;0.0;0.0;6.4
2.0;1753873620.798856;14.722992;0.92;-1.62;-0.24;-0.938661;-0.383717;0.025382;0.0;0.0;97.1;0.0;0.0;8.6
2.0;1753873620.803465;14.720621;0.86;-1.66;-0.31;-0.93978;-0.387562;0.025813;0.0;0.0;102.8;0.0;0.0;8.0
2.0;1753873620.808074;14.726902;0.88;-1.61;-0.26;-0.939996;-0.387624;0.026894;0.0;0.0;97.9;0.0;0.0;7.8
2.0;1753873620.812683;14.735941;0.92;-1.54;-0.33;-0.940292;-0.387416;0.025235;0.0;0.0;100.8;0.0;0.0;7.9
2.0;1753873620.817292;14.723802;0.91;-1.55;-0.32;-0.939453;-0.386677;0.026724;0.0;0.0;101.7;0.0;0.0;7.5
2.0;1753873620.821901;14.718983;0.86;-1.58;-0.28;-0.939571;-0.385288;0.026024;0.0;0.0;100.0;0.0;0.0;8.0
2.0;1753873620.82651;14.71129;0.82;-1.56;-0.24;-0.939816;-0.388625;0.026639;0.0;0.0;105.0;0.0;0.0;8.3
2.0;1753873620.831119;14.717188;0.84;-1.62;-0.34;-0.940003;-0.385974;0.025808;0.0;0.0;103.4;0.0;0.0;9.1
2.0;1753873620.835728;14.719136;0.93;-1.56;-0.28;-0.940604;-0.385731;0.026371;0.0;0.0;101.2;0.0;0.0;7.9
2.0;1753873620.840338;14.725408;0.81;-1.61;-0.25;-0.940058;-0.386404;0.026127;0.0;0.0;99.0;0.0;0.0;6.8
2.0;1753873620.844946;14.724563;0.88;-1.62;-0.3;-0.940161;-0.385287;0.024093;0.0;0.0;95.0;0.0;0.0;8.4
2.0;1753873620.849556;14.722586;0.82;-1.53;-0.21;-0.938827;-0.3848;0.027301;0.0;0.0;94.2;0.0;0.0;8.7
2.0;1753873620.854165;14.722219;0.87;-1.61;-0.29;-0.940445;-0.385408;0.02711;0.0;0.0;100.4;0.0;0.0;8.3
2.0;1753873620.858774;14.730343;0.82;-1.68;-0.38;-0.940056;-0.387523;0.026705;0.0;0.0;105.1;0.0;0.0;8.8
2.0;1753873620.863383;14.720923;0.91;-1.6;-0.29;-0.940824;-0.386198;0.025931;0.0;0.0;103.2;0.0;0.0;8.0
2.0;1753873620.867992;14.71726;0.92;-1.57;-0.35;-0.941076;-0.385195;0.027326;0.0;0.0;99.2;0.0;0.0;7.9
2.0;1753873620.872601;14.714492;0.81;-1.56;-0.28;-0.940247;-0.386047;0.026467;0.0;0.0;99.9;0.0;0.0;8.1
2.0;1753873620.87721;14.722279;0.93;-1.67;-0.29;-0.940481;-0.387535;0.026668;0.0;0.0;104.0;0.0;0.0;7.6
2.0;1753873620.88182;14.728721;0.82;-1.6;-0.22;-0.938333;-0.385268;0.025209;0.0;0.0;99.2;0.0;0.0;8.6
2.0;1753873620.886428;14.714661;0.83;-1.55;-0.25;-0.940059;-0.387759;0.02574;0.0;0.0;103.3;0.0;0.0;7.9
2.0;1753873620.891038;14.715217;0.81;-1.6;-0.29;-0.941437;-0.388361;0.027038;0.0;0.0;100.6;0.0;0.0;6.8
2.0;1753873620.895647;14.736328;0.91;-1.54;-0.22;-0.938806;-0.386916;0.026178;0.0;0.0;103.1;0.0;0.0;7.4
2.0;1753873620.900256;14.722683;0.88;-1.59;-0.22;-0.940972;-0.385389;0.026116;0.0;0.0;99.8;0.0;0.0;7.2
2.0;1753873620.904865;14.730994;0.82;-1.59;-0.27;-0.939912;-0.38588;0.026052;0.0;0.0;104.5;0.0;0.0;6.4
2.0;1753873620.909474;14.716571;0.79;-1.65;-0.28;-0.940737;-0.386161;0.024841;0.0;0.0;98.6;0.0;0.0;7.5
2.0;1753873620.914083;14.725765;0.97;-1.56;-0.27;-0.940955;-0.385701;0.026149;0.0;0.0;93.3;0.0;0.0;8.4
2.0;1753873620.918692;14.729039;0.91;-1.59;-0.2;-0.939869;-0.387806;0.025591;0.0;0.0;103.5;0.0;0.0;6.8
2.0;1753873620.923302;14.708108;0.83;-1.59;-0.27;-0.940097;-0.386359;0.025619;0.0;0.0;104.2;0.0;0.0;8.6
2.0;1753873620.92791;14.739029;0.86;-1.57;-0.3;-0.941504;-0.385366;0.026286;0.0;0.0;96.8;0.0;0.0;8.4
2.0;1753873620.93252;14.725395;0.92;-1.51;-0.28;-0.940129;-0.38664;0.026687;0.0;0.0;100.0;0.0;0.0;7.5
2.0;1753873620.937129;14.72654;0.82;-1.53;-0.26;-0.939846;-0.386482;0.0264;0.0;0.0;91.8;0.0;0.0;7.8
2.0;1753873620.941738;14.722353;0.84;-1.54;-0.25;-0.940926;-0.385397;0.026885;0.0;0.0;96.9;0.0;0.0;7.7
2.0;1753873620.946347;14.722002;0.76;-1.55;-0.2;-0.941058;-0.385894;0.026331;0.0;0.0;100.7;0.0;0.0;8.7
2.0;1753873620.950956;14.731361;0.93;-1.62;-0.35;-0.939465;-0.386578;0.024711;0.0;0.0;99.5;0.0;0.0;8.0
2.0;1753873620.955565;14.726959;0.79;-1.52;-0.29;-0.939689;-0.384968;0.025753;0.0;0.0;104.8;0.0;0.0;7.9
2.0;1753873620.960174;14.729713;0.85;-1.54;-0.3;-0.940265;-0.38839;0.027696;0.0;0.0;101.6;0.0;0.0;6.9
2.0;1753873620.964784;14.717562;0.86;-1.54;-0.28;-0.941808;-0.387258;0.027483;0.0;0.0;99.4;0.0;0.0;9.0
2.0;1753873620.969392;14.721704;0.77;-1.51;-0.27;-0.940281;-0.388735;0.026247;0.0;0.0;98.9;0.0;0.0;8.1
2.0;1753873620.974002;14.726827;0.83;-1.6;-0.3;-0.939825;-0.385423;0.026994;0.0;0.0;99.2;0.0;0.0;8.9
2.0;1753873620.9797;14.71875;0.84;-1.54;-0.28;-0.94062;-0.386496;0.026474;0.0;0.0;100.0;0.0;0.0;8.0
2.0;1753873620.983957;14.695312;0.98;-1.61;-0.28;-0.93879;-0.385886;0.02623;0.0;0.0;98.0;0.0;0.0;9.0
2.0;1753873620.98957;14.695312;0.98;-1.75;-0.28;-0.940376;-0.384544;0.02623;0.0;0.0;98.0;0.0;0.0;9.0
2.0;1753873620.993884;14.695312;0.98;-1.68;-0.35;-0.939034;-0.38613;0.024766;0.0;0.0;98.0;0.0;0.0;9.0
2.0;1753873620.999136;14.695312;0.98;-1.61;-0.35;-0.940254;-0.383934;0.025376;0.0;0.0;98.0;0.0;0.0;9.0
2.0;1753873621.003745;14.702861;1.01;-1.58;-0.4;-0.942162;-0.383001;0.024957;0.0;0.0;97.8;0.0;0.0;10.5
2.0;1753873621.008354;14.693634;0.89;-1.67;-0.36;-0.939629;-0.385915;0.026014;0.0;0.0;99.2;0.0;0.0;9.4
2.0;1753873621.012963;14.6667;1.01;-1.66;-0.33;-0.941822;-0.383302;0.025891;0.0;0.0;100.2;0.0;0.0;9.0
2.0;1753873621.017572;14.727163;0.97;-1.61;-0.29;-0.941215;-0.384034;0.026099;0.0;0.0;97.4;0.0;0.0;9.7
2.0;1753873621.022182;14.669924;0.98;-1.54;-0.38;-0.940658;-0.383891;0.025249;0.0;0.0;98.2;0.0;0.0;10.0
2.0;1753873621.02679;14.685115;0.98;-1.72;-0.31;-0.938729;-0.383007;0.024821;0.0;0.0;95.5;0.0;0.0;8.5
2.0;1753873621.0314;14.650011;0.91;-1.55;-0.37;-0.939565;-0.384512;0.025814;0.0;0.0;98.7;0.0;0.0;7.8
2.0;1753873621.036009;14.707464;1.06;-1.61;-0.36;-0.939351;-0.38729;0.025537;0.0;0.0;97.6;0.0;0.0;8.9
2.0;1753873621.040618;14.706943;1.05;-1.57;-0.34;-0.942201;-0.38611;0.026046;0.0;0.0;95.6;0.0;0.0;9.4
2.0;1753873621.045227;14.695473;0.97;-1.61;-0.36;-0.940441;-0.383726;0.025855;0.0;0.0;97.4;0.0;0.0;9.2
2.0;1753873621.049836;14.676081;1.16;-1.6;-0.32;-0.938654;-0.382531;0.027457;0.0;0.0;97.6;0.0;0.0;9.0
2.0;1753873621.054445;14.67419;1.06;-1.69;-0.32;-0.938616;-0.387424;0.025209;0.0;0.0;98.7;0.0;0.0;9.0
2.0;1753873621.059054;14.716126;0.96;-1.6;-0.31;-0.942424;-0.387364;0.025084;0.0;0.0;96.4;0.0;0.0;9.2
2.0;1753873621.063664;14.714425;1.02;-1.6;-0.35;-0.939018;-0.386934;0.024752;0.0;0.0;94.7;0.0;0.0;9.0
2.0;1753873621.068272;14.663544;0.93;-1.7;-0.36;-0.939782;-0.381168;0.025548;0.0;0.0;95.9;0.0;0.0;8.5
2.0;1753873621.072882;14.66136;0.99;-1.57;-0.36;-0.938539;-0.385363;0.025431;0.0;0.0;96.4;0.0;0.0;8.5
2.0;1753873621.077491;14.718805;1.02;-1.62;-0.37;-0.941048;-0.383937;0.024572;0.0;0.0;102.0;0.0;0.0;9.4
2.0;1753873621.0821;14.753577;0.93;-1.63;-0.26;-0.938549;-0.385843;0.025495;0.0;0.0;100.0;0.0;0.0;8.2
2.0;1753873621.086709;14.686696;1.05;-1.57;-0.32;-0.938094;-0.384682;0.024356;0.0;0.0;101.1;0.0;0.0;8.2
2.0;1753873621.091318;14.684688;0.99;-1.68;-0.33;-0.940358;-0.383958;0.025236;0.0;0.0;99.5;0.0;0.0;9.6
2.0;1753873621.095927;14.708193;1.06;-1.66;-0.34;-0.941219;-0.384154;0.026153;0.0;0.0;99.2;0.0;0.0;8.4
2.0;1753873621.100536;14.710419;1.01;-1.64;-0.24;-0.94178;-0.387345;0.025547;0.0;0.0;91.2;0.0;0.0;9.3
2.0;1753873621.105146;14.711969;1.07;-1.66;-0.28;-0.938668;-0.382504;0.025402;0.0;0.0;92.4;0.0;0.0;7.9
2.0;1753873621.109754;14.69485;0.96;-1.63;-0.33;-0.93756;-0.38494;0.024838;0.0;0.0;98.1;0.0;0.0;9.0
2.0;1753873621.114364;14.667538;0.95;-1.61;-0.36;-0.939963;-0.385687;0.027187;0.0;0.0;95.8;0.0;0.0;8.9
2.0;1753873621.118973;14.687926;0.95;-1.61;-0.34;-0.94054;-0.382469;0.026017;0.0;0.0;96.5;0.0;0.0;8.0
2.0;1753873621.123582;14.677424;0.98;-1.74;-0.3;-0.939393;-0.385705;0.025373;0.0;0.0;101.4;0.0;0.0;9.2
2.0;1753873621.128191;14.691071;1.11;-1.66;-0.33;-0.937856;-0.382858;0.026128;0.0;0.0;99.9;0.0;0.0;9.1
2.0;1753873621.1328;14.6727;0.99;-1.68;-0.27;-0.936944;-0.386612;0.024809;0.0;0.0;96.8;0.0;0.0;8.1
2.0;1753873621.137409;14.667735;0.92;-1.66;-0.32;-0.936846;-0.384474;0.02581;0.0;0.0;101.5;0.0;0.0;8.6
2.0;1753873621.142018;14.722325;1.01;-1.63;-0.33;-0.938752;-0.383665;0.026042;0.0;0.0;101.6;0.0;0.0;9.2
2.0;1753873621.146628;14.673295;1.12;-1.65;-0.36;-0.938448;-0.38243;0.024912;0.0;0.0;98.8;0.0;0.0;8.5
2.0;1753873621.151236;14.692494;0.97;-1.58;-0.26;-0.939816;-0.385925;0.024845;0.0;0.0;92.6;0.0;0.0;8.4
2.0;1753873621.155846;14.668081;0.97;-1.6;-0.28;-0.939005;-0.388124;0.025515;0.0;0.0;94.9;0.0;0.0;8.7
2.0;1753873621.160455;14.6772;1.01;-1.69;-0.27;-0.9401;-0.384923;0.024062;0.0;0.0;96.9;0.0;0.0;8.9
2.0;1753873621.165064;14.691735;0.99;-1.65;-0.34;-0.939852;-0.388224;0.026126;0.0;0.0;99.3;0.0;0.0;8.7
2.0;1753873621.169673;14.704405;1.05;-1.69;-0.33;-0.94085;-0.385791;0.024516;0.0;0.0;94.8;0.0;0.0;9.5
2.0;1753873621.174282;14.650032;1.11;-1.62;-0.31;-0.941549;-0.386222;0.026371;0.0;0.0;97.6;0.0;0.0;8.6
2.0;1753873621.178891;14.673094;1.06;-1.66;-0.36;-0.938177;-0.387138;0.025301;0.0;0.0;99.1;0.0;0.0;9.3
2.0;1753873621.1835;14.698115;1.06;-1.65;-0.28;-0.938279;-0.387806;0.026149;0.0;0.0;91.8;0.0;0.0;8.4
2.0;1753873621.18811;14.716459;1.0;-1.65;-0.28;-0.937319;-0.385441;0.025832;0.0;0.0;98.5;0.0;0.0;8.3
2.0;1753873621.192718;14.671031;0.98;-1.71;-0.26;-0.9386;-0.386064;0.025958;0.0;0.0;98.7;0.0;0.0;9.3
2.0;1753873621.197328;14.682606;1.15;-1.73;-0.31;-0.938862;-0.386531;0.025915;0.0;0.0;98.8;0.0;0.0;9.7
2.0;1753873621.201937;14.668795;1.15;-1.62;-0.34;-0.939177;-0.386504;0.024641;0.0;0.0;100.8;0.0;0.0;9.0
2.0;1753873621.206546;14.660614;1.0;-1.61;-0.29;-0.939402;-0.387866;0.026583;0.0;0.0;92.7;0.0;0.0;9.0
2.0;1753873621.211155;14.687939;1.03;-1.66;-0.28;-0.939592;-0.386292;0.025618;0.0;0.0;95.4;0.0;0.0;8.3
2.0;1753873621.215764;14.652652;1.03;-1.62;-0.31;-0.937008;-0.388008;0.025941;0.0;0.0;96.0;0.0;0.0;9.5
2.0;1753873621.220373;14.699535;1.14;-1.69;-0.22;-0.940081;-0.383674;0.025389;0.0;0.0;101.2;0.0;0.0;9.2
2.0;1753873621.224982;14.720764;1.01;-1.65;-0.35;-0.937296;-0.388253;0.025421;0.0;0.0;95.6;0.0;0.0;8.1
2.0;1753873621.229591;14.712048;1.15;-1.69;-0.25;-0.937062;-0.38851;0.026734;0.0;0.0;99.1;0.0;0.0;8.9
2.0;1753873621.2342;14.701895;1.05;-1.64;-0.3;-0.938072;-0.387188;0.024911;0.0;0.0;95.3;0.0;0.0;8.4
2.0;1753873621.23881;14.715004;0.95;-1.71;-0.31;-0.94066;-0.386162;0.025398;0.0;0.0;98.7;0.0;0.0;8.5
2.0;1753873621.243419;14.701373;1.1;-1.65;-0.34;-0.939317;-0.387642;0.025234;0.0;0.0;95.7;0.0;0.0;9.4
2.0;1753873621.248028;14.659292;1.0;-1.68;-0.23;-0.938012;-0.386904;0.025108;0.0;0.0;98.8;0.0;0.0;8.5
2.0;1753873621.2555;14.6875;1.05;-1.68;-0.28;-0.938546;-0.386862;0.025864;0.0;0.0;98.0;0.0;0.0;9.0
2.0;1753873621.260109;14.663498;1.1;-1.64;-0.33;-0.938047;-0.386152;0.025647;0.0;0.0;97.1;0.0;0.0;8.3
2.0;1753873621.264718;14.678455;0.98;-1.56;-0.34;-0.934682;-0.388756;0.026152;0.0;0.0;99.1;0.0;0.0;9.4
2.0;1753873621.269328;14.647648;1.11;-1.67;-0.28;-0.938597;-0.386274;0.026062;0.0;0.0;98.2;0.0;0.0;9.2
2.0;1753873621.273936;14.705337;1.1;-1.7;-0.27;-0.937508;-0.386088;0.024816;0.0;0.0;95.8;0.0;0.0;8.9
2.0;1753873621.278546;14.677066;0.98;-1.7;-0.26;-0.938422;-0.386495;0.026809;0.0;0.0;99.4;0.0;0.0;8.8
2.0;1753873621.283155;14.664111;1.07;-1.72;-0.28;-0.937535;-0.388054;0.025509;0.0;0.0;98.8;0.0;0.0;8.6
2.0;1753873621.287764;14.681638;1.12;-1.7;-0.3;-0.939968;-0.387498;0.025632;0.0;0.0;102.0;0.0;0.0;9.3
2.0;1753873621.292373;14.678393;0.97;-1.72;-0.25;-0.938048;-0.389492;0.02475;0.0;0.0;96.9;0.0;0.0;8.7
2.0;1753873621.296982;14.701385;1.09;-1.69;-0.28;-0.937932;-0.385886;0.026453;0.0;0.0;99.9;0.0;0.0;8.9
2.0;1753873621.301591;14.713847;1.09;-1.68;-0.3;-0.938363;-0.387482;0.026138;0.0;0.0;100.3;0.0;0.0;9.7
2.0;1753873621.3062;14.752627;1.01;-1.62;-0.33;-0.938909;-0.387285;0.026704;0.0;0.0;92.8;0.0;0.0;8.6
2.0;1753873621.310809;14.715262;0.98;-1.66;-0.27;-0.939318;-0.385396;0.024833;0.0;0.0;91.8;0.0;0.0;9.2
2.0;1753873621.315418;14.658049;1.18;-1.69;-0.27;-0.937257;-0.386689;0.026617;0.0;0.0;104.2;0.0;0.0;9.0
2.0;1753873621.320028;14.659274;0.96;-1.66;-0.25;-0.938186;-0.387574;0.025072;0.0;0.0;100.7;0.0;0.0;10.3
2.0;1753873621.324637;14.691846;1.11;-1.73;-0.28;-0.936773;-0.385367;0.026009;0.0;0.0;96.9;0.0;0.0;9.0
2.0;1753873621.329246;14.713492;1.06;-1.75;-0.26;-0.936562;-0.389308;0.027084;0.0;0.0;96.4;0.0;0.0;9.2
2.0;1753873621.333855;14.684883;1.05;-1.74;-0.34;-0.938525;-0.385634;0.026949;0.0;0.0;97.7;0.0;0.0;8.9
2.0;1753873621.338464;14.725968;1.1;-1.68;-0.29;-0.939442;-0.389261;0.026672;0.0;0.0;98.9;0.0;0.0;8.8
2.0;1753873621.343073;14.632107;1.03;-1.62;-0.29;-0.940914;-0.387669;0.02536;0.0;0.0;94.7;0.0;0.0;8.1
2.0;1753873621.347682;14.693378;1.17;-1.6;-0.3;-0.940302;-0.386716;0.025632;0.0;0.0;100.9;0.0;0.0;10.6
2.0;1753873621.352291;14.698342;1.01;-1.61;-0.28;-0.939165;-0.388122;0.025915;0.0;0.0;95.7;0.0;0.0;9.7
2.0;1753873621.3569;14.721232;1.07;-1.65;-0.27;-0.94025;-0.387202;0.025942;0.0;0.0;95.6;0.0;0.0;8.8
2.0;1753873621.36151;14.662156;1.03;-1.67;-0.33;-0.940567;-0.386763;0.026939;0.0;0.0;97.5;0.0;0.0;9.5
2.0;1753873621.366119;14.683614;1.03;-1.61;-0.33;-0.938215;-0.386504;0.026567;0.0;0.0;101.8;0.0;0.0;9.2
2.0;1753873621.370728;14.692889;1.16;-1.66;-0.3;-0.939265;-0.387138;0.026694;0.0;0.0;100.8;0.0;0.0;8.8
2.0;1753873621.375337;14.662416;0.93;-1.65;-0.37;-0.94038;-0.385035;0.025026;0.0;0.0;96.5;0.0;0.0;8.9
2.0;1753873621.379946;14.70525;0.95;-1.64;-0.34;-0.937083;-0.386487;0.025523;0.0;0.0;100.0;0.0;0.0;8.9
2.0;1753873621.384555;14.669786;0.9;-1.62;-0.32;-0.939273;-0.385693;0.026983;0.0;0.0;98.0;0.0;0.0;8.2
2.0;1753873621.389164;14.690741;1.0;-1.72;-0.28;-0.937491;-0.386124;0.025533;0.0;0.0;99.7;0.0;0.0;8.9
2.0;1753873621.393773;14.695931;1.0;-1.7;-0.31;-0.939442;-0.385228;0.025818;0.0;0.0;101.5;0.0;0.0;9.8
2.0;1753873621.398382;14.695582;0.96;-1.66;-0.3;-0.939547;-0.386309;0.025777;0.0;0.0;101.2;0.0;0.0;8.9
2.0;1753873621.402992;14.646491;0.88;-1.68;-0.42;-0.93962;-0.385827;0.026771;0.0;0.0;95.4;0.0;0.0;9.6
2.0;1753873621.407601;14.666841;1.06;-1.71;-0.27;-0.938488;-0.383116;0.0276;0.0;0.0;104.0;0.0;0.0;8.6
2.0;1753873621.41221;14.700286;0.99;-1.73;-0.29;-0.940881;-0.386019;0.025454;0.0;0.0;97.7;0.0;0.0;9.2
2.0;1753873621.416819;14.709525;1.01;-1.62;-0.23;-0.93942;-0.385405;0.026735;0.0;0.0;94.9;0.0;0.0;8.9
2.0;1753873621.421428;14.687033;1.01;-1.6;-0.33;-0.937793;-0.385381;0.025683;0.0;0.0;99.8;0.0;0.0;9.4
2.0;1753873621.426037;14.688482;1.0;-1.64;-0.23;-0.939761;-0.386745;0.026609;0.0;0.0;98.9;0.0;0.0;9.5
2.0;1753873621.430646;14.71302;0.95;-1.63;-0.26;-0.938363;-0.384356;0.027656;0.0;0.0;94.6;0.0;0.0;8.7
2.0;1753873621.435255;14.701921;0.97;-1.7;-0.26;-0.937512;-0.387138;0.026146;0.0;0.0;94.3;0.0;0.0;8.0
2.0;1753873621.439864;14.69648;1.0;-1.56;-0.32;-0.938722;-0.386524;0.026735;0.0;0.0;100.4;0.0;0.0;9.5
2.0;1753873621.444474;14.639446;0.96;-1.61;-0.3;-0.940412;-0.387299;0.027092;0.0;0.0;100.0;0.0;0.0;8.7
2.0;1753873621.449082;14.701711;1.0;-1.6;-0.34;-0.939564;-0.385502;0.026431;0.0;0.0;95.9;0.0;0.0;8.7
2.0;1753873621.453692;14.686582;1.03;-1.65;-0.29;-0.940707;-0.386595;0.027065;0.0;0.0;97.4;0.0;0.0;8.3
2.0;1753873621.458301;14.611686;1.13;-1.64;-0.35;-0.938863;-0.385471;0.025924;0.0;0.0;94.7;0.0;0.0;10.1
2.0;1753873621.46291;14.654362;0.86;-1.69;-0.33;-0.940107;-0.386428;0.027617;0.0;0.0;96.2;0.0;0.0;8.8
2.0;1753873621.467519;14.654027;0.93;-1.72;-0.31;-0.938905;-0.38477;0.026365;0.0;0.0;97.4;0.0;0.0;9.1
2.0;1753873621.472128;14.705883;0.89;-1.63;-0.33;-0.940354;-0.387106;0.027338;0.0;0.0;97.0;0.0;0.0;9.7
2.0;1753873621.476737;14.737705;0.9;-1.61;-0.23;-0.939367;-0.387169;0.026124;0.0;0.0;104.3;0.0;0.0;8.3
2.0;1753873621.481346;14.73886;1.03;-1.65;-0.39;-0.938832;-0.386834;0.026196;0.0;0.0;104.2;0.0;0.0;8.8
2.0;1753873621.485956;14.689932;0.91;-1.58;-0.27;-0.939403;-0.383789;0.027991;0.0;0.0;94.1;0.0;0.0;9.3
2.0;1753873621.490564;14.678793;1.02;-1.68;-0.33;-0.940179;-0.385227;0.025927;0.0;0.0;102.0;0.0;0.0;9.0
2.0;1753873621.495174;14.693047;0.92;-1.7;-0.33;-0.93864;-0.387636;0.026323;0.0;0.0;93.2;0.0;0.0;8.7
2.0;1753873621.499783;14.691884;0.87;-1.65;-0.33;-0.939259;-0.386292;0.026198;0.0;0.0;98.8;0.0;0.0;9.1
2.0;1753873621.504392;14.693017;0.91;-1.65;-0.3;-0.939614;-0.385873;0.026206;0.0;0.0;100.9;0.0;0.0;9.9
2.0;1753873621.509001;14.658049;0.96;-1.65;-0.33;-0.939853;-0.386872;0.026684;0.0;0.0;95.8;0.0;0.0;8.8
2.0;1753873621.51361;14.678052;0.92;-1.64;-0.28;-0.940605;-0.38541;0.026177;0.0;0.0;94.5;0.0;0.0;8.8
2.0;1753873621.518219;14.668376;0.95;-1.6;-0.34;-0.937281;-0.385063;0.02644;0.0;0.0;97.2;0.0;0.0;8.7
2.0;1753873621.522828;14.662339;0.97;-1.66;-0.33;-0.939088;-0.384979;0.02685;0.0;0.0;100.3;0.0;0.0;8.6
2.0;1753873621.527438;14.690056;0.94;-1.64;-0.31;-0.940364;-0.387407;0.026111;0.0;0.0;98.3;0.0;0.0;8.5
2.0;1753873621.532046;14.69747;0.99;-1.66;-0.3;-0.940553;-0.386503;0.026314;0.0;0.0;98.4;0.0;0.0;9.1
2.0;1753873621.536656;14.686199;0.92;-1.71;-0.37;-0.939859;-0.385309;0.026421;0.0;0.0;99.9;0.0;0.0;9.7
2.0;1753873621.541265;14.667171;0.92;-1.6;-0.31;-0.940105;-0.385439;0.025979;0.0;0.0;99.6;0.0;0.0;9.3
2.0;1753873621.545874;14.693199;0.99;-1.62;-0.29;-0.939321;-0.385065;0.02689;0.0;0.0;99.4;0.0;0.0;9.1
2.0;1753873621.550483;14.655726;1.04;-1.62;-0.34;-0.94132;-0.384354;0.026791;0.0;0.0;101.7;0.0;0.0;9.0
2.0;1753873621.555092;14.710861;0.98;-1.6;-0.34;-0.937866;-0.384219;0.026715;0.0;0.0;99.4;0.0;0.0;8.0
2.0;1753873621.559701;14.719452;0.83;-1.64;-0.35;-0.936615;-0.38545;0.026647;0.0;0.0;102.0;0.0;0.0;9.4
2.0;1753873621.56431;14.684876;0.85;-1.63;-0.37;-0.939411;-0.38407;0.027161;0.0;0.0;97.4;0.0;0.0;8.1
2.0;1753873621.56892;14.708636;0.95;-1.71;-0.32;-0.938604;-0.383542;0.027693;0.0;0.0;96.5;0.0;0.0;8.3
2.0;1753873621.573528;14.680992;0.87;-1.62;-0.33;-0.942376;-0.385082;0.026844;0.0;0.0;104.9;0.0;0.0;9.0
2.0;1753873621.578138;14.695907;0.82;-1.7;-0.3;-0.93912;-0.386743;0.026039;0.0;0.0;95.8;0.0;0.0;9.0
2.0;1753873621.582747;14.652794;0.92;-1.62;-0.3;-0.939127;-0.388046;0.026067;0.0;0.0;90.6;0.0;0.0;9.4
2.0;1753873621.587356;14.701046;0.94;-1.56;-0.37;-0.94029;-0.388156;0.027;0.0;0.0;100.2;0.0;0.0;8.7
2.0;1753873621.591965;14.721163;0.94;-1.65;-0.33;-0.940242;-0.38695;0.027029;0.0;0.0;107.0;0.0;0.0;8.8
2.0;1753873621.596574;14.688909;1.03;-1.68;-0.32;-0.940085;-0.386285;0.026954;0.0;0.0;95.8;0.0;0.0;9.2
2.0;1753873621.601183;14.643679;0.9;-1.71;-0.35;-0.941183;-0.385707;0.026524;0.0;0.0;96.6;0.0;0.0;9.6
2.0;1753873621.605792;14.691727;0.85;-1.67;-0.32;-0.939812;-0.387424;0.02639;0.0;0.0;97.3;0.0;0.0;8.6
2.0;1753873621.610402;14.665411;0.87;-1.69;-0.27;-0.93904;-0.385942;0.026539;0.0;0.0;95.9;0.0;0.0;8.6
2.0;1753873621.61501;14.680842;0.78;-1.62;-0.33;-0.938361;-0.385988;0.026055;0.0;0.0;99.8;0.0;0.0;8.3
2.0;1753873621.61962;14.696364;0.95;-1.58;-0.34;-0.939731;-0.384707;0.027709;0.0;0.0;94.7;0.0;0.0;9.4
2.0;1753873621.624229;14.658888;0.92;-1.6;-0.35;-0.93866;-0.385124;0.026079;0.0;0.0;95.5;0.0;0.0;8.5
2.0;1753873621.628838;14.662357;0.99;-1.61;-0.38;-0.939543;-0.384092;0.027976;0.0;0.0;99.6;0.0;0.0;9.0
2.0;1753873621.633447;14.6874;0.87;-1.57;-0.35;-0.940602;-0.386366;0.026371;0.0;0.0;100.6;0.0;0.0;9.0
2.0;1753873621.638056;14.72369;0.89;-1.63;-0.33;-0.939344;-0.387807;0.026092;0.0;0.0;98.3;0.0;0.0;9.3
2.0;1753873621.642665;14.723249;1.04;-1.68;-0.3;-0.939867;-0.386426;0.027092;0.0;0.0;98.8;0.0;0.0;9.8
2.0;1753873621.647274;14.677999;0.92;-1.62;-0.36;-0.937776;-0.384408;0.026006;0.0;0.0;99.8;0.0;0.0;9.1
2.0;1753873621.651883;14.67687;0.96;-1.47;-0.38;-0.940193;-0.386615;0.026342;0.0;0.0;99.2;0.0;0.0;9.2
2.0;1753873621.656492;14.676004;0.94;-1.62;-0.39;-0.938726;-0.383856;0.026337;0.0;0.0;97.7;0.0;0.0;10.3
2.0;1753873621.661102;14.674069;0.9;-1.64;-0.32;-0.938944;-0.388764;0.027349;0.0;0.0;97.2;0.0;0.0;8.8
2.0;1753873621.665711;14.709535;0.82;-1.52;-0.28;-0.939769;-0.387542;0.026416;0.0;0.0;97.0;0.0;0.0;8.3
2.0;1753873621.67032;14.655891;0.97;-1.72;-0.31;-0.939679;-0.384245;0.025848;0.0;0.0;99.7;0.0;0.0;8.0
2.0;1753873621.674929;14.664551;0.87;-1.59;-0.45;-0.939353;-0.389088;0.027303;0.0;0.0;96.0;0.0;0.0;9.4
2.0;1753873621.679538;14.72107;0.94;-1.58;-0.35;-0.939567;-0.38667;0.025249;0.0;0.0;94.3;0.0;0.0;8.5
2.0;1753873621.684147;14.695519;0.97;-1.66;-0.32;-0.94176;-0.384636;0.026211;0.0;0.0;95.3;0.0;0.0;8.2
2.0;1753873621.688756;14.699403;0.97;-1.67;-0.34;-0.94018;-0.386471;0.028058;0.0;0.0;96.4;0.0;0.0;8.4
2.0;1753873621.693365;14.677924;0.91;-1.63;-0.38;-0.940353;-0.38522;0.027012;0.0;0.0;96.0;0.0;0.0;9.2
2.0;1753873621.697974;14.700621;0.91;-1.65;-0.36;-0.940237;-0.38742;0.026494;0.0;0.0;99.4;0.0;0.0;8.8
2.0;1753873621.7038;14.6875;0.91;-1.61;-0.35;-0.940132;-0.38552;0.026962;0.0;0.0;98.0;0.0;0.0;9.0
2.0;1753873621.70959;14.679688;0.91;-1.61;-0.35;-0.939522;-0.385276;0.025132;0.0;0.0;95.0;0.0;0.0;7.0
2.0;1753873621.714199;14.675751;0.96;-1.62;-0.31;-0.939714;-0.385442;0.02576;0.0;0.0;90.0;0.0;0.0;6.7
2.0;1753873621.718808;14.676645;0.93;-1.67;-0.33;-0.940087;-0.385644;0.02482;0.0;0.0;97.7;0.0;0.0;7.1
2.0;1753873621.723417;14.701665;0.83;-1.63;-0.34;-0.939636;-0.386142;0.0251;0.0;0.0;94.8;0.0;0.0;6.6
2.0;1753873621.728026;14.6485;0.94;-1.65;-0.37;-0.939308;-0.385838;0.025466;0.0;0.0;96.5;0.0;0.0;7.5
2.0;1753873621.732636;14.675445;0.96;-1.56;-0.33;-0.939958;-0.385524;0.026001;0.0;0.0;94.2;0.0;0.0;6.6
2.0;1753873621.737244;14.685486;0.88;-1.63;-0.34;-0.940424;-0.384768;0.026369;0.0;0.0;95.4;0.0;0.0;5.5
2.0;1753873621.741854;14.688553;0.9;-1.72;-0.29;-0.939353;-0.384822;0.025979;0.0;0.0;95.1;0.0;0.0;6.3
2.0;1753873621.746463;14.733204;0.91;-1.73;-0.29;-0.939685;-0.38424;0.025984;0.0;0.0;93.2;0.0;0.0;8.6
2.0;1753873621.751072;14.696405;1.02;-1.69;-0.28;-0.939089;-0.38516;0.026257;0.0;0.0;95.9;0.0;0.0;6.6
2.0;1753873621.755681;14.689123;0.99;-1.65;-0.26;-0.940369;-0.384386;0.026138;0.0;0.0;94.2;0.0;0.0;8.6
2.0;1753873621.76029;14.703053;0.93;-1.77;-0.19;-0.940295;-0.384787;0.025661;0.0;0.0;95.2;0.0;0.0;6.4
2.0;1753873621.764899;14.700326;1.01;-1.69;-0.29;-0.941091;-0.385885;0.025689;0.0;0.0;94.0;0.0;0.0;6.6
2.0;1753873621.769508;14.676028;0.95;-1.69;-0.33;-0.939452;-0.385651;0.026046;0.0;0.0;95.5;0.0;0.0;8.2
2.0;1753873621.774118;14.679314;0.98;-1.82;-0.27;-0.941966;-0.385927;0.026276;0.0;0.0;91.9;0.0;0.0;8.0
2.0;1753873621.778726;14.71105;0.95;-1.67;-0.29;-0.941449;-0.385887;0.026963;0.0;0.0;95.1;0.0;0.0;7.8
2.0;1753873621.78531;14.703125;0.98;-1.75;-0.28;-0.941108;-0.385032;0.026718;0.0;0.0;95.0;0.0;0.0;7.0
2.0;1753873621.789919;14.696385;0.94;-1.7;-0.24;-0.940673;-0.385873;0.025728;0.0;0.0;92.2;0.0;0.0;7.2
2.0;1753873621.794528;14.714467;0.97;-1.52;-0.28;-0.937904;-0.387173;0.026925;0.0;0.0;94.2;0.0;0.0;6.1
2.0;1753873621.79984;14.703125;0.98;-1.61;-0.28;-0.938912;-0.387106;0.025254;0.0;0.0;95.0;0.0;0.0;7.0
2.0;1753873621.804449;14.681296;0.93;-1.59;-0.33;-0.940465;-0.38493;0.025177;0.0;0.0;96.5;0.0;0.0;8.1
2.0;1753873621.809058;14.69016;0.91;-1.6;-0.21;-0.937259;-0.38715;0.02554;0.0;0.0;91.5;0.0;0.0;7.0
2.0;1753873621.813667;14.702087;0.86;-1.72;-0.29;-0.940193;-0.38546;0.02592;0.0;0.0;94.4;0.0;0.0;7.1
