DeviceID;Timestamp;Temperature;GyroX;GyroY;GyroZ;AccelX;AccelY;AccelZ;Dist1;Dist2;Dist3;Err1;Err2;Err3
3.0;1753880846.552078;16.316406;0.7;-1.26;-0.21;0.821548;0.547902;0.007686;0.0;0.0;0.0;0.0;0.0;0.0
3.0;1753880846.556749;16.261719;0.63;-1.4;-0.28;0.820084;0.547902;0.007076;0.0;0.0;0.0;0.0;0.0;0.0
3.0;1753880846.561439;16.261719;0.7;-1.4;-0.21;0.821426;0.54717;0.006832;0.0;0.0;0.0;0.0;0.0;0.0
3.0;1753880846.567751;16.261719;0.7;-1.4;-0.28;0.821792;0.549488;0.010248;0.0;0.0;0.0;0.0;0.0;0.0
3.0;1753880846.570883;16.261719;0.77;-1.33;-0.21;0.821426;0.547536;0.008174;0.0;0.0;0.0;0.0;0.0;0.0
3.0;1753880846.575729;16.257812;0.77;-1.33;-0.28;0.821548;0.548268;0.007808;0.0;0.0;0.0;0.0;0.0;0.0
3.0;1753880846.580463;16.255929;0.28;-0.89;2.23;0.848768;0.584044;-0.006454;1.3;-0.2;-0.1;0.1;-0.0;0.0
3.0;1753880846.585621;16.257812;0.77;-1.33;-0.21;0.820816;0.547414;0.007564;0.0;0.0;0.0;0.0;0.0;0.0
3.0;1753880846.590499;16.257812;0.77;-1.4;-0.28;0.820816;0.547048;0.007076;0.0;0.0;0.0;0.0;0.0;0.0
3.0;1753880846.597451;16.375;0.63;-1.4;-0.28;0.821304;0.548268;0.008174;0.0;0.0;0.0;0.0;0.0;0.0
3.0;1753880846.59882;16.375;0.77;-1.33;-0.21;0.822158;0.547658;0.00854;0.0;0.0;0.0;0.0;0.0;0.0
3.0;1753880846.603544;16.375;0.7;-1.26;-0.28;0.821182;0.548024;0.009028;0.0;0.0;0.0;0.0;0.0;0.0
3.0;1753880846.608242;16.375;0.77;-1.33;-0.21;0.820206;0.548146;0.009516;0.0;0.0;0.0;0.0;0.0;0.0
3.0;1753880846.612872;16.28125;0.77;-1.33;-0.28;0.821426;0.546682;0.007198;0.0;0.0;0.0;0.0;0.0;0.0
3.0;1753880846.617823;16.28125;0.63;-1.4;-0.28;0.821426;0.54839;0.008052;0.0;0.0;0.0;0.0;0.0;0.0
3.0;1753880846.622219;16.28125;0.7;-1.26;-0.28;0.821792;0.547414;0.00793;0.0;0.0;0.0;0.0;0.0;0.0
3.0;1753880846.626933;16.28125;0.7;-1.26;-0.28;0.82045;0.546438;0.008174;0.0;0.0;0.0;0.0;0.0;0.0
3.0;1753880846.633573;16.324219;0.7;-1.26;-0.21;0.821792;0.546194;0.008418;0.0;0.0;0.0;0.0;0.0;0.0
3.0;1753880846.638433;16.324219;0.7;-1.33;-0.21;0.820328;0.548878;0.008052;0.0;0.0;0.0;0.0;0.0;0.0
3.0;1753880846.645949;16.324219;0.77;-1.33;-0.21;0.82106;0.548512;0.007442;0.0;0.0;0.0;0.0;0.0;0.0
3.0;1753880846.650442;16.289062;0.77;-1.33;-0.21;0.82106;0.548512;0.007442;0.0;0.0;0.0;0.0;0.0;0.0
3.0;1753880846.655017;16.289062;0.84;-1.33;-0.14;0.821304;0.547414;0.009516;0.0;0.0;0.0;0.0;0.0;0.0
3.0;1753880846.659908;16.289062;0.7;-1.4;-0.14;0.820816;0.547414;0.00732;0.0;0.0;0.0;0.0;0.0;0.0
3.0;1753880846.66455;16.289062;0.63;-1.26;-0.21;0.821426;0.546438;0.008662;0.0;0.0;0.0;0.0;0.0;0.0
3.0;1753880846.669572;16.289062;0.7;-1.26;-0.21;0.821792;0.548756;0.00793;0.0;0.0;0.0;0.0;0.0;0.0
3.0;1753880846.674406;16.289062;0.77;-1.33;-0.14;0.821304;0.546682;0.007564;0.0;0.0;0.0;0.0;0.0;0.0
3.0;1753880846.67914;16.270057;0.75;-1.4;-0.19;0.821166;0.546721;0.007704;0.0;0.0;0.0;0.0;0.0;0.0
3.0;1753880846.683502;16.289062;0.7;-1.33;-0.14;0.821914;0.546804;0.00732;0.0;0.0;0.0;0.0;0.0;0.0
3.0;1753880846.688285;16.28125;0.7;-1.33;-0.21;0.821182;0.54839;0.00732;0.0;0.0;0.0;0.0;0.0;0.0
3.0;1753880846.69444;16.28125;0.7;-1.33;-0.28;0.820328;0.548146;0.008418;0.0;0.0;0.0;0.0;0.0;0.0
3.0;1753880846.697079;16.28125;0.77;-1.26;-0.35;0.822158;0.547536;0.008906;0.0;0.0;0.0;0.0;0.0;0.0
3.0;1753880846.701814;16.28125;0.63;-1.26;-0.28;0.822524;0.54839;0.007564;0.0;0.0;0.0;0.0;0.0;0.0
3.0;1753880846.706944;16.265625;0.63;-1.26;-0.14;0.82167;0.547658;0.008174;0.0;0.0;0.0;0.0;0.0;0.0
3.0;1753880846.711148;16.265625;0.7;-1.26;-0.28;0.82167;0.547902;0.007564;0.0;0.0;0.0;0.0;0.0;0.0
3.0;1753880846.715875;16.265625;0.63;-1.26;-0.21;0.819962;0.547536;0.008174;0.0;0.0;0.0;0.0;0.0;0.0
3.0;1753880846.720535;16.265625;0.7;-1.26;-0.28;0.82167;0.54778;0.00854;0.0;0.0;0.0;0.0;0.0;0.0
3.0;1753880846.725274;16.296875;0.7;-1.33;-0.21;0.821304;0.548146;0.007808;0.0;0.0;0.0;0.0;0.0;0.0
3.0;1753880846.731656;16.296875;0.7;-1.33;-0.21;0.82228;0.547658;0.009028;0.0;0.0;0.0;0.0;0.0;0.0
3.0;1753880846.736087;16.296875;0.7;-1.33;-0.21;0.821914;0.547536;0.00854;0.0;0.0;0.0;0.0;0.0;0.0
3.0;1753880846.743189;16.296875;0.63;-1.4;-0.21;0.821182;0.54717;0.008052;0.0;0.0;0.0;0.0;0.0;0.0
3.0;1753880846.74387;16.308594;0.77;-1.33;-0.35;0.820938;0.548024;0.00732;0.0;0.0;0.0;0.0;0.0;0.0
3.0;1753880846.749089;16.308594;0.7;-1.33;-0.21;0.822158;0.54778;0.008174;0.0;0.0;0.0;0.0;0.0;0.0
3.0;1753880846.753511;16.308594;0.63;-1.19;-0.21;0.823012;0.546316;0.008418;0.0;0.0;0.0;0.0;0.0;0.0
3.0;1753880846.757861;16.308594;0.7;-1.26;-0.21;0.823012;0.546316;0.008418;0.0;0.0;0.0;0.0;0.0;0.0
3.0;1753880846.762638;16.347656;0.7;-1.26;-0.21;0.822158;0.54717;0.01037;0.0;0.0;0.0;0.0;0.0;0.0
3.0;1753880846.767909;16.347656;0.7;-1.33;-0.28;0.821304;0.54778;0.009272;0.0;0.0;0.0;0.0;0.0;0.0
3.0;1753880846.771982;16.347656;0.77;-1.4;-0.21;0.821914;0.547048;0.009028;0.0;0.0;0.0;0.0;0.0;0.0
3.0;1753880846.776716;16.369308;0.72;-1.31;-0.13;0.823751;0.546874;0.008645;0.0;0.0;0.0;0.0;0.0;0.0
3.0;1753880846.781951;16.316406;0.7;-1.26;-0.21;0.82167;0.547414;0.008784;0.0;0.0;0.0;0.0;0.0;0.0
3.0;1753880846.790731;16.316406;0.7;-1.33;-0.14;0.820328;0.548146;0.008418;0.0;0.0;0.0;0.0;0.0;0.0
3.0;1753880846.795389;16.316406;0.77;-1.33;-0.14;0.820938;0.547536;0.008052;0.0;0.0;0.0;0.0;0.0;0.0
3.0;1753880846.800926;16.355469;0.77;-1.4;-0.14;0.821426;0.547902;0.006954;0.0;0.0;0.0;0.0;0.0;0.0
3.0;1753880846.806218;16.355469;0.77;-1.33;-0.21;0.821548;0.548512;0.008418;0.0;0.0;0.0;0.0;0.0;0.0
3.0;1753880846.80945;16.355469;0.7;-1.26;-0.28;0.821548;0.546804;0.00976;0.0;0.0;0.0;0.0;0.0;0.0
3.0;1753880846.814108;16.355469;0.7;-1.33;-0.21;0.821304;0.547536;0.00732;0.0;0.0;0.0;0.0;0.0;0.0
3.0;1753880846.818742;16.339844;0.7;-1.33;-0.21;0.822158;0.54839;0.008906;0.0;0.0;0.0;0.0;0.0;0.0
3.0;1753880846.824082;16.339844;0.77;-1.33;-0.21;0.82167;0.548878;0.00793;0.0;0.0;0.0;0.0;0.0;0.0
3.0;1753880846.829108;16.339844;0.77;-1.33;-0.21;0.821426;0.549;0.008418;0.0;0.0;0.0;0.0;0.0;0.0
3.0;1753880846.835724;16.339844;0.7;-1.4;-0.28;0.82167;0.548268;0.008784;0.0;0.0;0.0;0.0;0.0;0.0
3.0;1753880846.842372;16.296875;0.7;-1.26;-0.28;0.821548;0.548024;0.008784;0.0;0.0;0.0;0.0;0.0;0.0
3.0;1753880846.846854;16.296875;0.7;-1.26;-0.21;0.820206;0.548512;0.00793;0.0;0.0;0.0;0.0;0.0;0.0
3.0;1753880846.851553;16.296875;0.7;-1.26;-0.21;0.821792;0.548512;0.008052;0.0;0.0;0.0;0.0;0.0;0.0
3.0;1753880846.856226;16.28125;0.77;-1.26;-0.21;0.821426;0.546438;0.008784;0.0;0.0;0.0;0.0;0.0;0.0
3.0;1753880846.861711;16.28125;0.77;-1.26;-0.28;0.821182;0.548512;0.008418;0.0;0.0;0.0;0.0;0.0;0.0
3.0;1753880846.865577;16.28125;0.7;-1.33;-0.21;0.821548;0.547048;0.008052;0.0;0.0;0.0;0.0;0.0;0.0
3.0;1753880846.870263;16.28125;0.7;-1.33;-0.21;0.82228;0.548512;0.008052;0.0;0.0;0.0;0.0;0.0;0.0
3.0;1753880846.874997;16.281712;0.78;-1.37;-0.23;0.821654;0.549253;0.007964;0.0;0.0;0.0;0.0;0.0;0.0
3.0;1753880846.879496;16.28125;0.77;-1.4;-0.28;0.821426;0.548512;0.008906;0.0;0.0;0.0;0.0;0.0;0.0
3.0;1753880846.888321;16.28125;0.84;-1.26;-0.21;0.821548;0.54717;0.009882;0.0;0.0;0.0;0.0;0.0;0.0
3.0;1753880846.888931;16.28125;0.84;-1.4;-0.21;0.820084;0.547902;0.00671;0.0;0.0;0.0;0.0;0.0;0.0
3.0;1753880846.89366;16.308594;0.7;-1.26;-0.28;0.820938;0.547536;0.007198;0.0;0.0;0.0;0.0;0.0;0.0
3.0;1753880846.898336;16.308594;0.7;-1.26;-0.28;0.820328;0.546926;0.008418;0.0;0.0;0.0;0.0;0.0;0.0
3.0;1753880846.903758;16.308594;0.7;-1.33;-0.28;0.821304;0.547902;0.008296;0.0;0.0;0.0;0.0;0.0;0.0
3.0;1753880846.907689;16.308594;0.91;-1.4;-0.14;0.820572;0.54717;0.008174;0.0;0.0;0.0;0.0;0.0;0.0
3.0;1753880846.912358;16.28125;0.77;-1.4;-0.14;0.821426;0.548512;0.00793;0.0;0.0;0.0;0.0;0.0;0.0
3.0;1753880846.917009;16.28125;0.77;-1.47;-0.21;0.822524;0.54656;0.008784;0.0;0.0;0.0;0.0;0.0;0.0
3.0;1753880846.921743;16.29684;0.69;-1.42;-0.18;0.822221;0.546569;0.008784;0.0;0.0;0.0;0.0;0.0;0.0
3.0;1753880846.926369;16.28125;0.7;-1.4;-0.21;0.82228;0.548146;0.008296;0.0;0.0;0.0;0.0;0.0;0.0
3.0;1753880846.931661;16.273438;0.7;-1.33;-0.28;0.822646;0.548512;0.008418;0.0;0.0;0.0;0.0;0.0;0.0
3.0;1753880846.939008;16.273438;0.63;-1.33;-0.14;0.821548;0.547414;0.006954;0.0;0.0;0.0;0.0;0.0;0.0
3.0;1753880846.940404;16.273438;0.77;-1.19;-0.28;0.822036;0.54778;0.007808;0.0;0.0;0.0;0.0;0.0;0.0
3.0;1753880846.946559;16.273438;0.7;-1.33;-0.28;0.820328;0.549244;0.008662;0.0;0.0;0.0;0.0;0.0;0.0
3.0;1753880846.949759;16.296875;0.77;-1.26;-0.21;0.82106;0.548268;0.007808;0.0;0.0;0.0;0.0;0.0;0.0
3.0;1753880846.954491;16.296875;0.77;-1.33;-0.21;0.820328;0.547658;0.00915;0.0;0.0;0.0;0.0;0.0;0.0
3.0;1753880846.95907;16.296875;0.84;-1.26;-0.21;0.820328;0.547658;0.00915;0.0;0.0;0.0;0.0;0.0;0.0
3.0;1753880846.963853;16.296875;0.77;-1.4;-0.21;0.821548;0.547414;0.00915;0.0;0.0;0.0;0.0;0.0;0.0
3.0;1753880846.968539;16.332031;0.7;-1.33;-0.14;0.822036;0.547536;0.008662;0.0;0.0;0.0;0.0;0.0;0.0
3.0;1753880846.975897;16.332031;0.77;-1.33;-0.21;0.821792;0.54717;0.008296;0.0;0.0;0.0;0.0;0.0;0.0
3.0;1753880846.980696;16.332031;0.7;-1.26;-0.21;0.821426;0.548756;0.008906;0.0;0.0;0.0;0.0;0.0;0.0
3.0;1753880846.986815;16.332031;0.7;-1.33;-0.21;0.822524;0.54656;0.008662;0.0;0.0;0.0;0.0;0.0;0.0
3.0;1753880846.987191;16.28125;0.77;-1.4;-0.21;0.822036;0.548634;0.008174;0.0;0.0;0.0;0.0;0.0;0.0
3.0;1753880846.993116;16.28125;0.77;-1.4;-0.21;0.82106;0.546926;0.007808;0.0;0.0;0.0;0.0;0.0;0.0
3.0;1753880846.997783;16.28125;0.7;-1.26;-0.21;0.821426;0.547292;0.008662;0.0;0.0;0.0;0.0;0.0;0.0
3.0;1753880847.002517;16.260893;0.74;-1.19;-0.25;0.821647;0.547396;0.008356;0.0;0.0;0.0;0.0;0.0;0.0
3.0;1753880847.007251;16.305466;0.72;-1.21;-0.27;0.82193;0.546643;0.009086;0.0;0.0;0.0;0.0;0.0;0.0
3.0;1753880847.011985;16.297586;0.72;-1.29;-0.25;0.823046;0.546309;0.007736;0.0;0.0;0.0;0.0;0.0;0.0
3.0;1753880847.016719;16.304882;0.77;-1.28;-0.2;0.821048;0.546005;0.008927;0.0;0.0;0.0;0.0;0.0;0.0
3.0;1753880847.021453;16.291908;0.65;-1.34;-0.24;0.820606;0.546594;0.008816;0.0;0.0;0.0;0.0;0.0;0.0
3.0;1753880847.026187;16.281879;0.6;-1.22;-0.21;0.821813;0.546687;0.008028;0.0;0.0;0.0;0.0;0.0;0.0
3.0;1753880847.030921;16.241219;0.75;-1.15;-0.2;0.821951;0.546423;0.008348;0.0;0.0;0.0;0.0;0.0;0.0
3.0;1753880847.035655;16.308171;0.7;-1.34;-0.18;0.821147;0.547264;0.008628;0.0;0.0;0.0;0.0;0.0;0.0
3.0;1753880847.040389;16.262111;0.71;-1.26;-0.22;0.821159;0.548021;0.006895;0.0;0.0;0.0;0.0;0.0;0.0
3.0;1753880847.045123;16.249299;0.63;-1.33;-0.18;0.82136;0.547876;0.008534;0.0;0.0;0.0;0.0;0.0;0.0
3.0;1753880847.049858;16.261608;0.75;-1.31;-0.22;0.821973;0.547426;0.009027;0.0;0.0;0.0;0.0;0.0;0.0
3.0;1753880847.054592;16.281784;0.71;-1.23;-0.2;0.822091;0.546541;0.008936;0.0;0.0;0.0;0.0;0.0;0.0
3.0;1753880847.059326;16.285851;0.7;-1.22;-0.21;0.821257;0.547392;0.007235;0.0;0.0;0.0;0.0;0.0;0.0
3.0;1753880847.06406;16.274243;0.65;-1.25;-0.27;0.820665;0.548038;0.008383;0.0;0.0;0.0;0.0;0.0;0.0
3.0;1753880847.068794;16.273169;0.7;-1.28;-0.22;0.821775;0.546452;0.007856;0.0;0.0;0.0;0.0;0.0;0.0
3.0;1753880847.073528;16.29359;0.66;-1.39;-0.19;0.821343;0.547399;0.008061;0.0;0.0;0.0;0.0;0.0;0.0
3.0;1753880847.078262;16.282623;0.62;-1.27;-0.27;0.820536;0.546804;0.007898;0.0;0.0;0.0;0.0;0.0;0.0
3.0;1753880847.082996;16.311637;0.75;-1.33;-0.25;0.821172;0.548332;0.007815;0.0;0.0;0.0;0.0;0.0;0.0
3.0;1753880847.08773;16.29338;0.7;-1.3;-0.14;0.822009;0.547415;0.007793;0.0;0.0;0.0;0.0;0.0;0.0
3.0;1753880847.092464;16.308716;0.67;-1.3;-0.19;0.821708;0.546732;0.009275;0.0;0.0;0.0;0.0;0.0;0.0
3.0;1753880847.097198;16.259079;0.6;-1.36;-0.25;0.821285;0.546869;0.008351;0.0;0.0;0.0;0.0;0.0;0.0
3.0;1753880847.101932;16.305023;0.75;-1.31;-0.21;0.822204;0.548321;0.009059;0.0;0.0;0.0;0.0;0.0;0.0
3.0;1753880847.106666;16.29499;0.77;-1.37;-0.22;0.820206;0.54813;0.007865;0.0;0.0;0.0;0.0;0.0;0.0
3.0;1753880847.1114;16.277855;0.71;-1.27;-0.21;0.819801;0.54806;0.007626;0.0;0.0;0.0;0.0;0.0;0.0
3.0;1753880847.116134;16.306811;0.66;-1.26;-0.19;0.821706;0.548269;0.008546;0.0;0.0;0.0;0.0;0.0;0.0
3.0;1753880847.120868;16.287802;0.67;-1.39;-0.17;0.821535;0.548222;0.007061;0.0;0.0;0.0;0.0;0.0;0.0
3.0;1753880847.125602;16.300925;0.63;-1.38;-0.23;0.820317;0.547067;0.007569;0.0;0.0;0.0;0.0;0.0;0.0
3.0;1753880847.130336;16.301117;0.66;-1.43;-0.28;0.821514;0.547276;0.008081;0.0;0.0;0.0;0.0;0.0;0.0
3.0;1753880847.13507;16.28746;0.69;-1.39;-0.25;0.820768;0.547783;0.007427;0.0;0.0;0.0;0.0;0.0;0.0
3.0;1753880847.139804;16.241624;0.72;-1.36;-0.21;0.822766;0.547669;0.008713;0.0;0.0;0.0;0.0;0.0;0.0
3.0;1753880847.144538;16.315803;0.62;-1.41;-0.19;0.821359;0.546855;0.006535;0.0;0.0;0.0;0.0;0.0;0.0
3.0;1753880847.149272;16.290046;0.73;-1.42;-0.17;0.82095;0.547949;0.006966;0.0;0.0;0.0;0.0;0.0;0.0
3.0;1753880847.154006;16.345429;0.75;-1.41;-0.19;0.821768;0.547688;0.00863;0.0;0.0;0.0;0.0;0.0;0.0
3.0;1753880847.15874;16.267903;0.75;-1.38;-0.16;0.821601;0.547816;0.00823;0.0;0.0;0.0;0.0;0.0;0.0
3.0;1753880847.163474;16.269627;0.71;-1.31;-0.26;0.82196;0.547259;0.007284;0.0;0.0;0.0;0.0;0.0;0.0
3.0;1753880847.168208;16.28699;0.79;-1.26;-0.17;0.822178;0.54669;0.007129;0.0;0.0;0.0;0.0;0.0;0.0
3.0;1753880847.172942;16.266997;0.73;-1.37;-0.26;0.822206;0.548367;0.006809;0.0;0.0;0.0;0.0;0.0;0.0
3.0;1753880847.177676;16.26222;0.68;-1.28;-0.22;0.822185;0.548657;0.006781;0.0;0.0;0.0;0.0;0.0;0.0
3.0;1753880847.18241;16.311873;0.7;-1.51;-0.26;0.822398;0.54713;0.007175;0.0;0.0;0.0;0.0;0.0;0.0
3.0;1753880847.187144;16.320605;0.78;-1.35;-0.19;0.822037;0.548;0.007626;0.0;0.0;0.0;0.0;0.0;0.0
3.0;1753880847.191878;16.329951;0.76;-1.28;-0.23;0.821728;0.547559;0.008021;0.0;0.0;0.0;0.0;0.0;0.0
3.0;1753880847.196612;16.321979;0.65;-1.34;-0.23;0.821313;0.547288;0.007921;0.0;0.0;0.0;0.0;0.0;0.0
3.0;1753880847.201347;16.276702;0.69;-1.33;-0.16;0.821305;0.547817;0.007847;0.0;0.0;0.0;0.0;0.0;0.0
3.0;1753880847.206081;16.287609;0.75;-1.51;-0.13;0.821404;0.54852;0.006692;0.0;0.0;0.0;0.0;0.0;0.0
3.0;1753880847.210815;16.266921;0.73;-1.33;-0.17;0.81999;0.547632;0.006305;0.0;0.0;0.0;0.0;0.0;0.0
3.0;1753880847.215549;16.267802;0.61;-1.27;-0.2;0.822024;0.546661;0.007291;0.0;0.0;0.0;0.0;0.0;0.0
3.0;1753880847.220283;16.313281;0.58;-1.41;-0.22;0.822304;0.547966;0.007621;0.0;0.0;0.0;0.0;0.0;0.0
3.0;1753880847.225017;16.304835;0.76;-1.4;-0.24;0.821755;0.54719;0.00644;0.0;0.0;0.0;0.0;0.0;0.0
3.0;1753880847.229751;16.281412;0.68;-1.42;-0.21;0.823716;0.548264;0.007095;0.0;0.0;0.0;0.0;0.0;0.0
3.0;1753880847.234485;16.322494;0.72;-1.46;-0.16;0.822303;0.547919;0.006305;0.0;0.0;0.0;0.0;0.0;0.0
3.0;1753880847.239219;16.271832;0.68;-1.25;-0.28;0.822038;0.547548;0.007408;0.0;0.0;0.0;0.0;0.0;0.0
3.0;1753880847.243953;16.276877;0.73;-1.46;-0.14;0.821726;0.548866;0.006578;0.0;0.0;0.0;0.0;0.0;0.0
3.0;1753880847.248687;16.282295;0.65;-1.44;-0.26;0.821747;0.54828;0.00668;0.0;0.0;0.0;0.0;0.0;0.0
3.0;1753880847.253421;16.25988;0.75;-1.35;-0.25;0.821783;0.549259;0.006233;0.0;0.0;0.0;0.0;0.0;0.0
3.0;1753880847.258155;16.27668;0.62;-1.46;-0.18;0.82096;0.546066;0.007563;0.0;0.0;0.0;0.0;0.0;0.0
3.0;1753880847.262889;16.309319;0.63;-1.55;-0.19;0.822796;0.547636;0.006703;0.0;0.0;0.0;0.0;0.0;0.0
3.0;1753880847.2676;16.28125;0.7;-1.4;-0.21;0.822036;0.547902;0.006954;0.0;0.0;0.0;0.0;0.0;0.0
3.0;1753880847.272334;16.30393;0.63;-1.3;-0.16;0.821001;0.546333;0.006658;0.0;0.0;0.0;0.0;0.0;0.0
3.0;1753880847.277068;16.31705;0.72;-1.39;-0.17;0.822219;0.547685;0.007981;0.0;0.0;0.0;0.0;0.0;0.0
3.0;1753880847.281802;16.298346;0.76;-1.48;-0.2;0.822165;0.549333;0.007438;0.0;0.0;0.0;0.0;0.0;0.0
3.0;1753880847.286536;16.233934;0.66;-1.57;-0.28;0.820519;0.549606;0.006997;0.0;0.0;0.0;0.0;0.0;0.0
3.0;1753880847.29127;16.253537;0.7;-1.47;-0.16;0.822589;0.549691;0.007308;0.0;0.0;0.0;0.0;0.0;0.0
3.0;1753880847.296004;16.299887;0.7;-1.5;-0.21;0.820835;0.548301;0.007087;0.0;0.0;0.0;0.0;0.0;0.0
3.0;1753880847.300738;16.254154;0.76;-1.3;-0.12;0.821506;0.548132;0.008006;0.0;0.0;0.0;0.0;0.0;0.0
3.0;1753880847.305472;16.258885;0.67;-1.31;-0.2;0.821613;0.546249;0.00761;0.0;0.0;0.0;0.0;0.0;0.0
3.0;1753880847.310206;16.290753;0.78;-1.31;-0.24;0.821589;0.547262;0.007691;0.0;0.0;0.0;0.0;0.0;0.0
3.0;1753880847.31494;16.287688;0.8;-1.41;-0.2;0.821901;0.547791;0.006174;0.0;0.0;0.0;0.0;0.0;0.0
3.0;1753880847.319674;16.303702;0.68;-1.42;-0.18;0.822806;0.547969;0.0072;0.0;0.0;0.0;0.0;0.0;0.0
3.0;1753880847.324408;16.312613;0.72;-1.46;-0.29;0.822912;0.548538;0.006661;0.0;0.0;0.0;0.0;0.0;0.0
3.0;1753880847.329142;16.305819;0.72;-1.39;-0.28;0.822379;0.547967;0.00704;0.0;0.0;0.0;0.0;0.0;0.0
3.0;1753880847.333876;16.255934;0.66;-1.45;-0.1;0.821345;0.548241;0.007228;0.0;0.0;0.0;0.0;0.0;0.0
3.0;1753880847.338611;16.288534;0.7;-1.4;-0.2;0.822613;0.546519;0.005903;0.0;0.0;0.0;0.0;0.0;0.0
3.0;1753880847.343345;16.295386;0.77;-1.36;-0.17;0.821072;0.546257;0.007267;0.0;0.0;0.0;0.0;0.0;0.0
3.0;1753880847.348079;16.33051;0.77;-1.31;-0.27;0.822599;0.547028;0.007314;0.0;0.0;0.0;0.0;0.0;0.0
3.0;1753880847.352813;16.29503;0.65;-1.51;-0.19;0.821995;0.547291;0.007182;0.0;0.0;0.0;0.0;0.0;0.0
3.0;1753880847.357547;16.310303;0.7;-1.25;-0.14;0.820852;0.548822;0.006999;0.0;0.0;0.0;0.0;0.0;0.0
3.0;1753880847.362281;16.28011;0.74;-1.19;-0.21;0.821816;0.547022;0.007407;0.0;0.0;0.0;0.0;0.0;0.0
3.0;1753880847.367015;16.287273;0.72;-1.51;-0.18;0.822054;0.547466;0.008116;0.0;0.0;0.0;0.0;0.0;0.0
3.0;1753880847.371749;16.26593;0.84;-1.41;-0.1;0.822359;0.548371;0.007898;0.0;0.0;0.0;0.0;0.0;0.0
3.0;1753880847.376483;16.303284;0.72;-1.32;-0.19;0.821655;0.547231;0.007348;0.0;0.0;0.0;0.0;0.0;0.0
3.0;1753880847.381217;16.296805;0.72;-1.41;-0.21;0.821009;0.548735;0.008187;0.0;0.0;0.0;0.0;0.0;0.0
3.0;1753880847.385951;16.275079;0.7;-1.28;-0.17;0.822801;0.54751;0.006359;0.0;0.0;0.0;0.0;0.0;0.0
3.0;1753880847.390685;16.303112;0.71;-1.45;-0.14;0.821774;0.548095;0.006748;0.0;0.0;0.0;0.0;0.0;0.0
3.0;1753880847.395419;16.338148;0.75;-1.24;-0.21;0.824032;0.548177;0.008084;0.0;0.0;0.0;0.0;0.0;0.0
3.0;1753880847.400153;16.308782;0.68;-1.44;-0.16;0.821859;0.548859;0.006926;0.0;0.0;0.0;0.0;0.0;0.0
3.0;1753880847.404887;16.294201;0.78;-1.32;-0.19;0.822103;0.548331;0.00642;0.0;0.0;0.0;0.0;0.0;0.0
3.0;1753880847.409621;16.273353;0.8;-1.3;-0.12;0.823268;0.547589;0.007156;0.0;0.0;0.0;0.0;0.0;0.0
3.0;1753880847.414355;16.283502;0.69;-1.28;-0.13;0.821507;0.54755;0.006484;0.0;0.0;0.0;0.0;0.0;0.0
3.0;1753880847.419089;16.330382;0.8;-1.41;-0.23;0.82214;0.548184;0.007812;0.0;0.0;0.0;0.0;0.0;0.0
3.0;1753880847.423823;16.319479;0.64;-1.42;-0.21;0.822033;0.54733;0.007715;0.0;0.0;0.0;0.0;0.0;0.0
3.0;1753880847.428558;16.304762;0.79;-1.4;-0.14;0.822228;0.548777;0.007922;0.0;0.0;0.0;0.0;0.0;0.0
3.0;1753880847.433292;16.30402;0.68;-1.36;-0.15;0.823069;0.548011;0.006292;0.0;0.0;0.0;0.0;0.0;0.0
3.0;1753880847.438026;16.308233;0.72;-1.42;-0.15;0.822683;0.548248;0.00823;0.0;0.0;0.0;0.0;0.0;0.0
3.0;1753880847.44276;16.306942;0.72;-1.36;-0.2;0.822198;0.547141;0.008567;0.0;0.0;0.0;0.0;0.0;0.0
3.0;1753880847.447494;16.264199;0.74;-1.46;-0.09;0.821789;0.548938;0.007893;0.0;0.0;0.0;0.0;0.0;0.0
3.0;1753880847.452228;16.305663;0.8;-1.41;-0.23;0.821233;0.549621;0.007625;0.0;0.0;0.0;0.0;0.0;0.0
3.0;1753880847.456962;16.323958;0.74;-1.45;-0.14;0.820814;0.549208;0.007707;0.0;0.0;0.0;0.0;0.0;0.0
3.0;1753880847.461696;16.317494;0.79;-1.33;-0.21;0.822044;0.548899;0.008488;0.0;0.0;0.0;0.0;0.0;0.0
3.0;1753880847.46643;16.339852;0.69;-1.46;-0.15;0.82196;0.548164;0.007202;0.0;0.0;0.0;0.0;0.0;0.0
3.0;1753880847.471164;16.305559;0.7;-1.5;-0.16;0.822629;0.547769;0.007978;0.0;0.0;0.0;0.0;0.0;0.0
3.0;1753880847.475898;16.320618;0.68;-1.35;-0.16;0.821359;0.548006;0.008592;0.0;0.0;0.0;0.0;0.0;0.0
3.0;1753880847.480632;16.309589;0.72;-1.36;-0.16;0.822258;0.549218;0.007713;0.0;0.0;0.0;0.0;0.0;0.0
3.0;1753880847.485366;16.299191;0.7;-1.5;-0.17;0.821769;0.547594;0.007669;0.0;0.0;0.0;0.0;0.0;0.0
3.0;1753880847.4901;16.338442;0.71;-1.37;-0.22;0.822119;0.547325;0.007831;0.0;0.0;0.0;0.0;0.0;0.0
3.0;1753880847.494834;16.340065;0.65;-1.42;-0.15;0.821886;0.54717;0.007622;0.0;0.0;0.0;0.0;0.0;0.0
3.0;1753880847.499568;16.305307;0.78;-1.3;-0.16;0.822687;0.547395;0.00828;0.0;0.0;0.0;0.0;0.0;0.0
3.0;1753880847.504302;16.337372;0.72;-1.42;-0.17;0.822434;0.549697;0.006644;0.0;0.0;0.0;0.0;0.0;0.0
3.0;1753880847.509036;16.334927;0.82;-1.3;-0.23;0.822943;0.548781;0.006753;0.0;0.0;0.0;0.0;0.0;0.0
3.0;1753880847.51377;16.362513;0.68;-1.37;-0.09;0.822921;0.548983;0.007235;0.0;0.0;0.0;0.0;0.0;0.0
3.0;1753880847.518504;16.314629;0.74;-1.36;-0.12;0.822841;0.54742;0.007656;0.0;0.0;0.0;0.0;0.0;0.0
3.0;1753880847.523238;16.279358;0.72;-1.37;-0.19;0.821215;0.546834;0.007507;0.0;0.0;0.0;0.0;0.0;0.0
3.0;1753880847.527972;16.334355;0.79;-1.38;-0.21;0.821116;0.54821;0.007811;0.0;0.0;0.0;0.0;0.0;0.0
3.0;1753880847.532706;16.308492;0.77;-1.37;-0.11;0.820893;0.546694;0.007489;0.0;0.0;0.0;0.0;0.0;0.0
3.0;1753880847.53744;16.342523;0.8;-1.39;-0.13;0.82254;0.54725;0.008924;0.0;0.0;0.0;0.0;0.0;0.0
3.0;1753880847.542174;16.332971;0.77;-1.35;-0.07;0.822008;0.54714;0.006991;0.0;0.0;0.0;0.0;0.0;0.0
3.0;1753880847.546908;16.341568;0.72;-1.45;-0.14;0.821742;0.549056;0.006982;0.0;0.0;0.0;0.0;0.0;0.0
3.0;1753880847.551642;16.327742;0.78;-1.39;-0.16;0.821408;0.547159;0.007564;0.0;0.0;0.0;0.0;0.0;0.0
3.0;1753880847.556376;16.317108;0.78;-1.49;-0.19;0.821954;0.547801;0.008164;0.0;0.0;0.0;0.0;0.0;0.0
3.0;1753880847.56111;16.32054;0.75;-1.35;-0.14;0.822535;0.548468;0.007327;0.0;0.0;0.0;0.0;0.0;0.0
3.0;1753880847.565844;16.315528;0.76;-1.33;-0.15;0.822311;0.547836;0.007793;0.0;0.0;0.0;0.0;0.0;0.0
3.0;1753880847.570578;16.325252;0.78;-1.47;-0.21;0.822594;0.548254;0.007758;0.0;0.0;0.0;0.0;0.0;0.0
3.0;1753880847.575312;16.323083;0.75;-1.33;-0.12;0.822075;0.548914;0.007602;0.0;0.0;0.0;0.0;0.0;0.0
3.0;1753880847.580047;16.364279;0.77;-1.42;-0.15;0.824014;0.548641;0.006632;0.0;0.0;0.0;0.0;0.0;0.0
3.0;1753880847.584781;16.378245;0.82;-1.56;-0.21;0.823005;0.548669;0.007755;0.0;0.0;0.0;0.0;0.0;0.0
3.0;1753880847.5916;16.339844;0.77;-1.4;-0.14;0.82228;0.54839;0.007808;0.0;0.0;0.0;0.0;0.0;0.0
3.0;1753880847.596334;16.354744;0.71;-1.45;-0.12;0.82325;0.547908;0.009556;0.0;0.0;0.0;0.0;0.0;0.0
3.0;1753880847.601068;16.342993;0.79;-1.38;-0.21;0.822778;0.548769;0.008342;0.0;0.0;0.0;0.0;0.0;0.0
3.0;1753880847.605802;16.261165;0.63;-1.41;-0.18;0.8222;0.547723;0.009165;0.0;0.0;0.0;0.0;0.0;0.0
3.0;1753880847.610536;16.350808;0.82;-1.42;-0.04;0.822586;0.547954;0.009392;0.0;0.0;0.0;0.0;0.0;0.0
3.0;1753880847.61527;16.30939;0.71;-1.36;-0.14;0.822528;0.547281;0.011339;0.0;0.0;0.0;0.0;0.0;0.0
3.0;1753880847.62063;16.324219;0.77;-1.33;-0.21;0.822158;0.547536;0.010126;0.0;0.0;0.0;0.0;0.0;0.0
3.0;1753880847.625364;16.288916;0.76;-1.29;-0.26;0.822793;0.547677;0.00985;0.0;0.0;0.0;0.0;0.0;0.0
3.0;1753880847.630098;16.336121;0.66;-1.31;-0.22;0.82108;0.548214;0.010568;0.0;0.0;0.0;0.0;0.0;0.0
3.0;1753880847.634832;16.322511;0.68;-1.39;-0.27;0.819948;0.547025;0.01094;0.0;0.0;0.0;0.0;0.0;0.0
3.0;1753880847.639566;16.301002;0.81;-1.38;-0.3;0.822217;0.548275;0.009066;0.0;0.0;0.0;0.0;0.0;0.0
3.0;1753880847.6443;16.326955;0.79;-1.35;-0.24;0.821893;0.549362;0.0087;0.0;0.0;0.0;0.0;0.0;0.0
3.0;1753880847.649034;16.328807;0.7;-1.32;-0.29;0.822624;0.546855;0.008377;0.0;0.0;0.0;0.0;0.0;0.0
3.0;1753880847.653768;16.335663;0.72;-1.31;-0.21;0.82185;0.547023;0.008047;0.0;0.0;0.0;0.0;0.0;0.0
3.0;1753880847.658502;16.317036;0.69;-1.24;-0.24;0.821772;0.5484;0.009175;0.0;0.0;0.0;0.0;0.0;0.0
3.0;1753880847.663236;16.346407;0.79;-1.38;-0.23;0.821146;0.547253;0.00921;0.0;0.0;0.0;0.0;0.0;0.0
3.0;1753880847.6675;16.324219;0.77;-1.33;-0.28;0.821182;0.548634;0.008174;0.0;0.0;0.0;0.0;0.0;0.0
3.0;1753880847.672234;16.301074;0.74;-1.3;-0.31;0.821205;0.549043;0.011022;0.0;0.0;0.0;0.0;0.0;0.0
3.0;1753880847.676968;16.284064;0.76;-1.31;-0.19;0.822154;0.548775;0.008529;0.0;0.0;0.0;0.0;0.0;0.0
3.0;1753880847.681702;16.356532;0.76;-1.31;-0.22;0.822667;0.548438;0.009692;0.0;0.0;0.0;0.0;0.0;0.0
3.0;1753880847.686436;16.325505;0.81;-1.32;-0.25;0.820898;0.548164;0.007695;0.0;0.0;0.0;0.0;0.0;0.0
3.0;1753880847.69117;16.31271;0.7;-1.33;-0.29;0.820674;0.547124;0.008599;0.0;0.0;0.0;0.0;0.0;0.0
3.0;1753880847.695904;16.308779;0.72;-1.23;-0.23;0.82131;0.547075;0.008732;0.0;0.0;0.0;0.0;0.0;0.0
3.0;1753880847.700638;16.356743;0.69;-1.33;-0.2;0.82258;0.548329;0.008888;0.0;0.0;0.0;0.0;0.0;0.0
3.0;1753880847.705372;16.346486;0.76;-1.28;-0.24;0.823038;0.547802;0.00888;0.0;0.0;0.0;0.0;0.0;0.0
3.0;1753880847.710106;16.359549;0.68;-1.24;-0.2;0.821419;0.547916;0.009357;0.0;0.0;0.0;0.0;0.0;0.0
3.0;1753880847.71484;16.3206;0.73;-1.23;-0.14;0.820963;0.548038;0.010183;0.0;0.0;0.0;0.0;0.0;0.0
3.0;1753880847.719574;16.357831;0.82;-1.22;-0.15;0.821182;0.546364;0.009989;0.0;0.0;0.0;0.0;0.0;0.0
3.0;1753880847.727;16.324219;0.77;-1.26;-0.21;0.821304;0.546682;0.00976;0.0;0.0;0.0;0.0;0.0;0.0
3.0;1753880847.731734;16.301855;0.86;-1.15;-0.24;0.822348;0.546776;0.010096;0.0;0.0;0.0;0.0;0.0;0.0
3.0;1753880847.736468;16.298507;0.71;-1.29;-0.23;0.822434;0.546439;0.01175;0.0;0.0;0.0;0.0;0.0;0.0
3.0;1753880847.741202;16.333646;0.81;-1.31;-0.22;0.822304;0.547545;0.008999;0.0;0.0;0.0;0.0;0.0;0.0
3.0;1753880847.745936;16.352033;0.7;-1.31;-0.26;0.821119;0.545996;0.008233;0.0;0.0;0.0;0.0;0.0;0.0
3.0;1753880847.75067;16.332341;0.75;-1.26;-0.2;0.821871;0.546756;0.008558;0.0;0.0;0.0;0.0;0.0;0.0
3.0;1753880847.755404;16.316351;0.78;-1.26;-0.24;0.821364;0.548139;0.007377;0.0;0.0;0.0;0.0;0.0;0.0
3.0;1753880847.760138;16.327182;0.66;-1.27;-0.27;0.822086;0.548547;0.008791;0.0;0.0;0.0;0.0;0.0;0.0
3.0;1753880847.764872;16.365923;0.68;-1.25;-0.26;0.821112;0.54753;0.007358;0.0;0.0;0.0;0.0;0.0;0.0
3.0;1753880847.77071;16.324219;0.77;-1.33;-0.28;0.822158;0.548512;0.008174;0.0;0.0;0.0;0.0;0.0;0.0
3.0;1753880847.775444;16.332465;0.77;-1.43;-0.29;0.821443;0.548383;0.007836;0.0;0.0;0.0;0.0;0.0;0.0
3.0;1753880847.780178;16.313538;0.79;-1.26;-0.27;0.82214;0.548514;0.007329;0.0;0.0;0.0;0.0;0.0;0.0
3.0;1753880847.784912;16.3208;0.74;-1.4;-0.31;0.821363;0.547777;0.007985;0.0;0.0;0.0;0.0;0.0;0.0
3.0;1753880847.789646;16.302644;0.79;-1.34;-0.24;0.821594;0.54765;0.008431;0.0;0.0;0.0;0.0;0.0;0.0
3.0;1753880847.79438;16.302455;0.74;-1.39;-0.2;0.821699;0.549045;0.008238;0.0;0.0;0.0;0.0;0.0;0.0
3.0;1753880847.799114;16.274078;0.71;-1.22;-0.26;0.821651;0.547126;0.007404;0.0;0.0;0.0;0.0;0.0;0.0
3.0;1753880847.803848;16.30586;0.75;-1.3;-0.22;0.822773;0.547829;0.007076;0.0;0.0;0.0;0.0;0.0;0.0
3.0;1753880847.808582;16.326629;0.74;-1.25;-0.3;0.823057;0.548961;0.008256;0.0;0.0;0.0;0.0;0.0;0.0
3.0;1753880847.813316;16.366858;0.89;-1.38;-0.21;0.821299;0.548837;0.00827;0.0;0.0;0.0;0.0;0.0;0.0
3.0;1753880847.81805;16.311749;0.85;-1.34;-0.21;0.821491;0.547644;0.007603;0.0;0.0;0.0;0.0;0.0;0.0
3.0;1753880847.822784;16.331965;0.8;-1.29;-0.2;0.821366;0.547614;0.007901;0.0;0.0;0.0;0.0;0.0;0.0
3.0;1753880847.827518;16.33682;0.77;-1.28;-0.27;0.821534;0.547214;0.005413;0.0;0.0;0.0;0.0;0.0;0.0
3.0;1753880847.832252;16.289859;0.66;-1.29;-0.3;0.821369;0.547551;0.009665;0.0;0.0;0.0;0.0;0.0;0.0
3.0;1753880847.836986;16.301213;0.7;-1.19;-0.18;0.822388;0.548356;0.007948;0.0;0.0;0.0;0.0;0.0;0.0
3.0;1753880847.84565;16.324219;0.77;-1.26;-0.21;0.821426;0.547902;0.007442;0.0;0.0;0.0;0.0;0.0;0.0
3.0;1753880847.85397;16.324219;0.77;-1.33;-0.21;0.821426;0.547902;0.007442;0.0;0.0;0.0;0.0;0.0;0.0
3.0;1753880847.858704;16.303007;0.75;-1.31;-0.24;0.821481;0.548746;0.00802;0.0;0.0;0.0;0.0;0.0;0.0
3.0;1753880847.863438;16.293977;0.69;-1.37;-0.23;0.822485;0.546918;0.006556;0.0;0.0;0.0;0.0;0.0;0.0
3.0;1753880847.868172;16.317799;0.71;-1.29;-0.24;0.821061;0.548142;0.008709;0.0;0.0;0.0;0.0;0.0;0.0
3.0;1753880847.872906;16.359649;0.71;-1.34;-0.29;0.821788;0.547269;0.006246;0.0;0.0;0.0;0.0;0.0;0.0
3.0;1753880847.87764;16.312779;0.58;-1.32;-0.21;0.821153;0.547867;0.007922;0.0;0.0;0.0;0.0;0.0;0.0
3.0;1753880847.882374;16.306472;0.8;-1.27;-0.18;0.822049;0.547695;0.008413;0.0;0.0;0.0;0.0;0.0;0.0
3.0;1753880847.887108;16.320576;0.69;-1.35;-0.27;0.821708;0.547247;0.008482;0.0;0.0;0.0;0.0;0.0;0.0
3.0;1753880847.891842;16.330538;0.71;-1.3;-0.23;0.821472;0.546964;0.006327;0.0;0.0;0.0;0.0;0.0;0.0
3.0;1753880847.896576;16.279698;0.7;-1.28;-0.19;0.820415;0.547652;0.008763;0.0;0.0;0.0;0.0;0.0;0.0
3.0;1753880847.90143;16.324219;0.7;-1.33;-0.21;0.821426;0.547902;0.007686;0.0;0.0;0.0;0.0;0.0;0.0
3.0;1753880847.906164;16.357652;0.7;-1.35;-0.27;0.821658;0.547959;0.008176;0.0;0.0;0.0;0.0;0.0;0.0
3.0;1753880847.910898;16.293588;0.68;-1.3;-0.17;0.821224;0.546709;0.008493;0.0;0.0;0.0;0.0;0.0;0.0
3.0;1753880847.915632;16.311929;0.76;-1.31;-0.29;0.819594;0.548056;0.006291;0.0;0.0;0.0;0.0;0.0;0.0
3.0;1753880847.920366;16.289245;0.65;-1.38;-0.2;0.821443;0.547814;0.008379;0.0;0.0;0.0;0.0;0.0;0.0
3.0;1753880847.9251;16.336764;0.62;-1.3;-0.31;0.821142;0.547764;0.007439;0.0;0.0;0.0;0.0;0.0;0.0
3.0;1753880847.929834;16.296466;0.61;-1.31;-0.29;0.82178;0.548022;0.007999;0.0;0.0;0.0;0.0;0.0;0.0
3.0;1753880847.934568;16.340621;0.69;-1.36;-0.23;0.821585;0.54826;0.008073;0.0;0.0;0.0;0.0;0.0;0.0
3.0;1753880847.939302;16.338878;0.79;-1.27;-0.25;0.822625;0.548506;0.008357;0.0;0.0;0.0;0.0;0.0;0.0
3.0;1753880847.944036;16.266533;0.79;-1.35;-0.18;0.82202;0.547711;0.008435;0.0;0.0;0.0;0.0;0.0;0.0
3.0;1753880847.95211;16.324219;0.77;-1.26;-0.28;0.821182;0.548024;0.008418;0.0;0.0;0.0;0.0;0.0;0.0
3.0;1753880847.956844;16.309522;0.7;-1.27;-0.26;0.820345;0.547346;0.011666;0.0;0.0;0.0;0.0;0.0;0.0
3.0;1753880847.961578;16.307325;0.87;-1.37;-0.33;0.820869;0.547081;0.009388;0.0;0.0;0.0;0.0;0.0;0.0
3.0;1753880847.966312;16.274779;0.77;-1.28;-0.27;0.822631;0.547537;0.009802;0.0;0.0;0.0;0.0;0.0;0.0
3.0;1753880847.971046;16.288723;0.76;-1.42;-0.31;0.821614;0.547712;0.007981;0.0;0.0;0.0;0.0;0.0;0.0
3.0;1753880847.97578;16.269609;0.72;-1.32;-0.26;0.819918;0.546977;0.007125;0.0;0.0;0.0;0.0;0.0;0.0
3.0;1753880847.980514;16.298981;0.75;-1.31;-0.29;0.821603;0.547956;0.009105;0.0;0.0;0.0;0.0;0.0;0.0
3.0;1753880847.985248;16.267535;0.84;-1.4;-0.21;0.821672;0.547741;0.00648;0.0;0.0;0.0;0.0;0.0;0.0
3.0;1753880847.989982;16.284864;0.85;-1.48;-0.29;0.822192;0.546623;0.009607;0.0;0.0;0.0;0.0;0.0;0.0
3.0;1753880847.99512;16.273438;0.77;-1.4;-0.28;0.821548;0.547536;0.009882;0.0;0.0;0.0;0.0;0.0;0.0
3.0;1753880847.999854;16.281235;0.79;-1.33;-0.36;0.821302;0.546453;0.009915;0.0;0.0;0.0;0.0;0.0;0.0
3.0;1753880848.004588;16.269657;0.78;-1.4;-0.23;0.821884;0.547073;0.00957;0.0;0.0;0.0;0.0;0.0;0.0
3.0;1753880848.009322;16.272144;0.84;-1.4;-0.32;0.820508;0.546953;0.008869;0.0;0.0;0.0;0.0;0.0;0.0
3.0;1753880848.014056;16.265925;0.74;-1.4;-0.35;0.820603;0.548098;0.010576;0.0;0.0;0.0;0.0;0.0;0.0
3.0;1753880848.01879;16.276631;0.82;-1.38;-0.26;0.821994;0.548423;0.010071;0.0;0.0;0.0;0.0;0.0;0.0
3.0;1753880848.023524;16.265899;0.73;-1.35;-0.23;0.821903;0.546958;0.010072;0.0;0.0;0.0;0.0;0.0;0.0
3.0;1753880848.028258;16.238991;0.86;-1.44;-0.28;0.821056;0.547093;0.009189;0.0;0.0;0.0;0.0;0.0;0.0
3.0;1753880848.032992;16.262178;0.69;-1.43;-0.3;0.821053;0.548148;0.010326;0.0;0.0;0.0;0.0;0.0;0.0
3.0;1753880848.037726;16.283547;0.68;-1.34;-0.27;0.821206;0.547421;0.009865;0.0;0.0;0.0;0.0;0.0;0.0
3.0;1753880848.04246;16.308283;0.69;-1.37;-0.27;0.821092;0.54747;0.009281;0.0;0.0;0.0;0.0;0.0;0.0
3.0;1753880848.047194;16.284059;0.74;-1.36;-0.31;0.821129;0.54799;0.010066;0.0;0.0;0.0;0.0;0.0;0.0
3.0;1753880848.051928;16.281331;0.78;-1.4;-0.34;0.821038;0.54864;0.008938;0.0;0.0;0.0;0.0;0.0;0.0
3.0;1753880848.056662;16.28525;0.77;-1.42;-0.23;0.821605;0.547816;0.00911;0.0;0.0;0.0;0.0;0.0;0.0
3.0;1753880848.061396;16.312554;0.78;-1.41;-0.22;0.822065;0.547752;0.009249;0.0;0.0;0.0;0.0;0.0;0.0
3.0;1753880848.066131;16.255186;0.69;-1.34;-0.22;0.821337;0.547554;0.009494;0.0;0.0;0.0;0.0;0.0;0.0
3.0;1753880848.070865;16.289588;0.65;-1.46;-0.25;0.821549;0.548512;0.008918;0.0;0.0;0.0;0.0;0.0;0.0
3.0;1753880848.075599;16.269828;0.75;-1.33;-0.28;0.81991;0.548128;0.009321;0.0;0.0;0.0;0.0;0.0;0.0
3.0;1753880848.080333;16.245154;0.7;-1.32;-0.21;0.820781;0.548257;0.00938;0.0;0.0;0.0;0.0;0.0;0.0
3.0;1753880848.085067;16.282583;0.71;-1.32;-0.23;0.819856;0.547745;0.008265;0.0;0.0;0.0;0.0;0.0;0.0
3.0;1753880848.089801;16.298035;0.71;-1.34;-0.24;0.82168;0.547128;0.010694;0.0;0.0;0.0;0.0;0.0;0.0
3.0;1753880848.094535;16.323998;0.7;-1.41;-0.22;0.821759;0.546678;0.008429;0.0;0.0;0.0;0.0;0.0;0.0
3.0;1753880848.099269;16.287569;0.6;-1.32;-0.23;0.821752;0.548935;0.009281;0.0;0.0;0.0;0.0;0.0;0.0
3.0;1753880848.104003;16.273247;0.67;-1.31;-0.25;0.821022;0.548369;0.008018;0.0;0.0;0.0;0.0;0.0;0.0
3.0;1753880848.108737;16.261314;0.68;-1.35;-0.23;0.82151;0.549055;0.008796;0.0;0.0;0.0;0.0;0.0;0.0
3.0;1753880848.113471;16.293186;0.64;-1.37;-0.29;0.820522;0.548428;0.008873;0.0;0.0;0.0;0.0;0.0;0.0
3.0;1753880848.118205;16.272097;0.59;-1.39;-0.26;0.823316;0.547935;0.008588;0.0;0.0;0.0;0.0;0.0;0.0
3.0;1753880848.122939;16.287184;0.65;-1.35;-0.22;0.82119;0.548004;0.00924;0.0;0.0;0.0;0.0;0.0;0.0
3.0;1753880848.127673;16.263032;0.66;-1.39;-0.31;0.821283;0.547725;0.009118;0.0;0.0;0.0;0.0;0.0;0.0
3.0;1753880848.132407;16.294041;0.51;-1.35;-0.2;0.820314;0.548043;0.008887;0.0;0.0;0.0;0.0;0.0;0.0
3.0;1753880848.137141;16.273004;0.54;-1.29;-0.1;0.820633;0.547975;0.008461;0.0;0.0;0.0;0.0;0.0;0.0
3.0;1753880848.143;16.28125;0.63;-1.33;-0.21;0.821548;0.547902;0.008418;0.0;0.0;0.0;0.0;0.0;0.0
3.0;1753880848.147734;16.258393;0.65;-1.33;-0.26;0.82205;0.548232;0.008754;0.0;0.0;0.0;0.0;0.0;0.0
3.0;1753880848.152468;16.303021;0.58;-1.32;-0.24;0.821452;0.547963;0.008109;0.0;0.0;0.0;0.0;0.0;0.0
3.0;1753880848.157202;16.279222;0.65;-1.3;-0.19;0.82123;0.547995;0.007457;0.0;0.0;0.0;0.0;0.0;0.0
3.0;1753880848.161936;16.265396;0.57;-1.32;-0.21;0.822377;0.548006;0.00946;0.0;0.0;0.0;0.0;0.0;0.0
3.0;1753880848.16667;16.278272;0.63;-1.36;-0.25;0.820481;0.547157;0.008042;0.0;0.0;0.0;0.0;0.0;0.0
3.0;1753880848.171404;16.303486;0.7;-1.27;-0.19;0.821664;0.546955;0.007879;0.0;0.0;0.0;0.0;0.0;0.0
3.0;1753880848.176138;16.296124;0.73;-1.32;-0.19;0.821478;0.548565;0.008613;0.0;0.0;0.0;0.0;0.0;0.0
3.0;1753880848.180872;16.284281;0.58;-1.28;-0.23;0.822502;0.54748;0.008073;0.0;0.0;0.0;0.0;0.0;0.0
3.0;1753880848.185606;16.271772;0.64;-1.35;-0.19;0.821096;0.546978;0.008528;0.0;0.0;0.0;0.0;0.0;0.0
3.0;1753880848.19034;16.2816;0.54;-1.33;-0.24;0.822198;0.548235;0.008595;0.0;0.0;0.0;0.0;0.0;0.0
3.0;1753880848.195074;16.272239;0.69;-1.26;-0.24;0.821874;0.547828;0.007107;0.0;0.0;0.0;0.0;0.0;0.0
3.0;1753880848.199808;16.267403;0.68;-1.29;-0.14;0.821128;0.547507;0.007765;0.0;0.0;0.0;0.0;0.0;0.0
3.0;1753880848.204542;16.303988;0.71;-1.43;-0.16;0.821304;0.548403;0.007932;0.0;0.0;0.0;0.0;0.0;0.0
3.0;1753880848.209276;16.286714;0.65;-1.38;-0.22;0.822551;0.547848;0.008278;0.0;0.0;0.0;0.0;0.0;0.0
3.0;1753880848.21401;16.244002;0.72;-1.23;-0.27;0.822112;0.547051;0.009136;0.0;0.0;0.0;0.0;0.0;0.0
3.0;1753880848.218744;16.295356;0.53;-1.18;-0.12;0.822149;0.54759;0.007189;0.0;0.0;0.0;0.0;0.0;0.0
3.0;1753880848.223478;16.278219;0.66;-1.32;-0.21;0.823002;0.54672;0.00759;0.0;0.0;0.0;0.0;0.0;0.0
3.0;1753880848.228212;16.291278;0.77;-1.34;-0.21;0.82127;0.548412;0.008185;0.0;0.0;0.0;0.0;0.0;0.0
3.0;1753880848.232947;16.287107;0.62;-1.18;-0.24;0.819536;0.547889;0.007869;0.0;0.0;0.0;0.0;0.0;0.0
3.0;1753880848.237681;16.263726;0.66;-1.35;-0.19;0.822537;0.547931;0.006985;0.0;0.0;0.0;0.0;0.0;0.0
3.0;1753880848.242415;16.283187;0.68;-1.38;-0.16;0.821464;0.548361;0.008127;0.0;0.0;0.0;0.0;0.0;0.0
3.0;1753880848.247149;16.235808;0.69;-1.27;-0.17;0.821271;0.546959;0.010322;0.0;0.0;0.0;0.0;0.0;0.0
3.0;1753880848.251883;16.269625;0.7;-1.29;-0.21;0.820574;0.548235;0.008137;0.0;0.0;0.0;0.0;0.0;0.0
3.0;1753880848.256617;16.303035;0.67;-1.26;-0.23;0.82098;0.54813;0.007837;0.0;0.0;0.0;0.0;0.0;0.0
3.0;1753880848.261351;16.288625;0.64;-1.31;-0.2;0.821989;0.546989;0.007821;0.0;0.0;0.0;0.0;0.0;0.0
3.0;1753880848.266085;16.280308;0.58;-1.27;-0.24;0.821475;0.548172;0.007657;0.0;0.0;0.0;0.0;0.0;0.0
3.0;1753880848.270819;16.290126;0.64;-1.33;-0.27;0.822344;0.54699;0.008676;0.0;0.0;0.0;0.0;0.0;0.0
3.0;1753880848.275553;16.268351;0.69;-1.32;-0.18;0.82172;0.547984;0.009192;0.0;0.0;0.0;0.0;0.0;0.0
3.0;1753880848.280287;16.260213;0.62;-1.26;-0.19;0.822222;0.546655;0.007846;0.0;0.0;0.0;0.0;0.0;0.0
3.0;1753880848.285021;16.278232;0.79;-1.26;-0.29;0.821887;0.548129;0.007772;0.0;0.0;0.0;0.0;0.0;0.0
3.0;1753880848.289755;16.286462;0.74;-1.33;-0.16;0.819931;0.547212;0.007494;0.0;0.0;0.0;0.0;0.0;0.0
3.0;1753880848.294489;16.308967;0.67;-1.31;-0.27;0.822031;0.547723;0.006896;0.0;0.0;0.0;0.0;0.0;0.0
3.0;1753880848.299223;16.302955;0.62;-1.28;-0.17;0.820256;0.54821;0.007656;0.0;0.0;0.0;0.0;0.0;0.0
3.0;1753880848.303957;16.263817;0.74;-1.37;-0.15;0.821363;0.547752;0.007869;0.0;0.0;0.0;0.0;0.0;0.0
3.0;1753880848.308691;16.30632;0.68;-1.34;-0.3;0.821566;0.548079;0.007433;0.0;0.0;0.0;0.0;0.0;0.0
3.0;1753880848.313425;16.249882;0.61;-1.4;-0.16;0.821533;0.548531;0.006298;0.0;0.0;0.0;0.0;0.0;0.0
3.0;1753880848.318159;16.300516;0.72;-1.29;-0.24;0.820807;0.548792;0.007356;0.0;0.0;0.0;0.0;0.0;0.0
3.0;1753880848.322894;16.257042;0.69;-1.32;-0.26;0.821233;0.548312;0.007825;0.0;0.0;0.0;0.0;0.0;0.0
3.0;1753880848.327628;16.27732;0.64;-1.3;-0.23;0.820881;0.548036;0.007791;0.0;0.0;0.0;0.0;0.0;0.0
3.0;1753880848.332362;16.263963;0.66;-1.29;-0.24;0.821196;0.547507;0.007775;0.0;0.0;0.0;0.0;0.0;0.0
3.0;1753880848.337096;16.271832;0.71;-1.31;-0.24;0.820768;0.546548;0.008164;0.0;0.0;0.0;0.0;0.0;0.0
3.0;1753880848.34183;16.281357;0.65;-1.28;-0.17;0.821447;0.548645;0.00818;0.0;0.0;0.0;0.0;0.0;0.0
3.0;1753880848.346564;16.295512;0.69;-1.25;-0.22;0.820383;0.546483;0.008601;0.0;0.0;0.0;0.0;0.0;0.0
3.0;1753880848.351298;16.298232;0.72;-1.31;-0.25;0.821548;0.547955;0.009147;0.0;0.0;0.0;0.0;0.0;0.0
3.0;1753880848.356032;16.276182;0.63;-1.33;-0.26;0.82052;0.547664;0.008084;0.0;0.0;0.0;0.0;0.0;0.0
3.0;1753880848.360766;16.290732;0.69;-1.24;-0.19;0.821155;0.547544;0.008868;0.0;0.0;0.0;0.0;0.0;0.0
3.0;1753880848.3655;16.277789;0.61;-1.31;-0.15;0.821786;0.547371;0.00881;0.0;0.0;0.0;0.0;0.0;0.0
3.0;1753880848.370234;16.295386;0.71;-1.32;-0.18;0.820956;0.547354;0.009254;0.0;0.0;0.0;0.0;0.0;0.0
3.0;1753880848.374968;16.294306;0.6;-1.3;-0.24;0.820549;0.547649;0.006961;0.0;0.0;0.0;0.0;0.0;0.0
3.0;1753880848.379702;16.312011;0.55;-1.28;-0.26;0.821845;0.548243;0.008711;0.0;0.0;0.0;0.0;0.0;0.0
3.0;1753880848.384436;16.273176;0.57;-1.34;-0.19;0.821519;0.54732;0.008217;0.0;0.0;0.0;0.0;0.0;0.0
3.0;1753880848.38917;16.272982;0.7;-1.22;-0.27;0.821146;0.549547;0.006655;0.0;0.0;0.0;0.0;0.0;0.0
3.0;1753880848.393904;16.253223;0.76;-1.32;-0.22;0.823197;0.547509;0.006929;0.0;0.0;0.0;0.0;0.0;0.0
3.0;1753880848.398638;16.32724;0.67;-1.27;-0.2;0.822371;0.547458;0.007348;0.0;0.0;0.0;0.0;0.0;0.0
3.0;1753880848.403372;16.264491;0.66;-1.3;-0.24;0.821716;0.547346;0.007619;0.0;0.0;0.0;0.0;0.0;0.0
3.0;1753880848.408106;16.309779;0.78;-1.25;-0.23;0.8216;0.547242;0.010335;0.0;0.0;0.0;0.0;0.0;0.0
3.0;1753880848.41284;16.262085;0.64;-1.25;-0.26;0.821929;0.548465;0.007524;0.0;0.0;0.0;0.0;0.0;0.0
3.0;1753880848.417574;16.260384;0.65;-1.31;-0.19;0.822163;0.547897;0.008504;0.0;0.0;0.0;0.0;0.0;0.0
3.0;1753880848.422308;16.256284;0.61;-1.35;-0.2;0.82138;0.547517;0.009238;0.0;0.0;0.0;0.0;0.0;0.0
3.0;1753880848.427042;16.28769;0.7;-1.27;-0.17;0.820489;0.547946;0.008896;0.0;0.0;0.0;0.0;0.0;0.0
3.0;1753880848.431776;16.285716;0.63;-1.26;-0.21;0.822032;0.547785;0.008859;0.0;0.0;0.0;0.0;0.0;0.0
3.0;1753880848.43651;16.303743;0.64;-1.17;-0.25;0.822929;0.546466;0.007005;0.0;0.0;0.0;0.0;0.0;0.0
3.0;1753880848.441244;16.284061;0.72;-1.32;-0.24;0.822391;0.547563;0.008636;0.0;0.0;0.0;0.0;0.0;0.0
3.0;1753880848.445978;16.302029;0.64;-1.26;-0.26;0.820579;0.547894;0.008046;0.0;0.0;0.0;0.0;0.0;0.0
3.0;1753880848.450712;16.296826;0.64;-1.33;-0.17;0.822283;0.548323;0.007558;0.0;0.0;0.0;0.0;0.0;0.0
3.0;1753880848.455446;16.291426;0.62;-1.3;-0.18;0.82272;0.54788;0.010089;0.0;0.0;0.0;0.0;0.0;0.0
3.0;1753880848.46018;16.275988;0.76;-1.29;-0.28;0.820912;0.547448;0.008882;0.0;0.0;0.0;0.0;0.0;0.0
3.0;1753880848.464914;16.28422;0.76;-1.24;-0.2;0.822139;0.548304;0.008106;0.0;0.0;0.0;0.0;0.0;0.0
3.0;1753880848.469648;16.300803;0.71;-1.23;-0.21;0.820253;0.548065;0.008778;0.0;0.0;0.0;0.0;0.0;0.0
3.0;1753880848.474383;16.226758;0.62;-1.21;-0.25;0.821078;0.547707;0.008299;0.0;0.0;0.0;0.0;0.0;0.0
3.0;1753880848.479117;16.260152;0.64;-1.21;-0.18;0.820831;0.547463;0.008905;0.0;0.0;0.0;0.0;0.0;0.0
3.0;1753880848.483851;16.261601;0.51;-1.26;-0.27;0.821445;0.547586;0.008617;0.0;0.0;0.0;0.0;0.0;0.0
3.0;1753880848.488585;16.293659;0.71;-1.27;-0.26;0.821516;0.548708;0.007183;0.0;0.0;0.0;0.0;0.0;0.0
3.0;1753880848.493319;16.26427;0.74;-1.31;-0.21;0.821847;0.546632;0.007746;0.0;0.0;0.0;0.0;0.0;0.0
3.0;1753880848.498053;16.293484;0.67;-1.3;-0.25;0.82152;0.548209;0.008359;0.0;0.0;0.0;0.0;0.0;0.0
3.0;1753880848.502787;16.262782;0.6;-1.24;-0.23;0.820913;0.547491;0.007166;0.0;0.0;0.0;0.0;0.0;0.0
3.0;1753880848.507521;16.256782;0.71;-1.3;-0.19;0.821758;0.548684;0.007441;0.0;0.0;0.0;0.0;0.0;0.0
3.0;1753880848.512255;16.293894;0.75;-1.25;-0.19;0.822061;0.547166;0.007948;0.0;0.0;0.0;0.0;0.0;0.0
3.0;1753880848.516989;16.268208;0.52;-1.31;-0.2;0.821233;0.548063;0.007959;0.0;0.0;0.0;0.0;0.0;0.0
3.0;1753880848.521723;16.283593;0.67;-1.23;-0.15;0.821512;0.54733;0.006307;0.0;0.0;0.0;0.0;0.0;0.0
3.0;1753880848.526457;16.259531;0.6;-1.32;-0.16;0.821704;0.547252;0.007137;0.0;0.0;0.0;0.0;0.0;0.0
3.0;1753880848.531191;16.289297;0.57;-1.3;-0.21;0.821178;0.547489;0.009324;0.0;0.0;0.0;0.0;0.0;0.0
3.0;1753880848.535925;16.313606;0.61;-1.27;-0.22;0.821188;0.548393;0.009028;0.0;0.0;0.0;0.0;0.0;0.0
3.0;1753880848.540659;16.265938;0.67;-1.3;-0.19;0.822262;0.547914;0.007468;0.0;0.0;0.0;0.0;0.0;0.0
3.0;1753880848.545393;16.275787;0.71;-1.25;-0.27;0.821189;0.547102;0.008912;0.0;0.0;0.0;0.0;0.0;0.0
3.0;1753880848.550127;16.302962;0.71;-1.26;-0.24;0.821746;0.548368;0.007082;0.0;0.0;0.0;0.0;0.0;0.0
3.0;1753880848.554861;16.259116;0.61;-1.32;-0.18;0.821923;0.54811;0.008074;0.0;0.0;0.0;0.0;0.0;0.0
3.0;1753880848.559595;16.319949;0.74;-1.28;-0.18;0.821028;0.547485;0.00876;0.0;0.0;0.0;0.0;0.0;0.0
3.0;1753880848.56433;16.311084;0.65;-1.19;-0.25;0.822502;0.547353;0.007814;0.0;0.0;0.0;0.0;0.0;0.0
3.0;1753880848.569064;16.257155;0.75;-1.29;-0.22;0.821654;0.546707;0.008392;0.0;0.0;0.0;0.0;0.0;0.0
3.0;1753880848.573798;16.249124;0.71;-1.27;-0.17;0.82189;0.547429;0.007885;0.0;0.0;0.0;0.0;0.0;0.0
3.0;1753880848.578532;16.267782;0.64;-1.28;-0.27;0.82223;0.548188;0.007145;0.0;0.0;0.0;0.0;0.0;0.0
3.0;1753880848.583266;16.265409;0.67;-1.26;-0.25;0.821557;0.548419;0.006119;0.0;0.0;0.0;0.0;0.0;0.0
3.0;1753880848.588;16.255055;0.62;-1.22;-0.25;0.822573;0.547669;0.007692;0.0;0.0;0.0;0.0;0.0;0.0
3.0;1753880848.592734;16.264953;0.64;-1.22;-0.24;0.820381;0.5469;0.007759;0.0;0.0;0.0;0.0;0.0;0.0
3.0;1753880848.597468;16.28427;0.67;-1.24;-0.23;0.822457;0.548677;0.007613;0.0;0.0;0.0;0.0;0.0;0.0
3.0;1753880848.602202;16.282238;0.72;-1.21;-0.25;0.821774;0.548984;0.007511;0.0;0.0;0.0;0.0;0.0;0.0
3.0;1753880848.606936;16.278037;0.73;-1.23;-0.11;0.822394;0.547352;0.006496;0.0;0.0;0.0;0.0;0.0;0.0
3.0;1753880848.61167;16.264937;0.7;-1.26;-0.15;0.821352;0.548624;0.006652;0.0;0.0;0.0;0.0;0.0;0.0
3.0;1753880848.6189;16.28125;0.7;-1.26;-0.21;0.821548;0.547658;0.007686;0.0;0.0;0.0;0.0;0.0;0.0
3.0;1753880848.623634;16.258346;0.64;-1.31;-0.23;0.821376;0.54731;0.005967;0.0;0.0;0.0;0.0;0.0;0.0
3.0;1753880848.628368;16.248916;0.74;-1.3;-0.31;0.821882;0.548273;0.008128;0.0;0.0;0.0;0.0;0.0;0.0
3.0;1753880848.63376;16.316406;0.63;-1.4;-0.28;0.821548;0.547658;0.007686;0.0;0.0;0.0;0.0;0.0;0.0
3.0;1753880848.638494;16.312433;0.65;-1.4;-0.31;0.821327;0.54758;0.007965;0.0;0.0;0.0;0.0;0.0;0.0
3.0;1753880848.643228;16.281671;0.65;-1.43;-0.3;0.821255;0.547227;0.007634;0.0;0.0;0.0;0.0;0.0;0.0
3.0;1753880848.647962;16.342852;0.68;-1.31;-0.25;0.821672;0.547564;0.007818;0.0;0.0;0.0;0.0;0.0;0.0
3.0;1753880848.652696;16.33505;0.63;-1.4;-0.24;0.820979;0.548042;0.009518;0.0;0.0;0.0;0.0;0.0;0.0
3.0;1753880848.65743;16.334794;0.66;-1.39;-0.29;0.82163;0.547349;0.007698;0.0;0.0;0.0;0.0;0.0;0.0
3.0;1753880848.662164;16.348392;0.77;-1.38;-0.22;0.821752;0.548471;0.007056;0.0;0.0;0.0;0.0;0.0;0.0
3.0;1753880848.666898;16.293985;0.67;-1.35;-0.33;0.822162;0.547789;0.007793;0.0;0.0;0.0;0.0;0.0;0.0
3.0;1753880848.671632;16.336341;0.7;-1.39;-0.23;0.821874;0.548658;0.008345;0.0;0.0;0.0;0.0;0.0;0.0
3.0;1753880848.676366;16.347319;0.76;-1.45;-0.26;0.821294;0.548801;0.007134;0.0;0.0;0.0;0.0;0.0;0.0
3.0;1753880848.6811;16.292919;0.64;-1.41;-0.31;0.821072;0.548636;0.007596;0.0;0.0;0.0;0.0;0.0;0.0
3.0;1753880848.685834;16.331845;0.75;-1.37;-0.3;0.820929;0.548515;0.006867;0.0;0.0;0.0;0.0;0.0;0.0
3.0;1753880848.690568;16.308067;0.74;-1.39;-0.26;0.821545;0.548828;0.006564;0.0;0.0;0.0;0.0;0.0;0.0
3.0;1753880848.695302;16.312281;0.72;-1.32;-0.32;0.821627;0.548708;0.007078;0.0;0.0;0.0;0.0;0.0;0.0
3.0;1753880848.70165;16.316406;0.77;-1.33;-0.28;0.821426;0.54839;0.007686;0.0;0.0;0.0;0.0;0.0;0.0
3.0;1753880848.706384;16.314083;0.76;-1.34;-0.29;0.821756;0.549052;0.008248;0.0;0.0;0.0;0.0;0.0;0.0
3.0;1753880848.711118;16.380209;0.78;-1.34;-0.29;0.822804;0.549055;0.009369;0.0;0.0;0.0;0.0;0.0;0.0
3.0;1753880848.715852;16.338304;0.8;-1.36;-0.13;0.821899;0.5476;0.007282;0.0;0.0;0.0;0.0;0.0;0.0
3.0;1753880848.720586;16.318717;0.69;-1.29;-0.15;0.823205;0.546901;0.008653;0.0;0.0;0.0;0.0;0.0;0.0
3.0;1753880848.72825;16.324219;0.7;-1.4;-0.21;0.823012;0.547536;0.009882;0.0;0.0;0.0;0.0;0.0;0.0
3.0;1753880848.732984;16.347632;0.73;-1.33;-0.21;0.823503;0.547218;0.008836;0.0;0.0;0.0;0.0;0.0;0.0
3.0;1753880848.737718;16.313711;0.65;-1.4;-0.14;0.821952;0.547829;0.00944;0.0;0.0;0.0;0.0;0.0;0.0
3.0;1753880848.742452;16.368178;0.73;-1.42;-0.15;0.821862;0.546816;0.010078;0.0;0.0;0.0;0.0;0.0;0.0
3.0;1753880848.747186;16.305721;0.77;-1.4;-0.28;0.822695;0.548158;0.007595;0.0;0.0;0.0;0.0;0.0;0.0
3.0;1753880848.75192;16.33122;0.72;-1.46;-0.15;0.822369;0.548686;0.008959;0.0;0.0;0.0;0.0;0.0;0.0
3.0;1753880848.756654;16.31953;0.65;-1.41;-0.22;0.822079;0.549186;0.009086;0.0;0.0;0.0;0.0;0.0;0.0
3.0;1753880848.761388;16.288605;0.8;-1.35;-0.1;0.821775;0.548742;0.008816;0.0;0.0;0.0;0.0;0.0;0.0
3.0;1753880848.766122;16.362983;0.75;-1.33;-0.24;0.82125;0.548086;0.007828;0.0;0.0;0.0;0.0;0.0;0.0
3.0;1753880848.770856;16.320586;0.76;-1.39;-0.21;0.821664;0.548113;0.008949;0.0;0.0;0.0;0.0;0.0;0.0
3.0;1753880848.77534;16.324219;0.7;-1.4;-0.21;0.821304;0.548512;0.008296;0.0;0.0;0.0;0.0;0.0;0.0
3.0;1753880848.780074;16.317784;0.73;-1.42;-0.2;0.821201;0.547894;0.007894;0.0;0.0;0.0;0.0;0.0;0.0
3.0;1753880848.784808;16.37772;0.8;-1.41;-0.15;0.821581;0.547105;0.008262;0.0;0.0;0.0;0.0;0.0;0.0
3.0;1753880848.789542;16.328028;0.61;-1.36;-0.12;0.821613;0.547153;0.008045;0.0;0.0;0.0;0.0;0.0;0.0
3.0;1753880848.794276;16.314118;0.75;-1.26;-0.17;0.820569;0.547644;0.00753;0.0;0.0;0.0;0.0;0.0;0.0
3.0;1753880848.79901;16.330299;0.73;-1.35;-0.15;0.819652;0.547381;0.007258;0.0;0.0;0.0;0.0;0.0;0.0
3.0;1753880848.803744;16.309353;0.7;-1.38;-0.19;0.821592;0.54768;0.008061;0.0;0.0;0.0;0.0;0.0;0.0
3.0;1753880848.808478;16.269575;0.75;-1.32;-0.21;0.821467;0.547178;0.008518;0.0;0.0;0.0;0.0;0.0;0.0
3.0;1753880848.813212;16.305173;0.74;-1.39;-0.14;0.819674;0.545847;0.007906;0.0;0.0;0.0;0.0;0.0;0.0
3.0;1753880848.817946;16.337598;0.67;-1.31;-0.17;0.820323;0.546621;0.00507;0.0;0.0;0.0;0.0;0.0;0.0
3.0;1753880848.82503;16.324219;0.77;-1.33;-0.14;0.821182;0.546316;0.007564;0.0;0.0;0.0;0.0;0.0;0.0
3.0;1753880848.829764;16.279962;0.75;-1.35;-0.26;0.820494;0.546852;0.008103;0.0;0.0;0.0;0.0;0.0;0.0
3.0;1753880848.834498;16.32995;0.78;-1.27;-0.16;0.821648;0.546325;0.009357;0.0;0.0;0.0;0.0;0.0;0.0
3.0;1753880848.839232;16.365151;0.72;-1.23;-0.15;0.821804;0.546048;0.008539;0.0;0.0;0.0;0.0;0.0;0.0
3.0;1753880848.843966;16.361524;0.73;-1.25;-0.15;0.820797;0.547958;0.008417;0.0;0.0;0.0;0.0;0.0;0.0
3.0;1753880848.8487;16.329041;0.76;-1.26;-0.18;0.821891;0.547461;0.009331;0.0;0.0;0.0;0.0;0.0;0.0
3.0;1753880848.853434;16.316658;0.83;-1.32;-0.16;0.822983;0.546999;0.008747;0.0;0.0;0.0;0.0;0.0;0.0
3.0;1753880848.858168;16.294919;0.72;-1.3;-0.31;0.822142;0.5467;0.008259;0.0;0.0;0.0;0.0;0.0;0.0
3.0;1753880848.862902;16.297403;0.8;-1.25;-0.18;0.822313;0.545881;0.009031;0.0;0.0;0.0;0.0;0.0;0.0
3.0;1753880848.867636;16.297947;0.72;-1.19;-0.13;0.822281;0.547528;0.008668;0.0;0.0;0.0;0.0;0.0;0.0
3.0;1753880848.87237;16.363383;0.73;-1.21;-0.22;0.823525;0.547085;0.008187;0.0;0.0;0.0;0.0;0.0;0.0
3.0;1753880848.87695;16.324219;0.7;-1.26;-0.21;0.822524;0.548268;0.008662;0.0;0.0;0.0;0.0;0.0;0.0
3.0;1753880848.881684;16.353178;0.69;-1.26;-0.2;0.822082;0.548829;0.007396;0.0;0.0;0.0;0.0;0.0;0.0
3.0;1753880848.886418;16.282674;0.72;-1.3;-0.26;0.821685;0.548659;0.010199;0.0;0.0;0.0;0.0;0.0;0.0
3.0;1753880848.891152;16.30241;0.69;-1.26;-0.24;0.821493;0.549333;0.009395;0.0;0.0;0.0;0.0;0.0;0.0
3.0;1753880848.895886;16.302314;0.77;-1.31;-0.24;0.821786;0.547724;0.00684;0.0;0.0;0.0;0.0;0.0;0.0
3.0;1753880848.90062;16.291565;0.73;-1.28;-0.25;0.823939;0.548252;0.006759;0.0;0.0;0.0;0.0;0.0;0.0
3.0;1753880848.905354;16.268776;0.81;-1.31;-0.26;0.822804;0.547509;0.008596;0.0;0.0;0.0;0.0;0.0;0.0
3.0;1753880848.910088;16.327145;0.75;-1.24;-0.21;0.823176;0.54629;0.007401;0.0;0.0;0.0;0.0;0.0;0.0
3.0;1753880848.914822;16.262765;0.8;-1.19;-0.2;0.821152;0.547556;0.007826;0.0;0.0;0.0;0.0;0.0;0.0
3.0;1753880848.919556;16.230179;0.73;-1.25;-0.22;0.822217;0.547812;0.007718;0.0;0.0;0.0;0.0;0.0;0.0
3.0;1753880848.92497;16.296875;0.77;-1.26;-0.28;0.822402;0.547414;0.007564;0.0;0.0;0.0;0.0;0.0;0.0
3.0;1753880848.929704;16.34772;0.81;-1.31;-0.31;0.822592;0.548142;0.006237;0.0;0.0;0.0;0.0;0.0;0.0
3.0;1753880848.934438;16.304595;0.74;-1.23;-0.27;0.823159;0.548261;0.00763;0.0;0.0;0.0;0.0;0.0;0.0
3.0;1753880848.939172;16.257859;0.83;-1.2;-0.25;0.822479;0.546572;0.008147;0.0;0.0;0.0;0.0;0.0;0.0
3.0;1753880848.943906;16.312122;0.73;-1.23;-0.25;0.822329;0.547628;0.008091;0.0;0.0;0.0;0.0;0.0;0.0
3.0;1753880848.94864;16.328429;0.76;-1.33;-0.16;0.82158;0.547879;0.008284;0.0;0.0;0.0;0.0;0.0;0.0
3.0;1753880848.953374;16.284172;0.72;-1.29;-0.22;0.821543;0.547289;0.008175;0.0;0.0;0.0;0.0;0.0;0.0
3.0;1753880848.958108;16.305927;0.74;-1.3;-0.19;0.82312;0.547788;0.007415;0.0;0.0;0.0;0.0;0.0;0.0
3.0;1753880848.962842;16.355185;0.65;-1.29;-0.22;0.821915;0.54795;0.008338;0.0;0.0;0.0;0.0;0.0;0.0
3.0;1753880848.967576;16.287726;0.76;-1.23;-0.22;0.821102;0.548754;0.007373;0.0;0.0;0.0;0.0;0.0;0.0
3.0;1753880848.97231;16.282127;0.76;-1.35;-0.24;0.822429;0.548544;0.009215;0.0;0.0;0.0;0.0;0.0;0.0
3.0;1753880848.9807;16.296875;0.7;-1.33;-0.21;0.821548;0.549;0.008906;0.0;0.0;0.0;0.0;0.0;0.0
3.0;1753880848.985664;16.296875;0.7;-1.33;-0.21;0.820694;0.54778;0.007808;0.0;0.0;0.0;0.0;0.0;0.0
3.0;1753880848.990167;16.289062;0.7;-1.33;-0.28;0.821914;0.546804;0.007686;0.0;0.0;0.0;0.0;0.0;0.0
3.0;1753880848.994639;16.289062;0.63;-1.33;-0.28;0.822402;0.54778;0.009882;0.0;0.0;0.0;0.0;0.0;0.0
3.0;1753880848.999373;16.276039;0.53;-1.21;-0.31;0.822704;0.54676;0.010335;44.0;0.0;0.0;30.3;0.0;0.0
3.0;1753880849.004107;16.347962;0.67;-1.38;-0.38;0.824814;0.547838;0.010806;131.4;0.0;0.0;-38.7;0.0;0.0
3.0;1753880849.008841;16.297563;0.71;-1.29;-0.33;0.823014;0.54671;0.0101;-48.5;0.0;0.0;-26.5;0.0;0.0
3.0;1753880849.013575;16.2788;0.68;-1.39;-0.28;0.822362;0.548819;0.010038;-78.7;0.0;0.0;-0.9;0.0;0.0
3.0;1753880849.018309;16.328696;0.77;-1.33;-0.25;0.82074;0.547735;0.008947;-6.0;0.0;0.0;24.4;0.0;0.0
3.0;1753880849.023043;16.280406;0.58;-1.29;-0.3;0.821721;0.548582;0.00897;-118.3;0.0;0.0;35.1;0.0;0.0
3.0;1753880849.027777;16.278827;0.64;-1.28;-0.27;0.822942;0.547232;0.010699;-220.4;0.0;0.0;-0.0;0.0;0.0
3.0;1753880849.032511;16.278363;0.6;-1.33;-0.18;0.821987;0.548749;0.009518;16.2;0.0;0.0;29.0;0.0;0.0
3.0;1753880849.037245;16.345718;0.55;-1.31;-0.24;0.821671;0.547276;0.00925;-306.9;0.0;0.0;-6.4;0.0;0.0
3.0;1753880849.041979;16.294729;0.62;-1.39;-0.28;0.821415;0.548403;0.010488;-165.0;0.0;0.0;-15.5;0.0;0.0
3.0;1753880849.046713;16.294629;0.75;-1.33;-0.26;0.822233;0.548009;0.008496;-58.0;0.0;0.0;12.2;0.0;0.0
3.0;1753880849.051448;16.299071;0.75;-1.32;-0.22;0.823226;0.548569;0.009368;-61.6;0.0;0.0;-7.9;0.0;0.0
3.0;1753880849.056182;16.32543;0.51;-1.43;-0.19;0.822874;0.548637;0.009479;-219.9;0.0;0.0;2.2;0.0;0.0
3.0;1753880849.060916;16.291333;0.62;-1.37;-0.25;0.8222;0.547552;0.00954;-76.3;0.0;0.0;-21.9;0.0;0.0
3.0;1753880849.06565;16.291848;0.69;-1.38;-0.35;0.822112;0.548418;0.008732;-326.1;0.0;0.0;5.9;0.0;0.0
3.0;1753880849.070384;16.25457;0.71;-1.34;-0.28;0.820887;0.54762;0.007613;-8.7;0.0;0.0;13.7;0.0;0.0
3.0;1753880849.075118;16.262807;0.69;-1.32;-0.33;0.82151;0.547617;0.009731;113.9;0.0;0.0;-16.7;0.0;0.0
3.0;1753880849.079852;16.261538;0.6;-1.36;-0.27;0.822341;0.547832;0.008337;228.3;0.0;0.0;-14.9;0.0;0.0
3.0;1753880849.084586;16.216372;0.78;-1.33;-0.37;0.822577;0.547944;0.009739;29.3;0.0;0.0;-7.5;0.0;0.0
3.0;1753880849.08932;16.304915;0.69;-1.27;-0.29;0.822168;0.547926;0.008166;7.1;0.0;0.0;-13.1;0.0;0.0
3.0;1753880849.094054;16.282135;0.64;-1.32;-0.27;0.821481;0.547176;0.007752;30.5;0.0;0.0;-6.6;0.0;0.0
3.0;1753880849.098788;16.351397;0.73;-1.34;-0.26;0.821427;0.547775;0.007182;5.4;0.0;0.0;25.2;0.0;0.0
3.0;1753880849.103522;16.269905;0.7;-1.34;-0.3;0.820932;0.548532;0.008792;-33.6;0.0;0.0;11.0;0.0;0.0
3.0;1753880849.108256;16.344078;0.78;-1.38;-0.24;0.821556;0.547389;0.007232;-132.2;0.0;0.0;-7.7;0.0;0.0
3.0;1753880849.11299;16.314701;0.58;-1.33;-0.26;0.822361;0.54807;0.009444;188.3;0.0;0.0;-21.2;0.0;0.0
3.0;1753880849.117724;16.29603;0.68;-1.31;-0.22;0.821013;0.547714;0.008561;10.1;0.0;0.0;19.5;0.0;0.0
3.0;1753880849.122458;16.311495;0.71;-1.45;-0.35;0.821838;0.548132;0.007066;184.8;0.0;0.0;19.6;0.0;0.0
3.0;1753880849.127192;16.254844;0.83;-1.36;-0.33;0.822263;0.547826;0.008337;6.8;0.0;0.0;-19.5;0.0;0.0
3.0;1753880849.131926;16.308844;0.68;-1.33;-0.31;0.822389;0.547996;0.008123;-87.4;0.0;0.0;5.7;0.0;0.0
3.0;1753880849.13666;16.313933;0.64;-1.37;-0.22;0.821605;0.547555;0.00931;-53.2;0.0;0.0;20.1;0.0;0.0
3.0;1753880849.141394;16.310963;0.85;-1.34;-0.29;0.821462;0.547683;0.008502;249.5;0.0;0.0;9.3;0.0;0.0
3.0;1753880849.146128;16.29864;0.76;-1.29;-0.3;0.821001;0.547994;0.008134;26.3;0.0;0.0;19.2;0.0;0.0
3.0;1753880849.150862;16.282954;0.69;-1.27;-0.26;0.822029;0.549027;0.007631;-69.1;0.0;0.0;6.5;0.0;0.0
3.0;1753880849.155596;16.288647;0.63;-1.33;-0.19;0.821673;0.5485;0.007265;-33.0;0.0;0.0;1.3;0.0;0.0
3.0;1753880849.16033;16.309298;0.77;-1.3;-0.29;0.82213;0.548903;0.007383;-37.1;0.0;0.0;6.9;0.0;0.0
3.0;1753880849.165064;16.281627;0.79;-1.35;-0.31;0.821054;0.549072;0.006687;-6.5;0.0;0.0;-11.1;0.0;0.0
3.0;1753880849.169798;16.319933;0.66;-1.34;-0.19;0.82218;0.548176;0.00839;-10.3;0.0;0.0;0.8;0.0;0.0
3.0;1753880849.174532;16.309353;0.74;-1.39;-0.29;0.821438;0.548943;0.00851;126.0;0.0;0.0;12.6;0.0;0.0
3.0;1753880849.179266;16.332378;0.76;-1.29;-0.28;0.820982;0.547448;0.006793;-65.4;0.0;0.0;24.3;0.0;0.0
3.0;1753880849.184;16.290694;0.68;-1.3;-0.28;0.823096;0.548053;0.008216;-30.8;0.0;0.0;-58.6;0.0;0.0
3.0;1753880849.188734;16.294835;0.73;-1.3;-0.32;0.82225;0.548291;0.007526;-0.8;0.0;0.0;3.6;0.0;0.0
3.0;1753880849.193468;16.265064;0.77;-1.31;-0.25;0.821035;0.548132;0.00574;221.5;0.0;0.0;-23.5;0.0;0.0
3.0;1753880849.198202;16.288086;0.77;-1.3;-0.31;0.820951;0.548437;0.007392;-91.5;0.0;0.0;9.9;0.0;0.0
3.0;1753880849.202937;16.358893;0.91;-1.41;-0.32;0.821682;0.54832;0.007725;-62.7;0.0;0.0;-9.8;0.0;0.0
3.0;1753880849.207671;16.253385;0.84;-1.4;-0.32;0.821933;0.548362;0.00846;26.1;0.0;0.0;-10.0;0.0;0.0
3.0;1753880849.212405;16.318835;0.88;-1.39;-0.21;0.822754;0.548137;0.006891;-33.5;0.0;0.0;19.7;0.0;0.0
3.0;1753880849.217139;16.308453;0.73;-1.3;-0.38;0.821796;0.548167;0.008359;-87.3;0.0;0.0;-2.0;0.0;0.0
3.0;1753880849.2229;16.289062;0.77;-1.33;-0.28;0.821792;0.548146;0.007198;0.0;0.0;0.0;0.0;0.0;0.0
3.0;1753880849.227634;16.257586;0.79;-1.36;-0.23;0.822057;0.548711;0.007376;-32.2;0.0;0.0;6.6;0.0;0.0
3.0;1753880849.232368;16.305118;0.78;-1.31;-0.32;0.820408;0.5481;0.006964;-20.7;0.0;0.0;10.2;0.0;0.0
3.0;1753880849.237102;16.293078;0.79;-1.4;-0.23;0.821467;0.549258;0.006446;217.3;0.0;0.0;2.5;0.0;0.0
3.0;1753880849.241836;16.258522;0.77;-1.36;-0.28;0.821694;0.548192;0.007818;127.2;0.0;0.0;-29.0;0.0;0.0
3.0;1753880849.24657;16.281908;0.78;-1.36;-0.3;0.821533;0.548044;0.007155;214.6;0.0;0.0;2.8;0.0;0.0
3.0;1753880849.251304;16.317736;0.75;-1.35;-0.28;0.822055;0.548145;0.006856;-11.8;0.0;0.0;11.9;0.0;0.0
3.0;1753880849.256038;16.290404;0.72;-1.39;-0.28;0.821762;0.547714;0.006981;-2.6;0.0;0.0;-15.9;0.0;0.0
3.0;1753880849.260772;16.338485;0.82;-1.36;-0.3;0.822352;0.548094;0.008442;170.2;0.0;0.0;-47.2;0.0;0.0
3.0;1753880849.265506;16.272645;0.75;-1.34;-0.28;0.819812;0.54849;0.006687;19.6;0.0;0.0;5.2;0.0;0.0
3.0;1753880849.27024;16.351755;0.75;-1.28;-0.26;0.820879;0.547949;0.006419;10.3;0.0;0.0;-0.4;0.0;0.0
3.0;1753880849.274974;16.296379;0.76;-1.31;-0.34;0.821061;0.548243;0.006571;158.7;0.0;0.0;3.3;0.0;0.0
3.0;1753880849.279708;16.307801;0.75;-1.35;-0.22;0.821146;0.548139;0.006813;-121.1;0.0;0.0;-5.8;0.0;0.0
3.0;1753880849.284442;16.290836;0.76;-1.4;-0.28;0.821796;0.548242;0.00806;-60.9;0.0;0.0;29.1;0.0;0.0
3.0;1753880849.289176;16.268907;0.76;-1.36;-0.24;0.821251;0.548004;0.007635;-57.2;0.0;0.0;-19.1;0.0;0.0
3.0;1753880849.29391;16.308964;0.83;-1.4;-0.28;0.821662;0.54815;0.007036;25.3;0.0;0.0;46.7;0.0;0.0
3.0;1753880849.298644;16.280496;0.72;-1.35;-0.27;0.821086;0.547497;0.007126;-111.0;0.0;0.0;-8.1;0.0;0.0
3.0;1753880849.303378;16.243446;0.81;-1.37;-0.28;0.82051;0.548041;0.00625;122.6;0.0;0.0;-42.4;0.0;0.0
3.0;1753880849.308112;16.283799;0.85;-1.35;-0.24;0.822001;0.547238;0.006687;-37.2;0.0;0.0;-0.4;0.0;0.0
3.0;1753880849.312847;16.298833;0.7;-1.32;-0.22;0.821215;0.548187;0.007417;-60.8;0.0;0.0;-2.8;0.0;0.0
3.0;1753880849.317581;16.278069;0.66;-1.43;-0.21;0.820425;0.548504;0.00877;-106.9;0.0;0.0;-12.6;0.0;0.0
3.0;1753880849.322315;16.287409;0.86;-1.27;-0.23;0.820228;0.548074;0.007968;136.9;0.0;0.0;-12.9;0.0;0.0
3.0;1753880849.327049;16.288725;0.78;-1.39;-0.25;0.821292;0.547562;0.007765;-227.8;0.0;0.0;-13.4;0.0;0.0
3.0;1753880849.331783;16.29419;0.78;-1.34;-0.3;0.821467;0.547532;0.007446;-241.3;0.0;0.0;-18.8;0.0;0.0
3.0;1753880849.336517;16.290629;0.6;-1.36;-0.24;0.820467;0.547195;0.007269;-188.5;0.0;0.0;-17.8;0.0;0.0
3.0;1753880849.341251;16.281437;0.75;-1.46;-0.27;0.821264;0.547675;0.007586;23.8;0.0;0.0;-20.0;0.0;0.0
3.0;1753880849.345985;16.255024;0.8;-1.36;-0.26;0.821189;0.548077;0.008191;-56.9;0.0;0.0;-12.9;0.0;0.0
3.0;1753880849.350719;16.303616;0.81;-1.4;-0.32;0.820141;0.547486;0.007315;-201.6;0.0;0.0;-10.4;0.0;0.0
3.0;1753880849.355453;16.302961;0.7;-1.37;-0.23;0.821583;0.548489;0.007585;-124.8;0.0;0.0;-1.2;0.0;0.0
3.0;1753880849.360187;16.256106;0.8;-1.43;-0.26;0.82041;0.548029;0.007491;70.2;0.0;0.0;22.0;0.0;0.0
3.0;1753880849.364921;16.261057;0.84;-1.38;-0.21;0.821484;0.548097;0.008051;16.9;0.0;0.0;23.3;0.0;0.0
3.0;1753880849.369655;16.289753;0.81;-1.4;-0.24;0.820207;0.548049;0.007929;-269.3;0.0;0.0;18.3;0.0;0.0
3.0;1753880849.374389;16.312888;0.77;-1.41;-0.19;0.821004;0.54802;0.00764;83.2;0.0;0.0;-13.4;0.0;0.0
3.0;1753880849.379123;16.268028;0.69;-1.42;-0.25;0.821636;0.547215;0.008681;235.0;0.0;0.0;33.8;0.0;0.0
3.0;1753880849.383857;16.31999;0.79;-1.4;-0.26;0.820577;0.548031;0.009169;74.7;0.0;0.0;1.0;0.0;0.0
3.0;1753880849.388591;16.251288;0.84;-1.36;-0.27;0.820187;0.546643;0.009488;45.6;0.0;0.0;-2.0;0.0;0.0
3.0;1753880849.393325;16.302899;0.77;-1.36;-0.26;0.820731;0.547448;0.009818;-145.6;0.0;0.0;0.8;0.0;0.0
3.0;1753880849.398059;16.271359;0.92;-1.33;-0.2;0.820376;0.54795;0.007245;64.9;0.0;0.0;-17.3;0.0;0.0
3.0;1753880849.402794;16.243962;0.72;-1.36;-0.2;0.820594;0.547846;0.008181;-197.4;0.0;0.0;-41.6;0.0;0.0
3.0;1753880849.407528;16.282354;0.77;-1.37;-0.24;0.820323;0.548119;0.007876;12.0;0.0;0.0;11.6;0.0;0.0
3.0;1753880849.412262;16.323827;0.73;-1.36;-0.19;0.820735;0.548084;0.007411;-38.6;0.0;0.0;37.0;0.0;0.0
3.0;1753880849.416996;16.262137;0.77;-1.3;-0.22;0.820891;0.547693;0.008845;179.4;0.0;0.0;1.2;0.0;0.0
3.0;1753880849.42173;16.261164;0.75;-1.46;-0.32;0.82123;0.547659;0.009003;-81.3;0.0;0.0;3.2;0.0;0.0
3.0;1753880849.426464;16.298652;0.82;-1.37;-0.23;0.820642;0.548968;0.008737;137.2;0.0;0.0;-8.9;0.0;0.0
3.0;1753880849.431198;16.292514;0.78;-1.41;-0.22;0.82051;0.547935;0.008659;31.6;0.0;0.0;-0.5;0.0;0.0
3.0;1753880849.4369;16.289062;0.77;-1.4;-0.21;0.82045;0.547902;0.00854;0.0;0.0;0.0;0.0;0.0;0.0
3.0;1753880849.441634;16.284332;0.66;-1.43;-0.22;0.819243;0.54726;0.008362;-158.4;0.0;0.0;-9.5;0.0;0.0
3.0;1753880849.446368;16.332144;0.86;-1.43;-0.3;0.819691;0.547701;0.00877;27.1;0.0;0.0;-0.9;0.0;0.0
3.0;1753880849.451102;16.261238;0.86;-1.36;-0.15;0.818972;0.547162;0.007641;138.2;0.0;0.0;-35.6;0.0;0.0
3.0;1753880849.455836;16.290288;0.78;-1.38;-0.26;0.820539;0.547492;0.008219;50.4;0.0;0.0;-9.9;0.0;0.0
3.0;1753880849.46057;16.311117;0.77;-1.39;-0.2;0.820334;0.548087;0.007455;-55.7;0.0;0.0;8.3;0.0;0.0
3.0;1753880849.465304;16.282785;0.74;-1.36;-0.24;0.820246;0.548768;0.009632;56.6;0.0;0.0;14.6;0.0;0.0
3.0;1753880849.470038;16.295686;0.78;-1.34;-0.21;0.819698;0.549354;0.008757;-53.4;0.0;0.0;37.9;0.0;0.0
3.0;1753880849.474772;16.290545;0.81;-1.43;-0.25;0.819103;0.548431;0.009007;84.5;0.0;0.0;11.8;0.0;0.0
3.0;1753880849.479506;16.211148;0.84;-1.32;-0.27;0.819839;0.547501;0.008792;17.6;0.0;0.0;32.4;0.0;0.0
3.0;1753880849.48424;16.28679;0.73;-1.41;-0.19;0.818413;0.548042;0.009271;-228.2;0.0;0.0;-23.7;0.0;0.0
3.0;1753880849.488974;16.269678;0.78;-1.35;-0.25;0.819576;0.548813;0.010146;85.1;0.0;0.0;25.6;0.0;0.0
3.0;1753880849.493708;16.296449;0.8;-1.41;-0.16;0.819675;0.548171;0.008348;-305.2;0.0;0.0;22.8;0.0;0.0
3.0;1753880849.498442;16.297092;0.82;-1.36;-0.23;0.819948;0.547788;0.007915;-230.1;0.0;0.0;5.8;0.0;0.0
3.0;1753880849.503176;16.304606;0.72;-1.41;-0.18;0.82038;0.547107;0.009061;37.7;0.0;0.0;-1.1;0.0;0.0
3.0;1753880849.50791;16.263972;0.7;-1.35;-0.22;0.819758;0.547304;0.007212;66.6;0.0;0.0;8.6;0.0;0.0
3.0;1753880849.512644;16.297143;0.62;-1.39;-0.21;0.820547;0.54908;0.008146;-47.9;0.0;0.0;-21.3;0.0;0.0
3.0;1753880849.517378;16.264916;0.69;-1.37;-0.24;0.820488;0.547617;0.009544;18.3;0.0;0.0;-11.5;0.0;0.0
3.0;1753880849.522112;16.258612;0.86;-1.35;-0.18;0.820255;0.547843;0.008924;40.8;0.0;0.0;-0.0;0.0;0.0
3.0;1753880849.526847;16.328699;0.81;-1.41;-0.18;0.820622;0.548782;0.008868;15.8;0.0;0.0;-13.5;0.0;0.0
3.0;1753880849.531581;16.327554;0.81;-1.42;-0.15;0.819588;0.548156;0.008285;-238.2;0.0;0.0;-28.4;0.0;0.0
3.0;1753880849.536315;16.219087;0.73;-1.33;-0.26;0.82028;0.547;0.007914;-163.4;0.0;0.0;-13.7;0.0;0.0
3.0;1753880849.541049;16.278422;0.75;-1.38;-0.2;0.820215;0.547921;0.008515;80.8;0.0;0.0;-12.7;0.0;0.0
3.0;1753880849.545783;16.302039;0.73;-1.38;-0.16;0.820746;0.548237;0.008108;-55.8;0.0;0.0;25.3;0.0;0.0
3.0;1753880849.550517;16.24977;0.79;-1.47;-0.23;0.820489;0.548118;0.00683;107.5;0.0;0.0;5.5;0.0;0.0
3.0;1753880849.555251;16.280788;0.87;-1.38;-0.18;0.82031;0.549525;0.009816;-58.0;0.0;0.0;-12.4;0.0;0.0
3.0;1753880849.559985;16.268537;0.71;-1.35;-0.26;0.820067;0.547253;0.008044;177.8;0.0;0.0;-12.8;0.0;0.0
3.0;1753880849.564719;16.252889;0.78;-1.38;-0.19;0.821285;0.548343;0.009443;21.8;0.0;0.0;21.9;0.0;0.0
3.0;1753880849.569453;16.25446;0.76;-1.41;-0.14;0.821213;0.547261;0.007375;-281.1;0.0;0.0;-20.9;0.0;0.0
3.0;1753880849.574187;16.286188;0.66;-1.4;-0.25;0.820345;0.548011;0.010355;56.1;0.0;0.0;-3.9;0.0;0.0
3.0;1753880849.578921;16.28931;0.74;-1.38;-0.16;0.821404;0.548408;0.009434;-187.9;0.0;0.0;-21.8;0.0;0.0
3.0;1753880849.583655;16.295569;0.71;-1.3;-0.11;0.820571;0.547637;0.009371;-21.3;0.0;0.0;-14.8;0.0;0.0
3.0;1753880849.588389;16.314716;0.82;-1.39;-0.19;0.821594;0.548166;0.009227;-31.6;0.0;0.0;15.7;0.0;0.0
3.0;1753880849.593123;16.327867;0.83;-1.42;-0.2;0.821508;0.547296;0.009788;-83.3;0.0;0.0;27.0;0.0;0.0
3.0;1753880849.597857;16.293344;0.77;-1.36;-0.21;0.82119;0.547446;0.008316;-110.5;0.0;0.0;9.3;0.0;0.0
3.0;1753880849.602591;16.293269;0.76;-1.3;-0.18;0.820624;0.547907;0.008397;275.5;0.0;0.0;4.1;0.0;0.0
3.0;1753880849.607325;16.321041;0.77;-1.41;-0.19;0.82042;0.548385;0.009035;54.0;0.0;0.0;-14.0;0.0;0.0
3.0;1753880849.612059;16.251329;0.83;-1.42;-0.16;0.819846;0.547988;0.009554;-177.2;0.0;0.0;-53.4;0.0;0.0
3.0;1753880849.616794;16.27511;0.64;-1.39;-0.24;0.820747;0.548195;0.008775;-28.1;0.0;0.0;-2.4;0.0;0.0
3.0;1753880849.621528;16.314058;0.76;-1.3;-0.24;0.821268;0.546714;0.008528;-204.0;0.0;0.0;-13.1;0.0;0.0
3.0;1753880849.626262;16.279481;0.69;-1.4;-0.22;0.819743;0.548079;0.008285;44.9;0.0;0.0;7.0;0.0;0.0
3.0;1753880849.630996;16.280654;0.72;-1.3;-0.16;0.819793;0.548514;0.007587;-112.5;0.0;0.0;15.7;0.0;0.0
3.0;1753880849.63573;16.30165;0.67;-1.37;-0.17;0.818865;0.548739;0.006494;136.0;0.0;0.0;-27.1;0.0;0.0
3.0;1753880849.640464;16.305046;0.63;-1.36;-0.27;0.819823;0.547819;0.008139;-54.7;0.0;0.0;-21.9;0.0;0.0
3.0;1753880849.645198;16.246512;0.71;-1.38;-0.12;0.821894;0.547894;0.007733;-25.8;0.0;0.0;7.9;0.0;0.0
3.0;1753880849.649932;16.288038;0.83;-1.36;-0.19;0.820072;0.548301;0.008768;-198.4;0.0;0.0;-9.6;0.0;0.0
3.0;1753880849.654666;16.275232;0.69;-1.37;-0.17;0.820316;0.54771;0.010103;11.4;0.0;0.0;-5.7;0.0;0.0
3.0;1753880849.6594;16.249879;0.72;-1.33;-0.15;0.820357;0.546556;0.00873;-84.0;0.0;0.0;-27.1;0.0;0.0
3.0;1753880849.664134;16.292927;0.67;-1.47;-0.21;0.820627;0.547958;0.010786;-114.1;0.0;0.0;-9.7;0.0;0.0
3.0;1753880849.668868;16.309841;0.83;-1.25;-0.16;0.821094;0.54777;0.00984;-131.2;0.0;0.0;-6.3;0.0;0.0
3.0;1753880849.673602;16.299078;0.77;-1.37;-0.13;0.81914;0.549199;0.010748;-113.2;0.0;0.0;-5.8;0.0;0.0
3.0;1753880849.678336;16.279668;0.74;-1.43;-0.18;0.821181;0.547614;0.007333;25.3;0.0;0.0;11.3;0.0;0.0
3.0;1753880849.68307;16.267838;0.77;-1.3;-0.07;0.82108;0.548821;0.00976;127.7;0.0;0.0;19.4;0.0;0.0
3.0;1753880849.687804;16.315202;0.72;-1.36;-0.11;0.81988;0.547927;0.008535;-117.4;0.0;0.0;21.9;0.0;0.0
3.0;1753880849.692538;16.23349;0.78;-1.41;-0.14;0.819939;0.548712;0.009176;-89.1;0.0;0.0;10.6;0.0;0.0
3.0;1753880849.697272;16.262126;0.87;-1.33;-0.15;0.821591;0.547463;0.010639;-19.0;0.0;0.0;-21.8;0.0;0.0
3.0;1753880849.702006;16.29409;0.75;-1.35;-0.25;0.820125;0.547822;0.007899;-205.7;0.0;0.0;-12.2;0.0;0.0
3.0;1753880849.70674;16.284566;0.83;-1.37;-0.06;0.820152;0.548957;0.008442;104.5;0.0;0.0;2.3;0.0;0.0
3.0;1753880849.711474;16.283646;0.69;-1.31;-0.18;0.820233;0.547487;0.009274;-154.4;0.0;0.0;-24.0;0.0;0.0
3.0;1753880849.716208;16.259831;0.81;-1.36;-0.17;0.820038;0.54766;0.008515;-16.6;0.0;0.0;8.1;0.0;0.0
3.0;1753880849.720942;16.303661;0.77;-1.28;-0.17;0.819235;0.548213;0.009361;-6.9;0.0;0.0;-23.9;0.0;0.0
3.0;1753880849.725676;16.296803;0.55;-1.32;-0.19;0.820315;0.547353;0.007941;43.6;0.0;0.0;-15.2;0.0;0.0
3.0;1753880849.73041;16.260232;0.79;-1.35;-0.17;0.821576;0.547768;0.007234;-165.9;0.0;0.0;-6.7;0.0;0.0
3.0;1753880849.735144;16.261775;0.66;-1.3;-0.13;0.820956;0.547854;0.007451;61.7;0.0;0.0;-21.7;0.0;0.0
3.0;1753880849.739878;16.282107;0.83;-1.43;-0.11;0.820364;0.547185;0.008566;-30.2;0.0;0.0;-8.6;0.0;0.0
3.0;1753880849.744612;16.255995;0.84;-1.35;-0.23;0.821991;0.547328;0.00924;121.3;0.0;0.0;4.6;0.0;0.0
3.0;1753880849.749346;16.287399;0.76;-1.35;-0.15;0.819599;0.54815;0.008471;-151.3;0.0;0.0;17.2;0.0;0.0
3.0;1753880849.75408;16.249699;0.75;-1.38;-0.18;0.820594;0.548732;0.007985;-35.7;0.0;0.0;18.8;0.0;0.0
3.0;1753880849.758814;16.304711;0.87;-1.34;-0.18;0.821456;0.547872;0.009197;130.2;0.0;0.0;-2.0;0.0;0.0
3.0;1753880849.763548;16.268298;0.79;-1.3;-0.18;0.820609;0.547605;0.008658;-136.9;0.0;0.0;11.7;0.0;0.0
3.0;1753880849.768283;16.29889;0.75;-1.31;-0.14;0.820025;0.547461;0.008643;184.9;0.0;0.0;-3.8;0.0;0.0
3.0;1753880849.773017;16.264425;0.82;-1.34;-0.16;0.820031;0.547307;0.005827;-124.9;0.0;0.0;10.3;0.0;0.0
3.0;1753880849.777751;16.248314;0.79;-1.28;-0.1;0.821413;0.547365;0.009062;22.1;0.0;0.0;18.3;0.0;0.0
3.0;1753880849.782485;16.286557;0.91;-1.28;-0.1;0.821321;0.547308;0.007797;-10.6;0.0;0.0;-7.8;0.0;0.0
3.0;1753880849.787219;16.268326;0.88;-1.31;-0.27;0.820963;0.54799;0.008486;36.6;0.0;0.0;-24.7;0.0;0.0
3.0;1753880849.791953;16.254364;0.8;-1.41;-0.15;0.820427;0.548416;0.009638;138.6;0.0;0.0;-13.8;0.0;0.0
3.0;1753880849.796687;16.243787;0.73;-1.38;-0.17;0.820028;0.547958;0.008397;115.6;0.0;0.0;-51.0;0.0;0.0
3.0;1753880849.801421;16.276007;0.81;-1.3;-0.19;0.820369;0.548558;0.00925;9.4;0.0;0.0;-14.8;0.0;0.0
3.0;1753880849.806155;16.30295;0.7;-1.38;-0.14;0.81953;0.547233;0.007466;-54.3;0.0;0.0;-15.1;0.0;0.0
3.0;1753880849.810889;16.28248;0.72;-1.29;-0.22;0.820074;0.54716;0.008565;-14.3;0.0;0.0;-13.3;0.0;0.0
3.0;1753880849.815623;16.263583;0.69;-1.3;-0.21;0.818997;0.547582;0.008178;-58.5;0.0;0.0;9.1;0.0;0.0
3.0;1753880849.820357;16.26317;0.68;-1.32;-0.12;0.82074;0.548287;0.007588;105.5;0.0;0.0;20.7;0.0;0.0
3.0;1753880849.825091;16.32542;0.62;-1.44;-0.21;0.819507;0.547161;0.009264;264.9;0.0;0.0;-17.1;0.0;0.0
3.0;1753880849.829825;16.305008;0.69;-1.34;-0.18;0.819106;0.547885;0.008336;179.6;0.0;0.0;36.2;0.0;0.0
3.0;1753880849.834559;16.246854;0.9;-1.35;-0.16;0.819907;0.546647;0.00927;-72.8;0.0;0.0;29.5;0.0;0.0
3.0;1753880849.839293;16.274866;0.69;-1.3;-0.16;0.821026;0.547261;0.00953;14.2;0.0;0.0;27.4;0.0;0.0
3.0;1753880849.844027;16.297282;0.7;-1.42;-0.18;0.820324;0.547772;0.00821;-76.0;0.0;0.0;-5.4;0.0;0.0
3.0;1753880849.848761;16.26349;0.8;-1.24;-0.18;0.818638;0.548388;0.007878;-131.3;0.0;0.0;14.7;0.0;0.0
3.0;1753880849.853495;16.287108;0.71;-1.31;-0.13;0.820398;0.54753;0.009103;106.4;0.0;0.0;1.1;0.0;0.0
3.0;1753880849.85823;16.279487;0.78;-1.29;-0.21;0.819998;0.547569;0.010297;-163.4;0.0;0.0;-44.9;0.0;0.0
3.0;1753880849.862964;16.266928;0.73;-1.31;-0.03;0.818447;0.546586;0.009123;4.0;0.0;0.0;37.5;0.0;0.0
3.0;1753880849.8694;16.273438;0.77;-1.33;-0.14;0.820084;0.547902;0.008662;0.0;0.0;0.0;0.0;0.0;0.0
3.0;1753880849.874134;16.301757;0.71;-1.28;-0.12;0.820684;0.548642;0.007897;0.0;0.0;0.0;0.0;0.0;0.0
3.0;1753880849.88232;16.332031;0.7;-1.4;-0.14;0.820816;0.548146;0.00793;0.0;0.0;0.0;0.0;0.0;0.0
3.0;1753880849.887054;16.349465;0.69;-1.43;-0.15;0.821421;0.547352;0.008183;0.0;0.0;0.0;0.0;0.0;0.0
3.0;1753880849.891788;16.320872;0.71;-1.44;-0.15;0.822232;0.548216;0.008471;0.0;0.0;0.0;0.0;0.0;0.0
3.0;1753880849.896522;16.325596;0.65;-1.36;-0.15;0.821297;0.548538;0.007888;0.0;0.0;0.0;0.0;0.0;0.0
3.0;1753880849.901256;16.305126;0.65;-1.31;-0.2;0.823595;0.547826;0.00815;0.0;0.0;0.0;0.0;0.0;0.0
3.0;1753880849.90599;16.36384;0.63;-1.4;-0.17;0.82096;0.54868;0.007879;0.0;0.0;0.0;0.0;0.0;0.0
3.0;1753880849.910724;16.31481;0.65;-1.47;-0.15;0.822167;0.548258;0.006538;0.0;0.0;0.0;0.0;0.0;0.0
3.0;1753880849.915458;16.321098;0.66;-1.42;-0.14;0.822775;0.547079;0.008335;0.0;0.0;0.0;0.0;0.0;0.0
3.0;1753880849.920192;16.303908;0.55;-1.53;-0.24;0.821203;0.546611;0.008899;0.0;0.0;0.0;0.0;0.0;0.0
3.0;1753880849.924926;16.347664;0.72;-1.38;-0.25;0.820948;0.546165;0.009189;0.0;0.0;0.0;0.0;0.0;0.0
3.0;1753880849.93267;16.332031;0.63;-1.4;-0.21;0.822402;0.546804;0.008906;0.0;0.0;0.0;0.0;0.0;0.0
3.0;1753880849.937106;16.28125;0.84;-1.33;-0.14;0.823012;0.547536;0.00732;0.0;0.0;0.0;0.0;0.0;0.0
3.0;1753880849.939853;16.28125;0.84;-1.33;-0.21;0.821548;0.548512;0.007564;0.0;0.0;0.0;0.0;0.0;0.0
3.0;1753880849.944742;16.363281;0.77;-1.33;-0.21;0.822158;0.547414;0.008418;0.0;0.0;0.0;0.0;0.0;0.0
3.0;1753880849.951081;16.363281;0.77;-1.33;-0.28;0.82106;0.549854;0.008906;0.0;0.0;0.0;0.0;0.0;0.0
3.0;1753880849.95389;16.363281;0.77;-1.33;-0.21;0.821792;0.546316;0.00854;0.0;0.0;0.0;0.0;0.0;0.0
3.0;1753880849.958624;16.33262;0.73;-1.26;-0.19;0.822891;0.546933;0.008481;0.0;0.0;0.0;0.0;0.0;0.0
3.0;1753880849.96413;16.355469;0.7;-1.26;-0.21;0.821426;0.54839;0.007808;0.0;0.0;0.0;0.0;0.0;0.0
3.0;1753880849.968902;16.355469;0.7;-1.33;-0.28;0.822158;0.547292;0.007198;0.0;0.0;0.0;0.0;0.0;0.0
3.0;1753880849.972572;16.355469;0.77;-1.33;-0.21;0.822158;0.547292;0.007198;0.0;0.0;0.0;0.0;0.0;0.0
3.0;1753880849.977313;16.355469;0.7;-1.33;-0.21;0.82167;0.547658;0.00793;0.0;0.0;0.0;0.0;0.0;0.0
3.0;1753880849.985568;16.324219;0.77;-1.33;-0.21;0.821304;0.547292;0.007808;0.0;0.0;0.0;0.0;0.0;0.0
3.0;1753880849.986624;16.324219;0.77;-1.33;-0.21;0.821304;0.548146;0.00671;0.0;0.0;0.0;0.0;0.0;0.0
3.0;1753880849.991599;16.324219;0.77;-1.33;-0.21;0.82167;0.54839;0.009394;0.0;0.0;0.0;0.0;0.0;0.0
3.0;1753880849.996333;16.341097;0.79;-1.33;-0.21;0.822042;0.549075;0.010437;0.0;0.0;0.0;0.0;0.0;0.0
3.0;1753880850.001067;16.257247;0.74;-1.36;-0.21;0.821405;0.548155;0.010104;0.0;0.0;0.0;0.0;0.0;0.0
3.0;1753880850.005801;16.339507;0.7;-1.38;-0.22;0.822377;0.549391;0.009664;0.0;0.0;0.0;0.0;0.0;0.0
3.0;1753880850.010535;16.369731;0.68;-1.32;-0.13;0.821816;0.547955;0.007966;0.0;0.0;0.0;0.0;0.0;0.0
3.0;1753880850.015269;16.328901;0.74;-1.35;-0.14;0.821077;0.549064;0.010395;0.0;0.0;0.0;0.0;0.0;0.0
3.0;1753880850.020003;16.293372;0.72;-1.29;-0.13;0.821007;0.547256;0.008547;0.0;0.0;0.0;0.0;0.0;0.0
3.0;1753880850.024737;16.29487;0.76;-1.3;-0.23;0.821338;0.54925;0.010387;0.0;0.0;0.0;0.0;0.0;0.0
3.0;1753880850.029472;16.314693;0.67;-1.31;-0.17;0.821476;0.548935;0.007967;0.0;0.0;0.0;0.0;0.0;0.0
3.0;1753880850.034206;16.295243;0.76;-1.29;-0.24;0.822023;0.549678;0.010012;0.0;0.0;0.0;0.0;0.0;0.0
3.0;1753880850.03894;16.354191;0.73;-1.29;-0.19;0.820804;0.549167;0.008618;0.0;0.0;0.0;0.0;0.0;0.0
3.0;1753880850.043674;16.301627;0.78;-1.33;-0.19;0.821911;0.547659;0.008595;0.0;0.0;0.0;0.0;0.0;0.0
3.0;1753880850.048408;16.301206;0.83;-1.32;-0.24;0.821701;0.547732;0.009948;0.0;0.0;0.0;0.0;0.0;0.0
3.0;1753880850.053142;16.346751;0.75;-1.33;-0.16;0.82159;0.548985;0.009541;0.0;0.0;0.0;0.0;0.0;0.0
3.0;1753880850.057876;16.351043;0.78;-1.34;-0.24;0.821572;0.549671;0.007832;0.0;0.0;0.0;0.0;0.0;0.0
3.0;1753880850.06261;16.329417;0.77;-1.34;-0.18;0.821201;0.548102;0.009851;0.0;0.0;0.0;0.0;0.0;0.0
3.0;1753880850.067344;16.316914;0.73;-1.28;-0.17;0.821697;0.54894;0.009367;0.0;0.0;0.0;0.0;0.0;0.0
3.0;1753880850.072078;16.31974;0.8;-1.33;-0.11;0.8218;0.548077;0.008938;0.0;0.0;0.0;0.0;0.0;0.0
3.0;1753880850.076812;16.29913;0.77;-1.31;-0.22;0.821203;0.54975;0.009654;0.0;0.0;0.0;0.0;0.0;0.0
3.0;1753880850.081546;16.360051;0.71;-1.36;-0.11;0.822525;0.549372;0.009566;0.0;0.0;0.0;0.0;0.0;0.0
3.0;1753880850.08628;16.331346;0.69;-1.25;-0.2;0.821682;0.548861;0.009911;0.0;0.0;0.0;0.0;0.0;0.0
3.0;1753880850.091014;16.323016;0.79;-1.26;-0.22;0.821796;0.549188;0.010483;0.0;0.0;0.0;0.0;0.0;0.0
3.0;1753880850.095748;16.353914;0.73;-1.35;-0.24;0.820736;0.548211;0.008134;0.0;0.0;0.0;0.0;0.0;0.0
3.0;1753880850.100482;16.271841;0.71;-1.34;-0.14;0.821521;0.547914;0.00966;0.0;0.0;0.0;0.0;0.0;0.0
3.0;1753880850.105216;16.319079;0.72;-1.37;-0.17;0.820991;0.549551;0.010047;0.0;0.0;0.0;0.0;0.0;0.0
3.0;1753880850.10995;16.343774;0.79;-1.32;-0.2;0.822228;0.546568;0.00982;0.0;0.0;0.0;0.0;0.0;0.0
3.0;1753880850.114684;16.350972;0.71;-1.26;-0.18;0.821243;0.549219;0.007528;0.0;0.0;0.0;0.0;0.0;0.0
3.0;1753880850.119418;16.296473;0.8;-1.29;-0.22;0.821865;0.550053;0.01001;0.0;0.0;0.0;0.0;0.0;0.0
3.0;1753880850.124152;16.322135;0.74;-1.29;-0.07;0.821769;0.548494;0.00949;0.0;0.0;0.0;0.0;0.0;0.0
3.0;1753880850.128886;16.256267;0.8;-1.33;-0.23;0.821533;0.54778;0.009698;0.0;0.0;0.0;0.0;0.0;0.0
3.0;1753880850.13362;16.323834;0.7;-1.31;-0.22;0.82133;0.549983;0.007926;0.0;0.0;0.0;0.0;0.0;0.0
3.0;1753880850.138354;16.301305;0.68;-1.33;-0.21;0.821601;0.548599;0.0099;0.0;0.0;0.0;0.0;0.0;0.0
3.0;1753880850.143088;16.296037;0.75;-1.35;-0.16;0.822032;0.549422;0.008853;0.0;0.0;0.0;0.0;0.0;0.0
3.0;1753880850.147822;16.323159;0.77;-1.26;-0.19;0.821091;0.548606;0.009953;0.0;0.0;0.0;0.0;0.0;0.0
3.0;1753880850.152556;16.296871;0.79;-1.32;-0.14;0.821028;0.552231;0.008759;0.0;0.0;0.0;0.0;0.0;0.0
3.0;1753880850.15729;16.294482;0.66;-1.3;-0.18;0.821428;0.547904;0.008515;0.0;0.0;0.0;0.0;0.0;0.0
3.0;1753880850.162024;16.264878;0.77;-1.3;-0.16;0.821543;0.549263;0.009286;0.0;0.0;0.0;0.0;0.0;0.0
3.0;1753880850.166758;16.379088;0.8;-1.29;-0.18;0.820948;0.549729;0.007754;0.0;0.0;0.0;0.0;0.0;0.0
3.0;1753880850.171492;16.325794;0.73;-1.3;-0.24;0.821645;0.548067;0.009422;0.0;0.0;0.0;0.0;0.0;0.0
3.0;1753880850.176226;16.318598;0.75;-1.29;-0.19;0.820551;0.549185;0.009296;0.0;0.0;0.0;0.0;0.0;0.0
3.0;1753880850.180961;16.342362;0.72;-1.33;-0.14;0.821682;0.54835;0.008945;0.0;0.0;0.0;0.0;0.0;0.0
3.0;1753880850.185695;16.327134;0.77;-1.29;-0.14;0.821651;0.550382;0.009625;0.0;0.0;0.0;0.0;0.0;0.0
3.0;1753880850.190429;16.361302;0.81;-1.33;-0.21;0.819971;0.548824;0.008293;0.0;0.0;0.0;0.0;0.0;0.0
3.0;1753880850.195163;16.317906;0.76;-1.31;-0.05;0.822228;0.549924;0.010372;0.0;0.0;0.0;0.0;0.0;0.0
3.0;1753880850.199897;16.33502;0.74;-1.3;-0.15;0.822287;0.547797;0.009358;0.0;0.0;0.0;0.0;0.0;0.0
3.0;1753880850.204631;16.354827;0.75;-1.28;-0.22;0.821518;0.547747;0.009091;0.0;0.0;0.0;0.0;0.0;0.0
3.0;1753880850.209365;16.256309;0.73;-1.32;-0.19;0.820735;0.548528;0.009403;0.0;0.0;0.0;0.0;0.0;0.0
3.0;1753880850.214099;16.343415;0.7;-1.28;-0.3;0.821205;0.547954;0.008502;0.0;0.0;0.0;0.0;0.0;0.0
3.0;1753880850.218833;16.299799;0.79;-1.32;-0.14;0.820774;0.548951;0.010513;0.0;0.0;0.0;0.0;0.0;0.0
3.0;1753880850.223567;16.234789;0.62;-1.27;-0.22;0.821152;0.54881;0.007919;0.0;0.0;0.0;0.0;0.0;0.0
3.0;1753880850.228301;16.348134;0.77;-1.24;-0.05;0.821875;0.548891;0.008761;0.0;0.0;0.0;0.0;0.0;0.0
3.0;1753880850.233035;16.400306;0.72;-1.27;-0.19;0.821496;0.549042;0.00835;0.0;0.0;0.0;0.0;0.0;0.0
3.0;1753880850.237769;16.362599;0.8;-1.29;-0.17;0.820805;0.548977;0.008704;0.0;0.0;0.0;0.0;0.0;0.0
3.0;1753880850.242503;16.285434;0.78;-1.25;-0.24;0.821277;0.550088;0.008194;0.0;0.0;0.0;0.0;0.0;0.0
3.0;1753880850.247237;16.27048;0.78;-1.28;-0.19;0.821767;0.549731;0.008036;0.0;0.0;0.0;0.0;0.0;0.0
3.0;1753880850.251971;16.318899;0.8;-1.29;-0.2;0.821637;0.549367;0.008199;0.0;0.0;0.0;0.0;0.0;0.0
3.0;1753880850.256705;16.339385;0.77;-1.27;-0.18;0.820577;0.547913;0.008611;0.0;0.0;0.0;0.0;0.0;0.0
3.0;1753880850.261439;16.337127;0.73;-1.31;-0.09;0.821478;0.548613;0.009322;0.0;0.0;0.0;0.0;0.0;0.0
3.0;1753880850.266173;16.381637;0.73;-1.29;-0.22;0.821338;0.549117;0.008169;0.0;0.0;0.0;0.0;0.0;0.0
3.0;1753880850.270908;16.307013;0.75;-1.32;-0.19;0.82088;0.550109;0.008456;0.0;0.0;0.0;0.0;0.0;0.0
3.0;1753880850.275642;16.31973;0.73;-1.24;-0.21;0.821728;0.549365;0.009073;0.0;0.0;0.0;0.0;0.0;0.0
3.0;1753880850.280376;16.315066;0.67;-1.33;-0.18;0.820834;0.548993;0.008929;0.0;0.0;0.0;0.0;0.0;0.0
3.0;1753880850.28511;16.288869;0.75;-1.28;-0.19;0.820968;0.547805;0.00821;0.0;0.0;0.0;0.0;0.0;0.0
3.0;1753880850.289844;16.335826;0.77;-1.32;-0.12;0.821235;0.548721;0.009201;0.0;0.0;0.0;0.0;0.0;0.0
3.0;1753880850.294578;16.368275;0.66;-1.27;-0.17;0.821755;0.548893;0.007712;0.0;0.0;0.0;0.0;0.0;0.0
3.0;1753880850.299312;16.322145;0.7;-1.31;-0.17;0.821225;0.548697;0.009522;0.0;0.0;0.0;0.0;0.0;0.0
3.0;1753880850.304046;16.398018;0.59;-1.29;-0.22;0.821322;0.548751;0.010419;0.0;0.0;0.0;0.0;0.0;0.0
3.0;1753880850.30878;16.313711;0.76;-1.23;-0.25;0.821083;0.550551;0.009341;0.0;0.0;0.0;0.0;0.0;0.0
3.0;1753880850.313514;16.333561;0.77;-1.27;-0.13;0.820099;0.550018;0.00801;0.0;0.0;0.0;0.0;0.0;0.0
3.0;1753880850.318248;16.332687;0.76;-1.25;-0.16;0.820805;0.547876;0.009279;0.0;0.0;0.0;0.0;0.0;0.0
3.0;1753880850.322982;16.288596;0.71;-1.3;-0.18;0.822003;0.550752;0.010087;0.0;0.0;0.0;0.0;0.0;0.0
3.0;1753880850.327716;16.373701;0.72;-1.27;-0.14;0.821622;0.546558;0.009252;0.0;0.0;0.0;0.0;0.0;0.0
3.0;1753880850.33245;16.373745;0.69;-1.22;-0.17;0.821612;0.548461;0.007051;0.0;0.0;0.0;0.0;0.0;0.0
3.0;1753880850.337184;16.329017;0.77;-1.3;-0.21;0.821114;0.547563;0.009212;0.0;0.0;0.0;0.0;0.0;0.0
3.0;1753880850.341918;16.346959;0.73;-1.24;-0.13;0.821252;0.548879;0.008349;0.0;0.0;0.0;0.0;0.0;0.0
3.0;1753880850.346652;16.358508;0.74;-1.25;-0.18;0.820886;0.548487;0.009581;0.0;0.0;0.0;0.0;0.0;0.0
3.0;1753880850.351386;16.35338;0.68;-1.29;-0.11;0.820597;0.550162;0.007936;0.0;0.0;0.0;0.0;0.0;0.0
3.0;1753880850.35612;16.331071;0.67;-1.28;-0.15;0.821416;0.549698;0.008628;0.0;0.0;0.0;0.0;0.0;0.0
3.0;1753880850.360854;16.311319;0.64;-1.23;-0.11;0.821077;0.549591;0.010839;0.0;0.0;0.0;0.0;0.0;0.0
3.0;1753880850.365588;16.327183;0.66;-1.25;-0.21;0.821134;0.549407;0.008973;0.0;0.0;0.0;0.0;0.0;0.0
3.0;1753880850.370322;16.359951;0.72;-1.34;-0.17;0.821122;0.547197;0.008239;0.0;0.0;0.0;0.0;0.0;0.0
3.0;1753880850.375056;16.33062;0.79;-1.25;-0.12;0.820844;0.549832;0.007466;0.0;0.0;0.0;0.0;0.0;0.0
3.0;1753880850.37979;16.356119;0.74;-1.3;-0.12;0.820819;0.548905;0.007148;0.0;0.0;0.0;0.0;0.0;0.0
3.0;1753880850.384524;16.37459;0.7;-1.22;-0.12;0.821731;0.549784;0.00804;0.0;0.0;0.0;0.0;0.0;0.0
3.0;1753880850.389258;16.317073;0.64;-1.23;-0.15;0.821443;0.549298;0.008642;0.0;0.0;0.0;0.0;0.0;0.0
3.0;1753880850.393992;16.335396;0.67;-1.26;-0.13;0.820674;0.54998;0.009264;0.0;0.0;0.0;0.0;0.0;0.0
3.0;1753880850.398726;16.332678;0.75;-1.3;-0.24;0.821072;0.548441;0.007135;0.0;0.0;0.0;0.0;0.0;0.0
3.0;1753880850.40346;16.31652;0.74;-1.29;-0.17;0.82124;0.54913;0.008858;0.0;0.0;0.0;0.0;0.0;0.0
3.0;1753880850.408194;16.343163;0.68;-1.29;-0.18;0.820432;0.548602;0.007901;0.0;0.0;0.0;0.0;0.0;0.0
3.0;1753880850.412928;16.348778;0.78;-1.32;-0.09;0.820681;0.547957;0.007903;0.0;0.0;0.0;0.0;0.0;0.0
3.0;1753880850.417662;16.335706;0.69;-1.3;-0.13;0.821311;0.549505;0.008294;0.0;0.0;0.0;0.0;0.0;0.0
3.0;1753880850.422397;16.313976;0.69;-1.27;-0.13;0.82145;0.548294;0.008806;0.0;0.0;0.0;0.0;0.0;0.0
3.0;1753880850.427131;16.319611;0.68;-1.19;-0.12;0.82101;0.548427;0.009727;0.0;0.0;0.0;0.0;0.0;0.0
3.0;1753880850.431865;16.330264;0.66;-1.31;-0.17;0.82105;0.550386;0.009654;0.0;0.0;0.0;0.0;0.0;0.0
3.0;1753880850.436599;16.380831;0.76;-1.32;-0.18;0.821385;0.550039;0.009015;0.0;0.0;0.0;0.0;0.0;0.0
3.0;1753880850.441333;16.347982;0.65;-1.27;-0.11;0.821079;0.550585;0.008221;0.0;0.0;0.0;0.0;0.0;0.0
3.0;1753880850.446067;16.359759;0.64;-1.28;-0.09;0.820563;0.549277;0.010614;0.0;0.0;0.0;0.0;0.0;0.0
3.0;1753880850.450801;16.359209;0.83;-1.28;-0.16;0.821088;0.549578;0.007245;0.0;0.0;0.0;0.0;0.0;0.0
3.0;1753880850.455535;16.320684;0.73;-1.31;-0.02;0.821313;0.549751;0.008453;0.0;0.0;0.0;0.0;0.0;0.0
3.0;1753880850.460269;16.320073;0.66;-1.29;-0.03;0.820504;0.54986;0.007954;0.0;0.0;0.0;0.0;0.0;0.0
3.0;1753880850.465003;16.27332;0.72;-1.23;-0.08;0.820856;0.55046;0.009179;0.0;0.0;0.0;0.0;0.0;0.0
3.0;1753880850.469737;16.33971;0.76;-1.25;-0.12;0.82072;0.548367;0.008344;0.0;0.0;0.0;0.0;0.0;0.0
3.0;1753880850.474471;16.283503;0.74;-1.26;-0.16;0.820619;0.547517;0.006686;0.0;0.0;0.0;0.0;0.0;0.0
3.0;1753880850.479205;16.318645;0.73;-1.29;-0.03;0.821138;0.549724;0.008123;0.0;0.0;0.0;0.0;0.0;0.0
3.0;1753880850.483939;16.355369;0.78;-1.28;-0.1;0.821335;0.549952;0.008161;0.0;0.0;0.0;0.0;0.0;0.0
3.0;1753880850.488673;16.368366;0.73;-1.2;-0.11;0.821109;0.549997;0.008542;0.0;0.0;0.0;0.0;0.0;0.0
3.0;1753880850.493407;16.263708;0.72;-1.3;-0.29;0.822398;0.549681;0.009877;0.0;0.0;0.0;0.0;0.0;0.0
3.0;1753880850.499;16.339844;0.7;-1.26;-0.14;0.820816;0.549854;0.00854;0.0;0.0;0.0;0.0;0.0;0.0
3.0;1753880850.503734;16.330399;0.7;-1.28;-0.18;0.82036;0.549699;0.006564;0.0;0.0;0.0;0.0;0.0;0.0
3.0;1753880850.508468;16.326992;0.66;-1.27;-0.14;0.820445;0.54945;0.009141;0.0;0.0;0.0;0.0;0.0;0.0
3.0;1753880850.513202;16.390577;0.73;-1.26;-0.11;0.820871;0.549922;0.009392;0.0;0.0;0.0;0.0;0.0;0.0
3.0;1753880850.517936;16.301196;0.66;-1.26;-0.05;0.82156;0.550421;0.008532;0.0;0.0;0.0;0.0;0.0;0.0
3.0;1753880850.52267;16.35851;0.64;-1.24;-0.11;0.820524;0.550432;0.010281;0.0;0.0;0.0;0.0;0.0;0.0
3.0;1753880850.527404;16.364008;0.72;-1.26;-0.18;0.820834;0.549876;0.008493;0.0;0.0;0.0;0.0;0.0;0.0
3.0;1753880850.532138;16.388848;0.78;-1.23;-0.19;0.821068;0.549698;0.008027;0.0;0.0;0.0;0.0;0.0;0.0
3.0;1753880850.536872;16.306176;0.71;-1.23;-0.13;0.82112;0.550584;0.007544;0.0;0.0;0.0;0.0;0.0;0.0
3.0;1753880850.541606;16.332347;0.71;-1.27;-0.16;0.820946;0.54928;0.008762;0.0;0.0;0.0;0.0;0.0;0.0
3.0;1753880850.54634;16.377936;0.65;-1.25;-0.06;0.820859;0.549418;0.008206;0.0;0.0;0.0;0.0;0.0;0.0
3.0;1753880850.551074;16.311009;0.77;-1.27;-0.21;0.82111;0.549662;0.008369;0.0;0.0;0.0;0.0;0.0;0.0
3.0;1753880850.555808;16.331781;0.73;-1.22;-0.17;0.820536;0.549879;0.006977;0.0;0.0;0.0;0.0;0.0;0.0
3.0;1753880850.560542;16.287721;0.68;-1.25;-0.13;0.821315;0.548039;0.009428;0.0;0.0;0.0;0.0;0.0;0.0
3.0;1753880850.565276;16.299103;0.71;-1.26;-0.12;0.820184;0.548174;0.00913;0.0;0.0;0.0;0.0;0.0;0.0
3.0;1753880850.570011;16.333016;0.61;-1.33;-0.1;0.820817;0.550587;0.007201;0.0;0.0;0.0;0.0;0.0;0.0
3.0;1753880850.574745;16.354941;0.74;-1.21;-0.14;0.820246;0.548654;0.007057;0.0;0.0;0.0;0.0;0.0;0.0
3.0;1753880850.579479;16.326014;0.68;-1.23;-0.27;0.821713;0.548422;0.008567;0.0;0.0;0.0;0.0;0.0;0.0
3.0;1753880850.584213;16.392627;0.69;-1.3;-0.25;0.821329;0.550022;0.007945;0.0;0.0;0.0;0.0;0.0;0.0
3.0;1753880850.588947;16.325365;0.85;-1.27;-0.21;0.820174;0.548529;0.009916;0.0;0.0;0.0;0.0;0.0;0.0
3.0;1753880850.593681;16.347283;0.81;-1.27;-0.2;0.819883;0.54972;0.008559;0.0;0.0;0.0;0.0;0.0;0.0
3.0;1753880850.598415;16.358354;0.75;-1.27;-0.13;0.820605;0.548444;0.008813;0.0;0.0;0.0;0.0;0.0;0.0
3.0;1753880850.603149;16.358162;0.77;-1.25;-0.17;0.82118;0.548729;0.007585;0.0;0.0;0.0;0.0;0.0;0.0
3.0;1753880850.607883;16.365575;0.85;-1.25;-0.13;0.82094;0.549613;0.009571;0.0;0.0;0.0;0.0;0.0;0.0
3.0;1753880850.612617;16.39927;0.71;-1.21;-0.08;0.820889;0.550286;0.007692;0.0;0.0;0.0;0.0;0.0;0.0
3.0;1753880850.617351;16.342095;0.78;-1.2;-0.12;0.821205;0.55014;0.009388;0.0;0.0;0.0;0.0;0.0;0.0
3.0;1753880850.622085;16.293176;0.75;-1.3;-0.25;0.821612;0.547912;0.009267;0.0;0.0;0.0;0.0;0.0;0.0
3.0;1753880850.626819;16.411489;0.78;-1.3;-0.13;0.821325;0.548;0.008781;0.0;0.0;0.0;0.0;0.0;0.0
3.0;1753880850.631553;16.352531;0.76;-1.22;-0.23;0.82102;0.549838;0.009287;0.0;0.0;0.0;0.0;0.0;0.0
3.0;1753880850.636287;16.371112;0.74;-1.26;-0.17;0.820444;0.54917;0.007652;0.0;0.0;0.0;0.0;0.0;0.0
3.0;1753880850.641021;16.352551;0.85;-1.25;-0.16;0.820711;0.548249;0.008426;0.0;0.0;0.0;0.0;0.0;0.0
3.0;1753880850.645755;16.336232;0.67;-1.21;-0.14;0.821016;0.547207;0.008237;0.0;0.0;0.0;0.0;0.0;0.0
3.0;1753880850.650489;16.354643;0.64;-1.25;-0.17;0.820821;0.546728;0.009669;0.0;0.0;0.0;0.0;0.0;0.0
3.0;1753880850.655223;16.346992;0.74;-1.19;-0.19;0.820829;0.547199;0.007541;0.0;0.0;0.0;0.0;0.0;0.0
3.0;1753880850.659958;16.378826;0.7;-1.3;-0.21;0.819966;0.547721;0.008056;0.0;0.0;0.0;0.0;0.0;0.0
3.0;1753880850.664692;16.323592;0.8;-1.27;-0.1;0.820766;0.548386;0.009276;0.0;0.0;0.0;0.0;0.0;0.0
3.0;1753880850.669426;16.388976;0.77;-1.29;-0.1;0.821033;0.547603;0.008007;0.0;0.0;0.0;0.0;0.0;0.0
3.0;1753880850.67416;16.351214;0.79;-1.25;-0.12;0.820794;0.547987;0.008199;0.0;0.0;0.0;0.0;0.0;0.0
3.0;1753880850.678894;16.297461;0.72;-1.27;-0.14;0.821037;0.54945;0.008731;0.0;0.0;0.0;0.0;0.0;0.0
3.0;1753880850.683628;16.31211;0.82;-1.23;-0.12;0.821227;0.546514;0.008842;0.0;0.0;0.0;0.0;0.0;0.0
3.0;1753880850.691;16.339844;0.77;-1.26;-0.14;0.820938;0.54778;0.008784;0.0;0.0;0.0;0.0;0.0;0.0
3.0;1753880850.695734;16.34153;0.73;-1.24;-0.19;0.82179;0.547272;0.00931;0.0;0.0;0.0;0.0;0.0;0.0
3.0;1753880850.700468;16.356753;0.74;-1.36;-0.13;0.820317;0.547376;0.007209;0.0;0.0;0.0;0.0;0.0;0.0
3.0;1753880850.70899;16.316406;0.7;-1.26;-0.21;0.82167;0.547414;0.007808;0.0;0.0;0.0;0.0;0.0;0.0
3.0;1753880850.713724;16.33216;0.62;-1.24;-0.14;0.821258;0.548459;0.008197;0.0;0.0;0.0;0.0;0.0;0.0
3.0;1753880850.718458;16.31045;0.7;-1.21;-0.2;0.819809;0.547712;0.009245;0.0;0.0;0.0;0.0;0.0;0.0
3.0;1753880850.723192;16.333111;0.69;-1.25;-0.19;0.821249;0.546326;0.007628;0.0;0.0;0.0;0.0;0.0;0.0
3.0;1753880850.727926;16.316943;0.73;-1.28;-0.31;0.821879;0.548139;0.008184;0.0;0.0;0.0;0.0;0.0;0.0
3.0;1753880850.73266;16.323948;0.74;-1.28;-0.23;0.82057;0.546151;0.007324;0.0;0.0;0.0;0.0;0.0;0.0
3.0;1753880850.737394;16.318775;0.7;-1.27;-0.3;0.821731;0.548749;0.008378;0.0;0.0;0.0;0.0;0.0;0.0
3.0;1753880850.742128;16.334734;0.69;-1.39;-0.19;0.820104;0.548729;0.00647;0.0;0.0;0.0;0.0;0.0;0.0
3.0;1753880850.746862;16.323744;0.66;-1.33;-0.26;0.821759;0.546164;0.00853;0.0;0.0;0.0;0.0;0.0;0.0
3.0;1753880850.751596;16.319413;0.77;-1.39;-0.19;0.822085;0.545124;0.007371;0.0;0.0;0.0;0.0;0.0;0.0
3.0;1753880850.75633;16.33291;0.79;-1.3;-0.26;0.821832;0.548743;0.007215;0.0;0.0;0.0;0.0;0.0;0.0
3.0;1753880850.76284;16.332031;0.7;-1.33;-0.28;0.821304;0.547414;0.007442;0.0;0.0;0.0;0.0;0.0;0.0
3.0;1753880850.767574;16.331768;0.7;-1.4;-0.28;0.821789;0.54752;0.00736;0.0;0.0;0.0;0.0;0.0;0.0
3.0;1753880850.772308;16.338047;0.68;-1.32;-0.36;0.821566;0.549167;0.007621;0.0;0.0;0.0;0.0;0.0;0.0
3.0;1753880850.777042;16.322116;0.78;-1.29;-0.25;0.821824;0.547992;0.007186;0.0;0.0;0.0;0.0;0.0;0.0
3.0;1753880850.781776;16.336873;0.73;-1.29;-0.22;0.821624;0.547596;0.007916;0.0;0.0;0.0;0.0;0.0;0.0
3.0;1753880850.78651;16.321238;0.67;-1.3;-0.24;0.822398;0.546545;0.007407;0.0;0.0;0.0;0.0;0.0;0.0
3.0;1753880850.791244;16.344009;0.68;-1.32;-0.21;0.821732;0.548161;0.007796;0.0;0.0;0.0;0.0;0.0;0.0
3.0;1753880850.795978;16.329975;0.75;-1.32;-0.25;0.821549;0.548306;0.007606;0.0;0.0;0.0;0.0;0.0;0.0
3.0;1753880850.800712;16.331289;0.65;-1.32;-0.24;0.821531;0.545578;0.0081;0.0;0.0;0.0;0.0;0.0;0.0
3.0;1753880850.805446;16.342656;0.63;-1.32;-0.32;0.821848;0.547972;0.008404;0.0;0.0;0.0;0.0;0.0;0.0
3.0;1753880850.81018;16.329849;0.74;-1.34;-0.18;0.821239;0.54622;0.008264;0.0;0.0;0.0;0.0;0.0;0.0
3.0;1753880850.814914;16.329479;0.66;-1.35;-0.2;0.821818;0.548021;0.007837;0.0;0.0;0.0;0.0;0.0;0.0
3.0;1753880850.819648;16.319972;0.72;-1.37;-0.25;0.821223;0.547303;0.009085;0.0;0.0;0.0;0.0;0.0;0.0
3.0;1753880850.824382;16.338037;0.72;-1.25;-0.22;0.821475;0.548267;0.007509;0.0;0.0;0.0;0.0;0.0;0.0
3.0;1753880850.829116;16.327635;0.66;-1.39;-0.26;0.821613;0.546728;0.007517;0.0;0.0;0.0;0.0;0.0;0.0
3.0;1753880850.83385;16.322162;0.73;-1.37;-0.31;0.820404;0.546612;0.009886;0.0;0.0;0.0;0.0;0.0;0.0
3.0;1753880850.838585;16.348944;0.78;-1.3;-0.23;0.820067;0.547574;0.008242;0.0;0.0;0.0;0.0;0.0;0.0
3.0;1753880850.84308;16.332031;0.7;-1.33;-0.21;0.820938;0.54717;0.00854;0.0;0.0;0.0;0.0;0.0;0.0
3.0;1753880850.84881;16.332031;0.7;-1.4;-0.21;0.820572;0.549488;0.00671;0.0;0.0;0.0;0.0;0.0;0.0
3.0;1753880850.853544;16.316204;0.76;-1.49;-0.23;0.820039;0.548167;0.006172;0.0;0.0;0.0;0.0;0.0;0.0
3.0;1753880850.858278;16.326374;0.74;-1.46;-0.29;0.820206;0.548737;0.007316;0.0;0.0;0.0;0.0;0.0;0.0
3.0;1753880850.863012;16.316662;0.63;-1.39;-0.23;0.820877;0.548946;0.007429;0.0;0.0;0.0;0.0;0.0;0.0
3.0;1753880850.867746;16.329864;0.66;-1.38;-0.25;0.821392;0.548944;0.009676;0.0;0.0;0.0;0.0;0.0;0.0
3.0;1753880850.87248;16.332905;0.79;-1.42;-0.16;0.821903;0.549173;0.007817;0.0;0.0;0.0;0.0;0.0;0.0
3.0;1753880850.877214;16.335385;0.78;-1.31;-0.15;0.818956;0.548362;0.009227;0.0;0.0;0.0;0.0;0.0;0.0
3.0;1753880850.881948;16.319675;0.7;-1.33;-0.3;0.820557;0.550496;0.007257;0.0;0.0;0.0;0.0;0.0;0.0
3.0;1753880850.886682;16.329953;0.78;-1.41;-0.28;0.821393;0.547012;0.008846;0.0;0.0;0.0;0.0;0.0;0.0
3.0;1753880850.891416;16.327283;0.77;-1.31;-0.12;0.821011;0.548114;0.008025;0.0;0.0;0.0;0.0;0.0;0.0
3.0;1753880850.89764;16.332031;0.77;-1.33;-0.21;0.821304;0.546926;0.00915;0.0;0.0;0.0;0.0;0.0;0.0
3.0;1753880850.902374;16.329327;0.87;-1.42;-0.28;0.821628;0.546527;0.009673;0.0;0.0;0.0;0.0;0.0;0.0
3.0;1753880850.907108;16.354833;0.77;-1.28;-0.24;0.820182;0.546624;0.008064;0.0;0.0;0.0;0.0;0.0;0.0
3.0;1753880850.911842;16.342671;0.76;-1.35;-0.18;0.822199;0.544644;0.009302;0.0;0.0;0.0;0.0;0.0;0.0
3.0;1753880850.916576;16.342622;0.81;-1.36;-0.24;0.822091;0.547113;0.009585;0.0;0.0;0.0;0.0;0.0;0.0
3.0;1753880850.92131;16.346052;0.8;-1.33;-0.23;0.821592;0.546557;0.009483;0.0;0.0;0.0;0.0;0.0;0.0
3.0;1753880850.926044;16.320708;0.69;-1.3;-0.18;0.821019;0.547247;0.0076;0.0;0.0;0.0;0.0;0.0;0.0
3.0;1753880850.930778;16.343663;0.74;-1.44;-0.07;0.821053;0.546359;0.006939;0.0;0.0;0.0;0.0;0.0;0.0
3.0;1753880850.935512;16.341975;0.68;-1.33;-0.28;0.820169;0.546636;0.00795;0.0;0.0;0.0;0.0;0.0;0.0
3.0;1753880850.940246;16.34633;0.82;-1.45;-0.26;0.821487;0.547809;0.007881;0.0;0.0;0.0;0.0;0.0;0.0
3.0;1753880850.94498;16.325792;0.68;-1.34;-0.21;0.821647;0.547201;0.007109;0.0;0.0;0.0;0.0;0.0;0.0
3.0;1753880850.949714;16.335326;0.79;-1.44;-0.13;0.821621;0.548016;0.007203;0.0;0.0;0.0;0.0;0.0;0.0
3.0;1753880850.954448;16.332613;0.74;-1.28;-0.15;0.820509;0.547248;0.008418;0.0;0.0;0.0;0.0;0.0;0.0
3.0;1753880850.959182;16.335028;0.72;-1.46;-0.24;0.821096;0.546233;0.00767;0.0;0.0;0.0;0.0;0.0;0.0
3.0;1753880850.963916;16.342422;0.76;-1.38;-0.14;0.821437;0.548753;0.008067;0.0;0.0;0.0;0.0;0.0;0.0
3.0;1753880850.96865;16.322413;0.7;-1.45;-0.18;0.822758;0.545124;0.007379;0.0;0.0;0.0;0.0;0.0;0.0
3.0;1753880850.97358;16.339844;0.7;-1.4;-0.21;0.821304;0.547292;0.007198;0.0;0.0;0.0;0.0;0.0;0.0
3.0;1753880850.978314;16.343843;0.76;-1.34;-0.22;0.821527;0.547099;0.008346;0.0;0.0;0.0;0.0;0.0;0.0
3.0;1753880850.983048;16.353844;0.7;-1.31;-0.14;0.819956;0.547597;0.007459;0.0;0.0;0.0;0.0;0.0;0.0
3.0;1753880850.98934;16.339844;0.7;-1.33;-0.21;0.82045;0.547902;0.00854;0.0;0.0;0.0;0.0;0.0;0.0
3.0;1753880850.990369;16.355469;2.66;-2.66;152.18;1.119228;-0.187758;-0.022814;101.0;0.0;0.0;5.0;0.0;0.0
3.0;1753880850.992811;16.308594;2.38;0.07;133.21;0.879498;-0.293166;0.067344;101.0;0.0;0.0;5.0;0.0;0.0
3.0;1753880850.997931;16.308594;-0.98;1.12;153.02;1.281976;-0.013176;0.000122;101.0;0.0;0.0;5.0;0.0;0.0
3.0;1753880851.002665;16.290266;-3.64;-0.5;171.57;1.43094;-0.137491;-0.003685;89.2;0.0;0.0;3.3;0.0;0.0
3.0;1753880851.007399;16.299363;0.61;0.6;164.65;1.300357;0.126533;0.002146;107.9;0.0;0.0;3.8;0.0;0.0
3.0;1753880851.012133;16.259018;0.94;-1.12;156.55;1.105507;-0.292924;0.11242;81.4;0.0;0.0;4.4;0.0;0.0
3.0;1753880851.016867;16.34646;-2.1;-1.81;150.75;1.122119;0.182232;0.071084;117.0;0.0;0.0;3.2;0.0;0.0
3.0;1753880851.021601;16.288867;-2.2;2.35;167.52;1.160706;-0.136955;-0.014913;95.0;0.0;0.0;3.6;0.0;0.0
3.0;1753880851.026335;16.267648;-2.46;-0.5;138.67;1.331027;-0.019709;0.016448;87.5;0.0;0.0;2.9;0.0;0.0
3.0;1753880851.031069;16.26634;0.3;-2.39;165.07;1.204366;0.00984;0.004766;98.6;0.0;0.0;5.9;0.0;0.0
3.0;1753880851.035803;16.284571;1.82;-0.21;176.37;1.181951;0.006342;-0.048194;93.3;0.0;0.0;7.6;0.0;0.0
3.0;1753880851.040537;16.325464;2.1;0.29;140.92;1.241531;-0.715428;0.056848;94.1;0.0;0.0;4.6;0.0;0.0
3.0;1753880851.045272;16.320184;2.81;0.33;203.7;1.094399;0.172768;0.017886;101.3;0.0;0.0;1.1;0.0;0.0
3.0;1753880851.050006;16.320858;0.85;0.85;174.73;1.213036;-0.019099;0.077254;117.6;0.0;0.0;9.7;0.0;0.0
3.0;1753880851.05474;16.297924;-0.02;-0.77;146.04;1.054564;-0.174171;-0.013295;104.6;0.0;0.0;0.3;0.0;0.0
3.0;1753880851.059474;16.302877;0.65;0.24;157.76;1.134952;-0.240308;0.044108;87.6;0.0;0.0;5.4;0.0;0.0
3.0;1753880851.064208;16.313758;-0.78;1.58;121.87;1.096124;0.031258;0.030129;105.1;0.0;0.0;3.9;0.0;0.0
3.0;1753880851.068942;16.307544;1.76;-0.07;163.81;1.454641;-0.311288;0.109692;94.3;0.0;0.0;4.0;0.0;0.0
3.0;1753880851.073676;16.30977;-0.27;0.86;147.4;1.121371;-0.258323;0.004632;85.8;0.0;0.0;2.5;0.0;0.0
3.0;1753880851.07841;16.36937;2.33;0.24;187.48;1.148025;0.600335;-0.019855;107.3;0.0;0.0;4.8;0.0;0.0
3.0;1753880851.083144;16.332832;1.42;-1.91;153.01;1.268444;-0.202012;0.058527;98.5;0.0;0.0;3.1;0.0;0.0
3.0;1753880851.087878;16.307321;2.69;-4.66;187.49;1.072253;-0.160296;0.036662;114.0;0.0;0.0;4.4;0.0;0.0
3.0;1753880851.092612;16.242717;4.11;-3.53;179.2;1.235163;-0.017537;0.03242;118.7;0.0;0.0;6.9;0.0;0.0
3.0;1753880851.097346;16.292893;2.51;-2.12;183.13;0.949981;0.030437;0.083624;104.9;0.0;0.0;5.5;0.0;0.0
3.0;1753880851.10208;16.267273;1.72;-3.1;158.41;0.907127;-0.123455;0.025649;114.5;0.0;0.0;4.5;0.0;0.0
3.0;1753880851.106814;16.321793;5.31;-3.99;165.47;1.09971;-0.15936;0.006059;103.8;0.0;0.0;2.0;0.0;0.0
3.0;1753880851.111548;16.303096;2.64;-2.53;134.97;0.999329;-0.185206;-0.000239;98.3;0.0;0.0;6.9;0.0;0.0
3.0;1753880851.116282;16.29889;1.43;-2.38;172.47;0.929088;-0.157338;0.025405;93.3;0.0;0.0;3.0;0.0;0.0
3.0;1753880851.121016;16.358143;3.43;-2.61;196.92;1.056063;0.030872;0.040976;100.5;0.0;0.0;4.9;0.0;0.0
3.0;1753880851.12575;16.277189;3.69;-0.82;175.2;1.025377;0.078733;0.016626;114.6;0.0;0.0;5.4;0.0;0.0
3.0;1753880851.130484;16.302916;5.38;-4.07;192.55;1.057476;0.168175;-0.010207;108.5;0.0;0.0;5.6;0.0;0.0
3.0;1753880851.135218;16.28794;2.2;-1.52;172.64;1.064501;-0.519156;0.015978;100.7;0.0;0.0;2.9;0.0;0.0
3.0;1753880851.139952;16.343162;2.08;-1.13;184.99;0.926575;-0.084753;0.087412;104.9;0.0;0.0;3.2;0.0;0.0
3.0;1753880851.144686;16.334105;3.25;-1.51;156.11;1.055557;-0.055764;0.028435;125.5;0.0;0.0;7.9;0.0;0.0
3.0;1753880851.14942;16.347319;4.07;-1.84;191.53;0.963749;-0.018621;0.028157;85.5;0.0;0.0;4.8;0.0;0.0
3.0;1753880851.154154;16.29641;6.43;-1.42;171.45;0.922854;-0.059573;0.09681;102.1;0.0;0.0;3.8;0.0;0.0
3.0;1753880851.158888;16.319097;2.08;-3.8;193.27;0.746231;-0.174192;0.057237;97.9;0.0;0.0;4.4;0.0;0.0
3.0;1753880851.163622;16.298725;3.72;-3.11;179.35;1.102091;-0.500201;0.034744;102.8;0.0;0.0;6.8;0.0;0.0
3.0;1753880851.168356;16.304715;4.29;-2.1;146.56;0.899801;0.059119;0.063247;95.9;0.0;0.0;4.9;0.0;0.0
3.0;1753880851.17309;16.303026;4.32;-4.3;178.23;1.117876;-0.254508;0.085702;89.9;0.0;0.0;5.6;0.0;0.0
3.0;1753880851.177824;16.317281;3.15;-5.6;211.87;0.801115;0.074426;0.046378;99.4;0.0;0.0;7.1;0.0;0.0
3.0;1753880851.182558;16.243577;4.33;-3.91;161.92;0.833707;-0.178741;0.102163;108.1;0.0;0.0;6.6;0.0;0.0
3.0;1753880851.187292;16.28293;6.01;-2.13;193.84;0.670255;-0.200318;0.131737;99.0;0.0;0.0;7.6;0.0;0.0
3.0;1753880851.192026;16.337046;3.31;-2.99;153.47;0.770543;0.125615;0.056725;92.2;0.0;0.0;4.3;0.0;0.0
3.0;1753880851.196761;16.261753;1.65;-4.07;192.52;0.880324;-0.217266;0.015083;116.4;0.0;0.0;6.3;0.0;0.0
3.0;1753880851.201495;16.351218;6.05;-3.83;196.27;0.754788;-0.403372;0.066331;100.6;0.0;0.0;4.0;0.0;0.0
3.0;1753880851.2082;16.308594;5.6;-3.78;176.96;0.831796;-0.209108;0.066734;101.0;0.0;0.0;5.0;0.0;0.0
3.0;1753880851.212934;16.343026;4.93;-2.3;166.92;0.974943;-0.478451;0.091557;107.4;0.0;0.0;3.6;0.0;0.0
3.0;1753880851.217668;16.284341;5.11;-3.33;167.53;0.893633;-0.344822;0.046026;105.3;0.0;0.0;6.1;0.0;0.0
3.0;1753880851.222402;16.326407;4.76;-4.43;198.26;0.943117;-0.126577;0.00979;82.0;0.0;0.0;3.3;0.0;0.0
3.0;1753880851.227136;16.253638;4.81;-1.66;183.53;0.783452;-0.35432;0.050615;113.0;0.0;0.0;4.3;0.0;0.0
3.0;1753880851.23187;16.346532;5.13;-3.76;187.38;0.720546;-0.230756;0.05347;93.7;0.0;0.0;2.4;0.0;0.0
3.0;1753880851.236604;16.342885;7.3;-4.72;178.09;0.847587;-0.288617;0.043621;104.5;0.0;0.0;6.2;0.0;0.0
3.0;1753880851.241338;16.354642;7.07;-4.42;204.09;0.895482;-0.011309;0.084094;92.6;0.0;0.0;5.0;0.0;0.0
3.0;1753880851.246072;16.335127;8.37;-2.85;129.77;0.992882;-0.168359;0.075928;100.8;0.0;0.0;3.9;0.0;0.0
3.0;1753880851.250806;16.276521;9.13;-2.38;158.93;0.853758;0.038811;0.077237;96.2;0.0;0.0;3.3;0.0;0.0
3.0;1753880851.25554;16.324582;6.15;-1.94;181.83;0.737255;-0.243737;0.033287;102.4;0.0;0.0;6.1;0.0;0.0
3.0;1753880851.260274;16.25115;4.28;-4.52;183.01;0.748667;-0.428972;0.02345;103.7;0.0;0.0;8.3;0.0;0.0
3.0;1753880851.265008;16.291086;6.09;-4.05;208.44;0.84536;-0.401873;0.075761;91.1;0.0;0.0;5.0;0.0;0.0
3.0;1753880851.269742;16.280344;4.92;-1.68;174.03;0.843033;-0.084171;0.086394;116.0;0.0;0.0;4.4;0.0;0.0
3.0;1753880851.274476;16.324998;2.03;-1.29;174.22;0.607349;0.011881;0.095937;106.3;0.0;0.0;5.4;0.0;0.0
3.0;1753880851.27921;16.307077;5.34;-2.02;180.6;0.977438;-0.528877;0.07225;87.8;0.0;0.0;4.4;0.0;0.0
3.0;1753880851.283944;16.333844;2.6;-4.43;149.19;0.862186;0.070507;0.084357;84.8;0.0;0.0;2.1;0.0;0.0
3.0;1753880851.288679;16.298672;6.6;-4.75;156.4;1.037147;-0.0359;-0.025139;99.0;0.0;0.0;4.0;0.0;0.0
3.0;1753880851.293413;16.284304;6.15;-4.45;167.56;0.921851;-0.425418;0.036435;101.1;0.0;0.0;6.7;0.0;0.0
3.0;1753880851.298147;16.314823;1.89;-3.2;188.9;0.830512;0.113233;0.091082;95.0;0.0;0.0;6.1;0.0;0.0
3.0;1753880851.302881;16.292333;5.78;-3.11;162.22;0.910938;-0.321902;0.099524;106.5;0.0;0.0;6.3;0.0;0.0
3.0;1753880851.307615;16.322526;3.83;-4.05;157.6;0.733677;-0.189196;0.080799;106.1;0.0;0.0;5.5;0.0;0.0
3.0;1753880851.312349;16.282731;3.84;-3.53;197.3;0.893276;-0.204389;0.069325;79.2;0.0;0.0;6.5;0.0;0.0
3.0;1753880851.317083;16.268089;3.51;-2.31;164.77;0.805437;-0.009318;0.075425;109.1;0.0;0.0;5.6;0.0;0.0
3.0;1753880851.321817;16.249555;4.39;-3.43;180.68;0.833327;-0.42786;0.063036;104.3;0.0;0.0;5.5;0.0;0.0
3.0;1753880851.326551;16.323938;2.16;-2.62;190.9;0.726948;-0.22563;0.06201;92.6;0.0;0.0;8.4;0.0;0.0
3.0;1753880851.331285;16.340134;1.49;-2.63;163.18;0.659352;-0.09237;0.090049;102.2;0.0;0.0;4.9;0.0;0.0
3.0;1753880851.336019;16.272598;5.21;-2.18;174.12;0.779825;-0.473665;0.062698;110.0;0.0;0.0;4.7;0.0;0.0
3.0;1753880851.340753;16.266083;2.8;-2.45;150.1;0.74413;-0.050372;0.042877;102.3;0.0;0.0;5.4;0.0;0.0
3.0;1753880851.345487;16.28618;5.29;-0.43;155.27;0.805134;-0.071168;0.040587;89.2;0.0;0.0;6.2;0.0;0.0
3.0;1753880851.350221;16.2774;6.61;-3.36;182.33;0.856274;-0.126918;0.053607;112.8;0.0;0.0;2.6;0.0;0.0
3.0;1753880851.354955;16.316798;4.34;-1.93;175.14;0.684496;-0.39329;0.061878;97.7;0.0;0.0;5.8;0.0;0.0
3.0;1753880851.359689;16.376295;5.48;-1.16;199.86;0.921668;-0.012236;0.069514;91.1;0.0;0.0;6.0;0.0;0.0
3.0;1753880851.364423;16.236583;6.02;-2.97;212.9;0.770338;-0.235744;0.079379;102.4;0.0;0.0;4.6;0.0;0.0
3.0;1753880851.369157;16.305721;5.02;-1.88;136.26;0.777206;-0.158118;0.090762;117.1;0.0;0.0;3.5;0.0;0.0
3.0;1753880851.373891;16.344551;3.89;-4.35;173.02;0.855576;-0.340379;0.104857;100.8;0.0;0.0;5.5;0.0;0.0
3.0;1753880851.378626;16.316158;4.28;-3.66;154.04;0.919985;0.165335;0.057504;96.2;0.0;0.0;6.6;0.0;0.0
3.0;1753880851.38336;16.229705;1.11;-3.4;179.35;0.755578;0.200632;0.119795;113.7;0.0;0.0;2.3;0.0;0.0
3.0;1753880851.388094;16.353473;4.02;-2.86;198.6;0.912886;-0.106022;0.063577;97.6;0.0;0.0;5.4;0.0;0.0
3.0;1753880851.392828;16.289922;4.14;-2.12;193.23;0.791297;-0.135615;0.072058;112.5;0.0;0.0;5.2;0.0;0.0
3.0;1753880851.397562;16.347729;6.51;-1.75;172.6;0.887827;-0.228606;0.076095;91.0;0.0;0.0;2.9;0.0;0.0
3.0;1753880851.402296;16.290859;0.69;-4.03;185.4;0.779963;-0.333277;0.082538;111.7;0.0;0.0;6.0;0.0;0.0
3.0;1753880851.40703;16.397091;3.55;-2.54;169.44;0.976576;-0.434023;0.12816;97.7;0.0;0.0;4.8;0.0;0.0
3.0;1753880851.411764;16.245504;4.91;1.82;173.24;0.803107;-0.015102;0.014552;82.3;0.0;0.0;5.9;0.0;0.0
3.0;1753880851.416498;16.293891;3.14;-2.71;166.51;0.976483;-0.202591;0.035609;108.6;0.0;0.0;5.5;0.0;0.0
3.0;1753880851.421232;16.310043;5.04;-2.25;176.12;0.800267;-0.243076;0.074673;89.2;0.0;0.0;4.5;0.0;0.0
3.0;1753880851.425966;16.293921;4.62;-1.77;174.18;0.8562;-0.203766;0.094185;100.8;0.0;0.0;5.7;0.0;0.0
3.0;1753880851.4307;16.315178;4.89;-2.88;185.72;1.000475;0.286913;0.080118;106.8;0.0;0.0;6.7;0.0;0.0
3.0;1753880851.435434;16.294701;3.44;-1.95;164.99;0.655334;-0.47276;0.041696;105.7;0.0;0.0;7.2;0.0;0.0
3.0;1753880851.440168;16.317396;1.51;-3.69;180.81;0.740505;-0.190305;0.073542;116.5;0.0;0.0;3.1;0.0;0.0
3.0;1753880851.444902;16.307806;4.05;-5.32;179.36;0.848086;-0.177024;0.060088;101.0;0.0;0.0;0.4;0.0;0.0
3.0;1753880851.449636;16.263945;-0.8;-2.96;187.87;0.763066;-0.322185;0.018357;109.5;0.0;0.0;3.9;0.0;0.0
3.0;1753880851.45437;16.35361;3.97;-0.95;208.92;0.830695;-0.123833;0.050262;112.1;0.0;0.0;1.8;0.0;0.0
3.0;1753880851.459104;16.366743;3.56;-4.54;200.61;0.894401;-0.321786;0.027406;92.2;0.0;0.0;5.1;0.0;0.0
3.0;1753880851.463838;16.286977;4.44;-3.92;182.23;0.809881;-0.159908;0.037895;112.7;0.0;0.0;5.0;0.0;0.0
3.0;1753880851.468572;16.33932;0.95;0.1;131.91;0.958636;-0.155527;0.051487;91.1;0.0;0.0;5.5;0.0;0.0
3.0;1753880851.473306;16.267281;4.97;-5.86;171.03;1.012476;-0.102198;0.122971;85.0;0.0;0.0;2.6;0.0;0.0
3.0;1753880851.47804;16.31386;-0.15;-2.83;144.34;0.804489;-0.07017;0.078016;93.4;0.0;0.0;3.6;0.0;0.0
3.0;1753880851.482774;16.303236;3.68;-3.08;138.58;0.801577;-0.186608;0.089241;102.6;0.0;0.0;6.4;0.0;0.0
3.0;1753880851.487508;16.313949;5.52;-3.88;154.67;0.806582;-0.56542;0.06553;106.6;0.0;0.0;4.1;0.0;0.0
3.0;1753880851.492242;16.310134;2.67;-2.7;160.18;0.930895;-0.498338;0.04613;92.2;0.0;0.0;4.4;0.0;0.0
3.0;1753880851.496976;16.332592;3.66;-4.07;148.34;0.877703;0.014635;0.013573;104.9;0.0;0.0;3.9;0.0;0.0
3.0;1753880851.50171;16.273787;-0.85;-2.99;166.05;0.632154;-0.482162;0.028436;111.4;0.0;0.0;1.3;0.0;0.0
3.0;1753880851.506444;16.321103;3.75;-4.0;159.66;0.724142;-0.487919;0.130972;94.6;0.0;0.0;4.9;0.0;0.0
3.0;1753880851.511178;16.369877;-0.19;0.67;198.59;0.757753;-0.22278;0.123458;98.3;0.0;0.0;3.1;0.0;0.0
3.0;1753880851.515912;16.324985;2.28;-6.25;157.97;0.7951;-0.274506;0.098838;93.2;0.0;0.0;2.0;0.0;0.0
3.0;1753880851.520646;16.329372;2.59;-2.44;149.69;0.771911;-0.40825;0.089146;111.9;0.0;0.0;6.5;0.0;0.0
3.0;1753880851.52538;16.290536;3.37;-2.5;160.82;0.876301;-0.091623;0.052593;110.9;0.0;0.0;2.8;0.0;0.0
3.0;1753880851.530115;16.344427;-0.71;-4.1;147.93;0.736882;-0.465364;0.053423;105.7;0.0;0.0;5.4;0.0;0.0
3.0;1753880851.534849;16.221745;-0.47;-2.5;195.7;0.779021;-0.269601;0.043493;97.0;0.0;0.0;5.2;0.0;0.0
3.0;1753880851.539583;16.307286;2.86;-2.99;143.03;0.940002;-0.031011;0.079494;101.5;0.0;0.0;6.0;0.0;0.0
3.0;1753880851.544317;16.350383;-2.06;-3.78;150.5;0.769239;-0.315863;0.062223;101.4;0.0;0.0;3.5;0.0;0.0
3.0;1753880851.549051;16.306441;1.12;-4.01;169.5;0.803857;0.035841;0.035061;103.2;0.0;0.0;4.3;0.0;0.0
3.0;1753880851.553785;16.286084;0.87;-0.51;139.39;0.785391;-0.150889;0.035746;81.8;0.0;0.0;2.9;0.0;0.0
3.0;1753880851.558519;16.326124;4.6;-1.93;173.03;0.771429;-0.130713;0.074791;108.3;0.0;0.0;6.2;0.0;0.0
3.0;1753880851.563253;16.32562;1.29;-0.49;168.15;0.705685;-0.197042;0.096987;108.3;0.0;0.0;7.2;0.0;0.0
3.0;1753880851.567987;16.316526;3.06;-0.58;189.39;0.64894;-0.413593;-0.037928;98.1;0.0;0.0;5.3;0.0;0.0
3.0;1753880851.572721;16.239422;1.29;-4.33;193.01;0.819877;-0.267509;0.028109;113.6;0.0;0.0;3.0;0.0;0.0
3.0;1753880851.577455;16.323129;1.46;-3.58;183.82;0.623079;-0.113741;0.021953;112.5;0.0;0.0;5.5;0.0;0.0
3.0;1753880851.582189;16.338289;1.7;-2.9;178.64;0.726963;-0.303787;0.008552;98.5;0.0;0.0;6.4;0.0;0.0
3.0;1753880851.586923;16.290747;-3.32;-2.59;147.12;0.801655;-0.14963;0.087704;109.4;0.0;0.0;1.2;0.0;0.0
3.0;1753880851.591657;16.310476;1.53;-3.15;210.09;0.806967;-0.320179;0.030779;110.1;0.0;0.0;6.9;0.0;0.0
3.0;1753880851.596391;16.315131;1.05;-3.15;155.29;0.990774;-0.222304;0.037589;95.3;0.0;0.0;4.6;0.0;0.0
3.0;1753880851.601125;16.354937;-0.43;-3.32;167.95;0.745985;-0.15953;0.033031;101.5;0.0;0.0;5.2;0.0;0.0
3.0;1753880851.605859;16.349783;-0.2;-3.8;153.57;0.878193;-0.104431;0.01111;99.0;0.0;0.0;1.0;0.0;0.0
3.0;1753880851.610593;16.371359;2.07;-4.3;163.13;0.769795;-0.487759;0.052388;98.9;0.0;0.0;4.7;0.0;0.0
3.0;1753880851.615327;16.287803;0.11;-2.42;170.14;1.105678;-0.092211;0.003933;118.6;0.0;0.0;7.3;0.0;0.0
3.0;1753880851.620062;16.330142;-0.3;-3.59;140.31;0.786879;-0.400525;0.030303;93.5;0.0;0.0;3.4;0.0;0.0
3.0;1753880851.624796;16.302783;-0.9;-2.25;163.62;0.729654;-0.363018;0.095749;108.1;0.0;0.0;5.1;0.0;0.0
3.0;1753880851.62953;16.30168;-3.56;-3.49;160.22;0.789004;-0.131767;-0.018039;86.3;0.0;0.0;6.9;0.0;0.0
3.0;1753880851.634264;16.30439;0.06;-3.73;146.87;0.824035;-0.641838;-0.007634;109.4;0.0;0.0;7.0;0.0;0.0
3.0;1753880851.638998;16.269492;0.59;-1.38;202.82;0.74934;-0.316735;0.065382;100.4;0.0;0.0;4.9;0.0;0.0
3.0;1753880851.643732;16.309293;4.05;-1.46;123.73;0.915556;-0.393685;0.064283;95.0;0.0;0.0;1.3;0.0;0.0
3.0;1753880851.648466;16.275895;-1.02;-0.83;154.94;0.752821;-0.226196;0.067484;99.0;0.0;0.0;6.9;0.0;0.0
3.0;1753880851.6532;16.288462;-2.86;-1.27;176.09;0.951928;-0.376048;0.050311;98.1;0.0;0.0;5.2;0.0;0.0
3.0;1753880851.657934;16.341456;-1.16;-2.86;147.62;0.947998;0.274867;0.056288;107.1;0.0;0.0;5.1;0.0;0.0
3.0;1753880851.662668;16.307895;-1.21;-0.9;164.93;0.718609;-0.321487;0.045557;95.4;0.0;0.0;6.6;0.0;0.0
3.0;1753880851.667402;16.315297;2.24;-1.12;179.75;0.859937;0.063997;0.107815;102.3;0.0;0.0;5.4;0.0;0.0
3.0;1753880851.672136;16.298828;-1.42;-0.66;135.59;1.004747;-0.331614;0.020918;118.3;0.0;0.0;4.9;0.0;0.0
3.0;1753880851.67687;16.29012;0.75;-1.83;119.11;0.667794;-0.167176;0.066045;96.2;0.0;0.0;4.8;0.0;0.0
3.0;1753880851.681604;16.303898;4.05;-2.48;166.28;0.823985;-0.101296;0.015561;99.7;0.0;0.0;2.2;0.0;0.0
3.0;1753880851.686338;16.30109;-2.64;-1.3;179.37;0.831672;-0.505021;0.026188;101.0;0.0;0.0;4.5;0.0;0.0
3.0;1753880851.691072;16.286072;1.17;-2.69;172.88;0.676978;-0.540536;0.044614;92.7;0.0;0.0;5.7;0.0;0.0
3.0;1753880851.695806;16.319648;-1.25;-1.63;189.33;0.792965;-0.432514;0.065451;102.5;0.0;0.0;4.7;0.0;0.0
3.0;1753880851.70054;16.303801;-1.62;-4.67;180.94;0.909336;-0.122584;0.103403;97.0;0.0;0.0;5.1;0.0;0.0
3.0;1753880851.705274;16.297957;1.91;-1.44;191.04;0.763049;-0.40238;0.074999;106.2;0.0;0.0;3.6;0.0;0.0
3.0;1753880851.710008;16.318207;-2.28;-5.25;154.75;0.87093;-0.424941;-0.040784;92.2;0.0;0.0;4.7;0.0;0.0
3.0;1753880851.714742;16.310711;0.26;-1.38;139.55;1.11413;-0.01302;0.068219;122.8;0.0;0.0;5.3;0.0;0.0
3.0;1753880851.719476;16.298554;-1.14;-2.99;134.54;0.741778;-0.320791;0.06989;109.1;0.0;0.0;6.7;0.0;0.0
3.0;1753880851.72421;16.276108;-0.96;-3.38;133.52;1.018515;-0.26259;0.053018;102.3;0.0;0.0;6.1;0.0;0.0
3.0;1753880851.728944;16.364545;-1.8;-2.55;173.11;0.873694;-0.382722;0.078369;101.1;0.0;0.0;7.9;0.0;0.0
3.0;1753880851.733678;16.324491;1.8;-1.34;127.92;0.770714;-0.226268;0.083783;99.0;0.0;0.0;3.2;0.0;0.0
3.0;1753880851.738412;16.268152;-0.75;-2.21;160.33;0.799458;-0.37792;-0.016691;97.7;0.0;0.0;4.1;0.0;0.0
3.0;1753880851.743146;16.327143;-2.14;-3.54;158.16;0.772687;0.057045;0.029284;106.0;0.0;0.0;6.6;0.0;0.0
3.0;1753880851.74788;16.266215;-1.8;-3.79;147.86;0.891691;-0.218214;0.08171;96.5;0.0;0.0;5.9;0.0;0.0
3.0;1753880851.752614;16.276113;-2.28;-0.06;142.18;1.022766;-0.616932;0.070377;90.4;0.0;0.0;6.7;0.0;0.0
3.0;1753880851.757348;16.240137;-2.65;-0.14;189.45;0.937951;-0.24696;-0.026712;87.2;0.0;0.0;3.3;0.0;0.0
3.0;1753880851.762082;16.326038;-4.4;-2.83;159.89;0.920778;-0.245392;0.035501;83.9;0.0;0.0;1.4;0.0;0.0
3.0;1753880851.766816;16.341506;-0.25;-1.18;181.31;1.125801;-0.31056;0.033135;97.6;0.0;0.0;7.9;0.0;0.0
3.0;1753880851.771551;16.299997;-3.98;-2.74;139.97;0.815255;-0.270583;0.079084;109.4;0.0;0.0;6.9;0.0;0.0
3.0;1753880851.776285;16.268146;-1.25;-0.89;146.52;0.982522;-0.170568;0.019191;88.1;0.0;0.0;5.8;0.0;0.0
3.0;1753880851.7841;16.308594;-1.4;-1.89;161.42;0.850096;-0.295484;0.052338;101.0;0.0;0.0;5.0;0.0;0.0
3.0;1753880851.788834;16.312612;-0.04;-2.51;203.15;0.909161;-0.176739;-0.0035;99.6;0.0;0.0;4.4;0.0;0.0
3.0;1753880851.793568;16.320993;-2.72;-2.64;122.65;0.880951;-0.450522;0.037792;96.3;0.0;0.0;4.5;0.0;0.0
3.0;1753880851.798302;16.323667;-4.87;0.66;135.55;0.736323;-0.497857;0.016867;89.4;0.0;0.0;4.7;0.0;0.0
3.0;1753880851.803036;16.303249;4.79;-2.18;120.3;0.807158;-0.20894;-0.093836;92.3;0.0;0.0;4.4;0.0;0.0
3.0;1753880851.80777;16.380939;1.34;0.63;184.5;1.126446;-0.373095;0.001753;94.2;0.0;0.0;3.6;0.0;0.0
3.0;1753880851.812504;16.346099;-6.82;-1.72;133.38;0.958796;-0.182328;0.069806;94.6;0.0;0.0;2.0;0.0;0.0
3.0;1753880851.81737;16.351562;-3.01;0.49;108.92;0.947696;-0.251564;-0.01403;89.0;0.0;0.0;3.0;0.0;0.0
3.0;1753880851.822104;16.348552;-2.11;-0.51;126.11;0.850242;-0.288432;-0.080993;83.0;0.0;0.0;1.3;0.0;0.0
3.0;1753880851.826838;16.333307;-4.79;-0.01;95.76;0.966709;-0.073704;-0.084373;88.0;0.0;0.0;2.3;0.0;0.0
3.0;1753880851.831572;16.408521;-3.98;2.21;104.84;0.909072;-0.179114;-0.024004;89.4;0.0;0.0;3.4;0.0;0.0
3.0;1753880851.836306;16.322705;-2.95;1.49;112.89;1.140227;-0.554845;0.04185;86.5;0.0;0.0;2.0;0.0;0.0
3.0;1753880851.84104;16.282851;-0.49;1.87;105.78;0.872042;-0.316083;-0.01569;93.2;0.0;0.0;3.1;0.0;0.0
3.0;1753880851.845774;16.339616;-4.08;-0.24;115.05;0.815521;-0.588259;-0.057239;81.9;0.0;0.0;3.6;0.0;0.0
3.0;1753880851.850508;16.316283;-3.3;-0.04;88.83;0.81198;-0.190501;-0.02567;97.1;0.0;0.0;3.9;0.0;0.0
3.0;1753880851.855242;16.320524;-0.07;2.54;78.33;0.986409;-0.284978;0.002288;86.0;0.0;0.0;1.4;0.0;0.0
3.0;1753880851.859976;16.339545;-0.41;-0.21;83.68;1.081399;-0.293656;-0.035733;80.9;0.0;0.0;4.3;0.0;0.0
3.0;1753880851.86471;16.319484;1.27;-0.16;91.27;0.895589;-0.526257;-0.042897;94.0;0.0;0.0;2.7;0.0;0.0
3.0;1753880851.869444;16.300586;2.53;1.94;64.68;0.876399;-0.218641;-0.100421;93.2;0.0;0.0;2.5;0.0;0.0
3.0;1753880851.87483;16.332031;-2.87;0.07;109.34;0.92476;-0.33428;-0.038918;89.0;0.0;0.0;3.0;0.0;0.0
3.0;1753880851.879564;16.372491;-4.81;0.03;124.58;0.948737;-0.354521;-0.08255;95.5;0.0;0.0;3.2;0.0;0.0
3.0;1753880851.884298;16.335241;-3.43;-0.76;99.23;0.820859;-0.158135;0.016094;85.0;0.0;0.0;3.0;0.0;0.0
3.0;1753880851.889032;16.317409;1.02;-0.93;89.53;0.982405;-0.521389;-0.119226;88.3;0.0;0.0;3.4;0.0;0.0
3.0;1753880851.893766;16.330868;-7.33;-2.57;111.53;0.969063;-0.410172;-0.099215;88.9;0.0;0.0;3.6;0.0;0.0
3.0;1753880851.8985;16.290653;0.48;-0.72;138.22;0.837985;-0.349559;0.019951;88.6;0.0;0.0;5.1;0.0;0.0
3.0;1753880851.903234;16.346924;-4.93;-0.89;98.37;0.939847;-0.564803;-0.114404;90.3;0.0;0.0;1.7;0.0;0.0
3.0;1753880851.90886;16.332031;-2.45;-1.05;105.35;0.92476;-0.33428;-0.038918;89.0;0.0;0.0;3.0;0.0;0.0
3.0;1753880851.913594;16.381368;-1.88;-1.05;88.58;1.000327;-0.437046;-0.06638;84.5;0.0;0.0;3.3;0.0;0.0
3.0;1753880851.918328;16.330132;-2.29;-0.39;96.75;1.223901;-0.278747;0.042045;91.1;0.0;0.0;3.0;0.0;0.0
3.0;1753880851.923062;16.31848;-2.8;1.72;101.26;1.063216;-0.258563;0.013667;75.2;0.0;0.0;3.6;0.0;0.0
3.0;1753880851.927796;16.346921;-2.65;-1.42;111.2;0.831134;-0.388388;-0.094011;87.5;0.0;0.0;2.9;0.0;0.0
3.0;1753880851.93253;16.333609;-7.04;-0.87;106.22;0.834998;-0.242218;-0.231853;89.6;0.0;0.0;3.8;0.0;0.0
3.0;1753880851.937264;16.307771;0.42;-2.42;107.1;0.982502;-0.138849;-0.079804;88.2;0.0;0.0;4.3;0.0;0.0
3.0;1753880851.941998;16.305122;-0.94;0.21;109.27;0.930609;-0.056956;0.054773;92.4;0.0;0.0;0.7;0.0;0.0
3.0;1753880851.946732;16.357538;-2.4;-1.94;121.34;0.96835;-0.213616;-0.09811;90.3;0.0;0.0;1.9;0.0;0.0
3.0;1753880851.951466;16.320283;-0.23;-3.56;138.42;0.819296;-0.335623;-0.204487;85.3;0.0;0.0;3.6;0.0;0.0
3.0;1753880851.95611;16.332031;-0.98;-2.1;111.09;0.982954;-0.269254;-0.109678;89.0;0.0;0.0;3.0;0.0;0.0
3.0;1753880851.956729;16.390625;-1.12;11.13;34.79;0.10126;-1.06811;-0.020374;148.0;0.0;0.0;16.0;0.0;0.0
3.0;1753880851.961339;16.390625;0.21;11.41;32.76;0.161162;-0.982832;-0.076738;148.0;0.0;0.0;16.0;0.0;0.0
3.0;1753880851.967934;16.421875;1.96;11.48;32.48;0.13359;-0.974658;-0.038552;148.0;0.0;0.0;16.0;0.0;0.0
3.0;1753880851.970777;16.421875;2.1;11.9;29.89;0.093452;-0.95465;-0.011712;148.0;0.0;0.0;16.0;0.0;0.0
3.0;1753880851.97603;16.421875;1.26;12.11;30.03;0.11651;-0.987224;-0.023058;148.0;0.0;0.0;16.0;0.0;0.0
3.0;1753880851.980107;16.421875;0.14;11.83;33.11;0.089426;-1.014918;0.043066;148.0;0.0;0.0;16.0;0.0;0.0
3.0;1753880851.984709;16.417969;-0.49;12.04;31.99;0.046726;-1.049688;0.030134;148.0;0.0;0.0;16.0;0.0;0.0
3.0;1753880851.98941;16.417969;0.63;12.88;27.79;0.198616;-1.072502;0.005978;148.0;0.0;0.0;16.0;0.0;0.0
3.0;1753880851.994125;16.417969;0.28;12.25;29.47;0.019398;-1.089948;0.040504;148.0;0.0;0.0;16.0;0.0;0.0
3.0;1753880851.998859;16.41981;1.67;11.68;27.53;-0.056569;-1.144641;-0.006357;146.4;0.0;0.0;17.3;0.0;0.0
3.0;1753880852.003593;16.419793;-0.52;12.76;34.73;0.150917;-1.10546;0.06259;142.2;0.0;0.0;13.7;0.0;0.0
3.0;1753880852.008327;16.417572;2.43;12.96;26.42;0.058473;-1.104128;0.040602;160.7;0.0;0.0;17.0;0.0;0.0
3.0;1753880852.013061;16.401199;3.23;12.67;34.68;-0.041659;-1.056257;0.007489;143.8;0.0;0.0;15.3;0.0;0.0
3.0;1753880852.017795;16.425322;-3.11;11.8;26.91;0.046307;-1.052718;0.041431;147.6;0.0;0.0;17.4;0.0;0.0
3.0;1753880852.022529;16.42274;0.77;12.51;29.54;0.047048;-1.095393;0.021285;149.8;0.0;0.0;16.0;0.0;0.0
3.0;1753880852.027263;16.404492;1.17;11.12;29.11;-0.009429;-1.050221;0.008353;155.3;0.0;0.0;14.2;0.0;0.0
3.0;1753880852.031997;16.41342;1.44;13.91;22.41;0.025774;-1.028093;0.048255;146.1;0.0;0.0;17.9;0.0;0.0
3.0;1753880852.036731;16.415571;-0.88;12.99;30.05;0.035828;-1.074756;-0.021726;146.4;0.0;0.0;12.9;0.0;0.0
3.0;1753880852.041465;16.407717;0.11;12.81;25.97;-0.008547;-1.054562;0.043644;150.9;0.0;0.0;17.6;0.0;0.0
3.0;1753880852.046199;16.407649;-0.05;12.68;24.14;0.080805;-1.068127;0.052302;151.3;0.0;0.0;17.6;0.0;0.0
3.0;1753880852.050933;16.418527;-1.58;13.43;34.74;0.155755;-1.04348;0.033112;144.4;0.0;0.0;11.5;0.0;0.0
3.0;1753880852.055668;16.417354;0.85;12.97;29.61;0.085209;-1.080991;0.122016;139.8;0.0;0.0;16.6;0.0;0.0
3.0;1753880852.060402;16.398979;-1.91;11.73;29.45;0.059436;-1.115498;0.046618;145.0;0.0;0.0;15.2;0.0;0.0
3.0;1753880852.065136;16.423679;-2.27;13.13;32.1;0.033838;-1.04322;-0.00164;156.6;0.0;0.0;19.0;0.0;0.0
3.0;1753880852.06987;16.421918;-2.4;13.51;25.58;0.080089;-1.00818;0.030886;151.8;0.0;0.0;15.8;0.0;0.0
3.0;1753880852.074604;16.408623;-1.8;13.9;21.31;-0.012866;-1.051179;0.056351;146.9;0.0;0.0;14.1;0.0;0.0
3.0;1753880852.079338;16.403107;0.82;12.16;26.8;0.082469;-1.080635;0.012091;152.6;0.0;0.0;15.0;0.0;0.0
3.0;1753880852.084072;16.419976;0.01;12.46;25.22;0.103037;-1.06231;0.031434;149.0;0.0;0.0;18.4;0.0;0.0
3.0;1753880852.088806;16.425155;1.37;12.68;22.56;-0.024384;-1.097487;0.01868;146.5;0.0;0.0;14.6;0.0;0.0
3.0;1753880852.09354;16.405458;-1.28;13.14;24.27;0.016314;-1.095761;-0.060629;148.4;0.0;0.0;17.3;0.0;0.0
3.0;1753880852.098274;16.406188;-0.76;14.0;31.15;0.045552;-1.032385;0.052415;145.7;0.0;0.0;15.9;0.0;0.0
3.0;1753880852.103008;16.417509;1.49;12.14;26.14;0.09326;-1.039065;0.009845;144.5;0.0;0.0;17.4;0.0;0.0
3.0;1753880852.107742;16.419747;-0.03;12.15;30.05;0.096666;-0.976661;0.015623;152.8;0.0;0.0;16.1;0.0;0.0
3.0;1753880852.1125;16.417969;-0.7;13.37;26.67;0.080642;-1.02724;0.025376;148.0;0.0;0.0;16.0;0.0;0.0
3.0;1753880852.117234;16.409822;0.68;14.57;23.78;0.093615;-0.96826;0.064548;152.6;0.0;0.0;14.5;0.0;0.0
3.0;1753880852.121968;16.409708;0.13;13.01;29.64;0.112939;-1.031113;0.025579;149.7;0.0;0.0;16.2;0.0;0.0
3.0;1753880852.126702;16.417154;-1.29;13.15;24.63;0.157606;-1.014961;0.009077;144.8;0.0;0.0;17.7;0.0;0.0
3.0;1753880852.131436;16.401653;-2.16;12.76;25.57;0.061201;-1.024823;-0.002513;149.4;0.0;0.0;16.3;0.0;0.0
3.0;1753880852.13617;16.420268;-1.42;11.79;28.47;0.084958;-1.016847;0.026213;148.4;0.0;0.0;17.8;0.0;0.0
3.0;1753880852.140904;16.427542;-1.66;14.16;27.09;0.038303;-1.083788;0.009278;150.7;0.0;0.0;17.7;0.0;0.0
3.0;1753880852.145638;16.428776;0.74;13.05;23.68;0.12244;-1.000478;0.01624;147.8;0.0;0.0;16.6;0.0;0.0
3.0;1753880852.150372;16.414602;0.13;14.44;21.99;0.091073;-1.003976;-0.000179;149.0;0.0;0.0;12.8;0.0;0.0
3.0;1753880852.155106;16.415774;-2.61;12.41;24.84;0.09252;-1.098236;0.005853;151.1;0.0;0.0;15.1;0.0;0.0
3.0;1753880852.15984;16.421284;-1.23;13.79;26.86;0.123027;-1.063878;0.018692;148.6;0.0;0.0;14.8;0.0;0.0
3.0;1753880852.164574;16.42437;-3.48;13.44;24.95;0.095403;-0.952243;0.00248;139.0;0.0;0.0;18.2;0.0;0.0
3.0;1753880852.169308;16.422201;-1.1;13.57;27.49;0.039031;-1.050104;0.032866;148.2;0.0;0.0;13.9;0.0;0.0
3.0;1753880852.174042;16.416989;0.49;13.81;28.21;0.080527;-1.082561;0.024919;152.2;0.0;0.0;14.8;0.0;0.0
3.0;1753880852.178776;16.425293;-0.6;13.43;30.43;0.077006;-1.050505;0.051622;151.4;0.0;0.0;18.6;0.0;0.0
3.0;1753880852.18351;16.414681;-1.11;13.17;34.35;0.088473;-1.021772;-0.02543;146.7;0.0;0.0;19.0;0.0;0.0
3.0;1753880852.188244;16.414792;-0.47;14.08;28.67;0.088402;-1.090063;-0.002279;148.0;0.0;0.0;13.9;0.0;0.0
3.0;1753880852.192978;16.405053;-2.38;12.99;20.36;-0.015183;-1.042112;0.09515;142.5;0.0;0.0;13.5;0.0;0.0
3.0;1753880852.197713;16.409362;-0.64;13.71;24.97;-0.026487;-0.955462;0.027603;148.9;0.0;0.0;17.5;0.0;0.0
3.0;1753880852.202447;16.411678;-0.07;13.67;23.97;0.075073;-0.99214;0.056315;140.2;0.0;0.0;15.4;0.0;0.0
3.0;1753880852.207181;16.429168;0.46;12.99;25.52;0.086739;-1.053771;0.037859;156.1;0.0;0.0;14.6;0.0;0.0
3.0;1753880852.211915;16.435971;-1.72;13.64;25.93;0.11188;-1.083524;0.009433;145.5;0.0;0.0;16.8;0.0;0.0
3.0;1753880852.216649;16.411325;-0.37;13.52;23.8;0.044103;-1.039741;0.045234;149.7;0.0;0.0;16.0;0.0;0.0
3.0;1753880852.221383;16.437038;-0.44;14.39;20.7;0.051743;-1.002543;0.028619;152.4;0.0;0.0;17.9;0.0;0.0
3.0;1753880852.226117;16.425404;-1.88;14.21;19.36;0.14401;-1.041274;0.049877;150.2;0.0;0.0;16.7;0.0;0.0
3.0;1753880852.230851;16.412887;-0.65;13.25;27.42;0.078608;-1.01833;0.033703;150.0;0.0;0.0;17.0;0.0;0.0
3.0;1753880852.235585;16.413739;-1.17;12.42;27.21;0.0277;-1.018699;0.047632;148.0;0.0;0.0;14.3;0.0;0.0
3.0;1753880852.240319;16.453154;-1.01;13.7;24.81;0.038781;-1.025601;-0.005823;144.6;0.0;0.0;16.5;0.0;0.0
3.0;1753880852.245053;16.420102;-0.89;14.61;28.89;-0.022466;-0.976253;0.010084;144.9;0.0;0.0;10.6;0.0;0.0
3.0;1753880852.249787;16.429952;-1.6;13.21;21.61;0.136275;-1.020773;0.020509;149.4;0.0;0.0;17.6;0.0;0.0
3.0;1753880852.254521;16.411063;-0.36;13.19;18.9;0.084683;-1.111007;0.057268;151.7;0.0;0.0;16.0;0.0;0.0
3.0;1753880852.259255;16.424804;0.3;13.35;20.9;0.062454;-1.003722;0.014988;148.5;0.0;0.0;16.3;0.0;0.0
