DeviceID;Timestamp;Temperature;GyroX;GyroY;GyroZ;AccelX;AccelY;AccelZ;Dist1;Dist2;Dist3;Err1;Err2;Err3
4.0;1753880846.552262;15.453125;0.63;-1.19;0.07;0.964776;0.248514;0.006222;127.0;0.0;0.0;11.0;0.0;0.0
4.0;1753880846.556822;15.453125;0.56;-1.12;0.07;0.965996;0.250832;0.006832;127.0;0.0;0.0;11.0;0.0;0.0
4.0;1753880846.561825;15.476562;0.49;-1.12;0.07;0.965142;0.249368;0.007442;127.0;0.0;0.0;11.0;0.0;0.0
4.0;1753880846.570481;15.476562;0.63;-1.12;0.07;0.965752;0.249734;0.007442;129.0;0.0;0.0;10.0;0.0;0.0
4.0;1753880846.575155;15.476562;0.7;-1.12;0.0;0.964044;0.249246;0.007564;129.0;0.0;0.0;10.0;0.0;0.0
4.0;1753880846.579586;15.484375;0.63;-1.19;0.07;0.96624;0.249856;0.006832;129.0;0.0;0.0;10.0;0.0;0.0
4.0;1753880846.584135;15.484375;0.49;-1.26;0.07;0.964776;0.249246;0.008296;129.0;0.0;0.0;10.0;0.0;0.0
4.0;1753880846.588684;15.484375;0.49;-1.12;0.0;0.965264;0.249612;0.00671;129.0;0.0;0.0;10.0;0.0;0.0
4.0;1753880846.594887;15.484375;0.49;-1.12;0.0;0.964044;0.248758;0.0061;129.0;0.0;0.0;10.0;0.0;0.0
4.0;1753880846.60075;15.484375;0.49;-1.12;0.07;0.966362;0.248636;0.005734;129.0;0.0;0.0;10.0;0.0;0.0
4.0;1753880846.602288;15.484375;0.63;-1.19;-0.07;0.96563;0.250344;0.005856;129.0;0.0;0.0;10.0;0.0;0.0
4.0;1753880846.607643;15.484375;0.7;-1.19;0.0;0.965508;0.248148;0.006222;129.0;0.0;0.0;10.0;0.0;0.0
4.0;1753880846.611663;15.484375;0.63;-1.19;0.14;0.96502;0.250222;0.005978;129.0;0.0;0.0;10.0;0.0;0.0
4.0;1753880846.619209;15.5;0.7;-1.12;0.07;0.965142;0.24766;0.007198;125.0;0.0;0.0;12.0;0.0;0.0
4.0;1753880846.620504;15.5;0.63;-1.12;0.07;0.965874;0.25193;0.00671;125.0;0.0;0.0;12.0;0.0;0.0
4.0;1753880846.626242;15.5;0.63;-1.19;0.07;0.96563;0.246928;0.007198;125.0;0.0;0.0;12.0;0.0;0.0
4.0;1753880846.629629;15.5;0.56;-1.19;0.14;0.966728;0.252174;0.005734;125.0;0.0;0.0;12.0;0.0;0.0
4.0;1753880846.634198;15.460938;0.7;-1.12;0.07;0.96624;0.249612;0.007198;125.0;0.0;0.0;12.0;0.0;0.0
4.0;1753880846.638811;15.48134;0.74;-1.17;0.08;0.966527;0.251112;0.006872;125.6;0.0;0.0;12.1;0.0;0.0
4.0;1753880846.643073;15.460938;0.63;-1.12;0.0;0.965508;0.249856;0.006222;125.0;0.0;0.0;12.0;0.0;0.0
4.0;1753880846.643264;15.460938;0.63;-1.12;0.07;0.965142;0.2501;0.00793;125.0;0.0;0.0;12.0;0.0;0.0
4.0;1753880846.647877;15.463512;0.68;-1.21;0.06;0.963791;0.248839;0.007386;125.3;0.0;0.0;11.2;0.0;0.0
4.0;1753880846.652575;15.46875;0.63;-1.19;0.07;0.965996;0.249246;0.007076;125.0;0.0;0.0;12.0;0.0;0.0
4.0;1753880846.656947;15.46875;0.63;-1.12;0.07;0.96563;0.249368;0.00732;125.0;0.0;0.0;12.0;0.0;0.0
4.0;1753880846.6615;15.46875;0.63;-1.19;0.0;0.965264;0.2501;0.00732;125.0;0.0;0.0;12.0;0.0;0.0
4.0;1753880846.669329;15.46875;0.63;-1.19;0.07;0.965996;0.248758;0.005978;135.0;0.0;0.0;10.0;0.0;0.0
4.0;1753880846.670557;15.46875;0.63;-1.12;0.07;0.966484;0.250588;0.006466;135.0;0.0;0.0;10.0;0.0;0.0
4.0;1753880846.675153;15.46875;0.56;-1.12;0.14;0.965264;0.250222;0.005612;135.0;0.0;0.0;10.0;0.0;0.0
4.0;1753880846.679701;15.46875;0.49;-1.12;0.0;0.966484;0.250954;0.006832;135.0;0.0;0.0;10.0;0.0;0.0
4.0;1753880846.684418;15.46875;0.7;-1.12;0.0;0.964776;0.250222;0.00793;135.0;0.0;0.0;10.0;0.0;0.0
4.0;1753880846.692481;15.492188;0.63;-1.12;0.07;0.965874;0.248758;0.006588;135.0;0.0;0.0;10.0;0.0;0.0
4.0;1753880846.697503;15.492188;0.63;-1.19;0.07;0.965264;0.2501;0.005978;135.0;0.0;0.0;10.0;0.0;0.0
4.0;1753880846.697859;15.492188;0.63;-1.12;0.07;0.965752;0.249002;0.006588;135.0;0.0;0.0;10.0;0.0;0.0
4.0;1753880846.702434;15.492188;0.63;-1.05;0.07;0.96502;0.249124;0.008052;135.0;0.0;0.0;10.0;0.0;0.0
4.0;1753880846.706993;15.453125;0.63;-1.12;0.07;0.965508;0.249002;0.007442;135.0;0.0;0.0;10.0;0.0;0.0
4.0;1753880846.711533;15.453125;0.56;-1.19;0.0;0.965508;0.250588;0.006832;135.0;0.0;0.0;10.0;0.0;0.0
4.0;1753880846.720193;15.453125;0.56;-1.12;0.0;0.964532;0.248758;0.005246;124.0;0.0;0.0;11.0;0.0;0.0
4.0;1753880846.720614;15.453125;0.63;-1.19;0.07;0.96502;0.250954;0.008052;124.0;0.0;0.0;11.0;0.0;0.0
4.0;1753880846.725549;15.492188;0.63;-1.12;0.07;0.96624;0.249734;0.00671;124.0;0.0;0.0;11.0;0.0;0.0
4.0;1753880846.729668;15.492188;0.63;-1.19;0.0;0.96624;0.249734;0.00671;124.0;0.0;0.0;11.0;0.0;0.0
4.0;1753880846.734304;15.492188;0.63;-1.12;0.0;0.965874;0.249612;0.007198;124.0;0.0;0.0;11.0;0.0;0.0
4.0;1753880846.741635;15.492188;0.7;-1.19;0.0;0.964776;0.249856;0.006344;124.0;0.0;0.0;11.0;0.0;0.0
4.0;1753880846.748793;15.46875;0.56;-1.26;0.0;0.965508;0.248148;0.006466;124.0;0.0;0.0;11.0;0.0;0.0
4.0;1753880846.752664;15.46875;0.56;-1.19;0.07;0.965752;0.251808;0.007076;124.0;0.0;0.0;11.0;0.0;0.0
4.0;1753880846.757068;15.46875;0.63;-1.12;0.07;0.96624;0.247904;0.006588;124.0;0.0;0.0;11.0;0.0;0.0
4.0;1753880846.761623;15.484375;0.56;-1.19;0.0;0.965874;0.2501;0.005978;124.0;0.0;0.0;11.0;0.0;0.0
4.0;1753880846.767605;15.484375;0.63;-1.12;0.14;0.964898;0.249978;0.007198;124.0;0.0;0.0;10.0;0.0;0.0
4.0;1753880846.770714;15.484375;0.63;-1.12;0.07;0.964532;0.249734;0.006344;124.0;0.0;0.0;10.0;0.0;0.0
4.0;1753880846.77571;15.484375;0.56;-1.05;0.0;0.965996;0.250466;0.005856;124.0;0.0;0.0;10.0;0.0;0.0
4.0;1753880846.779876;15.46875;0.7;-1.12;-0.07;0.964654;0.248636;0.0061;124.0;0.0;0.0;10.0;0.0;0.0
4.0;1753880846.784386;15.46875;0.56;-1.19;0.07;0.965752;0.25193;0.0061;124.0;0.0;0.0;10.0;0.0;0.0
4.0;1753880846.789989;15.46875;0.63;-1.19;0.07;0.967094;0.24888;0.005978;124.0;0.0;0.0;10.0;0.0;0.0
4.0;1753880846.796928;15.46875;0.56;-1.19;0.07;0.964776;0.250222;0.007076;124.0;0.0;0.0;10.0;0.0;0.0
4.0;1753880846.797987;15.476562;0.63;-1.12;0.07;0.965752;0.250588;0.00671;124.0;0.0;0.0;10.0;0.0;0.0
4.0;1753880846.802569;15.476562;0.63;-1.05;0.07;0.965264;0.247782;0.006954;124.0;0.0;0.0;10.0;0.0;0.0
4.0;1753880846.807083;15.476562;0.49;-1.05;0.07;0.965264;0.250588;0.006954;124.0;0.0;0.0;10.0;0.0;0.0
4.0;1753880846.812218;15.476562;0.63;-1.19;0.14;0.964288;0.249978;0.00671;124.0;0.0;0.0;10.0;0.0;0.0
4.0;1753880846.818676;15.484375;0.63;-1.19;0.07;0.966606;0.249124;0.007442;122.0;0.0;0.0;13.0;0.0;0.0
4.0;1753880846.82089;15.484375;0.63;-1.12;0.0;0.966606;0.249124;0.007442;122.0;0.0;0.0;13.0;0.0;0.0
4.0;1753880846.825339;15.484375;0.7;-1.12;0.07;0.965508;0.247904;0.00732;122.0;0.0;0.0;13.0;0.0;0.0
4.0;1753880846.829864;15.484375;0.63;-1.12;0.14;0.965752;0.252418;0.008296;122.0;0.0;0.0;13.0;0.0;0.0
4.0;1753880846.838457;15.484375;0.63;-1.19;0.07;0.96563;0.246562;0.006344;122.0;0.0;0.0;13.0;0.0;0.0
4.0;1753880846.838938;15.484375;0.56;-1.19;0.07;0.966606;0.251564;0.006344;122.0;0.0;0.0;13.0;0.0;0.0
4.0;1753880846.843551;15.479586;0.62;-1.22;-0.03;0.965235;0.249507;0.007617;121.2;0.0;0.0;13.6;0.0;0.0
4.0;1753880846.847999;15.484375;0.56;-1.19;0.07;0.964654;0.24888;0.007808;122.0;0.0;0.0;13.0;0.0;0.0
4.0;1753880846.852646;15.5;0.56;-1.19;0.07;0.96441;0.250344;0.007076;122.0;0.0;0.0;13.0;0.0;0.0
4.0;1753880846.857572;15.5;0.63;-1.12;0.07;0.96502;0.249002;0.005734;122.0;0.0;0.0;13.0;0.0;0.0
4.0;1753880846.862185;15.493862;0.66;-1.06;0.07;0.965927;0.246325;0.005694;124.4;0.0;0.0;12.1;0.0;0.0
4.0;1753880846.866395;15.5;0.63;-1.19;0.14;0.967216;0.249246;0.00671;126.0;0.0;0.0;10.0;0.0;0.0
4.0;1753880846.870864;15.507812;0.56;-1.19;0.0;0.964776;0.249856;0.007564;126.0;0.0;0.0;10.0;0.0;0.0
4.0;1753880846.875397;15.507812;0.63;-1.19;0.07;0.966484;0.249246;0.006344;126.0;0.0;0.0;10.0;0.0;0.0
4.0;1753880846.87995;15.507812;0.7;-1.19;0.07;0.966118;0.251076;0.00732;126.0;0.0;0.0;10.0;0.0;0.0
4.0;1753880846.887684;15.507812;0.7;-1.19;0.0;0.96502;0.249246;0.007564;126.0;0.0;0.0;10.0;0.0;0.0
4.0;1753880846.889007;15.460938;0.63;-1.19;0.0;0.964532;0.250954;0.006222;126.0;0.0;0.0;10.0;0.0;0.0
4.0;1753880846.895919;15.460938;0.56;-1.12;0.14;0.965874;0.250588;0.00732;126.0;0.0;0.0;10.0;0.0;0.0
4.0;1753880846.898349;15.460938;0.56;-1.19;0.07;0.965264;0.24949;0.007808;126.0;0.0;0.0;10.0;0.0;0.0
4.0;1753880846.903093;15.460938;0.63;-1.19;0.0;0.965752;0.250466;0.005368;126.0;0.0;0.0;10.0;0.0;0.0
4.0;1753880846.907259;15.484375;0.56;-1.12;0.07;0.96624;0.2501;0.008174;126.0;0.0;0.0;10.0;0.0;0.0
4.0;1753880846.911872;15.477083;0.57;-1.15;-0.01;0.963816;0.24925;0.006764;121.8;0.0;0.0;11.1;0.0;0.0
4.0;1753880846.916579;15.484375;0.56;-1.19;0.07;0.964898;0.24827;0.006344;118.0;0.0;0.0;10.0;0.0;0.0
4.0;1753880846.920884;15.484375;0.63;-1.26;0.07;0.965386;0.249978;0.006588;118.0;0.0;0.0;10.0;0.0;0.0
4.0;1753880846.925462;15.46875;0.63;-1.19;0.0;0.96502;0.248758;0.00549;118.0;0.0;0.0;10.0;0.0;0.0
4.0;1753880846.930088;15.46875;0.7;-1.12;0.07;0.966972;0.250954;0.00671;118.0;0.0;0.0;10.0;0.0;0.0
4.0;1753880846.936533;15.46875;0.63;-1.12;0.07;0.966362;0.248392;0.006588;118.0;0.0;0.0;10.0;0.0;0.0
4.0;1753880846.941146;15.484073;0.53;-1.16;0.01;0.965985;0.247233;0.007314;119.3;0.0;0.0;8.9;0.0;0.0
4.0;1753880846.946045;15.484375;0.56;-1.12;0.0;0.965874;0.249368;0.006344;118.0;0.0;0.0;10.0;0.0;0.0
4.0;1753880846.9493;15.484375;0.63;-1.19;0.14;0.96624;0.250832;0.005612;118.0;0.0;0.0;10.0;0.0;0.0
4.0;1753880846.95265;15.484375;0.63;-1.19;0.14;0.96624;0.250832;0.005612;118.0;0.0;0.0;10.0;0.0;0.0
4.0;1753880846.957318;15.484375;0.63;-1.19;0.07;0.965508;0.248392;0.00793;118.0;0.0;0.0;10.0;0.0;0.0
4.0;1753880846.961931;15.477041;0.54;-1.19;0.01;0.965103;0.2519;0.007326;126.2;0.0;0.0;9.5;0.0;0.0
4.0;1753880846.966341;15.484375;0.63;-1.05;0.0;0.965508;0.250832;0.006222;131.0;0.0;0.0;9.0;0.0;0.0
4.0;1753880846.971239;15.484375;0.7;-1.05;0.0;0.96624;0.251198;0.007198;131.0;0.0;0.0;9.0;0.0;0.0
4.0;1753880846.97552;15.484375;0.63;-1.12;0.07;0.964288;0.248392;0.00732;131.0;0.0;0.0;9.0;0.0;0.0
4.0;1753880846.980073;15.46875;0.7;-1.19;0.07;0.965752;0.250588;0.006832;131.0;0.0;0.0;9.0;0.0;0.0
4.0;1753880846.985364;15.46875;0.7;-1.12;0.07;0.966606;0.24949;0.005978;131.0;0.0;0.0;9.0;0.0;0.0
4.0;1753880846.993119;15.46875;0.49;-1.19;0.0;0.965508;0.247782;0.006222;131.0;0.0;0.0;9.0;0.0;0.0
4.0;1753880846.993672;15.46875;0.56;-1.12;0.07;0.96563;0.24949;0.00732;131.0;0.0;0.0;9.0;0.0;0.0
4.0;1753880846.998266;15.476562;0.63;-1.12;0.0;0.965508;0.249734;0.00732;131.0;0.0;0.0;9.0;0.0;0.0
4.0;1753880847.002879;15.486364;0.6;-1.09;0.0;0.964845;0.248916;0.007685;127.8;0.0;0.0;8.5;0.0;0.0
4.0;1753880847.007492;15.480194;0.76;-1.05;-0.01;0.965687;0.250284;0.007137;120.0;0.0;0.0;8.6;0.0;0.0
4.0;1753880847.012105;15.478603;0.67;-1.09;0.01;0.965585;0.251017;0.007091;131.2;0.0;0.0;8.9;0.0;0.0
4.0;1753880847.016718;15.478327;0.55;-1.1;0.01;0.96623;0.249158;0.007607;129.6;0.0;0.0;8.8;0.0;0.0
4.0;1753880847.02133;15.477166;0.66;-1.1;-0.02;0.965395;0.249877;0.007426;128.1;0.0;0.0;8.6;0.0;0.0
4.0;1753880847.025944;15.48217;0.64;-1.09;0.02;0.966214;0.249342;0.00729;133.4;0.0;0.0;9.1;0.0;0.0
4.0;1753880847.030556;15.467554;0.63;-1.04;-0.08;0.964818;0.249527;0.007476;127.8;0.0;0.0;9.0;0.0;0.0
4.0;1753880847.035169;15.478472;0.67;-1.14;0.06;0.965725;0.248126;0.00762;142.3;0.0;0.0;8.8;0.0;0.0
4.0;1753880847.039782;15.479561;0.73;-1.17;0.0;0.966094;0.249636;0.007077;131.1;0.0;0.0;8.6;0.0;0.0
4.0;1753880847.044395;15.474001;0.53;-1.02;0.03;0.966002;0.248236;0.006116;126.3;0.0;0.0;9.6;0.0;0.0
4.0;1753880847.049008;15.490006;0.71;-1.07;0.08;0.965473;0.249598;0.007085;114.3;0.0;0.0;8.9;0.0;0.0
4.0;1753880847.053621;15.482676;0.58;-1.15;-0.04;0.965826;0.25246;0.007403;138.7;0.0;0.0;9.8;0.0;0.0
4.0;1753880847.058234;15.490599;0.56;-1.2;-0.02;0.96513;0.249582;0.007959;129.5;0.0;0.0;9.1;0.0;0.0
4.0;1753880847.062847;15.481765;0.58;-1.12;0.04;0.964621;0.249258;0.007042;137.5;0.0;0.0;9.9;0.0;0.0
4.0;1753880847.06746;15.473158;0.72;-1.12;0.05;0.96452;0.249206;0.006972;138.3;0.0;0.0;7.6;0.0;0.0
4.0;1753880847.072073;15.478418;0.56;-1.15;-0.07;0.965392;0.249187;0.007495;125.5;0.0;0.0;8.9;0.0;0.0
4.0;1753880847.076686;15.467886;0.72;-1.03;0.04;0.965616;0.249162;0.008305;138.1;0.0;0.0;8.4;0.0;0.0
4.0;1753880847.081298;15.479956;0.63;-1.12;0.05;0.965909;0.249499;0.008679;132.0;0.0;0.0;9.1;0.0;0.0
4.0;1753880847.085912;15.477434;0.61;-1.05;0.01;0.964936;0.249477;0.006733;126.1;0.0;0.0;9.0;0.0;0.0
4.0;1753880847.090524;15.468541;0.55;-1.05;-0.02;0.965057;0.251273;0.007228;130.6;0.0;0.0;9.2;0.0;0.0
4.0;1753880847.095137;15.475055;0.54;-1.11;-0.03;0.964829;0.248976;0.0073;132.7;0.0;0.0;8.5;0.0;0.0
4.0;1753880847.09975;15.483943;0.64;-1.11;0.02;0.964597;0.249649;0.006249;130.7;0.0;0.0;9.5;0.0;0.0
4.0;1753880847.104363;15.479099;0.65;-0.95;-0.03;0.96596;0.249505;0.009814;132.7;0.0;0.0;8.9;0.0;0.0
4.0;1753880847.108976;15.472964;0.6;-1.04;-0.03;0.965371;0.252025;0.006593;131.9;0.0;0.0;9.2;0.0;0.0
4.0;1753880847.113589;15.473021;0.5;-1.18;0.01;0.966101;0.250471;0.006987;133.5;0.0;0.0;9.3;0.0;0.0
4.0;1753880847.118202;15.467467;0.66;-1.1;0.01;0.965028;0.250109;0.007277;131.2;0.0;0.0;8.7;0.0;0.0
4.0;1753880847.122815;15.476505;0.6;-1.14;0.02;0.965096;0.251726;0.008004;131.8;0.0;0.0;9.7;0.0;0.0
4.0;1753880847.127428;15.463296;0.62;-1.06;0.09;0.965333;0.250808;0.008113;132.0;0.0;0.0;9.1;0.0;0.0
4.0;1753880847.132041;15.471898;0.72;-1.06;0.17;0.965711;0.250041;0.007501;113.3;0.0;0.0;8.6;0.0;0.0
4.0;1753880847.136654;15.465123;0.65;-1.1;-0.02;0.964088;0.251306;0.007879;136.2;0.0;0.0;8.8;0.0;0.0
4.0;1753880847.141266;15.485457;0.68;-1.18;0.06;0.964995;0.249184;0.007434;128.8;0.0;0.0;8.7;0.0;0.0
4.0;1753880847.14588;15.471446;0.6;-1.12;0.11;0.965361;0.250294;0.007233;131.0;0.0;0.0;9.4;0.0;0.0
4.0;1753880847.150492;15.468812;0.64;-1.08;0.03;0.964535;0.249207;0.006765;127.4;0.0;0.0;8.7;0.0;0.0
4.0;1753880847.155105;15.476148;0.56;-1.14;0.04;0.966139;0.249318;0.007834;126.8;0.0;0.0;9.4;0.0;0.0
4.0;1753880847.159718;15.475815;0.66;-1.18;-0.04;0.965321;0.248649;0.008213;125.8;0.0;0.0;9.5;0.0;0.0
4.0;1753880847.164331;15.46861;0.63;-1.08;0.1;0.965865;0.251309;0.007771;140.5;0.0;0.0;9.6;0.0;0.0
4.0;1753880847.168944;15.466487;0.66;-1.07;0.14;0.964288;0.24997;0.007444;135.0;0.0;0.0;10.2;0.0;0.0
4.0;1753880847.173557;15.460478;0.56;-1.07;0.02;0.964905;0.249339;0.007015;131.2;0.0;0.0;8.8;0.0;0.0
4.0;1753880847.17817;15.475582;0.56;-1.04;-0.14;0.965423;0.250119;0.007158;137.7;0.0;0.0;8.0;0.0;0.0
4.0;1753880847.182783;15.471138;0.66;-1.07;0.01;0.964709;0.248766;0.008797;135.4;0.0;0.0;8.4;0.0;0.0
4.0;1753880847.187396;15.473386;0.6;-1.05;-0.04;0.96562;0.249055;0.008567;115.3;0.0;0.0;9.1;0.0;0.0
4.0;1753880847.192009;15.473021;0.58;-1.04;0.1;0.965132;0.248902;0.005865;122.9;0.0;0.0;8.4;0.0;0.0
4.0;1753880847.196622;15.483646;0.57;-1.1;0.06;0.965154;0.250356;0.00726;125.2;0.0;0.0;9.2;0.0;0.0
4.0;1753880847.201234;15.477354;0.63;-1.02;0.01;0.965471;0.249439;0.008771;129.2;0.0;0.0;8.7;0.0;0.0
4.0;1753880847.205848;15.475981;0.59;-0.97;0.0;0.965889;0.248554;0.007617;135.3;0.0;0.0;8.5;0.0;0.0
4.0;1753880847.21046;15.471243;0.62;-0.98;0.04;0.965805;0.249314;0.005073;127.3;0.0;0.0;9.3;0.0;0.0
4.0;1753880847.215073;15.492197;0.55;-1.08;0.01;0.963868;0.248212;0.006918;144.0;0.0;0.0;9.8;0.0;0.0
4.0;1753880847.219686;15.483023;0.58;-1.09;0.1;0.963944;0.249398;0.008589;145.6;0.0;0.0;8.3;0.0;0.0
4.0;1753880847.224299;15.468564;0.63;-1.04;0.04;0.96527;0.250482;0.008297;123.7;0.0;0.0;8.8;0.0;0.0
4.0;1753880847.228912;15.462577;0.64;-1.01;0.05;0.965904;0.251272;0.009086;133.9;0.0;0.0;9.1;0.0;0.0
4.0;1753880847.233525;15.479043;0.68;-1.07;0.12;0.964986;0.249767;0.006693;139.5;0.0;0.0;9.5;0.0;0.0
4.0;1753880847.238138;15.465673;0.6;-1.02;-0.08;0.965166;0.250055;0.008999;117.7;0.0;0.0;9.5;0.0;0.0
4.0;1753880847.242751;15.492241;0.61;-1.15;0.1;0.965627;0.249519;0.007769;139.7;0.0;0.0;8.4;0.0;0.0
4.0;1753880847.247364;15.482912;0.61;-1.1;0.04;0.965256;0.248328;0.008853;132.5;0.0;0.0;8.7;0.0;0.0
4.0;1753880847.251977;15.487268;0.67;-0.91;-0.02;0.965278;0.250084;0.006138;129.3;0.0;0.0;9.3;0.0;0.0
4.0;1753880847.25659;15.468131;0.64;-1.03;0.05;0.965481;0.249321;0.007859;122.2;0.0;0.0;9.4;0.0;0.0
4.0;1753880847.261202;15.473034;0.61;-1.0;0.06;0.964433;0.250411;0.00853;125.5;0.0;0.0;9.0;0.0;0.0
4.0;1753880847.265816;15.467593;0.56;-1.09;0.08;0.963742;0.249408;0.008372;131.8;0.0;0.0;8.6;0.0;0.0
4.0;1753880847.270428;15.474571;0.63;-1.04;0.06;0.966637;0.252122;0.008009;133.1;0.0;0.0;9.0;0.0;0.0
4.0;1753880847.275041;15.477571;0.64;-1.05;0.08;0.964556;0.250408;0.007767;128.3;0.0;0.0;9.8;0.0;0.0
4.0;1753880847.279654;15.463899;0.67;-0.91;0.05;0.965095;0.251704;0.007787;134.9;0.0;0.0;9.2;0.0;0.0
4.0;1753880847.284267;15.472785;0.64;-1.06;0.05;0.965252;0.250085;0.008568;121.7;0.0;0.0;9.2;0.0;0.0
4.0;1753880847.28888;15.468971;0.62;-1.1;0.01;0.964833;0.25113;0.007424;132.9;0.0;0.0;9.1;0.0;0.0
4.0;1753880847.2959;15.476562;0.63;-1.05;0.07;0.965264;0.2501;0.007808;131.0;0.0;0.0;9.0;0.0;0.0
4.0;1753880847.300513;15.479039;0.57;-1.06;0.1;0.965667;0.250149;0.007625;127.2;0.0;0.0;9.4;0.0;0.0
4.0;1753880847.305126;15.483503;0.63;-1.05;0.07;0.965139;0.249471;0.00829;135.4;0.0;0.0;9.1;0.0;0.0
4.0;1753880847.309739;15.479337;0.56;-1.04;0.06;0.965989;0.25002;0.008264;128.5;0.0;0.0;8.7;0.0;0.0
4.0;1753880847.314352;15.477567;0.66;-1.17;0.05;0.964934;0.248859;0.00793;138.9;0.0;0.0;9.4;0.0;0.0
4.0;1753880847.318965;15.484197;0.66;-1.02;-0.01;0.965404;0.250309;0.006983;127.5;0.0;0.0;10.2;0.0;0.0
4.0;1753880847.323578;15.474615;0.64;-1.07;0.12;0.964679;0.250077;0.006995;120.9;0.0;0.0;9.9;0.0;0.0
4.0;1753880847.32819;15.461213;0.71;-1.02;0.11;0.965787;0.250273;0.008127;130.2;0.0;0.0;9.2;0.0;0.0
4.0;1753880847.332804;15.482644;0.65;-1.02;0.04;0.965373;0.251531;0.008042;115.5;0.0;0.0;10.0;0.0;0.0
4.0;1753880847.337416;15.488556;0.54;-0.98;0.04;0.964355;0.25152;0.008427;130.0;0.0;0.0;9.4;0.0;0.0
4.0;1753880847.342029;15.480486;0.59;-1.06;0.08;0.96679;0.251177;0.008121;134.0;0.0;0.0;8.2;0.0;0.0
4.0;1753880847.346642;15.481706;0.66;-1.09;0.1;0.964592;0.250137;0.006852;141.8;0.0;0.0;10.1;0.0;0.0
4.0;1753880847.351255;15.455883;0.64;-1.12;0.05;0.964736;0.249919;0.008246;144.4;0.0;0.0;9.0;0.0;0.0
4.0;1753880847.355868;15.475435;0.68;-1.16;0.03;0.964959;0.251099;0.008221;134.1;0.0;0.0;8.4;0.0;0.0
4.0;1753880847.360481;15.470427;0.54;-1.04;0.07;0.964932;0.248506;0.006797;116.3;0.0;0.0;8.2;0.0;0.0
4.0;1753880847.365094;15.47765;0.63;-1.14;0.07;0.966106;0.25001;0.005846;138.3;0.0;0.0;8.4;0.0;0.0
4.0;1753880847.369707;15.476652;0.59;-1.11;0.1;0.965973;0.249729;0.007214;117.4;0.0;0.0;8.4;0.0;0.0
4.0;1753880847.37432;15.487266;0.47;-1.05;0.14;0.965111;0.250642;0.006632;126.6;0.0;0.0;9.6;0.0;0.0
4.0;1753880847.378933;15.483039;0.57;-1.12;0.08;0.965846;0.249896;0.007822;132.8;0.0;0.0;9.7;0.0;0.0
4.0;1753880847.383546;15.480024;0.62;-1.04;0.01;0.965332;0.246717;0.007718;128.9;0.0;0.0;8.9;0.0;0.0
4.0;1753880847.388158;15.479288;0.65;-1.02;0.05;0.965219;0.250211;0.008187;131.7;0.0;0.0;8.0;0.0;0.0
4.0;1753880847.392772;15.472674;0.53;-1.08;0.09;0.965871;0.247899;0.008041;138.2;0.0;0.0;9.1;0.0;0.0
4.0;1753880847.397384;15.470629;0.58;-1.09;0.17;0.965286;0.24969;0.007316;125.0;0.0;0.0;9.6;0.0;0.0
4.0;1753880847.401997;15.476702;0.62;-1.11;0.03;0.964974;0.247732;0.008477;140.6;0.0;0.0;9.4;0.0;0.0
4.0;1753880847.40661;15.490321;0.63;-1.04;0.08;0.965875;0.249811;0.007038;132.0;0.0;0.0;7.8;0.0;0.0
4.0;1753880847.411223;15.477559;0.59;-1.05;0.11;0.964206;0.249607;0.007767;135.2;0.0;0.0;9.3;0.0;0.0
4.0;1753880847.415836;15.477364;0.66;-1.11;0.13;0.964813;0.249834;0.006214;133.4;0.0;0.0;9.8;0.0;0.0
4.0;1753880847.420449;15.479466;0.68;-1.1;0.05;0.964642;0.2503;0.008261;140.8;0.0;0.0;9.2;0.0;0.0
4.0;1753880847.425062;15.479471;0.56;-1.04;0.03;0.965535;0.251939;0.007142;136.2;0.0;0.0;9.2;0.0;0.0
4.0;1753880847.429675;15.480092;0.67;-1.04;0.06;0.9658;0.251806;0.007309;131.2;0.0;0.0;8.8;0.0;0.0
4.0;1753880847.434288;15.494883;0.68;-1.11;0.12;0.965644;0.25076;0.005096;133.9;0.0;0.0;8.5;0.0;0.0
4.0;1753880847.438901;15.485493;0.56;-0.99;0.06;0.965046;0.251667;0.007651;126.2;0.0;0.0;9.0;0.0;0.0
4.0;1753880847.443514;15.483804;0.62;-1.08;0.06;0.965204;0.248406;0.007385;128.5;0.0;0.0;9.1;0.0;0.0
4.0;1753880847.448126;15.461284;0.61;-1.0;0.04;0.965181;0.250037;0.007864;122.4;0.0;0.0;9.2;0.0;0.0
4.0;1753880847.45274;15.478259;0.64;-1.16;0.12;0.965475;0.251204;0.008383;134.0;0.0;0.0;9.0;0.0;0.0
4.0;1753880847.457352;15.483866;0.63;-1.03;0.04;0.964647;0.25056;0.007276;130.7;0.0;0.0;8.9;0.0;0.0
4.0;1753880847.461965;15.480928;0.68;-1.02;0.2;0.966107;0.250723;0.006325;125.4;0.0;0.0;9.3;0.0;0.0
4.0;1753880847.466578;15.479335;0.5;-0.98;0.06;0.964825;0.250705;0.007739;129.0;0.0;0.0;9.3;0.0;0.0
4.0;1753880847.471191;15.476092;0.74;-1.17;0.06;0.965154;0.251157;0.007563;137.8;0.0;0.0;9.6;0.0;0.0
4.0;1753880847.475804;15.46621;0.66;-1.07;0.09;0.966373;0.249166;0.008029;127.4;0.0;0.0;8.7;0.0;0.0
4.0;1753880847.480417;15.47159;0.63;-1.16;0.06;0.96566;0.24947;0.008262;125.5;0.0;0.0;9.6;0.0;0.0
4.0;1753880847.48503;15.47682;0.62;-1.1;0.0;0.965217;0.249227;0.0072;128.7;0.0;0.0;9.0;0.0;0.0
4.0;1753880847.489643;15.475164;0.62;-1.04;0.14;0.965794;0.249074;0.006176;130.4;0.0;0.0;8.8;0.0;0.0
4.0;1753880847.494256;15.46989;0.57;-1.13;0.05;0.965483;0.249276;0.007762;127.0;0.0;0.0;9.2;0.0;0.0
4.0;1753880847.498869;15.476627;0.62;-1.07;0.02;0.965609;0.250487;0.008268;122.5;0.0;0.0;9.3;0.0;0.0
4.0;1753880847.503482;15.473334;0.72;-1.02;0.06;0.966076;0.251362;0.008246;127.8;0.0;0.0;8.5;0.0;0.0
4.0;1753880847.508094;15.465625;0.68;-1.02;0.13;0.96628;0.251208;0.007082;129.0;0.0;0.0;9.0;0.0;0.0
4.0;1753880847.512708;15.470903;0.67;-1.12;0.12;0.965886;0.250168;0.006918;127.4;0.0;0.0;9.0;0.0;0.0
4.0;1753880847.51732;15.474769;0.68;-0.95;0.07;0.965699;0.248285;0.007343;112.7;0.0;0.0;8.6;0.0;0.0
4.0;1753880847.521933;15.493149;0.54;-1.04;0.12;0.96548;0.250476;0.00665;127.1;0.0;0.0;9.6;0.0;0.0
4.0;1753880847.526546;15.465946;0.57;-1.08;0.03;0.965455;0.249722;0.007583;138.1;0.0;0.0;9.7;0.0;0.0
4.0;1753880847.531159;15.470196;0.63;-1.04;0.05;0.965403;0.250306;0.007533;128.6;0.0;0.0;8.8;0.0;0.0
4.0;1753880847.535772;15.470465;0.5;-1.11;0.03;0.965154;0.249866;0.008059;135.2;0.0;0.0;8.5;0.0;0.0
4.0;1753880847.540385;15.491136;0.54;-1.14;0.07;0.965325;0.250112;0.008968;134.8;0.0;0.0;8.2;0.0;0.0
4.0;1753880847.544998;15.476181;0.66;-1.11;0.09;0.966196;0.251114;0.007662;114.4;0.0;0.0;8.4;0.0;0.0
4.0;1753880847.549611;15.476793;0.61;-1.1;0.09;0.965935;0.248829;0.007789;119.6;0.0;0.0;8.7;0.0;0.0
4.0;1753880847.554224;15.479386;0.56;-1.1;0.06;0.965095;0.250601;0.006681;131.9;0.0;0.0;9.4;0.0;0.0
4.0;1753880847.558837;15.485243;0.52;-1.1;0.12;0.966571;0.251405;0.007019;123.7;0.0;0.0;9.6;0.0;0.0
4.0;1753880847.56345;15.47449;0.58;-1.08;0.05;0.965862;0.24931;0.007777;131.6;0.0;0.0;9.0;0.0;0.0
4.0;1753880847.568062;15.465561;0.58;-1.03;0.01;0.965544;0.249949;0.007232;130.4;0.0;0.0;9.4;0.0;0.0
4.0;1753880847.572676;15.477143;0.63;-1.03;0.12;0.965256;0.250291;0.007036;138.5;0.0;0.0;9.2;0.0;0.0
4.0;1753880847.577288;15.470915;0.67;-1.01;0.08;0.965849;0.250066;0.007717;127.9;0.0;0.0;8.6;0.0;0.0
4.0;1753880847.581901;15.478016;0.62;-1.06;0.11;0.965385;0.249445;0.007833;142.9;0.0;0.0;8.9;0.0;0.0
4.0;1753880847.586514;15.461;0.6;-1.18;0.11;0.965342;0.248918;0.007502;129.3;0.0;0.0;8.7;0.0;0.0
4.0;1753880847.591127;15.468095;0.63;-1.17;0.07;0.965382;0.249844;0.006797;129.0;0.0;0.0;8.5;0.0;0.0
4.0;1753880847.59574;15.464202;0.64;-1.15;0.09;0.966396;0.249608;0.00615;136.4;0.0;0.0;9.2;0.0;0.0
4.0;1753880847.600353;15.475895;0.53;-1.09;0.12;0.964649;0.250409;0.006599;138.4;0.0;0.0;8.4;0.0;0.0
4.0;1753880847.604966;15.491455;0.57;-1.09;0.03;0.96766;0.249564;0.007152;127.1;0.0;0.0;9.1;0.0;0.0
4.0;1753880847.609579;15.474573;0.54;-1.18;0.07;0.966412;0.248384;0.007367;119.1;0.0;0.0;9.2;0.0;0.0
4.0;1753880847.614192;15.477228;0.62;-1.15;0.15;0.965655;0.248866;0.00681;140.7;0.0;0.0;8.0;0.0;0.0
4.0;1753880847.618805;15.477404;0.55;-1.14;0.11;0.965748;0.251302;0.007705;133.9;0.0;0.0;8.9;0.0;0.0
4.0;1753880847.623418;15.478671;0.52;-1.05;0.08;0.966468;0.249766;0.007398;131.0;0.0;0.0;9.1;0.0;0.0
4.0;1753880847.62803;15.468866;0.58;-1.04;0.06;0.966915;0.249553;0.007449;139.0;0.0;0.0;8.9;0.0;0.0
4.0;1753880847.632644;15.465395;0.5;-1.16;0.13;0.965034;0.249281;0.009374;117.1;0.0;0.0;9.0;0.0;0.0
4.0;1753880847.637256;15.471283;0.57;-1.1;0.1;0.964671;0.25145;0.007009;130.7;0.0;0.0;8.3;0.0;0.0
4.0;1753880847.641869;15.471008;0.63;-1.15;0.02;0.965552;0.249596;0.006982;135.4;0.0;0.0;9.0;0.0;0.0
4.0;1753880847.646482;15.47544;0.54;-1.09;0.09;0.965251;0.251948;0.005831;135.2;0.0;0.0;8.0;0.0;0.0
4.0;1753880847.651095;15.479366;0.58;-1.07;0.07;0.965422;0.250057;0.007414;123.0;0.0;0.0;9.0;0.0;0.0
4.0;1753880847.655708;15.473423;0.7;-1.07;0.08;0.965288;0.25158;0.007553;125.3;0.0;0.0;9.4;0.0;0.0
4.0;1753880847.660321;15.476287;0.59;-1.17;0.1;0.966186;0.248534;0.008325;127.7;0.0;0.0;9.6;0.0;0.0
4.0;1753880847.664934;15.467963;0.58;-1.16;0.08;0.965587;0.250357;0.007135;137.2;0.0;0.0;8.8;0.0;0.0
4.0;1753880847.669547;15.478402;0.55;-0.97;0.09;0.965558;0.250089;0.00666;137.1;0.0;0.0;8.4;0.0;0.0
4.0;1753880847.67416;15.480206;0.53;-1.1;0.16;0.965736;0.250642;0.006131;128.6;0.0;0.0;8.3;0.0;0.0
4.0;1753880847.678773;15.494657;0.58;-1.05;0.08;0.966594;0.248827;0.007214;133.5;0.0;0.0;9.3;0.0;0.0
4.0;1753880847.683386;15.483958;0.62;-1.12;0.08;0.965537;0.250462;0.008063;134.9;0.0;0.0;8.6;0.0;0.0
4.0;1753880847.687998;15.480018;0.56;-1.06;0.04;0.965612;0.250344;0.005771;123.6;0.0;0.0;9.7;0.0;0.0
4.0;1753880847.692612;15.47132;0.5;-1.04;0.07;0.966147;0.250758;0.006437;129.7;0.0;0.0;8.8;0.0;0.0
4.0;1753880847.697224;15.472549;0.49;-1.12;-0.01;0.966086;0.251033;0.005666;131.0;0.0;0.0;9.6;0.0;0.0
4.0;1753880847.701837;15.476003;0.56;-1.07;0.01;0.96563;0.25049;0.00619;121.8;0.0;0.0;8.0;0.0;0.0
4.0;1753880847.70645;15.478451;0.54;-1.06;0.05;0.966844;0.247938;0.006971;124.9;0.0;0.0;9.7;0.0;0.0
4.0;1753880847.711063;15.472123;0.6;-1.03;0.13;0.965343;0.252934;0.007834;122.5;0.0;0.0;8.9;0.0;0.0
4.0;1753880847.715676;15.480566;0.48;-1.15;0.1;0.966843;0.250178;0.006293;133.9;0.0;0.0;8.0;0.0;0.0
4.0;1753880847.720289;15.479202;0.6;-0.99;0.06;0.966636;0.252008;0.006978;136.2;0.0;0.0;8.1;0.0;0.0
4.0;1753880847.724902;15.467468;0.58;-1.0;0.06;0.965702;0.252333;0.007113;128.9;0.0;0.0;8.7;0.0;0.0
4.0;1753880847.729515;15.467833;0.43;-1.05;0.08;0.966458;0.250239;0.007894;130.6;0.0;0.0;9.3;0.0;0.0
4.0;1753880847.734128;15.466871;0.59;-1.03;0.03;0.965689;0.25097;0.00728;122.6;0.0;0.0;10.2;0.0;0.0
4.0;1753880847.738741;15.488733;0.63;-1.11;0.07;0.96647;0.249667;0.006875;123.3;0.0;0.0;8.8;0.0;0.0
4.0;1753880847.743354;15.484973;0.62;-1.16;0.03;0.96454;0.249166;0.007481;131.0;0.0;0.0;8.2;0.0;0.0
4.0;1753880847.747966;15.476723;0.57;-1.19;0.05;0.966146;0.251016;0.007423;132.1;0.0;0.0;9.3;0.0;0.0
4.0;1753880847.75258;15.469052;0.53;-1.13;0.12;0.965657;0.251117;0.005849;130.0;0.0;0.0;8.5;0.0;0.0
4.0;1753880847.757192;15.468659;0.61;-1.04;0.07;0.965207;0.248563;0.007074;132.1;0.0;0.0;9.0;0.0;0.0
4.0;1753880847.761805;15.482254;0.51;-1.04;-0.0;0.965987;0.250358;0.008716;133.4;0.0;0.0;8.9;0.0;0.0
4.0;1753880847.766418;15.476862;0.53;-1.09;-0.03;0.965579;0.249858;0.00626;125.0;0.0;0.0;8.8;0.0;0.0
4.0;1753880847.771031;15.464325;0.74;-1.06;0.03;0.966307;0.250729;0.008;136.2;0.0;0.0;8.7;0.0;0.0
4.0;1753880847.775644;15.478507;0.62;-1.22;0.07;0.966271;0.249707;0.00673;125.1;0.0;0.0;8.9;0.0;0.0
4.0;1753880847.780257;15.473569;0.53;-1.08;0.07;0.965456;0.251593;0.006415;140.2;0.0;0.0;10.3;0.0;0.0
4.0;1753880847.78487;15.477777;0.68;-1.04;0.09;0.965711;0.251342;0.007336;129.6;0.0;0.0;8.8;0.0;0.0
4.0;1753880847.789483;15.468036;0.59;-1.18;0.12;0.966185;0.249428;0.00589;131.1;0.0;0.0;9.5;0.0;0.0
4.0;1753880847.794096;15.487826;0.65;-1.14;0.03;0.965196;0.249982;0.007566;133.7;0.0;0.0;9.2;0.0;0.0
4.0;1753880847.798709;15.476259;0.57;-1.06;0.08;0.965631;0.251185;0.005754;133.8;0.0;0.0;9.3;0.0;0.0
4.0;1753880847.803322;15.491063;0.59;-1.16;0.06;0.965285;0.249324;0.007373;139.3;0.0;0.0;9.1;0.0;0.0
4.0;1753880847.807934;15.479068;0.7;-1.18;0.05;0.965137;0.251685;0.006302;134.5;0.0;0.0;9.6;0.0;0.0
4.0;1753880847.812548;15.469125;0.48;-1.11;0.09;0.965953;0.250652;0.006932;124.7;0.0;0.0;8.9;0.0;0.0
4.0;1753880847.81716;15.480266;0.53;-1.11;-0.04;0.965819;0.248197;0.006526;113.5;0.0;0.0;9.3;0.0;0.0
4.0;1753880847.821773;15.482133;0.43;-1.09;0.06;0.965074;0.250162;0.007269;132.5;0.0;0.0;9.4;0.0;0.0
4.0;1753880847.826386;15.479383;0.54;-1.01;0.15;0.966337;0.248928;0.006082;130.7;0.0;0.0;9.2;0.0;0.0
4.0;1753880847.830999;15.466706;0.54;-1.15;0.05;0.966278;0.248366;0.00581;129.7;0.0;0.0;8.7;0.0;0.0
4.0;1753880847.835612;15.483602;0.66;-1.12;0.1;0.964896;0.249223;0.007072;122.5;0.0;0.0;8.6;0.0;0.0
4.0;1753880847.840225;15.47582;0.63;-1.18;0.11;0.965131;0.249942;0.008316;141.3;0.0;0.0;8.3;0.0;0.0
4.0;1753880847.844838;15.474935;0.48;-1.15;0.06;0.965513;0.250167;0.006357;135.1;0.0;0.0;8.9;0.0;0.0
4.0;1753880847.849451;15.482618;0.53;-1.08;0.11;0.966139;0.250399;0.005573;135.9;0.0;0.0;8.9;0.0;0.0
4.0;1753880847.854064;15.473696;0.54;-1.14;0.04;0.965942;0.251626;0.006531;134.5;0.0;0.0;8.2;0.0;0.0
4.0;1753880847.858677;15.476286;0.58;-1.2;0.06;0.96557;0.250259;0.008247;118.1;0.0;0.0;9.3;0.0;0.0
4.0;1753880847.86329;15.479653;0.56;-1.06;0.14;0.966304;0.250956;0.007254;138.7;0.0;0.0;9.5;0.0;0.0
4.0;1753880847.867902;15.477758;0.61;-1.22;0.08;0.96519;0.250669;0.00703;123.9;0.0;0.0;8.7;0.0;0.0
4.0;1753880847.872516;15.480778;0.59;-1.12;0.1;0.965331;0.250761;0.007267;121.0;0.0;0.0;10.1;0.0;0.0
4.0;1753880847.877128;15.477146;0.51;-1.21;0.06;0.967346;0.250216;0.005872;128.6;0.0;0.0;8.6;0.0;0.0
4.0;1753880847.8843;15.476562;0.56;-1.12;0.07;0.965996;0.250222;0.006588;131.0;0.0;0.0;9.0;0.0;0.0
4.0;1753880847.888913;15.479894;0.72;-1.02;0.06;0.966565;0.250115;0.006746;129.1;0.0;0.0;9.6;0.0;0.0
4.0;1753880847.893526;15.47211;0.63;-1.11;0.07;0.965183;0.24893;0.007374;123.2;0.0;0.0;10.0;0.0;0.0
4.0;1753880847.898139;15.484707;0.61;-1.17;0.17;0.964841;0.249272;0.006995;121.5;0.0;0.0;7.4;0.0;0.0
4.0;1753880847.902752;15.475808;0.59;-1.21;0.08;0.964859;0.249596;0.006155;126.1;0.0;0.0;10.6;0.0;0.0
4.0;1753880847.90754;15.492188;0.63;-1.12;0.14;0.965264;0.248392;0.006344;121.0;0.0;0.0;10.0;0.0;0.0
4.0;1753880847.912153;15.502306;0.57;-1.1;0.15;0.964941;0.248825;0.005985;117.5;0.0;0.0;9.2;0.0;0.0
4.0;1753880847.916766;15.494797;0.55;-1.09;0.13;0.965339;0.249671;0.006208;119.5;0.0;0.0;6.5;0.0;0.0
4.0;1753880847.921379;15.496826;0.61;-1.15;0.11;0.964826;0.251863;0.006433;125.1;0.0;0.0;12.9;0.0;0.0
4.0;1753880847.925992;15.481253;0.61;-1.11;0.12;0.965203;0.248631;0.007344;124.4;0.0;0.0;11.1;0.0;0.0
4.0;1753880847.930605;15.463582;0.73;-1.08;0.15;0.963804;0.249673;0.006449;121.4;0.0;0.0;9.0;0.0;0.0
4.0;1753880847.93807;15.492188;0.63;-1.12;0.07;0.964898;0.250588;0.006832;121.0;0.0;0.0;10.0;0.0;0.0
4.0;1753880847.942683;15.486177;0.64;-1.07;0.12;0.964749;0.250904;0.006402;123.7;0.0;0.0;9.8;0.0;0.0
4.0;1753880847.947296;15.491283;0.68;-1.07;0.07;0.965013;0.251253;0.007185;122.1;0.0;0.0;8.4;0.0;0.0
4.0;1753880847.951909;15.501559;0.59;-1.03;0.09;0.965272;0.247752;0.007593;122.0;0.0;0.0;11.0;0.0;0.0
4.0;1753880847.956522;15.500792;0.63;-1.1;0.1;0.963519;0.24831;0.006437;119.8;0.0;0.0;11.4;0.0;0.0
4.0;1753880847.961135;15.488701;0.65;-1.13;0.1;0.964614;0.24925;0.006831;116.9;0.0;0.0;11.3;0.0;0.0
4.0;1753880847.965748;15.49375;0.62;-1.18;0.14;0.9652;0.249123;0.006813;121.6;0.0;0.0;10.5;0.0;0.0
4.0;1753880847.97036;15.490309;0.62;-1.06;0.08;0.964343;0.249119;0.006447;122.6;0.0;0.0;8.6;0.0;0.0
4.0;1753880847.974974;15.488198;0.61;-1.16;0.04;0.964513;0.248242;0.007184;117.1;0.0;0.0;10.2;0.0;0.0
4.0;1753880847.98344;15.492188;0.63;-1.12;0.07;0.96441;0.249002;0.006832;121.0;0.0;0.0;10.0;0.0;0.0
4.0;1753880847.986588;15.484375;0.7;-1.19;0.0;0.96624;0.2501;0.00732;128.0;0.0;0.0;11.0;0.0;0.0
4.0;1753880847.991174;15.484375;0.63;-1.12;0.07;0.966728;0.24949;0.006588;128.0;0.0;0.0;11.0;0.0;0.0
4.0;1753880847.999649;15.476562;0.56;-1.19;0.07;0.966118;0.248392;0.009028;122.0;0.0;0.0;10.0;0.0;0.0
4.0;1753880848.004262;15.483855;0.57;-1.07;0.06;0.966353;0.24741;0.00923;125.6;0.0;0.0;8.6;0.0;0.0
4.0;1753880848.008875;15.459338;0.55;-1.18;0.11;0.965199;0.250067;0.010233;122.2;0.0;0.0;9.5;0.0;0.0
4.0;1753880848.013488;15.497123;0.52;-1.19;0.08;0.965946;0.247855;0.008126;124.2;0.0;0.0;12.4;0.0;0.0
4.0;1753880848.018101;15.465381;0.58;-1.15;0.08;0.965612;0.248563;0.008922;118.1;0.0;0.0;9.6;0.0;0.0
4.0;1753880848.022714;15.489269;0.58;-1.24;0.07;0.965126;0.249641;0.008952;121.4;0.0;0.0;9.6;0.0;0.0
4.0;1753880848.027326;15.479971;0.53;-1.19;0.02;0.968393;0.248883;0.008379;121.9;0.0;0.0;8.6;0.0;0.0
4.0;1753880848.03194;15.47879;0.51;-1.12;0.05;0.965857;0.249466;0.008474;121.1;0.0;0.0;10.5;0.0;0.0
4.0;1753880848.036552;15.473066;0.53;-1.22;0.04;0.966019;0.249119;0.008715;123.7;0.0;0.0;10.9;0.0;0.0
4.0;1753880848.041165;15.482211;0.53;-1.18;0.11;0.966701;0.247456;0.010591;121.3;0.0;0.0;8.7;0.0;0.0
4.0;1753880848.045778;15.461183;0.53;-1.25;0.05;0.965532;0.248405;0.008317;120.6;0.0;0.0;9.4;0.0;0.0
4.0;1753880848.050391;15.49314;0.66;-1.25;-0.01;0.96535;0.24925;0.007499;123.9;0.0;0.0;12.2;0.0;0.0
4.0;1753880848.055004;15.501452;0.62;-1.15;0.09;0.966471;0.249479;0.008522;122.1;0.0;0.0;12.5;0.0;0.0
4.0;1753880848.059617;15.472654;0.56;-1.25;0.09;0.967064;0.249033;0.008454;125.0;0.0;0.0;12.0;0.0;0.0
4.0;1753880848.06423;15.472981;0.56;-1.21;0.08;0.967699;0.248896;0.008237;119.6;0.0;0.0;10.1;0.0;0.0
4.0;1753880848.068843;15.474051;0.56;-1.24;0.07;0.966677;0.24987;0.008324;121.1;0.0;0.0;11.2;0.0;0.0
4.0;1753880848.073456;15.47935;0.53;-1.09;0.03;0.965586;0.249206;0.008736;120.2;0.0;0.0;10.4;0.0;0.0
4.0;1753880848.078069;15.49248;0.59;-1.22;0.06;0.966026;0.249894;0.008986;120.6;0.0;0.0;7.6;0.0;0.0
4.0;1753880848.082682;15.470094;0.56;-1.15;0.06;0.965332;0.248711;0.008295;123.6;0.0;0.0;11.3;0.0;0.0
4.0;1753880848.087294;15.468015;0.63;-1.21;0.05;0.965769;0.248771;0.007929;121.9;0.0;0.0;9.3;0.0;0.0
4.0;1753880848.091908;15.478451;0.54;-1.22;0.1;0.966802;0.248571;0.008952;121.3;0.0;0.0;8.3;0.0;0.0
4.0;1753880848.09652;15.474014;0.51;-1.18;0.07;0.965146;0.249167;0.007775;121.3;0.0;0.0;7.9;0.0;0.0
4.0;1753880848.101133;15.493841;0.64;-1.26;0.07;0.968029;0.249713;0.009088;116.2;0.0;0.0;8.9;0.0;0.0
4.0;1753880848.105746;15.465801;0.52;-1.16;0.06;0.965527;0.24932;0.007058;121.5;0.0;0.0;7.0;0.0;0.0
4.0;1753880848.110359;15.488221;0.61;-1.24;0.04;0.968019;0.249977;0.008902;118.2;0.0;0.0;9.6;0.0;0.0
4.0;1753880848.114972;15.46122;0.61;-1.02;0.03;0.965486;0.249151;0.007221;123.7;0.0;0.0;10.0;0.0;0.0
4.0;1753880848.119585;15.471738;0.49;-1.11;0.05;0.965105;0.248882;0.008919;120.1;0.0;0.0;8.0;0.0;0.0
4.0;1753880848.124198;15.486875;0.65;-1.16;0.08;0.96392;0.249479;0.01047;123.3;0.0;0.0;8.0;0.0;0.0
4.0;1753880848.128811;15.472255;0.53;-1.13;0.03;0.965467;0.249156;0.008114;124.7;0.0;0.0;8.6;0.0;0.0
4.0;1753880848.133424;15.479551;0.61;-1.18;0.11;0.966197;0.249849;0.008064;121.7;0.0;0.0;6.3;0.0;0.0
4.0;1753880848.138037;15.473233;0.52;-1.09;0.01;0.966171;0.247957;0.007794;123.5;0.0;0.0;9.2;0.0;0.0
4.0;1753880848.14265;15.47924;0.53;-1.18;0.06;0.966655;0.247103;0.008917;122.0;0.0;0.0;10.9;0.0;0.0
4.0;1753880848.147262;15.486139;0.56;-1.12;0.04;0.9658;0.250659;0.008471;122.3;0.0;0.0;6.4;0.0;0.0
4.0;1753880848.151876;15.460727;0.62;-1.15;0.05;0.965767;0.249137;0.007736;125.9;0.0;0.0;7.6;0.0;0.0
4.0;1753880848.156488;15.472713;0.56;-1.15;0.1;0.966974;0.250215;0.008859;123.2;0.0;0.0;10.7;0.0;0.0
4.0;1753880848.161101;15.488282;0.58;-1.24;0.03;0.965394;0.249493;0.008244;119.1;0.0;0.0;12.8;0.0;0.0
4.0;1753880848.165714;15.471107;0.62;-1.2;0.03;0.965084;0.251309;0.008822;118.1;0.0;0.0;8.6;0.0;0.0
4.0;1753880848.170327;15.474713;0.58;-1.22;0.09;0.965664;0.249567;0.007735;120.4;0.0;0.0;11.7;0.0;0.0
4.0;1753880848.17494;15.455745;0.61;-1.26;0.02;0.965923;0.25037;0.007384;122.4;0.0;0.0;9.8;0.0;0.0
4.0;1753880848.179553;15.477213;0.58;-1.17;0.06;0.965975;0.249116;0.005504;119.6;0.0;0.0;13.6;0.0;0.0
4.0;1753880848.184166;15.448551;0.61;-1.18;0.05;0.965719;0.250139;0.008016;124.3;0.0;0.0;9.0;0.0;0.0
4.0;1753880848.188779;15.477885;0.63;-1.15;0.09;0.966285;0.249581;0.006944;118.8;0.0;0.0;9.4;0.0;0.0
4.0;1753880848.193392;15.458638;0.6;-1.19;0.07;0.965707;0.249924;0.008101;122.9;0.0;0.0;9.9;0.0;0.0
4.0;1753880848.198005;15.483579;0.56;-1.22;0.09;0.965366;0.249433;0.008674;118.4;0.0;0.0;10.6;0.0;0.0
4.0;1753880848.202618;15.486968;0.59;-1.21;0.01;0.965587;0.250765;0.008499;124.9;0.0;0.0;11.1;0.0;0.0
4.0;1753880848.20723;15.46916;0.66;-1.12;0.05;0.967095;0.250881;0.007186;122.4;0.0;0.0;11.4;0.0;0.0
4.0;1753880848.211844;15.460448;0.64;-1.24;0.05;0.967345;0.248598;0.009417;123.3;0.0;0.0;10.4;0.0;0.0
4.0;1753880848.216456;15.476211;0.66;-1.21;0.06;0.966514;0.250135;0.006973;123.3;0.0;0.0;10.2;0.0;0.0
4.0;1753880848.221069;15.463143;0.55;-1.29;0.03;0.964338;0.250222;0.007549;119.9;0.0;0.0;11.7;0.0;0.0
4.0;1753880848.225682;15.452908;0.63;-1.26;-0.02;0.967147;0.25017;0.007435;122.1;0.0;0.0;9.1;0.0;0.0
4.0;1753880848.230295;15.463807;0.57;-1.34;-0.02;0.965874;0.250299;0.008483;124.3;0.0;0.0;12.2;0.0;0.0
4.0;1753880848.234908;15.482678;0.62;-1.25;0.05;0.965662;0.250254;0.009417;123.1;0.0;0.0;8.4;0.0;0.0
4.0;1753880848.239521;15.487809;0.68;-1.26;0.03;0.967609;0.250313;0.009612;121.5;0.0;0.0;12.8;0.0;0.0
4.0;1753880848.244134;15.462581;0.54;-1.18;-0.0;0.966417;0.249553;0.006965;121.1;0.0;0.0;8.7;0.0;0.0
4.0;1753880848.248747;15.496341;0.57;-1.18;0.05;0.965711;0.250522;0.007061;123.6;0.0;0.0;10.6;0.0;0.0
4.0;1753880848.25336;15.464847;0.6;-1.29;0.04;0.966339;0.250187;0.007285;124.2;0.0;0.0;9.2;0.0;0.0
4.0;1753880848.257973;15.480307;0.64;-1.25;0.08;0.966076;0.250594;0.008372;123.2;0.0;0.0;13.2;0.0;0.0
4.0;1753880848.262586;15.477137;0.6;-1.1;0.09;0.966547;0.251379;0.00832;122.5;0.0;0.0;13.2;0.0;0.0
4.0;1753880848.267198;15.469111;0.66;-1.21;0.03;0.966785;0.25034;0.006228;123.7;0.0;0.0;11.0;0.0;0.0
4.0;1753880848.271812;15.460149;0.59;-1.19;0.06;0.965015;0.249875;0.006167;123.6;0.0;0.0;11.9;0.0;0.0
4.0;1753880848.276424;15.482504;0.61;-1.3;-0.03;0.966636;0.251576;0.008289;122.0;0.0;0.0;11.0;0.0;0.0
4.0;1753880848.281037;15.471953;0.67;-1.23;0.01;0.96577;0.250055;0.007566;123.6;0.0;0.0;8.2;0.0;0.0
4.0;1753880848.28565;15.478198;0.66;-1.12;-0.04;0.966369;0.251315;0.006422;119.0;0.0;0.0;11.6;0.0;0.0
4.0;1753880848.290263;15.488835;0.64;-1.21;-0.02;0.967907;0.250408;0.008823;122.3;0.0;0.0;9.2;0.0;0.0
4.0;1753880848.294876;15.468678;0.63;-1.12;0.02;0.966343;0.249863;0.007195;120.4;0.0;0.0;8.7;0.0;0.0
4.0;1753880848.299489;15.492303;0.59;-1.19;-0.0;0.9658;0.248981;0.008579;119.8;0.0;0.0;11.3;0.0;0.0
4.0;1753880848.304102;15.480885;0.65;-1.28;-0.01;0.965152;0.251655;0.008421;123.8;0.0;0.0;6.9;0.0;0.0
4.0;1753880848.308715;15.489995;0.69;-1.07;0.03;0.965571;0.250198;0.008455;122.8;0.0;0.0;7.8;0.0;0.0
4.0;1753880848.313328;15.473282;0.57;-1.17;-0.03;0.965917;0.251788;0.006903;124.8;0.0;0.0;10.4;0.0;0.0
4.0;1753880848.317941;15.46762;0.63;-1.15;0.01;0.967874;0.2506;0.006883;119.7;0.0;0.0;12.3;0.0;0.0
4.0;1753880848.322554;15.468976;0.62;-1.2;-0.03;0.965835;0.251116;0.007283;122.5;0.0;0.0;9.6;0.0;0.0
4.0;1753880848.327166;15.474478;0.68;-1.21;0.04;0.965241;0.249814;0.006668;123.5;0.0;0.0;10.9;0.0;0.0
4.0;1753880848.33178;15.502233;0.64;-1.19;-0.02;0.965272;0.249838;0.006412;123.9;0.0;0.0;8.4;0.0;0.0
4.0;1753880848.336392;15.477091;0.62;-1.12;-0.01;0.964124;0.249791;0.00691;120.8;0.0;0.0;7.3;0.0;0.0
4.0;1753880848.341005;15.481272;0.65;-1.11;-0.02;0.965339;0.250128;0.005775;117.5;0.0;0.0;8.8;0.0;0.0
4.0;1753880848.345618;15.48287;0.65;-1.15;0.03;0.965718;0.2517;0.00582;120.3;0.0;0.0;10.3;0.0;0.0
4.0;1753880848.350231;15.467801;0.62;-1.22;0.02;0.965055;0.2522;0.007685;118.4;0.0;0.0;13.2;0.0;0.0
4.0;1753880848.354844;15.46959;0.59;-1.26;0.05;0.965895;0.249928;0.00623;120.9;0.0;0.0;8.2;0.0;0.0
4.0;1753880848.359457;15.481294;0.58;-1.16;-0.04;0.966149;0.251307;0.008222;118.8;0.0;0.0;10.6;0.0;0.0
4.0;1753880848.36407;15.458752;0.55;-1.21;-0.05;0.966197;0.249823;0.006956;125.1;0.0;0.0;10.3;0.0;0.0
4.0;1753880848.368683;15.467653;0.62;-1.1;0.07;0.966714;0.251258;0.006502;121.6;0.0;0.0;10.1;0.0;0.0
4.0;1753880848.373296;15.469739;0.55;-1.13;0.03;0.967578;0.250215;0.006031;117.8;0.0;0.0;8.2;0.0;0.0
4.0;1753880848.377909;15.481543;0.67;-1.19;-0.02;0.964922;0.249833;0.00794;121.2;0.0;0.0;8.2;0.0;0.0
4.0;1753880848.382522;15.482427;0.67;-1.19;-0.02;0.965822;0.250505;0.006314;121.1;0.0;0.0;12.9;0.0;0.0
4.0;1753880848.387134;15.467906;0.66;-1.17;-0.09;0.966452;0.251022;0.00743;118.9;0.0;0.0;11.2;0.0;0.0
4.0;1753880848.391748;15.470357;0.62;-1.28;-0.02;0.965565;0.252441;0.006365;123.0;0.0;0.0;9.1;0.0;0.0
4.0;1753880848.39636;15.473403;0.66;-1.13;0.06;0.96654;0.250208;0.006675;122.9;0.0;0.0;10.2;0.0;0.0
4.0;1753880848.4034;15.476562;0.63;-1.19;0.0;0.966118;0.251076;0.00671;122.0;0.0;0.0;10.0;0.0;0.0
4.0;1753880848.40397;15.484375;0.63;-1.26;0.07;0.965508;0.2501;0.005246;122.0;0.0;0.0;10.0;0.0;0.0
4.0;1753880848.408583;15.47882;0.65;-1.26;0.08;0.965764;0.248703;0.006201;121.2;0.0;0.0;9.0;0.0;0.0
4.0;1753880848.413196;15.477054;0.62;-1.17;0.1;0.966655;0.249701;0.0059;126.5;0.0;0.0;11.2;0.0;0.0
4.0;1753880848.417809;15.471649;0.68;-1.26;0.09;0.964642;0.249292;0.004779;123.2;0.0;0.0;9.5;0.0;0.0
4.0;1753880848.422422;15.473863;0.66;-1.16;0.05;0.966286;0.249042;0.004392;122.6;0.0;0.0;10.9;0.0;0.0
4.0;1753880848.427034;15.474162;0.58;-1.18;0.05;0.964781;0.249209;0.005572;123.2;0.0;0.0;11.1;0.0;0.0
4.0;1753880848.431648;15.490632;0.65;-1.17;0.02;0.964549;0.250131;0.006771;123.9;0.0;0.0;9.4;0.0;0.0
4.0;1753880848.43626;15.489982;0.7;-1.2;0.02;0.96427;0.249456;0.005075;123.3;0.0;0.0;10.4;0.0;0.0
4.0;1753880848.440874;15.480107;0.49;-1.19;0.08;0.965825;0.249999;0.005015;129.1;0.0;0.0;9.5;0.0;0.0
4.0;1753880848.445486;15.491605;0.53;-1.13;0.02;0.966365;0.249376;0.005923;129.2;0.0;0.0;10.7;0.0;0.0
4.0;1753880848.450099;15.487649;0.53;-1.16;0.03;0.96437;0.249457;0.005463;129.4;0.0;0.0;10.1;0.0;0.0
4.0;1753880848.454712;15.480111;0.62;-1.15;0.04;0.964591;0.250666;0.004856;126.7;0.0;0.0;10.1;0.0;0.0
4.0;1753880848.459325;15.478095;0.51;-1.16;0.07;0.965193;0.250324;0.005641;126.4;0.0;0.0;10.0;0.0;0.0
4.0;1753880848.463938;15.489011;0.53;-1.12;0.13;0.965811;0.250456;0.004901;123.7;0.0;0.0;9.8;0.0;0.0
4.0;1753880848.468551;15.485499;0.61;-1.23;0.07;0.965175;0.249012;0.006036;127.1;0.0;0.0;10.4;0.0;0.0
4.0;1753880848.473164;15.486603;0.44;-1.15;0.11;0.965092;0.248455;0.007305;128.3;0.0;0.0;9.6;0.0;0.0
4.0;1753880848.477777;15.491064;0.5;-1.14;0.04;0.965199;0.249798;0.005904;126.6;0.0;0.0;10.3;0.0;0.0
4.0;1753880848.48239;15.49133;0.63;-1.12;0.01;0.964699;0.248955;0.007588;125.9;0.0;0.0;9.7;0.0;0.0
4.0;1753880848.487002;15.485729;0.45;-1.06;0.02;0.964616;0.249268;0.007713;127.1;0.0;0.0;8.4;0.0;0.0
4.0;1753880848.49385;15.484375;0.56;-1.12;0.07;0.964776;0.2501;0.006222;130.0;0.0;0.0;10.0;0.0;0.0
4.0;1753880848.498463;15.477889;0.5;-1.15;0.04;0.965101;0.249992;0.006013;132.5;0.0;0.0;10.0;0.0;0.0
4.0;1753880848.503076;15.47568;0.41;-1.03;0.06;0.964952;0.250285;0.005695;126.4;0.0;0.0;10.9;0.0;0.0
4.0;1753880848.507689;15.472834;0.48;-1.08;0.14;0.965078;0.249614;0.006371;127.8;0.0;0.0;9.6;0.0;0.0
4.0;1753880848.512302;15.481907;0.5;-1.12;0.05;0.965009;0.251037;0.005514;127.0;0.0;0.0;9.2;0.0;0.0
4.0;1753880848.516914;15.480005;0.55;-1.14;0.09;0.964616;0.250525;0.00602;128.3;0.0;0.0;9.8;0.0;0.0
4.0;1753880848.521528;15.480443;0.58;-1.16;0.09;0.965357;0.250162;0.007264;127.9;0.0;0.0;9.6;0.0;0.0
4.0;1753880848.52614;15.484916;0.58;-1.08;0.05;0.965962;0.249668;0.006262;128.2;0.0;0.0;10.6;0.0;0.0
4.0;1753880848.530753;15.479392;0.45;-1.11;0.09;0.964229;0.249251;0.005768;128.7;0.0;0.0;9.5;0.0;0.0
4.0;1753880848.535366;15.4718;0.61;-1.27;0.06;0.964777;0.249017;0.005956;126.2;0.0;0.0;9.7;0.0;0.0
4.0;1753880848.539979;15.46976;0.6;-1.14;0.07;0.964448;0.250843;0.006948;129.6;0.0;0.0;10.3;0.0;0.0
4.0;1753880848.544592;15.47602;0.55;-1.08;0.07;0.96607;0.248587;0.006479;131.6;0.0;0.0;10.4;0.0;0.0
4.0;1753880848.549205;15.478199;0.61;-1.18;0.09;0.964133;0.248666;0.007603;123.8;0.0;0.0;9.9;0.0;0.0
4.0;1753880848.553818;15.477327;0.56;-1.17;-0.01;0.964433;0.248685;0.004835;130.9;0.0;0.0;9.7;0.0;0.0
4.0;1753880848.558431;15.473855;0.64;-1.18;0.02;0.965595;0.249476;0.006575;130.3;0.0;0.0;10.1;0.0;0.0
4.0;1753880848.563044;15.476518;0.69;-1.09;0.07;0.963738;0.24955;0.006875;128.6;0.0;0.0;10.0;0.0;0.0
4.0;1753880848.567657;15.470486;0.67;-1.26;0.03;0.96696;0.249543;0.006947;131.4;0.0;0.0;10.5;0.0;0.0
4.0;1753880848.57227;15.489758;0.52;-1.13;0.02;0.96466;0.249419;0.005533;127.3;0.0;0.0;9.7;0.0;0.0
4.0;1753880848.576882;15.490801;0.64;-1.23;0.03;0.964322;0.249736;0.005847;129.1;0.0;0.0;9.4;0.0;0.0
4.0;1753880848.581496;15.470803;0.65;-1.17;0.08;0.962619;0.250399;0.006951;133.2;0.0;0.0;9.6;0.0;0.0
4.0;1753880848.586108;15.476166;0.55;-1.2;0.09;0.96414;0.248693;0.007101;129.8;0.0;0.0;11.0;0.0;0.0
4.0;1753880848.590721;15.472825;0.64;-1.21;0.01;0.963411;0.249318;0.006407;131.7;0.0;0.0;9.9;0.0;0.0
4.0;1753880848.595334;15.45862;0.57;-1.06;0.02;0.964316;0.249598;0.006372;129.3;0.0;0.0;9.2;0.0;0.0
4.0;1753880848.599947;15.457933;0.61;-1.17;0.12;0.964039;0.249324;0.00707;132.4;0.0;0.0;10.9;0.0;0.0
4.0;1753880848.60774;15.46875;0.63;-1.19;0.07;0.96441;0.249002;0.006588;130.0;0.0;0.0;10.0;0.0;0.0
4.0;1753880848.612353;15.470165;0.68;-1.21;0.1;0.964963;0.248711;0.005456;126.3;0.0;0.0;10.2;0.0;0.0
4.0;1753880848.616966;15.470592;0.57;-1.13;0.09;0.963745;0.247886;0.006403;129.7;0.0;0.0;9.8;0.0;0.0
4.0;1753880848.621579;15.471963;0.69;-1.24;-0.08;0.965242;0.25043;0.005384;129.1;0.0;0.0;10.1;0.0;0.0
4.0;1753880848.626192;15.462239;0.66;-1.13;0.08;0.965213;0.251111;0.007257;130.4;0.0;0.0;9.3;0.0;0.0
4.0;1753880848.63401;15.46875;0.63;-1.19;0.07;0.965386;0.250954;0.005978;130.0;0.0;0.0;10.0;0.0;0.0
4.0;1753880848.638623;15.449001;0.57;-1.18;0.05;0.964348;0.250933;0.00688;134.5;0.0;0.0;9.8;0.0;0.0
4.0;1753880848.643236;15.469147;0.68;-1.21;0.12;0.965933;0.250769;0.005446;131.6;0.0;0.0;10.2;0.0;0.0
4.0;1753880848.647849;15.465404;0.62;-1.24;0.1;0.965168;0.250853;0.006804;127.6;0.0;0.0;10.6;0.0;0.0
4.0;1753880848.652462;15.473141;0.6;-1.18;0.07;0.965707;0.248849;0.005583;131.9;0.0;0.0;9.7;0.0;0.0
4.0;1753880848.657075;15.459893;0.65;-1.16;0.08;0.965658;0.24877;0.00683;122.1;0.0;0.0;10.2;0.0;0.0
4.0;1753880848.661688;15.4666;0.57;-1.18;0.12;0.964791;0.25047;0.005795;135.1;0.0;0.0;9.9;0.0;0.0
4.0;1753880848.6663;15.465586;0.7;-1.19;0.04;0.963383;0.249325;0.005442;127.1;0.0;0.0;10.9;0.0;0.0
4.0;1753880848.670914;15.463611;0.72;-1.15;0.03;0.965141;0.249254;0.007127;125.1;0.0;0.0;9.3;0.0;0.0
4.0;1753880848.67748;15.46875;0.63;-1.19;0.07;0.96441;0.248148;0.005734;130.0;0.0;0.0;10.0;0.0;0.0
4.0;1753880848.682093;15.471172;0.68;-1.16;0.02;0.964706;0.248298;0.006062;120.0;0.0;0.0;9.1;0.0;0.0
4.0;1753880848.686706;15.481115;0.6;-1.25;0.12;0.966085;0.247705;0.006846;129.6;0.0;0.0;10.1;0.0;0.0
4.0;1753880848.691319;15.472659;0.67;-1.17;-0.03;0.964932;0.249032;0.005954;117.9;0.0;0.0;10.5;0.0;0.0
4.0;1753880848.695932;15.471485;0.54;-1.25;0.01;0.964731;0.250116;0.006599;134.2;0.0;0.0;9.9;0.0;0.0
4.0;1753880848.700544;15.47159;0.61;-1.14;0.07;0.963973;0.248704;0.005386;132.7;0.0;0.0;10.1;0.0;0.0
4.0;1753880848.705158;15.459814;0.7;-1.16;-0.04;0.965531;0.247692;0.006485;125.8;0.0;0.0;9.7;0.0;0.0
4.0;1753880848.70977;15.475413;0.53;-1.18;0.02;0.965209;0.250036;0.006299;132.3;0.0;0.0;10.6;0.0;0.0
4.0;1753880848.714383;15.483265;0.6;-1.12;-0.01;0.96578;0.248061;0.006574;128.6;0.0;0.0;10.2;0.0;0.0
4.0;1753880848.718996;15.464541;0.58;-1.15;-0.01;0.964762;0.250442;0.006979;129.3;0.0;0.0;9.7;0.0;0.0
4.0;1753880848.723609;15.470256;0.56;-1.18;0.05;0.965302;0.249636;0.006414;133.2;0.0;0.0;10.0;0.0;0.0
4.0;1753880848.728222;15.480378;0.57;-1.06;0.03;0.965823;0.252094;0.004947;130.7;0.0;0.0;10.5;0.0;0.0
4.0;1753880848.732835;15.460572;0.56;-1.25;-0.03;0.964744;0.249427;0.007895;126.3;0.0;0.0;10.1;0.0;0.0
4.0;1753880848.737448;15.470093;0.52;-1.2;-0.01;0.965612;0.250235;0.006873;130.5;0.0;0.0;10.1;0.0;0.0
4.0;1753880848.742061;15.45289;0.59;-1.06;0.01;0.965527;0.248928;0.005718;132.0;0.0;0.0;10.0;0.0;0.0
4.0;1753880848.74807;15.46875;0.56;-1.12;0.0;0.965386;0.249856;0.005856;130.0;0.0;0.0;10.0;0.0;0.0
4.0;1753880848.752683;15.466071;0.45;-1.19;0.05;0.96415;0.250371;0.005544;133.2;0.0;0.0;10.2;0.0;0.0
4.0;1753880848.757296;15.46307;0.46;-1.14;0.03;0.96652;0.251086;0.005338;127.3;0.0;0.0;9.8;0.0;0.0
4.0;1753880848.761909;15.465864;0.47;-1.06;0.1;0.963854;0.250067;0.006787;125.7;0.0;0.0;10.2;0.0;0.0
4.0;1753880848.76874;15.46875;0.49;-1.12;0.07;0.965264;0.249856;0.005734;130.0;0.0;0.0;10.0;0.0;0.0
4.0;1753880848.773353;15.465696;0.52;-0.99;0.12;0.965022;0.249662;0.005884;132.3;0.0;0.0;10.4;0.0;0.0
4.0;1753880848.777966;15.465145;0.51;-1.07;0.02;0.966395;0.24951;0.006812;132.6;0.0;0.0;9.7;0.0;0.0
4.0;1753880848.782579;15.464911;0.53;-1.15;0.06;0.965464;0.248975;0.006202;124.5;0.0;0.0;10.0;0.0;0.0
4.0;1753880848.787192;15.454751;0.55;-1.18;-0.01;0.965005;0.249845;0.007667;128.9;0.0;0.0;10.1;0.0;0.0
4.0;1753880848.791804;15.462445;0.59;-1.14;0.04;0.967088;0.248467;0.007436;128.4;0.0;0.0;10.5;0.0;0.0
4.0;1753880848.796418;15.478121;0.63;-1.12;0.05;0.966175;0.250275;0.008342;127.3;0.0;0.0;9.5;0.0;0.0
4.0;1753880848.80103;15.47236;0.52;-1.02;0.08;0.966679;0.250064;0.006877;126.4;0.0;0.0;10.0;0.0;0.0
4.0;1753880848.805643;15.468415;0.59;-1.17;-0.0;0.967011;0.24905;0.006333;128.4;0.0;0.0;10.1;0.0;0.0
4.0;1753880848.81404;15.46875;0.63;-1.12;0.0;0.966484;0.249978;0.007564;130.0;0.0;0.0;10.0;0.0;0.0
4.0;1753880848.818653;15.476543;0.57;-1.09;-0.04;0.966999;0.250373;0.008306;128.1;0.0;0.0;10.2;0.0;0.0
4.0;1753880848.823266;15.464832;0.68;-1.17;-0.02;0.966405;0.250838;0.007039;127.0;0.0;0.0;9.7;0.0;0.0
4.0;1753880848.827879;15.464971;0.74;-1.2;0.05;0.967097;0.249726;0.008408;125.8;0.0;0.0;9.8;0.0;0.0
4.0;1753880848.832492;15.460887;0.6;-1.15;-0.03;0.967368;0.251573;0.006789;124.5;0.0;0.0;9.3;0.0;0.0
4.0;1753880848.837104;15.460533;0.81;-1.12;0.06;0.96534;0.252211;0.008496;123.1;0.0;0.0;10.2;0.0;0.0
4.0;1753880848.841718;15.473576;0.64;-1.12;0.06;0.966868;0.250678;0.007555;131.9;0.0;0.0;9.6;0.0;0.0
4.0;1753880848.84633;15.474211;0.65;-1.15;0.01;0.964963;0.250523;0.007205;133.9;0.0;0.0;9.9;0.0;0.0
4.0;1753880848.850943;15.468179;0.6;-1.12;0.04;0.967235;0.251578;0.007499;134.0;0.0;0.0;9.8;0.0;0.0
4.0;1753880848.85945;15.46875;0.7;-1.12;0.07;0.96624;0.251564;0.006954;130.0;0.0;0.0;10.0;0.0;0.0
4.0;1753880848.864063;15.46716;0.66;-1.14;0.12;0.966631;0.251214;0.00499;133.2;0.0;0.0;9.5;0.0;0.0
4.0;1753880848.868676;15.455112;0.67;-1.21;0.06;0.965159;0.253036;0.00586;128.1;0.0;0.0;9.7;0.0;0.0
4.0;1753880848.873289;15.47208;0.68;-1.12;0.07;0.965164;0.251204;0.007016;124.3;0.0;0.0;10.1;0.0;0.0
4.0;1753880848.877902;15.475544;0.64;-1.21;0.13;0.966191;0.250212;0.008105;131.0;0.0;0.0;9.9;0.0;0.0
4.0;1753880848.882515;15.466834;0.73;-1.14;0.1;0.967138;0.249386;0.006487;130.3;0.0;0.0;10.0;0.0;0.0
4.0;1753880848.887128;15.480951;0.66;-1.1;0.12;0.966423;0.24993;0.006725;139.4;0.0;0.0;9.9;0.0;0.0
4.0;1753880848.89174;15.469634;0.8;-1.19;0.07;0.965495;0.249635;0.006784;134.3;0.0;0.0;9.8;0.0;0.0
4.0;1753880848.896354;15.485046;0.69;-1.05;0.1;0.965475;0.249743;0.005505;125.5;0.0;0.0;9.8;0.0;0.0
4.0;1753880848.90461;15.476562;0.7;-1.19;0.07;0.96624;0.24827;0.006588;130.0;0.0;0.0;10.0;0.0;0.0
4.0;1753880848.909223;15.478633;0.69;-1.21;0.13;0.966265;0.2497;0.006658;134.1;0.0;0.0;11.3;0.0;0.0
4.0;1753880848.913836;15.478822;0.58;-1.15;0.06;0.965336;0.24886;0.006509;129.2;0.0;0.0;10.3;0.0;0.0
4.0;1753880848.918449;15.474157;0.59;-1.21;0.12;0.966374;0.247158;0.006613;131.5;0.0;0.0;9.3;0.0;0.0
4.0;1753880848.923062;15.476679;0.72;-1.18;0.12;0.966926;0.24911;0.004979;125.2;0.0;0.0;10.9;0.0;0.0
4.0;1753880848.927674;15.486528;0.64;-1.15;-0.03;0.966577;0.249171;0.006097;128.9;0.0;0.0;10.5;0.0;0.0
4.0;1753880848.932288;15.478266;0.56;-1.13;0.03;0.96553;0.24934;0.006872;123.7;0.0;0.0;12.6;0.0;0.0
4.0;1753880848.9369;15.480352;0.66;-1.14;0.04;0.965567;0.247985;0.007106;132.4;0.0;0.0;11.9;0.0;0.0
4.0;1753880848.941513;15.48222;0.59;-1.19;0.01;0.966441;0.248879;0.006457;132.7;0.0;0.0;11.3;0.0;0.0
4.0;1753880848.946126;15.46993;0.55;-1.27;0.09;0.966199;0.247996;0.006245;125.0;0.0;0.0;12.6;0.0;0.0
4.0;1753880848.950739;15.481705;0.62;-1.21;0.09;0.967504;0.249214;0.004391;132.8;0.0;0.0;10.5;0.0;0.0
4.0;1753880848.955352;15.469719;0.47;-1.21;0.06;0.966448;0.250194;0.006478;127.8;0.0;0.0;11.0;0.0;0.0
4.0;1753880848.959965;15.476588;0.63;-1.13;0.05;0.965401;0.2489;0.005987;130.2;0.0;0.0;10.9;0.0;0.0
4.0;1753880848.964578;15.474022;0.59;-1.25;0.1;0.965827;0.248456;0.005527;133.2;0.0;0.0;13.6;0.0;0.0
4.0;1753880848.969191;15.477982;0.54;-1.16;0.09;0.96606;0.250843;0.006849;130.1;0.0;0.0;12.6;0.0;0.0
4.0;1753880848.973804;15.475249;0.62;-1.19;0.0;0.964464;0.249757;0.006352;127.7;0.0;0.0;14.1;0.0;0.0
4.0;1753880848.978417;15.471829;0.67;-1.2;0.04;0.966454;0.251303;0.005338;131.1;0.0;0.0;13.9;0.0;0.0
4.0;1753880848.98303;15.47732;0.61;-1.2;0.07;0.965749;0.250795;0.006118;119.6;0.0;0.0;14.9;0.0;0.0
4.0;1753880848.99173;15.476562;0.56;-1.19;0.07;0.96624;0.250222;0.005734;126.0;0.0;0.0;14.0;0.0;0.0
4.0;1753880848.99553;15.476562;0.7;-1.12;0.0;0.965264;0.24827;0.006588;126.0;0.0;0.0;14.0;0.0;0.0
4.0;1753880848.997392;15.46875;0.7;-1.12;0.14;0.966606;0.250466;0.005856;118.0;0.0;0.0;11.0;0.0;0.0
4.0;1753880849.002005;15.466058;0.71;-1.17;0.17;0.965245;0.250235;0.004902;112.8;0.0;0.0;10.5;0.0;0.0
4.0;1753880849.006618;15.465716;0.72;-1.16;0.17;0.965967;0.2502;0.007154;118.6;0.0;0.0;11.4;0.0;0.0
4.0;1753880849.011231;15.469911;0.73;-1.07;0.18;0.967231;0.249523;0.005384;117.2;0.0;0.0;13.2;0.0;0.0
4.0;1753880849.015844;15.489134;0.8;-1.18;0.21;0.966363;0.24914;0.005892;117.9;0.0;0.0;10.4;0.0;0.0
4.0;1753880849.020456;15.476597;0.73;-1.14;0.09;0.967688;0.249192;0.005208;118.2;0.0;0.0;13.1;0.0;0.0
4.0;1753880849.02507;15.467296;0.73;-1.15;0.09;0.967299;0.249044;0.005346;121.1;0.0;0.0;13.5;0.0;0.0
4.0;1753880849.029682;15.478184;0.69;-1.03;0.12;0.966743;0.250112;0.00564;117.9;0.0;0.0;9.8;0.0;0.0
4.0;1753880849.034295;15.475309;0.72;-1.14;0.13;0.966471;0.250144;0.006284;120.3;0.0;0.0;12.7;0.0;0.0
4.0;1753880849.038908;15.489657;0.73;-1.21;0.11;0.966539;0.248445;0.005475;114.0;0.0;0.0;8.9;0.0;0.0
4.0;1753880849.043521;15.477782;0.65;-1.16;0.11;0.966636;0.2507;0.005762;120.9;0.0;0.0;8.3;0.0;0.0
4.0;1753880849.048134;15.460732;0.69;-1.08;0.12;0.966297;0.25038;0.005543;119.0;0.0;0.0;9.4;0.0;0.0
4.0;1753880849.052747;15.478112;0.73;-1.13;0.16;0.965087;0.251152;0.005734;118.3;0.0;0.0;11.5;0.0;0.0
4.0;1753880849.05736;15.466995;0.65;-1.05;0.25;0.965383;0.251293;0.005533;118.1;0.0;0.0;12.8;0.0;0.0
4.0;1753880849.061973;15.463409;0.59;-1.1;0.17;0.966918;0.250454;0.00576;118.6;0.0;0.0;5.3;0.0;0.0
4.0;1753880849.066586;15.454864;0.68;-1.13;0.18;0.96569;0.250986;0.005558;115.7;0.0;0.0;12.4;0.0;0.0
4.0;1753880849.071199;15.479839;0.74;-1.17;0.12;0.966544;0.248947;0.005525;116.2;0.0;0.0;11.9;0.0;0.0
4.0;1753880849.075812;15.470769;0.61;-1.09;0.19;0.965129;0.249869;0.006252;118.8;0.0;0.0;8.4;0.0;0.0
4.0;1753880849.080424;15.489944;0.67;-1.03;0.14;0.966022;0.249301;0.00487;118.9;0.0;0.0;6.9;0.0;0.0
4.0;1753880849.085038;15.5008;0.69;-1.2;0.16;0.966133;0.249177;0.005905;118.1;0.0;0.0;10.3;0.0;0.0
4.0;1753880849.08965;15.457889;0.6;-1.1;0.14;0.966906;0.2498;0.005367;121.3;0.0;0.0;9.6;0.0;0.0
4.0;1753880849.094263;15.480614;0.66;-1.13;0.22;0.967821;0.251771;0.005476;117.5;0.0;0.0;10.3;0.0;0.0
4.0;1753880849.098876;15.468949;0.64;-1.16;0.11;0.966671;0.251075;0.005452;113.6;0.0;0.0;14.7;0.0;0.0
4.0;1753880849.103489;15.486705;0.6;-1.18;0.11;0.966502;0.249341;0.005723;118.3;0.0;0.0;9.3;0.0;0.0
4.0;1753880849.108102;15.460178;0.61;-1.18;0.14;0.96674;0.251456;0.005422;120.2;0.0;0.0;11.9;0.0;0.0
4.0;1753880849.112715;15.475821;0.71;-1.16;0.24;0.967053;0.249712;0.005621;114.8;0.0;0.0;9.7;0.0;0.0
4.0;1753880849.117328;15.461781;0.72;-1.11;0.24;0.966471;0.249508;0.006218;119.1;0.0;0.0;9.1;0.0;0.0
4.0;1753880849.121941;15.485054;0.68;-1.13;0.13;0.966841;0.2492;0.005983;119.3;0.0;0.0;12.6;0.0;0.0
4.0;1753880849.126554;15.485384;0.71;-1.15;0.16;0.967354;0.250104;0.006233;116.3;0.0;0.0;8.1;0.0;0.0
4.0;1753880849.131167;15.482887;0.64;-1.09;0.14;0.965012;0.250838;0.006405;121.6;0.0;0.0;13.3;0.0;0.0
4.0;1753880849.13578;15.470727;0.75;-1.12;0.15;0.96578;0.248354;0.005639;120.6;0.0;0.0;11.0;0.0;0.0
4.0;1753880849.140392;15.481474;0.74;-1.12;0.15;0.966904;0.252004;0.005244;122.3;0.0;0.0;12.2;0.0;0.0
4.0;1753880849.145006;15.501263;0.69;-1.15;0.12;0.96569;0.249778;0.005443;113.6;0.0;0.0;14.0;0.0;0.0
4.0;1753880849.149618;15.504072;0.65;-1.05;0.26;0.964743;0.249616;0.005525;120.6;0.0;0.0;13.2;0.0;0.0
4.0;1753880849.154231;15.476047;0.76;-1.15;0.15;0.966961;0.2495;0.005839;114.4;0.0;0.0;12.6;0.0;0.0
4.0;1753880849.158844;15.483157;0.73;-1.17;0.22;0.966232;0.251305;0.006187;119.2;0.0;0.0;9.9;0.0;0.0
4.0;1753880849.163457;15.503544;0.58;-1.17;0.1;0.966171;0.25067;0.005617;118.0;0.0;0.0;13.3;0.0;0.0
4.0;1753880849.16807;15.484912;0.78;-1.08;0.23;0.966273;0.250335;0.005677;120.9;0.0;0.0;9.3;0.0;0.0
4.0;1753880849.172683;15.457463;0.68;-1.09;0.17;0.967593;0.249058;0.005477;119.4;0.0;0.0;12.4;0.0;0.0
4.0;1753880849.177296;15.487781;0.67;-1.12;0.05;0.966739;0.24926;0.005772;124.7;0.0;0.0;15.9;0.0;0.0
4.0;1753880849.181909;15.499983;0.59;-1.13;0.19;0.967545;0.250343;0.005251;117.6;0.0;0.0;9.7;0.0;0.0
4.0;1753880849.186522;15.491192;0.71;-1.09;0.12;0.965077;0.249292;0.005642;119.7;0.0;0.0;9.0;0.0;0.0
4.0;1753880849.191135;15.487665;0.72;-1.13;0.13;0.96681;0.250372;0.006903;117.3;0.0;0.0;10.7;0.0;0.0
4.0;1753880849.195748;15.491767;0.57;-1.23;0.14;0.967194;0.250204;0.005211;116.8;0.0;0.0;7.3;0.0;0.0
4.0;1753880849.20036;15.476988;0.66;-1.14;0.14;0.966136;0.249999;0.005848;118.3;0.0;0.0;8.2;0.0;0.0
4.0;1753880849.204974;15.464812;0.68;-1.09;0.03;0.965607;0.250238;0.006232;115.7;0.0;0.0;10.6;0.0;0.0
4.0;1753880849.209586;15.453914;0.6;-1.07;0.19;0.966919;0.249498;0.005512;118.1;0.0;0.0;7.0;0.0;0.0
4.0;1753880849.214199;15.483151;0.63;-1.03;0.1;0.965582;0.250987;0.005046;120.3;0.0;0.0;10.5;0.0;0.0
4.0;1753880849.218812;15.467661;0.65;-1.13;0.15;0.966725;0.249937;0.005701;121.1;0.0;0.0;9.8;0.0;0.0
4.0;1753880849.223425;15.480291;0.6;-1.14;0.1;0.966207;0.251648;0.005805;112.6;0.0;0.0;14.4;0.0;0.0
4.0;1753880849.228038;15.481687;0.66;-1.01;0.12;0.965634;0.24853;0.006817;113.1;0.0;0.0;13.2;0.0;0.0
4.0;1753880849.232651;15.472657;0.7;-1.05;0.19;0.96609;0.24833;0.005207;116.9;0.0;0.0;12.4;0.0;0.0
4.0;1753880849.237264;15.478853;0.74;-1.14;0.11;0.965721;0.250116;0.006066;119.3;0.0;0.0;6.6;0.0;0.0
4.0;1753880849.241877;15.48409;0.63;-1.12;0.19;0.96735;0.24925;0.005782;121.2;0.0;0.0;12.7;0.0;0.0
4.0;1753880849.24649;15.480822;0.72;-1.14;0.11;0.966366;0.251886;0.006092;116.1;0.0;0.0;12.0;0.0;0.0
4.0;1753880849.251103;15.481205;0.67;-1.14;0.21;0.966776;0.250481;0.006315;118.7;0.0;0.0;16.1;0.0;0.0
4.0;1753880849.255716;15.490561;0.68;-1.06;0.1;0.966436;0.250021;0.005673;119.1;0.0;0.0;4.6;0.0;0.0
4.0;1753880849.260328;15.490573;0.63;-1.11;0.1;0.965835;0.249279;0.00646;117.6;0.0;0.0;11.9;0.0;0.0
4.0;1753880849.264942;15.467421;0.64;-1.26;0.23;0.966738;0.249514;0.005475;116.2;0.0;0.0;12.1;0.0;0.0
4.0;1753880849.269554;15.490137;0.6;-1.06;0.2;0.965322;0.249884;0.00604;116.6;0.0;0.0;9.7;0.0;0.0
4.0;1753880849.274167;15.482877;0.73;-1.17;0.19;0.967235;0.249111;0.006073;122.6;0.0;0.0;10.6;0.0;0.0
4.0;1753880849.27878;15.485943;0.66;-1.17;0.13;0.965288;0.249583;0.005434;113.3;0.0;0.0;12.2;0.0;0.0
4.0;1753880849.283393;15.498289;0.64;-1.05;0.16;0.966225;0.250206;0.005859;116.6;0.0;0.0;9.4;0.0;0.0
4.0;1753880849.288006;15.497984;0.57;-1.05;0.12;0.966038;0.248675;0.004868;119.3;0.0;0.0;11.7;0.0;0.0
4.0;1753880849.292619;15.500301;0.72;-1.14;0.2;0.965502;0.251227;0.00498;117.4;0.0;0.0;8.8;0.0;0.0
4.0;1753880849.297232;15.492807;0.66;-1.23;0.04;0.96645;0.250577;0.006698;119.4;0.0;0.0;11.2;0.0;0.0
4.0;1753880849.301845;15.508814;0.64;-1.04;0.22;0.965467;0.250358;0.005766;118.7;0.0;0.0;15.0;0.0;0.0
4.0;1753880849.306458;15.486794;0.69;-1.08;0.21;0.96549;0.249647;0.005638;115.6;0.0;0.0;8.6;0.0;0.0
4.0;1753880849.311071;15.474022;0.73;-1.22;0.17;0.96537;0.24871;0.00676;119.6;0.0;0.0;7.7;0.0;0.0
4.0;1753880849.315684;15.498895;0.63;-1.2;0.12;0.96438;0.248413;0.005073;119.0;0.0;0.0;10.8;0.0;0.0
4.0;1753880849.320296;15.477967;0.6;-1.02;0.18;0.965638;0.250383;0.005802;120.0;0.0;0.0;10.9;0.0;0.0
4.0;1753880849.32491;15.47494;0.63;-1.17;0.16;0.96484;0.250012;0.006866;118.9;0.0;0.0;7.5;0.0;0.0
4.0;1753880849.329522;15.49201;0.68;-1.0;0.18;0.965123;0.24831;0.006793;116.3;0.0;0.0;14.4;0.0;0.0
4.0;1753880849.334135;15.487498;0.66;-1.16;0.16;0.965494;0.251051;0.005791;123.7;0.0;0.0;10.0;0.0;0.0
4.0;1753880849.338748;15.5074;0.75;-1.04;0.08;0.965809;0.250579;0.005379;120.3;0.0;0.0;12.0;0.0;0.0
4.0;1753880849.343361;15.506896;0.66;-1.15;0.16;0.965925;0.249313;0.005737;125.6;0.0;0.0;12.6;0.0;0.0
4.0;1753880849.347974;15.475288;0.65;-1.06;0.24;0.965295;0.249257;0.005831;114.0;0.0;0.0;8.5;0.0;0.0
4.0;1753880849.352587;15.462839;0.81;-1.18;0.13;0.965337;0.250178;0.006414;117.6;0.0;0.0;11.7;0.0;0.0
4.0;1753880849.3572;15.465459;0.74;-1.1;0.16;0.965255;0.249893;0.006565;117.3;0.0;0.0;10.6;0.0;0.0
4.0;1753880849.361813;15.515459;0.65;-1.11;0.21;0.966093;0.249385;0.006391;116.0;0.0;0.0;7.2;0.0;0.0
4.0;1753880849.366426;15.521569;0.73;-1.16;0.22;0.966464;0.249968;0.006092;121.3;0.0;0.0;10.5;0.0;0.0
4.0;1753880849.371039;15.511765;0.75;-1.08;0.2;0.96597;0.249317;0.005298;112.4;0.0;0.0;8.2;0.0;0.0
4.0;1753880849.375652;15.470583;0.68;-1.15;0.12;0.965781;0.248567;0.005002;118.3;0.0;0.0;11.0;0.0;0.0
4.0;1753880849.380264;15.499422;0.57;-1.03;0.18;0.96517;0.248844;0.006675;120.9;0.0;0.0;8.5;0.0;0.0
4.0;1753880849.384878;15.457585;0.61;-1.21;0.08;0.966987;0.248453;0.005005;117.6;0.0;0.0;7.8;0.0;0.0
4.0;1753880849.38949;15.508554;0.64;-1.17;0.09;0.96569;0.249522;0.006143;117.9;0.0;0.0;9.8;0.0;0.0
4.0;1753880849.394103;15.503651;0.77;-1.13;0.14;0.966312;0.249636;0.007089;119.0;0.0;0.0;9.8;0.0;0.0
4.0;1753880849.398716;15.505799;0.7;-1.09;0.16;0.965133;0.25123;0.005783;118.1;0.0;0.0;6.2;0.0;0.0
4.0;1753880849.403329;15.495816;0.67;-1.24;0.16;0.964572;0.249115;0.005638;117.0;0.0;0.0;14.4;0.0;0.0
4.0;1753880849.407942;15.494764;0.67;-1.11;0.11;0.966929;0.250037;0.006279;118.8;0.0;0.0;9.6;0.0;0.0
4.0;1753880849.412555;15.519586;0.69;-1.12;0.16;0.965644;0.249134;0.006641;119.3;0.0;0.0;11.2;0.0;0.0
4.0;1753880849.417168;15.519265;0.64;-1.02;0.12;0.965335;0.250681;0.005908;118.9;0.0;0.0;12.1;0.0;0.0
4.0;1753880849.421781;15.498729;0.71;-1.21;0.06;0.965662;0.251236;0.005656;120.6;0.0;0.0;12.5;0.0;0.0
4.0;1753880849.426394;15.492121;0.69;-1.18;0.11;0.965968;0.249218;0.005142;120.0;0.0;0.0;9.3;0.0;0.0
4.0;1753880849.431007;15.506274;0.62;-1.15;0.16;0.966593;0.249711;0.005507;119.3;0.0;0.0;11.5;0.0;0.0
4.0;1753880849.43562;15.474489;0.66;-1.07;0.04;0.965494;0.249419;0.00465;113.3;0.0;0.0;11.9;0.0;0.0
4.0;1753880849.440232;15.487389;0.67;-1.13;0.09;0.967144;0.249367;0.006426;120.0;0.0;0.0;8.7;0.0;0.0
4.0;1753880849.444846;15.499067;0.72;-1.15;0.09;0.964911;0.250696;0.006385;118.6;0.0;0.0;13.6;0.0;0.0
4.0;1753880849.449458;15.497679;0.67;-1.14;0.17;0.965229;0.24825;0.006618;123.4;0.0;0.0;9.1;0.0;0.0
4.0;1753880849.454071;15.492109;0.55;-1.01;0.15;0.966323;0.251204;0.00527;118.2;0.0;0.0;12.4;0.0;0.0
4.0;1753880849.458684;15.487742;0.61;-1.13;0.13;0.965495;0.250349;0.006783;116.6;0.0;0.0;7.4;0.0;0.0
4.0;1753880849.463297;15.507259;0.71;-1.14;0.16;0.963724;0.249034;0.006349;119.6;0.0;0.0;7.5;0.0;0.0
4.0;1753880849.46791;15.487661;0.64;-1.19;0.1;0.966312;0.248417;0.00567;120.8;0.0;0.0;8.7;0.0;0.0
4.0;1753880849.472523;15.502434;0.71;-1.23;0.18;0.965044;0.249957;0.006101;117.2;0.0;0.0;11.5;0.0;0.0
4.0;1753880849.477136;15.499095;0.71;-1.11;0.13;0.96726;0.249117;0.005768;118.6;0.0;0.0;11.1;0.0;0.0
4.0;1753880849.481749;15.509796;0.64;-1.14;0.09;0.965335;0.248682;0.006335;115.5;0.0;0.0;11.3;0.0;0.0
4.0;1753880849.486362;15.504417;0.61;-1.18;0.14;0.966538;0.248983;0.005571;119.1;0.0;0.0;11.8;0.0;0.0
4.0;1753880849.490975;15.499729;0.64;-1.13;0.08;0.966331;0.250694;0.005551;117.4;0.0;0.0;12.1;0.0;0.0
4.0;1753880849.495588;15.500518;0.61;-1.13;0.13;0.966294;0.249754;0.005864;113.0;0.0;0.0;13.5;0.0;0.0
4.0;1753880849.5002;15.497746;0.63;-1.24;0.05;0.964739;0.248334;0.006677;116.9;0.0;0.0;11.7;0.0;0.0
4.0;1753880849.504814;15.523572;0.6;-1.17;0.12;0.965076;0.250008;0.005478;116.4;0.0;0.0;8.3;0.0;0.0
4.0;1753880849.509426;15.497817;0.56;-1.13;0.18;0.965062;0.250838;0.005512;111.3;0.0;0.0;11.5;0.0;0.0
4.0;1753880849.514039;15.509258;0.74;-1.12;0.15;0.964276;0.250002;0.006158;122.2;0.0;0.0;12.0;0.0;0.0
4.0;1753880849.518652;15.510069;0.64;-1.11;0.15;0.965835;0.247935;0.005905;119.6;0.0;0.0;10.4;0.0;0.0
4.0;1753880849.523265;15.534586;0.64;-1.09;0.2;0.965551;0.250561;0.007075;119.9;0.0;0.0;14.2;0.0;0.0
4.0;1753880849.527878;15.510213;0.62;-1.1;0.18;0.965237;0.248951;0.006373;118.6;0.0;0.0;13.8;0.0;0.0
4.0;1753880849.532491;15.525462;0.7;-1.18;0.21;0.964677;0.249526;0.005727;121.4;0.0;0.0;12.8;0.0;0.0
4.0;1753880849.537104;15.509251;0.74;-1.04;0.17;0.965851;0.250059;0.005632;114.2;0.0;0.0;12.3;0.0;0.0
4.0;1753880849.541717;15.498391;0.67;-1.28;0.16;0.966895;0.250157;0.006551;115.2;0.0;0.0;8.3;0.0;0.0
4.0;1753880849.54633;15.51302;0.63;-1.04;0.03;0.96542;0.249655;0.006674;113.6;0.0;0.0;11.0;0.0;0.0
4.0;1753880849.550943;15.513403;0.69;-1.1;0.12;0.965043;0.249951;0.006079;116.0;0.0;0.0;9.0;0.0;0.0
4.0;1753880849.555556;15.532872;0.67;-1.14;0.18;0.964524;0.250364;0.005884;118.8;0.0;0.0;10.1;0.0;0.0
4.0;1753880849.560168;15.485381;0.64;-1.14;0.26;0.965594;0.249184;0.005927;118.7;0.0;0.0;11.8;0.0;0.0
4.0;1753880849.564782;15.548264;0.66;-1.13;0.03;0.964883;0.247723;0.006404;119.2;0.0;0.0;13.2;0.0;0.0
4.0;1753880849.569394;15.498438;0.65;-1.15;0.17;0.966594;0.249801;0.005084;118.6;0.0;0.0;11.9;0.0;0.0
4.0;1753880849.574007;15.506051;0.75;-1.17;0.17;0.966399;0.249035;0.005855;117.0;0.0;0.0;13.8;0.0;0.0
4.0;1753880849.57862;15.498831;0.57;-1.03;0.09;0.965104;0.249976;0.004807;117.1;0.0;0.0;12.0;0.0;0.0
4.0;1753880849.583233;15.515472;0.68;-1.01;0.19;0.963683;0.24982;0.006626;118.0;0.0;0.0;13.3;0.0;0.0
4.0;1753880849.587846;15.512996;0.62;-1.27;0.15;0.965704;0.250655;0.005943;120.1;0.0;0.0;13.0;0.0;0.0
4.0;1753880849.592459;15.498089;0.52;-1.1;0.21;0.965101;0.248761;0.00642;115.7;0.0;0.0;14.2;0.0;0.0
4.0;1753880849.597072;15.524237;0.74;-1.09;0.11;0.965068;0.248608;0.005233;116.4;0.0;0.0;6.4;0.0;0.0
4.0;1753880849.601685;15.508209;0.72;-1.07;0.12;0.965644;0.249277;0.005674;114.6;0.0;0.0;11.0;0.0;0.0
4.0;1753880849.606298;15.521095;0.65;-1.06;0.1;0.964247;0.25014;0.004778;119.0;0.0;0.0;12.9;0.0;0.0
4.0;1753880849.610911;15.509232;0.63;-1.06;0.19;0.966098;0.24901;0.005002;120.7;0.0;0.0;14.3;0.0;0.0
4.0;1753880849.615524;15.516039;0.56;-1.17;0.15;0.96489;0.250418;0.006812;118.8;0.0;0.0;12.3;0.0;0.0
4.0;1753880849.620136;15.519637;0.6;-1.14;0.12;0.966052;0.251086;0.006063;115.0;0.0;0.0;14.0;0.0;0.0
4.0;1753880849.62475;15.508682;0.67;-1.09;0.15;0.965398;0.249243;0.005875;119.0;0.0;0.0;9.3;0.0;0.0
4.0;1753880849.629362;15.50365;0.72;-1.18;0.19;0.964124;0.250414;0.006562;116.1;0.0;0.0;9.7;0.0;0.0
4.0;1753880849.633975;15.512564;0.68;-0.97;0.15;0.965672;0.251156;0.005758;114.4;0.0;0.0;10.5;0.0;0.0
4.0;1753880849.638588;15.520377;0.63;-1.07;0.17;0.966591;0.248541;0.005791;121.5;0.0;0.0;9.7;0.0;0.0
4.0;1753880849.643201;15.500907;0.68;-1.01;0.19;0.966494;0.252313;0.005093;119.7;0.0;0.0;9.0;0.0;0.0
4.0;1753880849.647814;15.506179;0.63;-1.2;0.08;0.966746;0.248967;0.006226;120.0;0.0;0.0;10.9;0.0;0.0
4.0;1753880849.652427;15.514273;0.62;-1.03;0.16;0.96396;0.250873;0.005822;115.0;0.0;0.0;11.9;0.0;0.0
4.0;1753880849.65704;15.522323;0.62;-1.0;0.12;0.964835;0.249547;0.004795;114.8;0.0;0.0;11.8;0.0;0.0
4.0;1753880849.661653;15.511408;0.57;-1.14;0.14;0.965289;0.248903;0.004788;119.4;0.0;0.0;8.1;0.0;0.0
4.0;1753880849.666266;15.512551;0.66;-1.19;0.21;0.965777;0.24871;0.005325;119.4;0.0;0.0;13.2;0.0;0.0
4.0;1753880849.670879;15.533605;0.68;-1.05;0.16;0.964557;0.248232;0.005026;115.4;0.0;0.0;10.5;0.0;0.0
4.0;1753880849.675492;15.52465;0.62;-1.15;0.1;0.965178;0.248727;0.006525;120.8;0.0;0.0;8.5;0.0;0.0
4.0;1753880849.680104;15.510592;0.74;-1.15;0.12;0.964591;0.248417;0.006142;116.6;0.0;0.0;10.6;0.0;0.0
4.0;1753880849.684718;15.53358;0.59;-1.08;0.08;0.964613;0.248173;0.005289;120.1;0.0;0.0;13.1;0.0;0.0
4.0;1753880849.68933;15.515851;0.6;-1.14;0.19;0.965827;0.250243;0.006167;118.2;0.0;0.0;10.8;0.0;0.0
4.0;1753880849.694;15.515625;0.63;-1.12;0.14;0.965142;0.249368;0.005734;118.0;0.0;0.0;11.0;0.0;0.0
4.0;1753880849.698613;15.531208;0.61;-1.18;0.15;0.965577;0.249323;0.005025;121.5;0.0;0.0;10.7;0.0;0.0
4.0;1753880849.703226;15.497881;0.66;-1.09;0.15;0.966969;0.249688;0.006226;115.2;0.0;0.0;11.4;0.0;0.0
4.0;1753880849.707839;15.499115;0.64;-0.99;0.02;0.966258;0.249094;0.005263;119.1;0.0;0.0;9.5;0.0;0.0
4.0;1753880849.712452;15.526617;0.67;-1.15;0.05;0.965852;0.249242;0.00562;121.8;0.0;0.0;13.6;0.0;0.0
4.0;1753880849.717064;15.519561;0.7;-1.05;0.15;0.96676;0.249245;0.005643;123.5;0.0;0.0;10.8;0.0;0.0
4.0;1753880849.721678;15.534329;0.64;-1.09;0.1;0.965741;0.249314;0.006189;118.8;0.0;0.0;11.1;0.0;0.0
4.0;1753880849.72629;15.529685;0.67;-1.1;0.17;0.96689;0.249469;0.006573;119.1;0.0;0.0;9.0;0.0;0.0
4.0;1753880849.730904;15.525167;0.67;-1.17;0.04;0.965597;0.250273;0.005704;117.0;0.0;0.0;7.0;0.0;0.0
4.0;1753880849.735516;15.5303;0.59;-1.2;0.12;0.966465;0.248528;0.006951;116.2;0.0;0.0;11.5;0.0;0.0
4.0;1753880849.740129;15.514965;0.58;-1.07;0.11;0.96472;0.250306;0.005419;116.4;0.0;0.0;12.7;0.0;0.0
4.0;1753880849.744742;15.526391;0.61;-1.11;0.09;0.96678;0.250395;0.006459;121.9;0.0;0.0;9.0;0.0;0.0
4.0;1753880849.749355;15.523403;0.73;-1.15;0.18;0.966453;0.251409;0.006127;119.8;0.0;0.0;12.1;0.0;0.0
4.0;1753880849.753968;15.51944;0.62;-1.24;0.14;0.964496;0.248679;0.005796;113.8;0.0;0.0;8.5;0.0;0.0
4.0;1753880849.758581;15.509995;0.65;-1.26;0.08;0.965529;0.249528;0.006074;121.0;0.0;0.0;10.9;0.0;0.0
4.0;1753880849.763194;15.515784;0.62;-1.15;0.04;0.966035;0.249367;0.007276;121.0;0.0;0.0;7.2;0.0;0.0
4.0;1753880849.767807;15.502547;0.6;-1.09;0.15;0.965145;0.250185;0.005881;119.7;0.0;0.0;10.8;0.0;0.0
4.0;1753880849.77242;15.522017;0.74;-1.17;0.11;0.966482;0.250082;0.006705;120.2;0.0;0.0;9.0;0.0;0.0
4.0;1753880849.777032;15.527204;0.58;-1.29;0.1;0.965371;0.251291;0.005989;119.8;0.0;0.0;13.3;0.0;0.0
4.0;1753880849.781646;15.485962;0.61;-1.03;0.19;0.966598;0.251162;0.006423;115.9;0.0;0.0;11.4;0.0;0.0
4.0;1753880849.786258;15.542264;0.56;-1.16;0.11;0.965826;0.249538;0.005996;114.9;0.0;0.0;10.6;0.0;0.0
4.0;1753880849.790872;15.511069;0.64;-1.14;0.13;0.965953;0.250912;0.006966;120.7;0.0;0.0;8.2;0.0;0.0
4.0;1753880849.795484;15.505985;0.58;-1.11;0.12;0.966082;0.249711;0.00636;115.5;0.0;0.0;14.7;0.0;0.0
4.0;1753880849.800097;15.489467;0.6;-1.22;0.06;0.966702;0.250039;0.00567;114.7;0.0;0.0;10.7;0.0;0.0
4.0;1753880849.80471;15.52542;0.63;-1.06;-0.01;0.967252;0.250512;0.007138;118.9;0.0;0.0;13.8;0.0;0.0
4.0;1753880849.809323;15.500948;0.58;-1.18;0.13;0.966395;0.249134;0.007509;123.2;0.0;0.0;9.3;0.0;0.0
4.0;1753880849.813936;15.491477;0.66;-1.18;0.09;0.964707;0.24888;0.005831;117.5;0.0;0.0;9.4;0.0;0.0
4.0;1753880849.818549;15.494528;0.64;-1.13;0.21;0.966183;0.248738;0.007486;116.3;0.0;0.0;12.1;0.0;0.0
4.0;1753880849.823162;15.484765;0.65;-1.18;0.13;0.965757;0.248427;0.006052;118.1;0.0;0.0;10.6;0.0;0.0
4.0;1753880849.827775;15.505094;0.71;-1.02;0.11;0.965182;0.248275;0.005788;118.3;0.0;0.0;13.0;0.0;0.0
4.0;1753880849.832388;15.533804;0.64;-1.2;0.04;0.967533;0.249589;0.005673;118.3;0.0;0.0;13.2;0.0;0.0
4.0;1753880849.837;15.533005;0.56;-1.06;0.16;0.966449;0.250033;0.006725;115.9;0.0;0.0;8.4;0.0;0.0
4.0;1753880849.841614;15.51725;0.65;-1.23;0.07;0.966263;0.249602;0.0066;114.0;0.0;0.0;10.7;0.0;0.0
4.0;1753880849.846226;15.526123;0.63;-0.97;0.07;0.967777;0.250878;0.005369;115.9;0.0;0.0;10.3;0.0;0.0
4.0;1753880849.85084;15.508009;0.68;-1.14;0.03;0.966202;0.248706;0.006978;117.3;0.0;0.0;11.6;0.0;0.0
4.0;1753880849.855452;15.517721;0.69;-1.18;0.07;0.965952;0.251287;0.005625;118.0;0.0;0.0;14.6;0.0;0.0
4.0;1753880849.860065;15.51903;0.57;-1.1;0.09;0.966223;0.250741;0.005767;121.8;0.0;0.0;12.2;0.0;0.0
4.0;1753880849.864678;15.519629;0.66;-1.08;0.02;0.967826;0.250117;0.006029;114.1;0.0;0.0;11.1;0.0;0.0
4.0;1753880849.869291;15.530398;0.67;-1.08;0.07;0.966256;0.248665;0.006518;115.3;0.0;0.0;9.2;0.0;0.0
4.0;1753880849.873904;15.527591;0.58;-1.03;0.05;0.965536;0.250867;0.006958;118.1;0.0;0.0;12.9;0.0;0.0
4.0;1753880849.878517;15.526799;0.6;-1.11;0.09;0.966749;0.251993;0.006523;112.7;0.0;0.0;6.4;0.0;0.0
4.0;1753880849.88313;15.500955;0.66;-1.19;0.0;0.964804;0.250068;0.006701;122.1;0.0;0.0;9.6;0.0;0.0
4.0;1753880849.887743;15.536392;0.7;-1.1;0.04;0.965704;0.248844;0.005439;117.5;0.0;0.0;8.5;0.0;0.0
4.0;1753880849.892356;15.520303;0.62;-1.06;0.0;0.966355;0.24991;0.006045;118.5;0.0;0.0;14.3;0.0;0.0
4.0;1753880849.896968;15.508655;0.71;-1.15;0.05;0.967505;0.250164;0.006419;120.9;0.0;0.0;9.8;0.0;0.0
4.0;1753880849.901582;15.518901;0.62;-1.22;0.08;0.966255;0.250569;0.006191;119.5;0.0;0.0;11.3;0.0;0.0
4.0;1753880849.906194;15.50562;0.61;-1.11;0.07;0.966594;0.249111;0.006792;119.1;0.0;0.0;10.8;0.0;0.0
4.0;1753880849.910807;15.493135;0.66;-1.04;-0.02;0.965543;0.249994;0.006157;118.4;0.0;0.0;9.8;0.0;0.0
4.0;1753880849.91542;15.50356;0.63;-1.08;0.08;0.966565;0.251291;0.006992;115.8;0.0;0.0;12.1;0.0;0.0
4.0;1753880849.920033;15.53692;0.6;-1.15;0.03;0.967005;0.251851;0.005985;116.9;0.0;0.0;9.5;0.0;0.0
4.0;1753880849.924646;15.5002;0.63;-1.07;0.04;0.967135;0.249894;0.006805;114.7;0.0;0.0;10.1;0.0;0.0
4.0;1753880849.929259;15.52729;0.76;-1.03;0.07;0.965922;0.250709;0.006197;114.2;0.0;0.0;10.7;0.0;0.0
4.0;1753880849.933872;15.535587;0.58;-1.19;0.1;0.966031;0.25013;0.006751;120.6;0.0;0.0;9.8;0.0;0.0
4.0;1753880849.938485;15.523307;0.57;-1.15;0.04;0.966478;0.250612;0.00574;118.3;0.0;0.0;11.1;0.0;0.0
4.0;1753880849.943098;15.523712;0.64;-1.27;0.07;0.965811;0.249279;0.006902;114.1;0.0;0.0;9.9;0.0;0.0
4.0;1753880849.947711;15.490733;0.61;-1.06;0.01;0.96699;0.250685;0.005664;119.2;0.0;0.0;8.8;0.0;0.0
4.0;1753880849.952324;15.536372;0.66;-1.05;0.01;0.967392;0.24955;0.006891;119.8;0.0;0.0;9.0;0.0;0.0
4.0;1753880849.956936;15.488513;0.63;-1.01;0.02;0.967354;0.250379;0.006703;117.5;0.0;0.0;14.7;0.0;0.0
4.0;1753880849.96155;15.507509;0.55;-1.08;0.0;0.965462;0.250779;0.006133;120.5;0.0;0.0;8.2;0.0;0.0
4.0;1753880849.966162;15.527096;0.62;-1.18;-0.05;0.966954;0.250189;0.008166;119.7;0.0;0.0;12.3;0.0;0.0
4.0;1753880849.970775;15.479643;0.59;-1.17;0.08;0.965685;0.249105;0.006895;120.0;0.0;0.0;12.5;0.0;0.0
4.0;1753880849.975388;15.525691;0.69;-1.09;-0.06;0.966629;0.250884;0.004917;121.5;0.0;0.0;8.5;0.0;0.0
4.0;1753880849.980001;15.505753;0.49;-1.14;0.07;0.96797;0.251434;0.006663;112.7;0.0;0.0;5.4;0.0;0.0
4.0;1753880849.984614;15.523912;0.59;-1.07;-0.08;0.96745;0.251897;0.007241;117.2;0.0;0.0;12.1;0.0;0.0
4.0;1753880849.989227;15.515092;0.62;-1.15;0.03;0.966329;0.250964;0.007034;120.2;0.0;0.0;10.0;0.0;0.0
4.0;1753880849.9976;15.515625;0.63;-1.12;0.0;0.966728;0.250588;0.006954;118.0;0.0;0.0;11.0;0.0;0.0
4.0;1753880850.002213;15.519957;0.69;-1.12;-0.05;0.966661;0.252564;0.007718;114.7;0.0;0.0;11.7;0.0;0.0
4.0;1753880850.006826;15.510526;0.63;-1.13;-0.07;0.966824;0.249453;0.007008;129.2;0.0;0.0;10.6;0.0;0.0
4.0;1753880850.011439;15.512709;0.64;-1.22;-0.01;0.966136;0.250596;0.007259;123.6;0.0;0.0;11.5;0.0;0.0
4.0;1753880850.016052;15.510299;0.58;-1.09;0.05;0.967299;0.252871;0.006716;116.9;0.0;0.0;11.2;0.0;0.0
4.0;1753880850.020665;15.517;0.67;-1.07;0.06;0.966123;0.248772;0.005444;120.9;0.0;0.0;10.6;0.0;0.0
4.0;1753880850.025278;15.51491;0.66;-1.09;-0.05;0.966259;0.250054;0.006722;118.4;0.0;0.0;11.1;0.0;0.0
4.0;1753880850.02989;15.513312;0.69;-1.02;0.02;0.967092;0.250132;0.007374;120.2;0.0;0.0;10.7;0.0;0.0
4.0;1753880850.034504;15.514211;0.71;-1.07;-0.0;0.965753;0.248333;0.007079;122.0;0.0;0.0;10.6;0.0;0.0
4.0;1753880850.039116;15.504204;0.63;-1.1;-0.08;0.967011;0.249035;0.007488;117.0;0.0;0.0;11.8;0.0;0.0
4.0;1753880850.043729;15.518943;0.58;-1.15;-0.11;0.967272;0.248527;0.007352;114.5;0.0;0.0;11.0;0.0;0.0
4.0;1753880850.048342;15.511225;0.7;-1.2;-0.03;0.966695;0.249523;0.00618;126.4;0.0;0.0;11.2;0.0;0.0
4.0;1753880850.052955;15.496917;0.71;-1.21;-0.02;0.967373;0.250152;0.00705;112.8;0.0;0.0;10.0;0.0;0.0
4.0;1753880850.057568;15.516729;0.6;-1.19;0.1;0.967579;0.248665;0.006953;116.5;0.0;0.0;10.4;0.0;0.0
4.0;1753880850.062181;15.522793;0.53;-1.1;-0.01;0.966414;0.252435;0.006538;124.3;0.0;0.0;11.5;0.0;0.0
4.0;1753880850.066794;15.513195;0.46;-0.97;-0.05;0.966286;0.250855;0.006618;122.4;0.0;0.0;11.2;0.0;0.0
4.0;1753880850.071407;15.516603;0.69;-1.18;0.04;0.966375;0.248742;0.00745;121.2;0.0;0.0;10.5;0.0;0.0
4.0;1753880850.07602;15.513205;0.56;-1.14;-0.0;0.965557;0.249196;0.006108;118.1;0.0;0.0;11.2;0.0;0.0
4.0;1753880850.080633;15.520483;0.52;-1.08;0.0;0.966088;0.253895;0.007072;123.8;0.0;0.0;11.5;0.0;0.0
4.0;1753880850.085246;15.519456;0.69;-1.08;-0.1;0.966619;0.248094;0.006601;122.0;0.0;0.0;10.8;0.0;0.0
4.0;1753880850.089858;15.523897;0.58;-1.15;-0.01;0.965707;0.249398;0.007104;108.8;0.0;0.0;10.7;0.0;0.0
4.0;1753880850.094472;15.5215;0.6;-1.15;0.01;0.96615;0.247684;0.006937;117.2;0.0;0.0;10.8;0.0;0.0
4.0;1753880850.099084;15.516817;0.53;-1.24;-0.08;0.966335;0.250988;0.006156;118.8;0.0;0.0;10.9;0.0;0.0
4.0;1753880850.103697;15.51538;0.56;-1.07;0.01;0.965892;0.250037;0.006789;119.4;0.0;0.0;11.0;0.0;0.0
4.0;1753880850.10831;15.508672;0.77;-1.05;-0.11;0.964772;0.249684;0.007878;120.3;0.0;0.0;10.4;0.0;0.0
4.0;1753880850.112923;15.517189;0.62;-1.19;0.04;0.967147;0.248397;0.007991;120.5;0.0;0.0;10.6;0.0;0.0
4.0;1753880850.117536;15.513776;0.67;-1.2;-0.05;0.965983;0.249438;0.007735;120.3;0.0;0.0;10.3;0.0;0.0
4.0;1753880850.122149;15.515453;0.47;-1.14;-0.04;0.965969;0.24985;0.006993;118.0;0.0;0.0;11.6;0.0;0.0
4.0;1753880850.126762;15.511585;0.68;-1.06;-0.08;0.965447;0.248918;0.00594;118.3;0.0;0.0;11.3;0.0;0.0
4.0;1753880850.131375;15.507451;0.61;-1.21;-0.07;0.966847;0.247544;0.007088;121.7;0.0;0.0;10.0;0.0;0.0
4.0;1753880850.135988;15.514526;0.66;-1.13;0.03;0.966449;0.247625;0.006444;121.8;0.0;0.0;10.9;0.0;0.0
4.0;1753880850.140601;15.505476;0.55;-1.11;0.06;0.965395;0.249675;0.007085;129.0;0.0;0.0;11.3;0.0;0.0
4.0;1753880850.145214;15.512914;0.68;-1.09;0.03;0.96575;0.250688;0.007355;119.0;0.0;0.0;10.7;0.0;0.0
4.0;1753880850.149826;15.5254;0.63;-1.13;-0.03;0.966163;0.249568;0.006643;115.5;0.0;0.0;11.1;0.0;0.0
4.0;1753880850.15444;15.503484;0.59;-1.14;0.07;0.966454;0.246548;0.006989;122.5;0.0;0.0;11.5;0.0;0.0
4.0;1753880850.159052;15.516436;0.54;-1.2;-0.05;0.966654;0.249152;0.007219;116.6;0.0;0.0;10.9;0.0;0.0
4.0;1753880850.163665;15.515336;0.63;-1.2;0.02;0.965888;0.247888;0.006735;119.1;0.0;0.0;10.6;0.0;0.0
4.0;1753880850.168278;15.515925;0.6;-1.19;0.0;0.96489;0.248532;0.007182;123.5;0.0;0.0;12.0;0.0;0.0
4.0;1753880850.172891;15.520009;0.55;-1.08;0.05;0.966911;0.249859;0.00697;133.6;0.0;0.0;11.3;0.0;0.0
4.0;1753880850.177504;15.521723;0.69;-1.12;0.01;0.966086;0.249581;0.007288;130.2;0.0;0.0;11.0;0.0;0.0
4.0;1753880850.182117;15.516792;0.7;-1.18;0.05;0.965873;0.248771;0.007122;120.4;0.0;0.0;11.0;0.0;0.0
4.0;1753880850.18673;15.513036;0.59;-1.09;-0.02;0.96424;0.248051;0.007489;122.8;0.0;0.0;11.8;0.0;0.0
4.0;1753880850.191343;15.509997;0.49;-1.02;0.01;0.965524;0.248807;0.006022;116.9;0.0;0.0;10.6;0.0;0.0
4.0;1753880850.195956;15.507499;0.58;-1.17;0.04;0.966223;0.249154;0.007468;122.0;0.0;0.0;11.6;0.0;0.0
4.0;1753880850.200569;15.51669;0.61;-1.05;0.02;0.966855;0.250751;0.007166;112.9;0.0;0.0;11.0;0.0;0.0
4.0;1753880850.205182;15.525241;0.57;-1.14;-0.06;0.965347;0.247094;0.007569;132.0;0.0;0.0;10.9;0.0;0.0
4.0;1753880850.209794;15.515089;0.61;-1.17;-0.04;0.965622;0.24746;0.00714;122.0;0.0;0.0;11.2;0.0;0.0
4.0;1753880850.214408;15.509312;0.56;-1.19;-0.01;0.964329;0.249173;0.006828;130.7;0.0;0.0;11.5;0.0;0.0
4.0;1753880850.21902;15.516604;0.56;-1.13;-0.07;0.96602;0.249538;0.00709;129.3;0.0;0.0;11.8;0.0;0.0
4.0;1753880850.223633;15.518887;0.56;-1.11;0.06;0.96621;0.249984;0.00672;130.6;0.0;0.0;10.9;0.0;0.0
4.0;1753880850.228246;15.509448;0.62;-1.13;-0.06;0.965687;0.247734;0.006465;117.8;0.0;0.0;10.4;0.0;0.0
4.0;1753880850.232859;15.518858;0.49;-1.07;0.09;0.965504;0.246888;0.007205;116.7;0.0;0.0;11.1;0.0;0.0
4.0;1753880850.237472;15.512609;0.59;-1.04;-0.04;0.965667;0.248769;0.006603;122.8;0.0;0.0;10.0;0.0;0.0
4.0;1753880850.242085;15.515219;0.51;-1.12;-0.06;0.9662;0.249389;0.007175;128.2;0.0;0.0;10.3;0.0;0.0
4.0;1753880850.246698;15.515905;0.47;-1.15;0.0;0.965228;0.248516;0.006628;119.2;0.0;0.0;11.5;0.0;0.0
4.0;1753880850.251311;15.511898;0.65;-1.1;0.05;0.965322;0.24825;0.006318;126.7;0.0;0.0;11.9;0.0;0.0
4.0;1753880850.255924;15.518246;0.6;-1.12;-0.0;0.965238;0.247354;0.005971;111.8;0.0;0.0;11.1;0.0;0.0
4.0;1753880850.260537;15.519232;0.67;-1.19;-0.03;0.964787;0.249883;0.006874;124.1;0.0;0.0;10.8;0.0;0.0
4.0;1753880850.26515;15.51431;0.57;-1.11;0.07;0.96606;0.246877;0.006299;127.4;0.0;0.0;10.5;0.0;0.0
4.0;1753880850.269762;15.505518;0.44;-1.08;-0.05;0.966374;0.247656;0.006286;126.0;0.0;0.0;10.3;0.0;0.0
4.0;1753880850.274376;15.523184;0.69;-1.14;-0.0;0.966067;0.247356;0.006736;127.5;0.0;0.0;10.9;0.0;0.0
4.0;1753880850.278988;15.532521;0.65;-1.21;-0.07;0.964392;0.24891;0.007673;119.8;0.0;0.0;11.3;0.0;0.0
4.0;1753880850.283601;15.513993;0.59;-1.1;-0.09;0.96505;0.24859;0.006784;122.6;0.0;0.0;11.5;0.0;0.0
4.0;1753880850.288214;15.510805;0.59;-1.15;-0.0;0.96531;0.248421;0.007432;126.5;0.0;0.0;10.9;0.0;0.0
4.0;1753880850.292827;15.512767;0.61;-1.25;0.09;0.964556;0.247268;0.0061;123.4;0.0;0.0;11.4;0.0;0.0
4.0;1753880850.29744;15.524104;0.51;-1.01;0.11;0.964591;0.245691;0.007269;118.3;0.0;0.0;10.8;0.0;0.0
4.0;1753880850.302053;15.514153;0.44;-1.21;-0.03;0.964764;0.247512;0.005949;119.6;0.0;0.0;11.6;0.0;0.0
4.0;1753880850.306666;15.514674;0.53;-1.03;0.04;0.965424;0.249227;0.006804;128.3;0.0;0.0;10.6;0.0;0.0
4.0;1753880850.311279;15.518374;0.54;-1.11;-0.03;0.965603;0.246772;0.00824;123.5;0.0;0.0;11.1;0.0;0.0
4.0;1753880850.315892;15.514324;0.58;-1.15;-0.02;0.965415;0.248144;0.007068;125.2;0.0;0.0;10.9;0.0;0.0
4.0;1753880850.320505;15.511634;0.53;-1.15;-0.02;0.964447;0.248507;0.00733;124.6;0.0;0.0;11.4;0.0;0.0
4.0;1753880850.325118;15.512189;0.61;-1.21;-0.1;0.964609;0.246968;0.006854;112.3;0.0;0.0;11.7;0.0;0.0
4.0;1753880850.32973;15.520286;0.57;-1.09;-0.07;0.964868;0.247724;0.007196;122.3;0.0;0.0;11.2;0.0;0.0
4.0;1753880850.334344;15.527024;0.57;-1.05;0.05;0.963466;0.247991;0.006478;124.4;0.0;0.0;11.1;0.0;0.0
4.0;1753880850.338956;15.514796;0.52;-1.0;0.07;0.964799;0.247737;0.007483;114.4;0.0;0.0;10.7;0.0;0.0
4.0;1753880850.343569;15.513124;0.62;-1.09;0.04;0.964621;0.247106;0.006293;119.6;0.0;0.0;12.1;0.0;0.0
4.0;1753880850.348182;15.511079;0.56;-1.11;-0.02;0.965122;0.248734;0.00721;129.6;0.0;0.0;11.0;0.0;0.0
4.0;1753880850.352795;15.518344;0.62;-1.06;-0.02;0.964784;0.248126;0.006509;131.9;0.0;0.0;11.4;0.0;0.0
4.0;1753880850.3605;15.515625;0.56;-1.12;0.0;0.965142;0.247294;0.006832;124.0;0.0;0.0;11.0;0.0;0.0
4.0;1753880850.365113;15.511693;0.62;-1.15;0.02;0.965309;0.246462;0.006777;127.3;0.0;0.0;10.9;0.0;0.0
4.0;1753880850.369726;15.506412;0.6;-1.09;0.08;0.965494;0.249183;0.004965;134.1;0.0;0.0;10.5;0.0;0.0
4.0;1753880850.374339;15.51117;0.61;-1.06;0.05;0.964877;0.246504;0.007436;120.1;0.0;0.0;10.9;0.0;0.0
4.0;1753880850.378952;15.514231;0.59;-1.18;-0.05;0.964943;0.247393;0.00732;124.9;0.0;0.0;10.8;0.0;0.0
4.0;1753880850.383565;15.517974;0.58;-1.18;-0.04;0.966343;0.248102;0.006507;121.4;0.0;0.0;10.8;0.0;0.0
4.0;1753880850.388178;15.505706;0.63;-1.03;0.05;0.963897;0.244964;0.006429;129.6;0.0;0.0;11.2;0.0;0.0
4.0;1753880850.39279;15.520902;0.57;-1.13;0.05;0.965331;0.247345;0.007325;117.9;0.0;0.0;11.4;0.0;0.0
4.0;1753880850.397404;15.517661;0.55;-1.02;0.05;0.965661;0.248565;0.007399;117.5;0.0;0.0;10.2;0.0;0.0
4.0;1753880850.402016;15.521075;0.48;-1.18;0.06;0.964869;0.250126;0.006718;127.2;0.0;0.0;11.9;0.0;0.0
4.0;1753880850.406629;15.521397;0.61;-1.12;0.01;0.964472;0.248912;0.006928;127.2;0.0;0.0;10.8;0.0;0.0
4.0;1753880850.411242;15.518086;0.57;-1.03;-0.01;0.965092;0.247846;0.007088;125.2;0.0;0.0;11.8;0.0;0.0
4.0;1753880850.415855;15.514443;0.57;-1.08;-0.03;0.964752;0.248081;0.00803;126.8;0.0;0.0;10.5;0.0;0.0
4.0;1753880850.420468;15.514579;0.53;-1.14;-0.07;0.964756;0.248459;0.006018;123.8;0.0;0.0;10.9;0.0;0.0
4.0;1753880850.425081;15.520174;0.61;-1.11;-0.08;0.964238;0.249014;0.005337;133.4;0.0;0.0;11.2;0.0;0.0
4.0;1753880850.429694;15.520871;0.55;-1.08;0.04;0.964422;0.247225;0.007455;116.4;0.0;0.0;10.6;0.0;0.0
4.0;1753880850.434307;15.518532;0.61;-1.07;0.02;0.965894;0.249107;0.007091;127.3;0.0;0.0;10.5;0.0;0.0
4.0;1753880850.43892;15.512708;0.58;-1.16;0.01;0.964726;0.247621;0.007168;129.8;0.0;0.0;12.3;0.0;0.0
4.0;1753880850.443533;15.515266;0.49;-1.04;0.08;0.965265;0.249067;0.007694;125.2;0.0;0.0;11.2;0.0;0.0
4.0;1753880850.448146;15.504742;0.66;-1.14;0.04;0.96545;0.248887;0.0072;121.4;0.0;0.0;11.5;0.0;0.0
4.0;1753880850.452758;15.522466;0.68;-1.09;-0.03;0.966232;0.249514;0.006002;125.6;0.0;0.0;10.8;0.0;0.0
4.0;1753880850.457372;15.502776;0.58;-1.08;0.01;0.963613;0.248515;0.007217;121.7;0.0;0.0;11.2;0.0;0.0
4.0;1753880850.461984;15.520646;0.6;-1.17;-0.04;0.965302;0.248731;0.007662;128.0;0.0;0.0;11.3;0.0;0.0
4.0;1753880850.466597;15.51772;0.55;-1.19;0.04;0.965127;0.249935;0.006703;123.2;0.0;0.0;11.3;0.0;0.0
4.0;1753880850.47121;15.513263;0.61;-1.11;-0.07;0.966136;0.250002;0.00647;125.4;0.0;0.0;11.6;0.0;0.0
4.0;1753880850.475823;15.516304;0.6;-1.08;-0.03;0.964727;0.249782;0.006268;117.5;0.0;0.0;10.6;0.0;0.0
4.0;1753880850.480436;15.52013;0.54;-1.17;-0.07;0.965213;0.247981;0.008111;132.1;0.0;0.0;11.4;0.0;0.0
4.0;1753880850.485049;15.510508;0.59;-1.26;-0.01;0.965027;0.250823;0.006744;123.5;0.0;0.0;10.6;0.0;0.0
4.0;1753880850.489662;15.50896;0.65;-1.13;0.03;0.965095;0.248985;0.005778;126.6;0.0;0.0;10.9;0.0;0.0
4.0;1753880850.494275;15.517409;0.63;-1.08;0.02;0.965791;0.249614;0.005068;121.3;0.0;0.0;9.5;0.0;0.0
4.0;1753880850.498888;15.514564;0.5;-1.11;0.05;0.964819;0.247599;0.006903;117.9;0.0;0.0;10.1;0.0;0.0
4.0;1753880850.503501;15.518503;0.65;-1.18;-0.03;0.964867;0.247826;0.007633;125.8;0.0;0.0;11.0;0.0;0.0
4.0;1753880850.508114;15.513811;0.6;-1.13;0.04;0.964261;0.248862;0.005785;118.2;0.0;0.0;10.8;0.0;0.0
4.0;1753880850.512726;15.512523;0.71;-1.15;-0.04;0.965262;0.249306;0.006626;124.2;0.0;0.0;11.4;0.0;0.0
4.0;1753880850.51734;15.518822;0.47;-1.05;-0.07;0.964715;0.250755;0.0081;134.0;0.0;0.0;11.3;0.0;0.0
4.0;1753880850.521952;15.51335;0.59;-1.09;-0.12;0.965588;0.248551;0.005013;131.9;0.0;0.0;10.1;0.0;0.0
4.0;1753880850.526565;15.523226;0.61;-1.03;0.1;0.964468;0.249464;0.006334;127.4;0.0;0.0;10.7;0.0;0.0
4.0;1753880850.531178;15.523559;0.58;-1.13;0.01;0.965792;0.250472;0.006284;127.2;0.0;0.0;11.3;0.0;0.0
4.0;1753880850.535791;15.518159;0.62;-1.08;-0.01;0.964738;0.249331;0.006032;127.5;0.0;0.0;11.6;0.0;0.0
4.0;1753880850.540404;15.511324;0.64;-1.17;0.04;0.964979;0.249506;0.005397;128.4;0.0;0.0;11.3;0.0;0.0
4.0;1753880850.545017;15.505558;0.57;-1.14;-0.07;0.964987;0.250452;0.006491;123.1;0.0;0.0;11.2;0.0;0.0
4.0;1753880850.54963;15.512131;0.67;-1.13;-0.02;0.965309;0.250972;0.006824;133.2;0.0;0.0;10.1;0.0;0.0
4.0;1753880850.554243;15.526687;0.52;-1.18;-0.05;0.965309;0.24891;0.006727;128.5;0.0;0.0;11.4;0.0;0.0
4.0;1753880850.558856;15.511669;0.6;-1.18;0.03;0.964691;0.248378;0.006988;127.0;0.0;0.0;10.6;0.0;0.0
4.0;1753880850.563469;15.517539;0.68;-1.08;-0.02;0.96535;0.249387;0.006659;127.8;0.0;0.0;11.3;0.0;0.0
4.0;1753880850.568082;15.521426;0.6;-1.13;0.05;0.965089;0.250042;0.007551;124.6;0.0;0.0;10.5;0.0;0.0
4.0;1753880850.572694;15.516409;0.62;-1.11;0.04;0.964949;0.252534;0.006557;129.8;0.0;0.0;11.7;0.0;0.0
4.0;1753880850.577308;15.521642;0.57;-1.08;-0.01;0.965112;0.25254;0.007001;129.5;0.0;0.0;10.5;0.0;0.0
4.0;1753880850.58192;15.524963;0.57;-1.06;0.01;0.966745;0.249675;0.00759;124.3;0.0;0.0;10.5;0.0;0.0
4.0;1753880850.586533;15.521172;0.56;-1.14;0.03;0.965524;0.251177;0.007024;121.3;0.0;0.0;11.0;0.0;0.0
4.0;1753880850.591146;15.519689;0.55;-1.05;0.01;0.964802;0.253882;0.006386;125.7;0.0;0.0;11.7;0.0;0.0
4.0;1753880850.595759;15.501401;0.7;-1.13;0.02;0.964493;0.252015;0.006538;125.5;0.0;0.0;10.9;0.0;0.0
4.0;1753880850.600372;15.522174;0.67;-1.09;0.04;0.966051;0.250597;0.007509;121.0;0.0;0.0;11.2;0.0;0.0
4.0;1753880850.604985;15.520983;0.6;-1.17;0.06;0.96733;0.250725;0.006042;126.8;0.0;0.0;11.5;0.0;0.0
4.0;1753880850.609598;15.526069;0.57;-1.04;0.03;0.965312;0.249032;0.005874;125.3;0.0;0.0;11.0;0.0;0.0
4.0;1753880850.614211;15.513403;0.61;-1.14;-0.14;0.966344;0.252836;0.007314;125.1;0.0;0.0;11.0;0.0;0.0
4.0;1753880850.618824;15.511434;0.66;-1.09;0.04;0.964601;0.251983;0.006544;125.1;0.0;0.0;11.1;0.0;0.0
4.0;1753880850.623437;15.508315;0.58;-1.19;-0.04;0.965342;0.25165;0.007308;125.3;0.0;0.0;11.4;0.0;0.0
4.0;1753880850.62805;15.509993;0.57;-1.11;-0.01;0.965137;0.252081;0.00784;126.2;0.0;0.0;11.2;0.0;0.0
4.0;1753880850.632662;15.521469;0.68;-1.1;-0.01;0.9657;0.249858;0.006404;123.3;0.0;0.0;11.8;0.0;0.0
4.0;1753880850.6412;15.515625;0.63;-1.12;0.0;0.96502;0.251564;0.00671;124.0;0.0;0.0;11.0;0.0;0.0
4.0;1753880850.645813;15.515316;0.6;-1.18;0.03;0.965657;0.251045;0.007266;126.3;0.0;0.0;10.8;0.0;0.0
4.0;1753880850.650426;15.506637;0.68;-1.09;-0.04;0.965211;0.251194;0.005994;124.2;0.0;0.0;12.3;0.0;0.0
4.0;1753880850.655039;15.510841;0.59;-1.1;-0.01;0.964909;0.251005;0.00614;122.7;0.0;0.0;12.6;0.0;0.0
4.0;1753880850.659652;15.520047;0.67;-1.13;0.0;0.964981;0.248294;0.005673;120.5;0.0;0.0;11.7;0.0;0.0
4.0;1753880850.664265;15.507451;0.7;-1.17;0.1;0.967198;0.248199;0.006109;122.0;0.0;0.0;11.0;0.0;0.0
4.0;1753880850.668878;15.502671;0.65;-1.1;0.03;0.966256;0.247624;0.005463;125.7;0.0;0.0;12.7;0.0;0.0
4.0;1753880850.67349;15.505987;0.56;-1.12;0.11;0.964744;0.246803;0.005595;120.8;0.0;0.0;12.8;0.0;0.0
4.0;1753880850.678104;15.505485;0.74;-1.11;0.0;0.965911;0.248406;0.004857;121.5;0.0;0.0;12.0;0.0;0.0
4.0;1753880850.682716;15.509867;0.73;-1.13;0.11;0.964295;0.245005;0.006746;121.9;0.0;0.0;11.5;0.0;0.0
4.0;1753880850.68912;15.507812;0.7;-1.12;0.07;0.965264;0.24705;0.005612;123.0;0.0;0.0;13.0;0.0;0.0
4.0;1753880850.693733;15.510911;0.64;-1.15;0.09;0.966151;0.251009;0.005904;128.9;0.0;0.0;13.2;0.0;0.0
4.0;1753880850.70119;15.507812;0.56;-1.12;0.07;0.965996;0.252662;0.005978;123.0;0.0;0.0;13.0;0.0;0.0
4.0;1753880850.705803;15.508075;0.59;-1.13;0.17;0.965496;0.249811;0.006194;127.9;0.0;0.0;13.4;0.0;0.0
4.0;1753880850.710416;15.502372;0.57;-1.1;0.09;0.964819;0.252325;0.006331;123.8;0.0;0.0;12.5;0.0;0.0
4.0;1753880850.715029;15.503686;0.37;-1.22;0.08;0.964745;0.253233;0.006095;124.0;0.0;0.0;12.6;0.0;0.0
4.0;1753880850.719642;15.50216;0.46;-1.11;0.03;0.967001;0.25009;0.005665;120.1;0.0;0.0;13.8;0.0;0.0
4.0;1753880850.724254;15.494387;0.48;-1.12;-0.0;0.964177;0.249541;0.00465;123.2;0.0;0.0;11.7;0.0;0.0
4.0;1753880850.728868;15.485355;0.48;-1.07;0.05;0.967187;0.247605;0.006734;118.3;0.0;0.0;13.3;0.0;0.0
4.0;1753880850.73348;15.491967;0.47;-1.18;0.04;0.96452;0.250232;0.004907;122.7;0.0;0.0;12.8;0.0;0.0
4.0;1753880850.738094;15.502631;0.66;-1.1;0.07;0.966505;0.2473;0.005184;117.6;0.0;0.0;13.4;0.0;0.0
4.0;1753880850.742706;15.500327;0.41;-1.1;-0.06;0.965706;0.247565;0.005159;126.5;0.0;0.0;14.7;0.0;0.0
4.0;1753880850.747319;15.498391;0.51;-1.12;0.08;0.965424;0.249404;0.006291;126.7;0.0;0.0;12.3;0.0;0.0
4.0;1753880850.751932;15.477608;0.47;-1.1;-0.05;0.966701;0.249421;0.007369;125.6;0.0;0.0;12.8;0.0;0.0
4.0;1753880850.75741;15.484375;0.49;-1.12;0.0;0.965752;0.247172;0.005978;123.0;0.0;0.0;13.0;0.0;0.0
4.0;1753880850.762023;15.466198;0.57;-1.09;0.09;0.964777;0.247831;0.005454;121.4;0.0;0.0;12.5;0.0;0.0
4.0;1753880850.766636;15.481416;0.38;-1.01;0.01;0.966585;0.250523;0.004744;120.4;0.0;0.0;13.0;0.0;0.0
4.0;1753880850.771249;15.473844;0.61;-1.07;0.0;0.965649;0.248071;0.006931;121.8;0.0;0.0;13.3;0.0;0.0
4.0;1753880850.775862;15.464883;0.5;-1.12;0.0;0.965347;0.247761;0.005411;125.2;0.0;0.0;12.7;0.0;0.0
4.0;1753880850.780475;15.480088;0.7;-1.08;0.07;0.966407;0.249316;0.005995;126.4;0.0;0.0;13.0;0.0;0.0
4.0;1753880850.785088;15.487781;0.63;-1.12;-0.01;0.96761;0.251273;0.005171;119.5;0.0;0.0;11.8;0.0;0.0
4.0;1753880850.79267;15.484375;0.63;-1.12;0.07;0.966606;0.251686;0.005856;123.0;0.0;0.0;13.0;0.0;0.0
4.0;1753880850.797283;15.479351;0.48;-1.1;0.07;0.966362;0.247852;0.005848;123.0;0.0;0.0;12.3;0.0;0.0
4.0;1753880850.801896;15.47875;0.63;-1.2;0.1;0.966585;0.250667;0.006054;121.0;0.0;0.0;11.9;0.0;0.0
4.0;1753880850.806509;15.491341;0.63;-1.15;0.06;0.964448;0.250037;0.006413;121.4;0.0;0.0;13.2;0.0;0.0
4.0;1753880850.811122;15.492377;0.47;-1.15;0.03;0.965341;0.249813;0.006705;119.7;0.0;0.0;13.1;0.0;0.0
4.0;1753880850.815734;15.491242;0.62;-1.12;0.09;0.965611;0.249485;0.006029;125.9;0.0;0.0;11.7;0.0;0.0
4.0;1753880850.820348;15.481697;0.61;-1.18;0.11;0.965795;0.249078;0.006788;125.1;0.0;0.0;12.2;0.0;0.0
4.0;1753880850.82496;15.486004;0.55;-1.18;0.09;0.965733;0.251346;0.007535;121.8;0.0;0.0;11.6;0.0;0.0
4.0;1753880850.829574;15.484925;0.68;-1.2;0.1;0.965496;0.247284;0.006249;122.9;0.0;0.0;13.8;0.0;0.0
4.0;1753880850.834186;15.500334;0.6;-1.17;0.09;0.964455;0.250102;0.005862;121.8;0.0;0.0;12.4;0.0;0.0
4.0;1753880850.8384;15.484375;0.56;-1.19;0.07;0.96441;0.247172;0.006588;123.0;0.0;0.0;13.0;0.0;0.0
4.0;1753880850.843013;15.484683;0.46;-1.14;0.1;0.96423;0.246976;0.007115;122.2;0.0;0.0;13.4;0.0;0.0
4.0;1753880850.847626;15.480596;0.55;-1.19;0.11;0.964626;0.246769;0.007386;123.9;0.0;0.0;13.0;0.0;0.0
4.0;1753880850.852239;15.486527;0.64;-1.19;-0.02;0.96379;0.246324;0.007663;123.7;0.0;0.0;12.5;0.0;0.0
4.0;1753880850.856852;15.477805;0.59;-1.14;0.11;0.96348;0.246287;0.006134;129.1;0.0;0.0;14.3;0.0;0.0
4.0;1753880850.861464;15.47809;0.54;-1.22;0.05;0.964892;0.249684;0.006073;118.9;0.0;0.0;11.9;0.0;0.0
4.0;1753880850.866078;15.484922;0.5;-1.19;-0.02;0.964018;0.247852;0.006563;120.5;0.0;0.0;13.4;0.0;0.0
4.0;1753880850.87069;15.491831;0.41;-1.23;0.09;0.964782;0.248651;0.006284;124.0;0.0;0.0;12.9;0.0;0.0
4.0;1753880850.875303;15.480762;0.6;-1.19;0.08;0.965184;0.249505;0.005732;124.2;0.0;0.0;12.1;0.0;0.0
4.0;1753880850.879916;15.475627;0.5;-1.22;0.08;0.965086;0.248155;0.006225;120.3;0.0;0.0;13.2;0.0;0.0
4.0;1753880850.884529;15.487099;0.53;-1.21;0.12;0.964878;0.247408;0.004732;123.2;0.0;0.0;12.8;0.0;0.0
4.0;1753880850.889142;15.474172;0.55;-1.2;0.02;0.965848;0.248365;0.006745;120.9;0.0;0.0;12.7;0.0;0.0
4.0;1753880850.893755;15.499175;0.51;-1.14;0.09;0.966022;0.251161;0.004551;124.2;0.0;0.0;14.0;0.0;0.0
4.0;1753880850.898368;15.484602;0.42;-1.19;0.14;0.964357;0.247434;0.005685;126.2;0.0;0.0;13.6;0.0;0.0
4.0;1753880850.902981;15.46799;0.52;-1.18;0.09;0.964993;0.249689;0.005364;119.5;0.0;0.0;12.5;0.0;0.0
4.0;1753880850.907594;15.488132;0.49;-1.22;0.02;0.965363;0.247677;0.006728;124.2;0.0;0.0;11.6;0.0;0.0
4.0;1753880850.91389;15.484375;0.49;-1.19;0.07;0.965752;0.249978;0.00549;123.0;0.0;0.0;13.0;0.0;0.0
4.0;1753880850.918503;15.493561;0.45;-1.12;0.04;0.964822;0.248369;0.005493;125.3;0.0;0.0;13.6;0.0;0.0
4.0;1753880850.923116;15.541247;0.64;-1.18;0.1;0.965166;0.248316;0.005844;129.3;0.0;0.0;12.0;0.0;0.0
4.0;1753880850.92875;15.542969;0.63;-1.12;0.14;0.965508;0.250344;0.006832;123.0;0.0;0.0;13.0;0.0;0.0
4.0;1753880850.933363;15.528949;0.68;-1.15;0.11;0.965823;0.251087;0.006225;130.4;0.0;0.0;14.2;0.0;0.0
4.0;1753880850.937976;15.524009;0.61;-1.16;0.15;0.965959;0.248181;0.005435;122.9;0.0;0.0;13.8;0.0;0.0
4.0;1753880850.942589;15.56373;0.59;-1.08;0.1;0.966641;0.248771;0.005744;123.6;0.0;0.0;12.6;0.0;0.0
4.0;1753880850.947202;15.53951;0.81;-1.1;0.08;0.966228;0.25107;0.005237;126.1;0.0;0.0;12.5;0.0;0.0
4.0;1753880850.951815;15.55972;0.72;-1.1;0.04;0.96583;0.251666;0.005299;129.1;0.0;0.0;12.6;0.0;0.0
4.0;1753880850.956428;15.54879;0.64;-1.16;0.04;0.966082;0.251803;0.004784;127.1;0.0;0.0;11.8;0.0;0.0
4.0;1753880850.96104;15.55314;0.67;-1.15;0.06;0.96606;0.246342;0.005972;123.9;0.0;0.0;12.5;0.0;0.0
4.0;1753880850.965654;15.557278;0.66;-1.17;0.05;0.966346;0.245578;0.00415;124.9;0.0;0.0;13.2;0.0;0.0
4.0;1753880850.970266;15.528317;0.68;-1.17;-0.04;0.965065;0.250404;0.00284;132.0;0.0;0.0;13.0;0.0;0.0
4.0;1753880850.97477;15.542969;0.63;-1.19;0.0;0.965874;0.24827;0.004392;123.0;0.0;0.0;13.0;0.0;0.0
4.0;1753880850.97557;15.550781;-3.01;-2.45;140.28;1.093608;0.105164;0.041846;92.0;0.0;0.0;3.0;0.0;0.0
4.0;1753880850.975774;15.550781;2.24;-5.88;150.43;0.888038;-0.191784;0.090524;92.0;0.0;0.0;3.0;0.0;0.0
4.0;1753880850.981911;15.550781;2.8;-6.09;155.89;0.93818;-0.442982;-0.027206;92.0;0.0;0.0;3.0;0.0;0.0
4.0;1753880850.98487;15.507812;-0.07;-5.88;150.08;0.915488;-0.376004;0.019032;92.0;0.0;0.0;3.0;0.0;0.0
4.0;1753880850.991093;15.507812;0.77;-4.34;152.32;0.978196;-0.217038;0.037576;92.0;0.0;0.0;3.0;0.0;0.0
4.0;1753880850.994096;15.507812;2.03;-3.71;157.71;0.978196;-0.217038;0.037576;92.0;0.0;0.0;3.0;0.0;0.0
4.0;1753880850.998564;15.507812;3.36;-4.13;159.88;0.901214;-0.39955;-0.019276;92.0;0.0;0.0;3.0;0.0;0.0
4.0;1753880851.003177;15.485504;2.32;-2.06;148.81;0.955805;-0.378011;0.027626;94.6;0.0;0.0;2.9;0.0;0.0
4.0;1753880851.00779;15.463514;6.73;-1.53;146.1;1.01019;-0.62806;-0.018478;90.0;0.0;0.0;3.1;0.0;0.0
4.0;1753880851.012403;15.532598;1.03;-5.38;201.8;0.747789;-0.263239;-0.048363;93.7;0.0;0.0;3.1;0.0;0.0
4.0;1753880851.017016;15.532662;1.13;-3.3;157.74;0.944098;-0.441924;0.044017;93.6;0.0;0.0;3.2;0.0;0.0
4.0;1753880851.021628;15.512563;7.61;-0.03;181.65;0.994295;-0.466325;-0.039364;91.9;0.0;0.0;3.1;0.0;0.0
4.0;1753880851.026242;15.507891;2.97;-7.46;157.77;0.821438;-0.46383;-0.067491;93.2;0.0;0.0;2.7;0.0;0.0
4.0;1753880851.030854;15.48787;6.75;-5.69;133.0;0.652731;-0.606119;-0.007655;91.1;0.0;0.0;3.7;0.0;0.0
4.0;1753880851.035468;15.521869;-0.74;-4.79;211.2;0.817843;-0.32656;0.070307;90.0;0.0;0.0;2.9;0.0;0.0
4.0;1753880851.04008;15.515491;3.89;-5.44;127.51;0.792614;-0.524752;0.02441;91.2;0.0;0.0;2.5;0.0;0.0
4.0;1753880851.044693;15.493679;4.54;-5.78;157.97;0.724025;-0.684069;0.051157;94.3;0.0;0.0;1.6;0.0;0.0
4.0;1753880851.049306;15.527823;5.3;-9.23;150.01;0.864998;-0.9481;-0.000468;91.0;0.0;0.0;2.6;0.0;0.0
4.0;1753880851.053919;15.532194;-0.16;-3.74;112.36;1.031926;0.05202;0.054334;93.5;0.0;0.0;2.9;0.0;0.0
4.0;1753880851.058532;15.533378;3.87;-2.71;181.87;0.929004;-0.427897;-0.026906;91.1;0.0;0.0;4.2;0.0;0.0
4.0;1753880851.063145;15.491671;3.67;-2.59;156.21;0.863974;-0.380246;-0.033788;91.6;0.0;0.0;2.7;0.0;0.0
4.0;1753880851.067758;15.530619;5.73;-4.58;188.74;0.872977;-0.33319;0.040683;91.0;0.0;0.0;2.9;0.0;0.0
4.0;1753880851.072371;15.508944;5.51;-5.44;143.15;0.790364;-0.307737;-0.031734;90.2;0.0;0.0;3.3;0.0;0.0
4.0;1753880851.076984;15.517651;1.9;-5.69;194.72;0.999679;-0.332307;-0.040708;88.1;0.0;0.0;4.2;0.0;0.0
4.0;1753880851.081596;15.486153;0.43;-3.14;179.51;0.784519;-0.288812;0.003583;86.8;0.0;0.0;3.5;0.0;0.0
4.0;1753880851.08621;15.527208;2.27;-3.21;155.77;0.723207;-0.072694;-0.023359;88.0;0.0;0.0;4.0;0.0;0.0
4.0;1753880851.090822;15.516288;3.17;-2.96;144.68;0.707576;-0.533931;0.018458;91.9;0.0;0.0;3.5;0.0;0.0
4.0;1753880851.095436;15.50572;4.67;-7.16;138.62;0.918204;-0.354683;-0.130566;91.2;0.0;0.0;3.4;0.0;0.0
4.0;1753880851.100048;15.526197;1.6;-2.29;134.3;1.024361;0.150879;0.033012;93.1;0.0;0.0;2.6;0.0;0.0
4.0;1753880851.104661;15.513284;4.13;-0.56;165.76;1.00774;-0.679215;-0.071592;90.4;0.0;0.0;2.7;0.0;0.0
4.0;1753880851.109274;15.516558;-0.24;-4.24;137.02;0.801175;-0.609254;-0.009659;89.9;0.0;0.0;3.3;0.0;0.0
4.0;1753880851.113887;15.524001;0.67;-3.68;132.67;1.009607;-0.060509;-0.020217;88.6;0.0;0.0;3.2;0.0;0.0
4.0;1753880851.1185;15.530429;4.59;-1.7;167.13;0.868007;-1.009835;0.047358;91.6;0.0;0.0;2.6;0.0;0.0
4.0;1753880851.123113;15.528751;-0.23;-7.45;147.13;0.904708;-0.362171;0.012665;93.1;0.0;0.0;3.7;0.0;0.0
4.0;1753880851.127726;15.49022;5.72;-5.81;153.5;0.878508;-0.902142;-0.008838;90.2;0.0;0.0;3.1;0.0;0.0
4.0;1753880851.132339;15.534597;1.12;-2.98;155.55;0.851643;-0.62277;-0.035957;90.9;0.0;0.0;2.7;0.0;0.0
4.0;1753880851.136952;15.55654;3.34;-2.26;185.48;0.81303;-0.292392;0.066541;91.7;0.0;0.0;2.2;0.0;0.0
4.0;1753880851.141564;15.543509;3.61;-3.69;165.25;0.854166;0.090718;0.009283;88.8;0.0;0.0;2.9;0.0;0.0
4.0;1753880851.146178;15.55154;4.31;-5.47;156.66;0.957511;-0.415471;0.047752;90.0;0.0;0.0;3.2;0.0;0.0
4.0;1753880851.15079;15.524414;4.37;-4.06;157.12;0.912754;0.06668;-0.010789;88.9;0.0;0.0;2.7;0.0;0.0
4.0;1753880851.155404;15.52445;-0.02;-6.08;141.37;0.825231;-0.116175;-0.046216;90.2;0.0;0.0;2.9;0.0;0.0
4.0;1753880851.160016;15.554136;-1.2;-6.32;187.82;0.735283;-0.207392;-0.080626;90.5;0.0;0.0;3.6;0.0;0.0
4.0;1753880851.164629;15.533672;3.06;-4.64;166.09;1.045951;-0.246042;0.00627;92.0;0.0;0.0;2.7;0.0;0.0
4.0;1753880851.169242;15.497836;2.51;-6.08;174.41;0.8234;-0.342681;0.006976;90.9;0.0;0.0;3.6;0.0;0.0
4.0;1753880851.173855;15.508284;5.71;0.42;144.91;0.934832;-0.71422;0.030139;93.1;0.0;0.0;2.9;0.0;0.0
4.0;1753880851.178468;15.514478;-1.5;-5.41;187.95;0.787435;0.188633;-0.076895;88.3;0.0;0.0;3.7;0.0;0.0
4.0;1753880851.183081;15.522335;2.65;-1.33;160.26;0.897217;-1.198894;0.019614;90.5;0.0;0.0;3.0;0.0;0.0
4.0;1753880851.187694;15.529468;7.87;-3.53;118.31;0.958884;-0.315383;-0.022251;88.3;0.0;0.0;2.3;0.0;0.0
4.0;1753880851.192307;15.538197;1.7;-2.5;173.12;0.896248;-0.068531;0.060219;89.6;0.0;0.0;3.2;0.0;0.0
4.0;1753880851.19692;15.553424;5.68;-2.3;134.84;0.816754;-0.954143;-0.004385;89.9;0.0;0.0;3.5;0.0;0.0
4.0;1753880851.201532;15.526642;4.28;-2.52;114.37;1.012381;-0.669603;-0.004437;90.1;0.0;0.0;3.5;0.0;0.0
4.0;1753880851.206146;15.514679;1.66;-8.49;167.44;0.981129;-0.627852;0.026684;91.8;0.0;0.0;3.1;0.0;0.0
4.0;1753880851.210758;15.521903;7.66;-2.02;196.78;0.876156;-0.56943;-0.023223;88.8;0.0;0.0;2.5;0.0;0.0
4.0;1753880851.215371;15.559561;3.56;-3.52;151.72;1.011599;-0.188078;0.037729;89.0;0.0;0.0;3.6;0.0;0.0
4.0;1753880851.219984;15.525588;3.47;-5.53;132.39;0.928194;-0.558774;-0.02614;89.8;0.0;0.0;3.0;0.0;0.0
4.0;1753880851.224597;15.537788;4.5;-3.87;153.47;1.019181;-0.846706;-0.009735;90.0;0.0;0.0;2.9;0.0;0.0
4.0;1753880851.22921;15.527618;3.14;-3.29;162.29;0.859649;-0.641213;0.037482;85.6;0.0;0.0;3.1;0.0;0.0
4.0;1753880851.233823;15.574076;2.73;-6.61;161.39;0.809088;-0.842457;0.055349;90.6;0.0;0.0;2.5;0.0;0.0
4.0;1753880851.238436;15.556533;5.05;-5.27;149.23;0.811776;-0.627871;-0.03084;90.7;0.0;0.0;2.6;0.0;0.0
4.0;1753880851.243049;15.534142;-1.19;-4.82;168.33;0.88442;-0.479999;0.011292;92.7;0.0;0.0;2.9;0.0;0.0
4.0;1753880851.247662;15.551773;5.87;-6.93;184.43;1.032014;-0.276231;-0.035504;93.0;0.0;0.0;2.6;0.0;0.0
4.0;1753880851.252275;15.550177;3.43;-3.83;162.64;0.824859;-0.506076;-0.05454;92.1;0.0;0.0;3.4;0.0;0.0
4.0;1753880851.256888;15.531974;3.38;-1.91;182.26;1.050452;-0.684081;0.018602;88.5;0.0;0.0;2.4;0.0;0.0
4.0;1753880851.2615;15.505852;-0.64;-1.34;186.67;0.770865;-0.872595;-0.018182;87.1;0.0;0.0;2.9;0.0;0.0
4.0;1753880851.266114;15.55364;6.61;-1.82;168.87;0.850509;-0.682762;-0.030416;90.9;0.0;0.0;3.1;0.0;0.0
4.0;1753880851.270726;15.54253;0.95;-2.44;173.03;1.002406;-0.035397;0.023355;89.7;0.0;0.0;2.9;0.0;0.0
4.0;1753880851.275339;15.563856;-0.48;-4.19;157.74;0.694507;-0.488932;0.0199;89.9;0.0;0.0;3.0;0.0;0.0
4.0;1753880851.279952;15.541203;4.19;-4.88;128.05;0.87741;-0.675576;-0.04966;90.6;0.0;0.0;3.8;0.0;0.0
4.0;1753880851.284565;15.506721;3.99;-5.58;105.13;0.89909;-0.562735;0.03578;88.4;0.0;0.0;3.8;0.0;0.0
4.0;1753880851.289178;15.573045;4.35;-5.34;174.53;1.036887;-0.252506;0.026201;90.2;0.0;0.0;3.1;0.0;0.0
4.0;1753880851.293791;15.555448;3.91;-6.21;208.16;0.951646;-0.452815;0.058412;90.2;0.0;0.0;3.0;0.0;0.0
4.0;1753880851.298404;15.587333;-1.07;-3.1;173.63;1.12181;-1.157239;0.020014;89.7;0.0;0.0;2.8;0.0;0.0
4.0;1753880851.303017;15.511663;5.37;-3.94;157.71;0.873406;-0.904888;-0.047166;87.2;0.0;0.0;3.0;0.0;0.0
4.0;1753880851.30763;15.567683;-1.48;-5.1;145.72;0.991793;-0.797968;-0.038355;91.2;0.0;0.0;3.3;0.0;0.0
4.0;1753880851.312243;15.54629;-1.52;-5.59;133.87;0.964763;-0.490084;0.037449;88.3;0.0;0.0;2.7;0.0;0.0
4.0;1753880851.316856;15.518764;3.86;-4.1;137.55;0.916821;-1.109784;-0.081095;86.0;0.0;0.0;2.7;0.0;0.0
4.0;1753880851.321468;15.532637;2.29;-5.63;119.22;1.230287;-0.29947;-0.021422;88.3;0.0;0.0;2.3;0.0;0.0
4.0;1753880851.326082;15.550046;4.66;-2.52;151.16;0.778973;-0.497341;-0.022029;89.2;0.0;0.0;4.0;0.0;0.0
4.0;1753880851.330694;15.544698;6.89;-2.88;159.08;0.896607;-0.789213;0.003893;89.1;0.0;0.0;4.1;0.0;0.0
4.0;1753880851.335307;15.511833;6.69;-7.63;161.41;1.059326;-0.700561;0.002633;88.1;0.0;0.0;2.9;0.0;0.0
4.0;1753880851.33992;15.535177;4.19;-3.12;154.69;0.903878;-0.923897;-0.028078;88.8;0.0;0.0;2.9;0.0;0.0
4.0;1753880851.344533;15.531232;7.62;-2.76;160.29;0.988449;-0.709865;0.098823;86.1;0.0;0.0;3.6;0.0;0.0
4.0;1753880851.349146;15.544945;2.82;-4.97;179.7;1.017544;-0.239803;-0.07877;86.3;0.0;0.0;3.2;0.0;0.0
4.0;1753880851.353759;15.554514;5.41;-3.66;185.29;0.733046;-0.295703;-0.035037;88.9;0.0;0.0;3.0;0.0;0.0
4.0;1753880851.358372;15.550632;3.76;-4.67;171.74;0.917452;-0.470954;0.029265;88.5;0.0;0.0;3.2;0.0;0.0
4.0;1753880851.362985;15.554036;1.0;-3.12;153.55;0.94936;-0.964872;-0.058451;90.4;0.0;0.0;2.7;0.0;0.0
4.0;1753880851.367598;15.545108;1.48;-4.12;197.44;0.811577;-0.770146;-0.011769;86.6;0.0;0.0;3.5;0.0;0.0
4.0;1753880851.372211;15.553229;-2.37;-5.06;145.3;0.916503;-0.597156;-0.041727;86.1;0.0;0.0;2.5;0.0;0.0
4.0;1753880851.376824;15.556034;3.53;-5.0;173.5;0.882135;-0.419149;0.016455;89.1;0.0;0.0;3.0;0.0;0.0
4.0;1753880851.381436;15.555979;4.08;-5.96;149.6;1.004243;-0.318858;-0.082986;88.6;0.0;0.0;3.1;0.0;0.0
4.0;1753880851.3866;15.554688;2.8;-3.99;157.78;0.925858;-0.54351;0.00061;88.0;0.0;0.0;3.0;0.0;0.0
4.0;1753880851.391213;15.576938;4.31;-1.31;178.61;1.037867;-0.177382;-0.014797;89.4;0.0;0.0;3.3;0.0;0.0
4.0;1753880851.395826;15.587389;5.78;-4.66;178.38;0.996213;0.076345;-0.019862;90.6;0.0;0.0;2.3;0.0;0.0
4.0;1753880851.400439;15.572473;6.08;-3.14;166.98;0.765662;-0.028235;-0.002887;86.9;0.0;0.0;3.2;0.0;0.0
4.0;1753880851.405052;15.559145;2.68;-0.94;192.38;0.956823;-0.701804;-0.091213;86.0;0.0;0.0;3.1;0.0;0.0
4.0;1753880851.409665;15.538734;2.44;-0.5;182.51;0.914301;-0.570122;0.036721;89.9;0.0;0.0;2.6;0.0;0.0
4.0;1753880851.414278;15.579602;2.47;-4.6;135.06;0.802048;-0.3666;0.012961;88.0;0.0;0.0;2.2;0.0;0.0
4.0;1753880851.41889;15.555965;-1.11;-2.6;175.76;0.889579;-0.687389;-0.003504;88.0;0.0;0.0;2.3;0.0;0.0
4.0;1753880851.423504;15.558034;1.91;-6.56;132.08;1.190124;-0.847895;-0.066138;85.7;0.0;0.0;3.4;0.0;0.0
4.0;1753880851.428116;15.532571;-2.52;-3.54;145.24;1.017259;-1.093075;-0.035048;88.6;0.0;0.0;2.0;0.0;0.0
4.0;1753880851.432729;15.54922;1.08;-4.11;153.4;0.915;-0.804355;-0.037063;86.6;0.0;0.0;2.3;0.0;0.0
4.0;1753880851.437342;15.552569;1.03;-4.83;182.23;0.708455;-0.507131;-0.010775;87.0;0.0;0.0;2.4;0.0;0.0
4.0;1753880851.441955;15.565564;4.53;-0.31;178.17;0.667081;-0.46674;-0.050656;87.8;0.0;0.0;3.3;0.0;0.0
4.0;1753880851.446568;15.587316;3.08;-1.7;160.12;0.909491;-0.390727;-0.114796;84.2;0.0;0.0;3.0;0.0;0.0
4.0;1753880851.451181;15.56391;5.24;-3.33;160.13;0.952811;-0.308475;-0.036562;86.9;0.0;0.0;3.6;0.0;0.0
4.0;1753880851.455794;15.557673;3.62;-3.81;150.61;0.920968;-0.333593;0.067927;85.6;0.0;0.0;2.8;0.0;0.0
4.0;1753880851.460407;15.58724;3.52;-4.9;175.74;0.976491;-0.155613;0.025805;88.2;0.0;0.0;2.6;0.0;0.0
4.0;1753880851.46502;15.535318;2.07;-1.51;149.4;0.856759;-0.667669;0.088916;90.3;0.0;0.0;3.4;0.0;0.0
4.0;1753880851.469633;15.580787;0.24;-2.67;179.35;1.088648;-0.419412;-0.045844;90.7;0.0;0.0;3.4;0.0;0.0
4.0;1753880851.474246;15.529182;1.83;-0.41;159.07;0.911302;-0.399351;0.0023;90.3;0.0;0.0;3.5;0.0;0.0
4.0;1753880851.478858;15.571288;-1.91;-2.84;153.02;0.870175;-0.724856;0.030308;88.1;0.0;0.0;3.1;0.0;0.0
4.0;1753880851.483472;15.55048;5.44;-3.72;161.58;0.951881;-0.147107;-0.032622;85.0;0.0;0.0;3.6;0.0;0.0
4.0;1753880851.488084;15.548511;4.17;-4.49;133.68;0.943413;-0.626432;-0.062229;87.6;0.0;0.0;4.3;0.0;0.0
4.0;1753880851.492697;15.544426;-2.81;-2.78;125.52;0.843761;-0.798338;-0.084884;90.3;0.0;0.0;2.7;0.0;0.0
4.0;1753880851.49731;15.530062;3.48;-5.95;162.63;0.998721;-0.654129;-0.042661;90.5;0.0;0.0;2.5;0.0;0.0
4.0;1753880851.501923;15.530373;-0.21;-5.01;166.82;0.937955;-0.847234;-0.062614;88.7;0.0;0.0;3.4;0.0;0.0
4.0;1753880851.506536;15.551552;6.49;-3.55;149.8;0.649313;-0.847951;0.155722;85.8;0.0;0.0;2.8;0.0;0.0
4.0;1753880851.511149;15.562429;5.2;-3.33;155.29;0.920012;-0.761277;-0.036875;87.2;0.0;0.0;2.0;0.0;0.0
4.0;1753880851.515762;15.580291;4.34;-6.85;150.58;0.992796;-1.193506;-0.055658;88.4;0.0;0.0;3.2;0.0;0.0
4.0;1753880851.520375;15.541207;-0.21;-4.53;165.84;0.825686;-0.79141;0.015982;90.3;0.0;0.0;3.5;0.0;0.0
4.0;1753880851.524988;15.531168;4.75;-3.23;152.87;1.107601;-0.574101;-0.043051;88.2;0.0;0.0;2.5;0.0;0.0
4.0;1753880851.5296;15.57774;4.14;-2.64;178.9;0.784822;-0.851018;-0.135543;89.6;0.0;0.0;2.8;0.0;0.0
4.0;1753880851.534214;15.569102;2.2;-3.34;153.32;1.046917;-0.740729;0.028488;90.4;0.0;0.0;2.9;0.0;0.0
4.0;1753880851.538826;15.564601;1.45;-4.22;183.63;0.944311;-0.669921;-0.024439;87.8;0.0;0.0;3.4;0.0;0.0
4.0;1753880851.54344;15.555178;1.39;-5.84;140.17;0.975128;-0.648093;-0.130361;88.5;0.0;0.0;3.2;0.0;0.0
4.0;1753880851.548052;15.549064;2.84;-5.38;141.04;0.840299;-0.553296;-0.02768;88.6;0.0;0.0;2.6;0.0;0.0
4.0;1753880851.552665;15.527087;4.02;-6.42;163.14;0.881946;-0.445188;0.012384;90.2;0.0;0.0;3.2;0.0;0.0
4.0;1753880851.557278;15.566821;6.11;-2.41;180.15;0.830706;-0.246836;-0.069623;85.4;0.0;0.0;2.7;0.0;0.0
4.0;1753880851.561891;15.533495;5.19;-2.07;132.46;1.017956;-0.356103;-0.12053;87.8;0.0;0.0;2.2;0.0;0.0
4.0;1753880851.566504;15.561321;1.06;-4.96;166.51;0.816422;-1.137473;-0.095783;87.4;0.0;0.0;3.3;0.0;0.0
4.0;1753880851.571117;15.531157;5.99;-4.44;121.95;0.795237;-0.224948;-0.060463;88.8;0.0;0.0;3.6;0.0;0.0
4.0;1753880851.57573;15.540965;0.81;-3.6;170.21;0.90298;-1.033266;-0.088556;87.9;0.0;0.0;2.8;0.0;0.0
4.0;1753880851.580343;15.564824;-0.43;-0.34;129.91;1.137112;-0.59438;0.112861;87.6;0.0;0.0;2.9;0.0;0.0
4.0;1753880851.584956;15.559557;0.34;-2.17;175.05;1.06024;-0.248391;-0.10125;90.1;0.0;0.0;3.5;0.0;0.0
4.0;1753880851.589568;15.536526;-2.49;-2.74;154.75;1.120668;-0.330401;-0.09249;90.9;0.0;0.0;3.0;0.0;0.0
4.0;1753880851.594182;15.529955;4.77;-2.86;151.58;0.828062;-0.984686;-0.066316;87.3;0.0;0.0;2.7;0.0;0.0
4.0;1753880851.598794;15.552384;5.48;-1.69;159.89;0.929887;-0.393403;-0.126727;83.7;0.0;0.0;3.1;0.0;0.0
4.0;1753880851.603408;15.533788;5.65;-4.93;161.19;1.098334;-0.812261;-0.161134;86.3;0.0;0.0;3.0;0.0;0.0
4.0;1753880851.60802;15.589478;4.26;-1.31;148.35;0.858841;-0.895652;-0.074849;86.0;0.0;0.0;2.8;0.0;0.0
4.0;1753880851.612633;15.542478;3.78;-5.18;147.2;0.937585;-0.671541;-0.084059;85.4;0.0;0.0;3.0;0.0;0.0
4.0;1753880851.617246;15.534657;3.71;-5.34;143.54;0.917678;-0.487833;-0.106377;86.6;0.0;0.0;2.7;0.0;0.0
4.0;1753880851.621859;15.557406;3.64;-5.52;134.45;0.683308;-0.122303;-0.006178;88.6;0.0;0.0;2.6;0.0;0.0
4.0;1753880851.626472;15.574101;3.23;-4.06;142.62;0.764257;-0.217262;-0.157062;89.6;0.0;0.0;2.4;0.0;0.0
4.0;1753880851.631085;15.541725;3.88;-2.74;158.39;0.838748;-0.407907;-0.086777;86.4;0.0;0.0;3.4;0.0;0.0
4.0;1753880851.635698;15.537877;1.66;-1.36;153.84;0.684035;-0.929363;-0.093819;87.4;0.0;0.0;2.9;0.0;0.0
4.0;1753880851.640311;15.575667;-2.95;-2.82;171.26;0.82113;-1.008914;-0.055173;86.8;0.0;0.0;2.9;0.0;0.0
4.0;1753880851.644924;15.548373;-0.67;-2.64;156.09;0.965669;-0.414638;-0.124647;88.5;0.0;0.0;2.9;0.0;0.0
4.0;1753880851.649536;15.542471;7.34;-2.13;142.69;0.683881;-0.831656;-0.093539;88.5;0.0;0.0;3.1;0.0;0.0
4.0;1753880851.65415;15.547639;-2.74;-0.5;172.74;0.920203;-0.220971;-0.070192;86.0;0.0;0.0;3.1;0.0;0.0
4.0;1753880851.658762;15.541158;4.78;-3.84;171.76;0.804536;-0.535753;-0.045944;88.4;0.0;0.0;3.5;0.0;0.0
4.0;1753880851.663376;15.558291;0.15;-2.82;127.49;0.80293;-0.537459;-0.032208;85.1;0.0;0.0;2.6;0.0;0.0
4.0;1753880851.667988;15.565661;-3.14;-2.01;148.76;0.86807;-1.111222;-0.073828;88.6;0.0;0.0;2.0;0.0;0.0
4.0;1753880851.672601;15.597713;0.62;-3.39;180.41;0.859937;-0.826723;-0.01855;90.2;0.0;0.0;3.0;0.0;0.0
4.0;1753880851.677214;15.581585;5.68;-5.2;179.48;0.714516;-0.03406;-0.049852;89.5;0.0;0.0;2.8;0.0;0.0
4.0;1753880851.681827;15.595489;-1.58;-0.25;148.46;1.137328;-0.800478;-0.168453;88.8;0.0;0.0;3.5;0.0;0.0
4.0;1753880851.68644;15.539172;0.21;-4.41;166.98;0.591112;-0.466671;-0.090118;87.9;0.0;0.0;2.3;0.0;0.0
4.0;1753880851.691053;15.557273;-1.67;-7.32;145.11;0.786582;-0.344929;-0.201259;91.9;0.0;0.0;2.0;0.0;0.0
4.0;1753880851.695666;15.577325;-2.05;-2.27;170.59;1.021224;-0.994933;-0.093449;89.0;0.0;0.0;3.3;0.0;0.0
4.0;1753880851.700279;15.565196;6.44;-1.4;148.91;0.94229;0.09066;-0.046222;87.6;0.0;0.0;2.8;0.0;0.0
4.0;1753880851.704892;15.560849;2.1;-1.86;168.29;0.808834;-0.6878;-0.149107;90.4;0.0;0.0;3.4;0.0;0.0
4.0;1753880851.709504;15.545023;6.69;-6.33;142.37;0.756886;-0.557015;-0.256948;84.6;0.0;0.0;3.5;0.0;0.0
4.0;1753880851.714118;15.519114;1.39;-0.89;170.94;0.838142;-0.912313;-0.155886;87.0;0.0;0.0;2.6;0.0;0.0
4.0;1753880851.71873;15.543721;4.54;-5.75;148.97;0.718013;-0.804602;-0.003334;87.3;0.0;0.0;3.6;0.0;0.0
4.0;1753880851.723343;15.539335;2.15;-0.53;172.55;0.932265;-0.359088;-0.134537;89.7;0.0;0.0;3.9;0.0;0.0
4.0;1753880851.727956;15.562584;0.69;-3.9;151.67;0.758134;-0.474411;-0.024028;87.0;0.0;0.0;3.1;0.0;0.0
4.0;1753880851.732569;15.545183;0.03;-3.24;155.5;0.768261;-0.515296;-0.097631;87.7;0.0;0.0;2.7;0.0;0.0
4.0;1753880851.737182;15.530959;7.05;-3.81;123.76;0.944569;-0.445706;-0.118226;87.5;0.0;0.0;3.7;0.0;0.0
4.0;1753880851.741795;15.518758;-1.61;-4.04;146.99;1.12455;-0.534074;-0.071146;84.2;0.0;0.0;4.1;0.0;0.0
4.0;1753880851.746408;15.558008;5.99;-5.33;126.52;0.693119;-0.862429;-0.112314;90.3;0.0;0.0;3.8;0.0;0.0
4.0;1753880851.751021;15.549581;3.56;-3.66;163.78;0.854861;-0.894345;-0.149875;84.9;0.0;0.0;3.8;0.0;0.0
4.0;1753880851.755634;15.535031;-0.18;-0.82;143.81;0.797878;-0.351601;-0.115563;88.7;0.0;0.0;3.2;0.0;0.0
4.0;1753880851.760247;15.563736;2.8;-1.9;153.53;1.02495;-0.716689;-0.129369;90.5;0.0;0.0;2.2;0.0;0.0
4.0;1753880851.7672;15.554688;3.01;-2.87;154.21;0.852414;-0.576938;-0.118218;88.0;0.0;0.0;3.0;0.0;0.0
4.0;1753880851.771813;15.568296;-2.92;-2.34;150.98;0.861103;-0.526072;-0.199642;88.5;0.0;0.0;3.0;0.0;0.0
4.0;1753880851.776426;15.587486;-4.74;-1.36;148.52;0.749618;-0.500212;-0.039804;85.9;0.0;0.0;3.0;0.0;0.0
4.0;1753880851.781039;15.560122;5.34;-2.23;128.23;0.794127;-0.919719;-0.037512;89.4;0.0;0.0;3.0;0.0;0.0
4.0;1753880851.785652;15.506535;-5.97;-4.06;122.91;0.883659;-0.281172;-0.002245;81.2;0.0;0.0;3.0;0.0;0.0
4.0;1753880851.790264;15.523811;1.54;-1.02;129.44;0.749091;-0.584232;0.069472;84.8;0.0;0.0;3.0;0.0;0.0
4.0;1753880851.794878;15.5574;-9.54;-0.7;85.49;0.910875;-0.581481;0.050322;80.7;0.0;0.0;3.0;0.0;0.0
4.0;1753880851.79949;15.572815;-2.63;-0.64;93.96;0.831626;-0.507796;0.090618;84.8;0.0;0.0;3.0;0.0;0.0
4.0;1753880851.80486;15.539062;-6.65;-0.35;92.61;0.806176;-0.533018;0.122488;85.0;0.0;0.0;3.0;0.0;0.0
4.0;1753880851.809473;15.497197;-6.22;1.54;99.53;0.752394;-0.579511;0.171904;84.8;0.0;0.0;3.0;0.0;0.0
4.0;1753880851.814086;15.544821;-3.36;1.47;106.01;0.721207;-0.481601;0.242846;82.5;0.0;0.0;3.0;0.0;0.0
4.0;1753880851.818699;15.511603;-10.8;-0.13;92.9;0.890845;-0.508231;0.15697;83.6;0.0;0.0;3.0;0.0;0.0
4.0;1753880851.823312;15.578772;-3.28;0.55;112.34;0.992702;-0.342906;-0.021119;83.1;0.0;0.0;3.0;0.0;0.0
4.0;1753880851.827925;15.550588;-2.95;-0.48;86.91;0.836907;-0.616787;0.063574;87.0;0.0;0.0;3.0;0.0;0.0
4.0;1753880851.832538;15.53825;-3.15;0.1;101.35;0.704593;-0.634713;0.185156;83.9;0.0;0.0;3.0;0.0;0.0
4.0;1753880851.83715;15.541544;-3.47;-0.14;77.88;0.901373;-0.651737;-0.023523;84.4;0.0;0.0;3.0;0.0;0.0
4.0;1753880851.841764;15.567861;-7.44;0.5;57.38;0.985301;-0.518091;0.083215;85.2;0.0;0.0;3.0;0.0;0.0
4.0;1753880851.846376;15.503706;-2.31;-0.9;74.45;0.783235;-0.574098;0.189361;89.0;0.0;0.0;3.0;0.0;0.0
4.0;1753880851.850989;15.549545;-6.31;2.63;82.79;0.965659;-0.51975;0.188562;88.5;0.0;0.0;3.0;0.0;0.0
4.0;1753880851.855602;15.533888;-10.81;-2.72;112.26;0.866351;-0.565314;0.138029;83.1;0.0;0.0;3.0;0.0;0.0
4.0;1753880851.860215;15.449101;-6.25;1.32;122.1;0.793524;-0.728023;0.085418;85.1;0.0;0.0;3.0;0.0;0.0
4.0;1753880851.864828;15.58395;-2.69;2.52;96.96;0.876992;-0.510327;0.055089;82.2;0.0;0.0;3.0;0.0;0.0
4.0;1753880851.869441;15.513247;-5.78;2.08;114.1;0.800933;-0.394848;0.092573;88.7;0.0;0.0;3.0;0.0;0.0
4.0;1753880851.874054;15.554188;-4.79;-2.09;106.89;0.943658;-0.384091;0.116498;89.1;0.0;0.0;3.0;0.0;0.0
4.0;1753880851.878667;15.534386;5.47;1.55;104.25;0.925912;-0.785137;-0.007084;82.5;0.0;0.0;3.0;0.0;0.0
4.0;1753880851.88328;15.555091;-3.78;1.52;76.35;1.030877;-0.403304;0.159622;82.6;0.0;0.0;3.0;0.0;0.0
4.0;1753880851.89188;15.539062;-3.22;2.38;89.74;0.931226;-0.469456;0.118828;85.0;0.0;0.0;3.0;0.0;0.0
4.0;1753880851.89535;15.539062;-3.01;2.24;89.88;0.683078;-0.872178;-0.017812;85.0;0.0;0.0;3.0;0.0;0.0
4.0;1753880851.899963;15.510299;-2.98;5.07;93.39;0.65392;-0.634058;0.030212;88.9;0.0;0.0;3.0;0.0;0.0
4.0;1753880851.904576;15.565651;-0.57;-0.52;74.75;0.747437;-1.012053;0.048695;86.5;0.0;0.0;3.0;0.0;0.0
4.0;1753880851.909189;15.543002;-1.5;3.46;56.75;0.671307;-0.866388;-0.066907;81.5;0.0;0.0;3.0;0.0;0.0
4.0;1753880851.913802;15.55015;-5.72;2.37;116.9;0.58626;-0.828528;-0.073577;85.4;0.0;0.0;3.0;0.0;0.0
4.0;1753880851.918414;15.535645;-5.55;4.32;79.1;0.804507;-0.689081;0.049812;86.5;0.0;0.0;3.0;0.0;0.0
4.0;1753880851.923028;15.546927;-3.01;5.24;69.19;0.639523;-0.907324;-0.113975;84.3;0.0;0.0;3.0;0.0;0.0
4.0;1753880851.92764;15.494307;-5.77;7.9;83.69;0.682909;-1.069852;-0.045211;86.8;0.0;0.0;3.0;0.0;0.0
4.0;1753880851.932253;15.537389;-5.14;-0.44;128.38;0.532057;-0.862256;0.02764;87.1;0.0;0.0;3.0;0.0;0.0
4.0;1753880851.94039;15.550781;-2.66;3.92;116.2;0.683078;-0.872178;-0.017812;85.0;0.0;0.0;3.0;0.0;0.0
4.0;1753880851.941981;15.613281;4.48;11.2;35.21;-0.381006;-1.013454;0.02684;0.0;0.0;0.0;0.0;0.0;0.0
4.0;1753880851.946183;15.613281;5.32;13.16;36.05;-0.106872;-1.026752;-0.017324;0.0;0.0;0.0;0.0;0.0;0.0
4.0;1753880851.950212;15.582031;3.01;10.57;33.6;-0.088328;-0.932812;-0.018544;0.0;0.0;0.0;0.0;0.0;0.0
4.0;1753880851.957371;15.582031;2.87;10.57;33.18;-0.316468;-0.933178;0.032208;0.0;0.0;0.0;0.0;0.0;0.0
4.0;1753880851.958787;15.582031;3.5;11.69;34.02;-0.341966;-0.984906;-0.002196;0.0;0.0;0.0;0.0;0.0;0.0
4.0;1753880851.9634;15.583004;5.01;9.2;31.57;-0.757507;-0.990128;0.010619;0.0;0.0;0.0;0.0;0.0;0.0
4.0;1753880851.970867;15.613281;3.01;10.29;35.14;-0.187758;-0.938912;-0.010736;0.0;0.0;0.0;0.0;0.0;0.0
4.0;1753880851.972423;15.613281;2.66;10.92;33.95;-0.303658;-0.908656;0.031232;0.0;0.0;0.0;0.0;0.0;0.0
4.0;1753880851.97703;15.613281;2.73;11.83;31.29;-0.16226;-0.97844;-0.050752;0.0;0.0;0.0;0.0;0.0;0.0
4.0;1753880851.983061;15.613281;4.62;10.64;33.88;-0.263276;-1.010648;-0.020862;0.0;0.0;0.0;0.0;0.0;0.0
4.0;1753880851.990824;15.636719;2.8;11.41;28.84;-0.299998;-0.961482;-0.060268;0.0;0.0;0.0;0.0;0.0;0.0
4.0;1753880851.995216;15.636719;1.68;11.97;24.92;-0.243146;-0.973194;-0.036112;0.0;0.0;0.0;0.0;0.0;0.0
4.0;1753880851.999801;15.636719;0.7;11.76;20.72;-0.280478;-0.913292;-0.055632;0.0;0.0;0.0;0.0;0.0;0.0
4.0;1753880852.004414;15.650446;0.22;10.71;20.71;-0.27619;-0.97238;-0.048984;0.0;0.0;0.0;0.0;0.0;0.0
4.0;1753880852.009027;15.611501;-1.18;11.81;23.12;-0.496725;-0.979122;-0.064224;0.0;0.0;0.0;0.0;0.0;0.0
4.0;1753880852.01364;15.667505;4.11;9.71;25.99;-0.219866;-0.954113;-0.011788;0.0;0.0;0.0;0.0;0.0;0.0
4.0;1753880852.018252;15.608645;0.59;12.58;22.74;-0.142475;-0.928951;-0.031277;0.0;0.0;0.0;0.0;0.0;0.0
4.0;1753880852.022866;15.59344;-0.93;12.71;15.29;-0.329371;-0.9339;-0.07723;0.0;0.0;0.0;0.0;0.0;0.0
4.0;1753880852.027478;15.621114;0.63;10.95;18.9;-0.217592;-0.92605;-0.059917;0.0;0.0;0.0;0.0;0.0;0.0
4.0;1753880852.032092;15.639079;1.65;12.15;26.44;-0.048796;-0.97077;-0.085094;0.0;0.0;0.0;0.0;0.0;0.0
4.0;1753880852.036704;15.63664;1.39;11.99;26.51;-0.243565;-0.910231;-0.062459;0.0;0.0;0.0;0.0;0.0;0.0
4.0;1753880852.041317;15.641494;-0.11;10.28;19.21;-0.154408;-0.819675;-0.069476;0.0;0.0;0.0;0.0;0.0;0.0
4.0;1753880852.04593;15.655732;0.08;9.6;22.16;-0.200889;-0.988687;-0.062773;0.0;0.0;0.0;0.0;0.0;0.0
4.0;1753880852.050543;15.62052;3.24;10.27;21.25;-0.24702;-0.823126;-0.084839;0.0;0.0;0.0;0.0;0.0;0.0
4.0;1753880852.055156;15.658823;0.27;12.71;23.47;-0.322635;-0.89903;-0.057556;0.0;0.0;0.0;0.0;0.0;0.0
4.0;1753880852.059769;15.634626;0.92;13.77;12.4;0.030632;-0.980996;-0.045207;0.0;0.0;0.0;0.0;0.0;0.0
4.0;1753880852.064382;15.682791;0.97;12.46;22.23;-0.076865;-0.966917;-0.017723;0.0;0.0;0.0;0.0;0.0;0.0
4.0;1753880852.068995;15.626233;0.71;13.2;27.77;-0.230223;-0.914298;-0.073703;0.0;0.0;0.0;0.0;0.0;0.0
4.0;1753880852.073608;15.588629;1.38;12.44;20.28;-0.245519;-0.974503;-0.056829;0.0;0.0;0.0;0.0;0.0;0.0
