Timestamp;PosX;PosY;PosZ;Roll;Pitch;Yaw;Q1;Q2;Q3;Q4;M1;M2;M3;M4;AccelX;AccelY;AccelZ;GyroX;GyroY;GyroZ
1753880846.5521646;7.91;5.067;-0.384;-2.07;0.52;86.86;0.0;0.0;0.0;0.0;36.0;-27.0;29.0;-25.0;0.07;0.44;-10.66;0.57;0.21;0.86
1753880846.557164;7.91;5.067;-0.384;-2.07;0.52;86.86;0.0;0.0;0.0;0.0;36.0;-27.0;29.0;-25.0;0.07;0.45;-10.66;0.56;0.35;0.85
1753880846.5621643;7.91;5.067;-0.384;-2.07;0.52;86.86;0.0;0.0;0.0;0.0;36.0;-27.0;29.0;-25.0;0.07;0.45;-10.66;0.49;0.37;0.88
1753880846.567164;7.91;5.067;-0.384;-2.07;0.52;86.86;0.0;0.0;0.0;0.0;36.0;-27.0;29.0;-25.0;0.06;0.44;-10.66;0.45;0.32;0.99
1753880846.5721643;7.91;5.067;-0.384;-2.07;0.52;86.86;0.0;0.0;0.0;0.0;36.0;-27.0;29.0;-25.0;0.06;0.44;-10.66;0.61;0.26;0.96
1753880846.5771642;7.91;5.067;-0.384;-2.07;0.52;86.86;0.0;0.0;0.0;0.0;36.0;-27.0;29.0;-25.0;0.06;0.44;-10.66;0.7;0.34;1.07
1753880846.5821643;7.91;5.067;-0.384;-2.07;0.52;86.86;0.0;0.0;0.0;0.0;36.0;-27.0;29.0;-25.0;0.06;0.44;-10.66;0.73;0.35;0.78
1753880846.5871642;7.91;5.067;-0.384;-2.07;0.52;86.86;0.0;0.0;0.0;0.0;36.0;-27.0;29.0;-25.0;0.06;0.43;-10.66;0.62;0.31;0.86
1753880846.5921643;7.91;5.067;-0.384;-2.07;0.52;86.86;0.0;0.0;0.0;0.0;36.0;-27.0;29.0;-25.0;0.06;0.43;-10.66;0.5;0.26;0.96
1753880846.5971642;7.91;5.067;-0.384;-2.07;0.52;86.86;0.0;0.0;0.0;0.0;36.0;-27.0;29.0;-25.0;0.06;0.43;-10.66;0.51;0.32;0.84
1753880846.6021643;7.91;5.067;-0.384;-2.07;0.52;86.86;0.0;0.0;0.0;0.0;36.0;-27.0;29.0;-25.0;0.05;0.43;-10.66;0.62;0.45;0.93
1753880846.6071644;7.91;5.067;-0.384;-2.07;0.52;86.86;0.0;0.0;0.0;0.0;36.0;-27.0;29.0;-25.0;0.05;0.43;-10.66;0.6;0.32;0.86
1753880846.6121643;7.91;5.067;-0.384;-2.07;0.52;86.86;0.0;0.0;0.0;0.0;36.0;-27.0;29.0;-25.0;0.05;0.43;-10.65;0.7;0.34;0.92
1753880846.6171644;7.91;5.067;-0.384;-2.07;0.52;86.86;0.0;0.0;0.0;0.0;36.0;-27.0;29.0;-25.0;0.06;0.43;-10.65;0.55;0.32;0.94
1753880846.6221642;7.91;5.067;-0.384;-2.07;0.52;86.86;0.0;0.0;0.0;0.0;36.0;-27.0;29.0;-25.0;0.05;0.43;-10.65;0.64;0.25;0.86
1753880846.6271644;7.91;5.067;-0.384;-2.07;0.52;86.86;0.0;0.0;0.0;0.0;36.0;-27.0;29.0;-25.0;0.06;0.43;-10.65;0.6;0.3;0.98
1753880846.6321642;7.91;5.067;-0.384;-2.07;0.52;86.86;0.0;0.0;0.0;0.0;36.0;-27.0;29.0;-25.0;0.06;0.43;-10.66;0.67;0.37;0.95
1753880846.6371644;7.91;5.067;-0.384;-2.07;0.52;86.86;0.0;0.0;0.0;0.0;36.0;-27.0;29.0;-25.0;0.06;0.43;-10.66;0.67;0.36;0.9
1753880846.6421642;7.91;5.067;-0.384;-2.07;0.52;86.86;0.0;0.0;0.0;0.0;36.0;-27.0;29.0;-25.0;0.05;0.43;-10.66;0.45;0.25;1.03
1753880846.6471643;7.91;5.067;-0.384;-2.07;0.52;86.86;0.0;0.0;0.0;0.0;36.0;-27.0;29.0;-25.0;0.05;0.43;-10.66;0.61;0.29;1.06
1753880846.6521642;7.91;5.067;-0.384;-2.07;0.52;86.86;0.0;0.0;0.0;0.0;36.0;-27.0;29.0;-25.0;0.05;0.43;-10.66;0.61;0.22;0.95
1753880846.6571646;7.91;5.067;-0.384;-2.07;0.52;86.86;0.0;0.0;0.0;0.0;36.0;-27.0;29.0;-25.0;0.05;0.43;-10.67;0.67;0.34;0.93
1753880846.662164;7.91;5.067;-0.384;-2.07;0.52;86.86;0.0;0.0;0.0;0.0;36.0;-27.0;29.0;-25.0;0.05;0.44;-10.66;0.54;0.33;0.99
1753880846.6671646;7.91;5.067;-0.384;-2.07;0.52;86.86;0.0;0.0;0.0;0.0;36.0;-27.0;29.0;-25.0;0.05;0.44;-10.67;0.66;0.33;0.98
1753880846.672164;7.91;5.067;-0.384;-2.07;0.52;86.86;0.0;0.0;0.0;0.0;36.0;-27.0;29.0;-25.0;0.05;0.44;-10.67;0.68;0.34;0.86
1753880846.6771646;7.91;5.067;-0.384;-2.07;0.52;86.86;0.0;0.0;0.0;0.0;36.0;-27.0;29.0;-25.0;0.05;0.44;-10.68;0.6;0.29;1.02
1753880846.6821647;7.91;5.067;-0.384;-2.07;0.52;86.86;0.0;0.0;0.0;0.0;35.9;-27.1;29.0;-23.2;0.05;0.45;-10.69;0.59;0.38;0.98
1753880846.6871648;7.91;5.067;-0.384;-2.07;0.52;86.86;0.0;0.0;0.0;0.0;35.2;-26.9;29.0;-23.5;0.06;0.44;-10.67;0.62;0.23;1.06
1753880846.692165;7.91;5.067;-0.384;-2.07;0.52;86.86;0.0;0.0;0.0;0.0;35.9;-27.1;29.0;-25.6;0.04;0.44;-10.68;0.59;0.31;0.93
1753880846.697165;7.91;5.067;-0.384;-2.07;0.52;86.86;0.0;0.0;0.0;0.0;34.9;-25.4;29.0;-23.1;0.06;0.43;-10.67;0.57;0.23;0.99
1753880846.7021651;7.91;5.067;-0.384;-2.07;0.52;86.86;0.0;0.0;0.0;0.0;34.2;-25.9;29.0;-19.1;0.05;0.44;-10.68;0.54;0.3;0.86
1753880846.7071652;7.91;5.067;-0.384;-2.07;0.52;86.86;0.0;0.0;0.0;0.0;33.5;-25.7;29.0;-21.1;0.06;0.44;-10.66;0.68;0.38;0.86
1753880846.7121654;7.91;5.067;-0.384;-2.07;0.52;86.86;0.0;0.0;0.0;0.0;34.7;-24.7;29.0;-18.0;0.06;0.44;-10.66;0.68;0.41;0.91
1753880846.7171643;7.91;5.067;-0.384;-2.07;0.52;86.86;0.0;0.0;0.0;0.0;34.0;-25.0;29.0;-18.0;0.06;0.44;-10.67;0.61;0.41;0.92
1753880846.7221642;7.91;5.067;-0.384;-2.07;0.52;86.86;0.0;0.0;0.0;0.0;34.0;-25.0;29.0;-18.0;0.06;0.45;-10.66;0.64;0.24;0.85
1753880846.7271643;7.91;5.067;-0.384;-2.07;0.52;86.86;0.0;0.0;0.0;0.0;34.0;-25.0;29.0;-18.0;0.06;0.44;-10.67;0.53;0.41;0.76
1753880846.7321644;7.91;5.067;-0.384;-2.07;0.52;86.86;0.0;0.0;0.0;0.0;33.5;-25.3;28.2;-22.4;0.04;0.45;-10.67;0.44;0.44;0.7
1753880846.7371645;7.91;5.067;-0.384;-2.07;0.52;86.86;0.0;0.0;0.0;0.0;33.6;-25.1;29.0;-19.5;0.05;0.44;-10.66;0.57;0.52;0.85
1753880846.7421646;7.91;5.067;-0.384;-2.07;0.52;86.86;0.0;0.0;0.0;0.0;33.8;-23.1;28.7;-16.0;0.06;0.43;-10.67;0.53;0.38;0.76
1753880846.7471647;7.91;5.067;-0.384;-2.07;0.51;86.86;0.0;0.0;0.0;0.0;34.0;-25.1;28.5;-20.2;0.07;0.44;-10.68;0.64;0.49;0.81
1753880846.7521648;7.91;5.067;-0.384;-2.07;0.52;86.86;0.0;0.0;0.0;0.0;34.5;-23.8;28.7;-15.7;0.07;0.44;-10.67;0.53;0.32;0.72
1753880846.757165;7.91;5.067;-0.384;-2.07;0.52;86.86;0.0;0.0;0.0;0.0;33.6;-25.0;28.4;-16.1;0.07;0.44;-10.68;0.6;0.49;0.78
1753880846.762165;7.91;5.067;-0.384;-2.07;0.52;86.86;0.0;0.0;0.0;0.0;34.7;-23.8;29.1;-15.0;0.06;0.43;-10.68;0.49;0.53;0.84
1753880846.7671652;7.91;5.067;-0.384;-2.07;0.52;86.86;0.0;0.0;0.0;0.0;33.8;-24.3;28.5;-21.0;0.06;0.44;-10.69;0.53;0.38;0.83
1753880846.7721653;7.91;5.067;-0.384;-2.07;0.52;86.86;0.0;0.0;0.0;0.0;35.1;-25.9;28.9;-20.0;0.07;0.43;-10.66;0.53;0.39;0.79
1753880846.7771654;7.91;5.067;-0.384;-2.07;0.52;86.86;0.0;0.0;0.0;0.0;34.2;-24.9;28.4;-15.2;0.08;0.45;-10.67;0.59;0.37;0.87
1753880846.7821655;7.91;5.067;-0.384;-2.07;0.52;86.86;0.0;0.0;0.0;0.0;35.1;-24.8;28.4;-15.3;0.05;0.45;-10.69;0.54;0.33;0.84
1753880846.7871656;7.91;5.067;-0.384;-2.07;0.52;86.86;0.0;0.0;0.0;0.0;34.9;-25.9;28.3;-17.8;0.06;0.44;-10.66;0.63;0.36;0.85
1753880846.7921658;7.91;5.067;-0.384;-2.07;0.52;86.86;0.0;0.0;0.0;0.0;33.4;-23.6;28.2;-20.8;0.07;0.44;-10.68;0.58;0.38;0.88
1753880846.7971659;7.91;5.067;-0.384;-2.07;0.51;86.86;0.0;0.0;0.0;0.0;34.4;-25.1;27.9;-19.7;0.06;0.44;-10.66;0.58;0.33;0.87
1753880846.802166;7.91;5.067;-0.384;-2.07;0.52;86.86;0.0;0.0;0.0;0.0;34.7;-25.5;27.9;-16.2;0.07;0.44;-10.66;0.53;0.37;0.74
1753880846.807166;7.91;5.067;-0.384;-2.07;0.52;86.86;0.0;0.0;0.0;0.0;34.0;-23.9;28.1;-25.4;0.06;0.43;-10.66;0.61;0.31;0.85
1753880846.8121662;7.91;5.067;-0.384;-2.07;0.51;86.86;0.0;0.0;0.0;0.0;33.9;-26.4;27.9;-19.0;0.08;0.43;-10.68;0.59;0.45;0.91
1753880846.8171663;7.91;5.067;-0.384;-2.07;0.52;86.86;0.0;0.0;0.0;0.0;34.9;-23.2;28.3;-25.8;0.07;0.44;-10.67;0.61;0.33;0.83
1753880846.8221664;7.91;5.067;-0.384;-2.07;0.51;86.86;0.0;0.0;0.0;0.0;35.7;-26.0;28.2;-16.4;0.07;0.42;-10.66;0.68;0.38;1.03
1753880846.8271666;7.91;5.067;-0.384;-2.07;0.52;86.86;0.0;0.0;0.0;0.0;34.3;-25.5;27.5;-16.8;0.08;0.43;-10.68;0.62;0.38;0.94
1753880846.8321667;7.91;5.067;-0.384;-2.07;0.51;86.86;0.0;0.0;0.0;0.0;34.3;-25.7;28.5;-21.5;0.07;0.43;-10.67;0.57;0.38;0.95
1753880846.8371668;7.91;5.067;-0.384;-2.07;0.51;86.86;0.0;0.0;0.0;0.0;35.3;-25.1;28.4;-16.7;0.08;0.44;-10.67;0.65;0.3;0.82
1753880846.842167;7.91;5.067;-0.384;-2.07;0.51;86.86;0.0;0.0;0.0;0.0;34.7;-24.7;28.2;-18.1;0.07;0.43;-10.67;0.63;0.38;0.75
1753880846.847167;7.91;5.067;-0.384;-2.07;0.52;86.86;0.0;0.0;0.0;0.0;34.1;-24.8;28.2;-19.1;0.07;0.42;-10.67;0.62;0.33;0.82
1753880846.8521671;7.91;5.067;-0.384;-2.07;0.51;86.86;0.0;0.0;0.0;0.0;34.4;-26.3;27.6;-17.3;0.08;0.44;-10.65;0.65;0.41;0.87
1753880846.8571672;7.91;5.067;-0.384;-2.07;0.51;86.86;0.0;0.0;0.0;0.0;34.9;-24.6;27.4;-16.4;0.08;0.43;-10.66;0.69;0.35;0.92
1753880846.8621674;7.91;5.067;-0.384;-2.07;0.52;86.86;0.0;0.0;0.0;0.0;35.0;-25.5;27.7;-17.1;0.07;0.43;-10.66;0.56;0.44;1.06
1753880846.8671675;7.91;5.067;-0.384;-2.07;0.52;86.86;0.0;0.0;0.0;0.0;34.1;-24.2;27.0;-21.0;0.09;0.43;-10.68;0.57;0.31;0.9
1753880846.8721676;7.91;5.067;-0.384;-2.07;0.51;86.86;0.0;0.0;0.0;0.0;33.9;-25.0;27.6;-15.8;0.07;0.43;-10.66;0.64;0.27;0.9
1753880846.8771677;7.91;5.067;-0.384;-2.07;0.51;86.86;0.0;0.0;0.0;0.0;34.9;-25.0;27.8;-22.0;0.07;0.42;-10.67;0.5;0.4;0.93
1753880846.8821678;7.91;5.067;-0.384;-2.07;0.51;86.86;0.0;0.0;0.0;0.0;34.1;-24.6;27.6;-19.1;0.08;0.42;-10.67;0.69;0.32;0.84
1753880846.887168;7.91;5.067;-0.384;-2.07;0.51;86.86;0.0;0.0;0.0;0.0;34.9;-23.4;27.6;-18.5;0.07;0.43;-10.67;0.61;0.33;1.02
1753880846.892168;7.91;5.067;-0.384;-2.07;0.51;86.86;0.0;0.0;0.0;0.0;35.8;-24.9;26.9;-20.8;0.09;0.43;-10.67;0.68;0.33;0.91
1753880846.8971682;7.91;5.067;-0.384;-2.07;0.51;86.86;0.0;0.0;0.0;0.0;36.0;-24.7;27.6;-18.0;0.08;0.44;-10.66;0.71;0.33;1.03
1753880846.9021642;7.91;5.067;-0.384;-2.07;0.51;86.86;0.0;0.0;0.0;0.0;35.0;-25.0;27.0;-19.0;0.08;0.43;-10.67;0.64;0.32;0.97
1753880846.9071646;7.91;5.067;-0.384;-2.07;0.51;86.86;0.0;0.0;0.0;0.0;35.0;-25.0;27.0;-19.0;0.08;0.43;-10.66;0.66;0.32;0.83
1753880846.912164;7.91;5.067;-0.384;-2.07;0.51;86.86;0.0;0.0;0.0;0.0;35.0;-25.0;27.0;-19.0;0.08;0.42;-10.66;0.72;0.22;0.86
1753880846.9171646;7.91;5.067;-0.384;-2.07;0.51;86.86;0.0;0.0;0.0;0.0;35.0;-25.0;27.0;-19.0;0.07;0.42;-10.67;0.59;0.3;0.86
1753880846.922164;7.91;5.067;-0.384;-2.07;0.51;86.86;0.0;0.0;0.0;0.0;35.0;-25.0;27.0;-19.0;0.08;0.43;-10.66;0.7;0.25;0.8
1753880846.9271646;7.91;5.067;-0.384;-2.07;0.51;86.86;0.0;0.0;0.0;0.0;35.0;-25.0;27.0;-19.0;0.07;0.43;-10.66;0.46;0.32;0.85
1753880846.932164;7.91;5.067;-0.384;-2.07;0.51;86.86;0.0;0.0;0.0;0.0;35.0;-25.0;27.0;-19.0;0.07;0.43;-10.66;0.61;0.17;0.77
1753880846.9371643;7.91;5.067;-0.384;-2.07;0.51;86.86;0.0;0.0;0.0;0.0;35.0;-25.0;27.0;-19.0;0.06;0.43;-10.66;0.59;0.34;0.93
1753880846.9421644;7.91;5.067;-0.384;-2.07;0.51;86.86;0.0;0.0;0.0;0.0;36.0;-26.0;28.4;-22.4;0.05;0.44;-10.66;0.72;0.25;0.97
1753880846.9471645;7.91;5.067;-0.384;-2.07;0.51;86.86;0.0;0.0;0.0;0.0;35.1;-25.1;28.3;-21.9;0.09;0.43;-10.65;0.56;0.34;0.94
1753880846.9521646;7.91;5.067;-0.384;-2.07;0.51;86.86;0.0;0.0;0.0;0.0;35.3;-23.9;27.3;-20.1;0.07;0.42;-10.66;0.54;0.32;0.96
1753880846.9571648;7.91;5.067;-0.384;-2.07;0.51;86.86;0.0;0.0;0.0;0.0;35.0;-25.6;27.3;-15.5;0.07;0.42;-10.66;0.56;0.38;0.92
1753880846.9621649;7.91;5.067;-0.384;-2.07;0.51;86.86;0.0;0.0;0.0;0.0;34.4;-24.3;24.7;-21.1;0.06;0.42;-10.66;0.63;0.38;0.98
1753880846.967165;7.91;5.067;-0.384;-2.07;0.51;86.86;0.0;0.0;0.0;0.0;36.3;-23.6;27.1;-17.6;0.08;0.43;-10.66;0.66;0.39;0.88
1753880846.972165;7.91;5.067;-0.384;-2.07;0.51;86.86;0.0;0.0;0.0;0.0;35.0;-24.9;27.5;-12.4;0.03;0.43;-10.66;0.58;0.33;0.99
1753880846.9771652;7.91;5.067;-0.384;-2.07;0.52;86.86;0.0;0.0;0.0;0.0;35.8;-25.6;26.4;-18.9;0.06;0.43;-10.66;0.62;0.31;0.97
1753880846.9821653;7.91;5.067;-0.384;-2.07;0.52;86.86;0.0;0.0;0.0;0.0;35.6;-23.5;27.1;-18.9;0.05;0.42;-10.66;0.66;0.26;0.89
1753880846.9871655;7.91;5.067;-0.384;-2.07;0.51;86.86;0.0;0.0;0.0;0.0;35.8;-19.8;28.5;-20.8;0.06;0.44;-10.67;0.68;0.36;1.21
1753880846.9921656;7.91;5.067;-0.384;-2.07;0.51;86.86;0.0;0.0;0.0;0.0;35.5;-24.8;27.9;-17.2;0.04;0.43;-10.67;0.63;0.28;0.99
1753880846.9971657;7.91;5.067;-0.384;-2.07;0.52;86.86;0.0;0.0;0.0;0.0;35.4;-24.9;27.7;-17.1;0.04;0.43;-10.66;0.56;0.36;0.8
1753880847.0021658;7.91;5.067;-0.384;-2.07;0.52;86.86;0.0;0.0;0.0;0.0;36.6;-25.2;28.3;-20.5;0.07;0.44;-10.66;0.73;0.36;0.96
1753880847.007166;7.91;5.067;-0.384;-2.07;0.51;86.86;0.0;0.0;0.0;0.0;35.3;-22.8;28.0;-21.3;0.07;0.42;-10.67;0.71;0.29;0.97
1753880847.012166;7.91;5.067;-0.384;-2.07;0.52;86.86;0.0;0.0;0.0;0.0;35.9;-24.2;27.6;-19.7;0.08;0.43;-10.66;0.61;0.15;0.93
1753880847.0171661;7.91;5.067;-0.384;-2.07;0.52;86.86;0.0;0.0;0.0;0.0;35.3;-24.3;27.9;-17.0;0.05;0.42;-10.66;0.62;0.45;0.84
1753880847.0221663;7.91;5.067;-0.384;-2.07;0.52;86.86;0.0;0.0;0.0;0.0;34.6;-22.7;28.0;-18.0;0.08;0.42;-10.68;0.72;0.3;0.92
1753880847.0271664;7.91;5.067;-0.384;-2.07;0.52;86.86;0.0;0.0;0.0;0.0;35.7;-23.2;27.7;-16.1;0.07;0.43;-10.67;0.6;0.39;0.86
1753880847.0321665;7.91;5.067;-0.384;-2.07;0.51;86.86;0.0;0.0;0.0;0.0;35.0;-22.7;26.3;-22.3;0.05;0.43;-10.67;0.62;0.29;0.87
1753880847.0371666;7.91;5.067;-0.384;-2.07;0.52;86.86;0.0;0.0;0.0;0.0;36.0;-24.7;28.7;-16.2;0.05;0.42;-10.67;0.67;0.24;0.93
1753880847.0421667;7.91;5.067;-0.384;-2.07;0.52;86.86;0.0;0.0;0.0;0.0;36.0;-23.5;28.1;-17.9;0.06;0.41;-10.66;0.72;0.34;0.76
1753880847.0471668;7.91;5.067;-0.384;-2.07;0.52;86.86;0.0;0.0;0.0;0.0;35.2;-24.4;27.0;-21.2;0.07;0.45;-10.67;0.6;0.31;0.82
1753880847.052167;7.91;5.067;-0.384;-2.07;0.52;86.86;0.0;0.0;0.0;0.0;35.1;-22.9;27.9;-21.8;0.07;0.44;-10.67;0.52;0.37;0.87
1753880847.057167;7.91;5.067;-0.384;-2.07;0.53;86.86;0.0;0.0;0.0;0.0;35.7;-25.6;28.5;-18.7;0.05;0.43;-10.66;0.54;0.37;1.05
1753880847.0621672;7.91;5.067;-0.384;-2.07;0.53;86.86;0.0;0.0;0.0;0.0;36.9;-21.6;28.9;-14.7;0.07;0.43;-10.67;0.62;0.41;0.9
1753880847.0671673;7.91;5.067;-0.384;-2.07;0.52;86.86;0.0;0.0;0.0;0.0;36.0;-24.0;29.5;-12.3;0.07;0.43;-10.67;0.7;0.27;0.97
1753880847.0721674;7.91;5.067;-0.384;-2.07;0.53;86.86;0.0;0.0;0.0;0.0;37.9;-22.7;26.9;-17.8;0.08;0.43;-10.67;0.56;0.3;0.78
1753880847.0771675;7.91;5.067;-0.384;-2.07;0.53;86.86;0.0;0.0;0.0;0.0;36.7;-21.4;26.7;-16.1;0.07;0.43;-10.67;0.72;0.29;0.79
1753880847.0821676;7.91;5.067;-0.384;-2.07;0.53;86.86;0.0;0.0;0.0;0.0;36.2;-27.9;28.4;-19.2;0.07;0.43;-10.67;0.71;0.33;0.85
1753880847.0871677;7.91;5.067;-0.384;-2.07;0.53;86.86;0.0;0.0;0.0;0.0;36.9;-23.6;27.2;-23.2;0.07;0.44;-10.67;0.74;0.35;0.95
1753880847.0921679;7.91;5.067;-0.384;-2.07;0.52;86.86;0.0;0.0;0.0;0.0;36.2;-25.2;26.8;-19.3;0.07;0.42;-10.67;0.64;0.35;0.91
1753880847.097168;7.91;5.067;-0.384;-2.07;0.53;86.86;0.0;0.0;0.0;0.0;36.1;-21.6;28.0;-16.3;0.07;0.43;-10.67;0.71;0.39;0.8
1753880847.1021643;7.91;5.067;-0.384;-2.07;0.53;86.86;0.0;0.0;0.0;0.0;36.0;-23.0;28.0;-18.0;0.07;0.43;-10.67;0.68;0.32;0.86
1753880847.1071644;7.91;5.067;-0.384;-2.07;0.53;86.86;0.0;0.0;0.0;0.0;36.0;-23.0;28.0;-18.0;0.07;0.43;-10.67;0.64;0.41;0.84
1753880847.1121643;7.91;5.067;-0.384;-2.07;0.53;86.86;0.0;0.0;0.0;0.0;36.0;-23.0;28.0;-18.0;0.07;0.42;-10.67;0.53;0.41;0.93
1753880847.1171644;7.91;5.067;-0.384;-2.07;0.53;86.86;0.0;0.0;0.0;0.0;36.0;-23.0;28.0;-18.0;0.06;0.42;-10.67;0.57;0.32;0.9
1753880847.1221642;7.91;5.067;-0.384;-2.07;0.53;86.86;0.0;0.0;0.0;0.0;36.0;-23.0;28.0;-18.0;0.07;0.43;-10.67;0.62;0.32;0.98
1753880847.1271644;7.91;5.067;-0.384;-2.07;0.53;86.86;0.0;0.0;0.0;0.0;36.0;-23.0;28.0;-18.0;0.07;0.43;-10.67;0.57;0.24;0.89
1753880847.1321642;7.91;5.067;-0.384;-2.07;0.53;86.86;0.0;0.0;0.0;0.0;36.0;-23.0;28.0;-18.0;0.07;0.43;-10.67;0.57;0.28;0.9
1753880847.1371644;7.91;5.067;-0.384;-2.07;0.53;86.86;0.0;0.0;0.0;0.0;36.0;-23.0;28.0;-18.0;0.07;0.43;-10.68;0.63;0.35;0.89
1753880847.1421642;7.91;5.067;-0.384;-2.07;0.53;86.86;0.0;0.0;0.0;0.0;36.0;-23.0;28.0;-18.0;0.07;0.43;-10.68;0.64;0.35;0.9
1753880847.1471643;7.91;5.067;-0.384;-2.07;0.53;86.86;0.0;0.0;0.0;0.0;36.0;-23.0;28.0;-18.0;0.07;0.44;-10.67;0.66;0.22;0.83
1753880847.1521645;7.91;5.067;-0.384;-2.07;0.53;86.86;0.0;0.0;0.0;0.0;35.9;-23.9;27.2;-17.4;0.06;0.44;-10.66;0.61;0.28;0.84
1753880847.1571646;7.91;5.067;-0.384;-2.07;0.54;86.86;0.0;0.0;0.0;0.0;35.4;-24.1;27.7;-18.2;0.06;0.44;-10.66;0.75;0.17;0.81
1753880847.1621647;7.91;5.067;-0.384;-2.07;0.53;86.86;0.0;0.0;0.0;0.0;36.3;-21.2;28.0;-16.9;0.07;0.45;-10.67;0.63;0.28;0.78
1753880847.1671648;7.91;5.067;-0.384;-2.07;0.53;86.86;0.0;0.0;0.0;0.0;37.0;-24.1;29.3;-18.5;0.07;0.43;-10.66;0.61;0.29;0.85
1753880847.172165;7.91;5.067;-0.384;-2.07;0.53;86.86;0.0;0.0;0.0;0.0;36.8;-23.6;27.9;-18.3;0.07;0.43;-10.67;0.77;0.33;0.85
1753880847.177165;7.91;5.067;-0.384;-2.07;0.52;86.86;0.0;0.0;0.0;0.0;35.4;-23.4;27.6;-18.3;0.08;0.44;-10.68;0.55;0.32;0.81
1753880847.1821651;7.91;5.067;-0.384;-2.07;0.53;86.86;0.0;0.0;0.0;0.0;35.6;-21.6;28.7;-17.9;0.06;0.44;-10.67;0.63;0.28;0.86
1753880847.1871653;7.91;5.067;-0.384;-2.07;0.55;86.86;0.0;0.0;0.0;0.0;35.7;-22.5;28.0;-18.9;0.06;0.43;-10.67;0.54;0.22;0.78
1753880847.1921654;7.91;5.067;-0.384;-2.07;0.52;86.86;0.0;0.0;0.0;0.0;36.9;-21.6;27.9;-17.8;0.07;0.44;-10.67;0.69;0.13;0.93
1753880847.1971655;7.91;5.067;-0.384;-2.07;0.55;86.86;0.0;0.0;0.0;0.0;36.7;-22.7;27.5;-17.7;0.07;0.44;-10.66;0.72;0.34;0.88
1753880847.2021656;7.91;5.067;-0.384;-2.06;0.55;86.86;0.0;0.0;0.0;0.0;37.0;-23.1;28.2;-17.1;0.08;0.44;-10.66;0.59;0.27;0.8
1753880847.2071657;7.91;5.067;-0.384;-2.06;0.53;86.86;0.0;0.0;0.0;0.0;35.8;-20.8;28.8;-18.6;0.06;0.45;-10.66;0.68;0.22;1.03
1753880847.2121658;7.91;5.067;-0.384;-2.06;0.54;86.86;0.0;0.0;0.0;0.0;35.5;-23.1;28.8;-17.1;0.07;0.43;-10.66;0.6;0.23;0.96
1753880847.217166;7.91;5.067;-0.384;-2.06;0.54;86.86;0.0;0.0;0.0;0.0;36.4;-22.5;28.5;-17.9;0.07;0.45;-10.66;0.54;0.27;0.8
1753880847.222166;7.91;5.067;-0.384;-2.07;0.54;86.86;0.0;0.0;0.0;0.0;35.3;-22.7;29.8;-17.5;0.07;0.44;-10.67;0.67;0.34;0.91
1753880847.2271662;7.91;5.067;-0.384;-2.06;0.54;86.86;0.0;0.0;0.0;0.0;36.8;-22.2;28.8;-17.2;0.07;0.45;-10.66;0.69;0.34;0.87
1753880847.2321663;7.91;5.067;-0.384;-2.07;0.52;86.86;0.0;0.0;0.0;0.0;36.5;-20.5;28.9;-18.1;0.07;0.44;-10.66;0.64;0.27;0.89
1753880847.2371664;7.91;5.067;-0.384;-2.06;0.54;86.86;0.0;0.0;0.0;0.0;35.8;-22.8;29.5;-17.4;0.07;0.43;-10.67;0.75;0.32;0.94
1753880847.2421665;7.91;5.067;-0.384;-2.06;0.57;86.86;0.0;0.0;0.0;0.0;35.7;-21.8;28.6;-17.5;0.07;0.45;-10.66;0.65;0.19;0.89
1753880847.2471666;7.91;5.067;-0.384;-2.06;0.54;86.86;0.0;0.0;0.0;0.0;35.8;-23.0;28.5;-18.4;0.06;0.44;-10.66;0.6;0.2;0.89
1753880847.2521667;7.91;5.067;-0.384;-2.06;0.55;86.86;0.0;0.0;0.0;0.0;36.6;-21.4;29.0;-17.7;0.08;0.44;-10.67;0.6;0.35;0.82
1753880847.2571669;7.91;5.067;-0.384;-2.06;0.53;86.86;0.0;0.0;0.0;0.0;35.7;-22.1;28.0;-17.3;0.07;0.43;-10.67;0.72;0.32;0.85
1753880847.262167;7.91;5.067;-0.384;-2.06;0.55;86.86;0.0;0.0;0.0;0.0;36.5;-23.6;27.7;-17.5;0.07;0.44;-10.66;0.7;0.33;0.87
1753880847.267167;7.91;5.067;-0.384;-2.06;0.54;86.86;0.0;0.0;0.0;0.0;35.5;-22.3;28.6;-16.9;0.06;0.43;-10.64;0.69;0.36;0.94
1753880847.2721672;7.91;5.067;-0.384;-2.06;0.54;86.86;0.0;0.0;0.0;0.0;36.7;-21.2;29.6;-17.8;0.08;0.45;-10.67;0.61;0.33;1.01
1753880847.2771673;7.91;5.067;-0.384;-2.06;0.55;86.86;0.0;0.0;0.0;0.0;36.3;-20.2;28.1;-17.6;0.06;0.45;-10.65;0.78;0.35;0.91
1753880847.2821674;7.91;5.067;-0.384;-2.06;0.54;86.86;0.0;0.0;0.0;0.0;36.4;-20.2;28.9;-17.0;0.06;0.44;-10.66;0.79;0.46;0.88
1753880847.2871675;7.91;5.067;-0.384;-2.06;0.55;86.86;0.0;0.0;0.0;0.0;36.6;-20.5;29.5;-16.4;0.08;0.45;-10.67;0.63;0.52;1.02
1753880847.2921677;7.91;5.067;-0.384;-2.06;0.54;86.86;0.0;0.0;0.0;0.0;36.8;-19.3;28.6;-17.3;0.06;0.44;-10.66;0.62;0.29;0.91
1753880847.297164;7.91;5.067;-0.384;-2.06;0.55;86.86;0.0;0.0;0.0;0.0;36.0;-21.0;29.0;-17.0;0.07;0.44;-10.66;0.67;0.38;0.95
1753880847.3021646;7.91;5.067;-0.384;-2.06;0.55;86.86;0.0;0.0;0.0;0.0;36.0;-21.0;29.0;-17.0;0.07;0.44;-10.67;0.58;0.17;1.04
1753880847.307164;7.91;5.067;-0.384;-2.06;0.55;86.86;0.0;0.0;0.0;0.0;36.0;-21.0;29.0;-17.0;0.07;0.44;-10.66;0.58;0.32;0.84
1753880847.3121643;7.91;5.067;-0.384;-2.06;0.55;86.86;0.0;0.0;0.0;0.0;36.0;-21.0;29.0;-17.0;0.07;0.45;-10.67;0.51;0.28;0.99
1753880847.317164;7.91;5.067;-0.384;-2.06;0.55;86.86;0.0;0.0;0.0;0.0;36.0;-21.0;29.0;-17.0;0.07;0.45;-10.67;0.54;0.3;0.83
1753880847.3221643;7.91;5.067;-0.384;-2.06;0.55;86.86;0.0;0.0;0.0;0.0;36.0;-21.0;29.0;-17.0;0.07;0.45;-10.67;0.53;0.28;1.02
1753880847.3271642;7.91;5.067;-0.384;-2.06;0.55;86.86;0.0;0.0;0.0;0.0;36.0;-21.0;29.0;-17.0;0.07;0.45;-10.67;0.6;0.28;0.91
1753880847.3321643;7.91;5.067;-0.384;-2.06;0.55;86.86;0.0;0.0;0.0;0.0;36.0;-21.0;29.0;-17.0;0.07;0.45;-10.67;0.57;0.3;0.98
1753880847.3371642;7.91;5.067;-0.384;-2.06;0.55;86.86;0.0;0.0;0.0;0.0;36.0;-21.0;29.0;-17.0;0.06;0.45;-10.66;0.66;0.33;0.92
1753880847.3421643;7.91;5.067;-0.384;-2.06;0.55;86.86;0.0;0.0;0.0;0.0;36.0;-21.0;29.0;-17.0;0.06;0.45;-10.66;0.58;0.32;0.87
1753880847.3471642;7.91;5.067;-0.384;-2.06;0.55;86.86;0.0;0.0;0.0;0.0;36.0;-21.0;29.0;-17.0;0.06;0.45;-10.66;0.59;0.36;0.97
1753880847.3521643;7.91;5.067;-0.384;-2.06;0.55;86.86;0.0;0.0;0.0;0.0;36.0;-21.0;29.0;-17.0;0.06;0.44;-10.66;0.58;0.22;0.9
1753880847.3571644;7.91;5.067;-0.384;-2.06;0.55;86.86;0.0;0.0;0.0;0.0;36.0;-21.0;29.0;-17.0;0.06;0.44;-10.66;0.54;0.39;0.93
1753880847.3621643;7.91;5.067;-0.384;-2.06;0.55;86.86;0.0;0.0;0.0;0.0;36.0;-21.0;29.0;-17.0;0.06;0.44;-10.66;0.57;0.36;0.82
1753880847.3671644;7.91;5.067;-0.384;-2.06;0.55;86.86;0.0;0.0;0.0;0.0;36.0;-21.0;29.0;-17.0;0.06;0.44;-10.65;0.6;0.48;0.9
1753880847.3721642;7.91;5.067;-0.384;-2.06;0.55;86.86;0.0;0.0;0.0;0.0;36.0;-21.0;29.0;-17.0;0.06;0.44;-10.66;0.62;0.23;0.99
1753880847.3771644;7.91;5.067;-0.384;-2.06;0.55;86.86;0.0;0.0;0.0;0.0;36.0;-21.0;29.0;-17.0;0.06;0.43;-10.66;0.73;0.24;0.94
1753880847.3821642;7.91;5.067;-0.384;-2.06;0.55;86.86;0.0;0.0;0.0;0.0;36.0;-21.0;29.0;-17.0;0.06;0.43;-10.66;0.71;0.3;0.83
1753880847.3871644;7.91;5.067;-0.384;-2.06;0.55;86.86;0.0;0.0;0.0;0.0;36.0;-21.0;29.0;-17.0;0.06;0.43;-10.66;0.54;0.28;0.9
1753880847.3921642;7.91;5.067;-0.384;-2.06;0.55;86.86;0.0;0.0;0.0;0.0;36.0;-21.0;29.0;-17.0;0.07;0.43;-10.66;0.73;0.21;0.96
1753880847.3971643;7.91;5.067;-0.384;-2.06;0.55;86.86;0.0;0.0;0.0;0.0;36.0;-21.0;29.0;-17.0;0.07;0.43;-10.66;0.61;0.24;0.93
1753880847.4021642;7.91;5.067;-0.384;-2.06;0.55;86.86;0.0;0.0;0.0;0.0;36.0;-21.0;29.0;-17.0;0.06;0.43;-10.66;0.7;0.29;0.8
1753880847.4071646;7.91;5.067;-0.384;-2.06;0.55;86.86;0.0;0.0;0.0;0.0;36.0;-21.0;29.0;-17.0;0.06;0.43;-10.66;0.67;0.51;0.89
1753880847.412164;7.91;5.067;-0.384;-2.06;0.55;86.86;0.0;0.0;0.0;0.0;36.0;-21.0;29.0;-17.0;0.06;0.43;-10.66;0.67;0.38;0.95
1753880847.4171646;7.91;5.067;-0.384;-2.06;0.55;86.86;0.0;0.0;0.0;0.0;36.0;-21.0;29.0;-17.0;0.06;0.44;-10.65;0.61;0.33;0.9
1753880847.422164;7.91;5.067;-0.384;-2.06;0.55;86.86;0.0;0.0;0.0;0.0;36.0;-21.0;29.0;-17.0;0.06;0.44;-10.65;0.76;0.22;0.78
1753880847.4271646;7.91;5.067;-0.384;-2.06;0.55;86.86;0.0;0.0;0.0;0.0;36.0;-21.0;29.0;-17.0;0.06;0.44;-10.65;0.7;0.31;0.9
1753880847.432164;7.91;5.067;-0.384;-2.06;0.55;86.86;0.0;0.0;0.0;0.0;36.0;-21.0;29.0;-17.0;0.06;0.45;-10.65;0.64;0.39;0.93
1753880847.4371643;7.91;5.067;-0.384;-2.06;0.55;86.86;0.0;0.0;0.0;0.0;36.0;-21.0;29.0;-17.0;0.06;0.45;-10.64;0.59;0.38;0.88
1753880847.4421644;7.91;5.067;-0.384;-2.06;0.55;86.86;0.0;0.0;0.0;0.0;36.0;-21.0;29.0;-17.0;0.07;0.45;-10.63;0.55;0.47;0.89
1753880847.4471645;7.91;5.067;-0.384;-2.06;0.55;86.86;0.0;0.0;0.0;0.0;36.0;-21.0;29.0;-17.0;0.07;0.44;-10.64;0.68;0.54;0.9
1753880847.4521646;7.91;5.067;-0.384;-2.06;0.55;86.86;0.0;0.0;0.0;0.0;36.0;-21.0;29.0;-17.0;0.06;0.44;-10.64;0.71;0.46;0.85
1753880847.4571648;7.91;5.067;-0.384;-2.06;0.55;86.86;0.0;0.0;0.0;0.0;36.0;-21.0;29.0;-17.0;0.07;0.46;-10.65;0.56;0.32;0.98
1753880847.4621649;7.91;5.067;-0.384;-2.06;0.55;86.86;0.0;0.0;0.0;0.0;36.0;-21.0;29.0;-17.0;0.07;0.44;-10.63;0.5;0.23;0.91
1753880847.467165;7.91;5.067;-0.384;-2.06;0.55;86.86;0.0;0.0;0.0;0.0;36.0;-21.0;29.0;-17.0;0.06;0.45;-10.64;0.72;0.35;0.86
1753880847.472165;7.91;5.067;-0.384;-2.06;0.55;86.86;0.0;0.0;0.0;0.0;36.0;-21.0;29.0;-17.0;0.07;0.44;-10.65;0.63;0.34;0.95
1753880847.4771643;7.91;5.067;-0.384;-2.06;0.55;86.86;0.0;0.0;0.0;0.0;36.0;-21.0;29.0;-17.0;0.07;0.44;-10.64;0.61;0.31;0.96
1753880847.4821644;7.91;5.067;-0.384;-2.06;0.55;86.86;0.0;0.0;0.0;0.0;36.0;-21.0;29.0;-17.0;0.07;0.44;-10.64;0.61;0.29;0.99
1753880847.4871643;7.91;5.067;-0.384;-2.06;0.55;86.86;0.0;0.0;0.0;0.0;36.0;-21.0;29.0;-17.0;0.07;0.44;-10.65;0.54;0.28;0.86
1753880847.4921644;7.91;5.067;-0.384;-2.06;0.55;86.86;0.0;0.0;0.0;0.0;36.0;-21.0;29.0;-17.0;0.07;0.44;-10.65;0.53;0.21;0.71
1753880847.4971642;7.91;5.067;-0.384;-2.06;0.55;86.86;0.0;0.0;0.0;0.0;36.0;-21.0;29.0;-17.0;0.06;0.44;-10.66;0.64;0.28;0.74
1753880847.5021644;7.91;5.067;-0.384;-2.06;0.55;86.86;0.0;0.0;0.0;0.0;36.0;-21.0;29.0;-17.0;0.06;0.44;-10.66;0.45;0.35;0.86
1753880847.5071642;7.91;5.067;-0.384;-2.06;0.55;86.86;0.0;0.0;0.0;0.0;36.0;-21.0;29.0;-17.0;0.07;0.43;-10.65;0.54;0.27;0.86
1753880847.5121644;7.91;5.067;-0.384;-2.06;0.55;86.86;0.0;0.0;0.0;0.0;36.0;-21.0;29.0;-17.0;0.06;0.43;-10.65;0.69;0.45;0.85
1753880847.5171642;7.91;5.067;-0.384;-2.06;0.55;86.86;0.0;0.0;0.0;0.0;36.0;-21.0;29.0;-17.0;0.07;0.44;-10.66;0.48;0.38;0.86
1753880847.5221643;7.91;5.067;-0.384;-2.06;0.55;86.86;0.0;0.0;0.0;0.0;36.0;-21.0;29.0;-17.0;0.06;0.43;-10.66;0.46;0.35;0.85
1753880847.5271642;7.91;5.067;-0.384;-2.06;0.55;86.86;0.0;0.0;0.0;0.0;36.0;-21.0;29.0;-17.0;0.06;0.43;-10.65;0.66;0.37;0.83
1753880847.5321646;7.91;5.067;-0.384;-2.06;0.55;86.86;0.0;0.0;0.0;0.0;36.0;-21.0;29.0;-17.0;0.06;0.43;-10.65;0.68;0.27;0.93
1753880847.537164;7.91;5.067;-0.384;-2.06;0.55;86.86;0.0;0.0;0.0;0.0;36.0;-21.0;29.0;-17.0;0.06;0.43;-10.65;0.63;0.27;0.93
1753880847.5421646;7.91;5.067;-0.384;-2.06;0.55;86.86;0.0;0.0;0.0;0.0;36.0;-21.0;29.0;-17.0;0.07;0.43;-10.66;0.69;0.31;0.81
1753880847.547164;7.91;5.067;-0.384;-2.06;0.55;86.86;0.0;0.0;0.0;0.0;36.0;-21.0;29.0;-17.0;0.07;0.43;-10.66;0.64;0.3;0.86
1753880847.5521646;7.91;5.067;-0.384;-2.06;0.55;86.86;0.0;0.0;0.0;0.0;36.0;-21.0;29.0;-17.0;0.07;0.44;-10.66;0.57;0.45;1.02
1753880847.557164;7.91;5.067;-0.384;-2.06;0.55;86.86;0.0;0.0;0.0;0.0;36.0;-21.0;29.0;-17.0;0.07;0.44;-10.65;0.62;0.25;0.94
1753880847.5621643;7.91;5.067;-0.384;-2.06;0.55;86.86;0.0;0.0;0.0;0.0;36.0;-21.0;29.0;-17.0;0.07;0.44;-10.66;0.63;0.3;0.85
1753880847.567164;7.91;5.067;-0.384;-2.06;0.55;86.86;0.0;0.0;0.0;0.0;36.0;-21.0;29.0;-17.0;0.07;0.44;-10.66;0.67;0.24;0.88
1753880847.5721643;7.91;5.067;-0.384;-2.06;0.55;86.86;0.0;0.0;0.0;0.0;36.0;-21.0;29.0;-17.0;0.07;0.44;-10.66;0.7;0.39;0.9
1753880847.5771642;7.91;5.067;-0.384;-2.06;0.55;86.86;0.0;0.0;0.0;0.0;36.0;-21.0;29.0;-17.0;0.06;0.44;-10.66;0.79;0.44;0.91
1753880847.5821643;7.91;5.067;-0.384;-2.06;0.55;86.86;0.0;0.0;0.0;0.0;36.0;-21.0;29.0;-17.0;0.06;0.44;-10.67;0.47;0.38;0.96
1753880847.5871642;7.91;5.067;-0.384;-2.06;0.55;86.86;0.0;0.0;0.0;0.0;36.0;-21.0;29.0;-17.0;0.06;0.44;-10.67;0.67;0.27;0.99
1753880847.5921643;7.91;5.067;-0.384;-2.06;0.55;86.86;0.0;0.0;0.0;0.0;36.0;-21.0;29.0;-17.0;0.06;0.44;-10.66;0.57;0.19;0.98
1753880847.5971642;7.91;5.067;-0.384;-2.06;0.55;86.86;0.0;0.0;0.0;0.0;36.0;-21.0;29.0;-17.0;0.06;0.44;-10.66;0.58;0.24;0.92
1753880847.6021643;7.91;5.067;-0.384;-2.06;0.55;86.86;0.0;0.0;0.0;0.0;36.0;-21.0;29.0;-17.0;0.06;0.44;-10.65;0.42;0.27;0.77
1753880847.6071644;7.91;5.067;-0.384;-2.06;0.55;86.86;0.0;0.0;0.0;0.0;36.0;-21.0;29.0;-17.0;0.06;0.44;-10.66;0.63;0.29;0.92
1753880847.6121645;7.91;5.067;-0.384;-2.06;0.55;86.86;0.0;0.0;0.0;0.0;36.0;-21.0;29.0;-17.0;0.05;0.43;-10.67;0.72;0.33;0.92
1753880847.6171646;7.91;5.067;-0.384;-2.06;0.55;86.86;0.0;0.0;0.0;0.0;36.0;-21.0;29.0;-17.0;0.06;0.43;-10.66;0.64;0.42;0.94
1753880847.6221647;7.91;5.067;-0.384;-2.06;0.55;86.86;0.0;0.0;0.0;0.0;36.0;-21.0;29.0;-17.0;0.06;0.44;-10.66;0.5;0.23;0.94
1753880847.6271648;7.91;5.067;-0.384;-2.06;0.55;86.86;0.0;0.0;0.0;0.0;36.0;-21.0;29.0;-17.0;0.05;0.44;-10.67;0.55;0.29;0.86
1753880847.632165;7.91;5.067;-0.384;-2.06;0.55;86.86;0.0;0.0;0.0;0.0;36.0;-21.0;29.0;-17.0;0.04;0.45;-10.67;0.7;0.34;0.86
1753880847.637165;7.91;5.067;-0.384;-2.06;0.55;86.86;0.0;0.0;0.0;0.0;36.0;-21.0;29.0;-17.0;0.04;0.44;-10.66;0.71;0.28;0.87
1753880847.6421652;7.91;5.067;-0.384;-2.06;0.55;86.86;0.0;0.0;0.0;0.0;36.0;-21.0;29.0;-17.0;0.05;0.44;-10.67;0.6;0.24;0.98
1753880847.6471653;7.91;5.067;-0.384;-2.06;0.55;86.86;0.0;0.0;0.0;0.0;36.0;-21.0;29.0;-17.0;0.06;0.44;-10.66;0.65;0.29;1.01
1753880847.6521654;7.91;5.067;-0.384;-2.06;0.55;86.86;0.0;0.0;0.0;0.0;36.0;-21.0;29.0;-17.0;0.06;0.44;-10.66;0.6;0.46;0.97
1753880847.6571655;7.91;5.067;-0.384;-2.06;0.55;86.86;0.0;0.0;0.0;0.0;36.0;-21.0;29.0;-17.0;0.04;0.44;-10.67;0.67;0.35;0.89
1753880847.662164;7.91;5.067;-0.384;-2.06;0.55;86.86;0.0;0.0;0.0;0.0;36.0;-21.0;29.0;-17.0;0.05;0.44;-10.66;0.61;0.33;0.97
1753880847.6671646;7.91;5.067;-0.384;-2.06;0.55;86.86;0.0;0.0;0.0;0.0;36.0;-21.0;29.0;-17.0;0.05;0.44;-10.67;0.61;0.36;0.89
1753880847.672164;7.91;5.067;-0.384;-2.06;0.55;86.86;0.0;0.0;0.0;0.0;36.0;-21.0;29.0;-17.0;0.05;0.44;-10.67;0.63;0.42;0.9
1753880847.6771646;7.91;5.067;-0.384;-2.06;0.55;86.86;0.0;0.0;0.0;0.0;36.0;-21.0;29.0;-17.0;0.05;0.44;-10.67;0.69;0.24;1.02
1753880847.682164;7.91;5.067;-0.384;-2.06;0.55;86.86;0.0;0.0;0.0;0.0;36.0;-21.0;29.0;-17.0;0.05;0.44;-10.66;0.75;0.36;0.84
1753880847.6871643;7.91;5.067;-0.384;-2.06;0.55;86.86;0.0;0.0;0.0;0.0;36.0;-21.0;29.0;-17.0;0.06;0.44;-10.66;0.64;0.14;1.13
1753880847.692164;7.91;5.067;-0.384;-2.06;0.55;86.86;0.0;0.0;0.0;0.0;36.0;-21.0;29.0;-17.0;0.06;0.44;-10.65;0.66;0.24;1.02
1753880847.6971643;7.91;5.067;-0.384;-2.06;0.55;86.86;0.0;0.0;0.0;0.0;36.0;-21.0;29.0;-17.0;0.06;0.44;-10.65;0.51;0.32;0.89
1753880847.7021642;7.91;5.067;-0.384;-2.06;0.55;86.86;0.0;0.0;0.0;0.0;36.0;-21.0;29.0;-17.0;0.05;0.44;-10.65;0.57;0.45;0.99
1753880847.7071643;7.91;5.067;-0.384;-2.06;0.55;86.86;0.0;0.0;0.0;0.0;36.0;-21.0;29.0;-17.0;0.05;0.44;-10.65;0.51;0.25;1.09
1753880847.7121642;7.91;5.067;-0.384;-2.06;0.55;86.86;0.0;0.0;0.0;0.0;36.0;-21.0;29.0;-17.0;0.05;0.44;-10.65;0.45;0.47;0.83
1753880847.7171643;7.91;5.067;-0.384;-2.06;0.55;86.86;0.0;0.0;0.0;0.0;36.0;-21.0;29.0;-17.0;0.05;0.44;-10.65;0.5;0.43;0.94
1753880847.7221642;7.91;5.067;-0.384;-2.06;0.55;86.86;0.0;0.0;0.0;0.0;36.0;-21.0;29.0;-17.0;0.05;0.44;-10.65;0.58;0.39;0.96
1753880847.7271643;7.91;5.067;-0.384;-2.06;0.55;86.86;0.0;0.0;0.0;0.0;36.0;-21.0;29.0;-17.0;0.06;0.44;-10.65;0.64;0.26;0.92
1753880847.7321644;7.91;5.067;-0.384;-2.06;0.55;86.86;0.0;0.0;0.0;0.0;36.0;-21.0;29.0;-17.0;0.06;0.44;-10.65;0.52;0.25;0.9
1753880847.7371643;7.91;5.067;-0.384;-2.06;0.55;86.86;0.0;0.0;0.0;0.0;36.0;-21.0;29.0;-17.0;0.05;0.44;-10.66;0.6;0.45;0.88
1753880847.7421644;7.91;5.067;-0.384;-2.06;0.55;86.86;0.0;0.0;0.0;0.0;36.0;-21.0;29.0;-17.0;0.05;0.44;-10.66;0.63;0.27;0.85
1753880847.7471642;7.91;5.067;-0.384;-2.06;0.55;86.86;0.0;0.0;0.0;0.0;36.0;-21.0;29.0;-17.0;0.05;0.44;-10.66;0.49;0.16;0.93
1753880847.7521644;7.91;5.067;-0.384;-2.06;0.55;86.86;0.0;0.0;0.0;0.0;36.0;-21.0;29.0;-17.0;0.05;0.44;-10.66;0.51;0.35;0.95
1753880847.7571645;7.91;5.067;-0.384;-2.06;0.54;86.86;0.0;0.0;0.0;0.0;36.0;-21.4;28.9;-16.9;0.05;0.44;-10.67;0.42;0.21;0.99
1753880847.7621646;7.91;5.067;-0.384;-2.06;0.55;86.86;0.0;0.0;0.0;0.0;36.0;-21.0;28.9;-16.5;0.05;0.44;-10.65;0.55;0.23;0.87
1753880847.7671647;7.91;5.067;-0.384;-2.06;0.54;86.86;0.0;0.0;0.0;0.0;36.0;-21.5;28.7;-16.7;0.05;0.44;-10.67;0.67;0.36;0.99
1753880847.7721648;7.91;5.067;-0.384;-2.06;0.54;86.86;0.0;0.0;0.0;0.0;36.0;-21.1;29.1;-16.8;0.05;0.44;-10.65;0.59;0.49;0.98
1753880847.777165;7.91;5.067;-0.384;-2.06;0.55;86.86;0.0;0.0;0.0;0.0;36.0;-21.3;28.4;-17.0;0.05;0.44;-10.67;0.5;0.57;0.88
1753880847.782165;7.91;5.067;-0.384;-2.07;0.54;86.86;0.0;0.0;0.0;0.0;36.0;-21.3;28.6;-16.5;0.05;0.44;-10.66;0.35;0.34;0.85
1753880847.7871652;7.91;5.067;-0.384;-2.06;0.55;86.86;0.0;0.0;0.0;0.0;36.0;-21.9;28.4;-16.6;0.05;0.44;-10.67;0.54;0.47;0.74
1753880847.7921653;7.91;5.067;-0.384;-2.07;0.54;86.86;0.0;0.0;0.0;0.0;36.0;-21.1;28.3;-16.3;0.05;0.44;-10.66;0.56;0.61;0.96
1753880847.7971654;7.91;5.067;-0.384;-2.06;0.54;86.86;0.0;0.0;0.0;0.0;36.0;-22.2;28.3;-16.9;0.05;0.44;-10.67;0.53;0.29;0.99
1753880847.8021655;7.91;5.067;-0.384;-2.06;0.54;86.86;0.0;0.0;0.0;0.0;36.0;-22.4;28.1;-16.3;0.05;0.44;-10.67;0.35;0.34;1.03
1753880847.8071656;7.91;5.067;-0.384;-2.07;0.54;86.86;0.0;0.0;0.0;0.0;36.0;-22.3;27.5;-16.4;0.06;0.44;-10.67;0.65;0.38;0.94
1753880847.8121657;7.91;5.067;-0.384;-2.06;0.53;86.86;0.0;0.0;0.0;0.0;36.0;-22.3;27.9;-16.5;0.05;0.44;-10.66;0.58;0.18;0.85
1753880847.8171659;7.91;5.067;-0.384;-2.07;0.54;86.86;0.0;0.0;0.0;0.0;36.0;-22.8;27.7;-16.2;0.05;0.44;-10.66;0.56;0.41;0.94
1753880847.822166;7.91;5.067;-0.384;-2.07;0.53;86.86;0.0;0.0;0.0;0.0;36.0;-22.4;27.1;-16.4;0.05;0.44;-10.66;0.63;0.65;0.92
1753880847.827166;7.91;5.067;-0.384;-2.07;0.55;86.86;0.0;0.0;0.0;0.0;36.0;-22.1;27.9;-16.1;0.07;0.44;-10.66;0.61;0.58;1.03
1753880847.8321662;7.91;5.067;-0.384;-2.07;0.53;86.86;0.0;0.0;0.0;0.0;36.0;-23.3;27.0;-16.0;0.06;0.44;-10.67;0.48;0.49;1.0
1753880847.8371663;7.91;5.067;-0.384;-2.07;0.54;86.86;0.0;0.0;0.0;0.0;36.0;-23.2;26.8;-16.2;0.06;0.44;-10.66;0.47;0.57;1.05
1753880847.8421664;7.91;5.067;-0.384;-2.07;0.54;86.86;0.0;0.0;0.0;0.0;36.0;-22.9;27.2;-16.2;0.06;0.44;-10.67;0.64;0.45;1.06
1753880847.8471642;7.91;5.067;-0.384;-2.07;0.53;86.86;0.0;0.0;0.0;0.0;36.0;-23.0;27.0;-16.0;0.06;0.44;-10.67;0.54;0.48;1.03
1753880847.8521643;7.91;5.067;-0.384;-2.07;0.53;86.86;0.0;0.0;0.0;0.0;36.0;-23.0;27.0;-16.0;0.06;0.44;-10.67;0.54;0.51;0.86
1753880847.8571644;7.91;5.067;-0.384;-2.07;0.53;86.86;0.0;0.0;0.0;0.0;36.0;-23.0;27.0;-16.0;0.06;0.44;-10.67;0.56;0.35;0.8
1753880847.8621643;7.91;5.067;-0.384;-2.07;0.53;86.86;0.0;0.0;0.0;0.0;36.0;-23.0;27.0;-16.0;0.06;0.44;-10.67;0.53;0.24;0.91
1753880847.8671644;7.91;5.067;-0.384;-2.07;0.53;86.86;0.0;0.0;0.0;0.0;36.0;-23.0;27.0;-16.0;0.06;0.44;-10.66;0.62;0.35;0.9
1753880847.8721642;7.91;5.067;-0.384;-2.07;0.53;86.86;0.0;0.0;0.0;0.0;36.0;-23.0;27.0;-16.0;0.06;0.44;-10.66;0.63;0.38;1.03
1753880847.8771644;7.91;5.067;-0.384;-2.07;0.53;86.86;0.0;0.0;0.0;0.0;36.0;-23.0;27.0;-16.0;0.06;0.44;-10.66;0.52;0.31;0.92
1753880847.8821642;7.91;5.067;-0.384;-2.07;0.53;86.86;0.0;0.0;0.0;0.0;36.0;-23.0;27.0;-16.0;0.05;0.44;-10.66;0.62;0.36;0.94
1753880847.8871644;7.91;5.067;-0.384;-2.07;0.53;86.86;0.0;0.0;0.0;0.0;36.0;-23.0;27.0;-16.0;0.06;0.44;-10.67;0.61;0.32;0.86
1753880847.8921642;7.91;5.067;-0.384;-2.07;0.53;86.86;0.0;0.0;0.0;0.0;36.0;-23.0;27.0;-16.0;0.06;0.44;-10.66;0.51;0.32;0.9
1753880847.8971643;7.91;5.067;-0.384;-2.07;0.53;86.86;0.0;0.0;0.0;0.0;36.0;-23.0;27.0;-16.0;0.06;0.43;-10.65;0.62;0.4;0.9
1753880847.9021642;7.91;5.067;-0.384;-2.07;0.53;86.86;0.0;0.0;0.0;0.0;36.0;-23.0;27.0;-16.0;0.06;0.43;-10.65;0.61;0.31;0.95
1753880847.9071643;7.91;5.067;-0.384;-2.08;0.54;86.86;0.0;0.0;0.0;0.0;36.0;-23.6;27.4;-21.3;0.06;0.43;-10.64;0.6;0.34;0.89
1753880847.9121644;7.91;5.067;-0.384;-2.06;0.53;86.86;0.0;0.0;0.0;0.0;36.0;-20.1;24.8;-17.7;0.06;0.43;-10.65;0.68;0.24;1.07
1753880847.9171646;7.91;5.067;-0.384;-2.07;0.54;86.86;0.0;0.0;0.0;0.0;36.0;-24.3;28.7;-12.8;0.06;0.43;-10.65;0.54;0.25;0.86
1753880847.9221647;7.91;5.067;-0.384;-2.07;0.55;86.86;0.0;0.0;0.0;0.0;36.0;-24.0;26.8;-9.0;0.06;0.43;-10.65;0.61;0.4;1.03
1753880847.9271648;7.91;5.067;-0.384;-2.07;0.52;86.86;0.0;0.0;0.0;0.0;36.0;-23.3;27.0;-19.7;0.06;0.43;-10.65;0.68;0.28;0.98
1753880847.932165;7.91;5.067;-0.384;-2.07;0.52;86.86;0.0;0.0;0.0;0.0;36.0;-22.0;25.7;-10.7;0.06;0.43;-10.65;0.63;0.31;0.9
1753880847.937165;7.91;5.067;-0.384;-2.07;0.53;86.86;0.0;0.0;0.0;0.0;36.0;-22.7;26.7;-11.0;0.06;0.44;-10.65;0.6;0.28;0.88
1753880847.9421651;7.91;5.067;-0.384;-2.08;0.52;86.86;0.0;0.0;0.0;0.0;36.0;-22.7;26.9;-7.2;0.06;0.43;-10.67;0.63;0.25;0.94
1753880847.9471653;7.91;5.067;-0.384;-2.07;0.53;86.86;0.0;0.0;0.0;0.0;36.0;-22.9;25.8;-6.3;0.06;0.43;-10.65;0.62;0.48;0.95
1753880847.9521654;7.91;5.067;-0.384;-2.07;0.53;86.86;0.0;0.0;0.0;0.0;36.0;-23.0;26.8;-3.0;0.06;0.43;-10.65;0.7;0.29;0.93
1753880847.9571655;7.91;5.067;-0.384;-2.07;0.53;86.86;0.0;0.0;0.0;0.0;36.0;-21.5;27.2;-7.8;0.06;0.43;-10.66;0.69;0.37;0.92
1753880847.9621656;7.91;5.067;-0.384;-2.07;0.53;86.86;0.0;0.0;0.0;0.0;36.0;-21.9;27.4;-13.3;0.06;0.44;-10.65;0.62;0.41;0.85
1753880847.9671657;7.91;5.067;-0.384;-2.06;0.51;86.86;0.0;0.0;0.0;0.0;36.0;-22.9;26.9;-4.6;0.06;0.43;-10.64;0.53;0.22;0.99
1753880847.9721658;7.91;5.067;-0.384;-2.07;0.53;86.86;0.0;0.0;0.0;0.0;36.0;-22.1;26.6;-6.7;0.06;0.44;-10.64;0.72;0.29;0.87
1753880847.977166;7.91;5.067;-0.384;-2.06;0.52;86.86;0.0;0.0;0.0;0.0;36.0;-22.6;28.7;-1.3;0.06;0.44;-10.67;0.73;0.28;0.79
1753880847.982166;7.91;5.067;-0.384;-2.06;0.51;86.86;0.0;0.0;0.0;0.0;36.0;-23.8;25.9;2.2;0.06;0.44;-10.64;0.66;0.43;0.92
1753880847.9871662;7.91;5.067;-0.384;-2.07;0.53;86.86;0.0;0.0;0.0;0.0;36.0;-23.2;26.4;-0.9;0.07;0.43;-10.66;0.78;0.5;0.93
1753880847.9921663;7.91;5.067;-0.384;-2.07;0.52;86.86;0.0;0.0;0.0;0.0;36.0;-21.5;24.3;-0.6;0.07;0.44;-10.65;0.59;0.37;0.83
1753880847.9971664;7.91;5.067;-0.384;-2.07;0.53;86.86;0.0;0.0;0.0;0.0;36.0;-22.8;25.5;-5.9;0.07;0.44;-10.66;0.76;0.51;0.76
1753880848.0021665;7.91;5.067;-0.384;-2.06;0.53;86.86;0.0;0.0;0.0;0.0;36.0;-23.2;27.7;8.3;0.06;0.43;-10.66;0.8;0.68;0.81
1753880848.0071666;7.91;5.067;-0.384;-2.08;0.53;86.86;0.0;0.0;0.0;0.0;36.0;-23.9;26.8;0.4;0.06;0.44;-10.63;0.62;0.59;0.8
1753880848.0121667;7.91;5.067;-0.384;-2.07;0.54;86.86;0.0;0.0;0.0;0.0;36.0;-23.2;26.2;7.2;0.06;0.44;-10.64;0.73;0.51;0.92
1753880848.0171669;7.91;5.067;-0.384;-2.07;0.51;86.86;0.0;0.0;0.0;0.0;36.0;-22.3;27.9;10.3;0.07;0.44;-10.65;0.62;0.62;0.97
1753880848.022167;7.91;5.067;-0.384;-2.07;0.53;86.86;0.0;0.0;0.0;0.0;36.0;-24.7;26.7;5.5;0.07;0.44;-10.65;0.61;0.46;0.87
1753880848.0271642;7.91;5.067;-0.384;-2.07;0.53;86.86;0.0;0.0;0.0;0.0;36.0;-23.0;27.0;7.0;0.07;0.44;-10.65;0.72;0.54;0.83
1753880848.0321646;7.91;5.067;-0.384;-2.07;0.53;86.86;0.0;0.0;0.0;0.0;36.0;-23.0;27.0;7.0;0.06;0.44;-10.66;0.52;0.34;0.92
1753880848.037164;7.91;5.067;-0.384;-2.07;0.53;86.86;0.0;0.0;0.0;0.0;36.0;-23.0;27.0;7.0;0.06;0.44;-10.65;0.56;0.38;0.93
1753880848.0421646;7.91;5.067;-0.384;-2.07;0.53;86.86;0.0;0.0;0.0;0.0;36.0;-23.0;27.0;7.0;0.07;0.44;-10.64;0.61;0.41;0.9
1753880848.047164;7.91;5.067;-0.384;-2.07;0.53;86.86;0.0;0.0;0.0;0.0;36.0;-23.0;27.0;7.0;0.07;0.44;-10.64;0.46;0.25;0.76
1753880848.052164;7.91;5.067;-0.384;-2.07;0.53;86.86;0.0;0.0;0.0;0.0;36.0;-22.5;27.1;20.6;0.08;0.44;-10.62;0.58;0.28;0.82
1753880848.057164;7.91;5.067;-0.384;-2.07;0.53;86.86;0.0;0.0;0.0;0.0;36.0;-23.0;27.0;7.0;0.07;0.44;-10.64;0.65;0.22;0.9
1753880848.0621643;7.91;5.067;-0.384;-2.07;0.53;86.86;0.0;0.0;0.0;0.0;36.0;-23.0;27.0;7.0;0.07;0.44;-10.64;0.63;0.35;0.96
1753880848.067164;7.91;5.067;-0.384;-2.07;0.53;86.86;0.0;0.0;0.0;0.0;36.0;-23.0;27.0;7.0;0.07;0.44;-10.64;0.65;0.24;0.94
1753880848.0721643;7.91;5.067;-0.384;-2.07;0.53;86.86;0.0;0.0;0.0;0.0;36.0;-23.0;27.0;7.0;0.07;0.44;-10.65;0.56;0.28;0.94
1753880848.0771642;7.91;5.067;-0.384;-2.07;0.53;86.86;0.0;0.0;0.0;0.0;36.0;-23.0;27.0;7.0;0.07;0.43;-10.65;0.61;0.35;0.91
1753880848.0821643;7.91;5.067;-0.384;-2.07;0.53;86.86;0.0;0.0;0.0;0.0;36.0;-23.0;27.0;7.0;0.07;0.43;-10.65;0.6;0.21;0.93
1753880848.0871642;7.91;5.067;-0.384;-2.07;0.53;86.86;0.0;0.0;0.0;0.0;36.0;-23.0;27.0;7.0;0.07;0.43;-10.64;0.61;0.21;0.99
1753880848.0921643;7.91;5.067;-0.384;-2.07;0.53;86.86;0.0;0.0;0.0;0.0;36.0;-23.0;27.0;7.0;0.07;0.43;-10.65;0.64;0.32;0.93
1753880848.0971642;7.91;5.067;-0.384;-2.07;0.53;86.86;0.0;0.0;0.0;0.0;36.0;-23.0;27.0;7.0;0.07;0.43;-10.64;0.61;0.35;0.77
1753880848.1021643;7.91;5.067;-0.384;-2.07;0.53;86.86;0.0;0.0;0.0;0.0;36.0;-23.0;27.0;7.0;0.06;0.43;-10.65;0.66;0.39;0.74
1753880848.1071644;7.91;5.067;-0.384;-2.07;0.53;86.86;0.0;0.0;0.0;0.0;36.0;-23.0;27.0;7.0;0.06;0.43;-10.65;0.64;0.53;0.93
1753880848.1121643;7.91;5.067;-0.384;-2.07;0.53;86.86;0.0;0.0;0.0;0.0;36.0;-23.0;27.0;7.0;0.05;0.43;-10.64;0.56;0.28;0.89
1753880848.1171644;7.91;5.067;-0.384;-2.07;0.53;86.86;0.0;0.0;0.0;0.0;36.0;-23.0;27.0;7.0;0.06;0.43;-10.65;0.57;0.27;0.96
1753880848.1221642;7.91;5.067;-0.384;-2.07;0.53;86.86;0.0;0.0;0.0;0.0;36.0;-23.0;27.0;7.0;0.06;0.44;-10.64;0.57;0.33;0.94
1753880848.1271644;7.91;5.067;-0.384;-2.07;0.53;86.86;0.0;0.0;0.0;0.0;36.0;-23.0;27.0;7.0;0.06;0.44;-10.64;0.49;0.36;0.92
1753880848.1321642;7.91;5.067;-0.384;-2.07;0.53;86.86;0.0;0.0;0.0;0.0;36.0;-23.0;27.0;7.0;0.06;0.44;-10.64;0.54;0.33;0.86
1753880848.1371644;7.91;5.067;-0.384;-2.07;0.53;86.86;0.0;0.0;0.0;0.0;36.0;-23.0;27.0;7.0;0.07;0.43;-10.65;0.54;0.31;0.84
1753880848.1421642;7.91;5.067;-0.384;-2.07;0.53;86.86;0.0;0.0;0.0;0.0;36.0;-23.0;27.0;7.0;0.07;0.43;-10.65;0.67;0.3;0.89
1753880848.1471643;7.91;5.067;-0.384;-2.07;0.53;86.86;0.0;0.0;0.0;0.0;36.0;-23.0;27.0;7.0;0.06;0.43;-10.65;0.67;0.27;0.96
1753880848.1521642;7.91;5.067;-0.384;-2.07;0.53;86.86;0.0;0.0;0.0;0.0;36.0;-23.0;27.0;7.0;0.06;0.44;-10.65;0.48;0.39;0.95
1753880848.1571646;7.91;5.067;-0.384;-2.07;0.53;86.86;0.0;0.0;0.0;0.0;36.0;-23.0;27.0;7.0;0.07;0.44;-10.65;0.56;0.34;0.8
1753880848.162164;7.91;5.067;-0.384;-2.07;0.53;86.86;0.0;0.0;0.0;0.0;36.0;-23.0;27.0;7.0;0.07;0.44;-10.66;0.57;0.25;0.83
1753880848.1671646;7.91;5.067;-0.384;-2.07;0.53;86.86;0.0;0.0;0.0;0.0;36.0;-23.0;27.0;7.0;0.07;0.44;-10.66;0.67;0.28;0.95
1753880848.172164;7.91;5.067;-0.384;-2.07;0.53;86.86;0.0;0.0;0.0;0.0;36.0;-23.0;27.0;7.0;0.07;0.44;-10.66;0.59;0.37;0.92
1753880848.1771646;7.91;5.067;-0.384;-2.07;0.53;86.86;0.0;0.0;0.0;0.0;36.0;-23.0;27.0;7.0;0.07;0.44;-10.66;0.54;0.24;1.02
1753880848.182164;7.91;5.067;-0.384;-2.07;0.53;86.86;0.0;0.0;0.0;0.0;36.0;-23.0;27.0;7.0;0.07;0.44;-10.66;0.63;0.33;0.77
1753880848.1871643;7.91;5.067;-0.384;-2.07;0.53;86.86;0.0;0.0;0.0;0.0;36.0;-23.0;27.0;7.0;0.07;0.43;-10.67;0.59;0.3;0.78
1753880848.192164;7.91;5.067;-0.384;-2.07;0.53;86.86;0.0;0.0;0.0;0.0;36.0;-23.0;27.0;7.0;0.06;0.44;-10.67;0.57;0.33;0.84
1753880848.1971643;7.91;5.067;-0.384;-2.07;0.53;86.86;0.0;0.0;0.0;0.0;36.0;-23.0;27.0;7.0;0.07;0.44;-10.67;0.58;0.27;0.84
1753880848.2021642;7.91;5.067;-0.384;-2.07;0.53;86.86;0.0;0.0;0.0;0.0;36.0;-23.0;27.0;7.0;0.07;0.44;-10.67;0.59;0.22;0.84
1753880848.2071643;7.91;5.067;-0.384;-2.07;0.53;86.86;0.0;0.0;0.0;0.0;36.0;-23.0;27.0;7.0;0.07;0.44;-10.67;0.55;0.25;0.83
1753880848.2121642;7.91;5.067;-0.384;-2.07;0.53;86.86;0.0;0.0;0.0;0.0;36.0;-23.0;27.0;7.0;0.08;0.44;-10.66;0.55;0.22;0.91
1753880848.2171643;7.91;5.067;-0.384;-2.07;0.53;86.86;0.0;0.0;0.0;0.0;36.0;-23.0;27.0;7.0;0.07;0.44;-10.66;0.66;0.31;0.95
1753880848.2221642;7.91;5.067;-0.384;-2.07;0.53;86.86;0.0;0.0;0.0;0.0;36.0;-23.0;27.0;7.0;0.07;0.44;-10.66;0.81;0.22;0.9
1753880848.2271643;7.91;5.067;-0.384;-2.07;0.53;86.86;0.0;0.0;0.0;0.0;36.0;-23.0;27.0;7.0;0.07;0.44;-10.66;0.5;0.26;0.9
1753880848.2321644;7.91;5.067;-0.384;-2.07;0.53;86.86;0.0;0.0;0.0;0.0;36.0;-23.0;27.0;7.0;0.07;0.44;-10.66;0.6;0.27;0.87
1753880848.2371643;7.91;5.067;-0.384;-2.07;0.53;86.86;0.0;0.0;0.0;0.0;36.0;-23.0;27.0;7.0;0.06;0.43;-10.65;0.51;0.32;0.99
1753880848.2421644;7.91;5.067;-0.384;-2.07;0.53;86.86;0.0;0.0;0.0;0.0;36.0;-23.0;27.0;7.0;0.07;0.44;-10.65;0.67;0.32;0.87
1753880848.2471642;7.91;5.067;-0.384;-2.07;0.53;86.86;0.0;0.0;0.0;0.0;36.0;-23.0;27.0;7.0;0.07;0.44;-10.65;0.75;0.42;0.8
1753880848.2521644;7.91;5.067;-0.384;-2.07;0.53;86.86;0.0;0.0;0.0;0.0;36.0;-23.0;27.0;7.0;0.07;0.44;-10.65;0.51;0.28;0.93
1753880848.2571642;7.91;5.067;-0.384;-2.07;0.53;86.86;0.0;0.0;0.0;0.0;36.0;-23.0;27.0;7.0;0.07;0.44;-10.65;0.67;0.35;0.89
1753880848.2621644;7.91;5.067;-0.384;-2.07;0.53;86.86;0.0;0.0;0.0;0.0;36.0;-23.0;27.0;7.0;0.06;0.43;-10.65;0.57;0.23;0.81
1753880848.2671642;7.91;5.067;-0.384;-2.07;0.53;86.86;0.0;0.0;0.0;0.0;36.0;-23.0;27.0;7.0;0.06;0.43;-10.65;0.7;0.36;0.96
1753880848.2721643;7.91;5.067;-0.384;-2.07;0.53;86.86;0.0;0.0;0.0;0.0;36.0;-23.0;27.0;7.0;0.06;0.43;-10.65;0.61;0.25;1.04
1753880848.2771642;7.91;5.067;-0.384;-2.07;0.53;86.86;0.0;0.0;0.0;0.0;36.0;-23.0;27.0;7.0;0.06;0.43;-10.65;0.59;0.45;0.96
1753880848.2821646;7.91;5.067;-0.384;-2.07;0.53;86.86;0.0;0.0;0.0;0.0;36.0;-23.0;27.0;7.0;0.06;0.43;-10.65;0.52;0.27;1.02
1753880848.287164;7.91;5.067;-0.384;-2.07;0.53;86.86;0.0;0.0;0.0;0.0;36.0;-23.0;27.0;7.0;0.06;0.44;-10.66;0.57;0.42;0.71
1753880848.2921646;7.91;5.067;-0.384;-2.07;0.53;86.86;0.0;0.0;0.0;0.0;36.0;-23.0;27.0;7.0;0.06;0.44;-10.66;0.62;0.27;0.86
1753880848.297164;7.91;5.067;-0.384;-2.07;0.53;86.86;0.0;0.0;0.0;0.0;36.0;-23.0;27.0;7.0;0.06;0.44;-10.66;0.52;0.32;0.87
1753880848.3021646;7.91;5.067;-0.384;-2.07;0.53;86.86;0.0;0.0;0.0;0.0;36.0;-23.0;27.0;7.0;0.06;0.43;-10.65;0.48;0.22;0.83
1753880848.307164;7.91;5.067;-0.384;-2.07;0.53;86.86;0.0;0.0;0.0;0.0;36.0;-23.0;27.0;7.0;0.06;0.43;-10.66;0.55;0.28;0.88
1753880848.3121643;7.91;5.067;-0.384;-2.07;0.53;86.86;0.0;0.0;0.0;0.0;36.0;-23.0;27.0;7.0;0.06;0.44;-10.66;0.64;0.29;0.83
1753880848.317164;7.91;5.067;-0.384;-2.07;0.53;86.86;0.0;0.0;0.0;0.0;36.0;-23.0;27.0;7.0;0.06;0.44;-10.66;0.58;0.34;1.0
1753880848.3221643;7.91;5.067;-0.384;-2.07;0.53;86.86;0.0;0.0;0.0;0.0;36.0;-23.0;27.0;7.0;0.06;0.44;-10.66;0.63;0.48;0.87
1753880848.3271642;7.91;5.067;-0.384;-2.07;0.53;86.86;0.0;0.0;0.0;0.0;36.0;-23.0;27.0;7.0;0.06;0.44;-10.66;0.67;0.32;0.87
1753880848.3321643;7.91;5.067;-0.384;-2.07;0.53;86.86;0.0;0.0;0.0;0.0;36.0;-23.0;27.0;7.0;0.06;0.44;-10.67;0.52;0.28;0.86
1753880848.3371642;7.91;5.067;-0.384;-2.07;0.53;86.86;0.0;0.0;0.0;0.0;36.0;-23.0;27.0;7.0;0.06;0.44;-10.67;0.61;0.32;0.79
1753880848.3421643;7.91;5.067;-0.384;-2.07;0.53;86.86;0.0;0.0;0.0;0.0;36.0;-23.0;27.0;7.0;0.06;0.44;-10.67;0.63;0.45;0.79
1753880848.3471642;7.91;5.067;-0.384;-2.07;0.53;86.86;0.0;0.0;0.0;0.0;36.0;-23.0;27.0;7.0;0.06;0.44;-10.67;0.63;0.36;0.9
1753880848.3521643;7.91;5.067;-0.384;-2.07;0.53;86.86;0.0;0.0;0.0;0.0;36.0;-23.0;27.0;7.0;0.06;0.45;-10.67;0.52;0.27;0.91
1753880848.3571644;7.91;5.067;-0.384;-2.07;0.53;86.86;0.0;0.0;0.0;0.0;36.0;-23.0;27.0;7.0;0.06;0.45;-10.68;0.64;0.14;0.86
1753880848.3621643;7.91;5.067;-0.384;-2.07;0.53;86.86;0.0;0.0;0.0;0.0;36.0;-23.0;27.0;7.0;0.06;0.45;-10.68;0.64;0.25;0.79
1753880848.3671644;7.91;5.067;-0.384;-2.07;0.53;86.86;0.0;0.0;0.0;0.0;36.0;-23.0;27.0;7.0;0.06;0.44;-10.68;0.57;0.28;0.77
1753880848.3721642;7.91;5.067;-0.384;-2.07;0.53;86.86;0.0;0.0;0.0;0.0;36.0;-23.0;27.0;7.0;0.06;0.45;-10.68;0.6;0.35;0.93
1753880848.3771644;7.91;5.067;-0.384;-2.07;0.53;86.86;0.0;0.0;0.0;0.0;36.0;-23.0;27.0;7.0;0.06;0.44;-10.68;0.7;0.46;0.87
1753880848.3821642;7.91;5.067;-0.384;-2.07;0.53;86.86;0.0;0.0;0.0;0.0;36.0;-23.0;27.0;7.0;0.06;0.44;-10.68;0.62;0.22;0.82
1753880848.3871644;7.91;5.067;-0.384;-2.07;0.53;86.86;0.0;0.0;0.0;0.0;36.0;-23.0;27.0;7.0;0.05;0.44;-10.69;0.5;0.21;0.89
1753880848.3921642;7.91;5.067;-0.384;-2.07;0.53;86.86;0.0;0.0;0.0;0.0;36.0;-23.0;27.0;7.0;0.06;0.44;-10.68;0.55;0.22;0.79
1753880848.3971643;7.91;5.067;-0.384;-2.07;0.53;86.86;0.0;0.0;0.0;0.0;36.0;-23.0;27.0;7.0;0.06;0.44;-10.68;0.66;0.22;0.95
1753880848.4021642;7.91;5.067;-0.384;-2.07;0.53;86.86;0.0;0.0;0.0;0.0;36.0;-23.0;27.0;7.0;0.07;0.44;-10.68;0.7;0.4;0.79
1753880848.4071646;7.91;5.067;-0.384;-2.07;0.53;86.86;0.0;0.0;0.0;0.0;36.0;-23.0;27.0;7.0;0.07;0.44;-10.67;0.54;0.33;1.0
1753880848.412164;7.91;5.067;-0.384;-2.07;0.53;86.86;0.0;0.0;0.0;0.0;36.0;-23.0;27.0;7.0;0.07;0.44;-10.67;0.57;0.28;0.94
1753880848.4171646;7.91;5.067;-0.384;-2.07;0.53;86.86;0.0;0.0;0.0;0.0;36.0;-23.0;27.0;7.0;0.06;0.44;-10.67;0.6;0.44;0.96
1753880848.422164;7.91;5.067;-0.384;-2.07;0.53;86.86;0.0;0.0;0.0;0.0;36.0;-23.0;27.0;7.0;0.06;0.43;-10.66;0.61;0.34;0.85
1753880848.4271646;7.91;5.067;-0.384;-2.07;0.53;86.86;0.0;0.0;0.0;0.0;36.0;-23.0;27.0;7.0;0.07;0.43;-10.66;0.51;0.3;0.95
1753880848.432164;7.91;5.067;-0.384;-2.07;0.53;86.86;0.0;0.0;0.0;0.0;36.0;-23.0;27.0;7.0;0.07;0.43;-10.66;0.64;0.38;0.9
1753880848.4371643;7.91;5.067;-0.384;-2.07;0.53;86.86;0.0;0.0;0.0;0.0;36.0;-23.0;27.0;7.0;0.07;0.43;-10.66;0.44;0.3;1.01
1753880848.442164;7.91;5.067;-0.384;-2.07;0.53;86.86;0.0;0.0;0.0;0.0;36.0;-23.0;27.0;7.0;0.07;0.43;-10.65;0.64;0.21;0.83
1753880848.4471643;7.91;5.067;-0.384;-2.07;0.53;86.86;0.0;0.0;0.0;0.0;36.0;-23.0;27.0;7.0;0.07;0.43;-10.65;0.59;0.38;0.96
1753880848.4521642;7.91;5.067;-0.384;-2.07;0.53;86.86;0.0;0.0;0.0;0.0;36.0;-23.0;27.0;7.0;0.06;0.43;-10.65;0.53;0.23;0.84
1753880848.4571643;7.91;5.067;-0.384;-2.07;0.53;86.86;0.0;0.0;0.0;0.0;36.0;-23.0;27.0;7.0;0.06;0.43;-10.65;0.61;0.29;0.96
1753880848.4621642;7.91;5.067;-0.384;-2.07;0.53;86.86;0.0;0.0;0.0;0.0;36.0;-23.0;27.0;7.0;0.06;0.43;-10.65;0.67;0.21;0.86
1753880848.4671643;7.91;5.067;-0.384;-2.07;0.53;86.86;0.0;0.0;0.0;0.0;36.0;-23.0;27.0;7.0;0.06;0.43;-10.65;0.62;0.28;0.89
1753880848.4721642;7.91;5.067;-0.384;-2.07;0.53;86.86;0.0;0.0;0.0;0.0;36.0;-23.0;27.0;7.0;0.07;0.43;-10.65;0.64;0.27;0.79
1753880848.4771643;7.91;5.067;-0.384;-2.07;0.53;86.86;0.0;0.0;0.0;0.0;36.0;-23.0;27.0;7.0;0.07;0.44;-10.65;0.46;0.25;0.88
1753880848.4821644;7.91;5.067;-0.384;-2.07;0.53;86.86;0.0;0.0;0.0;0.0;36.0;-23.0;27.0;7.0;0.06;0.44;-10.65;0.66;0.23;0.93
1753880848.4871643;7.91;5.067;-0.384;-2.07;0.53;86.86;0.0;0.0;0.0;0.0;36.0;-23.0;27.0;7.0;0.06;0.44;-10.65;0.69;0.2;0.86
1753880848.4921644;7.91;5.067;-0.384;-2.07;0.53;86.86;0.0;0.0;0.0;0.0;36.0;-23.0;27.0;7.0;0.06;0.44;-10.65;0.48;0.25;0.9
1753880848.4971642;7.91;5.067;-0.384;-2.07;0.53;86.86;0.0;0.0;0.0;0.0;36.0;-23.0;27.0;7.0;0.06;0.43;-10.66;0.74;0.37;1.02
1753880848.5021644;7.91;5.067;-0.384;-2.07;0.53;86.86;0.0;0.0;0.0;0.0;36.0;-23.0;27.0;7.0;0.06;0.44;-10.65;0.61;0.35;0.84
1753880848.5071642;7.91;5.067;-0.384;-2.07;0.53;86.86;0.0;0.0;0.0;0.0;36.0;-23.0;27.0;7.0;0.07;0.44;-10.66;0.86;0.32;0.84
1753880848.5121644;7.91;5.067;-0.384;-2.07;0.53;86.86;0.0;0.0;0.0;0.0;36.0;-23.0;27.0;7.0;0.07;0.44;-10.65;0.62;0.43;1.02
1753880848.5171645;7.91;5.067;-0.384;-2.07;0.53;86.86;0.0;0.0;0.0;0.0;36.0;-23.0;27.0;7.0;0.07;0.44;-10.65;0.67;0.48;0.95
1753880848.5221646;7.91;5.067;-0.384;-2.07;0.53;86.86;0.0;0.0;0.0;0.0;36.0;-23.0;27.0;7.0;0.07;0.43;-10.66;0.56;0.47;0.93
1753880848.5271647;7.91;5.067;-0.384;-2.07;0.53;86.86;0.0;0.0;0.0;0.0;36.0;-23.0;27.0;7.0;0.07;0.45;-10.65;0.71;0.47;1.01
1753880848.5321648;7.91;5.067;-0.384;-2.07;0.53;86.86;0.0;0.0;0.0;0.0;36.0;-23.0;27.0;7.0;0.07;0.44;-10.66;0.62;0.45;0.92
1753880848.537165;7.91;5.067;-0.384;-2.07;0.53;86.86;0.0;0.0;0.0;0.0;36.0;-23.0;27.0;7.0;0.07;0.44;-10.66;0.82;0.34;0.93
1753880848.542165;7.91;5.067;-0.384;-2.07;0.53;86.86;0.0;0.0;0.0;0.0;36.0;-23.0;27.0;7.0;0.07;0.43;-10.66;0.53;0.46;1.03
1753880848.5471652;7.91;5.067;-0.384;-2.07;0.53;86.86;0.0;0.0;0.0;0.0;36.0;-23.0;27.0;7.0;0.07;0.44;-10.67;0.63;0.49;0.99
1753880848.5521653;7.91;5.067;-0.384;-2.07;0.53;86.86;0.0;0.0;0.0;0.0;36.0;-23.0;27.0;7.0;0.06;0.45;-10.66;0.55;0.36;1.02
1753880848.5571654;7.91;5.067;-0.384;-2.07;0.53;86.86;0.0;0.0;0.0;0.0;36.0;-23.0;27.0;7.0;0.06;0.45;-10.65;0.55;0.42;0.95
1753880848.5621655;7.91;5.067;-0.384;-2.07;0.53;86.86;0.0;0.0;0.0;0.0;36.0;-23.0;27.0;7.0;0.07;0.44;-10.66;0.59;0.31;0.91
1753880848.5671656;7.91;5.067;-0.384;-2.07;0.53;86.86;0.0;0.0;0.0;0.0;36.0;-23.0;27.0;7.0;0.07;0.44;-10.67;0.66;0.34;0.93
1753880848.5721657;7.91;5.067;-0.384;-2.07;0.53;86.86;0.0;0.0;0.0;0.0;36.0;-23.0;27.0;7.0;0.07;0.43;-10.66;0.55;0.36;0.99
1753880848.5771658;7.91;5.067;-0.384;-2.07;0.53;86.86;0.0;0.0;0.0;0.0;36.0;-23.0;27.0;7.0;0.08;0.44;-10.66;0.57;0.31;0.91
1753880848.582166;7.91;5.067;-0.384;-2.07;0.53;86.86;0.0;0.0;0.0;0.0;36.0;-23.0;27.0;7.0;0.07;0.44;-10.66;0.63;0.41;0.84
1753880848.587166;7.91;5.067;-0.384;-2.07;0.53;86.86;0.0;0.0;0.0;0.0;36.0;-23.0;27.0;7.0;0.06;0.43;-10.67;0.56;0.35;1.01
1753880848.5921662;7.91;5.067;-0.384;-2.07;0.53;86.86;0.0;0.0;0.0;0.0;36.0;-23.0;27.0;7.0;0.07;0.43;-10.67;0.7;0.43;0.93
1753880848.5971663;7.91;5.067;-0.384;-2.07;0.53;86.86;0.0;0.0;0.0;0.0;36.0;-23.0;27.0;7.0;0.07;0.43;-10.67;0.66;0.34;0.91
1753880848.6021643;7.91;5.067;-0.384;-2.07;0.53;86.86;0.0;0.0;0.0;0.0;36.0;-23.0;27.0;7.0;0.07;0.44;-10.67;0.57;0.37;0.91
1753880848.6071644;7.91;5.067;-0.384;-2.07;0.53;86.86;0.0;0.0;0.0;0.0;36.0;-23.0;27.0;7.0;0.07;0.45;-10.66;0.71;0.41;0.91
1753880848.6121643;7.91;5.067;-0.384;-2.07;0.53;86.86;0.0;0.0;0.0;0.0;36.0;-23.0;27.0;7.0;0.07;0.45;-10.65;0.55;0.32;0.96
1753880848.6171644;7.91;5.067;-0.384;-2.07;0.53;86.86;0.0;0.0;0.0;0.0;36.0;-23.0;27.0;7.0;0.08;0.44;-10.65;0.58;0.22;0.96
1753880848.6221642;7.91;5.067;-0.384;-2.07;0.53;86.86;0.0;0.0;0.0;0.0;36.0;-23.0;27.0;7.0;0.07;0.44;-10.66;0.55;0.23;0.96
1753880848.6271644;7.91;5.067;-0.384;-2.07;0.53;86.86;0.0;0.0;0.0;0.0;36.0;-23.0;27.0;7.0;0.07;0.44;-10.65;0.57;0.32;0.98
1753880848.6321645;7.91;5.067;-0.384;-2.07;0.53;86.86;0.0;0.0;0.0;0.0;36.0;-23.0;26.9;3.7;0.07;0.44;-10.65;0.63;0.28;1.06
1753880848.6371646;7.91;5.067;-0.384;-2.07;0.53;86.86;0.0;0.0;0.0;0.0;35.9;-23.0;27.1;9.6;0.08;0.43;-10.64;0.61;0.35;0.92
1753880848.6421647;7.91;5.067;-0.384;-2.07;0.53;86.86;0.0;0.0;0.0;0.0;36.2;-23.0;27.2;18.7;0.06;0.43;-10.65;0.81;0.25;0.91
1753880848.6471648;7.91;5.067;-0.384;-2.07;0.54;86.86;0.0;0.0;0.0;0.0;36.0;-23.0;26.9;-3.1;0.07;0.44;-10.66;0.64;0.24;0.93
1753880848.652165;7.91;5.067;-0.384;-2.07;0.53;86.86;0.0;0.0;0.0;0.0;35.6;-23.0;27.1;1.4;0.07;0.43;-10.65;0.65;0.28;1.11
1753880848.657165;7.91;5.067;-0.384;-2.07;0.54;86.86;0.0;0.0;0.0;0.0;35.4;-23.0;27.2;0.7;0.07;0.44;-10.65;0.54;0.28;0.95
1753880848.6621652;7.91;5.067;-0.384;-2.07;0.54;86.86;0.0;0.0;0.0;0.0;35.4;-23.0;27.4;-3.0;0.08;0.44;-10.65;0.43;0.24;1.08
1753880848.6671653;7.91;5.067;-0.384;-2.07;0.54;86.86;0.0;0.0;0.0;0.0;35.5;-23.0;27.4;-1.3;0.07;0.44;-10.65;0.49;0.47;1.01
1753880848.6721654;7.91;5.067;-0.384;-2.07;0.55;86.86;0.0;0.0;0.0;0.0;35.7;-23.0;27.5;-0.6;0.07;0.44;-10.65;0.67;0.31;0.99
1753880848.6771655;7.91;5.067;-0.384;-2.07;0.55;86.86;0.0;0.0;0.0;0.0;35.7;-23.0;27.6;3.7;0.07;0.44;-10.66;0.45;0.17;1.04
1753880848.6821656;7.91;5.067;-0.384;-2.07;0.55;86.86;0.0;0.0;0.0;0.0;35.7;-23.0;27.4;-1.7;0.07;0.45;-10.65;0.58;0.25;1.06
1753880848.6871657;7.91;5.067;-0.384;-2.07;0.54;86.86;0.0;0.0;0.0;0.0;35.7;-23.0;27.9;1.2;0.07;0.45;-10.66;0.54;0.33;0.9
1753880848.6921659;7.91;5.067;-0.384;-2.07;0.53;86.86;0.0;0.0;0.0;0.0;35.6;-23.0;27.3;-3.2;0.06;0.44;-10.65;0.49;0.3;0.93
1753880848.697166;7.91;5.067;-0.384;-2.07;0.54;86.86;0.0;0.0;0.0;0.0;35.2;-23.0;27.5;-1.9;0.07;0.44;-10.65;0.61;0.3;1.04
1753880848.702166;7.91;5.067;-0.384;-2.07;0.53;86.86;0.0;0.0;0.0;0.0;35.7;-23.0;27.9;-5.7;0.06;0.43;-10.65;0.67;0.26;0.97
1753880848.7071662;7.91;5.067;-0.384;-2.07;0.54;86.86;0.0;0.0;0.0;0.0;35.3;-23.0;27.7;-22.6;0.08;0.44;-10.66;0.51;0.3;0.93
1753880848.7121663;7.91;5.067;-0.384;-2.07;0.54;86.86;0.0;0.0;0.0;0.0;35.4;-23.0;27.6;-10.1;0.07;0.43;-10.65;0.64;0.28;0.96
1753880848.7171664;7.91;5.067;-0.384;-2.07;0.55;86.86;0.0;0.0;0.0;0.0;35.1;-23.0;27.8;-7.4;0.07;0.45;-10.66;0.43;0.3;0.84
1753880848.7221665;7.91;5.067;-0.384;-2.07;0.55;86.86;0.0;0.0;0.0;0.0;35.2;-23.0;27.6;-7.5;0.08;0.44;-10.64;0.68;0.29;0.97
1753880848.7271667;7.91;5.067;-0.384;-2.07;0.55;86.86;0.0;0.0;0.0;0.0;35.4;-23.0;28.0;-22.5;0.07;0.43;-10.66;0.38;0.24;0.85
1753880848.7321668;7.91;5.067;-0.384;-2.07;0.55;86.86;0.0;0.0;0.0;0.0;35.4;-23.0;27.9;-16.3;0.07;0.45;-10.66;0.63;0.14;0.97
1753880848.737167;7.91;5.067;-0.384;-2.07;0.55;86.86;0.0;0.0;0.0;0.0;35.1;-23.0;27.9;-12.8;0.06;0.43;-10.66;0.55;0.3;0.91
1753880848.742167;7.91;5.067;-0.384;-2.07;0.55;86.86;0.0;0.0;0.0;0.0;34.7;-23.0;27.8;-17.1;0.07;0.43;-10.65;0.52;0.14;1.0
1753880848.747167;7.91;5.067;-0.384;-2.07;0.54;86.86;0.0;0.0;0.0;0.0;35.1;-23.0;27.8;-13.5;0.07;0.43;-10.66;0.46;0.27;1.03
1753880848.7521672;7.91;5.067;-0.384;-2.07;0.55;86.86;0.0;0.0;0.0;0.0;35.2;-23.0;27.8;-21.8;0.07;0.44;-10.67;0.56;0.29;1.02
1753880848.7571673;7.91;5.067;-0.384;-2.07;0.55;86.86;0.0;0.0;0.0;0.0;35.2;-23.0;27.7;-26.5;0.07;0.44;-10.66;0.69;0.26;1.12
1753880848.7621644;7.91;5.067;-0.384;-2.07;0.55;86.86;0.0;0.0;0.0;0.0;35.0;-23.0;28.0;-18.0;0.07;0.44;-10.66;0.57;0.25;1.01
1753880848.7671642;7.91;5.067;-0.384;-2.07;0.55;86.86;0.0;0.0;0.0;0.0;35.0;-23.0;28.0;-18.0;0.07;0.44;-10.65;0.74;0.47;0.9
1753880848.7721643;7.91;5.067;-0.384;-2.07;0.55;86.86;0.0;0.0;0.0;0.0;35.0;-23.0;28.0;-18.0;0.06;0.45;-10.66;0.65;0.41;0.98
1753880848.7771642;7.91;5.067;-0.384;-2.07;0.55;86.86;0.0;0.0;0.0;0.0;35.0;-23.0;28.0;-18.0;0.06;0.44;-10.66;0.61;0.38;0.88
1753880848.7821646;7.91;5.067;-0.384;-2.07;0.55;86.86;0.0;0.0;0.0;0.0;35.0;-23.0;28.0;-18.0;0.06;0.44;-10.66;0.7;0.21;0.93
1753880848.787164;7.91;5.067;-0.384;-2.07;0.55;86.86;0.0;0.0;0.0;0.0;35.0;-23.0;28.0;-18.0;0.05;0.44;-10.66;0.58;0.28;0.94
1753880848.7921646;7.91;5.067;-0.384;-2.07;0.55;86.86;0.0;0.0;0.0;0.0;35.0;-23.0;28.0;-18.0;0.06;0.44;-10.67;0.53;0.28;0.79
1753880848.797164;7.91;5.067;-0.384;-2.07;0.55;86.86;0.0;0.0;0.0;0.0;35.0;-23.0;28.0;-18.0;0.06;0.44;-10.66;0.6;0.4;0.91
1753880848.8021646;7.91;5.067;-0.384;-2.07;0.55;86.86;0.0;0.0;0.0;0.0;35.0;-23.0;28.0;-18.0;0.06;0.44;-10.67;0.63;0.3;0.89
1753880848.807164;7.91;5.067;-0.384;-2.07;0.55;86.86;0.0;0.0;0.0;0.0;35.0;-23.0;28.0;-18.0;0.06;0.45;-10.66;0.6;0.29;0.79
1753880848.8121643;7.91;5.067;-0.384;-2.07;0.55;86.86;0.0;0.0;0.0;0.0;35.0;-23.0;28.0;-18.0;0.06;0.45;-10.66;0.62;0.36;1.12
1753880848.817164;7.91;5.067;-0.384;-2.07;0.55;86.86;0.0;0.0;0.0;0.0;35.0;-23.0;28.0;-18.0;0.06;0.45;-10.66;0.49;0.32;0.9
1753880848.8221643;7.91;5.067;-0.384;-2.07;0.55;86.86;0.0;0.0;0.0;0.0;35.0;-23.0;28.0;-18.0;0.06;0.45;-10.67;0.67;0.3;0.89
1753880848.8271642;7.91;5.067;-0.384;-2.07;0.55;86.86;0.0;0.0;0.0;0.0;35.0;-23.0;28.0;-18.0;0.06;0.45;-10.66;0.7;0.3;0.9
1753880848.8321643;7.91;5.067;-0.384;-2.07;0.55;86.86;0.0;0.0;0.0;0.0;35.0;-23.0;28.0;-18.0;0.06;0.45;-10.66;0.67;0.34;0.95
1753880848.8371642;7.91;5.067;-0.384;-2.07;0.55;86.86;0.0;0.0;0.0;0.0;35.0;-23.0;28.0;-18.0;0.06;0.45;-10.67;0.58;0.32;1.06
1753880848.8421643;7.91;5.067;-0.384;-2.07;0.55;86.86;0.0;0.0;0.0;0.0;35.0;-23.0;28.0;-18.0;0.06;0.45;-10.66;0.61;0.28;0.86
1753880848.8471642;7.91;5.067;-0.384;-2.07;0.55;86.86;0.0;0.0;0.0;0.0;35.0;-23.0;28.0;-18.0;0.06;0.45;-10.65;0.63;0.19;0.78
1753880848.8521643;7.91;5.067;-0.384;-2.07;0.55;86.86;0.0;0.0;0.0;0.0;35.0;-23.0;28.0;-18.0;0.06;0.45;-10.66;0.61;0.3;0.89
1753880848.8571644;7.91;5.067;-0.384;-2.07;0.55;86.86;0.0;0.0;0.0;0.0;35.0;-23.0;28.0;-18.0;0.06;0.45;-10.65;0.49;0.29;0.97
1753880848.8621643;7.91;5.067;-0.384;-2.07;0.55;86.86;0.0;0.0;0.0;0.0;35.0;-23.0;28.0;-18.0;0.06;0.44;-10.65;0.66;0.36;0.84
1753880848.8671644;7.91;5.067;-0.384;-2.07;0.55;86.86;0.0;0.0;0.0;0.0;35.0;-23.0;28.0;-18.0;0.06;0.44;-10.66;0.48;0.31;0.89
1753880848.8721642;7.91;5.067;-0.384;-2.07;0.55;86.86;0.0;0.0;0.0;0.0;35.0;-23.0;28.0;-18.0;0.06;0.44;-10.66;0.53;0.23;1.06
1753880848.8771644;7.91;5.067;-0.384;-2.07;0.55;86.86;0.0;0.0;0.0;0.0;35.0;-23.0;28.0;-18.0;0.06;0.44;-10.66;0.66;0.29;1.0
1753880848.8821642;7.91;5.067;-0.384;-2.07;0.55;86.86;0.0;0.0;0.0;0.0;35.0;-23.0;28.0;-18.0;0.06;0.45;-10.66;0.48;0.29;0.84
1753880848.8871644;7.91;5.067;-0.384;-2.07;0.55;86.86;0.0;0.0;0.0;0.0;35.0;-23.0;28.0;-18.0;0.05;0.44;-10.66;0.63;0.29;0.86
1753880848.8921642;7.91;5.067;-0.384;-2.07;0.55;86.86;0.0;0.0;0.0;0.0;35.0;-23.0;28.0;-18.0;0.06;0.44;-10.65;0.63;0.36;0.83
1753880848.8971643;7.91;5.067;-0.384;-2.07;0.55;86.86;0.0;0.0;0.0;0.0;35.0;-23.0;28.0;-18.0;0.06;0.44;-10.66;0.61;0.41;0.9
1753880848.9021642;7.91;5.067;-0.384;-2.07;0.55;86.86;0.0;0.0;0.0;0.0;35.0;-23.0;28.0;-18.0;0.06;0.44;-10.66;0.57;0.48;0.82
1753880848.9071646;7.91;5.067;-0.384;-2.07;0.55;86.86;0.0;0.0;0.0;0.0;35.0;-23.0;28.0;-18.0;0.05;0.43;-10.66;0.48;0.26;0.97
1753880848.912164;7.91;5.067;-0.384;-2.07;0.55;86.86;0.0;0.0;0.0;0.0;35.0;-23.0;28.0;-18.0;0.05;0.44;-10.66;0.63;0.36;0.99
1753880848.9171646;7.91;5.067;-0.384;-2.07;0.55;86.86;0.0;0.0;0.0;0.0;35.0;-23.0;28.0;-18.0;0.06;0.44;-10.67;0.61;0.19;0.9
1753880848.922164;7.91;5.067;-0.384;-2.07;0.55;86.86;0.0;0.0;0.0;0.0;35.0;-23.0;28.0;-18.0;0.05;0.44;-10.67;0.58;0.34;0.9
1753880848.9271646;7.91;5.067;-0.384;-2.07;0.55;86.86;0.0;0.0;0.0;0.0;35.0;-23.0;28.0;-18.0;0.06;0.44;-10.67;0.53;0.22;0.83
1753880848.932164;7.91;5.067;-0.384;-2.07;0.55;86.86;0.0;0.0;0.0;0.0;35.0;-23.0;28.0;-18.0;0.05;0.43;-10.66;0.64;0.4;0.99
1753880848.9371643;7.91;5.067;-0.384;-2.07;0.55;86.86;0.0;0.0;0.0;0.0;35.0;-23.0;28.0;-18.0;0.05;0.43;-10.67;0.51;0.24;0.96
1753880848.942164;7.91;5.067;-0.384;-2.07;0.55;86.86;0.0;0.0;0.0;0.0;35.0;-23.0;28.0;-18.0;0.05;0.43;-10.67;0.49;0.3;0.81
1753880848.9471643;7.91;5.067;-0.384;-2.07;0.55;86.86;0.0;0.0;0.0;0.0;35.0;-23.0;28.0;-18.0;0.06;0.43;-10.67;0.62;0.4;0.9
1753880848.9521642;7.91;5.067;-0.384;-2.07;0.55;86.86;0.0;0.0;0.0;0.0;35.0;-23.0;28.0;-18.0;0.06;0.43;-10.66;0.57;0.25;0.92
1753880848.9571643;7.91;5.067;-0.384;-2.07;0.55;86.86;0.0;0.0;0.0;0.0;35.0;-23.0;28.0;-18.0;0.06;0.43;-10.66;0.54;0.28;0.9
1753880848.9621644;7.91;5.067;-0.384;-2.07;0.54;86.86;0.0;0.0;0.0;0.0;35.0;-23.0;28.1;-17.8;0.06;0.43;-10.66;0.56;0.26;0.79
1753880848.9671645;7.91;5.067;-0.384;-2.07;0.54;86.86;0.0;0.0;0.0;0.0;35.1;-23.0;27.8;-18.1;0.06;0.43;-10.67;0.56;0.25;0.97
1753880848.9721646;7.91;5.067;-0.384;-2.07;0.54;86.86;0.0;0.0;0.0;0.0;35.1;-23.0;28.2;-18.0;0.05;0.44;-10.67;0.66;0.14;0.98
1753880848.9771647;7.91;5.067;-0.384;-2.07;0.54;86.86;0.0;0.0;0.0;0.0;35.1;-23.0;27.9;-17.8;0.06;0.43;-10.66;0.52;0.31;0.96
1753880848.9821649;7.91;5.067;-0.384;-2.07;0.55;86.86;0.0;0.0;0.0;0.0;35.1;-23.0;27.8;-17.9;0.06;0.44;-10.66;0.48;0.15;0.92
1753880848.987165;7.91;5.067;-0.384;-2.07;0.55;86.86;0.0;0.0;0.0;0.0;35.1;-23.0;27.7;-17.5;0.06;0.43;-10.66;0.53;0.36;0.92
1753880848.992165;7.91;5.067;-0.384;-2.07;0.54;86.86;0.0;0.0;0.0;0.0;35.4;-23.0;27.7;-17.9;0.06;0.44;-10.65;0.53;0.29;0.97
1753880848.9971652;7.91;5.067;-0.384;-2.08;0.54;86.86;0.0;0.0;0.0;0.0;35.3;-23.0;27.9;-17.9;0.06;0.42;-10.64;0.51;0.23;0.91
1753880849.0021653;7.91;5.067;-0.384;-2.07;0.54;86.86;0.0;0.0;0.0;0.0;35.2;-23.0;28.1;-17.5;0.05;0.43;-10.67;0.52;0.34;0.93
1753880849.0071654;7.91;5.067;-0.384;-2.07;0.55;86.86;0.0;0.0;0.0;0.0;35.2;-23.0;27.9;-17.5;0.06;0.43;-10.65;0.53;0.26;0.92
1753880849.0121655;7.91;5.067;-0.384;-2.07;0.55;86.86;0.0;0.0;0.0;0.0;35.3;-23.0;27.8;-17.7;0.06;0.43;-10.67;0.56;0.31;0.85
1753880849.0171657;7.91;5.067;-0.384;-2.07;0.54;86.86;0.0;0.0;0.0;0.0;35.6;-23.0;27.7;-17.6;0.06;0.43;-10.66;0.53;0.32;1.0
1753880849.0221658;7.91;5.067;-0.384;-2.08;0.54;86.86;0.0;0.0;0.0;0.0;35.0;-23.0;27.8;-18.2;0.06;0.43;-10.67;0.56;0.35;0.89
1753880849.027166;7.91;5.067;-0.384;-2.07;0.54;86.86;0.0;0.0;0.0;0.0;35.9;-23.0;27.5;-17.7;0.06;0.43;-10.67;0.58;0.35;1.02
1753880849.032166;7.91;5.067;-0.384;-2.08;0.55;86.86;0.0;0.0;0.0;0.0;35.6;-23.0;27.5;-17.8;0.06;0.43;-10.66;0.6;0.26;0.85
1753880849.037166;7.91;5.067;-0.384;-2.07;0.54;86.86;0.0;0.0;0.0;0.0;35.6;-23.0;27.7;-17.8;0.07;0.44;-10.67;0.5;0.23;0.97
1753880849.0421662;7.91;5.067;-0.384;-2.08;0.55;86.86;0.0;0.0;0.0;0.0;35.5;-23.0;28.1;-17.1;0.07;0.44;-10.65;0.53;0.22;0.84
1753880849.0471663;7.91;5.067;-0.384;-2.08;0.54;86.86;0.0;0.0;0.0;0.0;35.5;-23.0;27.8;-17.4;0.07;0.43;-10.65;0.6;0.34;0.99
1753880849.0521665;7.91;5.067;-0.384;-2.08;0.54;86.86;0.0;0.0;0.0;0.0;35.6;-23.0;27.7;-17.4;0.06;0.43;-10.66;0.63;0.34;1.01
1753880849.0571666;7.91;5.067;-0.384;-2.08;0.54;86.86;0.0;0.0;0.0;0.0;35.7;-23.0;27.5;-17.5;0.07;0.44;-10.67;0.51;0.31;0.85
1753880849.0621667;7.91;5.067;-0.384;-2.08;0.53;86.86;0.0;0.0;0.0;0.0;35.4;-23.0;27.5;-17.5;0.06;0.43;-10.66;0.46;0.3;1.01
1753880849.0671668;7.91;5.067;-0.384;-2.08;0.53;86.86;0.0;0.0;0.0;0.0;35.6;-23.0;27.2;-17.4;0.06;0.44;-10.66;0.61;0.36;1.03
1753880849.072167;7.91;5.067;-0.384;-2.08;0.54;86.86;0.0;0.0;0.0;0.0;35.7;-23.0;27.3;-17.4;0.06;0.43;-10.66;0.62;0.31;0.91
1753880849.077167;7.91;5.067;-0.384;-2.08;0.53;86.86;0.0;0.0;0.0;0.0;35.6;-23.0;27.4;-17.3;0.06;0.44;-10.67;0.6;0.28;0.99
1753880849.0821671;7.91;5.067;-0.384;-2.08;0.53;86.86;0.0;0.0;0.0;0.0;35.9;-23.0;27.6;-16.8;0.06;0.44;-10.66;0.57;0.38;0.83
1753880849.0871673;7.91;5.067;-0.384;-2.08;0.53;86.86;0.0;0.0;0.0;0.0;35.6;-23.0;26.8;-17.5;0.06;0.43;-10.66;0.55;0.16;0.91
1753880849.0921674;7.91;5.067;-0.384;-2.08;0.54;86.86;0.0;0.0;0.0;0.0;35.4;-23.0;27.2;-17.3;0.06;0.44;-10.64;0.55;0.32;0.86
1753880849.0971675;7.91;5.067;-0.384;-2.08;0.53;86.86;0.0;0.0;0.0;0.0;36.0;-23.0;27.2;-16.9;0.06;0.43;-10.66;0.63;0.26;1.0
1753880849.1021676;7.91;5.067;-0.384;-2.08;0.54;86.86;0.0;0.0;0.0;0.0;35.8;-23.0;27.0;-16.6;0.05;0.45;-10.66;0.51;0.34;1.02
1753880849.1071677;7.91;5.067;-0.384;-2.08;0.54;86.86;0.0;0.0;0.0;0.0;35.7;-23.0;27.2;-17.2;0.05;0.44;-10.66;0.59;0.26;0.86
1753880849.1121678;7.91;5.067;-0.384;-2.08;0.53;86.86;0.0;0.0;0.0;0.0;36.1;-23.0;27.0;-17.1;0.06;0.44;-10.65;0.64;0.45;0.91
1753880849.117168;7.91;5.067;-0.384;-2.08;0.53;86.86;0.0;0.0;0.0;0.0;36.0;-23.0;26.8;-17.2;0.06;0.43;-10.66;0.61;0.25;0.97
1753880849.122168;7.91;5.067;-0.384;-2.08;0.52;86.86;0.0;0.0;0.0;0.0;36.1;-23.0;26.8;-17.3;0.06;0.44;-10.65;0.63;0.33;0.99
1753880849.1271644;7.91;5.067;-0.384;-2.08;0.53;86.86;0.0;0.0;0.0;0.0;36.0;-23.0;27.0;-17.0;0.06;0.44;-10.66;0.6;0.28;0.96
1753880849.1321642;7.91;5.067;-0.384;-2.08;0.53;86.86;0.0;0.0;0.0;0.0;36.0;-23.0;27.0;-17.0;0.06;0.44;-10.66;0.57;0.22;0.64
1753880849.1371644;7.91;5.067;-0.384;-2.08;0.53;86.86;0.0;0.0;0.0;0.0;36.0;-23.0;27.0;-17.0;0.05;0.44;-10.65;0.61;0.41;0.93
1753880849.1421645;7.91;5.067;-0.384;-2.08;0.54;86.86;0.0;0.0;0.0;0.0;35.5;-22.9;26.6;-17.5;0.05;0.44;-10.65;0.64;0.35;0.88
1753880849.1471646;7.91;5.067;-0.384;-2.08;0.54;86.86;0.0;0.0;0.0;0.0;36.4;-23.1;28.0;-16.8;0.05;0.44;-10.65;0.61;0.54;0.92
1753880849.1521647;7.91;5.067;-0.384;-2.08;0.53;86.86;0.0;0.0;0.0;0.0;35.7;-22.7;27.0;-16.5;0.06;0.43;-10.66;0.67;0.43;0.83
1753880849.1571648;7.91;5.067;-0.384;-2.08;0.53;86.86;0.0;0.0;0.0;0.0;35.9;-23.3;27.0;-16.4;0.06;0.44;-10.66;0.57;0.36;0.9
1753880849.162165;7.91;5.067;-0.384;-2.08;0.54;86.86;0.0;0.0;0.0;0.0;35.9;-23.2;26.9;-17.4;0.05;0.43;-10.65;0.56;0.45;0.9
1753880849.167165;7.91;5.067;-0.384;-2.09;0.53;86.86;0.0;0.0;0.0;0.0;35.7;-23.0;26.9;-17.4;0.06;0.45;-10.65;0.68;0.31;0.94
1753880849.1721652;7.91;5.067;-0.384;-2.07;0.54;86.86;0.0;0.0;0.0;0.0;35.4;-23.0;27.3;-17.0;0.06;0.45;-10.65;0.51;0.31;0.78
1753880849.1771653;7.91;5.067;-0.384;-2.09;0.53;86.86;0.0;0.0;0.0;0.0;35.5;-23.1;27.9;-16.9;0.06;0.43;-10.64;0.71;0.29;0.86
1753880849.1821654;7.91;5.067;-0.384;-2.08;0.54;86.86;0.0;0.0;0.0;0.0;35.7;-23.3;26.9;-16.8;0.06;0.44;-10.66;0.68;0.36;0.88
1753880849.1871655;7.91;5.067;-0.384;-2.08;0.52;86.86;0.0;0.0;0.0;0.0;35.6;-23.1;28.3;-16.4;0.05;0.44;-10.67;0.63;0.29;1.04
1753880849.1921656;7.91;5.067;-0.384;-2.07;0.52;86.86;0.0;0.0;0.0;0.0;35.8;-23.6;27.2;-17.1;0.05;0.44;-10.65;0.65;0.3;0.81
1753880849.1971657;7.91;5.067;-0.384;-2.08;0.52;86.86;0.0;0.0;0.0;0.0;35.5;-23.4;28.1;-16.5;0.06;0.45;-10.66;0.55;0.37;0.85
1753880849.2021658;7.91;5.067;-0.384;-2.08;0.54;86.86;0.0;0.0;0.0;0.0;35.6;-23.5;27.8;-17.2;0.06;0.44;-10.65;0.63;0.35;0.75
1753880849.207166;7.91;5.067;-0.384;-2.08;0.51;86.86;0.0;0.0;0.0;0.0;36.0;-23.5;28.3;-17.1;0.05;0.44;-10.65;0.59;0.29;0.96
1753880849.212166;7.91;5.067;-0.384;-2.08;0.54;86.86;0.0;0.0;0.0;0.0;36.1;-23.6;28.6;-16.2;0.05;0.44;-10.65;0.61;0.28;0.85
1753880849.2171662;7.91;5.067;-0.384;-2.09;0.52;86.86;0.0;0.0;0.0;0.0;35.2;-23.6;28.2;-16.3;0.07;0.44;-10.65;0.63;0.23;0.97
1753880849.2221663;7.91;5.067;-0.384;-2.08;0.53;86.86;0.0;0.0;0.0;0.0;35.8;-23.5;28.2;-17.1;0.07;0.44;-10.66;0.6;0.4;0.82
1753880849.2271664;7.91;5.067;-0.384;-2.09;0.54;86.86;0.0;0.0;0.0;0.0;35.7;-23.6;29.3;-17.2;0.06;0.43;-10.65;0.61;0.3;0.93
1753880849.2321665;7.91;5.067;-0.384;-2.09;0.53;86.86;0.0;0.0;0.0;0.0;35.6;-23.3;28.0;-17.8;0.07;0.45;-10.63;0.55;0.35;0.92
1753880849.2371666;7.91;5.067;-0.384;-2.09;0.53;86.86;0.0;0.0;0.0;0.0;35.3;-23.8;28.7;-16.8;0.08;0.44;-10.65;0.6;0.39;0.82
1753880849.2421668;7.91;5.067;-0.384;-2.09;0.52;86.86;0.0;0.0;0.0;0.0;35.5;-23.9;27.9;-16.9;0.08;0.44;-10.65;0.58;0.37;1.0
1753880849.2471669;7.91;5.067;-0.384;-2.09;0.53;86.86;0.0;0.0;0.0;0.0;34.6;-23.7;28.4;-16.8;0.06;0.44;-10.64;0.53;0.42;1.01
1753880849.252167;7.91;5.067;-0.384;-2.09;0.52;86.86;0.0;0.0;0.0;0.0;35.8;-23.8;27.8;-16.7;0.09;0.43;-10.65;0.72;0.28;0.91
1753880849.257167;7.91;5.067;-0.384;-2.09;0.53;86.86;0.0;0.0;0.0;0.0;35.4;-23.7;28.1;-16.4;0.06;0.44;-10.65;0.63;0.18;0.87
1753880849.2621672;7.91;5.067;-0.384;-2.09;0.54;86.86;0.0;0.0;0.0;0.0;35.4;-23.6;28.7;-16.5;0.07;0.44;-10.65;0.59;0.32;0.95
1753880849.2671673;7.91;5.067;-0.384;-2.08;0.52;86.86;0.0;0.0;0.0;0.0;34.8;-23.9;28.6;-17.4;0.08;0.43;-10.66;0.46;0.35;0.9
1753880849.2721674;7.91;5.067;-0.384;-2.09;0.52;86.86;0.0;0.0;0.0;0.0;34.8;-24.0;28.1;-16.9;0.08;0.44;-10.66;0.55;0.27;0.86
1753880849.2771676;7.91;5.067;-0.384;-2.09;0.53;86.86;0.0;0.0;0.0;0.0;35.9;-23.6;29.0;-16.8;0.06;0.43;-10.65;0.62;0.34;0.94
1753880849.2821677;7.91;5.067;-0.384;-2.08;0.53;86.86;0.0;0.0;0.0;0.0;34.9;-23.7;28.4;-17.8;0.08;0.43;-10.65;0.42;0.18;0.93
1753880849.2871678;7.91;5.067;-0.384;-2.09;0.52;86.86;0.0;0.0;0.0;0.0;35.1;-23.4;28.5;-16.4;0.08;0.44;-10.65;0.64;0.13;0.9
1753880849.292168;7.91;5.067;-0.384;-2.09;0.53;86.86;0.0;0.0;0.0;0.0;35.3;-23.8;29.2;-16.7;0.08;0.45;-10.65;0.53;0.14;0.88
1753880849.297168;7.91;5.067;-0.384;-2.09;0.54;86.86;0.0;0.0;0.0;0.0;35.6;-24.1;29.3;-17.2;0.08;0.44;-10.66;0.53;0.31;0.88
1753880849.3021681;7.91;5.067;-0.384;-2.08;0.53;86.86;0.0;0.0;0.0;0.0;35.6;-24.3;28.6;-17.1;0.08;0.44;-10.65;0.55;0.18;0.9
1753880849.307164;7.91;5.067;-0.384;-2.09;0.53;86.86;0.0;0.0;0.0;0.0;35.0;-24.0;29.0;-17.0;0.08;0.44;-10.65;0.56;0.22;0.86
1753880849.3121643;7.91;5.067;-0.384;-2.09;0.53;86.86;0.0;0.0;0.0;0.0;35.0;-24.0;29.0;-17.0;0.08;0.44;-10.65;0.57;0.41;0.93
1753880849.317164;7.91;5.067;-0.384;-2.09;0.53;86.86;0.0;0.0;0.0;0.0;35.0;-24.0;29.0;-17.0;0.08;0.44;-10.65;0.64;0.29;0.99
1753880849.3221643;7.91;5.067;-0.384;-2.09;0.53;86.86;0.0;0.0;0.0;0.0;35.0;-24.0;29.0;-17.0;0.08;0.44;-10.65;0.69;0.24;0.87
1753880849.3271642;7.91;5.067;-0.384;-2.09;0.53;86.86;0.0;0.0;0.0;0.0;35.0;-24.0;29.0;-17.0;0.08;0.44;-10.65;0.64;0.32;0.9
1753880849.3321643;7.91;5.067;-0.384;-2.09;0.53;86.86;0.0;0.0;0.0;0.0;35.0;-24.0;29.0;-17.0;0.08;0.44;-10.66;0.49;0.22;0.9
1753880849.3371642;7.91;5.067;-0.384;-2.09;0.53;86.86;0.0;0.0;0.0;0.0;35.0;-24.0;29.0;-17.0;0.08;0.45;-10.66;0.7;0.35;0.94
1753880849.3421643;7.91;5.067;-0.384;-2.09;0.53;86.86;0.0;0.0;0.0;0.0;35.0;-24.0;29.0;-17.0;0.08;0.44;-10.66;0.66;0.25;0.89
1753880849.3471642;7.91;5.067;-0.384;-2.09;0.53;86.86;0.0;0.0;0.0;0.0;35.0;-24.0;29.0;-17.0;0.07;0.44;-10.67;0.7;0.42;0.78
1753880849.3521643;7.91;5.067;-0.384;-2.09;0.53;86.86;0.0;0.0;0.0;0.0;35.0;-24.0;29.0;-17.0;0.07;0.44;-10.67;0.67;0.32;0.82
1753880849.3571644;7.91;5.067;-0.384;-2.09;0.53;86.86;0.0;0.0;0.0;0.0;35.0;-24.0;29.0;-17.0;0.07;0.44;-10.67;0.65;0.3;0.8
1753880849.3621643;7.91;5.067;-0.384;-2.09;0.53;86.86;0.0;0.0;0.0;0.0;35.0;-24.0;29.0;-17.0;0.07;0.44;-10.66;0.72;0.54;1.05
1753880849.3671644;7.91;5.067;-0.384;-2.09;0.53;86.86;0.0;0.0;0.0;0.0;35.0;-24.0;29.0;-17.0;0.07;0.45;-10.67;0.55;0.4;0.83
1753880849.3721642;7.91;5.067;-0.384;-2.09;0.53;86.86;0.0;0.0;0.0;0.0;35.0;-24.0;29.0;-17.0;0.06;0.45;-10.67;0.67;0.28;0.83
1753880849.3771644;7.91;5.067;-0.384;-2.09;0.53;86.86;0.0;0.0;0.0;0.0;35.0;-24.0;29.0;-17.0;0.06;0.44;-10.67;0.65;0.34;0.86
1753880849.3821642;7.91;5.067;-0.384;-2.09;0.53;86.86;0.0;0.0;0.0;0.0;35.0;-24.0;29.0;-17.0;0.06;0.44;-10.67;0.57;0.41;0.83
1753880849.3871644;7.91;5.067;-0.384;-2.09;0.53;86.86;0.0;0.0;0.0;0.0;35.0;-24.0;29.0;-17.0;0.05;0.44;-10.67;0.52;0.15;0.75
1753880849.3921642;7.91;5.067;-0.384;-2.09;0.53;86.86;0.0;0.0;0.0;0.0;35.0;-24.0;29.0;-17.0;0.05;0.44;-10.67;0.55;0.29;0.96
1753880849.3971643;7.91;5.067;-0.384;-2.09;0.53;86.86;0.0;0.0;0.0;0.0;35.0;-24.0;29.0;-17.0;0.05;0.44;-10.66;0.69;0.36;0.92
1753880849.4021645;7.91;5.067;-0.384;-2.09;0.53;86.86;0.0;0.0;0.0;0.0;35.0;-24.0;29.0;-17.0;0.05;0.44;-10.67;0.68;0.48;0.9
1753880849.4071646;7.91;5.067;-0.384;-2.09;0.53;86.86;0.0;0.0;0.0;0.0;35.0;-24.0;29.0;-17.0;0.05;0.44;-10.66;0.64;0.32;0.94
1753880849.4121647;7.91;5.067;-0.384;-2.09;0.53;86.86;0.0;0.0;0.0;0.0;35.0;-24.0;29.0;-17.0;0.04;0.44;-10.66;0.72;0.43;0.92
1753880849.4171648;7.91;5.067;-0.384;-2.09;0.53;86.86;0.0;0.0;0.0;0.0;35.0;-24.0;29.0;-17.0;0.03;0.43;-10.67;0.81;0.31;0.84
1753880849.422165;7.91;5.067;-0.384;-2.09;0.53;86.86;0.0;0.0;0.0;0.0;35.0;-24.0;29.0;-17.0;0.06;0.43;-10.67;0.78;0.26;0.85
1753880849.427165;7.91;5.067;-0.384;-2.09;0.53;86.86;0.0;0.0;0.0;0.0;35.0;-24.0;29.0;-17.0;0.05;0.44;-10.66;0.62;0.31;1.02
1753880849.4321651;7.91;5.067;-0.384;-2.09;0.53;86.86;0.0;0.0;0.0;0.0;35.0;-24.0;29.0;-17.0;0.06;0.45;-10.66;0.64;0.43;1.06
1753880849.4371653;7.91;5.067;-0.384;-2.09;0.53;86.86;0.0;0.0;0.0;0.0;35.0;-24.0;29.0;-17.0;0.02;0.43;-10.65;0.73;0.48;0.97
1753880849.4421654;7.91;5.067;-0.384;-2.09;0.53;86.86;0.0;0.0;0.0;0.0;35.0;-24.0;29.0;-17.0;0.06;0.44;-10.66;0.74;0.44;0.94
1753880849.4471655;7.91;5.067;-0.384;-2.09;0.53;86.86;0.0;0.0;0.0;0.0;35.0;-24.0;29.0;-17.0;0.07;0.43;-10.67;0.65;0.29;1.01
1753880849.4521656;7.91;5.067;-0.384;-2.09;0.53;86.86;0.0;0.0;0.0;0.0;35.0;-24.0;29.0;-17.0;0.07;0.43;-10.66;0.74;0.35;0.91
1753880849.4571657;7.91;5.067;-0.384;-2.09;0.53;86.86;0.0;0.0;0.0;0.0;35.0;-24.0;29.0;-17.0;0.04;0.44;-10.67;0.64;0.35;0.84
1753880849.4621658;7.91;5.067;-0.384;-2.09;0.53;86.86;0.0;0.0;0.0;0.0;35.0;-24.0;29.0;-17.0;0.04;0.43;-10.65;0.6;0.4;1.01
1753880849.467166;7.91;5.067;-0.384;-2.09;0.53;86.86;0.0;0.0;0.0;0.0;35.0;-24.0;29.0;-17.0;0.04;0.43;-10.65;0.68;0.39;0.85
1753880849.472166;7.91;5.067;-0.384;-2.09;0.53;86.86;0.0;0.0;0.0;0.0;35.0;-24.0;29.0;-17.0;0.05;0.44;-10.65;0.58;0.34;0.92
1753880849.4771662;7.91;5.067;-0.384;-2.09;0.53;86.86;0.0;0.0;0.0;0.0;35.0;-24.0;29.0;-17.0;0.05;0.42;-10.65;0.64;0.41;0.82
1753880849.4821663;7.91;5.067;-0.384;-2.09;0.53;86.86;0.0;0.0;0.0;0.0;35.0;-24.0;29.0;-17.0;0.05;0.43;-10.66;0.69;0.42;0.84
1753880849.4871664;7.91;5.067;-0.384;-2.09;0.53;86.86;0.0;0.0;0.0;0.0;35.0;-24.0;29.0;-17.0;0.04;0.43;-10.64;0.74;0.38;0.81
1753880849.4921665;7.91;5.067;-0.384;-2.09;0.53;86.86;0.0;0.0;0.0;0.0;35.0;-24.0;29.0;-17.0;0.05;0.44;-10.66;0.62;0.38;0.8
1753880849.4971666;7.91;5.067;-0.384;-2.09;0.53;86.86;0.0;0.0;0.0;0.0;35.0;-24.0;29.0;-17.0;0.05;0.43;-10.65;0.63;0.29;0.86
1753880849.5021644;7.91;5.067;-0.384;-2.09;0.53;86.86;0.0;0.0;0.0;0.0;35.0;-24.0;29.0;-17.0;0.05;0.43;-10.66;0.64;0.36;0.87
1753880849.5071642;7.91;5.067;-0.384;-2.09;0.53;86.86;0.0;0.0;0.0;0.0;35.0;-24.0;29.0;-17.0;0.05;0.43;-10.67;0.69;0.47;0.86
1753880849.5121644;7.91;5.067;-0.384;-2.09;0.53;86.86;0.0;0.0;0.0;0.0;35.0;-24.0;29.0;-17.0;0.05;0.44;-10.67;0.67;0.28;1.02
1753880849.5171645;7.91;5.067;-0.384;-2.09;0.53;86.86;0.0;0.0;0.0;0.0;35.2;-24.2;29.9;-16.7;0.04;0.44;-10.67;0.77;0.3;1.16
1753880849.5221646;7.91;5.067;-0.384;-2.09;0.53;86.86;0.0;0.0;0.0;0.0;35.2;-24.3;29.3;-17.3;0.07;0.43;-10.68;0.69;0.27;1.08
1753880849.5271647;7.91;5.067;-0.384;-2.09;0.53;86.86;0.0;0.0;0.0;0.0;35.4;-24.1;28.7;-17.0;0.06;0.44;-10.66;0.62;0.42;0.99
1753880849.5321648;7.91;5.067;-0.384;-2.08;0.52;86.86;0.0;0.0;0.0;0.0;35.3;-24.0;28.8;-17.1;0.04;0.43;-10.67;0.71;0.3;1.0
1753880849.537165;7.91;5.067;-0.384;-2.09;0.52;86.86;0.0;0.0;0.0;0.0;35.0;-23.7;28.3;-17.0;0.05;0.44;-10.68;0.68;0.16;1.03
1753880849.542165;7.91;5.067;-0.384;-2.08;0.53;86.86;0.0;0.0;0.0;0.0;35.0;-23.9;28.1;-16.6;0.04;0.43;-10.67;0.72;0.38;0.9
1753880849.5471652;7.91;5.067;-0.384;-2.09;0.52;86.86;0.0;0.0;0.0;0.0;35.1;-23.7;28.8;-16.9;0.06;0.44;-10.67;0.68;0.35;0.8
1753880849.5521653;7.91;5.067;-0.384;-2.09;0.53;86.86;0.0;0.0;0.0;0.0;35.3;-23.9;28.5;-16.7;0.05;0.43;-10.66;0.72;0.41;1.05
1753880849.5571654;7.91;5.067;-0.384;-2.08;0.52;86.86;0.0;0.0;0.0;0.0;35.5;-23.3;28.4;-16.5;0.04;0.44;-10.68;0.64;0.21;1.02
1753880849.5621655;7.91;5.067;-0.384;-2.09;0.52;86.86;0.0;0.0;0.0;0.0;35.3;-23.8;27.9;-16.7;0.05;0.44;-10.66;0.66;0.12;1.03
1753880849.5671656;7.91;5.067;-0.384;-2.09;0.52;86.86;0.0;0.0;0.0;0.0;35.5;-23.7;27.8;-16.3;0.06;0.43;-10.66;0.65;0.32;1.02
1753880849.5721657;7.91;5.067;-0.384;-2.08;0.53;86.86;0.0;0.0;0.0;0.0;35.0;-23.6;27.6;-16.6;0.05;0.43;-10.67;0.65;0.39;1.0
1753880849.5771658;7.91;5.067;-0.384;-2.08;0.52;86.86;0.0;0.0;0.0;0.0;35.6;-23.7;28.8;-16.4;0.07;0.45;-10.67;0.61;0.2;0.88
1753880849.582166;7.91;5.067;-0.384;-2.09;0.53;86.86;0.0;0.0;0.0;0.0;35.6;-23.6;28.5;-16.2;0.06;0.43;-10.67;0.69;0.34;0.98
1753880849.587166;7.91;5.067;-0.384;-2.08;0.52;86.86;0.0;0.0;0.0;0.0;35.4;-23.6;27.9;-16.3;0.04;0.44;-10.67;0.8;0.34;0.93
1753880849.5921662;7.91;5.067;-0.384;-2.08;0.52;86.86;0.0;0.0;0.0;0.0;35.6;-23.3;28.0;-16.9;0.04;0.43;-10.66;0.63;0.28;0.99
1753880849.5971663;7.91;5.067;-0.384;-2.08;0.52;86.86;0.0;0.0;0.0;0.0;35.4;-23.4;28.2;-16.8;0.04;0.44;-10.66;0.5;0.48;0.98
1753880849.6021664;7.91;5.067;-0.384;-2.08;0.52;86.86;0.0;0.0;0.0;0.0;35.2;-23.6;28.2;-16.7;0.06;0.44;-10.67;0.55;0.6;1.04
1753880849.6071665;7.91;5.067;-0.384;-2.08;0.52;86.86;0.0;0.0;0.0;0.0;35.4;-23.3;28.3;-16.3;0.07;0.42;-10.68;0.65;0.43;0.96
1753880849.6121666;7.91;5.067;-0.384;-2.09;0.52;86.86;0.0;0.0;0.0;0.0;35.4;-23.4;28.1;-16.5;0.06;0.42;-10.67;0.7;0.35;1.03
1753880849.6171668;7.91;5.067;-0.384;-2.08;0.53;86.86;0.0;0.0;0.0;0.0;35.3;-23.0;27.8;-16.8;0.05;0.42;-10.67;0.7;0.25;0.94
1753880849.6221669;7.91;5.067;-0.384;-2.08;0.51;86.86;0.0;0.0;0.0;0.0;35.5;-23.4;27.8;-16.2;0.05;0.43;-10.66;0.58;0.33;0.82
1753880849.627167;7.91;5.067;-0.384;-2.08;0.52;86.86;0.0;0.0;0.0;0.0;35.4;-23.8;27.4;-16.5;0.07;0.44;-10.68;0.59;0.36;0.88
1753880849.632167;7.91;5.067;-0.384;-2.07;0.52;86.86;0.0;0.0;0.0;0.0;36.1;-23.4;27.9;-16.5;0.05;0.43;-10.67;0.53;0.24;0.9
1753880849.6371672;7.91;5.067;-0.384;-2.08;0.52;86.86;0.0;0.0;0.0;0.0;35.6;-23.3;27.3;-15.9;0.05;0.42;-10.68;0.52;0.29;0.96
1753880849.6421673;7.91;5.067;-0.384;-2.07;0.52;86.86;0.0;0.0;0.0;0.0;35.5;-23.3;27.2;-16.5;0.04;0.41;-10.67;0.72;0.36;1.1
1753880849.6471674;7.91;5.067;-0.384;-2.08;0.52;86.86;0.0;0.0;0.0;0.0;35.8;-23.3;27.7;-16.6;0.07;0.42;-10.67;0.56;0.4;1.01
1753880849.6521676;7.91;5.067;-0.384;-2.08;0.52;86.86;0.0;0.0;0.0;0.0;35.8;-23.1;27.5;-16.3;0.05;0.43;-10.67;0.6;0.26;1.01
1753880849.6571677;7.91;5.067;-0.384;-2.09;0.51;86.86;0.0;0.0;0.0;0.0;35.8;-23.1;27.4;-16.2;0.06;0.43;-10.66;0.69;0.47;0.94
1753880849.6621678;7.91;5.067;-0.384;-2.08;0.51;86.86;0.0;0.0;0.0;0.0;35.8;-23.0;26.8;-16.0;0.06;0.43;-10.68;0.7;0.38;0.9
1753880849.667168;7.91;5.067;-0.384;-2.07;0.52;86.86;0.0;0.0;0.0;0.0;36.1;-23.4;27.8;-16.1;0.07;0.42;-10.66;0.54;0.4;1.06
1753880849.672168;7.91;5.067;-0.384;-2.08;0.51;86.86;0.0;0.0;0.0;0.0;35.6;-22.7;27.4;-16.1;0.05;0.42;-10.66;0.67;0.35;0.85
1753880849.6771681;7.91;5.067;-0.384;-2.08;0.51;86.86;0.0;0.0;0.0;0.0;35.9;-23.2;27.8;-16.3;0.05;0.43;-10.67;0.65;0.33;0.98
1753880849.6821682;7.91;5.067;-0.384;-2.07;0.51;86.86;0.0;0.0;0.0;0.0;35.9;-23.3;26.5;-15.8;0.06;0.42;-10.66;0.53;0.36;0.95
1753880849.6871684;7.91;5.067;-0.384;-2.07;0.51;86.86;0.0;0.0;0.0;0.0;36.0;-22.6;27.5;-15.6;0.07;0.42;-10.68;0.6;0.34;0.87
1753880849.6921685;7.91;5.067;-0.384;-2.07;0.5;86.86;0.0;0.0;0.0;0.0;36.2;-23.2;27.3;-16.1;0.06;0.43;-10.68;0.62;0.26;0.99
1753880849.6971686;7.91;5.067;-0.384;-2.07;0.5;86.86;0.0;0.0;0.0;0.0;36.3;-23.0;26.9;-16.0;0.1;0.41;-10.67;0.55;0.38;0.99
1753880849.7021642;7.91;5.067;-0.384;-2.07;0.51;86.86;0.0;0.0;0.0;0.0;36.0;-23.0;27.0;-16.0;0.06;0.42;-10.67;0.57;0.35;0.92
1753880849.7071643;7.91;5.067;-0.384;-2.07;0.51;86.86;0.0;0.0;0.0;0.0;36.0;-23.0;27.0;-16.0;0.06;0.43;-10.67;0.54;0.25;0.88
1753880849.7121642;7.91;5.067;-0.384;-2.07;0.51;86.86;0.0;0.0;0.0;0.0;36.0;-23.0;27.0;-16.0;0.06;0.43;-10.67;0.63;0.32;0.96
1753880849.7171643;7.91;5.067;-0.384;-2.07;0.51;86.86;0.0;0.0;0.0;0.0;36.0;-23.0;27.0;-16.0;0.06;0.43;-10.67;0.6;0.23;0.93
1753880849.7221642;7.91;5.067;-0.384;-2.07;0.51;86.86;0.0;0.0;0.0;0.0;36.0;-23.0;27.0;-16.0;0.06;0.44;-10.66;0.53;0.24;1.05
1753880849.7271643;7.91;5.067;-0.384;-2.07;0.51;86.86;0.0;0.0;0.0;0.0;36.0;-23.0;27.0;-16.0;0.06;0.43;-10.66;0.59;0.2;0.97
1753880849.7321644;7.91;5.067;-0.384;-2.07;0.51;86.86;0.0;0.0;0.0;0.0;36.0;-23.0;27.0;-16.0;0.06;0.43;-10.67;0.67;0.32;0.85
1753880849.7371643;7.91;5.067;-0.384;-2.07;0.51;86.86;0.0;0.0;0.0;0.0;36.0;-23.0;27.0;-16.0;0.06;0.43;-10.67;0.68;0.3;0.99
1753880849.7421644;7.91;5.067;-0.384;-2.07;0.51;86.86;0.0;0.0;0.0;0.0;36.0;-23.0;27.0;-16.0;0.06;0.43;-10.66;0.61;0.39;0.86
1753880849.7471642;7.91;5.067;-0.384;-2.07;0.51;86.86;0.0;0.0;0.0;0.0;36.0;-23.0;27.0;-16.0;0.07;0.43;-10.67;0.56;0.38;0.86
1753880849.7521644;7.91;5.067;-0.384;-2.07;0.51;86.86;0.0;0.0;0.0;0.0;36.0;-23.0;27.0;-16.0;0.07;0.43;-10.67;0.57;0.3;0.93
1753880849.7571642;7.91;5.067;-0.384;-2.07;0.51;86.86;0.0;0.0;0.0;0.0;36.0;-23.0;27.0;-16.0;0.07;0.44;-10.66;0.41;0.44;0.9
1753880849.7621644;7.91;5.067;-0.384;-2.07;0.51;86.86;0.0;0.0;0.0;0.0;36.0;-23.0;27.0;-16.0;0.07;0.44;-10.66;0.54;0.25;0.9
1753880849.7671642;7.91;5.067;-0.384;-2.07;0.51;86.86;0.0;0.0;0.0;0.0;36.0;-23.0;27.0;-16.0;0.07;0.44;-10.67;0.51;0.29;0.9
1753880849.7721643;7.91;5.067;-0.384;-2.08;0.52;86.86;0.0;0.0;0.0;0.0;35.6;-22.3;27.5;-15.8;0.07;0.44;-10.66;0.48;0.37;0.99
1753880849.7771642;7.91;5.067;-0.384;-2.07;0.51;86.86;0.0;0.0;0.0;0.0;36.0;-23.0;27.0;-16.0;0.07;0.43;-10.66;0.47;0.44;0.96
1753880849.7821646;7.91;5.067;-0.384;-2.07;0.51;86.86;0.0;0.0;0.0;0.0;36.0;-23.0;27.0;-16.0;0.08;0.44;-10.66;0.57;0.23;0.99
1753880849.787164;7.91;5.067;-0.384;-2.07;0.51;86.86;0.0;0.0;0.0;0.0;36.0;-23.0;27.0;-16.0;0.07;0.44;-10.65;0.59;0.29;0.98
1753880849.7921646;7.91;5.067;-0.384;-2.07;0.51;86.86;0.0;0.0;0.0;0.0;36.0;-23.0;27.0;-16.0;0.07;0.44;-10.65;0.68;0.4;1.02
1753880849.797164;7.91;5.067;-0.384;-2.07;0.51;86.86;0.0;0.0;0.0;0.0;36.0;-23.0;27.0;-16.0;0.07;0.44;-10.65;0.59;0.41;1.04
1753880849.8021646;7.91;5.067;-0.384;-2.07;0.51;86.86;0.0;0.0;0.0;0.0;36.0;-23.0;27.0;-16.0;0.06;0.44;-10.65;0.59;0.24;0.86
1753880849.807164;7.91;5.067;-0.384;-2.07;0.51;86.86;0.0;0.0;0.0;0.0;36.0;-23.0;27.0;-16.0;0.06;0.44;-10.65;0.58;0.3;0.87
1753880849.8121643;7.91;5.067;-0.384;-2.07;0.51;86.86;0.0;0.0;0.0;0.0;36.0;-23.0;27.0;-16.0;0.06;0.44;-10.65;0.67;0.32;0.9
1753880849.817164;7.91;5.067;-0.384;-2.07;0.51;86.86;0.0;0.0;0.0;0.0;36.0;-23.0;27.0;-16.0;0.06;0.44;-10.65;0.54;0.37;0.87
1753880849.8221643;7.91;5.067;-0.384;-2.07;0.51;86.86;0.0;0.0;0.0;0.0;36.0;-23.0;27.0;-16.0;0.07;0.44;-10.65;0.74;0.29;0.87
1753880849.8271642;7.91;5.067;-0.384;-2.07;0.51;86.86;0.0;0.0;0.0;0.0;36.0;-23.0;27.0;-16.0;0.07;0.44;-10.65;0.59;0.39;0.83
1753880849.8321643;7.91;5.067;-0.384;-2.07;0.51;86.86;0.0;0.0;0.0;0.0;36.0;-23.0;27.0;-16.0;0.06;0.44;-10.65;0.67;0.38;1.12
1753880849.8371642;7.91;5.067;-0.384;-2.07;0.51;86.86;0.0;0.0;0.0;0.0;36.0;-23.0;27.0;-16.0;0.06;0.44;-10.65;0.52;0.33;0.92
1753880849.8421643;7.91;5.067;-0.384;-2.07;0.51;86.86;0.0;0.0;0.0;0.0;36.0;-23.0;27.0;-16.0;0.06;0.43;-10.65;0.7;0.13;0.86
1753880849.8471642;7.91;5.067;-0.384;-2.07;0.51;86.86;0.0;0.0;0.0;0.0;36.0;-23.0;27.0;-16.0;0.06;0.43;-10.66;0.62;0.32;0.96
1753880849.8521643;7.91;5.067;-0.384;-2.07;0.51;86.86;0.0;0.0;0.0;0.0;36.0;-23.0;27.0;-16.0;0.06;0.43;-10.66;0.62;0.34;0.9
1753880849.8571644;7.91;5.067;-0.384;-2.07;0.51;86.86;0.0;0.0;0.0;0.0;36.0;-23.0;27.0;-16.0;0.06;0.44;-10.66;0.6;0.36;0.89
1753880849.8621643;7.91;5.067;-0.384;-2.07;0.51;86.86;0.0;0.0;0.0;0.0;36.0;-23.0;27.0;-16.0;0.06;0.43;-10.66;0.62;0.24;0.78
1753880849.8671644;7.91;5.067;-0.384;-2.07;0.51;86.86;0.0;0.0;0.0;0.0;36.0;-23.0;27.0;-16.0;0.06;0.43;-10.66;0.69;0.15;0.9
1753880849.8721642;7.91;5.067;-0.384;-2.07;0.51;86.86;0.0;0.0;0.0;0.0;36.0;-23.0;27.0;-16.0;0.06;0.43;-10.66;0.55;0.26;0.91
1753880849.8771644;7.91;5.067;-0.384;-2.07;0.51;86.86;0.0;0.0;0.0;0.0;36.0;-23.0;27.0;-16.0;0.05;0.44;-10.66;0.57;0.37;0.87
1753880849.8821642;7.91;5.067;-0.384;-2.07;0.51;86.86;0.0;0.0;0.0;0.0;36.0;-23.0;27.0;-16.0;0.05;0.44;-10.66;0.53;0.37;0.93
1753880849.8871644;7.91;5.067;-0.384;-2.07;0.51;86.86;0.0;0.0;0.0;0.0;36.0;-23.0;27.0;-16.0;0.05;0.43;-10.66;0.74;0.41;0.89
1753880849.8921642;7.91;5.067;-0.384;-2.07;0.51;86.86;0.0;0.0;0.0;0.0;36.0;-23.0;27.0;-16.0;0.05;0.44;-10.67;0.64;0.35;0.94
1753880849.8971643;7.91;5.067;-0.384;-2.07;0.51;86.86;0.0;0.0;0.0;0.0;36.0;-23.0;27.0;-16.0;0.06;0.43;-10.66;0.64;0.28;0.83
1753880849.9021642;7.91;5.067;-0.384;-2.07;0.51;86.86;0.0;0.0;0.0;0.0;36.0;-23.0;27.0;-16.0;0.06;0.44;-10.66;0.55;0.45;0.83
1753880849.9071646;7.91;5.067;-0.384;-2.07;0.51;86.86;0.0;0.0;0.0;0.0;36.0;-23.0;27.0;-16.0;0.06;0.44;-10.66;0.6;0.31;1.03
1753880849.912164;7.91;5.067;-0.384;-2.07;0.51;86.86;0.0;0.0;0.0;0.0;36.0;-23.0;27.0;-16.0;0.06;0.44;-10.66;0.51;0.32;0.89
1753880849.9171646;7.91;5.067;-0.384;-2.07;0.51;86.86;0.0;0.0;0.0;0.0;36.0;-23.0;27.0;-16.0;0.06;0.44;-10.65;0.56;0.19;0.83
1753880849.922164;7.91;5.067;-0.384;-2.07;0.51;86.86;0.0;0.0;0.0;0.0;36.0;-23.0;27.0;-16.0;0.06;0.45;-10.64;0.67;0.26;0.86
1753880849.9271646;7.91;5.067;-0.384;-2.07;0.51;86.86;0.0;0.0;0.0;0.0;36.0;-23.0;27.0;-16.0;0.06;0.44;-10.64;0.58;0.41;0.93
1753880849.932164;7.91;5.067;-0.384;-2.07;0.51;86.86;0.0;0.0;0.0;0.0;36.0;-23.0;27.0;-16.0;0.06;0.44;-10.64;0.57;0.29;0.88
1753880849.9371643;7.91;5.067;-0.384;-2.07;0.51;86.86;0.0;0.0;0.0;0.0;36.0;-23.0;27.0;-16.0;0.06;0.44;-10.64;0.62;0.19;1.16
1753880849.942164;7.91;5.067;-0.384;-2.07;0.51;86.86;0.0;0.0;0.0;0.0;36.0;-23.0;27.0;-16.0;0.06;0.44;-10.64;0.6;0.41;0.85
1753880849.9471643;7.91;5.067;-0.384;-2.07;0.51;86.86;0.0;0.0;0.0;0.0;36.0;-23.0;27.0;-16.0;0.06;0.44;-10.64;0.64;0.24;0.93
1753880849.9521642;7.91;5.067;-0.384;-2.07;0.51;86.86;0.0;0.0;0.0;0.0;36.0;-23.0;27.0;-16.0;0.06;0.44;-10.64;0.54;0.12;0.7
1753880849.9571643;7.91;5.067;-0.384;-2.07;0.51;86.86;0.0;0.0;0.0;0.0;36.0;-23.0;27.0;-16.0;0.05;0.43;-10.64;0.55;0.31;0.82
1753880849.9621642;7.91;5.067;-0.384;-2.07;0.51;86.86;0.0;0.0;0.0;0.0;36.0;-23.0;27.0;-16.0;0.05;0.43;-10.64;0.58;0.27;0.92
1753880849.9671643;7.91;5.067;-0.384;-2.07;0.51;86.86;0.0;0.0;0.0;0.0;36.0;-23.0;27.0;-16.0;0.06;0.43;-10.65;0.65;0.28;0.94
1753880849.9721644;7.91;5.067;-0.384;-2.07;0.51;86.86;0.0;0.0;0.0;0.0;35.4;-23.1;27.5;-9.5;0.06;0.44;-10.64;0.53;0.25;0.84
1753880849.9771645;7.91;5.067;-0.384;-2.07;0.51;86.86;0.0;0.0;0.0;0.0;35.0;-23.0;26.8;-15.7;0.07;0.43;-10.66;0.69;0.14;0.84
1753880849.9821646;7.91;5.067;-0.384;-2.07;0.51;86.86;0.0;0.0;0.0;0.0;34.7;-23.2;27.5;-12.8;0.05;0.44;-10.66;0.67;0.23;0.8
1753880849.9871647;7.91;5.067;-0.384;-2.07;0.51;86.86;0.0;0.0;0.0;0.0;34.6;-23.3;27.1;-5.9;0.06;0.44;-10.66;0.67;0.33;1.0
1753880849.9921649;7.91;5.067;-0.384;-2.07;0.51;86.86;0.0;0.0;0.0;0.0;34.9;-22.7;27.6;-8.8;0.06;0.45;-10.66;0.62;0.28;1.1
1753880849.997165;7.91;5.067;-0.384;-2.07;0.51;86.86;0.0;0.0;0.0;0.0;35.2;-22.9;27.4;-8.3;0.06;0.44;-10.66;0.69;0.3;0.94
1753880850.002165;7.91;5.067;-0.384;-2.07;0.51;86.86;0.0;0.0;0.0;0.0;34.8;-23.1;27.3;-10.4;0.06;0.44;-10.66;0.73;0.33;1.02
1753880850.0071652;7.91;5.067;-0.384;-2.07;0.52;86.86;0.0;0.0;0.0;0.0;32.8;-23.3;27.8;-4.5;0.06;0.45;-10.63;0.75;0.18;0.77
1753880850.0121653;7.91;5.067;-0.384;-2.07;0.51;86.86;0.0;0.0;0.0;0.0;33.9;-23.8;27.1;5.7;0.06;0.44;-10.65;0.78;0.22;0.87
1753880850.0171654;7.91;5.067;-0.384;-2.07;0.51;86.86;0.0;0.0;0.0;0.0;35.0;-23.8;27.4;-6.2;0.07;0.45;-10.67;0.74;0.3;1.09
1753880850.0221655;7.91;5.067;-0.384;-2.07;0.52;86.86;0.0;0.0;0.0;0.0;35.4;-24.0;27.7;-14.3;0.06;0.43;-10.65;0.69;0.25;0.91
1753880850.0271657;7.91;5.067;-0.384;-2.07;0.52;86.86;0.0;0.0;0.0;0.0;33.9;-23.1;27.5;-8.7;0.07;0.44;-10.65;0.63;0.26;0.93
1753880850.0321658;7.91;5.067;-0.384;-2.07;0.52;86.86;0.0;0.0;0.0;0.0;33.7;-23.5;27.4;-0.1;0.06;0.45;-10.65;0.72;0.25;0.95
1753880850.0371659;7.91;5.067;-0.384;-2.07;0.51;86.86;0.0;0.0;0.0;0.0;33.9;-23.8;27.4;6.9;0.08;0.44;-10.65;0.75;0.28;0.8
1753880850.042166;7.91;5.067;-0.384;-2.07;0.52;86.86;0.0;0.0;0.0;0.0;33.8;-24.0;28.0;-1.6;0.07;0.45;-10.67;0.75;0.25;0.89
1753880850.047166;7.91;5.067;-0.384;-2.07;0.52;86.86;0.0;0.0;0.0;0.0;32.0;-23.6;28.0;-2.1;0.07;0.46;-10.65;0.83;0.19;0.98
1753880850.0521662;7.91;5.067;-0.384;-2.07;0.52;86.86;0.0;0.0;0.0;0.0;32.3;-23.7;27.8;4.4;0.07;0.46;-10.66;0.8;0.24;0.91
1753880850.0571663;7.91;5.067;-0.384;-2.07;0.51;86.86;0.0;0.0;0.0;0.0;34.0;-23.6;27.7;5.1;0.07;0.45;-10.67;0.78;0.18;0.78
1753880850.0621665;7.91;5.067;-0.384;-2.07;0.52;86.86;0.0;0.0;0.0;0.0;31.1;-23.6;27.9;4.1;0.07;0.45;-10.66;0.79;0.01;0.75
1753880850.067164;7.91;5.067;-0.384;-2.07;0.52;86.86;0.0;0.0;0.0;0.0;32.0;-24.0;28.0;7.0;0.07;0.45;-10.66;0.74;0.21;0.83
1753880850.0721643;7.91;5.067;-0.384;-2.07;0.52;86.86;0.0;0.0;0.0;0.0;32.0;-24.0;28.0;7.0;0.06;0.44;-10.67;0.61;0.25;0.75
1753880850.0771642;7.91;5.067;-0.384;-2.07;0.52;86.86;0.0;0.0;0.0;0.0;32.0;-24.0;28.0;7.0;0.04;0.45;-10.67;0.64;0.34;0.58
1753880850.0821643;7.91;5.067;-0.384;-2.07;0.52;86.86;0.0;0.0;0.0;0.0;32.0;-24.0;28.0;7.0;0.04;0.46;-10.66;0.61;0.32;0.64
1753880850.0871644;7.91;5.067;-0.384;-2.07;0.52;86.86;0.0;0.0;0.0;0.0;31.2;-23.4;28.2;14.7;0.0;0.5;-10.67;0.61;0.23;0.5
1753880850.0921643;7.91;5.067;-0.384;-2.07;0.52;86.86;0.0;0.0;0.0;0.0;32.0;-24.0;28.0;7.0;0.0;0.49;-10.66;0.53;0.3;0.25
1753880850.0971642;7.91;5.067;-0.384;-2.07;0.52;86.86;0.0;0.0;0.0;0.0;32.0;-24.0;28.0;7.0;-0.01;0.49;-10.65;0.7;0.36;0.13
1753880850.1021643;7.91;5.067;-0.384;-2.07;0.52;86.86;0.0;0.0;0.0;0.0;32.0;-24.0;28.0;7.0;-0.02;0.51;-10.66;0.59;0.16;0.29
1753880850.1071644;7.91;5.067;-0.384;-2.07;0.52;86.86;0.0;0.0;0.0;0.0;32.0;-24.0;28.0;7.0;-0.04;0.49;-10.65;0.48;0.44;0.06
1753880850.1121643;7.91;5.067;-0.384;-2.07;0.52;86.86;0.0;0.0;0.0;0.0;32.0;-24.0;28.0;7.0;-0.08;0.49;-10.65;0.69;0.48;-0.05
1753880850.1171644;7.91;5.067;-0.384;-2.07;0.52;86.86;0.0;0.0;0.0;0.0;32.0;-24.0;28.0;7.0;-0.08;0.47;-10.69;0.48;0.0;1.77
1753880850.1221642;7.91;5.067;-0.384;-2.07;0.52;86.86;0.0;0.0;0.0;0.0;32.0;-24.0;28.0;7.0;-0.13;0.37;-10.72;0.42;-0.06;0.42
1753880850.1271644;7.91;5.067;-0.384;-2.07;0.52;86.86;0.0;0.0;0.0;0.0;32.0;-24.0;28.0;7.0;-0.28;0.33;-10.71;0.41;0.64;0.06
1753880850.1321642;7.91;5.067;-0.384;-2.07;0.52;86.86;0.0;0.0;0.0;0.0;32.0;-24.0;28.0;7.0;-0.22;0.35;-10.7;0.61;-0.29;1.27
1753880850.1371644;7.91;5.067;-0.384;-2.07;0.52;86.86;0.0;0.0;0.0;0.0;32.0;-24.0;28.0;7.0;-0.29;0.39;-10.72;0.54;-0.23;0.01
1753880850.1421642;7.91;5.067;-0.384;-2.07;0.52;86.86;0.0;0.0;0.0;0.0;32.0;-24.0;28.0;7.0;-0.5;0.44;-10.73;0.28;0.4;0.33
1753880850.1471643;7.91;5.067;-0.384;-2.07;0.52;86.86;0.0;0.0;0.0;0.0;32.0;-24.0;28.0;7.0;-0.5;0.48;-10.7;0.39;0.03;0.36
1753880850.1521642;7.91;5.067;-0.384;-2.07;0.52;86.86;0.0;0.0;0.0;0.0;32.0;-24.0;28.0;7.0;-0.51;0.49;-10.69;0.39;0.17;-0.96
1753880850.1571646;7.91;5.067;-0.384;-2.07;0.52;86.86;0.0;0.0;0.0;0.0;32.0;-24.0;28.0;7.0;-0.73;0.51;-10.71;0.41;0.51;-1.68
1753880850.162164;7.91;5.067;-0.384;-2.07;0.52;86.86;0.0;0.0;0.0;0.0;32.0;-24.0;28.0;7.0;-0.72;0.53;-10.6;0.38;-0.13;1.73
1753880850.1671646;7.91;5.067;-0.384;-2.07;0.52;86.86;0.0;0.0;0.0;0.0;32.0;-24.0;28.0;7.0;-0.76;0.46;-10.63;0.66;0.33;-2.4
1753880850.172164;7.91;5.067;-0.384;-2.07;0.52;86.86;0.0;0.0;0.0;0.0;32.0;-24.0;28.0;7.0;-1.04;0.48;-10.67;0.37;0.85;-1.57
1753880850.1771646;7.91;5.067;-0.384;-2.07;0.52;86.86;0.0;0.0;0.0;0.0;32.0;-24.0;28.0;7.0;-1.0;0.59;-10.56;0.48;0.06;1.23
1753880850.182164;7.91;5.067;-0.384;-2.07;0.52;86.86;0.0;0.0;0.0;0.0;32.0;-24.0;28.0;7.0;-0.9;0.54;-10.57;0.44;0.4;-1.31
1753880850.1871643;7.91;5.067;-0.384;-2.07;0.52;86.86;0.0;0.0;0.0;0.0;32.0;-24.0;28.0;7.0;-1.17;0.48;-10.61;0.37;0.71;-1.03
1753880850.192164;7.91;5.067;-0.384;-2.07;0.52;86.86;0.0;0.0;0.0;0.0;32.0;-24.0;28.0;7.0;-1.17;0.41;-10.57;0.54;0.24;0.46
1753880850.1971643;7.91;5.067;-0.384;-2.07;0.52;86.86;0.0;0.0;0.0;0.0;32.0;-24.0;28.0;7.0;-0.97;0.3;-10.53;0.56;0.07;0.33
1753880850.2021642;7.91;5.067;-0.384;-2.07;0.52;86.86;0.0;0.0;0.0;0.0;32.0;-24.0;28.0;7.0;-1.12;0.22;-10.61;0.51;0.73;-1.54
1753880850.2071643;7.91;5.067;-0.384;-2.07;0.52;86.86;0.0;0.0;0.0;0.0;32.0;-24.0;28.0;7.0;-1.16;0.24;-10.63;0.4;-0.07;1.13
1753880850.2121642;7.91;5.067;-0.384;-2.07;0.52;86.86;0.0;0.0;0.0;0.0;32.0;-24.0;28.0;7.0;-0.97;0.18;-10.59;0.43;-0.05;0.41
1753880850.2171643;7.91;5.067;-0.384;-2.07;0.52;86.86;0.0;0.0;0.0;0.0;32.0;-24.0;28.0;7.0;-1.05;0.14;-10.7;0.4;0.33;-0.96
1753880850.2221642;7.91;5.067;-0.384;-2.07;0.52;86.86;0.0;0.0;0.0;0.0;32.0;-24.0;28.0;7.0;-1.06;0.23;-10.67;0.28;0.19;0.7
1753880850.2271643;7.91;5.067;-0.384;-2.07;0.52;86.86;0.0;0.0;0.0;0.0;32.0;-24.0;28.0;7.0;-0.82;0.23;-10.59;0.5;0.1;0.66
1753880850.2321644;7.91;5.067;-0.384;-2.07;0.52;86.86;0.0;0.0;0.0;0.0;32.0;-24.0;28.0;7.0;-0.87;0.2;-10.64;0.55;0.4;-0.35
1753880850.2371643;7.91;5.067;-0.384;-2.07;0.52;86.86;0.0;0.0;0.0;0.0;32.0;-24.0;28.0;7.0;-0.86;0.31;-10.66;0.48;0.25;0.45
1753880850.2421644;7.91;5.067;-0.384;-2.07;0.52;86.86;0.0;0.0;0.0;0.0;32.0;-24.0;28.0;7.0;-0.65;0.36;-10.63;0.53;0.13;1.58
1753880850.2471642;7.91;5.067;-0.384;-2.07;0.52;86.86;0.0;0.0;0.0;0.0;32.0;-24.0;28.0;7.0;-0.62;0.3;-10.64;0.48;0.5;0.05
1753880850.2521644;7.91;5.067;-0.384;-2.07;0.52;86.86;0.0;0.0;0.0;0.0;32.0;-24.0;28.0;7.0;-0.63;0.35;-10.64;0.7;0.74;0.19
1753880850.2571642;7.91;5.067;-0.384;-2.07;0.52;86.86;0.0;0.0;0.0;0.0;32.0;-24.0;28.0;7.0;-0.46;0.41;-10.61;0.74;0.09;3.15
1753880850.2621644;7.91;5.067;-0.384;-2.07;0.52;86.86;0.0;0.0;0.0;0.0;32.0;-24.0;28.0;7.0;-0.43;0.3;-10.6;0.64;0.6;0.49
1753880850.2671642;7.91;5.067;-0.384;-2.07;0.52;86.86;0.0;0.0;0.0;0.0;32.0;-24.0;28.0;7.0;-0.39;0.35;-10.6;0.51;0.71;0.74
1753880850.2721643;7.91;5.067;-0.384;-2.07;0.52;86.86;0.0;0.0;0.0;0.0;32.0;-24.0;28.0;7.0;-0.31;0.41;-10.61;0.55;0.14;3.37
1753880850.2771642;7.91;5.067;-0.384;-2.07;0.52;86.86;0.0;0.0;0.0;0.0;32.0;-24.0;28.0;7.0;-0.25;0.37;-10.63;0.68;0.5;1.65
1753880850.2821646;7.91;5.067;-0.384;-2.07;0.52;86.86;0.0;0.0;0.0;0.0;32.0;-24.0;28.0;7.0;-0.21;0.36;-10.62;0.48;0.82;0.47
1753880850.287164;7.91;5.067;-0.384;-2.07;0.52;86.86;0.0;0.0;0.0;0.0;32.0;-24.0;28.0;7.0;-0.14;0.46;-10.64;0.46;-0.06;3.27
1753880850.2921646;7.91;5.067;-0.384;-2.07;0.52;86.86;0.0;0.0;0.0;0.0;32.0;-24.0;28.0;7.0;-0.11;0.45;-10.65;0.56;0.24;1.71
1753880850.297164;7.91;5.067;-0.384;-2.07;0.52;86.86;0.0;0.0;0.0;0.0;32.0;-24.0;28.0;7.0;-0.09;0.45;-10.66;0.57;0.77;-0.45
1753880850.3021646;7.91;5.067;-0.384;-2.07;0.52;86.86;0.0;0.0;0.0;0.0;32.0;-24.0;28.0;7.0;-0.02;0.6;-10.69;0.66;-0.15;2.76
1753880850.307164;7.91;5.067;-0.384;-2.07;0.52;86.86;0.0;0.0;0.0;0.0;32.0;-24.0;28.0;7.0;0.01;0.57;-10.7;0.39;0.07;0.92
1753880850.3121643;7.91;5.067;-0.384;-2.07;0.52;86.86;0.0;0.0;0.0;0.0;32.0;-24.0;28.0;7.0;0.0;0.54;-10.68;0.45;0.52;-0.98
1753880850.317164;7.91;5.067;-0.384;-2.07;0.52;86.86;0.0;0.0;0.0;0.0;32.0;-24.0;28.0;7.0;0.07;0.66;-10.66;0.47;-0.1;1.38
1753880850.3221643;7.91;5.067;-0.384;-2.07;0.52;86.86;0.0;0.0;0.0;0.0;32.0;-24.0;28.0;7.0;0.07;0.63;-10.68;0.5;-0.1;0.99
1753880850.3271642;7.91;5.067;-0.384;-2.07;0.52;86.86;0.0;0.0;0.0;0.0;32.0;-24.0;28.0;7.0;0.07;0.56;-10.7;0.49;0.35;-1.3
1753880850.3321643;7.91;5.067;-0.384;-2.07;0.52;86.86;0.0;0.0;0.0;0.0;32.0;-24.0;28.0;7.0;0.13;0.59;-10.7;0.48;0.0;0.22
1753880850.3371642;7.91;5.067;-0.384;-2.07;0.52;86.86;0.0;0.0;0.0;0.0;32.0;-24.0;28.0;7.0;0.19;0.61;-10.69;0.43;-0.23;1.19
1753880850.3421643;7.91;5.067;-0.384;-2.07;0.52;86.86;0.0;0.0;0.0;0.0;32.0;-24.0;28.0;7.0;0.16;0.5;-10.66;0.5;0.32;-0.84
1753880850.3471642;7.91;5.067;-0.384;-2.07;0.52;86.86;0.0;0.0;0.0;0.0;32.0;-24.0;28.0;7.0;0.21;0.53;-10.64;0.57;-0.03;0.31
1753880850.3521643;7.91;5.067;-0.384;-2.07;0.52;86.86;0.0;0.0;0.0;0.0;32.0;-24.0;28.0;7.0;0.27;0.54;-10.66;0.53;-0.47;1.38
1753880850.3571644;7.91;5.067;-0.384;-2.07;0.52;86.86;0.0;0.0;0.0;0.0;32.0;-24.0;28.0;7.0;0.22;0.41;-10.61;0.52;0.04;-0.12
1753880850.3621643;7.91;5.067;-0.384;-2.07;0.52;86.86;0.0;0.0;0.0;0.0;32.0;-24.0;28.0;7.0;0.24;0.45;-10.58;0.72;0.19;0.77
1753880850.3671644;7.91;5.067;-0.384;-2.07;0.52;86.86;0.0;0.0;0.0;0.0;32.0;-24.0;28.0;7.0;0.32;0.48;-10.65;0.75;-0.22;1.3
1753880850.3721642;7.91;5.067;-0.384;-2.07;0.52;86.86;0.0;0.0;0.0;0.0;32.0;-24.0;28.0;7.0;0.33;0.4;-10.67;0.54;0.06;0.79
1753880850.3771644;7.91;5.068;-0.384;-2.07;0.37;86.87;-776.7;50.7;-100.5;46.3;16.2;-25.5;48.0;16.6;0.35;0.39;-10.68;0.45;-0.16;2.06
1753880850.3821645;7.91;5.064;-0.384;-2.06;0.21;86.85;-16.4;149.8;-237.0;-356.5;29.0;-24.0;32.2;6.2;0.4;0.47;-10.7;0.76;0.37;3.37
1753880850.3871646;7.91;5.068;-0.384;-2.07;0.28;86.86;-332.0;-113.7;-99.6;-35.5;27.2;-22.6;16.1;12.3;-0.04;0.5;-10.62;0.76;0.05;2.26
1753880850.3921647;7.91;5.068;-0.384;-2.07;0.41;86.84;-447.0;-461.3;-261.8;-305.7;17.6;-20.0;24.9;-1.4;0.3;0.44;-10.72;0.82;-0.35;1.59
1753880850.3971648;7.91;5.058;-0.384;-2.07;-0.19;86.83;-377.5;-438.1;-565.8;-339.7;17.6;-20.9;83.6;-4.0;0.5;0.52;-10.65;0.79;-0.24;4.96
1753880850.402165;7.91;5.048;-0.384;-2.07;-0.17;86.83;-829.5;-701.6;-529.9;-78.9;18.1;-21.9;54.3;-6.5;0.31;0.32;-10.66;0.77;0.27;0.52
1753880850.407165;7.91;5.056;-0.384;-2.06;-0.01;86.81;-237.7;-557.9;-587.8;-443.5;18.3;-20.7;44.3;-9.2;0.34;0.37;-10.67;0.96;0.45;2.58
1753880850.4121652;7.91;5.058;-0.384;-2.07;-0.17;86.79;-1191.0;-531.9;-480.3;-614.7;8.1;-18.3;60.2;-13.4;0.46;0.4;-10.64;0.83;0.21;2.68
1753880850.4171653;7.91;5.046;-0.384;-2.06;0.33;86.77;-1051.7;-1255.1;-608.0;-534.3;19.8;-17.2;65.9;-19.1;0.63;0.45;-10.67;1.08;0.32;4.03
1753880850.4221654;7.91;5.055;-0.384;-2.06;-0.27;86.76;-878.7;-1056.8;-611.8;-742.3;12.5;-17.4;68.3;-15.8;0.25;0.41;-10.69;0.76;0.61;3.73
1753880850.4271655;7.91;5.034;-0.384;-2.06;-0.17;86.77;-962.4;-831.3;-1240.7;-774.4;9.5;-17.8;67.6;-22.6;0.21;0.43;-10.66;0.93;0.87;5.31
1753880850.432164;7.91;5.041;-0.384;-2.06;-0.3;86.76;-1133.0;-940.0;-886.0;-813.0;3.0;-17.0;82.0;-23.0;0.48;0.45;-10.67;1.02;0.67;4.49
1753880850.4371643;7.91;5.041;-0.384;-2.06;-0.3;86.76;-1133.0;-940.0;-886.0;-813.0;3.0;-17.0;82.0;-23.0;0.42;0.48;-10.69;0.7;0.61;2.91
1753880850.442164;7.91;5.041;-0.384;-2.06;-0.3;86.76;-1133.0;-940.0;-886.0;-813.0;3.0;-17.0;82.0;-23.0;0.44;0.63;-10.61;0.99;0.41;4.6
1753880850.4471643;7.91;5.041;-0.384;-2.06;-0.3;86.76;-1133.0;-940.0;-886.0;-813.0;3.0;-17.0;82.0;-23.0;0.44;0.69;-10.64;0.96;0.64;3.25
1753880850.4521642;7.91;5.041;-0.384;-2.06;-0.3;86.76;-1133.0;-940.0;-886.0;-813.0;3.0;-17.0;82.0;-23.0;0.41;0.76;-10.69;0.83;0.59;1.69
1753880850.4571643;7.91;5.041;-0.384;-2.06;-0.3;86.76;-1133.0;-940.0;-886.0;-813.0;3.0;-17.0;82.0;-23.0;0.42;0.9;-10.66;0.88;0.51;2.05
1753880850.4621642;7.91;5.041;-0.384;-2.06;-0.3;86.76;-1133.0;-940.0;-886.0;-813.0;3.0;-17.0;82.0;-23.0;0.42;0.98;-10.65;0.85;0.39;1.91
1753880850.4671643;7.91;5.041;-0.384;-2.06;-0.3;86.76;-1133.0;-940.0;-886.0;-813.0;3.0;-17.0;82.0;-23.0;0.43;1.0;-10.72;0.72;0.36;0.97
1753880850.4721642;7.91;5.041;-0.384;-2.06;-0.3;86.76;-1133.0;-940.0;-886.0;-813.0;3.0;-17.0;82.0;-23.0;0.4;1.03;-10.72;1.02;0.73;-0.94
1753880850.4771643;7.91;5.041;-0.384;-2.06;-0.3;86.76;-1133.0;-940.0;-886.0;-813.0;3.0;-17.0;82.0;-23.0;0.44;1.04;-10.68;0.84;0.14;1.54
1753880850.4821644;7.91;5.041;-0.384;-2.06;-0.3;86.76;-1133.0;-940.0;-886.0;-813.0;3.0;-17.0;82.0;-23.0;0.41;0.91;-10.72;0.72;0.43;-0.49
1753880850.4871643;7.91;5.041;-0.384;-2.06;-0.3;86.76;-1133.0;-940.0;-886.0;-813.0;3.0;-17.0;82.0;-23.0;0.43;0.88;-10.72;0.76;0.47;-1.2
1753880850.4921644;7.91;5.041;-0.384;-2.06;-0.3;86.76;-1133.0;-940.0;-886.0;-813.0;3.0;-17.0;82.0;-23.0;0.4;0.85;-10.7;0.68;0.08;0.41
1753880850.4971642;7.91;5.041;-0.384;-2.06;-0.3;86.76;-1133.0;-940.0;-886.0;-813.0;3.0;-17.0;82.0;-23.0;0.35;0.72;-10.7;0.8;0.16;-0.32
1753880850.5021644;7.91;5.041;-0.384;-2.06;-0.3;86.76;-1133.0;-940.0;-886.0;-813.0;3.0;-17.0;82.0;-23.0;0.31;0.66;-10.72;0.78;0.59;-1.64
1753880850.5071642;7.91;5.041;-0.384;-2.06;-0.3;86.76;-1133.0;-940.0;-886.0;-813.0;3.0;-17.0;82.0;-23.0;0.29;0.62;-10.7;0.61;0.02;-0.46
1753880850.5121644;7.91;5.041;-0.384;-2.06;-0.3;86.76;-1133.0;-940.0;-886.0;-813.0;3.0;-17.0;82.0;-23.0;0.24;0.54;-10.7;0.72;0.0;0.03
1753880850.5171642;7.91;5.041;-0.384;-2.06;-0.3;86.76;-1133.0;-940.0;-886.0;-813.0;3.0;-17.0;82.0;-23.0;0.15;0.45;-10.72;0.72;0.43;-2.64
1753880850.5221643;7.91;5.041;-0.384;-2.06;-0.3;86.76;-1133.0;-940.0;-886.0;-813.0;3.0;-17.0;82.0;-23.0;0.1;0.54;-10.72;0.93;0.06;-0.87
1753880850.5271642;7.91;5.041;-0.384;-2.06;-0.3;86.76;-1133.0;-940.0;-886.0;-813.0;3.0;-17.0;82.0;-23.0;0.03;0.61;-10.74;0.69;0.09;-1.94
1753880850.5321646;7.91;5.041;-0.384;-2.06;-0.3;86.76;-1133.0;-940.0;-886.0;-813.0;3.0;-17.0;82.0;-23.0;-0.02;0.63;-10.7;0.57;0.36;-2.38
1753880850.537164;7.91;5.041;-0.384;-2.06;-0.3;86.76;-1133.0;-940.0;-886.0;-813.0;3.0;-17.0;82.0;-23.0;-0.06;0.72;-10.63;0.52;-0.03;-1.16
1753880850.5421646;7.91;5.041;-0.384;-2.06;-0.3;86.76;-1133.0;-940.0;-886.0;-813.0;3.0;-17.0;82.0;-23.0;-0.13;0.68;-10.74;-0.33;-0.48;-3.02
1753880850.547164;7.91;5.041;-0.384;-2.06;-0.3;86.76;-1133.0;-940.0;-886.0;-813.0;3.0;-17.0;82.0;-23.0;-0.22;0.66;-10.82;-0.38;-0.46;-4.38
1753880850.5521646;7.91;5.041;-0.384;-2.06;-0.3;86.76;-1133.0;-940.0;-886.0;-813.0;3.0;-17.0;82.0;-23.0;-0.44;0.77;-10.81;0.06;-0.09;-2.17
1753880850.557164;7.91;5.041;-0.384;-2.06;-0.3;86.76;-1133.0;-940.0;-886.0;-813.0;3.0;-17.0;82.0;-23.0;-0.48;0.78;-10.69;0.58;-0.86;-0.48
1753880850.5621643;7.91;5.041;-0.384;-2.06;-0.3;86.76;-1133.0;-940.0;-886.0;-813.0;3.0;-17.0;82.0;-23.0;-0.72;0.53;-10.65;0.45;-0.2;-1.75
1753880850.567164;7.91;5.041;-0.384;-2.06;-0.3;86.76;-1133.0;-940.0;-886.0;-813.0;3.0;-17.0;82.0;-23.0;-0.86;0.35;-10.52;0.86;0.36;-3.28
1753880850.5721643;7.91;5.041;-0.384;-2.06;-0.3;86.76;-1133.0;-940.0;-886.0;-813.0;3.0;-17.0;82.0;-23.0;-1.04;0.26;-10.45;0.42;0.29;1.8
1753880850.5771642;7.91;5.041;-0.384;-2.06;-0.3;86.76;-1133.0;-940.0;-886.0;-813.0;3.0;-17.0;82.0;-23.0;-1.41;0.01;-10.61;0.42;0.75;1.47
1753880850.5821643;7.91;5.041;-0.384;-2.06;-0.3;86.76;-1133.0;-940.0;-886.0;-813.0;3.0;-17.0;82.0;-23.0;-1.41;-0.2;-10.59;0.83;0.33;-0.85
1753880850.5871642;7.91;5.041;-0.384;-2.06;-0.3;86.76;-1133.0;-940.0;-886.0;-813.0;3.0;-17.0;82.0;-23.0;-1.62;-0.29;-10.56;0.35;0.32;1.35
1753880850.5921643;7.91;5.041;-0.384;-2.06;-0.3;86.76;-1133.0;-940.0;-886.0;-813.0;3.0;-17.0;82.0;-23.0;-1.83;-0.32;-10.47;0.27;0.19;3.24
1753880850.5971642;7.91;5.041;-0.384;-2.06;-0.3;86.76;-1133.0;-940.0;-886.0;-813.0;3.0;-17.0;82.0;-23.0;-2.0;-0.37;-10.35;0.41;0.54;0.85
1753880850.6021643;7.91;5.041;-0.384;-2.06;-0.3;86.76;-1133.0;-940.0;-886.0;-813.0;3.0;-17.0;82.0;-23.0;-2.11;-0.35;-10.32;0.45;0.86;-0.1
1753880850.6071644;7.91;5.041;-0.384;-2.06;-0.3;86.76;-1133.0;-940.0;-886.0;-813.0;3.0;-17.0;82.0;-23.0;-2.1;-0.39;-10.45;0.1;0.09;3.32
1753880850.6121643;7.91;5.041;-0.384;-2.06;-0.3;86.76;-1133.0;-940.0;-886.0;-813.0;3.0;-17.0;82.0;-23.0;-2.21;-0.4;-10.5;0.32;0.41;0.77
1753880850.6171644;7.91;5.041;-0.384;-2.06;-0.3;86.76;-1133.0;-940.0;-886.0;-813.0;3.0;-17.0;82.0;-23.0;-2.14;-0.16;-10.43;0.43;0.86;0.24
1753880850.6221642;7.91;5.041;-0.384;-2.06;-0.3;86.76;-1133.0;-940.0;-886.0;-813.0;3.0;-17.0;82.0;-23.0;-2.09;0.0;-10.48;0.06;0.24;2.71
1753880850.6271644;7.91;5.041;-0.384;-2.06;-0.3;86.76;-1133.0;-940.0;-886.0;-813.0;3.0;-17.0;82.0;-23.0;-2.01;0.07;-10.52;-0.06;0.69;1.32
1753880850.6321642;7.91;5.041;-0.384;-2.06;-0.3;86.76;-1133.0;-940.0;-886.0;-813.0;3.0;-17.0;82.0;-23.0;-1.76;0.24;-10.44;-0.03;0.7;-1.23
1753880850.6371644;7.91;5.041;-0.384;-2.06;-0.3;86.76;-1133.0;-940.0;-886.0;-813.0;3.0;-17.0;82.0;-23.0;-1.82;0.4;-10.51;-1.06;0.24;2.6
1753880850.6421642;7.91;5.041;-0.384;-2.06;-0.3;86.76;-1133.0;-940.0;-886.0;-813.0;3.0;-17.0;82.0;-23.0;-1.64;0.37;-10.47;-1.19;0.91;0.4
1753880850.6471643;7.91;5.041;-0.384;-2.06;-0.3;86.76;-1133.0;-940.0;-886.0;-813.0;3.0;-17.0;82.0;-23.0;-1.45;0.43;-10.58;-0.35;1.11;-2.6
1753880850.6521642;7.91;5.041;-0.384;-2.06;-0.3;86.76;-1133.0;-940.0;-886.0;-813.0;3.0;-17.0;82.0;-23.0;-1.42;0.75;-10.81;0.33;-0.48;1.97
1753880850.6571646;7.91;5.041;-0.384;-2.06;-0.3;86.76;-1133.0;-940.0;-886.0;-813.0;3.0;-17.0;82.0;-23.0;-1.13;0.76;-10.75;0.28;-1.19;1.09
1753880850.662164;7.91;5.041;-0.384;-2.06;-0.3;86.76;-1133.0;-940.0;-886.0;-813.0;3.0;-17.0;82.0;-23.0;-0.99;0.61;-10.55;0.21;0.6;-2.73
1753880850.6671646;7.91;5.041;-0.384;-2.06;-0.3;86.76;-1133.0;-940.0;-886.0;-813.0;3.0;-17.0;82.0;-23.0;-0.94;0.72;-10.6;-0.2;0.44;-0.87
1753880850.672164;7.91;5.041;-0.384;-2.06;-0.3;86.76;-1133.0;-940.0;-886.0;-813.0;3.0;-17.0;82.0;-23.0;-0.82;0.81;-10.76;-0.13;-0.74;1.23
1753880850.6771646;7.91;5.041;-0.384;-2.06;-0.3;86.76;-1133.0;-940.0;-886.0;-813.0;3.0;-17.0;82.0;-23.0;-0.67;0.75;-10.86;0.19;-0.61;-2.53
1753880850.682164;7.91;5.041;-0.384;-2.06;-0.3;86.76;-1133.0;-940.0;-886.0;-813.0;3.0;-17.0;82.0;-23.0;-0.59;0.82;-10.8;0.77;0.06;-1.77
1753880850.6871643;7.91;5.041;-0.384;-2.06;-0.3;86.76;-1133.0;-940.0;-886.0;-813.0;3.0;-17.0;82.0;-23.0;-0.55;0.79;-10.71;0.48;0.8;0.74
1753880850.692164;7.91;5.041;-0.384;-2.06;-0.3;86.76;-1133.0;-940.0;-886.0;-813.0;3.0;-17.0;82.0;-23.0;-0.31;0.7;-10.77;0.69;0.81;-0.53
1753880850.6971643;7.91;5.041;-0.384;-2.06;-0.3;86.76;-1133.0;-940.0;-886.0;-813.0;3.0;-17.0;82.0;-23.0;-0.26;0.65;-11.01;0.77;0.37;-2.43
1753880850.7021644;7.91;5.041;-0.384;-2.06;-0.3;86.76;-1133.0;-940.0;-886.0;-813.0;3.0;-17.0;82.0;-23.0;-0.13;1.82;-10.99;1.0;0.62;-0.96
1753880850.7071645;7.91;5.041;-0.384;-2.06;-0.3;86.76;-1133.0;-940.0;-886.0;-813.0;3.0;-17.0;82.0;-23.0;1.41;0.11;-10.71;-0.28;0.64;-5.69
1753880850.7121646;7.91;5.041;-0.384;-2.06;-0.3;86.76;-1133.0;-940.0;-886.0;-813.0;3.0;-17.0;82.0;-23.0;-0.45;0.92;-11.07;0.76;0.97;-5.4
1753880850.7171648;7.91;5.041;-0.384;-2.06;-0.3;86.76;-1133.0;-940.0;-886.0;-813.0;3.0;-17.0;82.0;-23.0;-0.12;0.28;-11.11;0.25;0.48;-2.36
1753880850.7221649;7.91;5.041;-0.384;-2.06;-0.3;86.76;-1133.0;-940.0;-886.0;-813.0;3.0;-17.0;82.0;-23.0;-1.38;0.71;-10.54;1.6;0.59;-5.41
1753880850.727165;7.91;5.041;-0.384;-2.06;-0.3;86.76;-1133.0;-940.0;-886.0;-813.0;3.0;-17.0;82.0;-23.0;-0.32;1.22;-11.19;0.32;0.3;-8.09
1753880850.732165;7.91;5.041;-0.384;-2.06;-0.3;86.76;-1133.0;-940.0;-886.0;-813.0;3.0;-17.0;82.0;-23.0;-0.63;0.53;-11.39;1.06;0.77;-3.43
1753880850.7371652;7.91;5.041;-0.384;-2.06;-0.3;86.76;-1133.0;-940.0;-886.0;-813.0;3.0;-17.0;82.0;-23.0;0.73;1.14;-10.75;1.09;-0.07;-4.37
1753880850.7421653;7.91;5.041;-0.384;-2.06;-0.3;86.76;-1133.0;-940.0;-886.0;-813.0;3.0;-17.0;82.0;-23.0;-0.38;0.07;-10.95;-0.05;0.81;-0.11
1753880850.7471654;7.91;5.041;-0.384;-2.06;-0.3;86.76;-1133.0;-940.0;-886.0;-813.0;3.0;-17.0;82.0;-23.0;-0.61;1.03;-10.87;0.89;0.8;1.64
1753880850.7521656;7.91;5.041;-0.384;-2.06;-0.3;86.76;-1133.0;-940.0;-886.0;-813.0;3.0;-17.0;82.0;-23.0;-0.94;0.68;-11.07;1.12;0.52;-4.18
1753880850.7571657;7.91;5.041;-0.384;-2.06;-0.3;86.76;-1133.0;-940.0;-886.0;-813.0;3.0;-17.0;82.0;-23.0;0.44;1.41;-10.88;0.99;0.31;-2.23
1753880850.7621658;7.91;5.041;-0.384;-2.06;-0.3;86.76;-1133.0;-940.0;-886.0;-813.0;3.0;-17.0;82.0;-23.0;0.16;1.71;-10.66;0.8;0.79;-3.91
1753880850.767166;7.91;5.041;-0.384;-2.06;-0.3;86.76;-1133.0;-940.0;-886.0;-813.0;3.0;-17.0;82.0;-23.0;-1.18;0.41;-10.89;1.14;1.65;-7.11
1753880850.772166;7.91;5.041;-0.384;-2.06;-0.3;86.76;-1133.0;-940.0;-886.0;-813.0;3.0;-17.0;82.0;-23.0;0.85;0.52;-11.06;0.54;1.75;-1.15
1753880850.7771661;7.91;5.041;-0.384;-2.06;-0.3;86.76;-1133.0;-940.0;-886.0;-813.0;3.0;-17.0;82.0;-23.0;-0.77;1.44;-10.65;0.48;0.33;-4.2
1753880850.7821662;7.91;5.041;-0.384;-2.06;-0.3;86.76;-1133.0;-940.0;-886.0;-813.0;3.0;-17.0;82.0;-23.0;1.02;1.45;-10.98;-0.43;0.91;-1.63
1753880850.7871664;7.91;5.041;-0.384;-2.06;-0.3;86.76;-1133.0;-940.0;-886.0;-813.0;3.0;-17.0;82.0;-23.0;-0.93;1.02;-10.93;1.25;0.94;-3.16
1753880850.7921665;7.91;5.041;-0.384;-2.06;-0.3;86.76;-1133.0;-940.0;-886.0;-813.0;3.0;-17.0;82.0;-23.0;0.22;0.76;-10.99;-0.5;0.75;-2.39
1753880850.7971666;7.91;5.041;-0.384;-2.06;-0.3;86.76;-1133.0;-940.0;-886.0;-813.0;3.0;-17.0;82.0;-23.0;-0.35;0.58;-11.06;0.51;0.83;-2.4
1753880850.8021646;7.91;5.041;-0.384;-2.06;-0.3;86.76;-1133.0;-940.0;-886.0;-813.0;3.0;-17.0;82.0;-23.0;0.66;1.19;-10.79;0.39;0.86;-3.21
1753880850.807164;7.91;5.041;-0.384;-2.06;-0.3;86.76;-1133.0;-940.0;-886.0;-813.0;3.0;-17.0;82.0;-23.0;0.87;1.51;-10.68;-0.08;-0.42;2.26
1753880850.8121643;7.91;5.041;-0.384;-2.06;-0.3;86.76;-1133.0;-940.0;-886.0;-813.0;3.0;-17.0;82.0;-23.0;0.9;1.54;-10.79;0.25;-0.15;-0.09
1753880850.817164;7.91;5.041;-0.384;-2.06;-0.3;86.76;-1133.0;-940.0;-886.0;-813.0;3.0;-17.0;82.0;-23.0;0.82;1.55;-10.85;0.42;0.91;-4.41
1753880850.8221643;7.91;5.041;-0.384;-2.06;-0.3;86.76;-1133.0;-940.0;-886.0;-813.0;3.0;-17.0;82.0;-23.0;1.0;1.68;-10.6;0.27;-0.16;-0.15
1753880850.8271642;7.91;5.041;-0.384;-2.06;-0.3;86.76;-1133.0;-940.0;-886.0;-813.0;3.0;-17.0;82.0;-23.0;0.97;1.49;-10.45;0.12;-0.64;1.38
1753880850.8321643;7.91;5.041;-0.384;-2.06;-0.3;86.76;-1133.0;-940.0;-886.0;-813.0;3.0;-17.0;82.0;-23.0;0.84;1.28;-10.56;0.54;0.93;-5.23
1753880850.8371642;7.91;5.041;-0.384;-2.06;-0.3;86.76;-1133.0;-940.0;-886.0;-813.0;3.0;-17.0;82.0;-23.0;0.98;1.28;-10.51;0.15;0.23;-1.35
1753880850.8421643;7.91;5.041;-0.384;-2.06;-0.3;86.76;-1133.0;-940.0;-886.0;-813.0;3.0;-17.0;82.0;-23.0;0.97;1.15;-10.54;-0.12;-0.51;2.73
1753880850.8471642;7.91;5.041;-0.384;-2.06;-0.3;86.76;-1133.0;-940.0;-886.0;-813.0;3.0;-17.0;82.0;-23.0;0.71;0.83;-10.7;0.13;1.0;-4.11
1753880850.8521643;7.91;5.041;-0.384;-2.06;-0.3;86.76;-1133.0;-940.0;-886.0;-813.0;3.0;-17.0;82.0;-23.0;0.79;0.78;-10.56;-0.05;0.75;-2.86
1753880850.8571644;7.91;5.041;-0.384;-2.06;-0.3;86.76;-1133.0;-940.0;-886.0;-813.0;3.0;-17.0;82.0;-23.0;0.77;0.73;-10.52;-0.59;-0.45;2.5
1753880850.8621645;7.91;5.039;-0.384;-2.14;-0.32;86.76;-952.7;-1471.8;-1213.5;-975.7;2.2;-7.6;81.8;-48.1;1.59;0.86;-10.73;-0.68;-1.52;-2.65
1753880850.8671646;7.91;5.035;-0.384;-2.17;-0.27;86.77;-1393.0;-946.0;-658.3;-280.2;0.6;-17.1;92.7;-20.2;1.82;1.08;-10.53;-0.59;-0.98;3.01
1753880850.8721647;7.91;5.011;-0.384;-2.12;-0.3;86.76;-1306.1;-666.8;-1008.8;-441.3;3.2;-20.8;86.6;-11.4;0.08;1.38;-10.31;-0.5;-1.1;0.85
1753880850.8771648;7.91;4.992;-0.384;-2.21;-0.24;86.76;-1396.8;-1245.5;-1025.1;-1072.8;9.8;-18.8;74.5;-2.9;-0.06;0.61;-10.59;0.08;0.41;3.87
1753880850.882165;7.91;5.0;-0.384;-2.25;-0.31;86.76;-1203.1;-1452.8;-576.3;-784.4;7.4;-16.1;53.5;-32.2;0.35;0.65;-10.66;-0.65;-0.84;5.08
1753880850.887165;7.91;5.009;-0.385;-2.16;-0.24;86.76;-1400.8;-959.3;-1326.5;-1481.2;9.6;-27.9;77.3;-16.2;0.3;0.52;-10.65;-0.54;0.38;3.44
1753880850.8921652;7.91;5.038;-0.385;-2.1;-0.27;86.77;-1332.4;-1099.5;-842.6;-561.0;3.6;-27.3;67.0;-6.3;-0.12;1.01;-10.41;0.09;-0.27;1.91
1753880850.8971653;7.91;5.026;-0.384;-2.17;-0.26;86.76;-1075.3;-1000.8;-1170.0;-1540.7;5.8;-13.7;98.7;5.0;0.5;0.42;-10.58;0.09;-0.38;0.09
1753880850.9021654;7.91;5.004;-0.384;-2.27;-0.29;86.77;-1635.4;-1703.0;-1613.8;-808.7;12.9;-22.2;35.5;-6.3;0.71;0.64;-10.53;-0.44;0.61;3.98
1753880850.9071655;7.91;4.987;-0.384;-2.22;-0.23;86.76;-1521.1;-1594.2;-1404.3;-860.4;6.6;-25.5;27.6;-18.7;0.27;0.44;-10.52;-0.34;0.15;2.34
1753880850.9121656;7.91;5.025;-0.384;-2.24;-0.25;86.77;-1366.9;-1584.8;-975.9;-1871.6;9.3;-23.7;37.9;0.6;0.31;0.87;-10.67;-0.75;0.35;0.58
1753880850.9171658;7.91;4.999;-0.384;-2.36;-0.26;86.76;-1301.3;-1569.9;-1346.9;-1837.6;4.9;-24.9;37.5;-4.7;1.12;0.59;-10.57;-0.64;-0.01;1.13
1753880850.9221659;7.91;5.016;-0.384;-2.28;-0.17;86.77;-1507.9;-1209.6;-1058.5;-1663.0;15.9;-26.9;33.0;19.4;0.26;0.31;-10.43;0.21;-0.64;1.43
1753880850.927166;7.91;4.991;-0.384;-2.4;-0.24;86.77;-1686.8;-2016.6;-1750.8;-1561.3;18.4;-26.3;48.0;-1.7;-0.92;0.51;-10.71;-0.45;0.55;6.33
1753880850.932166;7.91;4.987;-0.385;-2.22;-0.17;86.77;-1685.1;-1430.3;-1817.4;-1882.4;15.3;-23.1;61.7;7.4;-0.42;0.78;-10.46;-0.4;0.22;3.74
1753880850.9371662;7.91;5.007;-0.384;-2.25;-0.2;86.77;-1638.6;-1369.7;-1717.4;-1763.5;15.0;-32.9;40.5;-7.1;0.78;0.72;-10.53;-0.05;0.77;3.34
1753880850.9421663;7.9;4.989;-0.384;-2.24;-0.12;86.77;-1688.2;-1701.5;-1714.8;-1735.6;16.2;-31.4;42.6;13.7;-0.63;0.75;-10.68;0.06;0.09;0.55
1753880850.9471664;7.91;4.999;-0.385;-2.42;-0.21;86.77;-1668.7;-2268.0;-1961.6;-1544.0;9.5;-30.5;15.7;-6.7;-0.11;0.13;-10.51;-0.11;1.08;-1.32
1753880850.9521666;7.91;4.995;-0.385;-2.24;-0.19;86.78;-1385.1;-1588.1;-1587.9;-1978.2;20.5;-27.4;23.0;13.3;0.18;0.79;-10.68;0.03;0.79;1.13
1753880850.9571667;7.91;4.985;-0.385;-2.32;-0.23;86.78;-1797.2;-2009.3;-1637.5;-2310.9;14.7;-29.1;14.1;3.9;0.42;0.15;-10.25;-0.17;1.25;4.46
1753880850.9621668;7.9;4.979;-0.385;-2.28;-0.17;86.78;-1696.6;-2204.3;-1698.3;-1966.5;17.4;-33.9;-13.4;13.6;1.64;0.71;-10.64;-0.69;-0.09;5.41
1753880850.967167;7.9;4.968;-0.385;-2.39;-0.19;86.77;-1763.9;-1777.6;-1534.8;-2128.1;10.3;-29.0;7.2;30.6;-0.41;0.9;-10.74;0.6;-0.07;-0.31
1753880850.972167;7.9;4.968;-0.385;-2.42;-0.16;86.77;-1780.2;-1903.4;-1877.5;-2329.9;20.9;-42.2;32.4;3.5;-0.45;0.86;-10.19;-0.24;0.46;1.62
1753880850.9771671;7.9;4.965;-0.385;-2.51;-0.22;86.78;-2024.3;-2070.0;-1837.5;-2805.4;8.2;-34.0;31.0;16.2;0.79;0.14;-10.58;-0.75;0.09;1.59
1753880850.9821672;7.9;4.986;-0.385;-2.41;-0.13;86.78;-2183.9;-2347.6;-2115.2;-2467.5;20.0;-33.4;34.0;36.4;-0.72;0.84;-10.64;0.6;0.25;1.12
1753880850.9871674;7.9;4.968;-0.385;-2.51;-0.12;86.78;-1960.6;-1970.0;-1297.2;-2212.6;17.8;-39.8;-15.4;20.9;-0.69;0.71;-10.64;0.4;0.88;3.39
1753880850.9921675;7.91;4.967;-0.385;-2.34;-0.09;86.77;-2125.2;-1961.5;-2833.4;-2126.0;10.5;-39.9;-2.1;25.7;-0.88;1.34;-10.44;0.07;1.12;6.85
1753880850.9971676;7.9;4.988;-0.385;-2.56;-0.16;86.78;-2273.4;-2666.7;-2624.2;-2179.0;22.2;-41.4;37.9;24.7;0.23;0.78;-10.56;0.41;2.15;-2.22
1753880851.0021644;7.9;4.958;-0.385;-2.47;-0.12;86.78;-2113.0;-2203.0;-1986.0;-2406.0;19.0;-38.0;-3.0;29.0;-0.21;0.55;-10.54;0.33;0.69;1.46
1753880851.0071642;7.9;4.958;-0.385;-2.47;-0.12;86.78;-2113.0;-2203.0;-1986.0;-2406.0;19.0;-38.0;-3.0;29.0;-0.34;0.5;-10.59;0.83;0.27;-0.03
1753880851.0121644;7.9;4.958;-0.385;-2.47;-0.12;86.78;-2113.0;-2203.0;-1986.0;-2406.0;19.0;-38.0;-3.0;29.0;-0.47;0.5;-10.58;1.21;0.8;-3.87
1753880851.0171642;7.9;4.958;-0.385;-2.47;-0.12;86.78;-2113.0;-2203.0;-1986.0;-2406.0;19.0;-38.0;-3.0;29.0;-0.38;0.7;-10.46;0.86;0.29;-0.54
1753880851.0221643;7.9;4.958;-0.385;-2.47;-0.12;86.78;-2113.0;-2203.0;-1986.0;-2406.0;19.0;-38.0;-3.0;29.0;-0.46;0.6;-10.38;0.14;0.67;-0.13
1753880851.0271642;7.9;4.958;-0.385;-2.47;-0.12;86.78;-2113.0;-2203.0;-1986.0;-2406.0;19.0;-38.0;-3.0;29.0;-0.62;0.37;-10.34;-0.17;2.34;-2.4
1753880851.0321646;7.9;4.958;-0.385;-2.47;-0.12;86.78;-2113.0;-2203.0;-1986.0;-2406.0;19.0;-38.0;-3.0;29.0;-0.61;0.44;-10.25;0.07;2.49;-1.93
1753880851.037164;7.9;4.958;-0.385;-2.47;-0.12;86.78;-2113.0;-2203.0;-1986.0;-2406.0;19.0;-38.0;-3.0;29.0;-0.52;0.39;-10.21;0.4;1.15;2.27
1753880851.042164;7.9;4.929;-0.386;-2.35;-0.03;86.76;-2195.5;-1495.8;-1985.6;-1698.5;28.3;-25.0;55.9;54.8;-0.76;0.23;-10.35;0.31;0.84;-3.39
1753880851.0471642;7.9;4.912;-0.384;-2.92;-0.18;86.77;-3256.5;-3572.8;-906.7;-2299.9;-28.2;-31.3;70.8;19.1;-0.3;0.39;-10.3;0.65;1.26;-0.17
1753880851.0521643;7.9;4.904;-0.385;-2.55;-0.2;86.79;-2556.0;-2423.8;-1658.0;-4141.2;32.2;-14.8;-8.4;-7.0;0.54;0.85;-10.22;0.53;2.45;3.16
1753880851.0571644;7.9;4.939;-0.385;-2.44;-0.1;86.77;-2744.7;-2913.1;-2319.5;-2981.7;63.0;-26.7;-55.5;5.1;-0.65;-0.51;-10.25;-0.09;1.05;7.12
1753880851.0621645;7.9;4.911;-0.385;-2.83;-0.23;86.78;-1199.9;-2604.4;-2324.0;-4158.1;-29.4;-30.0;-24.5;-16.3;-0.02;-0.14;-10.3;0.06;0.23;0.66
1753880851.0671647;7.9;4.967;-0.385;-2.2;-0.13;86.78;-1871.1;-2574.2;-2428.0;-1844.4;57.5;-26.8;-19.9;-7.2;-0.3;-0.14;-10.17;-0.36;3.24;4.61
1753880851.0721648;7.9;4.996;-0.384;-2.34;0.02;86.77;-1926.3;-2391.5;-1410.5;-3355.7;-30.1;-40.9;-42.2;85.1;-0.67;-0.18;-10.19;0.72;-0.16;0.77
1753880851.077165;7.91;4.967;-0.386;-1.78;-0.08;86.79;-1668.1;-2624.2;-2716.5;-3009.7;-47.7;-30.3;-10.5;54.5;-0.33;0.42;-10.29;0.12;1.1;-0.96
1753880851.082165;7.9;5.048;-0.385;-2.28;-0.25;86.76;-1943.9;-1619.4;-1803.4;-2783.5;-55.8;-29.0;14.0;-61.4;-0.86;0.41;-10.19;0.7;1.66;3.24
1753880851.087165;7.91;4.96;-0.385;-2.35;-0.08;86.77;-2756.1;-2291.2;-3254.1;-3920.3;-33.6;-35.4;-133.9;23.7;0.2;0.94;-10.81;0.38;2.33;5.32
1753880851.0921652;7.9;4.915;-0.384;-2.29;0.1;86.76;-2242.9;-3357.2;-1969.9;-1877.4;-0.1;-1.6;-2.6;-62.3;-0.41;0.29;-10.64;0.08;2.05;1.26
1753880851.0971653;7.9;4.945;-0.385;-2.25;0.0;86.78;-2708.3;-2444.4;-2125.5;-1653.9;-61.9;-3.5;12.1;2.3;0.37;1.49;-10.45;-0.03;0.04;4.55
1753880851.1021655;7.9;4.969;-0.384;-2.38;0.03;86.77;-2880.0;-2523.9;-1537.8;-2162.8;-53.0;-9.7;-14.1;20.2;-0.41;0.92;-10.42;0.29;1.49;3.15
1753880851.1071656;7.9;4.881;-0.385;-2.33;0.03;86.77;-2281.7;-2166.4;-2161.8;-2670.2;-19.3;-6.7;-33.4;-25.8;-0.67;0.09;-10.41;0.32;0.35;0.15
1753880851.1121657;7.91;4.888;-0.386;-1.99;-0.1;86.76;-2448.6;-1363.6;-2123.0;-2018.2;-68.1;-20.5;22.0;-23.7;0.04;-0.75;-10.43;0.34;1.55;8.41
1753880851.1171658;7.9;5.0;-0.386;-2.58;-0.03;86.79;-2465.3;-1961.0;-2266.7;-1214.9;6.6;-2.2;-13.6;-12.0;0.63;0.93;-10.15;0.48;1.46;2.02
1753880851.122166;7.91;5.022;-0.384;-2.11;-0.04;86.79;-2489.5;-2045.4;-1661.5;-643.0;-22.4;-14.4;-33.2;-29.2;-1.02;0.1;-10.45;0.19;2.08;2.25
1753880851.127166;7.9;4.814;-0.385;-2.22;-0.09;86.76;-2764.9;-2294.0;-2208.2;-2210.2;-85.8;2.6;-28.8;-30.6;-0.82;0.68;-10.27;0.1;1.03;2.12
1753880851.1321661;7.9;4.835;-0.386;-2.34;-0.08;86.77;-2924.9;-2405.9;-2863.7;-2680.1;-97.1;-16.1;10.1;-84.4;-0.17;0.46;-10.56;0.18;0.92;1.76
1753880851.1371663;7.91;4.897;-0.386;-2.08;-0.19;86.76;-1976.1;-2300.7;-1371.0;-762.5;-43.6;-9.3;11.9;-66.5;0.08;0.61;-10.67;-0.32;2.37;4.0
1753880851.1421664;7.91;4.925;-0.385;-2.3;-0.07;86.77;-1517.9;-3095.2;-1248.1;-2343.8;-40.7;-21.2;-38.1;-54.5;-0.2;0.3;-10.37;-0.37;-0.67;4.44
1753880851.1471665;7.9;4.858;-0.386;-2.17;-0.14;86.78;-2500.5;-2661.8;-3862.5;-3977.3;-45.9;5.5;-31.8;-85.9;1.18;0.98;-10.32;-0.32;-0.72;2.2
1753880851.1521666;7.9;4.972;-0.384;-2.33;-0.06;86.75;-2323.3;-2019.7;-2529.8;-2282.1;-85.1;1.9;-18.9;-10.1;-1.09;0.24;-10.33;0.04;0.62;0.48
1753880851.1571667;7.9;4.941;-0.385;-2.2;-0.02;86.75;-1713.9;-2781.5;-2643.9;-1516.5;-83.4;-24.4;-39.8;-69.4;-0.92;0.33;-10.55;0.25;0.14;-0.94
1753880851.1621668;7.9;4.907;-0.386;-2.46;-0.15;86.76;-2967.9;-1487.7;-1778.8;-2241.9;-85.9;-8.1;76.4;-86.1;-0.61;0.64;-10.4;0.11;-0.79;0.7
1753880851.167167;7.9;4.943;-0.386;-1.94;-0.15;86.74;-2414.8;-1735.3;-2209.8;-3386.9;-60.4;-2.4;10.9;-81.3;0.97;0.63;-10.34;-0.51;1.83;0.49
1753880851.172167;7.9;4.962;-0.385;-1.98;-0.12;86.76;-2761.4;-3569.0;-2218.9;-2732.5;-105.4;1.7;-52.7;-47.1;0.6;0.99;-10.38;0.33;0.56;1.08
1753880851.1771672;7.91;4.909;-0.385;-1.87;-0.07;86.76;-2012.4;-2546.0;-3560.3;-1247.3;-111.7;-19.9;48.5;-75.6;-0.41;0.5;-10.76;-0.15;1.12;2.29
1753880851.1821673;7.9;4.846;-0.386;-1.84;-0.23;86.76;-2170.0;-2557.0;-1868.1;-2789.9;-64.2;-4.1;30.3;-57.5;-0.21;0.64;-10.33;-0.07;1.08;1.77
1753880851.1871674;7.91;4.914;-0.386;-2.06;0.1;86.77;-2236.5;-2540.8;-2099.6;-2595.7;-91.2;-3.2;6.4;-86.5;-0.17;0.27;-10.61;-0.29;-0.62;1.6
1753880851.1921675;7.9;4.947;-0.386;-2.02;-0.08;86.77;-1721.6;-2180.0;-1537.1;-2005.8;-125.5;-9.6;-0.7;-36.6;0.2;0.83;-10.5;-0.8;0.26;1.29
1753880851.1971643;7.9;4.917;-0.385;-1.91;-0.09;86.76;-2270.0;-2443.0;-2343.0;-2240.0;-109.0;0.0;0.0;-96.0;0.07;0.67;-10.59;-0.28;0.16;1.1
1753880851.2021642;7.9;4.917;-0.385;-1.91;-0.09;86.76;-2270.0;-2443.0;-2343.0;-2240.0;-109.0;0.0;0.0;-96.0;-0.02;0.51;-10.56;-0.56;0.43;2.5
1753880851.2071643;7.9;4.917;-0.385;-1.91;-0.09;86.76;-2270.0;-2443.0;-2343.0;-2240.0;-109.0;0.0;0.0;-96.0;-0.16;0.28;-10.64;-0.17;1.18;-1.06
1753880851.2121642;7.9;4.917;-0.385;-1.91;-0.09;86.76;-2270.0;-2443.0;-2343.0;-2240.0;-109.0;0.0;0.0;-96.0;-0.07;0.3;-10.77;-0.46;-0.14;2.99
1753880851.2171643;7.9;4.917;-0.385;-1.91;-0.09;86.76;-2270.0;-2443.0;-2343.0;-2240.0;-109.0;0.0;0.0;-96.0;-0.06;0.18;-10.87;-0.04;-1.31;4.69
1753880851.2221642;7.9;4.917;-0.385;-1.91;-0.09;86.76;-2270.0;-2443.0;-2343.0;-2240.0;-109.0;0.0;0.0;-96.0;-0.24;-0.08;-10.86;0.97;-0.11;1.81
1753880851.2271643;7.9;4.917;-0.385;-1.91;-0.09;86.76;-2270.0;-2443.0;-2343.0;-2240.0;-109.0;0.0;0.0;-96.0;-0.15;-0.18;-10.75;0.49;-0.99;5.47
1753880851.2321644;7.9;4.917;-0.385;-1.91;-0.09;86.76;-2270.0;-2443.0;-2343.0;-2240.0;-109.0;0.0;0.0;-96.0;-0.19;-0.26;-10.67;0.61;-1.14;9.02
1753880851.2371645;7.9;4.869;-0.385;-1.9;-0.13;86.97;-2127.0;-2599.1;-2809.2;-1887.2;-45.7;13.9;19.1;-44.7;-0.82;-0.28;-10.96;0.31;-1.01;10.21
1753880851.2421646;7.9;4.908;-0.385;-2.45;-0.07;86.64;-3427.5;-2473.8;-3128.2;-1578.0;-79.3;-25.4;-4.1;-157.6;0.24;0.39;-10.85;0.04;-0.8;9.29
1753880851.2471647;7.91;4.923;-0.385;-2.14;-0.08;86.92;-2461.5;-2298.5;-2050.9;-2469.3;-107.7;25.5;-1.1;-56.4;-0.61;-0.44;-10.74;0.45;0.08;1.64
1753880851.2521648;7.9;4.883;-0.386;-2.06;-0.13;87.03;-4152.6;-2815.6;-1572.1;-3012.6;-212.3;-24.1;-50.1;-95.4;-0.21;-0.34;-10.92;0.87;-0.95;2.36
1753880851.257165;7.9;4.897;-0.385;-1.9;-0.16;86.93;-2086.6;-2106.0;-1382.8;-2670.0;-109.7;-22.0;-18.3;-78.0;-1.5;-0.57;-10.68;0.98;-0.97;4.84
1753880851.262165;7.9;4.829;-0.385;-2.09;-0.1;86.81;-2312.8;-2821.5;-2309.5;-1379.2;-50.9;-26.0;33.2;-119.7;0.38;-0.07;-10.45;0.14;-1.62;8.27
1753880851.2671652;7.9;4.986;-0.385;-1.99;-0.17;86.9;-3069.0;-2956.6;-2488.4;-939.9;-35.1;-20.2;23.8;-28.7;0.09;0.13;-10.49;0.43;-1.05;9.51
1753880851.2721653;7.9;4.909;-0.385;-1.9;-0.04;86.76;-1872.4;-3614.7;-2501.3;-992.3;-89.2;-24.5;-14.2;-51.8;0.04;-0.05;-10.57;0.57;-1.31;12.79
1753880851.2771654;7.9;4.932;-0.385;-1.88;-0.07;86.75;-2673.4;-4547.5;-1523.2;-1311.3;-110.2;25.0;55.4;-25.9;-0.28;-0.02;-10.5;-0.25;-2.19;11.68
1753880851.2821655;7.91;4.876;-0.386;-2.21;-0.05;86.87;-2492.9;-4268.9;-1706.2;-960.1;-93.1;-3.6;-2.2;10.3;-0.05;0.65;-10.52;0.37;-1.58;0.07
1753880851.2871656;7.9;4.931;-0.385;-1.58;-0.02;86.88;-2912.9;-1712.0;-2277.3;-1306.5;-126.8;-28.8;28.6;-45.4;0.72;0.44;-10.82;-0.27;0.47;12.28
1753880851.2921658;7.9;4.971;-0.385;-1.8;-0.23;87.19;-3377.9;-2784.5;-1421.2;-1228.7;-114.2;-96.0;74.2;-64.7;-0.58;0.36;-10.54;0.97;-0.39;4.14
1753880851.2971659;7.9;4.892;-0.385;-2.17;0.04;87.03;-3493.3;-1993.0;-2092.3;-2112.5;-29.6;-42.1;33.2;-62.9;0.67;-0.22;-10.33;1.23;-1.38;9.47
1753880851.302166;7.9;4.893;-0.385;-1.89;-0.15;86.9;-2838.2;-4211.6;-1619.8;-1220.5;-46.7;-90.3;7.9;-99.6;0.45;0.83;-10.42;0.6;-0.54;6.35
