sep=,
PacketCounter,SampleTimeFine,Euler_X,Euler_Y,Euler_Z,Acc_X,Acc_Y,Acc_Z,Gyr_X,Gyr_Y,Gyr_Z,
0, 1584814578, -89.51860046386719, -21.538663864135742, -30.7709903717041, 0, 0, 0, 0, 0, 0, 
1, 1584822911, -89.52132415771484, -21.534881591796875, -30.77328872680664, 3.2723143100738525, -8.861282348632812, 0.8937575817108154, 1.1165755987167358, 1.3322476148605347, 1.0069468021392822, 
2, 1584831244, -89.52344512939453, -21.53693962097168, -30.774431228637695, 3.044593334197998, -9.21086597442627, -1.2560536861419678, 1.2127059698104858, 1.2583248615264893, 0.26713088154792786, 
3, 1584839577, -89.52599334716797, -21.54530906677246, -30.764347076416016, 3.493520736694336, -9.33849811553955, 0.443245530128479, 1.6581374406814575, -0.0008836910710670054, -0.4793575704097748, 
4, 1584847910, -89.52767181396484, -21.548500061035156, -30.759422302246094, 4.141131401062012, -9.098044395446777, -0.37468022108078003, 1.4846010208129883, 0.7038791179656982, 0.1744329333305359, 
5, 1584856243, -89.52011108398438, -21.5418643951416, -30.76839828491211, 4.075502872467041, -8.734350204467773, 0.9232355952262878, 2.0299534797668457, 2.1400692462921143, 1.3029704093933105, 
6, 1584864576, -89.52272033691406, -21.53529930114746, -30.771713256835938, 3.5053977966308594, -8.86658763885498, 0.40430381894111633, 1.1081743240356445, 1.3820160627365112, 1.3384462594985962, 
7, 1584872909, -89.52326965332031, -21.53296661376953, -30.778568267822266, 3.0967600345611572, -9.12436580657959, -0.6054918766021729, 1.1027183532714844, 2.01724910736084, 0.8278008103370667, 
8, 1584881242, -89.52978515625, -21.541160583496094, -30.764856338500977, 3.197979211807251, -9.345059394836426, -0.07006221264600754, 1.338804841041565, -0.40702298283576965, -0.4561766982078552, 
9, 1584889575, -89.52605438232422, -21.54783821105957, -30.765193939208984, 3.898979902267456, -9.076889991760254, -0.4514724314212799, 1.9512667655944824, 1.1638339757919312, -0.28617507219314575, 
10, 1584897908, -89.52184295654297, -21.54558753967285, -30.766441345214844, 4.162489891052246, -8.864672660827637, 1.0295484066009521, 1.9918910264968872, 1.2156516313552856, 0.823215901851654, 
11, 1584906241, -89.52006530761719, -21.53814125061035, -30.769996643066406, 3.8814048767089844, -8.696553230285645, 0.09476326406002045, 1.575147271156311, 1.5361113548278809, 1.4044541120529175, 
12, 1584914574, -89.52307891845703, -21.534391403198242, -30.776826858520508, 3.2054455280303955, -8.960915565490723, 0.6238295435905457, 0.8301317095756531, 1.9619479179382324, 0.9972902536392212, 
13, 1584922907, -89.52806854248047, -21.53801727294922, -30.770559310913086, 3.0992767810821533, -9.150174140930176, -1.0616750717163086, 1.2411633729934692, 0.307268351316452, 0.1264062523841858, 
14, 1584931240, -89.52626037597656, -21.546091079711914, -30.765832901000977, 3.5535969734191895, -9.31586742401123, 0.04932817071676254, 1.9431854486465454, 0.5969012975692749, -0.45014452934265137, 
15, 1584939573, -89.52690124511719, -21.546340942382812, -30.76001739501953, 4.139811992645264, -9.016629219055176, 0.2346569448709488, 1.6997092962265015, 0.48234161734580994, 0.49146029353141785, 
16, 1584947906, -89.52032470703125, -21.540435791015625, -30.76759910583496, 4.033931732177734, -8.686993598937988, 0.4101257622241974, 1.9884331226348877, 1.9422507286071777, 1.253688931465149, 
17, 1584956239, -89.5236587524414, -21.53557586669922, -30.76849937438965, 3.3804304599761963, -8.792518615722656, 0.9149594306945801, 1.0774372816085815, 1.2390886545181274, 1.0991837978363037, 
18, 1584964572, -89.5246810913086, -21.535463333129883, -30.772489547729492, 3.0648112297058105, -9.196706771850586, -1.18529212474823, 1.221030592918396, 1.5725091695785522, 0.5637180209159851, 
19, 1584972905, -89.52937316894531, -21.543678283691406, -30.761144638061523, 3.3995602130889893, -9.381505966186523, 0.3317919075489044, 1.4491509199142456, -0.12675203382968903, -0.4216231405735016, 
20, 1584981238, -89.5285873413086, -21.54694175720215, -30.759822845458984, 4.091507434844971, -9.098567962646484, -0.5717414617538452, 1.671520709991455, 0.9815759062767029, 0.12449797987937927, 
21, 1584989571, -89.5234146118164, -21.539756774902344, -30.76618194580078, 4.115250110626221, -8.749490737915039, 0.9168827533721924, 1.858184814453125, 1.849168300628662, 1.3722058534622192, 
22, 1584997904, -89.52404022216797, -21.533504486083984, -30.772106170654297, 3.5769550800323486, -8.833650588989258, 0.34985649585723877, 1.3019717931747437, 1.4967423677444458, 1.3013826608657837, 
23, 1585006237, -89.52269744873047, -21.530603408813477, -30.781200408935547, 3.042327880859375, -9.091238021850586, -0.39694756269454956, 1.2787138223648071, 2.1501359939575195, 0.8549519181251526, 
24, 1585014570, -89.52863311767578, -21.53793716430664, -30.7657470703125, 3.1817920207977295, -9.257731437683105, -0.14388659596443176, 1.4327067136764526, -0.4636560380458832, -0.3120710551738739, 
25, 1585022903, -89.52493286132812, -21.544757843017578, -30.76567268371582, 3.890092372894287, -9.12086009979248, -0.37960341572761536, 1.969862699508667, 1.1035892963409424, -0.2668618857860565, 
26, 1585031236, -89.52191925048828, -21.54074478149414, -30.765531539916992, 4.257107734680176, -8.907217025756836, 0.9490509033203125, 1.8881020545959473, 1.1211093664169312, 0.998340368270874, 
27, 1585039569, -89.52128601074219, -21.532978057861328, -30.769405364990234, 3.841381549835205, -8.752288818359375, 0.03378305211663246, 1.4237672090530396, 1.5729702711105347, 1.443131685256958, 
28, 1585047902, -89.52434539794922, -21.529293060302734, -30.775056838989258, 3.1401772499084473, -8.953622817993164, 0.6626341938972473, 0.8401468992233276, 1.9229885339736938, 0.9908097982406616, 
29, 1585056235, -89.5290756225586, -21.53293228149414, -30.766939163208008, 3.0017335414886475, -9.22839069366455, -1.1625515222549438, 1.3095277547836304, 0.2213325947523117, 0.08606383204460144, 
30, 1585064568, -89.52789306640625, -21.541950225830078, -30.760549545288086, 3.6023619174957275, -9.288705825805664, 0.1455688625574112, 1.935104250907898, 0.4163593351840973, -0.5232602953910828, 
31, 1585072901, -89.52890014648438, -21.543115615844727, -30.755918502807617, 4.2114362716674805, -9.05073356628418, 0.08657293766736984, 1.6591620445251465, 0.4605439305305481, 0.41976606845855713, 
32, 1585081234, -89.52113342285156, -21.535886764526367, -30.761310577392578, 4.057088375091553, -8.63090705871582, 0.5508841872215271, 2.2138898372650146, 1.7420240640640259, 1.3768162727355957, 
33, 1585089567, -89.5245132446289, -21.530616760253906, -30.761878967285156, 3.341432571411133, -8.84253215789795, 0.9770578145980835, 1.0874779224395752, 1.2009233236312866, 1.147440791130066, 
34, 1585097900, -89.52515411376953, -21.530651092529297, -30.7670955657959, 3.1090924739837646, -9.206611633300781, -1.1567076444625854, 1.2169067859649658, 1.694074273109436, 0.545583188533783, 
35, 1585106233, -89.52894592285156, -21.53958511352539, -30.754751205444336, 3.343777894973755, -9.412887573242188, 0.323129266500473, 1.6064735651016235, -0.2547976076602936, -0.5439823269844055, 
36, 1585114566, -89.5272445678711, -21.544288635253906, -30.75422477722168, 3.977055788040161, -9.113117218017578, -0.6228117942810059, 1.742254614830017, 1.0682928562164307, -0.010950084775686264, 
37, 1585122899, -89.52095794677734, -21.53990936279297, -30.759719848632812, 4.077091217041016, -8.74980354309082, 0.9758815169334412, 2.029287815093994, 1.7604150772094727, 1.0738511085510254, 
38, 1585131232, -89.52183532714844, -21.534753799438477, -30.763072967529297, 3.680962562561035, -8.762518882751465, 0.225597083568573, 1.2610912322998047, 1.514134168624878, 1.131534457206726, 
39, 1585139565, -89.5224838256836, -21.531536102294922, -30.77170753479004, 3.1187546253204346, -9.057537078857422, -0.06729186326265335, 1.0624529123306274, 2.099240303039551, 0.8930403590202332, 
40, 1585147898, -89.52916717529297, -21.539043426513672, -30.752561569213867, 3.145055055618286, -9.26196575164795, -0.44082972407341003, 1.3060697317123413, -0.36957496404647827, -0.3350469768047333, 
41, 1585156231, -89.52440643310547, -21.545520782470703, -30.7532958984375, 3.8238539695739746, -9.204719543457031, -0.17960435152053833, 2.0563364028930664, 1.205918312072754, -0.262174516916275, 
42, 1585164564, -89.52218627929688, -21.54345703125, -30.751657485961914, 4.203225612640381, -8.960034370422363, 0.8618311285972595, 1.8433794975280762, 0.9880690574645996, 0.8038257956504822, 
43, 1585172897, -89.51956939697266, -21.536840438842773, -30.75531005859375, 3.8822648525238037, -8.725427627563477, -0.0019451670814305544, 1.6907187700271606, 1.4869575500488281, 1.3436203002929688, 
44, 1585181230, -89.52289581298828, -21.533817291259766, -30.758630752563477, 3.153085470199585, -8.927289962768555, 0.637913167476654, 0.9715223908424377, 1.5070648193359375, 0.8761349320411682, 
45, 1585189563, -89.5263671875, -21.53742790222168, -30.752445220947266, 3.046552896499634, -9.106554985046387, -1.025231122970581, 1.3774054050445557, 0.4380802512168884, 0.08688349276781082, 
46, 1585197896, -89.524169921875, -21.54666519165039, -30.74672508239746, 3.6588990688323975, -9.300346374511719, 0.14926667511463165, 2.040071487426758, 0.4624394178390503, -0.5490026473999023, 
47, 1585206229, -89.52497863769531, -21.54652214050293, -30.741535186767578, 4.229119300842285, -9.008017539978027, 0.14766435325145721, 1.6504274606704712, 0.5539846420288086, 0.5363108515739441, 
48, 1585214562, -89.51824188232422, -21.539974212646484, -30.748289108276367, 4.001065254211426, -8.7130765914917, 0.49846524000167847, 1.9962962865829468, 1.9655336141586304, 1.3331953287124634, 
49, 1585222895, -89.52096557617188, -21.535505294799805, -30.75002098083496, 3.3174984455108643, -8.864103317260742, 0.8309436440467834, 1.12346613407135, 1.3115769624710083, 1.089142918586731, 
50, 1585231228, -89.52127838134766, -21.53578758239746, -30.755489349365234, 3.075288772583008, -9.286317825317383, -1.214341163635254, 1.2411248683929443, 1.7405768632888794, 0.47692421078681946, 
51, 1585239561, -89.52571868896484, -21.545053482055664, -30.742599487304688, 3.3683903217315674, -9.348918914794922, 0.38445988297462463, 1.5528374910354614, -0.31506791710853577, -0.5848626494407654, 
52, 1585247894, -89.52381896972656, -21.54938316345215, -30.742067337036133, 4.058668613433838, -9.095369338989258, -0.4646129310131073, 1.7682530879974365, 1.068779468536377, 0.03488658368587494, 
53, 1585256227, -89.5182113647461, -21.54310417175293, -30.748258590698242, 4.123697757720947, -8.738896369934082, 1.0136374235153198, 1.9189801216125488, 1.829048752784729, 1.2627689838409424, 
54, 1585264560, -89.51995849609375, -21.537281036376953, -30.753026962280273, 3.6753993034362793, -8.780706405639648, 0.19184087216854095, 1.1662416458129883, 1.4895188808441162, 1.248898983001709, 
55, 1585272893, -89.5202407836914, -21.534343719482422, -30.760847091674805, 3.0956809520721436, -9.074407577514648, -0.2913167476654053, 1.0754393339157104, 2.1679887771606445, 0.8988548517227173, 
56, 1585281226, -89.52738189697266, -21.541311264038086, -30.74614906311035, 3.1479947566986084, -9.263418197631836, -0.360539048910141, 1.3100143671035767, -0.5142697691917419, -0.30633342266082764, 
57, 1585289559, -89.52386474609375, -21.547977447509766, -30.746366500854492, 3.7857823371887207, -9.142553329467773, -0.2673480808734894, 1.9323633909225464, 1.1503353118896484, -0.28584206104278564, 
58, 1585297892, -89.52057647705078, -21.5455322265625, -30.74634552001953, 4.185813903808594, -8.898185729980469, 0.9326376914978027, 1.9231678247451782, 1.103153944015503, 0.8476262092590332, 
59, 1585306225, -89.51995849609375, -21.53882598876953, -30.74863052368164, 3.883596181869507, -8.705584526062012, 0.024273885414004326, 1.4942575693130493, 1.3922359943389893, 1.3178011178970337, 
60, 1585314558, -89.52400970458984, -21.535266876220703, -30.75377082824707, 3.1899025440216064, -8.935357093811035, 0.7487625479698181, 0.8029037714004517, 1.7174856662750244, 0.9763889908790588, 
61, 1585322891, -89.52825164794922, -21.53944206237793, -30.74569320678711, 3.0373404026031494, -9.205830574035645, -1.0517539978027344, 1.316699743270874, 0.3417963683605194, 0.05847729742527008, 
62, 1585331224, -89.52638244628906, -21.548965454101562, -30.73954963684082, 3.6024670600891113, -9.316095352172852, 0.07162468135356903, 2.013944625854492, 0.435749351978302, -0.6220031976699829, 
63, 1585339557, -89.52796173095703, -21.549348831176758, -30.734594345092773, 4.200799942016602, -9.048297882080078, 0.08135344088077545, 1.548175573348999, 0.5785487294197083, 0.4742218554019928, 
64, 1585347890, -89.52135467529297, -21.543771743774414, -30.74098014831543, 3.9978692531585693, -8.695557594299316, 0.39899224042892456, 2.028211832046509, 1.8524211645126343, 1.2167528867721558, 
65, 1585356223, -89.52377319335938, -21.53875732421875, -30.742733001708984, 3.3512678146362305, -8.826711654663086, 0.9074088931083679, 1.153639554977417, 1.3334770202636719, 1.1147059202194214, 
66, 1585364556, -89.5239028930664, -21.53944206237793, -30.74605941772461, 3.0500173568725586, -9.163739204406738, -1.1516505479812622, 1.2837599515914917, 1.6825989484786987, 0.4689197540283203, 
67, 1585372889, -89.52809143066406, -21.547592163085938, -30.734922409057617, 3.431612253189087, -9.351154327392578, 0.41335564851760864, 1.5015064477920532, -0.10341746360063553, -0.41424617171287537, 
68, 1585381222, -89.52777099609375, -21.55141258239746, -30.733919143676758, 4.008655071258545, -9.098006248474121, -0.47120222449302673, 1.5997883081436157, 1.0169364213943481, 0.05832361429929733, 
69, 1585389555, -89.52241516113281, -21.545612335205078, -30.740219116210938, 4.082502841949463, -8.837146759033203, 1.0235931873321533, 1.8851310014724731, 1.840895175933838, 1.2050985097885132, 
70, 1585397888, -89.5238265991211, -21.54043960571289, -30.737621307373047, 3.6297218799591064, -8.762560844421387, 0.2062540352344513, 1.2283306121826172, 1.4510974884033203, 1.170647382736206, 
71, 1585406221, -89.5240478515625, -21.537294387817383, -30.745800018310547, 3.07858943939209, -9.096502304077148, -0.24345484375953674, 1.1308172941207886, 2.0479862689971924, 0.8859708309173584, 
72, 1585414554, -89.53013610839844, -21.5454158782959, -30.731719970703125, 3.1708695888519287, -9.278217315673828, -0.43627333641052246, 1.4422863721847534, -0.5343769788742065, -0.40653637051582336, 
73, 1585422887, -89.52571868896484, -21.553211212158203, -30.732433319091797, 3.895726203918457, -9.125190734863281, -0.31343916058540344, 2.0280585289001465, 1.1702631711959839, -0.3828175961971283, 
74, 1585431220, -89.52352142333984, -21.55005645751953, -30.73113250732422, 4.201969623565674, -8.845897674560547, 0.8891019821166992, 1.841330647468567, 0.9890681505203247, 0.8961909413337708, 
75, 1585439553, -89.52208709716797, -21.543987274169922, -30.735271453857422, 3.882277727127075, -8.704363822937012, 0.2010658234357834, 1.5077050924301147, 1.6003262996673584, 1.2393702268600464, 
76, 1585447886, -89.52545928955078, -21.539688110351562, -30.740537643432617, 3.1296844482421875, -9.012284278869629, 0.5802181363105774, 0.8842803239822388, 1.7167173624038696, 1.0651936531066895, 
77, 1585456219, -89.52935791015625, -21.543682098388672, -30.733488082885742, 3.0326266288757324, -9.221295356750488, -1.0919744968414307, 1.3622161149978638, 0.3411559760570526, 0.0417512021958828, 
78, 1585464552, -89.52884674072266, -21.553564071655273, -30.728721618652344, 3.614136219024658, -9.337920188903809, 0.08004870265722275, 1.865100383758545, 0.39550936222076416, -0.6256148815155029, 
79, 1585472885, -89.5293960571289, -21.5546875, -30.723560333251953, 4.215388298034668, -8.99085807800293, 0.17498604953289032, 1.6819586753845215, 0.5499632358551025, 0.4231983721256256, 
80, 1585481218, -89.52356719970703, -21.54740333557129, -30.728994369506836, 4.057910919189453, -8.647546768188477, 0.4816737174987793, 1.9763944149017334, 1.74573814868927, 1.3857301473617554, 
81, 1585489551, -89.52561950683594, -21.54344367980957, -30.731924057006836, 3.3794164657592773, -8.75908374786377, 0.9100039005279541, 1.1443926095962524, 1.4636229276657104, 0.988248348236084, 
82, 1585497884, -89.52729797363281, -21.54385757446289, -30.73691749572754, 3.046818733215332, -9.243698120117188, -1.1945170164108276, 1.142702341079712, 1.5748658180236816, 0.49963128566741943, 
83, 1585506217, -89.53125, -21.55231475830078, -30.726783752441406, 3.3826794624328613, -9.383342742919922, 0.2522450089454651, 1.4894933700561523, -0.007799535058438778, -0.48906540870666504, 
84, 1585514550, -89.53059387207031, -21.55521011352539, -30.724666595458984, 4.03143310546875, -9.090560913085938, -0.45918726921081543, 1.673172950744629, 0.9356367588043213, 0.20703986287117004, 
85, 1585522883, -89.52366638183594, -21.549335479736328, -30.730667114257812, 4.093216896057129, -8.805863380432129, 0.888742983341217, 2.066248893737793, 1.855264663696289, 1.253919243812561, 
86, 1585531216, -89.52469635009766, -21.54376220703125, -30.73415184020996, 3.596081495285034, -8.830272674560547, 0.2956928312778473, 1.24065101146698, 1.525250792503357, 1.1792793273925781, 
87, 1585539549, -89.52348327636719, -21.541311264038086, -30.742658615112305, 3.1392760276794434, -9.03511905670166, -0.3596900999546051, 1.289292573928833, 2.0851268768310547, 0.8020073175430298, 
88, 1585547882, -89.52897644042969, -21.547765731811523, -30.727628707885742, 3.220975160598755, -9.192490577697754, -0.13317163288593292, 1.4505083560943604, -0.367192804813385, -0.20894810557365417, 
89, 1585556215, -89.5250244140625, -21.553361892700195, -30.727630615234375, 3.8526031970977783, -9.166293144226074, -0.3328649699687958, 1.9928385019302368, 1.1278972625732422, -0.15482524037361145, 
90, 1585564548, -89.5219497680664, -21.55080795288086, -30.72650146484375, 4.176015853881836, -8.941336631774902, 0.9468581080436707, 1.9138188362121582, 1.0656800270080566, 0.8602028489112854, 
91, 1585572881, -89.51948547363281, -21.54413414001465, -30.729516983032227, 3.8171041011810303, -8.802742958068848, -0.11465422064065933, 1.6631836891174316, 1.516157865524292, 1.351791262626648, 
92, 1585581214, -89.52178192138672, -21.540903091430664, -30.734952926635742, 3.1904029846191406, -8.915802955627441, 0.7620319724082947, 1.003386378288269, 1.7418447732925415, 0.8969592452049255, 
93, 1585589547, -89.52655029296875, -21.544694900512695, -30.728429794311523, 3.034808397293091, -9.184029579162598, -1.2454817295074463, 1.2331717014312744, 0.40147751569747925, 0.06721174716949463, 
94, 1585597880, -89.52469635009766, -21.554868698120117, -30.722185134887695, 3.6426544189453125, -9.289968490600586, 0.1545080542564392, 2.0075156688690186, 0.44512414932250977, -0.661602795124054, 
95, 1585606213, -89.52590942382812, -21.555593490600586, -30.715347290039062, 4.2511515617370605, -9.034146308898926, 0.10088128596544266, 1.6746842861175537, 0.3681533932685852, 0.4350065290927887, 
96, 1585614546, -89.51902770996094, -21.550018310546875, -30.72260093688965, 4.068748950958252, -8.65629768371582, 0.5698673129081726, 2.0832056999206543, 1.7960443496704102, 1.2162151336669922, 
97, 1585622879, -89.52323913574219, -21.545719146728516, -30.724454879760742, 3.3511645793914795, -8.864265441894531, 0.9373010396957397, 0.9512614011764526, 1.2897790670394897, 1.0687282085418701, 
98, 1585631212, -89.52389526367188, -21.54544448852539, -30.729413986206055, 3.0531723499298096, -9.225232124328613, -1.1807111501693726, 1.2227721214294434, 1.684827446937561, 0.5450452566146851, 
99, 1585639545, -89.52790832519531, -21.555133819580078, -30.71738624572754, 3.3058531284332275, -9.417508125305176, 0.360877126455307, 1.5686925649642944, -0.21929626166820526, -0.6358861923217773, 
100, 1585647878, -89.52705383300781, -21.559043884277344, -30.715538024902344, 3.9670214653015137, -9.085259437561035, -0.5846908688545227, 1.6615954637527466, 1.0246975421905518, 0.0831950306892395, 
101, 1585656211, -89.52012634277344, -21.553539276123047, -30.72171974182129, 4.118695259094238, -8.766801834106445, 0.9678863883018494, 2.077288866043091, 1.8270378112792969, 1.1695972681045532, 
102, 1585664544, -89.52169036865234, -21.548574447631836, -30.722665786743164, 3.6462182998657227, -8.705843925476074, 0.28971734642982483, 1.1984132528305054, 1.474867820739746, 1.1476715803146362, 
103, 1585672877, -89.52204132080078, -21.54625129699707, -30.73084831237793, 3.079373598098755, -9.110459327697754, -0.12636607885360718, 1.0801266431808472, 2.1408631801605225, 0.8233439326286316, 
104, 1585681210, -89.52831268310547, -21.55237579345703, -30.71771812438965, 3.1461994647979736, -9.292301177978516, -0.40795525908470154, 1.3439021110534668, -0.33906838297843933, -0.2067709118127823, 
105, 1585689543, -89.52457427978516, -21.559123992919922, -30.718259811401367, 3.8447067737579346, -9.191116333007812, -0.23233193159103394, 1.9412775039672852, 1.1859647035598755, -0.2941666841506958, 
106, 1585697876, -89.52236938476562, -21.556209564208984, -30.71846580505371, 4.221078872680664, -8.923140525817871, 0.8516194224357605, 1.8154600858688354, 1.0620429515838623, 0.9019027948379517, 
107, 1585706209, -89.5206298828125, -21.550077438354492, -30.72180938720703, 3.8884551525115967, -8.75528335571289, 0.04009958729147911, 1.5803214311599731, 1.5115472078323364, 1.2491806745529175, 
108, 1585714542, -89.52243041992188, -21.545650482177734, -30.728771209716797, 3.126875162124634, -8.924911499023438, 0.639687180519104, 1.034149169921875, 1.8041131496429443, 1.0800498723983765, 
109, 1585722875, -89.52678680419922, -21.54985237121582, -30.720603942871094, 3.065744161605835, -9.117950439453125, -0.9844028353691101, 1.355966329574585, 0.21690133213996887, 0.01728961057960987, 
110, 1585731208, -89.5252914428711, -21.558378219604492, -30.716283798217773, 3.6773695945739746, -9.28243350982666, 0.1402490735054016, 1.9558004140853882, 0.4635407626628876, -0.46291324496269226, 
111, 1585739541, -89.52562713623047, -21.558717727661133, -30.7111873626709, 4.224823474884033, -9.017975807189941, 0.16337965428829193, 1.7296524047851562, 0.499144583940506, 0.5166903138160706, 
112, 1585747874, -89.51850128173828, -21.550792694091797, -30.71843147277832, 3.939946174621582, -8.705784797668457, 0.4146621823310852, 2.0550811290740967, 1.9478089809417725, 1.4602675437927246, 
113, 1585756207, -89.5201416015625, -21.546323776245117, -30.720333099365234, 3.3032100200653076, -8.890719413757324, 0.9238958954811096, 1.2362197637557983, 1.3493578433990479, 1.0498249530792236, 
114, 1585764540, -89.51985931396484, -21.546104431152344, -30.72538185119629, 3.0740673542022705, -9.267030715942383, -1.340461254119873, 1.334155797958374, 1.690757155418396, 0.5762562155723572, 
115, 1585772873, -89.5235366821289, -21.554744720458984, -30.71272850036621, 3.359307050704956, -9.33864974975586, 0.3815162181854248, 1.6347004175186157, -0.28868523240089417, -0.509070098400116, 
116, 1585781206, -89.5238265991211, -21.559181213378906, -30.711727142333984, 3.9910759925842285, -9.121185302734375, -0.5231847763061523, 1.5259170532226562, 1.0158863067626953, 0.022284384816884995, 
117, 1585789539, -89.51818084716797, -21.55446434020996, -30.716901779174805, 4.140010833740234, -8.732763290405273, 0.988592803478241, 1.977649450302124, 1.6867231130599976, 1.1138349771499634, 
118, 1585797872, -89.51881408691406, -21.548564910888672, -30.720186233520508, 3.7250466346740723, -8.780842781066895, 0.22610269486904144, 1.2996917963027954, 1.5030944347381592, 1.2210818529129028, 
119, 1585806205, -89.51968383789062, -21.544353485107422, -30.730627059936523, 3.1636641025543213, -9.017279624938965, -0.04710177704691887, 0.9557567238807678, 2.3015542030334473, 1.010878562927246, 
120, 1585814538, -89.5263900756836, -21.551105499267578, -30.719594955444336, 3.133474588394165, -9.248125076293945, -0.47577133774757385, 1.272566556930542, -0.300057977437973, -0.24447506666183472, 
121, 1585822871, -89.52214813232422, -21.559093475341797, -30.719585418701172, 3.6838481426239014, -9.168761253356934, -0.25520095229148865, 2.028416872024536, 1.1235939264297485, -0.4431902766227722, 
122, 1585831204, -89.52056884765625, -21.556324005126953, -30.716228485107422, 4.177877426147461, -8.985603332519531, 0.8184531331062317, 1.8342355489730835, 0.8179137706756592, 0.8877124786376953, 
123, 1585839537, -89.51813507080078, -21.550846099853516, -30.71908950805664, 3.935922861099243, -8.70565128326416, -0.06965679675340652, 1.649659276008606, 1.5384166240692139, 1.2080187797546387, 
124, 1585847870, -89.52305603027344, -21.547521591186523, -30.722095489501953, 3.196721315383911, -8.910418510437012, 0.7951122522354126, 0.7957574129104614, 1.4703338146209717, 0.9113799929618835, 
125, 1585856203, -89.52678680419922, -21.55153465270996, -30.71663475036621, 3.0429270267486572, -9.191354751586914, -1.1413935422897339, 1.3127295970916748, 0.5186883211135864, 0.038370124995708466, 
126, 1585864536, -89.5270004272461, -21.560640335083008, -30.708335876464844, 3.587829351425171, -9.325846672058105, 0.3003469705581665, 1.8180855512619019, 0.2988796830177307, -0.5317514538764954, 
127, 1585872869, -89.5277099609375, -21.561609268188477, -30.703882217407227, 4.242183685302734, -9.04010009765625, -0.05150054767727852, 1.6291933059692383, 0.6341059803962708, 0.40378278493881226, 
128, 1585881202, -89.52037048339844, -21.55511474609375, -30.71139907836914, 4.029481410980225, -8.67584228515625, 0.6678482890129089, 2.0470128059387207, 2.0317726135253906, 1.3242303133010864, 
129, 1585889535, -89.52272033691406, -21.550554275512695, -30.713558197021484, 3.352202892303467, -8.88033676147461, 0.7168747186660767, 1.13731050491333, 1.3802357912063599, 1.100707769393921, 
130, 1585897868, -89.52278900146484, -21.549205780029297, -30.71819305419922, 3.040818452835083, -9.173388481140137, -1.0679452419281006, 1.3048529624938965, 1.6513112783432007, 0.6728474497795105, 
131, 1585906201, -89.52689361572266, -21.557735443115234, -30.70697021484375, 3.344454765319824, -9.350532531738281, 0.18586662411689758, 1.5212550163269043, -0.12769976258277893, -0.49628859758377075, 
132, 1585914534, -89.5268783569336, -21.562259674072266, -30.706491470336914, 4.012398719787598, -9.095331192016602, -0.3757777810096741, 1.5914380550384521, 0.9444224238395691, 0.009195510298013687, 
133, 1585922867, -89.5209732055664, -21.55731773376465, -30.7120304107666, 4.146212100982666, -8.815881729125977, 0.9755134582519531, 1.9818756580352783, 1.757905125617981, 1.1048957109451294, 
134, 1585931200, -89.52236938476562, -21.551511764526367, -30.721179962158203, 3.705401659011841, -8.828032493591309, 0.25988781452178955, 1.1875015497207642, 1.546459436416626, 1.2460813522338867, 
135, 1585939533, -89.5247573852539, -21.5484676361084, -30.73080062866211, 3.102985382080078, -9.092852592468262, -0.09945207834243774, 0.8331030607223511, 2.1448850631713867, 0.9097151756286621, 
136, 1585947866, -89.53145599365234, -21.554075241088867, -30.71854019165039, 3.0996415615081787, -9.199771881103516, -0.48990535736083984, 1.2539191246032715, -0.24263083934783936, -0.14637254178524017, 
137, 1585956199, -89.52721405029297, -21.56159210205078, -30.717044830322266, 3.77901029586792, -9.195271492004395, -0.26330921053886414, 2.097472667694092, 0.9569734334945679, -0.38525086641311646, 
138, 1585964532, -89.52574920654297, -21.560489654541016, -30.71387481689453, 4.253317356109619, -8.889613151550293, 0.7000686526298523, 1.8521140813827515, 0.7238069772720337, 0.6896120309829712, 
139, 1585972865, -89.52315521240234, -21.55280303955078, -30.717615127563477, 3.9556899070739746, -8.689692497253418, 0.0912260040640831, 1.663926362991333, 1.5585495233535767, 1.4353705644607544, 
140, 1585981198, -89.5266342163086, -21.548391342163086, -30.724260330200195, 3.223853826522827, -8.898748397827148, 0.8880255222320557, 0.8965237140655518, 1.6567798852920532, 1.0779237747192383, 
141, 1585989531, -89.52999877929688, -21.54945945739746, -30.72216796875, 3.0749645233154297, -9.215359687805176, -1.2807022333145142, 1.2052521705627441, 0.8933219909667969, 0.42783454060554504, 
142, 1585997864, -89.53277587890625, -21.558727264404297, -30.712846755981445, 3.4126908779144287, -9.320086479187012, 0.2876679003238678, 1.5973292589187622, 0.08404030650854111, -0.5886535048484802, 
143, 1586006197, -89.53477478027344, -21.560848236083984, -30.708425521850586, 4.070210933685303, -9.107207298278809, -0.27057772874832153, 1.4736382961273193, 0.6363601088523865, 0.2655940055847168, 
144, 1586014530, -89.52669525146484, -21.554731369018555, -30.715295791625977, 4.090262413024902, -8.682392120361328, 0.7037658095359802, 2.15838360786438, 1.9698373079299927, 1.2811216115951538, 
145, 1586022863, -89.52930450439453, -21.548891067504883, -30.71706199645996, 3.586357355117798, -8.792502403259277, 0.585582435131073, 1.126821517944336, 1.3349369764328003, 1.213781714439392, 
146, 1586031196, -89.52961730957031, -21.547672271728516, -30.724578857421875, 3.07029128074646, -9.126609802246094, -0.8038892149925232, 1.1459296941757202, 1.982285737991333, 0.6935566663742065, 
147, 1586039529, -89.53472900390625, -21.556472778320312, -30.71089744567871, 3.228435516357422, -9.380010604858398, 0.027674511075019836, 1.5299125909805298, -0.4583795368671417, -0.4910120666027069, 
148, 1586047862, -89.53187561035156, -21.561738967895508, -30.712038040161133, 3.922454595565796, -9.114912033081055, -0.4998897910118103, 1.8126425743103027, 1.2541753053665161, -0.11760776489973068, 
149, 1586056195, -89.52727508544922, -21.557937622070312, -30.71506690979004, 4.145495891571045, -8.884450912475586, 1.046372890472412, 1.9367693662643433, 1.4728442430496216, 0.9696269035339355, 
150, 1586064528, -89.52616882324219, -21.55128288269043, -30.71620750427246, 3.7806479930877686, -8.793283462524414, 0.10553041100502014, 1.4320406913757324, 1.694970965385437, 1.345976710319519, 
151, 1586072861, -89.5276107788086, -21.547969818115234, -30.724700927734375, 3.104093074798584, -9.008187294006348, 0.3011065721511841, 0.9716759324073792, 2.079850196838379, 0.9061035513877869, 
152, 1586081194, -89.53323364257812, -21.553380966186523, -30.712331771850586, 3.0904860496520996, -9.159193992614746, -0.6798276305198669, 1.3544807434082031, -0.17170500755310059, -0.08584610372781754, 
153, 1586089527, -89.5300064086914, -21.561443328857422, -30.708154678344727, 3.7476906776428223, -9.21962833404541, -0.03746015205979347, 2.0531601905822754, 0.7475770115852356, -0.41045528650283813, 
154, 1586097860, -89.52941131591797, -21.560121536254883, -30.703388214111328, 4.21372652053833, -9.003533363342285, 0.45596635341644287, 1.801999807357788, 0.5998982191085815, 0.6783289313316345, 
155, 1586106193, -89.52448272705078, -21.55274772644043, -30.70854377746582, 3.9474737644195557, -8.741788864135742, 0.19426266849040985, 1.8817497491836548, 1.7150524854660034, 1.3957964181900024, 
156, 1586114526, -89.52812957763672, -21.54831886291504, -30.705869674682617, 3.2448949813842773, -8.883793830871582, 0.9447869062423706, 0.9596373438835144, 1.4400578737258911, 1.0826112031936646, 
157, 1586122859, -89.53021240234375, -21.549806594848633, -30.706310272216797, 3.0549283027648926, -9.26659870147705, -1.3747012615203857, 1.251639485359192, 1.1793304681777954, 0.3382103443145752, 
158, 1586131192, -89.53233337402344, -21.560039520263672, -30.69428062438965, 3.4923105239868164, -9.383996963500977, 0.3478163182735443, 1.7350184917449951, -0.07571567595005035, -0.6656371355056763, 
159, 1586139525, -89.5322494506836, -21.56378173828125, -30.692947387695312, 4.14487361907959, -9.045711517333984, -0.3261149525642395, 1.659891963005066, 0.7955140471458435, 0.10623503476381302, 
160, 1586147858, -89.52433776855469, -21.557546615600586, -30.700624465942383, 4.09628438949585, -8.675898551940918, 0.8856977820396423, 2.1283507347106934, 1.995259165763855, 1.2561092376708984, 
161, 1586156191, -89.52513885498047, -21.551374435424805, -30.704486846923828, 3.5907719135284424, -8.828197479248047, 0.5374622941017151, 1.2518701553344727, 1.5703319311141968, 1.252920150756836, 
162, 1586164524, -89.52484893798828, -21.548383712768555, -30.715084075927734, 3.126755714416504, -9.163150787353516, -0.6726396083831787, 1.1243623495101929, 2.2214200496673584, 0.9026455879211426, 
163, 1586172857, -89.52989196777344, -21.55671501159668, -30.702363967895508, 3.1577298641204834, -9.292323112487793, -0.12692004442214966, 1.4737917184829712, -0.2954986095428467, -0.4713915288448334, 
164, 1586181190, -89.5265121459961, -21.563583374023438, -30.7022705078125, 3.8168342113494873, -9.151664733886719, -0.5105351805686951, 1.919325828552246, 1.146108865737915, -0.27244579792022705, 
165, 1586189523, -89.522216796875, -21.561084747314453, -30.702476501464844, 4.164810657501221, -8.85655403137207, 1.044340968132019, 2.004852056503296, 1.2016663551330566, 0.8534407615661621, 
166, 1586197856, -89.52115631103516, -21.553895950317383, -30.704938888549805, 3.9012231826782227, -8.753693580627441, -0.07558602094650269, 1.5377763509750366, 1.4149560928344727, 1.3758941888809204, 
167, 1586206189, -89.5234375, -21.549259185791016, -30.711788177490234, 3.2247257232666016, -8.91898250579834, 0.678310215473175, 0.943013608455658, 1.9003968238830566, 1.06460440158844, 
168, 1586214522, -89.52806854248047, -21.553424835205078, -30.70356559753418, 3.079456329345703, -9.208620071411133, -1.0581271648406982, 1.3417761325836182, 0.1746634840965271, 0.062370665371418, 
169, 1586222855, -89.52687072753906, -21.561094284057617, -30.697656631469727, 3.662090539932251, -9.280191421508789, 0.13025163114070892, 1.9251915216445923, 0.4649238884449005, -0.3974176347255707, 
170, 1586231188, -89.5269546508789, -21.56094741821289, -30.691131591796875, 4.206286430358887, -9.035701751708984, 0.20600412786006927, 1.74094820022583, 0.545864999294281, 0.5741942524909973, 
171, 1586239521, -89.51925659179688, -21.5544376373291, -30.699678421020508, 4.016544818878174, -8.702357292175293, 0.39999425411224365, 2.160893678665161, 1.8521140813827515, 1.3268429040908813, 
172, 1586247854, -89.52195739746094, -21.548675537109375, -30.70102882385254, 3.2957098484039307, -8.859139442443848, 0.8659092783927917, 1.1338908672332764, 1.2873456478118896, 1.207045078277588, 
173, 1586256187, -89.52240753173828, -21.548446655273438, -30.703811645507812, 3.031050443649292, -9.162751197814941, -1.1857496500015259, 1.3437227010726929, 1.4424655437469482, 0.5402042269706726, 
174, 1586264520, -89.5256118774414, -21.557397842407227, -30.693634033203125, 3.424197196960449, -9.36190128326416, 0.4224179983139038, 1.6111867427825928, -0.08505207300186157, -0.5104532837867737, 
175, 1586272853, -89.52536010742188, -21.5601749420166, -30.691425323486328, 4.092836856842041, -9.090292930603027, -0.5231454968452454, 1.6474820375442505, 0.8833324909210205, 0.18475547432899475, 
176, 1586281186, -89.51818084716797, -21.554277420043945, -30.699460983276367, 4.1132917404174805, -8.816200256347656, 0.9872725605964661, 2.017198085784912, 2.051495313644409, 1.2522799968719482, 
177, 1586289519, -89.51908111572266, -21.549049377441406, -30.702119827270508, 3.576324701309204, -8.826085090637207, 0.3185046315193176, 1.2977453470230103, 1.4150328636169434, 1.1789464950561523, 
178, 1586297852, -89.51813507080078, -21.54708480834961, -30.710569381713867, 3.0821733474731445, -9.114140510559082, -0.4339638650417328, 1.2623721361160278, 2.076136350631714, 0.7435300350189209, 
179, 1586306185, -89.52360534667969, -21.55553436279297, -30.696468353271484, 3.1372153759002686, -9.272988319396973, -0.2918646037578583, 1.4837045669555664, -0.4497987627983093, -0.4856843054294586, 
180, 1586314518, -89.51847839355469, -21.56253433227539, -30.69687843322754, 3.881542682647705, -9.157386779785156, -0.25464561581611633, 2.1042606830596924, 1.1999757289886475, -0.287686288356781, 
181, 1586322851, -89.51589965820312, -21.56020164489746, -30.695682525634766, 4.20089864730835, -8.87385368347168, 0.9198062419891357, 1.8837990760803223, 1.001798391342163, 0.7975760698318481, 
182, 1586331184, -89.51436614990234, -21.554094314575195, -30.698680877685547, 3.9184436798095703, -8.712254524230957, 0.11389712244272232, 1.558267593383789, 1.5002001523971558, 1.2815825939178467, 
183, 1586339517, -89.5171127319336, -21.54986572265625, -30.70298194885254, 3.1680426597595215, -8.894511222839355, 0.7003812193870544, 0.9136340618133545, 1.8319811820983887, 1.0550246238708496, 
184, 1586347850, -89.52191162109375, -21.553014755249023, -30.69654083251953, 3.0177273750305176, -9.177513122558594, -1.2089378833770752, 1.225538730621338, 0.40995582938194275, 0.14533518254756927, 
185, 1586356183, -89.52146911621094, -21.56184959411621, -30.690204620361328, 3.538295030593872, -9.357185363769531, 0.06874262541532516, 1.8529080152511597, 0.41751205921173096, -0.539294958114624, 
186, 1586364516, -89.52178192138672, -21.563508987426758, -30.683805465698242, 4.1613311767578125, -9.073023796081543, 0.13608436286449432, 1.7534738779067993, 0.4408722519874573, 0.3588298261165619, 
187, 1586372849, -89.51419067382812, -21.557403564453125, -30.69112777709961, 4.031942367553711, -8.645076751708984, 0.46706679463386536, 2.1076290607452393, 1.9543278217315674, 1.2420984506607056, 
188, 1586381182, -89.51769256591797, -21.552194595336914, -30.696075439453125, 3.422985553741455, -8.775521278381348, 0.9758356213569641, 1.0713025331497192, 1.209209680557251, 1.1763465404510498, 
189, 1586389515, -89.51753234863281, -21.55119514465332, -30.701534271240234, 3.086533308029175, -9.221434593200684, -1.1623975038528442, 1.2889082431793213, 1.7507585287094116, 0.6671995520591736, 
190, 1586397848, -89.521728515625, -21.559158325195312, -30.689464569091797, 3.294814109802246, -9.3701753616333, 0.30624914169311523, 1.5483037233352661, -0.22262613475322723, -0.42861583828926086, 
191, 1586406181, -89.52137756347656, -21.563968658447266, -30.688791275024414, 3.995722770690918, -9.112557411193848, -0.6337404847145081, 1.590003490447998, 1.0533084869384766, -0.0605904683470726, 
192, 1586414514, -89.51642608642578, -21.559553146362305, -30.693374633789062, 4.126899242401123, -8.828117370605469, 1.0178022384643555, 1.888204574584961, 1.6954829692840576, 1.0775141716003418, 
193, 1586422847, -89.51693725585938, -21.55340576171875, -30.69689178466797, 3.7460503578186035, -8.806879997253418, 0.22314715385437012, 1.3024325370788574, 1.5302455425262451, 1.2500770092010498, 
194, 1586431180, -89.51883697509766, -21.55044937133789, -30.70553970336914, 3.1334197521209717, -8.962915420532227, 0.09175068885087967, 0.920703649520874, 2.0687849521636963, 0.9004683494567871, 
195, 1586439513, -89.52467346191406, -21.556476593017578, -30.696611404418945, 3.108797311782837, -9.206703186035156, -0.5268927216529846, 1.3478723764419556, -0.20997267961502075, -0.1599993258714676, 
196, 1586447846, -89.52107238769531, -21.56386375427246, -30.694488525390625, 3.743523597717285, -9.226179122924805, -0.14294753968715668, 2.0425047874450684, 0.887225866317749, -0.36829426884651184, 
197, 1586456179, -89.52092742919922, -21.561750411987305, -30.689668655395508, 4.2501540184021, -9.043374061584473, 0.7306765913963318, 1.749375343322754, 0.5955052375793457, 0.774318277835846, 
198, 1586464512, -89.5171127319336, -21.553979873657227, -30.697120666503906, 3.9408578872680664, -8.746840476989746, 0.028362024575471878, 1.7368756532669067, 1.7475825548171997, 1.4795550107955933, 
199, 1586472845, -89.52012634277344, -21.54876136779785, -30.69995880126953, 3.2253379821777344, -8.8800630569458, 0.8973778486251831, 1.033022165298462, 1.453095555305481, 1.1383479833602905, 
200, 1586481178, -89.52230072021484, -21.55093765258789, -30.699756622314453, 3.0189571380615234, -9.212038040161133, -1.3673086166381836, 1.3027654886245728, 1.0106865167617798, 0.29494789242744446, 
201, 1586489511, -89.52317810058594, -21.560386657714844, -30.690406799316406, 3.4944941997528076, -9.345766067504883, 0.31713050603866577, 1.7957113981246948, 0.15317310392856598, -0.5745656490325928, 
202, 1586497844, -89.52323913574219, -21.56270980834961, -30.686721801757812, 4.156373023986816, -9.026172637939453, -0.2947577238082886, 1.6779627799987793, 0.7181718349456787, 0.24003098905086517, 
203, 1586506177, -89.51546478271484, -21.5559139251709, -30.69499969482422, 4.119334697723389, -8.700742721557617, 0.7810458540916443, 2.085844039916992, 2.0628678798675537, 1.3242814540863037, 
204, 1586514510, -89.51770782470703, -21.548738479614258, -30.69489097595215, 3.5244505405426025, -8.794818878173828, 0.7147620916366577, 1.1173696517944336, 1.4551702737808228, 1.4111137390136719, 
205, 1586522843, -89.51782989501953, -21.546798706054688, -30.703353881835938, 3.062591791152954, -9.182838439941406, -0.90973299741745, 1.1331226825714111, 2.0783133506774902, 0.7406099438667297, 
206, 1586531176, -89.52364349365234, -21.55484390258789, -30.68709373474121, 3.1941592693328857, -9.3165283203125, 0.015979452058672905, 1.449868083000183, -0.46826666593551636, -0.4000815451145172, 
207, 1586539509, -89.52129364013672, -21.561904907226562, -30.686748504638672, 3.868781805038452, -9.129703521728516, -0.48929816484451294, 1.8261926174163818, 1.0601732730865479, -0.2932189702987671, 
208, 1586547842, -89.51825714111328, -21.558483123779297, -30.687530517578125, 4.178316116333008, -8.824228286743164, 1.100670337677002, 1.8490403890609741, 1.223028540611267, 0.9253398180007935, 
209, 1586556175, -89.51801300048828, -21.551822662353516, -30.691179275512695, 3.8957626819610596, -8.707765579223633, -0.05137278139591217, 1.3864473104476929, 1.546613097190857, 1.311371922492981, 
210, 1586564508, -89.5211181640625, -21.54849624633789, -30.699003219604492, 3.1347556114196777, -8.981904983520508, 0.5483257174491882, 0.8030831217765808, 2.0021111965179443, 0.9443713426589966, 
211, 1586572841, -89.52671813964844, -21.552568435668945, -30.68984603881836, 3.0396363735198975, -9.219385147094727, -1.0011619329452515, 1.251204252243042, 0.1053769588470459, 0.03580870106816292, 
212, 1586581174, -89.52467346191406, -21.560985565185547, -30.684173583984375, 3.655350685119629, -9.306321144104004, -0.03516891598701477, 2.0156354904174805, 0.4907687306404114, -0.45182231068611145, 
213, 1586589507, -89.52531433105469, -21.5618953704834, -30.67576026916504, 4.223726749420166, -9.057504653930664, 0.211685448884964, 1.6990948915481567, 0.4873364567756653, 0.44878703355789185, 
214, 1586597840, -89.51852416992188, -21.554908752441406, -30.681346893310547, 4.0286054611206055, -8.688176155090332, 0.37061360478401184, 2.0876240730285645, 1.7636042833328247, 1.3485510349273682, 
215, 1586606173, -89.52132415771484, -21.54994010925293, -30.683013916015625, 3.2797019481658936, -8.872581481933594, 0.9345976710319519, 1.1102489233016968, 1.3217456340789795, 1.109736680984497, 
216, 1586614506, -89.5223388671875, -21.549224853515625, -30.685346603393555, 3.0800907611846924, -9.185417175292969, -1.1936002969741821, 1.2549055814743042, 1.4948595762252808, 0.6372181177139282, 
217, 1586622839, -89.52623748779297, -21.557750701904297, -30.67502784729004, 3.3930153846740723, -9.381317138671875, 0.3738574981689453, 1.505182147026062, -0.028687942773103714, -0.4977870285511017, 
218, 1586631172, -89.52702331542969, -21.561725616455078, -30.67302703857422, 4.020846366882324, -9.105860710144043, -0.4444395899772644, 1.5133401155471802, 0.9056424498558044, 0.07640726119279861, 
219, 1586639505, -89.52095031738281, -21.556838989257812, -30.680326461791992, 4.108656883239746, -8.830738067626953, 0.9096261262893677, 1.9605392217636108, 1.861053705215454, 1.1339421272277832, 
220, 1586647838, -89.52173614501953, -21.55055809020996, -30.68297576904297, 3.6826860904693604, -8.794035911560059, 0.2628384828567505, 1.3088873624801636, 1.4339617490768433, 1.2671363353729248, 
221, 1586656171, -89.52182006835938, -21.547740936279297, -30.69266128540039, 3.074904680252075, -9.088814735412598, -0.2928847372531891, 1.0801523923873901, 2.214939594268799, 0.8449624180793762, 
222, 1586664504, -89.52757263183594, -21.55425453186035, -30.677082061767578, 3.1360421180725098, -9.252618789672852, -0.3896940350532532, 1.4485234022140503, -0.43569812178611755, -0.21708063781261444, 
223, 1586672837, -89.52246856689453, -21.562088012695312, -30.67603302001953, 3.81884765625, -9.163798332214355, -0.293445348739624, 2.1743667125701904, 1.0081506967544556, -0.4223403036594391, 
224, 1586681170, -89.52049255371094, -21.560195922851562, -30.673219680786133, 4.212628364562988, -8.916487693786621, 0.9541823863983154, 1.9016520977020264, 0.776060163974762, 0.780517041683197, 
225, 1586689503, -89.51750946044922, -21.55321502685547, -30.67110824584961, 3.92535400390625, -8.706512451171875, 0.06542634218931198, 1.67348051071167, 1.6518620252609253, 1.3862937688827515, 
226, 1586697836, -89.52103424072266, -21.54778289794922, -30.675683975219727, 3.1894173622131348, -8.920865058898926, 0.8693028688430786, 0.8939623832702637, 1.649659276008606, 1.1648584604263306, 
227, 1586706169, -89.52604675292969, -21.550434112548828, -30.671152114868164, 3.0580191612243652, -9.218490600585938, -1.2971608638763428, 1.1194188594818115, 0.6235529184341431, 0.2008156031370163, 
228, 1586714502, -89.52574157714844, -21.55986213684082, -30.661205291748047, 3.4866819381713867, -9.336888313293457, 0.26376596093177795, 1.91184663772583, 0.21790030598640442, -0.5708005428314209, 
229, 1586722835, -89.5266342163086, -21.56098747253418, -30.65646743774414, 4.155284881591797, -9.051970481872559, -0.1493544578552246, 1.6204206943511963, 0.6016656756401062, 0.3863523602485657, 
230, 1586731168, -89.51744079589844, -21.55512809753418, -30.665367126464844, 4.068330764770508, -8.597046852111816, 0.6498807668685913, 2.283188819885254, 2.0019187927246094, 1.2479382753372192, 
231, 1586739501, -89.52062225341797, -21.55040168762207, -30.668140411376953, 3.45778226852417, -8.83328628540039, 0.7902656197547913, 1.0251073837280273, 1.4156476259231567, 1.1173955202102661, 
232, 1586747834, -89.51978302001953, -21.54854965209961, -30.675519943237305, 3.086867094039917, -9.211633682250977, -0.9660595655441284, 1.2930577993392944, 1.9565176963806152, 0.7301338315010071, 
233, 1586756167, -89.5247802734375, -21.556991577148438, -30.662324905395508, 3.3132827281951904, -9.379415512084961, 0.10993204265832901, 1.5003538131713867, -0.3489811420440674, -0.4839937686920166, 
234, 1586764500, -89.52229309082031, -21.562419891357422, -30.662982940673828, 3.9389071464538574, -9.1058349609375, -0.4862382709980011, 1.8117715120315552, 1.1424460411071777, -0.0989862009882927, 
235, 1586772833, -89.51838684082031, -21.557846069335938, -30.666955947875977, 4.136680603027344, -8.846858024597168, 1.0938650369644165, 1.8133471012115479, 1.5784388780593872, 1.0604933500289917, 
236, 1586781166, -89.51828002929688, -21.55169677734375, -30.660207748413086, 3.749983787536621, -8.76584529876709, 0.05672791600227356, 1.3575801849365234, 1.5894402265548706, 1.2867311239242554, 
237, 1586789499, -89.51891326904297, -21.548721313476562, -30.669076919555664, 3.1255033016204834, -9.020246505737305, 0.26776808500289917, 1.047699213027954, 2.128927230834961, 0.9020053744316101, 
238, 1586797832, -89.52558898925781, -21.555089950561523, -30.656925201416016, 3.128002882003784, -9.168519973754883, -0.6348077058792114, 1.252305507659912, -0.22967001795768738, -0.2367139458656311, 
239, 1586806165, -89.52056884765625, -21.56199836730957, -30.656414031982422, 3.7665090560913086, -9.209829330444336, -0.06762149184942245, 2.146267890930176, 1.067345142364502, -0.3136334717273712, 
240, 1586814498, -89.51901245117188, -21.559730529785156, -30.652759552001953, 4.2067084312438965, -8.977460861206055, 0.5842764973640442, 1.8985271453857422, 0.6480656862258911, 0.8278775811195374, 
241, 1586822831, -89.5145492553711, -21.552804946899414, -30.657283782958984, 3.920785665512085, -8.703714370727539, 0.08129161596298218, 1.8531899452209473, 1.6435374021530151, 1.3424932956695557, 
242, 1586831164, -89.51918029785156, -21.548988342285156, -30.659072875976562, 3.2552623748779297, -8.94524097442627, 0.8071941137313843, 0.8677846193313599, 1.3758430480957031, 1.0093544721603394, 
243, 1586839497, -89.52162170410156, -21.552106857299805, -30.65825653076172, 3.052354097366333, -9.21694564819336, -1.2941781282424927, 1.2628841400146484, 1.0377862453460693, 0.1430554836988449, 
244, 1586847830, -89.5247802734375, -21.562206268310547, -30.647563934326172, 3.539712905883789, -9.36901569366455, 0.2969396412372589, 1.5850856304168701, -0.004981968551874161, -0.6504094004631042, 
245, 1586856163, -89.52588653564453, -21.564857482910156, -30.644227981567383, 4.179058074951172, -8.998553276062012, -0.15680555999279022, 1.5271718502044678, 0.7708603739738464, 0.2370084971189499, 
246, 1586864496, -89.51841735839844, -21.558109283447266, -30.65266990661621, 4.090898036956787, -8.662653923034668, 0.7847694158554077, 2.0449378490448, 2.0799524784088135, 1.3180315494537354, 
247, 1586872829, -89.52021789550781, -21.55219268798828, -30.655248641967773, 3.515834093093872, -8.783555030822754, 0.7210069894790649, 1.1896787881851196, 1.426405429840088, 1.2241297960281372, 
248, 1586881162, -89.51949310302734, -21.550092697143555, -30.663000106811523, 3.0991482734680176, -9.209796905517578, -0.9249988794326782, 1.2811216115951538, 1.9527013301849365, 0.7974736094474792, 
249, 1586889495, -89.52477264404297, -21.557300567626953, -30.650856018066406, 3.211211681365967, -9.357099533081055, -0.01656590774655342, 1.4201300144195557, -0.23166796565055847, -0.3366863429546356, 
250, 1586897828, -89.52175903320312, -21.562427520751953, -30.65102767944336, 3.8825137615203857, -9.138802528381348, -0.5688782930374146, 1.9067234992980957, 1.0583289861679077, -0.062434691935777664, 
251, 1586906161, -89.51764678955078, -21.559112548828125, -30.653629302978516, 4.171972274780273, -8.831624031066895, 1.100792407989502, 1.905379056930542, 1.4078480005264282, 0.9470478892326355, 
252, 1586914494, -89.51708221435547, -21.552587509155273, -30.657556533813477, 3.847275972366333, -8.712343215942383, 0.08577528595924377, 1.4146742820739746, 1.5761975049972534, 1.2972841262817383, 
253, 1586922827, -89.52086639404297, -21.54817008972168, -30.663816452026367, 3.13753080368042, -8.977303504943848, 0.4565814137458801, 0.7892002463340759, 1.8344917297363281, 1.0393232107162476, 
254, 1586931160, -89.52649688720703, -21.55217933654785, -30.653564453125, 3.074721097946167, -9.186861038208008, -0.8150163888931274, 1.3001528978347778, -0.02316807582974434, 0.08127396553754807, 
255, 1586939493, -89.5240249633789, -21.56060218811035, -30.64914894104004, 3.6884875297546387, -9.281386375427246, -0.08428988605737686, 2.0106661319732666, 0.6312372088432312, -0.49019238352775574, 
256, 1586947826, -89.52362823486328, -21.558883666992188, -30.6441707611084, 4.248136520385742, -8.989983558654785, 0.4213024377822876, 1.7905373573303223, 0.5594404339790344, 0.7638932466506958, 
257, 1586956159, -89.51930236816406, -21.552566528320312, -30.6478214263916, 3.966280460357666, -8.660242080688477, 0.1362537294626236, 1.8884350061416626, 1.5248154401779175, 1.3069919347763062, 
258, 1586964492, -89.52327728271484, -21.548053741455078, -30.65069580078125, 3.224581241607666, -8.878340721130371, 0.8862619996070862, 0.916003406047821, 1.456386923789978, 1.0552680492401123, 
259, 1586972825, -89.52576446533203, -21.550125122070312, -30.649904251098633, 3.0580263137817383, -9.210451126098633, -1.275215983390808, 1.2558146715164185, 1.0412442684173584, 0.26805299520492554, 
260, 1586981158, -89.52786254882812, -21.558589935302734, -30.642038345336914, 3.5308239459991455, -9.330666542053223, 0.4568738043308258, 1.6631065607070923, 0.12635502219200134, -0.4548703730106354, 
261, 1586989491, -89.52897644042969, -21.560274124145508, -30.638927459716797, 4.141942977905273, -9.113476753234863, -0.338296502828598, 1.5215367078781128, 0.7842053771018982, 0.31648948788642883, 
262, 1586997824, -89.52173614501953, -21.553625106811523, -30.64830207824707, 4.027963161468506, -8.725691795349121, 0.8935635089874268, 2.000138521194458, 2.1200900077819824, 1.3428772687911987, 
263, 1587006157, -89.52387237548828, -21.5482177734375, -30.65006446838379, 3.4527206420898438, -8.891700744628906, 0.4512099027633667, 1.1710315942764282, 1.369541883468628, 1.1988998651504517, 
264, 1587014490, -89.52378845214844, -21.547260284423828, -30.657516479492188, 2.993568181991577, -9.200109481811523, -0.7741346955299377, 1.2010772228240967, 1.9643558263778687, 0.6244750022888184, 
265, 1587022823, -89.5295639038086, -21.556476593017578, -30.643112182617188, 3.2665746212005615, -9.377026557922363, -0.05456903949379921, 1.4603956937789917, -0.4848134517669678, -0.5763331055641174, 
266, 1587031156, -89.52616882324219, -21.563030242919922, -30.64443016052246, 3.9688560962677, -9.023113250732422, -0.4650197923183441, 1.873322606086731, 1.266034722328186, -0.23579181730747223, 
267, 1587039489, -89.52289581298828, -21.559587478637695, -30.64603042602539, 4.193673610687256, -8.85097885131836, 0.9236181378364563, 1.8413819074630737, 1.3137798309326172, 0.9280038475990295, 
268, 1587047822, -89.52242279052734, -21.5533447265625, -30.648937225341797, 3.8335800170898438, -8.722216606140137, 0.3410587012767792, 1.416134238243103, 1.5385189056396484, 1.2988978624343872, 
269, 1587056155, -89.52356719970703, -21.549165725708008, -30.654945373535156, 3.1543636322021484, -9.024602890014648, 0.33525440096855164, 1.047724723815918, 1.9816197156906128, 1.0457268953323364, 
270, 1587064488, -89.52928924560547, -21.552696228027344, -30.645023345947266, 3.0999133586883545, -9.215293884277344, -0.7784295678138733, 1.272412657737732, 0.020235242322087288, 0.10207271575927734, 
271, 1587072821, -89.52617645263672, -21.560117721557617, -30.64299201965332, 3.654911994934082, -9.275980949401855, -0.05681659281253815, 1.9812867641448975, 0.8980094790458679, -0.37300732731819153, 
272, 1587081154, -89.52465057373047, -21.560178756713867, -30.63731575012207, 4.139118194580078, -9.014358520507812, 0.3011384904384613, 1.9390230178833008, 0.5330065488815308, 0.5495277643203735, 
273, 1587089487, -89.51872253417969, -21.55432891845703, -30.642086029052734, 3.9948630332946777, -8.639545440673828, 0.25870850682258606, 2.0208351612091064, 1.6705602407455444, 1.2140122652053833, 
274, 1587097820, -89.52196502685547, -21.550609588623047, -30.645549774169922, 3.3042116165161133, -8.81615161895752, 0.9097627997398376, 1.067754864692688, 1.2919561862945557, 0.998340368270874, 
275, 1587106153, -89.52263641357422, -21.55192756652832, -30.64806365966797, 3.0813324451446533, -9.184917449951172, -1.2386401891708374, 1.3460792303085327, 1.3611403703689575, 0.391769677400589, 
276, 1587114486, -89.52570343017578, -21.560977935791016, -30.63811492919922, 3.4464492797851562, -9.401275634765625, 0.2745201885700226, 1.5899523496627808, 0.013729228638112545, -0.561169445514679, 
277, 1587122819, -89.5250244140625, -21.56374740600586, -30.635833740234375, 4.099066257476807, -9.085471153259277, -0.31384238600730896, 1.7010668516159058, 0.8745211362838745, 0.18547266721725464, 
278, 1587131152, -89.51777648925781, -21.558231353759766, -30.64228057861328, 4.072892189025879, -8.74244499206543, 0.8255257606506348, 2.064443588256836, 1.9559158086776733, 1.208313226699829, 
279, 1587139485, -89.51782989501953, -21.55390739440918, -30.645774841308594, 3.553844690322876, -8.774741172790527, 0.49547624588012695, 1.3587454557418823, 1.5251355171203613, 1.030242919921875, 
280, 1587147818, -89.51726531982422, -21.55251121520996, -30.654800415039062, 3.054379463195801, -9.148547172546387, -0.7339428663253784, 1.209913969039917, 2.0938613414764404, 0.7121270298957825, 
281, 1587156151, -89.52169036865234, -21.5615291595459, -30.64288330078125, 3.250380516052246, -9.253640174865723, 0.07148551195859909, 1.5351122617721558, -0.2608937919139862, -0.5171386003494263, 
282, 1587164484, -89.51911163330078, -21.567607879638672, -30.644041061401367, 3.9501399993896484, -9.109109878540039, -0.4706956148147583, 1.7772948741912842, 1.2534581422805786, -0.2149161994457245, 
283, 1587172817, -89.51445770263672, -21.563648223876953, -30.646772384643555, 4.18677282333374, -8.88279914855957, 1.0849634408950806, 1.9562103748321533, 1.442542552947998, 0.9894523620605469, 
284, 1587181150, -89.51367950439453, -21.556869506835938, -30.6549072265625, 3.837261199951172, -8.797746658325195, 0.02535661682486534, 1.4275835752487183, 1.6042449474334717, 1.359885334968567, 
285, 1587189483, -89.51520538330078, -21.552228927612305, -30.663240432739258, 3.1103756427764893, -8.99074935913086, 0.36689555644989014, 0.9697805643081665, 2.067376136779785, 1.0661157369613647, 
286, 1587197816, -89.52051544189453, -21.557388305664062, -30.653844833374023, 3.0266826152801514, -9.231952667236328, -0.8818883299827576, 1.3229495286941528, 0.008145326748490334, -0.05697886645793915, 
287, 1587206149, -89.51722717285156, -21.566652297973633, -30.64921760559082, 3.67258358001709, -9.269222259521484, -0.0629618689417839, 2.09834361076355, 0.6512930989265442, -0.5559953451156616, 
288, 1587214482, -89.51705169677734, -21.56658935546875, -30.643640518188477, 4.254157066345215, -9.013995170593262, 0.43767818808555603, 1.7883602380752563, 0.5076484680175781, 0.5285241007804871, 
289, 1587222815, -89.5107421875, -21.56000518798828, -30.649944305419922, 4.062744617462158, -8.664127349853516, 0.33031824231147766, 1.9981409311294556, 1.8426625728607178, 1.3006139993667603, 
290, 1587231148, -89.51324462890625, -21.55515480041504, -30.651939392089844, 3.3236606121063232, -8.830841064453125, 1.0815544128417969, 1.114654779434204, 1.3997154235839844, 1.1324052810668945, 
291, 1587239481, -89.5138931274414, -21.5550537109375, -30.65549087524414, 3.0380806922912598, -9.198530197143555, -1.3818633556365967, 1.2824022769927979, 1.5293489694595337, 0.5247588157653809, 
292, 1587247814, -89.51685333251953, -21.56365394592285, -30.647062301635742, 3.3906562328338623, -9.368508338928223, 0.456596314907074, 1.6178462505340576, -0.023936500772833824, -0.4703669548034668, 
293, 1587256147, -89.5174789428711, -21.56785011291504, -30.642492294311523, 4.030313014984131, -9.066278457641602, -0.6031753420829773, 1.611647605895996, 0.6984233260154724, 0.05166390910744667, 
294, 1587264480, -89.51045989990234, -21.560775756835938, -30.650548934936523, 4.121804714202881, -8.722468376159668, 0.9280259013175964, 2.0080792903900146, 2.036306142807007, 1.3579387664794922, 
295, 1587272813, -89.51216888427734, -21.554285049438477, -30.653383255004883, 3.5966336727142334, -8.73639965057373, 0.36420154571533203, 1.1888591051101685, 1.4551703929901123, 1.2928272485733032, 
296, 1587281146, -89.51158142089844, -21.55178451538086, -30.663055419921875, 3.076061964035034, -9.119580268859863, -0.3161775767803192, 1.1779218912124634, 2.1798226833343506, 0.8431181311607361, 
297, 1587289479, -89.51823425292969, -21.55864906311035, -30.647985458374023, 3.180647373199463, -9.295599937438965, -0.22371938824653625, 1.385422706604004, -0.5585055947303772, -0.2924761176109314, 
298, 1587297812, -89.51351165771484, -21.564701080322266, -30.650854110717773, 3.83512544631958, -9.15435791015625, -0.31896981596946716, 2.0335397720336914, 1.2588884830474854, -0.17526540160179138, 
299, 1587306145, -89.51109313964844, -21.561681747436523, -30.6527042388916, 4.174804210662842, -8.925968170166016, 0.9567620158195496, 1.8675594329833984, 0.9904767870903015, 0.9147099256515503, 
300, 1587314478, -89.5087661743164, -21.554645538330078, -30.656755447387695, 3.869521141052246, -8.722118377685547, 0.01884920336306095, 1.618922233581543, 1.588338851928711, 1.357682704925537, 
301, 1587322811, -89.51146697998047, -21.549739837646484, -30.663246154785156, 3.1231689453125, -8.93889045715332, 0.6440876722335815, 0.9106116890907288, 1.8609510660171509, 1.0982872247695923, 
302, 1587331144, -89.51548767089844, -21.55422592163086, -30.656614303588867, 3.0224196910858154, -9.121771812438965, -0.9959262013435364, 1.3503823280334473, 0.3217915892601013, 0.022233152762055397, 
303, 1587339477, -89.51476287841797, -21.563962936401367, -30.650678634643555, 3.6405348777770996, -9.277817726135254, 0.017678100615739822, 1.8673288822174072, 0.460671991109848, -0.6460806727409363, 
304, 1587347810, -89.51547241210938, -21.564271926879883, -30.644695281982422, 4.209646224975586, -9.006343841552734, 0.2929551601409912, 1.678244709968567, 0.5198152661323547, 0.518380880355835, 
305, 1587356143, -89.50957489013672, -21.557371139526367, -30.646617889404297, 3.9956774711608887, -8.723803520202637, 0.4014540910720825, 1.9800571203231812, 1.7655636072158813, 1.3764066696166992, 
306, 1587364476, -89.5123062133789, -21.553287506103516, -30.648828506469727, 3.32442045211792, -8.867630004882812, 0.9436754584312439, 1.0961867570877075, 1.382604956626892, 1.0029765367507935, 
307, 1587372809, -89.5140609741211, -21.553625106811523, -30.65386962890625, 3.0585174560546875, -9.311651229858398, -1.3013441562652588, 1.085403323173523, 1.6937414407730103, 0.47148123383522034, 
308, 1587381142, -89.51795196533203, -21.56374168395996, -30.639039993286133, 3.37322998046875, -9.359735488891602, 0.41411203145980835, 1.5898756980895996, -0.2330511212348938, -0.6503326892852783, 
309, 1587389475, -89.51824188232422, -21.568269729614258, -30.638240814208984, 4.062822341918945, -9.06235122680664, -0.5717612504959106, 1.5200766324996948, 1.038324236869812, -0.026190554723143578, 
310, 1587397808, -89.51310729980469, -21.564105987548828, -30.64513397216797, 4.124964237213135, -8.701407432556152, 1.0188497304916382, 1.8305212259292603, 1.9064161777496338, 1.043703317642212, 
311, 1587406141, -89.51412963867188, -21.55836296081543, -30.64800453186035, 3.6525681018829346, -8.776494979858398, 0.27810487151145935, 1.2586579322814941, 1.4844985008239746, 1.2386019229888916, 
312, 1587414474, -89.51561737060547, -21.55533218383789, -30.65681266784668, 3.0947093963623047, -9.05044174194336, -0.19923917949199677, 0.9531312584877014, 2.1163506507873535, 0.8722159266471863, 
313, 1587422807, -89.52183532714844, -21.562654495239258, -30.64382553100586, 3.1303272247314453, -9.272151947021484, -0.38897159695625305, 1.345874309539795, -0.3250062167644501, -0.351542592048645, 
314, 1587431140, -89.51725006103516, -21.56993293762207, -30.643022537231445, 3.712258815765381, -9.157651901245117, -0.2644842565059662, 2.037663698196411, 1.210631251335144, -0.3210360109806061, 
315, 1587439473, -89.51519012451172, -21.567920684814453, -30.64055633544922, 4.204944133758545, -8.952789306640625, 0.8699213862419128, 1.8740653991699219, 0.859178364276886, 0.7604098320007324, 
316, 1587447806, -89.51264953613281, -21.56070899963379, -30.641237258911133, 3.979682683944702, -8.672342300415039, -0.04717601090669632, 1.7092891931533813, 1.4322199821472168, 1.4149302244186401, 
317, 1587456139, -89.51691436767578, -21.556798934936523, -30.64668083190918, 3.241338014602661, -8.899059295654297, 0.8612605929374695, 0.8364967703819275, 1.57889986038208, 1.0185116529464722, 
318, 1587464472, -89.51982879638672, -21.558616638183594, -30.642292022705078, 3.058927297592163, -9.206258773803711, -1.227957010269165, 1.3625491857528687, 0.6407144665718079, 0.30214551091194153, 
319, 1587472805, -89.51982879638672, -21.568679809570312, -30.634864807128906, 3.577039957046509, -9.326407432556152, 0.23048098385334015, 1.8443785905838013, 0.2932061553001404, -0.6845788955688477, 
320, 1587481138, -89.5217514038086, -21.569860458374023, -30.628507614135742, 4.1793060302734375, -9.080891609191895, -0.05324576422572136, 1.532141089439392, 0.5216339230537415, 0.4159751832485199, 
321, 1587489471, -89.51434326171875, -21.564449310302734, -30.634965896606445, 4.054930210113525, -8.68578815460205, 0.5410265326499939, 2.1247518062591553, 1.8567758798599243, 1.159274697303772, 
322, 1587497804, -89.51663208007812, -21.559587478637695, -30.637619018554688, 3.406569480895996, -8.8553466796875, 0.765224039554596, 1.1409093141555786, 1.3972564935684204, 1.131995439529419, 
323, 1587506137, -89.51689910888672, -21.55859375, -30.644777297973633, 3.073408603668213, -9.164422035217285, -1.0638829469680786, 1.2368345260620117, 1.7684067487716675, 0.6670202612876892, 
324, 1587514470, -89.52108764648438, -21.56671905517578, -30.6324462890625, 3.333439350128174, -9.350189208984375, 0.2662288248538971, 1.559317708015442, -0.25226178765296936, -0.4458029270172119, 
325, 1587522803, -89.51932525634766, -21.571073532104492, -30.632247924804688, 3.9978833198547363, -9.073199272155762, -0.42273643612861633, 1.738822340965271, 1.1057664155960083, -0.007978834211826324, 
326, 1587531136, -89.51469421386719, -21.566762924194336, -30.63884925842285, 4.1288018226623535, -8.84424114227295, 1.084197998046875, 1.8054707050323486, 1.8172276020050049, 1.0635799169540405, 
327, 1587539469, -89.51544952392578, -21.56015968322754, -30.6417179107666, 3.7417004108428955, -8.79335880279541, 0.009550671093165874, 1.3012545108795166, 1.4576804637908936, 1.3064284324645996, 
328, 1587547802, -89.51587677001953, -21.557388305664062, -30.651525497436523, 3.0747857093811035, -9.107791900634766, 0.027243610471487045, 1.0480321645736694, 2.1936287879943848, 0.8757507801055908, 
329, 1587556135, -89.52191925048828, -21.56375503540039, -30.638580322265625, 3.085843801498413, -9.238821029663086, -0.6210384368896484, 1.340341567993164, -0.25968992710113525, -0.20049543678760529, 
330, 1587564468, -89.51748657226562, -21.571760177612305, -30.637868881225586, 3.812497138977051, -9.185907363891602, -0.1794557124376297, 2.08479380607605, 1.0431909561157227, -0.44457343220710754, 
331, 1587572801, -89.51634979248047, -21.570114135742188, -30.63491439819336, 4.2683634757995605, -8.884468078613281, 0.6945203542709351, 1.786567211151123, 0.8027501106262207, 0.7179157733917236, 
332, 1587581134, -89.5135269165039, -21.56317901611328, -30.63822364807129, 3.949282646179199, -8.712221145629883, 0.15497779846191406, 1.6790130138397217, 1.5809617042541504, 1.3794034719467163, 
333, 1587589467, -89.51704406738281, -21.55834197998047, -30.64214515686035, 3.1831443309783936, -8.934571266174316, 0.8124249577522278, 0.9217281937599182, 1.574455738067627, 1.094163179397583, 
334, 1587597800, -89.51972961425781, -21.560325622558594, -30.63900375366211, 3.0524115562438965, -9.259506225585938, -1.262190818786621, 1.3221042156219482, 0.8186053037643433, 0.3163357973098755, 
335, 1587606133, -89.52086639404297, -21.569385528564453, -30.62957000732422, 3.4789974689483643, -9.309004783630371, 0.2784009277820587, 1.7642574310302734, 0.15952543914318085, -0.5280503034591675, 
336, 1587614466, -89.52157592773438, -21.570667266845703, -30.62448501586914, 4.127989292144775, -9.08413028717041, -0.1513407677412033, 1.6592646837234497, 0.5635387897491455, 0.36887064576148987, 
337, 1587622799, -89.51407623291016, -21.56427001953125, -30.631803512573242, 4.067340850830078, -8.654393196105957, 0.7341094017028809, 2.0970373153686523, 1.9532902240753174, 1.276280403137207, 
338, 1587631132, -89.51610565185547, -21.55957794189453, -30.635086059570312, 3.491685390472412, -8.806480407714844, 0.7066638469696045, 1.1307659149169922, 1.4993035793304443, 1.1112991571426392, 
339, 1587639465, -89.51658630371094, -21.558300018310547, -30.64183807373047, 3.070919990539551, -9.217293739318848, -0.9437909126281738, 1.1636290550231934, 1.8871031999588013, 0.6638185381889343, 
340, 1587647798, -89.52014923095703, -21.566970825195312, -30.624523162841797, 3.3009116649627686, -9.330331802368164, 0.1256273090839386, 1.6374667882919312, -0.2535425126552582, -0.4775902032852173, 
341, 1587656131, -89.51809692382812, -21.57295799255371, -30.622791290283203, 3.9557383060455322, -9.108662605285645, -0.597576379776001, 1.7914085388183594, 1.0649118423461914, -0.16658219695091248, 
342, 1587664464, -89.5118408203125, -21.568815231323242, -30.627613067626953, 4.113402843475342, -8.860100746154785, 1.089247226715088, 2.0580525398254395, 1.673147439956665, 1.0085604190826416, 
343, 1587672797, -89.51156616210938, -21.562910079956055, -30.631715774536133, 3.719050884246826, -8.811570167541504, 0.09784702956676483, 1.3713092803955078, 1.594819188117981, 1.2216453552246094, 
344, 1587681130, -89.51133728027344, -21.559194564819336, -30.640222549438477, 3.1445090770721436, -8.966316223144531, 0.1813269406557083, 1.1753604412078857, 2.079338312149048, 0.9906561970710754, 
345, 1587689463, -89.51695251464844, -21.565448760986328, -30.628036499023438, 3.1380021572113037, -9.172942161560059, -0.630980908870697, 1.381683111190796, -0.23448552191257477, -0.22229312360286713, 
346, 1587697796, -89.51325225830078, -21.573190689086914, -30.624544143676758, 3.758207321166992, -9.150208473205566, -0.055972468107938766, 2.069732904434204, 0.8651720881462097, -0.3745185434818268, 
347, 1587706129, -89.51165008544922, -21.571855545043945, -30.625486373901367, 4.207062721252441, -9.043984413146973, 0.6296972036361694, 1.8559050559997559, 0.7657119035720825, 0.7131003141403198, 
348, 1587714462, -89.50774383544922, -21.565155029296875, -30.63007164001465, 3.893498420715332, -8.70862865447998, 0.10987939685583115, 1.7881555557250977, 1.6499409675598145, 1.3172377347946167, 
349, 1587722795, -89.51042175292969, -21.561302185058594, -30.632644653320312, 3.2117135524749756, -8.921051025390625, 0.7868584394454956, 1.0807669162750244, 1.4228705167770386, 0.9764401316642761, 
350, 1587731128, -89.5135269165039, -21.563800811767578, -30.63361358642578, 3.0166971683502197, -9.184901237487793, -1.2583566904067993, 1.1906520128250122, 1.0313314199447632, 0.2527613043785095, 
351, 1587739461, -89.5149917602539, -21.573606491088867, -30.6246395111084, 3.5285518169403076, -9.35780143737793, 0.26717740297317505, 1.736388921737671, 0.12115532159805298, -0.6515108346939087, 
352, 1587747794, -89.51600646972656, -21.574935913085938, -30.619476318359375, 4.136256217956543, -9.012604713439941, -0.12639668583869934, 1.6284503936767578, 0.5492460131645203, 0.3964827060699463, 
353, 1587756127, -89.50838470458984, -21.568845748901367, -30.628036499023438, 4.050731658935547, -8.697539329528809, 0.8333861827850342, 2.0608701705932617, 2.0932977199554443, 1.2736423015594482, 
354, 1587764460, -89.51078796386719, -21.563335418701172, -30.630399703979492, 3.4599945545196533, -8.804080963134766, 0.778232753276825, 1.1257456541061401, 1.4013292789459229, 1.173849105834961, 
355, 1587772793, -89.51065826416016, -21.56216049194336, -30.637977600097656, 3.098137855529785, -9.206110954284668, -1.0321602821350098, 1.2012563943862915, 1.9785974025726318, 0.6521384119987488, 
356, 1587781126, -89.51620483398438, -21.57219123840332, -30.62489891052246, 3.2700297832489014, -9.348564147949219, 0.09815825521945953, 1.4635460376739502, -0.42679718136787415, -0.6400100588798523, 
357, 1587789459, -89.51470947265625, -21.577205657958984, -30.62467384338379, 3.9510951042175293, -9.078388214111328, -0.4891832768917084, 1.7081364393234253, 1.1016426086425781, -0.0842324048280716, 
358, 1587797792, -89.51063537597656, -21.571868896484375, -30.62870216369629, 4.135094165802002, -8.81175422668457, 1.00266695022583, 1.8621035814285278, 1.5071159601211548, 1.1880906820297241, 
359, 1587806125, -89.51103210449219, -21.565292358398438, -30.631811141967773, 3.8016130924224854, -8.7724027633667, 0.19691742956638336, 1.3331313133239746, 1.4883537292480469, 1.3377931118011475, 
360, 1587814458, -89.51323699951172, -21.560264587402344, -30.639245986938477, 3.1193342208862305, -9.032326698303223, 0.2305740863084793, 0.9254679083824158, 1.966353416442871, 1.1133995056152344, 
361, 1587822791, -89.51936340332031, -21.566390991210938, -30.62724494934082, 3.0752861499786377, -9.221746444702148, -0.6548928618431091, 1.3126270771026611, -0.21353305876255035, -0.2080259919166565, 
362, 1587831124, -89.51600646972656, -21.57358741760254, -30.624950408935547, 3.75076961517334, -9.285840034484863, -0.13107413053512573, 2.021808385848999, 0.8768264651298523, -0.3099706768989563, 
363, 1587839457, -89.5146255493164, -21.572002410888672, -30.62220001220703, 4.253895282745361, -8.992526054382324, 0.6394678354263306, 1.8055474758148193, 0.8261871933937073, 0.7097705006599426, 
364, 1587847790, -89.51134490966797, -21.565847396850586, -30.622678756713867, 3.9667294025421143, -8.748146057128906, -0.011264916509389877, 1.7647696733474731, 1.5127511024475098, 1.2853736877441406, 
365, 1587856123, -89.51495361328125, -21.561500549316406, -30.626468658447266, 3.2337660789489746, -8.83892822265625, 0.8443660736083984, 0.9281318783760071, 1.529707908630371, 1.071674108505249, 
366, 1587864456, -89.51774597167969, -21.563953399658203, -30.624431610107422, 3.0487773418426514, -9.172911643981934, -1.2409894466400146, 1.2759729623794556, 0.9013392925262451, 0.2243550419807434, 
367, 1587872789, -89.51905822753906, -21.573251724243164, -30.616453170776367, 3.558065176010132, -9.280945777893066, 0.3577973544597626, 1.715154767036438, 0.23332007229328156, -0.5924444198608398, 
368, 1587881122, -89.52076721191406, -21.57396125793457, -30.611589431762695, 4.1807355880737305, -9.075556755065918, -0.175125390291214, 1.518334984779358, 0.6124107241630554, 0.4701492488384247, 
369, 1587889455, -89.51300048828125, -21.566410064697266, -30.620100021362305, 3.9977362155914307, -8.727405548095703, 0.7520935535430908, 2.0771095752716064, 2.0889945030212402, 1.4152377843856812, 
370, 1587897788, -89.514892578125, -21.56137466430664, -30.622316360473633, 3.4299254417419434, -8.90438461303711, 0.5759716629981995, 1.204842448234558, 1.3590912818908691, 1.1533833742141724, 
371, 1587906121, -89.51461791992188, -21.560544967651367, -30.62726593017578, 3.0301709175109863, -9.176497459411621, -0.8847718238830566, 1.283401370048523, 1.8132063150405884, 0.6462984085083008, 
372, 1587914454, -89.51947021484375, -21.56952667236328, -30.61417579650879, 3.25931453704834, -9.354452133178711, 0.1170276626944542, 1.5141085386276245, -0.3367631435394287, -0.5502321720123291, 
373, 1587922787, -89.5173568725586, -21.575286865234375, -30.614099502563477, 4.0090789794921875, -9.073051452636719, -0.5436163544654846, 1.7405128479003906, 1.2112460136413574, -0.14025074243545532, 
374, 1587931120, -89.51304626464844, -21.569482803344727, -30.616880416870117, 4.172626972198486, -8.841423988342285, 1.037670612335205, 1.9151508808135986, 1.448024034500122, 1.2104774713516235, 
375, 1587939453, -89.5142822265625, -21.562679290771484, -30.61961555480957, 3.7840027809143066, -8.762868881225586, 0.1830950826406479, 1.248873233795166, 1.4436438083648682, 1.3316839933395386, 
376, 1587947786, -89.51697540283203, -21.55853271484375, -30.627405166625977, 3.1237313747406006, -8.990275382995605, 0.17386074364185333, 0.808743953704834, 2.1241629123687744, 1.0401173830032349, 
377, 1587956119, -89.52417755126953, -21.564050674438477, -30.6152400970459, 3.074585199356079, -9.248311042785645, -0.6371538043022156, 1.190280795097351, -0.23101477324962616, -0.13411614298820496, 
378, 1587964452, -89.5212173461914, -21.572086334228516, -30.611408233642578, 3.710488796234131, -9.218482971191406, -0.03646223247051239, 1.9515998363494873, 0.9345095753669739, -0.4117872416973114, 
379, 1587972785, -89.51971435546875, -21.570270538330078, -30.610414505004883, 4.213154315948486, -9.004899978637695, 0.5086944699287415, 1.8137954473495483, 0.8454747200012207, 0.7716800570487976, 
380, 1587981118, -89.51468658447266, -21.563030242919922, -30.615123748779297, 3.953731060028076, -8.6781587600708, 0.18731306493282318, 1.9157013893127441, 1.664835810661316, 1.3816190958023071, 
381, 1587989451, -89.51992797851562, -21.558359146118164, -30.617637634277344, 3.2358148097991943, -8.90261173248291, 0.8761141896247864, 0.776111364364624, 1.418337106704712, 1.075260043144226, 
382, 1587997784, -89.52223205566406, -21.561758041381836, -30.615598678588867, 3.0341076850891113, -9.166576385498047, -1.2336437702178955, 1.321592092514038, 0.9395045638084412, 0.1442081481218338, 
383, 1588006117, -89.52398681640625, -21.571168899536133, -30.606019973754883, 3.505859851837158, -9.383109092712402, 0.27019888162612915, 1.7303695678710938, 0.0525347925722599, -0.602485179901123, 
384, 1588014450, -89.52454376220703, -21.57347869873047, -30.602563858032227, 4.1800537109375, -9.03164005279541, -0.24184024333953857, 1.6140300035476685, 0.7244731187820435, 0.27589091658592224, 
385, 1588022783, -89.51678466796875, -21.56754493713379, -30.61180877685547, 4.027460098266602, -8.712800979614258, 0.7288994789123535, 2.1048498153686523, 2.008258581161499, 1.2578126192092896, 
386, 1588031116, -89.51922607421875, -21.561328887939453, -30.613407135009766, 3.411498546600342, -8.861648559570312, 0.6463045477867126, 1.1546640396118164, 1.3162641525268555, 1.259426236152649, 
387, 1588039449, -89.51936340332031, -21.561016082763672, -30.619314193725586, 3.0610530376434326, -9.130894660949707, -0.8850667476654053, 1.24124014377594, 1.792356014251709, 0.5493229031562805, 
388, 1588047782, -89.52479553222656, -21.570270538330078, -30.605514526367188, 3.3502986431121826, -9.304553985595703, 0.13173390924930573, 1.4092439413070679, -0.24818912148475647, -0.5476963520050049, 
389, 1588056115, -89.5228500366211, -21.57470703125, -30.60556983947754, 3.9686315059661865, -9.09074878692627, -0.3310481607913971, 1.7500413656234741, 1.1333274841308594, -0.014894676394760609, 
390, 1588064448, -89.5186767578125, -21.5708065032959, -30.611644744873047, 4.10420036315918, -8.881747245788574, 0.956246554851532, 1.8209670782089233, 1.6395926475524902, 1.01363205909729, 
391, 1588072781, -89.51838684082031, -21.564678192138672, -30.61674690246582, 3.739445924758911, -8.784867286682129, 0.08229072391986847, 1.4098458290100098, 1.5104073286056519, 1.283798336982727, 
392, 1588081114, -89.5202407836914, -21.5607967376709, -30.625106811523438, 3.0982203483581543, -9.011934280395508, 0.1046094298362732, 0.926774263381958, 2.069169282913208, 0.9748522043228149, 
393, 1588089447, -89.525146484375, -21.56633758544922, -30.61299705505371, 3.084048271179199, -9.188821792602539, -0.6043365597724915, 1.4638534784317017, -0.22503384947776794, -0.13743318617343903, 
394, 1588097780, -89.5205078125, -21.57370376586914, -30.61141586303711, 3.788097381591797, -9.21522045135498, -0.20913203060626984, 2.137789726257324, 0.9668093323707581, -0.3319476842880249, 
395, 1588106113, -89.51956176757812, -21.572967529296875, -30.606962203979492, 4.238931179046631, -8.959692001342773, 0.7121681571006775, 1.8293431997299194, 0.6353354454040527, 0.6087735295295715, 
396, 1588114446, -89.51543426513672, -21.566152572631836, -30.611364364624023, 3.936436653137207, -8.702678680419922, 0.15154825150966644, 1.8179959058761597, 1.6464571952819824, 1.3658276796340942, 
397, 1588122779, -89.51776123046875, -21.562286376953125, -30.615299224853516, 3.224180221557617, -8.929167747497559, 0.8374952077865601, 1.1020525693893433, 1.482398271560669, 1.0137090682983398, 
398, 1588131112, -89.51953125, -21.564516067504883, -30.614194869995117, 3.0690112113952637, -9.241583824157715, -1.276824951171875, 1.3563506603240967, 1.005999207496643, 0.2509682774543762, 
399, 1588139445, -89.52069854736328, -21.573505401611328, -30.605588912963867, 3.459017276763916, -9.30210018157959, 0.3356112539768219, 1.7585196495056152, 0.1639823168516159, -0.5546378493309021, 
400, 1588147778, -89.5214614868164, -21.575584411621094, -30.601938247680664, 4.100957870483398, -9.086967468261719, -0.21562756597995758, 1.545025110244751, 0.8425034880638123, 0.3040153682231903, 
401, 1588156111, -89.51336669921875, -21.569013595581055, -30.60974884033203, 4.089544296264648, -8.641286849975586, 0.7489449381828308, 2.1458580493927, 2.00994873046875, 1.2978732585906982, 
402, 1588164444, -89.51509094238281, -21.56447410583496, -30.615541458129883, 3.5140342712402344, -8.795938491821289, 0.5854454636573792, 1.1879369020462036, 1.45353102684021, 1.0924983024597168, 
403, 1588172777, -89.51516723632812, -21.563600540161133, -30.621313095092773, 3.053974151611328, -9.19443416595459, -0.8412688970565796, 1.1521795988082886, 2.031670093536377, 0.6491672396659851, 
404, 1588181110, -89.52023315429688, -21.572607040405273, -30.60806655883789, 3.281123399734497, -9.3383150100708, 0.0721292719244957, 1.497971534729004, -0.35520535707473755, -0.5520251989364624, 
405, 1588189443, -89.51691436767578, -21.57719612121582, -30.608823776245117, 3.9435901641845703, -9.122904777526855, -0.5171736478805542, 1.8827745914459229, 1.2128596305847168, -0.03548852354288101, 
406, 1588197776, -89.51209259033203, -21.572385787963867, -30.612876892089844, 4.1600728034973145, -8.861918449401855, 1.1019400358200073, 1.922399640083313, 1.5838818550109863, 1.1248490810394287, 
407, 1588206109, -89.51197052001953, -21.566978454589844, -30.616600036621094, 3.736299991607666, -8.800223350524902, 0.13826076686382294, 1.3673392534255981, 1.5522741079330444, 1.1622203588485718, 
408, 1588214442, -89.51358795166016, -21.563684463500977, -30.623720169067383, 3.0890872478485107, -9.029204368591309, 0.14991888403892517, 1.0066777467727661, 1.9447993040084839, 0.9393892288208008, 
409, 1588222775, -89.52043151855469, -21.57012176513672, -30.609800338745117, 3.150040864944458, -9.203547477722168, -0.6077627539634705, 1.3089898824691772, -0.41206902265548706, -0.20902496576309204, 
410, 1588231108, -89.517333984375, -21.57705307006836, -30.607830047607422, 3.790680170059204, -9.144332885742188, -0.052299387753009796, 1.9781103134155273, 0.905386209487915, -0.31137940287590027, 
411, 1588239441, -89.51728057861328, -21.574737548828125, -30.60395050048828, 4.225593566894531, -9.003962516784668, 0.5891724824905396, 1.6952780485153198, 0.6995246410369873, 0.7978577613830566, 
412, 1588247774, -89.5140151977539, -21.568187713623047, -30.60785675048828, 3.8699357509613037, -8.672592163085938, 0.15496563911437988, 1.7093276977539062, 1.6465727090835571, 1.3329263925552368, 
413, 1588256107, -89.51762390136719, -21.5639591217041, -30.610815048217773, 3.1562414169311523, -8.959437370300293, 0.8066830039024353, 0.9558207392692566, 1.467055320739746, 1.0212651491165161, 
414, 1588264440, -89.52073669433594, -21.56669807434082, -30.608806610107422, 3.0335206985473633, -9.202168464660645, -1.276482105255127, 1.2882167100906372, 0.7678378820419312, 0.22622491419315338, 
415, 1588272773, -89.52210235595703, -21.57601547241211, -30.59965705871582, 3.6017637252807617, -9.361682891845703, 0.2960987687110901, 1.7616446018218994, 0.10138113796710968, -0.5585312247276306, 
416, 1588281106, -89.52287292480469, -21.577983856201172, -30.595888137817383, 4.17567777633667, -9.017234802246094, -0.12291542440652847, 1.5930519104003906, 0.7116659879684448, 0.2840106785297394, 
417, 1588289439, -89.51558685302734, -21.570945739746094, -30.602827072143555, 4.042210102081299, -8.660475730895996, 0.7740259766578674, 2.0865867137908936, 1.912896752357483, 1.3536611795425415, 
418, 1588297772, -89.51844787597656, -21.566070556640625, -30.603734970092773, 3.452115774154663, -8.819498062133789, 0.8071226477622986, 1.0500811338424683, 1.460549235343933, 1.1323541402816772, 
419, 1588306105, -89.5191650390625, -21.564523696899414, -30.61005401611328, 3.1054131984710693, -9.195552825927734, -0.9675366878509521, 1.1541774272918701, 1.8377445936203003, 0.6973475217819214, 
420, 1588314438, -89.52462005615234, -21.573440551757812, -30.593107223510742, 3.2717673778533936, -9.37747859954834, 0.027145184576511383, 1.4469736814498901, -0.3496214747428894, -0.5073027014732361, 
421, 1588322771, -89.52249145507812, -21.57880210876465, -30.593414306640625, 3.8941361904144287, -9.077276229858398, -0.4906415045261383, 1.7694697380065918, 1.14614737033844, -0.09182703495025635, 
422, 1588331104, -89.51834869384766, -21.574310302734375, -30.596508026123047, 4.078166484832764, -8.821393013000488, 0.9537937045097351, 1.8778947591781616, 1.4814121723175049, 1.0522456169128418, 
423, 1588339437, -89.51986694335938, -21.567913055419922, -30.599220275878906, 3.783921241760254, -8.7390775680542, 0.2021346390247345, 1.217406153678894, 1.4404549598693848, 1.2811087369918823, 
424, 1588347770, -89.52276611328125, -21.56422996520996, -30.607786178588867, 3.1477885246276855, -9.007305145263672, 0.1936587691307068, 0.7929399609565735, 2.0952444076538086, 0.9860968589782715, 
425, 1588356103, -89.52970123291016, -21.570167541503906, -30.59477424621582, 3.1067159175872803, -9.211057662963867, -0.7033104300498962, 1.2614754438400269, -0.3266199231147766, -0.18382054567337036, 
426, 1588364436, -89.52676391601562, -21.578081130981445, -30.592721939086914, 3.7382233142852783, -9.241495132446289, -0.0788179486989975, 1.9599754810333252, 0.8993157744407654, -0.39762255549430847, 
427, 1588372769, -89.52606201171875, -21.5767765045166, -30.590682983398438, 4.211231708526611, -8.983664512634277, 0.5986247062683105, 1.7353384494781494, 0.7979090213775635, 0.7105132341384888, 
428, 1588381102, -89.52304077148438, -21.570301055908203, -30.594633102416992, 3.940913677215576, -8.759581565856934, 0.0633922591805458, 1.7081620693206787, 1.579629898071289, 1.2899584770202637, 
429, 1588389435, -89.5272445678711, -21.566232681274414, -30.597639083862305, 3.194483518600464, -8.867389678955078, 0.7817255258560181, 0.882768988609314, 1.471358299255371, 1.0020031929016113, 
430, 1588397768, -89.53112030029297, -21.56923484802246, -30.59467887878418, 3.003943681716919, -9.170581817626953, -1.1526018381118774, 1.1871941089630127, 0.796602725982666, 0.195257306098938, 
431, 1588406101, -89.53253936767578, -21.578433990478516, -30.586389541625977, 3.575739622116089, -9.293230056762695, 0.18728116154670715, 1.7134385108947754, 0.1983053982257843, -0.5802520513534546, 
432, 1588414434, -89.53273010253906, -21.579885482788086, -30.580810546875, 4.1992926597595215, -9.083436012268066, 0.002131718909367919, 1.7058823108673096, 0.6073647141456604, 0.3800640404224396, 
433, 1588422767, -89.52493286132812, -21.573484420776367, -30.5895938873291, 4.014210224151611, -8.716386795043945, 0.6557347774505615, 2.0554144382476807, 2.1520824432373047, 1.3120124340057373, 
434, 1588431100, -89.52709197998047, -21.56790542602539, -30.591150283813477, 3.390030860900879, -8.89348316192627, 0.6812202334403992, 1.1923940181732178, 1.3098351955413818, 1.1861439943313599, 
435, 1588439433, -89.5279312133789, -21.567216873168945, -30.59697723388672, 3.0410683155059814, -9.226861000061035, -1.0227373838424683, 1.1619129180908203, 1.781803011894226, 0.5921242833137512, 
436, 1588447766, -89.53176879882812, -21.57634735107422, -30.583234786987305, 3.2987468242645264, -9.35694694519043, 0.1682407408952713, 1.6103157997131348, -0.26573488116264343, -0.5333012342453003, 
437, 1588456099, -89.52994537353516, -21.582155227661133, -30.58279800415039, 4.012361526489258, -9.076756477355957, -0.5289297699928284, 1.7587757110595703, 1.0771554708480835, -0.17880016565322876, 
438, 1588464432, -89.5244140625, -21.577585220336914, -30.587533950805664, 4.186803340911865, -8.791940689086914, 1.0535718202590942, 1.9700419902801514, 1.6692540645599365, 1.093164324760437, 
439, 1588472765, -89.52599334716797, -21.572063446044922, -30.590036392211914, 3.730975389480591, -8.787975311279297, 0.2186080366373062, 1.1695458889007568, 1.540644884109497, 1.2103238105773926, 
440, 1588481098, -89.52732849121094, -21.568300247192383, -30.599729537963867, 3.106490135192871, -9.032044410705566, 0.07496653497219086, 0.9300273060798645, 2.217526912689209, 0.9600984454154968, 
441, 1588489431, -89.53369903564453, -21.573633193969727, -30.587209701538086, 3.0913872718811035, -9.241474151611328, -0.6149657368659973, 1.3085287809371948, -0.2708320915699005, -0.11181893944740295, 
442, 1588497764, -89.52962493896484, -21.58110237121582, -30.583818435668945, 3.707007884979248, -9.209022521972656, -0.1643039584159851, 2.029620885848999, 1.0804853439331055, -0.3447036147117615, 
443, 1588506097, -89.52813720703125, -21.57850456237793, -30.579784393310547, 4.2130126953125, -9.00019645690918, 0.6857872009277344, 1.8735533952713013, 0.683541476726532, 0.8328725099563599, 
444, 1588514430, -89.52416229248047, -21.57134246826172, -30.585054397583008, 3.9540131092071533, -8.6903076171875, 0.06822697073221207, 1.8121559619903564, 1.6088812351226807, 1.4051201343536377, 
445, 1588522763, -89.5285873413086, -21.567428588867188, -30.584739685058594, 3.217543840408325, -8.908266067504883, 0.9007520079612732, 0.8991109728813171, 1.3689528703689575, 1.0183964967727661, 
446, 1588531096, -89.53091430664062, -21.569873809814453, -30.582752227783203, 3.0449438095092773, -9.159480094909668, -1.2237012386322021, 1.326509952545166, 0.9072563052177429, 0.22584068775177002, 
447, 1588539429, -89.53255462646484, -21.578458786010742, -30.57274627685547, 3.584902048110962, -9.3673734664917, 0.23337019979953766, 1.7609915733337402, 0.008542347699403763, -0.5042930841445923, 
448, 1588547762, -89.53358459472656, -21.579734802246094, -30.568275451660156, 4.179622173309326, -9.040423393249512, -0.11848928034305573, 1.578964114189148, 0.6828243136405945, 0.3993515372276306, 
449, 1588556095, -89.5263900756836, -21.573524475097656, -30.57516098022461, 4.030272006988525, -8.699483871459961, 0.6225252747535706, 2.0787487030029297, 1.9042390584945679, 1.256659984588623, 
450, 1588564428, -89.52853393554688, -21.569164276123047, -30.577463150024414, 3.4116101264953613, -8.87043571472168, 0.6605201959609985, 1.1926243305206299, 1.31349778175354, 1.0730570554733276, 
451, 1588572761, -89.52871704101562, -21.568437576293945, -30.58290672302246, 3.0624966621398926, -9.150957107543945, -0.9634098410606384, 1.2468241453170776, 1.7666393518447876, 0.6314420700073242, 
452, 1588581094, -89.53350830078125, -21.577892303466797, -30.57037353515625, 3.353116989135742, -9.308659553527832, 0.24730955064296722, 1.4968957901000977, -0.27777358889579773, -0.6053540110588074, 
453, 1588589427, -89.53205871582031, -21.582141876220703, -30.56911277770996, 3.9889960289001465, -9.066540718078613, -0.33018121123313904, 1.7488118410110474, 0.9876848459243774, 0.006531629711389542, 
454, 1588597760, -89.52731323242188, -21.57565689086914, -30.57501792907715, 4.108806133270264, -8.839893341064453, 0.9865019917488098, 1.8679695129394531, 1.7016304731369019, 1.324537754058838, 
455, 1588606093, -89.5279541015625, -21.56894874572754, -30.578845977783203, 3.7144124507904053, -8.829436302185059, 0.14655517041683197, 1.271541953086853, 1.5656191110610962, 1.3192611932754517, 
456, 1588614426, -89.52825927734375, -21.565946578979492, -30.588340759277344, 3.068229913711548, -9.09592342376709, -0.059794120490550995, 1.1070985794067383, 2.0872273445129395, 0.9037214517593384, 
457, 1588622759, -89.53455352783203, -21.57335662841797, -30.576202392578125, 3.068655490875244, -9.200987815856934, -0.5401755571365356, 1.3184670209884644, -0.27359843254089355, -0.3284641206264496, 
458, 1588631092, -89.5302963256836, -21.581212997436523, -30.575151443481445, 3.8481225967407227, -9.184479713439941, -0.2327469289302826, 2.0742409229278564, 1.0082532167434692, -0.4242614209651947, 
459, 1588639425, -89.52783203125, -21.578638076782227, -30.57262420654297, 4.232517242431641, -8.879716873168945, 0.7972241640090942, 1.927138328552246, 0.8529284596443176, 0.8281082510948181, 
460, 1588647758, -89.52571868896484, -21.57242202758789, -30.575164794921875, 3.9053385257720947, -8.73267936706543, 0.07892519980669022, 1.6424614191055298, 1.472562551498413, 1.2931859493255615, 
461, 1588656091, -89.52972412109375, -21.56768798828125, -30.57948112487793, 3.2199127674102783, -8.911246299743652, 0.787137508392334, 0.8491119742393494, 1.6181538105010986, 1.081484317779541, 
462, 1588664424, -89.53375244140625, -21.57071876525879, -30.576520919799805, 3.087954044342041, -9.18904972076416, -1.2370842695236206, 1.2117069959640503, 0.6944786906242371, 0.19000639021396637, 
463, 1588672757, -89.53439331054688, -21.579757690429688, -30.568603515625, 3.5095925331115723, -9.304454803466797, 0.2760971784591675, 1.7941234111785889, 0.23654747009277344, -0.5266414880752563, 
464, 1588681090, -89.535888671875, -21.581687927246094, -30.56487464904785, 4.12424898147583, -9.04692554473877, -0.08265771716833115, 1.5035555362701416, 0.7156872749328613, 0.28869807720184326, 
465, 1588689423, -89.52891540527344, -21.575233459472656, -30.572477340698242, 4.032982349395752, -8.662073135375977, 0.6344943046569824, 2.0181198120117188, 1.986281394958496, 1.2840158939361572, 
466, 1588697756, -89.53111267089844, -21.570636749267578, -30.572559356689453, 3.487271308898926, -8.803383827209473, 0.7334741950035095, 1.1572767496109009, 1.3927996158599854, 1.100233793258667, 
467, 1588706089, -89.53115844726562, -21.56966209411621, -30.578716278076172, 3.060925006866455, -9.204045295715332, -0.9790274500846863, 1.2402924299240112, 1.8195583820343018, 0.6299052834510803, 
468, 1588714422, -89.53553009033203, -21.577848434448242, -30.566390991210938, 3.306344509124756, -9.332185745239258, 0.1388724446296692, 1.5388264656066895, -0.24877825379371643, -0.42075222730636597, 
469, 1588722755, -89.53317260742188, -21.58220672607422, -30.56665802001953, 3.9515299797058105, -9.099370002746582, -0.5642812848091125, 1.8100298643112183, 1.111350178718567, 0.026843717321753502, 
470, 1588731088, -89.52754974365234, -21.577640533447266, -30.572166442871094, 4.139701843261719, -8.860307693481445, 1.077946662902832, 1.950933814048767, 1.750246286392212, 1.0601218938827515, 
471, 1588739421, -89.5286636352539, -21.571758270263672, -30.57483673095703, 3.7090046405792236, -8.8165922164917, 0.17732158303260803, 1.2663676738739014, 1.436190128326416, 1.2196985483169556, 
472, 1588747754, -89.52909088134766, -21.56902313232422, -30.584217071533203, 3.116844415664673, -9.043089866638184, 0.0421687476336956, 1.091729998588562, 2.093169689178467, 0.8715243935585022, 
473, 1588756087, -89.5356674194336, -21.5756893157959, -30.57172203063965, 3.137608766555786, -9.199922561645508, -0.47465550899505615, 1.2819668054580688, -0.26911595463752747, -0.2705247104167938, 
474, 1588764420, -89.53060913085938, -21.583431243896484, -30.57026481628418, 3.8243298530578613, -9.145903587341309, -0.09653154760599136, 2.184330701828003, 0.9779770970344543, -0.37897545099258423, 
475, 1588772753, -89.52869415283203, -21.580936431884766, -30.566415786743164, 4.2375054359436035, -8.965971946716309, 0.6590449810028076, 1.878906488418579, 0.8080010414123535, 0.8531332612037659, 
476, 1588781086, -89.52481079101562, -21.57378387451172, -30.570491790771484, 3.89638352394104, -8.671659469604492, 0.10621294379234314, 1.8060085773468018, 1.5949472188949585, 1.3718472719192505, 
477, 1588789419, -89.52825927734375, -21.56963539123535, -30.574033737182617, 3.192556142807007, -8.979686737060547, 0.7368132472038269, 0.9457287192344666, 1.532038688659668, 1.0115317106246948, 
478, 1588797752, -89.53086853027344, -21.5720157623291, -30.571813583374023, 3.0360958576202393, -9.205123901367188, -1.2094385623931885, 1.3392657041549683, 0.8005728125572205, 0.26720768213272095, 
479, 1588806085, -89.5317611694336, -21.580881118774414, -30.563566207885742, 3.539459228515625, -9.367650032043457, 0.15730084478855133, 1.7752459049224854, 0.2032233625650406, -0.5389619469642639, 
480, 1588814418, -89.53276062011719, -21.5832576751709, -30.5580997467041, 4.170472621917725, -8.989124298095703, -0.003896428272128105, 1.6410783529281616, 0.519021213054657, 0.2708449065685272, 
481, 1588822751, -89.524658203125, -21.577728271484375, -30.568313598632812, 4.076809406280518, -8.685872077941895, 0.6782649159431458, 2.1547720432281494, 1.992966651916504, 1.2055083513259888, 
482, 1588831084, -89.5268325805664, -21.57224464416504, -30.57018280029297, 3.4543943405151367, -8.814224243164062, 0.8335646390914917, 1.1730806827545166, 1.3453620672225952, 1.1740286350250244, 
483, 1588839417, -89.5265884399414, -21.571155548095703, -30.57759666442871, 3.0867669582366943, -9.211258888244629, -1.0807040929794312, 1.222055196762085, 1.959181547164917, 0.641047477722168, 
484, 1588847750, -89.5316162109375, -21.579809188842773, -30.564062118530273, 3.2552084922790527, -9.310907363891602, 0.09982522577047348, 1.5046569108963013, -0.3583303391933441, -0.47564348578453064, 
485, 1588856083, -89.53082275390625, -21.583772659301758, -30.562835693359375, 3.907456398010254, -9.115124702453613, -0.527042806148529, 1.6687417030334473, 0.9922955632209778, 0.04149506241083145, 
486, 1588864416, -89.52727508544922, -21.5793399810791, -30.566978454589844, 4.144138813018799, -8.777750968933105, 1.0436067581176758, 1.8183035850524902, 1.458705186843872, 1.0808439254760742, 
487, 1588872749, -89.52870178222656, -21.572885513305664, -30.570167541503906, 3.8027503490448, -8.797541618347168, 0.15609538555145264, 1.2334790229797363, 1.4244844913482666, 1.3229496479034424, 
488, 1588881082, -89.5322036743164, -21.568845748901367, -30.577566146850586, 3.123722553253174, -9.0378999710083, 0.27293264865875244, 0.7732170224189758, 1.9621787071228027, 0.9946008324623108, 
489, 1588889415, -89.53875732421875, -21.57392120361328, -30.56572914123535, 3.080228805541992, -9.244871139526367, -0.6888616681098938, 1.2553280591964722, -0.19427116215229034, -0.08095379173755646, 
490, 1588897748, -89.53492736816406, -21.58238983154297, -30.562593460083008, 3.728116750717163, -9.265718460083008, -0.11152151226997375, 2.0874581336975098, 0.8432207107543945, -0.4649624228477478, 
491, 1588906081, -89.53468322753906, -21.58120346069336, -30.557621002197266, 4.222297668457031, -9.022804260253906, 0.5521569848060608, 1.7687911987304688, 0.5788817405700684, 0.664074718952179, 
492, 1588914414, -89.52984619140625, -21.574430465698242, -30.562061309814453, 3.9796886444091797, -8.697932243347168, 0.0624101497232914, 1.9178147315979004, 1.6024010181427002, 1.3595268726348877, 
493, 1588922747, -89.53199005126953, -21.570791244506836, -30.566511154174805, 3.2298736572265625, -8.871221542358398, 0.8723608255386353, 1.113783597946167, 1.5137242078781128, 0.9844318628311157, 
494, 1588931080, -89.53487396240234, -21.57242202758789, -30.567020416259766, 3.0706629753112793, -9.203600883483887, -1.2631990909576416, 1.151334285736084, 1.1846840381622314, 0.32010114192962646, 
495, 1588939413, -89.53565979003906, -21.581180572509766, -30.557823181152344, 3.49499773979187, -9.312564849853516, 0.42450812458992004, 1.8289591073989868, 0.09812813997268677, -0.525719404220581, 
496, 1588947746, -89.5377426147461, -21.582616806030273, -30.55378532409668, 4.125988483428955, -9.09776496887207, -0.28132131695747375, 1.4425938129425049, 0.6960412859916687, 0.38160091638565063, 
497, 1588956079, -89.5303955078125, -21.575624465942383, -30.56178092956543, 4.073840141296387, -8.705382347106934, 0.8671397566795349, 2.0496766567230225, 2.0297486782073975, 1.34915292263031, 
498, 1588964412, -89.53187561035156, -21.569608688354492, -30.568016052246094, 3.5065252780914307, -8.875441551208496, 0.546292781829834, 1.2007954120635986, 1.4962555170059204, 1.2690829038619995, 
499, 1588972745, -89.53175354003906, -21.56775665283203, -30.57516098022461, 3.0731167793273926, -9.145910263061523, -0.7284478545188904, 1.1980546712875366, 1.988023281097412, 0.7658401131629944, 
500, 1588981078, -89.53731536865234, -21.57576560974121, -30.561180114746094, 3.2115836143493652, -9.34390926361084, -0.12479565292596817, 1.4662612676620483, -0.4369148015975952, -0.4305880665779114, 
501, 1588989411, -89.53301239013672, -21.582372665405273, -30.56087875366211, 3.9004130363464355, -9.069100379943848, -0.45636287331581116, 2.0479605197906494, 1.0932412147521973, -0.2764928340911865, 
502, 1588997744, -89.52930450439453, -21.579601287841797, -30.562490463256836, 4.173830986022949, -8.832544326782227, 0.9940134882926941, 1.8892549276351929, 1.3250243663787842, 0.8815908432006836, 
503, 1589006077, -89.5289306640625, -21.571514129638672, -30.56608772277832, 3.8664655685424805, -8.7138090133667, 0.17636224627494812, 1.4044283628463745, 1.540055751800537, 1.4837045669555664, 
504, 1589014410, -89.53121185302734, -21.56766128540039, -30.572954177856445, 3.147700071334839, -8.96288776397705, 0.5104666948318481, 0.8722160458564758, 2.0868430137634277, 1.0048720836639404, 
505, 1589022743, -89.53611755371094, -21.57134246826172, -30.563451766967773, 3.068791389465332, -9.204142570495605, -1.0025138854980469, 1.3500494956970215, 0.06654577702283859, 0.0836048573255539, 
506, 1589031076, -89.53386688232422, -21.579504013061523, -30.560108184814453, 3.6085317134857178, -9.319412231445312, -0.01920432597398758, 1.9924545288085938, 0.6118985414505005, -0.42359545826911926, 
507, 1589039409, -89.53424835205078, -21.579713821411133, -30.555023193359375, 4.2104082107543945, -8.983570098876953, 0.3304312527179718, 1.7414606809616089, 0.4612099826335907, 0.5294719338417053, 
508, 1589047742, -89.52783203125, -21.571924209594727, -30.560562133789062, 4.018129348754883, -8.650019645690918, 0.32834330201148987, 2.043170928955078, 1.758007526397705, 1.4470250606536865, 
509, 1589056075, -89.53083038330078, -21.567119598388672, -30.562313079833984, 3.3220365047454834, -8.812673568725586, 1.026735782623291, 1.0820220708847046, 1.3323500156402588, 1.0913969278335571, 
510, 1589064408, -89.5320816040039, -21.568096160888672, -30.567197799682617, 3.0235838890075684, -9.255353927612305, -1.2879199981689453, 1.2069170475006104, 1.5479450225830078, 0.4301142394542694, 
511, 1589072741, -89.53556060791016, -21.576570510864258, -30.55646324157715, 3.3874289989471436, -9.389579772949219, 0.23002827167510986, 1.5768378973007202, -0.07475513964891434, -0.48916786909103394, 
512, 1589081074, -89.53419494628906, -21.580129623413086, -30.554475784301758, 4.103006839752197, -9.112401008605957, -0.4677068293094635, 1.7606968879699707, 0.9355087280273438, 0.12461325526237488, 
513, 1589089407, -89.52715301513672, -21.574310302734375, -30.565134048461914, 4.135362148284912, -8.739261627197266, 0.816132128238678, 2.0222949981689453, 1.9974491596221924, 1.2405998706817627, 
514, 1589097740, -89.5280532836914, -21.567874908447266, -30.568340301513672, 3.570620536804199, -8.828354835510254, 0.43246257305145264, 1.2692877054214478, 1.4954103231430054, 1.287115216255188, 
515, 1589106073, -89.52766418457031, -21.565113067626953, -30.577356338500977, 3.0977582931518555, -9.088939666748047, -0.45942336320877075, 1.1663954257965088, 2.1406071186065674, 0.8395833373069763, 
516, 1589114406, -89.5317611694336, -21.572473526000977, -30.563522338867188, 3.1842596530914307, -9.219528198242188, -0.13297134637832642, 1.5833183526992798, -0.2709345519542694, -0.320984810590744, 
517, 1589122739, -89.52789306640625, -21.579208374023438, -30.562593460083008, 3.819120168685913, -9.154989242553711, -0.28940293192863464, 2.022423267364502, 1.0214701890945435, -0.2901965081691742, 
518, 1589131072, -89.5246810913086, -21.57697105407715, -30.56137466430664, 4.188816070556641, -8.950725555419922, 1.0001364946365356, 1.9844884872436523, 0.9310005903244019, 0.8195273876190186, 
519, 1589139405, -89.52272033691406, -21.569429397583008, -30.566736221313477, 3.8396308422088623, -8.788726806640625, 0.02550787292420864, 1.591924786567688, 1.549943208694458, 1.4530956745147705, 
520, 1589147738, -89.52448272705078, -21.565185546875, -30.57434844970703, 3.1816182136535645, -8.972951889038086, 0.6215869188308716, 0.9754413366317749, 1.9840019941329956, 1.0184733867645264, 
521, 1589156071, -89.5290298461914, -21.569244384765625, -30.56780242919922, 3.0233922004699707, -9.21211051940918, -1.16106379032135, 1.260297179222107, 0.3978402614593506, 0.03667958453297615, 
522, 1589164404, -89.52787780761719, -21.578712463378906, -30.56000518798828, 3.614983320236206, -9.332077980041504, 0.07303211092948914, 1.9462463855743408, 0.3933834135532379, -0.5802008509635925, 
523, 1589172737, -89.52896881103516, -21.579999923706055, -30.55443572998047, 4.210344314575195, -9.019396781921387, 0.10893234610557556, 1.6366217136383057, 0.509492814540863, 0.3670007884502411, 
524, 1589181070, -89.52205657958984, -21.572282791137695, -30.56039047241211, 4.026462554931641, -8.617369651794434, 0.5851538777351379, 2.085638999938965, 1.801602840423584, 1.4716657400131226, 
525, 1589189403, -89.52424621582031, -21.566530227661133, -30.562929153442383, 3.374037027359009, -8.896774291992188, 0.9664991497993469, 1.1596075296401978, 1.3878302574157715, 1.2378590106964111, 
526, 1589197736, -89.52404022216797, -21.564882278442383, -30.56937599182129, 3.1334171295166016, -9.23247241973877, -1.189918041229248, 1.2589142322540283, 1.8511666059494019, 0.708669126033783, 
527, 1589206069, -89.528076171875, -21.573030471801758, -30.556367874145508, 3.2925264835357666, -9.406266212463379, 0.24795955419540405, 1.6093934774398804, -0.3271065652370453, -0.4494401812553406, 
528, 1589214402, -89.52775573730469, -21.578868865966797, -30.554786682128906, 3.9454572200775146, -9.054154396057129, -0.5005766153335571, 1.6562163829803467, 0.8781327605247498, -0.14813992381095886, 
529, 1589222735, -89.52271270751953, -21.5747127532959, -30.55995750427246, 4.143031120300293, -8.815118789672852, 0.906433641910553, 1.8979893922805786, 1.7126191854476929, 1.012479543685913, 
530, 1589231068, -89.52371978759766, -21.568931579589844, -30.55870819091797, 3.796970844268799, -8.745697021484375, 0.286501944065094, 1.2786113023757935, 1.44991934299469, 1.2402156591415405, 
531, 1589239401, -89.5257339477539, -21.56612777709961, -30.56621742248535, 3.100593328475952, -9.009283065795898, 0.0747353732585907, 0.8487277626991272, 2.224673271179199, 0.8792855143547058, 
532, 1589247734, -89.5326156616211, -21.571626663208008, -30.552751541137695, 3.0681474208831787, -9.227790832519531, -0.5849165916442871, 1.2878581285476685, -0.3770543336868286, -0.1320798099040985, 
533, 1589256067, -89.52936553955078, -21.57921028137207, -30.551856994628906, 3.7277793884277344, -9.269153594970703, -0.2469816505908966, 1.9475785493850708, 1.0243902206420898, -0.3913983702659607, 
534, 1589264400, -89.52871704101562, -21.577299118041992, -30.548095703125, 4.219256401062012, -8.965520858764648, 0.7883926033973694, 1.795813798904419, 0.6271389126777649, 0.7826941609382629, 
535, 1589272733, -89.52571868896484, -21.569929122924805, -30.551795959472656, 3.9919185638427734, -8.738698959350586, -0.009075656533241272, 1.718740701675415, 1.549635648727417, 1.398665428161621, 
536, 1589281066, -89.52926635742188, -21.565855026245117, -30.55779457092285, 3.21525502204895, -8.853230476379395, 0.964349091053009, 0.9199864864349365, 1.5698963403701782, 1.035711407661438, 
537, 1589289399, -89.53166961669922, -21.56853485107422, -30.55605697631836, 3.026174306869507, -9.180987358093262, -1.3036555051803589, 1.3018306493759155, 0.9536820650100708, 0.2283381074666977, 
538, 1589297732, -89.53273010253906, -21.577178955078125, -30.547399520874023, 3.5031564235687256, -9.277313232421875, 0.3574063777923584, 1.7731837034225464, 0.15730983018875122, -0.510491669178009, 
539, 1589306065, -89.5350341796875, -21.58012580871582, -30.542171478271484, 4.200535774230957, -9.046822547912598, -0.19572323560714722, 1.4720243215560913, 0.5441744327545166, 0.1686697155237198, 
540, 1589314398, -89.5267333984375, -21.573732376098633, -30.55152130126953, 4.084518909454346, -8.708695411682129, 0.7131022810935974, 2.102391004562378, 2.1901450157165527, 1.3060442209243774, 
541, 1589322731, -89.52942657470703, -21.56756591796875, -30.5518798828125, 3.4190754890441895, -8.865059852600098, 0.6468122601509094, 1.1787928342819214, 1.1761544942855835, 1.2586324214935303, 
542, 1589331064, -89.52832794189453, -21.56583023071289, -30.561302185058594, 3.0260279178619385, -9.190610885620117, -0.917766273021698, 1.2998712062835693, 2.02380633354187, 0.7497287392616272, 
543, 1589339397, -89.53324890136719, -21.57491111755371, -30.546672821044922, 3.239377975463867, -9.37196159362793, 0.0774804875254631, 1.5685389041900635, -0.48468533158302307, -0.5261547565460205, 
544, 1589347730, -89.5306625366211, -21.580114364624023, -30.54717445373535, 3.9450089931488037, -9.043325424194336, -0.42201486229896545, 1.8072123527526855, 1.1825065612792969, -0.10918067395687103, 
545, 1589356063, -89.52749633789062, -21.576093673706055, -30.549774169921875, 4.185547351837158, -8.81260871887207, 1.0118979215621948, 1.7835959196090698, 1.426405429840088, 0.9995443224906921, 
546, 1589364396, -89.52828979492188, -21.568758010864258, -30.551273345947266, 3.836568593978882, -8.767609596252441, 0.23078294098377228, 1.2546108961105347, 1.572995901107788, 1.425252914428711, 
547, 1589372729, -89.53076171875, -21.564430236816406, -30.559906005859375, 3.151198625564575, -8.98391056060791, 0.32281240820884705, 0.8423497080802917, 2.098318338394165, 1.0290775299072266, 
548, 1589381062, -89.53611755371094, -21.569616317749023, -30.550003051757812, 3.0227842330932617, -9.193120956420898, -0.8013616800308228, 1.3342454433441162, -0.02242526039481163, -0.061461351811885834, 
549, 1589389395, -89.53308868408203, -21.57917594909668, -30.54600715637207, 3.6830432415008545, -9.287986755371094, -0.196817085146904, 2.0597941875457764, 0.6771634817123413, -0.5953388810157776, 
550, 1589397728, -89.53242492675781, -21.578832626342773, -30.541440963745117, 4.2010884284973145, -8.95435905456543, 0.420613169670105, 1.8046510219573975, 0.6193010210990906, 0.562975287437439, 
551, 1589406061, -89.52728271484375, -21.57132911682129, -30.546037673950195, 3.9945716857910156, -8.700944900512695, 0.14748479425907135, 1.9325426816940308, 1.6529121398925781, 1.4133422374725342, 
552, 1589414394, -89.53076934814453, -21.56696128845215, -30.547054290771484, 3.2855398654937744, -8.836454391479492, 1.1276882886886597, 1.0283089876174927, 1.3150092363357544, 1.0740816593170166, 
553, 1589422727, -89.5325698852539, -21.5676212310791, -30.54987907409668, 3.098593235015869, -9.245908737182617, -1.2527196407318115, 1.1775375604629517, 1.4460259675979614, 0.43539077043533325, 
554, 1589431060, -89.53528594970703, -21.576587677001953, -30.53693199157715, 3.41054630279541, -9.369627952575684, 0.4400111734867096, 1.673275351524353, -0.08848436921834946, -0.5163957476615906, 
555, 1589439393, -89.5363998413086, -21.579689025878906, -30.532493591308594, 4.080763816833496, -9.10619068145752, -0.4226161241531372, 1.5518126487731934, 0.7225263118743896, 0.17927402257919312, 
556, 1589447726, -89.53047180175781, -21.57337188720703, -30.539640426635742, 4.070150375366211, -8.78582763671875, 0.7738200426101685, 1.9155607223510742, 1.9367437362670898, 1.2690060138702393, 
557, 1589456059, -89.53211212158203, -21.567590713500977, -30.5426025390625, 3.602609634399414, -8.795825004577637, 0.46685653924942017, 1.1909081935882568, 1.4661331176757812, 1.2075061798095703, 
558, 1589464392, -89.53140258789062, -21.56535530090332, -30.55175018310547, 3.065964698791504, -9.115586280822754, -0.5403579473495483, 1.193008542060852, 2.176492691040039, 0.8098964691162109, 
559, 1589472725, -89.53617858886719, -21.572914123535156, -30.538461685180664, 3.201648235321045, -9.208634376525879, -0.06801638007164001, 1.5332680940628052, -0.3602770268917084, -0.3780020773410797, 
560, 1589481058, -89.53196716308594, -21.57900047302246, -30.539026260375977, 3.865919351577759, -9.133013725280762, -0.5343425273895264, 1.9861021041870117, 1.2216708660125732, -0.1806187629699707, 
561, 1589489391, -89.52865600585938, -21.575090408325195, -30.538902282714844, 4.1750640869140625, -8.87054443359375, 1.1678959131240845, 1.8629746437072754, 1.2780479192733765, 1.015809416770935, 
562, 1589497724, -89.52899932861328, -21.568445205688477, -30.541494369506836, 3.810407876968384, -8.821555137634277, -0.10491103678941727, 1.3612685203552246, 1.428249716758728, 1.3135747909545898, 
563, 1589506057, -89.53166198730469, -21.564373016357422, -30.548681259155273, 3.156184434890747, -8.98891830444336, 0.6506115198135376, 0.8816675543785095, 1.9380241632461548, 0.9990319609642029, 
564, 1589514390, -89.5372085571289, -21.56951904296875, -30.538551330566406, 3.02555251121521, -9.256501197814941, -1.0855655670166016, 1.274282455444336, 0.0684412345290184, -0.057593610137701035, 
565, 1589522723, -89.53372955322266, -21.578542709350586, -30.534257888793945, 3.7030410766601562, -9.234204292297363, 0.10619217157363892, 2.126519203186035, 0.643352746963501, -0.5634235143661499, 
566, 1589531056, -89.53414916992188, -21.57858657836914, -30.52733612060547, 4.276112079620361, -8.954133033752441, 0.2093091607093811, 1.771864652633667, 0.38180577754974365, 0.5508341789245605, 
567, 1589539389, -89.52784729003906, -21.57168197631836, -30.533275604248047, 4.020516872406006, -8.637530326843262, 0.4337840676307678, 2.00884747505188, 1.809799313545227, 1.371949553489685, 
568, 1589547722, -89.53115844726562, -21.566486358642578, -30.536375045776367, 3.2907752990722656, -8.886054039001465, 0.9823421239852905, 0.9846111536026001, 1.4820395708084106, 1.1393210887908936, 
569, 1589556055, -89.53169250488281, -21.566749572753906, -30.539716720581055, 3.0415024757385254, -9.251932144165039, -1.2988619804382324, 1.3085287809371948, 1.504016637802124, 0.48216232657432556, 
570, 1589564388, -89.53440856933594, -21.577110290527344, -30.528257369995117, 3.3666434288024902, -9.412671089172363, 0.32552704215049744, 1.6904113292694092, -0.13166996836662292, -0.6837591528892517, 
571, 1589572721, -89.5350570678711, -21.580989837646484, -30.52558135986328, 3.9922287464141846, -9.078018188476562, -0.4578505754470825, 1.5609571933746338, 0.8278264999389648, 0.05555728077888489, 
572, 1589581054, -89.52738189697266, -21.576427459716797, -30.53525161743164, 4.126648426055908, -8.712285041809082, 0.8532342314720154, 2.062458038330078, 2.086535692214966, 1.0890661478042603, 
573, 1589589387, -89.52899932861328, -21.571060180664062, -30.53797721862793, 3.6484084129333496, -8.798407554626465, 0.3796551823616028, 1.1854779720306396, 1.4851133823394775, 1.1909594535827637, 
574, 1589597720, -89.52894592285156, -21.567852020263672, -30.547311782836914, 3.1505041122436523, -9.097962379455566, -0.40667662024497986, 1.1167677640914917, 2.1762750148773193, 0.8937447667121887, 
575, 1589606053, -89.53480529785156, -21.574750900268555, -30.533397674560547, 3.1794958114624023, -9.314796447753906, -0.26983383297920227, 1.4300298690795898, -0.4283468425273895, -0.2977398633956909, 
576, 1589614386, -89.5311279296875, -21.581619262695312, -30.5345516204834, 3.849111795425415, -9.124841690063477, -0.37520095705986023, 1.9351426362991333, 1.1916894912719727, -0.27519935369491577, 
577, 1589622719, -89.53002166748047, -21.578216552734375, -30.533124923706055, 4.181661605834961, -8.926395416259766, 0.9232158064842224, 1.714130163192749, 0.9769012928009033, 0.9267229437828064, 
578, 1589631052, -89.52882385253906, -21.571319580078125, -30.537748336791992, 3.8793842792510986, -8.755799293518066, 0.012200655415654182, 1.4742015600204468, 1.616591215133667, 1.3729997873306274, 
579, 1589639385, -89.53155517578125, -21.567493438720703, -30.541501998901367, 3.1611945629119873, -8.936152458190918, 0.6782828569412231, 0.9705233573913574, 1.703167200088501, 1.0042060613632202, 
580, 1589647718, -89.53605651855469, -21.571319580078125, -30.535009384155273, 3.0755937099456787, -9.133458137512207, -0.9598113894462585, 1.264497995376587, 0.40401333570480347, 0.06329277157783508, 
581, 1589656051, -89.53471374511719, -21.579477310180664, -30.529651641845703, 3.597513198852539, -9.32330322265625, 0.1292812079191208, 1.9177888631820679, 0.5256808996200562, -0.45717567205429077, 
582, 1589664384, -89.53543853759766, -21.58086395263672, -30.522830963134766, 4.198198318481445, -9.054615020751953, 0.24468763172626495, 1.7057286500930786, 0.44174307584762573, 0.3886447846889496, 
583, 1589672717, -89.5285415649414, -21.574132919311523, -30.529361724853516, 3.999757766723633, -8.763765335083008, 0.34219861030578613, 2.058487892150879, 1.8668168783187866, 1.3189538717269897, 
584, 1589681050, -89.53112030029297, -21.569665908813477, -30.530607223510742, 3.417227268218994, -8.793516159057617, 0.8856235146522522, 1.214114785194397, 1.1263346672058105, 1.0858386754989624, 
585, 1589689383, -89.53047943115234, -21.56916618347168, -30.536081314086914, 3.0511815547943115, -9.24431324005127, -1.2006334066390991, 1.3376520872116089, 1.7853635549545288, 0.6056742072105408, 
586, 1589697716, -89.53455352783203, -21.57808494567871, -30.524051666259766, 3.351893663406372, -9.327178001403809, 0.3025580942630768, 1.5616743564605713, -0.21737520396709442, -0.5415489673614502, 
587, 1589706049, -89.53367614746094, -21.582502365112305, -30.522794723510742, 4.033716201782227, -9.088884353637695, -0.5520946383476257, 1.6790645122528076, 0.9865834712982178, -0.01184658333659172, 
588, 1589714382, -89.52826690673828, -21.577646255493164, -30.529094696044922, 4.152650833129883, -8.726819038391113, 1.1190296411514282, 1.9494481086730957, 1.6966100931167603, 1.1264628171920776, 
589, 1589722715, -89.5293960571289, -21.57046890258789, -30.53276252746582, 3.672762632369995, -8.793814659118652, 0.21721673011779785, 1.2229516506195068, 1.5485341548919678, 1.37471604347229, 
590, 1589731048, -89.53009033203125, -21.56747055053711, -30.541542053222656, 3.1321146488189697, -9.039382934570312, -0.07391025125980377, 1.042191982269287, 2.1325900554656982, 0.9034909009933472, 
591, 1589739381, -89.53572845458984, -21.574392318725586, -30.528762817382812, 3.074270486831665, -9.285770416259766, -0.4767012298107147, 1.4704618453979492, -0.45863568782806396, -0.2699100077152252, 
592, 1589747714, -89.53190612792969, -21.581676483154297, -30.526926040649414, 3.7384114265441895, -9.16029167175293, -0.22366680204868317, 2.0569000244140625, 0.9208829402923584, -0.35333555936813354, 
593, 1589756047, -89.5297622680664, -21.579509735107422, -30.523107528686523, 4.234518051147461, -8.95207405090332, 0.6502013206481934, 1.9449145793914795, 0.7071834206581116, 0.7789545059204102, 
594, 1589764380, -89.52656555175781, -21.572582244873047, -30.52708625793457, 3.9426932334899902, -8.637972831726074, 0.09478447586297989, 1.7279874086380005, 1.5792200565338135, 1.377174973487854, 
595, 1589772713, -89.52957153320312, -21.567859649658203, -30.53162956237793, 3.2153332233428955, -8.921030044555664, 0.7773541808128357, 0.9583821892738342, 1.64194917678833, 1.0810743570327759, 
596, 1589781046, -89.53311157226562, -21.569997787475586, -30.528438568115234, 3.014122247695923, -9.2500638961792, -1.1758558750152588, 1.257825493812561, 0.7125752568244934, 0.2970098853111267, 
597, 1589789379, -89.53346252441406, -21.579450607299805, -30.52059555053711, 3.532686948776245, -9.377849578857422, 0.18283818662166595, 1.8428032398223877, 0.20946039259433746, -0.5779595971107483, 
598, 1589797712, -89.5343246459961, -21.580873489379883, -30.51584815979004, 4.185387134552002, -9.055371284484863, -0.058200813829898834, 1.6226617097854614, 0.6008586883544922, 0.35145291686058044, 
599, 1589806045, -89.52764892578125, -21.574424743652344, -30.521854400634766, 4.0850982666015625, -8.697250366210938, 0.565636157989502, 2.058821201324463, 1.8067513704299927, 1.285552978515625, 
600, 1589814378, -89.53072357177734, -21.56905746459961, -30.52407455444336, 3.423146963119507, -8.83503246307373, 0.7872240543365479, 1.0996830463409424, 1.260565996170044, 1.1923041343688965, 
601, 1589822711, -89.53070831298828, -21.567493438720703, -30.530208587646484, 3.08904767036438, -9.179198265075684, -1.0157274007797241, 1.2489628791809082, 1.8184953927993774, 0.7000498175621033, 
602, 1589831044, -89.53514099121094, -21.57635498046875, -30.51714515686035, 3.284006118774414, -9.309231758117676, 0.140403151512146, 1.5538618564605713, -0.3025169372558594, -0.5016675591468811, 
