sep=,
PacketCounter,SampleTimeFine,Euler_X,Euler_Y,Euler_Z,Acc_X,Acc_Y,Acc_Z,Gyr_X,Gyr_Y,Gyr_Z,Mag_X,Mag_Y,Mag_Z,Status,
0, 1584981238, -98.69642639160156, 63.56663131713867, -100.8960189819336, 0, 0, 0, 0, 0, 0, -0.0390625, 0.29736328125, -0.18798828125, 0, 
1, 1584989571, -98.70147705078125, 63.56814193725586, -100.90043640136719, -8.546408653259277, -4.27573823928833, -0.6121759414672852, 1.466619849205017, -0.8916698694229126, 0.1863691806793213, -0.04150390625, 0.2998046875, -0.19384765625, 0, 
2, 1584997904, -98.7033462524414, 63.57050323486328, -100.90249633789062, -9.002595901489258, -4.47186279296875, -0.5942380428314209, 1.5945886373519897, -1.0399250984191895, 0.26408278942108154, -0.04345703125, 0.29931640625, -0.19140625, 0, 
3, 1585006237, -98.70431518554688, 63.570011138916016, -100.90507507324219, -9.014422416687012, -4.312098979949951, -0.7128798961639404, 1.7604150772094727, -0.9572936296463013, -0.07116915285587311, -0.0400390625, 0.29638671875, -0.19580078125, 0, 
4, 1585014570, -98.70052337646484, 63.56764221191406, -100.9004898071289, -8.651331901550293, -4.116966247558594, -0.6202124953269958, 1.5612133741378784, -1.297809362411499, -0.3466246724128723, -0.0439453125, 0.2998046875, -0.19287109375, 0, 
5, 1585022903, -98.70405578613281, 63.565155029296875, -100.9032974243164, -8.314183235168457, -4.156373500823975, -0.6576438546180725, 1.4749702215194702, -0.9115722179412842, -0.3053601086139679, -0.04150390625, 0.296875, -0.18603515625, 0, 
6, 1585031236, -98.70410919189453, 63.56544494628906, -100.90377807617188, -8.311257362365723, -4.288259506225586, -0.6835811138153076, 1.6443828344345093, -1.080600619316101, 0.011552020907402039, -0.04443359375, 0.298828125, -0.19091796875, 0, 
7, 1585039569, -98.70510864257812, 63.56907653808594, -100.9058837890625, -8.837015151977539, -4.316727161407471, -0.5574992895126343, 1.702475666999817, -1.0539617538452148, 0.42073941230773926, -0.0400390625, 0.298828125, -0.193359375, 0, 
8, 1585047902, -98.70343780517578, 63.57002639770508, -100.90425109863281, -8.989213943481445, -4.408751010894775, -0.7025057077407837, 1.6256073713302612, -1.2079545259475708, 0.06764719635248184, -0.04296875, 0.29833984375, -0.19287109375, 0, 
9, 1585056235, -98.69854736328125, 63.568058013916016, -100.89987182617188, -8.900752067565918, -4.157973289489746, -0.627634584903717, 1.7155389785766602, -1.3008317947387695, -0.30144113302230835, -0.04248046875, 0.298828125, -0.189453125, 0, 
10, 1585064568, -98.69465637207031, 63.5646858215332, -100.90348815917969, -8.408085823059082, -4.144101142883301, -0.6423008441925049, 1.4784280061721802, -1.3237051963806152, -0.4756178855895996, -0.03955078125, 0.298828125, -0.1865234375, 0, 
11, 1585072901, -98.69528198242188, 63.56342315673828, -100.902587890625, -8.279279708862305, -4.232263088226318, -0.6518523097038269, 1.429248571395874, -1.1287552118301392, -0.18966060876846313, -0.04296875, 0.29833984375, -0.19775390625, 0, 
12, 1585081234, -98.6995849609375, 63.56547546386719, -100.91999053955078, -8.656177520751953, -4.260522365570068, -0.6894134879112244, 1.5266852378845215, -0.9131346344947815, 0.24899595975875854, -0.0380859375, 0.2978515625, -0.18505859375, 0, 
13, 1585089567, -98.6989974975586, 63.56742477416992, -100.90929412841797, -8.894529342651367, -4.450833320617676, -0.6540235877037048, 1.5971884727478027, -1.1686495542526245, 0.19739612936973572, -0.04052734375, 0.298828125, -0.19384765625, 0, 
14, 1585097900, -98.69940185546875, 63.566715240478516, -100.91069793701172, -8.943791389465332, -4.2741594314575195, -0.6943486928939819, 1.702168583869934, -1.017384648323059, -0.10608136653900146, -0.0400390625, 0.29833984375, -0.19091796875, 0, 
15, 1585106233, -98.69600677490234, 63.5640754699707, -100.90655517578125, -8.506647109985352, -4.1114959716796875, -0.7003044486045837, 1.5607266426086426, -1.274551510810852, -0.3786167800426483, -0.03857421875, 0.296875, -0.1923828125, 0, 
16, 1585114566, -98.69625091552734, 63.56243133544922, -100.89936065673828, -8.335611343383789, -4.152225017547607, -0.6032653450965881, 1.4808613061904907, -1.1115937232971191, -0.22741597890853882, -0.04443359375, 0.3017578125, -0.189453125, 0, 
17, 1585122899, -98.69762420654297, 63.564002990722656, -100.90013122558594, -8.494362831115723, -4.339073657989502, -0.6292568445205688, 1.5179765224456787, -1.0916146039962769, 0.16037073731422424, -0.03955078125, 0.29833984375, -0.18603515625, 0, 
18, 1585131232, -98.69783020019531, 63.566646575927734, -100.90988159179688, -8.916787147521973, -4.355379104614258, -0.5894231796264648, 1.704755425453186, -1.081624984741211, 0.293820858001709, -0.04345703125, 0.29931640625, -0.1953125, 0, 
19, 1585139565, -98.69486999511719, 63.56684494018555, -100.90789031982422, -8.957942008972168, -4.31823205947876, -0.7204042077064514, 1.739129662513733, -1.2079801559448242, -0.021093321964144707, -0.0390625, 0.29833984375, -0.19384765625, 0, 
20, 1585147898, -98.69087219238281, 63.564727783203125, -100.90303039550781, -8.63283920288086, -4.212393283843994, -0.642353892326355, 1.5551939010620117, -1.3228600025177002, -0.32254722714424133, -0.0390625, 0.29833984375, -0.1865234375, 0, 
21, 1585156231, -98.69169616699219, 63.562313079833984, -100.90316772460938, -8.306580543518066, -4.1219072341918945, -0.631395697593689, 1.516004204750061, -1.0541154146194458, -0.31545209884643555, -0.0419921875, 0.298828125, -0.1962890625, 0, 
22, 1585164564, -98.69268035888672, 63.56365203857422, -100.90449523925781, -8.358819961547852, -4.268491744995117, -0.6580919623374939, 1.4930024147033691, -1.1144369840621948, 0.12791748344898224, -0.03955078125, 0.29541015625, -0.18505859375, 0, 
23, 1585172897, -98.6960678100586, 63.5665168762207, -100.9080581665039, -8.850821495056152, -4.338461399078369, -0.5385185480117798, 1.5768377780914307, -0.9677442312240601, 0.33585381507873535, -0.04248046875, 0.2978515625, -0.19677734375, 0, 
24, 1585181230, -98.69276428222656, 63.56829071044922, -100.90846252441406, -8.983044624328613, -4.399102210998535, -0.7339252829551697, 1.7248624563217163, -1.2665855884552002, 0.1635724902153015, -0.03857421875, 0.29736328125, -0.1865234375, 0, 
25, 1585189563, -98.68765258789062, 63.56735610961914, -100.90564727783203, -8.817233085632324, -4.189515113830566, -0.6455971002578735, 1.72496497631073, -1.3203498125076294, -0.17680224776268005, -0.041015625, 0.2998046875, -0.1953125, 0, 
26, 1585197896, -98.68456268310547, 63.5650520324707, -100.9005126953125, -8.344863891601562, -4.175344944000244, -0.6713314056396484, 1.4187469482421875, -1.3338485956192017, -0.3456512987613678, -0.0400390625, 0.2978515625, -0.1904296875, 0, 
27, 1585206229, -98.6871566772461, 63.564910888671875, -100.90287017822266, -8.25980281829834, -4.195782661437988, -0.6055673360824585, 1.5419255495071411, -0.9770165085792542, -0.03156954050064087, -0.03955078125, 0.29833984375, -0.1875, 0, 
28, 1585214562, -98.69171142578125, 63.56663131713867, -100.89320373535156, -8.6607666015625, -4.273377418518066, -0.6168940663337708, 1.5611363649368286, -0.8759427666664124, 0.2120090276002884, -0.04296875, 0.29931640625, -0.189453125, 0, 
29, 1585222895, -98.69317626953125, 63.56939697265625, -100.89515686035156, -8.970706939697266, -4.476917743682861, -0.6536645889282227, 1.6346749067306519, -1.049991488456726, 0.3107006549835205, -0.03564453125, 0.29638671875, -0.19091796875, 0, 
30, 1585231228, -98.69154357910156, 63.56925964355469, -100.8996810913086, -8.996275901794434, -4.219692230224609, -0.6481433510780334, 1.6888490915298462, -1.1542414426803589, -0.05052408203482628, -0.04296875, 0.29833984375, -0.18896484375, 0, 
31, 1585239561, -98.68528747558594, 63.56620788574219, -100.89527893066406, -8.501365661621094, -4.123795032501221, -0.5920952558517456, 1.5608034133911133, -1.429287075996399, -0.4521808922290802, -0.04052734375, 0.2998046875, -0.18701171875, 0, 
32, 1585247894, -98.68607330322266, 63.56449890136719, -100.89569854736328, -8.31425666809082, -4.2045578956604, -0.667091429233551, 1.5496869087219238, -1.0515539646148682, -0.22892720997333527, -0.04296875, 0.294921875, -0.193359375, 0, 
33, 1585256227, -98.68907928466797, 63.566646575927734, -100.89835357666016, -8.425113677978516, -4.284077167510986, -0.6740822792053223, 1.5240727663040161, -1.004398226737976, 0.24548684060573578, -0.04345703125, 0.298828125, -0.19091796875, 0, 
34, 1585264560, -98.69104766845703, 63.56999206542969, -100.9012222290039, -8.878860473632812, -4.340856552124023, -0.5941386222839355, 1.669382095336914, -1.0050384998321533, 0.3876202404499054, -0.0390625, 0.29736328125, -0.18310546875, 0, 
35, 1585272893, -98.69060516357422, 63.57124328613281, -100.90087127685547, -8.918587684631348, -4.3493499755859375, -0.7146385312080383, 1.6141833066940308, -1.1447385549545288, 0.11331737786531448, -0.04248046875, 0.298828125, -0.18994140625, 0, 
36, 1585281226, -98.68783569335938, 63.56931686401367, -100.8980484008789, -8.686805725097656, -4.171586990356445, -0.6552605628967285, 1.6263757944107056, -1.2130773067474365, -0.2803605794906616, -0.0380859375, 0.29736328125, -0.18603515625, 0, 
37, 1585289559, -98.68658447265625, 63.56797790527344, -100.91043853759766, -8.363917350769043, -4.147644996643066, -0.586545467376709, 1.519615888595581, -1.1885133981704712, -0.20482423901557922, -0.0419921875, 0.296875, -0.18896484375, 0, 
38, 1585297892, -98.68896484375, 63.56905746459961, -100.91146850585938, -8.401654243469238, -4.31945276260376, -0.6472921371459961, 1.4240106344223022, -1.0670634508132935, 0.1024441346526146, -0.04345703125, 0.298828125, -0.18798828125, 0, 
39, 1585306225, -98.69161987304688, 63.571659088134766, -100.91394805908203, -8.847244262695312, -4.340798854827881, -0.6053251624107361, 1.548457384109497, -1.0221232175827026, 0.29779109358787537, -0.03955078125, 0.29638671875, -0.1865234375, 0, 
40, 1585314558, -98.69278717041016, 63.57325744628906, -100.91720581054688, -8.920930862426758, -4.40120792388916, -0.7268021106719971, 1.6460988521575928, -1.0338802337646484, 0.17251187562942505, -0.04248046875, 0.29931640625, -0.1953125, 0, 
41, 1585322891, -98.68978881835938, 63.572811126708984, -100.91448974609375, -8.770726203918457, -4.177525520324707, -0.6228811740875244, 1.6653865575790405, -1.2405359745025635, -0.10564591735601425, -0.03857421875, 0.29736328125, -0.18505859375, 0, 
42, 1585331224, -98.68982696533203, 63.569576263427734, -100.9134521484375, -8.354973793029785, -4.131106376647949, -0.6855147480964661, 1.482500672340393, -1.0961229801177979, -0.4191129505634308, -0.04248046875, 0.30029296875, -0.19482421875, 0, 
43, 1585339557, -98.68882751464844, 63.56916427612305, -100.92461395263672, -8.3356351852417, -4.214402675628662, -0.602160632610321, 1.5534008741378784, -1.1763465404510498, -0.09201914072036743, -0.0390625, 0.2978515625, -0.1865234375, 0, 
44, 1585347890, -98.69486236572266, 63.57186508178711, -100.93069458007812, -8.737571716308594, -4.349307060241699, -0.562038004398346, 1.5295796394348145, -0.8315532803535461, 0.33797982335090637, -0.04150390625, 0.29736328125, -0.18603515625, 0, 
45, 1585356223, -98.69706726074219, 63.574310302734375, -100.9340591430664, -8.993062973022461, -4.460496425628662, -0.6543687582015991, 1.6968661546707153, -0.9724571704864502, 0.2853682041168213, -0.04345703125, 0.29833984375, -0.189453125, 0, 
46, 1585364556, -98.69645690917969, 63.573699951171875, -100.91753387451172, -8.922840118408203, -4.225254058837891, -0.6846442818641663, 1.6016836166381836, -1.1216601133346558, -0.10761820524930954, -0.0390625, 0.2978515625, -0.1923828125, 0, 
47, 1585372889, -98.6942367553711, 63.57085418701172, -100.91400909423828, -8.442194938659668, -4.149701118469238, -0.654700517654419, 1.4870855808258057, -1.236591100692749, -0.4019257426261902, -0.0419921875, 0.2978515625, -0.18994140625, 0, 
48, 1585381222, -98.69658660888672, 63.569759368896484, -100.91620635986328, -8.259895324707031, -4.1508026123046875, -0.6540500521659851, 1.5519152879714966, -0.9642350077629089, -0.13978968560695648, -0.03955078125, 0.29736328125, -0.18701171875, 0, 
49, 1585389555, -98.69898223876953, 63.571537017822266, -100.91888427734375, -8.504633903503418, -4.285623550415039, -0.6514838337898254, 1.5981231927871704, -0.9907969832420349, 0.20622019469738007, -0.04150390625, 0.30029296875, -0.18994140625, 0, 
50, 1585397888, -98.6993637084961, 63.57497787475586, -100.91999816894531, -8.968390464782715, -4.4144086837768555, -0.5601492524147034, 1.6736339330673218, -1.1104153394699097, 0.38639068603515625, -0.04296875, 0.29931640625, -0.193359375, 0, 
51, 1585406221, -98.69893646240234, 63.57590866088867, -100.92008209228516, -8.999483108520508, -4.301084041595459, -0.6843069791793823, 1.6594182252883911, -1.1155383586883545, 0.07853324711322784, -0.0380859375, 0.2978515625, -0.18603515625, 0, 
52, 1585414554, -98.6944351196289, 63.57334518432617, -100.91464233398438, -8.671061515808105, -4.161727428436279, -0.6515151858329773, 1.5525555610656738, -1.3402262926101685, -0.3775410056114197, -0.04296875, 0.29736328125, -0.193359375, 0, 
53, 1585422887, -98.6938247680664, 63.571624755859375, -100.91290283203125, -8.246859550476074, -4.183986663818359, -0.5943077802658081, 1.4853439331054688, -1.1648201942443848, -0.24870143830776215, -0.0380859375, 0.296875, -0.1865234375, 0, 
54, 1585431220, -98.69770812988281, 63.57231521606445, -100.91645812988281, -8.288642883300781, -4.249636173248291, -0.7037590742111206, 1.513084053993225, -0.9245585203170776, 0.07999325543642044, -0.0439453125, 0.298828125, -0.1923828125, 0, 
55, 1585439553, -98.70095825195312, 63.5750732421875, -100.9203109741211, -8.797371864318848, -4.297280788421631, -0.6267879009246826, 1.621355414390564, -0.9445633292198181, 0.3286050260066986, -0.04052734375, 0.298828125, -0.1953125, 0, 
56, 1585447886, -98.70284271240234, 63.577510833740234, -100.9227523803711, -8.94207763671875, -4.464787006378174, -0.6866244077682495, 1.6378254890441895, -1.0196386575698853, 0.2775046229362488, -0.04052734375, 0.30029296875, -0.18798828125, 0, 
57, 1585456219, -98.69955444335938, 63.57770919799805, -100.91964721679688, -8.882884979248047, -4.146206855773926, -0.6277388334274292, 1.659162163734436, -1.271247148513794, -0.033951666206121445, -0.041015625, 0.29931640625, -0.189453125, 0, 
58, 1585464552, -98.70079040527344, 63.57511520385742, -100.91978454589844, -8.40329360961914, -4.071727752685547, -0.6218088865280151, 1.463443636894226, -1.044843077659607, -0.33732670545578003, -0.0380859375, 0.2958984375, -0.18798828125, 0, 
59, 1585472885, -98.70046997070312, 63.5744743347168, -100.91756439208984, -8.334630966186523, -4.281916618347168, -0.6681552529335022, 1.4000228643417358, -1.2082105875015259, -0.12759730219841003, -0.04345703125, 0.29736328125, -0.1953125, 0, 
60, 1585481218, -98.7052001953125, 63.5764045715332, -100.92340087890625, -8.63386058807373, -4.359518051147461, -0.585597574710846, 1.6562420129776, -0.828223466873169, 0.25066089630126953, -0.0390625, 0.2978515625, -0.1884765625, 0, 
61, 1585489551, -98.70355224609375, 63.57863235473633, -100.92526245117188, -8.944072723388672, -4.325467109680176, -0.6812400817871094, 1.8216586112976074, -1.130266547203064, 0.2376488894224167, -0.04345703125, 0.29736328125, -0.19482421875, 0, 
62, 1585497884, -98.70124053955078, 63.57734298706055, -100.92372131347656, -8.862325668334961, -4.238429546356201, -0.6844502091407776, 1.7125420570373535, -1.161695122718811, -0.1971655637025833, -0.04052734375, 0.29736328125, -0.1923828125, 0, 
63, 1585506217, -98.6983642578125, 63.57460403442383, -100.92047882080078, -8.422271728515625, -4.200718402862549, -0.7049304842948914, 1.595382571220398, -1.2268321514129639, -0.38386771082878113, -0.0400390625, 0.29931640625, -0.18896484375, 0, 
64, 1585514550, -98.70081329345703, 63.57322311401367, -100.92459106445312, -8.30669116973877, -4.091617107391357, -0.5655669569969177, 1.546152114868164, -0.9577035307884216, -0.17262713611125946, -0.04345703125, 0.30126953125, -0.19482421875, 0, 
65, 1585522883, -98.7033462524414, 63.574501037597656, -100.92745208740234, -8.573141098022461, -4.294238567352295, -0.6455307602882385, 1.6017862558364868, -0.9750185608863831, 0.14172355830669403, -0.0390625, 0.2978515625, -0.1884765625, 0, 
66, 1585531216, -98.70299530029297, 63.57769775390625, -100.93264770507812, -8.95244026184082, -4.480689525604248, -0.55166095495224, 1.6095986366271973, -1.1728887557983398, 0.3476364314556122, -0.04248046875, 0.29833984375, -0.19384765625, 0, 
67, 1585539549, -98.7022705078125, 63.57795715332031, -100.93428039550781, -8.989154815673828, -4.324146747589111, -0.767656683921814, 1.8600800037384033, -1.0180760622024536, 0.014369585551321507, -0.04296875, 0.29931640625, -0.1904296875, 0, 
68, 1585547882, -98.69549560546875, 63.575462341308594, -100.92743682861328, -8.581167221069336, -4.139122009277344, -0.5734987854957581, 1.6769895553588867, -1.419169545173645, -0.3832274079322815, -0.041015625, 0.29833984375, -0.1962890625, 0, 
69, 1585556215, -98.69883728027344, 63.57255172729492, -100.92961120605469, -8.288365364074707, -4.14870023727417, -0.7067025899887085, 1.4316309690475464, -0.9357777833938599, -0.36160901188850403, -0.0439453125, 0.298828125, -0.19482421875, 0, 
70, 1585564548, -98.6993637084961, 63.57331848144531, -100.92943572998047, -8.33296012878418, -4.278186798095703, -0.6348894238471985, 1.5166699886322021, -1.1260145902633667, 0.06313908845186234, -0.04052734375, 0.29736328125, -0.19482421875, 0, 
71, 1585572881, -98.70685577392578, 63.57680892944336, -100.93820190429688, -8.877805709838867, -4.308212757110596, -0.5632022619247437, 1.6417444944381714, -0.704404354095459, 0.45350006222724915, -0.04296875, 0.2998046875, -0.19287109375, 0, 
72, 1585581214, -98.70159912109375, 63.57815933227539, -100.93356323242188, -9.024242401123047, -4.410820960998535, -0.7143771648406982, 1.7306768894195557, -1.3675055503845215, 0.0915708839893341, -0.041015625, 0.29931640625, -0.18603515625, 0, 
73, 1585589547, -98.70071411132812, 63.57624053955078, -100.93356323242188, -8.86538314819336, -4.163384914398193, -0.6545082330703735, 1.7049858570098877, -1.063848853111267, -0.25518178939819336, -0.041015625, 0.298828125, -0.19287109375, 0, 
74, 1585597880, -98.69806671142578, 63.571964263916016, -100.93016815185547, -8.35715389251709, -4.159832954406738, -0.6364355683326721, 1.5517871379852295, -1.2042659521102905, -0.567496120929718, -0.04345703125, 0.298828125, -0.18994140625, 0, 
75, 1585606213, -98.70315551757812, 63.57224655151367, -100.93476867675781, -8.254068374633789, -4.24421501159668, -0.6119182109832764, 1.4828336238861084, -0.8666447997093201, 0.03757608309388161, -0.041015625, 0.29736328125, -0.193359375, 0, 
76, 1585614546, -98.70421600341797, 63.57525634765625, -100.93714141845703, -8.628460884094238, -4.265523910522461, -0.7535108327865601, 1.725989818572998, -1.030371069908142, 0.3477644622325897, -0.04248046875, 0.30029296875, -0.193359375, 0, 
77, 1585622879, -98.70708465576172, 63.577674865722656, -100.94070434570312, -8.91336727142334, -4.436321258544922, -0.5848568081855774, 1.636211633682251, -0.9571911692619324, 0.28103935718536377, -0.0400390625, 0.2978515625, -0.1943359375, 0, 
78, 1585631212, -98.70507049560547, 63.578311920166016, -100.93944549560547, -8.957393646240234, -4.272289752960205, -0.7137032747268677, 1.703615665435791, -1.1798173189163208, 0.03915135934948921, -0.0458984375, 0.298828125, -0.19189453125, 0, 
79, 1585639545, -98.70271301269531, 63.57622146606445, -100.9375991821289, -8.489079475402832, -4.107234001159668, -0.6465640664100647, 1.6816511154174805, -1.15969717502594, -0.29211753606796265, -0.0390625, 0.29736328125, -0.19140625, 0, 
80, 1585647878, -98.70547485351562, 63.57472610473633, -100.93916320800781, -8.326417922973633, -4.174825191497803, -0.6741573810577393, 1.4358059167861938, -0.9930510520935059, -0.19795960187911987, -0.0400390625, 0.298828125, -0.1904296875, 0, 
81, 1585656211, -98.70886993408203, 63.57615280151367, -100.94180297851562, -8.427619934082031, -4.328038215637207, -0.6283265352249146, 1.4759689569473267, -0.9904896020889282, 0.15911562740802765, -0.04296875, 0.30078125, -0.19775390625, 0, 
82, 1585664544, -98.71148681640625, 63.57881546020508, -100.94398498535156, -8.950023651123047, -4.345783233642578, -0.6567884683609009, 1.6268880367279053, -0.9811916947364807, 0.3126985728740692, -0.03955078125, 0.29736328125, -0.1884765625, 0, 
83, 1585672877, -98.70978546142578, 63.578529357910156, -100.94245147705078, -8.92068862915039, -4.315914154052734, -0.7106552720069885, 1.6368008852005005, -1.1792410612106323, -0.08023659139871597, -0.0439453125, 0.2998046875, -0.1923828125, 0, 
84, 1585681210, -98.7074966430664, 63.57691955566406, -100.94062805175781, -8.647984504699707, -4.214782238006592, -0.6259334087371826, 1.6179486513137817, -1.1931238174438477, -0.23625288903713226, -0.04052734375, 0.29833984375, -0.19140625, 0, 
85, 1585689543, -98.70551300048828, 63.57399368286133, -100.9505615234375, -8.320062637329102, -4.0916595458984375, -0.6057052612304688, 1.6433067321777344, -1.140614628791809, -0.38996389508247375, -0.0419921875, 0.29833984375, -0.197265625, 0, 
86, 1585697876, -98.70718383789062, 63.5748291015625, -100.951171875, -8.38645076751709, -4.25962495803833, -0.685842752456665, 1.4645451307296753, -1.086543083190918, 0.0720016285777092, -0.041015625, 0.30078125, -0.19140625, 0, 
87, 1585706209, -98.70853424072266, 63.57661056518555, -100.95296478271484, -8.829473495483398, -4.3862624168396, -0.49044886231422424, 1.6289626359939575, -1.0409497022628784, 0.19185060262680054, -0.0400390625, 0.29931640625, -0.193359375, 0, 
88, 1585714542, -98.70962524414062, 63.57746505737305, -100.95449829101562, -8.988395690917969, -4.410778522491455, -0.7116395831108093, 1.6721227169036865, -1.015950083732605, 0.08829226344823837, -0.04345703125, 0.29931640625, -0.19287109375, 0, 
89, 1585722875, -98.70580291748047, 63.57597351074219, -100.95026397705078, -8.796751022338867, -4.170264720916748, -0.6446552872657776, 1.6043989658355713, -1.3000377416610718, -0.24245154857635498, -0.03857421875, 0.29736328125, -0.19482421875, 0, 
90, 1585731208, -98.70714569091797, 63.573333740234375, -100.96092987060547, -8.326857566833496, -4.1659111976623535, -0.671444296836853, 1.5787845849990845, -0.9822930693626404, -0.3308974802494049, -0.04296875, 0.29931640625, -0.19384765625, 0, 
91, 1585739541, -98.70655059814453, 63.572914123535156, -100.96817016601562, -8.278542518615723, -4.216676712036133, -0.6048359870910645, 1.5518639087677002, -1.1502968072891235, -0.08843313902616501, -0.0419921875, 0.29833984375, -0.1884765625, 0, 
92, 1585747874, -98.71182250976562, 63.575347900390625, -100.97352600097656, -8.703051567077637, -4.242678642272949, -0.627844512462616, 1.5434112548828125, -0.86513352394104, 0.29925107955932617, -0.041015625, 0.2978515625, -0.19140625, 0, 
93, 1585756207, -98.71076965332031, 63.5777587890625, -100.97261047363281, -8.959484100341797, -4.492849826812744, -0.6304054856300354, 1.6286041736602783, -1.1938153505325317, 0.24479523301124573, -0.0439453125, 0.29833984375, -0.193359375, 0, 
94, 1585764540, -98.71051025390625, 63.57763671875, -100.97511291503906, -8.983074188232422, -4.202922821044922, -0.63872891664505, 1.6581116914749146, -1.0880542993545532, -0.04068820923566818, -0.03955078125, 0.296875, -0.19287109375, 0, 
95, 1585772873, -98.70625305175781, 63.57499313354492, -100.9708480834961, -8.497430801391602, -4.098382472991943, -0.6378617286682129, 1.6521435976028442, -1.279623031616211, -0.3816136419773102, -0.0439453125, 0.30078125, -0.193359375, 0, 
96, 1585781206, -98.70753479003906, 63.57219696044922, -100.97130584716797, -8.291778564453125, -4.2113871574401855, -0.6624834537506104, 1.4928743839263916, -1.0258115530014038, -0.35446256399154663, -0.0390625, 0.29833984375, -0.1904296875, 0, 
97, 1585789539, -98.71086120605469, 63.5736198425293, -100.97463989257812, -8.418379783630371, -4.326748847961426, -0.6945841312408447, 1.5547327995300293, -0.9497630000114441, 0.16861850023269653, -0.0439453125, 0.30126953125, -0.1904296875, 0, 
98, 1585797872, -98.71073150634766, 63.577415466308594, -100.9748306274414, -8.895130157470703, -4.3733391761779785, -0.6102433204650879, 1.6373131275177002, -1.1640517711639404, 0.4205857217311859, -0.04150390625, 0.30126953125, -0.19775390625, 0, 
99, 1585806205, -98.70952606201172, 63.578617095947266, -100.97534942626953, -8.932943344116211, -4.351188659667969, -0.696580171585083, 1.7983241081237793, -1.0971728563308716, 0.11313807219266891, -0.04150390625, 0.30029296875, -0.1943359375, 0, 
100, 1585814538, -98.70608520507812, 63.57801055908203, -100.9715347290039, -8.677179336547852, -4.188950538635254, -0.6574791669845581, 1.6022471189498901, -1.2922508716583252, -0.12959520518779755, -0.0439453125, 0.30029296875, -0.19189453125, 0, 
101, 1585822871, -98.70650482177734, 63.57633590698242, -100.9716796875, -8.36434268951416, -4.058966636657715, -0.5858274102210999, 1.5634160041809082, -1.0636183023452759, -0.23113003373146057, -0.0390625, 0.29736328125, -0.18896484375, 0, 
102, 1585831204, -98.7095947265625, 63.57617950439453, -100.97362518310547, -8.387491226196289, -4.297028541564941, -0.6571946740150452, 1.4372915029525757, -0.9936657547950745, -0.033900436013936996, -0.04345703125, 0.29931640625, -0.1943359375, 0, 
103, 1585839537, -98.71184539794922, 63.57870101928711, -100.97600555419922, -8.835352897644043, -4.308250904083252, -0.5423460602760315, 1.5847783088684082, -1.021021842956543, 0.2910289168357849, -0.04150390625, 0.2998046875, -0.1953125, 0, 
104, 1585847870, -98.71153259277344, 63.580039978027344, -100.97640991210938, -8.967506408691406, -4.368208408355713, -0.7089933156967163, 1.679115653038025, -1.1070600748062134, 0.12947995960712433, -0.04150390625, 0.29736328125, -0.18798828125, 0, 
105, 1585856203, -98.70818328857422, 63.578025817871094, -100.97213745117188, -8.806829452514648, -4.206291675567627, -0.6402489542961121, 1.5415929555892944, -1.2932244539260864, -0.3042074739933014, -0.04248046875, 0.2998046875, -0.18896484375, 0, 
106, 1585864536, -98.70618438720703, 63.57495880126953, -100.97001647949219, -8.350909233093262, -4.131953239440918, -0.6655774712562561, 1.6086764335632324, -1.1555989980697632, -0.4100198745727539, -0.0380859375, 0.2958984375, -0.1865234375, 0, 
107, 1585872869, -98.70641326904297, 63.5745964050293, -100.9690170288086, -8.296485900878906, -4.2121124267578125, -0.6553212404251099, 1.4642376899719238, -1.1496052742004395, -0.08489837497472763, -0.04296875, 0.30126953125, -0.1953125, 0, 
108, 1585881202, -98.71063232421875, 63.57691955566406, -100.97311401367188, -8.688464164733887, -4.2943830490112305, -0.598609983921051, 1.5296565294265747, -0.9257368445396423, 0.28027093410491943, -0.03955078125, 0.296875, -0.19287109375, 0, 
109, 1585889535, -98.70941162109375, 63.579471588134766, -100.97259521484375, -8.97474193572998, -4.484396457672119, -0.6602361798286438, 1.6886698007583618, -1.175987958908081, 0.27455899119377136, -0.0390625, 0.29833984375, -0.1962890625, 0, 
110, 1585897868, -98.7086410522461, 63.57888412475586, -100.97200012207031, -8.972512245178223, -4.216813564300537, -0.6509343385696411, 1.6279640197753906, -1.1223773956298828, -0.10843785852193832, -0.0419921875, 0.29541015625, -0.189453125, 0, 
111, 1585906201, -98.70731353759766, 63.57668685913086, -100.96926879882812, -8.499174118041992, -4.138140678405762, -0.6531381607055664, 1.466825008392334, -1.2091327905654907, -0.31358227133750916, -0.03955078125, 0.2978515625, -0.1875, 0, 
112, 1585914534, -98.70734405517578, 63.57500457763672, -100.96102905273438, -8.27186393737793, -4.168092250823975, -0.5974156856536865, 1.383988380432129, -1.169328212738037, -0.24752314388751984, -0.04296875, 0.2998046875, -0.1904296875, 0, 
113, 1585922867, -98.70952606201172, 63.57670593261719, -100.96331024169922, -8.434582710266113, -4.281058311462402, -0.739960253238678, 1.5822423696517944, -1.0138754844665527, 0.18739373981952667, -0.03857421875, 0.296875, -0.1865234375, 0, 
114, 1585931200, -98.71025085449219, 63.579315185546875, -100.95057678222656, -8.916082382202148, -4.386240005493164, -0.5059422850608826, 1.5509674549102783, -1.1291906833648682, 0.28467661142349243, -0.04248046875, 0.29736328125, -0.18896484375, 0, 
115, 1585939533, -98.71170806884766, 63.580448150634766, -100.95245361328125, -9.002309799194336, -4.34547758102417, -0.699486494064331, 1.7505279779434204, -0.9635946750640869, 0.1324768215417862, -0.0419921875, 0.2978515625, -0.1865234375, 0, 
116, 1585947866, -98.7060775756836, 63.57784652709961, -100.94646453857422, -8.69726848602295, -4.200957298278809, -0.6327618956565857, 1.6331379413604736, -1.3718856573104858, -0.39037376642227173, -0.041015625, 0.29638671875, -0.18798828125, 0, 
117, 1585956199, -98.70755004882812, 63.57525634765625, -100.94739532470703, -8.348004341125488, -4.145440101623535, -0.6432543396949768, 1.5215367078781128, -1.0087013244628906, -0.33146101236343384, -0.04248046875, 0.2998046875, -0.19140625, 0, 
118, 1585964532, -98.70825958251953, 63.576229095458984, -100.94432830810547, -8.293206214904785, -4.278130054473877, -0.6877343654632568, 1.5623657703399658, -1.0932796001434326, 0.09113544970750809, -0.03857421875, 0.29736328125, -0.19189453125, 0, 
119, 1585972865, -98.71227264404297, 63.57971954345703, -100.94896697998047, -8.778212547302246, -4.2851996421813965, -0.6048188805580139, 1.6159251928329468, -0.9222790598869324, 0.4196380376815796, -0.04248046875, 0.298828125, -0.1923828125, 0, 
120, 1585981198, -98.71233367919922, 63.581268310546875, -100.96137237548828, -8.914199829101562, -4.464141368865967, -0.663773238658905, 1.5724835395812988, -1.1340575218200684, 0.15250715613365173, -0.03857421875, 0.29931640625, -0.193359375, 0, 
121, 1585989531, -98.7093734741211, 63.580509185791016, -100.9615249633789, -8.904359817504883, -4.185515403747559, -0.6688951849937439, 1.699427843093872, -1.2125906944274902, -0.13909810781478882, -0.041015625, 0.29736328125, -0.1923828125, 0, 
122, 1585997864, -98.70882415771484, 63.57870864868164, -100.96012878417969, -8.406150817871094, -4.037630081176758, -0.6386447548866272, 1.5150306224822998, -1.1444056034088135, -0.2586909234523773, -0.04150390625, 0.29638671875, -0.19140625, 0, 
123, 1586006197, -98.71234893798828, 63.5774040222168, -100.96106719970703, -8.333269119262695, -4.253173351287842, -0.691708505153656, 1.2763060331344604, -1.0306271314620972, -0.18013210594654083, -0.03857421875, 0.29833984375, -0.19189453125, 0, 
124, 1586014530, -98.71337127685547, 63.57841873168945, -100.96394348144531, -8.561127662658691, -4.330911636352539, -0.5746430158615112, 1.710800290107727, -1.0070364475250244, 0.11388088017702103, -0.04345703125, 0.29833984375, -0.19091796875, 0, 
125, 1586022863, -98.71516418457031, 63.58060073852539, -100.967041015625, -8.937512397766113, -4.375226974487305, -0.6425714492797852, 1.7181259393692017, -0.9790657162666321, 0.2502254545688629, -0.0390625, 0.298828125, -0.18701171875, 0, 
126, 1586031196, -98.71173095703125, 63.580196380615234, -100.96489715576172, -8.92654800415039, -4.250312805175781, -0.7203571200370789, 1.6764514446258545, -1.2570568323135376, -0.10567152500152588, -0.04248046875, 0.29833984375, -0.19482421875, 0, 
127, 1586039529, -98.70968627929688, 63.57791519165039, -100.96158599853516, -8.478873252868652, -4.234809875488281, -0.6211966276168823, 1.4890323877334595, -1.2339016199111938, -0.32352057099342346, -0.03955078125, 0.296875, -0.1875, 0, 
128, 1586047862, -98.71017456054688, 63.57612609863281, -100.96148681640625, -8.309368133544922, -4.114696502685547, -0.6735738515853882, 1.529835820198059, -1.0778599977493286, -0.24493613839149475, -0.03955078125, 0.298828125, -0.19189453125, 0, 
129, 1586056195, -98.7136001586914, 63.576602935791016, -100.96461486816406, -8.429617881774902, -4.262649059295654, -0.6179087162017822, 1.5237395763397217, -0.9472784399986267, 0.04684843495488167, -0.04296875, 0.296875, -0.18994140625, 0, 
130, 1586064528, -98.71541595458984, 63.579566955566406, -100.96736145019531, -8.959086418151855, -4.440038681030273, -0.575542688369751, 1.673301100730896, -1.0098539590835571, 0.3489682972431183, -0.037109375, 0.296875, -0.19140625, 0, 
131, 1586072861, -98.71379852294922, 63.58049011230469, -100.96635437011719, -9.041302680969238, -4.376677513122559, -0.6947914958000183, 1.6860826015472412, -1.171761393547058, 0.06867176294326782, -0.04248046875, 0.29931640625, -0.18896484375, 0, 
132, 1586081194, -98.7096176147461, 63.5792121887207, -100.9613037109375, -8.749054908752441, -4.14723014831543, -0.6066405177116394, 1.5566025972366333, -1.344299077987671, -0.2218576818704605, -0.03955078125, 0.30029296875, -0.193359375, 0, 
133, 1586089527, -98.71065521240234, 63.575191497802734, -100.96090698242188, -8.328461647033691, -4.11103630065918, -0.7314288020133972, 1.431323528289795, -1.0502989292144775, -0.5069698095321655, -0.04296875, 0.296875, -0.1904296875, 0, 
134, 1586097860, -98.71198272705078, 63.57500457763672, -100.96112823486328, -8.240302085876465, -4.256200313568115, -0.5576242804527283, 1.4633667469024658, -1.0883872509002686, -0.05042162165045738, -0.04248046875, 0.29931640625, -0.19384765625, 0, 
135, 1586106193, -98.71489715576172, 63.57759475708008, -100.96448516845703, -8.758856773376465, -4.273804664611816, -0.627955436706543, 1.6110328435897827, -0.9734305739402771, 0.3019918203353882, -0.0390625, 0.2978515625, -0.19384765625, 0, 
136, 1586114526, -98.71471405029297, 63.57914352416992, -100.96524047851562, -8.975813865661621, -4.449865818023682, -0.6423237919807434, 1.7004265785217285, -1.0864405632019043, 0.15798859298229218, -0.0439453125, 0.29833984375, -0.19189453125, 0, 
137, 1586122859, -98.71253967285156, 63.57893371582031, -100.96420288085938, -8.991110801696777, -4.208808422088623, -0.6558705568313599, 1.7483763694763184, -1.1549842357635498, -0.06514980643987656, -0.03955078125, 0.2998046875, -0.1904296875, 0, 
138, 1586131192, -98.70842742919922, 63.5755500793457, -100.95923614501953, -8.448705673217773, -4.1462531089782715, -0.5961218476295471, 1.556449055671692, -1.2994228601455688, -0.47231367230415344, -0.04248046875, 0.29931640625, -0.18896484375, 0, 
139, 1586139525, -98.70947265625, 63.575443267822266, -100.95977783203125, -8.27709674835205, -4.253591060638428, -0.6972648501396179, 1.5313727855682373, -1.0716357231140137, -0.03605203703045845, -0.0400390625, 0.298828125, -0.1875, 0, 
140, 1586147858, -98.7130355834961, 63.57716369628906, -100.96365356445312, -8.482156753540039, -4.262494087219238, -0.6762598752975464, 1.5891070365905762, -0.9305011034011841, 0.20411981642246246, -0.041015625, 0.29736328125, -0.1884765625, 0, 
141, 1586156191, -98.71358489990234, 63.58098220825195, -100.96424102783203, -8.893913269042969, -4.398208141326904, -0.6714445948600769, 1.5966888666152954, -1.1409989595413208, 0.425068199634552, -0.0419921875, 0.29833984375, -0.19287109375, 0, 
142, 1586164524, -98.71328735351562, 63.58163833618164, -100.96548461914062, -8.971578598022461, -4.31327486038208, -0.701072096824646, 1.7666906118392944, -1.0462006330490112, 0.06029590219259262, -0.03955078125, 0.2978515625, -0.185546875, 0, 
143, 1586172857, -98.7091064453125, 63.57986831665039, -100.9610824584961, -8.66170597076416, -4.12749719619751, -0.6944044828414917, 1.6275540590286255, -1.30503249168396, -0.27841392159461975, -0.04296875, 0.298828125, -0.19287109375, 0, 
144, 1586181190, -98.70880889892578, 63.57793045043945, -100.96115112304688, -8.370722770690918, -4.115520000457764, -0.6316336989402771, 1.6394646167755127, -1.0587515830993652, -0.2595362365245819, -0.0400390625, 0.2998046875, -0.19189453125, 0, 
145, 1586189523, -98.7096176147461, 63.57792282104492, -100.9625244140625, -8.390178680419922, -4.347592353820801, -0.665777862071991, 1.5529398918151855, -1.0784746408462524, -0.020709112286567688, -0.04150390625, 0.2978515625, -0.189453125, 0, 
146, 1586197856, -98.71080780029297, 63.581111907958984, -100.96430969238281, -8.837206840515137, -4.336586952209473, -0.5460708737373352, 1.6460987329483032, -1.0658336877822876, 0.35614028573036194, -0.04296875, 0.2978515625, -0.1962890625, 0, 
147, 1586206189, -98.70563507080078, 63.58279037475586, -100.96026611328125, -8.924432754516602, -4.3728742599487305, -0.7493950724601746, 1.7867850065231323, -1.3458229303359985, 0.13469244539737701, -0.03857421875, 0.29541015625, -0.19140625, 0, 
148, 1586214522, -98.7007827758789, 63.58112335205078, -100.95597839355469, -8.724825859069824, -4.231677055358887, -0.6241113543510437, 1.718894362449646, -1.2971175909042358, -0.2605864107608795, -0.04345703125, 0.29833984375, -0.19287109375, 0, 
149, 1586222855, -98.6983642578125, 63.57889175415039, -100.95299530029297, -8.360851287841797, -4.109232425689697, -0.6832789778709412, 1.5671300888061523, -1.220146894454956, -0.32280340790748596, -0.0380859375, 0.296875, -0.18603515625, 0, 
150, 1586231188, -98.70075988769531, 63.57913589477539, -100.96507263183594, -8.340885162353516, -4.249073505401611, -0.6515909433364868, 1.504042387008667, -1.0079073905944824, 0.01618819683790207, -0.04296875, 0.29736328125, -0.19677734375, 0, 
151, 1586239521, -98.70440673828125, 63.582000732421875, -100.96856689453125, -8.744465827941895, -4.3392229080200195, -0.5237301588058472, 1.5365724563598633, -0.967257559299469, 0.3366735279560089, -0.0400390625, 0.2978515625, -0.189453125, 0, 
152, 1586247854, -98.70552062988281, 63.584739685058594, -100.97086334228516, -8.958256721496582, -4.432368278503418, -0.6559126973152161, 1.7126959562301636, -1.0333679914474487, 0.31526002287864685, -0.041015625, 0.29638671875, -0.19580078125, 0, 
153, 1586256187, -98.70414733886719, 63.584022521972656, -100.97074127197266, -8.924241065979004, -4.196527481079102, -0.6991172432899475, 1.7510148286819458, -1.097505807876587, -0.11978496611118317, -0.04296875, 0.298828125, -0.19189453125, 0, 
154, 1586264520, -98.7022705078125, 63.582054138183594, -100.96858978271484, -8.42679500579834, -4.185066223144531, -0.6452540755271912, 1.5925906896591187, -1.1782419681549072, -0.2789774537086487, -0.0390625, 0.29638671875, -0.18798828125, 0, 
155, 1586272853, -98.70279693603516, 63.58207321166992, -100.96752166748047, -8.273294448852539, -4.139498710632324, -0.6027079224586487, 1.419284701347351, -1.1609010696411133, -0.038254860788583755, -0.04345703125, 0.29833984375, -0.19921875, 0, 
156, 1586281186, -98.7080078125, 63.583946228027344, -100.9732437133789, -8.487935066223145, -4.219947338104248, -0.6498132944107056, 1.5877240896224976, -0.8298116326332092, 0.2366243302822113, -0.04052734375, 0.2978515625, -0.19140625, 0, 
157, 1586289519, -98.70884704589844, 63.58699417114258, -100.97505187988281, -8.93864917755127, -4.423569202423096, -0.5480381846427917, 1.6895148754119873, -1.060723900794983, 0.3513248562812805, -0.04443359375, 0.298828125, -0.19384765625, 0, 
158, 1586297852, -98.70662689208984, 63.586727142333984, -100.97491455078125, -8.9994478225708, -4.314922332763672, -0.68409264087677, 1.8522164821624756, -1.1057791709899902, -0.06635367125272751, -0.04296875, 0.30078125, -0.19287109375, 0, 
159, 1586306185, -98.7006607055664, 63.5852165222168, -100.96823120117188, -8.702052116394043, -4.1335272789001465, -0.6293504238128662, 1.5965608358383179, -1.4281855821609497, -0.2667338252067566, -0.04345703125, 0.29833984375, -0.1953125, 0, 
160, 1586314518, -98.7029037475586, 63.58271026611328, -100.96974182128906, -8.317811012268066, -4.18569278717041, -0.6293253302574158, 1.4904409646987915, -0.9746856093406677, -0.31191733479499817, -0.04541015625, 0.29931640625, -0.19580078125, 0, 
161, 1586322851, -98.70650482177734, 63.583274841308594, -100.97164154052734, -8.284260749816895, -4.315141677856445, -0.7030849456787109, 1.3724874258041382, -1.014823079109192, 0.05204812437295914, -0.0400390625, 0.29833984375, -0.19189453125, 0, 
162, 1586331184, -98.705810546875, 63.58686828613281, -100.97237396240234, -8.770797729492188, -4.298767566680908, -0.5849816203117371, 1.7581610679626465, -1.1274232864379883, 0.40327051281929016, -0.04296875, 0.30029296875, -0.19580078125, 0, 
163, 1586339517, -98.70401763916016, 63.588863372802734, -100.97119903564453, -8.911827087402344, -4.384845733642578, -0.7127470374107361, 1.68644118309021, -1.1977343559265137, 0.1997910439968109, -0.04248046875, 0.30029296875, -0.18994140625, 0, 
164, 1586347850, -98.69891357421875, 63.588138580322266, -100.9675064086914, -8.85035514831543, -4.1828179359436035, -0.6139873266220093, 1.8146147727966309, -1.2856167554855347, -0.14847290515899658, -0.041015625, 0.29931640625, -0.1953125, 0, 
165, 1586356183, -98.69791412353516, 63.586036682128906, -100.9659423828125, -8.447953224182129, -4.069607734680176, -0.6512670516967773, 1.549891710281372, -1.1477609872817993, -0.29465335607528687, -0.0439453125, 0.30029296875, -0.1943359375, 0, 
166, 1586364516, -98.69462585449219, 63.58466339111328, -100.9619140625, -8.38168716430664, -4.261481285095215, -0.6297996044158936, 1.5610082149505615, -1.2877941131591797, -0.22370192408561707, -0.04052734375, 0.296875, -0.1953125, 0, 
167, 1586372849, -98.6977767944336, 63.586082458496094, -100.96575164794922, -8.66041374206543, -4.315925598144531, -0.6485032439231873, 1.6316778659820557, -0.9258136749267578, 0.16475075483322144, -0.0439453125, 0.2978515625, -0.19482421875, 0, 
168, 1586381182, -98.69618225097656, 63.587772369384766, -100.96524047851562, -8.90217399597168, -4.4132819175720215, -0.6371470093727112, 1.7356972694396973, -1.158109188079834, 0.1681574285030365, -0.04150390625, 0.296875, -0.19091796875, 0, 
169, 1586389515, -98.69441986083984, 63.5853385925293, -100.96527862548828, -8.861061096191406, -4.252356052398682, -0.6518871784210205, 1.812821865081787, -1.0543714761734009, -0.3160668611526489, -0.04345703125, 0.2998046875, -0.19873046875, 0, 
170, 1586397848, -98.68907928466797, 63.582244873046875, -100.9595718383789, -8.456315040588379, -4.173534393310547, -0.7371603846549988, 1.6254024505615234, -1.3487558364868164, -0.44626399874687195, -0.041015625, 0.2998046875, -0.19482421875, 0, 
171, 1586406181, -98.69205474853516, 63.580345153808594, -100.962646484375, -8.349981307983398, -4.124246597290039, -0.5700579285621643, 1.5736360549926758, -0.9053990840911865, -0.2326412945985794, -0.03857421875, 0.29736328125, -0.18896484375, 0, 
172, 1586414514, -98.6926498413086, 63.5811882019043, -100.9628677368164, -8.510577201843262, -4.3253655433654785, -0.6040983200073242, 1.5501734018325806, -1.1051645278930664, 0.0731542557477951, -0.04443359375, 0.30029296875, -0.193359375, 0, 
173, 1586422847, -98.69393920898438, 63.58430862426758, -100.96450805664062, -8.916646957397461, -4.451014995574951, -0.5562657117843628, 1.6197929382324219, -1.0744274854660034, 0.3524262309074402, -0.03759765625, 0.2978515625, -0.19287109375, 0, 
174, 1586431180, -98.69686126708984, 63.584999084472656, -100.96814727783203, -8.974177360534668, -4.320768356323242, -0.7275413274765015, 1.6381840705871582, -0.920998215675354, 0.08398907631635666, -0.04248046875, 0.29736328125, -0.19287109375, 0, 
175, 1586439513, -98.69236755371094, 63.582557678222656, -100.96260070800781, -8.664041519165039, -4.170031547546387, -0.5766696333885193, 1.5409268140792847, -1.3480132818222046, -0.3625310957431793, -0.03955078125, 0.296875, -0.19189453125, 0, 
176, 1586447846, -98.69365692138672, 63.57958221435547, -100.96317291259766, -8.304187774658203, -4.121997833251953, -0.7309744954109192, 1.5059375762939453, -1.0182554721832275, -0.3826126158237457, -0.03857421875, 0.29736328125, -0.19775390625, 0, 
177, 1586456179, -98.69684600830078, 63.579124450683594, -100.9652328491211, -8.309911727905273, -4.251872539520264, -0.6620644927024841, 1.437035322189331, -0.9860582947731018, -0.07124598324298859, -0.0419921875, 0.29833984375, -0.1943359375, 0, 
178, 1586464512, -98.70084381103516, 63.58183670043945, -100.97004699707031, -8.808609008789062, -4.34670352935791, -0.5251598954200745, 1.637108325958252, -0.8955890536308289, 0.333215594291687, -0.0390625, 0.2978515625, -0.1904296875, 0, 
179, 1586472845, -98.69898986816406, 63.584041595458984, -100.9688491821289, -8.995386123657227, -4.438913345336914, -0.6386364102363586, 1.693485140800476, -1.2074166536331177, 0.22015434503555298, -0.04443359375, 0.29931640625, -0.19482421875, 0, 
180, 1586481178, -98.69727325439453, 63.58343505859375, -100.96710968017578, -8.939634323120117, -4.168965816497803, -0.7370397448539734, 1.6163607835769653, -1.1817768812179565, -0.1132277324795723, -0.037109375, 0.29736328125, -0.18994140625, 0, 
181, 1586489511, -98.69612884521484, 63.58094787597656, -100.96512603759766, -8.373835563659668, -4.153573036193848, -0.6096615791320801, 1.519743800163269, -1.1581604480743408, -0.3400161862373352, -0.04052734375, 0.29931640625, -0.19873046875, 0, 
182, 1586497844, -98.69690704345703, 63.57999801635742, -100.96546936035156, -8.213465690612793, -4.222175121307373, -0.6607348322868347, 1.5431808233261108, -1.069944977760315, -0.14109601080417633, -0.04150390625, 0.29638671875, -0.19970703125, 0, 
183, 1586506177, -98.70217895507812, 63.58137130737305, -100.9709701538086, -8.525873184204102, -4.221604824066162, -0.6944833397865295, 1.5563465356826782, -0.8377520442008972, 0.17458662390708923, -0.04150390625, 0.29931640625, -0.1884765625, 0, 
184, 1586514510, -98.70134735107422, 63.583702087402344, -100.97018432617188, -8.908711433410645, -4.460055828094482, -0.6006581783294678, 1.6123902797698975, -1.1859774589538574, 0.24313029646873474, -0.04345703125, 0.29736328125, -0.1962890625, 0, 
185, 1586522843, -98.7017822265625, 63.58354187011719, -100.9715805053711, -8.97264289855957, -4.3159003257751465, -0.6589239835739136, 1.6991459131240845, -1.0263495445251465, -0.040201541036367416, -0.0400390625, 0.29638671875, -0.18994140625, 0, 
186, 1586531176, -98.69632720947266, 63.58055114746094, -100.96485900878906, -8.661535263061523, -4.082998752593994, -0.7205244898796082, 1.5287344455718994, -1.398550033569336, -0.44052639603614807, -0.0419921875, 0.2998046875, -0.19384765625, 0, 
187, 1586539509, -98.69821166992188, 63.5777587890625, -100.96561431884766, -8.329110145568848, -4.157392978668213, -0.6262637972831726, 1.452813744544983, -1.0107505321502686, -0.3507997393608093, -0.0390625, 0.29833984375, -0.1953125, 0, 
188, 1586547842, -98.70220184326172, 63.57889175415039, -100.9688491821289, -8.360551834106445, -4.354061126708984, -0.6671429872512817, 1.4669016599655151, -0.9526574015617371, 0.12655992805957794, -0.0419921875, 0.29833984375, -0.1953125, 0, 
189, 1586556175, -98.70184326171875, 63.58292770385742, -100.9691162109375, -8.847785949707031, -4.319348335266113, -0.5363506078720093, 1.6715847253799438, -1.1630271673202515, 0.44847962260246277, -0.041015625, 0.2978515625, -0.19384765625, 0, 
190, 1586564508, -98.70289611816406, 63.584163665771484, -100.97181701660156, -8.947386741638184, -4.3268818855285645, -0.7808828353881836, 1.761413812637329, -0.9805768728256226, 0.13995617628097534, -0.0400390625, 0.2978515625, -0.1875, 0, 
191, 1586572841, -98.69778442382812, 63.58241653442383, -100.96700286865234, -8.745636940002441, -4.224209308624268, -0.6276807188987732, 1.6939717531204224, -1.3244479894638062, -0.2787468731403351, -0.04296875, 0.29931640625, -0.2001953125, 0, 
192, 1586581174, -98.6942367553711, 63.579532623291016, -100.9629135131836, -8.35769271850586, -4.092757225036621, -0.6689783334732056, 1.5849063396453857, -1.2649461030960083, -0.39959487318992615, -0.0390625, 0.2978515625, -0.1904296875, 0, 
193, 1586589507, -98.69493103027344, 63.5790901184082, -100.96287536621094, -8.339580535888672, -4.209422588348389, -0.6595881581306458, 1.5101127624511719, -1.094611406326294, -0.08108186721801758, -0.04296875, 0.298828125, -0.19677734375, 0, 
194, 1586597840, -98.69956970214844, 63.58042907714844, -100.96774291992188, -8.73554801940918, -4.3375115394592285, -0.5550469756126404, 1.5652859210968018, -0.8715115189552307, 0.1659546196460724, -0.04052734375, 0.298828125, -0.19970703125, 0, 
195, 1586606173, -98.69740295410156, 63.58168029785156, -100.96668243408203, -8.951967239379883, -4.48563289642334, -0.633277952671051, 1.7447904348373413, -1.1815204620361328, 0.10722118616104126, -0.0400390625, 0.2958984375, -0.18701171875, 0, 
196, 1586614506, -98.69673156738281, 63.58074188232422, -100.96720123291016, -8.971116065979004, -4.2249298095703125, -0.7316804528236389, 1.7321369647979736, -1.0574195384979248, -0.1354096531867981, -0.04248046875, 0.29931640625, -0.19921875, 0, 
197, 1586622839, -98.69434356689453, 63.57819366455078, -100.96421813964844, -8.441420555114746, -4.128293991088867, -0.6986523270606995, 1.5652601718902588, -1.2142810821533203, -0.35876575112342834, -0.04052734375, 0.2958984375, -0.1904296875, 0, 
198, 1586631172, -98.69345092773438, 63.57676696777344, -100.96247863769531, -8.246115684509277, -4.150066375732422, -0.6150949597358704, 1.5178227424621582, -1.1659470796585083, -0.21112532913684845, -0.0419921875, 0.30029296875, -0.19287109375, 0, 
199, 1586639505, -98.69561004638672, 63.57914352416992, -100.96439361572266, -8.481221199035645, -4.297049045562744, -0.6306107640266418, 1.547560691833496, -1.0418717861175537, 0.26887258887290955, -0.0400390625, 0.29736328125, -0.1943359375, 0, 
200, 1586647838, -98.69852447509766, 63.582115173339844, -100.96798706054688, -8.968338966369629, -4.4043145179748535, -0.6108173131942749, 1.6339833736419678, -0.9663355946540833, 0.3490452170372009, -0.03955078125, 0.294921875, -0.18798828125, 0, 
201, 1586656171, -98.69410705566406, 63.58290100097656, -100.96456909179688, -9.017437934875488, -4.304340362548828, -0.658793032169342, 1.7614140510559082, -1.2998327016830444, 0.03242762014269829, -0.0419921875, 0.29833984375, -0.19091796875, 0, 
202, 1586664504, -98.68804931640625, 63.58168029785156, -100.95867919921875, -8.7053804397583, -4.196109294891357, -0.6441410183906555, 1.6922043561935425, -1.3906863927841187, -0.21658115088939667, -0.03662109375, 0.29833984375, -0.1904296875, 0, 
203, 1586672837, -98.6885757446289, 63.57874298095703, -100.95826721191406, -8.30290412902832, -4.160475730895996, -0.6781920790672302, 1.4919780492782593, -1.0726089477539062, -0.3853277266025543, -0.041015625, 0.2978515625, -0.19482421875, 0, 
204, 1586681170, -98.69249725341797, 63.580379486083984, -100.96186828613281, -8.296039581298828, -4.255458354949951, -0.6757084727287292, 1.5140572786331177, -0.9372632503509521, 0.19471940398216248, -0.03662109375, 0.296875, -0.1884765625, 0, 
205, 1586689503, -98.69253540039062, 63.58341979980469, -100.96232604980469, -8.752290725708008, -4.303120136260986, -0.6141820549964905, 1.643025279045105, -1.1317522525787354, 0.3374931812286377, -0.0419921875, 0.2958984375, -0.19384765625, 0, 
206, 1586697836, -98.69241333007812, 63.584861755371094, -100.96280670166016, -8.96764850616455, -4.43773078918457, -0.7062929272651672, 1.6646946668624878, -1.1028079986572266, 0.14016108214855194, -0.0390625, 0.29833984375, -0.18701171875, 0, 
207, 1586706169, -98.68927001953125, 63.583980560302734, -100.96107482910156, -8.925402641296387, -4.163741111755371, -0.6555720567703247, 1.7905884981155396, -1.1807007789611816, -0.1490108072757721, -0.03955078125, 0.2958984375, -0.185546875, 0, 
208, 1586714502, -98.68648529052734, 63.5821647644043, -100.95759582519531, -8.432812690734863, -4.0785040855407715, -0.639841616153717, 1.5574735403060913, -1.2505509853363037, -0.272599458694458, -0.04443359375, 0.298828125, -0.18994140625, 0, 
209, 1586722835, -98.68673706054688, 63.580604553222656, -100.95682525634766, -8.298007011413574, -4.25810432434082, -0.6481910347938538, 1.4854463338851929, -1.1162556409835815, -0.22511067986488342, -0.03759765625, 0.296875, -0.18994140625, 0, 
210, 1586731168, -98.69175720214844, 63.582298278808594, -100.9622573852539, -8.588746070861816, -4.2638068199157715, -0.6164188981056213, 1.5810641050338745, -0.8456411361694336, 0.2213325947523117, -0.041015625, 0.29736328125, -0.1884765625, 0, 
211, 1586739501, -98.69056701660156, 63.58438491821289, -100.96085357666016, -8.908432960510254, -4.3962297439575195, -0.6836498379707336, 1.6896172761917114, -1.1631039381027222, 0.2135714739561081, -0.03955078125, 0.2978515625, -0.18505859375, 0, 
212, 1586747834, -98.69000244140625, 63.583797454833984, -100.9609603881836, -8.954007148742676, -4.293092727661133, -0.6563297510147095, 1.6780396699905396, -1.0887459516525269, -0.1023416742682457, -0.03955078125, 0.296875, -0.1953125, 0, 
213, 1586756167, -98.684326171875, 63.580963134765625, -100.95468139648438, -8.540846824645996, -4.135874271392822, -0.6770198941230774, 1.6064478158950806, -1.3838729858398438, -0.4170125424861908, -0.0400390625, 0.2978515625, -0.1875, 0, 
214, 1586764500, -98.68449401855469, 63.57893371582031, -100.95447540283203, -8.330096244812012, -4.106918811798096, -0.6400210857391357, 1.5542716979980469, -1.0759387016296387, -0.269679456949234, -0.037109375, 0.294921875, -0.18603515625, 0, 
215, 1586772833, -98.68684387207031, 63.57958221435547, -100.9560317993164, -8.482531547546387, -4.333456039428711, -0.6181629300117493, 1.4840632677078247, -1.0325226783752441, 0.055608510971069336, -0.04296875, 0.30029296875, -0.1884765625, 0, 
216, 1586781166, -98.68816375732422, 63.58232116699219, -100.95530700683594, -8.92446231842041, -4.388031482696533, -0.5588602423667908, 1.6068065166473389, -1.0609800815582275, 0.311238557100296, -0.0380859375, 0.2978515625, -0.18994140625, 0, 
217, 1586789499, -98.68635559082031, 63.583065032958984, -100.95587158203125, -9.010883331298828, -4.324868202209473, -0.7121896147727966, 1.6532450914382935, -1.1907929182052612, 0.04789861664175987, -0.04150390625, 0.29541015625, -0.18994140625, 0, 
218, 1586797832, -98.68372344970703, 63.5809211730957, -100.95248413085938, -8.698616027832031, -4.1944074630737305, -0.6655426025390625, 1.5503783226013184, -1.2444289922714233, -0.31355661153793335, -0.04052734375, 0.298828125, -0.18701171875, 0, 
219, 1586806165, -98.68204498291016, 63.57802963256836, -100.95022583007812, -8.31170654296875, -4.109499931335449, -0.6400521993637085, 1.5586005449295044, -1.170660138130188, -0.39319127798080444, -0.03759765625, 0.29443359375, -0.18505859375, 0, 
220, 1586814498, -98.6833724975586, 63.57865905761719, -100.93563079833984, -8.271356582641602, -4.2158026695251465, -0.6516044735908508, 1.52107572555542, -1.0662310123443604, 0.05156145617365837, -0.0439453125, 0.29833984375, -0.1884765625, 0, 
221, 1586822831, -98.6876220703125, 63.581520080566406, -100.94120788574219, -8.786319732666016, -4.329550266265869, -0.5463346242904663, 1.6915385723114014, -0.8607536554336548, 0.35127362608909607, -0.0380859375, 0.2958984375, -0.18896484375, 0, 
222, 1586831164, -98.68699645996094, 63.5838508605957, -100.94879913330078, -8.993230819702148, -4.441661357879639, -0.6873713135719299, 1.696994423866272, -1.1315218210220337, 0.2493802160024643, -0.04296875, 0.29736328125, -0.19140625, 0, 
223, 1586839497, -98.68357849121094, 63.58296203613281, -100.94829559326172, -8.933349609375, -4.17228889465332, -0.6371378302574158, 1.6798838376998901, -1.248296856880188, -0.15569612383842468, -0.03759765625, 0.29736328125, -0.18701171875, 0, 
224, 1586847830, -98.68172454833984, 63.579593658447266, -100.94466400146484, -8.415183067321777, -4.160505771636963, -0.640748143196106, 1.4306319952011108, -1.2342090606689453, -0.46053117513656616, -0.0390625, 0.29638671875, -0.1923828125, 0, 
225, 1586856163, -98.6846694946289, 63.57879638671875, -100.93094635009766, -8.233846664428711, -4.2428297996521, -0.636491060256958, 1.4389821290969849, -0.9925388693809509, -0.10943682491779327, -0.041015625, 0.29736328125, -0.18798828125, 0, 
226, 1586864496, -98.68744659423828, 63.58143997192383, -100.9335708618164, -8.511993408203125, -4.278761863708496, -0.6174361705780029, 1.547458291053772, -1.012466549873352, 0.3036823272705078, -0.037109375, 0.294921875, -0.18310546875, 0, 
227, 1586872829, -98.68730926513672, 63.58452606201172, -100.93384552001953, -8.866950035095215, -4.443421840667725, -0.6445204019546509, 1.6462781429290771, -1.1461472511291504, 0.3348805010318756, -0.04296875, 0.2978515625, -0.1884765625, 0, 
228, 1586881162, -98.68673706054688, 63.58475875854492, -100.93806457519531, -8.953290939331055, -4.301766872406006, -0.6972600817680359, 1.743304967880249, -1.0683568716049194, 0.009093053638935089, -0.0400390625, 0.29638671875, -0.18408203125, 0, 
229, 1586889495, -98.68445587158203, 63.58274459838867, -100.9349594116211, -8.609305381774902, -4.106925010681152, -0.6575980186462402, 1.5406447649002075, -1.2284713983535767, -0.2997249662876129, -0.04150390625, 0.29833984375, -0.18701171875, 0, 
230, 1586897828, -98.68294525146484, 63.5810432434082, -100.93272399902344, -8.34437370300293, -4.16155481338501, -0.5487619638442993, 1.5378273725509644, -1.1884363889694214, -0.24639609456062317, -0.041015625, 0.29736328125, -0.19140625, 0, 
231, 1586906161, -98.68775177001953, 63.58180236816406, -100.92495727539062, -8.421279907226562, -4.320815563201904, -0.7460446357727051, 1.5096516609191895, -0.8753024339675903, 0.09884533286094666, -0.0390625, 0.29736328125, -0.1845703125, 0, 
232, 1586914494, -98.69126892089844, 63.58417892456055, -100.92853546142578, -8.859519958496094, -4.334582328796387, -0.5600404739379883, 1.559983730316162, -0.9596500992774963, 0.27904146909713745, -0.041015625, 0.298828125, -0.1962890625, 0, 
233, 1586922827, -98.69105529785156, 63.58439636230469, -100.92870330810547, -8.924215316772461, -4.378319263458252, -0.7053478956222534, 1.6441007852554321, -1.0971472263336182, -0.006851807702332735, -0.03955078125, 0.29443359375, -0.18359375, 0, 
234, 1586931160, -98.68550109863281, 63.58222579956055, -100.92273712158203, -8.702322959899902, -4.187852382659912, -0.6897925734519958, 1.6231228113174438, -1.3745238780975342, -0.33430421352386475, -0.0419921875, 0.298828125, -0.18896484375, 0, 
235, 1586939493, -98.6867904663086, 63.58049774169922, -100.92330932617188, -8.329048156738281, -4.0894317626953125, -0.683156430721283, 1.5044264793395996, -1.0422048568725586, -0.23453675210475922, -0.03857421875, 0.2978515625, -0.1865234375, 0, 
236, 1586947826, -98.68619537353516, 63.58076477050781, -100.91104888916016, -8.31041431427002, -4.259519577026367, -0.6195772886276245, 1.3857301473617554, -1.2446852922439575, -0.014715379104018211, -0.04052734375, 0.2978515625, -0.18603515625, 0, 
237, 1586956159, -98.68997192382812, 63.583099365234375, -100.92046356201172, -8.782587051391602, -4.3449201583862305, -0.6014888882637024, 1.586981177330017, -0.9251221418380737, 0.28311410546302795, -0.041015625, 0.29541015625, -0.1884765625, 0, 
238, 1586964492, -98.68962860107422, 63.585140228271484, -100.91976928710938, -9.007909774780273, -4.447618007659912, -0.7086150646209717, 1.5662847757339478, -1.1780883073806763, 0.20404298603534698, -0.03857421875, 0.29736328125, -0.1904296875, 0, 
239, 1586972825, -98.68882751464844, 63.58340072631836, -100.9198989868164, -8.867173194885254, -4.213273048400879, -0.6295082569122314, 1.7088792324066162, -1.0640794038772583, -0.24035115540027618, -0.04248046875, 0.29833984375, -0.1865234375, 0, 
240, 1586981158, -98.68426513671875, 63.58047103881836, -100.9127426147461, -8.408228874206543, -4.164277076721191, -0.7027572989463806, 1.5161066055297852, -1.357234239578247, -0.4181651771068573, -0.03662109375, 0.29833984375, -0.1904296875, 0, 
241, 1586989491, -98.68585968017578, 63.57889175415039, -100.91350555419922, -8.247023582458496, -4.147984981536865, -0.6556253433227539, 1.4903388023376465, -1.0340338945388794, -0.21499308943748474, -0.04052734375, 0.29541015625, -0.19140625, 0, 
242, 1586997824, -98.68766021728516, 63.58087158203125, -100.92314910888672, -8.577943801879883, -4.265255928039551, -0.6305791735649109, 1.629116415977478, -1.0170259475708008, 0.22502103447914124, -0.03759765625, 0.296875, -0.1865234375, 0, 
243, 1587006157, -98.68785858154297, 63.584007263183594, -100.921142578125, -8.973174095153809, -4.429808616638184, -0.5989881157875061, 1.6794228553771973, -1.1027055978775024, 0.3515041470527649, -0.0400390625, 0.296875, -0.19091796875, 0, 
244, 1587014490, -98.68470764160156, 63.582820892333984, -100.91839599609375, -9.054917335510254, -4.2233476638793945, -0.7208096981048584, 1.6828808784484863, -1.226371169090271, -0.19634591042995453, -0.04052734375, 0.2978515625, -0.18603515625, 0, 
245, 1587022823, -98.6817398071289, 63.58024597167969, -100.91523742675781, -8.606761932373047, -4.184953689575195, -0.6064568758010864, 1.6162325143814087, -1.2242708206176758, -0.3642728328704834, -0.0390625, 0.29541015625, -0.18310546875, 0, 
246, 1587031156, -98.6825942993164, 63.57716369628906, -100.9139404296875, -8.330948829650879, -4.19027042388916, -0.6148814558982849, 1.4927974939346313, -1.045406460762024, -0.39165443181991577, -0.04296875, 0.2978515625, -0.1884765625, 0, 
247, 1587039489, -98.68347930908203, 63.57766342163086, -100.91564178466797, -8.353279113769531, -4.263049602508545, -0.713523805141449, 1.675606608390808, -1.0244030952453613, 0.0404961071908474, -0.03955078125, 0.29736328125, -0.18505859375, 0, 
248, 1587047822, -98.68453979492188, 63.579952239990234, -100.92621612548828, -8.82713508605957, -4.365767002105713, -0.6265192627906799, 1.5646966695785522, -1.0957129001617432, 0.2504047453403473, -0.03857421875, 0.29736328125, -0.18798828125, 0, 
249, 1587056155, -98.68624877929688, 63.58100128173828, -100.92481994628906, -8.93249225616455, -4.461372375488281, -0.685322642326355, 1.6246724128723145, -1.005000114440918, 0.11648073047399521, -0.041015625, 0.298828125, -0.19287109375, 0, 
250, 1587064488, -98.68119049072266, 63.57976531982422, -100.92024993896484, -8.825861930847168, -4.117947578430176, -0.65503990650177, 1.7161792516708374, -1.3216816186904907, -0.21793870627880096, -0.03662109375, 0.2958984375, -0.18310546875, 0, 
251, 1587072821, -98.68016815185547, 63.576393127441406, -100.91785430908203, -8.423023223876953, -4.0851359367370605, -0.6756188869476318, 1.4630082845687866, -1.1708652973175049, -0.44908156991004944, -0.04248046875, 0.29736328125, -0.19189453125, 0, 
252, 1587081154, -98.68254089355469, 63.57602310180664, -100.92211151123047, -8.359944343566895, -4.309948444366455, -0.6496469378471375, 1.4208983182907104, -1.0408984422683716, -0.06632806360721588, -0.0400390625, 0.2978515625, -0.18896484375, 0, 
253, 1587089487, -98.68531036376953, 63.578460693359375, -100.92620086669922, -8.751141548156738, -4.288773059844971, -0.578024685382843, 1.705754280090332, -0.9321916103363037, 0.28990188241004944, -0.04150390625, 0.2998046875, -0.19091796875, 0, 
254, 1587097820, -98.6817626953125, 63.58073425292969, -100.92330169677734, -8.951666831970215, -4.3805623054504395, -0.7435578107833862, 1.7093148231506348, -1.295760154724121, 0.21943716704845428, -0.0419921875, 0.29833984375, -0.19775390625, 0, 
255, 1587106153, -98.6812744140625, 63.57887268066406, -100.92413330078125, -8.841592788696289, -4.235572814941406, -0.648877739906311, 1.7445086240768433, -1.021867036819458, -0.24281013011932373, -0.03857421875, 0.29736328125, -0.18896484375, 0, 
256, 1587114486, -98.67784118652344, 63.57614517211914, -100.92010498046875, -8.395318031311035, -4.152409553527832, -0.6639925837516785, 1.5793994665145874, -1.2694801092147827, -0.38558393716812134, -0.04345703125, 0.298828125, -0.19482421875, 0, 
257, 1587122819, -98.67753601074219, 63.57493591308594, -100.91969299316406, -8.317421913146973, -4.12851619720459, -0.6414200663566589, 1.5912330150604248, -1.102142095565796, -0.18084929883480072, -0.04150390625, 0.2958984375, -0.18505859375, 0, 
258, 1587131152, -98.68264770507812, 63.576351165771484, -100.94518280029297, -8.645112037658691, -4.307348251342773, -0.6160867214202881, 1.524072527885437, -0.8629819750785828, 0.17822383344173431, -0.0419921875, 0.30029296875, -0.19140625, 0, 
259, 1587139485, -98.68094635009766, 63.579429626464844, -100.94376373291016, -8.97435188293457, -4.465813636779785, -0.5837705135345459, 1.6494030952453613, -1.2324930429458618, 0.31797510385513306, -0.0400390625, 0.296875, -0.1875, 0, 
260, 1587147818, -98.6798095703125, 63.57883071899414, -100.9437026977539, -8.930805206298828, -4.278714179992676, -0.720215916633606, 1.7284228801727295, -1.0961741209030151, -0.09611741453409195, -0.0400390625, 0.29833984375, -0.1923828125, 0, 
261, 1587156151, -98.67544555664062, 63.576576232910156, -100.93833923339844, -8.554450035095215, -4.149413585662842, -0.6549845933914185, 1.5458190441131592, -1.3421730995178223, -0.33771082758903503, -0.04443359375, 0.2998046875, -0.18994140625, 0, 
262, 1587164484, -98.6756362915039, 63.57477951049805, -100.93811798095703, -8.23353099822998, -4.1407551765441895, -0.5925549268722534, 1.5537338256835938, -1.0825984477996826, -0.2467547208070755, -0.03857421875, 0.296875, -0.18798828125, 0, 
263, 1587172817, -98.67584991455078, 63.57680130004883, -100.9375991821289, -8.365391731262207, -4.291777610778809, -0.6878047585487366, 1.516695499420166, -1.1669204235076904, 0.20212192833423615, -0.04296875, 0.29833984375, -0.1962890625, 0, 
264, 1587181150, -98.6773452758789, 63.57949447631836, -100.94001007080078, -8.861787796020508, -4.363157749176025, -0.5291359424591064, 1.6770150661468506, -1.0217132568359375, 0.30831852555274963, -0.03759765625, 0.29736328125, -0.1884765625, 0, 
265, 1587189483, -98.67428588867188, 63.58156204223633, -100.93780517578125, -8.934255599975586, -4.3702473640441895, -0.698850691318512, 1.7302159070968628, -1.2564421892166138, 0.1943351924419403, -0.041015625, 0.29931640625, -0.18798828125, 0, 
266, 1587197816, -98.6688003540039, 63.580345153808594, -100.93182373046875, -8.826871871948242, -4.1623992919921875, -0.5762034058570862, 1.6135942935943604, -1.3967057466506958, -0.21663238108158112, -0.04150390625, 0.298828125, -0.19482421875, 0, 
267, 1587206149, -98.67118835449219, 63.5770263671875, -100.9327621459961, -8.394545555114746, -4.1461920738220215, -0.6667299270629883, 1.411370038986206, -0.9899518489837646, -0.4141693711280823, -0.0400390625, 0.2978515625, -0.18701171875, 0, 
268, 1587214482, -98.67141723632812, 63.576480865478516, -100.93174743652344, -8.309539794921875, -4.269649028778076, -0.6271132826805115, 1.463059425354004, -1.1481451988220215, -0.1035967692732811, -0.0419921875, 0.298828125, -0.1904296875, 0, 
269, 1587222815, -98.67151641845703, 63.5793342590332, -100.9330062866211, -8.645503997802734, -4.286838531494141, -0.6551485657691956, 1.7232232093811035, -1.0881311893463135, 0.31533685326576233, -0.03857421875, 0.29833984375, -0.19287109375, 0, 
270, 1587231148, -98.67218780517578, 63.58172607421875, -100.93576049804688, -8.885869979858398, -4.439007759094238, -0.6830777525901794, 1.701476812362671, -1.0559595823287964, 0.27097296714782715, -0.04296875, 0.29638671875, -0.1923828125, 0, 
271, 1587239481, -98.6729965209961, 63.58305740356445, -100.93668365478516, -8.8469877243042, -4.209292411804199, -0.6496771574020386, 1.6010946035385132, -1.077987790107727, 0.13073503971099854, -0.04052734375, 0.30029296875, -0.189453125, 0, 
272, 1587247814, -98.66746520996094, 63.58073425292969, -100.92034912109375, -8.471251487731934, -4.138729095458984, -0.6729697585105896, 1.631165623664856, -1.366506576538086, -0.3510814905166626, -0.04150390625, 0.2958984375, -0.18701171875, 0, 
273, 1587256147, -98.6667251586914, 63.57973861694336, -100.92656707763672, -8.367090225219727, -4.222410202026367, -0.6360316276550293, 1.5280171632766724, -1.160568356513977, -0.1554143726825714, -0.04443359375, 0.298828125, -0.1904296875, 0, 
274, 1587264480, -98.671875, 63.581119537353516, -100.93134307861328, -8.558883666992188, -4.311293125152588, -0.6667918562889099, 1.49551260471344, -0.8769930601119995, 0.16971991956233978, -0.04150390625, 0.29736328125, -0.185546875, 0, 
275, 1587272813, -98.67034912109375, 63.583290100097656, -100.92992401123047, -8.935846328735352, -4.387827396392822, -0.5502706170082092, 1.6315754652023315, -1.2179440259933472, 0.21328972280025482, -0.04248046875, 0.298828125, -0.1904296875, 0, 
276, 1587281146, -98.66960906982422, 63.58317947387695, -100.93651580810547, -8.886941909790039, -4.329703330993652, -0.7660260796546936, 1.6150542497634888, -1.1307021379470825, -0.04529877379536629, -0.0400390625, 0.298828125, -0.18701171875, 0, 
277, 1587289479, -98.66565704345703, 63.58055114746094, -100.93113708496094, -8.603154182434082, -4.15355110168457, -0.6631761789321899, 1.495538353919983, -1.340917944908142, -0.38827335834503174, -0.04248046875, 0.29833984375, -0.18896484375, 0, 
278, 1587297812, -98.6671142578125, 63.577735900878906, -100.92111206054688, -8.323030471801758, -4.080230236053467, -0.6109766960144043, 1.4319636821746826, -1.0446892976760864, -0.3582022190093994, -0.03955078125, 0.29833984375, -0.19482421875, 0, 
279, 1587306145, -98.66943359375, 63.57872772216797, -100.92269897460938, -8.427214622497559, -4.336226463317871, -0.6743102073669434, 1.4903385639190674, -1.0358524322509766, 0.1043267697095871, -0.0400390625, 0.29736328125, -0.18603515625, 0, 
280, 1587314478, -98.67375946044922, 63.58169937133789, -100.92778778076172, -8.904022216796875, -4.370508670806885, -0.5422754883766174, 1.6273491382598877, -0.8890316486358643, 0.3577539920806885, -0.0419921875, 0.2958984375, -0.193359375, 0, 
281, 1587322811, -98.67505645751953, 63.583072662353516, -100.92951202392578, -8.9971923828125, -4.3497395515441895, -0.7376880049705505, 1.628578543663025, -1.037005066871643, 0.14541201293468475, -0.041015625, 0.296875, -0.185546875, 0, 
282, 1587331144, -98.67039489746094, 63.581077575683594, -100.92432403564453, -8.790842056274414, -4.203967094421387, -0.5907078385353088, 1.5998649597167969, -1.3398164510726929, -0.30528321862220764, -0.04248046875, 0.2978515625, -0.19775390625, 0, 
283, 1587339477, -98.67131805419922, 63.578224182128906, -100.92578887939453, -8.383574485778809, -4.110576152801514, -0.6985689401626587, 1.6454328298568726, -0.9734562039375305, -0.36096858978271484, -0.0390625, 0.29638671875, -0.1875, 0, 
284, 1587347810, -98.67335510253906, 63.57844924926758, -100.92672729492188, -8.280974388122559, -4.194716930389404, -0.6528110504150391, 1.4558364152908325, -1.0566513538360596, 0.00904182530939579, -0.041015625, 0.2978515625, -0.18798828125, 0, 
285, 1587356143, -98.67833709716797, 63.58043670654297, -100.93310546875, -8.728918075561523, -4.2960896492004395, -0.5900751352310181, 1.6848018169403076, -0.7981523275375366, 0.25685954093933105, -0.04150390625, 0.29833984375, -0.19775390625, 0, 
286, 1587364476, -98.67565155029297, 63.582916259765625, -100.93043518066406, -8.965252876281738, -4.455670356750488, -0.6620553135871887, 1.6354433298110962, -1.290022373199463, 0.2412092536687851, -0.03955078125, 0.2978515625, -0.1865234375, 0, 
287, 1587372809, -98.67807006835938, 63.582305908203125, -100.93335723876953, -8.98547077178955, -4.177361965179443, -0.6633161306381226, 1.6239169836044312, -0.9390563368797302, -0.08031344413757324, -0.04248046875, 0.30029296875, -0.19287109375, 0, 
288, 1587381142, -98.67376708984375, 63.57989501953125, -100.92813873291016, -8.503841400146484, -4.1818437576293945, -0.5946820974349976, 1.5527092218399048, -1.3311845064163208, -0.3583047091960907, -0.03857421875, 0.298828125, -0.1884765625, 0, 
289, 1587389475, -98.6763687133789, 63.57781219482422, -100.92955780029297, -8.266990661621094, -4.198546409606934, -0.686779797077179, 1.4384443759918213, -0.991565465927124, -0.26870617270469666, -0.0439453125, 0.29931640625, -0.1904296875, 0, 
290, 1587397808, -98.67823791503906, 63.57992172241211, -100.9312973022461, -8.464564323425293, -4.23932409286499, -0.6838252544403076, 1.5606753826141357, -1.0462775230407715, 0.23857098817825317, -0.041015625, 0.2998046875, -0.1943359375, 0, 
291, 1587406141, -98.68017578125, 63.583168029785156, -100.93392181396484, -8.857600212097168, -4.382558345794678, -0.5635002255439758, 1.6468415260314941, -1.02040696144104, 0.37668293714523315, -0.0400390625, 0.296875, -0.1875, 0, 
292, 1587414474, -98.68037414550781, 63.58391189575195, -100.93506622314453, -8.966527938842773, -4.336948394775391, -0.7543899416923523, 1.698684811592102, -1.056215763092041, 0.06457348167896271, -0.0419921875, 0.298828125, -0.19140625, 0, 
293, 1587422807, -98.67569732666016, 63.582847595214844, -100.93029022216797, -8.734869956970215, -4.124272346496582, -0.636345386505127, 1.6482247114181519, -1.336051344871521, -0.19816452264785767, -0.03955078125, 0.29736328125, -0.185546875, 0, 
294, 1587431140, -98.6766128540039, 63.579444885253906, -100.92740631103516, -8.38705825805664, -4.113740921020508, -0.6239662766456604, 1.5155941247940063, -1.024761438369751, -0.42751437425613403, -0.044921875, 0.298828125, -0.19775390625, 0, 
295, 1587439473, -98.68030548095703, 63.579559326171875, -100.92996978759766, -8.355795860290527, -4.325603485107422, -0.5998606085777283, 1.4325785636901855, -0.9706898331642151, 0.0013831686228513718, -0.041015625, 0.29931640625, -0.18505859375, 0, 
296, 1587447806, -98.6825942993164, 63.581233978271484, -100.93273162841797, -8.836393356323242, -4.302226543426514, -0.6266365647315979, 1.619050145149231, -0.9850850105285645, 0.19500117003917694, -0.041015625, 0.2978515625, -0.19384765625, 0, 
297, 1587456139, -98.6832504272461, 63.581356048583984, -100.9342041015625, -8.899911880493164, -4.384746551513672, -0.6839661002159119, 1.6765542030334473, -1.0242749452590942, -0.0035988001618534327, -0.0419921875, 0.29931640625, -0.18896484375, 0, 
298, 1587464472, -98.67972564697266, 63.579505920410156, -100.93029022216797, -8.794490814208984, -4.212923049926758, -0.6292932033538818, 1.6011971235275269, -1.2772923707962036, -0.28248655796051025, -0.0361328125, 0.296875, -0.1845703125, 0, 
299, 1587472805, -98.67832946777344, 63.57566833496094, -100.92821502685547, -8.322510719299316, -4.131014823913574, -0.6652305126190186, 1.544999599456787, -1.1443544626235962, -0.5029996037483215, -0.04150390625, 0.30029296875, -0.1923828125, 0, 
300, 1587481138, -98.68118286132812, 63.57500457763672, -100.9295654296875, -8.312317848205566, -4.19990348815918, -0.6511557102203369, 1.3995362520217896, -1.018306851387024, -0.09624549001455307, -0.0390625, 0.296875, -0.18505859375, 0, 
301, 1587489471, -98.68598175048828, 63.57687759399414, -100.93460083007812, -8.665265083312988, -4.335284233093262, -0.520770788192749, 1.5649528503417969, -0.8715627193450928, 0.2293754667043686, -0.041015625, 0.2958984375, -0.1865234375, 0, 
302, 1587497804, -98.68608856201172, 63.57878112792969, -100.93368530273438, -8.988643646240234, -4.446808338165283, -0.6902787089347839, 1.48726487159729, -1.1817511320114136, 0.19236290454864502, -0.04150390625, 0.2998046875, -0.185546875, 0, 
303, 1587506137, -98.68569946289062, 63.57794189453125, -100.93439483642578, -8.925305366516113, -4.236291885375977, -0.6405513882637024, 1.721045970916748, -1.0483266115188599, -0.122115857899189, -0.03857421875, 0.29736328125, -0.1904296875, 0, 
304, 1587514470, -98.68380737304688, 63.57466506958008, -100.93199920654297, -8.466903686523438, -4.154696464538574, -0.6990188956260681, 1.5678473711013794, -1.173836588859558, -0.43916890025138855, -0.04150390625, 0.30029296875, -0.19580078125, 0, 
305, 1587522803, -98.68367767333984, 63.57217025756836, -100.93069458007812, -8.257566452026367, -4.088644981384277, -0.6408109664916992, 1.475738525390625, -1.127987027168274, -0.3382487893104553, -0.03662109375, 0.2978515625, -0.18505859375, 0, 
306, 1587531136, -98.6884994506836, 63.57286834716797, -100.9355697631836, -8.433143615722656, -4.303609371185303, -0.6610763072967529, 1.5416696071624756, -0.8547854423522949, 0.09395301342010498, -0.04248046875, 0.298828125, -0.19287109375, 0, 
307, 1587539469, -98.68992614746094, 63.57491683959961, -100.9372329711914, -8.937923431396484, -4.394596576690674, -0.5784834027290344, 1.6062816381454468, -1.0522328615188599, 0.2239580899477005, -0.041015625, 0.296875, -0.1904296875, 0, 
308, 1587547802, -98.68966674804688, 63.57481384277344, -100.93624114990234, -9.03127670288086, -4.28475284576416, -0.7235975861549377, 1.726732611656189, -1.0516053438186646, -0.03469448164105415, -0.03955078125, 0.296875, -0.1865234375, 0, 
309, 1587556135, -98.68267059326172, 63.57236099243164, -100.92455291748047, -8.694169044494629, -4.235940456390381, -0.6534262299537659, 1.566515326499939, -1.4859201908111572, -0.38212594389915466, -0.04248046875, 0.2958984375, -0.193359375, 0, 
310, 1587564468, -98.68510437011719, 63.568973541259766, -100.92585754394531, -8.351866722106934, -4.17686653137207, -0.6059698462486267, 1.4489206075668335, -0.9714327454566956, -0.4265666902065277, -0.03955078125, 0.2958984375, -0.18505859375, 0, 
311, 1587572801, -98.68411254882812, 63.5685920715332, -100.92390441894531, -8.29193115234375, -4.234472274780273, -0.6796661615371704, 1.5066035985946655, -1.2013204097747803, -0.09148123115301132, -0.0419921875, 0.30029296875, -0.189453125, 0, 
312, 1587581134, -98.68798065185547, 63.57114791870117, -100.93102264404297, -8.738924980163574, -4.257715702056885, -0.6435937285423279, 1.6445361375808716, -0.9004043340682983, 0.31628453731536865, -0.03662109375, 0.298828125, -0.19091796875, 0, 
313, 1587589467, -98.6850814819336, 63.57343292236328, -100.9281234741211, -8.946420669555664, -4.46463680267334, -0.6898256540298462, 1.6330610513687134, -1.2987569570541382, 0.21549254655838013, -0.03955078125, 0.296875, -0.18701171875, 0, 
314, 1587597800, -98.68336486816406, 63.57215118408203, -100.92385864257812, -8.92042350769043, -4.164100170135498, -0.6250606179237366, 1.5849833488464355, -1.1844406127929688, -0.19900979101657867, -0.04150390625, 0.298828125, -0.193359375, 0, 
315, 1587606133, -98.68003845214844, 63.56916427612305, -100.9248275756836, -8.501901626586914, -4.066319465637207, -0.6766149997711182, 1.5375455617904663, -1.277445912361145, -0.4169869124889374, -0.04052734375, 0.29931640625, -0.18359375, 0, 
316, 1587614466, -98.68047332763672, 63.567909240722656, -100.92384338378906, -8.358053207397461, -4.318840503692627, -0.603015124797821, 1.4417742490768433, -1.1301385164260864, -0.18917393684387207, -0.0439453125, 0.29833984375, -0.19091796875, 0, 
317, 1587622799, -98.68421173095703, 63.568878173828125, -100.92750549316406, -8.610915184020996, -4.306183338165283, -0.6553233861923218, 1.5422074794769287, -0.9293741583824158, 0.11090964823961258, -0.03662109375, 0.29736328125, -0.18505859375, 0, 
318, 1587631132, -98.68306732177734, 63.570560455322266, -100.92742919921875, -8.8955717086792, -4.3570075035095215, -0.6376531720161438, 1.7318296432495117, -1.1309579610824585, 0.17105184495449066, -0.04052734375, 0.29931640625, -0.19482421875, 0, 
319, 1587639465, -98.6829833984375, 63.56953430175781, -100.9288101196289, -8.906634330749512, -4.268612384796143, -0.6826242804527283, 1.756598711013794, -1.010366439819336, -0.14393919706344604, -0.0380859375, 0.2978515625, -0.18310546875, 0, 
320, 1587647798, -98.67888641357422, 63.56752014160156, -100.92448425292969, -8.51285457611084, -4.166195392608643, -0.6554341912269592, 1.6250054836273193, -1.294184923171997, -0.3006855249404907, -0.0390625, 0.29638671875, -0.1865234375, 0, 
321, 1587656131, -98.68064880371094, 63.56637191772461, -100.92567443847656, -8.369016647338867, -4.119354248046875, -0.6693053245544434, 1.5148258209228516, -1.0174102783203125, -0.15451785922050476, -0.0419921875, 0.29736328125, -0.1904296875, 0, 
322, 1587664464, -98.683349609375, 63.56763458251953, -100.9278564453125, -8.513511657714844, -4.308199882507324, -0.6106113791465759, 1.5101895332336426, -1.0108271837234497, 0.13491016626358032, -0.03955078125, 0.296875, -0.19189453125, 0, 
323, 1587672797, -98.68486022949219, 63.570743560791016, -100.92953491210938, -8.950191497802734, -4.412773132324219, -0.5750999450683594, 1.5973292589187622, -1.0717380046844482, 0.3501465916633606, -0.04345703125, 0.29833984375, -0.189453125, 0, 
324, 1587681130, -98.6840591430664, 63.57163619995117, -100.9295425415039, -8.930307388305664, -4.354776859283447, -0.6931479573249817, 1.696533203125, -1.116998314857483, 0.07861009240150452, -0.0390625, 0.29833984375, -0.18408203125, 0, 
325, 1587689463, -98.67943572998047, 63.569610595703125, -100.92440032958984, -8.682579040527344, -4.1649932861328125, -0.6328731775283813, 1.600172519683838, -1.3382028341293335, -0.3128650486469269, -0.0419921875, 0.2958984375, -0.18798828125, 0, 
326, 1587697796, -98.67850494384766, 63.5671501159668, -100.92305755615234, -8.290252685546875, -4.096746921539307, -0.6689662933349609, 1.5670276880264282, -1.126193881034851, -0.33189645409584045, -0.041015625, 0.30029296875, -0.1875, 0, 
327, 1587706129, -98.6802749633789, 63.56837844848633, -100.91316986083984, -8.313034057617188, -4.2668328285217285, -0.6624048948287964, 1.4321943521499634, -1.0995550155639648, 0.12374236434698105, -0.041015625, 0.296875, -0.18603515625, 0, 
328, 1587714462, -98.68572998046875, 63.57154846191406, -100.92009735107422, -8.783676147460938, -4.308191299438477, -0.5270243287086487, 1.6863131523132324, -0.7965643405914307, 0.4000431299209595, -0.04248046875, 0.2978515625, -0.19580078125, 0, 
329, 1587722795, -98.68366241455078, 63.573707580566406, -100.9186782836914, -8.973210334777832, -4.397009372711182, -0.7193037271499634, 1.6963282823562622, -1.218584418296814, 0.2137763947248459, -0.03759765625, 0.298828125, -0.18701171875, 0, 
330, 1587731128, -98.68060302734375, 63.57318115234375, -100.9163589477539, -8.897197723388672, -4.195854663848877, -0.616625189781189, 1.7144887447357178, -1.2104390859603882, -0.11156279593706131, -0.04150390625, 0.29833984375, -0.19384765625, 0, 
331, 1587739461, -98.67826080322266, 63.57022476196289, -100.91336822509766, -8.46291446685791, -4.128655433654785, -0.6847971677780151, 1.5598044395446777, -1.2079546451568604, -0.4077146053314209, -0.0390625, 0.29833984375, -0.19091796875, 0, 
332, 1587747794, -98.67728424072266, 63.569129943847656, -100.92195129394531, -8.22580337524414, -4.239375114440918, -0.6000701785087585, 1.465057373046875, -1.2060589790344238, -0.17662294209003448, -0.04150390625, 0.29638671875, -0.18603515625, 0, 
333, 1587756127, -98.68377685546875, 63.570072174072266, -100.92095184326172, -8.568683624267578, -4.260777473449707, -0.7421424388885498, 1.556986927986145, -0.7556070685386658, 0.14080144464969635, -0.041015625, 0.29833984375, -0.189453125, 0, 
334, 1587764460, -98.68126678466797, 63.572635650634766, -100.91824340820312, -8.859424591064453, -4.437656402587891, -0.5989468097686768, 1.6085485219955444, -1.2938390970230103, 0.24881669878959656, -0.0380859375, 0.29833984375, -0.1865234375, 0, 
335, 1587772793, -98.67997741699219, 63.57240295410156, -100.91806030273438, -8.931949615478516, -4.265636444091797, -0.7181186676025391, 1.7342373132705688, -1.108059048652649, -0.06235785409808159, -0.04150390625, 0.29931640625, -0.19384765625, 0, 
336, 1587781126, -98.67401885986328, 63.56959533691406, -100.91454315185547, -8.594870567321777, -4.138160228729248, -0.6458677053451538, 1.5772219896316528, -1.4105631113052368, -0.41665393114089966, -0.03955078125, 0.29638671875, -0.18603515625, 0, 
337, 1587789459, -98.677490234375, 63.56740951538086, -100.91607666015625, -8.358831405639648, -4.189331531524658, -0.5693439245223999, 1.344465732574463, -0.9834713935852051, -0.28061679005622864, -0.0419921875, 0.2998046875, -0.18896484375, 0, 
338, 1587797792, -98.6808090209961, 63.56801223754883, -100.91822814941406, -8.396332740783691, -4.311058044433594, -0.649607241153717, 1.500533103942871, -0.9632874131202698, 0.06646893918514252, -0.04052734375, 0.29833984375, -0.18798828125, 0, 
339, 1587806125, -98.6852035522461, 63.56980895996094, -100.92497253417969, -8.884272575378418, -4.3107781410217285, -0.6095603108406067, 1.590029239654541, -0.8805021047592163, 0.2253028154373169, -0.0390625, 0.2978515625, -0.19140625, 0, 
340, 1587814458, -98.6840591430664, 63.569725036621094, -100.9234619140625, -8.90589427947998, -4.3515825271606445, -0.6862454414367676, 1.5741740465164185, -1.1807008981704712, -0.05395638570189476, -0.041015625, 0.2998046875, -0.1943359375, 0, 
341, 1587822791, -98.68186950683594, 63.56739807128906, -100.9211654663086, -8.702054977416992, -4.182085990905762, -0.6624444127082825, 1.6160022020339966, -1.1815463304519653, -0.3279518485069275, -0.0400390625, 0.2978515625, -0.18359375, 0, 
342, 1587831124, -98.68153381347656, 63.56533432006836, -100.9146499633789, -8.359305381774902, -4.0843825340271, -0.6344693303108215, 1.4367536306381226, -1.1619513034820557, -0.2868153750896454, -0.0419921875, 0.298828125, -0.1943359375, 0, 
343, 1587839457, -98.68397521972656, 63.56577682495117, -100.91620635986328, -8.352917671203613, -4.296469688415527, -0.5831712484359741, 1.471563458442688, -1.0287573337554932, 0.02953321486711502, -0.0400390625, 0.29833984375, -0.18505859375, 0, 
344, 1587847790, -98.68585968017578, 63.56863784790039, -100.91992950439453, -8.80118179321289, -4.349217414855957, -0.5756060481071472, 1.5825754404067993, -1.0511186122894287, 0.32893800735473633, -0.04052734375, 0.296875, -0.1875, 0, 
345, 1587856123, -98.68802642822266, 63.56956100463867, -100.92024230957031, -8.975919723510742, -4.414894104003906, -0.6862751841545105, 1.660570740699768, -0.9580107927322388, 0.10394255816936493, -0.04345703125, 0.30029296875, -0.18896484375, 0, 
346, 1587864456, -98.68660736083984, 63.56817626953125, -100.91725158691406, -8.808570861816406, -4.2043375968933105, -0.6521285772323608, 1.4507391452789307, -1.2368474006652832, -0.21770820021629333, -0.03857421875, 0.296875, -0.18505859375, 0, 
347, 1587872789, -98.68370056152344, 63.56536865234375, -100.91301727294922, -8.364919662475586, -4.165900230407715, -0.6944330334663391, 1.491721749305725, -1.274397850036621, -0.4009779989719391, -0.04248046875, 0.30224609375, -0.1962890625, 0, 
348, 1587881122, -98.6842269897461, 63.56532669067383, -100.89571380615234, -8.327483177185059, -4.185030937194824, -0.6683474779129028, 1.4785048961639404, -1.1293443441390991, -0.036359407007694244, -0.0390625, 0.3017578125, -0.1875, 0, 
349, 1587889455, -98.6916275024414, 63.567054748535156, -100.90316009521484, -8.588987350463867, -4.292294979095459, -0.5819072127342224, 1.5125974416732788, -0.7423901557922363, 0.23554852604866028, -0.04248046875, 0.29931640625, -0.1982421875, 0, 
350, 1587897788, -98.69234466552734, 63.56929397583008, -100.8956069946289, -8.984809875488281, -4.416721343994141, -0.6546129584312439, 1.5690255165100098, -1.1101592779159546, 0.24041518568992615, -0.04150390625, 0.2998046875, -0.20068359375, 0, 
351, 1587906121, -98.6917495727539, 63.56935501098633, -100.8958740234375, -8.953787803649902, -4.23563814163208, -0.6781790852546692, 1.6985054016113281, -1.089155673980713, -0.01755855791270733, -0.041015625, 0.29833984375, -0.19677734375, 0, 
352, 1587914454, -98.68888854980469, 63.5659065246582, -100.89230346679688, -8.595182418823242, -4.161142349243164, -0.686703085899353, 1.5580883026123047, -1.2283433675765991, -0.4716476798057556, -0.04248046875, 0.30078125, -0.19287109375, 0, 
353, 1587922787, -98.69121551513672, 63.563873291015625, -100.89337921142578, -8.27585220336914, -4.198803424835205, -0.5603086352348328, 1.4366257190704346, -1.0095722675323486, -0.2672461271286011, -0.0390625, 0.29736328125, -0.1884765625, 0, 
354, 1587931120, -98.69550323486328, 63.56452941894531, -100.8971939086914, -8.395329475402832, -4.267030715942383, -0.7483558058738708, 1.5071158409118652, -0.9067054986953735, 0.08701155334711075, -0.04248046875, 0.2998046875, -0.19140625, 0, 
355, 1587939453, -98.69772338867188, 63.56668472290039, -100.90042114257812, -8.854164123535156, -4.363574028015137, -0.6193965077400208, 1.6792949438095093, -0.9721242785453796, 0.249482661485672, -0.04248046875, 0.298828125, -0.1962890625, 0, 
356, 1587947786, -98.69690704345703, 63.567527770996094, -100.89973449707031, -8.918506622314453, -4.391416072845459, -0.675568163394928, 1.7039356231689453, -1.1120548248291016, 0.07269319146871567, -0.04052734375, 0.296875, -0.1904296875, 0, 
357, 1587956119, -98.69336700439453, 63.56603240966797, -100.89575958251953, -8.741119384765625, -4.147709846496582, -0.6718419790267944, 1.5961766242980957, -1.2816723585128784, -0.23919853568077087, -0.04296875, 0.30029296875, -0.19677734375, 0, 
358, 1587964452, -98.6927490234375, 63.56300354003906, -100.89482116699219, -8.430392265319824, -4.12330961227417, -0.6485415697097778, 1.5729700326919556, -1.0989915132522583, -0.3992106318473816, -0.03955078125, 0.2978515625, -0.18798828125, 0, 
359, 1587972785, -98.69530487060547, 63.56245040893555, -100.89663696289062, -8.384063720703125, -4.341654300689697, -0.6601617336273193, 1.4861763715744019, -0.9973672032356262, -0.08252906799316406, -0.04248046875, 0.2998046875, -0.19140625, 0, 
360, 1587981118, -98.69570922851562, 63.56428146362305, -100.89695739746094, -8.771781921386719, -4.2851691246032715, -0.5649803280830383, 1.586148738861084, -1.1173186302185059, 0.19227327406406403, -0.03955078125, 0.29736328125, -0.18896484375, 0, 
361, 1587989451, -98.69588470458984, 63.564910888671875, -100.89693450927734, -8.936907768249512, -4.365744590759277, -0.7281742095947266, 1.5752497911453247, -1.1160249710083008, 0.041443832218647, -0.04150390625, 0.296875, -0.1962890625, 0, 
362, 1587997784, -98.6932601928711, 63.5633544921875, -100.89429473876953, -8.781839370727539, -4.209712982177734, -0.6280620694160461, 1.6287577152252197, -1.213794469833374, -0.23282058537006378, -0.0439453125, 0.29931640625, -0.18896484375, 0, 
363, 1588006117, -98.69358825683594, 63.56059265136719, -100.8941650390625, -8.397602081298828, -4.126038551330566, -0.6556606292724609, 1.5453836917877197, -1.0574709177017212, -0.35482120513916016, -0.0390625, 0.2998046875, -0.1943359375, 0, 
364, 1588014450, -98.68911743164062, 63.55968475341797, -100.8885269165039, -8.381134033203125, -4.2000579833984375, -0.703148365020752, 1.5296180248260498, -1.3855507373809814, -0.1863691657781601, -0.04443359375, 0.30029296875, -0.19189453125, 0, 
365, 1588022783, -98.6993637084961, 63.560791015625, -100.89900207519531, -8.638860702514648, -4.31350040435791, -0.6059602499008179, 1.4964861869812012, -0.5706980228424072, 0.18360283970832825, -0.03955078125, 0.296875, -0.19189453125, 0, 
366, 1588031116, -98.69572448730469, 63.562767028808594, -100.89240264892578, -9.00406265258789, -4.444408893585205, -0.6221461892127991, 1.598814845085144, -1.3544423580169678, 0.17435608804225922, -0.04345703125, 0.30029296875, -0.1923828125, 0, 
367, 1588039449, -98.69430541992188, 63.56159210205078, -100.89202117919922, -8.880549430847168, -4.290846824645996, -0.6839273571968079, 1.7288070917129517, -1.101988434791565, -0.17342117428779602, -0.03857421875, 0.29931640625, -0.1884765625, 0, 
368, 1588047782, -98.69509887695312, 63.55842208862305, -100.89668273925781, -8.552465438842773, -4.14307975769043, -0.7243685722351074, 1.5776320695877075, -1.0036810636520386, -0.399210661649704, -0.04150390625, 0.298828125, -0.19287109375, 0, 
369, 1588056115, -98.69547271728516, 63.55678939819336, -100.88764953613281, -8.272820472717285, -4.128993988037109, -0.5868110656738281, 1.426635980606079, -1.1347233057022095, -0.23458796739578247, -0.04248046875, 0.30029296875, -0.1953125, 0, 
370, 1588064448, -98.69786834716797, 63.55768585205078, -100.89002990722656, -8.455198287963867, -4.326756000518799, -0.7004224061965942, 1.5685644149780273, -0.9940499663352966, 0.09321019798517227, -0.03857421875, 0.29638671875, -0.18896484375, 0, 
371, 1588072781, -98.7002182006836, 63.56050491333008, -100.89280700683594, -8.912446975708008, -4.384106636047363, -0.5556649565696716, 1.61602783203125, -1.0093929767608643, 0.32740116119384766, -0.04296875, 0.29931640625, -0.19775390625, 0, 
372, 1588081114, -98.70075988769531, 63.5609016418457, -100.9008560180664, -8.988814353942871, -4.2958855628967285, -0.691834568977356, 1.7115687131881714, -1.018870234489441, 0.029302682727575302, -0.03857421875, 0.298828125, -0.1884765625, 0, 
373, 1588089447, -98.69358825683594, 63.559329986572266, -100.89273834228516, -8.719399452209473, -4.1994147300720215, -0.5984209179878235, 1.5875959396362305, -1.5047723054885864, -0.28281959891319275, -0.04248046875, 0.30029296875, -0.19677734375, 0, 
374, 1588097780, -98.69468688964844, 63.55742263793945, -100.89301300048828, -8.347077369689941, -4.151790618896484, -0.6601011157035828, 1.553964376449585, -1.0219184160232544, -0.24662669003009796, -0.041015625, 0.30029296875, -0.19384765625, 0, 
375, 1588106113, -98.69589233398438, 63.557586669921875, -100.8895492553711, -8.293533325195312, -4.267305850982666, -0.6500976085662842, 1.4795807600021362, -1.093459129333496, -0.004315998870879412, -0.041015625, 0.29833984375, -0.18798828125, 0, 
376, 1588114446, -98.70137023925781, 63.560264587402344, -100.89619445800781, -8.760271072387695, -4.274358749389648, -0.626332700252533, 1.6560883522033691, -0.7979474067687988, 0.3354952037334442, -0.04345703125, 0.30029296875, -0.19384765625, 0, 
377, 1588122779, -98.69963836669922, 63.561031341552734, -100.89453887939453, -8.9263916015625, -4.455839157104492, -0.6750828623771667, 1.6280919313430786, -1.2072372436523438, 0.045849479734897614, -0.0390625, 0.2978515625, -0.18603515625, 0, 
378, 1588131112, -98.69747924804688, 63.56098937988281, -100.89756774902344, -8.900765419006348, -4.171626567840576, -0.6640405058860779, 1.589465856552124, -1.2324674129486084, -0.05121566355228424, -0.0439453125, 0.30029296875, -0.19189453125, 0, 
379, 1588139445, -98.69540405273438, 63.55902862548828, -100.89508056640625, -8.389030456542969, -4.084378719329834, -0.5995615720748901, 1.580039620399475, -1.1993736028671265, -0.28581640124320984, -0.04052734375, 0.29736328125, -0.19140625, 0, 
380, 1588147778, -98.6988525390625, 63.558162689208984, -100.89891815185547, -8.350008964538574, -4.285722732543945, -0.6731048226356506, 1.4305293560028076, -0.9630824327468872, -0.11261298507452011, -0.03955078125, 0.296875, -0.1953125, 0, 
381, 1588156111, -98.6995849609375, 63.55987548828125, -100.8998794555664, -8.555610656738281, -4.300611972808838, -0.5715492963790894, 1.6126209497451782, -1.0809845924377441, 0.18472985923290253, -0.04345703125, 0.2998046875, -0.19287109375, 0, 
382, 1588164444, -98.69359588623047, 63.56243133544922, -100.89417266845703, -8.954593658447266, -4.37212610244751, -0.6664136648178101, 1.7049347162246704, -1.453492522239685, 0.22420139610767365, -0.03759765625, 0.2978515625, -0.18896484375, 0, 
383, 1588172777, -98.69108581542969, 63.56166458129883, -100.89186096191406, -8.883163452148438, -4.27182149887085, -0.7190805673599243, 1.6507861614227295, -1.2130261659622192, -0.1400202214717865, -0.044921875, 0.29931640625, -0.1943359375, 0, 
384, 1588181110, -98.68680572509766, 63.5593147277832, -100.8865737915039, -8.47390365600586, -4.183248996734619, -0.6100276112556458, 1.5438722372055054, -1.3364099264144897, -0.350671648979187, -0.03857421875, 0.29833984375, -0.18701171875, 0, 
385, 1588189443, -98.68710327148438, 63.55836868286133, -100.8863296508789, -8.313194274902344, -4.10367488861084, -0.570244312286377, 1.5376225709915161, -1.1000672578811646, -0.146603062748909, -0.0419921875, 0.2998046875, -0.19873046875, 0, 
386, 1588197776, -98.69181060791016, 63.560279846191406, -100.89073181152344, -8.509020805358887, -4.314074516296387, -0.6899383664131165, 1.508089303970337, -0.9035037159919739, 0.23593269288539886, -0.04248046875, 0.30029296875, -0.19140625, 0, 
387, 1588206109, -98.69322204589844, 63.56167984008789, -100.89164733886719, -8.926716804504395, -4.407099723815918, -0.513218343257904, 1.5259424448013306, -1.0762203931808472, 0.14610359072685242, -0.0400390625, 0.29833984375, -0.19482421875, 0, 
388, 1588214442, -98.69161224365234, 63.56167221069336, -100.88976287841797, -8.9752836227417, -4.340775966644287, -0.732430100440979, 1.589747428894043, -1.2040610313415527, -0.05006301775574684, -0.04296875, 0.30029296875, -0.1962890625, 0, 
389, 1588222775, -98.68820190429688, 63.55990219116211, -100.88654327392578, -8.67918586730957, -4.191316604614258, -0.6361507773399353, 1.6632345914840698, -1.2408430576324463, -0.2664008140563965, -0.03955078125, 0.2978515625, -0.18994140625, 0, 
390, 1588231108, -98.6888656616211, 63.558231353759766, -100.8862533569336, -8.28002643585205, -4.1095709800720215, -0.6229040026664734, 1.4871113300323486, -1.0832901000976562, -0.23438306152820587, -0.044921875, 0.2998046875, -0.19287109375, 0, 
391, 1588239441, -98.69175720214844, 63.55893325805664, -100.88885498046875, -8.294306755065918, -4.257335662841797, -0.6779142618179321, 1.5313984155654907, -0.977989912033081, 0.07159179449081421, -0.041015625, 0.30029296875, -0.1953125, 0, 
392, 1588247774, -98.69596099853516, 63.560848236083984, -100.8998794555664, -8.828900337219238, -4.2876877784729, -0.5508440732955933, 1.5580627918243408, -0.9122125506401062, 0.2399541586637497, -0.04150390625, 0.2978515625, -0.1875, 0, 
393, 1588256107, -98.69692993164062, 63.56267166137695, -100.90003967285156, -8.995274543762207, -4.447267532348633, -0.6870946884155273, 1.6216115951538086, -1.0628496408462524, 0.19623064994812012, -0.04052734375, 0.296875, -0.19482421875, 0, 
394, 1588264440, -98.69278717041016, 63.561439514160156, -100.89613342285156, -8.93503475189209, -4.161284923553467, -0.6445533037185669, 1.6775786876678467, -1.2869998216629028, -0.21058742702007294, -0.03857421875, 0.2998046875, -0.1875, 0, 
395, 1588272773, -98.69196319580078, 63.55780029296875, -100.89463806152344, -8.399537086486816, -4.1497673988342285, -0.5981460213661194, 1.5360344648361206, -1.1183302402496338, -0.47600212693214417, -0.04345703125, 0.30029296875, -0.19140625, 0, 
396, 1588281106, -98.69355773925781, 63.55665969848633, -100.90081787109375, -8.302790641784668, -4.249492645263672, -0.690758466720581, 1.4277886152267456, -1.0729930400848389, -0.16120317578315735, -0.0390625, 0.29541015625, -0.18701171875, 0, 
397, 1588289439, -98.69789123535156, 63.55818176269531, -100.90506744384766, -8.515655517578125, -4.243564605712891, -0.5944655537605286, 1.5346767902374268, -0.9051174521446228, 0.18178421258926392, -0.04052734375, 0.2998046875, -0.1875, 0, 
398, 1588297772, -98.70304107666016, 63.56187057495117, -100.91145324707031, -8.936846733093262, -4.444009780883789, -0.7173514366149902, 1.6471747159957886, -0.840262234210968, 0.45998048782348633, -0.0419921875, 0.2998046875, -0.1953125, 0, 
399, 1588306105, -98.70014190673828, 63.56272506713867, -100.90996551513672, -8.875838279724121, -4.267885208129883, -0.6209744811058044, 1.7862086296081543, -1.1953779458999634, 0.06367699056863785, -0.03857421875, 0.2958984375, -0.18994140625, 0, 
400, 1588314438, -98.69994354248047, 63.55998611450195, -100.90935516357422, -8.625307083129883, -4.09661340713501, -0.7209234237670898, 1.5562695264816284, -1.0872344970703125, -0.36253103613853455, -0.041015625, 0.29833984375, -0.1904296875, 0, 
401, 1588322771, -98.6961669921875, 63.55906295776367, -100.9034423828125, -8.307794570922852, -4.156561851501465, -0.5823076367378235, 1.416851282119751, -1.400368571281433, -0.18866164982318878, -0.0390625, 0.29833984375, -0.18603515625, 0, 
402, 1588331104, -98.70655059814453, 63.56055450439453, -100.9126205444336, -8.464822769165039, -4.31718635559082, -0.7153171300888062, 1.6060380935668945, -0.5093518495559692, 0.2407994121313095, -0.0419921875, 0.29931640625, -0.19091796875, 0, 
403, 1588339437, -98.6963119506836, 63.56344223022461, -100.9018325805664, -8.895660400390625, -4.344597816467285, -0.5501773357391357, 1.6700226068496704, -1.7253621816635132, 0.2222803384065628, -0.0400390625, 0.29736328125, -0.193359375, 0, 
404, 1588347770, -98.70458984375, 63.5638313293457, -100.91181182861328, -8.91299819946289, -4.371781826019287, -0.7857651114463806, 1.6544489860534668, -0.5928798317909241, 0.09810251742601395, -0.03857421875, 0.29931640625, -0.18798828125, 0, 
405, 1588356103, -98.69590759277344, 63.56105041503906, -100.90010070800781, -8.675668716430664, -4.196476936340332, -0.665526807308197, 1.4686945676803589, -1.6253128051757812, -0.44585415720939636, -0.04248046875, 0.30126953125, -0.19384765625, 0, 
406, 1588364436, -98.70265197753906, 63.558441162109375, -100.90747833251953, -8.300799369812012, -4.054956436157227, -0.5528873801231384, 1.5849831104278564, -0.6671355366706848, -0.280539870262146, -0.0390625, 0.296875, -0.1865234375, 0, 
407, 1588372769, -98.69960021972656, 63.559242248535156, -100.90300750732422, -8.360997200012207, -4.309195518493652, -0.6683298349380493, 1.484344720840454, -1.3536736965179443, 0.02523001842200756, -0.041015625, 0.30224609375, -0.19140625, 0, 
408, 1588381102, -98.70848846435547, 63.5623893737793, -100.91967010498047, -8.825857162475586, -4.340920448303223, -0.5724265575408936, 1.6762466430664062, -0.5935202836990356, 0.43149739503860474, -0.0390625, 0.2978515625, -0.1884765625, 0, 
409, 1588389435, -98.70519256591797, 63.56375503540039, -100.91596984863281, -8.993313789367676, -4.4097795486450195, -0.7067165970802307, 1.5965609550476074, -1.3231931924819946, 0.09907586872577667, -0.04052734375, 0.29736328125, -0.19482421875, 0, 
410, 1588397768, -98.70430755615234, 63.56353759765625, -100.91654968261719, -8.805668830871582, -4.205150127410889, -0.545106828212738, 1.6295520067214966, -1.1331610679626465, -0.05597991123795509, -0.041015625, 0.29833984375, -0.18896484375, 0, 
411, 1588406101, -98.70002746582031, 63.56123733520508, -100.91022491455078, -8.412049293518066, -4.141011714935303, -0.7624661326408386, 1.475892186164856, -1.3755738735198975, -0.3466246426105499, -0.0390625, 0.29736328125, -0.18701171875, 0, 
412, 1588414434, -98.70653533935547, 63.5602912902832, -100.91667175292969, -8.22180461883545, -4.190290927886963, -0.5671718716621399, 1.510368824005127, -0.7441575527191162, -0.09301809221506119, -0.04150390625, 0.2998046875, -0.19091796875, 0, 
413, 1588422767, -98.7087631225586, 63.56234359741211, -100.91909790039062, -8.648736953735352, -4.232202053070068, -0.6994571089744568, 1.592180848121643, -1.0141059160232544, 0.23004144430160522, -0.0390625, 0.29638671875, -0.18603515625, 0, 
414, 1588431100, -98.70816040039062, 63.56479263305664, -100.91725158691406, -8.943087577819824, -4.4969482421875, -0.6020531058311462, 1.7062665224075317, -1.1218650341033936, 0.26551714539527893, -0.04345703125, 0.29638671875, -0.18701171875, 0, 
415, 1588439433, -98.70613098144531, 63.56439208984375, -100.9154281616211, -9.036521911621094, -4.228298664093018, -0.8116595149040222, 1.6467646360397339, -1.1938921213150024, -0.09529775381088257, -0.04052734375, 0.29638671875, -0.18798828125, 0, 
416, 1588447766, -98.70182800292969, 63.5611686706543, -100.91291046142578, -8.504440307617188, -4.192791938781738, -0.556032657623291, 1.5000208616256714, -1.3430440425872803, -0.4559461772441864, -0.0400390625, 0.29833984375, -0.1884765625, 0, 
417, 1588456099, -98.70234680175781, 63.55903625488281, -100.91510009765625, -8.302769660949707, -4.204904556274414, -0.699544370174408, 1.5434240102767944, -1.0506702661514282, -0.28029656410217285, -0.04296875, 0.298828125, -0.19287109375, 0, 
418, 1588464432, -98.7043685913086, 63.560909271240234, -100.91653442382812, -8.34314250946045, -4.302150726318359, -0.7210643291473389, 1.5114190578460693, -1.062158226966858, 0.20140472054481506, -0.037109375, 0.29638671875, -0.18505859375, 0, 
419, 1588472765, -98.70787048339844, 63.5635986328125, -100.92194366455078, -8.852452278137207, -4.356159210205078, -0.589387059211731, 1.7608505487442017, -0.8669009804725647, 0.32865625619888306, -0.04345703125, 0.29833984375, -0.19140625, 0, 
420, 1588481098, -98.70475006103516, 63.5644645690918, -100.91991424560547, -8.936049461364746, -4.38364839553833, -0.7198320627212524, 1.7532174587249756, -1.2229387760162354, 0.061422932893037796, -0.03759765625, 0.298828125, -0.193359375, 0, 
421, 1588489431, -98.70193481445312, 63.563072204589844, -100.91703033447266, -8.761490821838379, -4.153694152832031, -0.7104301452636719, 1.6271957159042358, -1.2294193506240845, -0.2224980741739273, -0.041015625, 0.29931640625, -0.18603515625, 0, 
422, 1588497764, -98.69673919677734, 63.560848236083984, -100.93235778808594, -8.392423629760742, -4.072181224822998, -0.5543525218963623, 1.575915813446045, -1.379467487335205, -0.34070777893066406, -0.03955078125, 0.298828125, -0.189453125, 0, 
423, 1588506097, -98.70182037353516, 63.56105041503906, -100.93669891357422, -8.366456031799316, -4.378201961517334, -0.7160106897354126, 1.4262261390686035, -0.8895183205604553, 0.030506553128361702, -0.0390625, 0.29736328125, -0.1865234375, 0, 
424, 1588514430, -98.70073699951172, 63.563358306884766, -100.93545532226562, -8.80575942993164, -4.269300937652588, -0.5992506146430969, 1.5969194173812866, -1.21192467212677, 0.2322186380624771, -0.04052734375, 0.29833984375, -0.1953125, 0, 
425, 1588522763, -98.70438385009766, 63.5643310546875, -100.9404067993164, -8.92703914642334, -4.3914337158203125, -0.6881662011146545, 1.6921533346176147, -0.8581664562225342, 0.12069427222013474, -0.0390625, 0.29638671875, -0.18505859375, 0, 
426, 1588531096, -98.69893646240234, 63.56328582763672, -100.93438720703125, -8.809264183044434, -4.2212605476379395, -0.7204394340515137, 1.604142665863037, -1.4020336866378784, -0.19975261390209198, -0.04248046875, 0.30078125, -0.1943359375, 0, 
427, 1588539429, -98.69970703125, 63.56056594848633, -100.9356460571289, -8.367470741271973, -4.135702133178711, -0.6636306047439575, 1.6433581113815308, -0.987339198589325, -0.34401199221611023, -0.03955078125, 0.2998046875, -0.185546875, 0, 
428, 1588547762, -98.69805908203125, 63.56071853637695, -100.9322509765625, -8.328932762145996, -4.192633628845215, -0.6044906377792358, 1.4327322244644165, -1.2834396362304688, -0.037332747131586075, -0.041015625, 0.2978515625, -0.193359375, 0, 
429, 1588556095, -98.70055389404297, 63.56379699707031, -100.93414306640625, -8.682378768920898, -4.2862420082092285, -0.5844942331314087, 1.5003536939620972, -1.0572147369384766, 0.35247746109962463, -0.04052734375, 0.2978515625, -0.1904296875, 0, 
430, 1588564428, -98.69837951660156, 63.56633758544922, -100.93209838867188, -9.000163078308105, -4.4916486740112305, -0.6459028720855713, 1.640668511390686, -1.2582095861434937, 0.25317108631134033, -0.037109375, 0.296875, -0.1923828125, 0, 
431, 1588572761, -98.69725799560547, 63.566226959228516, -100.93172454833984, -8.92821979522705, -4.268475532531738, -0.6662295460700989, 1.6951500177383423, -1.12360680103302, -0.045631758868694305, -0.04345703125, 0.29833984375, -0.18994140625, 0, 
432, 1588581094, -98.6912612915039, 63.562965393066406, -100.92486572265625, -8.47265625, -4.164675235748291, -0.6454229950904846, 1.5778625011444092, -1.4021871089935303, -0.4728003144264221, -0.0380859375, 0.2978515625, -0.18603515625, 0, 
433, 1588589427, -98.69001007080078, 63.56165313720703, -100.92383575439453, -8.312170028686523, -4.1285319328308105, -0.730196475982666, 1.6397464275360107, -1.1330585479736328, -0.19734486937522888, -0.04248046875, 0.29736328125, -0.1904296875, 0, 
434, 1588597760, -98.69037628173828, 63.56243896484375, -100.92443084716797, -8.427936553955078, -4.321510314941406, -0.6170017719268799, 1.6174620389938354, -1.0856207609176636, 0.072616346180439, -0.041015625, 0.2998046875, -0.193359375, 0, 
435, 1588606093, -98.69134521484375, 63.566139221191406, -100.92572021484375, -8.967058181762695, -4.377806663513184, -0.5735645890235901, 1.6203691959381104, -1.0999776124954224, 0.4220585525035858, -0.0400390625, 0.2978515625, -0.19287109375, 0, 
436, 1588614426, -98.69071197509766, 63.56615447998047, -100.92523956298828, -8.989144325256348, -4.291263580322266, -0.7456082105636597, 1.6242499351501465, -1.1297030448913574, -0.03418219834566116, -0.04150390625, 0.2978515625, -0.189453125, 0, 
437, 1588622759, -98.68753051757812, 63.5644645690918, -100.922119140625, -8.742268562316895, -4.237196445465088, -0.6437503099441528, 1.6449973583221436, -1.2369498014450073, -0.25938254594802856, -0.0400390625, 0.29638671875, -0.185546875, 0, 
438, 1588631092, -98.68719482421875, 63.5618896484375, -100.92140197753906, -8.313217163085938, -4.154076099395752, -0.5573566555976868, 1.5614436864852905, -1.091460943222046, -0.34132248163223267, -0.04345703125, 0.298828125, -0.1923828125, 0, 
439, 1588639425, -98.68819427490234, 63.56232833862305, -100.92108917236328, -8.33593463897705, -4.2502665519714355, -0.7367429733276367, 1.4450526237487793, -1.128524661064148, 0.01790434867143631, -0.04052734375, 0.29736328125, -0.1904296875, 0, 
440, 1588647758, -98.69078063964844, 63.565181732177734, -100.91938781738281, -8.75537109375, -4.253264427185059, -0.6133140325546265, 1.6657705307006836, -0.9676930904388428, 0.340541273355484, -0.03955078125, 0.2978515625, -0.19482421875, 0, 
441, 1588656091, -98.68771362304688, 63.565940856933594, -100.91727447509766, -8.902474403381348, -4.484958171844482, -0.6245241761207581, 1.7391809225082397, -1.2273701429367065, 0.046387381851673126, -0.04150390625, 0.298828125, -0.193359375, 0, 
442, 1588664424, -98.68609619140625, 63.56541061401367, -100.91593170166016, -8.895905494689941, -4.171863079071045, -0.7461793422698975, 1.6487371921539307, -1.1652556657791138, -0.10567152500152588, -0.0380859375, 0.2978515625, -0.19140625, 0, 
443, 1588672757, -98.68573760986328, 63.56294250488281, -100.91651916503906, -8.389400482177734, -4.0684285163879395, -0.6079341769218445, 1.7058565616607666, -1.0269643068313599, -0.323443740606308, -0.0419921875, 0.2998046875, -0.19140625, 0, 
444, 1588681090, -98.68009185791016, 63.56220626831055, -100.9092025756836, -8.34051513671875, -4.305179119110107, -0.6607767343521118, 1.4899033308029175, -1.4728827476501465, -0.17442014813423157, -0.0400390625, 0.29931640625, -0.19140625, 0, 
445, 1588689423, -98.6889419555664, 63.563053131103516, -100.91915893554688, -8.633779525756836, -4.3134989738464355, -0.6336247324943542, 1.608830213546753, -0.5948010087013245, 0.14915171265602112, -0.04150390625, 0.2998046875, -0.20068359375, 0, 
446, 1588697756, -98.68644714355469, 63.56466293334961, -100.91638946533203, -8.921436309814453, -4.370481014251709, -0.6247258186340332, 1.5969449281692505, -1.2782654762268066, 0.14379830658435822, -0.04296875, 0.29931640625, -0.19873046875, 0, 
447, 1588706089, -98.68193054199219, 63.56444549560547, -100.91219329833984, -8.847336769104004, -4.233488082885742, -0.6379523277282715, 1.6893612146377563, -1.3196580410003662, -0.08599979430437088, -0.0400390625, 0.2978515625, -0.19482421875, 0, 
448, 1588714422, -98.67921447753906, 63.56159210205078, -100.90982055664062, -8.49808406829834, -4.186947822570801, -0.7384538650512695, 1.6719948053359985, -1.1761928796768188, -0.3915007710456848, -0.0439453125, 0.30078125, -0.1962890625, 0, 
449, 1588722755, -98.68135070800781, 63.56065368652344, -100.91140747070312, -8.298127174377441, -4.10351037979126, -0.5895698070526123, 1.5123157501220703, -1.001939296722412, -0.13192610442638397, -0.0390625, 0.29833984375, -0.193359375, 0, 
450, 1588731088, -98.68074035644531, 63.56150817871094, -100.90965270996094, -8.516844749450684, -4.3422532081604, -0.6061569452285767, 1.4834997653961182, -1.211079478263855, 0.06239628046751022, -0.04248046875, 0.29736328125, -0.193359375, 0, 
451, 1588739421, -98.68228149414062, 63.562767028808594, -100.91170501708984, -8.939279556274414, -4.446552753448486, -0.6239655613899231, 1.6340856552124023, -1.0188701152801514, 0.13347576558589935, -0.0400390625, 0.298828125, -0.19189453125, 0, 
452, 1588747754, -98.68016052246094, 63.562992095947266, -100.91043853759766, -8.975980758666992, -4.309089660644531, -0.6890638470649719, 1.7157182693481445, -1.169071912765503, -0.013767648488283157, -0.04345703125, 0.29736328125, -0.18994140625, 0, 
453, 1588756087, -98.67655181884766, 63.560279846191406, -100.90586853027344, -8.596179008483887, -4.19861364364624, -0.5718827843666077, 1.5406705141067505, -1.2942233085632324, -0.3851996660232544, -0.0439453125, 0.30078125, -0.1943359375, 0, 
454, 1588764420, -98.67633056640625, 63.55775833129883, -100.90538024902344, -8.293106079101562, -4.105881690979004, -0.7244153618812561, 1.5717662572860718, -1.0819580554962158, -0.3363020718097687, -0.0380859375, 0.29638671875, -0.193359375, 0, 
455, 1588772753, -98.6786117553711, 63.55889892578125, -100.90744018554688, -8.28393268585205, -4.291261672973633, -0.6580345034599304, 1.5473686456680298, -1.0141443014144897, 0.11632704734802246, -0.044921875, 0.296875, -0.1943359375, 0, 
456, 1588781086, -98.68411254882812, 63.56149673461914, -100.9134292602539, -8.844954490661621, -4.297858238220215, -0.5543290376663208, 1.5828572511672974, -0.8365225195884705, 0.3350598216056824, -0.04052734375, 0.29638671875, -0.1982421875, 0, 
457, 1588789419, -98.67832946777344, 63.562705993652344, -100.90818786621094, -8.967464447021484, -4.444908142089844, -0.665171205997467, 1.729037880897522, -1.401572585105896, 0.06692999601364136, -0.04150390625, 0.298828125, -0.1982421875, 0, 
458, 1588797752, -98.67790222167969, 63.561195373535156, -100.90818786621094, -8.905678749084473, -4.172983646392822, -0.6498183608055115, 1.649940848350525, -1.0710463523864746, -0.2103569060564041, -0.04150390625, 0.298828125, -0.193359375, 0, 
459, 1588806085, -98.6750717163086, 63.55784225463867, -100.904541015625, -8.369929313659668, -4.1421122550964355, -0.5884087085723877, 1.5465106964111328, -1.2356691360473633, -0.4515148997306824, -0.04052734375, 0.296875, -0.1884765625, 0, 
460, 1588814418, -98.67753601074219, 63.55704116821289, -100.90567779541016, -8.287972450256348, -4.241245746612549, -0.655320942401886, 1.4241770505905151, -1.0290391445159912, -0.11806879937648773, -0.04296875, 0.29833984375, -0.19775390625, 0, 
461, 1588822751, -98.67892456054688, 63.55861282348633, -100.90729522705078, -8.578703880310059, -4.2619476318359375, -0.721916675567627, 1.606499195098877, -1.0477888584136963, 0.16772201657295227, -0.03857421875, 0.29931640625, -0.18896484375, 0, 
462, 1588831084, -98.68118286132812, 63.560813903808594, -100.91060638427734, -8.899953842163086, -4.438726902008057, -0.6151940226554871, 1.6840336322784424, -0.9653365612030029, 0.2578585147857666, -0.0419921875, 0.29931640625, -0.19921875, 0, 
463, 1588839417, -98.67896270751953, 63.560306549072266, -100.90875244140625, -8.942596435546875, -4.241078853607178, -0.6659843921661377, 1.665949821472168, -1.1923555135726929, -0.10641434788703918, -0.04052734375, 0.298828125, -0.19189453125, 0, 
464, 1588847750, -98.67829895019531, 63.55695343017578, -100.90812683105469, -8.577200889587402, -4.155452728271484, -0.6872062087059021, 1.6118781566619873, -1.0720198154449463, -0.4324835240840912, -0.0400390625, 0.29638671875, -0.1923828125, 0, 
465, 1588856083, -98.6767349243164, 63.55482864379883, -100.90474700927734, -8.384888648986816, -4.164886474609375, -0.7019008994102478, 1.4204373359680176, -1.2411504983901978, -0.3071274757385254, -0.0439453125, 0.298828125, -0.1943359375, 0, 
466, 1588864416, -98.68407440185547, 63.555545806884766, -100.91158294677734, -8.437750816345215, -4.320382595062256, -0.6281841397285461, 1.4527626037597656, -0.7562731504440308, 0.10857874900102615, -0.0400390625, 0.29736328125, -0.18896484375, 0, 
467, 1588872749, -98.68231201171875, 63.558345794677734, -100.91065216064453, -8.924410820007324, -4.353238105773926, -0.6375148296356201, 1.711389422416687, -1.2038817405700684, 0.2927194833755493, -0.0419921875, 0.296875, -0.19970703125, 0, 
468, 1588881082, -98.6812515258789, 63.55884552001953, -100.91073608398438, -8.916558265686035, -4.3515625, -0.7490555644035339, 1.7346727848052979, -1.106009840965271, 0.03580869734287262, -0.0400390625, 0.296875, -0.19482421875, 0, 
469, 1588889415, -98.67793273925781, 63.55723190307617, -100.90721130371094, -8.689153671264648, -4.187480449676514, -0.6689785122871399, 1.618589162826538, -1.2620006799697876, -0.25185197591781616, -0.04150390625, 0.29736328125, -0.19677734375, 0, 
470, 1588897748, -98.67805480957031, 63.5554313659668, -100.9069595336914, -8.3566312789917, -4.083338260650635, -0.6239116191864014, 1.5577553510665894, -1.0809078216552734, -0.24432136118412018, -0.0419921875, 0.2978515625, -0.1904296875, 0, 
471, 1588906081, -98.67808532714844, 63.55685043334961, -100.9061279296875, -8.414143562316895, -4.31890869140625, -0.7360221743583679, 1.5035555362701416, -1.1682268381118774, 0.1311192661523819, -0.03955078125, 0.2958984375, -0.19189453125, 0, 
472, 1588914414, -98.68355560302734, 63.55946731567383, -100.91273498535156, -8.788946151733398, -4.328996658325195, -0.4525785446166992, 1.6532707214355469, -0.8026092052459717, 0.331729918718338, -0.04248046875, 0.30078125, -0.1943359375, 0, 
473, 1588922747, -98.67893981933594, 63.560935974121094, -100.90808868408203, -9.01351261138916, -4.440932273864746, -0.7347272634506226, 1.654833197593689, -1.375420331954956, 0.10340465605258942, -0.0390625, 0.298828125, -0.1884765625, 0, 
474, 1588931080, -98.67667388916016, 63.56079864501953, -100.90675354003906, -8.825891494750977, -4.187229156494141, -0.5633355975151062, 1.7263227701187134, -1.1721714735031128, -0.05047285184264183, -0.04296875, 0.298828125, -0.19921875, 0, 
475, 1588939413, -98.67385864257812, 63.55786895751953, -100.9039306640625, -8.446468353271484, -4.125751495361328, -0.7643788456916809, 1.6328049898147583, -1.1977088451385498, -0.40648511052131653, -0.041015625, 0.2978515625, -0.19091796875, 0, 
476, 1588947746, -98.6716079711914, 63.5572624206543, -100.90082550048828, -8.244866371154785, -4.22590970993042, -0.5688126683235168, 1.5353684425354004, -1.254111409187317, -0.12255129963159561, -0.03857421875, 0.298828125, -0.19482421875, 0, 
477, 1588956079, -98.67738342285156, 63.55947494506836, -100.90699005126953, -8.623018264770508, -4.295665264129639, -0.6452511548995972, 1.563826084136963, -0.8152627348899841, 0.28185907006263733, -0.04150390625, 0.296875, -0.19384765625, 0, 
478, 1588964412, -98.67618560791016, 63.563106536865234, -100.90534973144531, -8.933542251586914, -4.47557258605957, -0.590806782245636, 1.568641185760498, -1.256954550743103, 0.38713350892066956, -0.03955078125, 0.29638671875, -0.193359375, 0, 
479, 1588972745, -98.68025207519531, 63.563995361328125, -100.91065216064453, -9.013131141662598, -4.231925964355469, -0.7187160849571228, 1.6813697814941406, -0.8383923172950745, 0.11713390052318573, -0.04296875, 0.2998046875, -0.19482421875, 0, 
480, 1588981078, -98.67420959472656, 63.56172180175781, -100.90381622314453, -8.589860916137695, -4.191439151763916, -0.6173791885375977, 1.5880954265594482, -1.4225120544433594, -0.35240063071250916, -0.0419921875, 0.2978515625, -0.1884765625, 0, 
481, 1588989411, -98.67642974853516, 63.56075668334961, -100.90534210205078, -8.311781883239746, -4.173509120941162, -0.6115054488182068, 1.4978691339492798, -1.0056788921356201, -0.13438507914543152, -0.04345703125, 0.2978515625, -0.1982421875, 0, 
482, 1588997744, -98.67355346679688, 63.561920166015625, -100.9016342163086, -8.32557487487793, -4.277996063232422, -0.7321295142173767, 1.5441285371780396, -1.3184030055999756, 0.08129958063364029, -0.04248046875, 0.2978515625, -0.19140625, 0, 
483, 1589006077, -98.67900848388672, 63.564697265625, -100.90800476074219, -8.846487045288086, -4.3021745681762695, -0.5749043226242065, 1.6279895305633545, -0.8141356110572815, 0.35311785340309143, -0.0400390625, 0.2958984375, -0.18994140625, 0, 
484, 1589014410, -98.67872619628906, 63.56624221801758, -100.90914916992188, -8.860555648803711, -4.43861722946167, -0.6662761569023132, 1.7570085525512695, -1.0710208415985107, 0.15878264605998993, -0.04296875, 0.2998046875, -0.19775390625, 0, 
485, 1589022743, -98.67475128173828, 63.56589889526367, -100.905517578125, -8.845014572143555, -4.146996021270752, -0.7157527208328247, 1.6854935884475708, -1.287845253944397, -0.1033918634057045, -0.04052734375, 0.296875, -0.18798828125, 0, 
