sep=,
PacketCounter,SampleTimeFine,Euler_X,Euler_Y,Euler_Z,Acc_X,Acc_Y,Acc_Z,Gyr_X,Gyr_Y,Gyr_Z,Mag_X,Mag_Y,Mag_Z,Status,
0, 2600709461, 86.3360824584961, -74.95411682128906, 24.499652862548828, 0, 0, 0, 0, 0, 0, -1.201171875, 0.279296875, -1.04541015625, 0, 
1, 2600717794, 86.33819580078125, -74.95382690429688, 24.496641159057617, 9.138394355773926, 2.5459628105163574, 0.3322821855545044, 1.758570909500122, -3.424917697906494, 0.5542663931846619, -1.201171875, 0.28076171875, -1.05126953125, 0, 
2, 2600726127, 86.34820556640625, -74.95238494873047, 24.485553741455078, 9.562664985656738, 2.44134259223938, 0.2902714014053345, 1.7720952033996582, -3.6758601665496826, 0.48833537101745605, -1.20458984375, 0.27978515625, -1.0478515625, 0, 
3, 2600734460, 86.34400939941406, -74.95162963867188, 24.490236282348633, 9.96022891998291, 2.5493552684783936, 0.056042514741420746, 1.8812885284423828, -3.1837852001190186, 0.5187138915061951, -1.201171875, 0.2802734375, -1.0478515625, 0, 
4, 2600742793, 86.34131622314453, -74.95060729980469, 24.493003845214844, 9.712705612182617, 2.708831787109375, 0.024090340360999107, 1.824347972869873, -3.2553513050079346, 0.5678163170814514, -1.2021484375, 0.2783203125, -1.05224609375, 0, 
5, 2600751126, 86.33971405029297, -74.95052337646484, 24.494888305664062, 9.297345161437988, 2.7201530933380127, 0.1585429310798645, 1.8728872537612915, -3.274869441986084, 0.5906129479408264, -1.2001953125, 0.2802734375, -1.0419921875, 0, 
6, 2600759459, 86.34275817871094, -74.95096588134766, 24.491199493408203, 9.129607200622559, 2.5727171897888184, 0.3901313841342926, 1.7930220365524292, -3.458651542663574, 0.7326439023017883, -1.20361328125, 0.27685546875, -1.05224609375, 0, 
7, 2600767792, 86.34893035888672, -74.95137786865234, 24.48409652709961, 9.33556079864502, 2.4353861808776855, 0.21836137771606445, 1.7586989402770996, -3.556549072265625, 0.6349256634712219, -1.2041015625, 0.27978515625, -1.0439453125, 0, 
8, 2600776125, 86.35169219970703, -74.94941711425781, 24.481565475463867, 9.832650184631348, 2.462684392929077, 0.12859760224819183, 1.8909707069396973, -3.407858371734619, 0.4395402669906616, -1.201171875, 0.279296875, -1.0498046875, 0, 
9, 2600784458, 86.3524398803711, -74.94812774658203, 24.482328414916992, 9.858729362487793, 2.6647677421569824, 0.02047055959701538, 2.025829792022705, -3.3001251220703125, 0.44689154624938965, -1.20166015625, 0.27734375, -1.04833984375, 0, 
10, 2600792791, 86.34845733642578, -74.94778442382812, 24.486783981323242, 9.43175220489502, 2.7896902561187744, 0.0814066156744957, 1.859413981437683, -3.210808038711548, 0.6425330638885498, -1.2001953125, 0.27734375, -1.05029296875, 0, 
11, 2600801124, 86.34939575195312, -74.94923400878906, 24.485658645629883, 9.166248321533203, 2.660639524459839, 0.32374250888824463, 1.8263202905654907, -3.3789141178131104, 0.7706553936004639, -1.203125, 0.2783203125, -1.05419921875, 0, 
12, 2600809457, 86.35734558105469, -74.94845581054688, 24.476608276367188, 9.315245628356934, 2.4391109943389893, 0.3465607166290283, 1.736619472503662, -3.625809907913208, 0.5717352628707886, -1.2021484375, 0.2783203125, -1.04638671875, 0, 
13, 2600817790, 86.36393737792969, -74.94732666015625, 24.47034454345703, 9.747770309448242, 2.4696528911590576, 0.21188956499099731, 1.9104377031326294, -3.5214321613311768, 0.4522705376148224, -1.201171875, 0.279296875, -1.05126953125, 0, 
14, 2600826123, 86.3650894165039, -74.94635009765625, 24.4693546295166, 9.86898422241211, 2.6088178157806396, -0.01704573445022106, 1.8554693460464478, -3.3719470500946045, 0.5626678466796875, -1.20361328125, 0.27880859375, -1.046875, 0, 
15, 2600834456, 86.36042785644531, -74.94792938232422, 24.47463607788086, 9.617615699768066, 2.672027826309204, 0.053216446191072464, 1.8979380130767822, -3.181121349334717, 0.795142650604248, -1.19921875, 0.2783203125, -1.04833984375, 0, 
16, 2600842789, 86.35555267333984, -74.94739532470703, 24.47930145263672, 9.147809982299805, 2.721160888671875, 0.2006549835205078, 1.799118161201477, -3.1964900493621826, 0.6257300972938538, -1.2021484375, 0.27880859375, -1.05078125, 0, 
17, 2600851122, 86.35710144042969, -74.94831085205078, 24.477012634277344, 9.168591499328613, 2.5384106636047363, 0.35712528228759766, 1.762797236442566, -3.4109835624694824, 0.7037766575813293, -1.20068359375, 0.27783203125, -1.04541015625, 0, 
18, 2600859455, 86.36763000488281, -74.94789123535156, 24.465560913085938, 9.653179168701172, 2.4043235778808594, 0.29357802867889404, 1.868225336074829, -3.6768078804016113, 0.6087990999221802, -1.20166015625, 0.27880859375, -1.05322265625, 0, 
19, 2600867788, 86.36238861083984, -74.94692993164062, 24.472457885742188, 9.882772445678711, 2.606931209564209, -0.013282358646392822, 2.0107171535491943, -3.11321759223938, 0.5055481195449829, -1.20166015625, 0.279296875, -1.044921875, 0, 
20, 2600876121, 86.36058807373047, -74.94707489013672, 24.47492027282715, 9.689373016357422, 2.708195924758911, 0.022990228608250618, 1.9182243347167969, -3.270489454269409, 0.6903804540634155, -1.203125, 0.279296875, -1.05126953125, 0, 
21, 2600884454, 86.35676574707031, -74.94609069824219, 24.478443145751953, 9.323158264160156, 2.6593024730682373, 0.15408995747566223, 1.7951732873916626, -3.2164433002471924, 0.4877718389034271, -1.20166015625, 0.27880859375, -1.05029296875, 0, 
22, 2600892787, 86.35529327392578, -74.94515228271484, 24.48000144958496, 9.133056640625, 2.592247724533081, 0.3224084973335266, 1.817611575126648, -3.2966158390045166, 0.5712997913360596, -1.203125, 0.27880859375, -1.04931640625, 0, 
23, 2600901120, 86.36390686035156, -74.94560241699219, 24.47047233581543, 9.404942512512207, 2.432173013687134, 0.2351645976305008, 1.7725048065185547, -3.6336474418640137, 0.6367442011833191, -1.20263671875, 0.2783203125, -1.05419921875, 0, 
24, 2600909453, 86.36693572998047, -74.94441223144531, 24.467355728149414, 9.893803596496582, 2.476716995239258, 0.10431994497776031, 1.832314133644104, -3.4372382164001465, 0.5353630781173706, -1.201171875, 0.27880859375, -1.044921875, 0, 
25, 2600917786, 86.3659896850586, -74.94462585449219, 24.46918296813965, 9.788851737976074, 2.719710350036621, -0.01679130829870701, 1.9450677633285522, -3.2784035205841064, 0.6280609965324402, -1.19921875, 0.27783203125, -1.052734375, 0, 
26, 2600926119, 86.36022186279297, -74.9443130493164, 24.474552154541016, 9.394123077392578, 2.8247339725494385, 0.10291025042533875, 1.7988874912261963, -3.1670844554901123, 0.6469898223876953, -1.2041015625, 0.2802734375, -1.04638671875, 0, 
27, 2600934452, 86.36105346679688, -74.9451675415039, 24.473419189453125, 9.146794319152832, 2.6059036254882812, 0.30867132544517517, 1.814563512802124, -3.3754565715789795, 0.6972706913948059, -1.20263671875, 0.2763671875, -1.046875, 0, 
28, 2600942785, 86.36366271972656, -74.94412994384766, 24.4692325592041, 9.257187843322754, 2.412832736968994, 0.308391273021698, 1.7911266088485718, -3.4349842071533203, 0.5512439012527466, -1.2001953125, 0.27978515625, -1.05126953125, 0, 
29, 2600951118, 86.37323760986328, -74.94349670410156, 24.460105895996094, 9.761019706726074, 2.4631261825561523, 0.20084725320339203, 1.9341307878494263, -3.6120550632476807, 0.505010187625885, -1.19921875, 0.27978515625, -1.046875, 0, 
30, 2600959451, 86.37055969238281, -74.94332885742188, 24.462886810302734, 9.933241844177246, 2.595447540283203, -0.046940289437770844, 1.782545804977417, -3.2781991958618164, 0.6526250839233398, -1.19873046875, 0.27783203125, -1.0537109375, 0, 
31, 2600967784, 86.3663558959961, -74.9434585571289, 24.4680233001709, 9.588726997375488, 2.691226005554199, 0.08412835001945496, 1.9271637201309204, -3.175230026245117, 0.6318262815475464, -1.201171875, 0.28173828125, -1.04736328125, 0, 
32, 2600976117, 86.36183166503906, -74.94309997558594, 24.471031188964844, 9.163142204284668, 2.7235918045043945, 0.30584022402763367, 1.6758625507354736, -3.241903781890869, 0.6370259523391724, -1.20166015625, 0.27734375, -1.0517578125, 0, 
33, 2600984450, 86.36103057861328, -74.94381713867188, 24.47076416015625, 9.250889778137207, 2.5165340900421143, 0.33385413885116577, 1.7146680355072021, -3.349073886871338, 0.6889972686767578, -1.201171875, 0.2783203125, -1.0478515625, 0, 
34, 2600992783, 86.3676528930664, -74.94160461425781, 24.46514320373535, 9.63656234741211, 2.407083511352539, 0.2586713433265686, 1.802294373512268, -3.554551362991333, 0.395739883184433, -1.19921875, 0.279296875, -1.04931640625, 0, 
35, 2601001116, 86.36579895019531, -74.94202423095703, 24.466691970825195, 9.851136207580566, 2.5855672359466553, 0.018251892179250717, 1.806341290473938, -3.2879583835601807, 0.6535727977752686, -1.203125, 0.28173828125, -1.072265625, 0, 
36, 2601009449, 86.36164855957031, -74.94091796875, 24.47211456298828, 9.64377212524414, 2.7134695053100586, 0.048947907984256744, 1.9662253856658936, -3.1704659461975098, 0.5560594201087952, -1.20556640625, 0.2783203125, -1.064453125, 0, 
37, 2601017782, 86.3574447631836, -74.94173431396484, 24.47635841369629, 9.291830062866211, 2.7445476055145264, 0.150565043091774, 1.835183024406433, -3.2071454524993896, 0.7012152671813965, -1.20751953125, 0.27880859375, -1.0693359375, 0, 
38, 2601026115, 86.3598403930664, -74.94091796875, 24.473812103271484, 9.155829429626465, 2.5524187088012695, 0.3724249005317688, 1.8314433097839355, -3.418078660964966, 0.5752188563346863, -1.20556640625, 0.2802734375, -1.064453125, 0, 
39, 2601034448, 86.36868286132812, -74.93984985351562, 24.46433448791504, 9.506540298461914, 2.3927533626556396, 0.25427594780921936, 1.8187897205352783, -3.6204049587249756, 0.4478648602962494, -1.203125, 0.27880859375, -1.064453125, 0, 
40, 2601042781, 86.3641128540039, -74.93868255615234, 24.468963623046875, 9.92203140258789, 2.5508580207824707, 0.09617722034454346, 1.8300858736038208, -3.191418409347534, 0.5463003516197205, -1.20458984375, 0.27783203125, -1.06787109375, 0, 
41, 2601051114, 86.3622817993164, -74.93854522705078, 24.470888137817383, 9.76541519165039, 2.7055866718292236, -0.03284497559070587, 1.8485535383224487, -3.2741775512695312, 0.5865403413772583, -1.20556640625, 0.27783203125, -1.060546875, 0, 
42, 2601059447, 86.35587310791016, -74.93880462646484, 24.477205276489258, 9.374874114990234, 2.6751487255096436, 0.0790153220295906, 1.8075963258743286, -3.1507935523986816, 0.7179412841796875, -1.20458984375, 0.28076171875, -1.0654296875, 0, 
43, 2601067780, 86.3540267944336, -74.9394760131836, 24.478445053100586, 9.09853744506836, 2.612898349761963, 0.37713292241096497, 1.76827871799469, -3.300483465194702, 0.6839000582695007, -1.20703125, 0.27978515625, -1.0625, 0, 
44, 2601076113, 86.35984802246094, -74.93915557861328, 24.47114372253418, 9.271143913269043, 2.4766058921813965, 0.29939529299736023, 1.7001703977584839, -3.5711748600006104, 0.6212989091873169, -1.20361328125, 0.27685546875, -1.0634765625, 0, 
45, 2601084446, 86.36707305908203, -74.93829345703125, 24.463523864746094, 9.850317001342773, 2.3961570262908936, 0.14067412912845612, 1.8247836828231812, -3.565232515335083, 0.48280271887779236, -1.20751953125, 0.279296875, -1.0634765625, 0, 
46, 2601092779, 86.36251068115234, -74.93731689453125, 24.469083786010742, 9.89742660522461, 2.6791632175445557, -0.00718678068369627, 1.942122220993042, -3.1666743755340576, 0.5695580840110779, -1.20556640625, 0.27978515625, -1.06005859375, 0, 
47, 2601101112, 86.36065673828125, -74.9371337890625, 24.471649169921875, 9.455730438232422, 2.8156301975250244, 0.0740131214261055, 1.9184547662734985, -3.253788948059082, 0.5821090936660767, -1.20654296875, 0.279296875, -1.06298828125, 0, 
48, 2601109445, 86.3562240600586, -74.93639373779297, 24.475473403930664, 9.192301750183105, 2.6147027015686035, 0.2492043524980545, 1.753934621810913, -3.2172629833221436, 0.5927646160125732, -1.20458984375, 0.28076171875, -1.0576171875, 0, 
49, 2601117778, 86.3564682006836, -74.9362564086914, 24.474855422973633, 9.197914123535156, 2.4327287673950195, 0.277978777885437, 1.800859808921814, -3.3531980514526367, 0.5842350721359253, -1.2041015625, 0.279296875, -1.06591796875, 0, 
50, 2601126111, 86.3649673461914, -74.93411254882812, 24.46623420715332, 9.590983390808105, 2.4424002170562744, 0.2670253813266754, 1.8683278560638428, -3.5988125801086426, 0.3981476426124573, -1.20751953125, 0.2802734375, -1.06591796875, 0, 
51, 2601134444, 86.36277770996094, -74.93269348144531, 24.468490600585938, 9.907066345214844, 2.5764691829681396, -0.014407042413949966, 1.83464515209198, -3.25407075881958, 0.4367739260196686, -1.203125, 0.279296875, -1.0595703125, 0, 
52, 2601142777, 86.35454559326172, -74.93228149414062, 24.4775447845459, 9.690763473510742, 2.704427480697632, 0.050505828112363815, 1.918121576309204, -3.057506799697876, 0.6348742842674255, -1.2060546875, 0.27880859375, -1.06201171875, 0, 
53, 2601151110, 86.3541030883789, -74.9334945678711, 24.478713989257812, 9.224377632141113, 2.7806150913238525, 0.20240145921707153, 1.9260367155075073, -3.3082189559936523, 0.746526837348938, -1.2041015625, 0.27978515625, -1.0576171875, 0, 
54, 2601159443, 86.35611724853516, -74.93347930908203, 24.47612953186035, 9.152575492858887, 2.564279079437256, 0.37789303064346313, 1.7824431657791138, -3.4269919395446777, 0.6713234186172485, -1.20263671875, 0.27783203125, -1.06494140625, 0, 
55, 2601167776, 86.36329650878906, -74.9330062866211, 24.46811294555664, 9.520476341247559, 2.384300947189331, 0.2832740843296051, 1.7860548496246338, -3.5789618492126465, 0.5194822549819946, -1.20751953125, 0.28125, -1.0576171875, 0, 
56, 2601176109, 86.36433410644531, -74.93151092529297, 24.467233657836914, 9.861032485961914, 2.528280735015869, 0.07818283140659332, 1.872426152229309, -3.3615481853485107, 0.4930996298789978, -1.20166015625, 0.2783203125, -1.0625, 0, 
57, 2601184442, 86.36192321777344, -74.93156433105469, 24.47005271911621, 9.781691551208496, 2.6834475994110107, 0.013785498216748238, 1.8815960884094238, -3.246027708053589, 0.6115398406982422, -1.20703125, 0.279296875, -1.06005859375, 0, 
58, 2601192775, 86.35565185546875, -74.93234252929688, 24.475788116455078, 9.401607513427734, 2.697097063064575, 0.10878625512123108, 1.7515524625778198, -3.1716949939727783, 0.7795179486274719, -1.20458984375, 0.27783203125, -1.05908203125, 0, 
59, 2601201108, 86.36095428466797, -74.93229675292969, 24.47011947631836, 9.102295875549316, 2.6135575771331787, 0.3430149257183075, 1.8179703950881958, -3.51069974899292, 0.5874112844467163, -1.205078125, 0.28125, -1.064453125, 0, 
60, 2601209441, 86.3690185546875, -74.93156433105469, 24.462055206298828, 9.34004020690918, 2.442383289337158, 0.2824274003505707, 1.882364273071289, -3.587926149368286, 0.5662537813186646, -1.205078125, 0.27734375, -1.06298828125, 0, 
61, 2601217774, 86.37065124511719, -74.93101501464844, 24.460248947143555, 9.873312950134277, 2.4790985584259033, 0.16332022845745087, 1.8341072797775269, -3.386521816253662, 0.526756763458252, -1.2041015625, 0.27734375, -1.0654296875, 0, 
62, 2601226107, 86.36903381347656, -74.9299087524414, 24.46251106262207, 9.82219409942627, 2.721311569213867, -0.0032540501561015844, 1.9127684831619263, -3.2689011096954346, 0.5485544204711914, -1.205078125, 0.27685546875, -1.06201171875, 0, 
63, 2601234440, 86.3641128540039, -74.9303207397461, 24.467910766601562, 9.475411415100098, 2.749336004257202, 0.07767519354820251, 1.889357089996338, -3.16634202003479, 0.6526250839233398, -1.2041015625, 0.27734375, -1.0615234375, 0, 
64, 2601242773, 86.36520385742188, -74.93038940429688, 24.46689796447754, 9.155029296875, 2.619579553604126, 0.23143212497234344, 1.8553415536880493, -3.3774032592773438, 0.6781624555587769, -1.20654296875, 0.27880859375, -1.06201171875, 0, 
65, 2601251106, 86.36954498291016, -74.93169403076172, 24.462316513061523, 9.197946548461914, 2.472630023956299, 0.3253961503505707, 1.8351573944091797, -3.4877235889434814, 0.7481149435043335, -1.203125, 0.279296875, -1.0546875, 0, 
66, 2601259439, 86.37845611572266, -74.93091583251953, 24.452587127685547, 9.716137886047363, 2.3919432163238525, 0.2801685333251953, 1.790050745010376, -3.643714189529419, 0.5598247051239014, -1.205078125, 0.27978515625, -1.06494140625, 0, 
67, 2601267772, 86.37897491455078, -74.93006896972656, 24.451854705810547, 9.929012298583984, 2.612962484359741, -0.024636084213852882, 1.8193022012710571, -3.348715305328369, 0.49732598662376404, -1.2041015625, 0.279296875, -1.05615234375, 0, 
68, 2601276105, 86.37580108642578, -74.92959594726562, 24.455429077148438, 9.617691040039062, 2.7387936115264893, 0.04555985704064369, 1.8832097053527832, -3.2299675941467285, 0.618506908416748, -1.203125, 0.2783203125, -1.0625, 0, 
69, 2601284438, 86.37095642089844, -74.92951202392578, 24.460309982299805, 9.254047393798828, 2.696822166442871, 0.20401321351528168, 1.8251420259475708, -3.1819920539855957, 0.6010379195213318, -1.20556640625, 0.27880859375, -1.0595703125, 0, 
70, 2601292771, 86.37194061279297, -74.92890930175781, 24.458879470825195, 9.14634895324707, 2.5601484775543213, 0.3398951292037964, 1.8032420873641968, -3.384805679321289, 0.5904337167739868, -1.2060546875, 0.279296875, -1.05908203125, 0, 
71, 2601301104, 86.37603759765625, -74.92862701416016, 24.454532623291016, 9.450610160827637, 2.4401488304138184, 0.22336116433143616, 1.830137014389038, -3.467898368835449, 0.5563411712646484, -1.205078125, 0.28173828125, -1.06396484375, 0, 
72, 2601309437, 86.3779067993164, -74.92848205566406, 24.453594207763672, 9.860069274902344, 2.4989428520202637, 0.04623715952038765, 1.9655338525772095, -3.3729207515716553, 0.6515748500823975, -1.205078125, 0.2802734375, -1.05517578125, 0, 
73, 2601317770, 86.37185668945312, -74.92879486083984, 24.461135864257812, 9.77802562713623, 2.7030389308929443, 0.08375202864408493, 1.9901491403579712, -3.101973295211792, 0.6536752581596375, -1.20556640625, 0.28076171875, -1.06396484375, 0, 
74, 2601326103, 86.36776733398438, -74.92951202392578, 24.4652099609375, 9.358223915100098, 2.8228466510772705, 0.11401434987783432, 1.827242374420166, -3.2235636711120605, 0.76222825050354, -1.20654296875, 0.28076171875, -1.0625, 0, 
75, 2601334436, 86.36824798583984, -74.92996215820312, 24.464326858520508, 9.177288055419922, 2.5692708492279053, 0.3483864963054657, 1.8043434619903564, -3.3641605377197266, 0.6511393785476685, -1.205078125, 0.28076171875, -1.060546875, 0, 
76, 2601342769, 86.3736572265625, -74.92900848388672, 24.458412170410156, 9.377097129821777, 2.383251428604126, 0.29159677028656006, 1.814742922782898, -3.5234038829803467, 0.5391284227371216, -1.20654296875, 0.27978515625, -1.06201171875, 0, 
77, 2601351102, 86.3812026977539, -74.9273681640625, 24.45071792602539, 9.79500675201416, 2.513254404067993, 0.16739384829998016, 1.8591066598892212, -3.5593411922454834, 0.38600650429725647, -1.20361328125, 0.279296875, -1.056640625, 0, 
78, 2601359435, 86.37957000732422, -74.92715454101562, 24.45299530029297, 9.833547592163086, 2.6498684883117676, -0.0640871450304985, 1.918172836303711, -3.2708475589752197, 0.6476558446884155, -1.20361328125, 0.279296875, -1.064453125, 0, 
79, 2601367768, 86.36841583251953, -74.9273910522461, 24.464170455932617, 9.521416664123535, 2.663174629211426, 0.09166719019412994, 1.799246072769165, -2.9880669116973877, 0.6530092358589172, -1.20703125, 0.2802734375, -1.052734375, 0, 
80, 2601376101, 86.36902618408203, -74.92701721191406, 24.463571548461914, 9.09837818145752, 2.747633218765259, 0.3239107131958008, 1.8543936014175415, -3.3578338623046875, 0.620171844959259, -1.20166015625, 0.27978515625, -1.05126953125, 0, 
81, 2601384434, 86.37429809570312, -74.92693328857422, 24.458023071289062, 9.22365665435791, 2.498716115951538, 0.33577606081962585, 1.829138159751892, -3.5073184967041016, 0.5823652148246765, -1.2021484375, 0.27978515625, -1.04931640625, 0, 
82, 2601392767, 86.38265228271484, -74.92562866210938, 24.449724197387695, 9.783172607421875, 2.384890079498291, 0.23933209478855133, 1.8924051523208618, -3.5927162170410156, 0.4995799958705902, -1.19873046875, 0.27880859375, -1.04736328125, 0, 
83, 2601401100, 86.38107299804688, -74.92537689208984, 24.45168113708496, 9.86600112915039, 2.6584227085113525, -0.026621688157320023, 1.8814936876296997, -3.2701566219329834, 0.5739893913269043, -1.2001953125, 0.279296875, -1.05322265625, 0, 
84, 2601409433, 86.37831115722656, -74.92455291748047, 24.455669403076172, 9.583582878112793, 2.7309865951538086, 0.026847466826438904, 1.905366063117981, -3.234117269515991, 0.5710949897766113, -1.2021484375, 0.279296875, -1.044921875, 0, 
85, 2601417766, 86.37323760986328, -74.92452239990234, 24.461259841918945, 9.264756202697754, 2.636953830718994, 0.22426193952560425, 1.8857710361480713, -3.159759044647217, 0.6068012118339539, -1.2021484375, 0.27734375, -1.05126953125, 0, 
86, 2601426099, 86.37088012695312, -74.923583984375, 24.4637508392334, 9.126606941223145, 2.543745756149292, 0.3182670772075653, 1.702168345451355, -3.300611734390259, 0.5612078905105591, -1.2041015625, 0.27734375, -1.046875, 0, 
87, 2601434432, 86.3797607421875, -74.92361450195312, 24.454387664794922, 9.482202529907227, 2.4382379055023193, 0.22789189219474792, 1.8281391859054565, -3.6257846355438232, 0.5837996602058411, -1.19775390625, 0.27685546875, -1.0498046875, 0, 
88, 2601442765, 86.381103515625, -74.92192840576172, 24.4539737701416, 9.939143180847168, 2.522249460220337, 0.05730154365301132, 1.9067749977111816, -3.357193946838379, 0.4628748297691345, -1.201171875, 0.27734375, -1.05078125, 0, 
89, 2601451098, 86.37875366210938, -74.92163848876953, 24.456579208374023, 9.717683792114258, 2.7721986770629883, 0.06027809903025627, 1.8617193698883057, -3.2516887187957764, 0.5708644390106201, -1.20166015625, 0.27783203125, -1.04541015625, 0, 
90, 2601459431, 86.37355041503906, -74.92204284667969, 24.461463928222656, 9.299851417541504, 2.831932783126831, 0.0982925072312355, 1.8072377443313599, -3.191187620162964, 0.726445198059082, -1.2001953125, 0.27734375, -1.0517578125, 0, 
91, 2601467764, 86.37428283691406, -74.92328643798828, 24.46018409729004, 9.152276039123535, 2.5458672046661377, 0.39924415946006775, 1.7834932804107666, -3.3842673301696777, 0.7461681962013245, -1.20263671875, 0.27880859375, -1.04541015625, 0, 
92, 2601476097, 86.37948608398438, -74.92333221435547, 24.453683853149414, 9.318337440490723, 2.36995530128479, 0.29295963048934937, 1.7595438957214355, -3.535494089126587, 0.6611801385879517, -1.2001953125, 0.2763671875, -1.048828125, 0, 
93, 2601484430, 86.3823013305664, -74.9233169555664, 24.45081329345703, 9.836484909057617, 2.477996587753296, 0.13324661552906036, 1.8481438159942627, -3.424687147140503, 0.5916376113891602, -1.2041015625, 0.28076171875, -1.04736328125, 0, 
94, 2601492763, 86.38328552246094, -74.92334747314453, 24.449581146240234, 9.861324310302734, 2.634528875350952, 0.006580994464457035, 1.8814421892166138, -3.367746591567993, 0.6697097420692444, -1.2001953125, 0.27783203125, -1.044921875, 0, 
95, 2601501096, 86.37663269042969, -74.92314910888672, 24.456443786621094, 9.438632011413574, 2.7957730293273926, 0.1417669802904129, 1.842739224433899, -3.117341995239258, 0.5895116329193115, -1.2021484375, 0.27783203125, -1.05126953125, 0, 
96, 2601509429, 86.37728881835938, -74.92381286621094, 24.458433151245117, 9.138532638549805, 2.7441904544830322, 0.3837958574295044, 1.8186875581741333, -3.377915620803833, 0.7446569800376892, -1.20361328125, 0.27880859375, -1.04443359375, 0, 
97, 2601517762, 86.38082122802734, -74.9243392944336, 24.454267501831055, 9.307561874389648, 2.442495584487915, 0.2864309251308441, 1.7842363119125366, -3.4692814350128174, 0.6522665023803711, -1.1982421875, 0.279296875, -1.052734375, 0, 
98, 2601526095, 86.38813018798828, -74.92342376708984, 24.442058563232422, 9.752531051635742, 2.4181132316589355, 0.1975228190422058, 1.8180981874465942, -3.581650972366333, 0.5450196266174316, -1.201171875, 0.27734375, -1.0478515625, 0, 
99, 2601534428, 86.38713073730469, -74.92284393310547, 24.44350814819336, 9.829615592956543, 2.6661670207977295, -0.0007497705519199371, 1.892072081565857, -3.28470516204834, 0.5361058712005615, -1.2001953125, 0.27880859375, -1.0478515625, 0, 
100, 2601542761, 86.38080596923828, -74.92364501953125, 24.453174591064453, 9.56812858581543, 2.7495412826538086, 0.09695297479629517, 1.8793929815292358, -3.141444683074951, 0.7674279808998108, -1.20068359375, 0.27978515625, -1.05419921875, 0, 
101, 2601551094, 86.37895202636719, -74.92459106445312, 24.454843521118164, 9.182747840881348, 2.6675963401794434, 0.2166510969400406, 1.8110287189483643, -3.287907123565674, 0.7174803614616394, -1.203125, 0.279296875, -1.04443359375, 0, 
102, 2601559427, 86.37964630126953, -74.92499542236328, 24.453094482421875, 9.229687690734863, 2.4656810760498047, 0.35077810287475586, 1.7495291233062744, -3.39984130859375, 0.7109999060630798, -1.20166015625, 0.27880859375, -1.0517578125, 0, 
103, 2601567760, 86.3870620727539, -74.92387390136719, 24.44552993774414, 9.674028396606445, 2.419867992401123, 0.2603990137577057, 1.8557766675949097, -3.5606982707977295, 0.44727572798728943, -1.20263671875, 0.28076171875, -1.04541015625, 0, 
104, 2601576093, 86.38407897949219, -74.9222640991211, 24.447912216186523, 9.889304161071777, 2.6258249282836914, 0.014977209270000458, 1.9322612285614014, -3.2152397632598877, 0.4803437292575836, -1.203125, 0.27783203125, -1.05078125, 0, 
105, 2601584426, 86.37842559814453, -74.92259979248047, 24.45380210876465, 9.674481391906738, 2.693833589553833, 0.0351201631128788, 1.8490402698516846, -3.152228355407715, 0.6509089469909668, -1.20361328125, 0.27978515625, -1.048828125, 0, 
106, 2601592759, 86.375, -74.92218017578125, 24.454967498779297, 9.247303009033203, 2.687873601913452, 0.12311483174562454, 1.818738579750061, -3.240776777267456, 0.6227332949638367, -1.20068359375, 0.2783203125, -1.04638671875, 0, 
107, 2601601092, 86.37565612792969, -74.9229507446289, 24.45364761352539, 9.078449249267578, 2.592430830001831, 0.3585924506187439, 1.7711987495422363, -3.380733013153076, 0.6909439563751221, -1.20068359375, 0.2783203125, -1.0517578125, 0, 
108, 2601609425, 86.38628387451172, -74.92247772216797, 24.446704864501953, 9.439273834228516, 2.420551300048828, 0.24521899223327637, 1.7918950319290161, -3.700296401977539, 0.588717520236969, -1.203125, 0.27685546875, -1.04638671875, 0, 
109, 2601617758, 86.38896179199219, -74.92134857177734, 24.444461822509766, 9.945585250854492, 2.480609893798828, 0.11197589337825775, 1.9108986854553223, -3.3933353424072266, 0.4583410620689392, -1.1982421875, 0.27734375, -1.05078125, 0, 
110, 2601626091, 86.3851547241211, -74.92170715332031, 24.44858741760254, 9.782301902770996, 2.7731316089630127, -0.0006908797658979893, 1.9524447917938232, -3.1975910663604736, 0.7140735387802124, -1.203125, 0.2783203125, -1.044921875, 0, 
111, 2601634424, 86.38308715820312, -74.92289733886719, 24.45071792602539, 9.368231773376465, 2.8032033443450928, 0.1061500832438469, 1.8409974575042725, -3.2775843143463135, 0.7454510927200317, -1.20068359375, 0.27880859375, -1.046875, 0, 
112, 2601642757, 86.3843002319336, -74.92300415039062, 24.454235076904297, 9.161080360412598, 2.540736198425293, 0.3516433835029602, 1.8048299551010132, -3.3936166763305664, 0.6744483709335327, -1.20361328125, 0.27978515625, -1.05126953125, 0, 
113, 2601651090, 86.39036560058594, -74.92292785644531, 24.448389053344727, 9.297205924987793, 2.4140498638153076, 0.2932811379432678, 1.8976562023162842, -3.5171289443969727, 0.5795219540596008, -1.2001953125, 0.27734375, -1.04443359375, 0, 
114, 2601659423, 86.39662170410156, -74.92147827148438, 24.4439640045166, 9.774693489074707, 2.4767022132873535, 0.19260939955711365, 1.895504355430603, -3.5225586891174316, 0.48013877868652344, -1.2021484375, 0.2783203125, -1.052734375, 0, 
115, 2601667756, 86.39743041992188, -74.9216079711914, 24.444385528564453, 9.897069931030273, 2.6120729446411133, -0.04187126085162163, 1.9884074926376343, -3.321103096008301, 0.6182763576507568, -1.2021484375, 0.27880859375, -1.0478515625, 0, 
116, 2601676089, 86.38854217529297, -74.92137908935547, 24.452394485473633, 9.533529281616211, 2.7836716175079346, 0.11339324712753296, 1.887026309967041, -3.047363758087158, 0.6545717716217041, -1.20166015625, 0.2802734375, -1.0498046875, 0, 
117, 2601684422, 86.38600158691406, -74.92211151123047, 24.455018997192383, 9.1475830078125, 2.747265338897705, 0.290692538022995, 1.8394094705581665, -3.2581944465637207, 0.6915074586868286, -1.20263671875, 0.27978515625, -1.05078125, 0, 
118, 2601692755, 86.38770294189453, -74.92240142822266, 24.461454391479492, 9.246728897094727, 2.454087257385254, 0.3550240695476532, 1.777602195739746, -3.4245336055755615, 0.6919429302215576, -1.201171875, 0.2783203125, -1.0478515625, 0, 
119, 2601701088, 86.39483642578125, -74.92203521728516, 24.454389572143555, 9.673718452453613, 2.422229766845703, 0.21670496463775635, 1.8823901414871216, -3.551631212234497, 0.5405627489089966, -1.20166015625, 0.2783203125, -1.05078125, 0, 
120, 2601709421, 86.3907470703125, -74.92183685302734, 24.45691680908203, 9.843764305114746, 2.594022035598755, -0.01066217478364706, 1.8710687160491943, -3.2059671878814697, 0.6522665023803711, -1.201171875, 0.27880859375, -1.046875, 0, 
121, 2601717754, 86.38691711425781, -74.92200469970703, 24.46111488342285, 9.658280372619629, 2.676969051361084, 0.05469705909490585, 1.8739114999771118, -3.204148054122925, 0.6295978426933289, -1.19873046875, 0.279296875, -1.05126953125, 0, 
122, 2601726087, 86.38447570800781, -74.92280578613281, 24.454683303833008, 9.250147819519043, 2.7049458026885986, 0.1963185966014862, 1.8001682758331299, -3.2864983081817627, 0.7581813335418701, -1.20166015625, 0.2783203125, -1.04833984375, 0, 
123, 2601734420, 86.38410949707031, -74.92305755615234, 24.454185485839844, 9.161953926086426, 2.5739738941192627, 0.35824766755104065, 1.749042272567749, -3.3495094776153564, 0.6250641345977783, -1.19873046875, 0.27978515625, -1.0478515625, 0, 
124, 2601742753, 86.39459991455078, -74.92166900634766, 24.44365882873535, 9.567197799682617, 2.408015251159668, 0.26715636253356934, 1.8387433290481567, -3.67657732963562, 0.4839041233062744, -1.20361328125, 0.279296875, -1.05224609375, 0, 
125, 2601751086, 86.39359283447266, -74.9208984375, 24.445348739624023, 9.895404815673828, 2.5625345706939697, 0.010890191420912743, 1.9180445671081543, -3.2743568420410156, 0.5103892087936401, -1.20068359375, 0.27783203125, -1.044921875, 0, 
126, 2601759419, 86.39089965820312, -74.9210205078125, 24.454315185546875, 9.669988632202148, 2.7402360439300537, 0.04436897486448288, 1.9433261156082153, -3.235372304916382, 0.6771891117095947, -1.20263671875, 0.27880859375, -1.05224609375, 0, 
127, 2601767752, 86.38449096679688, -74.92047882080078, 24.460689544677734, 9.332332611083984, 2.7009360790252686, 0.13445185124874115, 1.8088515996932983, -3.132941246032715, 0.5505779981613159, -1.2021484375, 0.27978515625, -1.0458984375, 0, 
128, 2601776085, 86.3870849609375, -74.91974639892578, 24.461336135864258, 9.126964569091797, 2.5832107067108154, 0.31282657384872437, 1.8288049697875977, -3.4284262657165527, 0.5682517290115356, -1.20166015625, 0.27783203125, -1.05517578125, 0, 
129, 2601784418, 86.3949203491211, -74.91954040527344, 24.453292846679688, 9.354208946228027, 2.4177844524383545, 0.27065250277519226, 1.8579283952713013, -3.583085775375366, 0.5572121143341064, -1.20361328125, 0.28125, -1.05078125, 0, 
130, 2601792751, 86.39739990234375, -74.918212890625, 24.45453453063965, 9.89415454864502, 2.4477295875549316, 0.15122276544570923, 1.7934062480926514, -3.430168628692627, 0.5050358176231384, -1.19970703125, 0.2802734375, -1.0478515625, 0, 
131, 2601801084, 86.39733123779297, -74.91838073730469, 24.455730438232422, 9.861766815185547, 2.7069880962371826, -0.059119246900081635, 1.976112723350525, -3.298537015914917, 0.621990442276001, -1.2021484375, 0.27880859375, -1.0693359375, 0, 
132, 2601809417, 86.38951110839844, -74.91888427734375, 24.465150833129883, 9.453670501708984, 2.7831332683563232, 0.07788027077913284, 1.8975281715393066, -3.084069013595581, 0.7368189692497253, -1.20654296875, 0.2802734375, -1.064453125, 0, 
133, 2601817750, 86.38829040527344, -74.91907501220703, 24.46531867980957, 9.163778305053711, 2.6243343353271484, 0.33536604046821594, 1.7163841724395752, -3.330554723739624, 0.6229637861251831, -1.205078125, 0.279296875, -1.07080078125, 0, 
134, 2601826083, 86.3907699584961, -74.9186782836914, 24.462766647338867, 9.191553115844727, 2.469087600708008, 0.2446168065071106, 1.846888542175293, -3.42238187789917, 0.6120520830154419, -1.20751953125, 0.28125, -1.07177734375, 0, 
135, 2601834416, 86.40021514892578, -74.91845703125, 24.453311920166016, 9.666061401367188, 2.430401086807251, 0.20673464238643646, 1.887333631515503, -3.624375820159912, 0.5511927604675293, -1.2021484375, 0.27783203125, -1.0634765625, 0, 
136, 2601842749, 86.4001235961914, -74.91864776611328, 24.454010009765625, 9.910250663757324, 2.5902926921844482, -0.021548742428421974, 1.921938419342041, -3.3258419036865234, 0.6780344247817993, -1.203125, 0.27783203125, -1.0673828125, 0, 
137, 2601851082, 86.39342498779297, -74.91943359375, 24.461458206176758, 9.592408180236816, 2.784722089767456, 0.02640334889292717, 1.9059807062149048, -3.1079413890838623, 0.7104876637458801, -1.203125, 0.27978515625, -1.05810546875, 0, 
138, 2601859415, 86.38728332519531, -74.91932678222656, 24.46727752685547, 9.236098289489746, 2.743901252746582, 0.2280767560005188, 1.7849534749984741, -3.1612703800201416, 0.6646637320518494, -1.203125, 0.27978515625, -1.0673828125, 0, 
139, 2601867748, 86.3876953125, -74.9200210571289, 24.46579933166504, 9.197578430175781, 2.460268259048462, 0.3539102375507355, 1.7156157493591309, -3.3859071731567383, 0.6809031963348389, -1.20556640625, 0.27978515625, -1.06591796875, 0, 
140, 2601876081, 86.39307403564453, -74.9187240600586, 24.460683822631836, 9.571784019470215, 2.414033889770508, 0.22165383398532867, 1.89739990234375, -3.498788833618164, 0.4948413372039795, -1.20361328125, 0.2783203125, -1.0615234375, 0, 
141, 2601884414, 86.39147186279297, -74.91896057128906, 24.462574005126953, 9.836990356445312, 2.590808629989624, -0.006866151932626963, 1.865945816040039, -3.2761502265930176, 0.6315957903862, -1.20654296875, 0.2802734375, -1.06103515625, 0, 
142, 2601892747, 86.38329315185547, -74.91969299316406, 24.471092224121094, 9.720345497131348, 2.644134759902954, 0.02384868822991848, 1.868276596069336, -3.081456422805786, 0.7584630846977234, -1.20458984375, 0.28125, -1.05810546875, 0, 
143, 2601901080, 86.37481689453125, -74.91996002197266, 24.48111343383789, 9.313739776611328, 2.761401891708374, 0.11901404708623886, 1.9857178926467896, -3.0253355503082275, 0.6513955593109131, -1.20654296875, 0.27783203125, -1.0654296875, 0, 
144, 2601909413, 86.37342071533203, -74.91983795166016, 24.482410430908203, 9.111891746520996, 2.629429817199707, 0.4102712869644165, 1.8201216459274292, -3.3050684928894043, 0.651062548160553, -1.20361328125, 0.27978515625, -1.06005859375, 0, 
145, 2601917746, 86.38027954101562, -74.91943359375, 24.4747371673584, 9.449773788452148, 2.3987553119659424, 0.2871641516685486, 1.7825711965560913, -3.5697145462036133, 0.5341335535049438, -1.205078125, 0.27734375, -1.064453125, 0, 
146, 2601926079, 86.37975311279297, -74.91847229003906, 24.47597312927246, 9.890042304992676, 2.507129430770874, 0.10151195526123047, 1.9230141639709473, -3.3013288974761963, 0.5539846420288086, -1.2060546875, 0.27978515625, -1.060546875, 0, 
147, 2601934412, 86.37701416015625, -74.91819763183594, 24.479158401489258, 9.794108390808105, 2.760322093963623, -0.021816451102495193, 1.887179970741272, -3.233041286468506, 0.5695324540138245, -1.20361328125, 0.279296875, -1.060546875, 0, 
148, 2601942745, 86.37202453613281, -74.91891479492188, 24.48443603515625, 9.456215858459473, 2.67621111869812, 0.11327605694532394, 1.8560843467712402, -3.187730073928833, 0.7598719000816345, -1.20458984375, 0.2802734375, -1.064453125, 0, 
149, 2601951078, 86.37004089355469, -74.91932678222656, 24.48516845703125, 9.147329330444336, 2.5823922157287598, 0.3278648257255554, 1.6897708177566528, -3.314340591430664, 0.6486803889274597, -1.203125, 0.27783203125, -1.05908203125, 0, 
150, 2601959411, 86.37669372558594, -74.91932678222656, 24.47759246826172, 9.240177154541016, 2.4892609119415283, 0.2935352027416229, 1.7741440534591675, -3.5806267261505127, 0.6444797515869141, -1.20556640625, 0.2783203125, -1.0673828125, 0, 
151, 2601967744, 86.38261413574219, -74.91835021972656, 24.471574783325195, 9.792000770568848, 2.405315637588501, 0.21122045814990997, 1.8489887714385986, -3.5160014629364014, 0.4770906865596771, -1.2060546875, 0.279296875, -1.05908203125, 0, 
152, 2601976077, 86.38154602050781, -74.91773223876953, 24.473173141479492, 9.861701965332031, 2.646380662918091, 0.01692829839885235, 1.9019078016281128, -3.2936441898345947, 0.5885637998580933, -1.20263671875, 0.27978515625, -1.0634765625, 0, 
153, 2601984410, 86.37969970703125, -74.91826629638672, 24.476484298706055, 9.506780624389648, 2.8419971466064453, 0.08567950129508972, 2.007361888885498, -3.233348846435547, 0.6668922305107117, -1.2041015625, 0.279296875, -1.06103515625, 0, 
154, 2601992743, 86.38274383544922, -74.91874694824219, 24.472475051879883, 9.18614673614502, 2.6736552715301514, 0.2399080991744995, 1.741409420967102, -3.4755825996398926, 0.7076188325881958, -1.205078125, 0.279296875, -1.05810546875, 0, 
155, 2602001076, 86.383544921875, -74.91943359375, 24.470897674560547, 9.185943603515625, 2.4357452392578125, 0.32612213492393494, 1.7615164518356323, -3.387700319290161, 0.6799042224884033, -1.205078125, 0.27978515625, -1.06396484375, 0, 
156, 2602009409, 86.39302825927734, -74.91759490966797, 24.46108055114746, 9.564844131469727, 2.431422710418701, 0.24737809598445892, 1.8482718467712402, -3.6377720832824707, 0.417102187871933, -1.2060546875, 0.28076171875, -1.0556640625, 0, 
157, 2602017742, 86.3952407836914, -74.91679382324219, 24.45818328857422, 9.923188209533691, 2.5896542072296143, 0.030565647408366203, 1.7772177457809448, -3.4183599948883057, 0.49740275740623474, -1.2021484375, 0.27783203125, -1.06982421875, 0, 
158, 2602026075, 86.39253997802734, -74.91641235351562, 24.4613094329834, 9.749937057495117, 2.669602870941162, 0.025495393201708794, 1.8720163106918335, -3.246616840362549, 0.6195827126502991, -1.20361328125, 0.2802734375, -1.06103515625, 0, 
159, 2602034408, 86.38652801513672, -74.91633605957031, 24.466785430908203, 9.279666900634766, 2.736488103866577, 0.16402839124202728, 1.7520647048950195, -3.1632423400878906, 0.606083869934082, -1.20458984375, 0.279296875, -1.0615234375, 0, 
160, 2602042741, 86.38800048828125, -74.9162826538086, 24.4649600982666, 9.143566131591797, 2.6028707027435303, 0.4200610816478729, 1.7833651304244995, -3.4094467163085938, 0.6427891850471497, -1.205078125, 0.27978515625, -1.06103515625, 0, 
161, 2602051074, 86.39730834960938, -74.91649627685547, 24.45488739013672, 9.46150016784668, 2.411604166030884, 0.2378322035074234, 1.797530174255371, -3.648606777191162, 0.605238676071167, -1.20458984375, 0.28173828125, -1.05810546875, 0, 
162, 2602059407, 86.39505004882812, -74.91624450683594, 24.458181381225586, 9.844320297241211, 2.5071463584899902, 0.11071481555700302, 1.9512922763824463, -3.243952751159668, 0.6365904808044434, -1.2060546875, 0.27880859375, -1.064453125, 0, 
163, 2602067740, 86.3940200805664, -74.9159164428711, 24.45928955078125, 9.751856803894043, 2.72243332862854, 0.020055927336215973, 1.8438917398452759, -3.2955143451690674, 0.5643840432167053, -1.20751953125, 0.2802734375, -1.05908203125, 0, 
164, 2602076073, 86.39164733886719, -74.91654968261719, 24.461360931396484, 9.406301498413086, 2.7519681453704834, 0.08009617775678635, 1.8109774589538574, -3.2856788635253906, 0.7325927019119263, -1.20263671875, 0.27978515625, -1.0615234375, 0, 
165, 2602084406, 86.39645385742188, -74.9167251586914, 24.455957412719727, 9.10837173461914, 2.6120171546936035, 0.2970970869064331, 1.7897688150405884, -3.504321336746216, 0.6174310445785522, -1.20751953125, 0.279296875, -1.0625, 0, 
166, 2602092739, 86.40247344970703, -74.9163818359375, 24.449710845947266, 9.321121215820312, 2.412825345993042, 0.28150689601898193, 1.8444552421569824, -3.5376968383789062, 0.6053667664527893, -1.2041015625, 0.27880859375, -1.05712890625, 0, 
167, 2602101072, 86.40676879882812, -74.91522979736328, 24.44509506225586, 9.817089080810547, 2.4765944480895996, 0.19670580327510834, 1.8299577236175537, -3.4680263996124268, 0.4509129822254181, -1.20361328125, 0.27978515625, -1.0654296875, 0, 
168, 2602109405, 86.4075927734375, -74.91444396972656, 24.444299697875977, 9.848112106323242, 2.6708765029907227, -0.08406975865364075, 1.8514480590820312, -3.3683102130889893, 0.5580573081970215, -1.20556640625, 0.27783203125, -1.05810546875, 0, 
169, 2602117738, 86.40241241455078, -74.91456604003906, 24.44951057434082, 9.511746406555176, 2.6672866344451904, 0.06596202403306961, 1.8263459205627441, -3.1736929416656494, 0.6227588057518005, -1.2041015625, 0.27880859375, -1.060546875, 0, 
170, 2602126071, 86.40161895751953, -74.91402435302734, 24.45063591003418, 9.154263496398926, 2.6332640647888184, 0.2478877305984497, 1.8692755699157715, -3.3079116344451904, 0.5936354994773865, -1.2060546875, 0.27880859375, -1.06103515625, 0, 
171, 2602134404, 86.4069595336914, -74.91434478759766, 24.443622589111328, 9.16547966003418, 2.5623011589050293, 0.2954460680484772, 1.6759393215179443, -3.5547049045562744, 0.6239627003669739, -1.203125, 0.27880859375, -1.06005859375, 0, 
172, 2602142737, 86.4197769165039, -74.91307830810547, 24.430444717407227, 9.649543762207031, 2.4018592834472656, 0.2630208134651184, 1.842175841331482, -3.7496039867401123, 0.4898722767829895, -1.20556640625, 0.28076171875, -1.0625, 0, 
173, 2602151070, 86.4188461303711, -74.9117660522461, 24.432239532470703, 9.935775756835938, 2.5267081260681152, -0.009858052246272564, 1.9468611478805542, -3.268158435821533, 0.44238343834877014, -1.203125, 0.27978515625, -1.05615234375, 0, 
174, 2602159403, 86.4139404296875, -74.91129302978516, 24.437772750854492, 9.650909423828125, 2.8110129833221436, 0.04051891714334488, 1.8827999830245972, -3.1731810569763184, 0.6101054549217224, -1.20166015625, 0.27880859375, -1.06005859375, 0, 
175, 2602167736, 86.40547180175781, -74.91119384765625, 24.44539451599121, 9.31619644165039, 2.723414182662964, 0.17831194400787354, 1.7118504047393799, -3.0949294567108154, 0.6027541756629944, -1.203125, 0.279296875, -1.04736328125, 0, 
176, 2602176069, 86.40734100341797, -74.91148376464844, 24.442758560180664, 9.180370330810547, 2.491177558898926, 0.34804990887641907, 1.7609273195266724, -3.4290413856506348, 0.6893302798271179, -1.203125, 0.27734375, -1.04931640625, 0, 
177, 2602184402, 86.4130859375, -74.91108703613281, 24.43644142150879, 9.422066688537598, 2.4754176139831543, 0.2760762572288513, 1.803318977355957, -3.528245449066162, 0.5402810573577881, -1.20361328125, 0.27978515625, -1.04931640625, 0, 
178, 2602192735, 86.41172790527344, -74.90864562988281, 24.437284469604492, 9.865692138671875, 2.5292654037475586, 0.12145768851041794, 1.778908610343933, -3.304812431335449, 0.3584199845790863, -1.1982421875, 0.27880859375, -1.0458984375, 0, 
179, 2602201068, 86.41095733642578, -74.90811920166016, 24.438945770263672, 9.819814682006836, 2.6538074016571045, 0.02906857617199421, 1.9468867778778076, -3.2781224250793457, 0.5391028523445129, -1.2041015625, 0.279296875, -1.05419921875, 0, 
180, 2602209401, 86.39962768554688, -74.90848541259766, 24.448843002319336, 9.391716003417969, 2.825106143951416, 0.12759831547737122, 1.8808019161224365, -2.9733645915985107, 0.7248060703277588, -1.20068359375, 0.28125, -1.04541015625, 0, 
181, 2602217734, 86.40269470214844, -74.90935516357422, 24.445152282714844, 9.144062995910645, 2.6573073863983154, 0.38991203904151917, 1.7753993272781372, -3.45434832572937, 0.7041866183280945, -1.20068359375, 0.2783203125, -1.0537109375, 0, 
182, 2602226067, 86.40792846679688, -74.90935516357422, 24.43949317932129, 9.351079940795898, 2.3826823234558105, 0.2986447513103485, 1.795788288116455, -3.5310888290405273, 0.6408681273460388, -1.2021484375, 0.27685546875, -1.046875, 0, 
183, 2602234400, 86.41315460205078, -74.90803527832031, 24.43426513671875, 9.791781425476074, 2.469120979309082, 0.18678975105285645, 1.8660738468170166, -3.486724853515625, 0.42806509137153625, -1.20068359375, 0.2783203125, -1.04833984375, 0, 
184, 2602242733, 86.41471862792969, -74.90807342529297, 24.4281063079834, 9.833185195922852, 2.6600396633148193, -0.0382298044860363, 1.8366683721542358, -3.3983302116394043, 0.6597970128059387, -1.203125, 0.279296875, -1.05126953125, 0, 
185, 2602251066, 86.41340637207031, -74.90885925292969, 24.429201126098633, 9.556477546691895, 2.6595332622528076, 0.06733987480401993, 1.8167916536331177, -3.305478096008301, 0.6950421333312988, -1.20166015625, 0.27978515625, -1.04443359375, 0, 
186, 2602259399, 86.41178894042969, -74.90856170654297, 24.43607521057129, 9.174001693725586, 2.6661365032196045, 0.27757492661476135, 1.8784711360931396, -3.2833988666534424, 0.6254996061325073, -1.20166015625, 0.2802734375, -1.052734375, 0, 
187, 2602267732, 86.41614532470703, -74.90897369384766, 24.431079864501953, 9.1954345703125, 2.5294864177703857, 0.3391035199165344, 1.782853126525879, -3.4932563304901123, 0.6387165784835815, -1.20166015625, 0.279296875, -1.0478515625, 0, 
188, 2602276065, 86.33367156982422, -74.90109252929688, 24.508373260498047, 9.654224395751953, 2.4129865169525146, 0.21755072474479675, 1.9024202823638916, -3.629267930984497, 0.5530112981796265, -1.19873046875, 0.27880859375, -1.0517578125, 0, 
189, 2602284398, 86.3337631225586, -74.90096282958984, 24.508129119873047, 9.848258972167969, 2.601541757583618, 0.027080655097961426, 1.8274474143981934, -3.3541452884674072, 0.5842607021331787, -1.20166015625, 0.27880859375, -1.048828125, 0, 
190, 2602292731, 86.33141326904297, -74.90044403076172, 24.516555786132812, 9.597430229187012, 2.716388463973999, 0.00802453514188528, 1.9465281963348389, -3.2377288341522217, 0.6005000472068787, -1.19921875, 0.2783203125, -1.04638671875, 0, 
191, 2602301064, 86.33196258544922, -74.90167236328125, 24.51702117919922, 9.296175956726074, 2.679473400115967, 0.1229911670088768, 1.9640477895736694, -3.3324496746063232, 0.7494211792945862, -1.2021484375, 0.27978515625, -1.0546875, 0, 
192, 2602309397, 86.33277893066406, -74.90216064453125, 24.51407814025879, 9.132035255432129, 2.5590198040008545, 0.3313765525817871, 1.841560959815979, -3.3791961669921875, 0.7154055237770081, -1.20166015625, 0.27734375, -1.046875, 0, 
193, 2602317730, 86.34357452392578, -74.90164184570312, 24.50226402282715, 9.417750358581543, 2.4027063846588135, 0.2667011320590973, 1.7716341018676758, -3.7036516666412354, 0.5128993988037109, -1.19970703125, 0.2783203125, -1.0537109375, 0, 
194, 2602326063, 86.34612274169922, -74.9000473022461, 24.486862182617188, 9.928367614746094, 2.4652841091156006, 0.08963075280189514, 1.904725432395935, -3.3996615409851074, 0.4604158103466034, -1.20556640625, 0.2802734375, -1.05029296875, 0, 
195, 2602334396, 86.34663391113281, -74.90036010742188, 24.487455368041992, 9.790204048156738, 2.7194979190826416, 0.04453299194574356, 1.980108380317688, -3.322460651397705, 0.6379480957984924, -1.19873046875, 0.279296875, -1.04833984375, 0, 
196, 2602342729, 86.34306335449219, -74.90046691894531, 24.492046356201172, 9.361991882324219, 2.743466377258301, 0.12728773057460785, 1.8257824182510376, -3.2369601726531982, 0.6713746190071106, -1.2041015625, 0.2802734375, -1.0517578125, 0, 
197, 2602351062, 86.34455108642578, -74.90082550048828, 24.489639282226562, 9.175704002380371, 2.583644390106201, 0.3461511433124542, 1.7437145709991455, -3.4170029163360596, 0.6395874619483948, -1.2021484375, 0.27880859375, -1.04443359375, 0, 
198, 2602359395, 86.3531494140625, -74.90070343017578, 24.473974227905273, 9.251704216003418, 2.4838502407073975, 0.22978711128234863, 1.7811881303787231, -3.639462471008301, 0.6196339130401611, -1.2021484375, 0.27978515625, -1.0517578125, 0, 
199, 2602367728, 86.35552978515625, -74.90088653564453, 24.470834732055664, 9.76508903503418, 2.4578845500946045, 0.17728954553604126, 1.7728121280670166, -3.4369559288024902, 0.6137937903404236, -1.20263671875, 0.27978515625, -1.0478515625, 0, 
200, 2602376061, 86.35709381103516, -74.90019989013672, 24.47051429748535, 9.880900382995605, 2.612818479537964, 0.04906954988837242, 1.9588741064071655, -3.3627519607543945, 0.5763971209526062, -1.19970703125, 0.279296875, -1.05029296875, 0, 
201, 2602384394, 86.35263061523438, -74.90044403076172, 24.4753360748291, 9.532475471496582, 2.7994120121002197, 0.07040473073720932, 1.870300054550171, -3.1893436908721924, 0.6383066177368164, -1.20458984375, 0.279296875, -1.04931640625, 0, 
202, 2602392727, 86.35458374023438, -74.90050506591797, 24.475299835205078, 9.188291549682617, 2.6964499950408936, 0.2827496826648712, 1.7416908740997314, -3.4359569549560547, 0.6542899012565613, -1.201171875, 0.2802734375, -1.04541015625, 0, 
203, 2602401060, 86.35880279541016, -74.90065002441406, 24.47064971923828, 9.295016288757324, 2.476943016052246, 0.32527297735214233, 1.8133594989776611, -3.4825494289398193, 0.6083379983901978, -1.203125, 0.27978515625, -1.05419921875, 0, 
204, 2602409393, 86.36492156982422, -74.89928436279297, 24.450868606567383, 9.633504867553711, 2.448850631713867, 0.24280036985874176, 1.8135902881622314, -3.544766664505005, 0.47921669483184814, -1.20263671875, 0.279296875, -1.044921875, 0, 
205, 2602417726, 86.36304473876953, -74.89925384521484, 24.45271873474121, 9.860580444335938, 2.572312593460083, -0.033029839396476746, 1.8357977867126465, -3.2796080112457275, 0.6010123491287231, -1.2021484375, 0.27734375, -1.05126953125, 0, 
206, 2602426059, 86.3604736328125, -74.89881134033203, 24.459108352661133, 9.695021629333496, 2.678424835205078, -0.0002833015751093626, 1.9062625169754028, -3.245950937271118, 0.6020113229751587, -1.203125, 0.27880859375, -1.04833984375, 0, 
207, 2602434392, 86.35598754882812, -74.89899444580078, 24.463512420654297, 9.226811408996582, 2.771251678466797, 0.18093730509281158, 1.810644507408142, -3.2036876678466797, 0.6346439123153687, -1.2001953125, 0.279296875, -1.04931640625, 0, 
208, 2602442725, 86.3563003540039, -74.89862823486328, 24.453533172607422, 9.140227317810059, 2.6499485969543457, 0.3652329444885254, 1.668562412261963, -3.39815092086792, 0.6103359460830688, -1.2021484375, 0.279296875, -1.0537109375, 0, 
209, 2602451058, 86.36708068847656, -74.89839172363281, 24.44213104248047, 9.533839225769043, 2.3884668350219727, 0.22160276770591736, 1.8280365467071533, -3.6909215450286865, 0.5430985689163208, -1.2041015625, 0.2783203125, -1.04248046875, 0, 
210, 2602459391, 86.36544036865234, -74.8968734741211, 24.447372436523438, 9.907105445861816, 2.5158190727233887, 0.0835297480225563, 1.8977843523025513, -3.2677230834960938, 0.47668081521987915, -1.201171875, 0.2783203125, -1.05224609375, 0, 
211, 2602467724, 86.36058807373047, -74.89775085449219, 24.452770233154297, 9.740259170532227, 2.7415771484375, 0.04552549123764038, 1.884003758430481, -3.1770741939544678, 0.7191196084022522, -1.2021484375, 0.27880859375, -1.046875, 0, 
212, 2602476057, 86.35482025146484, -74.89781188964844, 24.46212387084961, 9.428990364074707, 2.6549646854400635, 0.11125653982162476, 1.802140712738037, -3.174436092376709, 0.6698890328407288, -1.19970703125, 0.27978515625, -1.0517578125, 0, 
213, 2602484390, 86.35408782958984, -74.89781188964844, 24.46285629272461, 9.138437271118164, 2.5878217220306396, 0.28365597128868103, 1.8449420928955078, -3.314699649810791, 0.6000134348869324, -1.2041015625, 0.27734375, -1.05029296875, 0, 
214, 2602492723, 86.35498046875, -74.8969497680664, 24.46661376953125, 9.295607566833496, 2.459000825881958, 0.22745256125926971, 1.7946866750717163, -3.3811681270599365, 0.5451220870018005, -1.2001953125, 0.2783203125, -1.04541015625, 0, 
215, 2602501056, 86.35569763183594, -74.89567565917969, 24.4659423828125, 9.842815399169922, 2.440904378890991, 0.1693718433380127, 1.849475622177124, -3.3503799438476562, 0.4490174949169159, -1.2001953125, 0.27734375, -1.0556640625, 0, 
216, 2602509389, 86.35325622558594, -74.89485931396484, 24.461936950683594, 9.850943565368652, 2.6672840118408203, 0.0010921512730419636, 1.9150738716125488, -3.242262363433838, 0.5617457628250122, -1.20166015625, 0.27978515625, -1.04345703125, 0, 
217, 2602517722, 86.34292602539062, -74.8954849243164, 24.472707748413086, 9.509020805358887, 2.8193159103393555, 0.03818467631936073, 1.8595678806304932, -3.0069961547851562, 0.6962206363677979, -1.201171875, 0.2783203125, -1.05419921875, 0, 
218, 2602526055, 86.3398208618164, -74.89671325683594, 24.476781845092773, 9.2168550491333, 2.650172710418701, 0.25452032685279846, 1.761311411857605, -3.2741262912750244, 0.8053626418113708, -1.2021484375, 0.27880859375, -1.05029296875, 0, 
219, 2602534388, 86.3366928100586, -74.898193359375, 24.47956085205078, 9.21189022064209, 2.448370933532715, 0.32365846633911133, 1.791664481163025, -3.264726400375366, 0.7820025682449341, -1.19921875, 0.27734375, -1.048828125, 0, 
220, 2602542721, 86.34221649169922, -74.896728515625, 24.48065185546875, 9.597440719604492, 2.423654079437256, 0.25079888105392456, 1.804317593574524, -3.524172306060791, 0.4634639322757721, -1.20166015625, 0.27880859375, -1.04931640625, 0, 
221, 2602551054, 86.33868408203125, -74.8958740234375, 24.4843807220459, 9.878386497497559, 2.5307693481445312, -0.0032946381252259016, 1.8531385660171509, -3.2176473140716553, 0.507110595703125, -1.2021484375, 0.2783203125, -1.04638671875, 0, 
222, 2602559387, 86.33175659179688, -74.89521026611328, 24.479137420654297, 9.663199424743652, 2.6892945766448975, 0.03592006862163544, 1.8973742723464966, -3.1030490398406982, 0.5874623656272888, -1.20263671875, 0.27880859375, -1.0517578125, 0, 
223, 2602567720, 86.32389831542969, -74.89582824707031, 24.486831665039062, 9.260490417480469, 2.811824321746826, 0.22616149485111237, 1.7968897819519043, -3.1012306213378906, 0.6861284971237183, -1.20166015625, 0.27783203125, -1.0478515625, 0, 
224, 2602576053, 86.32170867919922, -74.89576721191406, 24.483325958251953, 9.187960624694824, 2.5979623794555664, 0.3912600874900818, 1.7474284172058105, -3.301175117492676, 0.6484242677688599, -1.201171875, 0.279296875, -1.0478515625, 0, 
225, 2602584386, 86.32657623291016, -74.89534759521484, 24.4781551361084, 9.473221778869629, 2.3539950847625732, 0.23439531028270721, 1.8303931951522827, -3.4966375827789307, 0.5402810573577881, -1.20556640625, 0.2802734375, -1.05224609375, 0, 
226, 2602592719, 86.32414245605469, -74.89356994628906, 24.47642707824707, 9.770650863647461, 2.467160940170288, 0.06168301776051521, 1.8583638668060303, -3.2515861988067627, 0.4405648112297058, -1.20166015625, 0.27783203125, -1.046875, 0, 
227, 2602601052, 86.32295989990234, -74.89270782470703, 24.478673934936523, 9.711799621582031, 2.6607351303100586, 0.08306510746479034, 1.9637154340744019, -3.261012077331543, 0.5038832426071167, -1.203125, 0.2783203125, -1.06689453125, 0, 
228, 2602609385, 86.31907653808594, -74.89179992675781, 24.485124588012695, 9.434675216674805, 2.7625224590301514, 0.13223157823085785, 1.9313127994537354, -3.192007064819336, 0.5516024827957153, -1.20458984375, 0.27880859375, -1.068359375, 0, 
229, 2602617718, 86.31768035888672, -74.89228820800781, 24.486003875732422, 9.198169708251953, 2.698505163192749, 0.3297393321990967, 1.7772948741912842, -3.3143150806427, 0.6607703566551208, -1.20556640625, 0.2783203125, -1.068359375, 0, 
230, 2602626051, 86.3199462890625, -74.89179992675781, 24.482370376586914, 9.320281982421875, 2.4252097606658936, 0.27792078256607056, 1.7018351554870605, -3.454911470413208, 0.5876160264015198, -1.20703125, 0.28076171875, -1.06640625, 0, 
231, 2602634384, 86.32048034667969, -74.89043426513672, 24.4818058013916, 9.762192726135254, 2.4198989868164062, 0.146328404545784, 1.8432002067565918, -3.3469479084014893, 0.4342637360095978, -1.20556640625, 0.27880859375, -1.06494140625, 0, 
232, 2602642717, 86.31648254394531, -74.88947296142578, 24.486623764038086, 9.759773254394531, 2.6315624713897705, 0.0058271437883377075, 1.9316462278366089, -3.187755584716797, 0.5480421781539917, -1.20556640625, 0.2802734375, -1.0693359375, 0, 
233, 2602651050, 86.31158447265625, -74.88929748535156, 24.49197006225586, 9.504827499389648, 2.7021782398223877, 0.07577832788228989, 1.8751155138015747, -3.1696460247039795, 0.592841386795044, -1.20654296875, 0.27978515625, -1.0595703125, 0, 
234, 2602659383, 86.30827331542969, -74.8891372680664, 24.49527931213379, 9.205887794494629, 2.7068588733673096, 0.2886675298213959, 1.8244248628616333, -3.2415192127227783, 0.6315188407897949, -1.20703125, 0.279296875, -1.06689453125, 0, 
235, 2602667716, 86.31201171875, -74.88964080810547, 24.490646362304688, 9.18039321899414, 2.5045008659362793, 0.282082736492157, 1.7521674633026123, -3.4880566596984863, 0.6534959673881531, -1.20751953125, 0.279296875, -1.06103515625, 0, 
236, 2602676049, 86.31941223144531, -74.88915252685547, 24.483474731445312, 9.668275833129883, 2.3346939086914062, 0.27260226011276245, 1.9032657146453857, -3.5696892738342285, 0.5788304209709167, -1.203125, 0.27978515625, -1.06591796875, 0, 
237, 2602684382, 86.3200912475586, -74.88819885253906, 24.48377227783203, 9.886180877685547, 2.586836338043213, -0.004849941469728947, 1.9619479179382324, -3.322178840637207, 0.48480063676834106, -1.20751953125, 0.2802734375, -1.0625, 0, 
238, 2602692715, 86.314208984375, -74.88800811767578, 24.490224838256836, 9.631372451782227, 2.8141536712646484, 0.02978343330323696, 1.892661452293396, -3.1419827938079834, 0.6405351758003235, -1.205078125, 0.28076171875, -1.05908203125, 0, 
239, 2602701048, 86.3138656616211, -74.88835144042969, 24.490989685058594, 9.278135299682617, 2.6935713291168213, 0.22411797940731049, 1.8922772407531738, -3.3154423236846924, 0.6429173350334167, -1.2080078125, 0.27978515625, -1.06640625, 0, 
240, 2602709381, 86.31765747070312, -74.88843536376953, 24.48720359802246, 9.146923065185547, 2.5527119636535645, 0.3339601457118988, 1.8661763668060303, -3.46561861038208, 0.6486291885375977, -1.20654296875, 0.2783203125, -1.06201171875, 0, 
241, 2602717714, 86.32781982421875, -74.88792419433594, 24.47735595703125, 9.4234619140625, 2.4557547569274902, 0.2476697564125061, 1.9204528331756592, -3.6407687664031982, 0.5216594934463501, -1.20458984375, 0.27880859375, -1.06298828125, 0, 
242, 2602726047, 86.32958221435547, -74.88646697998047, 24.47604751586914, 9.892119407653809, 2.4522476196289062, 0.13349469006061554, 1.9079017639160156, -3.3763532638549805, 0.4720447361469269, -1.20703125, 0.28173828125, -1.05908203125, 0, 
243, 2602734380, 86.3294677734375, -74.88699340820312, 24.47731590270996, 9.788290023803711, 2.6918787956237793, 0.05876845121383667, 1.9805949926376343, -3.3010215759277344, 0.6667129397392273, -1.2041015625, 0.2783203125, -1.060546875, 0, 
244, 2602742713, 86.32469177246094, -74.8867416381836, 24.482379913330078, 9.382240295410156, 2.8364756107330322, 0.08800433576107025, 1.8648442029953003, -3.1843488216400146, 0.6278817653656006, -1.20556640625, 0.28125, -1.06689453125, 0, 
245, 2602751046, 86.32669067382812, -74.88716888427734, 24.479633331298828, 9.208266258239746, 2.6323816776275635, 0.3996732532978058, 1.7683297395706177, -3.429194927215576, 0.6484755277633667, -1.20703125, 0.279296875, -1.0595703125, 0, 
246, 2602759379, 86.33260345458984, -74.88741302490234, 24.473350524902344, 9.375332832336426, 2.4539079666137695, 0.31239432096481323, 1.8191485404968262, -3.544408082962036, 0.6739104986190796, -1.20263671875, 0.27880859375, -1.0634765625, 0, 
247, 2602767712, 86.33345794677734, -74.88777160644531, 24.47273826599121, 9.780614852905273, 2.4701714515686035, 0.14518576860427856, 1.8767037391662598, -3.360062599182129, 0.6425586938858032, -1.20458984375, 0.2783203125, -1.06005859375, 0, 
248, 2602776045, 86.33346557617188, -74.8878173828125, 24.472869873046875, 9.88467025756836, 2.598752021789551, 0.01595163904130459, 1.8668678998947144, -3.3433873653411865, 0.6485267877578735, -1.20361328125, 0.27880859375, -1.06396484375, 0, 
249, 2602784378, 86.32929992675781, -74.88851165771484, 24.47789192199707, 9.529526710510254, 2.676990032196045, 0.07653998583555222, 1.9266771078109741, -3.188267707824707, 0.6961437463760376, -1.20703125, 0.28125, -1.06103515625, 0, 
250, 2602792711, 86.32743072509766, -74.88851165771484, 24.480117797851562, 9.170186996459961, 2.7015559673309326, 0.3174360394477844, 1.875883936882019, -3.2776100635528564, 0.6540850400924683, -1.2021484375, 0.28076171875, -1.05810546875, 0, 
251, 2602801044, 86.3334732055664, -74.88959503173828, 24.473346710205078, 9.254100799560547, 2.5120089054107666, 0.30524158477783203, 1.7891030311584473, -3.5580861568450928, 0.7161483764648438, -1.20703125, 0.2802734375, -1.0625, 0, 
252, 2602809377, 86.34284973144531, -74.88882446289062, 24.46417808532715, 9.712106704711914, 2.4165916442871094, 0.20564578473567963, 1.9049049615859985, -3.6299595832824707, 0.5375658869743347, -1.2060546875, 0.27783203125, -1.0556640625, 0, 
253, 2602817710, 86.3410415649414, -74.88790893554688, 24.46727180480957, 9.834013938903809, 2.635039806365967, 0.04297904297709465, 1.9882277250289917, -3.2339119911193848, 0.4977613687515259, -1.205078125, 0.27783203125, -1.064453125, 0, 
254, 2602826043, 86.33538055419922, -74.88706970214844, 24.4739990234375, 9.629630088806152, 2.761247396469116, 0.003596984315663576, 1.9162776470184326, -3.136322259902954, 0.5652037858963013, -1.2060546875, 0.2822265625, -1.060546875, 0, 
255, 2602834376, 86.33309936523438, -74.8876724243164, 24.475662231445312, 9.255931854248047, 2.6739213466644287, 0.13132189214229584, 1.7749896049499512, -3.290391683578491, 0.6655601859092712, -1.20458984375, 0.27734375, -1.060546875, 0, 
256, 2602842709, 86.33584594726562, -74.88782501220703, 24.471742630004883, 9.106242179870605, 2.488948106765747, 0.3268924653530121, 1.7342885732650757, -3.465413808822632, 0.6628451347351074, -1.2060546875, 0.279296875, -1.0625, 0, 
257, 2602851042, 86.34807586669922, -74.88748931884766, 24.4592227935791, 9.487603187561035, 2.4050190448760986, 0.2608354389667511, 1.8647931814193726, -3.7268331050872803, 0.5324175357818604, -1.2060546875, 0.2783203125, -1.05810546875, 0, 
258, 2602859375, 86.34920501708984, -74.88626098632812, 24.459476470947266, 9.943843841552734, 2.5260396003723145, 0.03798570856451988, 1.985897183418274, -3.334857940673828, 0.5022438168525696, -1.205078125, 0.279296875, -1.06591796875, 0, 
259, 2602867708, 86.34476470947266, -74.88642883300781, 24.464372634887695, 9.775012016296387, 2.7356958389282227, -0.02010379545390606, 1.8839011192321777, -3.1868841648101807, 0.6278560757637024, -1.2041015625, 0.27783203125, -1.06103515625, 0, 
260, 2602876041, 86.3387451171875, -74.88672637939453, 24.469722747802734, 9.341165542602539, 2.739197254180908, 0.15863613784313202, 1.7641291618347168, -3.1714391708374023, 0.7034949064254761, -1.20263671875, 0.27783203125, -1.06201171875, 0, 
261, 2602884374, 86.3393325805664, -74.88612365722656, 24.467910766601562, 9.071900367736816, 2.6374361515045166, 0.35069331526756287, 1.7103136777877808, -3.39143967628479, 0.5231451392173767, -1.20654296875, 0.28125, -1.06103515625, 0, 
262, 2602892707, 86.34169006347656, -74.88652038574219, 24.464982986450195, 9.309481620788574, 2.4698147773742676, 0.21292704343795776, 1.7452770471572876, -3.454399585723877, 0.6837719082832336, -1.205078125, 0.27880859375, -1.0556640625, 0, 
263, 2602901040, 86.34659576416016, -74.88552856445312, 24.4600830078125, 9.832647323608398, 2.416562557220459, 0.1411425769329071, 1.8665603399276733, -3.4827029705047607, 0.4732741713523865, -1.205078125, 0.279296875, -1.0634765625, 0, 
264, 2602909373, 86.34429931640625, -74.88410949707031, 24.46529769897461, 9.863719940185547, 2.644519567489624, 0.01690416783094406, 2.004775047302246, -3.218313217163086, 0.4875413179397583, -1.20361328125, 0.279296875, -1.05908203125, 0, 
265, 2602917706, 86.33704376220703, -74.88399505615234, 24.472900390625, 9.521409034729004, 2.803192138671875, 0.10530036687850952, 1.85887610912323, -3.0984387397766113, 0.5989633202552795, -1.2021484375, 0.2783203125, -1.06396484375, 0, 
266, 2602926039, 86.33415985107422, -74.8840103149414, 24.474620819091797, 9.227855682373047, 2.6216890811920166, 0.2786949872970581, 1.8359770774841309, -3.254992961883545, 0.6540850400924683, -1.2060546875, 0.2802734375, -1.05859375, 0, 
267, 2602934372, 86.33290100097656, -74.88388061523438, 24.47569465637207, 9.270413398742676, 2.450648069381714, 0.3318977653980255, 1.8141791820526123, -3.3049402236938477, 0.5883333086967468, -1.205078125, 0.2783203125, -1.06103515625, 0, 
268, 2602942705, 86.33618927001953, -74.88377380371094, 24.47119140625, 9.629817962646484, 2.524749755859375, 0.2325640469789505, 1.8221197128295898, -3.4568331241607666, 0.6363087892532349, -1.20458984375, 0.2802734375, -1.0634765625, 0, 
269, 2602951038, 86.33372497558594, -74.8836669921875, 24.47283172607422, 9.887784004211426, 2.5544190406799316, -0.023457668721675873, 1.7475823163986206, -3.2860629558563232, 0.5857462882995605, -1.203125, 0.27880859375, -1.05615234375, 0, 
270, 2602959371, 86.32260131835938, -74.88292694091797, 24.48445701599121, 9.667304992675781, 2.645637273788452, 0.007225607521831989, 1.8255010843276978, -2.9860692024230957, 0.5794708728790283, -1.203125, 0.28076171875, -1.06298828125, 0, 
271, 2602967704, 86.31535339355469, -74.88338470458984, 24.492137908935547, 9.191854476928711, 2.775681734085083, 0.1966460943222046, 1.864075779914856, -3.1010000705718994, 0.6717076897621155, -1.205078125, 0.27978515625, -1.0556640625, 0, 
272, 2602976037, 86.31639862060547, -74.88304138183594, 24.49066734313965, 9.161031723022461, 2.549893379211426, 0.3410230278968811, 1.7875407934188843, -3.3925156593322754, 0.6059303283691406, -1.20166015625, 0.2783203125, -1.0537109375, 0, 
273, 2602984370, 86.32315826416016, -74.882568359375, 24.483482360839844, 9.571090698242188, 2.3696024417877197, 0.2555308938026428, 1.821376919746399, -3.558316707611084, 0.5312135219573975, -1.2021484375, 0.27587890625, -1.0498046875, 0, 
274, 2602992703, 86.3221435546875, -74.8819351196289, 24.483516693115234, 9.91650676727295, 2.613825798034668, 0.05727888643741608, 1.8527029752731323, -3.306912422180176, 0.5738868713378906, -1.20166015625, 0.27978515625, -1.04638671875, 0, 
275, 2603001036, 86.31951141357422, -74.8829116821289, 24.486053466796875, 9.72316837310791, 2.72887921333313, 0.026067053899168968, 1.829138159751892, -3.2655715942382812, 0.720349133014679, -1.2001953125, 0.27978515625, -1.052734375, 0, 
276, 2603009369, 86.3110122680664, -74.88272857666016, 24.48882484436035, 9.372431755065918, 2.638413190841675, 0.11161098629236221, 1.8444042205810547, -3.0710830688476562, 0.6362577080726624, -1.2041015625, 0.27880859375, -1.04443359375, 0, 
277, 2603017702, 86.31095886230469, -74.88227081298828, 24.488597869873047, 9.118141174316406, 2.6234424114227295, 0.3544846475124359, 1.8128985166549683, -3.3408257961273193, 0.5490410923957825, -1.19970703125, 0.27734375, -1.05126953125, 0, 
278, 2603026035, 86.31792449951172, -74.8814697265625, 24.482683181762695, 9.280339241027832, 2.516181707382202, 0.2542954683303833, 1.8671239614486694, -3.562670946121216, 0.5300097465515137, -1.19921875, 0.27880859375, -1.05029296875, 0, 
279, 2603034368, 86.32341003417969, -74.88175201416016, 24.476818084716797, 9.870177268981934, 2.399284601211548, 0.1483246088027954, 1.8187386989593506, -3.522533416748047, 0.6271133422851562, -1.20361328125, 0.2802734375, -1.04833984375, 0, 
280, 2603042701, 86.32038879394531, -74.88032531738281, 24.486696243286133, 9.825766563415527, 2.6410510540008545, 0.061327431350946426, 1.930314302444458, -3.2134463787078857, 0.4865167737007141, -1.203125, 0.27880859375, -1.0517578125, 0, 
281, 2603051034, 86.31364440917969, -74.8800048828125, 24.493518829345703, 9.466992378234863, 2.817837715148926, 0.06313621997833252, 1.8285233974456787, -3.1232588291168213, 0.5752700567245483, -1.203125, 0.28173828125, -1.0439453125, 0, 
282, 2603059367, 86.31214904785156, -74.87973022460938, 24.49550437927246, 9.244919776916504, 2.617211103439331, 0.28646236658096313, 1.8479130268096924, -3.295667886734009, 0.6103871464729309, -1.20263671875, 0.279296875, -1.0517578125, 0, 
283, 2603067700, 86.31175231933594, -74.88038635253906, 24.495153427124023, 9.168750762939453, 2.5168509483337402, 0.3124909996986389, 1.7615418434143066, -3.3535304069519043, 0.6783673167228699, -1.20068359375, 0.2783203125, -1.04833984375, 0, 
284, 2603076033, 86.32034301757812, -74.87898254394531, 24.483427047729492, 9.581530570983887, 2.454895496368408, 0.25326570868492126, 1.7556252479553223, -3.637439012527466, 0.4624394178390503, -1.20068359375, 0.27685546875, -1.05029296875, 0, 
285, 2603084366, 86.31566619873047, -74.87835693359375, 24.487960815429688, 9.906362533569336, 2.521230459213257, 0.0016246726736426353, 1.8026529550552368, -3.1922123432159424, 0.5385136604309082, -1.20068359375, 0.28076171875, -1.05078125, 0, 
286, 2603092699, 86.31084442138672, -74.87705993652344, 24.485897064208984, 9.653514862060547, 2.7179670333862305, 0.08681507408618927, 1.969964861869812, -3.146157741546631, 0.4979918599128723, -1.2001953125, 0.279296875, -1.046875, 0, 
287, 2603101032, 86.31201934814453, -74.87714385986328, 24.483642578125, 9.242773056030273, 2.7576487064361572, 0.21652695536613464, 1.7233768701553345, -3.4098565578460693, 0.6076720952987671, -1.201171875, 0.27880859375, -1.0517578125, 0, 
288, 2603109365, 86.31377410888672, -74.87701416015625, 24.47430419921875, 9.20864200592041, 2.5593345165252686, 0.33864933252334595, 1.7951222658157349, -3.4163880348205566, 0.6302125453948975, -1.20556640625, 0.279296875, -1.046875, 0, 
289, 2603117698, 86.32087707519531, -74.87683868408203, 24.467069625854492, 9.439569473266602, 2.4127955436706543, 0.279556542634964, 1.86020827293396, -3.563209056854248, 0.5651012063026428, -1.20263671875, 0.2783203125, -1.05078125, 0, 
290, 2603126031, 86.3216781616211, -74.87667083740234, 24.461647033691406, 9.815589904785156, 2.511998414993286, 0.09610117971897125, 1.9538025856018066, -3.342055559158325, 0.6231430768966675, -1.20068359375, 0.27880859375, -1.04736328125, 0, 
291, 2603134364, 86.31819915771484, -74.87635803222656, 24.465499877929688, 9.783886909484863, 2.6428754329681396, 0.04305747523903847, 1.877779483795166, -3.215418815612793, 0.5650243759155273, -1.19873046875, 0.27734375, -1.046875, 0, 
292, 2603142697, 86.31314849853516, -74.87633514404297, 24.47089195251465, 9.354866981506348, 2.7741281986236572, 0.08483268320560455, 1.8806226253509521, -3.1754353046417236, 0.6489109992980957, -1.20166015625, 0.27783203125, -1.052734375, 0, 
293, 2603151030, 86.31782531738281, -74.87638854980469, 24.46522331237793, 9.129803657531738, 2.605538845062256, 0.34025776386260986, 1.7498362064361572, -3.5147464275360107, 0.5966322422027588, -1.20361328125, 0.2783203125, -1.044921875, 0, 
294, 2603159363, 86.32316589355469, -74.87538146972656, 24.456832885742188, 9.31275463104248, 2.421976089477539, 0.28517913818359375, 1.7688933610916138, -3.5312681198120117, 0.5180222392082214, -1.19970703125, 0.279296875, -1.05224609375, 0, 
295, 2603167696, 86.32295227050781, -74.87351989746094, 24.45771598815918, 9.808734893798828, 2.4842770099639893, 0.17701023817062378, 1.9176093339920044, -3.295949935913086, 0.38052499294281006, -1.201171875, 0.2802734375, -1.05029296875, 0, 
296, 2603176029, 86.32389831542969, -74.8728256225586, 24.469743728637695, 9.823049545288086, 2.6454920768737793, -0.04801535606384277, 1.9004993438720703, -3.3587560653686523, 0.560234546661377, -1.19873046875, 0.2783203125, -1.05029296875, 0, 
297, 2603184362, 86.3173828125, -74.87329864501953, 24.4774227142334, 9.51486873626709, 2.661186933517456, 0.07714694738388062, 1.9481418132781982, -3.10284423828125, 0.6773684620857239, -1.203125, 0.28125, -1.0517578125, 0, 
298, 2603192695, 86.3189926147461, -74.87293243408203, 24.468481063842773, 9.126962661743164, 2.6863484382629395, 0.3167829215526581, 1.8610790967941284, -3.392618179321289, 0.5950698852539062, -1.20166015625, 0.2802734375, -1.046875, 0, 
299, 2603201028, 86.32595825195312, -74.8728256225586, 24.46157455444336, 9.1398286819458, 2.5910582542419434, 0.29646673798561096, 1.8732967376708984, -3.5535006523132324, 0.5778058171272278, -1.2001953125, 0.279296875, -1.05224609375, 0, 
300, 2603209361, 86.3360595703125, -74.87244415283203, 24.434911727905273, 9.677507400512695, 2.3881421089172363, 0.21658244729042053, 1.8439429998397827, -3.6745283603668213, 0.5684822797775269, -1.201171875, 0.2802734375, -1.0439453125, 0, 
301, 2603217694, 86.33649444580078, -74.87193298339844, 24.435169219970703, 9.91292953491211, 2.561048746109009, 0.05080456659197807, 1.9274710416793823, -3.327634572982788, 0.5393076539039612, -1.2021484375, 0.2802734375, -1.05224609375, 0, 
302, 2603226027, 86.33306121826172, -74.87191009521484, 24.445842742919922, 9.621630668640137, 2.7755343914031982, 0.02921505831182003, 1.8654847145080566, -3.2299675941467285, 0.652932345867157, -1.201171875, 0.279296875, -1.04736328125, 0, 
303, 2603234360, 86.33008575439453, -74.87258911132812, 24.448936462402344, 9.331460952758789, 2.701690912246704, 0.19602234661579132, 1.8491939306259155, -3.2470779418945312, 0.6896888613700867, -1.19921875, 0.2783203125, -1.04638671875, 0, 
304, 2603242693, 86.32853698730469, -74.87274169921875, 24.44780731201172, 9.239118576049805, 2.565699338912964, 0.33630090951919556, 1.8362587690353394, -3.298895835876465, 0.6641258597373962, -1.2021484375, 0.28076171875, -1.0517578125, 0, 
305, 2603251026, 86.33614349365234, -74.87257385253906, 24.439207077026367, 9.394892692565918, 2.4787631034851074, 0.28684765100479126, 1.758289098739624, -3.6049602031707764, 0.5685847401618958, -1.20263671875, 0.279296875, -1.044921875, 0, 
306, 2603259359, 86.3377456665039, -74.87105560302734, 24.42323112487793, 9.84572982788086, 2.4044079780578613, 0.05585002526640892, 1.8159723281860352, -3.3984837532043457, 0.4546014368534088, -1.20263671875, 0.2783203125, -1.0517578125, 0, 
307, 2603267692, 86.3370590209961, -74.87149047851562, 24.425548553466797, 9.808652877807617, 2.6673049926757812, 0.04510829970240593, 2.0309269428253174, -3.269105911254883, 0.6573123931884766, -1.20263671875, 0.2783203125, -1.0498046875, 0, 
308, 2603276025, 86.33174133300781, -74.87164306640625, 24.433759689331055, 9.374008178710938, 2.885997772216797, 0.1227954626083374, 1.8934810161590576, -3.1627557277679443, 0.6699146628379822, -1.19873046875, 0.27734375, -1.04833984375, 0, 
309, 2603284358, 86.33268737792969, -74.87311553955078, 24.432533264160156, 9.200389862060547, 2.6857388019561768, 0.3907231092453003, 1.8078014850616455, -3.3890576362609863, 0.7818232774734497, -1.20068359375, 0.27978515625, -1.0498046875, 0, 
310, 2603292691, 86.33954620361328, -74.87340545654297, 24.407142639160156, 9.366022109985352, 2.4125688076019287, 0.28979551792144775, 1.805034875869751, -3.5817790031433105, 0.6608215570449829, -1.20068359375, 0.27587890625, -1.04736328125, 0, 
311, 2603301024, 86.3436279296875, -74.87264251708984, 24.402563095092773, 9.780838966369629, 2.490786075592041, 0.15857596695423126, 1.8056238889694214, -3.475684642791748, 0.5009375214576721, -1.20068359375, 0.27783203125, -1.05126953125, 0, 
312, 2603309357, 86.3469009399414, -74.87267303466797, 24.393428802490234, 9.86523151397705, 2.6090707778930664, -0.014331012964248657, 1.9791862964630127, -3.4172844886779785, 0.6396386027336121, -1.203125, 0.27587890625, -1.044921875, 0, 
313, 2603317690, 86.34088897705078, -74.87346649169922, 24.399694442749023, 9.525750160217285, 2.7130939960479736, 0.0821065679192543, 1.8425854444503784, -3.1493852138519287, 0.7141760587692261, -1.19921875, 0.27880859375, -1.05029296875, 0, 
314, 2603326023, 86.34259796142578, -74.87354278564453, 24.383460998535156, 9.16018009185791, 2.7015607357025146, 0.3117731213569641, 1.7935086488723755, -3.4166698455810547, 0.6501148343086243, -1.20166015625, 0.2802734375, -1.048828125, 0, 
315, 2603334356, 86.34590148925781, -74.87471008300781, 24.37946128845215, 9.226264953613281, 2.4958298206329346, 0.26904240250587463, 1.7876430749893188, -3.471689224243164, 0.7252670526504517, -1.19873046875, 0.279296875, -1.04931640625, 0, 
316, 2603342689, 86.35416412353516, -74.87321472167969, 24.36913299560547, 9.648761749267578, 2.438760280609131, 0.22943709790706635, 1.9145103693008423, -3.583956480026245, 0.45160454511642456, -1.20166015625, 0.2802734375, -1.05322265625, 0, 
317, 2603351022, 86.35662841796875, -74.87342834472656, 24.367568969726562, 9.831955909729004, 2.5977976322174072, 0.03735806792974472, 1.9586693048477173, -3.390261650085449, 0.6226052045822144, -1.19970703125, 0.27734375, -1.0478515625, 0, 
318, 2603359355, 86.35157775878906, -74.87335205078125, 24.361650466918945, 9.636831283569336, 2.6714706420898438, 0.026658417657017708, 1.8085440397262573, -3.194286584854126, 0.6366416811943054, -1.19775390625, 0.27685546875, -1.05224609375, 0, 
319, 2603367688, 86.34317779541016, -74.8739242553711, 24.37030029296875, 9.31005573272705, 2.708895444869995, 0.14667123556137085, 1.833210825920105, -3.0733625888824463, 0.6901756525039673, -1.205078125, 0.2802734375, -1.0458984375, 0, 
320, 2603376021, 86.34505462646484, -74.87397766113281, 24.346939086914062, 9.137338638305664, 2.563633441925049, 0.35531753301620483, 1.742254614830017, -3.436187982559204, 0.6452738046646118, -1.1982421875, 0.2802734375, -1.048828125, 0, 
321, 2603384354, 86.3545913696289, -74.87496948242188, 24.337581634521484, 9.452375411987305, 2.351848602294922, 0.2652685046195984, 1.8972718715667725, -3.6393344402313232, 0.7033668756484985, -1.201171875, 0.279296875, -1.0546875, 0, 
322, 2603392687, 86.3514633178711, -74.87300109863281, 24.315690994262695, 9.908283233642578, 2.47094464302063, 0.040957193821668625, 1.8990904092788696, -3.2166733741760254, 0.412286639213562, -1.20263671875, 0.2783203125, -1.04345703125, 0, 
323, 2603401020, 86.34922790527344, -74.87308502197266, 24.318044662475586, 9.754735946655273, 2.709584951400757, -0.002322365529835224, 1.8566477298736572, -3.266160726547241, 0.6109250783920288, -1.20166015625, 0.279296875, -1.0615234375, 0, 
324, 2603409353, 86.34404754638672, -74.872802734375, 24.312875747680664, 9.383877754211426, 2.761104106903076, 0.14076200127601624, 1.8028322458267212, -3.1880881786346436, 0.6181482672691345, -1.2060546875, 0.27978515625, -1.06494140625, 0, 
325, 2603417686, 86.33802795410156, -74.87297058105469, 24.31789779663086, 9.15966510772705, 2.644049882888794, 0.3180433511734009, 1.705164909362793, -3.1819663047790527, 0.6327483654022217, -1.20703125, 0.279296875, -1.0693359375, 0, 
326, 2603426019, 86.34210205078125, -74.872802734375, 24.315288543701172, 9.259464263916016, 2.4096505641937256, 0.26511162519454956, 1.7635912895202637, -3.502528667449951, 0.6141780614852905, -1.20751953125, 0.2783203125, -1.06640625, 0, 
327, 2603434352, 86.34783172607422, -74.8717269897461, 24.30967903137207, 9.807551383972168, 2.376967430114746, 0.20297446846961975, 1.8836195468902588, -3.5050134658813477, 0.45934003591537476, -1.20458984375, 0.27978515625, -1.06396484375, 0, 
328, 2603442685, 86.34201049804688, -74.87079620361328, 24.31639289855957, 9.828583717346191, 2.661994218826294, -0.018793484196066856, 1.9154068231582642, -3.1320700645446777, 0.5480165481567383, -1.20703125, 0.279296875, -1.0693359375, 0, 
329, 2603451018, 86.33672332763672, -74.870849609375, 24.322851181030273, 9.480953216552734, 2.7839407920837402, 0.13629412651062012, 1.9662764072418213, -3.136885166168213, 0.6167907118797302, -1.2060546875, 0.27978515625, -1.06103515625, 0, 
330, 2603459351, 86.33673095703125, -74.87039184570312, 24.32350730895996, 9.245563507080078, 2.6737523078918457, 0.3387453556060791, 1.9022407531738281, -3.328556537628174, 0.5843374729156494, -1.20458984375, 0.2783203125, -1.0703125, 0, 
331, 2603467684, 86.33912658691406, -74.86945343017578, 24.32154655456543, 9.254992485046387, 2.483200788497925, 0.33479028940200806, 1.906646728515625, -3.3921315670013428, 0.4872339367866516, -1.20556640625, 0.27783203125, -1.06103515625, 0, 
332, 2603476017, 86.3448486328125, -74.86849975585938, 24.31453514099121, 9.615510940551758, 2.4687225818634033, 0.2670769691467285, 1.7125933170318604, -3.561800003051758, 0.5122334361076355, -1.20361328125, 0.2822265625, -1.06201171875, 0, 
333, 2603484350, 86.34259033203125, -74.86801147460938, 24.316871643066406, 9.892831802368164, 2.5735814571380615, 0.0038966110441833735, 1.851499319076538, -3.260115623474121, 0.546658992767334, -1.2060546875, 0.27880859375, -1.06396484375, 0, 
334, 2603492683, 86.33545684814453, -74.86844635009766, 24.324310302734375, 9.629018783569336, 2.6884748935699463, 0.024254249408841133, 1.8446604013442993, -3.118699312210083, 0.708438515663147, -1.20361328125, 0.27880859375, -1.05615234375, 0, 
335, 2603501016, 86.33031463623047, -74.86870574951172, 24.329814910888672, 9.178686141967773, 2.7688002586364746, 0.20957252383232117, 1.8651515245437622, -3.1679301261901855, 0.6395617723464966, -1.20556640625, 0.28076171875, -1.06787109375, 0, 
336, 2603509349, 86.33289337158203, -74.86918640136719, 24.32585906982422, 9.203593254089355, 2.5216948986053467, 0.406402051448822, 1.6867482662200928, -3.47775936126709, 0.6945554614067078, -1.2080078125, 0.27978515625, -1.05859375, 0, 
337, 2603517682, 86.34387969970703, -74.86798858642578, 24.314496994018555, 9.55675220489502, 2.4197189807891846, 0.2698836028575897, 1.8502955436706543, -3.6834161281585693, 0.43193280696868896, -1.2041015625, 0.27685546875, -1.0634765625, 0, 
338, 2603526015, 86.34004974365234, -74.86651611328125, 24.31859016418457, 9.878849029541016, 2.6364386081695557, 0.056397441774606705, 1.8482972383499146, -3.2125751972198486, 0.4788580536842346, -1.20361328125, 0.27978515625, -1.06103515625, 0, 
339, 2603534348, 86.33914947509766, -74.86688232421875, 24.31964874267578, 9.74658203125, 2.69417142868042, 0.04307519271969795, 1.8659201860427856, -3.306554079055786, 0.641892671585083, -1.205078125, 0.28076171875, -1.06005859375, 0, 
340, 2603542681, 86.33489990234375, -74.8666763305664, 24.324647903442383, 9.34183406829834, 2.654644012451172, 0.14808928966522217, 1.8926870822906494, -3.196336269378662, 0.6285476684570312, -1.20458984375, 0.2783203125, -1.06298828125, 0, 
341, 2603551014, 86.3314437866211, -74.86730194091797, 24.328445434570312, 9.068544387817383, 2.6559932231903076, 0.36632299423217773, 1.8704280853271484, -3.2241017818450928, 0.6845916509628296, -1.20556640625, 0.2802734375, -1.05712890625, 0, 
342, 2603559347, 86.33941650390625, -74.86661529541016, 24.32118797302246, 9.344976425170898, 2.4562289714813232, 0.25508224964141846, 1.9023946523666382, -3.5852627754211426, 0.5435083508491516, -1.20361328125, 0.27734375, -1.06298828125, 0, 
343, 2603567680, 86.34367370605469, -74.8663558959961, 24.316843032836914, 9.908180236816406, 2.419722080230713, 0.2145591527223587, 1.8553156852722168, -3.4740710258483887, 0.5596709251403809, -1.20654296875, 0.279296875, -1.05517578125, 0, 
344, 2603576013, 86.34233093261719, -74.86597442626953, 24.317819595336914, 9.820067405700684, 2.728731632232666, 0.053561415523290634, 1.9024713039398193, -3.285832166671753, 0.5966835021972656, -1.20263671875, 0.27783203125, -1.05908203125, 0, 
345, 2603584346, 86.33446502685547, -74.86683654785156, 24.32530403137207, 9.485000610351562, 2.8107545375823975, 0.13836735486984253, 1.7654610872268677, -3.1117324829101562, 0.720989465713501, -1.20458984375, 0.27880859375, -1.0634765625, 0, 
346, 2603592679, 86.3344955444336, -74.86788940429688, 24.323095321655273, 9.208407402038574, 2.580552339553833, 0.3010254204273224, 1.7440989017486572, -3.3832945823669434, 0.772346019744873, -1.20361328125, 0.28076171875, -1.05859375, 0, 
347, 2603601012, 86.3373031616211, -74.86882019042969, 24.319786071777344, 9.19576644897461, 2.5059964656829834, 0.3137657344341278, 1.8084417581558228, -3.4475862979888916, 0.6985770463943481, -1.20703125, 0.2802734375, -1.06494140625, 0, 
348, 2603609345, 86.35118103027344, -74.86762237548828, 24.305490493774414, 9.699817657470703, 2.4355580806732178, 0.26537951827049255, 1.85903000831604, -3.784900188446045, 0.47150686383247375, -1.2041015625, 0.2802734375, -1.06005859375, 0, 
349, 2603617678, 86.3531723022461, -74.8676986694336, 24.30433464050293, 9.931127548217773, 2.537222385406494, -0.03888126090168953, 1.9480392932891846, -3.376481294631958, 0.6113861203193665, -1.20263671875, 0.27978515625, -1.064453125, 0, 
350, 2603626011, 86.34786224365234, -74.86782836914062, 24.309640884399414, 9.578092575073242, 2.7190496921539307, 0.05470459535717964, 1.9876644611358643, -3.138012647628784, 0.6645869016647339, -1.20703125, 0.283203125, -1.05908203125, 0, 
351, 2603634344, 86.34695434570312, -74.86888885498047, 24.310665130615234, 9.208756446838379, 2.697256088256836, 0.2693246304988861, 1.8538044691085815, -3.3159804344177246, 0.7293397188186646, -1.205078125, 0.2802734375, -1.05908203125, 0, 
352, 2603642677, 86.35176086425781, -74.87028503417969, 24.30510902404785, 9.224052429199219, 2.555694818496704, 0.30278199911117554, 1.8616936206817627, -3.5088295936584473, 0.7991383671760559, -1.20654296875, 0.27978515625, -1.06689453125, 0, 
353, 2603651010, 86.36598205566406, -74.87100219726562, 24.291309356689453, 9.48208236694336, 2.478421688079834, 0.2545448839664459, 1.9552370309829712, -3.7746806144714355, 0.6588494181632996, -1.20263671875, 0.279296875, -1.05859375, 0, 
354, 2603659343, 86.36573028564453, -74.87059783935547, 24.29224395751953, 9.88349437713623, 2.5361788272857666, 0.11094747483730316, 1.923654556274414, -3.315800905227661, 0.5951723456382751, -1.205078125, 0.2783203125, -1.0634765625, 0, 
355, 2603667676, 86.36363983154297, -74.87046813964844, 24.294944763183594, 9.705801010131836, 2.6382534503936768, 0.020137222483754158, 1.9105654954910278, -3.25140643119812, 0.5910996198654175, -1.2060546875, 0.28076171875, -1.05810546875, 0, 
356, 2603676009, 86.36112213134766, -74.8704833984375, 24.297292709350586, 9.27980899810791, 2.7209701538085938, 0.07578229159116745, 1.8594908714294434, -3.263957977294922, 0.6439418792724609, -1.20361328125, 0.27978515625, -1.06298828125, 0, 
357, 2603684342, 86.36458587646484, -74.87057495117188, 24.293039321899414, 9.14888858795166, 2.514395236968994, 0.4003618061542511, 1.7652816772460938, -3.4720990657806396, 0.6023443341255188, -1.20654296875, 0.2802734375, -1.06494140625, 0, 
358, 2603692675, 86.37532806396484, -74.87013244628906, 24.281600952148438, 9.442887306213379, 2.382035732269287, 0.27970829606056213, 1.8957862854003906, -3.6808040142059326, 0.568815290927887, -1.20703125, 0.2783203125, -1.0576171875, 0, 
359, 2603701008, 86.37574768066406, -74.86913299560547, 24.281517028808594, 9.87210464477539, 2.5551140308380127, 0.10056978464126587, 1.890176773071289, -3.333449125289917, 0.4808560013771057, -1.20556640625, 0.279296875, -1.064453125, 0, 
360, 2603709341, 86.37522888183594, -74.8685302734375, 24.282485961914062, 9.820302963256836, 2.641951084136963, -0.0360972136259079, 1.8711711168289185, -3.3219995498657227, 0.5680468678474426, -1.2041015625, 0.27880859375, -1.05615234375, 0, 
361, 2603717674, 86.36595153808594, -74.86872863769531, 24.29193687438965, 9.416712760925293, 2.6334736347198486, 0.12360350042581558, 1.8253731727600098, -3.0452892780303955, 0.6445310711860657, -1.20556640625, 0.27978515625, -1.0615234375, 0, 
362, 2603726007, 86.36637115478516, -74.86903381347656, 24.29011344909668, 9.056299209594727, 2.674619197845459, 0.3219359219074249, 1.8036006689071655, -3.378171682357788, 0.667378842830658, -1.205078125, 0.28076171875, -1.05908203125, 0, 
363, 2603734340, 86.37367248535156, -74.86895751953125, 24.282718658447266, 9.25556755065918, 2.5411176681518555, 0.22401565313339233, 1.8611303567886353, -3.5685622692108154, 0.5771655440330505, -1.205078125, 0.2802734375, -1.05908203125, 0, 
364, 2603742673, 86.37852478027344, -74.86844635009766, 24.27981948852539, 9.809317588806152, 2.356261968612671, 0.17452551424503326, 1.8327237367630005, -3.5046544075012207, 0.5718889236450195, -1.20654296875, 0.27880859375, -1.06396484375, 0, 
365, 2603751006, 86.37490844726562, -74.86787414550781, 24.284286499023438, 9.864452362060547, 2.629399538040161, 0.0013987310230731964, 1.9240899085998535, -3.195772409439087, 0.5452502369880676, -1.205078125, 0.27880859375, -1.05810546875, 0, 
366, 2603759339, 86.36605072021484, -74.86790466308594, 24.292625427246094, 9.550960540771484, 2.752899646759033, 0.03680573031306267, 1.8082880973815918, -3.0711848735809326, 0.6559805274009705, -1.2041015625, 0.279296875, -1.060546875, 0, 
367, 2603767672, 86.36268615722656, -74.86872863769531, 24.29587745666504, 9.270892143249512, 2.629878520965576, 0.197146475315094, 1.8231444358825684, -3.2418525218963623, 0.7044426202774048, -1.2041015625, 0.2783203125, -1.05126953125, 0, 
368, 2603776005, 86.36170196533203, -74.8692398071289, 24.292499542236328, 9.211661338806152, 2.5594422817230225, 0.31024834513664246, 1.7133104801177979, -3.357757091522217, 0.7019324898719788, -1.20068359375, 0.279296875, -1.05029296875, 0, 
369, 2603784338, 86.3720474243164, -74.86871337890625, 24.281721115112305, 9.497770309448242, 2.458596706390381, 0.23199012875556946, 1.8321092128753662, -3.67142915725708, 0.5166134834289551, -1.20361328125, 0.27880859375, -1.0517578125, 0, 
370, 2603792671, 86.37197875976562, -74.86656188964844, 24.28229331970215, 9.859708786010742, 2.4382615089416504, 0.007567496504634619, 1.8348757028579712, -3.3320400714874268, 0.38065314292907715, -1.19970703125, 0.2783203125, -1.0517578125, 0, 
371, 2603801004, 86.36744689941406, -74.86552429199219, 24.287988662719727, 9.700899124145508, 2.6876165866851807, 0.04396888241171837, 1.9625626802444458, -3.151613712310791, 0.48800238966941833, -1.20068359375, 0.2783203125, -1.05078125, 0, 
372, 2603809337, 86.36494445800781, -74.86528778076172, 24.289691925048828, 9.306965827941895, 2.8957021236419678, 0.18434758484363556, 1.8443529605865479, -3.2657763957977295, 0.6109251379966736, -1.2021484375, 0.2783203125, -1.0458984375, 0, 
373, 2603817670, 86.36520385742188, -74.8666763305664, 24.288747787475586, 9.255988121032715, 2.634549140930176, 0.35215556621551514, 1.7736064195632935, -3.378094434738159, 0.7630991339683533, -1.20068359375, 0.27685546875, -1.05224609375, 0, 
374, 2603826003, 86.37073516845703, -74.8655014038086, 24.293554306030273, 9.459909439086914, 2.409538984298706, 0.2571561634540558, 1.8733223676681519, -3.5102384090423584, 0.49153706431388855, -1.20458984375, 0.27978515625, -1.05029296875, 0, 
375, 2603834336, 86.3698501586914, -74.86458587646484, 24.29397201538086, 9.795876502990723, 2.438899040222168, 0.12457580864429474, 1.7848254442214966, -3.3185675144195557, 0.49302273988723755, -1.19921875, 0.27685546875, -1.04443359375, 0, 
376, 2603842669, 86.36769104003906, -74.86460876464844, 24.293710708618164, 9.767387390136719, 2.6089048385620117, 0.015565157867968082, 1.9242178201675415, -3.256375551223755, 0.6458884477615356, -1.20361328125, 0.27880859375, -1.0517578125, 0, 
377, 2603851002, 86.36148071289062, -74.86475372314453, 24.301103591918945, 9.52161693572998, 2.7563700675964355, 0.15403231978416443, 1.9609229564666748, -3.106532335281372, 0.6291624307632446, -1.2001953125, 0.28076171875, -1.0478515625, 0, 
378, 2603859335, 86.36217498779297, -74.86408233642578, 24.28216552734375, 9.175078392028809, 2.7660880088806152, 0.3355608582496643, 1.8041383028030396, -3.3750975131988525, 0.5624884963035583, -1.203125, 0.28076171875, -1.05322265625, 0, 
379, 2603867668, 86.36429595947266, -74.86455535888672, 24.27834129333496, 9.32829761505127, 2.479395627975464, 0.18246906995773315, 1.6577789783477783, -3.461033582687378, 0.64875727891922, -1.20458984375, 0.27880859375, -1.0458984375, 0, 
380, 2603876001, 86.3656234741211, -74.86348724365234, 24.284652709960938, 9.76264476776123, 2.410720109939575, 0.19022433459758759, 1.7993230819702148, -3.3976898193359375, 0.5044979453086853, -1.19921875, 0.27734375, -1.048828125, 0, 
381, 2603884334, 86.363525390625, -74.86348724365234, 24.287111282348633, 9.793209075927734, 2.665214776992798, 0.027364511042833328, 1.8752946853637695, -3.2597827911376953, 0.6076976656913757, -1.2001953125, 0.27880859375, -1.0537109375, 0, 
382, 2603892667, 86.35785675048828, -74.86290740966797, 24.299455642700195, 9.553080558776855, 2.7315471172332764, 0.08110351860523224, 1.8856942653656006, -3.1517417430877686, 0.5753213167190552, -1.2001953125, 0.27783203125, -1.044921875, 0, 
383, 2603901000, 86.35711669921875, -74.86302947998047, 24.300153732299805, 9.27777099609375, 2.6686956882476807, 0.218727245926857, 1.830034613609314, -3.317645311355591, 0.618506908416748, -1.20263671875, 0.27880859375, -1.0537109375, 0, 
384, 2603909333, 86.35931396484375, -74.86314392089844, 24.304683685302734, 9.181352615356445, 2.5245957374572754, 0.3035195767879486, 1.818021535873413, -3.4268898963928223, 0.6493464708328247, -1.205078125, 0.283203125, -1.0458984375, 0, 
385, 2603917666, 86.36997985839844, -74.86192321777344, 24.293338775634766, 9.600627899169922, 2.4078457355499268, 0.240187406539917, 1.8120276927947998, -3.6848764419555664, 0.4303959608078003, -1.19873046875, 0.2763671875, -1.05322265625, 0, 
386, 2603925999, 86.36846923828125, -74.86050415039062, 24.272998809814453, 9.858818054199219, 2.5505800247192383, 0.038791000843048096, 1.8927894830703735, -3.2769699096679688, 0.4731205403804779, -1.205078125, 0.2783203125, -1.048828125, 0, 
387, 2603934332, 86.3656234741211, -74.8600845336914, 24.276853561401367, 9.642839431762695, 2.756375551223755, 0.06315255910158157, 1.9445042610168457, -3.2152135372161865, 0.5630264282226562, -1.201171875, 0.27880859375, -1.0478515625, 0, 
388, 2603942665, 86.36237335205078, -74.86006164550781, 24.249305725097656, 9.327251434326172, 2.8069465160369873, 0.15595418214797974, 1.8661251068115234, -3.239060878753662, 0.6330301761627197, -1.2001953125, 0.279296875, -1.0537109375, 0, 
389, 2603950998, 86.36454772949219, -74.86160278320312, 24.24606704711914, 9.160191535949707, 2.6506080627441406, 0.3807882070541382, 1.7295496463775635, -3.451504945755005, 0.7811316251754761, -1.203125, 0.27783203125, -1.046875, 0, 
390, 2603959331, 86.37417602539062, -74.86175537109375, 24.243919372558594, 9.312873840332031, 2.4005613327026367, 0.26700785756111145, 1.8058034181594849, -3.673196315765381, 0.6373333930969238, -1.201171875, 0.27880859375, -1.05224609375, 0, 
391, 2603967664, 86.37664794921875, -74.86082458496094, 24.241487503051758, 9.844401359558105, 2.392777681350708, 0.07626067847013474, 1.8658945560455322, -3.4056813716888428, 0.4842114746570587, -1.20263671875, 0.27978515625, -1.046875, 0, 
392, 2603975997, 86.37235260009766, -74.8600082397461, 24.246370315551758, 9.762685775756836, 2.679837465286255, 0.027628488838672638, 1.9859225749969482, -3.164267063140869, 0.5538309812545776, -1.2001953125, 0.2783203125, -1.0498046875, 0, 
393, 2603984330, 86.3675308227539, -74.8603744506836, 24.25063133239746, 9.429423332214355, 2.843493938446045, 0.15020185708999634, 1.769866704940796, -3.205941915512085, 0.6506015658378601, -1.20361328125, 0.27734375, -1.0517578125, 0, 
394, 2603992663, 86.36717987060547, -74.86119842529297, 24.27265739440918, 9.264874458312988, 2.677854299545288, 0.38464486598968506, 1.7206617593765259, -3.377685070037842, 0.7348979711532593, -1.20068359375, 0.27685546875, -1.05029296875, 0, 
395, 2604000996, 86.37079620361328, -74.86241149902344, 24.269031524658203, 9.251235961914062, 2.4430172443389893, 0.27469542622566223, 1.857288122177124, -3.461059331893921, 0.7396366000175476, -1.20166015625, 0.27734375, -1.05126953125, 0, 
396, 2604009329, 86.37483978271484, -74.86082458496094, 24.25066566467285, 9.680167198181152, 2.4188475608825684, 0.17769493162631989, 1.8445067405700684, -3.4683849811553955, 0.43895113468170166, -1.2001953125, 0.27734375, -1.04638671875, 0, 
397, 2604017662, 86.37318420410156, -74.8611831665039, 24.25347137451172, 9.863862991333008, 2.5953073501586914, 0.01797964982688427, 1.9736024141311646, -3.2530205249786377, 0.6472973227500916, -1.20068359375, 0.27734375, -1.0498046875, 0, 
398, 2604025995, 86.36785888671875, -74.86160278320312, 24.26202392578125, 9.5673828125, 2.785421848297119, 0.10015203058719635, 1.88400399684906, -3.1683402061462402, 0.7058514356613159, -1.20263671875, 0.279296875, -1.04736328125, 0, 
399, 2604034328, 86.36605072021484, -74.86309814453125, 24.26329231262207, 9.19652271270752, 2.732133626937866, 0.26044899225234985, 1.777653455734253, -3.3102171421051025, 0.7795947790145874, -1.2001953125, 0.27783203125, -1.048828125, 0, 
400, 2604042661, 86.36638641357422, -74.86354064941406, 24.2585391998291, 9.223417282104492, 2.4130091667175293, 0.31112635135650635, 1.75398588180542, -3.38864803314209, 0.6784185767173767, -1.20068359375, 0.279296875, -1.05078125, 0, 
401, 2604050994, 86.37541961669922, -74.86369323730469, 24.249958038330078, 9.617216110229492, 2.3750739097595215, 0.30148857831954956, 1.9302631616592407, -3.6083154678344727, 0.6087478995323181, -1.20166015625, 0.2763671875, -1.044921875, 0, 
402, 2604059327, 86.37586975097656, -74.8639144897461, 24.255128860473633, 9.860565185546875, 2.631964921951294, 0.028507301583886147, 1.8567243814468384, -3.360548734664917, 0.6630755662918091, -1.2021484375, 0.279296875, -1.0517578125, 0, 
403, 2604067660, 86.37265014648438, -74.86424255371094, 24.259233474731445, 9.70117473602295, 2.6384334564208984, 0.03008139133453369, 1.9322094917297363, -3.214188814163208, 0.6492183208465576, -1.2021484375, 0.2783203125, -1.0458984375, 0, 
404, 2604075993, 86.3678970336914, -74.86351013183594, 24.257278442382812, 9.282243728637695, 2.614842414855957, 0.14668917655944824, 1.8931224346160889, -3.175870418548584, 0.5579036474227905, -1.19873046875, 0.2763671875, -1.04736328125, 0, 
405, 2604084326, 86.37158203125, -74.86434936523438, 24.25247573852539, 9.065141677856445, 2.574988842010498, 0.35633236169815063, 1.7283717393875122, -3.4950239658355713, 0.6906365752220154, -1.20068359375, 0.27734375, -1.0498046875, 0, 
406, 2604092659, 86.38561248779297, -74.86370849609375, 24.2359619140625, 9.470029830932617, 2.342576026916504, 0.22808000445365906, 1.815742015838623, -3.8054685592651367, 0.5350045561790466, -1.201171875, 0.27978515625, -1.04248046875, 0, 
407, 2604100992, 86.3857650756836, -74.86200714111328, 24.236793518066406, 9.904863357543945, 2.4424121379852295, 0.045830387622117996, 1.9585667848587036, -3.2995102405548096, 0.3997357189655304, -1.201171875, 0.27685546875, -1.0517578125, 0, 
408, 2604109325, 86.38426971435547, -74.86144256591797, 24.231918334960938, 9.764758110046387, 2.787034273147583, 0.024779627099633217, 1.8768573999404907, -3.2885987758636475, 0.5723500847816467, -1.20263671875, 0.2783203125, -1.0439453125, 0, 
409, 2604117658, 86.38026428222656, -74.86178588867188, 24.23567008972168, 9.342912673950195, 2.792491912841797, 0.1052701324224472, 1.7947636842727661, -3.2253570556640625, 0.6485524773597717, -1.20068359375, 0.27734375, -1.0517578125, 0, 
410, 2604125991, 86.38027954101562, -74.86106872558594, 24.233322143554688, 9.158899307250977, 2.5623223781585693, 0.3878598213195801, 1.741665244102478, -3.369513511657715, 0.5468382239341736, -1.20068359375, 0.27880859375, -1.0478515625, 0, 
411, 2604134324, 86.38699340820312, -74.8608169555664, 24.22612953186035, 9.250661849975586, 2.4017655849456787, 0.3077904284000397, 1.8199679851531982, -3.560237169265747, 0.5551884174346924, -1.20263671875, 0.27734375, -1.04638671875, 0, 
412, 2604142657, 86.39104461669922, -74.8598403930664, 24.189163208007812, 9.811208724975586, 2.4468424320220947, 0.12610019743442535, 1.8053934574127197, -3.4855716228485107, 0.5098769068717957, -1.203125, 0.27880859375, -1.052734375, 0, 
413, 2604150990, 86.3916015625, -74.85879516601562, 24.189165115356445, 9.880145072937012, 2.629899263381958, -0.055784448981285095, 1.9066723585128784, -3.330349922180176, 0.4745549261569977, -1.201171875, 0.28076171875, -1.0439453125, 0, 
414, 2604159323, 86.38664245605469, -74.85870361328125, 24.19721794128418, 9.485807418823242, 2.789100408554077, 0.16449859738349915, 1.8420475721359253, -3.1882166862487793, 0.6368722915649414, -1.201171875, 0.27880859375, -1.0517578125, 0, 
415, 2604167656, 86.3861083984375, -74.857421875, 24.19715690612793, 9.18917465209961, 2.7202935218811035, 0.32841113209724426, 1.7782682180404663, -3.3295814990997314, 0.44386905431747437, -1.20361328125, 0.28076171875, -1.0478515625, 0, 
416, 2604175989, 86.39128112792969, -74.8567886352539, 24.194908142089844, 9.269917488098145, 2.502621650695801, 0.30662307143211365, 1.814537763595581, -3.5187933444976807, 0.5530881285667419, -1.20166015625, 0.2763671875, -1.0478515625, 0, 
417, 2604184322, 86.39759063720703, -74.85587310791016, 24.188533782958984, 9.659003257751465, 2.475584030151367, 0.2086436003446579, 1.8616679906845093, -3.531088352203369, 0.4802924394607544, -1.2001953125, 0.2783203125, -1.05078125, 0, 
418, 2604192655, 86.39473724365234, -74.8555908203125, 24.209060668945312, 9.860893249511719, 2.5947823524475098, 0.03109816089272499, 1.9083117246627808, -3.2406229972839355, 0.6020112633705139, -1.19921875, 0.2763671875, -1.04638671875, 0, 
419, 2604200988, 86.38565063476562, -74.85526275634766, 24.218721389770508, 9.621047019958496, 2.699528217315674, 0.08688805252313614, 1.8744239807128906, -3.0330708026885986, 0.581161379814148, -1.19970703125, 0.27880859375, -1.0615234375, 0, 
420, 2604209321, 86.38357543945312, -74.85553741455078, 24.220813751220703, 9.193403244018555, 2.7560019493103027, 0.16445568203926086, 1.8000656366348267, -3.2928504943847656, 0.6803395748138428, -1.20361328125, 0.283203125, -1.064453125, 0, 
421, 2604217654, 86.38523864746094, -74.85623931884766, 24.21796989440918, 9.249167442321777, 2.5504868030548096, 0.34662777185440063, 1.7229671478271484, -3.4308090209960938, 0.6699402928352356, -1.20556640625, 0.2802734375, -1.0712890625, 0, 
422, 2604225987, 86.39352416992188, -74.85443115234375, 24.209373474121094, 9.600156784057617, 2.438288450241089, 0.22287648916244507, 1.8873848915100098, -3.593229055404663, 0.4088543951511383, -1.20947265625, 0.27978515625, -1.06787109375, 0, 
423, 2604234320, 86.39351654052734, -74.85404205322266, 24.20928192138672, 9.849204063415527, 2.640521764755249, 0.03809099271893501, 1.8376163244247437, -3.336010694503784, 0.5503218173980713, -1.2041015625, 0.2822265625, -1.0625, 0, 
424, 2604242653, 86.39388275146484, -74.85407257080078, 24.209917068481445, 9.718707084655762, 2.705899715423584, -0.02132081240415573, 1.9615635871887207, -3.333116054534912, 0.6390239000320435, -1.20703125, 0.27978515625, -1.06591796875, 0, 
425, 2604250986, 86.38900756835938, -74.85464477539062, 24.2152156829834, 9.322138786315918, 2.684548854827881, 0.13439270853996277, 1.8723748922348022, -3.1759471893310547, 0.6828754544258118, -1.2080078125, 0.28076171875, -1.0595703125, 0, 
426, 2604259319, 86.3923110961914, -74.85503387451172, 24.212379455566406, 9.090868949890137, 2.6629250049591064, 0.3258560597896576, 1.8931479454040527, -3.443641185760498, 0.6790077090263367, -1.20556640625, 0.27880859375, -1.06591796875, 0, 
427, 2604267652, 86.40055847167969, -74.85548400878906, 24.20343780517578, 9.398879051208496, 2.4747772216796875, 0.18390126526355743, 1.8014235496520996, -3.6205592155456543, 0.6359758377075195, -1.20654296875, 0.2783203125, -1.0625, 0, 
428, 2604275985, 86.4039535522461, -74.85432434082031, 24.199464797973633, 9.947927474975586, 2.424618721008301, 0.11307806521654129, 1.8002451658248901, -3.4646453857421875, 0.4851592183113098, -1.20654296875, 0.2783203125, -1.0615234375, 0, 
429, 2604284318, 86.40403747558594, -74.85553741455078, 24.199874877929688, 9.844852447509766, 2.7471768856048584, -0.028987567871809006, 1.9038804769515991, -3.333705425262451, 0.7467573881149292, -1.20654296875, 0.279296875, -1.0634765625, 0, 
430, 2604292651, 86.399169921875, -74.8567886352539, 24.20515251159668, 9.512511253356934, 2.756807565689087, 0.08412818610668182, 1.866099238395691, -3.1955418586730957, 0.7939130663871765, -1.20361328125, 0.27880859375, -1.05908203125, 0, 
431, 2604300984, 86.3973159790039, -74.85799407958984, 24.20659065246582, 9.22616195678711, 2.5920231342315674, 0.3042033910751343, 1.7939441204071045, -3.3036856651306152, 0.7484478950500488, -1.20654296875, 0.28076171875, -1.06396484375, 0, 
432, 2604309317, 86.40060424804688, -74.85812377929688, 24.20342254638672, 9.185342788696289, 2.5106630325317383, 0.29290857911109924, 1.8799822330474854, -3.443948984146118, 0.6499868035316467, -1.20654296875, 0.2802734375, -1.05859375, 0, 
433, 2604317650, 86.40894317626953, -74.85737609863281, 24.19546127319336, 9.705289840698242, 2.4182279109954834, 0.22565020620822906, 1.9202989339828491, -3.582188844680786, 0.49481573700904846, -1.20166015625, 0.27880859375, -1.0634765625, 0, 
434, 2604325983, 86.40838623046875, -74.8561019897461, 24.19479751586914, 9.930127143859863, 2.552729845046997, 0.013648772612214088, 1.7928171157836914, -3.3348069190979004, 0.4785763621330261, -1.2099609375, 0.2802734375, -1.06201171875, 0, 
435, 2604334316, 86.40348052978516, -74.8563461303711, 24.200542449951172, 9.558476448059082, 2.7974064350128174, 0.04063935950398445, 1.926087498664856, -3.162320137023926, 0.6433013677597046, -1.20361328125, 0.27685546875, -1.06103515625, 0, 
436, 2604342649, 86.40062713623047, -74.8567886352539, 24.2044620513916, 9.261344909667969, 2.7842533588409424, 0.25155922770500183, 1.9127172231674194, -3.240751266479492, 0.6931979656219482, -1.20458984375, 0.28076171875, -1.06591796875, 0, 
437, 2604350982, 86.40006256103516, -74.85781860351562, 24.20408821105957, 9.230772018432617, 2.489856719970703, 0.37969356775283813, 1.727270245552063, -3.3581669330596924, 0.7306716442108154, -1.20458984375, 0.27978515625, -1.05810546875, 0, 
438, 2604359315, 86.40512084960938, -74.85762786865234, 24.198909759521484, 9.498086929321289, 2.4104056358337402, 0.23371466994285583, 1.9116158485412598, -3.4928977489471436, 0.5969396829605103, -1.203125, 0.279296875, -1.06591796875, 0, 
439, 2604367648, 86.40010070800781, -74.8567123413086, 24.204132080078125, 9.81873893737793, 2.483727216720581, 0.03159189596772194, 1.851396918296814, -3.1679301261901855, 0.501424252986908, -1.20361328125, 0.2783203125, -1.060546875, 0, 
440, 2604375981, 86.39582061767578, -74.85621643066406, 24.20841407775879, 9.7124662399292, 2.585721492767334, 0.028127698227763176, 1.8645368814468384, -3.2028167247772217, 0.5788561105728149, -1.20166015625, 0.2802734375, -1.0595703125, 0, 
441, 2604384314, 86.39024353027344, -74.85702514648438, 24.214588165283203, 9.297408103942871, 2.785928249359131, 0.15042486786842346, 1.888358473777771, -3.1511526107788086, 0.7082592248916626, -1.20654296875, 0.27978515625, -1.06494140625, 0, 
442, 2604392647, 86.3890380859375, -74.8570785522461, 24.215478897094727, 9.1535005569458, 2.677807092666626, 0.41997048258781433, 1.7314454317092896, -3.3405954837799072, 0.6482962965965271, -1.2041015625, 0.2783203125, -1.05859375, 0, 
443, 2604400980, 86.39322662353516, -74.85762786865234, 24.210834503173828, 9.420598983764648, 2.308558702468872, 0.2670869827270508, 1.8105677366256714, -3.4866223335266113, 0.6599507331848145, -1.2041015625, 0.27880859375, -1.06494140625, 0, 
444, 2604409313, 86.3919448852539, -74.85710144042969, 24.211618423461914, 9.765398979187012, 2.4487037658691406, 0.07475735992193222, 1.9117437601089478, -3.287215232849121, 0.571171760559082, -1.20556640625, 0.2783203125, -1.05810546875, 0, 
445, 2604417646, 86.38920593261719, -74.85608673095703, 24.214492797851562, 9.720272064208984, 2.6774301528930664, 0.037510406225919724, 1.847887635231018, -3.2395987510681152, 0.48195746541023254, -1.20556640625, 0.27783203125, -1.068359375, 0, 
446, 2604425979, 86.38575744628906, -74.85546112060547, 24.218542098999023, 9.447593688964844, 2.708379030227661, 0.13484223186969757, 1.948218584060669, -3.2068893909454346, 0.571607232093811, -1.20458984375, 0.27783203125, -1.0625, 0, 
447, 2604434312, 86.38188934326172, -74.85537719726562, 24.222518920898438, 9.121744155883789, 2.6612868309020996, 0.3139047920703888, 1.838384747505188, -3.212319850921631, 0.6014734506607056, -1.20263671875, 0.2802734375, -1.05908203125, 0, 
448, 2604442645, 86.38223266601562, -74.85517120361328, 24.21764373779297, 9.259183883666992, 2.4557812213897705, 0.28480368852615356, 1.779497742652893, -3.376532554626465, 0.605085015296936, -1.205078125, 0.2783203125, -1.06201171875, 0, 
449, 2604450978, 86.3876724243164, -74.8548583984375, 24.211395263671875, 9.767592430114746, 2.3629395961761475, 0.23561102151870728, 1.775886058807373, -3.5322158336639404, 0.5490923523902893, -1.20458984375, 0.2783203125, -1.0625, 0, 
450, 2604459311, 86.38439178466797, -74.85388946533203, 24.2144832611084, 9.818300247192383, 2.659639596939087, -0.020839812234044075, 1.9695038795471191, -3.2016894817352295, 0.5278580784797668, -1.203125, 0.27783203125, -1.064453125, 0, 
451, 2604467644, 86.37970733642578, -74.85354614257812, 24.22001838684082, 9.556485176086426, 2.8265380859375, 0.14772704243659973, 1.9279834032058716, -3.1621670722961426, 0.5703521370887756, -1.2060546875, 0.27734375, -1.0595703125, 0, 
452, 2604475977, 86.37784576416016, -74.85404205322266, 24.2227840423584, 9.256596565246582, 2.733905792236328, 0.3113790452480316, 1.82094144821167, -3.2993311882019043, 0.694222629070282, -1.20361328125, 0.27880859375, -1.06103515625, 0, 
453, 2604484310, 86.37733459472656, -74.85493469238281, 24.22303581237793, 9.250642776489258, 2.5588748455047607, 0.3108628988265991, 1.8073660135269165, -3.338981866836548, 0.7147396206855774, -1.2080078125, 0.279296875, -1.0634765625, 0, 
454, 2604492643, 86.38509368896484, -74.85501098632812, 24.21409034729004, 9.609376907348633, 2.3699283599853516, 0.21702682971954346, 1.7484787702560425, -3.6276800632476807, 0.6256276965141296, -1.203125, 0.2783203125, -1.0576171875, 0, 
455, 2604500976, 86.38667297363281, -74.8552017211914, 24.21271324157715, 9.873894691467285, 2.4455296993255615, 0.06472530961036682, 1.8806993961334229, -3.383909225463867, 0.6178153157234192, -1.205078125, 0.2802734375, -1.06591796875, 0, 
456, 2604509309, 86.38452911376953, -74.85425567626953, 24.216249465942383, 9.696379661560059, 2.7294673919677734, 0.056627459824085236, 1.9604363441467285, -3.2401106357574463, 0.5296511054039001, -1.205078125, 0.28369140625, -1.06103515625, 0, 
457, 2604517642, 86.38367462158203, -74.85462188720703, 24.21725845336914, 9.400339126586914, 2.8380777835845947, 0.23275412619113922, 1.8610275983810425, -3.3089616298675537, 0.6414828300476074, -1.2021484375, 0.28271484375, -1.064453125, 0, 
458, 2604525975, 86.38775634765625, -74.85454559326172, 24.21219825744629, 9.286117553710938, 2.6002490520477295, 0.41223523020744324, 1.7189712524414062, -3.515822649002075, 0.611591100692749, -1.20361328125, 0.28076171875, -1.06298828125, 0, 
459, 2604534308, 86.39771270751953, -74.85411834716797, 24.201248168945312, 9.484048843383789, 2.414182662963867, 0.21328124403953552, 1.7679200172424316, -3.6785755157470703, 0.53141850233078, -1.2041015625, 0.27783203125, -1.05810546875, 0, 
460, 2604542641, 86.3999252319336, -74.85211181640625, 24.20354652404785, 9.841123580932617, 2.4473252296447754, 0.10542885214090347, 1.9417638778686523, -3.3820395469665527, 0.39246129989624023, -1.20654296875, 0.27880859375, -1.06494140625, 0, 
461, 2604550974, 86.40068054199219, -74.85187530517578, 24.203792572021484, 9.73276424407959, 2.640172243118286, 0.05242304503917694, 1.9684027433395386, -3.328505754470825, 0.567150354385376, -1.20458984375, 0.2802734375, -1.05810546875, 0, 
462, 2604559307, 86.40015411376953, -74.85098266601562, 24.20489501953125, 9.405252456665039, 2.8061540126800537, 0.1250898838043213, 1.8827743530273438, -3.317312240600586, 0.5298304557800293, -1.20166015625, 0.27783203125, -1.06298828125, 0, 
463, 2604567640, 86.4064712524414, -74.8515853881836, 24.19792938232422, 9.186369895935059, 2.671269655227661, 0.33776742219924927, 1.7946100234985352, -3.5616207122802734, 0.6599251627922058, -1.2060546875, 0.2783203125, -1.0595703125, 0, 
464, 2604575973, 86.41053009033203, -74.85136413574219, 24.19280433654785, 9.378190040588379, 2.3814432621002197, 0.2375037968158722, 1.8045481443405151, -3.490387201309204, 0.5997316241264343, -1.20263671875, 0.27783203125, -1.05029296875, 0, 
465, 2604584306, 86.41426086425781, -74.85072326660156, 24.189138412475586, 9.762738227844238, 2.428391218185425, 0.11587349325418472, 1.8726054430007935, -3.447816848754883, 0.5163829326629639, -1.20166015625, 0.279296875, -1.05322265625, 0, 
466, 2604592639, 86.41236114501953, -74.84918212890625, 24.20003890991211, 9.749899864196777, 2.598034381866455, -0.01437253225594759, 1.9241667985916138, -3.2547879219055176, 0.45506247878074646, -1.20068359375, 0.2763671875, -1.04736328125, 0, 
467, 2604600972, 86.4122543334961, -74.84832000732422, 24.20216941833496, 9.557382583618164, 2.6814775466918945, 0.09694267809391022, 2.0805931091308594, -3.2652385234832764, 0.49678805470466614, -1.20068359375, 0.27685546875, -1.05126953125, 0, 
468, 2604609305, 86.40827178955078, -74.8473892211914, 24.21119499206543, 9.190457344055176, 2.766650676727295, 0.27403146028518677, 1.8897669315338135, -3.20184326171875, 0.535772979259491, -1.205078125, 0.27734375, -1.05029296875, 0, 
469, 2604617638, 86.41048431396484, -74.84810638427734, 24.20770835876465, 9.207180976867676, 2.5965898036956787, 0.27915260195732117, 1.7054725885391235, -3.451838254928589, 0.6793151497840881, -1.20166015625, 0.2783203125, -1.05029296875, 0, 
470, 2604625971, 86.41962432861328, -74.84782409667969, 24.203445434570312, 9.608626365661621, 2.291902780532837, 0.14564034342765808, 1.9019336700439453, -3.630676746368408, 0.5743735432624817, -1.20068359375, 0.27880859375, -1.05126953125, 0, 
471, 2604634304, 86.41162872314453, -74.84693145751953, 24.212181091308594, 9.769608497619629, 2.4837076663970947, 0.02741662971675396, 1.8938910961151123, -3.0588135719299316, 0.5163061618804932, -1.203125, 0.27783203125, -1.0458984375, 0, 
472, 2604642637, 86.41140747070312, -74.8465576171875, 24.22026824951172, 9.568414688110352, 2.797816753387451, 0.10822641849517822, 1.9136908054351807, -3.3222556114196777, 0.5847986340522766, -1.201171875, 0.2802734375, -1.05224609375, 0, 
473, 2604650970, 86.40705871582031, -74.84712219238281, 24.224681854248047, 9.352777481079102, 2.805310010910034, 0.1925494372844696, 1.8283697366714478, -3.205249786376953, 0.681236207485199, -1.20263671875, 0.28076171875, -1.04541015625, 0, 
474, 2604659303, 86.40585327148438, -74.84835052490234, 24.224271774291992, 9.2553071975708, 2.5433337688446045, 0.29147371649742126, 1.7899227142333984, -3.333449363708496, 0.7828478217124939, -1.20068359375, 0.27880859375, -1.05322265625, 0, 
475, 2604667636, 86.41121673583984, -74.84857177734375, 24.21858024597168, 9.349164962768555, 2.3857035636901855, 0.1845044195652008, 1.8329545259475708, -3.51784610748291, 0.6167395114898682, -1.20166015625, 0.27734375, -1.046875, 0, 
476, 2604675969, 86.41163635253906, -74.84761810302734, 24.2236328125, 9.778061866760254, 2.410944938659668, 0.0646391212940216, 1.910719394683838, -3.338366985321045, 0.5138726830482483, -1.20166015625, 0.27587890625, -1.046875, 0, 
477, 2604684302, 86.40359497070312, -74.84741973876953, 24.232318878173828, 9.723416328430176, 2.6316397190093994, 0.04706362262368202, 1.8900995254516602, -3.0640125274658203, 0.5922009944915771, -1.203125, 0.27783203125, -1.05224609375, 0, 
478, 2604692635, 86.39488220214844, -74.84651947021484, 24.256877899169922, 9.342596054077148, 2.7994866371154785, 0.17661334574222565, 1.7616190910339355, -3.0834290981292725, 0.5398200154304504, -1.2001953125, 0.2783203125, -1.0498046875, 0, 
479, 2604700968, 86.39412689208984, -74.84705352783203, 24.256410598754883, 9.176198959350586, 2.6496310234069824, 0.3202488124370575, 1.697224497795105, -3.357628583908081, 0.6655089855194092, -1.2021484375, 0.27685546875, -1.05322265625, 0, 
480, 2604709301, 86.39705657958984, -74.84797668457031, 24.233556747436523, 9.348784446716309, 2.4173972606658936, 0.22498883306980133, 1.8155624866485596, -3.4605982303619385, 0.7312864065170288, -1.20166015625, 0.27734375, -1.04638671875, 0, 
481, 2604717634, 86.39808654785156, -74.84758758544922, 24.232378005981445, 9.764753341674805, 2.4456520080566406, 0.2161388099193573, 1.8272169828414917, -3.3736379146575928, 0.5579292178153992, -1.2021484375, 0.2802734375, -1.05126953125, 0, 
482, 2604725967, 86.3961181640625, -74.84683227539062, 24.227802276611328, 9.797815322875977, 2.608509063720703, 0.0406896248459816, 1.9424042701721191, -3.2528154850006104, 0.543482780456543, -1.203125, 0.27880859375, -1.05029296875, 0, 
483, 2604734300, 86.386962890625, -74.84770965576172, 24.236976623535156, 9.518434524536133, 2.7649238109588623, 0.07119643688201904, 1.8072125911712646, -3.056790351867676, 0.72503662109375, -1.2021484375, 0.2763671875, -1.04541015625, 0, 
484, 2604742633, 86.38519287109375, -74.84774780273438, 24.249961853027344, 9.225628852844238, 2.7286765575408936, 0.3093891143798828, 1.7701996564865112, -3.3124709129333496, 0.6420463919639587, -1.20263671875, 0.27734375, -1.05078125, 0, 
485, 2604750966, 86.38996887207031, -74.84938049316406, 24.244871139526367, 9.295347213745117, 2.4945552349090576, 0.32465705275535583, 1.8298038244247437, -3.510417938232422, 0.786766767501831, -1.201171875, 0.27880859375, -1.04833984375, 0, 
486, 2604759299, 86.39175415039062, -74.84889221191406, 24.248014450073242, 9.693352699279785, 2.4090182781219482, 0.2404351532459259, 1.8270632028579712, -3.4089088439941406, 0.5717865824699402, -1.20166015625, 0.28076171875, -1.0556640625, 0, 
487, 2604767632, 86.38954162597656, -74.84770202636719, 24.250747680664062, 9.83517837524414, 2.5564966201782227, 0.01872183009982109, 1.8976562023162842, -3.244286060333252, 0.4625674784183502, -1.20166015625, 0.28125, -1.046875, 0, 
488, 2604775965, 86.38470458984375, -74.84748077392578, 24.26296043395996, 9.641268730163574, 2.710618257522583, 0.07988958060741425, 1.942762851715088, -3.1639599800109863, 0.616150438785553, -1.20068359375, 0.27978515625, -1.052734375, 0, 
489, 2604784298, 86.37870788574219, -74.8470458984375, 24.269107818603516, 9.282476425170898, 2.7999205589294434, 0.2320605367422104, 1.8361819982528687, -3.143263578414917, 0.5609004497528076, -1.20361328125, 0.2802734375, -1.05224609375, 0, 
490, 2604792631, 86.3757553100586, -74.84774780273438, 24.27733039855957, 9.230732917785645, 2.6324069499969482, 0.3249965310096741, 1.6875938177108765, -3.3022255897521973, 0.7114353179931641, -1.19970703125, 0.279296875, -1.044921875, 0, 
491, 2604800964, 86.38290405273438, -74.84815216064453, 24.268598556518555, 9.571991920471191, 2.3145875930786133, 0.1964716762304306, 1.6932801008224487, -3.6147449016571045, 0.6323642134666443, -1.19970703125, 0.2783203125, -1.05224609375, 0, 
492, 2604809297, 86.37533569335938, -74.84687805175781, 24.26617431640625, 9.847240447998047, 2.445915460586548, 0.057172276079654694, 1.8654592037200928, -3.0917022228240967, 0.49222880601882935, -1.2021484375, 0.27978515625, -1.04638671875, 0, 
493, 2604817630, 86.37319946289062, -74.8456039428711, 24.26836585998535, 9.708148956298828, 2.74757719039917, 0.1352100968360901, 1.8363100290298462, -3.2600388526916504, 0.45306459069252014, -1.19970703125, 0.27880859375, -1.05078125, 0, 
494, 2604825963, 86.36842346191406, -74.8443374633789, 24.2672176361084, 9.44410228729248, 2.785996198654175, 0.1431620717048645, 1.8018590211868286, -3.195747137069702, 0.49712106585502625, -1.2021484375, 0.279296875, -1.05126953125, 0, 
