DeviceID;Timestamp;Temperature;GyroX;GyroY;GyroZ;AccelX;AccelY;AccelZ;Dist1;Dist2;Dist3;Err1;Err2;Err3
2.0;1753877889.72002;18.304688;0.91;-1.75;-0.35;-0.382348;-0.950014;-0.00854;0.0;0.0;116.0;0.0;0.0;2.0
2.0;1753877889.724691;18.304688;0.84;-1.61;-0.35;-0.377224;-0.94977;-0.01098;0.0;0.0;116.0;0.0;0.0;2.0
2.0;1753877889.729296;18.298163;1.25;-1.85;-3.07;-0.361704;-0.956642;-0.002276;-2.3;0.0;116.6;0.0;0.0;2.2
2.0;1753877889.733902;18.2966;1.15;-1.93;0.34;-0.415033;-0.940389;0.016242;1.9;0.0;118.3;-0.2;0.0;2.0
2.0;1753877889.739052;18.292969;0.91;-1.68;-0.35;-0.380884;-0.949404;-0.009882;0.0;0.0;118.0;0.0;0.0;2.0
2.0;1753877889.742915;18.292969;0.91;-1.68;-0.28;-0.378078;-0.949526;-0.008784;0.0;0.0;118.0;0.0;0.0;2.0
2.0;1753877889.747888;18.292969;0.84;-1.61;-0.21;-0.380762;-0.950502;-0.010858;0.0;0.0;118.0;0.0;0.0;2.0
2.0;1753877889.753101;18.292969;0.91;-1.68;-0.28;-0.378444;-0.950746;-0.009882;0.0;0.0;118.0;0.0;0.0;2.0
2.0;1753877889.75711;18.300781;0.98;-1.61;-0.35;-0.380274;-0.94916;-0.010614;0.0;0.0;118.0;0.0;0.0;2.0
2.0;1753877889.761233;18.300781;0.91;-1.68;-0.35;-0.379176;-0.949282;-0.009882;0.0;0.0;118.0;0.0;0.0;2.0
2.0;1753877889.766136;18.300781;0.84;-1.75;-0.28;-0.37881;-0.94977;-0.010248;0.0;0.0;118.0;0.0;0.0;2.0
2.0;1753877889.770363;18.300781;0.84;-1.68;-0.28;-0.380518;-0.950624;-0.010858;0.0;0.0;118.0;0.0;0.0;2.0
2.0;1753877889.774953;18.285156;0.84;-1.68;-0.28;-0.377102;-0.950136;-0.010004;0.0;0.0;118.0;0.0;0.0;2.0
2.0;1753877889.779558;18.284337;0.61;-2.68;1.38;-0.415578;-0.934182;-0.000527;-0.7;0.0;116.1;0.1;0.0;2.0
2.0;1753877889.784164;18.283529;1.48;-1.49;-0.35;-0.346488;-1.051976;-0.012341;0.2;0.0;118.9;-0.0;0.0;1.9
2.0;1753877889.788942;18.285156;0.84;-1.68;-0.28;-0.378688;-0.94977;-0.009272;0.0;0.0;117.0;0.0;0.0;2.0
2.0;1753877889.793233;18.300781;0.91;-1.68;-0.28;-0.381616;-0.94977;-0.00976;0.0;0.0;117.0;0.0;0.0;2.0
2.0;1753877889.798007;18.300781;0.84;-1.61;-0.35;-0.377956;-0.951356;-0.011834;0.0;0.0;117.0;0.0;0.0;2.0
2.0;1753877889.803925;18.300781;0.98;-1.75;-0.35;-0.381982;-0.94855;-0.010614;0.0;0.0;117.0;0.0;0.0;2.0
2.0;1753877889.806924;18.300781;0.91;-1.61;-0.28;-0.377834;-0.949404;-0.011834;0.0;0.0;117.0;0.0;0.0;2.0
2.0;1753877889.811501;18.285156;0.84;-1.68;-0.28;-0.381372;-0.950014;-0.009882;0.0;0.0;117.0;0.0;0.0;2.0
2.0;1753877889.816122;18.285156;0.91;-1.61;-0.35;-0.378566;-0.94977;-0.009516;0.0;0.0;117.0;0.0;0.0;2.0
2.0;1753877889.820703;18.285156;0.91;-1.61;-0.35;-0.379298;-0.94977;-0.00915;0.0;0.0;117.0;0.0;0.0;2.0
2.0;1753877889.825438;18.285156;0.98;-1.61;-0.35;-0.379542;-0.95099;-0.009272;0.0;0.0;117.0;0.0;0.0;2.0
2.0;1753877889.830043;18.305409;0.87;-1.6;-0.33;-0.381184;-0.951624;-0.009345;0.0;0.0;118.7;0.0;0.0;2.0
2.0;1753877889.836341;18.300781;0.84;-1.75;-0.35;-0.380884;-0.94977;-0.009516;0.0;0.0;121.0;0.0;0.0;2.0
2.0;1753877889.838949;18.300781;0.84;-1.68;-0.35;-0.37942;-0.949648;-0.01037;0.0;0.0;121.0;0.0;0.0;2.0
2.0;1753877889.844266;18.300781;0.84;-1.68;-0.35;-0.381738;-0.94977;-0.010492;0.0;0.0;121.0;0.0;0.0;2.0
2.0;1753877889.848229;18.292969;0.84;-1.61;-0.28;-0.377834;-0.949892;-0.009028;0.0;0.0;121.0;0.0;0.0;2.0
2.0;1753877889.853224;18.292969;0.84;-1.75;-0.42;-0.380152;-0.950014;-0.010126;0.0;0.0;121.0;0.0;0.0;2.0
2.0;1753877889.857184;18.292969;0.84;-1.61;-0.28;-0.380152;-0.950014;-0.010126;0.0;0.0;121.0;0.0;0.0;2.0
2.0;1753877889.86185;18.292969;0.84;-1.61;-0.35;-0.381494;-0.950258;-0.010614;0.0;0.0;121.0;0.0;0.0;2.0
2.0;1753877889.866439;18.300781;0.91;-1.68;-0.28;-0.377468;-0.949648;-0.00915;0.0;0.0;121.0;0.0;0.0;2.0
2.0;1753877889.87101;18.300781;0.91;-1.68;-0.28;-0.37942;-0.948794;-0.010858;0.0;0.0;121.0;0.0;0.0;2.0
2.0;1753877889.875616;18.306384;0.83;-1.71;-0.26;-0.380678;-0.949621;-0.009277;0.0;0.0;116.8;0.0;0.0;2.0
2.0;1753877889.880221;18.293873;0.83;-1.67;-0.23;-0.379362;-0.951229;-0.011855;0.0;0.0;118.8;0.0;0.0;2.0
2.0;1753877889.884961;18.304688;0.84;-1.68;-0.21;-0.378566;-0.950624;-0.009272;0.0;0.0;116.0;0.0;0.0;2.0
2.0;1753877889.890143;18.304688;0.98;-1.68;-0.28;-0.379542;-0.949892;-0.00915;0.0;0.0;116.0;0.0;0.0;2.0
2.0;1753877889.894198;18.304688;0.91;-1.68;-0.21;-0.379054;-0.949282;-0.008906;0.0;0.0;116.0;0.0;0.0;2.0
2.0;1753877889.898467;18.304688;0.91;-1.68;-0.35;-0.380274;-0.95038;-0.008662;0.0;0.0;116.0;0.0;0.0;2.0
2.0;1753877889.903119;18.3125;0.98;-1.68;-0.35;-0.377712;-0.949648;-0.00976;0.0;0.0;116.0;0.0;0.0;2.0
2.0;1753877889.907624;18.3125;0.91;-1.68;-0.35;-0.381372;-0.950014;-0.009394;0.0;0.0;116.0;0.0;0.0;2.0
2.0;1753877889.912179;18.3125;0.91;-1.61;-0.35;-0.377712;-0.949526;-0.009516;0.0;0.0;116.0;0.0;0.0;2.0
2.0;1753877889.916763;18.3125;0.91;-1.61;-0.28;-0.379298;-0.95038;-0.010736;0.0;0.0;116.0;0.0;0.0;2.0
2.0;1753877889.921328;18.296875;0.84;-1.68;-0.28;-0.380152;-0.949282;-0.009638;0.0;0.0;116.0;0.0;0.0;2.0
2.0;1753877889.925933;18.293276;0.84;-1.7;-0.28;-0.382948;-0.950036;-0.010023;0.0;0.0;116.0;0.0;0.0;2.0
2.0;1753877889.933616;18.296875;0.91;-1.68;-0.35;-0.381616;-0.950258;-0.009394;0.0;0.0;115.0;0.0;0.0;2.0
2.0;1753877889.935002;18.296875;0.91;-1.68;-0.28;-0.3782;-0.950502;-0.01037;0.0;0.0;115.0;0.0;0.0;2.0
2.0;1753877889.939635;18.3125;0.84;-1.68;-0.21;-0.380884;-0.950136;-0.00976;0.0;0.0;115.0;0.0;0.0;2.0
2.0;1753877889.9442;18.3125;0.84;-1.68;-0.28;-0.377956;-0.950258;-0.010004;0.0;0.0;115.0;0.0;0.0;2.0
2.0;1753877889.948797;18.3125;0.84;-1.68;-0.35;-0.380396;-0.95099;-0.008052;0.0;0.0;115.0;0.0;0.0;2.0
2.0;1753877889.953317;18.3125;0.84;-1.61;-0.35;-0.378322;-0.949404;-0.010126;0.0;0.0;115.0;0.0;0.0;2.0
2.0;1753877889.957999;18.304688;0.91;-1.68;-0.35;-0.378932;-0.949648;-0.010736;0.0;0.0;115.0;0.0;0.0;2.0
2.0;1753877889.962717;18.304688;0.84;-1.61;-0.28;-0.379054;-0.950258;-0.010004;0.0;0.0;115.0;0.0;0.0;2.0
2.0;1753877889.967067;18.304688;0.91;-1.61;-0.28;-0.379664;-0.949404;-0.009394;0.0;0.0;115.0;0.0;0.0;2.0
2.0;1753877889.972437;18.304688;0.91;-1.54;-0.35;-0.380518;-0.94855;-0.008784;0.0;0.0;115.0;0.0;0.0;2.0
2.0;1753877889.977042;18.308039;0.86;-1.6;-0.32;-0.381272;-0.947759;-0.009183;0.0;0.0;115.0;0.0;0.0;2.0
2.0;1753877889.983425;18.3125;0.84;-1.61;-0.28;-0.379298;-0.950136;-0.009882;0.0;0.0;116.0;0.0;0.0;2.0
2.0;1753877889.9857;18.3125;0.77;-1.68;-0.28;-0.379298;-0.950136;-0.009882;0.0;0.0;116.0;0.0;0.0;2.0
2.0;1753877889.989945;18.3125;0.98;-1.68;-0.35;-0.37942;-0.949892;-0.010736;0.0;0.0;116.0;0.0;0.0;2.0
2.0;1753877889.994592;18.285156;0.91;-1.61;-0.35;-0.37942;-0.94916;-0.010614;0.0;0.0;116.0;0.0;0.0;2.0
2.0;1753877889.999087;18.285156;0.91;-1.68;-0.35;-0.3782;-0.948672;-0.01037;0.0;0.0;116.0;0.0;0.0;2.0
2.0;1753877890.003693;18.26617;0.97;-1.66;-0.41;-0.37935;-0.948397;-0.010931;0.0;0.0;115.9;0.0;0.0;2.0
2.0;1753877890.008298;18.287169;0.9;-1.7;-0.38;-0.376617;-0.948174;-0.011098;0.0;0.0;116.4;0.0;0.0;2.0
2.0;1753877890.012903;18.27616;0.95;-1.66;-0.3;-0.378048;-0.94736;-0.00961;0.0;0.0;116.5;0.0;0.0;2.0
2.0;1753877890.017508;18.290936;0.86;-1.73;-0.34;-0.378385;-0.949539;-0.010612;0.0;0.0;115.8;0.0;0.0;2.0
2.0;1753877890.022114;18.295748;0.88;-1.66;-0.45;-0.376928;-0.949103;-0.009937;0.0;0.0;115.6;0.0;0.0;2.0
2.0;1753877890.026719;18.295899;0.93;-1.57;-0.28;-0.377791;-0.948928;-0.009364;0.0;0.0;116.2;0.0;0.0;2.0
2.0;1753877890.031324;18.306481;0.92;-1.71;-0.4;-0.37743;-0.948598;-0.009243;0.0;0.0;115.1;0.0;0.0;2.0
2.0;1753877890.03593;18.272024;0.91;-1.71;-0.31;-0.377057;-0.948385;-0.010492;0.0;0.0;115.8;0.0;0.0;2.0
2.0;1753877890.040535;18.29048;0.88;-1.72;-0.41;-0.378476;-0.948156;-0.010554;0.0;0.0;115.1;0.0;0.0;2.0
2.0;1753877890.04514;18.279213;0.9;-1.62;-0.35;-0.381069;-0.948774;-0.009483;0.0;0.0;115.8;0.0;0.0;2.0
2.0;1753877890.049746;18.297973;0.92;-1.75;-0.31;-0.377693;-0.949177;-0.010501;0.0;0.0;116.0;0.0;0.0;2.0
2.0;1753877890.054351;18.273493;0.93;-1.7;-0.31;-0.379105;-0.948996;-0.010168;0.0;0.0;116.5;0.0;0.0;2.0
2.0;1753877890.058956;18.266459;0.84;-1.7;-0.44;-0.378721;-0.948587;-0.01033;0.0;0.0;115.9;0.0;0.0;2.0
2.0;1753877890.063562;18.296777;0.89;-1.6;-0.41;-0.377707;-0.947923;-0.009602;0.0;0.0;116.1;0.0;0.0;2.0
2.0;1753877890.068167;18.284927;0.88;-1.66;-0.39;-0.379217;-0.948536;-0.009619;0.0;0.0;116.6;0.0;0.0;2.0
2.0;1753877890.072772;18.275794;0.9;-1.68;-0.32;-0.378567;-0.948705;-0.011101;0.0;0.0;115.5;0.0;0.0;2.0
2.0;1753877890.077377;18.297607;0.89;-1.68;-0.37;-0.376923;-0.948555;-0.01065;0.0;0.0;115.9;0.0;0.0;2.0
2.0;1753877890.081982;18.280361;0.94;-1.69;-0.39;-0.37735;-0.948116;-0.00941;0.0;0.0;115.9;0.0;0.0;2.0
2.0;1753877890.086588;18.296391;0.9;-1.72;-0.32;-0.377959;-0.948347;-0.009974;0.0;0.0;116.2;0.0;0.0;2.0
2.0;1753877890.091193;18.279476;0.86;-1.7;-0.39;-0.379233;-0.948271;-0.009695;0.0;0.0;115.7;0.0;0.0;2.0
2.0;1753877890.095798;18.289952;0.83;-1.63;-0.33;-0.377825;-0.948884;-0.009897;0.0;0.0;115.9;0.0;0.0;2.0
2.0;1753877890.100404;18.261174;0.97;-1.68;-0.4;-0.377242;-0.948409;-0.010247;0.0;0.0;115.7;0.0;0.0;2.0
2.0;1753877890.105009;18.279819;0.87;-1.67;-0.37;-0.377342;-0.94849;-0.010345;0.0;0.0;115.4;0.0;0.0;2.0
2.0;1753877890.109614;18.288769;0.87;-1.7;-0.26;-0.377262;-0.948743;-0.012141;0.0;0.0;116.0;0.0;0.0;2.0
2.0;1753877890.11422;18.291678;1.01;-1.74;-0.3;-0.378439;-0.948606;-0.009936;0.0;0.0;115.9;0.0;0.0;2.0
2.0;1753877890.118825;18.275328;0.86;-1.66;-0.33;-0.376787;-0.948803;-0.009834;0.0;0.0;116.1;0.0;0.0;2.0
2.0;1753877890.12343;18.284157;0.92;-1.7;-0.34;-0.377734;-0.948404;-0.009942;0.0;0.0;116.1;0.0;0.0;2.0
2.0;1753877890.128036;18.282562;0.88;-1.72;-0.35;-0.380517;-0.94837;-0.010973;0.0;0.0;115.1;0.0;0.0;2.0
2.0;1753877890.132641;18.27744;0.86;-1.68;-0.36;-0.379032;-0.94916;-0.010041;0.0;0.0;116.8;0.0;0.0;2.0
2.0;1753877890.137246;18.257522;0.89;-1.7;-0.4;-0.380199;-0.948886;-0.010303;0.0;0.0;115.8;0.0;0.0;2.0
2.0;1753877890.141852;18.287529;0.76;-1.57;-0.35;-0.377337;-0.949172;-0.009875;0.0;0.0;116.0;0.0;0.0;2.0
2.0;1753877890.146457;18.280682;0.89;-1.72;-0.36;-0.378561;-0.948564;-0.010205;0.0;0.0;115.9;0.0;0.0;2.0
2.0;1753877890.151062;18.29436;0.95;-1.69;-0.33;-0.379753;-0.948638;-0.008986;0.0;0.0;115.5;0.0;0.0;2.0
2.0;1753877890.155667;18.265812;0.93;-1.68;-0.44;-0.380952;-0.949037;-0.011456;0.0;0.0;116.4;0.0;0.0;2.0
2.0;1753877890.160272;18.291998;0.79;-1.64;-0.38;-0.378789;-0.948522;-0.008938;0.0;0.0;115.8;0.0;0.0;2.0
2.0;1753877890.164878;18.276467;0.92;-1.67;-0.35;-0.376277;-0.949017;-0.009333;0.0;0.0;115.7;0.0;0.0;2.0
2.0;1753877890.169483;18.276342;0.98;-1.7;-0.32;-0.377084;-0.949135;-0.010572;0.0;0.0;116.3;0.0;0.0;2.0
2.0;1753877890.174088;18.293266;0.92;-1.72;-0.42;-0.378495;-0.948397;-0.010298;0.0;0.0;116.7;0.0;0.0;2.0
2.0;1753877890.178694;18.286559;0.92;-1.61;-0.34;-0.379167;-0.948396;-0.010154;0.0;0.0;116.4;0.0;0.0;2.0
2.0;1753877890.183299;18.279887;0.9;-1.71;-0.34;-0.37813;-0.949655;-0.008474;0.0;0.0;116.7;0.0;0.0;2.0
2.0;1753877890.187904;18.287226;0.89;-1.69;-0.36;-0.380282;-0.949017;-0.009763;0.0;0.0;115.4;0.0;0.0;2.0
2.0;1753877890.19251;18.291531;0.9;-1.72;-0.3;-0.378629;-0.948658;-0.009447;0.0;0.0;115.9;0.0;0.0;2.0
2.0;1753877890.197115;18.286204;0.89;-1.61;-0.36;-0.379046;-0.948438;-0.008827;0.0;0.0;116.6;0.0;0.0;2.0
2.0;1753877890.20172;18.289579;0.91;-1.7;-0.32;-0.378791;-0.949832;-0.009967;0.0;0.0;115.5;0.0;0.0;2.0
2.0;1753877890.206326;18.277539;0.86;-1.71;-0.34;-0.377864;-0.949451;-0.011188;0.0;0.0;116.0;0.0;0.0;2.0
2.0;1753877890.210931;18.275889;0.88;-1.63;-0.3;-0.378013;-0.948125;-0.009448;0.0;0.0;115.6;0.0;0.0;2.0
2.0;1753877890.215536;18.28279;0.87;-1.68;-0.41;-0.379012;-0.949873;-0.010179;0.0;0.0;116.5;0.0;0.0;2.0
2.0;1753877890.220142;18.285885;0.82;-1.67;-0.31;-0.379978;-0.949017;-0.00987;0.0;0.0;115.8;0.0;0.0;2.0
2.0;1753877890.224747;18.290085;0.83;-1.6;-0.31;-0.377804;-0.949507;-0.009855;0.0;0.0;116.2;0.0;0.0;2.0
2.0;1753877890.229352;18.268733;0.87;-1.68;-0.35;-0.378407;-0.94948;-0.009618;0.0;0.0;116.5;0.0;0.0;2.0
2.0;1753877890.233957;18.279592;0.82;-1.66;-0.35;-0.378917;-0.949427;-0.010869;0.0;0.0;115.6;0.0;0.0;2.0
2.0;1753877890.238562;18.278659;0.93;-1.7;-0.42;-0.379707;-0.949518;-0.010748;0.0;0.0;115.7;0.0;0.0;2.0
2.0;1753877890.243168;18.294661;0.84;-1.66;-0.35;-0.377904;-0.948651;-0.009504;0.0;0.0;116.1;0.0;0.0;2.0
2.0;1753877890.247773;18.299841;0.84;-1.68;-0.4;-0.380317;-0.949691;-0.009937;0.0;0.0;116.0;0.0;0.0;2.0
2.0;1753877890.252378;18.295597;0.9;-1.64;-0.29;-0.379871;-0.950074;-0.009963;0.0;0.0;116.5;0.0;0.0;2.0
2.0;1753877890.256984;18.27873;0.94;-1.74;-0.3;-0.380007;-0.948004;-0.009432;0.0;0.0;116.3;0.0;0.0;2.0
2.0;1753877890.261589;18.294107;0.78;-1.63;-0.38;-0.379124;-0.949883;-0.010822;0.0;0.0;116.4;0.0;0.0;2.0
2.0;1753877890.266194;18.295847;0.86;-1.66;-0.31;-0.380827;-0.950109;-0.009765;0.0;0.0;115.9;0.0;0.0;2.0
2.0;1753877890.2708;18.274534;0.89;-1.65;-0.29;-0.380129;-0.949801;-0.008936;0.0;0.0;115.7;0.0;0.0;2.0
2.0;1753877890.275405;18.271365;0.86;-1.63;-0.37;-0.378348;-0.949306;-0.010211;0.0;0.0;116.2;0.0;0.0;2.0
2.0;1753877890.28001;18.278788;0.81;-1.7;-0.33;-0.37931;-0.949556;-0.009152;0.0;0.0;116.2;0.0;0.0;2.0
2.0;1753877890.284616;18.277912;0.85;-1.64;-0.36;-0.379299;-0.950355;-0.008861;0.0;0.0;115.4;0.0;0.0;2.0
2.0;1753877890.289221;18.286988;0.88;-1.65;-0.35;-0.378311;-0.949537;-0.009288;0.0;0.0;116.0;0.0;0.0;2.0
2.0;1753877890.293826;18.278328;0.82;-1.65;-0.35;-0.379959;-0.94971;-0.010024;0.0;0.0;116.1;0.0;0.0;2.0
2.0;1753877890.298432;18.275569;0.88;-1.69;-0.28;-0.37826;-0.948963;-0.00907;0.0;0.0;116.1;0.0;0.0;2.0
2.0;1753877890.303037;18.290624;0.82;-1.67;-0.43;-0.378535;-0.950085;-0.009678;0.0;0.0;116.9;0.0;0.0;2.0
2.0;1753877890.307642;18.288328;0.88;-1.62;-0.27;-0.3793;-0.949751;-0.009098;0.0;0.0;115.4;0.0;0.0;2.0
2.0;1753877890.312247;18.29326;0.89;-1.71;-0.39;-0.378945;-0.948315;-0.01087;0.0;0.0;115.1;0.0;0.0;2.0
2.0;1753877890.316852;18.294442;0.84;-1.73;-0.27;-0.379552;-0.949609;-0.00936;0.0;0.0;115.2;0.0;0.0;2.0
2.0;1753877890.321458;18.278022;0.82;-1.7;-0.31;-0.379164;-0.949524;-0.010036;0.0;0.0;117.1;0.0;0.0;2.0
2.0;1753877890.326063;18.285686;0.89;-1.7;-0.4;-0.377178;-0.948982;-0.010737;0.0;0.0;116.1;0.0;0.0;2.0
2.0;1753877890.330668;18.29066;0.75;-1.7;-0.37;-0.380189;-0.948818;-0.009999;0.0;0.0;116.3;0.0;0.0;2.0
2.0;1753877890.335274;18.295198;0.83;-1.63;-0.32;-0.378629;-0.948762;-0.009191;0.0;0.0;116.8;0.0;0.0;2.0
2.0;1753877890.339879;18.283322;0.88;-1.76;-0.35;-0.379942;-0.94951;-0.009041;0.0;0.0;115.1;0.0;0.0;2.0
2.0;1753877890.344484;18.275967;0.91;-1.63;-0.38;-0.379247;-0.94925;-0.009364;0.0;0.0;116.1;0.0;0.0;2.0
2.0;1753877890.34909;18.290396;0.79;-1.71;-0.31;-0.376154;-0.949666;-0.010291;0.0;0.0;116.4;0.0;0.0;2.0
2.0;1753877890.353695;18.274649;0.88;-1.57;-0.28;-0.378561;-0.949379;-0.010152;0.0;0.0;116.6;0.0;0.0;2.0
2.0;1753877890.3583;18.289863;0.82;-1.69;-0.39;-0.378478;-0.948857;-0.010327;0.0;0.0;116.0;0.0;0.0;2.0
2.0;1753877890.362906;18.273776;0.84;-1.7;-0.36;-0.376285;-0.949847;-0.0088;0.0;0.0;117.4;0.0;0.0;2.0
2.0;1753877890.367511;18.290316;0.79;-1.64;-0.32;-0.380351;-0.949333;-0.010301;0.0;0.0;116.2;0.0;0.0;2.0
2.0;1753877890.372116;18.283299;0.75;-1.6;-0.44;-0.378372;-0.948662;-0.008994;0.0;0.0;115.9;0.0;0.0;2.0
2.0;1753877890.376722;18.288221;0.76;-1.68;-0.33;-0.378974;-0.948691;-0.009844;0.0;0.0;115.4;0.0;0.0;2.0
2.0;1753877890.381327;18.294108;0.79;-1.69;-0.35;-0.377968;-0.949815;-0.008908;0.0;0.0;116.7;0.0;0.0;2.0
2.0;1753877890.3897;18.285156;0.84;-1.68;-0.35;-0.379176;-0.949404;-0.009516;0.0;0.0;116.0;0.0;0.0;2.0
2.0;1753877890.394305;18.283661;0.8;-1.81;-0.36;-0.380677;-0.949997;-0.009828;0.0;0.0;116.2;0.0;0.0;2.0
2.0;1753877890.39891;18.273211;0.88;-1.65;-0.38;-0.378607;-0.949207;-0.010448;0.0;0.0;116.3;0.0;0.0;2.0
2.0;1753877890.403516;18.286462;0.82;-1.67;-0.34;-0.37876;-0.948538;-0.009421;0.0;0.0;116.1;0.0;0.0;2.0
2.0;1753877890.408121;18.283429;0.85;-1.7;-0.34;-0.37849;-0.949327;-0.009565;0.0;0.0;115.8;0.0;0.0;2.0
2.0;1753877890.412726;18.292417;0.79;-1.67;-0.37;-0.379808;-0.949633;-0.008766;0.0;0.0;116.2;0.0;0.0;2.0
2.0;1753877890.417332;18.286282;0.81;-1.69;-0.29;-0.380177;-0.949676;-0.009316;0.0;0.0;116.4;0.0;0.0;2.0
2.0;1753877890.421937;18.284248;0.91;-1.68;-0.35;-0.377706;-0.950009;-0.008739;0.0;0.0;116.5;0.0;0.0;2.0
2.0;1753877890.426542;18.303308;0.84;-1.69;-0.35;-0.379411;-0.949801;-0.009479;0.0;0.0;115.1;0.0;0.0;2.0
2.0;1753877890.431148;18.306787;0.85;-1.75;-0.39;-0.380231;-0.949588;-0.009268;0.0;0.0;115.8;0.0;0.0;2.0
2.0;1753877890.435753;18.296978;0.89;-1.66;-0.32;-0.378904;-0.949167;-0.010015;0.0;0.0;115.8;0.0;0.0;2.0
2.0;1753877890.440358;18.280812;0.93;-1.73;-0.29;-0.379923;-0.948403;-0.009345;0.0;0.0;116.1;0.0;0.0;2.0
2.0;1753877890.444964;18.273257;0.82;-1.64;-0.36;-0.378932;-0.947692;-0.009537;0.0;0.0;117.4;0.0;0.0;2.0
2.0;1753877890.449569;18.282891;0.78;-1.64;-0.38;-0.378253;-0.950137;-0.00965;0.0;0.0;115.6;0.0;0.0;2.0
2.0;1753877890.454174;18.291541;0.82;-1.68;-0.4;-0.377988;-0.949644;-0.008728;0.0;0.0;116.4;0.0;0.0;2.0
2.0;1753877890.458779;18.282453;0.86;-1.71;-0.31;-0.380098;-0.949092;-0.009198;0.0;0.0;115.9;0.0;0.0;2.0
2.0;1753877890.463385;18.283413;0.8;-1.68;-0.29;-0.379469;-0.950294;-0.008905;0.0;0.0;115.8;0.0;0.0;2.0
2.0;1753877890.46799;18.272681;0.85;-1.75;-0.35;-0.379995;-0.949982;-0.009042;0.0;0.0;115.6;0.0;0.0;2.0
2.0;1753877890.472595;18.288979;0.84;-1.71;-0.38;-0.380161;-0.949554;-0.009091;0.0;0.0;117.0;0.0;0.0;2.0
2.0;1753877890.4772;18.297494;0.89;-1.64;-0.35;-0.380556;-0.949682;-0.009887;0.0;0.0;116.4;0.0;0.0;2.0
2.0;1753877890.481806;18.299435;0.84;-1.69;-0.41;-0.379319;-0.949304;-0.008489;0.0;0.0;116.4;0.0;0.0;2.0
2.0;1753877890.486411;18.290089;0.82;-1.7;-0.29;-0.380356;-0.950125;-0.009151;0.0;0.0;116.7;0.0;0.0;2.0
2.0;1753877890.491016;18.284378;0.84;-1.7;-0.29;-0.378033;-0.949205;-0.010357;0.0;0.0;116.2;0.0;0.0;2.0
2.0;1753877890.495622;18.277452;0.82;-1.68;-0.32;-0.379412;-0.949252;-0.010584;0.0;0.0;115.4;0.0;0.0;2.0
2.0;1753877890.500227;18.301554;0.73;-1.6;-0.37;-0.380853;-0.950684;-0.009575;0.0;0.0;116.4;0.0;0.0;2.0
2.0;1753877890.504832;18.309631;0.79;-1.59;-0.28;-0.376933;-0.950148;-0.008262;0.0;0.0;116.3;0.0;0.0;2.0
2.0;1753877890.509438;18.295197;0.87;-1.63;-0.29;-0.380657;-0.949652;-0.00943;0.0;0.0;115.9;0.0;0.0;2.0
2.0;1753877890.514043;18.266622;0.89;-1.61;-0.39;-0.379187;-0.949486;-0.010783;0.0;0.0;115.2;0.0;0.0;2.0
2.0;1753877890.518648;18.288891;0.88;-1.67;-0.39;-0.37936;-0.949401;-0.009115;0.0;0.0;115.9;0.0;0.0;2.0
2.0;1753877890.523254;18.288409;0.76;-1.72;-0.39;-0.377987;-0.948706;-0.010452;0.0;0.0;115.5;0.0;0.0;2.0
2.0;1753877890.527859;18.284676;0.79;-1.69;-0.32;-0.378371;-0.949578;-0.010474;0.0;0.0;116.6;0.0;0.0;2.0
2.0;1753877890.532464;18.299292;0.87;-1.72;-0.3;-0.377827;-0.949126;-0.008109;0.0;0.0;115.6;0.0;0.0;2.0
2.0;1753877890.537069;18.289217;0.84;-1.63;-0.32;-0.379216;-0.949131;-0.008499;0.0;0.0;115.7;0.0;0.0;2.0
2.0;1753877890.541674;18.300053;0.84;-1.69;-0.38;-0.379116;-0.949079;-0.008904;0.0;0.0;115.4;0.0;0.0;2.0
2.0;1753877890.54628;18.276712;0.86;-1.68;-0.4;-0.377732;-0.950397;-0.009671;0.0;0.0;115.7;0.0;0.0;2.0
2.0;1753877890.550885;18.291929;0.9;-1.6;-0.29;-0.381025;-0.949719;-0.009554;0.0;0.0;115.6;0.0;0.0;2.0
2.0;1753877890.55549;18.294833;0.76;-1.68;-0.38;-0.377753;-0.949539;-0.010612;0.0;0.0;116.6;0.0;0.0;2.0
2.0;1753877890.560096;18.287227;0.95;-1.66;-0.33;-0.380672;-0.94938;-0.0088;0.0;0.0;115.4;0.0;0.0;2.0
2.0;1753877890.564701;18.290126;0.89;-1.68;-0.33;-0.377628;-0.949445;-0.009286;0.0;0.0;115.9;0.0;0.0;2.0
2.0;1753877890.569306;18.308191;0.87;-1.65;-0.33;-0.378588;-0.949882;-0.009371;0.0;0.0;116.8;0.0;0.0;2.0
2.0;1753877890.573912;18.315952;0.89;-1.75;-0.46;-0.377886;-0.949196;-0.008501;0.0;0.0;116.5;0.0;0.0;2.0
2.0;1753877890.578517;18.290526;0.82;-1.67;-0.32;-0.378532;-0.949324;-0.009865;0.0;0.0;115.8;0.0;0.0;2.0
2.0;1753877890.583122;18.294921;0.78;-1.65;-0.37;-0.379244;-0.949758;-0.009245;0.0;0.0;116.2;0.0;0.0;2.0
2.0;1753877890.587728;18.285657;0.81;-1.78;-0.3;-0.379401;-0.950003;-0.010411;0.0;0.0;116.0;0.0;0.0;2.0
2.0;1753877890.592333;18.279245;0.83;-1.66;-0.38;-0.377078;-0.948838;-0.009609;0.0;0.0;116.5;0.0;0.0;2.0
2.0;1753877890.596938;18.286281;0.84;-1.73;-0.39;-0.377579;-0.949916;-0.009432;0.0;0.0;116.2;0.0;0.0;2.0
2.0;1753877890.601544;18.283152;0.77;-1.65;-0.37;-0.380461;-0.949789;-0.010183;0.0;0.0;115.5;0.0;0.0;2.0
2.0;1753877890.606149;18.277783;0.79;-1.7;-0.32;-0.379967;-0.950676;-0.01006;0.0;0.0;116.9;0.0;0.0;2.0
2.0;1753877890.610754;18.292618;0.79;-1.69;-0.3;-0.37937;-0.949457;-0.008781;0.0;0.0;116.1;0.0;0.0;2.0
2.0;1753877890.615359;18.283324;0.9;-1.68;-0.31;-0.378045;-0.95002;-0.010322;0.0;0.0;115.7;0.0;0.0;2.0
2.0;1753877890.619964;18.274188;0.84;-1.72;-0.34;-0.378636;-0.949504;-0.009966;0.0;0.0;115.0;0.0;0.0;2.0
2.0;1753877890.62457;18.306613;0.84;-1.64;-0.33;-0.380191;-0.950266;-0.008437;0.0;0.0;115.3;0.0;0.0;2.0
2.0;1753877890.629175;18.279845;0.83;-1.67;-0.31;-0.378642;-0.949475;-0.00984;0.0;0.0;116.3;0.0;0.0;2.0
2.0;1753877890.63378;18.277643;0.78;-1.63;-0.35;-0.380532;-0.949589;-0.009688;0.0;0.0;116.2;0.0;0.0;2.0
2.0;1753877890.638386;18.275287;0.77;-1.74;-0.31;-0.379189;-0.949414;-0.009434;0.0;0.0;115.7;0.0;0.0;2.0
2.0;1753877890.642991;18.278075;0.82;-1.63;-0.38;-0.378915;-0.948813;-0.010376;0.0;0.0;116.7;0.0;0.0;2.0
2.0;1753877890.647596;18.272432;0.86;-1.69;-0.4;-0.379625;-0.949654;-0.008881;0.0;0.0;116.1;0.0;0.0;2.0
2.0;1753877890.652202;18.284801;0.82;-1.72;-0.37;-0.378869;-0.949541;-0.009943;0.0;0.0;115.3;0.0;0.0;2.0
2.0;1753877890.656807;18.284976;0.83;-1.71;-0.34;-0.379818;-0.949491;-0.009545;0.0;0.0;116.1;0.0;0.0;2.0
2.0;1753877890.661412;18.294686;0.88;-1.65;-0.34;-0.377535;-0.948825;-0.01102;0.0;0.0;115.8;0.0;0.0;2.0
2.0;1753877890.666018;18.288755;0.83;-1.68;-0.3;-0.378891;-0.948837;-0.008962;0.0;0.0;116.5;0.0;0.0;2.0
2.0;1753877890.670623;18.277106;0.92;-1.67;-0.37;-0.379172;-0.949476;-0.010411;0.0;0.0;116.0;0.0;0.0;2.0
2.0;1753877890.675228;18.278147;0.81;-1.73;-0.34;-0.380823;-0.950372;-0.008989;0.0;0.0;115.5;0.0;0.0;2.0
2.0;1753877890.679834;18.279661;0.73;-1.71;-0.42;-0.378979;-0.949217;-0.010107;0.0;0.0;114.5;0.0;0.0;2.0
2.0;1753877890.684439;18.302004;0.9;-1.67;-0.34;-0.378861;-0.949856;-0.009581;0.0;0.0;116.3;0.0;0.0;2.0
2.0;1753877890.689044;18.300449;0.86;-1.67;-0.3;-0.37911;-0.950235;-0.010288;0.0;0.0;116.2;0.0;0.0;2.0
2.0;1753877890.693649;18.273746;0.81;-1.68;-0.32;-0.378404;-0.950215;-0.008503;0.0;0.0;116.4;0.0;0.0;2.0
2.0;1753877890.698254;18.310408;0.86;-1.74;-0.34;-0.378673;-0.949605;-0.007641;0.0;0.0;115.6;0.0;0.0;2.0
2.0;1753877890.70286;18.281056;0.96;-1.67;-0.36;-0.379754;-0.950535;-0.009647;0.0;0.0;115.8;0.0;0.0;2.0
2.0;1753877890.707465;18.28151;0.84;-1.72;-0.36;-0.379732;-0.949594;-0.010377;0.0;0.0;115.8;0.0;0.0;2.0
2.0;1753877890.71207;18.288751;0.78;-1.65;-0.35;-0.377994;-0.949407;-0.00904;0.0;0.0;115.9;0.0;0.0;2.0
2.0;1753877890.716676;18.285328;0.85;-1.7;-0.43;-0.377216;-0.949944;-0.009475;0.0;0.0;116.4;0.0;0.0;2.0
2.0;1753877890.721281;18.277924;0.9;-1.71;-0.34;-0.379129;-0.950251;-0.00937;0.0;0.0;115.3;0.0;0.0;2.0
2.0;1753877890.725886;18.292067;0.76;-1.71;-0.33;-0.38018;-0.949768;-0.010497;0.0;0.0;116.2;0.0;0.0;2.0
2.0;1753877890.730492;18.288312;0.84;-1.61;-0.4;-0.376719;-0.949644;-0.008388;0.0;0.0;115.3;0.0;0.0;2.0
2.0;1753877890.735097;18.288697;0.91;-1.7;-0.33;-0.377128;-0.950521;-0.01023;0.0;0.0;116.1;0.0;0.0;2.0
2.0;1753877890.739702;18.287252;0.86;-1.74;-0.3;-0.379965;-0.949445;-0.008498;0.0;0.0;116.7;0.0;0.0;2.0
2.0;1753877890.744308;18.284217;0.87;-1.7;-0.42;-0.379568;-0.949811;-0.00943;0.0;0.0;116.7;0.0;0.0;2.0
2.0;1753877890.748913;18.275806;0.93;-1.68;-0.37;-0.379562;-0.950464;-0.009429;0.0;0.0;116.3;0.0;0.0;2.0
2.0;1753877890.753518;18.291781;0.82;-1.67;-0.33;-0.379504;-0.949545;-0.010376;0.0;0.0;116.0;0.0;0.0;2.0
2.0;1753877890.758124;18.297335;0.84;-1.67;-0.37;-0.379338;-0.950204;-0.010458;0.0;0.0;115.1;0.0;0.0;2.0
2.0;1753877890.762729;18.28045;0.77;-1.72;-0.4;-0.379756;-0.949043;-0.009576;0.0;0.0;116.7;0.0;0.0;2.0
2.0;1753877890.767334;18.294651;0.8;-1.63;-0.42;-0.378855;-0.949886;-0.010081;0.0;0.0;115.4;0.0;0.0;2.0
2.0;1753877890.771939;18.296501;0.89;-1.79;-0.32;-0.378546;-0.949803;-0.009973;0.0;0.0;115.1;0.0;0.0;2.0
2.0;1753877890.776544;18.282657;0.83;-1.68;-0.37;-0.377539;-0.949816;-0.010174;0.0;0.0;116.4;0.0;0.0;2.0
2.0;1753877890.78115;18.271783;0.88;-1.7;-0.36;-0.379145;-0.948713;-0.008954;0.0;0.0;116.3;0.0;0.0;2.0
2.0;1753877890.785755;18.27395;0.86;-1.67;-0.29;-0.380403;-0.949796;-0.009788;0.0;0.0;115.6;0.0;0.0;2.0
2.0;1753877890.79036;18.296084;0.85;-1.66;-0.36;-0.380016;-0.950358;-0.009154;0.0;0.0;116.0;0.0;0.0;2.0
2.0;1753877890.794966;18.298631;0.87;-1.74;-0.29;-0.37824;-0.94886;-0.009417;0.0;0.0;115.1;0.0;0.0;2.0
2.0;1753877890.799571;18.305126;0.79;-1.69;-0.31;-0.378273;-0.949482;-0.009981;0.0;0.0;116.2;0.0;0.0;2.0
2.0;1753877890.804176;18.269469;0.83;-1.61;-0.38;-0.378073;-0.950496;-0.009664;0.0;0.0;116.0;0.0;0.0;2.0
2.0;1753877890.808782;18.284048;0.84;-1.75;-0.42;-0.378066;-0.949247;-0.008971;0.0;0.0;116.6;0.0;0.0;2.0
2.0;1753877890.813387;18.304016;0.82;-1.69;-0.33;-0.379116;-0.94979;-0.009389;0.0;0.0;115.0;0.0;0.0;2.0
2.0;1753877890.817992;18.282036;0.83;-1.7;-0.33;-0.378066;-0.948569;-0.009133;0.0;0.0;115.9;0.0;0.0;2.0
2.0;1753877890.8225;18.285156;0.84;-1.68;-0.35;-0.378566;-0.94977;-0.009516;0.0;0.0;116.0;0.0;0.0;2.0
2.0;1753877890.827106;18.286581;0.77;-1.75;-0.36;-0.37872;-0.949956;-0.009105;0.0;0.0;116.3;0.0;0.0;2.0
2.0;1753877890.831711;18.289073;0.71;-1.74;-0.31;-0.378002;-0.950155;-0.010088;0.0;0.0;114.6;0.0;0.0;2.0
2.0;1753877890.836316;18.282866;0.76;-1.74;-0.47;-0.378812;-0.949737;-0.009149;0.0;0.0;115.5;0.0;0.0;2.0
2.0;1753877890.840922;18.26921;0.83;-1.77;-0.37;-0.378339;-0.949592;-0.010811;0.0;0.0;118.5;0.0;0.0;2.0
2.0;1753877890.845527;18.300577;0.8;-1.74;-0.33;-0.379194;-0.948337;-0.009007;0.0;0.0;117.7;0.0;0.0;2.0
2.0;1753877890.850132;18.277545;0.85;-1.81;-0.29;-0.378331;-0.948737;-0.010007;0.0;0.0;114.2;0.0;0.0;2.0
2.0;1753877890.854737;18.291194;0.83;-1.8;-0.3;-0.379056;-0.948953;-0.010458;0.0;0.0;115.3;0.0;0.0;2.0
2.0;1753877890.85976;18.28125;0.84;-1.75;-0.28;-0.378688;-0.948062;-0.009028;0.0;0.0;115.0;0.0;0.0;2.0
2.0;1753877890.864366;18.27329;0.81;-1.66;-0.3;-0.378984;-0.948955;-0.010244;0.0;0.0;114.6;0.0;0.0;2.0
2.0;1753877890.868971;18.27204;0.93;-1.73;-0.33;-0.378211;-0.948235;-0.010427;0.0;0.0;115.8;0.0;0.0;2.0
2.0;1753877890.873576;18.267073;0.81;-1.75;-0.25;-0.379279;-0.948976;-0.009035;0.0;0.0;115.2;0.0;0.0;2.0
2.0;1753877890.878182;18.270021;0.82;-1.79;-0.37;-0.378598;-0.946994;-0.010488;0.0;0.0;116.7;0.0;0.0;2.0
2.0;1753877890.882787;18.283165;0.91;-1.76;-0.22;-0.379027;-0.94915;-0.009834;0.0;0.0;115.9;0.0;0.0;2.0
2.0;1753877890.887392;18.280241;0.88;-1.76;-0.28;-0.379523;-0.949;-0.010302;0.0;0.0;113.8;0.0;0.0;2.0
2.0;1753877890.891997;18.289182;0.9;-1.76;-0.29;-0.380714;-0.948964;-0.010421;0.0;0.0;110.8;0.0;0.0;2.0
2.0;1753877890.896603;18.261589;0.84;-1.77;-0.33;-0.379355;-0.950514;-0.011867;0.0;0.0;120.7;0.0;0.0;2.0
2.0;1753877890.901208;18.291542;0.78;-1.66;-0.32;-0.378494;-0.950682;-0.01069;0.0;0.0;116.3;0.0;0.0;2.0
2.0;1753877890.90796;18.28125;0.84;-1.75;-0.28;-0.379664;-0.949526;-0.010858;0.0;0.0;115.0;0.0;0.0;2.0
2.0;1753877890.912565;18.279371;0.8;-1.72;-0.36;-0.378365;-0.948524;-0.011838;0.0;0.0;117.1;0.0;0.0;2.0
2.0;1753877890.91717;18.285857;0.81;-1.72;-0.25;-0.378589;-0.950933;-0.012375;0.0;0.0;112.5;0.0;0.0;2.0
2.0;1753877890.921776;18.295462;0.87;-1.7;-0.33;-0.379706;-0.950072;-0.009793;0.0;0.0;113.7;0.0;0.0;2.0
2.0;1753877890.926381;18.286792;0.83;-1.68;-0.28;-0.381482;-0.949493;-0.011054;0.0;0.0;114.9;0.0;0.0;2.0
2.0;1753877890.930986;18.291786;0.93;-1.77;-0.3;-0.37962;-0.94973;-0.010763;0.0;0.0;117.0;0.0;0.0;2.0
2.0;1753877890.935592;18.258147;0.92;-1.78;-0.29;-0.379423;-0.950578;-0.01035;0.0;0.0;116.6;0.0;0.0;2.0
2.0;1753877890.940197;18.289285;0.88;-1.68;-0.23;-0.380779;-0.949855;-0.01046;0.0;0.0;114.2;0.0;0.0;2.0
2.0;1753877890.944802;18.280218;0.87;-1.8;-0.22;-0.379369;-0.949783;-0.010061;0.0;0.0;114.2;0.0;0.0;2.0
2.0;1753877890.949408;18.286695;0.82;-1.7;-0.19;-0.380988;-0.951424;-0.011323;0.0;0.0;115.1;0.0;0.0;2.0
2.0;1753877890.954013;18.275768;0.9;-1.69;-0.27;-0.379943;-0.949347;-0.009463;0.0;0.0;112.3;0.0;0.0;2.0
2.0;1753877890.96014;18.28125;0.91;-1.75;-0.28;-0.380274;-0.95038;-0.00976;0.0;0.0;115.0;0.0;0.0;2.0
2.0;1753877890.964746;18.288282;0.93;-1.65;-0.2;-0.381396;-0.949328;-0.009224;0.0;0.0;116.9;0.0;0.0;2.0
2.0;1753877890.969351;18.272721;0.92;-1.76;-0.28;-0.38066;-0.948701;-0.009772;0.0;0.0;111.6;0.0;0.0;2.0
2.0;1753877890.973956;18.272856;0.9;-1.67;-0.4;-0.380862;-0.950047;-0.008757;0.0;0.0;111.2;0.0;0.0;2.0
2.0;1753877890.978562;18.2817;0.94;-1.66;-0.3;-0.379266;-0.949085;-0.009355;0.0;0.0;116.4;0.0;0.0;2.0
2.0;1753877890.983167;18.28633;0.83;-1.67;-0.25;-0.382073;-0.950354;-0.009455;0.0;0.0;116.6;0.0;0.0;2.0
2.0;1753877890.987772;18.296374;0.78;-1.79;-0.29;-0.381231;-0.94912;-0.008845;0.0;0.0;111.6;0.0;0.0;2.0
2.0;1753877890.992377;18.272934;0.96;-1.65;-0.2;-0.381933;-0.94957;-0.007412;0.0;0.0;116.0;0.0;0.0;2.0
2.0;1753877890.99711;18.28125;0.91;-1.61;-0.28;-0.380152;-0.949526;-0.008906;0.0;0.0;115.0;0.0;0.0;2.0
2.0;1753877890.997795;18.296875;0.91;-1.68;-0.42;-0.381128;-0.949526;-0.010004;0.0;0.0;115.0;0.0;0.0;2.0
2.0;1753877891.0024;18.270028;0.88;-1.7;-0.35;-0.383033;-0.949466;-0.009149;0.0;0.0;114.3;0.0;0.0;2.8
2.0;1753877891.007006;18.295884;0.92;-1.7;-0.35;-0.381727;-0.949473;-0.009929;0.0;0.0;114.7;0.0;0.0;2.2
2.0;1753877891.011611;18.282148;0.89;-1.68;-0.38;-0.380685;-0.949786;-0.010711;0.0;0.0;116.9;0.0;0.0;2.0
2.0;1753877891.016216;18.318855;0.91;-1.6;-0.39;-0.381999;-0.949856;-0.010431;0.0;0.0;116.1;0.0;0.0;1.7
2.0;1753877891.020822;18.308823;0.89;-1.71;-0.49;-0.380256;-0.950288;-0.009546;0.0;0.0;113.6;0.0;0.0;1.6
2.0;1753877891.025427;18.279425;0.9;-1.6;-0.38;-0.380979;-0.949208;-0.00964;0.0;0.0;118.1;0.0;0.0;2.1
2.0;1753877891.030032;18.289196;0.93;-1.69;-0.46;-0.381863;-0.950185;-0.009792;0.0;0.0;114.0;0.0;0.0;1.6
2.0;1753877891.034638;18.287647;0.93;-1.8;-0.39;-0.379981;-0.950278;-0.009602;0.0;0.0;115.6;0.0;0.0;2.4
2.0;1753877891.039243;18.30587;0.94;-1.74;-0.45;-0.379998;-0.949263;-0.010438;0.0;0.0;114.6;0.0;0.0;1.7
2.0;1753877891.043848;18.282689;0.87;-1.62;-0.42;-0.382258;-0.949774;-0.009865;0.0;0.0;114.6;0.0;0.0;1.6
2.0;1753877891.048453;18.276438;0.91;-1.69;-0.42;-0.381075;-0.949407;-0.010249;0.0;0.0;115.5;0.0;0.0;1.7
2.0;1753877891.053058;18.302524;0.87;-1.69;-0.44;-0.380267;-0.949626;-0.011087;0.0;0.0;116.0;0.0;0.0;2.8
2.0;1753877891.057664;18.307537;0.88;-1.69;-0.37;-0.380828;-0.949384;-0.011417;0.0;0.0;115.2;0.0;0.0;2.0
2.0;1753877891.062269;18.299336;0.85;-1.7;-0.43;-0.380168;-0.948433;-0.010275;0.0;0.0;115.2;0.0;0.0;1.9
2.0;1753877891.066874;18.345952;0.92;-1.58;-0.46;-0.37969;-0.949477;-0.010223;0.0;0.0;115.1;0.0;0.0;2.1
2.0;1753877891.07148;18.266414;1.01;-1.7;-0.4;-0.380414;-0.949564;-0.011467;0.0;0.0;115.0;0.0;0.0;2.1
2.0;1753877891.076085;18.284908;0.91;-1.65;-0.47;-0.381181;-0.949723;-0.010606;0.0;0.0;115.8;0.0;0.0;1.7
2.0;1753877891.08069;18.2722;0.93;-1.79;-0.36;-0.380733;-0.949415;-0.010064;0.0;0.0;115.7;0.0;0.0;2.4
2.0;1753877891.085296;18.295829;0.92;-1.64;-0.38;-0.380376;-0.949469;-0.009971;0.0;0.0;113.6;0.0;0.0;2.0
2.0;1753877891.089901;18.274171;0.89;-1.74;-0.4;-0.381974;-0.949353;-0.010095;0.0;0.0;114.4;0.0;0.0;2.2
2.0;1753877891.094506;18.261426;0.93;-1.66;-0.4;-0.380805;-0.948882;-0.009433;0.0;0.0;114.9;0.0;0.0;1.5
2.0;1753877891.099112;18.283835;0.88;-1.65;-0.4;-0.380481;-0.949761;-0.010611;0.0;0.0;114.4;0.0;0.0;2.2
2.0;1753877891.103717;18.292435;0.94;-1.71;-0.41;-0.38037;-0.948914;-0.011511;0.0;0.0;115.6;0.0;0.0;2.9
2.0;1753877891.108322;18.295108;0.93;-1.67;-0.42;-0.380195;-0.949752;-0.010375;0.0;0.0;114.7;0.0;0.0;2.6
2.0;1753877891.112928;18.266395;0.94;-1.69;-0.44;-0.380038;-0.949611;-0.01075;0.0;0.0;115.5;0.0;0.0;1.9
2.0;1753877891.117533;18.290021;0.99;-1.7;-0.39;-0.381753;-0.949659;-0.010258;0.0;0.0;114.6;0.0;0.0;1.1
2.0;1753877891.122138;18.26673;0.97;-1.7;-0.39;-0.381529;-0.949462;-0.009027;0.0;0.0;115.6;0.0;0.0;2.2
2.0;1753877891.126743;18.30533;0.97;-1.74;-0.42;-0.382583;-0.951058;-0.010522;0.0;0.0;113.8;0.0;0.0;1.5
2.0;1753877891.131348;18.278885;0.97;-1.67;-0.36;-0.381052;-0.949655;-0.008848;0.0;0.0;113.1;0.0;0.0;2.2
2.0;1753877891.135954;18.291655;0.94;-1.68;-0.33;-0.378013;-0.947669;-0.010834;0.0;0.0;113.9;0.0;0.0;1.7
2.0;1753877891.140559;18.324023;0.9;-1.67;-0.41;-0.378803;-0.949647;-0.010717;0.0;0.0;114.2;0.0;0.0;1.8
2.0;1753877891.145164;18.273717;0.91;-1.69;-0.42;-0.380323;-0.94989;-0.009605;0.0;0.0;116.2;0.0;0.0;2.7
2.0;1753877891.14977;18.267308;0.84;-1.68;-0.36;-0.38243;-0.949929;-0.010068;0.0;0.0;117.4;0.0;0.0;1.9
2.0;1753877891.154375;18.281906;0.87;-1.69;-0.37;-0.380246;-0.951279;-0.009628;0.0;0.0;114.5;0.0;0.0;2.2
2.0;1753877891.15898;18.312051;0.93;-1.64;-0.42;-0.380474;-0.948977;-0.0104;0.0;0.0;112.9;0.0;0.0;1.3
2.0;1753877891.163586;18.279499;0.95;-1.61;-0.37;-0.380426;-0.949841;-0.010071;0.0;0.0;114.0;0.0;0.0;2.1
2.0;1753877891.168191;18.286522;0.91;-1.67;-0.39;-0.380019;-0.948802;-0.01092;0.0;0.0;115.3;0.0;0.0;1.9
2.0;1753877891.172796;18.285755;0.98;-1.61;-0.28;-0.380067;-0.949114;-0.009889;0.0;0.0;115.2;0.0;0.0;1.4
2.0;1753877891.177402;18.286942;0.95;-1.71;-0.29;-0.381406;-0.949823;-0.009825;0.0;0.0;114.9;0.0;0.0;3.1
2.0;1753877891.182007;18.266188;0.91;-1.67;-0.37;-0.379319;-0.950232;-0.009853;0.0;0.0;115.2;0.0;0.0;2.2
2.0;1753877891.186612;18.284674;0.88;-1.7;-0.41;-0.379292;-0.950254;-0.010127;0.0;0.0;115.7;0.0;0.0;2.1
2.0;1753877891.191218;18.276197;0.85;-1.74;-0.36;-0.380705;-0.949207;-0.009867;0.0;0.0;115.6;0.0;0.0;0.9
2.0;1753877891.195823;18.264694;0.93;-1.59;-0.33;-0.379659;-0.949812;-0.01092;0.0;0.0;115.2;0.0;0.0;2.1
2.0;1753877891.200428;18.305917;0.91;-1.61;-0.36;-0.379112;-0.949941;-0.011003;0.0;0.0;116.3;0.0;0.0;2.0
2.0;1753877891.205033;18.28568;0.93;-1.8;-0.35;-0.379493;-0.949839;-0.011172;0.0;0.0;116.0;0.0;0.0;2.9
2.0;1753877891.209638;18.254598;0.93;-1.75;-0.41;-0.378828;-0.949253;-0.009981;0.0;0.0;115.6;0.0;0.0;2.0
2.0;1753877891.214244;18.242622;0.98;-1.71;-0.34;-0.380538;-0.949664;-0.009943;0.0;0.0;113.5;0.0;0.0;2.5
2.0;1753877891.218849;18.278328;0.91;-1.7;-0.37;-0.378447;-0.949158;-0.010413;0.0;0.0;116.0;0.0;0.0;2.3
2.0;1753877891.223454;18.27626;0.91;-1.65;-0.34;-0.379731;-0.950026;-0.010459;0.0;0.0;114.9;0.0;0.0;1.8
2.0;1753877891.22806;18.260877;0.91;-1.8;-0.39;-0.380441;-0.95022;-0.01025;0.0;0.0;115.5;0.0;0.0;1.8
2.0;1753877891.232665;18.293174;0.9;-1.69;-0.34;-0.378504;-0.949664;-0.010362;0.0;0.0;116.4;0.0;0.0;1.3
2.0;1753877891.23727;18.301717;0.92;-1.56;-0.33;-0.37958;-0.949333;-0.010501;0.0;0.0;114.2;0.0;0.0;2.7
2.0;1753877891.241876;18.296344;0.97;-1.67;-0.27;-0.380437;-0.949566;-0.010529;0.0;0.0;115.0;0.0;0.0;2.7
2.0;1753877891.246481;18.282487;0.92;-1.61;-0.35;-0.381111;-0.949799;-0.009912;0.0;0.0;115.8;0.0;0.0;2.2
2.0;1753877891.251086;18.288632;0.97;-1.69;-0.36;-0.379729;-0.950243;-0.010466;0.0;0.0;114.6;0.0;0.0;1.7
2.0;1753877891.255692;18.272677;0.92;-1.75;-0.28;-0.381081;-0.948663;-0.010959;0.0;0.0;114.1;0.0;0.0;2.4
2.0;1753877891.260297;18.288678;0.94;-1.75;-0.38;-0.381494;-0.95016;-0.010934;0.0;0.0;114.6;0.0;0.0;2.0
2.0;1753877891.264902;18.256234;0.93;-1.71;-0.31;-0.37924;-0.949611;-0.009414;0.0;0.0;116.1;0.0;0.0;2.1
2.0;1753877891.269508;18.278147;1.0;-1.75;-0.39;-0.379673;-0.949412;-0.010356;0.0;0.0;114.9;0.0;0.0;1.8
2.0;1753877891.274113;18.247377;0.98;-1.66;-0.27;-0.380008;-0.950107;-0.010286;0.0;0.0;116.4;0.0;0.0;2.5
2.0;1753877891.278718;18.275864;0.97;-1.69;-0.34;-0.379283;-0.949505;-0.010042;0.0;0.0;113.9;0.0;0.0;2.2
2.0;1753877891.283323;18.267019;0.88;-1.67;-0.38;-0.378829;-0.949166;-0.009639;0.0;0.0;114.2;0.0;0.0;2.1
2.0;1753877891.287928;18.278132;0.93;-1.73;-0.32;-0.37937;-0.949486;-0.010967;0.0;0.0;114.6;0.0;0.0;1.8
2.0;1753877891.292534;18.235729;0.94;-1.63;-0.38;-0.379298;-0.950181;-0.011596;0.0;0.0;115.2;0.0;0.0;2.8
2.0;1753877891.297139;18.305691;0.94;-1.62;-0.37;-0.380155;-0.949593;-0.009815;0.0;0.0;114.6;0.0;0.0;2.4
2.0;1753877891.301744;18.283799;0.9;-1.71;-0.41;-0.380133;-0.950505;-0.010602;0.0;0.0;115.1;0.0;0.0;1.4
2.0;1753877891.30635;18.269286;0.94;-1.68;-0.28;-0.379347;-0.948872;-0.010933;0.0;0.0;115.1;0.0;0.0;1.8
2.0;1753877891.310955;18.227075;0.97;-1.75;-0.28;-0.37894;-0.948816;-0.011095;0.0;0.0;114.5;0.0;0.0;2.6
2.0;1753877891.31556;18.252126;0.97;-1.61;-0.41;-0.379726;-0.949938;-0.011087;0.0;0.0;115.9;0.0;0.0;1.9
2.0;1753877891.320166;18.288313;0.96;-1.7;-0.33;-0.380616;-0.94914;-0.01104;0.0;0.0;115.7;0.0;0.0;2.8
2.0;1753877891.324771;18.266424;0.98;-1.75;-0.3;-0.380179;-0.949183;-0.010061;0.0;0.0;114.0;0.0;0.0;2.2
2.0;1753877891.329376;18.285917;0.94;-1.68;-0.29;-0.38116;-0.949023;-0.009905;0.0;0.0;115.4;0.0;0.0;1.9
2.0;1753877891.333982;18.271434;0.89;-1.63;-0.36;-0.380272;-0.949682;-0.010317;0.0;0.0;115.3;0.0;0.0;1.8
2.0;1753877891.338587;18.270451;0.96;-1.68;-0.28;-0.381227;-0.950736;-0.010157;0.0;0.0;117.0;0.0;0.0;2.3
2.0;1753877891.343192;18.245553;0.99;-1.7;-0.25;-0.377762;-0.949298;-0.01008;0.0;0.0;114.4;0.0;0.0;1.5
2.0;1753877891.347798;18.252901;0.95;-1.72;-0.28;-0.37975;-0.950183;-0.009663;0.0;0.0;114.8;0.0;0.0;1.2
2.0;1753877891.352403;18.243557;0.91;-1.72;-0.32;-0.378393;-0.948792;-0.010279;0.0;0.0;113.7;0.0;0.0;1.8
2.0;1753877891.357008;18.251962;0.93;-1.63;-0.28;-0.379887;-0.949105;-0.009692;0.0;0.0;114.8;0.0;0.0;1.1
2.0;1753877891.361613;18.270596;1.0;-1.68;-0.32;-0.378208;-0.948237;-0.010468;0.0;0.0;114.8;0.0;0.0;1.6
2.0;1753877891.366218;18.270454;0.93;-1.77;-0.32;-0.377733;-0.95001;-0.011488;0.0;0.0;117.5;0.0;0.0;2.2
2.0;1753877891.370824;18.24436;0.96;-1.6;-0.3;-0.380252;-0.949271;-0.010387;0.0;0.0;114.4;0.0;0.0;1.6
2.0;1753877891.375429;18.241571;1.06;-1.78;-0.38;-0.380621;-0.949471;-0.010708;0.0;0.0;114.4;0.0;0.0;2.3
2.0;1753877891.380034;18.266628;0.98;-1.79;-0.35;-0.379365;-0.948528;-0.010886;0.0;0.0;115.2;0.0;0.0;2.0
2.0;1753877891.38464;18.228681;0.93;-1.72;-0.34;-0.378608;-0.949245;-0.010337;0.0;0.0;112.9;0.0;0.0;2.2
2.0;1753877891.389245;18.242003;0.99;-1.74;-0.31;-0.379788;-0.949568;-0.011818;0.0;0.0;114.2;0.0;0.0;1.8
2.0;1753877891.39385;18.267428;0.87;-1.69;-0.28;-0.378315;-0.9492;-0.011069;0.0;0.0;114.6;0.0;0.0;2.8
2.0;1753877891.398456;18.229158;0.97;-1.69;-0.33;-0.380008;-0.949347;-0.010442;0.0;0.0;116.7;0.0;0.0;2.1
2.0;1753877891.403061;18.253889;0.96;-1.71;-0.3;-0.380567;-0.949438;-0.009646;0.0;0.0;116.2;0.0;0.0;1.3
2.0;1753877891.407666;18.287552;0.98;-1.69;-0.19;-0.380266;-0.948903;-0.010755;0.0;0.0;114.9;0.0;0.0;2.4
2.0;1753877891.412272;18.2339;1.0;-1.65;-0.39;-0.379805;-0.950054;-0.011254;0.0;0.0;113.8;0.0;0.0;1.6
2.0;1753877891.416877;18.24376;1.01;-1.7;-0.27;-0.379384;-0.949302;-0.010875;0.0;0.0;115.7;0.0;0.0;2.6
2.0;1753877891.421482;18.270408;0.97;-1.69;-0.34;-0.380906;-0.949475;-0.009798;0.0;0.0;114.3;0.0;0.0;1.6
2.0;1753877891.426088;18.25438;0.98;-1.73;-0.42;-0.379247;-0.948911;-0.009535;0.0;0.0;113.8;0.0;0.0;1.9
2.0;1753877891.430693;18.281316;0.97;-1.69;-0.26;-0.379058;-0.949809;-0.010054;0.0;0.0;114.8;0.0;0.0;2.4
2.0;1753877891.435298;18.235245;0.97;-1.64;-0.24;-0.380216;-0.949782;-0.011124;0.0;0.0;113.5;0.0;0.0;2.4
2.0;1753877891.439903;18.267868;1.01;-1.71;-0.29;-0.379847;-0.949512;-0.01073;0.0;0.0;114.4;0.0;0.0;0.9
2.0;1753877891.444508;18.235035;1.09;-1.66;-0.23;-0.379571;-0.949138;-0.011913;0.0;0.0;115.6;0.0;0.0;2.1
2.0;1753877891.449114;18.26248;0.95;-1.77;-0.21;-0.378225;-0.949627;-0.010191;0.0;0.0;114.1;0.0;0.0;1.3
2.0;1753877891.453719;18.271871;1.0;-1.73;-0.25;-0.379654;-0.948676;-0.010663;0.0;0.0;115.0;0.0;0.0;1.2
2.0;1753877891.458324;18.262372;1.03;-1.57;-0.22;-0.378371;-0.949564;-0.010155;0.0;0.0;116.2;0.0;0.0;2.2
2.0;1753877891.46293;18.253018;1.01;-1.63;-0.28;-0.37853;-0.949348;-0.01112;0.0;0.0;114.6;0.0;0.0;1.8
2.0;1753877891.467535;18.261778;1.05;-1.71;-0.22;-0.377152;-0.948718;-0.010628;0.0;0.0;116.1;0.0;0.0;2.0
2.0;1753877891.47214;18.264052;1.0;-1.7;-0.27;-0.377909;-0.94813;-0.010641;0.0;0.0;113.4;0.0;0.0;3.3
2.0;1753877891.476746;18.239827;0.96;-1.71;-0.29;-0.379758;-0.949041;-0.011379;0.0;0.0;115.2;0.0;0.0;1.3
2.0;1753877891.4831;18.25;0.98;-1.68;-0.28;-0.378444;-0.949404;-0.010736;0.0;0.0;115.0;0.0;0.0;2.0
2.0;1753877891.487705;18.262992;0.94;-1.65;-0.32;-0.379528;-0.94899;-0.010409;0.0;0.0;114.3;0.0;0.0;2.6
2.0;1753877891.49231;18.285521;0.97;-1.71;-0.28;-0.379083;-0.949131;-0.010762;0.0;0.0;116.3;0.0;0.0;1.5
2.0;1753877891.496916;18.248701;1.01;-1.72;-0.18;-0.37901;-0.949236;-0.010687;0.0;0.0;113.5;0.0;0.0;1.8
2.0;1753877891.501521;18.239946;0.99;-1.61;-0.3;-0.378419;-0.950186;-0.009225;0.0;0.0;113.8;0.0;0.0;1.7
2.0;1753877891.506126;18.239915;0.91;-1.66;-0.34;-0.379033;-0.949293;-0.01026;0.0;0.0;115.2;0.0;0.0;2.9
2.0;1753877891.510732;18.254291;1.02;-1.64;-0.29;-0.381099;-0.948338;-0.010051;0.0;0.0;115.5;0.0;0.0;3.9
2.0;1753877891.515337;18.260109;1.0;-1.67;-0.27;-0.381891;-0.949184;-0.011016;0.0;0.0;115.4;0.0;0.0;2.6
2.0;1753877891.519942;18.25927;1.06;-1.69;-0.27;-0.379157;-0.95;-0.011609;0.0;0.0;115.9;0.0;0.0;1.4
2.0;1753877891.524548;18.257562;1.02;-1.62;-0.43;-0.382192;-0.950063;-0.011058;0.0;0.0;114.9;0.0;0.0;1.3
2.0;1753877891.529153;18.244738;1.0;-1.76;-0.36;-0.381654;-0.949616;-0.010858;0.0;0.0;114.3;0.0;0.0;2.1
2.0;1753877891.534;18.25;0.98;-1.68;-0.35;-0.381372;-0.949526;-0.01037;0.0;0.0;115.0;0.0;0.0;2.0
2.0;1753877891.538605;18.246104;0.87;-1.56;-0.39;-0.379939;-0.949037;-0.010828;0.0;0.0;114.7;0.0;0.0;1.9
2.0;1753877891.54321;18.236988;0.95;-1.66;-0.27;-0.381564;-0.950207;-0.009962;0.0;0.0;116.2;0.0;0.0;2.1
2.0;1753877891.547816;18.279208;0.88;-1.73;-0.35;-0.379886;-0.949294;-0.00987;0.0;0.0;113.9;0.0;0.0;1.9
2.0;1753877891.552421;18.264536;0.81;-1.78;-0.22;-0.37912;-0.949945;-0.01133;0.0;0.0;116.1;0.0;0.0;1.7
2.0;1753877891.55702;18.265625;0.84;-1.75;-0.28;-0.37759;-0.949282;-0.010492;0.0;0.0;116.0;0.0;0.0;2.0
2.0;1753877891.561626;18.266443;0.77;-1.76;-0.33;-0.375066;-0.949654;-0.009379;0.0;0.0;117.2;0.0;0.0;2.0
2.0;1753877891.566231;18.266652;0.94;-1.71;-0.25;-0.380731;-0.949216;-0.009729;0.0;0.0;113.0;0.0;0.0;2.0
2.0;1753877891.570836;18.276572;0.93;-1.81;-0.26;-0.379054;-0.950281;-0.009891;0.0;0.0;115.0;0.0;0.0;2.0
2.0;1753877891.575441;18.285055;0.97;-1.75;-0.29;-0.378052;-0.948793;-0.011193;0.0;0.0;113.7;0.0;0.0;2.0
2.0;1753877891.580047;18.252257;0.83;-1.76;-0.27;-0.378385;-0.948717;-0.010523;0.0;0.0;113.1;0.0;0.0;2.0
2.0;1753877891.584652;18.277184;0.88;-1.73;-0.27;-0.377737;-0.94996;-0.009859;0.0;0.0;112.2;0.0;0.0;2.0
2.0;1753877891.589257;18.277755;0.84;-1.82;-0.28;-0.376594;-0.949977;-0.010554;0.0;0.0;112.9;0.0;0.0;2.0
2.0;1753877891.593862;18.250655;0.89;-1.81;-0.35;-0.379317;-0.94948;-0.01076;0.0;0.0;113.4;0.0;0.0;2.0
2.0;1753877891.598468;18.246486;0.84;-1.72;-0.34;-0.378426;-0.949063;-0.010332;0.0;0.0;113.2;0.0;0.0;2.0
2.0;1753877891.603073;18.287018;0.86;-1.77;-0.29;-0.379897;-0.948355;-0.011734;0.0;0.0;113.3;0.0;0.0;2.0
2.0;1753877891.607678;18.267544;0.98;-1.7;-0.29;-0.377927;-0.947983;-0.011076;0.0;0.0;112.7;0.0;0.0;2.0
2.0;1753877891.612284;18.259261;0.82;-1.73;-0.36;-0.377634;-0.948817;-0.011203;0.0;0.0;113.1;0.0;0.0;2.0
2.0;1753877891.616889;18.269535;0.82;-1.72;-0.38;-0.38047;-0.949207;-0.012132;0.0;0.0;110.4;0.0;0.0;2.0
2.0;1753877891.621494;18.270886;0.92;-1.75;-0.33;-0.380136;-0.949037;-0.010823;0.0;0.0;111.5;0.0;0.0;2.0
2.0;1753877891.6261;18.264236;0.96;-1.68;-0.45;-0.380292;-0.948158;-0.009726;0.0;0.0;112.3;0.0;0.0;2.0
2.0;1753877891.63378;18.265625;0.91;-1.68;-0.35;-0.38064;-0.948794;-0.010736;0.0;0.0;112.0;0.0;0.0;2.0
2.0;1753877891.638385;18.257047;0.87;-1.74;-0.36;-0.381532;-0.949635;-0.01133;0.0;0.0;111.7;0.0;0.0;2.0
2.0;1753877891.64299;18.245761;0.87;-1.7;-0.36;-0.377193;-0.949775;-0.010985;0.0;0.0;111.9;0.0;0.0;2.0
2.0;1753877891.64813;18.265625;0.84;-1.75;-0.35;-0.378444;-0.949526;-0.011346;0.0;0.0;112.0;0.0;0.0;2.0
2.0;1753877891.652735;18.258998;0.8;-1.71;-0.31;-0.379819;-0.950374;-0.010122;0.0;0.0;111.3;0.0;0.0;2.0
2.0;1753877891.65734;18.259905;0.83;-1.72;-0.4;-0.379071;-0.949819;-0.009735;0.0;0.0;113.6;0.0;0.0;2.0
2.0;1753877891.661946;18.261566;0.88;-1.83;-0.31;-0.380001;-0.949387;-0.011889;0.0;0.0;112.6;0.0;0.0;2.0
2.0;1753877891.666551;18.255814;0.76;-1.77;-0.31;-0.382356;-0.949995;-0.010824;0.0;0.0;110.8;0.0;0.0;2.0
2.0;1753877891.671156;18.299396;0.8;-1.75;-0.16;-0.377592;-0.950825;-0.010999;0.0;0.0;111.0;0.0;0.0;2.0
2.0;1753877891.675762;18.270608;0.81;-1.65;-0.27;-0.376525;-0.949375;-0.008857;0.0;0.0;111.2;0.0;0.0;2.0
2.0;1753877891.680367;18.285242;0.78;-1.7;-0.27;-0.377731;-0.950705;-0.009427;0.0;0.0;111.5;0.0;0.0;2.0
2.0;1753877891.684972;18.275;0.77;-1.69;-0.25;-0.380642;-0.949918;-0.010817;0.0;0.0;113.2;0.0;0.0;2.0
2.0;1753877891.689578;18.266392;0.78;-1.65;-0.2;-0.378146;-0.951347;-0.009257;0.0;0.0;112.0;0.0;0.0;2.0
2.0;1753877891.69434;18.265625;0.77;-1.68;-0.21;-0.38064;-0.95099;-0.00976;0.0;0.0;112.0;0.0;0.0;2.0
2.0;1753877891.698946;18.25626;0.78;-1.72;-0.31;-0.383254;-0.94965;-0.010912;0.0;0.0;111.7;0.0;0.0;2.0
2.0;1753877891.703551;18.247025;0.73;-1.77;-0.24;-0.380096;-0.950613;-0.009557;0.0;0.0;111.1;0.0;0.0;2.0
2.0;1753877891.708156;18.312756;0.78;-1.72;-0.18;-0.37848;-0.950609;-0.009;0.0;0.0;112.1;0.0;0.0;2.0
2.0;1753877891.712762;18.259432;0.89;-1.5;-0.19;-0.379078;-0.950633;-0.009152;0.0;0.0;112.7;0.0;0.0;2.0
2.0;1753877891.717367;18.286244;0.75;-1.58;-0.25;-0.380078;-0.950457;-0.009443;0.0;0.0;114.3;0.0;0.0;2.0
2.0;1753877891.721972;18.275877;0.73;-1.56;-0.22;-0.377952;-0.950405;-0.008975;0.0;0.0;113.1;0.0;0.0;2.0
2.0;1753877891.726577;18.235101;0.6;-1.56;-0.15;-0.378025;-0.949358;-0.010549;0.0;0.0;110.8;0.0;0.0;2.0
2.0;1753877891.731182;18.312726;0.66;-1.64;-0.24;-0.378041;-0.949252;-0.009233;0.0;0.0;111.4;0.0;0.0;2.0
2.0;1753877891.73982;18.28125;0.77;-1.61;-0.28;-0.377712;-0.949038;-0.009272;0.0;0.0;112.0;0.0;0.0;2.0
2.0;1753877891.744425;18.285081;0.81;-1.61;-0.27;-0.377908;-0.949292;-0.008677;0.0;0.0;113.3;0.0;0.0;2.0
2.0;1753877891.74903;18.29432;0.79;-1.63;-0.29;-0.379345;-0.949109;-0.009287;0.0;0.0;113.9;0.0;0.0;2.0
2.0;1753877891.753636;18.282864;0.83;-1.62;-0.31;-0.378889;-0.949717;-0.008068;0.0;0.0;109.9;0.0;0.0;2.0
2.0;1753877891.758241;18.278995;0.79;-1.57;-0.31;-0.378771;-0.949826;-0.00863;0.0;0.0;113.8;0.0;0.0;2.0
2.0;1753877891.762846;18.271204;0.76;-1.58;-0.2;-0.37856;-0.949562;-0.009651;0.0;0.0;112.4;0.0;0.0;2.0
2.0;1753877891.767452;18.256171;0.86;-1.66;-0.2;-0.379846;-0.950178;-0.008426;0.0;0.0;112.2;0.0;0.0;2.0
2.0;1753877891.772057;18.283595;0.83;-1.53;-0.34;-0.380324;-0.949518;-0.00877;0.0;0.0;113.1;0.0;0.0;2.0
2.0;1753877891.776662;18.265682;0.8;-1.6;-0.35;-0.379129;-0.94925;-0.008439;0.0;0.0;112.6;0.0;0.0;2.0
2.0;1753877891.781268;18.278293;0.9;-1.68;-0.26;-0.38066;-0.949892;-0.008286;0.0;0.0;113.5;0.0;0.0;2.0
2.0;1753877891.78745;18.28125;0.84;-1.61;-0.35;-0.38003;-0.950258;-0.008296;0.0;0.0;112.0;0.0;0.0;2.0
2.0;1753877891.792056;18.27912;0.91;-1.61;-0.29;-0.380362;-0.949298;-0.006204;0.0;0.0;113.3;0.0;0.0;2.0
2.0;1753877891.796661;18.283291;0.89;-1.66;-0.35;-0.378234;-0.950042;-0.007483;0.0;0.0;109.7;0.0;0.0;2.0
2.0;1753877891.801266;18.267663;0.91;-1.68;-0.32;-0.378688;-0.950161;-0.007064;0.0;0.0;108.1;0.0;0.0;2.0
2.0;1753877891.805872;18.291807;0.81;-1.69;-0.24;-0.379633;-0.95116;-0.008644;0.0;0.0;111.9;0.0;0.0;2.0
2.0;1753877891.810477;18.288343;0.84;-1.64;-0.27;-0.382353;-0.949676;-0.008296;0.0;0.0;114.3;0.0;0.0;2.0
2.0;1753877891.815082;18.28089;0.89;-1.58;-0.35;-0.378594;-0.950781;-0.009281;0.0;0.0;112.2;0.0;0.0;2.0
2.0;1753877891.819687;18.302118;0.89;-1.69;-0.32;-0.378552;-0.950423;-0.00895;0.0;0.0;113.0;0.0;0.0;2.0
2.0;1753877891.824293;18.252981;0.87;-1.71;-0.24;-0.378682;-0.950064;-0.007771;0.0;0.0;113.1;0.0;0.0;2.0
2.0;1753877891.828898;18.29087;1.04;-1.64;-0.3;-0.380794;-0.950061;-0.008093;0.0;0.0;111.9;0.0;0.0;2.0
2.0;1753877891.83602;18.28125;0.91;-1.68;-0.28;-0.38003;-0.950258;-0.008296;0.0;0.0;112.0;0.0;0.0;2.0
2.0;1753877891.840625;18.278107;0.92;-1.73;-0.23;-0.378984;-0.950063;-0.009706;0.0;0.0;112.5;0.0;0.0;2.0
2.0;1753877891.84523;18.274025;0.83;-1.65;-0.31;-0.380254;-0.950748;-0.00776;0.0;0.0;113.4;0.0;0.0;2.0
2.0;1753877891.849836;18.28724;0.94;-1.65;-0.32;-0.378381;-0.950118;-0.008938;0.0;0.0;109.6;0.0;0.0;2.0
2.0;1753877891.854441;18.298261;0.93;-1.65;-0.37;-0.381089;-0.951067;-0.010838;0.0;0.0;112.0;0.0;0.0;2.0
2.0;1753877891.859046;18.268506;0.92;-1.66;-0.41;-0.38;-0.949236;-0.009879;0.0;0.0;110.3;0.0;0.0;2.0
2.0;1753877891.863652;18.296045;0.85;-1.68;-0.39;-0.380082;-0.950481;-0.010014;0.0;0.0;113.7;0.0;0.0;2.0
2.0;1753877891.868257;18.30124;0.82;-1.76;-0.34;-0.379629;-0.949423;-0.009657;0.0;0.0;111.9;0.0;0.0;2.0
2.0;1753877891.872862;18.270724;0.94;-1.79;-0.27;-0.381738;-0.950568;-0.011961;0.0;0.0;113.8;0.0;0.0;2.0
2.0;1753877891.8773;18.28125;0.84;-1.75;-0.35;-0.379664;-0.950258;-0.011468;0.0;0.0;112.0;0.0;0.0;2.0
2.0;1753877891.881906;18.2662;0.93;-1.81;-0.29;-0.380292;-0.950008;-0.010399;0.0;0.0;112.8;0.0;0.0;2.0
2.0;1753877891.886511;18.303171;0.93;-1.77;-0.39;-0.377293;-0.950887;-0.011284;0.0;0.0;110.1;0.0;0.0;2.0
2.0;1753877891.891116;18.264883;0.83;-1.66;-0.32;-0.378387;-0.949871;-0.010484;0.0;0.0;110.9;0.0;0.0;2.0
2.0;1753877891.895722;18.275229;0.9;-1.71;-0.33;-0.380529;-0.949463;-0.011671;0.0;0.0;110.3;0.0;0.0;2.0
2.0;1753877891.900327;18.268256;0.86;-1.77;-0.31;-0.376841;-0.95082;-0.010258;0.0;0.0;111.1;0.0;0.0;2.0
2.0;1753877891.904932;18.28647;0.96;-1.66;-0.36;-0.376656;-0.949342;-0.009389;0.0;0.0;110.1;0.0;0.0;2.0
2.0;1753877891.909537;18.285683;0.95;-1.68;-0.33;-0.379258;-0.950217;-0.01062;0.0;0.0;111.6;0.0;0.0;2.0
2.0;1753877891.914142;18.279827;0.89;-1.71;-0.32;-0.380254;-0.949676;-0.010484;0.0;0.0;111.6;0.0;0.0;2.0
2.0;1753877891.918748;18.277084;0.83;-1.74;-0.4;-0.377378;-0.949639;-0.011878;0.0;0.0;112.6;0.0;0.0;2.0
2.0;1753877891.923353;18.28376;0.84;-1.69;-0.28;-0.378685;-0.950022;-0.011338;0.0;0.0;112.5;0.0;0.0;2.0
2.0;1753877891.927958;18.265972;0.96;-1.75;-0.4;-0.377993;-0.950391;-0.009651;0.0;0.0;112.2;0.0;0.0;2.0
2.0;1753877891.9322;18.265625;0.91;-1.68;-0.35;-0.378444;-0.949648;-0.010248;0.0;0.0;112.0;0.0;0.0;2.0
2.0;1753877891.936805;18.271564;0.89;-1.71;-0.34;-0.379282;-0.94872;-0.009293;0.0;0.0;111.4;0.0;0.0;2.0
2.0;1753877891.94141;18.260796;0.81;-1.75;-0.34;-0.379809;-0.950435;-0.008834;0.0;0.0;112.3;0.0;0.0;2.0
2.0;1753877891.946016;18.244572;0.79;-1.6;-0.31;-0.378186;-0.948302;-0.012306;0.0;0.0;109.8;0.0;0.0;2.0
2.0;1753877891.950621;18.276097;1.0;-1.72;-0.34;-0.380504;-0.949525;-0.009526;0.0;0.0;110.7;0.0;0.0;2.0
2.0;1753877891.955226;18.24361;0.8;-1.64;-0.31;-0.377873;-0.94981;-0.010482;0.0;0.0;109.4;0.0;0.0;2.0
2.0;1753877891.959832;18.289736;0.83;-1.76;-0.28;-0.378268;-0.948842;-0.010415;0.0;0.0;110.0;0.0;0.0;2.0
2.0;1753877891.964437;18.257171;0.87;-1.74;-0.24;-0.378268;-0.948747;-0.010077;0.0;0.0;113.1;0.0;0.0;2.0
2.0;1753877891.97074;18.265625;0.84;-1.68;-0.28;-0.378078;-0.94855;-0.010492;0.0;0.0;112.0;0.0;0.0;2.0
2.0;1753877891.975152;18.257812;0.91;-1.68;-0.35;-0.380396;-0.949526;-0.01037;0.0;0.0;114.0;0.0;0.0;2.0
2.0;1753877891.979757;18.26312;0.89;-1.63;-0.26;-0.379075;-0.948612;-0.00996;0.0;0.0;115.2;0.0;0.0;2.0
2.0;1753877891.984599;18.257812;0.77;-1.68;-0.35;-0.379176;-0.948184;-0.009882;0.0;0.0;114.0;0.0;0.0;2.0
2.0;1753877891.988997;18.191406;0.91;-1.75;-0.35;-0.379664;-0.950258;-0.009638;0.0;0.0;114.0;0.0;0.0;2.0
2.0;1753877891.993602;18.195406;0.92;-1.71;-0.39;-0.379301;-0.950286;-0.010683;0.0;0.0;113.9;0.0;0.0;2.0
2.0;1753877891.99816;18.191406;0.84;-1.68;-0.35;-0.379908;-0.949648;-0.010736;0.0;0.0;112.0;0.0;0.0;2.0
2.0;1753877892.002765;18.150029;0.86;-1.7;-0.38;-0.381482;-0.95014;-0.0111;0.0;0.0;110.6;0.0;0.0;2.0
2.0;1753877892.00737;18.179237;0.8;-1.64;-0.33;-0.380678;-0.949652;-0.011583;0.0;0.0;111.3;0.0;0.0;2.0
2.0;1753877892.011976;18.191878;0.78;-1.64;-0.27;-0.380198;-0.949878;-0.011081;0.0;0.0;111.0;0.0;0.0;2.0
2.0;1753877892.016581;18.181704;0.84;-1.71;-0.34;-0.380886;-0.950114;-0.01082;0.0;0.0;113.0;0.0;0.0;2.0
2.0;1753877892.021186;18.135408;0.88;-1.61;-0.28;-0.379934;-0.949369;-0.010375;0.0;0.0;111.7;0.0;0.0;2.0
2.0;1753877892.025792;18.191821;0.77;-1.59;-0.4;-0.381267;-0.949851;-0.010318;0.0;0.0;111.1;0.0;0.0;2.0
2.0;1753877892.030397;18.18123;0.84;-1.58;-0.37;-0.378834;-0.949943;-0.011691;0.0;0.0;112.3;0.0;0.0;2.0
2.0;1753877892.035002;18.164697;0.9;-1.64;-0.29;-0.378947;-0.947846;-0.010475;0.0;0.0;113.2;0.0;0.0;2.0
2.0;1753877892.039608;18.186923;0.85;-1.66;-0.33;-0.379394;-0.94929;-0.011298;0.0;0.0;110.8;0.0;0.0;2.0
2.0;1753877892.044213;18.181231;0.83;-1.6;-0.31;-0.380066;-0.949619;-0.010028;0.0;0.0;114.5;0.0;0.0;2.0
2.0;1753877892.048818;18.154286;0.75;-1.64;-0.33;-0.380242;-0.948708;-0.010636;0.0;0.0;112.2;0.0;0.0;2.0
2.0;1753877892.053424;18.188765;0.81;-1.66;-0.32;-0.380502;-0.949311;-0.009421;0.0;0.0;110.7;0.0;0.0;2.0
2.0;1753877892.058029;18.200865;0.82;-1.71;-0.31;-0.379821;-0.949503;-0.010783;0.0;0.0;111.7;0.0;0.0;2.0
2.0;1753877892.062634;18.193244;0.83;-1.67;-0.37;-0.37914;-0.950155;-0.011172;0.0;0.0;110.9;0.0;0.0;2.0
2.0;1753877892.067239;18.162413;0.86;-1.67;-0.32;-0.380543;-0.948728;-0.010744;0.0;0.0;109.4;0.0;0.0;2.0
2.0;1753877892.071844;18.196704;0.82;-1.75;-0.33;-0.380696;-0.949807;-0.010626;0.0;0.0;111.6;0.0;0.0;2.0
2.0;1753877892.07645;18.201009;0.85;-1.73;-0.33;-0.379068;-0.950142;-0.010382;0.0;0.0;111.1;0.0;0.0;2.0
2.0;1753877892.081055;18.185854;0.96;-1.7;-0.33;-0.379695;-0.949184;-0.011213;0.0;0.0;112.4;0.0;0.0;2.0
2.0;1753877892.08566;18.188289;0.83;-1.68;-0.32;-0.379794;-0.9495;-0.010147;0.0;0.0;113.3;0.0;0.0;2.0
2.0;1753877892.090266;18.145086;0.83;-1.7;-0.38;-0.378025;-0.949648;-0.011451;0.0;0.0;112.6;0.0;0.0;2.0
2.0;1753877892.094871;18.241944;0.91;-1.64;-0.32;-0.37912;-0.950815;-0.00874;0.0;0.0;112.9;0.0;0.0;2.0
2.0;1753877892.099476;18.218014;0.86;-1.68;-0.32;-0.379053;-0.949986;-0.010671;0.0;0.0;115.4;0.0;0.0;2.0
2.0;1753877892.104082;18.193308;0.87;-1.62;-0.4;-0.380422;-0.949659;-0.010059;0.0;0.0;110.7;0.0;0.0;2.0
2.0;1753877892.108687;18.171346;0.88;-1.65;-0.36;-0.379593;-0.948896;-0.010169;0.0;0.0;114.7;0.0;0.0;2.0
2.0;1753877892.113292;18.176296;0.87;-1.57;-0.35;-0.380526;-0.949977;-0.01043;0.0;0.0;111.9;0.0;0.0;2.0
2.0;1753877892.117898;18.221852;0.9;-1.71;-0.33;-0.378562;-0.95063;-0.010951;0.0;0.0;112.0;0.0;0.0;2.0
2.0;1753877892.122503;18.155969;0.87;-1.76;-0.34;-0.379075;-0.95107;-0.010992;0.0;0.0;107.7;0.0;0.0;2.0
2.0;1753877892.127108;18.184462;0.83;-1.74;-0.39;-0.380524;-0.94987;-0.010069;0.0;0.0;109.0;0.0;0.0;2.0
2.0;1753877892.131714;18.198272;0.83;-1.64;-0.27;-0.380051;-0.950298;-0.010506;0.0;0.0;114.4;0.0;0.0;2.0
2.0;1753877892.136319;18.182529;0.78;-1.66;-0.35;-0.379728;-0.948168;-0.010039;0.0;0.0;112.6;0.0;0.0;2.0
2.0;1753877892.140924;18.182037;0.79;-1.73;-0.33;-0.378588;-0.948319;-0.011871;0.0;0.0;112.2;0.0;0.0;2.0
2.0;1753877892.145529;18.230675;0.85;-1.74;-0.36;-0.378106;-0.950209;-0.009619;0.0;0.0;111.3;0.0;0.0;2.0
2.0;1753877892.150134;18.183653;0.82;-1.62;-0.37;-0.380651;-0.949708;-0.011119;0.0;0.0;110.8;0.0;0.0;2.0
2.0;1753877892.15474;18.175467;0.79;-1.76;-0.33;-0.379825;-0.949195;-0.009984;0.0;0.0;108.4;0.0;0.0;2.0
2.0;1753877892.159345;18.214515;0.88;-1.69;-0.38;-0.379037;-0.948792;-0.009763;0.0;0.0;111.2;0.0;0.0;2.0
2.0;1753877892.16395;18.186976;0.93;-1.73;-0.32;-0.377204;-0.949972;-0.010237;0.0;0.0;110.9;0.0;0.0;2.0
2.0;1753877892.168556;18.194838;0.76;-1.71;-0.33;-0.378253;-0.950074;-0.01001;0.0;0.0;111.7;0.0;0.0;2.0
2.0;1753877892.173161;18.186823;0.94;-1.66;-0.22;-0.378774;-0.949489;-0.010201;0.0;0.0;111.2;0.0;0.0;2.0
2.0;1753877892.177766;18.20943;0.75;-1.62;-0.39;-0.378834;-0.950236;-0.010361;0.0;0.0;108.4;0.0;0.0;2.0
2.0;1753877892.182372;18.23072;0.92;-1.58;-0.37;-0.379601;-0.949171;-0.010358;0.0;0.0;112.1;0.0;0.0;2.0
2.0;1753877892.186977;18.200798;0.97;-1.68;-0.31;-0.379771;-0.949967;-0.011163;0.0;0.0;113.2;0.0;0.0;2.0
2.0;1753877892.191582;18.169142;0.99;-1.73;-0.36;-0.379134;-0.950264;-0.010184;0.0;0.0;110.3;0.0;0.0;2.0
2.0;1753877892.196188;18.184833;0.9;-1.74;-0.35;-0.379387;-0.949654;-0.009631;0.0;0.0;112.3;0.0;0.0;2.0
2.0;1753877892.200793;18.180158;0.85;-1.74;-0.3;-0.379981;-0.949942;-0.011512;0.0;0.0;110.5;0.0;0.0;2.0
2.0;1753877892.205398;18.20033;0.9;-1.67;-0.25;-0.380497;-0.948779;-0.010761;0.0;0.0;111.7;0.0;0.0;2.0
2.0;1753877892.210004;18.217462;0.77;-1.6;-0.33;-0.379561;-0.950348;-0.009116;0.0;0.0;112.3;0.0;0.0;2.0
2.0;1753877892.214609;18.187707;0.89;-1.68;-0.42;-0.379071;-0.948214;-0.009601;0.0;0.0;111.1;0.0;0.0;2.0
2.0;1753877892.219214;18.18617;0.92;-1.58;-0.36;-0.377712;-0.950316;-0.010438;0.0;0.0;110.1;0.0;0.0;2.0
2.0;1753877892.223819;18.198947;0.88;-1.63;-0.39;-0.378754;-0.948765;-0.009265;0.0;0.0;115.7;0.0;0.0;2.0
2.0;1753877892.228424;18.150324;0.74;-1.62;-0.27;-0.378831;-0.950474;-0.01059;0.0;0.0;110.7;0.0;0.0;2.0
2.0;1753877892.23303;18.192121;0.92;-1.64;-0.33;-0.378658;-0.949763;-0.010064;0.0;0.0;114.6;0.0;0.0;2.0
2.0;1753877892.237635;18.149607;0.83;-1.67;-0.45;-0.379087;-0.949608;-0.009515;0.0;0.0;110.9;0.0;0.0;2.0
2.0;1753877892.24224;18.159166;0.84;-1.67;-0.44;-0.379182;-0.949959;-0.010741;0.0;0.0;107.8;0.0;0.0;2.0
2.0;1753877892.246846;18.185176;0.93;-1.7;-0.38;-0.380201;-0.950304;-0.010128;0.0;0.0;109.7;0.0;0.0;2.0
2.0;1753877892.251451;18.17328;0.89;-1.75;-0.41;-0.378821;-0.948878;-0.010312;0.0;0.0;112.0;0.0;0.0;2.0
2.0;1753877892.2559;18.191406;0.91;-1.68;-0.35;-0.378932;-0.949526;-0.010248;0.0;0.0;112.0;0.0;0.0;2.0
2.0;1753877892.260505;18.162193;0.83;-1.65;-0.37;-0.37895;-0.949614;-0.009132;0.0;0.0;113.2;0.0;0.0;2.0
2.0;1753877892.26511;18.203406;0.92;-1.64;-0.32;-0.377871;-0.950168;-0.010521;0.0;0.0;111.0;0.0;0.0;2.0
2.0;1753877892.269716;18.186872;0.86;-1.75;-0.33;-0.37907;-0.949587;-0.009809;0.0;0.0;111.2;0.0;0.0;2.0
2.0;1753877892.274321;18.216025;0.84;-1.62;-0.32;-0.379727;-0.949841;-0.009673;0.0;0.0;109.6;0.0;0.0;2.0
2.0;1753877892.278926;18.208393;0.84;-1.59;-0.39;-0.378656;-0.949612;-0.008966;0.0;0.0;109.4;0.0;0.0;2.0
2.0;1753877892.283532;18.17498;1.02;-1.65;-0.36;-0.380616;-0.950026;-0.010549;0.0;0.0;113.3;0.0;0.0;2.0
2.0;1753877892.288137;18.184305;0.92;-1.7;-0.39;-0.379421;-0.949159;-0.009356;0.0;0.0;110.5;0.0;0.0;2.0
2.0;1753877892.292742;18.186504;1.0;-1.63;-0.29;-0.378582;-0.94925;-0.010079;0.0;0.0;108.8;0.0;0.0;2.0
2.0;1753877892.297348;18.165548;0.95;-1.62;-0.34;-0.377471;-0.948577;-0.01057;0.0;0.0;114.4;0.0;0.0;2.0
2.0;1753877892.301953;18.189544;1.0;-1.6;-0.33;-0.377941;-0.950264;-0.01003;0.0;0.0;112.8;0.0;0.0;2.0
2.0;1753877892.306558;18.182952;0.91;-1.65;-0.31;-0.37821;-0.94964;-0.008727;0.0;0.0;116.6;0.0;0.0;2.0
2.0;1753877892.311164;18.155162;0.97;-1.73;-0.36;-0.37933;-0.949839;-0.010507;0.0;0.0;110.3;0.0;0.0;2.0
2.0;1753877892.315769;18.180989;0.93;-1.69;-0.4;-0.379799;-0.948621;-0.0099;0.0;0.0;114.3;0.0;0.0;2.0
2.0;1753877892.320374;18.227667;1.0;-1.66;-0.37;-0.378543;-0.949017;-0.009284;0.0;0.0;111.3;0.0;0.0;2.0
2.0;1753877892.324979;18.22804;0.88;-1.64;-0.41;-0.38003;-0.949371;-0.009769;0.0;0.0;114.0;0.0;0.0;2.0
2.0;1753877892.329584;18.209287;0.98;-1.64;-0.41;-0.379322;-0.949015;-0.011321;0.0;0.0;112.3;0.0;0.0;2.0
2.0;1753877892.33419;18.234338;0.93;-1.74;-0.36;-0.37833;-0.94944;-0.010564;0.0;0.0;110.0;0.0;0.0;2.0
2.0;1753877892.338795;18.181483;0.85;-1.62;-0.35;-0.379326;-0.948724;-0.009553;0.0;0.0;111.9;0.0;0.0;2.0
2.0;1753877892.3434;18.166588;0.9;-1.64;-0.45;-0.378909;-0.949547;-0.011185;0.0;0.0;110.8;0.0;0.0;2.0
2.0;1753877892.348006;18.186691;1.09;-1.71;-0.36;-0.378283;-0.949732;-0.011051;0.0;0.0;110.5;0.0;0.0;2.0
2.0;1753877892.352611;18.192078;0.89;-1.63;-0.33;-0.378174;-0.949288;-0.010824;0.0;0.0;113.9;0.0;0.0;2.0
2.0;1753877892.357216;18.21574;0.88;-1.62;-0.38;-0.379489;-0.949266;-0.01049;0.0;0.0;111.2;0.0;0.0;2.0
2.0;1753877892.361822;18.176817;0.93;-1.59;-0.38;-0.379487;-0.949664;-0.010097;0.0;0.0;114.1;0.0;0.0;2.0
2.0;1753877892.366427;18.172691;0.79;-1.63;-0.4;-0.378809;-0.948942;-0.009511;0.0;0.0;111.7;0.0;0.0;2.0
2.0;1753877892.371032;18.238164;0.93;-1.61;-0.36;-0.379467;-0.949609;-0.011052;0.0;0.0;113.1;0.0;0.0;2.0
2.0;1753877892.375638;18.163823;0.89;-1.56;-0.41;-0.38024;-0.950279;-0.009525;0.0;0.0;112.1;0.0;0.0;2.0
2.0;1753877892.380243;18.170925;0.95;-1.63;-0.43;-0.377853;-0.950682;-0.009282;0.0;0.0;112.2;0.0;0.0;2.0
2.0;1753877892.384848;18.219362;0.93;-1.64;-0.35;-0.378983;-0.949451;-0.010583;0.0;0.0;112.5;0.0;0.0;2.0
2.0;1753877892.389454;18.23481;0.99;-1.7;-0.29;-0.379087;-0.950867;-0.009476;0.0;0.0;113.0;0.0;0.0;2.0
2.0;1753877892.394059;18.17203;0.94;-1.68;-0.33;-0.379159;-0.949305;-0.010292;0.0;0.0;115.2;0.0;0.0;2.0
2.0;1753877892.398664;18.185968;0.95;-1.66;-0.34;-0.380474;-0.949838;-0.011309;0.0;0.0;112.7;0.0;0.0;2.0
2.0;1753877892.403269;18.176657;0.84;-1.66;-0.35;-0.379206;-0.949606;-0.010661;0.0;0.0;112.5;0.0;0.0;2.0
2.0;1753877892.407874;18.208342;0.92;-1.62;-0.44;-0.380318;-0.948426;-0.012056;0.0;0.0;110.3;0.0;0.0;2.0
2.0;1753877892.41248;18.228811;0.79;-1.62;-0.35;-0.379448;-0.949943;-0.011535;0.0;0.0;109.2;0.0;0.0;2.0
2.0;1753877892.417085;18.184691;0.94;-1.63;-0.33;-0.38001;-0.950673;-0.010376;0.0;0.0;110.8;0.0;0.0;2.0
2.0;1753877892.42169;18.204057;0.89;-1.66;-0.35;-0.37917;-0.949967;-0.011539;0.0;0.0;113.8;0.0;0.0;2.0
2.0;1753877892.426296;18.191688;0.79;-1.61;-0.28;-0.380427;-0.949892;-0.010895;0.0;0.0;115.3;0.0;0.0;2.0
2.0;1753877892.430901;18.256026;0.84;-1.63;-0.28;-0.379233;-0.950024;-0.011289;0.0;0.0;111.2;0.0;0.0;2.0
2.0;1753877892.435506;18.210897;0.94;-1.66;-0.42;-0.378327;-0.949845;-0.010392;0.0;0.0;109.9;0.0;0.0;2.0
2.0;1753877892.440112;18.247673;0.85;-1.66;-0.36;-0.379341;-0.950132;-0.010004;0.0;0.0;110.6;0.0;0.0;2.0
2.0;1753877892.444717;18.179829;0.87;-1.67;-0.36;-0.378184;-0.949593;-0.010118;0.0;0.0;110.9;0.0;0.0;2.0
2.0;1753877892.449322;18.204599;0.97;-1.63;-0.33;-0.378692;-0.949091;-0.011382;0.0;0.0;114.4;0.0;0.0;2.0
2.0;1753877892.453928;18.195303;0.84;-1.7;-0.35;-0.381049;-0.948912;-0.009736;0.0;0.0;113.8;0.0;0.0;2.0
2.0;1753877892.458533;18.167918;0.86;-1.59;-0.4;-0.377616;-0.94925;-0.010894;0.0;0.0;112.0;0.0;0.0;2.0
2.0;1753877892.463138;18.209;0.95;-1.73;-0.33;-0.379204;-0.949373;-0.009962;0.0;0.0;115.2;0.0;0.0;2.0
2.0;1753877892.467744;18.169592;0.89;-1.6;-0.34;-0.380186;-0.949513;-0.011958;0.0;0.0;107.9;0.0;0.0;2.0
2.0;1753877892.472349;18.219941;0.91;-1.54;-0.4;-0.378792;-0.94968;-0.010449;0.0;0.0;111.5;0.0;0.0;2.0
2.0;1753877892.476954;18.260444;0.93;-1.7;-0.49;-0.37983;-0.949668;-0.010769;0.0;0.0;110.5;0.0;0.0;2.0
2.0;1753877892.481559;18.185135;0.85;-1.63;-0.37;-0.379083;-0.949273;-0.009885;0.0;0.0;112.2;0.0;0.0;2.0
2.0;1753877892.486164;18.217305;0.97;-1.49;-0.37;-0.380442;-0.949848;-0.010027;0.0;0.0;116.7;0.0;0.0;2.0
2.0;1753877892.49077;18.201069;0.89;-1.6;-0.32;-0.380609;-0.948901;-0.011595;0.0;0.0;111.2;0.0;0.0;2.0
2.0;1753877892.495375;18.187021;0.95;-1.63;-0.37;-0.37875;-0.949588;-0.011677;0.0;0.0;109.8;0.0;0.0;2.0
2.0;1753877892.49998;18.231894;0.89;-1.56;-0.37;-0.380378;-0.949883;-0.010588;0.0;0.0;109.1;0.0;0.0;2.0
2.0;1753877892.504586;18.194386;1.01;-1.56;-0.28;-0.378481;-0.949275;-0.010979;0.0;0.0;111.3;0.0;0.0;2.0
2.0;1753877892.509191;18.251037;0.91;-1.59;-0.31;-0.379642;-0.949955;-0.009871;0.0;0.0;116.1;0.0;0.0;2.0
2.0;1753877892.513796;18.184502;0.95;-1.58;-0.38;-0.379274;-0.949244;-0.010378;0.0;0.0;110.7;0.0;0.0;2.0
2.0;1753877892.518402;18.165672;0.94;-1.58;-0.3;-0.380145;-0.949372;-0.010976;0.0;0.0;115.0;0.0;0.0;2.0
2.0;1753877892.523007;18.231208;0.96;-1.62;-0.37;-0.379315;-0.950239;-0.010144;0.0;0.0;116.1;0.0;0.0;2.0
2.0;1753877892.527612;18.193977;0.9;-1.65;-0.34;-0.379633;-0.95006;-0.011328;0.0;0.0;112.5;0.0;0.0;2.0
2.0;1753877892.532218;18.182263;0.93;-1.55;-0.34;-0.379143;-0.950645;-0.010387;0.0;0.0;112.7;0.0;0.0;2.0
2.0;1753877892.536823;18.170514;0.88;-1.53;-0.41;-0.379403;-0.950915;-0.011979;0.0;0.0;112.2;0.0;0.0;2.0
2.0;1753877892.541428;18.216193;0.95;-1.57;-0.33;-0.380114;-0.94937;-0.011727;0.0;0.0;114.5;0.0;0.0;2.0
2.0;1753877892.546034;18.220511;0.94;-1.55;-0.34;-0.379856;-0.949421;-0.011501;0.0;0.0;110.9;0.0;0.0;2.0
2.0;1753877892.550639;18.185187;0.93;-1.67;-0.38;-0.379895;-0.949643;-0.012233;0.0;0.0;115.4;0.0;0.0;2.0
2.0;1753877892.555244;18.218249;0.87;-1.64;-0.32;-0.380795;-0.949852;-0.010228;0.0;0.0;112.2;0.0;0.0;2.0
2.0;1753877892.559849;18.208902;0.92;-1.58;-0.29;-0.377895;-0.950031;-0.010691;0.0;0.0;109.8;0.0;0.0;2.0
2.0;1753877892.564454;18.207801;0.97;-1.61;-0.35;-0.380312;-0.950012;-0.012002;0.0;0.0;112.7;0.0;0.0;2.0
2.0;1753877892.56906;18.174494;0.87;-1.61;-0.39;-0.37966;-0.94982;-0.010668;0.0;0.0;114.0;0.0;0.0;2.0
2.0;1753877892.573665;18.219991;0.98;-1.62;-0.3;-0.379801;-0.950407;-0.010707;0.0;0.0;112.5;0.0;0.0;2.0
2.0;1753877892.57827;18.252981;0.83;-1.52;-0.28;-0.379329;-0.949417;-0.01051;0.0;0.0;110.7;0.0;0.0;2.0
2.0;1753877892.582876;18.273887;0.96;-1.56;-0.27;-0.379614;-0.95008;-0.010473;0.0;0.0;107.6;0.0;0.0;2.0
2.0;1753877892.587481;18.239578;0.97;-1.57;-0.32;-0.380617;-0.949557;-0.012199;0.0;0.0;113.5;0.0;0.0;2.0
2.0;1753877892.592086;18.247039;0.97;-1.57;-0.31;-0.380421;-0.949759;-0.010546;0.0;0.0;113.3;0.0;0.0;2.0
2.0;1753877892.596692;18.224672;0.82;-1.66;-0.38;-0.379412;-0.948981;-0.012095;0.0;0.0;111.4;0.0;0.0;2.0
2.0;1753877892.601297;18.213096;0.89;-1.53;-0.4;-0.378558;-0.949706;-0.011814;0.0;0.0;113.3;0.0;0.0;2.0
2.0;1753877892.605902;18.266368;0.98;-1.55;-0.32;-0.379106;-0.949301;-0.009846;0.0;0.0;112.0;0.0;0.0;2.0
2.0;1753877892.610508;18.220871;0.86;-1.55;-0.35;-0.378028;-0.949401;-0.010348;0.0;0.0;112.8;0.0;0.0;2.0
2.0;1753877892.615113;18.225951;0.89;-1.67;-0.4;-0.38155;-0.950751;-0.010951;0.0;0.0;109.2;0.0;0.0;2.0
2.0;1753877892.619718;18.225461;0.88;-1.56;-0.38;-0.378667;-0.950294;-0.011677;0.0;0.0;111.9;0.0;0.0;2.0
2.0;1753877892.624323;18.241747;0.95;-1.62;-0.32;-0.378238;-0.949713;-0.010411;0.0;0.0;112.4;0.0;0.0;2.0
2.0;1753877892.628929;18.200553;0.97;-1.5;-0.36;-0.380646;-0.950667;-0.012161;0.0;0.0;111.6;0.0;0.0;2.0
2.0;1753877892.633534;18.22888;0.96;-1.54;-0.37;-0.37819;-0.948828;-0.01026;0.0;0.0;114.0;0.0;0.0;2.0
2.0;1753877892.638139;18.236451;0.96;-1.58;-0.3;-0.379763;-0.949659;-0.0103;0.0;0.0;115.0;0.0;0.0;2.0
2.0;1753877892.642744;18.242363;0.94;-1.73;-0.43;-0.378781;-0.949049;-0.010803;0.0;0.0;114.2;0.0;0.0;2.0
2.0;1753877892.64735;18.212809;0.83;-1.49;-0.37;-0.379733;-0.949249;-0.011657;0.0;0.0;113.1;0.0;0.0;2.0
2.0;1753877892.651955;18.235551;0.97;-1.6;-0.46;-0.378695;-0.95016;-0.011329;0.0;0.0;112.0;0.0;0.0;2.0
2.0;1753877892.65656;18.239775;0.97;-1.59;-0.25;-0.381399;-0.949777;-0.011116;0.0;0.0;111.8;0.0;0.0;2.0
2.0;1753877892.661166;18.244751;0.87;-1.61;-0.28;-0.378995;-0.949963;-0.011212;0.0;0.0;111.8;0.0;0.0;2.0
2.0;1753877892.665771;18.251259;0.96;-1.55;-0.3;-0.380283;-0.948978;-0.011876;0.0;0.0;114.9;0.0;0.0;2.0
2.0;1753877892.670376;18.233024;0.89;-1.66;-0.41;-0.38161;-0.949742;-0.009473;0.0;0.0;111.8;0.0;0.0;2.0
2.0;1753877892.674982;18.239422;0.86;-1.57;-0.41;-0.378905;-0.949435;-0.011555;0.0;0.0;111.6;0.0;0.0;2.0
2.0;1753877892.679587;18.220423;0.87;-1.49;-0.27;-0.379319;-0.950583;-0.011528;0.0;0.0;113.9;0.0;0.0;2.0
2.0;1753877892.684192;18.200093;0.93;-1.42;-0.39;-0.379669;-0.949861;-0.010505;0.0;0.0;108.6;0.0;0.0;2.0
2.0;1753877892.688798;18.214813;0.98;-1.5;-0.35;-0.377559;-0.951523;-0.010986;0.0;0.0;114.7;0.0;0.0;2.0
2.0;1753877892.693403;18.210593;0.8;-1.45;-0.32;-0.380441;-0.949721;-0.010352;0.0;0.0;108.3;0.0;0.0;2.0
2.0;1753877892.698008;18.223522;1.0;-1.57;-0.34;-0.379617;-0.950207;-0.011489;0.0;0.0;113.4;0.0;0.0;2.0
2.0;1753877892.702613;18.197171;0.86;-1.53;-0.41;-0.380404;-0.950966;-0.011588;0.0;0.0;110.8;0.0;0.0;2.0
2.0;1753877892.707219;18.241091;1.01;-1.54;-0.38;-0.380902;-0.948526;-0.010612;0.0;0.0;112.3;0.0;0.0;2.0
2.0;1753877892.711824;18.245694;0.94;-1.57;-0.38;-0.378764;-0.950138;-0.011493;0.0;0.0;111.9;0.0;0.0;2.0
2.0;1753877892.716429;18.255916;0.87;-1.52;-0.42;-0.379809;-0.950546;-0.011136;0.0;0.0;114.6;0.0;0.0;2.0
2.0;1753877892.7226;18.230469;0.91;-1.54;-0.35;-0.379908;-0.950014;-0.011224;0.0;0.0;112.0;0.0;0.0;2.0
2.0;1753877892.727205;18.200745;0.94;-1.43;-0.36;-0.378932;-0.950552;-0.011147;0.0;0.0;113.9;0.0;0.0;2.0
2.0;1753877892.73181;18.23689;0.95;-1.68;-0.37;-0.379238;-0.950106;-0.011214;0.0;0.0;109.8;0.0;0.0;2.0
2.0;1753877892.736416;18.229966;0.9;-1.64;-0.27;-0.379706;-0.949557;-0.011033;0.0;0.0;110.6;0.0;0.0;2.0
2.0;1753877892.741021;18.259567;0.87;-1.64;-0.28;-0.379185;-0.949975;-0.01206;0.0;0.0;114.4;0.0;0.0;2.0
2.0;1753877892.745626;18.290829;0.96;-1.49;-0.33;-0.380816;-0.949411;-0.010193;0.0;0.0;111.4;0.0;0.0;2.0
2.0;1753877892.750232;18.221432;0.92;-1.49;-0.32;-0.378381;-0.949699;-0.012244;0.0;0.0;107.9;0.0;0.0;2.0
2.0;1753877892.754837;18.229656;0.93;-1.63;-0.3;-0.37634;-0.949642;-0.011816;0.0;0.0;107.2;0.0;0.0;2.0
2.0;1753877892.75902;18.257812;0.91;-1.61;-0.28;-0.37942;-0.94977;-0.011102;0.0;0.0;109.0;0.0;0.0;2.0
2.0;1753877892.763626;18.227495;0.96;-1.66;-0.29;-0.37925;-0.950201;-0.010539;0.0;0.0;108.6;0.0;0.0;2.0
2.0;1753877892.768231;18.282106;0.9;-1.54;-0.35;-0.38003;-0.949453;-0.01123;0.0;0.0;108.1;0.0;0.0;2.0
2.0;1753877892.772836;18.272777;0.8;-1.6;-0.28;-0.379787;-0.949386;-0.010904;0.0;0.0;107.3;0.0;0.0;2.0
2.0;1753877892.777442;18.298157;0.97;-1.74;-0.28;-0.377593;-0.949445;-0.010084;0.0;0.0;110.6;0.0;0.0;2.0
2.0;1753877892.782047;18.256828;0.88;-1.61;-0.28;-0.381429;-0.949531;-0.01077;0.0;0.0;109.8;0.0;0.0;2.0
2.0;1753877892.786652;18.313342;0.85;-1.64;-0.36;-0.380264;-0.949282;-0.009987;0.0;0.0;107.9;0.0;0.0;2.0
2.0;1753877892.791258;18.267699;0.81;-1.58;-0.31;-0.379342;-0.949396;-0.010436;0.0;0.0;109.5;0.0;0.0;2.0
2.0;1753877892.795863;18.263026;0.86;-1.57;-0.35;-0.37956;-0.949574;-0.010311;0.0;0.0;108.4;0.0;0.0;2.0
2.0;1753877892.800468;18.258564;0.83;-1.7;-0.3;-0.379892;-0.949736;-0.009164;0.0;0.0;108.8;0.0;0.0;2.0
2.0;1753877892.805073;18.291347;0.8;-1.56;-0.35;-0.380905;-0.950219;-0.010032;0.0;0.0;105.7;0.0;0.0;2.0
2.0;1753877892.809678;18.310658;0.9;-1.72;-0.35;-0.381088;-0.949211;-0.00972;0.0;0.0;110.7;0.0;0.0;2.0
2.0;1753877892.81791;18.265625;0.77;-1.61;-0.35;-0.380274;-0.94977;-0.009638;0.0;0.0;109.0;0.0;0.0;2.0
2.0;1753877892.822516;18.235148;0.83;-1.62;-0.36;-0.38025;-0.950138;-0.009318;0.0;0.0;109.7;0.0;0.0;2.0
2.0;1753877892.827121;18.280883;0.81;-1.63;-0.32;-0.378229;-0.949386;-0.009466;0.0;0.0;110.4;0.0;0.0;2.0
2.0;1753877892.831726;18.257632;0.8;-1.57;-0.32;-0.380447;-0.949235;-0.009922;0.0;0.0;108.5;0.0;0.0;2.0
2.0;1753877892.836331;18.264138;0.83;-1.63;-0.3;-0.381192;-0.950236;-0.010634;0.0;0.0;108.2;0.0;0.0;2.0
2.0;1753877892.840937;18.265641;0.88;-1.48;-0.3;-0.380493;-0.950259;-0.010258;0.0;0.0;110.2;0.0;0.0;2.0
2.0;1753877892.845542;18.266645;0.91;-1.56;-0.28;-0.3794;-0.949522;-0.009433;0.0;0.0;109.6;0.0;0.0;2.0
2.0;1753877892.85344;18.265625;0.84;-1.61;-0.28;-0.379664;-0.949648;-0.010004;0.0;0.0;109.0;0.0;0.0;2.0
2.0;1753877892.858046;18.255882;0.86;-1.63;-0.22;-0.380993;-0.950074;-0.009536;0.0;0.0;109.9;0.0;0.0;2.0
2.0;1753877892.862651;18.263381;0.87;-1.59;-0.19;-0.380733;-0.949855;-0.011063;0.0;0.0;107.2;0.0;0.0;2.0
2.0;1753877892.867256;18.268518;0.78;-1.66;-0.29;-0.3794;-0.950225;-0.009769;0.0;0.0;111.7;0.0;0.0;2.0
2.0;1753877892.871862;18.259523;0.84;-1.46;-0.35;-0.379541;-0.949345;-0.010106;0.0;0.0;108.1;0.0;0.0;2.0
2.0;1753877892.876467;18.274737;0.9;-1.55;-0.25;-0.376205;-0.950141;-0.010023;0.0;0.0;108.9;0.0;0.0;2.0
2.0;1753877892.881072;18.276304;0.93;-1.6;-0.27;-0.381831;-0.950368;-0.010741;0.0;0.0;109.9;0.0;0.0;2.0
2.0;1753877892.885677;18.248752;0.82;-1.59;-0.19;-0.379419;-0.950273;-0.010842;0.0;0.0;106.3;0.0;0.0;2.0
2.0;1753877892.890283;18.271425;0.91;-1.65;-0.31;-0.378982;-0.950916;-0.010206;0.0;0.0;107.7;0.0;0.0;2.0
2.0;1753877892.89546;18.265625;0.91;-1.54;-0.28;-0.379664;-0.95038;-0.011224;0.0;0.0;109.0;0.0;0.0;2.0
2.0;1753877892.900066;18.262128;0.88;-1.56;-0.31;-0.37979;-0.950133;-0.011293;0.0;0.0;109.3;0.0;0.0;2.0
2.0;1753877892.904671;18.28445;0.92;-1.45;-0.29;-0.380475;-0.950117;-0.011293;0.0;0.0;109.0;0.0;0.0;2.0
2.0;1753877892.909276;18.272837;1.0;-1.5;-0.24;-0.38138;-0.951302;-0.010686;0.0;0.0;111.2;0.0;0.0;2.0
2.0;1753877892.913881;18.270505;0.86;-1.32;-0.25;-0.380256;-0.950524;-0.012421;0.0;0.0;110.0;0.0;0.0;2.0
2.0;1753877892.918486;18.265456;0.79;-1.48;-0.3;-0.37881;-0.950239;-0.011115;0.0;0.0;111.3;0.0;0.0;2.0
2.0;1753877892.923092;18.256272;0.9;-1.39;-0.27;-0.379487;-0.950426;-0.010915;0.0;0.0;108.7;0.0;0.0;2.0
2.0;1753877892.927697;18.266301;0.91;-1.59;-0.28;-0.380611;-0.950316;-0.010107;0.0;0.0;115.4;0.0;0.0;2.0
2.0;1753877892.932302;18.260538;0.86;-1.56;-0.2;-0.377641;-0.950108;-0.010647;0.0;0.0;108.6;0.0;0.0;2.0
2.0;1753877892.936908;18.275374;0.94;-1.56;-0.21;-0.380257;-0.950401;-0.011929;0.0;0.0;111.5;0.0;0.0;2.0
2.0;1753877892.941513;18.304067;0.83;-1.64;-0.26;-0.379787;-0.950413;-0.010967;0.0;0.0;112.0;0.0;0.0;2.0
2.0;1753877892.946118;18.28877;1.0;-1.63;-0.34;-0.380425;-0.95018;-0.010799;0.0;0.0;112.8;0.0;0.0;2.0
2.0;1753877892.950724;18.281113;0.92;-1.64;-0.31;-0.377882;-0.950927;-0.011177;0.0;0.0;110.6;0.0;0.0;2.0
2.0;1753877892.955329;18.258269;0.92;-1.51;-0.29;-0.379151;-0.950475;-0.011329;0.0;0.0;114.3;0.0;0.0;2.0
2.0;1753877892.959934;18.274928;0.83;-1.62;-0.31;-0.379616;-0.950215;-0.011534;0.0;0.0;112.8;0.0;0.0;2.0
2.0;1753877892.96454;18.261984;0.89;-1.57;-0.29;-0.378117;-0.94971;-0.011522;0.0;0.0;114.1;0.0;0.0;2.0
2.0;1753877892.969145;18.274867;0.86;-1.58;-0.27;-0.379334;-0.950729;-0.01218;0.0;0.0;113.1;0.0;0.0;2.0
2.0;1753877892.97375;18.269401;0.9;-1.61;-0.28;-0.379148;-0.950179;-0.011785;0.0;0.0;118.9;0.0;0.0;2.0
2.0;1753877892.98113;18.265625;0.91;-1.61;-0.28;-0.38003;-0.950258;-0.011834;0.0;0.0;115.0;0.0;0.0;2.0
2.0;1753877892.98554;18.25;0.91;-1.68;-0.28;-0.379054;-0.94855;-0.00976;0.0;0.0;115.0;0.0;0.0;2.0
2.0;1753877892.985947;18.222656;0.84;-1.61;-0.28;-0.379542;-0.95038;-0.01037;0.0;0.0;118.0;0.0;0.0;2.0
2.0;1753877892.991927;18.222656;0.91;-1.54;-0.35;-0.379542;-0.94977;-0.009638;0.0;0.0;118.0;0.0;0.0;2.0
2.0;1753877892.995095;18.207031;0.84;-1.61;-0.28;-0.381738;-0.949404;-0.01098;0.0;0.0;118.0;0.0;0.0;2.0
2.0;1753877892.999667;18.207031;0.84;-1.68;-0.35;-0.378322;-0.949892;-0.010492;0.0;0.0;118.0;0.0;0.0;2.0
2.0;1753877893.004272;18.241432;0.79;-1.7;-0.39;-0.377408;-0.950437;-0.00987;0.0;0.0;117.9;0.0;0.0;2.0
2.0;1753877893.008878;18.204809;0.83;-1.61;-0.3;-0.379491;-0.949969;-0.009049;0.0;0.0;117.8;0.0;0.0;2.0
2.0;1753877893.013483;18.214976;0.83;-1.72;-0.4;-0.378999;-0.949707;-0.009415;0.0;0.0;121.5;0.0;0.0;2.0
2.0;1753877893.018088;18.189762;0.83;-1.63;-0.35;-0.37675;-0.950059;-0.009923;0.0;0.0;123.2;0.0;0.0;2.0
2.0;1753877893.022694;18.205882;0.87;-1.78;-0.29;-0.377249;-0.94984;-0.010659;0.0;0.0;120.3;0.0;0.0;2.0
2.0;1753877893.027299;18.208873;0.83;-1.71;-0.37;-0.379426;-0.950179;-0.010151;0.0;0.0;118.6;0.0;0.0;2.0
2.0;1753877893.031904;18.194883;0.83;-1.61;-0.39;-0.37713;-0.950646;-0.010288;0.0;0.0;117.2;0.0;0.0;2.0
2.0;1753877893.03651;18.221784;0.83;-1.66;-0.32;-0.379395;-0.950039;-0.010363;0.0;0.0;120.5;0.0;0.0;2.0
2.0;1753877893.041115;18.216242;0.9;-1.7;-0.33;-0.378627;-0.950242;-0.009938;0.0;0.0;120.7;0.0;0.0;2.0
2.0;1753877893.04572;18.183578;0.85;-1.6;-0.39;-0.379265;-0.949848;-0.010421;0.0;0.0;120.8;0.0;0.0;2.0
2.0;1753877893.050326;18.208145;0.84;-1.66;-0.39;-0.379577;-0.94973;-0.011206;0.0;0.0;119.9;0.0;0.0;2.0
2.0;1753877893.054931;18.189572;0.88;-1.64;-0.35;-0.379275;-0.950738;-0.012094;0.0;0.0;117.2;0.0;0.0;2.0
2.0;1753877893.059536;18.190157;0.85;-1.66;-0.42;-0.38019;-0.949085;-0.009888;0.0;0.0;119.2;0.0;0.0;2.0
2.0;1753877893.064141;18.232891;0.81;-1.67;-0.35;-0.378792;-0.95049;-0.010004;0.0;0.0;119.2;0.0;0.0;2.0
2.0;1753877893.068746;18.216642;0.82;-1.63;-0.32;-0.380255;-0.949978;-0.009936;0.0;0.0;121.0;0.0;0.0;2.0
2.0;1753877893.073352;18.207345;0.84;-1.77;-0.4;-0.379998;-0.951421;-0.009714;0.0;0.0;112.6;0.0;0.0;2.0
2.0;1753877893.077957;18.2142;0.89;-1.61;-0.35;-0.378102;-0.950416;-0.010052;0.0;0.0;119.0;0.0;0.0;2.0
2.0;1753877893.082562;18.207557;0.86;-1.72;-0.36;-0.377922;-0.950356;-0.010045;0.0;0.0;117.2;0.0;0.0;2.0
2.0;1753877893.087168;18.227339;0.83;-1.63;-0.34;-0.380651;-0.949946;-0.00899;0.0;0.0;120.4;0.0;0.0;2.0
2.0;1753877893.091773;18.175748;0.9;-1.56;-0.28;-0.378683;-0.949858;-0.010485;0.0;0.0;120.2;0.0;0.0;2.0
2.0;1753877893.096378;18.197366;0.86;-1.64;-0.36;-0.378371;-0.949683;-0.010856;0.0;0.0;117.6;0.0;0.0;2.0
2.0;1753877893.100984;18.188924;0.82;-1.7;-0.37;-0.379033;-0.949786;-0.012402;0.0;0.0;118.3;0.0;0.0;2.0
2.0;1753877893.105589;18.197573;0.82;-1.69;-0.37;-0.379372;-0.949971;-0.010433;0.0;0.0;115.2;0.0;0.0;2.0
2.0;1753877893.110194;18.217109;0.86;-1.74;-0.26;-0.376915;-0.949268;-0.010725;0.0;0.0;118.5;0.0;0.0;2.0
2.0;1753877893.1148;18.179869;0.8;-1.59;-0.38;-0.376271;-0.949478;-0.009205;0.0;0.0;113.9;0.0;0.0;2.0
2.0;1753877893.119405;18.204739;0.88;-1.69;-0.31;-0.378633;-0.950079;-0.011604;0.0;0.0;120.3;0.0;0.0;2.0
2.0;1753877893.12401;18.21244;0.85;-1.66;-0.37;-0.378187;-0.95023;-0.009629;0.0;0.0;119.4;0.0;0.0;2.0
2.0;1753877893.128616;18.204302;0.82;-1.68;-0.34;-0.378394;-0.95019;-0.010091;0.0;0.0;116.1;0.0;0.0;2.0
2.0;1753877893.133221;18.185832;0.81;-1.64;-0.39;-0.378343;-0.949577;-0.010153;0.0;0.0;122.5;0.0;0.0;2.0
2.0;1753877893.137826;18.182032;0.84;-1.69;-0.3;-0.378887;-0.950408;-0.010715;0.0;0.0;122.1;0.0;0.0;2.0
2.0;1753877893.142431;18.188828;0.84;-1.71;-0.26;-0.378143;-0.949217;-0.009759;0.0;0.0;116.0;0.0;0.0;2.0
2.0;1753877893.147036;18.205958;0.85;-1.68;-0.38;-0.379575;-0.949823;-0.010098;0.0;0.0;121.2;0.0;0.0;2.0
2.0;1753877893.151642;18.221025;0.88;-1.63;-0.42;-0.377621;-0.950386;-0.010586;0.0;0.0;116.2;0.0;0.0;2.0
2.0;1753877893.156247;18.218915;0.81;-1.67;-0.33;-0.378863;-0.949831;-0.010212;0.0;0.0;115.1;0.0;0.0;2.0
2.0;1753877893.160852;18.20606;0.87;-1.69;-0.32;-0.379836;-0.949667;-0.010423;0.0;0.0;120.8;0.0;0.0;2.0
2.0;1753877893.165458;18.196919;0.82;-1.69;-0.41;-0.376619;-0.950395;-0.010804;0.0;0.0;118.0;0.0;0.0;2.0
2.0;1753877893.170063;18.225441;0.87;-1.64;-0.32;-0.37778;-0.950751;-0.010165;0.0;0.0;114.2;0.0;0.0;2.0
2.0;1753877893.174668;18.197709;0.85;-1.65;-0.29;-0.378178;-0.949581;-0.010041;0.0;0.0;120.3;0.0;0.0;2.0
2.0;1753877893.179274;18.220452;0.84;-1.64;-0.37;-0.380628;-0.950305;-0.009627;0.0;0.0;118.0;0.0;0.0;2.0
2.0;1753877893.183879;18.201457;0.89;-1.79;-0.31;-0.379552;-0.949419;-0.010901;0.0;0.0;113.0;0.0;0.0;2.0
2.0;1753877893.188484;18.206149;0.77;-1.72;-0.38;-0.377209;-0.950072;-0.011999;0.0;0.0;118.6;0.0;0.0;2.0
2.0;1753877893.19309;18.214662;0.79;-1.67;-0.36;-0.381833;-0.949817;-0.010973;0.0;0.0;117.1;0.0;0.0;2.0
2.0;1753877893.197695;18.206504;0.92;-1.66;-0.33;-0.378506;-0.949713;-0.009154;0.0;0.0;116.2;0.0;0.0;2.0
2.0;1753877893.2023;18.193919;0.86;-1.73;-0.28;-0.378802;-0.949424;-0.009934;0.0;0.0;119.9;0.0;0.0;2.0
2.0;1753877893.206905;18.206044;0.74;-1.61;-0.4;-0.377801;-0.949016;-0.010282;0.0;0.0;119.8;0.0;0.0;2.0
2.0;1753877893.211511;18.198084;0.87;-1.67;-0.37;-0.378167;-0.950278;-0.010013;0.0;0.0;118.7;0.0;0.0;2.0
2.0;1753877893.216116;18.205652;0.87;-1.73;-0.3;-0.377899;-0.950195;-0.010672;0.0;0.0;115.3;0.0;0.0;2.0
2.0;1753877893.220721;18.204866;0.84;-1.69;-0.35;-0.379661;-0.950178;-0.011507;0.0;0.0;118.4;0.0;0.0;2.0
2.0;1753877893.225326;18.197423;0.85;-1.65;-0.37;-0.379478;-0.949633;-0.009078;0.0;0.0;118.5;0.0;0.0;2.0
2.0;1753877893.229932;18.212819;0.81;-1.62;-0.41;-0.375122;-0.948025;-0.00961;0.0;0.0;117.4;0.0;0.0;2.0
2.0;1753877893.234537;18.192708;0.86;-1.72;-0.32;-0.378345;-0.949988;-0.01156;0.0;0.0;111.9;0.0;0.0;2.0
2.0;1753877893.239142;18.197499;0.82;-1.62;-0.39;-0.379017;-0.949642;-0.01098;0.0;0.0;121.5;0.0;0.0;2.0
2.0;1753877893.243748;18.170915;0.83;-1.68;-0.38;-0.380477;-0.949691;-0.011196;0.0;0.0;123.2;0.0;0.0;2.0
2.0;1753877893.248353;18.216021;0.89;-1.67;-0.26;-0.376896;-0.949646;-0.011166;0.0;0.0;118.3;0.0;0.0;2.0
2.0;1753877893.252958;18.204852;0.83;-1.75;-0.43;-0.378459;-0.949546;-0.011393;0.0;0.0;119.6;0.0;0.0;2.0
2.0;1753877893.257564;18.228891;0.75;-1.74;-0.36;-0.379519;-0.949935;-0.00949;0.0;0.0;117.5;0.0;0.0;2.0
2.0;1753877893.262169;18.203449;0.78;-1.76;-0.34;-0.378631;-0.950315;-0.01028;0.0;0.0;119.0;0.0;0.0;2.0
2.0;1753877893.266774;18.187459;0.84;-1.74;-0.31;-0.377376;-0.949336;-0.009929;0.0;0.0;119.6;0.0;0.0;2.0
2.0;1753877893.27138;18.203881;0.8;-1.64;-0.35;-0.379096;-0.950517;-0.010867;0.0;0.0;117.1;0.0;0.0;2.0
2.0;1753877893.275985;18.196703;0.83;-1.68;-0.32;-0.377429;-0.951307;-0.010633;0.0;0.0;118.8;0.0;0.0;2.0
2.0;1753877893.28059;18.207218;0.88;-1.72;-0.36;-0.38025;-0.949897;-0.009978;0.0;0.0;122.5;0.0;0.0;2.0
2.0;1753877893.285195;18.22329;0.85;-1.58;-0.36;-0.377495;-0.949744;-0.010034;0.0;0.0;118.9;0.0;0.0;2.0
2.0;1753877893.289801;18.214062;0.85;-1.66;-0.34;-0.380285;-0.949103;-0.011001;0.0;0.0;118.9;0.0;0.0;2.0
2.0;1753877893.294406;18.213083;0.78;-1.7;-0.33;-0.376971;-0.950357;-0.011809;0.0;0.0;116.4;0.0;0.0;2.0
2.0;1753877893.299011;18.211654;0.91;-1.69;-0.38;-0.377233;-0.94966;-0.010011;0.0;0.0;112.9;0.0;0.0;2.0
2.0;1753877893.303616;18.220484;0.84;-1.64;-0.35;-0.377636;-0.949442;-0.009425;0.0;0.0;125.5;0.0;0.0;2.0
2.0;1753877893.308222;18.218701;0.86;-1.68;-0.39;-0.37647;-0.950356;-0.010434;0.0;0.0;118.7;0.0;0.0;2.0
2.0;1753877893.312827;18.20224;0.82;-1.79;-0.38;-0.378037;-0.949856;-0.011765;0.0;0.0;113.5;0.0;0.0;2.0
2.0;1753877893.317432;18.200791;0.84;-1.66;-0.35;-0.380603;-0.949751;-0.009633;0.0;0.0;120.4;0.0;0.0;2.0
2.0;1753877893.322038;18.206161;0.84;-1.59;-0.39;-0.376962;-0.949295;-0.011127;0.0;0.0;112.3;0.0;0.0;2.0
2.0;1753877893.326643;18.224888;0.8;-1.67;-0.35;-0.37766;-0.950462;-0.010676;0.0;0.0;113.5;0.0;0.0;2.0
2.0;1753877893.331248;18.209514;0.8;-1.65;-0.36;-0.376229;-0.949981;-0.009175;0.0;0.0;116.5;0.0;0.0;2.0
2.0;1753877893.335854;18.192099;0.85;-1.63;-0.29;-0.379095;-0.950257;-0.010132;0.0;0.0;119.4;0.0;0.0;2.0
2.0;1753877893.340459;18.18342;0.82;-1.79;-0.27;-0.378026;-0.949907;-0.010561;0.0;0.0;118.2;0.0;0.0;2.0
2.0;1753877893.345064;18.217029;0.85;-1.56;-0.3;-0.377911;-0.949367;-0.009341;0.0;0.0;119.0;0.0;0.0;2.0
2.0;1753877893.34967;18.206888;0.87;-1.71;-0.38;-0.377789;-0.949635;-0.01047;0.0;0.0;115.6;0.0;0.0;2.0
2.0;1753877893.354275;18.194559;0.87;-1.71;-0.3;-0.377652;-0.94965;-0.012129;0.0;0.0;123.4;0.0;0.0;2.0
2.0;1753877893.35888;18.22891;0.82;-1.68;-0.4;-0.377706;-0.95059;-0.010507;0.0;0.0;116.9;0.0;0.0;2.0
2.0;1753877893.363485;18.209303;0.83;-1.72;-0.22;-0.380205;-0.949496;-0.010812;0.0;0.0;115.6;0.0;0.0;2.0
2.0;1753877893.368091;18.181821;0.83;-1.74;-0.33;-0.377985;-0.950964;-0.009938;0.0;0.0;117.9;0.0;0.0;2.0
2.0;1753877893.372696;18.212763;0.82;-1.63;-0.38;-0.380052;-0.949775;-0.010816;0.0;0.0;118.4;0.0;0.0;2.0
2.0;1753877893.377301;18.189088;0.84;-1.73;-0.3;-0.37952;-0.949493;-0.010521;0.0;0.0;116.0;0.0;0.0;2.0
2.0;1753877893.381906;18.201407;0.82;-1.73;-0.32;-0.380752;-0.950024;-0.01017;0.0;0.0;121.2;0.0;0.0;2.0
2.0;1753877893.386512;18.203063;0.86;-1.64;-0.3;-0.376232;-0.949586;-0.011483;0.0;0.0;115.3;0.0;0.0;2.0
2.0;1753877893.391117;18.197186;0.86;-1.73;-0.42;-0.378708;-0.949522;-0.011204;0.0;0.0;117.5;0.0;0.0;2.0
2.0;1753877893.395722;18.223501;0.87;-1.73;-0.35;-0.377986;-0.949731;-0.010692;0.0;0.0;115.4;0.0;0.0;2.0
2.0;1753877893.400328;18.205088;0.8;-1.71;-0.35;-0.378941;-0.949836;-0.012201;0.0;0.0;118.2;0.0;0.0;2.0
2.0;1753877893.404933;18.212789;0.83;-1.71;-0.4;-0.378408;-0.949487;-0.010365;0.0;0.0;119.5;0.0;0.0;2.0
2.0;1753877893.409538;18.208699;0.84;-1.65;-0.28;-0.377475;-0.949884;-0.010134;0.0;0.0;119.5;0.0;0.0;2.0
2.0;1753877893.414144;18.186686;0.8;-1.73;-0.36;-0.378508;-0.94975;-0.010861;0.0;0.0;122.0;0.0;0.0;2.0
2.0;1753877893.418749;18.247522;0.88;-1.74;-0.4;-0.378526;-0.950205;-0.011384;0.0;0.0;112.5;0.0;0.0;2.0
2.0;1753877893.423354;18.199696;0.78;-1.68;-0.43;-0.377377;-0.951053;-0.010818;0.0;0.0;118.4;0.0;0.0;2.0
2.0;1753877893.42796;18.213449;0.81;-1.7;-0.33;-0.377574;-0.94996;-0.01127;0.0;0.0;122.5;0.0;0.0;2.0
2.0;1753877893.432565;18.201626;0.81;-1.63;-0.29;-0.379148;-0.948208;-0.010879;0.0;0.0;119.3;0.0;0.0;2.0
2.0;1753877893.43717;18.203368;0.85;-1.75;-0.4;-0.378303;-0.949911;-0.011118;0.0;0.0;113.3;0.0;0.0;2.0
2.0;1753877893.441775;18.219172;0.81;-1.66;-0.39;-0.379368;-0.94868;-0.010138;0.0;0.0;120.1;0.0;0.0;2.0
2.0;1753877893.44638;18.198576;0.86;-1.73;-0.34;-0.376905;-0.95066;-0.010623;0.0;0.0;119.9;0.0;0.0;2.0
2.0;1753877893.450986;18.217596;0.8;-1.66;-0.37;-0.378753;-0.949633;-0.009807;0.0;0.0;120.7;0.0;0.0;2.0
2.0;1753877893.455591;18.212152;0.89;-1.65;-0.42;-0.378786;-0.950807;-0.010328;0.0;0.0;120.7;0.0;0.0;2.0
2.0;1753877893.460196;18.204013;0.91;-1.66;-0.3;-0.379683;-0.950615;-0.01127;0.0;0.0;115.6;0.0;0.0;2.0
2.0;1753877893.464802;18.186452;0.82;-1.72;-0.32;-0.380291;-0.94994;-0.010978;0.0;0.0;120.1;0.0;0.0;2.0
2.0;1753877893.469407;18.220934;0.78;-1.61;-0.34;-0.37856;-0.949606;-0.010082;0.0;0.0;123.7;0.0;0.0;2.0
2.0;1753877893.474012;18.177717;0.84;-1.78;-0.35;-0.379561;-0.949623;-0.010378;0.0;0.0;123.7;0.0;0.0;2.0
2.0;1753877893.478618;18.212296;0.86;-1.7;-0.33;-0.378691;-0.949634;-0.009678;0.0;0.0;119.8;0.0;0.0;2.0
2.0;1753877893.483223;18.199823;0.82;-1.69;-0.41;-0.377405;-0.949749;-0.009776;0.0;0.0;121.5;0.0;0.0;2.0
2.0;1753877893.487828;18.200381;0.86;-1.72;-0.26;-0.379525;-0.949954;-0.010749;0.0;0.0;117.2;0.0;0.0;2.0
2.0;1753877893.492434;18.192069;0.82;-1.71;-0.27;-0.37803;-0.950255;-0.009924;0.0;0.0;122.5;0.0;0.0;2.0
2.0;1753877893.497039;18.217751;0.81;-1.65;-0.41;-0.379068;-0.9499;-0.010653;0.0;0.0;120.6;0.0;0.0;2.0
2.0;1753877893.501644;18.208335;0.87;-1.65;-0.26;-0.381981;-0.95007;-0.010119;0.0;0.0;123.2;0.0;0.0;2.0
2.0;1753877893.50625;18.193671;0.73;-1.62;-0.38;-0.375897;-0.949881;-0.011216;0.0;0.0;123.0;0.0;0.0;2.0
2.0;1753877893.510855;18.204855;0.84;-1.7;-0.36;-0.380299;-0.949075;-0.011579;0.0;0.0;114.2;0.0;0.0;2.0
2.0;1753877893.51546;18.19467;0.79;-1.61;-0.38;-0.378448;-0.949929;-0.010007;0.0;0.0;114.2;0.0;0.0;2.0
2.0;1753877893.520065;18.217013;0.83;-1.67;-0.29;-0.37876;-0.950039;-0.010468;0.0;0.0;113.9;0.0;0.0;2.0
2.0;1753877893.527;18.207031;0.84;-1.68;-0.35;-0.378322;-0.949892;-0.010492;0.0;0.0;118.0;0.0;0.0;2.0
2.0;1753877893.531605;18.222691;0.81;-1.65;-0.36;-0.380913;-0.94975;-0.010085;0.0;0.0;113.8;0.0;0.0;2.0
2.0;1753877893.53621;18.188612;0.86;-1.73;-0.3;-0.378495;-0.949882;-0.011515;0.0;0.0;117.9;0.0;0.0;2.0
2.0;1753877893.540816;18.221096;0.84;-1.67;-0.41;-0.381368;-0.950217;-0.00989;0.0;0.0;114.6;0.0;0.0;2.0
2.0;1753877893.54566;18.214844;0.91;-1.75;-0.35;-0.379908;-0.949526;-0.010126;0.0;0.0;115.0;0.0;0.0;2.0
2.0;1753877893.550265;18.208012;0.88;-1.88;-0.39;-0.382244;-0.94966;-0.009451;0.0;0.0;111.7;0.0;0.0;2.0
2.0;1753877893.55487;18.22398;0.87;-1.7;-0.26;-0.378494;-0.949422;-0.010056;0.0;0.0;117.8;0.0;0.0;2.0
2.0;1753877893.559476;18.222026;0.94;-1.67;-0.26;-0.380709;-0.949447;-0.010641;0.0;0.0;117.1;0.0;0.0;2.0
2.0;1753877893.564081;18.219794;0.92;-1.69;-0.35;-0.380334;-0.949809;-0.009667;0.0;0.0;111.5;0.0;0.0;2.0
2.0;1753877893.568686;18.212438;0.83;-1.66;-0.34;-0.379791;-0.949561;-0.010751;0.0;0.0;112.6;0.0;0.0;2.0
2.0;1753877893.573292;18.217324;0.96;-1.68;-0.39;-0.379272;-0.949752;-0.008799;0.0;0.0;114.3;0.0;0.0;2.0
2.0;1753877893.577897;18.215343;0.9;-1.63;-0.39;-0.378716;-0.949485;-0.009855;0.0;0.0;115.1;0.0;0.0;2.0
2.0;1753877893.582502;18.213965;0.88;-1.66;-0.31;-0.380406;-0.950037;-0.010089;0.0;0.0;114.2;0.0;0.0;2.0
2.0;1753877893.587108;18.200911;0.83;-1.73;-0.33;-0.379624;-0.950664;-0.010034;0.0;0.0;117.8;0.0;0.0;2.0
2.0;1753877893.591713;18.223588;0.91;-1.63;-0.41;-0.377102;-0.95021;-0.009306;0.0;0.0;112.6;0.0;0.0;2.0
2.0;1753877893.596318;18.192377;0.9;-1.65;-0.35;-0.37898;-0.949962;-0.01004;0.0;0.0;113.6;0.0;0.0;2.0
2.0;1753877893.600924;18.213998;1.01;-1.59;-0.4;-0.381337;-0.950108;-0.010659;0.0;0.0;114.2;0.0;0.0;2.0
2.0;1753877893.605529;18.21089;0.9;-1.7;-0.41;-0.378924;-0.950616;-0.011337;0.0;0.0;113.3;0.0;0.0;2.0
2.0;1753877893.610134;18.205446;0.96;-1.74;-0.31;-0.380555;-0.950043;-0.010543;0.0;0.0;113.2;0.0;0.0;2.0
2.0;1753877893.61687;18.214844;0.91;-1.61;-0.35;-0.378444;-0.95038;-0.010248;0.0;0.0;115.0;0.0;0.0;2.0
2.0;1753877893.621475;18.209941;0.93;-1.54;-0.32;-0.377635;-0.950729;-0.009368;0.0;0.0;114.6;0.0;0.0;2.0
2.0;1753877893.62608;18.220525;0.96;-1.7;-0.24;-0.379956;-0.950384;-0.010825;0.0;0.0;114.6;0.0;0.0;2.0
2.0;1753877893.630686;18.22154;0.93;-1.71;-0.25;-0.379039;-0.949805;-0.01106;0.0;0.0;112.1;0.0;0.0;2.0
2.0;1753877893.63907;18.214844;0.91;-1.68;-0.21;-0.377468;-0.95099;-0.010248;0.0;0.0;115.0;0.0;0.0;2.0
2.0;1753877893.643675;18.218619;0.86;-1.72;-0.2;-0.376788;-0.950937;-0.009147;0.0;0.0;115.3;0.0;0.0;2.0
2.0;1753877893.64828;18.221568;0.87;-1.71;-0.31;-0.380685;-0.950738;-0.009558;0.0;0.0;114.7;0.0;0.0;2.0
2.0;1753877893.652886;18.245047;0.87;-1.76;-0.24;-0.375562;-0.950515;-0.010325;0.0;0.0;111.5;0.0;0.0;2.0
2.0;1753877893.657491;18.22032;0.9;-1.74;-0.3;-0.379553;-0.950902;-0.010337;0.0;0.0;111.7;0.0;0.0;2.0
2.0;1753877893.662096;18.230033;0.93;-1.66;-0.22;-0.378236;-0.951291;-0.009796;0.0;0.0;117.1;0.0;0.0;2.0
2.0;1753877893.666702;18.23013;0.84;-1.76;-0.25;-0.381493;-0.949547;-0.008431;0.0;0.0;113.3;0.0;0.0;2.0
2.0;1753877893.671307;18.227082;0.87;-1.81;-0.3;-0.377625;-0.951729;-0.010202;0.0;0.0;115.6;0.0;0.0;2.0
2.0;1753877893.675912;18.255006;0.85;-1.77;-0.21;-0.379004;-0.951272;-0.010963;0.0;0.0;115.8;0.0;0.0;2.0
2.0;1753877893.6839;18.25;0.84;-1.75;-0.28;-0.379786;-0.951234;-0.01037;0.0;0.0;115.0;0.0;0.0;2.0
2.0;1753877893.688506;18.254772;0.86;-1.85;-0.27;-0.382029;-0.951386;-0.011072;0.0;0.0;112.7;0.0;0.0;2.0
2.0;1753877893.693111;18.242385;0.79;-1.68;-0.27;-0.380186;-0.951027;-0.009339;0.0;0.0;112.3;0.0;0.0;2.0
2.0;1753877893.697716;18.278456;0.92;-1.79;-0.28;-0.383089;-0.95161;-0.010296;0.0;0.0;116.1;0.0;0.0;2.0
2.0;1753877893.702322;18.253364;0.88;-1.71;-0.3;-0.377757;-0.9502;-0.011147;0.0;0.0;117.5;0.0;0.0;2.0
2.0;1753877893.706927;18.247264;0.86;-1.73;-0.22;-0.377913;-0.950332;-0.010344;0.0;0.0;117.1;0.0;0.0;2.0
2.0;1753877893.711532;18.250079;0.82;-1.79;-0.32;-0.378468;-0.949294;-0.010147;0.0;0.0;116.8;0.0;0.0;2.0
2.0;1753877893.716138;18.233682;0.95;-1.76;-0.22;-0.37851;-0.949532;-0.010053;0.0;0.0;115.4;0.0;0.0;2.0
2.0;1753877893.720743;18.24191;0.93;-1.64;-0.2;-0.381284;-0.94961;-0.009902;0.0;0.0;114.2;0.0;0.0;2.0
2.0;1753877893.72899;18.25;0.91;-1.68;-0.28;-0.38003;-0.949404;-0.010492;0.0;0.0;115.0;0.0;0.0;2.0
2.0;1753877893.733595;18.247087;0.91;-1.65;-0.32;-0.380066;-0.950134;-0.010444;0.0;0.0;114.9;0.0;0.0;2.0
2.0;1753877893.738201;18.231257;0.9;-1.69;-0.36;-0.379747;-0.949535;-0.01059;0.0;0.0;112.2;0.0;0.0;2.0
2.0;1753877893.742806;18.25148;0.89;-1.66;-0.32;-0.380969;-0.948455;-0.009979;0.0;0.0;115.2;0.0;0.0;2.0
2.0;1753877893.747411;18.241438;0.91;-1.65;-0.28;-0.380024;-0.949884;-0.011299;0.0;0.0;112.4;0.0;0.0;2.0
2.0;1753877893.752016;18.266708;0.84;-1.7;-0.41;-0.378972;-0.948653;-0.010001;0.0;0.0;115.6;0.0;0.0;2.0
2.0;1753877893.756622;18.2213;0.87;-1.73;-0.3;-0.380901;-0.950594;-0.010584;0.0;0.0;114.3;0.0;0.0;2.0
2.0;1753877893.761227;18.260998;0.92;-1.65;-0.29;-0.378383;-0.949124;-0.011198;0.0;0.0;113.4;0.0;0.0;2.0
2.0;1753877893.765832;18.242795;0.89;-1.76;-0.34;-0.381328;-0.949791;-0.010874;0.0;0.0;115.9;0.0;0.0;2.0
2.0;1753877893.770438;18.256138;0.93;-1.73;-0.33;-0.380499;-0.950177;-0.01169;0.0;0.0;113.2;0.0;0.0;2.0
2.0;1753877893.775043;18.24355;0.84;-1.71;-0.32;-0.380258;-0.949785;-0.010412;0.0;0.0;114.1;0.0;0.0;2.0
2.0;1753877893.779648;18.264213;0.9;-1.72;-0.37;-0.379041;-0.950459;-0.011187;0.0;0.0;116.8;0.0;0.0;2.0
2.0;1753877893.784254;18.244568;0.86;-1.54;-0.27;-0.378932;-0.949141;-0.010572;0.0;0.0;114.2;0.0;0.0;2.0
2.0;1753877893.788859;18.233966;0.94;-1.72;-0.31;-0.380145;-0.949962;-0.011463;0.0;0.0;113.9;0.0;0.0;2.0
2.0;1753877893.793464;18.268106;0.97;-1.64;-0.36;-0.379924;-0.950916;-0.010456;0.0;0.0;114.7;0.0;0.0;2.0
2.0;1753877893.79807;18.252825;0.9;-1.75;-0.38;-0.378957;-0.949121;-0.011654;0.0;0.0;110.5;0.0;0.0;2.0
2.0;1753877893.802675;18.266322;0.91;-1.66;-0.32;-0.379011;-0.950285;-0.01208;0.0;0.0;113.0;0.0;0.0;2.0
2.0;1753877893.80728;18.245595;0.86;-1.79;-0.36;-0.380797;-0.949731;-0.011088;0.0;0.0;113.3;0.0;0.0;2.0
2.0;1753877893.81275;18.25;0.91;-1.75;-0.35;-0.379542;-0.94977;-0.011102;0.0;0.0;114.0;0.0;0.0;2.0
2.0;1753877893.81996;18.25;0.84;-1.75;-0.28;-0.3782;-0.950502;-0.011224;0.0;0.0;114.0;0.0;0.0;2.0
2.0;1753877893.824566;18.241458;0.85;-1.81;-0.3;-0.377958;-0.950105;-0.01064;0.0;0.0;114.0;0.0;0.0;2.0
2.0;1753877893.829171;18.267913;0.77;-1.83;-0.29;-0.379291;-0.950857;-0.010045;0.0;0.0;116.3;0.0;0.0;2.0
2.0;1753877893.833776;18.231557;0.77;-1.66;-0.28;-0.378389;-0.950685;-0.01006;0.0;0.0;112.8;0.0;0.0;2.0
2.0;1753877893.838381;18.240096;0.86;-1.7;-0.35;-0.379584;-0.949764;-0.010843;0.0;0.0;114.8;0.0;0.0;2.0
2.0;1753877893.842986;18.242991;0.86;-1.69;-0.29;-0.382289;-0.949859;-0.010282;0.0;0.0;116.1;0.0;0.0;2.0
2.0;1753877893.847592;18.22385;0.82;-1.7;-0.3;-0.379668;-0.949625;-0.00996;0.0;0.0;114.7;0.0;0.0;2.0
2.0;1753877893.852197;18.256266;0.9;-1.76;-0.38;-0.378898;-0.949722;-0.009931;0.0;0.0;112.6;0.0;0.0;2.0
2.0;1753877893.856802;18.197259;0.8;-1.61;-0.23;-0.379993;-0.950507;-0.010156;0.0;0.0;115.2;0.0;0.0;2.0
2.0;1753877893.861408;18.239293;0.91;-1.68;-0.25;-0.377882;-0.951711;-0.009409;0.0;0.0;113.4;0.0;0.0;2.0
2.0;1753877893.86571;18.222656;0.84;-1.68;-0.28;-0.379908;-0.950624;-0.009882;0.0;0.0;114.0;0.0;0.0;2.0
2.0;1753877893.870316;18.234512;0.87;-1.66;-0.28;-0.379008;-0.950649;-0.010117;0.0;0.0;115.7;0.0;0.0;2.0
2.0;1753877893.874921;18.227999;0.83;-1.62;-0.35;-0.380238;-0.950896;-0.010309;0.0;0.0;111.8;0.0;0.0;2.0
2.0;1753877893.879526;18.220544;0.92;-1.7;-0.34;-0.379591;-0.950546;-0.010889;0.0;0.0;115.0;0.0;0.0;2.0
2.0;1753877893.884132;18.204832;0.76;-1.59;-0.41;-0.379034;-0.950263;-0.008929;0.0;0.0;115.4;0.0;0.0;2.0
2.0;1753877893.888737;18.214395;0.88;-1.67;-0.31;-0.379308;-0.950838;-0.010212;0.0;0.0;116.8;0.0;0.0;2.0
2.0;1753877893.893342;18.214139;0.95;-1.57;-0.32;-0.379819;-0.950709;-0.009637;0.0;0.0;111.9;0.0;0.0;2.0
2.0;1753877893.897947;18.243628;0.85;-1.6;-0.33;-0.37838;-0.950427;-0.01037;0.0;0.0;115.3;0.0;0.0;2.0
2.0;1753877893.902552;18.234816;0.83;-1.65;-0.34;-0.378828;-0.950321;-0.009453;0.0;0.0;114.9;0.0;0.0;2.0
2.0;1753877893.91094;18.222656;0.84;-1.61;-0.35;-0.379908;-0.950624;-0.009882;0.0;0.0;114.0;0.0;0.0;2.0
2.0;1753877893.915546;18.247363;0.86;-1.58;-0.32;-0.379203;-0.950429;-0.011978;0.0;0.0;113.0;0.0;0.0;2.0
2.0;1753877893.920151;18.239726;0.9;-1.6;-0.37;-0.379904;-0.950294;-0.009755;0.0;0.0;115.0;0.0;0.0;2.0
2.0;1753877893.924756;18.221886;0.82;-1.63;-0.39;-0.379838;-0.950586;-0.010024;0.0;0.0;112.2;0.0;0.0;2.0
2.0;1753877893.929361;18.240402;0.8;-1.55;-0.4;-0.37867;-0.949997;-0.010296;0.0;0.0;112.7;0.0;0.0;2.0
2.0;1753877893.933967;18.256371;0.83;-1.62;-0.33;-0.379476;-0.950035;-0.007983;0.0;0.0;115.3;0.0;0.0;2.0
2.0;1753877893.938572;18.237842;0.8;-1.6;-0.43;-0.378799;-0.949747;-0.010512;0.0;0.0;113.2;0.0;0.0;2.0
2.0;1753877893.943177;18.243283;0.89;-1.63;-0.41;-0.379263;-0.950333;-0.009519;0.0;0.0;115.0;0.0;0.0;2.0
2.0;1753877893.947782;18.217741;0.91;-1.54;-0.42;-0.379608;-0.950555;-0.009979;0.0;0.0;116.2;0.0;0.0;2.0
2.0;1753877893.952388;18.242728;0.85;-1.62;-0.42;-0.378002;-0.94991;-0.008962;0.0;0.0;114.5;0.0;0.0;2.0
2.0;1753877893.96027;18.222656;0.84;-1.61;-0.42;-0.379298;-0.949892;-0.009394;0.0;0.0;114.0;0.0;0.0;2.0
2.0;1753877893.960282;18.25;0.77;-1.61;-0.28;-0.379176;-0.950746;-0.01037;0.0;0.0;112.0;0.0;0.0;2.0
2.0;1753877893.967269;18.199219;0.91;-1.61;-0.28;-0.382714;-0.950136;-0.010858;0.0;0.0;115.0;0.0;0.0;2.0
2.0;1753877893.969374;18.199219;0.91;-1.68;-0.35;-0.377224;-0.949526;-0.011346;0.0;0.0;115.0;0.0;0.0;2.0
2.0;1753877893.974724;18.199219;0.91;-1.68;-0.35;-0.38186;-0.949038;-0.011346;0.0;0.0;115.0;0.0;0.0;2.0
2.0;1753877893.978575;18.199219;0.91;-1.75;-0.35;-0.378444;-0.94916;-0.010736;0.0;0.0;115.0;0.0;0.0;2.0
2.0;1753877893.983152;18.199219;0.77;-1.75;-0.21;-0.3782;-0.949282;-0.010736;0.0;0.0;115.0;0.0;0.0;2.0
2.0;1753877893.990857;18.199219;0.91;-1.82;-0.35;-0.379176;-0.94916;-0.010858;0.0;0.0;115.0;0.0;0.0;2.0
2.0;1753877893.992245;18.199219;0.91;-1.68;-0.35;-0.37881;-0.950258;-0.010126;0.0;0.0;115.0;0.0;0.0;2.0
2.0;1753877893.997408;18.199219;0.84;-1.61;-0.21;-0.379664;-0.950868;-0.011712;0.0;0.0;115.0;0.0;0.0;2.0
2.0;1753877894.002013;18.154401;0.9;-1.64;-0.13;-0.3801;-0.950622;-0.012172;0.0;0.0;115.1;0.0;0.0;2.0
2.0;1753877894.006618;18.173938;0.81;-1.61;-0.24;-0.37715;-0.951193;-0.011378;0.0;0.0;116.5;0.0;0.0;2.0
2.0;1753877894.011224;18.194898;0.93;-1.67;-0.28;-0.379102;-0.950197;-0.010719;0.0;0.0;114.6;0.0;0.0;2.0
2.0;1753877894.015829;18.219424;0.78;-1.6;-0.18;-0.380829;-0.950733;-0.011751;0.0;0.0;116.5;0.0;0.0;2.0
2.0;1753877894.020434;18.201107;0.95;-1.5;-0.34;-0.378907;-0.95186;-0.011338;0.0;0.0;112.9;0.0;0.0;2.0
2.0;1753877894.02504;18.215057;0.84;-1.72;-0.29;-0.377044;-0.949294;-0.013006;0.0;0.0;116.9;0.0;0.0;2.0
2.0;1753877894.029645;18.177953;0.97;-1.62;-0.29;-0.378301;-0.949879;-0.010957;0.0;0.0;115.5;0.0;0.0;2.0
2.0;1753877894.03425;18.137087;0.78;-1.67;-0.13;-0.378019;-0.951391;-0.011953;0.0;0.0;112.0;0.0;0.0;2.0
2.0;1753877894.038856;18.161582;0.91;-1.62;-0.1;-0.377515;-0.950719;-0.010525;0.0;0.0;113.1;0.0;0.0;2.0
2.0;1753877894.043461;18.229615;0.81;-1.68;-0.25;-0.379612;-0.950283;-0.011342;0.0;0.0;115.2;0.0;0.0;2.0
2.0;1753877894.048066;18.204248;0.88;-1.62;-0.13;-0.377402;-0.951047;-0.010436;0.0;0.0;112.6;0.0;0.0;2.0
2.0;1753877894.052672;18.219635;0.91;-1.63;-0.1;-0.376977;-0.949489;-0.010639;0.0;0.0;117.8;0.0;0.0;2.0
2.0;1753877894.057277;18.262781;0.86;-1.64;-0.2;-0.375631;-0.950111;-0.01119;0.0;0.0;116.5;0.0;0.0;2.0
2.0;1753877894.061882;18.189532;0.94;-1.63;-0.29;-0.376429;-0.949731;-0.011903;0.0;0.0;114.5;0.0;0.0;2.0
2.0;1753877894.066487;18.19773;0.91;-1.65;-0.23;-0.380735;-0.95109;-0.01083;0.0;0.0;114.2;0.0;0.0;2.0
2.0;1753877894.071092;18.25526;0.8;-1.7;-0.17;-0.378612;-0.948983;-0.012071;0.0;0.0;114.4;0.0;0.0;2.0
2.0;1753877894.075698;18.154037;0.85;-1.61;-0.13;-0.383348;-0.951327;-0.011734;0.0;0.0;111.8;0.0;0.0;2.0
2.0;1753877894.080303;18.213621;0.95;-1.61;-0.17;-0.378809;-0.950471;-0.010928;0.0;0.0;115.1;0.0;0.0;2.0
2.0;1753877894.084908;18.180356;0.68;-1.72;-0.28;-0.381375;-0.949655;-0.009648;0.0;0.0;115.4;0.0;0.0;2.0
2.0;1753877894.089514;18.165553;0.76;-1.57;-0.26;-0.38181;-0.949609;-0.010062;0.0;0.0;118.2;0.0;0.0;2.0
2.0;1753877894.094119;18.205797;0.88;-1.64;-0.27;-0.380554;-0.948502;-0.010258;0.0;0.0;113.7;0.0;0.0;2.0
2.0;1753877894.098724;18.268528;0.88;-1.61;-0.28;-0.380329;-0.950253;-0.01147;0.0;0.0;116.9;0.0;0.0;2.0
2.0;1753877894.10333;18.261918;0.84;-1.62;-0.14;-0.380637;-0.948541;-0.011832;0.0;0.0;117.8;0.0;0.0;2.0
2.0;1753877894.107935;18.181474;1.0;-1.63;-0.21;-0.382757;-0.949344;-0.011177;0.0;0.0;115.1;0.0;0.0;2.0
2.0;1753877894.11254;18.220178;0.95;-1.77;-0.26;-0.380104;-0.94925;-0.01154;0.0;0.0;113.7;0.0;0.0;2.0
2.0;1753877894.117146;18.252365;0.9;-1.7;-0.17;-0.37919;-0.94707;-0.010434;0.0;0.0;116.8;0.0;0.0;2.0
2.0;1753877894.121751;18.23893;0.92;-1.6;-0.19;-0.379829;-0.947797;-0.011577;0.0;0.0;113.8;0.0;0.0;2.0
2.0;1753877894.126356;18.224544;0.88;-1.65;-0.21;-0.380482;-0.948854;-0.01004;0.0;0.0;114.2;0.0;0.0;2.0
2.0;1753877894.130962;18.274507;0.87;-1.64;-0.21;-0.377753;-0.947606;-0.010872;0.0;0.0;114.0;0.0;0.0;2.0
2.0;1753877894.135567;18.217107;0.85;-1.69;-0.27;-0.378048;-0.947816;-0.01098;0.0;0.0;116.5;0.0;0.0;2.0
2.0;1753877894.1441;18.222656;0.91;-1.68;-0.21;-0.37942;-0.948184;-0.01037;0.0;0.0;115.0;0.0;0.0;2.0
2.0;1753877894.148706;18.185108;0.84;-1.68;-0.24;-0.377568;-0.947679;-0.009685;0.0;0.0;116.4;0.0;0.0;2.0
2.0;1753877894.153311;18.238025;0.96;-1.67;-0.27;-0.379818;-0.949595;-0.011364;0.0;0.0;110.8;0.0;0.0;2.0
2.0;1753877894.157916;18.237119;0.94;-1.74;-0.34;-0.38166;-0.948242;-0.009949;0.0;0.0;117.3;0.0;0.0;2.0
2.0;1753877894.162521;18.213032;0.95;-1.61;-0.21;-0.381702;-0.946204;-0.010581;0.0;0.0;114.5;0.0;0.0;2.0
2.0;1753877894.167127;18.19027;0.92;-1.66;-0.15;-0.37624;-0.94663;-0.009967;0.0;0.0;116.4;0.0;0.0;2.0
2.0;1753877894.171732;18.246537;0.96;-1.67;-0.24;-0.380304;-0.947527;-0.009662;0.0;0.0;114.4;0.0;0.0;2.0
2.0;1753877894.176337;18.247808;0.94;-1.77;-0.21;-0.380665;-0.949503;-0.009288;0.0;0.0;115.2;0.0;0.0;2.0
2.0;1753877894.180942;18.171233;0.79;-1.7;-0.24;-0.377943;-0.948764;-0.011009;0.0;0.0;114.9;0.0;0.0;2.0
2.0;1753877894.185548;18.210499;0.9;-1.68;-0.15;-0.379694;-0.949434;-0.010762;0.0;0.0;114.3;0.0;0.0;2.0
2.0;1753877894.190153;18.242941;0.79;-1.66;-0.19;-0.378285;-0.947975;-0.010971;0.0;0.0;113.0;0.0;0.0;2.0
2.0;1753877894.194758;18.227557;0.9;-1.64;-0.28;-0.380496;-0.947602;-0.011262;0.0;0.0;114.6;0.0;0.0;2.0
2.0;1753877894.199364;18.176035;1.03;-1.71;-0.29;-0.380405;-0.948775;-0.011375;0.0;0.0;114.6;0.0;0.0;2.0
2.0;1753877894.203969;18.220635;0.85;-1.72;-0.22;-0.380954;-0.948911;-0.012278;0.0;0.0;113.4;0.0;0.0;2.0
2.0;1753877894.208574;18.168648;0.92;-1.67;-0.3;-0.377343;-0.946581;-0.008477;0.0;0.0;114.3;0.0;0.0;2.0
2.0;1753877894.21318;18.237705;0.88;-1.65;-0.23;-0.378626;-0.948808;-0.010962;0.0;0.0;113.7;0.0;0.0;2.0
2.0;1753877894.217785;18.282315;0.74;-1.75;-0.1;-0.376976;-0.947655;-0.010345;0.0;0.0;114.5;0.0;0.0;2.0
2.0;1753877894.22239;18.235762;0.87;-1.71;-0.19;-0.380323;-0.948419;-0.010787;0.0;0.0;114.2;0.0;0.0;2.0
2.0;1753877894.226996;18.255142;0.98;-1.69;-0.2;-0.381285;-0.948548;-0.011296;0.0;0.0;114.4;0.0;0.0;2.0
2.0;1753877894.231601;18.225462;0.9;-1.62;-0.13;-0.37845;-0.949233;-0.010815;0.0;0.0;111.6;0.0;0.0;2.0
2.0;1753877894.236206;18.211245;0.94;-1.6;-0.17;-0.378176;-0.947956;-0.010074;0.0;0.0;114.2;0.0;0.0;2.0
2.0;1753877894.240811;18.210071;0.9;-1.68;-0.2;-0.37917;-0.948714;-0.009395;0.0;0.0;114.7;0.0;0.0;2.0
2.0;1753877894.245417;18.20618;0.88;-1.66;-0.28;-0.37816;-0.948307;-0.01071;0.0;0.0;116.2;0.0;0.0;2.0
2.0;1753877894.250022;18.211588;0.89;-1.78;-0.2;-0.377381;-0.947465;-0.010754;0.0;0.0;117.3;0.0;0.0;2.0
2.0;1753877894.254627;18.210973;0.96;-1.74;-0.33;-0.37986;-0.949829;-0.011523;0.0;0.0;114.2;0.0;0.0;2.0
2.0;1753877894.259232;18.241096;0.98;-1.63;-0.29;-0.379394;-0.947185;-0.010049;0.0;0.0;116.4;0.0;0.0;2.0
2.0;1753877894.263838;18.209797;0.88;-1.67;-0.24;-0.380516;-0.948551;-0.010334;0.0;0.0;115.3;0.0;0.0;2.0
2.0;1753877894.268443;18.248613;0.93;-1.67;-0.21;-0.381256;-0.948522;-0.010414;0.0;0.0;114.4;0.0;0.0;2.0
2.0;1753877894.273048;18.201702;0.88;-1.83;-0.3;-0.379787;-0.948076;-0.011396;0.0;0.0;113.1;0.0;0.0;2.0
2.0;1753877894.277654;18.205641;0.86;-1.68;-0.23;-0.378755;-0.949057;-0.010129;0.0;0.0;117.8;0.0;0.0;2.0
2.0;1753877894.282259;18.242689;0.84;-1.7;-0.18;-0.378431;-0.950374;-0.009993;0.0;0.0;115.4;0.0;0.0;2.0
2.0;1753877894.286864;18.227637;0.86;-1.63;-0.22;-0.380703;-0.949629;-0.010879;0.0;0.0;116.9;0.0;0.0;2.0
2.0;1753877894.29147;18.189642;0.88;-1.65;-0.12;-0.379201;-0.946805;-0.0116;0.0;0.0;113.9;0.0;0.0;2.0
2.0;1753877894.296075;18.215268;0.86;-1.65;-0.21;-0.377501;-0.947786;-0.011407;0.0;0.0;117.6;0.0;0.0;2.0
2.0;1753877894.30068;18.214936;0.93;-1.63;-0.21;-0.378847;-0.949264;-0.01011;0.0;0.0;115.1;0.0;0.0;2.0
2.0;1753877894.305286;18.249663;1.0;-1.72;-0.27;-0.379015;-0.947763;-0.010649;0.0;0.0;114.7;0.0;0.0;2.0
2.0;1753877894.309891;18.26192;0.89;-1.75;-0.2;-0.379185;-0.948172;-0.011259;0.0;0.0;114.3;0.0;0.0;2.0
2.0;1753877894.314496;18.251466;0.88;-1.72;-0.28;-0.377067;-0.946469;-0.010702;0.0;0.0;118.0;0.0;0.0;2.0
2.0;1753877894.319101;18.206771;0.72;-1.71;-0.29;-0.381929;-0.945978;-0.009768;0.0;0.0;114.7;0.0;0.0;2.0
2.0;1753877894.323707;18.214322;0.93;-1.81;-0.25;-0.383178;-0.949038;-0.010626;0.0;0.0;112.2;0.0;0.0;2.0
2.0;1753877894.328312;18.257628;0.7;-1.64;-0.33;-0.38052;-0.946452;-0.011336;0.0;0.0;113.5;0.0;0.0;2.0
2.0;1753877894.332917;18.226016;0.94;-1.76;-0.22;-0.380737;-0.947789;-0.010291;0.0;0.0;116.5;0.0;0.0;2.0
2.0;1753877894.337522;18.193687;0.79;-1.72;-0.25;-0.3779;-0.949374;-0.010057;0.0;0.0;113.6;0.0;0.0;2.0
2.0;1753877894.342128;18.199732;0.92;-1.75;-0.31;-0.376813;-0.945866;-0.010515;0.0;0.0;111.5;0.0;0.0;2.0
2.0;1753877894.346733;18.187185;0.92;-1.72;-0.26;-0.378733;-0.947817;-0.010236;0.0;0.0;116.2;0.0;0.0;2.0
2.0;1753877894.351338;18.254586;0.94;-1.72;-0.24;-0.379972;-0.947271;-0.00851;0.0;0.0;116.9;0.0;0.0;2.0
2.0;1753877894.355944;18.173797;0.92;-1.67;-0.38;-0.379267;-0.9478;-0.011779;0.0;0.0;115.3;0.0;0.0;2.0
2.0;1753877894.360549;18.21838;0.98;-1.67;-0.28;-0.378824;-0.94941;-0.009947;0.0;0.0;113.7;0.0;0.0;2.0
2.0;1753877894.365154;18.203636;0.9;-1.72;-0.29;-0.379459;-0.947661;-0.010804;0.0;0.0;111.2;0.0;0.0;2.0
2.0;1753877894.36976;18.250015;0.9;-1.79;-0.22;-0.380762;-0.948772;-0.011212;0.0;0.0;113.9;0.0;0.0;2.0
2.0;1753877894.374365;18.270194;0.86;-1.75;-0.17;-0.37933;-0.947521;-0.01066;0.0;0.0;116.0;0.0;0.0;2.0
2.0;1753877894.37897;18.23124;0.99;-1.68;-0.24;-0.377427;-0.9477;-0.009853;0.0;0.0;116.2;0.0;0.0;2.0
2.0;1753877894.383576;18.2219;0.92;-1.74;-0.32;-0.378582;-0.946482;-0.010341;0.0;0.0;115.6;0.0;0.0;2.0
2.0;1753877894.388181;18.203701;0.86;-1.65;-0.26;-0.378339;-0.948356;-0.010207;0.0;0.0;113.4;0.0;0.0;2.0
2.0;1753877894.392786;18.202899;0.92;-1.83;-0.22;-0.380143;-0.948252;-0.010718;0.0;0.0;115.4;0.0;0.0;2.0
2.0;1753877894.397391;18.198526;0.75;-1.75;-0.26;-0.379519;-0.949922;-0.00903;0.0;0.0;113.3;0.0;0.0;2.0
2.0;1753877894.401996;18.255912;0.8;-1.74;-0.22;-0.380993;-0.948205;-0.009679;0.0;0.0;115.8;0.0;0.0;2.0
2.0;1753877894.406602;18.255659;0.81;-1.74;-0.26;-0.377416;-0.94748;-0.01009;0.0;0.0;115.6;0.0;0.0;2.0
2.0;1753877894.411207;18.156497;0.72;-1.7;-0.29;-0.380419;-0.949089;-0.0108;0.0;0.0;114.1;0.0;0.0;2.0
2.0;1753877894.415812;18.246742;0.98;-1.72;-0.23;-0.379466;-0.947604;-0.010549;0.0;0.0;112.4;0.0;0.0;2.0
2.0;1753877894.420418;18.27873;0.8;-1.82;-0.22;-0.379362;-0.947858;-0.009559;0.0;0.0;111.5;0.0;0.0;2.0
2.0;1753877894.425023;18.225135;0.92;-1.69;-0.26;-0.379741;-0.948411;-0.011614;0.0;0.0;113.3;0.0;0.0;2.0
2.0;1753877894.429628;18.228278;0.86;-1.68;-0.2;-0.378985;-0.94813;-0.011313;0.0;0.0;116.5;0.0;0.0;2.0
2.0;1753877894.434234;18.199676;0.85;-1.75;-0.25;-0.376251;-0.94968;-0.00994;0.0;0.0;114.9;0.0;0.0;2.0
2.0;1753877894.438839;18.242469;0.85;-1.62;-0.2;-0.377576;-0.948236;-0.010709;0.0;0.0;113.8;0.0;0.0;2.0
2.0;1753877894.443444;18.2064;0.79;-1.68;-0.25;-0.379152;-0.947208;-0.010096;0.0;0.0;117.3;0.0;0.0;2.0
2.0;1753877894.44805;18.189959;0.83;-1.75;-0.2;-0.379855;-0.948747;-0.011171;0.0;0.0;115.6;0.0;0.0;2.0
2.0;1753877894.452655;18.143702;0.86;-1.77;-0.3;-0.379698;-0.949361;-0.009815;0.0;0.0;115.8;0.0;0.0;2.0
2.0;1753877894.45726;18.185227;0.82;-1.76;-0.26;-0.379635;-0.948984;-0.009757;0.0;0.0;117.1;0.0;0.0;2.0
2.0;1753877894.461866;18.237357;0.92;-1.78;-0.13;-0.377076;-0.949719;-0.011854;0.0;0.0;113.7;0.0;0.0;2.0
2.0;1753877894.466471;18.206893;0.79;-1.78;-0.27;-0.37564;-0.948363;-0.009869;0.0;0.0;114.5;0.0;0.0;2.0
2.0;1753877894.471076;18.232777;0.84;-1.66;-0.19;-0.377174;-0.949865;-0.009911;0.0;0.0;112.6;0.0;0.0;2.0
2.0;1753877894.475681;18.245077;0.91;-1.78;-0.3;-0.380169;-0.94647;-0.010666;0.0;0.0;116.0;0.0;0.0;2.0
2.0;1753877894.480286;18.203718;0.85;-1.72;-0.14;-0.380215;-0.947082;-0.010706;0.0;0.0;114.3;0.0;0.0;2.0
2.0;1753877894.484892;18.21732;0.89;-1.76;-0.25;-0.379952;-0.947296;-0.010209;0.0;0.0;115.8;0.0;0.0;2.0
2.0;1753877894.489497;18.244516;0.88;-1.71;-0.34;-0.37775;-0.948888;-0.011013;0.0;0.0;113.6;0.0;0.0;2.0
2.0;1753877894.494102;18.173058;0.81;-1.81;-0.22;-0.382196;-0.949196;-0.010944;0.0;0.0;115.7;0.0;0.0;2.0
2.0;1753877894.498708;18.244722;0.98;-1.7;-0.17;-0.379264;-0.947864;-0.010264;0.0;0.0;116.6;0.0;0.0;2.0
2.0;1753877894.503313;18.222992;0.8;-1.65;-0.35;-0.376078;-0.948996;-0.009101;0.0;0.0;116.1;0.0;0.0;2.0
2.0;1753877894.507918;18.222432;0.82;-1.78;-0.25;-0.379334;-0.948645;-0.009509;0.0;0.0;117.4;0.0;0.0;2.0
2.0;1753877894.512524;18.223114;0.88;-1.78;-0.25;-0.378594;-0.948405;-0.010209;0.0;0.0;114.7;0.0;0.0;2.0
2.0;1753877894.517129;18.252208;0.78;-1.62;-0.35;-0.378014;-0.947159;-0.009903;0.0;0.0;112.7;0.0;0.0;2.0
2.0;1753877894.521734;18.224133;0.82;-1.72;-0.22;-0.376795;-0.947505;-0.011118;0.0;0.0;115.4;0.0;0.0;2.0
2.0;1753877894.52634;18.184084;0.92;-1.82;-0.26;-0.380203;-0.949576;-0.011332;0.0;0.0;117.9;0.0;0.0;2.0
2.0;1753877894.530945;18.22131;0.82;-1.71;-0.18;-0.382078;-0.948558;-0.01093;0.0;0.0;116.0;0.0;0.0;2.0
2.0;1753877894.53555;18.234;0.93;-1.77;-0.25;-0.380361;-0.946905;-0.009715;0.0;0.0;114.7;0.0;0.0;2.0
2.0;1753877894.540156;18.187407;0.88;-1.79;-0.39;-0.381028;-0.946966;-0.010811;0.0;0.0;118.3;0.0;0.0;2.0
2.0;1753877894.544761;18.22927;0.82;-1.72;-0.27;-0.379312;-0.946976;-0.009982;0.0;0.0;114.6;0.0;0.0;2.0
2.0;1753877894.549366;18.235276;0.83;-1.82;-0.33;-0.379682;-0.947072;-0.01027;0.0;0.0;114.7;0.0;0.0;2.0
2.0;1753877894.553971;18.176608;0.91;-1.74;-0.33;-0.379488;-0.947529;-0.011016;0.0;0.0;114.6;0.0;0.0;2.0
2.0;1753877894.558576;18.257867;0.9;-1.78;-0.26;-0.383662;-0.950594;-0.010669;0.0;0.0;115.8;0.0;0.0;2.0
2.0;1753877894.563182;18.262408;0.85;-1.79;-0.18;-0.380395;-0.948453;-0.010242;0.0;0.0;113.2;0.0;0.0;2.0
2.0;1753877894.567787;18.259812;0.77;-1.81;-0.36;-0.378876;-0.946999;-0.010448;0.0;0.0;111.7;0.0;0.0;2.0
2.0;1753877894.572392;18.228584;0.84;-1.77;-0.16;-0.381571;-0.94798;-0.01;0.0;0.0;114.0;0.0;0.0;2.0
2.0;1753877894.576998;18.254425;0.87;-1.8;-0.33;-0.379941;-0.947025;-0.009479;0.0;0.0;114.7;0.0;0.0;2.0
2.0;1753877894.581603;18.221893;0.92;-1.67;-0.31;-0.37852;-0.948938;-0.010306;0.0;0.0;112.8;0.0;0.0;2.0
2.0;1753877894.586208;18.218679;0.82;-1.78;-0.36;-0.377932;-0.947487;-0.010626;0.0;0.0;116.9;0.0;0.0;2.0
2.0;1753877894.5917;18.222656;0.84;-1.75;-0.28;-0.37942;-0.948184;-0.01037;0.0;0.0;115.0;0.0;0.0;2.0
2.0;1753877894.596305;18.207593;0.84;-1.79;-0.31;-0.377885;-0.947497;-0.011331;0.0;0.0;115.2;0.0;0.0;2.0
2.0;1753877894.600911;18.213097;0.89;-1.75;-0.27;-0.381226;-0.948636;-0.00964;0.0;0.0;115.3;0.0;0.0;2.0
2.0;1753877894.605516;18.220982;0.87;-1.73;-0.35;-0.378474;-0.9485;-0.010556;0.0;0.0;116.1;0.0;0.0;2.0
2.0;1753877894.610121;18.220955;0.9;-1.77;-0.4;-0.377766;-0.949113;-0.010701;0.0;0.0;115.4;0.0;0.0;2.0
2.0;1753877894.614726;18.222913;0.9;-1.76;-0.26;-0.378858;-0.948651;-0.009751;0.0;0.0;115.8;0.0;0.0;2.0
2.0;1753877894.619332;18.232619;0.98;-1.71;-0.31;-0.38022;-0.94909;-0.009792;0.0;0.0;116.3;0.0;0.0;2.0
2.0;1753877894.623937;18.205199;0.86;-1.71;-0.35;-0.37666;-0.949973;-0.010727;0.0;0.0;116.2;0.0;0.0;2.0
2.0;1753877894.628542;18.243334;0.9;-1.73;-0.28;-0.374852;-0.949392;-0.011454;0.0;0.0;116.2;0.0;0.0;2.0
2.0;1753877894.633148;18.213524;0.92;-1.64;-0.26;-0.375803;-0.94791;-0.011213;0.0;0.0;117.5;0.0;0.0;2.0
2.0;1753877894.637753;18.211601;0.94;-1.79;-0.32;-0.378681;-0.948633;-0.011246;0.0;0.0;117.2;0.0;0.0;2.0
2.0;1753877894.642358;18.235442;0.94;-1.58;-0.37;-0.376556;-0.950268;-0.010918;0.0;0.0;117.5;0.0;0.0;2.0
2.0;1753877894.646964;18.236813;1.0;-1.59;-0.34;-0.377194;-0.949241;-0.010607;0.0;0.0;117.0;0.0;0.0;2.0
2.0;1753877894.65472;18.230469;0.98;-1.68;-0.35;-0.377346;-0.949892;-0.011102;0.0;0.0;117.0;0.0;0.0;2.0
2.0;1753877894.659326;18.216961;0.99;-1.64;-0.36;-0.378166;-0.950152;-0.010793;0.0;0.0;116.4;0.0;0.0;2.0
2.0;1753877894.663931;18.224096;0.9;-1.71;-0.34;-0.376606;-0.948832;-0.011362;0.0;0.0;116.7;0.0;0.0;2.0
2.0;1753877894.668536;18.212996;0.99;-1.71;-0.24;-0.377154;-0.949617;-0.010642;0.0;0.0;117.8;0.0;0.0;2.0
2.0;1753877894.673142;18.246412;1.03;-1.78;-0.37;-0.378879;-0.950095;-0.010845;0.0;0.0;116.9;0.0;0.0;2.0
2.0;1753877894.677747;18.227061;0.94;-1.73;-0.27;-0.379246;-0.948488;-0.011837;0.0;0.0;117.2;0.0;0.0;2.0
2.0;1753877894.682352;18.215366;0.91;-1.67;-0.3;-0.381089;-0.949549;-0.010308;0.0;0.0;118.8;0.0;0.0;2.0
2.0;1753877894.686957;18.22961;0.91;-1.77;-0.25;-0.381262;-0.949469;-0.010996;0.0;0.0;117.2;0.0;0.0;2.0
2.0;1753877894.691563;18.226931;1.0;-1.69;-0.18;-0.382317;-0.947422;-0.010822;0.0;0.0;117.5;0.0;0.0;2.0
2.0;1753877894.696168;18.208752;0.84;-1.76;-0.26;-0.383377;-0.948262;-0.009916;0.0;0.0;117.9;0.0;0.0;2.0
2.0;1753877894.70046;18.230469;0.91;-1.75;-0.28;-0.38247;-0.948062;-0.010614;0.0;0.0;117.0;0.0;0.0;2.0
2.0;1753877894.705065;18.225999;0.91;-1.79;-0.28;-0.377598;-0.948086;-0.010923;0.0;0.0;117.0;0.0;0.0;2.0
2.0;1753877894.70967;18.22815;0.94;-1.74;-0.24;-0.383429;-0.947725;-0.010353;0.0;0.0;117.3;0.0;0.0;2.0
2.0;1753877894.714276;18.212439;0.89;-1.77;-0.35;-0.382859;-0.946772;-0.010388;0.0;0.0;115.8;0.0;0.0;2.0
2.0;1753877894.718881;18.247252;0.97;-1.7;-0.22;-0.379722;-0.948221;-0.010704;0.0;0.0;117.3;0.0;0.0;2.0
2.0;1753877894.723486;18.236373;0.9;-1.79;-0.22;-0.380177;-0.94844;-0.009603;0.0;0.0;116.9;0.0;0.0;2.0
2.0;1753877894.728092;18.227687;0.86;-1.71;-0.37;-0.37976;-0.94695;-0.009917;0.0;0.0;118.1;0.0;0.0;2.0
2.0;1753877894.732697;18.214043;0.95;-1.74;-0.42;-0.383916;-0.948164;-0.011457;0.0;0.0;116.4;0.0;0.0;2.0
2.0;1753877894.737302;18.229702;0.86;-1.75;-0.38;-0.381532;-0.949812;-0.011813;0.0;0.0;115.3;0.0;0.0;2.0
2.0;1753877894.741908;18.233658;0.94;-1.6;-0.32;-0.384213;-0.949646;-0.011686;0.0;0.0;117.3;0.0;0.0;2.0
2.0;1753877894.746513;18.212386;0.96;-1.67;-0.37;-0.383743;-0.946525;-0.011004;0.0;0.0;116.0;0.0;0.0;2.0
2.0;1753877894.751118;18.215589;0.89;-1.67;-0.33;-0.383833;-0.947015;-0.00976;0.0;0.0;116.9;0.0;0.0;2.0
2.0;1753877894.75809;18.222656;0.91;-1.68;-0.35;-0.38247;-0.948062;-0.010614;0.0;0.0;117.0;0.0;0.0;2.0
2.0;1753877894.762695;18.216854;0.9;-1.57;-0.42;-0.381247;-0.947566;-0.01024;0.0;0.0;115.8;0.0;0.0;2.0
2.0;1753877894.7673;18.206046;0.83;-1.54;-0.28;-0.383934;-0.949549;-0.010551;0.0;0.0;118.6;0.0;0.0;2.0
2.0;1753877894.771906;18.198821;0.84;-1.57;-0.39;-0.382378;-0.946613;-0.010948;0.0;0.0;115.8;0.0;0.0;2.0
2.0;1753877894.776511;18.214304;0.84;-1.52;-0.41;-0.383024;-0.948976;-0.010919;0.0;0.0;118.2;0.0;0.0;2.0
2.0;1753877894.781116;18.208262;0.85;-1.69;-0.34;-0.380856;-0.949236;-0.011572;0.0;0.0;116.6;0.0;0.0;2.0
2.0;1753877894.785722;18.224558;0.85;-1.68;-0.26;-0.380948;-0.949323;-0.010442;0.0;0.0;115.1;0.0;0.0;2.0
2.0;1753877894.7915;18.222656;0.84;-1.61;-0.35;-0.380396;-0.949526;-0.010248;0.0;0.0;117.0;0.0;0.0;2.0
2.0;1753877894.796106;18.227187;0.73;-1.61;-0.32;-0.379174;-0.950329;-0.010667;0.0;0.0;116.5;0.0;0.0;2.0
2.0;1753877894.800711;18.203353;0.78;-1.63;-0.32;-0.379586;-0.950711;-0.010625;0.0;0.0;117.9;0.0;0.0;2.0
2.0;1753877894.805316;18.2358;0.84;-1.6;-0.23;-0.380845;-0.950851;-0.011138;0.0;0.0;116.8;0.0;0.0;2.0
2.0;1753877894.809921;18.223895;0.85;-1.63;-0.34;-0.381399;-0.950344;-0.011214;0.0;0.0;117.6;0.0;0.0;2.0
2.0;1753877894.814526;18.234462;0.83;-1.68;-0.39;-0.380045;-0.949703;-0.011486;0.0;0.0;118.6;0.0;0.0;2.0
2.0;1753877894.819132;18.224122;0.88;-1.54;-0.38;-0.38068;-0.950899;-0.010657;0.0;0.0;116.1;0.0;0.0;2.0
2.0;1753877894.823737;18.226626;0.83;-1.68;-0.36;-0.37728;-0.949909;-0.011793;0.0;0.0;118.1;0.0;0.0;2.0
2.0;1753877894.828342;18.234747;0.86;-1.66;-0.34;-0.382115;-0.950669;-0.010398;0.0;0.0;116.7;0.0;0.0;2.0
2.0;1753877894.832948;18.234642;0.84;-1.66;-0.38;-0.378332;-0.949942;-0.011007;0.0;0.0;119.3;0.0;0.0;2.0
2.0;1753877894.837553;18.242653;0.89;-1.68;-0.47;-0.379381;-0.950226;-0.011481;0.0;0.0;116.4;0.0;0.0;2.0
2.0;1753877894.842158;18.203878;0.96;-1.69;-0.34;-0.376782;-0.950419;-0.011281;0.0;0.0;115.3;0.0;0.0;2.0
2.0;1753877894.846764;18.223546;0.97;-1.71;-0.35;-0.378473;-0.95059;-0.010707;0.0;0.0;117.6;0.0;0.0;2.0
2.0;1753877894.851369;18.232142;1.02;-1.68;-0.37;-0.382347;-0.95141;-0.010782;0.0;0.0;117.9;0.0;0.0;2.0
2.0;1753877894.855974;18.221011;0.94;-1.53;-0.32;-0.379856;-0.951157;-0.010921;0.0;0.0;117.7;0.0;0.0;2.0
2.0;1753877894.86058;18.222121;0.92;-1.62;-0.22;-0.37705;-0.949617;-0.010566;0.0;0.0;116.9;0.0;0.0;2.0
2.0;1753877894.865185;18.222293;0.99;-1.57;-0.35;-0.378235;-0.950925;-0.011472;0.0;0.0;117.4;0.0;0.0;2.0
2.0;1753877894.86979;18.216284;1.02;-1.7;-0.35;-0.378973;-0.950503;-0.011053;0.0;0.0;115.9;0.0;0.0;2.0
2.0;1753877894.87826;18.222656;0.98;-1.68;-0.35;-0.378688;-0.950868;-0.011346;0.0;0.0;117.0;0.0;0.0;2.0
2.0;1753877894.88237;18.222656;1.05;-1.75;-0.28;-0.378688;-0.950868;-0.011346;0.0;0.0;117.0;0.0;0.0;2.0
2.0;1753877894.886975;18.220464;0.97;-1.72;-0.25;-0.37566;-0.95148;-0.010314;0.0;0.0;116.5;0.0;0.0;2.0
2.0;1753877894.89158;18.219157;1.07;-1.74;-0.29;-0.377147;-0.949354;-0.010872;0.0;0.0;120.4;0.0;0.0;2.0
2.0;1753877894.896186;18.225609;0.97;-1.69;-0.3;-0.378159;-0.951583;-0.012275;0.0;0.0;117.9;0.0;0.0;2.0
2.0;1753877894.900791;18.216319;0.98;-1.68;-0.18;-0.378371;-0.950275;-0.01082;0.0;0.0;115.9;0.0;0.0;2.0
2.0;1753877894.905396;18.211223;1.02;-1.73;-0.32;-0.376488;-0.950085;-0.011965;0.0;0.0;118.4;0.0;0.0;2.0
2.0;1753877894.910002;18.228267;1.04;-1.77;-0.3;-0.378403;-0.950613;-0.011577;0.0;0.0;115.6;0.0;0.0;2.0
2.0;1753877894.914607;18.233706;0.94;-1.76;-0.37;-0.376429;-0.94952;-0.011647;0.0;0.0;113.8;0.0;0.0;2.0
2.0;1753877894.919212;18.216492;0.98;-1.7;-0.23;-0.37891;-0.950177;-0.011033;0.0;0.0;118.7;0.0;0.0;2.0
2.0;1753877894.923818;18.216451;0.97;-1.64;-0.34;-0.377442;-0.95125;-0.011551;0.0;0.0;117.1;0.0;0.0;2.0
2.0;1753877894.928423;18.232554;0.97;-1.6;-0.28;-0.379256;-0.947922;-0.010981;0.0;0.0;117.9;0.0;0.0;2.0
2.0;1753877894.933028;18.22241;1.01;-1.79;-0.31;-0.379687;-0.95129;-0.00978;0.0;0.0;116.5;0.0;0.0;2.0
2.0;1753877894.937634;18.219115;0.95;-1.62;-0.37;-0.38175;-0.950556;-0.011567;0.0;0.0;115.9;0.0;0.0;2.0
2.0;1753877894.942239;18.220133;0.95;-1.7;-0.33;-0.378367;-0.951175;-0.012272;0.0;0.0;115.2;0.0;0.0;2.0
2.0;1753877894.94915;18.214844;0.91;-1.68;-0.35;-0.378444;-0.950258;-0.011468;0.0;0.0;117.0;0.0;0.0;2.0
2.0;1753877894.953756;18.215109;0.85;-1.62;-0.31;-0.378876;-0.950195;-0.011911;0.0;0.0;116.8;0.0;0.0;2.0
2.0;1753877894.958361;18.218928;0.9;-1.59;-0.32;-0.378026;-0.949541;-0.011779;0.0;0.0;115.1;0.0;0.0;2.0
2.0;1753877894.962966;18.213264;1.01;-1.63;-0.26;-0.37928;-0.948897;-0.011307;0.0;0.0;117.8;0.0;0.0;2.0
2.0;1753877894.967571;18.216663;0.83;-1.61;-0.35;-0.380965;-0.951187;-0.010183;0.0;0.0;115.9;0.0;0.0;2.0
2.0;1753877894.975;18.214844;0.84;-1.61;-0.28;-0.379176;-0.949526;-0.011102;0.0;0.0;117.0;0.0;0.0;2.0
2.0;1753877894.975798;18.222656;0.77;-1.82;2.87;-0.357826;-0.950258;-0.001342;0.0;0.0;115.0;0.0;0.0;2.0
2.0;1753877894.980306;18.222656;0.77;-1.96;3.08;-0.373686;-0.959042;0.004392;0.0;0.0;115.0;0.0;0.0;2.0
2.0;1753877894.984827;18.222656;0.56;-1.68;3.57;-0.37576;-0.953674;0.021716;0.0;0.0;115.0;0.0;0.0;2.0
2.0;1753877894.98947;18.199219;1.05;-1.47;2.52;-0.3599;-0.949892;0.003172;0.0;0.0;115.0;0.0;0.0;2.0
2.0;1753877894.994075;18.165231;0.76;-1.19;3.84;-0.370792;-0.951338;-0.006289;0.0;0.0;111.1;0.0;0.0;2.0
2.0;1753877894.998951;18.199219;0.91;-1.05;3.08;-0.37088;-0.936594;0.002196;0.0;0.0;113.0;0.0;0.0;2.0
2.0;1753877895.003556;18.199013;0.88;-0.95;2.98;-0.320606;-0.916566;-0.005228;0.0;0.0;118.0;0.0;0.0;2.0
2.0;1753877895.008162;18.19281;0.62;-0.98;1.76;-0.359809;-0.937815;-0.000626;0.0;0.0;117.5;0.0;0.0;2.0
2.0;1753877895.012767;18.200691;1.21;-1.03;2.36;-0.371919;-0.94924;0.028113;0.0;0.0;112.8;0.0;0.0;2.0
2.0;1753877895.017372;18.209522;0.85;-0.79;2.34;-0.395735;-0.93155;0.011992;0.0;0.0;114.1;0.0;0.0;2.0
2.0;1753877895.021978;18.208231;1.34;-1.95;-0.17;-0.350118;-0.940263;-0.003777;0.0;0.0;113.9;0.0;0.0;2.0
2.0;1753877895.026583;18.237544;0.58;-1.07;3.49;-0.355302;-0.951268;0.007005;0.0;0.0;116.1;0.0;0.0;2.0
2.0;1753877895.031188;18.253266;0.51;-0.37;3.53;-0.327526;-0.957946;0.010224;0.0;0.0;116.1;0.0;0.0;2.0
2.0;1753877895.035793;18.206766;0.88;-1.01;3.04;-0.347261;-0.94159;0.006896;0.0;0.0;115.2;0.0;0.0;2.0
2.0;1753877895.040398;18.171614;1.02;-0.63;4.26;-0.355721;-0.943208;0.000363;0.0;0.0;114.4;0.0;0.0;2.0
2.0;1753877895.045004;18.200948;1.33;-1.07;2.36;-0.366835;-0.92435;0.004654;0.0;0.0;111.7;0.0;0.0;2.0
2.0;1753877895.049609;18.198675;0.99;-0.63;1.73;-0.358781;-0.961617;-0.008632;0.0;0.0;113.0;0.0;0.0;2.0
2.0;1753877895.054214;18.211859;0.79;-0.56;5.8;-0.381983;-0.961909;-0.010832;0.0;0.0;110.8;0.0;0.0;2.0
2.0;1753877895.05882;18.219769;1.48;-0.71;0.01;-0.379228;-0.945843;0.0084;0.0;0.0;109.9;0.0;0.0;2.0
2.0;1753877895.063425;18.197475;0.77;-0.47;1.55;-0.384014;-0.957697;-0.007982;0.0;0.0;110.3;0.0;0.0;2.0
2.0;1753877895.06803;18.204;0.62;-0.09;0.67;-0.369875;-0.960777;0.019444;0.0;0.0;111.4;0.0;0.0;2.0
2.0;1753877895.072636;18.185049;1.09;-1.42;4.85;-0.368855;-0.9465;0.001116;0.0;0.0;110.7;0.0;0.0;2.0
2.0;1753877895.077241;18.193692;0.7;-1.78;0.77;-0.370095;-0.952013;0.004225;0.0;0.0;113.6;0.0;0.0;2.0
2.0;1753877895.081846;18.193655;0.97;-0.83;2.57;-0.336785;-0.943005;0.008753;0.0;0.0;116.7;0.0;0.0;2.0
2.0;1753877895.086452;18.230561;0.57;-0.7;2.72;-0.382168;-0.955749;-0.02388;0.0;0.0;110.3;0.0;0.0;2.0
