DeviceID;Timestamp;Temperature;GyroX;GyroY;GyroZ;AccelX;AccelY;AccelZ;Dist1;Dist2;Dist3;Err1;Err2;Err3
4.0;1753879331.64596;12.691406;0.7;-1.12;0.0;-0.988322;-0.116144;0.011834;0.0;0.0;0.0;0.0;0.0;0.0
4.0;1753879331.650566;12.686789;1.51;-0.78;0.96;-1.004636;-0.120952;0.011636;-0.0;0.0;0.1;0.1;0.0;-0.0
4.0;1753879331.655172;12.68671;0.52;-0.92;2.05;-1.009484;-0.132956;0.012476;1.4;-0.0;0.0;0.1;-0.0;0.0
4.0;1753879331.659778;12.681826;0.24;-0.94;0.5;-0.998289;-0.075143;0.017447;0.2;-0.1;0.1;-0.0;0.0;0.0
4.0;1753879331.664384;12.681129;1.34;-0.65;0.45;-0.985368;-0.088679;0.030112;-1.2;0.0;0.3;0.1;-0.0;0.0
4.0;1753879331.66899;12.678803;0.47;-0.59;-0.66;-0.962985;-0.135779;0.023332;-0.3;-0.0;0.1;0.0;0.0;-0.0
4.0;1753879331.673596;12.672866;0.31;-0.8;0.14;-0.978527;-0.115688;0.010065;0.2;0.0;0.0;0.0;-0.0;-0.0
4.0;1753879331.678202;12.672272;1.07;-1.11;2.83;-1.010093;-0.116395;0.008511;-0.3;0.0;-0.1;-0.1;0.0;-0.0
4.0;1753879331.682808;12.66694;0.49;-1.26;-0.55;-0.953432;-0.109514;0.014975;1.4;-0.1;0.1;-0.2;-0.0;0.0
4.0;1753879331.687414;12.666366;0.2;-1.39;-0.11;-0.978503;-0.11644;0.00027;0.3;0.0;-0.0;-0.1;-0.0;0.0
4.0;1753879331.69202;12.663887;0.43;-1.29;-2.23;-0.991084;-0.099766;0.018081;0.3;-0.0;-0.1;-0.2;-0.0;-0.0
4.0;1753879331.69809;12.660156;0.63;-1.19;0.0;-0.987956;-0.110654;0.011956;0.0;0.0;0.0;0.0;0.0;0.0
4.0;1753879331.702696;12.659185;1.11;-1.1;-1.59;-0.995807;-0.098253;0.022835;0.4;-0.1;0.1;-0.1;-0.0;0.0
4.0;1753879331.707302;12.662115;0.75;-1.28;-1.33;-0.946177;-0.112341;-0.002615;-0.7;-0.0;-0.2;0.1;0.0;-0.0
4.0;1753879331.711908;12.661724;0.58;-1.43;0.67;-1.005278;-0.112301;0.014598;-0.5;-0.0;0.1;0.3;-0.0;0.0
4.0;1753879331.716514;12.658718;-0.06;-1.43;1.1;-0.959193;-0.098594;0.029947;0.2;-0.0;0.2;-0.3;-0.0;-0.0
4.0;1753879331.72112;12.660961;0.72;-1.04;0.21;-0.94112;-0.112101;0.019028;0.0;-0.0;-0.2;-0.1;0.0;0.0
4.0;1753879331.725726;12.661624;0.29;-1.47;-1.71;-1.01537;-0.103682;0.016559;-1.8;0.1;-0.0;-0.1;-0.0;-0.0
4.0;1753879331.730332;12.66119;0.64;-0.7;0.57;-0.968931;-0.101518;0.012546;3.6;-0.0;0.0;0.1;-0.0;-0.0
4.0;1753879331.73608;12.660156;0.7;-1.19;0.07;-0.987956;-0.110654;0.011956;0.0;0.0;0.0;0.0;0.0;0.0
4.0;1753879331.740686;12.659711;0.38;-0.84;-0.5;-0.980469;-0.08737;0.001042;-0.0;0.1;-0.1;-0.1;-0.0;-0.0
4.0;1753879331.745292;12.659499;-0.02;-0.93;-0.37;-0.922126;-0.106746;0.00938;0.1;-0.0;-0.3;-0.1;0.0;-0.0
4.0;1753879331.749898;12.660456;0.91;-0.92;-0.56;-0.966438;-0.122148;0.003927;-0.8;-0.0;0.2;0.3;0.0;-0.0
4.0;1753879331.754504;12.65988;1.06;-1.21;1.0;-0.999545;-0.132144;0.022106;1.6;-0.0;0.0;0.1;0.0;0.0
4.0;1753879331.75911;12.65759;0.52;-1.73;0.17;-1.023214;-0.11513;0.032465;-0.7;0.0;0.0;0.0;-0.0;0.0
4.0;1753879331.763716;12.6601;0.19;-0.84;-1.24;-0.999351;-0.09505;0.009871;-0.4;0.0;0.5;-0.1;-0.0;0.0
4.0;1753879331.768322;12.658322;0.76;-1.48;-0.08;-0.975456;-0.094782;0.03336;0.9;0.0;0.0;0.2;0.0;0.0
4.0;1753879331.772928;12.657574;0.83;-1.45;-0.6;-0.998513;-0.053284;0.006829;0.6;0.0;0.1;-0.0;-0.0;0.0
4.0;1753879331.777534;12.657705;0.1;-1.58;0.19;-0.9745;-0.084727;0.006627;0.1;0.1;-0.4;0.0;-0.0;-0.0
4.0;1753879331.78214;12.658889;0.81;-1.64;-0.67;-0.98693;-0.128575;0.019572;0.6;-0.0;-0.5;-0.0;0.0;0.0
4.0;1753879331.786746;12.659713;0.35;-0.85;1.11;-1.026546;-0.116876;0.017198;1.5;0.0;-0.0;-0.0;0.0;0.0
4.0;1753879331.791352;12.658937;0.93;-1.2;1.76;-1.001884;-0.092653;0.011227;-0.1;-0.1;-0.1;-0.1;-0.0;-0.0
4.0;1753879331.795958;12.663331;0.24;-1.6;-0.05;-0.98634;-0.102449;0.014149;-0.5;0.1;-0.1;-0.0;0.0;0.0
4.0;1753879331.800564;12.657544;0.47;-0.81;-0.62;-0.974508;-0.089306;0.012301;0.0;-0.1;-0.1;-0.0;-0.0;0.0
4.0;1753879331.80517;12.660469;0.47;-0.95;-1.57;-0.997175;-0.106893;0.018453;1.0;0.0;0.4;-0.1;0.0;0.0
4.0;1753879331.809776;12.6576;0.96;-1.47;-0.28;-0.996219;-0.073266;0.013192;-0.3;0.0;0.2;-0.2;-0.0;0.0
4.0;1753879331.814382;12.658578;0.73;-0.91;-0.36;-1.032611;-0.060727;0.019239;-0.4;0.0;-0.2;-0.0;0.0;0.0
4.0;1753879331.818988;12.659733;0.42;-1.11;0.55;-1.032961;-0.099503;0.020079;0.6;-0.0;-0.1;0.1;-0.0;-0.0
4.0;1753879331.823594;12.663265;1.06;-0.94;1.21;-0.980828;-0.101632;0.010041;1.2;0.0;-0.4;-0.2;0.0;0.0
4.0;1753879331.83119;12.660156;0.56;-1.19;-0.07;-0.987468;-0.11102;0.011834;0.0;0.0;0.0;0.0;0.0;0.0
4.0;1753879331.835796;12.663176;0.46;-1.2;1.27;-0.979668;-0.097814;0.011304;-0.3;-0.0;-0.1;-0.0;0.0;0.0
4.0;1753879331.840402;12.662742;0.75;-1.63;0.44;-1.002224;-0.129619;-0.00805;0.3;-0.0;0.0;-0.0;0.0;-0.0
4.0;1753879331.845008;12.663323;1.0;-1.62;-0.15;-0.967964;-0.101867;0.016925;0.7;0.0;-0.2;0.2;-0.0;0.0
4.0;1753879331.849614;12.66569;0.36;-1.14;-0.71;-0.978789;-0.115917;0.015483;-0.6;0.0;0.0;0.1;-0.0;-0.0
4.0;1753879331.85422;12.670032;1.12;-1.09;0.83;-1.001093;-0.111657;0.012504;0.9;0.0;0.3;0.1;0.0;-0.0
4.0;1753879331.858826;12.669577;0.96;-1.06;-1.2;-0.992992;-0.138722;0.020246;-0.2;0.0;-0.3;-0.2;0.0;-0.0
4.0;1753879331.863432;12.671082;0.31;-1.79;-2.34;-0.98522;-0.114953;0.020177;0.5;0.0;-0.0;-0.3;-0.0;-0.0
4.0;1753879331.868038;12.67561;-0.04;-0.88;0.38;-1.029423;-0.176338;0.014321;0.8;-0.0;0.2;0.0;0.0;0.0
4.0;1753879331.87347;12.675781;0.56;-1.19;0.0;-0.988688;-0.111996;0.012932;0.0;0.0;0.0;0.0;0.0;0.0
4.0;1753879331.878076;12.674434;1.03;-1.66;-0.63;-0.999474;-0.134564;0.039718;1.4;-0.0;-0.1;-0.2;-0.0;-0.0
4.0;1753879331.882682;12.67372;0.15;-1.45;-1.39;-1.010823;-0.121994;0.029203;-0.5;-0.0;-0.2;0.2;0.0;-0.0
4.0;1753879331.887288;12.673287;0.94;-0.82;-1.52;-0.972276;-0.094673;0.001987;0.5;-0.0;0.2;0.2;0.0;-0.0
4.0;1753879331.891894;12.675235;1.03;-1.65;0.22;-0.998836;-0.095955;0.028813;-1.9;0.0;0.1;-0.1;-0.0;-0.0
4.0;1753879331.8965;12.675499;0.49;-0.83;-1.37;-0.98644;-0.143851;0.010886;-0.1;0.0;-0.1;0.3;-0.0;0.0
4.0;1753879331.901106;12.675291;0.56;-0.59;2.75;-0.964401;-0.123113;0.00369;0.4;-0.0;-0.2;-0.1;-0.0;0.0
4.0;1753879331.905712;12.675205;0.41;-1.42;-0.57;-1.034617;-0.169482;0.021965;-1.1;-0.0;0.2;-0.0;-0.0;0.0
4.0;1753879331.910318;12.675105;0.47;-1.6;-0.31;-0.987339;-0.126004;0.008584;-1.8;0.0;0.2;0.1;-0.0;-0.0
4.0;1753879331.914924;12.676918;0.75;-1.14;-0.17;-1.009348;-0.154194;0.004153;0.1;0.0;-0.1;0.1;0.0;0.0
4.0;1753879331.92075;12.675781;0.7;-1.12;-0.07;-0.988566;-0.114192;0.013054;0.0;0.0;0.0;0.0;0.0;0.0
4.0;1753879331.924681;12.664062;0.63;-1.12;0.07;-0.989786;-0.120658;0.011956;0.0;0.0;0.0;0.0;0.0;0.0
4.0;1753879331.929444;12.664062;0.56;-1.12;0.0;-0.988932;-0.108214;0.011468;0.0;0.0;0.0;0.0;0.0;0.0
4.0;1753879331.935525;12.664062;0.7;-1.12;0.0;-0.987834;-0.120048;0.011712;0.0;0.0;0.0;0.0;0.0;0.0
4.0;1753879331.942993;12.675781;0.7;-1.19;0.07;-0.989054;-0.116144;0.012688;0.0;0.0;0.0;0.0;0.0;0.0
4.0;1753879331.947403;12.675781;0.77;-1.12;0.0;-0.988322;-0.114558;0.011712;0.0;0.0;0.0;0.0;0.0;0.0
4.0;1753879331.951977;12.675781;0.63;-1.12;0.14;-0.987102;-0.113704;0.011224;0.0;0.0;0.0;0.0;0.0;0.0
4.0;1753879331.956469;12.675781;0.7;-1.19;0.07;-0.988932;-0.114802;0.012566;0.0;0.0;0.0;0.0;0.0;0.0
4.0;1753879331.964671;12.644531;0.56;-1.12;0.0;-0.987834;-0.114802;0.0122;0.0;0.0;0.0;0.0;0.0;0.0
4.0;1753879331.96557;12.644531;0.63;-1.12;0.07;-0.988688;-0.115778;0.012566;0.0;0.0;0.0;0.0;0.0;0.0
4.0;1753879331.970346;12.644531;0.63;-1.12;0.07;-0.989908;-0.113582;0.011102;0.0;0.0;0.0;0.0;0.0;0.0
4.0;1753879331.976031;12.644531;0.63;-1.12;0.0;-0.988932;-0.114436;0.013664;0.0;0.0;0.0;0.0;0.0;0.0
4.0;1753879331.984215;12.65625;0.7;-1.05;0.0;-0.987712;-0.112118;0.011468;0.0;0.0;0.0;0.0;0.0;0.0
4.0;1753879331.989894;12.65625;0.56;-1.12;0.0;-0.988688;-0.11529;0.01281;0.0;0.0;0.0;0.0;0.0;0.0
4.0;1753879331.992907;12.65625;0.7;-1.19;0.07;-0.989176;-0.112362;0.01281;0.0;0.0;0.0;0.0;0.0;0.0
4.0;1753879331.997479;12.648438;0.7;-1.12;0.0;-0.988444;-0.114192;0.012688;0.0;0.0;0.0;0.0;0.0;0.0
4.0;1753879332.002085;12.628172;0.7;-1.16;0.04;-0.989572;-0.114844;0.011591;0.0;0.0;0.0;0.0;0.0;0.0
4.0;1753879332.006691;12.625922;0.71;-1.15;0.04;-0.989068;-0.109617;0.012152;0.0;0.0;0.0;0.0;0.0;0.0
4.0;1753879332.011297;12.654768;0.74;-1.14;0.04;-0.987562;-0.116067;0.012754;0.0;0.0;0.0;0.0;0.0;0.0
4.0;1753879332.015903;12.650873;0.65;-1.18;0.06;-0.989048;-0.119477;0.011774;0.0;0.0;0.0;0.0;0.0;0.0
4.0;1753879332.020509;12.656724;0.59;-1.13;-0.03;-0.98812;-0.109938;0.013835;0.0;0.0;0.0;0.0;0.0;0.0
4.0;1753879332.025115;12.651268;0.76;-1.13;0.0;-0.987829;-0.119371;0.011389;0.0;0.0;0.0;0.0;0.0;0.0
4.0;1753879332.029721;12.641467;0.73;-1.15;-0.04;-0.987654;-0.117246;0.013202;0.0;0.0;0.0;0.0;0.0;0.0
4.0;1753879332.034327;12.639264;0.8;-1.15;0.04;-0.98759;-0.115526;0.013106;0.0;0.0;0.0;0.0;0.0;0.0
4.0;1753879332.038933;12.652353;0.65;-1.15;-0.09;-0.987701;-0.114755;0.012089;0.0;0.0;0.0;0.0;0.0;0.0
4.0;1753879332.043539;12.641567;0.77;-1.09;0.02;-0.988032;-0.113637;0.013241;0.0;0.0;0.0;0.0;0.0;0.0
4.0;1753879332.048145;12.654003;0.62;-1.14;-0.05;-0.987177;-0.114701;0.012448;0.0;0.0;0.0;0.0;0.0;0.0
4.0;1753879332.052751;12.633825;0.76;-1.08;0.01;-0.988119;-0.110262;0.01396;0.0;0.0;0.0;0.0;0.0;0.0
4.0;1753879332.057357;12.640671;0.79;-1.12;-0.06;-0.987573;-0.115695;0.011781;0.0;0.0;0.0;0.0;0.0;0.0
4.0;1753879332.061963;12.641654;0.66;-1.05;-0.01;-0.988006;-0.117912;0.012901;0.0;0.0;0.0;0.0;0.0;0.0
4.0;1753879332.066569;12.655382;0.71;-1.14;-0.07;-0.989665;-0.115347;0.012346;0.0;0.0;0.0;0.0;0.0;0.0
4.0;1753879332.071175;12.653397;0.69;-1.1;0.03;-0.987718;-0.113783;0.013393;0.0;0.0;0.0;0.0;0.0;0.0
4.0;1753879332.075781;12.634846;0.77;-1.1;-0.03;-0.989945;-0.110776;0.013376;0.0;0.0;0.0;0.0;0.0;0.0
4.0;1753879332.080387;12.647672;0.61;-1.12;-0.04;-0.9888;-0.11353;0.013267;0.0;0.0;0.0;0.0;0.0;0.0
4.0;1753879332.084993;12.651075;0.61;-1.17;-0.03;-0.989086;-0.11356;0.013006;0.0;0.0;0.0;0.0;0.0;0.0
4.0;1753879332.089599;12.635218;0.63;-1.2;-0.03;-0.988105;-0.110672;0.012959;0.0;0.0;0.0;0.0;0.0;0.0
4.0;1753879332.094205;12.635152;0.73;-1.14;-0.03;-0.989809;-0.112614;0.012584;0.0;0.0;0.0;0.0;0.0;0.0
4.0;1753879332.098811;12.65604;0.59;-1.15;-0.04;-0.988793;-0.114564;0.012608;0.0;0.0;0.0;0.0;0.0;0.0
4.0;1753879332.103417;12.643539;0.72;-1.12;0.03;-0.988583;-0.113809;0.012214;0.0;0.0;0.0;0.0;0.0;0.0
4.0;1753879332.108023;12.627062;0.75;-1.15;0.04;-0.987461;-0.112117;0.01279;0.0;0.0;0.0;0.0;0.0;0.0
4.0;1753879332.112629;12.642531;0.65;-1.15;-0.01;-0.989045;-0.112755;0.013427;0.0;0.0;0.0;0.0;0.0;0.0
4.0;1753879332.117235;12.639431;0.58;-1.14;0.06;-0.989887;-0.116767;0.011631;0.0;0.0;0.0;0.0;0.0;0.0
4.0;1753879332.121841;12.634138;0.71;-1.11;-0.03;-0.988217;-0.111077;0.012992;0.0;0.0;0.0;0.0;0.0;0.0
4.0;1753879332.126447;12.651462;0.61;-1.09;0.02;-0.987824;-0.116452;0.011694;0.0;0.0;0.0;0.0;0.0;0.0
4.0;1753879332.131053;12.640409;0.54;-1.16;-0.04;-0.989153;-0.115653;0.012263;0.0;0.0;0.0;0.0;0.0;0.0
4.0;1753879332.135659;12.642607;0.68;-1.16;-0.03;-0.990086;-0.112476;0.013276;0.0;0.0;0.0;0.0;0.0;0.0
4.0;1753879332.140265;12.678093;0.68;-1.19;0.01;-0.987698;-0.119089;0.013677;0.0;0.0;0.0;0.0;0.0;0.0
4.0;1753879332.144871;12.657571;0.67;-1.11;0.07;-0.987359;-0.115423;0.012731;0.0;0.0;0.0;0.0;0.0;0.0
4.0;1753879332.149477;12.631709;0.65;-1.19;0.01;-0.988662;-0.113828;0.014002;0.0;0.0;0.0;0.0;0.0;0.0
4.0;1753879332.154083;12.638523;0.67;-1.14;-0.01;-0.988162;-0.118339;0.012009;0.0;0.0;0.0;0.0;0.0;0.0
4.0;1753879332.158689;12.642732;0.6;-1.12;-0.02;-0.988222;-0.112802;0.011405;0.0;0.0;0.0;0.0;0.0;0.0
4.0;1753879332.163295;12.656732;0.64;-1.2;0.02;-0.987783;-0.116321;0.012883;0.0;0.0;0.0;0.0;0.0;0.0
4.0;1753879332.167901;12.660391;0.67;-1.16;-0.07;-0.989329;-0.11688;0.011856;0.0;0.0;0.0;0.0;0.0;0.0
4.0;1753879332.172507;12.6586;0.68;-1.11;0.0;-0.988867;-0.111824;0.013626;0.0;0.0;0.0;0.0;0.0;0.0
4.0;1753879332.177113;12.619354;0.69;-1.17;-0.05;-0.987834;-0.119212;0.012873;0.0;0.0;0.0;0.0;0.0;0.0
4.0;1753879332.181719;12.645417;0.62;-1.16;-0.01;-0.989063;-0.113989;0.014251;0.0;0.0;0.0;0.0;0.0;0.0
4.0;1753879332.186325;12.666343;0.65;-1.15;0.05;-0.990062;-0.111645;0.013039;0.0;0.0;0.0;0.0;0.0;0.0
4.0;1753879332.190931;12.651655;0.67;-1.15;-0.01;-0.988786;-0.112653;0.012266;0.0;0.0;0.0;0.0;0.0;0.0
4.0;1753879332.195537;12.635869;0.7;-1.18;0.01;-0.987219;-0.116534;0.013029;0.0;0.0;0.0;0.0;0.0;0.0
4.0;1753879332.200143;12.639791;0.58;-1.17;0.0;-0.987759;-0.11735;0.012683;0.0;0.0;0.0;0.0;0.0;0.0
4.0;1753879332.204749;12.642372;0.71;-1.17;-0.09;-0.988874;-0.115273;0.011678;0.0;0.0;0.0;0.0;0.0;0.0
4.0;1753879332.209355;12.641332;0.67;-1.14;-0.05;-0.988874;-0.111751;0.013501;0.0;0.0;0.0;0.0;0.0;0.0
4.0;1753879332.213961;12.650999;0.73;-1.15;0.05;-0.988144;-0.120443;0.013466;0.0;0.0;0.0;0.0;0.0;0.0
4.0;1753879332.218567;12.664875;0.62;-1.21;-0.04;-0.989402;-0.117077;0.012511;0.0;0.0;0.0;0.0;0.0;0.0
4.0;1753879332.223174;12.642976;0.64;-1.2;-0.02;-0.987512;-0.113734;0.012358;0.0;0.0;0.0;0.0;0.0;0.0
4.0;1753879332.22778;12.654275;0.68;-1.24;0.03;-0.987919;-0.113545;0.01237;0.0;0.0;0.0;0.0;0.0;0.0
4.0;1753879332.232386;12.633352;0.64;-1.07;0.02;-0.987428;-0.115586;0.013307;0.0;0.0;0.0;0.0;0.0;0.0
4.0;1753879332.236992;12.637826;0.69;-1.16;-0.05;-0.988911;-0.116029;0.012051;0.0;0.0;0.0;0.0;0.0;0.0
4.0;1753879332.241598;12.641263;0.6;-1.11;-0.0;-0.988367;-0.114509;0.012041;0.0;0.0;0.0;0.0;0.0;0.0
4.0;1753879332.246204;12.662063;0.7;-1.16;-0.0;-0.987566;-0.113124;0.012093;0.0;0.0;0.0;0.0;0.0;0.0
4.0;1753879332.25081;12.654423;0.64;-1.19;0.09;-0.98775;-0.115043;0.0138;0.0;0.0;0.0;0.0;0.0;0.0
4.0;1753879332.255416;12.648492;0.64;-1.13;0.01;-0.986912;-0.114318;0.012828;0.0;0.0;0.0;0.0;0.0;0.0
4.0;1753879332.260022;12.644605;0.71;-1.19;0.04;-0.989083;-0.111865;0.013206;0.0;0.0;0.0;0.0;0.0;0.0
4.0;1753879332.264628;12.653223;0.6;-1.13;0.01;-0.988453;-0.11659;0.013398;0.0;0.0;0.0;0.0;0.0;0.0
4.0;1753879332.269234;12.637745;0.58;-1.18;0.0;-0.986618;-0.113063;0.012239;0.0;0.0;0.0;0.0;0.0;0.0
4.0;1753879332.27384;12.636907;0.6;-1.18;0.01;-0.989602;-0.120605;0.012641;0.0;0.0;0.0;0.0;0.0;0.0
4.0;1753879332.278446;12.623593;0.67;-1.13;0.05;-0.990034;-0.116649;0.012466;0.0;0.0;0.0;0.0;0.0;0.0
4.0;1753879332.283052;12.649343;0.63;-1.16;-0.02;-0.987619;-0.118108;0.013322;0.0;0.0;0.0;0.0;0.0;0.0
4.0;1753879332.287658;12.64745;0.8;-1.15;-0.08;-0.989539;-0.115253;0.012187;0.0;0.0;0.0;0.0;0.0;0.0
4.0;1753879332.292264;12.652354;0.61;-1.19;0.02;-0.988943;-0.11076;0.01296;0.0;0.0;0.0;0.0;0.0;0.0
4.0;1753879332.29687;12.644343;0.7;-1.21;-0.02;-0.989397;-0.115365;0.013327;0.0;0.0;0.0;0.0;0.0;0.0
4.0;1753879332.301476;12.648168;0.59;-1.16;-0.06;-0.987683;-0.110147;0.013285;0.0;0.0;0.0;0.0;0.0;0.0
4.0;1753879332.306082;12.659975;0.58;-1.13;0.05;-0.989663;-0.11937;0.012503;0.0;0.0;0.0;0.0;0.0;0.0
4.0;1753879332.310688;12.661358;0.62;-1.17;-0.01;-0.988538;-0.115763;0.013127;0.0;0.0;0.0;0.0;0.0;0.0
4.0;1753879332.315294;12.643687;0.72;-1.16;0.01;-0.988103;-0.112118;0.013444;0.0;0.0;0.0;0.0;0.0;0.0
4.0;1753879332.3199;12.63656;0.59;-1.17;0.08;-0.987677;-0.116721;0.011958;0.0;0.0;0.0;0.0;0.0;0.0
4.0;1753879332.324506;12.637465;0.63;-1.26;0.03;-0.988026;-0.114764;0.012712;0.0;0.0;0.0;0.0;0.0;0.0
4.0;1753879332.329112;12.666566;0.57;-1.22;0.01;-0.988143;-0.111528;0.011976;0.0;0.0;0.0;0.0;0.0;0.0
4.0;1753879332.333718;12.642298;0.73;-1.24;0.01;-0.988853;-0.116063;0.012351;0.0;0.0;0.0;0.0;0.0;0.0
4.0;1753879332.3382;12.648438;0.63;-1.19;0.0;-0.988444;-0.11529;0.01281;0.0;0.0;0.0;0.0;0.0;0.0
4.0;1753879332.342806;12.646152;0.58;-1.13;0.01;-0.989021;-0.118246;0.01305;0.0;0.0;0.0;0.0;0.0;0.0
4.0;1753879332.347412;12.650887;0.57;-1.14;-0.0;-0.988411;-0.113783;0.012838;0.0;0.0;0.0;0.0;0.0;0.0
4.0;1753879332.352018;12.664358;0.54;-1.2;0.07;-0.986936;-0.11308;0.013223;0.0;0.0;0.0;0.0;0.0;0.0
4.0;1753879332.356624;12.651028;0.72;-1.16;0.01;-0.987212;-0.116083;0.011812;0.0;0.0;0.0;0.0;0.0;0.0
4.0;1753879332.36123;12.663233;0.65;-1.19;0.06;-0.987657;-0.117543;0.012789;0.0;0.0;0.0;0.0;0.0;0.0
4.0;1753879332.365836;12.651307;0.53;-1.14;-0.1;-0.988286;-0.1155;0.013772;0.0;0.0;0.0;0.0;0.0;0.0
4.0;1753879332.370442;12.653182;0.65;-1.24;-0.0;-0.987628;-0.11919;0.01178;0.0;0.0;0.0;0.0;0.0;0.0
4.0;1753879332.375048;12.661164;0.66;-1.2;0.01;-0.989005;-0.116075;0.01296;0.0;0.0;0.0;0.0;0.0;0.0
4.0;1753879332.379654;12.662499;0.73;-1.15;0.12;-0.988103;-0.108851;0.010926;0.0;0.0;0.0;0.0;0.0;0.0
4.0;1753879332.38426;12.658358;0.65;-1.22;0.03;-0.988392;-0.116064;0.013043;0.0;0.0;0.0;0.0;0.0;0.0
4.0;1753879332.388866;12.623988;0.55;-1.2;-0.05;-0.989775;-0.114632;0.012942;0.0;0.0;0.0;0.0;0.0;0.0
4.0;1753879332.393472;12.648641;0.72;-1.15;0.02;-0.988368;-0.112747;0.01329;0.0;0.0;0.0;0.0;0.0;0.0
4.0;1753879332.398078;12.665302;0.8;-1.18;0.04;-0.989334;-0.114121;0.013485;0.0;0.0;0.0;0.0;0.0;0.0
4.0;1753879332.402684;12.625602;0.57;-1.19;0.09;-0.989031;-0.114961;0.012745;0.0;0.0;0.0;0.0;0.0;0.0
4.0;1753879332.40729;12.645753;0.67;-1.17;0.01;-0.987566;-0.115007;0.01297;0.0;0.0;0.0;0.0;0.0;0.0
4.0;1753879332.411896;12.653171;0.72;-1.2;-0.0;-0.989625;-0.11916;0.01256;0.0;0.0;0.0;0.0;0.0;0.0
4.0;1753879332.416502;12.65486;0.74;-1.2;0.05;-0.988881;-0.113439;0.012702;0.0;0.0;0.0;0.0;0.0;0.0
4.0;1753879332.421108;12.631722;0.76;-1.14;0.02;-0.988644;-0.113202;0.013367;0.0;0.0;0.0;0.0;0.0;0.0
4.0;1753879332.425714;12.668766;0.68;-1.13;-0.05;-0.986193;-0.115015;0.01184;0.0;0.0;0.0;0.0;0.0;0.0
4.0;1753879332.43032;12.630903;0.73;-1.13;0.02;-0.989892;-0.114601;0.012615;0.0;0.0;0.0;0.0;0.0;0.0
4.0;1753879332.434926;12.649975;0.61;-1.23;0.03;-0.98829;-0.116307;0.013547;0.0;0.0;0.0;0.0;0.0;0.0
4.0;1753879332.439532;12.643154;0.66;-1.16;0.0;-0.988319;-0.111331;0.012189;0.0;0.0;0.0;0.0;0.0;0.0
4.0;1753879332.444138;12.663124;0.65;-1.28;-0.01;-0.988574;-0.119562;0.01154;0.0;0.0;0.0;0.0;0.0;0.0
4.0;1753879332.448744;12.641556;0.66;-1.21;0.02;-0.988477;-0.112644;0.013809;0.0;0.0;0.0;0.0;0.0;0.0
4.0;1753879332.45335;12.638947;0.71;-1.17;0.01;-0.986911;-0.113129;0.012835;0.0;0.0;0.0;0.0;0.0;0.0
4.0;1753879332.457956;12.659038;0.67;-1.24;0.05;-0.989281;-0.113967;0.013009;0.0;0.0;0.0;0.0;0.0;0.0
4.0;1753879332.462562;12.665192;0.78;-1.21;0.02;-0.98881;-0.116496;0.013088;0.0;0.0;0.0;0.0;0.0;0.0
4.0;1753879332.467168;12.650189;0.68;-1.2;0.04;-0.988414;-0.112047;0.011976;0.0;0.0;0.0;0.0;0.0;0.0
4.0;1753879332.471774;12.657312;0.73;-1.16;0.06;-0.986934;-0.119044;0.013035;0.0;0.0;0.0;0.0;0.0;0.0
4.0;1753879332.47638;12.65027;0.65;-1.25;0.07;-0.989147;-0.113121;0.012007;0.0;0.0;0.0;0.0;0.0;0.0
4.0;1753879332.480986;12.635901;0.58;-1.22;-0.01;-0.989812;-0.115173;0.012595;0.0;0.0;0.0;0.0;0.0;0.0
4.0;1753879332.485592;12.647316;0.81;-1.26;0.08;-0.988507;-0.114471;0.012282;0.0;0.0;0.0;0.0;0.0;0.0
4.0;1753879332.490198;12.648038;0.66;-1.21;0.01;-0.987587;-0.109922;0.013203;0.0;0.0;0.0;0.0;0.0;0.0
4.0;1753879332.494804;12.643799;0.72;-1.22;0.07;-0.989273;-0.118564;0.012062;0.0;0.0;0.0;0.0;0.0;0.0
4.0;1753879332.49941;12.655805;0.74;-1.2;0.06;-0.987027;-0.112914;0.013215;0.0;0.0;0.0;0.0;0.0;0.0
4.0;1753879332.504016;12.658195;0.69;-1.21;-0.01;-0.986618;-0.113719;0.013708;0.0;0.0;0.0;0.0;0.0;0.0
4.0;1753879332.508622;12.653837;0.59;-1.15;0.0;-0.987352;-0.11453;0.013614;0.0;0.0;0.0;0.0;0.0;0.0
4.0;1753879332.513228;12.661849;0.82;-1.18;0.04;-0.988223;-0.11942;0.013266;0.0;0.0;0.0;0.0;0.0;0.0
4.0;1753879332.517834;12.654711;0.55;-1.2;0.01;-0.98851;-0.115608;0.013548;0.0;0.0;0.0;0.0;0.0;0.0
4.0;1753879332.52244;12.630782;0.77;-1.2;0.07;-0.987513;-0.115504;0.012603;0.0;0.0;0.0;0.0;0.0;0.0
4.0;1753879332.527046;12.64855;0.81;-1.16;0.04;-0.988157;-0.115285;0.012437;0.0;0.0;0.0;0.0;0.0;0.0
4.0;1753879332.531652;12.657068;0.73;-1.18;0.04;-0.988895;-0.120822;0.013239;0.0;0.0;0.0;0.0;0.0;0.0
4.0;1753879332.536258;12.660222;0.72;-1.17;-0.1;-0.987514;-0.115872;0.012322;0.0;0.0;0.0;0.0;0.0;0.0
4.0;1753879332.540864;12.667674;0.68;-1.23;0.04;-0.987832;-0.115062;0.011694;0.0;0.0;0.0;0.0;0.0;0.0
4.0;1753879332.54547;12.648636;0.67;-1.19;-0.02;-0.98831;-0.115826;0.013387;0.0;0.0;0.0;0.0;0.0;0.0
4.0;1753879332.550076;12.660841;0.77;-1.16;0.04;-0.989573;-0.115455;0.01263;0.0;0.0;0.0;0.0;0.0;0.0
4.0;1753879332.554682;12.643441;0.61;-1.19;0.02;-0.986741;-0.11527;0.013165;0.0;0.0;0.0;0.0;0.0;0.0
4.0;1753879332.559288;12.640741;0.64;-1.15;0.06;-0.989525;-0.11653;0.012787;0.0;0.0;0.0;0.0;0.0;0.0
4.0;1753879332.563894;12.649324;0.64;-1.23;0.03;-0.987851;-0.112833;0.01484;0.0;0.0;0.0;0.0;0.0;0.0
4.0;1753879332.5685;12.654373;0.66;-1.15;0.08;-0.988926;-0.116703;0.013167;0.0;0.0;0.0;0.0;0.0;0.0
4.0;1753879332.573106;12.630213;0.73;-1.21;0.04;-0.988663;-0.11827;0.013065;0.0;0.0;0.0;0.0;0.0;0.0
4.0;1753879332.577712;12.651362;0.75;-1.24;0.07;-0.988449;-0.114062;0.013125;0.0;0.0;0.0;0.0;0.0;0.0
4.0;1753879332.582318;12.644871;0.72;-1.17;0.19;-0.987248;-0.115702;0.013585;0.0;0.0;0.0;0.0;0.0;0.0
4.0;1753879332.586924;12.657575;0.63;-1.16;0.07;-0.988053;-0.116265;0.013283;0.0;0.0;0.0;0.0;0.0;0.0
4.0;1753879332.59153;12.645923;0.78;-1.2;0.11;-0.987278;-0.110117;0.01306;0.0;0.0;0.0;0.0;0.0;0.0
4.0;1753879332.596136;12.652903;0.74;-1.19;0.07;-0.987504;-0.113709;0.012016;0.0;0.0;0.0;0.0;0.0;0.0
4.0;1753879332.600742;12.662144;0.75;-1.23;-0.0;-0.987811;-0.116722;0.012681;0.0;0.0;0.0;0.0;0.0;0.0
4.0;1753879332.605348;12.631735;0.74;-1.23;-0.02;-0.988265;-0.118035;0.012856;0.0;0.0;0.0;0.0;0.0;0.0
4.0;1753879332.609954;12.655282;0.84;-1.17;0.1;-0.988452;-0.120691;0.011644;0.0;0.0;0.0;0.0;0.0;0.0
4.0;1753879332.61456;12.648885;0.67;-1.2;0.08;-0.988477;-0.117524;0.013059;0.0;0.0;0.0;0.0;0.0;0.0
4.0;1753879332.619166;12.634554;0.75;-1.19;0.09;-0.988432;-0.115376;0.013885;0.0;0.0;0.0;0.0;0.0;0.0
4.0;1753879332.623772;12.652979;0.76;-1.17;0.04;-0.987471;-0.114809;0.013663;0.0;0.0;0.0;0.0;0.0;0.0
4.0;1753879332.628379;12.652313;0.78;-1.24;0.03;-0.987474;-0.114378;0.013272;0.0;0.0;0.0;0.0;0.0;0.0
4.0;1753879332.632985;12.657915;0.68;-1.18;0.1;-0.990086;-0.114;0.011949;0.0;0.0;0.0;0.0;0.0;0.0
4.0;1753879332.637591;12.658469;0.71;-1.12;0.05;-0.989614;-0.110561;0.012289;0.0;0.0;0.0;0.0;0.0;0.0
4.0;1753879332.642197;12.644877;0.94;-1.18;0.12;-0.989196;-0.115353;0.012695;0.0;0.0;0.0;0.0;0.0;0.0
4.0;1753879332.6477;12.648438;0.77;-1.19;0.07;-0.988444;-0.11529;0.01281;0.0;0.0;0.0;0.0;0.0;0.0
4.0;1753879332.652306;12.661585;0.62;-1.12;0.01;-0.988704;-0.115034;0.012962;0.0;0.0;0.0;0.0;0.0;0.0
4.0;1753879332.65686;12.652344;0.56;-1.12;0.07;-0.988078;-0.116632;0.011956;0.0;0.0;0.0;0.0;0.0;0.0
4.0;1753879332.661466;12.645938;0.55;-1.14;0.07;-0.985681;-0.119945;0.012678;0.0;0.0;0.0;0.0;0.0;0.0
4.0;1753879332.666072;12.643223;0.47;-1.19;0.09;-0.987874;-0.118689;0.012169;0.0;0.0;0.0;0.0;0.0;0.0
4.0;1753879332.670678;12.685646;0.68;-1.13;0.18;-0.989493;-0.117121;0.012537;0.0;0.0;0.0;0.0;0.0;0.0
4.0;1753879332.675284;12.66845;0.6;-1.08;0.12;-0.987794;-0.117333;0.01119;0.0;0.0;0.0;0.0;0.0;0.0
4.0;1753879332.67989;12.662072;0.61;-1.12;0.11;-0.989389;-0.11398;0.010726;0.0;0.0;0.0;0.0;0.0;0.0
4.0;1753879332.684496;12.671689;0.7;-1.14;0.07;-0.988604;-0.116022;0.011068;0.0;0.0;0.0;0.0;0.0;0.0
4.0;1753879332.689102;12.658545;0.66;-1.09;0.17;-0.989123;-0.116126;0.012642;0.0;0.0;0.0;0.0;0.0;0.0
4.0;1753879332.693708;12.659423;0.66;-1.11;0.08;-0.98836;-0.113564;0.011458;0.0;0.0;0.0;0.0;0.0;0.0
4.0;1753879332.698314;12.654791;0.64;-1.17;0.02;-0.989805;-0.113058;0.011408;0.0;0.0;0.0;0.0;0.0;0.0
4.0;1753879332.70582;12.664062;0.63;-1.12;0.14;-0.988566;-0.113216;0.012566;0.0;0.0;0.0;0.0;0.0;0.0
4.0;1753879332.710426;12.688287;0.61;-1.13;0.06;-0.986243;-0.112425;0.012179;0.0;0.0;0.0;0.0;0.0;0.0
4.0;1753879332.715032;12.664684;0.54;-1.11;0.1;-0.987869;-0.11354;0.013359;0.0;0.0;0.0;0.0;0.0;0.0
4.0;1753879332.719638;12.673253;0.51;-1.06;-0.0;-0.988834;-0.114623;0.013212;0.0;0.0;0.0;0.0;0.0;0.0
4.0;1753879332.724244;12.665348;0.75;-0.99;0.18;-0.986906;-0.116109;0.012738;0.0;0.0;0.0;0.0;0.0;0.0
4.0;1753879332.72885;12.669209;0.65;-1.07;0.03;-0.987229;-0.10921;0.013147;0.0;0.0;0.0;0.0;0.0;0.0
4.0;1753879332.733456;12.66832;0.65;-1.01;-0.09;-0.987738;-0.111051;0.010846;0.0;0.0;0.0;0.0;0.0;0.0
4.0;1753879332.738062;12.663376;0.71;-1.04;-0.04;-0.986792;-0.114812;0.011886;0.0;0.0;0.0;0.0;0.0;0.0
4.0;1753879332.742668;12.653626;0.58;-1.09;0.09;-0.987535;-0.112857;0.011294;0.0;0.0;0.0;0.0;0.0;0.0
4.0;1753879332.74821;12.664062;0.63;-1.05;-0.07;-0.987468;-0.112606;0.011956;0.0;0.0;0.0;0.0;0.0;0.0
4.0;1753879332.752816;12.648233;0.59;-1.03;-0.03;-0.987841;-0.115233;0.010856;0.0;0.0;0.0;0.0;0.0;0.0
4.0;1753879332.757422;12.675911;0.54;-1.09;-0.11;-0.987704;-0.111595;0.012161;0.0;0.0;0.0;0.0;0.0;0.0
4.0;1753879332.762028;12.658898;0.7;-1.05;-0.05;-0.98844;-0.112868;0.012981;0.0;0.0;0.0;0.0;0.0;0.0
4.0;1753879332.766634;12.673062;0.65;-1.1;-0.08;-0.988298;-0.112914;0.012972;0.0;0.0;0.0;0.0;0.0;0.0
4.0;1753879332.77124;12.656119;0.54;-1.04;-0.04;-0.988636;-0.112227;0.012921;0.0;0.0;0.0;0.0;0.0;0.0
4.0;1753879332.775846;12.66745;0.51;-1.1;-0.0;-0.987031;-0.114848;0.012016;0.0;0.0;0.0;0.0;0.0;0.0
4.0;1753879332.780452;12.668586;0.57;-1.08;-0.13;-0.988507;-0.117745;0.012278;0.0;0.0;0.0;0.0;0.0;0.0
4.0;1753879332.785058;12.649462;0.63;-1.07;0.02;-0.987909;-0.11457;0.011507;0.0;0.0;0.0;0.0;0.0;0.0
4.0;1753879332.789664;12.663307;0.59;-1.13;-0.2;-0.989288;-0.112983;0.012369;0.0;0.0;0.0;0.0;0.0;0.0
4.0;1753879332.79427;12.673763;0.66;-1.1;0.01;-0.988272;-0.114683;0.012813;0.0;0.0;0.0;0.0;0.0;0.0
4.0;1753879332.798876;12.66248;0.59;-1.12;-0.17;-0.989887;-0.118523;0.011297;0.0;0.0;0.0;0.0;0.0;0.0
4.0;1753879332.803482;12.660129;0.71;-1.12;-0.1;-0.986354;-0.11356;0.01161;0.0;0.0;0.0;0.0;0.0;0.0
4.0;1753879332.808088;12.626817;0.69;-1.17;-0.09;-0.98654;-0.11584;0.012334;0.0;0.0;0.0;0.0;0.0;0.0
4.0;1753879332.812694;12.653186;0.59;-1.15;-0.01;-0.987321;-0.121179;0.012193;0.0;0.0;0.0;0.0;0.0;0.0
4.0;1753879332.8173;12.65934;0.57;-1.12;-0.15;-0.986635;-0.115867;0.012669;0.0;0.0;0.0;0.0;0.0;0.0
4.0;1753879332.821906;12.676968;0.61;-1.13;-0.22;-0.988458;-0.12071;0.012711;0.0;0.0;0.0;0.0;0.0;0.0
4.0;1753879332.826512;12.65427;0.6;-1.17;-0.13;-0.987258;-0.115976;0.012447;0.0;0.0;0.0;0.0;0.0;0.0
4.0;1753879332.83141;12.664062;0.63;-1.12;-0.07;-0.988444;-0.117364;0.012566;0.0;0.0;0.0;0.0;0.0;0.0
4.0;1753879332.836016;12.645934;0.7;-1.09;-0.06;-0.989224;-0.114297;0.013247;0.0;0.0;0.0;0.0;0.0;0.0
4.0;1753879332.840622;12.672621;0.62;-1.16;-0.11;-0.988005;-0.117538;0.013538;0.0;0.0;0.0;0.0;0.0;0.0
4.0;1753879332.845228;12.673786;0.53;-1.09;0.07;-0.988978;-0.115211;0.011607;0.0;0.0;0.0;0.0;0.0;0.0
4.0;1753879332.849834;12.688345;0.62;-1.11;0.09;-0.988313;-0.121326;0.0125;0.0;0.0;0.0;0.0;0.0;0.0
4.0;1753879332.85444;12.696214;0.59;-1.16;-0.08;-0.989153;-0.112724;0.012239;0.0;0.0;0.0;0.0;0.0;0.0
4.0;1753879332.859046;12.664054;0.56;-1.22;-0.11;-0.987416;-0.116344;0.012503;0.0;0.0;0.0;0.0;0.0;0.0
4.0;1753879332.863652;12.669591;0.6;-1.16;-0.08;-0.989367;-0.114606;0.011995;0.0;0.0;0.0;0.0;0.0;0.0
4.0;1753879332.868258;12.695559;0.55;-1.15;-0.03;-0.989068;-0.115528;0.014042;0.0;0.0;0.0;0.0;0.0;0.0
4.0;1753879332.872864;12.689847;0.62;-1.04;-0.12;-0.988199;-0.115238;0.01173;0.0;0.0;0.0;0.0;0.0;0.0
4.0;1753879332.87747;12.689793;0.57;-1.06;0.09;-0.98877;-0.114865;0.011651;0.0;0.0;0.0;0.0;0.0;0.0
4.0;1753879332.882076;12.690852;0.65;-1.15;0.0;-0.988164;-0.113439;0.012008;0.0;0.0;0.0;0.0;0.0;0.0
4.0;1753879332.88918;12.703125;0.63;-1.12;0.0;-0.988566;-0.114924;0.011834;0.0;0.0;0.0;0.0;0.0;0.0
4.0;1753879332.893786;12.691129;0.83;-1.2;-0.07;-0.988884;-0.112506;0.014093;0.0;0.0;0.0;0.0;0.0;0.0
4.0;1753879332.898392;12.730537;0.72;-1.2;0.05;-0.987595;-0.113897;0.011919;0.0;0.0;0.0;0.0;0.0;0.0
4.0;1753879332.902998;12.730776;0.73;-1.14;0.0;-0.98677;-0.113352;0.013069;0.0;0.0;0.0;0.0;0.0;0.0
4.0;1753879332.907604;12.695169;0.68;-1.17;0.03;-0.98985;-0.110769;0.012169;0.0;0.0;0.0;0.0;0.0;0.0
4.0;1753879332.91221;12.717356;0.73;-1.11;0.03;-0.988833;-0.116276;0.013648;0.0;0.0;0.0;0.0;0.0;0.0
4.0;1753879332.916816;12.702696;0.58;-1.2;-0.08;-0.988454;-0.114387;0.01425;0.0;0.0;0.0;0.0;0.0;0.0
4.0;1753879332.921422;12.702094;0.59;-1.16;0.02;-0.986949;-0.114626;0.013393;0.0;0.0;0.0;0.0;0.0;0.0
4.0;1753879332.926028;12.68708;0.75;-1.16;-0.21;-0.98683;-0.115887;0.01434;0.0;0.0;0.0;0.0;0.0;0.0
4.0;1753879332.93019;12.703125;0.7;-1.19;0.0;-0.987712;-0.115534;0.014274;0.0;0.0;0.0;0.0;0.0;0.0
4.0;1753879332.934796;12.697196;0.57;-1.13;-0.03;-0.987668;-0.114843;0.014002;0.0;0.0;0.0;0.0;0.0;0.0
4.0;1753879332.939402;12.687131;0.63;-1.14;-0.0;-0.986891;-0.118286;0.013295;0.0;0.0;0.0;0.0;0.0;0.0
4.0;1753879332.944008;12.697271;0.77;-1.15;0.08;-0.987661;-0.116433;0.013705;0.0;0.0;0.0;0.0;0.0;0.0
4.0;1753879332.948614;12.707056;0.77;-1.15;-0.0;-0.986731;-0.116927;0.01423;0.0;0.0;0.0;0.0;0.0;0.0
4.0;1753879332.95322;12.718311;0.51;-1.18;0.14;-0.98853;-0.112251;0.013562;0.0;0.0;0.0;0.0;0.0;0.0
4.0;1753879332.957826;12.680446;0.67;-1.16;-0.05;-0.98806;-0.117781;0.012353;0.0;0.0;0.0;0.0;0.0;0.0
4.0;1753879332.962432;12.684878;0.55;-1.21;-0.15;-0.988003;-0.11248;0.013582;0.0;0.0;0.0;0.0;0.0;0.0
4.0;1753879332.967038;12.708986;0.65;-1.13;-0.03;-0.987202;-0.113917;0.014232;0.0;0.0;0.0;0.0;0.0;0.0
4.0;1753879332.971644;12.683399;0.65;-1.1;-0.02;-0.987241;-0.115563;0.012246;0.0;0.0;0.0;0.0;0.0;0.0
4.0;1753879332.97625;12.704167;0.58;-1.19;0.18;-0.988753;-0.111782;0.013171;0.0;0.0;0.0;0.0;0.0;0.0
4.0;1753879332.980856;12.686218;0.69;-1.13;0.08;-0.988321;-0.11609;0.012509;0.0;0.0;0.0;0.0;0.0;0.0
4.0;1753879332.98782;12.703125;0.56;-1.12;0.07;-0.988566;-0.112606;0.012688;0.0;0.0;0.0;0.0;0.0;0.0
4.0;1753879332.994869;12.660156;0.56;-1.05;0.07;-0.987468;-0.117852;0.011468;0.0;0.0;0.0;0.0;0.0;0.0
4.0;1753879332.998902;12.664062;0.63;-1.12;0.07;-0.987468;-0.117852;0.011468;0.0;0.0;0.0;0.0;0.0;0.0
4.0;1753879333.003508;12.69007;0.72;-1.08;0.08;-0.986113;-0.118511;0.011859;0.0;0.0;0.0;0.0;0.0;0.0
4.0;1753879333.008114;12.653277;0.66;-1.07;0.1;-0.986799;-0.117475;0.010806;0.0;0.0;0.0;0.0;0.0;0.0
4.0;1753879333.01272;12.692865;0.7;-1.1;0.03;-0.986911;-0.122348;0.010881;0.0;0.0;0.0;0.0;0.0;0.0
4.0;1753879333.017326;12.652558;0.62;-1.09;0.05;-0.987715;-0.119838;0.012233;0.0;0.0;0.0;0.0;0.0;0.0
4.0;1753879333.021932;12.638988;0.58;-1.05;0.09;-0.986505;-0.114055;0.011135;0.0;0.0;0.0;0.0;0.0;0.0
4.0;1753879333.026538;12.679883;0.63;-1.12;0.01;-0.987067;-0.119251;0.010575;0.0;0.0;0.0;0.0;0.0;0.0
4.0;1753879333.031144;12.63462;0.69;-1.13;0.08;-0.987763;-0.115008;0.011415;0.0;0.0;0.0;0.0;0.0;0.0
4.0;1753879333.03575;12.66429;0.59;-1.17;0.12;-0.987053;-0.121109;0.010708;0.0;0.0;0.0;0.0;0.0;0.0
4.0;1753879333.040356;12.658512;0.66;-1.17;-0.01;-0.987257;-0.118499;0.011373;0.0;0.0;0.0;0.0;0.0;0.0
4.0;1753879333.044962;12.682629;0.63;-1.22;0.06;-0.988083;-0.119437;0.010699;0.0;0.0;0.0;0.0;0.0;0.0
4.0;1753879333.049568;12.667398;0.59;-1.14;0.05;-0.987253;-0.115798;0.011763;0.0;0.0;0.0;0.0;0.0;0.0
4.0;1753879333.054174;12.644742;0.56;-1.17;0.06;-0.987637;-0.113846;0.010268;0.0;0.0;0.0;0.0;0.0;0.0
4.0;1753879333.05878;12.6943;0.61;-1.19;0.07;-0.987805;-0.122031;0.010972;0.0;0.0;0.0;0.0;0.0;0.0
4.0;1753879333.063386;12.656343;0.67;-1.12;0.1;-0.987577;-0.11949;0.012042;0.0;0.0;0.0;0.0;0.0;0.0
4.0;1753879333.067992;12.660085;0.66;-1.03;-0.01;-0.988152;-0.119074;0.010966;0.0;0.0;0.0;0.0;0.0;0.0
4.0;1753879333.072598;12.657872;0.72;-1.15;0.1;-0.987444;-0.115624;0.011417;0.0;0.0;0.0;0.0;0.0;0.0
4.0;1753879333.077204;12.667508;0.62;-1.15;0.06;-0.987328;-0.118541;0.012416;0.0;0.0;0.0;0.0;0.0;0.0
4.0;1753879333.08181;12.689772;0.63;-1.13;0.03;-0.989095;-0.122838;0.012009;0.0;0.0;0.0;0.0;0.0;0.0
4.0;1753879333.086416;12.676207;0.7;-1.16;0.02;-0.988027;-0.120904;0.011378;0.0;0.0;0.0;0.0;0.0;0.0
4.0;1753879333.091022;12.682254;0.73;-1.1;0.09;-0.988472;-0.117758;0.011274;0.0;0.0;0.0;0.0;0.0;0.0
4.0;1753879333.095628;12.70077;0.66;-1.14;0.03;-0.988317;-0.118294;0.012423;0.0;0.0;0.0;0.0;0.0;0.0
4.0;1753879333.100234;12.684111;0.66;-1.18;0.08;-0.987327;-0.118596;0.012458;0.0;0.0;0.0;0.0;0.0;0.0
4.0;1753879333.10484;12.648437;0.62;-1.16;0.06;-0.987252;-0.113988;0.011751;0.0;0.0;0.0;0.0;0.0;0.0
4.0;1753879333.109446;12.67228;0.68;-1.07;0.07;-0.988255;-0.122823;0.012582;0.0;0.0;0.0;0.0;0.0;0.0
4.0;1753879333.114052;12.674945;0.74;-1.16;0.07;-0.987344;-0.112617;0.009856;0.0;0.0;0.0;0.0;0.0;0.0
4.0;1753879333.118658;12.630294;0.67;-1.03;0.02;-0.987411;-0.113828;0.011229;0.0;0.0;0.0;0.0;0.0;0.0
4.0;1753879333.123264;12.67176;0.57;-1.2;0.11;-0.989756;-0.118843;0.011697;0.0;0.0;0.0;0.0;0.0;0.0
4.0;1753879333.12787;12.662354;0.69;-1.12;0.04;-0.987754;-0.118937;0.01062;0.0;0.0;0.0;0.0;0.0;0.0
4.0;1753879333.132476;12.620283;0.63;-1.11;0.07;-0.986603;-0.116386;0.012896;0.0;0.0;0.0;0.0;0.0;0.0
4.0;1753879333.137082;12.675726;0.61;-1.14;0.1;-0.988097;-0.11818;0.013144;0.0;0.0;0.0;0.0;0.0;0.0
4.0;1753879333.141688;12.639619;0.69;-1.09;0.03;-0.987642;-0.11875;0.009618;0.0;0.0;0.0;0.0;0.0;0.0
4.0;1753879333.146294;12.658379;0.65;-1.09;-0.03;-0.988154;-0.114403;0.012019;0.0;0.0;0.0;0.0;0.0;0.0
4.0;1753879333.1509;12.645468;0.68;-1.12;0.07;-0.987579;-0.118216;0.011602;0.0;0.0;0.0;0.0;0.0;0.0
4.0;1753879333.155506;12.664076;0.71;-1.21;0.07;-0.985855;-0.114474;0.012018;0.0;0.0;0.0;0.0;0.0;0.0
4.0;1753879333.160112;12.676183;0.65;-1.1;0.11;-0.988856;-0.116456;0.011378;0.0;0.0;0.0;0.0;0.0;0.0
4.0;1753879333.164718;12.662755;0.73;-1.18;-0.01;-0.988585;-0.122435;0.010794;0.0;0.0;0.0;0.0;0.0;0.0
4.0;1753879333.169324;12.647075;0.63;-1.04;0.05;-0.988447;-0.12055;0.009377;0.0;0.0;0.0;0.0;0.0;0.0
4.0;1753879333.17393;12.650814;0.66;-1.1;0.1;-0.9878;-0.116462;0.012322;0.0;0.0;0.0;0.0;0.0;0.0
4.0;1753879333.178536;12.677331;0.69;-1.1;-0.01;-0.989405;-0.124332;0.012414;0.0;0.0;0.0;0.0;0.0;0.0
4.0;1753879333.183142;12.664798;0.74;-1.02;0.05;-0.989016;-0.120601;0.010953;0.0;0.0;0.0;0.0;0.0;0.0
4.0;1753879333.187748;12.681476;0.73;-1.08;0.01;-0.98569;-0.119406;0.012471;0.0;0.0;0.0;0.0;0.0;0.0
4.0;1753879333.192354;12.658442;0.6;-1.1;0.07;-0.987455;-0.118305;0.011646;0.0;0.0;0.0;0.0;0.0;0.0
4.0;1753879333.19696;12.644482;0.66;-1.14;0.08;-0.987107;-0.118707;0.01262;0.0;0.0;0.0;0.0;0.0;0.0
4.0;1753879333.201566;12.675205;0.65;-1.05;0.0;-0.989847;-0.117653;0.012469;0.0;0.0;0.0;0.0;0.0;0.0
4.0;1753879333.206172;12.661287;0.74;-1.12;0.07;-0.987575;-0.119439;0.010791;0.0;0.0;0.0;0.0;0.0;0.0
4.0;1753879333.210778;12.651656;0.63;-1.21;-0.03;-0.987345;-0.118039;0.011992;0.0;0.0;0.0;0.0;0.0;0.0
4.0;1753879333.215384;12.662243;0.79;-1.21;0.04;-0.988263;-0.118546;0.011483;0.0;0.0;0.0;0.0;0.0;0.0
4.0;1753879333.21999;12.669682;0.7;-1.11;0.08;-0.987248;-0.119364;0.010894;0.0;0.0;0.0;0.0;0.0;0.0
4.0;1753879333.224596;12.66398;0.67;-1.14;0.13;-0.987009;-0.119382;0.011686;0.0;0.0;0.0;0.0;0.0;0.0
4.0;1753879333.229202;12.665164;0.67;-1.1;-0.01;-0.988726;-0.121341;0.01104;0.0;0.0;0.0;0.0;0.0;0.0
4.0;1753879333.233808;12.665123;0.7;-1.09;0.08;-0.987999;-0.117138;0.011193;0.0;0.0;0.0;0.0;0.0;0.0
4.0;1753879333.238414;12.654349;0.68;-1.09;0.0;-0.990041;-0.118496;0.011992;0.0;0.0;0.0;0.0;0.0;0.0
4.0;1753879333.24302;12.672053;0.72;-1.17;0.02;-0.987785;-0.122507;0.012817;0.0;0.0;0.0;0.0;0.0;0.0
4.0;1753879333.247626;12.676829;0.76;-1.08;0.02;-0.989156;-0.119347;0.012337;0.0;0.0;0.0;0.0;0.0;0.0
4.0;1753879333.252232;12.655577;0.79;-1.12;0.13;-0.987366;-0.117908;0.012153;0.0;0.0;0.0;0.0;0.0;0.0
4.0;1753879333.256838;12.660654;0.7;-1.09;-0.0;-0.988562;-0.114557;0.012716;0.0;0.0;0.0;0.0;0.0;0.0
4.0;1753879333.261444;12.648832;0.69;-1.18;0.08;-0.989151;-0.117979;0.011293;0.0;0.0;0.0;0.0;0.0;0.0
4.0;1753879333.26605;12.658345;0.7;-1.14;0.05;-0.988648;-0.116934;0.012789;0.0;0.0;0.0;0.0;0.0;0.0
4.0;1753879333.270656;12.673195;0.68;-1.2;0.04;-0.989227;-0.116741;0.011477;0.0;0.0;0.0;0.0;0.0;0.0
4.0;1753879333.275262;12.65743;0.61;-1.18;-0.03;-0.988842;-0.119988;0.009864;0.0;0.0;0.0;0.0;0.0;0.0
4.0;1753879333.279868;12.660193;0.54;-1.06;0.05;-0.98827;-0.119669;0.012724;0.0;0.0;0.0;0.0;0.0;0.0
4.0;1753879333.284474;12.653528;0.62;-1.09;-0.06;-0.988725;-0.118619;0.012116;0.0;0.0;0.0;0.0;0.0;0.0
4.0;1753879333.28908;12.662227;0.6;-1.22;0.06;-0.98898;-0.118172;0.012486;0.0;0.0;0.0;0.0;0.0;0.0
4.0;1753879333.293687;12.660897;0.74;-1.12;-0.09;-0.98734;-0.114804;0.011445;0.0;0.0;0.0;0.0;0.0;0.0
4.0;1753879333.298293;12.657856;0.73;-1.19;-0.07;-0.988827;-0.119382;0.012923;0.0;0.0;0.0;0.0;0.0;0.0
4.0;1753879333.302899;12.646049;0.71;-1.08;0.07;-0.98831;-0.115961;0.012243;0.0;0.0;0.0;0.0;0.0;0.0
4.0;1753879333.307505;12.647257;0.71;-1.07;-0.0;-0.986764;-0.116128;0.012195;0.0;0.0;0.0;0.0;0.0;0.0
4.0;1753879333.313;12.664062;0.7;-1.12;0.0;-0.988444;-0.11834;0.011956;0.0;0.0;0.0;0.0;0.0;0.0
4.0;1753879333.317606;12.692457;0.73;-1.07;0.07;-0.987496;-0.120735;0.011331;0.0;0.0;0.0;0.0;0.0;0.0
4.0;1753879333.322212;12.680546;0.63;-1.24;-0.05;-0.988388;-0.117246;0.012113;0.0;0.0;0.0;0.0;0.0;0.0
4.0;1753879333.326818;12.674475;0.57;-1.09;0.01;-0.990171;-0.11982;0.012286;0.0;0.0;0.0;0.0;0.0;0.0
4.0;1753879333.331424;12.707718;0.58;-1.07;0.05;-0.989259;-0.116969;0.011972;0.0;0.0;0.0;0.0;0.0;0.0
4.0;1753879333.33603;12.709706;0.57;-1.18;0.06;-0.988566;-0.118262;0.011894;0.0;0.0;0.0;0.0;0.0;0.0
4.0;1753879333.340636;12.701091;0.55;-1.07;-0.02;-0.988012;-0.114625;0.011185;0.0;0.0;0.0;0.0;0.0;0.0
4.0;1753879333.345242;12.671338;0.55;-1.01;0.02;-0.989445;-0.113787;0.012444;0.0;0.0;0.0;0.0;0.0;0.0
4.0;1753879333.34999;12.707031;0.56;-1.05;0.07;-0.988932;-0.11651;0.012322;0.0;0.0;0.0;0.0;0.0;0.0
4.0;1753879333.354596;12.707662;0.53;-1.03;0.06;-0.990845;-0.118278;0.012779;0.0;0.0;0.0;0.0;0.0;0.0
4.0;1753879333.359202;12.701852;0.56;-1.03;0.08;-0.988791;-0.115725;0.012746;0.0;0.0;0.0;0.0;0.0;0.0
4.0;1753879333.363808;12.687634;0.61;-1.03;0.12;-0.988994;-0.115729;0.012155;0.0;0.0;0.0;0.0;0.0;0.0
4.0;1753879333.368414;12.710293;0.51;-1.04;0.04;-0.989349;-0.110877;0.013066;0.0;0.0;0.0;0.0;0.0;0.0
4.0;1753879333.37302;12.701884;0.54;-1.0;0.01;-0.990315;-0.114716;0.011379;0.0;0.0;0.0;0.0;0.0;0.0
4.0;1753879333.377626;12.696079;0.61;-1.18;0.15;-0.988251;-0.117655;0.010094;0.0;0.0;0.0;0.0;0.0;0.0
4.0;1753879333.382232;12.66583;0.6;-1.07;0.03;-0.989604;-0.117213;0.011011;0.0;0.0;0.0;0.0;0.0;0.0
4.0;1753879333.386838;12.724992;0.61;-1.05;-0.06;-0.988185;-0.116859;0.011895;0.0;0.0;0.0;0.0;0.0;0.0
4.0;1753879333.391444;12.709642;0.58;-1.1;0.09;-0.98848;-0.113178;0.011811;0.0;0.0;0.0;0.0;0.0;0.0
4.0;1753879333.39605;12.703987;0.55;-1.16;0.01;-0.9907;-0.118511;0.012933;0.0;0.0;0.0;0.0;0.0;0.0
4.0;1753879333.400656;12.740121;0.58;-0.97;0.07;-0.99007;-0.113777;0.010842;0.0;0.0;0.0;0.0;0.0;0.0
4.0;1753879333.405262;12.706409;0.68;-1.22;-0.02;-0.989358;-0.115602;0.013212;0.0;0.0;0.0;0.0;0.0;0.0
4.0;1753879333.409868;12.712086;0.53;-1.07;-0.0;-0.990783;-0.117992;0.01036;0.0;0.0;0.0;0.0;0.0;0.0
4.0;1753879333.414474;12.726975;0.58;-1.09;0.01;-0.988683;-0.115966;0.011485;0.0;0.0;0.0;0.0;0.0;0.0
4.0;1753879333.41908;12.699331;0.52;-1.22;0.05;-0.989779;-0.116779;0.011371;0.0;0.0;0.0;0.0;0.0;0.0
4.0;1753879333.423686;12.717467;0.6;-1.13;0.04;-0.990119;-0.12178;0.012335;0.0;0.0;0.0;0.0;0.0;0.0
4.0;1753879333.428292;12.727316;0.52;-1.1;0.02;-0.989897;-0.116863;0.012542;0.0;0.0;0.0;0.0;0.0;0.0
4.0;1753879333.432898;12.732841;0.55;-1.17;0.04;-0.990271;-0.116013;0.011498;0.0;0.0;0.0;0.0;0.0;0.0
4.0;1753879333.437504;12.707159;0.53;-1.1;0.06;-0.989573;-0.113198;0.011697;0.0;0.0;0.0;0.0;0.0;0.0
4.0;1753879333.44211;12.736835;0.44;-1.17;0.07;-0.991489;-0.120877;0.013406;0.0;0.0;0.0;0.0;0.0;0.0
4.0;1753879333.446716;12.734125;0.52;-1.03;-0.0;-0.991244;-0.113999;0.012218;0.0;0.0;0.0;0.0;0.0;0.0
4.0;1753879333.45308;12.707031;0.56;-1.12;0.0;-0.99003;-0.116388;0.01159;0.0;0.0;0.0;0.0;0.0;0.0
4.0;1753879333.457686;12.665301;0.51;-1.06;-0.03;-0.990632;-0.113955;0.013368;0.0;0.0;0.0;0.0;0.0;0.0
4.0;1753879333.462292;12.712664;0.65;-1.08;0.02;-0.989466;-0.1219;0.010509;0.0;0.0;0.0;0.0;0.0;0.0
4.0;1753879333.466898;12.700053;0.54;-1.28;0.0;-0.987541;-0.111974;0.010787;0.0;0.0;0.0;0.0;0.0;0.0
4.0;1753879333.471504;12.6928;0.55;-1.14;-0.0;-0.987103;-0.112673;0.011181;0.0;0.0;0.0;0.0;0.0;0.0
4.0;1753879333.47611;12.680129;0.61;-1.18;0.01;-0.987846;-0.113347;0.011413;0.0;0.0;0.0;0.0;0.0;0.0
4.0;1753879333.480716;12.700641;0.6;-1.13;-0.01;-0.987841;-0.112109;0.012606;0.0;0.0;0.0;0.0;0.0;0.0
4.0;1753879333.48634;12.707031;0.63;-1.19;0.0;-0.986858;-0.110166;0.012444;0.0;0.0;0.0;0.0;0.0;0.0
4.0;1753879333.490946;12.684196;0.61;-1.16;0.01;-0.988182;-0.110658;0.011812;0.0;0.0;0.0;0.0;0.0;0.0
4.0;1753879333.495552;12.744507;0.55;-1.05;0.08;-0.986365;-0.109266;0.013448;0.0;0.0;0.0;0.0;0.0;0.0
4.0;1753879333.500158;12.689308;0.57;-1.21;0.02;-0.986758;-0.10821;0.012323;0.0;0.0;0.0;0.0;0.0;0.0
4.0;1753879333.504764;12.69565;0.65;-1.11;0.03;-0.988538;-0.114237;0.012389;0.0;0.0;0.0;0.0;0.0;0.0
4.0;1753879333.50937;12.705545;0.56;-1.27;0.02;-0.988222;-0.110458;0.012654;0.0;0.0;0.0;0.0;0.0;0.0
4.0;1753879333.513976;12.697751;0.54;-1.06;-0.0;-0.988558;-0.113081;0.013537;0.0;0.0;0.0;0.0;0.0;0.0
4.0;1753879333.518582;12.697835;0.64;-1.28;0.09;-0.988927;-0.115062;0.013261;0.0;0.0;0.0;0.0;0.0;0.0
4.0;1753879333.523188;12.679833;0.71;-1.15;0.06;-0.990789;-0.116422;0.013439;0.0;0.0;0.0;0.0;0.0;0.0
4.0;1753879333.527794;12.668945;0.59;-1.19;0.03;-0.991465;-0.116973;0.011886;0.0;0.0;0.0;0.0;0.0;0.0
4.0;1753879333.5324;12.688416;0.65;-1.19;0.04;-0.990866;-0.117321;0.013949;0.0;0.0;0.0;0.0;0.0;0.0
4.0;1753879333.537006;12.638386;0.68;-1.1;0.01;-0.990658;-0.116204;0.013967;0.0;0.0;0.0;0.0;0.0;0.0
4.0;1753879333.54133;12.667969;0.63;-1.19;0.07;-0.99064;-0.117486;0.012444;0.0;0.0;0.0;0.0;0.0;0.0
4.0;1753879333.545936;12.690474;0.61;-1.24;-0.0;-0.98966;-0.119159;0.012526;0.0;0.0;0.0;0.0;0.0;0.0
4.0;1753879333.550542;12.641577;0.62;-1.25;0.07;-0.991018;-0.119867;0.012825;0.0;0.0;0.0;0.0;0.0;0.0
4.0;1753879333.555148;12.659377;0.68;-1.14;0.01;-0.990022;-0.115222;0.013371;0.0;0.0;0.0;0.0;0.0;0.0
4.0;1753879333.559754;12.646937;0.66;-1.19;0.06;-0.98881;-0.11129;0.012276;0.0;0.0;0.0;0.0;0.0;0.0
4.0;1753879333.56436;12.687415;0.69;-1.1;0.02;-0.986707;-0.118438;0.01255;0.0;0.0;0.0;0.0;0.0;0.0
4.0;1753879333.568966;12.609474;0.64;-1.18;0.04;-0.990518;-0.1199;0.010717;0.0;0.0;0.0;0.0;0.0;0.0
4.0;1753879333.573572;12.711376;0.67;-1.15;0.12;-0.989202;-0.113575;0.012184;0.0;0.0;0.0;0.0;0.0;0.0
4.0;1753879333.578178;12.655901;0.68;-1.21;0.06;-0.988219;-0.113863;0.012011;0.0;0.0;0.0;0.0;0.0;0.0
4.0;1753879333.582784;12.67805;0.61;-1.09;-0.01;-0.988993;-0.114324;0.012092;0.0;0.0;0.0;0.0;0.0;0.0
4.0;1753879333.58739;12.652288;0.65;-1.21;0.0;-0.989746;-0.110731;0.011193;0.0;0.0;0.0;0.0;0.0;0.0
4.0;1753879333.591996;12.672245;0.7;-1.2;-0.01;-0.988578;-0.114041;0.012138;0.0;0.0;0.0;0.0;0.0;0.0
4.0;1753879333.596602;12.699463;0.67;-1.24;-0.04;-0.987838;-0.109107;0.011761;0.0;0.0;0.0;0.0;0.0;0.0
4.0;1753879333.601208;12.680937;0.65;-1.17;-0.04;-0.987626;-0.11552;0.010985;0.0;0.0;0.0;0.0;0.0;0.0
4.0;1753879333.605814;12.675146;0.58;-1.25;0.01;-0.98745;-0.109258;0.012239;0.0;0.0;0.0;0.0;0.0;0.0
4.0;1753879333.61157;12.667969;0.63;-1.19;0.0;-0.987468;-0.109312;0.01159;0.0;0.0;0.0;0.0;0.0;0.0
4.0;1753879333.616176;12.678683;0.66;-1.21;0.03;-0.987172;-0.114723;0.011972;0.0;0.0;0.0;0.0;0.0;0.0
4.0;1753879333.62256;12.667969;0.63;-1.12;0.0;-0.98637;-0.117364;0.01159;0.0;0.0;0.0;0.0;0.0;0.0
4.0;1753879333.627166;12.648862;0.57;-1.11;0.01;-0.985977;-0.114491;0.011529;0.0;0.0;0.0;0.0;0.0;0.0
4.0;1753879333.631772;12.654398;0.62;-1.1;-0.03;-0.986877;-0.120031;0.010519;0.0;0.0;0.0;0.0;0.0;0.0
4.0;1753879333.636378;12.664391;0.64;-1.12;-0.03;-0.987538;-0.115408;0.011206;0.0;0.0;0.0;0.0;0.0;0.0
4.0;1753879333.640984;12.641257;0.66;-1.12;0.01;-0.987894;-0.114749;0.011432;0.0;0.0;0.0;0.0;0.0;0.0
4.0;1753879333.64559;12.671115;0.58;-1.2;-0.0;-0.984976;-0.116099;0.012349;0.0;0.0;0.0;0.0;0.0;0.0
4.0;1753879333.650196;12.675601;0.54;-1.09;0.01;-0.988102;-0.121486;0.011802;0.0;0.0;0.0;0.0;0.0;0.0
4.0;1753879333.654802;12.664546;0.61;-1.16;0.01;-0.988329;-0.115919;0.012291;0.0;0.0;0.0;0.0;0.0;0.0
4.0;1753879333.659408;12.677623;0.56;-1.17;0.02;-0.989038;-0.113636;0.01232;0.0;0.0;0.0;0.0;0.0;0.0
4.0;1753879333.664014;12.669256;0.61;-1.16;-0.06;-0.988305;-0.118986;0.011486;0.0;0.0;0.0;0.0;0.0;0.0
4.0;1753879333.66862;12.666831;0.57;-1.19;-0.01;-0.988193;-0.112842;0.012081;0.0;0.0;0.0;0.0;0.0;0.0
4.0;1753879333.673226;12.667592;0.69;-1.12;-0.02;-0.98972;-0.115467;0.012624;0.0;0.0;0.0;0.0;0.0;0.0
4.0;1753879333.677832;12.635739;0.68;-1.06;0.0;-0.98958;-0.113861;0.012165;0.0;0.0;0.0;0.0;0.0;0.0
4.0;1753879333.682438;12.698193;0.68;-1.08;0.04;-0.988452;-0.110791;0.011347;0.0;0.0;0.0;0.0;0.0;0.0
4.0;1753879333.687044;12.635101;0.78;-1.09;0.02;-0.990041;-0.116449;0.013261;0.0;0.0;0.0;0.0;0.0;0.0
4.0;1753879333.69165;12.645236;0.53;-1.07;-0.05;-0.988761;-0.112735;0.012645;0.0;0.0;0.0;0.0;0.0;0.0
4.0;1753879333.696256;12.691989;0.62;-1.11;-0.0;-0.989294;-0.119672;0.013732;0.0;0.0;0.0;0.0;0.0;0.0
4.0;1753879333.70063;12.667969;0.63;-1.12;0.0;-0.989664;-0.113582;0.012566;0.0;0.0;0.0;0.0;0.0;0.0
4.0;1753879333.705236;12.682782;0.71;-1.25;-0.0;-0.990214;-0.119762;0.0133;0.0;0.0;0.0;0.0;0.0;0.0
4.0;1753879333.71294;12.65625;0.7;-1.19;0.0;-0.989664;-0.113582;0.012566;0.0;0.0;0.0;0.0;0.0;0.0
4.0;1753879333.717546;12.676615;0.74;-1.15;-0.03;-0.989287;-0.112923;0.012081;0.0;0.0;0.0;0.0;0.0;0.0
4.0;1753879333.722152;12.659877;0.68;-1.27;0.04;-0.988073;-0.108366;0.012956;0.0;0.0;0.0;0.0;0.0;0.0
4.0;1753879333.726758;12.651914;0.78;-1.28;0.01;-0.989169;-0.116979;0.012428;0.0;0.0;0.0;0.0;0.0;0.0
4.0;1753879333.731364;12.688203;0.76;-1.33;0.05;-0.989438;-0.11779;0.01271;0.0;0.0;0.0;0.0;0.0;0.0
4.0;1753879333.73597;12.65382;0.65;-1.19;0.01;-0.988766;-0.117509;0.012241;0.0;0.0;0.0;0.0;0.0;0.0
4.0;1753879333.740576;12.651653;0.72;-1.19;0.03;-0.988487;-0.113913;0.011265;0.0;0.0;0.0;0.0;0.0;0.0
4.0;1753879333.745182;12.64366;0.7;-1.21;0.1;-0.988584;-0.120154;0.013004;0.0;0.0;0.0;0.0;0.0;0.0
4.0;1753879333.749788;12.675015;0.69;-1.29;0.01;-0.988932;-0.112905;0.012798;0.0;0.0;0.0;0.0;0.0;0.0
4.0;1753879333.754394;12.682972;0.74;-1.14;0.06;-0.988067;-0.121747;0.013066;0.0;0.0;0.0;0.0;0.0;0.0
4.0;1753879333.75965;12.65625;0.7;-1.19;0.07;-0.988078;-0.120048;0.01281;0.0;0.0;0.0;0.0;0.0;0.0
4.0;1753879333.764256;12.663261;0.7;-1.18;0.07;-0.98962;-0.117296;0.014367;0.0;0.0;0.0;0.0;0.0;0.0
4.0;1753879333.768862;12.646921;0.71;-1.18;0.05;-0.988975;-0.117563;0.01216;0.0;0.0;0.0;0.0;0.0;0.0
4.0;1753879333.773468;12.65281;0.77;-1.17;0.06;-0.987334;-0.119414;0.013293;0.0;0.0;0.0;0.0;0.0;0.0
4.0;1753879333.778074;12.655663;0.59;-1.23;0.08;-0.98656;-0.118212;0.012766;0.0;0.0;0.0;0.0;0.0;0.0
4.0;1753879333.78268;12.64988;0.64;-1.23;0.06;-0.987537;-0.121576;0.012806;0.0;0.0;0.0;0.0;0.0;0.0
4.0;1753879333.787286;12.653861;0.81;-1.16;0.01;-0.987486;-0.118099;0.013514;0.0;0.0;0.0;0.0;0.0;0.0
4.0;1753879333.791892;12.674667;0.69;-1.12;0.03;-0.988541;-0.111678;0.012752;0.0;0.0;0.0;0.0;0.0;0.0
4.0;1753879333.796498;12.651437;0.7;-1.2;0.02;-0.986376;-0.114724;0.014073;0.0;0.0;0.0;0.0;0.0;0.0
4.0;1753879333.801104;12.647223;0.72;-1.13;0.02;-0.987347;-0.116956;0.014046;0.0;0.0;0.0;0.0;0.0;0.0
4.0;1753879333.80571;12.688422;0.77;-1.17;0.02;-0.987699;-0.111009;0.012836;0.0;0.0;0.0;0.0;0.0;0.0
4.0;1753879333.810316;12.640437;0.7;-1.1;0.05;-0.987956;-0.112218;0.012293;0.0;0.0;0.0;0.0;0.0;0.0
4.0;1753879333.81592;12.65625;0.7;-1.12;0.0;-0.987712;-0.108946;0.013054;0.0;0.0;0.0;0.0;0.0;0.0
4.0;1753879333.820526;12.659234;0.79;-1.14;-0.02;-0.986905;-0.113182;0.012824;0.0;0.0;0.0;0.0;0.0;0.0
4.0;1753879333.825132;12.651032;0.76;-1.15;0.03;-0.988965;-0.108326;0.01242;0.0;0.0;0.0;0.0;0.0;0.0
4.0;1753879333.829738;12.647819;0.74;-1.04;-0.02;-0.988342;-0.103227;0.013277;0.0;0.0;0.0;0.0;0.0;0.0
4.0;1753879333.834344;12.681878;0.65;-1.03;-0.02;-0.990801;-0.111;0.012224;0.0;0.0;0.0;0.0;0.0;0.0
4.0;1753879333.83895;12.640639;0.67;-1.14;-0.07;-0.988817;-0.112415;0.013231;0.0;0.0;0.0;0.0;0.0;0.0
4.0;1753879333.843556;12.668812;0.74;-1.15;-0.03;-0.987936;-0.115187;0.012649;0.0;0.0;0.0;0.0;0.0;0.0
4.0;1753879333.85036;12.65625;0.7;-1.12;0.0;-0.98881;-0.1159;0.012322;0.0;0.0;0.0;0.0;0.0;0.0
4.0;1753879333.854966;12.667265;0.74;-1.17;0.03;-0.989296;-0.120595;0.012877;0.0;0.0;0.0;0.0;0.0;0.0
4.0;1753879333.859572;12.665413;0.78;-1.06;0.05;-0.988945;-0.116597;0.012557;0.0;0.0;0.0;0.0;0.0;0.0
4.0;1753879333.864178;12.660326;0.65;-1.21;-0.01;-0.987288;-0.111246;0.012002;0.0;0.0;0.0;0.0;0.0;0.0
4.0;1753879333.868784;12.627873;0.67;-1.13;0.04;-0.986603;-0.116481;0.012708;0.0;0.0;0.0;0.0;0.0;0.0
4.0;1753879333.87339;12.650756;0.68;-1.08;0.04;-0.988613;-0.117424;0.011865;0.0;0.0;0.0;0.0;0.0;0.0
4.0;1753879333.877996;12.66005;0.7;-1.11;0.01;-0.98812;-0.114152;0.014172;0.0;0.0;0.0;0.0;0.0;0.0
4.0;1753879333.882602;12.648149;0.72;-1.1;0.06;-0.989882;-0.114705;0.012683;0.0;0.0;0.0;0.0;0.0;0.0
4.0;1753879333.887208;12.667239;0.71;-1.06;0.01;-0.988486;-0.11667;0.012701;0.0;0.0;0.0;0.0;0.0;0.0
4.0;1753879333.891814;12.650749;0.67;-1.27;-0.01;-0.989066;-0.115499;0.011788;0.0;0.0;0.0;0.0;0.0;0.0
4.0;1753879333.89642;12.674448;0.66;-1.09;0.03;-0.987744;-0.117094;0.012794;0.0;0.0;0.0;0.0;0.0;0.0
4.0;1753879333.901026;12.666908;0.67;-1.13;0.01;-0.988666;-0.11209;0.013833;0.0;0.0;0.0;0.0;0.0;0.0
4.0;1753879333.905632;12.661815;0.53;-1.17;0.01;-0.988617;-0.121093;0.012349;0.0;0.0;0.0;0.0;0.0;0.0
4.0;1753879333.910238;12.667037;0.66;-1.09;-0.01;-0.988856;-0.112466;0.012278;0.0;0.0;0.0;0.0;0.0;0.0
4.0;1753879333.914844;12.661527;0.61;-1.17;0.04;-0.988748;-0.117139;0.013529;0.0;0.0;0.0;0.0;0.0;0.0
4.0;1753879333.91945;12.648985;0.67;-1.09;0.03;-0.989084;-0.111196;0.012579;0.0;0.0;0.0;0.0;0.0;0.0
4.0;1753879333.924056;12.673085;0.62;-1.1;0.07;-0.987966;-0.113406;0.013201;0.0;0.0;0.0;0.0;0.0;0.0
4.0;1753879333.928662;12.651604;0.62;-1.09;0.07;-0.988312;-0.120412;0.013499;0.0;0.0;0.0;0.0;0.0;0.0
4.0;1753879333.933268;12.698583;0.72;-1.09;0.06;-0.986901;-0.11711;0.012471;0.0;0.0;0.0;0.0;0.0;0.0
4.0;1753879333.94145;12.671875;0.63;-1.12;0.07;-0.988566;-0.11346;0.013176;0.0;0.0;0.0;0.0;0.0;0.0
4.0;1753879333.946056;12.675807;0.65;-1.11;0.08;-0.988614;-0.113211;0.012756;0.0;0.0;0.0;0.0;0.0;0.0
4.0;1753879333.950662;12.68401;0.56;-1.07;0.07;-0.986979;-0.116933;0.013525;0.0;0.0;0.0;0.0;0.0;0.0
4.0;1753879333.955268;12.656323;0.59;-1.04;0.08;-0.991779;-0.108988;0.012968;0.0;0.0;0.0;0.0;0.0;0.0
4.0;1753879333.959874;12.665667;0.63;-1.07;0.08;-0.989392;-0.116255;0.012887;0.0;0.0;0.0;0.0;0.0;0.0
4.0;1753879333.96448;12.67595;0.66;-1.02;0.12;-0.987263;-0.115011;0.012654;0.0;0.0;0.0;0.0;0.0;0.0
4.0;1753879333.969086;12.652238;0.53;-0.99;0.09;-0.988018;-0.111493;0.012493;0.0;0.0;0.0;0.0;0.0;0.0
4.0;1753879333.973692;12.66464;0.61;-1.08;0.14;-0.987389;-0.11567;0.012387;0.0;0.0;0.0;0.0;0.0;0.0
4.0;1753879333.978298;12.695261;0.64;-1.0;0.08;-0.986803;-0.119549;0.012677;0.0;0.0;0.0;0.0;0.0;0.0
4.0;1753879333.982904;12.662727;0.64;-1.04;0.06;-0.987734;-0.11609;0.012989;0.0;0.0;0.0;0.0;0.0;0.0
4.0;1753879333.98713;12.671875;0.63;-1.05;0.07;-0.987956;-0.115534;0.012566;0.0;0.0;0.0;0.0;0.0;0.0
4.0;1753879333.992515;12.707031;0.63;-1.12;0.0;-0.988078;-0.114192;0.011956;0.0;0.0;0.0;0.0;0.0;0.0
4.0;1753879333.995159;12.707031;0.63;-0.98;0.0;-0.988078;-0.116022;0.012688;0.0;0.0;0.0;0.0;0.0;0.0
4.0;1753879333.999765;12.722099;0.6;-0.95;-0.02;-0.989281;-0.1121;0.013235;0.0;0.0;0.0;0.0;0.0;0.0
4.0;1753879334.004371;12.676792;0.66;-0.92;0.03;-0.986434;-0.115329;0.013355;0.0;0.0;0.0;0.0;0.0;0.0
4.0;1753879334.008977;12.70859;0.59;-0.98;-0.05;-0.988733;-0.119584;0.014044;0.0;0.0;0.0;0.0;0.0;0.0
4.0;1753879334.013583;12.693588;0.61;-0.95;-0.05;-0.98729;-0.116766;0.01267;0.0;0.0;0.0;0.0;0.0;0.0
4.0;1753879334.018189;12.687235;0.59;-0.94;-0.04;-0.987871;-0.116028;0.010878;0.0;0.0;0.0;0.0;0.0;0.0
4.0;1753879334.022795;12.708544;0.6;-0.93;-0.11;-0.989362;-0.118122;0.012683;0.0;0.0;0.0;0.0;0.0;0.0
4.0;1753879334.027401;12.714525;0.6;-1.02;0.01;-0.988109;-0.112496;0.012732;0.0;0.0;0.0;0.0;0.0;0.0
4.0;1753879334.032007;12.724794;0.69;-0.84;0.17;-0.98797;-0.117195;0.014164;0.0;0.0;0.0;0.0;0.0;0.0
4.0;1753879334.036613;12.684937;0.66;-1.03;0.05;-0.988952;-0.118715;0.012616;0.0;0.0;0.0;0.0;0.0;0.0
4.0;1753879334.041219;12.755404;0.72;-1.03;-0.01;-0.988097;-0.118825;0.012026;0.0;0.0;0.0;0.0;0.0;0.0
4.0;1753879334.045825;12.690819;0.63;-1.05;-0.03;-0.98657;-0.115468;0.01216;0.0;0.0;0.0;0.0;0.0;0.0
4.0;1753879334.050431;12.68028;0.55;-0.98;0.05;-0.989859;-0.113765;0.012406;0.0;0.0;0.0;0.0;0.0;0.0
4.0;1753879334.055037;12.752002;0.58;-0.97;0.02;-0.986428;-0.117454;0.013165;0.0;0.0;0.0;0.0;0.0;0.0
4.0;1753879334.059643;12.715199;0.58;-1.05;0.01;-0.988224;-0.1155;0.013041;0.0;0.0;0.0;0.0;0.0;0.0
4.0;1753879334.064249;12.698481;0.53;-0.94;0.02;-0.988643;-0.118127;0.013483;0.0;0.0;0.0;0.0;0.0;0.0
4.0;1753879334.068855;12.779101;0.62;-1.05;0.08;-0.988482;-0.113649;0.013058;0.0;0.0;0.0;0.0;0.0;0.0
4.0;1753879334.073461;12.728593;0.64;-1.03;-0.12;-0.989687;-0.116812;0.012838;0.0;0.0;0.0;0.0;0.0;0.0
4.0;1753879334.078067;12.756791;0.59;-0.92;0.06;-0.988885;-0.120707;0.011649;0.0;0.0;0.0;0.0;0.0;0.0
4.0;1753879334.082673;12.752515;0.68;-1.13;-0.05;-0.989048;-0.116022;0.012671;0.0;0.0;0.0;0.0;0.0;0.0
4.0;1753879334.087279;12.707082;0.62;-1.06;-0.03;-0.987677;-0.114576;0.012433;0.0;0.0;0.0;0.0;0.0;0.0
4.0;1753879334.091885;12.747104;0.61;-0.94;-0.03;-0.988907;-0.115441;0.012038;0.0;0.0;0.0;0.0;0.0;0.0
4.0;1753879334.096491;12.745139;0.52;-1.12;0.04;-0.987639;-0.115981;0.013505;0.0;0.0;0.0;0.0;0.0;0.0
4.0;1753879334.101097;12.705191;0.65;-1.05;0.0;-0.988398;-0.113842;0.012632;0.0;0.0;0.0;0.0;0.0;0.0
4.0;1753879334.105703;12.704085;0.71;-0.94;0.09;-0.989653;-0.112863;0.011734;0.0;0.0;0.0;0.0;0.0;0.0
4.0;1753879334.110309;12.73432;0.58;-1.1;-0.07;-0.988014;-0.114361;0.012876;0.0;0.0;0.0;0.0;0.0;0.0
4.0;1753879334.114915;12.722282;0.62;-1.05;-0.06;-0.988364;-0.114567;0.013084;0.0;0.0;0.0;0.0;0.0;0.0
4.0;1753879334.119521;12.725314;0.59;-1.03;0.07;-0.989438;-0.117427;0.013162;0.0;0.0;0.0;0.0;0.0;0.0
4.0;1753879334.124127;12.734094;0.64;-1.06;0.11;-0.989051;-0.116466;0.011569;0.0;0.0;0.0;0.0;0.0;0.0
4.0;1753879334.128733;12.744844;0.69;-1.09;-0.01;-0.988373;-0.116936;0.013593;0.0;0.0;0.0;0.0;0.0;0.0
4.0;1753879334.133339;12.709158;0.54;-1.02;-0.0;-0.989966;-0.115181;0.012545;0.0;0.0;0.0;0.0;0.0;0.0
4.0;1753879334.137945;12.721181;0.58;-1.08;0.04;-0.987174;-0.118786;0.0128;0.0;0.0;0.0;0.0;0.0;0.0
4.0;1753879334.142551;12.703968;0.6;-1.06;-0.01;-0.987271;-0.116303;0.012057;0.0;0.0;0.0;0.0;0.0;0.0
4.0;1753879334.147157;12.732903;0.62;-1.04;0.02;-0.989523;-0.117011;0.011573;0.0;0.0;0.0;0.0;0.0;0.0
4.0;1753879334.151763;12.760822;0.58;-1.06;0.03;-0.988699;-0.114194;0.012499;0.0;0.0;0.0;0.0;0.0;0.0
4.0;1753879334.156369;12.677301;0.56;-0.96;0.02;-0.989716;-0.115022;0.010543;0.0;0.0;0.0;0.0;0.0;0.0
4.0;1753879334.160975;12.750723;0.66;-1.02;0.02;-0.989021;-0.118377;0.011332;0.0;0.0;0.0;0.0;0.0;0.0
4.0;1753879334.165581;12.702537;0.62;-0.97;-0.02;-0.988064;-0.114673;0.012263;0.0;0.0;0.0;0.0;0.0;0.0
4.0;1753879334.170187;12.703419;0.58;-1.04;0.02;-0.989178;-0.115549;0.012481;0.0;0.0;0.0;0.0;0.0;0.0
4.0;1753879334.174793;12.732759;0.57;-0.86;0.04;-0.989516;-0.119225;0.01083;0.0;0.0;0.0;0.0;0.0;0.0
4.0;1753879334.179399;12.712534;0.54;-1.12;0.01;-0.988747;-0.11367;0.012308;0.0;0.0;0.0;0.0;0.0;0.0
4.0;1753879334.184005;12.707382;0.63;-1.04;-0.0;-0.988524;-0.111999;0.012137;0.0;0.0;0.0;0.0;0.0;0.0
4.0;1753879334.188611;12.695437;0.64;-0.99;-0.05;-0.989026;-0.117713;0.01108;0.0;0.0;0.0;0.0;0.0;0.0
4.0;1753879334.193217;12.720154;0.65;-1.06;-0.01;-0.988394;-0.115585;0.012901;0.0;0.0;0.0;0.0;0.0;0.0
4.0;1753879334.197823;12.70777;0.57;-1.08;0.05;-0.988844;-0.115263;0.011105;0.0;0.0;0.0;0.0;0.0;0.0
4.0;1753879334.202429;12.767255;0.6;-1.03;-0.07;-0.986756;-0.115567;0.013714;0.0;0.0;0.0;0.0;0.0;0.0
4.0;1753879334.207035;12.764142;0.56;-1.06;0.01;-0.988524;-0.114865;0.011932;0.0;0.0;0.0;0.0;0.0;0.0
4.0;1753879334.211641;12.75467;0.59;-1.18;0.01;-0.989272;-0.111725;0.012256;0.0;0.0;0.0;0.0;0.0;0.0
4.0;1753879334.216247;12.72149;0.51;-1.04;-0.07;-0.989898;-0.120277;0.011659;0.0;0.0;0.0;0.0;0.0;0.0
4.0;1753879334.220853;12.748267;0.58;-1.03;-0.02;-0.988638;-0.115391;0.012078;0.0;0.0;0.0;0.0;0.0;0.0
4.0;1753879334.225459;12.690089;0.59;-1.06;0.09;-0.98941;-0.115136;0.012268;0.0;0.0;0.0;0.0;0.0;0.0
4.0;1753879334.230065;12.72303;0.6;-1.14;-0.04;-0.989829;-0.113755;0.012633;0.0;0.0;0.0;0.0;0.0;0.0
4.0;1753879334.234671;12.729309;0.66;-0.98;0.07;-0.988551;-0.115337;0.011208;0.0;0.0;0.0;0.0;0.0;0.0
4.0;1753879334.239277;12.709747;0.66;-1.09;0.0;-0.991202;-0.11541;0.01266;0.0;0.0;0.0;0.0;0.0;0.0
4.0;1753879334.243883;12.758782;0.61;-1.08;0.03;-0.98967;-0.114897;0.011831;0.0;0.0;0.0;0.0;0.0;0.0
4.0;1753879334.24849;12.720306;0.6;-1.08;-0.02;-0.989012;-0.114862;0.012273;0.0;0.0;0.0;0.0;0.0;0.0
4.0;1753879334.253096;12.737363;0.59;-0.97;0.05;-0.989757;-0.113545;0.011778;0.0;0.0;0.0;0.0;0.0;0.0
4.0;1753879334.257702;12.740132;0.63;-1.0;-0.02;-0.98886;-0.116675;0.011683;0.0;0.0;0.0;0.0;0.0;0.0
4.0;1753879334.262308;12.762621;0.57;-1.11;-0.02;-0.988753;-0.118594;0.011065;0.0;0.0;0.0;0.0;0.0;0.0
4.0;1753879334.266914;12.767435;0.59;-1.13;0.02;-0.989638;-0.115975;0.012516;0.0;0.0;0.0;0.0;0.0;0.0
4.0;1753879334.27152;12.69678;0.66;-0.99;-0.05;-0.988575;-0.113134;0.013247;0.0;0.0;0.0;0.0;0.0;0.0
4.0;1753879334.276126;12.794871;0.59;-1.13;-0.04;-0.988059;-0.116762;0.013193;0.0;0.0;0.0;0.0;0.0;0.0
4.0;1753879334.280732;12.760757;0.58;-1.02;0.07;-0.98973;-0.114699;0.012758;0.0;0.0;0.0;0.0;0.0;0.0
4.0;1753879334.285338;12.776467;0.57;-1.0;-0.01;-0.98942;-0.116743;0.011087;0.0;0.0;0.0;0.0;0.0;0.0
4.0;1753879334.289944;12.812049;0.61;-1.12;-0.0;-0.989109;-0.115976;0.010248;0.0;0.0;0.0;0.0;0.0;0.0
4.0;1753879334.29455;12.723113;0.58;-1.08;-0.04;-0.988931;-0.11539;0.01247;0.0;0.0;0.0;0.0;0.0;0.0
4.0;1753879334.299156;12.742581;0.61;-1.14;0.04;-0.988615;-0.111756;0.010967;0.0;0.0;0.0;0.0;0.0;0.0
4.0;1753879334.303762;12.726889;0.59;-1.03;-0.02;-0.988689;-0.112386;0.012861;0.0;0.0;0.0;0.0;0.0;0.0
4.0;1753879334.308368;12.738085;0.53;-1.09;-0.07;-0.989512;-0.112369;0.012064;0.0;0.0;0.0;0.0;0.0;0.0
4.0;1753879334.312974;12.739775;0.54;-1.12;0.07;-0.98914;-0.113397;0.012602;0.0;0.0;0.0;0.0;0.0;0.0
4.0;1753879334.31758;12.743566;0.57;-1.03;-0.01;-0.989046;-0.115233;0.012455;0.0;0.0;0.0;0.0;0.0;0.0
4.0;1753879334.322186;12.750231;0.57;-1.04;0.07;-0.989827;-0.11228;0.012523;0.0;0.0;0.0;0.0;0.0;0.0
4.0;1753879334.326792;12.756269;0.49;-1.05;0.05;-0.989185;-0.113581;0.011791;0.0;0.0;0.0;0.0;0.0;0.0
4.0;1753879334.331398;12.768871;0.61;-1.04;-0.07;-0.988072;-0.115514;0.011413;0.0;0.0;0.0;0.0;0.0;0.0
4.0;1753879334.336004;12.755867;0.53;-1.09;0.1;-0.990401;-0.11431;0.011316;0.0;0.0;0.0;0.0;0.0;0.0
4.0;1753879334.34061;12.747731;0.61;-1.13;-0.03;-0.989309;-0.113278;0.011395;0.0;0.0;0.0;0.0;0.0;0.0
4.0;1753879334.345216;12.782911;0.56;-1.02;-0.01;-0.990285;-0.111706;0.012379;0.0;0.0;0.0;0.0;0.0;0.0
4.0;1753879334.349822;12.701464;0.6;-1.12;0.12;-0.989026;-0.113647;0.011681;0.0;0.0;0.0;0.0;0.0;0.0
4.0;1753879334.354428;12.769119;0.6;-1.3;-0.04;-0.988368;-0.110397;0.012905;0.0;0.0;0.0;0.0;0.0;0.0
4.0;1753879334.359034;12.787387;0.53;-1.15;0.06;-0.988556;-0.114848;0.010998;0.0;0.0;0.0;0.0;0.0;0.0
4.0;1753879334.36364;12.76626;0.56;-1.02;-0.12;-0.988353;-0.112819;0.010935;0.0;0.0;0.0;0.0;0.0;0.0
4.0;1753879334.368246;12.759437;0.54;-0.97;0.05;-0.988332;-0.115468;0.012487;0.0;0.0;0.0;0.0;0.0;0.0
4.0;1753879334.372852;12.734304;0.5;-1.12;0.01;-0.987465;-0.113762;0.011569;0.0;0.0;0.0;0.0;0.0;0.0
4.0;1753879334.377458;12.756693;0.68;-1.12;0.08;-0.988892;-0.11515;0.011879;0.0;0.0;0.0;0.0;0.0;0.0
4.0;1753879334.382064;12.777222;0.57;-1.15;-0.02;-0.987757;-0.115833;0.011362;0.0;0.0;0.0;0.0;0.0;0.0
4.0;1753879334.38667;12.749394;0.55;-1.05;-0.05;-0.988702;-0.111664;0.011757;0.0;0.0;0.0;0.0;0.0;0.0
4.0;1753879334.391276;12.733411;0.62;-1.0;0.03;-0.98803;-0.114969;0.011244;0.0;0.0;0.0;0.0;0.0;0.0
4.0;1753879334.395882;12.710929;0.54;-0.95;0.08;-0.989855;-0.111762;0.011868;0.0;0.0;0.0;0.0;0.0;0.0
4.0;1753879334.400488;12.781872;0.58;-1.2;-0.02;-0.991194;-0.113011;0.012112;0.0;0.0;0.0;0.0;0.0;0.0
4.0;1753879334.405094;12.761395;0.57;-1.15;0.07;-0.988721;-0.115617;0.011042;0.0;0.0;0.0;0.0;0.0;0.0
4.0;1753879334.4097;12.737225;0.52;-1.21;0.03;-0.990793;-0.114148;0.011059;0.0;0.0;0.0;0.0;0.0;0.0
4.0;1753879334.414306;12.760421;0.54;-1.08;0.12;-0.989395;-0.11585;0.010966;0.0;0.0;0.0;0.0;0.0;0.0
4.0;1753879334.422;12.761719;0.56;-1.12;0.0;-0.989664;-0.114436;0.011468;0.0;0.0;0.0;0.0;0.0;0.0
4.0;1753879334.426606;12.765485;0.67;-1.18;-0.06;-0.989137;-0.114052;0.011185;0.0;0.0;0.0;0.0;0.0;0.0
4.0;1753879334.431212;12.751363;0.5;-1.17;0.06;-0.988293;-0.113264;0.01045;0.0;0.0;0.0;0.0;0.0;0.0
4.0;1753879334.435818;12.753068;0.61;-1.36;0.12;-0.989329;-0.111989;0.011388;0.0;0.0;0.0;0.0;0.0;0.0
4.0;1753879334.440424;12.759961;0.62;-1.11;0.07;-0.989506;-0.11666;0.01161;0.0;0.0;0.0;0.0;0.0;0.0
4.0;1753879334.44503;12.768926;0.58;-1.03;-0.1;-0.989101;-0.111457;0.011133;0.0;0.0;0.0;0.0;0.0;0.0
4.0;1753879334.449636;12.743953;0.56;-1.09;-0.01;-0.988793;-0.11324;0.010337;0.0;0.0;0.0;0.0;0.0;0.0
4.0;1753879334.454242;12.776036;0.53;-1.23;0.02;-0.990292;-0.113664;0.011725;0.0;0.0;0.0;0.0;0.0;0.0
4.0;1753879334.458848;12.759496;0.57;-1.03;-0.04;-0.988849;-0.116397;0.0117;0.0;0.0;0.0;0.0;0.0;0.0
4.0;1753879334.463454;12.72473;0.58;-1.24;0.02;-0.988547;-0.119126;0.011731;0.0;0.0;0.0;0.0;0.0;0.0
4.0;1753879334.46806;12.744182;0.61;-1.22;0.03;-0.988781;-0.113603;0.010955;0.0;0.0;0.0;0.0;0.0;0.0
4.0;1753879334.472666;12.778882;0.5;-1.06;0.16;-0.988298;-0.113399;0.01141;0.0;0.0;0.0;0.0;0.0;0.0
4.0;1753879334.477272;12.739919;0.57;-1.15;-0.01;-0.98945;-0.117023;0.01109;0.0;0.0;0.0;0.0;0.0;0.0
4.0;1753879334.481878;12.767099;0.55;-1.03;-0.04;-0.990021;-0.113913;0.011736;0.0;0.0;0.0;0.0;0.0;0.0
4.0;1753879334.486484;12.753336;0.64;-1.22;-0.03;-0.990692;-0.112515;0.010985;0.0;0.0;0.0;0.0;0.0;0.0
4.0;1753879334.49109;12.74518;0.53;-1.1;0.11;-0.989458;-0.116218;0.011266;0.0;0.0;0.0;0.0;0.0;0.0
4.0;1753879334.495696;12.771853;0.64;-1.12;-0.05;-0.989016;-0.113989;0.012689;0.0;0.0;0.0;0.0;0.0;0.0
4.0;1753879334.500302;12.78325;0.61;-1.03;0.07;-0.990343;-0.112119;0.012391;0.0;0.0;0.0;0.0;0.0;0.0
4.0;1753879334.504908;12.717792;0.54;-1.25;-0.02;-0.988748;-0.115129;0.01211;0.0;0.0;0.0;0.0;0.0;0.0
4.0;1753879334.509514;12.754884;0.6;-1.03;0.01;-0.990471;-0.117275;0.011604;0.0;0.0;0.0;0.0;0.0;0.0
4.0;1753879334.51412;12.757713;0.52;-1.25;0.05;-0.988946;-0.116979;0.012126;0.0;0.0;0.0;0.0;0.0;0.0
4.0;1753879334.518726;12.770501;0.51;-1.01;0.05;-0.988898;-0.114157;0.010402;0.0;0.0;0.0;0.0;0.0;0.0
4.0;1753879334.523332;12.751216;0.51;-1.14;-0.08;-0.990208;-0.112857;0.010256;0.0;0.0;0.0;0.0;0.0;0.0
4.0;1753879334.527938;12.739628;0.64;-1.17;-0.04;-0.990874;-0.111335;0.011591;0.0;0.0;0.0;0.0;0.0;0.0
4.0;1753879334.532544;12.786124;0.55;-1.15;-0.04;-0.988678;-0.11515;0.011197;0.0;0.0;0.0;0.0;0.0;0.0
4.0;1753879334.53715;12.758814;0.6;-1.14;-0.0;-0.990327;-0.113585;0.010442;0.0;0.0;0.0;0.0;0.0;0.0
4.0;1753879334.541756;12.727201;0.58;-1.09;0.0;-0.989766;-0.116441;0.013879;0.0;0.0;0.0;0.0;0.0;0.0
4.0;1753879334.546362;12.768971;0.62;-1.15;-0.04;-0.988766;-0.117285;0.011075;0.0;0.0;0.0;0.0;0.0;0.0
4.0;1753879334.550968;12.756658;0.6;-1.06;-0.05;-0.989189;-0.113554;0.011767;0.0;0.0;0.0;0.0;0.0;0.0
4.0;1753879334.555574;12.795952;0.66;-1.25;-0.07;-0.989903;-0.112373;0.012063;0.0;0.0;0.0;0.0;0.0;0.0
4.0;1753879334.56018;12.779737;0.61;-1.08;-0.08;-0.988569;-0.113866;0.012779;0.0;0.0;0.0;0.0;0.0;0.0
4.0;1753879334.564786;12.739731;0.65;-1.12;-0.05;-0.988232;-0.114769;0.012156;0.0;0.0;0.0;0.0;0.0;0.0
4.0;1753879334.569392;12.752007;0.58;-1.08;0.07;-0.989743;-0.112261;0.011533;0.0;0.0;0.0;0.0;0.0;0.0
4.0;1753879334.573998;12.780483;0.57;-1.1;-0.05;-0.989775;-0.113247;0.011138;0.0;0.0;0.0;0.0;0.0;0.0
4.0;1753879334.578604;12.801846;0.47;-1.0;-0.01;-0.989805;-0.110646;0.01122;0.0;0.0;0.0;0.0;0.0;0.0
4.0;1753879334.58321;12.747181;0.62;-0.99;0.07;-0.988778;-0.113989;0.012245;0.0;0.0;0.0;0.0;0.0;0.0
4.0;1753879334.587816;12.779752;0.59;-1.14;-0.07;-0.989828;-0.115606;0.012377;0.0;0.0;0.0;0.0;0.0;0.0
4.0;1753879334.592422;12.785245;0.6;-1.11;0.0;-0.989406;-0.114084;0.011331;0.0;0.0;0.0;0.0;0.0;0.0
4.0;1753879334.597028;12.783442;0.57;-1.01;-0.11;-0.98781;-0.115661;0.013227;0.0;0.0;0.0;0.0;0.0;0.0
4.0;1753879334.601634;12.786335;0.54;-1.15;-0.09;-0.988276;-0.116608;0.009412;0.0;0.0;0.0;0.0;0.0;0.0
4.0;1753879334.60624;12.726997;0.62;-1.15;0.08;-0.988986;-0.114349;0.010779;0.0;0.0;0.0;0.0;0.0;0.0
4.0;1753879334.610846;12.771942;0.57;-1.27;0.05;-0.98877;-0.111377;0.011562;0.0;0.0;0.0;0.0;0.0;0.0
4.0;1753879334.615452;12.780616;0.63;-1.06;-0.02;-0.988312;-0.114;0.012311;0.0;0.0;0.0;0.0;0.0;0.0
4.0;1753879334.620058;12.755031;0.64;-1.13;0.09;-0.988589;-0.117781;0.012137;0.0;0.0;0.0;0.0;0.0;0.0
4.0;1753879334.624664;12.762864;0.6;-1.12;0.12;-0.988744;-0.114219;0.011976;0.0;0.0;0.0;0.0;0.0;0.0
4.0;1753879334.62927;12.75896;0.66;-1.07;-0.06;-0.988568;-0.115838;0.010143;0.0;0.0;0.0;0.0;0.0;0.0
4.0;1753879334.633876;12.762793;0.56;-1.04;-0.01;-0.989742;-0.117732;0.01085;0.0;0.0;0.0;0.0;0.0;0.0
4.0;1753879334.638482;12.722201;0.6;-1.21;-0.03;-0.988203;-0.115436;0.011532;0.0;0.0;0.0;0.0;0.0;0.0
4.0;1753879334.643088;12.780652;0.52;-1.16;0.05;-0.989308;-0.113015;0.012043;0.0;0.0;0.0;0.0;0.0;0.0
4.0;1753879334.647694;12.771515;0.61;-1.12;0.02;-0.989097;-0.116673;0.012939;0.0;0.0;0.0;0.0;0.0;0.0
4.0;1753879334.6523;12.754763;0.68;-1.12;-0.1;-0.988908;-0.115248;0.011431;0.0;0.0;0.0;0.0;0.0;0.0
4.0;1753879334.656906;12.747586;0.56;-1.24;-0.08;-0.988517;-0.115418;0.011242;0.0;0.0;0.0;0.0;0.0;0.0
4.0;1753879334.661512;12.764678;0.61;-1.17;0.08;-0.989238;-0.114281;0.011193;0.0;0.0;0.0;0.0;0.0;0.0
4.0;1753879334.666118;12.783501;0.6;-1.24;-0.0;-0.989321;-0.113603;0.013449;0.0;0.0;0.0;0.0;0.0;0.0
4.0;1753879334.670724;12.750893;0.53;-1.14;-0.05;-0.98824;-0.114426;0.012395;0.0;0.0;0.0;0.0;0.0;0.0
4.0;1753879334.67533;12.77199;0.6;-1.18;0.01;-0.989738;-0.114186;0.010705;0.0;0.0;0.0;0.0;0.0;0.0
4.0;1753879334.679936;12.76941;0.51;-1.09;0.06;-0.989359;-0.111668;0.011082;0.0;0.0;0.0;0.0;0.0;0.0
4.0;1753879334.684542;12.751791;0.55;-1.08;-0.06;-0.988989;-0.117633;0.010982;0.0;0.0;0.0;0.0;0.0;0.0
4.0;1753879334.689148;12.737183;0.55;-1.17;0.04;-0.988584;-0.114692;0.010333;0.0;0.0;0.0;0.0;0.0;0.0
4.0;1753879334.693754;12.772136;0.66;-1.13;0.01;-0.988732;-0.113162;0.010617;0.0;0.0;0.0;0.0;0.0;0.0
4.0;1753879334.69836;12.760369;0.65;-1.19;0.0;-0.988591;-0.111548;0.011829;0.0;0.0;0.0;0.0;0.0;0.0
4.0;1753879334.702966;12.787236;0.56;-1.15;-0.03;-0.988824;-0.114699;0.01194;0.0;0.0;0.0;0.0;0.0;0.0
4.0;1753879334.707572;12.706587;0.65;-1.23;0.0;-0.988999;-0.115817;0.011677;0.0;0.0;0.0;0.0;0.0;0.0
4.0;1753879334.712178;12.753462;0.73;-1.21;-0.0;-0.989583;-0.113561;0.011058;0.0;0.0;0.0;0.0;0.0;0.0
4.0;1753879334.716784;12.785024;0.66;-1.26;0.02;-0.987536;-0.111323;0.011163;0.0;0.0;0.0;0.0;0.0;0.0
4.0;1753879334.72139;12.726959;0.58;-1.21;0.05;-0.988973;-0.111893;0.010916;0.0;0.0;0.0;0.0;0.0;0.0
4.0;1753879334.725996;12.784542;0.61;-1.23;0.04;-0.98902;-0.114332;0.011033;0.0;0.0;0.0;0.0;0.0;0.0
4.0;1753879334.730602;12.755344;0.57;-1.2;-0.02;-0.98885;-0.115394;0.010887;0.0;0.0;0.0;0.0;0.0;0.0
4.0;1753879334.735208;12.742151;0.67;-1.2;0.0;-0.989773;-0.113747;0.012641;0.0;0.0;0.0;0.0;0.0;0.0
4.0;1753879334.739814;12.779191;0.66;-1.22;0.02;-0.989901;-0.113842;0.011674;0.0;0.0;0.0;0.0;0.0;0.0
4.0;1753879334.74442;12.757961;0.6;-1.13;-0.02;-0.987521;-0.113375;0.012952;0.0;0.0;0.0;0.0;0.0;0.0
4.0;1753879334.749026;12.757647;0.58;-1.22;0.14;-0.986465;-0.115727;0.010587;0.0;0.0;0.0;0.0;0.0;0.0
4.0;1753879334.753632;12.729165;0.6;-1.24;-0.01;-0.989804;-0.114657;0.010846;0.0;0.0;0.0;0.0;0.0;0.0
4.0;1753879334.758238;12.781069;0.59;-1.15;0.15;-0.988433;-0.109978;0.011884;0.0;0.0;0.0;0.0;0.0;0.0
4.0;1753879334.762844;12.751361;0.55;-1.13;0.06;-0.987275;-0.113561;0.01188;0.0;0.0;0.0;0.0;0.0;0.0
4.0;1753879334.76745;12.795311;0.57;-1.15;-0.01;-0.988608;-0.115978;0.010476;0.0;0.0;0.0;0.0;0.0;0.0
4.0;1753879334.772056;12.766898;0.57;-1.15;-0.07;-0.988389;-0.111653;0.011247;0.0;0.0;0.0;0.0;0.0;0.0
4.0;1753879334.776662;12.799649;0.62;-1.24;0.04;-0.988041;-0.117876;0.011156;0.0;0.0;0.0;0.0;0.0;0.0
4.0;1753879334.781268;12.783188;0.69;-1.23;-0.03;-0.989034;-0.113643;0.010402;0.0;0.0;0.0;0.0;0.0;0.0
4.0;1753879334.785874;12.732242;0.57;-1.2;0.03;-0.988127;-0.115348;0.012569;0.0;0.0;0.0;0.0;0.0;0.0
4.0;1753879334.79048;12.747811;0.54;-1.3;0.07;-0.988089;-0.112776;0.011978;0.0;0.0;0.0;0.0;0.0;0.0
4.0;1753879334.795086;12.739049;0.54;-1.2;0.06;-0.988621;-0.111759;0.011981;0.0;0.0;0.0;0.0;0.0;0.0
4.0;1753879334.799693;12.777849;0.64;-1.13;0.06;-0.987404;-0.116984;0.012594;0.0;0.0;0.0;0.0;0.0;0.0
4.0;1753879334.804299;12.752082;0.62;-1.17;-0.08;-0.987915;-0.113483;0.010329;0.0;0.0;0.0;0.0;0.0;0.0
4.0;1753879334.808905;12.788776;0.67;-1.14;-0.03;-0.988572;-0.112959;0.012188;0.0;0.0;0.0;0.0;0.0;0.0
4.0;1753879334.813511;12.758771;0.62;-1.19;0.01;-0.987539;-0.115004;0.011413;0.0;0.0;0.0;0.0;0.0;0.0
4.0;1753879334.818117;12.772618;0.61;-1.12;0.02;-0.986966;-0.113143;0.011819;0.0;0.0;0.0;0.0;0.0;0.0
4.0;1753879334.822723;12.763069;0.57;-1.2;0.06;-0.987201;-0.113025;0.010792;0.0;0.0;0.0;0.0;0.0;0.0
4.0;1753879334.827329;12.791565;0.65;-1.16;-0.04;-0.988057;-0.114549;0.011466;0.0;0.0;0.0;0.0;0.0;0.0
4.0;1753879334.831935;12.763785;0.57;-1.2;0.09;-0.987464;-0.112544;0.011333;0.0;0.0;0.0;0.0;0.0;0.0
4.0;1753879334.836541;12.727349;0.57;-1.01;-0.06;-0.987399;-0.11114;0.012452;0.0;0.0;0.0;0.0;0.0;0.0
4.0;1753879334.841147;12.829714;0.72;-1.2;0.03;-0.987521;-0.112193;0.012716;0.0;0.0;0.0;0.0;0.0;0.0
4.0;1753879334.845753;12.765403;0.64;-1.09;-0.01;-0.988793;-0.11269;0.012064;0.0;0.0;0.0;0.0;0.0;0.0
4.0;1753879334.850359;12.768057;0.73;-1.13;-0.03;-0.98753;-0.115402;0.012255;0.0;0.0;0.0;0.0;0.0;0.0
4.0;1753879334.854965;12.767333;0.59;-1.2;0.03;-0.98774;-0.113788;0.011626;0.0;0.0;0.0;0.0;0.0;0.0
4.0;1753879334.859571;12.731854;0.54;-1.23;0.1;-0.987796;-0.113512;0.012086;0.0;0.0;0.0;0.0;0.0;0.0
4.0;1753879334.864177;12.758237;0.67;-1.2;0.01;-0.987451;-0.114584;0.01161;0.0;0.0;0.0;0.0;0.0;0.0
4.0;1753879334.868783;12.748968;0.61;-1.28;-0.02;-0.987506;-0.115605;0.012315;0.0;0.0;0.0;0.0;0.0;0.0
4.0;1753879334.873389;12.795549;0.59;-1.09;-0.02;-0.988467;-0.113077;0.01263;0.0;0.0;0.0;0.0;0.0;0.0
4.0;1753879334.877995;12.730365;0.61;-1.06;-0.08;-0.988069;-0.113995;0.011191;0.0;0.0;0.0;0.0;0.0;0.0
4.0;1753879334.8831;12.761719;0.63;-1.19;0.0;-0.987712;-0.11407;0.011834;0.0;0.0;0.0;0.0;0.0;0.0
4.0;1753879334.887706;12.732306;0.64;-1.23;-0.01;-0.988127;-0.118392;0.011247;0.0;0.0;0.0;0.0;0.0;0.0
4.0;1753879334.892312;12.773486;0.59;-1.22;0.02;-0.986854;-0.115703;0.012073;0.0;0.0;0.0;0.0;0.0;0.0
4.0;1753879334.896918;12.778253;0.58;-1.16;-0.01;-0.988925;-0.115089;0.011411;0.0;0.0;0.0;0.0;0.0;0.0
4.0;1753879334.901524;12.722624;0.57;-1.21;-0.02;-0.987111;-0.118238;0.01178;0.0;0.0;0.0;0.0;0.0;0.0
4.0;1753879334.90613;12.723455;0.68;-1.24;0.04;-0.987431;-0.116667;0.012032;0.0;0.0;0.0;0.0;0.0;0.0
4.0;1753879334.9147;12.707031;0.63;-1.19;0.07;-0.987712;-0.118584;0.012322;0.0;0.0;0.0;0.0;0.0;0.0
4.0;1753879334.919306;12.66311;0.72;-1.17;0.06;-0.98735;-0.115286;0.012397;0.0;0.0;0.0;0.0;0.0;0.0
4.0;1753879334.923912;12.7213;0.67;-1.3;0.07;-0.98926;-0.119232;0.013474;0.0;0.0;0.0;0.0;0.0;0.0
4.0;1753879334.928518;12.715765;0.58;-1.18;0.01;-0.988385;-0.114772;0.013175;0.0;0.0;0.0;0.0;0.0;0.0
4.0;1753879334.933124;12.719505;0.61;-1.25;0.05;-0.988137;-0.113472;0.011932;0.0;0.0;0.0;0.0;0.0;0.0
4.0;1753879334.93773;12.722662;0.6;-1.33;0.04;-0.987071;-0.111376;0.012161;0.0;0.0;0.0;0.0;0.0;0.0
4.0;1753879334.942336;12.703175;0.61;-1.05;0.06;-0.987372;-0.109661;0.013268;0.0;0.0;0.0;0.0;0.0;0.0
4.0;1753879334.946942;12.676571;0.51;-1.2;0.01;-0.987937;-0.110229;0.011812;0.0;0.0;0.0;0.0;0.0;0.0
4.0;1753879334.951548;12.701215;0.5;-1.15;-0.03;-0.987692;-0.110853;0.012385;0.0;0.0;0.0;0.0;0.0;0.0
4.0;1753879334.95863;12.707031;0.63;-1.19;0.0;-0.987346;-0.109312;0.012688;0.0;0.0;0.0;0.0;0.0;0.0
4.0;1753879334.960009;12.777344;0.63;-1.12;0.07;-0.989176;-0.114192;0.013542;0.0;0.0;0.0;0.0;0.0;0.0
4.0;1753879334.964615;12.739717;0.69;-1.18;0.08;-0.989729;-0.116478;0.011721;0.0;0.0;0.0;0.0;0.0;0.0
4.0;1753879334.969593;12.714844;0.63;-1.19;0.07;-0.989664;-0.114802;0.011224;0.0;0.0;0.0;0.0;0.0;0.0
4.0;1753879334.974263;12.714844;0.49;-1.05;-0.07;-0.988566;-0.113826;0.011712;0.0;0.0;0.0;0.0;0.0;0.0
4.0;1753879334.978606;12.714844;0.56;-1.05;0.0;-0.989298;-0.116876;0.011956;0.0;0.0;0.0;0.0;0.0;0.0
4.0;1753879334.983035;12.777344;0.63;-1.19;0.0;-0.989054;-0.11041;0.012078;0.0;0.0;0.0;0.0;0.0;0.0
4.0;1753879334.989734;12.777344;0.7;-1.19;0.0;-0.9882;-0.117852;0.012688;0.0;0.0;0.0;0.0;0.0;0.0
4.0;1753879334.991928;12.777344;0.63;-1.19;0.07;-0.9882;-0.117852;0.012688;0.0;0.0;0.0;0.0;0.0;0.0
4.0;1753879334.997695;12.777344;0.7;-1.12;0.07;-0.988932;-0.114924;0.012078;0.0;0.0;0.0;0.0;0.0;0.0
4.0;1753879335.002301;12.786696;0.81;-1.14;0.11;-0.989329;-0.113289;0.011265;0.0;0.0;0.0;0.0;0.0;0.0
4.0;1753879335.006907;12.773465;0.64;-1.2;0.02;-0.989669;-0.112022;0.013349;0.0;0.0;0.0;0.0;0.0;0.0
4.0;1753879335.011513;12.75851;0.58;-1.14;0.06;-0.988686;-0.112499;0.011995;0.0;0.0;0.0;0.0;0.0;0.0
4.0;1753879335.016119;12.762301;0.6;-1.11;0.05;-0.98824;-0.110829;0.011958;0.0;0.0;0.0;0.0;0.0;0.0
4.0;1753879335.020725;12.752396;0.6;-1.15;0.09;-0.988302;-0.114456;0.011426;0.0;0.0;0.0;0.0;0.0;0.0
4.0;1753879335.025331;12.755616;0.76;-1.12;0.05;-0.988531;-0.112637;0.012691;0.0;0.0;0.0;0.0;0.0;0.0
4.0;1753879335.029937;12.770026;0.7;-1.21;0.09;-0.988347;-0.112063;0.010802;0.0;0.0;0.0;0.0;0.0;0.0
4.0;1753879335.034543;12.804621;0.65;-1.18;0.12;-0.989108;-0.114624;0.0114;0.0;0.0;0.0;0.0;0.0;0.0
4.0;1753879335.039149;12.769653;0.59;-1.2;-0.03;-0.988683;-0.116175;0.012497;0.0;0.0;0.0;0.0;0.0;0.0
4.0;1753879335.043755;12.787033;0.71;-1.09;0.06;-0.988781;-0.115247;0.013717;0.0;0.0;0.0;0.0;0.0;0.0
4.0;1753879335.048361;12.778462;0.6;-1.15;0.02;-0.989971;-0.113394;0.012223;0.0;0.0;0.0;0.0;0.0;0.0
4.0;1753879335.052967;12.784184;0.78;-1.2;0.06;-0.988597;-0.114891;0.013923;0.0;0.0;0.0;0.0;0.0;0.0
4.0;1753879335.057573;12.760825;0.7;-1.12;0.06;-0.988184;-0.114491;0.011299;0.0;0.0;0.0;0.0;0.0;0.0
4.0;1753879335.062179;12.762761;0.68;-1.11;-0.02;-0.988567;-0.115436;0.013068;0.0;0.0;0.0;0.0;0.0;0.0
4.0;1753879335.066785;12.792836;0.64;-1.07;0.07;-0.988148;-0.112585;0.012313;0.0;0.0;0.0;0.0;0.0;0.0
4.0;1753879335.071391;12.79109;0.7;-1.08;0.01;-0.988691;-0.112721;0.012939;0.0;0.0;0.0;0.0;0.0;0.0
4.0;1753879335.075997;12.706709;0.55;-1.11;0.08;-0.988992;-0.116293;0.012101;0.0;0.0;0.0;0.0;0.0;0.0
4.0;1753879335.080603;12.775024;0.73;-1.1;0.06;-0.987917;-0.113243;0.012576;0.0;0.0;0.0;0.0;0.0;0.0
4.0;1753879335.085209;12.784507;0.67;-1.12;0.11;-0.989082;-0.113953;0.01247;0.0;0.0;0.0;0.0;0.0;0.0
4.0;1753879335.089815;12.810888;0.7;-1.17;0.03;-0.989631;-0.11531;0.011126;0.0;0.0;0.0;0.0;0.0;0.0
4.0;1753879335.094421;12.78318;0.73;-1.08;0.1;-0.988235;-0.116024;0.011223;0.0;0.0;0.0;0.0;0.0;0.0
4.0;1753879335.099027;12.797888;0.73;-1.16;0.04;-0.988658;-0.112765;0.01249;0.0;0.0;0.0;0.0;0.0;0.0
4.0;1753879335.103633;12.792855;0.63;-1.08;0.11;-0.988775;-0.114924;0.010344;0.0;0.0;0.0;0.0;0.0;0.0
4.0;1753879335.108239;12.779135;0.61;-1.22;0.1;-0.988616;-0.112309;0.011436;0.0;0.0;0.0;0.0;0.0;0.0
4.0;1753879335.112845;12.772283;0.73;-1.11;0.08;-0.988916;-0.111974;0.011691;0.0;0.0;0.0;0.0;0.0;0.0
4.0;1753879335.117451;12.780818;0.7;-1.12;0.05;-0.989289;-0.117032;0.012839;0.0;0.0;0.0;0.0;0.0;0.0
4.0;1753879335.122057;12.773437;0.73;-1.12;0.01;-0.988012;-0.114589;0.011739;0.0;0.0;0.0;0.0;0.0;0.0
4.0;1753879335.126663;12.785094;0.71;-1.17;0.1;-0.988566;-0.116078;0.012052;0.0;0.0;0.0;0.0;0.0;0.0
4.0;1753879335.131269;12.771867;0.68;-1.07;0.02;-0.988945;-0.114575;0.012557;0.0;0.0;0.0;0.0;0.0;0.0
4.0;1753879335.135875;12.774126;0.66;-1.17;0.08;-0.989408;-0.116394;0.011961;0.0;0.0;0.0;0.0;0.0;0.0
4.0;1753879335.140481;12.748603;0.74;-1.1;0.06;-0.988367;-0.115977;0.013747;0.0;0.0;0.0;0.0;0.0;0.0
4.0;1753879335.145087;12.760207;0.65;-1.12;0.14;-0.987607;-0.117019;0.011265;0.0;0.0;0.0;0.0;0.0;0.0
4.0;1753879335.149693;12.748946;0.68;-1.13;0.11;-0.989366;-0.115337;0.010936;0.0;0.0;0.0;0.0;0.0;0.0
4.0;1753879335.154299;12.821097;0.74;-1.14;0.1;-0.98967;-0.113642;0.013015;0.0;0.0;0.0;0.0;0.0;0.0
4.0;1753879335.158905;12.824704;0.76;-1.2;0.01;-0.988778;-0.115682;0.01243;0.0;0.0;0.0;0.0;0.0;0.0
4.0;1753879335.163511;12.793606;0.83;-1.09;0.1;-0.98905;-0.114005;0.012374;0.0;0.0;0.0;0.0;0.0;0.0
4.0;1753879335.168117;12.767667;0.61;-1.22;0.02;-0.987928;-0.114786;0.011796;0.0;0.0;0.0;0.0;0.0;0.0
4.0;1753879335.172723;12.764585;0.72;-1.2;0.06;-0.988934;-0.116859;0.011371;0.0;0.0;0.0;0.0;0.0;0.0
4.0;1753879335.177329;12.764526;0.7;-1.14;0.09;-0.987107;-0.118736;0.011092;0.0;0.0;0.0;0.0;0.0;0.0
4.0;1753879335.181935;12.788028;0.72;-0.99;0.14;-0.989657;-0.114818;0.011363;0.0;0.0;0.0;0.0;0.0;0.0
4.0;1753879335.186541;12.760899;0.63;-1.11;0.1;-0.988059;-0.116389;0.011577;0.0;0.0;0.0;0.0;0.0;0.0
4.0;1753879335.191147;12.778694;0.71;-1.09;0.11;-0.988992;-0.114021;0.012307;0.0;0.0;0.0;0.0;0.0;0.0
4.0;1753879335.195753;12.779762;0.68;-1.09;0.06;-0.988149;-0.111633;0.01261;0.0;0.0;0.0;0.0;0.0;0.0
4.0;1753879335.200359;12.780968;0.7;-1.08;0.07;-0.988721;-0.115973;0.011548;0.0;0.0;0.0;0.0;0.0;0.0
4.0;1753879335.204965;12.786928;0.67;-1.2;0.05;-0.988713;-0.111618;0.013236;0.0;0.0;0.0;0.0;0.0;0.0
4.0;1753879335.209571;12.775221;0.65;-1.14;0.08;-0.989665;-0.116188;0.011799;0.0;0.0;0.0;0.0;0.0;0.0
4.0;1753879335.214177;12.769771;0.69;-1.1;0.14;-0.989228;-0.115243;0.011243;0.0;0.0;0.0;0.0;0.0;0.0
4.0;1753879335.218784;12.809059;0.75;-1.18;0.08;-0.989116;-0.11535;0.010737;0.0;0.0;0.0;0.0;0.0;0.0
4.0;1753879335.22339;12.785007;0.65;-1.07;0.12;-0.989022;-0.114775;0.011131;0.0;0.0;0.0;0.0;0.0;0.0
4.0;1753879335.227996;12.788273;0.63;-1.13;0.14;-0.989868;-0.114769;0.011627;0.0;0.0;0.0;0.0;0.0;0.0
4.0;1753879335.232602;12.791706;0.64;-1.07;0.09;-0.988046;-0.115897;0.013076;0.0;0.0;0.0;0.0;0.0;0.0
4.0;1753879335.237208;12.749675;0.71;-1.09;0.01;-0.988455;-0.116931;0.012486;0.0;0.0;0.0;0.0;0.0;0.0
4.0;1753879335.241814;12.765623;0.63;-1.15;0.09;-0.988381;-0.115354;0.012381;0.0;0.0;0.0;0.0;0.0;0.0
4.0;1753879335.24642;12.806602;0.71;-1.14;0.15;-0.988911;-0.114479;0.012888;0.0;0.0;0.0;0.0;0.0;0.0
4.0;1753879335.251026;12.793777;0.71;-1.14;0.06;-0.988598;-0.112597;0.011979;0.0;0.0;0.0;0.0;0.0;0.0
4.0;1753879335.255632;12.768013;0.62;-1.08;0.09;-0.989905;-0.112496;0.011441;0.0;0.0;0.0;0.0;0.0;0.0
4.0;1753879335.260238;12.773317;0.69;-1.16;0.1;-0.988619;-0.114744;0.011977;0.0;0.0;0.0;0.0;0.0;0.0
4.0;1753879335.264844;12.750071;0.66;-1.16;0.08;-0.988293;-0.113823;0.012715;0.0;0.0;0.0;0.0;0.0;0.0
4.0;1753879335.26945;12.816303;0.62;-1.08;0.04;-0.989605;-0.11494;0.012152;0.0;0.0;0.0;0.0;0.0;0.0
4.0;1753879335.274056;12.785684;0.62;-1.08;0.03;-0.990592;-0.112727;0.010703;0.0;0.0;0.0;0.0;0.0;0.0
4.0;1753879335.278662;12.782039;0.72;-1.18;0.04;-0.98943;-0.117531;0.011103;0.0;0.0;0.0;0.0;0.0;0.0
4.0;1753879335.283268;12.81423;0.69;-1.14;0.05;-0.989788;-0.116719;0.012166;0.0;0.0;0.0;0.0;0.0;0.0
4.0;1753879335.287874;12.768769;0.68;-1.12;0.09;-0.987687;-0.115122;0.010366;0.0;0.0;0.0;0.0;0.0;0.0
4.0;1753879335.29248;12.768866;0.81;-1.16;0.08;-0.988225;-0.11764;0.011825;0.0;0.0;0.0;0.0;0.0;0.0
4.0;1753879335.297086;12.754747;0.72;-1.2;0.02;-0.988182;-0.115513;0.01047;0.0;0.0;0.0;0.0;0.0;0.0
4.0;1753879335.301692;12.832;0.7;-1.07;0.11;-0.988849;-0.115044;0.011713;0.0;0.0;0.0;0.0;0.0;0.0
4.0;1753879335.306298;12.769619;0.61;-1.05;0.09;-0.989995;-0.116816;0.011523;0.0;0.0;0.0;0.0;0.0;0.0
4.0;1753879335.310904;12.770996;0.69;-1.12;0.02;-0.98988;-0.116859;0.012684;0.0;0.0;0.0;0.0;0.0;0.0
4.0;1753879335.31551;12.76222;0.67;-1.14;0.12;-0.987358;-0.116786;0.011277;0.0;0.0;0.0;0.0;0.0;0.0
4.0;1753879335.320116;12.729208;0.77;-1.13;0.03;-0.988126;-0.114831;0.011904;0.0;0.0;0.0;0.0;0.0;0.0
4.0;1753879335.324722;12.775212;0.62;-1.2;0.01;-0.989633;-0.114747;0.011707;0.0;0.0;0.0;0.0;0.0;0.0
4.0;1753879335.329328;12.801293;0.68;-1.14;0.08;-0.989111;-0.116939;0.01324;0.0;0.0;0.0;0.0;0.0;0.0
4.0;1753879335.333934;12.770764;0.52;-1.11;0.05;-0.989086;-0.11617;0.012138;0.0;0.0;0.0;0.0;0.0;0.0
4.0;1753879335.33854;12.774328;0.79;-1.1;0.05;-0.987996;-0.114214;0.011974;0.0;0.0;0.0;0.0;0.0;0.0
4.0;1753879335.343146;12.769793;0.75;-1.05;0.05;-0.98911;-0.112455;0.01185;0.0;0.0;0.0;0.0;0.0;0.0
4.0;1753879335.347752;12.765422;0.66;-1.19;-0.01;-0.98848;-0.114035;0.012686;0.0;0.0;0.0;0.0;0.0;0.0
4.0;1753879335.352358;12.795602;0.78;-1.2;0.05;-0.98776;-0.114537;0.011908;0.0;0.0;0.0;0.0;0.0;0.0
4.0;1753879335.356964;12.78883;0.61;-1.14;0.09;-0.987941;-0.118488;0.012234;0.0;0.0;0.0;0.0;0.0;0.0
4.0;1753879335.36157;12.794935;0.72;-1.13;0.05;-0.989553;-0.117089;0.012497;0.0;0.0;0.0;0.0;0.0;0.0
4.0;1753879335.366176;12.784878;0.62;-1.16;0.11;-0.990505;-0.11425;0.010914;0.0;0.0;0.0;0.0;0.0;0.0
4.0;1753879335.370782;12.786535;0.67;-1.1;0.03;-0.988702;-0.11277;0.011507;0.0;0.0;0.0;0.0;0.0;0.0
4.0;1753879335.375388;12.762247;0.62;-1.13;0.08;-0.989828;-0.115119;0.013503;0.0;0.0;0.0;0.0;0.0;0.0
4.0;1753879335.379994;12.782101;0.69;-1.06;0.08;-0.98811;-0.117405;0.010765;0.0;0.0;0.0;0.0;0.0;0.0
4.0;1753879335.3846;12.767704;0.72;-1.17;0.12;-0.989022;-0.113477;0.011587;0.0;0.0;0.0;0.0;0.0;0.0
4.0;1753879335.389206;12.766678;0.63;-1.16;0.1;-0.98891;-0.113354;0.013567;0.0;0.0;0.0;0.0;0.0;0.0
4.0;1753879335.393812;12.811803;0.63;-1.12;0.12;-0.989816;-0.115878;0.011123;0.0;0.0;0.0;0.0;0.0;0.0
4.0;1753879335.398418;12.753984;0.69;-1.18;0.05;-0.98929;-0.11339;0.011311;0.0;0.0;0.0;0.0;0.0;0.0
4.0;1753879335.403024;12.760711;0.66;-1.12;0.06;-0.987798;-0.114973;0.012568;0.0;0.0;0.0;0.0;0.0;0.0
4.0;1753879335.40763;12.77971;0.78;-1.15;0.08;-0.98793;-0.110277;0.010993;0.0;0.0;0.0;0.0;0.0;0.0
4.0;1753879335.412236;12.751408;0.7;-1.12;0.17;-0.987959;-0.115866;0.011253;0.0;0.0;0.0;0.0;0.0;0.0
4.0;1753879335.416842;12.762806;0.67;-1.21;0.05;-0.98865;-0.1172;0.011685;0.0;0.0;0.0;0.0;0.0;0.0
4.0;1753879335.421448;12.785927;0.73;-1.25;0.08;-0.987879;-0.116147;0.011246;0.0;0.0;0.0;0.0;0.0;0.0
4.0;1753879335.426054;12.810412;0.76;-1.1;0.03;-0.988025;-0.116392;0.011571;0.0;0.0;0.0;0.0;0.0;0.0
4.0;1753879335.43066;12.784559;0.68;-1.13;0.11;-0.989448;-0.115874;0.011387;0.0;0.0;0.0;0.0;0.0;0.0
4.0;1753879335.435266;12.741526;0.59;-1.1;0.04;-0.98927;-0.116915;0.010106;0.0;0.0;0.0;0.0;0.0;0.0
4.0;1753879335.439872;12.749532;0.75;-1.15;0.08;-0.989127;-0.112326;0.013851;0.0;0.0;0.0;0.0;0.0;0.0
4.0;1753879335.444478;12.781233;0.71;-1.11;0.09;-0.988143;-0.116798;0.011154;0.0;0.0;0.0;0.0;0.0;0.0
4.0;1753879335.449084;12.78449;0.56;-1.01;0.04;-0.989296;-0.115729;0.011028;0.0;0.0;0.0;0.0;0.0;0.0
4.0;1753879335.45369;12.783353;0.61;-1.29;0.07;-0.987907;-0.11082;0.011951;0.0;0.0;0.0;0.0;0.0;0.0
4.0;1753879335.458296;12.786931;0.55;-1.09;0.05;-0.988662;-0.114122;0.010303;0.0;0.0;0.0;0.0;0.0;0.0
4.0;1753879335.462902;12.783034;0.69;-1.19;0.11;-0.987818;-0.116735;0.011107;0.0;0.0;0.0;0.0;0.0;0.0
4.0;1753879335.467508;12.779413;0.64;-1.04;0.13;-0.988152;-0.115778;0.011833;0.0;0.0;0.0;0.0;0.0;0.0
4.0;1753879335.472114;12.783546;0.67;-1.07;0.09;-0.987932;-0.112645;0.011355;0.0;0.0;0.0;0.0;0.0;0.0
4.0;1753879335.47672;12.802708;0.59;-1.11;0.0;-0.988286;-0.116292;0.012682;0.0;0.0;0.0;0.0;0.0;0.0
4.0;1753879335.481326;12.784854;0.72;-1.14;0.12;-0.98735;-0.114377;0.011123;0.0;0.0;0.0;0.0;0.0;0.0
4.0;1753879335.485932;12.770527;0.64;-1.2;0.07;-0.988655;-0.112735;0.012244;0.0;0.0;0.0;0.0;0.0;0.0
4.0;1753879335.490538;12.808997;0.76;-1.11;-0.03;-0.989283;-0.117196;0.011686;0.0;0.0;0.0;0.0;0.0;0.0
4.0;1753879335.495144;12.726272;0.61;-1.16;0.14;-0.989575;-0.115616;0.012073;0.0;0.0;0.0;0.0;0.0;0.0
4.0;1753879335.49975;12.780165;0.67;-1.19;0.09;-0.989692;-0.112546;0.012248;0.0;0.0;0.0;0.0;0.0;0.0
4.0;1753879335.504356;12.806989;0.56;-1.13;0.11;-0.988504;-0.112477;0.01157;0.0;0.0;0.0;0.0;0.0;0.0
4.0;1753879335.508962;12.760604;0.74;-1.2;0.14;-0.987557;-0.116606;0.011793;0.0;0.0;0.0;0.0;0.0;0.0
4.0;1753879335.513568;12.795894;0.62;-1.12;-0.01;-0.98878;-0.11343;0.011254;0.0;0.0;0.0;0.0;0.0;0.0
4.0;1753879335.518174;12.762215;0.65;-1.12;0.07;-0.990021;-0.113962;0.012496;0.0;0.0;0.0;0.0;0.0;0.0
4.0;1753879335.52278;12.793791;0.75;-1.12;0.01;-0.988328;-0.112626;0.011816;0.0;0.0;0.0;0.0;0.0;0.0
4.0;1753879335.527386;12.802267;0.67;-1.14;0.08;-0.988714;-0.114598;0.01152;0.0;0.0;0.0;0.0;0.0;0.0
4.0;1753879335.531992;12.756157;0.61;-1.09;0.07;-0.987128;-0.11729;0.013832;0.0;0.0;0.0;0.0;0.0;0.0
4.0;1753879335.536598;12.788718;0.59;-1.17;0.04;-0.988962;-0.113685;0.012813;0.0;0.0;0.0;0.0;0.0;0.0
4.0;1753879335.541204;12.825974;0.61;-1.19;0.04;-0.989018;-0.112947;0.010987;0.0;0.0;0.0;0.0;0.0;0.0
4.0;1753879335.54581;12.774873;0.72;-1.07;0.09;-0.987636;-0.116631;0.011721;0.0;0.0;0.0;0.0;0.0;0.0
4.0;1753879335.550416;12.80134;0.68;-1.11;0.1;-0.989946;-0.113681;0.010611;0.0;0.0;0.0;0.0;0.0;0.0
4.0;1753879335.555022;12.772468;0.79;-1.17;0.05;-0.989155;-0.115738;0.011645;0.0;0.0;0.0;0.0;0.0;0.0
4.0;1753879335.559628;12.760733;0.64;-1.15;0.06;-0.988075;-0.113402;0.011816;0.0;0.0;0.0;0.0;0.0;0.0
4.0;1753879335.564234;12.76585;0.62;-1.08;0.12;-0.987503;-0.114015;0.011974;0.0;0.0;0.0;0.0;0.0;0.0
4.0;1753879335.56884;12.779082;0.66;-1.07;0.09;-0.988305;-0.114995;0.01235;0.0;0.0;0.0;0.0;0.0;0.0
4.0;1753879335.573446;12.773927;0.61;-1.18;0.16;-0.987548;-0.114054;0.01103;0.0;0.0;0.0;0.0;0.0;0.0
4.0;1753879335.578052;12.788629;0.59;-1.19;0.02;-0.990089;-0.117999;0.012246;0.0;0.0;0.0;0.0;0.0;0.0
4.0;1753879335.582658;12.791362;0.64;-1.08;0.08;-0.989311;-0.116161;0.012655;0.0;0.0;0.0;0.0;0.0;0.0
4.0;1753879335.587264;12.748235;0.71;-1.13;0.07;-0.989851;-0.113753;0.013186;0.0;0.0;0.0;0.0;0.0;0.0
4.0;1753879335.59187;12.775779;0.62;-1.13;0.1;-0.988332;-0.112738;0.011101;0.0;0.0;0.0;0.0;0.0;0.0
4.0;1753879335.596476;12.725;0.65;-1.17;0.02;-0.987793;-0.114925;0.011435;0.0;0.0;0.0;0.0;0.0;0.0
4.0;1753879335.601082;12.781938;0.79;-1.17;0.08;-0.98861;-0.118141;0.011188;0.0;0.0;0.0;0.0;0.0;0.0
4.0;1753879335.605688;12.752959;0.67;-1.08;0.1;-0.989455;-0.118861;0.011361;0.0;0.0;0.0;0.0;0.0;0.0
4.0;1753879335.610294;12.751463;0.66;-1.25;0.09;-0.987646;-0.116938;0.011563;0.0;0.0;0.0;0.0;0.0;0.0
4.0;1753879335.6149;12.789736;0.6;-1.08;0.01;-0.988596;-0.112151;0.010568;0.0;0.0;0.0;0.0;0.0;0.0
4.0;1753879335.619506;12.783797;0.52;-1.09;0.11;-0.988064;-0.114531;0.010786;0.0;0.0;0.0;0.0;0.0;0.0
4.0;1753879335.624112;12.748905;0.71;-1.2;0.13;-0.988663;-0.114133;0.010749;0.0;0.0;0.0;0.0;0.0;0.0
4.0;1753879335.628718;12.778882;0.68;-1.16;0.05;-0.988469;-0.115662;0.012287;0.0;0.0;0.0;0.0;0.0;0.0
4.0;1753879335.633324;12.752856;0.52;-1.09;0.02;-0.989493;-0.116697;0.011548;0.0;0.0;0.0;0.0;0.0;0.0
4.0;1753879335.63793;12.751098;0.75;-0.99;0.08;-0.988579;-0.114386;0.011961;0.0;0.0;0.0;0.0;0.0;0.0
4.0;1753879335.642536;12.782807;0.62;-1.08;0.07;-0.988085;-0.114953;0.01268;0.0;0.0;0.0;0.0;0.0;0.0
4.0;1753879335.647142;12.762212;0.61;-1.26;0.13;-0.988641;-0.114134;0.011724;0.0;0.0;0.0;0.0;0.0;0.0
4.0;1753879335.651748;12.748513;0.68;-1.08;0.08;-0.989116;-0.116483;0.011656;0.0;0.0;0.0;0.0;0.0;0.0
4.0;1753879335.656354;12.754356;0.61;-1.14;0.11;-0.989131;-0.114193;0.011499;0.0;0.0;0.0;0.0;0.0;0.0
4.0;1753879335.66096;12.787677;0.63;-1.16;0.05;-0.988678;-0.112663;0.011024;0.0;0.0;0.0;0.0;0.0;0.0
4.0;1753879335.665566;12.812893;0.68;-1.1;0.08;-0.987992;-0.113985;0.011616;0.0;0.0;0.0;0.0;0.0;0.0
4.0;1753879335.670172;12.724591;0.6;-1.14;0.05;-0.988819;-0.116112;0.012209;0.0;0.0;0.0;0.0;0.0;0.0
4.0;1753879335.674778;12.816921;0.6;-1.11;0.13;-0.988396;-0.117825;0.011333;0.0;0.0;0.0;0.0;0.0;0.0
4.0;1753879335.679384;12.739016;0.66;-1.15;0.07;-0.988189;-0.116693;0.011248;0.0;0.0;0.0;0.0;0.0;0.0
4.0;1753879335.68399;12.814101;0.68;-1.14;0.06;-0.987796;-0.112114;0.010897;0.0;0.0;0.0;0.0;0.0;0.0
4.0;1753879335.688596;12.770093;0.7;-1.1;0.05;-0.987959;-0.115476;0.01087;0.0;0.0;0.0;0.0;0.0;0.0
4.0;1753879335.693202;12.801247;0.52;-1.08;0.09;-0.989148;-0.11539;0.010934;0.0;0.0;0.0;0.0;0.0;0.0
4.0;1753879335.697808;12.779807;0.65;-1.0;0.03;-0.988345;-0.113067;0.011703;0.0;0.0;0.0;0.0;0.0;0.0
4.0;1753879335.702414;12.777589;0.64;-1.17;0.1;-0.98962;-0.113247;0.011868;0.0;0.0;0.0;0.0;0.0;0.0
4.0;1753879335.70702;12.779891;0.65;-1.05;0.09;-0.988533;-0.113987;0.012749;0.0;0.0;0.0;0.0;0.0;0.0
4.0;1753879335.711626;12.798015;0.59;-1.08;0.1;-0.988419;-0.113661;0.011607;0.0;0.0;0.0;0.0;0.0;0.0
4.0;1753879335.716232;12.755163;0.63;-1.24;0.18;-0.989566;-0.113356;0.010929;0.0;0.0;0.0;0.0;0.0;0.0
4.0;1753879335.720838;12.770626;0.67;-1.11;0.05;-0.986717;-0.111801;0.011579;0.0;0.0;0.0;0.0;0.0;0.0
4.0;1753879335.725444;12.784129;0.56;-1.16;0.02;-0.987655;-0.116133;0.010262;0.0;0.0;0.0;0.0;0.0;0.0
4.0;1753879335.73005;12.858415;0.63;-1.06;0.09;-0.988359;-0.114283;0.010438;0.0;0.0;0.0;0.0;0.0;0.0
4.0;1753879335.734656;12.776371;0.6;-1.15;0.1;-0.989821;-0.11626;0.011274;0.0;0.0;0.0;0.0;0.0;0.0
4.0;1753879335.739262;12.771633;0.57;-1.1;-0.01;-0.989829;-0.116085;0.010953;0.0;0.0;0.0;0.0;0.0;0.0
4.0;1753879335.743868;12.747772;0.61;-1.05;0.17;-0.988069;-0.116868;0.012131;0.0;0.0;0.0;0.0;0.0;0.0
4.0;1753879335.748474;12.79761;0.66;-1.05;0.02;-0.98832;-0.112964;0.012012;0.0;0.0;0.0;0.0;0.0;0.0
4.0;1753879335.75308;12.748366;0.58;-1.06;0.07;-0.988949;-0.111802;0.012495;0.0;0.0;0.0;0.0;0.0;0.0
4.0;1753879335.757686;12.781543;0.59;-1.08;0.08;-0.988932;-0.117849;0.013354;0.0;0.0;0.0;0.0;0.0;0.0
4.0;1753879335.762292;12.76707;0.68;-1.11;0.04;-0.988697;-0.115822;0.011545;0.0;0.0;0.0;0.0;0.0;0.0
4.0;1753879335.766898;12.788382;0.6;-1.19;0.04;-0.988468;-0.114911;0.012007;0.0;0.0;0.0;0.0;0.0;0.0
4.0;1753879335.771504;12.802613;0.63;-1.16;0.07;-0.987981;-0.117767;0.011041;0.0;0.0;0.0;0.0;0.0;0.0
4.0;1753879335.77611;12.810999;0.6;-1.07;0.09;-0.98898;-0.115554;0.011865;0.0;0.0;0.0;0.0;0.0;0.0
4.0;1753879335.780716;12.799608;0.66;-1.15;0.08;-0.987504;-0.116351;0.010665;0.0;0.0;0.0;0.0;0.0;0.0
4.0;1753879335.785322;12.729442;0.54;-1.04;0.07;-0.987799;-0.115224;0.012492;0.0;0.0;0.0;0.0;0.0;0.0
4.0;1753879335.789928;12.798152;0.49;-1.08;0.05;-0.988886;-0.116687;0.011367;0.0;0.0;0.0;0.0;0.0;0.0
4.0;1753879335.794534;12.780844;0.62;-1.12;0.1;-0.988448;-0.118362;0.009899;0.0;0.0;0.0;0.0;0.0;0.0
4.0;1753879335.79914;12.765164;0.59;-1.1;-0.0;-0.988665;-0.112857;0.012502;0.0;0.0;0.0;0.0;0.0;0.0
4.0;1753879335.803746;12.773969;0.65;-1.13;0.11;-0.988841;-0.118431;0.01092;0.0;0.0;0.0;0.0;0.0;0.0
4.0;1753879335.808352;12.778361;0.58;-1.23;0.06;-0.988195;-0.114696;0.010159;0.0;0.0;0.0;0.0;0.0;0.0
4.0;1753879335.812958;12.777646;0.67;-1.18;0.06;-0.987406;-0.113081;0.01194;0.0;0.0;0.0;0.0;0.0;0.0
4.0;1753879335.817564;12.772437;0.5;-1.12;0.09;-0.988366;-0.11356;0.01016;0.0;0.0;0.0;0.0;0.0;0.0
4.0;1753879335.82217;12.794723;0.69;-1.21;0.11;-0.987934;-0.116111;0.011475;0.0;0.0;0.0;0.0;0.0;0.0
4.0;1753879335.826776;12.781064;0.6;-1.12;0.09;-0.988267;-0.118464;0.010325;0.0;0.0;0.0;0.0;0.0;0.0
4.0;1753879335.831382;12.798378;0.64;-1.1;0.17;-0.988993;-0.116094;0.010486;0.0;0.0;0.0;0.0;0.0;0.0
4.0;1753879335.835988;12.764432;0.72;-1.07;0.01;-0.988074;-0.116777;0.012831;0.0;0.0;0.0;0.0;0.0;0.0
4.0;1753879335.840594;12.774281;0.74;-1.14;0.01;-0.987643;-0.11405;0.010333;0.0;0.0;0.0;0.0;0.0;0.0
4.0;1753879335.8452;12.817885;0.6;-1.1;0.15;-0.988549;-0.116877;0.011516;0.0;0.0;0.0;0.0;0.0;0.0
4.0;1753879335.849806;12.7776;0.49;-1.06;0.14;-0.988979;-0.114206;0.010735;0.0;0.0;0.0;0.0;0.0;0.0
4.0;1753879335.854412;12.805636;0.66;-0.99;0.09;-0.988754;-0.113868;0.010366;0.0;0.0;0.0;0.0;0.0;0.0
4.0;1753879335.863;12.777344;0.63;-1.12;0.07;-0.988444;-0.115168;0.011468;0.0;0.0;0.0;0.0;0.0;0.0
4.0;1753879335.867606;12.791333;0.69;-1.11;0.09;-0.988184;-0.116131;0.012337;0.0;0.0;0.0;0.0;0.0;0.0
4.0;1753879335.872212;12.744895;0.63;-1.02;0.03;-0.988429;-0.115173;0.011404;0.0;0.0;0.0;0.0;0.0;0.0
4.0;1753879335.876818;12.79697;0.69;-1.08;0.03;-0.989237;-0.113692;0.011683;0.0;0.0;0.0;0.0;0.0;0.0
4.0;1753879335.881424;12.792012;0.61;-1.05;0.03;-0.987589;-0.114435;0.011136;0.0;0.0;0.0;0.0;0.0;0.0
4.0;1753879335.88603;12.770375;0.58;-1.02;0.01;-0.987902;-0.114893;0.011555;0.0;0.0;0.0;0.0;0.0;0.0
4.0;1753879335.890636;12.733218;0.59;-1.05;0.07;-0.988304;-0.116813;0.01054;0.0;0.0;0.0;0.0;0.0;0.0
4.0;1753879335.895242;12.794628;0.65;-1.19;0.09;-0.988867;-0.112389;0.010871;0.0;0.0;0.0;0.0;0.0;0.0
4.0;1753879335.899848;12.782073;0.54;-1.15;0.06;-0.987102;-0.114297;0.011413;0.0;0.0;0.0;0.0;0.0;0.0
4.0;1753879335.904454;12.745969;0.73;-1.17;0.04;-0.988067;-0.116207;0.012834;0.0;0.0;0.0;0.0;0.0;0.0
4.0;1753879335.90906;12.81619;0.69;-1.09;0.08;-0.988721;-0.115471;0.01254;0.0;0.0;0.0;0.0;0.0;0.0
4.0;1753879335.913666;12.781569;0.59;-1.16;0.04;-0.988996;-0.115074;0.011911;0.0;0.0;0.0;0.0;0.0;0.0
4.0;1753879335.918272;12.812589;0.61;-1.15;0.15;-0.987695;-0.11264;0.010056;0.0;0.0;0.0;0.0;0.0;0.0
4.0;1753879335.922878;12.81316;0.69;-1.14;0.08;-0.988529;-0.118139;0.012889;0.0;0.0;0.0;0.0;0.0;0.0
4.0;1753879335.927484;12.777464;0.67;-1.08;-0.0;-0.988714;-0.111044;0.011113;0.0;0.0;0.0;0.0;0.0;0.0
4.0;1753879335.93209;12.767213;0.77;-1.05;0.02;-0.989692;-0.116919;0.010439;0.0;0.0;0.0;0.0;0.0;0.0
4.0;1753879335.936696;12.783128;0.6;-1.09;-0.06;-0.988986;-0.115636;0.011146;0.0;0.0;0.0;0.0;0.0;0.0
4.0;1753879335.941302;12.798246;0.71;-1.12;0.08;-0.988395;-0.116999;0.010269;0.0;0.0;0.0;0.0;0.0;0.0
4.0;1753879335.945908;12.777756;0.71;-1.06;0.04;-0.986921;-0.113795;0.011032;0.0;0.0;0.0;0.0;0.0;0.0
4.0;1753879335.950514;12.785031;0.66;-1.09;0.03;-0.988318;-0.116439;0.011322;0.0;0.0;0.0;0.0;0.0;0.0
4.0;1753879335.95512;12.794653;0.64;-1.07;0.03;-0.987826;-0.11714;0.013445;0.0;0.0;0.0;0.0;0.0;0.0
4.0;1753879335.959726;12.803703;0.69;-1.07;0.01;-0.988431;-0.117258;0.01206;0.0;0.0;0.0;0.0;0.0;0.0
4.0;1753879335.964332;12.773747;0.63;-1.08;0.05;-0.987641;-0.114327;0.011064;0.0;0.0;0.0;0.0;0.0;0.0
4.0;1753879335.968938;12.717438;0.63;-1.13;0.02;-0.987246;-0.115513;0.010753;0.0;0.0;0.0;0.0;0.0;0.0
4.0;1753879335.973544;12.769024;0.63;-0.99;-0.02;-0.988189;-0.115898;0.009926;0.0;0.0;0.0;0.0;0.0;0.0
4.0;1753879335.97815;12.768858;0.77;-1.05;-0.05;-0.987861;-0.116482;0.010594;0.0;0.0;0.0;0.0;0.0;0.0
4.0;1753879335.982756;12.747229;0.75;-1.03;-0.04;-0.988118;-0.111571;0.010258;0.0;0.0;0.0;0.0;0.0;0.0
4.0;1753879335.9904;12.777344;0.7;-1.05;0.0;-0.988322;-0.115168;0.011102;0.0;0.0;0.0;0.0;0.0;0.0
4.0;1753879335.996507;12.867188;-0.77;-1.89;-14.7;-0.753228;-0.656238;0.033428;0.0;0.0;0.0;0.0;0.0;0.0
4.0;1753879335.997503;12.867188;-0.98;-1.89;-13.65;-0.745786;-0.656116;0.022692;0.0;0.0;0.0;0.0;0.0;0.0
4.0;1753879336.002109;12.843319;-2.33;-2.43;-6.26;-0.747801;-0.666983;-0.045147;0.0;0.0;0.0;0.0;0.0;0.0
4.0;1753879336.006715;12.858795;-2.09;-2.46;-24.55;-0.744265;-0.661427;0.062202;0.0;0.0;0.0;0.0;0.0;0.0
4.0;1753879336.011321;12.922849;-0.67;-1.97;-18.2;-0.73358;-0.616497;0.052262;0.0;0.0;0.0;0.0;0.0;0.0
4.0;1753879336.015927;12.843364;-2.27;-1.57;-6.73;-0.78707;-0.671174;-0.010626;0.0;0.0;0.0;0.0;0.0;0.0
4.0;1753879336.020533;12.864614;-0.46;-1.58;-12.53;-0.714764;-0.719346;-0.015481;0.0;0.0;0.0;0.0;0.0;0.0
4.0;1753879336.025139;12.85458;-2.02;-2.03;-15.84;-0.754597;-0.589256;-0.030977;0.0;0.0;0.0;0.0;0.0;0.0
4.0;1753879336.029745;12.913468;-1.97;-2.34;-13.1;-0.723437;-0.629998;-0.019959;0.0;0.0;0.0;0.0;0.0;0.0
4.0;1753879336.034351;12.906821;-1.63;-1.99;-18.63;-0.749794;-0.674525;0.115573;0.0;0.0;0.0;0.0;0.0;0.0
4.0;1753879336.038957;12.828862;-0.88;-1.66;-14.83;-0.754307;-0.631115;-0.011004;0.0;0.0;0.0;0.0;0.0;0.0
4.0;1753879336.043563;12.844876;-0.69;-2.32;-13.48;-0.745096;-0.623108;0.009797;0.0;0.0;0.0;0.0;0.0;0.0
4.0;1753879336.048169;12.850862;-1.3;-1.87;-6.88;-0.751978;-0.632775;-0.042101;0.0;0.0;0.0;0.0;0.0;0.0
4.0;1753879336.052775;12.846122;-1.03;-1.16;-11.97;-0.767054;-0.645777;-0.037642;0.0;0.0;0.0;0.0;0.0;0.0
4.0;1753879336.057381;12.868848;-0.11;-2.21;-11.62;-0.732975;-0.661841;0.055319;0.0;0.0;0.0;0.0;0.0;0.0
4.0;1753879336.061987;12.862141;-1.47;-2.05;-8.98;-0.758404;-0.635633;0.03844;0.0;0.0;0.0;0.0;0.0;0.0
4.0;1753879336.066593;12.90091;-0.4;-1.37;-18.78;-0.765265;-0.609345;0.019278;0.0;0.0;0.0;0.0;0.0;0.0
4.0;1753879336.071199;12.848028;-0.58;-1.66;-9.45;-0.771492;-0.652603;0.069581;0.0;0.0;0.0;0.0;0.0;0.0
4.0;1753879336.075805;12.802626;-0.75;-2.47;-14.09;-0.75272;-0.616833;-0.023778;0.0;0.0;0.0;0.0;0.0;0.0
4.0;1753879336.080411;12.868062;-2.45;-1.69;-12.7;-0.723863;-0.663581;-0.045936;0.0;0.0;0.0;0.0;0.0;0.0
4.0;1753879336.085017;12.842056;-1.94;-2.49;-9.44;-0.766629;-0.673695;0.039746;0.0;0.0;0.0;0.0;0.0;0.0
4.0;1753879336.089623;12.856513;-2.71;-1.79;-27.26;-0.75229;-0.694759;-0.055561;0.0;0.0;0.0;0.0;0.0;0.0
4.0;1753879336.094229;12.852193;0.59;-2.23;-14.93;-0.775897;-0.609632;-0.006979;0.0;0.0;0.0;0.0;0.0;0.0
4.0;1753879336.098835;12.865223;-1.3;-1.93;-16.41;-0.763625;-0.604281;0.030194;0.0;0.0;0.0;0.0;0.0;0.0
4.0;1753879336.103441;12.889052;0.22;-2.03;-14.04;-0.776946;-0.627268;0.063798;0.0;0.0;0.0;0.0;0.0;0.0
4.0;1753879336.108047;12.887589;0.71;-1.37;-25.49;-0.744076;-0.616633;-0.010168;0.0;0.0;0.0;0.0;0.0;0.0
4.0;1753879336.112653;12.859159;-0.72;-1.84;-17.26;-0.770952;-0.631764;-0.008008;0.0;0.0;0.0;0.0;0.0;0.0
4.0;1753879336.117259;12.835854;-0.21;-1.6;-15.15;-0.748822;-0.615925;0.053298;0.0;0.0;0.0;0.0;0.0;0.0
4.0;1753879336.121865;12.883814;-1.67;-1.73;-12.61;-0.753899;-0.63951;0.065462;0.0;0.0;0.0;0.0;0.0;0.0
4.0;1753879336.126471;12.90066;0.9;-2.67;-10.87;-0.781185;-0.589776;0.011853;0.0;0.0;0.0;0.0;0.0;0.0
4.0;1753879336.131077;12.893147;1.85;-2.44;-25.76;-0.804407;-0.64025;0.046754;0.0;0.0;0.0;0.0;0.0;0.0
4.0;1753879336.135683;12.802657;-0.24;-2.12;-19.66;-0.779221;-0.670388;-0.010109;0.0;0.0;0.0;0.0;0.0;0.0
4.0;1753879336.140289;12.837241;-1.91;-2.23;-13.33;-0.767499;-0.63418;0.021508;0.0;0.0;0.0;0.0;0.0;0.0
4.0;1753879336.144895;12.82975;-1.04;-0.51;-16.24;-0.727215;-0.659485;0.00644;0.0;0.0;0.0;0.0;0.0;0.0
4.0;1753879336.149501;12.817389;-1.42;-2.04;-15.02;-0.757958;-0.711263;-0.039243;0.0;0.0;0.0;0.0;0.0;0.0
4.0;1753879336.154107;12.855523;-2.2;-1.26;-13.02;-0.750874;-0.704712;0.067751;0.0;0.0;0.0;0.0;0.0;0.0
4.0;1753879336.158713;12.848017;-0.57;-1.96;-13.98;-0.747604;-0.658121;0.07051;0.0;0.0;0.0;0.0;0.0;0.0
4.0;1753879336.163319;12.86714;-0.66;-2.83;-22.3;-0.777713;-0.643965;0.023261;0.0;0.0;0.0;0.0;0.0;0.0
4.0;1753879336.167925;12.852401;-0.46;-2.1;-6.36;-0.760754;-0.598709;0.077654;0.0;0.0;0.0;0.0;0.0;0.0
4.0;1753879336.172531;12.794404;-1.73;-1.49;-18.89;-0.773795;-0.648504;0.071465;0.0;0.0;0.0;0.0;0.0;0.0
4.0;1753879336.177137;12.838396;-0.08;-2.29;-13.45;-0.764022;-0.625372;0.082029;0.0;0.0;0.0;0.0;0.0;0.0
4.0;1753879336.181744;12.835662;-1.42;-2.14;-22.01;-0.748141;-0.630855;-0.059786;0.0;0.0;0.0;0.0;0.0;0.0
4.0;1753879336.18635;12.84071;-1.73;-1.46;-8.44;-0.781709;-0.641044;-0.030213;0.0;0.0;0.0;0.0;0.0;0.0
4.0;1753879336.190956;12.86396;-1.25;-2.01;-5.55;-0.767594;-0.683294;-0.011882;0.0;0.0;0.0;0.0;0.0;0.0
4.0;1753879336.195562;12.851739;-0.05;-2.5;-13.28;-0.789582;-0.641738;0.009284;0.0;0.0;0.0;0.0;0.0;0.0
4.0;1753879336.200168;12.851083;-1.2;-1.55;-8.03;-0.756262;-0.644681;-0.007068;0.0;0.0;0.0;0.0;0.0;0.0
4.0;1753879336.204774;12.854082;-1.4;-2.18;-12.27;-0.734137;-0.612125;0.038565;0.0;0.0;0.0;0.0;0.0;0.0
4.0;1753879336.20938;12.858557;-1.81;-2.03;-17.75;-0.773453;-0.62049;-0.014667;0.0;0.0;0.0;0.0;0.0;0.0
4.0;1753879336.213986;12.860941;-2.95;-1.2;-6.48;-0.777071;-0.633936;0.052887;0.0;0.0;0.0;0.0;0.0;0.0
4.0;1753879336.218592;12.869934;-0.77;-2.09;-13.05;-0.760082;-0.600004;0.068835;0.0;0.0;0.0;0.0;0.0;0.0
4.0;1753879336.223198;12.87381;-1.25;-1.1;-8.48;-0.763279;-0.650741;0.026227;0.0;0.0;0.0;0.0;0.0;0.0
4.0;1753879336.227804;12.859979;1.36;-1.12;-18.84;-0.786991;-0.640322;0.024137;0.0;0.0;0.0;0.0;0.0;0.0
4.0;1753879336.23241;12.861706;-0.16;-2.23;-21.99;-0.730112;-0.574054;-0.026485;0.0;0.0;0.0;0.0;0.0;0.0
4.0;1753879336.237016;12.864514;-0.57;-2.21;-15.22;-0.761375;-0.673877;0.011273;0.0;0.0;0.0;0.0;0.0;0.0
4.0;1753879336.241622;12.819987;-0.09;-1.59;-5.09;-0.761717;-0.668714;0.03051;0.0;0.0;0.0;0.0;0.0;0.0
4.0;1753879336.246228;12.855485;-1.89;-2.13;-22.73;-0.769757;-0.611926;-0.023103;0.0;0.0;0.0;0.0;0.0;0.0
4.0;1753879336.250834;12.837962;0.99;-1.67;-5.1;-0.773488;-0.580943;0.037717;0.0;0.0;0.0;0.0;0.0;0.0
4.0;1753879336.25544;12.837014;-0.53;-1.2;-16.51;-0.778977;-0.615756;0.009766;0.0;0.0;0.0;0.0;0.0;0.0
4.0;1753879336.260046;12.812186;-0.47;-1.42;-19.37;-0.770602;-0.635911;-0.023021;0.0;0.0;0.0;0.0;0.0;0.0
4.0;1753879336.264652;12.80242;-0.57;-1.97;-10.28;-0.803416;-0.630995;-0.081188;0.0;0.0;0.0;0.0;0.0;0.0
4.0;1753879336.269258;12.814276;-2.86;-1.51;-14.6;-0.766797;-0.599789;0.075197;0.0;0.0;0.0;0.0;0.0;0.0
4.0;1753879336.273864;12.814729;-1.68;-2.33;-19.35;-0.766206;-0.650372;0.016482;0.0;0.0;0.0;0.0;0.0;0.0
4.0;1753879336.27847;12.864609;-1.92;-2.52;-18.13;-0.736339;-0.597443;-0.045956;0.0;0.0;0.0;0.0;0.0;0.0
4.0;1753879336.283076;12.840897;-2.37;-1.2;-17.3;-0.788507;-0.605499;-0.013923;0.0;0.0;0.0;0.0;0.0;0.0
4.0;1753879336.287682;12.832051;-0.43;-1.51;-20.17;-0.787309;-0.595168;-0.013947;0.0;0.0;0.0;0.0;0.0;0.0
4.0;1753879336.292288;12.854778;-1.99;-1.7;-17.45;-0.800816;-0.509983;-0.046322;0.0;0.0;0.0;0.0;0.0;0.0
4.0;1753879336.296894;12.83627;0.81;-0.87;-1.7;-0.812425;-0.589378;-0.00931;0.0;0.0;0.0;0.0;0.0;0.0
4.0;1753879336.3015;12.839646;-0.97;-2.17;-20.39;-0.786328;-0.594782;-0.009598;0.0;0.0;0.0;0.0;0.0;0.0
4.0;1753879336.306106;12.832257;-2.41;-1.91;-8.22;-0.780114;-0.59699;0.017378;0.0;0.0;0.0;0.0;0.0;0.0
4.0;1753879336.310712;12.897083;-2.25;-2.22;-9.3;-0.780213;-0.567321;0.0001;0.0;0.0;0.0;0.0;0.0;0.0
4.0;1753879336.315318;12.852591;-0.78;-2.27;-13.95;-0.800974;-0.599306;0.014354;0.0;0.0;0.0;0.0;0.0;0.0
4.0;1753879336.3235;12.835938;-1.26;-1.96;-13.23;-0.787632;-0.614026;0.005124;0.0;0.0;0.0;0.0;0.0;0.0
4.0;1753879336.328106;12.854087;-1.08;-1.88;-11.22;-0.780592;-0.628731;-0.051298;0.0;0.0;0.0;0.0;0.0;0.0
4.0;1753879336.332712;12.80698;-0.66;-2.92;-15.51;-0.776587;-0.571436;-0.013716;0.0;0.0;0.0;0.0;0.0;0.0
4.0;1753879336.337318;12.878402;-0.79;-3.04;-8.21;-0.766034;-0.597217;0.022204;0.0;0.0;0.0;0.0;0.0;0.0
4.0;1753879336.341924;12.783055;-1.03;-1.89;-10.47;-0.809557;-0.579314;-0.003555;0.0;0.0;0.0;0.0;0.0;0.0
4.0;1753879336.34653;12.818534;-2.33;-2.52;-9.06;-0.802772;-0.657898;0.016807;0.0;0.0;0.0;0.0;0.0;0.0
4.0;1753879336.351136;12.858773;-0.63;-1.35;-24.33;-0.827948;-0.622734;0.046976;0.0;0.0;0.0;0.0;0.0;0.0
4.0;1753879336.355742;12.799684;0.05;-1.87;-14.71;-0.822026;-0.608054;0.007507;0.0;0.0;0.0;0.0;0.0;0.0
4.0;1753879336.360348;12.888064;-0.87;-2.24;-18.8;-0.829914;-0.602299;-0.098912;0.0;0.0;0.0;0.0;0.0;0.0
4.0;1753879336.364954;12.821907;-1.38;-1.63;-16.23;-0.785519;-0.580189;-0.0052;0.0;0.0;0.0;0.0;0.0;0.0
4.0;1753879336.36956;12.870366;-0.94;-1.64;-18.42;-0.796601;-0.575891;9e-05;0.0;0.0;0.0;0.0;0.0;0.0
4.0;1753879336.374166;12.816719;-1.85;-2.24;-15.39;-0.811902;-0.660902;0.037296;0.0;0.0;0.0;0.0;0.0;0.0
4.0;1753879336.378772;12.803139;-2.76;-2.27;-12.27;-0.778677;-0.483057;-0.017971;0.0;0.0;0.0;0.0;0.0;0.0
4.0;1753879336.383378;12.85655;-0.93;-1.74;-18.79;-0.786697;-0.603209;-0.009228;0.0;0.0;0.0;0.0;0.0;0.0
4.0;1753879336.387984;12.834788;-1.82;-2.32;-18.97;-0.812283;-0.583569;-0.016677;0.0;0.0;0.0;0.0;0.0;0.0
4.0;1753879336.39259;12.846583;-0.13;-2.07;-17.68;-0.797023;-0.619882;0.047972;0.0;0.0;0.0;0.0;0.0;0.0
4.0;1753879336.397196;12.795789;-0.75;-2.13;-16.22;-0.820731;-0.520084;-0.027129;0.0;0.0;0.0;0.0;0.0;0.0
4.0;1753879336.401802;12.83905;-1.58;-0.92;-15.83;-0.827372;-0.572032;-0.031111;0.0;0.0;0.0;0.0;0.0;0.0
4.0;1753879336.406408;12.85858;-0.71;-2.62;-12.08;-0.806814;-0.439511;0.07312;0.0;0.0;0.0;0.0;0.0;0.0
4.0;1753879336.411014;12.82534;-1.36;-1.22;-11.87;-0.764192;-0.609971;0.023922;0.0;0.0;0.0;0.0;0.0;0.0
4.0;1753879336.41562;12.869129;-0.07;-1.25;-12.08;-0.776264;-0.524591;0.018361;0.0;0.0;0.0;0.0;0.0;0.0
4.0;1753879336.420226;12.845072;-1.58;-1.78;-10.46;-0.809545;-0.531776;0.032144;0.0;0.0;0.0;0.0;0.0;0.0
4.0;1753879336.424832;12.832178;-0.88;-1.18;-19.28;-0.866359;-0.597758;0.001416;0.0;0.0;0.0;0.0;0.0;0.0
4.0;1753879336.429438;12.858121;-1.22;-1.8;-18.49;-0.807942;-0.528504;0.004178;0.0;0.0;0.0;0.0;0.0;0.0
4.0;1753879336.434044;12.847204;-0.79;-1.57;-18.84;-0.80966;-0.594618;-0.02417;0.0;0.0;0.0;0.0;0.0;0.0
4.0;1753879336.43865;12.847558;-0.89;-0.92;-12.91;-0.845188;-0.57474;-0.052161;0.0;0.0;0.0;0.0;0.0;0.0
4.0;1753879336.443256;12.825214;-1.55;-1.85;-14.85;-0.821891;-0.460285;-0.010288;0.0;0.0;0.0;0.0;0.0;0.0
4.0;1753879336.447862;12.822343;-0.32;-0.64;-13.03;-0.801411;-0.51306;-0.011429;0.0;0.0;0.0;0.0;0.0;0.0
4.0;1753879336.452468;12.838398;-0.15;-0.93;-8.56;-0.816749;-0.608178;-0.021225;0.0;0.0;0.0;0.0;0.0;0.0
4.0;1753879336.457074;12.842892;-1.4;-1.2;-19.64;-0.877657;-0.530896;-0.044629;0.0;0.0;0.0;0.0;0.0;0.0
4.0;1753879336.46168;12.843595;0.34;-1.19;-14.31;-0.876168;-0.674623;-0.031475;0.0;0.0;0.0;0.0;0.0;0.0
4.0;1753879336.466286;12.818315;-0.58;-1.66;-20.05;-0.801221;-0.494135;0.020501;0.0;0.0;0.0;0.0;0.0;0.0
4.0;1753879336.470892;12.832678;-0.8;-1.74;-16.63;-0.762439;-0.512166;0.029776;0.0;0.0;0.0;0.0;0.0;0.0
4.0;1753879336.475498;12.827498;0.04;-1.35;-14.31;-0.849171;-0.552734;0.013117;0.0;0.0;0.0;0.0;0.0;0.0
4.0;1753879336.480104;12.859536;1.66;-1.46;-16.54;-0.80984;-0.571101;0.034306;0.0;0.0;0.0;0.0;0.0;0.0
4.0;1753879336.48471;12.83231;0.17;-1.39;-15.57;-0.830469;-0.508929;0.061728;0.0;0.0;0.0;0.0;0.0;0.0
4.0;1753879336.489316;12.811074;-0.44;-1.99;-15.32;-0.841869;-0.596366;-0.012361;0.0;0.0;0.0;0.0;0.0;0.0
4.0;1753879336.493922;12.850767;-0.55;-1.18;-12.55;-0.829253;-0.600822;-0.051294;0.0;0.0;0.0;0.0;0.0;0.0
4.0;1753879336.498528;12.825154;0.55;-1.56;-18.26;-0.843918;-0.420408;0.030632;0.0;0.0;0.0;0.0;0.0;0.0
4.0;1753879336.503134;12.841731;-0.64;-1.11;-9.69;-0.859003;-0.580217;-0.013975;0.0;0.0;0.0;0.0;0.0;0.0
4.0;1753879336.50774;12.877339;1.15;-1.54;-19.55;-0.862835;-0.471773;0.004167;0.0;0.0;0.0;0.0;0.0;0.0
4.0;1753879336.512346;12.847045;0.15;-1.62;-11.83;-0.809651;-0.422726;-0.052056;0.0;0.0;0.0;0.0;0.0;0.0
4.0;1753879336.516952;12.809761;0.22;-0.74;-17.48;-0.812827;-0.500144;0.031926;0.0;0.0;0.0;0.0;0.0;0.0
4.0;1753879336.521558;12.879128;0.57;-1.27;-12.03;-0.841304;-0.479546;0.075809;0.0;0.0;0.0;0.0;0.0;0.0
4.0;1753879336.526164;12.822548;0.37;-1.09;-17.79;-0.808584;-0.582527;0.071798;0.0;0.0;0.0;0.0;0.0;0.0
4.0;1753879336.53077;12.808633;-0.38;-1.4;-9.98;-0.853796;-0.450486;-0.025947;0.0;0.0;0.0;0.0;0.0;0.0
4.0;1753879336.535376;12.856261;-0.05;-1.01;-14.93;-0.861824;-0.453001;0.02904;0.0;0.0;0.0;0.0;0.0;0.0
4.0;1753879336.539982;12.814102;-1.3;-0.59;-20.52;-0.889465;-0.476103;-0.058431;0.0;0.0;0.0;0.0;0.0;0.0
4.0;1753879336.544588;12.817495;-0.0;-1.34;-19.18;-0.810468;-0.595315;-0.037069;0.0;0.0;0.0;0.0;0.0;0.0
4.0;1753879336.549194;12.830603;0.91;-1.43;-19.3;-0.819306;-0.452573;-0.047791;0.0;0.0;0.0;0.0;0.0;0.0
4.0;1753879336.5538;12.861366;0.04;-1.75;-7.8;-0.871824;-0.468477;-0.023932;0.0;0.0;0.0;0.0;0.0;0.0
4.0;1753879336.558406;12.840384;1.73;-1.77;-5.15;-0.859001;-0.453163;-0.012653;0.0;0.0;0.0;0.0;0.0;0.0
4.0;1753879336.563012;12.867355;0.93;-0.32;-19.11;-0.861783;-0.517317;-0.055246;0.0;0.0;0.0;0.0;0.0;0.0
4.0;1753879336.567618;12.79238;1.15;-0.72;-8.85;-0.899097;-0.517828;-0.02158;0.0;0.0;0.0;0.0;0.0;0.0
4.0;1753879336.572224;12.857328;-0.82;-0.79;-17.9;-0.88841;-0.477731;-0.006231;0.0;0.0;0.0;0.0;0.0;0.0
4.0;1753879336.57683;12.807514;-0.43;-0.81;-29.17;-0.84982;-0.533721;0.04369;0.0;0.0;0.0;0.0;0.0;0.0
4.0;1753879336.581436;12.822892;1.46;-1.29;-15.96;-0.843745;-0.365358;0.109737;0.0;0.0;0.0;0.0;0.0;0.0
4.0;1753879336.586042;12.914241;1.81;-1.65;-11.95;-0.837604;-0.47098;-0.003789;0.0;0.0;0.0;0.0;0.0;0.0
4.0;1753879336.590648;12.802962;1.92;-1.02;-9.51;-0.879138;-0.490233;-0.036743;0.0;0.0;0.0;0.0;0.0;0.0
4.0;1753879336.595254;12.822557;0.97;-0.61;-21.41;-0.83509;-0.496477;-0.046612;0.0;0.0;0.0;0.0;0.0;0.0
4.0;1753879336.59986;12.832519;1.15;-0.96;-14.04;-0.892837;-0.481053;-0.003941;0.0;0.0;0.0;0.0;0.0;0.0
4.0;1753879336.604466;12.890925;0.45;-1.38;-9.52;-0.82651;-0.448836;0.025407;0.0;0.0;0.0;0.0;0.0;0.0
4.0;1753879336.609072;12.855692;-0.23;-0.78;-21.95;-0.862947;-0.484561;-0.014189;0.0;0.0;0.0;0.0;0.0;0.0
4.0;1753879336.613678;12.835787;-1.46;-2.0;-15.72;-0.865626;-0.57661;0.027417;0.0;0.0;0.0;0.0;0.0;0.0
4.0;1753879336.618284;12.828171;0.6;-0.64;-9.93;-0.894953;-0.411916;-0.008039;0.0;0.0;0.0;0.0;0.0;0.0
4.0;1753879336.62289;12.820633;0.79;-1.01;-8.46;-0.827733;-0.482251;-0.015556;0.0;0.0;0.0;0.0;0.0;0.0
4.0;1753879336.627496;12.83515;1.56;-0.18;-25.54;-0.842721;-0.479471;-0.057917;0.0;0.0;0.0;0.0;0.0;0.0
4.0;1753879336.632102;12.884178;2.32;-1.19;-10.06;-0.833455;-0.44995;0.038306;0.0;0.0;0.0;0.0;0.0;0.0
4.0;1753879336.636708;12.854443;0.97;-1.16;-12.96;-0.865927;-0.592391;-0.009919;0.0;0.0;0.0;0.0;0.0;0.0
4.0;1753879336.641314;12.873916;1.67;0.07;-13.25;-0.826676;-0.493013;-0.018315;0.0;0.0;0.0;0.0;0.0;0.0
4.0;1753879336.64592;12.846275;0.72;-1.05;-10.83;-0.921161;-0.375044;-0.060579;0.0;0.0;0.0;0.0;0.0;0.0
4.0;1753879336.6536;12.835938;0.98;-0.7;-15.12;-0.859124;-0.454084;-0.009272;0.0;0.0;0.0;0.0;0.0;0.0
4.0;1753879336.66069;12.875;1.33;0.7;-43.19;-0.73932;-0.657336;-0.020984;0.0;0.0;0.0;0.0;0.0;0.0
4.0;1753879336.665296;12.790673;2.08;0.59;-40.27;-0.649238;-0.60103;-0.031019;0.0;0.0;0.0;0.0;0.0;0.0
4.0;1753879336.669902;12.857436;2.4;1.42;-46.05;-0.688663;-0.745603;-0.022391;0.0;0.0;0.0;0.0;0.0;0.0
4.0;1753879336.674508;12.914707;2.82;0.31;-53.86;-0.719134;-0.666884;0.031145;0.0;0.0;0.0;0.0;0.0;0.0
4.0;1753879336.679114;12.874258;1.64;1.06;-40.02;-0.690755;-0.652011;-0.062302;0.0;0.0;0.0;0.0;0.0;0.0
4.0;1753879336.68372;12.899964;1.56;1.18;-37.39;-0.778326;-0.674266;-0.004048;0.0;0.0;0.0;0.0;0.0;0.0
4.0;1753879336.688326;12.935744;-0.38;0.18;-42.04;-0.795184;-0.56854;-0.038969;0.0;0.0;0.0;0.0;0.0;0.0
4.0;1753879336.692932;12.848011;1.25;-1.17;-32.58;-0.78964;-0.689424;0.03698;0.0;0.0;0.0;0.0;0.0;0.0
4.0;1753879336.697538;12.848329;1.57;0.82;-49.3;-0.746726;-0.670825;-0.043095;0.0;0.0;0.0;0.0;0.0;0.0
4.0;1753879336.702144;12.865773;2.15;0.24;-47.37;-0.752873;-0.701382;-0.008403;0.0;0.0;0.0;0.0;0.0;0.0
4.0;1753879336.70675;12.766114;1.21;1.45;-49.2;-0.777181;-0.665886;-0.073513;0.0;0.0;0.0;0.0;0.0;0.0
4.0;1753879336.711356;12.860681;2.12;0.83;-48.95;-0.76254;-0.60745;-0.027352;0.0;0.0;0.0;0.0;0.0;0.0
4.0;1753879336.715962;12.873138;3.84;2.04;-42.04;-0.790473;-0.713901;-0.047682;0.0;0.0;0.0;0.0;0.0;0.0
4.0;1753879336.720568;12.869633;0.8;1.78;-55.23;-0.814669;-0.618601;0.01201;0.0;0.0;0.0;0.0;0.0;0.0
4.0;1753879336.725174;12.869508;1.65;-0.3;-44.94;-0.7829;-0.630661;0.035538;0.0;0.0;0.0;0.0;0.0;0.0
4.0;1753879336.72978;12.923643;-0.31;-2.23;-46.03;-0.785975;-0.707086;-0.006283;0.0;0.0;0.0;0.0;0.0;0.0
4.0;1753879336.73761;12.875;1.33;0.91;-45.5;-0.814106;-0.620736;-0.015006;0.0;0.0;0.0;0.0;0.0;0.0
4.0;1753879336.742216;12.888606;1.4;2.16;-37.88;-0.764154;-0.616496;0.029322;0.0;0.0;0.0;0.0;0.0;0.0
4.0;1753879336.74739;12.851562;1.4;1.33;-47.39;-0.70272;-0.666486;0.000854;0.0;0.0;0.0;0.0;0.0;0.0
4.0;1753879336.751996;12.887267;3.67;-0.9;-45.25;-0.669882;-0.69755;-0.009223;0.0;0.0;0.0;0.0;0.0;0.0
4.0;1753879336.756602;12.853579;2.39;-1.37;-54.28;-0.684456;-0.666463;-0.051836;0.0;0.0;0.0;0.0;0.0;0.0
4.0;1753879336.761208;12.878326;0.94;2.65;-41.18;-0.744265;-0.643747;-0.011288;0.0;0.0;0.0;0.0;0.0;0.0
4.0;1753879336.765814;12.824989;2.58;0.46;-48.89;-0.743526;-0.668986;0.017775;0.0;0.0;0.0;0.0;0.0;0.0
4.0;1753879336.77042;12.902282;-0.22;2.64;-62.49;-0.76633;-0.671442;-0.038971;0.0;0.0;0.0;0.0;0.0;0.0
4.0;1753879336.775026;12.89411;0.88;-0.03;-46.79;-0.794898;-0.588999;-0.005749;0.0;0.0;0.0;0.0;0.0;0.0
4.0;1753879336.779632;12.860712;2.08;1.89;-47.09;-0.71901;-0.578894;0.001218;0.0;0.0;0.0;0.0;0.0;0.0
4.0;1753879336.784238;12.83366;2.16;0.34;-42.35;-0.690954;-0.609753;-0.030287;0.0;0.0;0.0;0.0;0.0;0.0
4.0;1753879336.788844;12.854211;1.01;1.59;-44.2;-0.742829;-0.59354;0.017599;0.0;0.0;0.0;0.0;0.0;0.0
4.0;1753879336.79363;12.851562;1.26;0.7;-46.76;-0.784094;-0.613538;-0.027572;0.0;0.0;0.0;0.0;0.0;0.0
4.0;1753879336.798236;12.869944;2.4;1.61;-40.66;-0.810337;-0.566474;-0.028214;0.0;0.0;0.0;0.0;0.0;0.0
4.0;1753879336.802842;12.821069;2.11;-1.02;-56.96;-0.721997;-0.732081;-0.028788;0.0;0.0;0.0;0.0;0.0;0.0
4.0;1753879336.807448;12.809577;2.49;2.76;-43.37;-0.798225;-0.567119;-0.025764;0.0;0.0;0.0;0.0;0.0;0.0
4.0;1753879336.812054;12.909046;-0.03;0.75;-65.23;-0.740796;-0.602839;-0.017016;0.0;0.0;0.0;0.0;0.0;0.0
4.0;1753879336.81666;12.79911;0.17;2.31;-31.45;-0.702735;-0.63329;-0.05038;0.0;0.0;0.0;0.0;0.0;0.0
4.0;1753879336.821266;12.856271;-0.23;1.58;-47.75;-0.808604;-0.574408;-0.002808;0.0;0.0;0.0;0.0;0.0;0.0
4.0;1753879336.825872;12.833425;1.16;0.06;-38.23;-0.733866;-0.718509;0.037464;0.0;0.0;0.0;0.0;0.0;0.0
4.0;1753879336.830478;12.892384;1.83;0.49;-53.38;-0.753889;-0.619767;-0.01545;0.0;0.0;0.0;0.0;0.0;0.0
4.0;1753879336.835084;12.820173;1.96;-0.36;-70.8;-0.863749;-0.603544;0.016287;0.0;0.0;0.0;0.0;0.0;0.0
4.0;1753879336.83969;12.894846;3.68;-1.37;-35.57;-0.808609;-0.648809;-0.008875;0.0;0.0;0.0;0.0;0.0;0.0
4.0;1753879336.844296;12.861018;1.64;1.28;-53.55;-0.786545;-0.590091;-0.016866;0.0;0.0;0.0;0.0;0.0;0.0
4.0;1753879336.848902;12.861962;2.88;0.68;-57.0;-0.729248;-0.533579;0.032915;0.0;0.0;0.0;0.0;0.0;0.0
4.0;1753879336.853508;12.835836;2.88;2.27;-31.89;-0.784485;-0.624068;0.022656;0.0;0.0;0.0;0.0;0.0;0.0
4.0;1753879336.858114;12.867617;2.48;0.12;-35.72;-0.70426;-0.690103;0.003901;0.0;0.0;0.0;0.0;0.0;0.0
4.0;1753879336.86272;12.845166;1.95;1.24;-22.13;-0.745614;-0.564324;-0.02368;0.0;0.0;0.0;0.0;0.0;0.0
4.0;1753879336.867326;12.881056;1.24;0.49;-69.2;-0.724675;-0.708044;0.027842;0.0;0.0;0.0;0.0;0.0;0.0
4.0;1753879336.871932;12.842609;0.37;0.6;-53.12;-0.784171;-0.655731;0.018229;0.0;0.0;0.0;0.0;0.0;0.0
4.0;1753879336.876538;12.882707;2.73;0.96;-43.69;-0.714973;-0.579648;0.043099;0.0;0.0;0.0;0.0;0.0;0.0
4.0;1753879336.881144;12.879312;0.44;2.1;-30.01;-0.763456;-0.62397;0.027745;0.0;0.0;0.0;0.0;0.0;0.0
4.0;1753879336.88575;12.888786;0.4;0.09;-50.89;-0.729396;-0.667743;0.020485;0.0;0.0;0.0;0.0;0.0;0.0
4.0;1753879336.89047;12.851562;1.61;0.56;-48.79;-0.728706;-0.644648;0.01037;0.0;0.0;0.0;0.0;0.0;0.0
4.0;1753879336.895076;12.827125;0.8;0.2;-21.65;-0.706396;-0.675855;0.041418;0.0;0.0;0.0;0.0;0.0;0.0
4.0;1753879336.899682;12.836884;0.93;0.28;-28.32;-0.755618;-0.593234;0.033427;0.0;0.0;0.0;0.0;0.0;0.0
4.0;1753879336.904288;12.866889;1.77;0.61;-26.81;-0.684569;-0.68312;-0.018444;0.0;0.0;0.0;0.0;0.0;0.0
4.0;1753879336.908894;12.859344;2.36;0.01;-30.32;-0.708601;-0.605072;0.008424;0.0;0.0;0.0;0.0;0.0;0.0
4.0;1753879336.9135;12.846496;2.03;1.17;-52.56;-0.756305;-0.691966;0.044678;0.0;0.0;0.0;0.0;0.0;0.0
4.0;1753879336.918106;12.833531;3.18;-0.24;-35.16;-0.73988;-0.571749;0.027238;0.0;0.0;0.0;0.0;0.0;0.0
4.0;1753879336.922712;12.86323;1.99;2.53;-62.65;-0.718912;-0.649332;-0.008454;0.0;0.0;0.0;0.0;0.0;0.0
4.0;1753879336.927318;12.810969;3.16;-0.09;-66.4;-0.809153;-0.672641;-0.000573;0.0;0.0;0.0;0.0;0.0;0.0
4.0;1753879336.931924;12.825231;1.49;1.26;-43.98;-0.706117;-0.614496;0.00208;0.0;0.0;0.0;0.0;0.0;0.0
4.0;1753879336.93653;12.818762;2.49;0.6;-49.08;-0.662776;-0.667322;-0.033687;0.0;0.0;0.0;0.0;0.0;0.0
4.0;1753879336.941136;12.850236;2.26;-0.01;-48.29;-0.784205;-0.718828;0.010401;0.0;0.0;0.0;0.0;0.0;0.0
4.0;1753879336.94656;12.867188;1.75;0.7;-49.42;-0.752496;-0.666608;0.001708;0.0;0.0;0.0;0.0;0.0;0.0
4.0;1753879336.951166;12.818102;1.37;1.09;-37.71;-0.701664;-0.609082;0.023853;0.0;0.0;0.0;0.0;0.0;0.0
4.0;1753879336.955772;12.847659;2.01;0.6;-52.35;-0.638911;-0.599086;0.029289;0.0;0.0;0.0;0.0;0.0;0.0
4.0;1753879336.960378;12.833474;2.02;0.57;-54.04;-0.71514;-0.649076;-0.003318;0.0;0.0;0.0;0.0;0.0;0.0
4.0;1753879336.964984;12.84898;2.44;-0.85;-61.82;-0.673317;-0.670206;-0.0227;0.0;0.0;0.0;0.0;0.0;0.0
4.0;1753879336.96959;12.881263;1.14;-0.2;-59.15;-0.722607;-0.655108;0.03107;0.0;0.0;0.0;0.0;0.0;0.0
4.0;1753879336.97513;12.867188;1.61;1.05;-50.96;-0.744932;-0.665388;0.009028;0.0;0.0;0.0;0.0;0.0;0.0
4.0;1753879336.977622;12.898438;1.05;0.91;-130.2;0.339648;-0.949648;0.052826;133.0;0.0;0.0;2.0;0.0;0.0
4.0;1753879336.980336;12.898438;0.7;1.4;-128.03;0.418582;-0.871446;-0.016226;133.0;0.0;0.0;2.0;0.0;0.0
4.0;1753879336.984988;12.875;0.56;1.05;-126.21;0.42212;-0.914024;0.05124;133.0;0.0;0.0;2.0;0.0;0.0
4.0;1753879336.990345;12.875;0.14;0.56;-123.83;0.463722;-0.894382;0.024278;133.0;0.0;0.0;2.0;0.0;0.0
4.0;1753879336.994005;12.875;0.49;0.21;-119.84;0.4514;-0.87901;0.022448;133.0;0.0;0.0;2.0;0.0;0.0
4.0;1753879336.998553;12.875;0.63;-0.28;-116.9;0.451278;-0.968192;0.016836;133.0;0.0;0.0;2.0;0.0;0.0
4.0;1753879337.003159;12.877443;1.2;-0.09;-105.08;0.668354;-0.960944;-0.004122;128.8;0.0;0.0;1.3;0.0;0.0
4.0;1753879337.007765;12.87761;2.73;-1.69;-118.45;0.703126;-1.026681;0.011662;122.9;0.0;0.0;1.9;0.0;0.0
4.0;1753879337.012371;12.875352;-0.28;-1.28;-106.21;0.58663;-1.034144;-0.016262;132.0;0.0;0.0;2.7;0.0;0.0
4.0;1753879337.016977;12.863792;0.99;0.49;-104.97;0.573689;-0.928707;0.083383;138.4;0.0;0.0;1.8;0.0;0.0
4.0;1753879337.021583;12.874694;1.7;1.45;-127.27;0.471593;-0.894297;0.031159;137.5;0.0;0.0;2.7;0.0;0.0
4.0;1753879337.026189;12.892968;0.96;0.11;-102.08;0.592167;-0.983668;-0.014117;133.9;0.0;0.0;2.9;0.0;0.0
4.0;1753879337.030795;12.883381;1.99;1.75;-134.4;0.441354;-0.839404;0.005173;133.1;0.0;0.0;3.3;0.0;0.0
4.0;1753879337.035401;12.88571;0.04;-0.63;-91.3;0.569353;-0.898481;-0.002787;135.6;0.0;0.0;3.0;0.0;0.0
4.0;1753879337.040007;12.880573;-0.87;2.5;-111.22;0.271732;-0.973432;-0.022534;147.8;0.0;0.0;1.9;0.0;0.0
4.0;1753879337.044613;12.88216;0.92;-0.53;-141.62;0.754856;-0.830147;-0.024467;142.5;0.0;0.0;3.1;0.0;0.0
4.0;1753879337.049219;12.878142;-1.44;-2.09;-120.4;0.288875;-0.919448;0.036677;134.6;0.0;0.0;0.9;0.0;0.0
4.0;1753879337.053825;12.877767;0.89;-0.55;-125.9;0.082472;-0.961302;0.021071;134.4;0.0;0.0;1.1;0.0;0.0
4.0;1753879337.058431;12.881757;0.02;0.38;-119.67;0.445282;-1.071359;-0.01271;138.2;0.0;0.0;3.3;0.0;0.0
4.0;1753879337.063037;12.877248;-1.87;-1.07;-105.16;0.653505;-0.917567;0.090959;133.9;0.0;0.0;3.0;0.0;0.0
4.0;1753879337.067643;12.898029;1.5;0.35;-111.91;0.354094;-1.003158;0.054716;121.9;0.0;0.0;1.5;0.0;0.0
4.0;1753879337.072249;12.887516;-1.26;-1.61;-119.96;0.2147;-0.97879;0.035297;139.5;0.0;0.0;1.4;0.0;0.0
4.0;1753879337.076855;12.868493;0.17;3.45;-118.93;0.807101;-1.062597;-0.090339;130.5;0.0;0.0;1.7;0.0;0.0
4.0;1753879337.081461;12.878726;1.64;1.31;-103.89;0.602375;-0.964238;0.069199;126.4;0.0;0.0;1.4;0.0;0.0
4.0;1753879337.086067;12.876568;0.4;-0.7;-117.01;0.790409;-0.955343;0.022383;137.2;0.0;0.0;4.1;0.0;0.0
4.0;1753879337.090673;12.883168;1.2;1.28;-96.1;0.441695;-0.968575;0.046027;130.5;0.0;0.0;4.0;0.0;0.0
4.0;1753879337.095279;12.8852;1.17;-0.65;-100.58;0.471284;-0.914656;0.03196;135.1;0.0;0.0;2.4;0.0;0.0
4.0;1753879337.099885;12.89079;0.39;-0.82;-108.95;0.298689;-1.049326;0.003351;136.2;0.0;0.0;2.2;0.0;0.0
4.0;1753879337.104491;12.88182;0.38;2.07;-123.12;0.635793;-0.988996;0.045299;141.2;0.0;0.0;-0.4;0.0;0.0
4.0;1753879337.109097;12.897845;2.03;-1.13;-144.88;0.871604;-1.001436;0.036032;143.1;0.0;0.0;1.7;0.0;0.0
4.0;1753879337.113703;12.902491;-0.25;0.45;-98.43;0.549366;-0.97763;0.052202;135.9;0.0;0.0;0.6;0.0;0.0
4.0;1753879337.118309;12.896056;1.82;-1.01;-129.79;0.213561;-0.874032;0.114515;124.5;0.0;0.0;2.0;0.0;0.0
4.0;1753879337.122915;12.887233;0.56;-0.15;-127.02;0.203169;-0.827873;0.00524;124.7;0.0;0.0;1.8;0.0;0.0
4.0;1753879337.127521;12.876428;0.13;0.29;-98.16;0.442269;-0.961511;0.045678;133.3;0.0;0.0;2.0;0.0;0.0
4.0;1753879337.132127;12.899408;-0.41;0.15;-139.26;0.335489;-0.813098;0.034747;129.2;0.0;0.0;1.9;0.0;0.0
4.0;1753879337.136733;12.888734;0.47;0.86;-132.82;0.068528;-1.047673;0.0177;141.5;0.0;0.0;0.6;0.0;0.0
4.0;1753879337.141339;12.884209;0.67;1.98;-125.14;0.98044;-1.001739;0.036502;135.2;0.0;0.0;0.7;0.0;0.0
4.0;1753879337.145945;12.879837;0.56;1.55;-109.52;0.221481;-1.089229;-0.031458;131.1;0.0;0.0;1.3;0.0;0.0
4.0;1753879337.150551;12.865859;2.28;0.56;-111.6;0.447049;-0.980013;-0.105504;138.2;0.0;0.0;2.6;0.0;0.0
4.0;1753879337.155157;12.898593;0.08;0.08;-104.9;0.607208;-0.942482;0.025917;127.1;0.0;0.0;-0.2;0.0;0.0
4.0;1753879337.159763;12.883833;-1.31;-0.92;-101.11;0.357794;-0.895083;-0.044629;142.5;0.0;0.0;0.2;0.0;0.0
4.0;1753879337.164369;12.886387;1.71;0.7;-135.64;0.470762;-0.799846;0.069743;137.3;0.0;0.0;1.1;0.0;0.0
4.0;1753879337.168975;12.887978;1.73;-2.03;-102.77;0.658237;-0.948039;0.022561;138.6;0.0;0.0;2.5;0.0;0.0
4.0;1753879337.173581;12.884686;1.88;0.64;-135.78;0.395413;-0.883446;0.048983;137.9;0.0;0.0;2.9;0.0;0.0
