sep=,
PacketCounter,SampleTimeFine,Euler_X,Euler_Y,Euler_Z,Acc_X,Acc_Y,Acc_Z,Gyr_X,Gyr_Y,Gyr_Z,Mag_X,Mag_Y,Mag_Z,Status,
0, 2911397033, -63.491607666015625, -83.68727111816406, 120.19261932373047, 0, 0, 0, 0, 0, 0, -0.47265625, 0.02392578125, -0.9716796875, 0, 
1, 2911405366, -63.443878173828125, -83.68466186523438, 120.15327453613281, 9.290294647216797, -1.300527572631836, 1.925484538078308, 4.133586883544922, -1.1524102687835693, 1.1363372802734375, -0.47216796875, 0.02490234375, -0.98193359375, 0, 
2, 2911413699, -63.553340911865234, -83.6880111694336, 120.26268005371094, 9.92449951171875, -1.1460295915603638, -0.523984432220459, 1.5667327642440796, -3.1448895931243896, 1.357080340385437, -0.47412109375, 0.01904296875, -0.97314453125, 0, 
3, 2911422032, -63.49550247192383, -83.68394470214844, 120.21527862548828, 10.691139221191406, -0.3517405688762665, 0.8045905232429504, 4.389293670654297, -0.9842014312744141, 1.235874056816101, -0.4736328125, 0.017578125, -0.96240234375, 0, 
4, 2911430365, -63.49668502807617, -83.6866455078125, 120.20520782470703, 9.431219100952148, -0.5962966680526733, 1.004702091217041, 1.9047129154205322, -1.8386664390563965, 0.8122403025627136, -0.47412109375, 0.0224609375, -0.97314453125, 0, 
5, 2911438698, -63.42806625366211, -83.68177032470703, 120.14817810058594, 9.054121971130371, -1.4205665588378906, -0.05028146132826805, 4.528545379638672, -0.8263536691665649, 1.2676740884780884, -0.47265625, 0.01953125, -0.9716796875, 0, 
6, 2911447031, -63.516231536865234, -83.68474578857422, 120.21836853027344, 10.28889274597168, -1.1257375478744507, 1.0783206224441528, 1.0112242698669434, -2.811302900314331, 1.2459532022476196, -0.47509765625, 0.015625, -0.9609375, 0, 
7, 2911455364, -63.45295715332031, -83.68183135986328, 120.15154266357422, 10.553238868713379, -0.4990098774433136, -0.3864705264568329, 3.922628164291382, -0.9730336666107178, 1.1150261163711548, -0.4736328125, 0.01953125, -0.9609375, 0, 
8, 2911463697, -63.47404098510742, -83.68611145019531, 120.16720581054688, 9.63704776763916, -0.7509639859199524, 2.543175220489502, 2.429548740386963, -2.175673246383667, 0.7238198518753052, -0.47509765625, 0.02490234375, -0.96923828125, 0, 
9, 2911472030, -63.46519470214844, -83.68331909179688, 120.1640625, 9.103100776672363, -1.3145302534103394, -1.4882961511611938, 3.7803666591644287, -1.5770174264907837, 1.3628695011138916, -0.474609375, 0.01953125, -0.9697265625, 0, 
10, 2911480363, -63.493465423583984, -83.68350982666016, 120.19869232177734, 10.290643692016602, -0.7804763913154602, 1.903925895690918, 2.5311858654022217, -2.104184150695801, 1.2606173753738403, -0.47607421875, 0.01904296875, -0.958984375, 0, 
11, 2911488696, -63.47262191772461, -83.68366241455078, 120.17809295654297, 9.89358901977539, -0.5710022449493408, -0.8547463417053223, 3.1391656398773193, -1.5238678455352783, 0.9479444622993469, -0.47314453125, 0.02099609375, -0.9619140625, 0, 
12, 2911497029, -63.45660400390625, -83.68649291992188, 120.17369842529297, 9.522997856140137, -1.1756900548934937, 2.2301950454711914, 4.2276811599731445, -1.8716708421707153, 0.8172478079795837, -0.474609375, 0.021484375, -0.9697265625, 0, 
13, 2911505362, -63.551979064941406, -83.68931579589844, 120.26029968261719, 9.919278144836426, -1.1606886386871338, -1.1801954507827759, 2.2713167667388916, -3.01342511177063, 1.3710530996322632, -0.47412109375, 0.017578125, -0.96728515625, 0, 
14, 2911513695, -63.52912521362305, -83.68661499023438, 120.24392700195312, 10.894784927368164, -0.5653998851776123, 1.6162806749343872, 3.8741276264190674, -1.4230116605758667, 1.2775613069534302, -0.474609375, 0.01708984375, -0.96142578125, 0, 
15, 2911522028, -63.530799865722656, -83.68863677978516, 120.2374496459961, 9.452296257019043, -0.5622804164886475, 0.3544730246067047, 2.1264681816101074, -1.792496919631958, 0.8323345184326172, -0.47265625, 0.02001953125, -0.96875, 0, 
16, 2911530361, -63.460838317871094, -83.68568420410156, 120.16716766357422, 9.040675163269043, -1.234089970588684, 0.7137222290039062, 4.693680763244629, -0.9721755385398865, 1.1112992763519287, -0.47412109375, 0.017578125, -0.9697265625, 0, 
17, 2911538694, -63.56161117553711, -83.68853759765625, 120.25049591064453, 9.973515510559082, -0.9861031174659729, 0.4935398995876312, 0.9333828091621399, -2.9033610820770264, 1.2772794961929321, -0.47412109375, 0.0166015625, -0.962890625, 0, 
18, 2911547027, -63.48973083496094, -83.68521881103516, 120.1833267211914, 10.754608154296875, -0.46881499886512756, -0.4127574563026428, 4.190463542938232, -0.8752769231796265, 1.127077579498291, -0.4736328125, 0.0185546875, -0.95361328125, 0, 
19, 2911555360, -63.50498962402344, -83.69022369384766, 120.18936157226562, 9.549874305725098, -0.870479941368103, 2.2382729053497314, 2.074061393737793, -2.1469979286193848, 0.6577735543251038, -0.47119140625, 0.0205078125, -0.9638671875, 0, 
20, 2911563693, -63.48883056640625, -83.68670654296875, 120.18097686767578, 9.14998722076416, -1.4472033977508545, -0.9910392761230469, 4.032013893127441, -1.482692837715149, 1.3994336128234863, -0.47509765625, 0.01953125, -0.96533203125, 0, 
21, 2911572026, -63.55279541015625, -83.68754577636719, 120.23451232910156, 10.388847351074219, -0.8129786252975464, 1.7971526384353638, 1.7977222204208374, -2.4438796043395996, 1.313228964805603, -0.47314453125, 0.01513671875, -0.9580078125, 0, 
22, 2911580359, -63.53805923461914, -83.68798065185547, 120.22022247314453, 10.112335205078125, -0.4335067868232727, -0.6710235476493835, 3.2527642250061035, -1.6640031337738037, 1.0191007852554321, -0.47265625, 0.02099609375, -0.9609375, 0, 
23, 2911588692, -63.5308952331543, -83.68900299072266, 120.21859741210938, 9.379243850708008, -0.9473329782485962, 2.0431020259857178, 3.759798526763916, -1.798734188079834, 0.960777223110199, -0.470703125, 0.021484375, -0.97119140625, 0, 
24, 2911597025, -63.59178161621094, -83.6900634765625, 120.2822265625, 9.510237693786621, -1.187501072883606, -1.393878698348999, 2.6607553958892822, -2.548091173171997, 1.3681330680847168, -0.4736328125, 0.0185546875, -0.966796875, 0, 
25, 2911605358, -63.57504653930664, -83.68807220458984, 120.27076721191406, 10.664464950561523, -0.714091420173645, 1.7587002515792847, 3.5199079513549805, -1.5386086702346802, 1.2808654308319092, -0.4736328125, 0.015625, -0.9580078125, 0, 
26, 2911613691, -63.593570709228516, -83.69158935546875, 120.28514099121094, 9.822210311889648, -0.7620099186897278, 0.12203409522771835, 2.584911823272705, -2.1214349269866943, 0.7928887009620667, -0.4736328125, 0.02197265625, -0.9658203125, 0, 
27, 2911622024, -63.56066131591797, -83.69049835205078, 120.26428985595703, 9.50961971282959, -1.2448058128356934, 1.2155638933181763, 4.556875228881836, -1.4534926414489746, 1.0847628116607666, -0.4736328125, 0.01806640625, -0.9697265625, 0, 
28, 2911630357, -63.64672088623047, -83.69316864013672, 120.34249877929688, 10.010880470275879, -0.8332011699676514, 0.05779748409986496, 1.2022042274475098, -2.7922208309173584, 1.2683401107788086, -0.47412109375, 0.01513671875, -0.96337890625, 0, 
29, 2911638690, -63.55849838256836, -83.68795013427734, 120.26055145263672, 10.351231575012207, -0.3028296232223511, 0.3513484001159668, 3.9118311405181885, -0.5123230814933777, 1.1587367057800293, -0.47119140625, 0.01953125, -0.9609375, 0, 
30, 2911647023, -63.55970764160156, -83.68975830078125, 120.28568267822266, 9.259615898132324, -0.9375837445259094, 1.5064607858657837, 2.1543238162994385, -1.8230419158935547, 0.9284007549285889, -0.4716796875, 0.0224609375, -0.9697265625, 0, 
31, 2911655356, -63.54191970825195, -83.6881103515625, 120.27188873291016, 9.241859436035156, -1.5570738315582275, -0.6362323760986328, 3.8462719917297363, -1.5748658180236816, 1.2547006607055664, -0.47412109375, 0.02197265625, -0.970703125, 0, 
32, 2911663689, -63.604827880859375, -83.68904113769531, 120.32677459716797, 10.734369277954102, -0.8739099502563477, 1.3022236824035645, 2.0863821506500244, -2.4730160236358643, 1.2958499193191528, -0.474609375, 0.0146484375, -0.96142578125, 0, 
33, 2911672022, -63.57292175292969, -83.68763732910156, 120.29434204101562, 10.169754981994629, -0.39351174235343933, -0.17094320058822632, 3.055086612701416, -1.3004987239837646, 1.0486980676651, -0.47314453125, 0.0185546875, -0.96044921875, 0, 
34, 2911680355, -63.55732727050781, -83.68754577636719, 120.32132720947266, 9.327912330627441, -1.0178741216659546, 1.8495151996612549, 3.6700587272644043, -1.6804090738296509, 1.0925750732421875, -0.47607421875, 0.021484375, -0.97265625, 0, 
35, 2911688688, -63.63374328613281, -83.68904113769531, 120.39532470703125, 9.308051109313965, -1.1582809686660767, -1.0410456657409668, 2.743335247039795, -2.7224981784820557, 1.3617550134658813, -0.4716796875, 0.0166015625, -0.96337890625, 0, 
36, 2911697021, -63.6242790222168, -83.686767578125, 120.40142822265625, 10.664253234863281, -0.6058677434921265, 1.317495346069336, 3.763345956802368, -1.6355843544006348, 1.3754589557647705, -0.474609375, 0.017578125, -0.95654296875, 0, 
37, 2911705354, -63.6347770690918, -83.69087219238281, 120.40077209472656, 9.809657096862793, -0.6591277718544006, 0.5398405194282532, 2.4658567905426025, -2.0867531299591064, 0.7316194176673889, -0.474609375, 0.02001953125, -0.9599609375, 0, 
38, 2911713687, -63.58943176269531, -83.68904113769531, 120.3649673461914, 9.4674654006958, -1.322440505027771, 0.5258141160011292, 4.269867420196533, -1.2399723529815674, 1.0679599046707153, -0.474609375, 0.02197265625, -0.97314453125, 0, 
39, 2911722020, -63.66233444213867, -83.6903076171875, 120.42057037353516, 10.186389923095703, -0.9330031871795654, 0.5669310092926025, 0.9755181670188904, -2.489818811416626, 1.2835806608200073, -0.4716796875, 0.01708984375, -0.96240234375, 0, 
40, 2911730353, -63.58203887939453, -83.68608856201172, 120.34953308105469, 10.369596481323242, -0.5226094722747803, 0.1331721544265747, 3.8790578842163086, -0.6960924863815308, 1.1595180034637451, -0.47509765625, 0.01708984375, -0.95751953125, 0, 
41, 2911738686, -63.60685348510742, -83.68978118896484, 120.37028503417969, 9.263978958129883, -0.870237410068512, 1.8838105201721191, 2.583951234817505, -2.20515513420105, 0.8145455121994019, -0.4716796875, 0.0224609375, -0.966796875, 0, 
42, 2911747019, -63.58115768432617, -83.6880111694336, 120.33760833740234, 9.206154823303223, -1.2296547889709473, -0.9747241735458374, 3.81668758392334, -1.4744322299957275, 1.2110027074813843, -0.47314453125, 0.01806640625, -0.9658203125, 0, 
43, 2911755352, -63.60752487182617, -83.68782043457031, 120.35765075683594, 10.570345878601074, -0.7015966176986694, 1.4370557069778442, 2.313349962234497, -1.9926469326019287, 1.220748782157898, -0.4736328125, 0.0185546875, -0.96142578125, 0, 
44, 2911763685, -63.56760787963867, -83.68708038330078, 120.31334686279297, 10.083664894104004, -0.6786559224128723, -0.43025243282318115, 3.038412094116211, -1.2823126316070557, 0.9782077670097351, -0.4736328125, 0.017578125, -0.9609375, 0, 
45, 2911772018, -63.559959411621094, -83.6881103515625, 120.3099594116211, 9.450904846191406, -1.309780478477478, 2.014432430267334, 3.613554000854492, -1.7780247926712036, 0.9525165557861328, -0.4716796875, 0.021484375, -0.97021484375, 0, 
46, 2911780351, -63.63651657104492, -83.69036865234375, 120.38619995117188, 9.758066177368164, -1.1282576322555542, -0.8447216153144836, 2.7438864707946777, -2.7987136840820312, 1.3585917949676514, -0.47412109375, 0.0166015625, -0.96337890625, 0, 
47, 2911788684, -63.612701416015625, -83.68832397460938, 120.37291717529297, 10.62978744506836, -0.284301221370697, 1.3729013204574585, 3.8670709133148193, -1.4901593923568726, 1.2547518014907837, -0.47314453125, 0.0185546875, -0.95751953125, 0, 
48, 2911797017, -63.610084533691406, -83.6897201538086, 120.36466979980469, 9.495721817016602, -0.5248039960861206, 0.46988674998283386, 2.426283121109009, -1.736914038658142, 0.8969337344169617, -0.474609375, 0.01953125, -0.97314453125, 0, 
49, 2911805350, -63.56361389160156, -83.68627166748047, 120.32591247558594, 9.205257415771484, -1.4036186933517456, 0.43983879685401917, 4.04592227935791, -1.1181254386901855, 1.2241811752319336, -0.47216796875, 0.02294921875, -0.96923828125, 0, 
50, 2911813683, -63.62748718261719, -83.6871109008789, 120.37367248535156, 10.25261402130127, -1.1629022359848022, 0.48987340927124023, 1.4721909761428833, -2.454227924346924, 1.3488839864730835, -0.4755859375, 0.017578125, -0.96533203125, 0, 
51, 2911822016, -63.56608581542969, -83.68370056152344, 120.31617736816406, 10.582707405090332, -0.5190251469612122, 0.014814937487244606, 3.602565050125122, -0.9004043340682983, 1.103281855583191, -0.47216796875, 0.01806640625, -0.95703125, 0, 
52, 2911830349, -63.568050384521484, -83.68717193603516, 120.31106567382812, 9.603676795959473, -0.8298690319061279, 2.106173038482666, 2.6792492866516113, -1.9717966318130493, 0.7618186473846436, -0.478515625, 0.01611328125, -0.95654296875, 0, 
53, 2911838682, -63.55219268798828, -83.68487548828125, 120.31689453125, 9.158218383789062, -1.205483078956604, -0.919848620891571, 3.5262348651885986, -1.5371742248535156, 1.3304800987243652, -0.47998046875, 0.01611328125, -0.95458984375, 0, 
54, 2911847015, -63.58091354370117, -83.68403625488281, 120.33968353271484, 10.214747428894043, -0.7218518853187561, 1.524619698524475, 2.3617093563079834, -1.9872677326202393, 1.31659734249115, -0.482421875, 0.01513671875, -0.95068359375, 0, 
55, 2911855348, -63.56056594848633, -83.68350982666016, 120.32022857666016, 9.801093101501465, -0.5780500769615173, -0.43840864300727844, 3.2107956409454346, -1.5056686401367188, 1.0199843645095825, -0.47998046875, 0.01513671875, -0.953125, 0, 
56, 2911863681, -63.54169464111328, -83.68490600585938, 120.30419158935547, 9.46694278717041, -1.2107179164886475, 1.8017463684082031, 4.059830665588379, -1.7482613325119019, 0.9316666126251221, -0.474609375, 0.01611328125, -0.96044921875, 0, 
57, 2911872014, -63.622379302978516, -83.68785858154297, 120.38005065917969, 10.097993850708008, -1.0857657194137573, -0.8139369487762451, 2.444840431213379, -2.823329210281372, 1.216560959815979, -0.48095703125, 0.0146484375, -0.9609375, 0, 
58, 2911880347, -63.59801483154297, -83.68546295166016, 120.35587310791016, 10.713525772094727, -0.46632814407348633, 1.399274230003357, 3.7843239307403564, -1.4523143768310547, 1.2882936000823975, -0.478515625, 0.015625, -0.9521484375, 0, 
59, 2911888680, -63.595947265625, -83.6889419555664, 120.34749603271484, 9.512022018432617, -0.6540589928627014, 0.6552786827087402, 2.1876604557037354, -1.873028039932251, 0.7195807099342346, -0.4755859375, 0.02001953125, -0.95849609375, 0, 
60, 2911897013, -63.53665542602539, -83.6852798461914, 120.29741668701172, 8.967474937438965, -1.3190300464630127, 0.4835646450519562, 4.243484973907471, -0.9745320677757263, 1.1727991104125977, -0.47998046875, 0.01953125, -0.96240234375, 0, 
61, 2911905346, -63.624183654785156, -83.68751525878906, 120.37049102783203, 10.152530670166016, -0.934614896774292, 0.3624212443828583, 1.287243366241455, -2.7489709854125977, 1.282248616218567, -0.4794921875, 0.013671875, -0.9560546875, 0, 
62, 2911913679, -63.55660629272461, -83.68394470214844, 120.31535339355469, 10.544642448425293, -0.42475730180740356, -0.08134490996599197, 3.718430519104004, -0.8719853162765503, 1.1476070880889893, -0.47900390625, 0.017578125, -0.95556640625, 0, 
63, 2911922012, -63.57889938354492, -83.68614959716797, 120.33170318603516, 9.64292049407959, -0.9665527939796448, 1.9475975036621094, 2.3638479709625244, -2.0730111598968506, 0.9512741565704346, -0.4765625, 0.01904296875, -0.96337890625, 0, 
64, 2911930345, -63.59124755859375, -83.68494415283203, 120.3484115600586, 9.248514175415039, -1.468996286392212, -0.8209874033927917, 3.4058094024658203, -1.9177888631820679, 1.3609226942062378, -0.47705078125, 0.01953125, -0.96142578125, 0, 
65, 2911938678, -63.629634857177734, -83.68441009521484, 120.38197326660156, 10.40176773071289, -0.7985999584197998, 1.5170660018920898, 2.6069908142089844, -2.185265302658081, 1.415673017501831, -0.4775390625, 0.015625, -0.958984375, 0, 
66, 2911947011, -63.62226486206055, -83.68546295166016, 120.37379455566406, 9.941389083862305, -0.43412289023399353, -0.2583007216453552, 3.001347780227661, -1.7253620624542236, 0.9167077541351318, -0.478515625, 0.01904296875, -0.95947265625, 0, 
67, 2911955344, -63.595550537109375, -83.68487548828125, 120.35807037353516, 9.243538856506348, -1.016196608543396, 1.6348583698272705, 4.42762565612793, -1.5481115579605103, 1.043652057647705, -0.47705078125, 0.01953125, -0.9677734375, 0, 
68, 2911963677, -63.66309356689453, -83.68708038330078, 120.41704559326172, 9.731995582580566, -1.0829399824142456, -0.7429986000061035, 2.175288677215576, -2.63435959815979, 1.2763314247131348, -0.4765625, 0.015625, -0.96142578125, 0, 
69, 2911972010, -63.63018798828125, -83.68341827392578, 120.3896255493164, 10.748167037963867, -0.6403375864028931, 1.2126195430755615, 3.7744369506835938, -1.2428154945373535, 1.3187745809555054, -0.47705078125, 0.0185546875, -0.9560546875, 0, 
70, 2911980343, -63.65140914916992, -83.68692779541016, 120.40685272216797, 9.813362121582031, -0.7824803590774536, 0.7022932171821594, 2.158921480178833, -2.1487655639648438, 0.8515964150428772, -0.47509765625, 0.0205078125, -0.96240234375, 0, 
71, 2911988676, -63.60651397705078, -83.68415832519531, 120.38815307617188, 9.368706703186035, -1.358815312385559, 0.6018987894058228, 4.421683311462402, -1.261462688446045, 1.2292016744613647, -0.4794921875, 0.02197265625, -0.9658203125, 0, 
72, 2911997009, -63.682456970214844, -83.68602752685547, 120.4494857788086, 10.012873649597168, -0.7915382981300354, 0.5194510221481323, 1.2847329378128052, -2.5866661071777344, 1.257402777671814, -0.47998046875, 0.01611328125, -0.958984375, 0, 
73, 2912005342, -63.615684509277344, -83.68099975585938, 120.38945007324219, 10.29880142211914, -0.35660719871520996, -0.1760038286447525, 3.953352451324463, -0.7834498882293701, 1.2662652730941772, -0.47900390625, 0.0185546875, -0.95849609375, 0, 
74, 2912013675, -63.63512420654297, -83.68447875976562, 120.40550994873047, 9.269367218017578, -0.91725754737854, 1.9387098550796509, 2.2273366451263428, -2.133985757827759, 0.8497266173362732, -0.47900390625, 0.02001953125, -0.96728515625, 0, 
75, 2912022008, -63.62163543701172, -83.68211364746094, 120.39925384521484, 9.30673599243164, -1.5827486515045166, -0.9574173092842102, 3.9643404483795166, -1.5696018934249878, 1.2896767854690552, -0.4765625, 0.01806640625, -0.9658203125, 0, 
76, 2912030341, -63.660560607910156, -83.6825180053711, 120.4383773803711, 10.712645530700684, -0.7847130298614502, 1.7236193418502808, 2.3474552631378174, -2.2142226696014404, 1.2996280193328857, -0.47802734375, 0.01611328125, -0.95703125, 0, 
77, 2912038674, -63.6220703125, -83.68189239501953, 120.40309143066406, 10.229937553405762, -0.3698118031024933, -0.47104787826538086, 2.8659253120422363, -1.2909702062606812, 0.9699597358703613, -0.47412109375, 0.01904296875, -0.9619140625, 0, 
78, 2912047007, -63.606048583984375, -83.68158721923828, 120.39287567138672, 9.223143577575684, -0.9687300324440002, 2.0882883071899414, 3.795799493789673, -1.6232637166976929, 1.064578890800476, -0.4765625, 0.0205078125, -0.96826171875, 0, 
79, 2912055340, -63.681339263916016, -83.68379211425781, 120.46385955810547, 9.290990829467773, -1.2478231191635132, -1.1355584859848022, 2.516944408416748, -2.7268402576446533, 1.2642803192138672, -0.48193359375, 0.01904296875, -0.9638671875, 0, 
80, 2912063673, -63.663475036621094, -83.68189239501953, 120.45480346679688, 10.659052848815918, -0.6236390471458435, 1.5189048051834106, 4.013264179229736, -1.5806161165237427, 1.29059898853302, -0.47705078125, 0.0185546875, -0.958984375, 0, 
81, 2912072006, -63.683433532714844, -83.68643188476562, 120.4677734375, 9.842629432678223, -0.5599091053009033, 0.273724764585495, 2.2386839389801025, -2.15498948097229, 0.6803396940231323, -0.47509765625, 0.0224609375, -0.96533203125, 0, 
82, 2912080339, -63.635372161865234, -83.68406677246094, 120.4330825805664, 9.524724006652832, -1.3308860063552856, 0.6703207492828369, 4.572614669799805, -1.2525105476379395, 1.1854395866394043, -0.48046875, 0.0224609375, -0.97119140625, 0, 
83, 2912088672, -63.72303771972656, -83.68680572509766, 120.50110626220703, 10.131352424621582, -0.9436713457107544, 0.5562694072723389, 0.9382110238075256, -2.7848052978515625, 1.2645363807678223, -0.47802734375, 0.01953125, -0.9638671875, 0, 
84, 2912097005, -63.65339660644531, -83.68229675292969, 120.44058990478516, 10.492280960083008, -0.5208675861358643, 0.08091689646244049, 4.236748695373535, -0.805913507938385, 1.2058414220809937, -0.4765625, 0.0185546875, -0.96142578125, 0, 
85, 2912105338, -63.67435836791992, -83.68701934814453, 120.45515441894531, 9.252216339111328, -0.7933786511421204, 1.9689756631851196, 2.3120176792144775, -2.184471368789673, 0.6715540289878845, -0.478515625, 0.0224609375, -0.97314453125, 0, 
86, 2912113671, -63.62172317504883, -83.68376159667969, 120.40889739990234, 9.108664512634277, -1.3428871631622314, -1.0432947874069214, 4.038955211639404, -1.097326636314392, 1.2223113775253296, -0.48095703125, 0.0205078125, -0.97216796875, 0, 
87, 2912122004, -63.67737579345703, -83.68521881103516, 120.44827270507812, 10.497264862060547, -0.7813164591789246, 1.6285191774368286, 1.6595975160598755, -2.4008865356445312, 1.251767635345459, -0.47705078125, 0.0166015625, -0.9609375, 0, 
88, 2912130337, -63.627967834472656, -83.68112182617188, 120.39987182617188, 10.281229972839355, -0.5593627691268921, -0.8402312994003296, 3.2564404010772705, -0.9768885374069214, 1.2240532636642456, -0.4775390625, 0.02001953125, -0.9609375, 0, 
89, 2912138670, -63.63254165649414, -83.68363952636719, 120.4037094116211, 9.559947967529297, -1.0963940620422363, 2.590343475341797, 2.997518539428711, -1.9437873363494873, 0.8351393342018127, -0.47509765625, 0.0234375, -0.9697265625, 0, 
90, 2912147003, -63.6719856262207, -83.68400573730469, 120.44718933105469, 9.24985408782959, -1.269241213798523, -1.4126708507537842, 3.314187526702881, -2.3083293437957764, 1.3814140558242798, -0.48046875, 0.015625, -0.96923828125, 0, 
91, 2912155336, -63.687442779541016, -83.68370056152344, 120.4648666381836, 10.62822437286377, -0.6197851896286011, 2.01818585395813, 3.350572347640991, -1.9569659233093262, 1.2237457036972046, -0.47900390625, 0.01806640625, -0.95751953125, 0, 
92, 2912163669, -63.64720916748047, -83.68391418457031, 120.42301177978516, 9.848637580871582, -0.3737857937812805, -0.7401065230369568, 2.623333215713501, -1.2922252416610718, 0.8452441096305847, -0.48095703125, 0.017578125, -0.96630859375, 0, 
93, 2912172002, -63.60179901123047, -83.68338012695312, 120.38784790039062, 9.18380355834961, -1.1840336322784424, 1.7275283336639404, 4.513177394866943, -1.3743702173233032, 1.0070236921310425, -0.4775390625, 0.021484375, -0.97119140625, 0, 
94, 2912180335, -63.712921142578125, -83.68649291992188, 120.48625946044922, 9.873942375183105, -1.2606220245361328, -0.5663657188415527, 1.4846010208129883, -3.101128101348877, 1.3280212879180908, -0.47607421875, 0.01904296875, -0.96435546875, 0, 
95, 2912188668, -63.68928146362305, -83.68385314941406, 120.47309112548828, 10.907697677612305, -0.6451359987258911, 0.9520406723022461, 4.364499568939209, -1.4683616161346436, 1.2859755754470825, -0.47412109375, 0.01611328125, -0.96484375, 0, 
96, 2912197001, -63.695098876953125, -83.68931579589844, 120.4704818725586, 9.679838180541992, -0.5363340377807617, 1.1660653352737427, 1.8165614604949951, -2.0336804389953613, 0.5384624600410461, -0.47509765625, 0.02294921875, -0.97265625, 0, 
97, 2912205334, -63.6248779296875, -83.68466186523438, 120.41355895996094, 9.11699104309082, -1.126598596572876, 0.10434313863515854, 4.744986057281494, -0.8391607999801636, 1.24728524684906, -0.474609375, 0.02294921875, -0.97705078125, 0, 
98, 2912213667, -63.70304489135742, -83.68667602539062, 120.45491027832031, 9.909234046936035, -0.9160645008087158, 0.8019772171974182, 0.6429429054260254, -2.598371982574463, 1.275409460067749, -0.4765625, 0.01708984375, -0.96923828125, 0, 
99, 2912222000, -63.61516189575195, -83.68106079101562, 120.383544921875, 10.428159713745117, -0.6036966443061829, -0.579256534576416, 4.119640350341797, -0.5616818070411682, 1.2753328084945679, -0.47119140625, 0.01953125, -0.9599609375, 0, 
100, 2912230333, -63.65620422363281, -83.6865234375, 120.41756439208984, 9.5507230758667, -0.9036535620689392, 2.353501081466675, 2.2203445434570312, -2.4603629112243652, 0.6925065517425537, -0.47216796875, 0.02197265625, -0.97021484375, 0, 
101, 2912238666, -63.649654388427734, -83.68466186523438, 120.41910552978516, 9.452627182006836, -1.4966241121292114, -1.3931504487991333, 4.0629048347473145, -1.6787699460983276, 1.30171537399292, -0.47412109375, 0.0224609375, -0.970703125, 0, 
102, 2912246999, -63.67894744873047, -83.6855239868164, 120.45088958740234, 10.5055570602417, -0.6901841759681702, 1.9930282831192017, 2.2514655590057373, -2.12066650390625, 1.1825579404830933, -0.4716796875, 0.0166015625, -0.962890625, 0, 
103, 2912255332, -63.64606857299805, -83.68460083007812, 120.41822814941406, 9.993906021118164, -0.4253607988357544, -0.8771097660064697, 3.143737554550171, -1.3239613771438599, 0.9962913393974304, -0.4697265625, 0.01708984375, -0.96044921875, 0, 
104, 2912263665, -63.65568542480469, -83.68804168701172, 120.43354797363281, 9.208633422851562, -0.9544858932495117, 2.6206107139587402, 3.741471290588379, -2.166260004043579, 0.8743675947189331, -0.47265625, 0.02099609375, -0.9697265625, 0, 
105, 2912271998, -63.72434616088867, -83.68994140625, 120.49324035644531, 9.320565223693848, -1.2537589073181152, -1.5914560556411743, 2.704171657562256, -2.6913516521453857, 1.321463942527771, -0.47265625, 0.01708984375, -0.96533203125, 0, 
106, 2912280331, -63.70310592651367, -83.6883544921875, 120.47801971435547, 11.018548965454102, -0.6416351795196533, 1.8683395385742188, 3.825408935546875, -1.4999312162399292, 1.164294958114624, -0.4755859375, 0.02001953125, -0.958984375, 0, 
107, 2912288664, -63.70158386230469, -83.6900634765625, 120.46743774414062, 9.840798377990723, -0.5613425970077515, -0.08359886705875397, 2.0133557319641113, -1.7279491424560547, 0.8382002711296082, -0.4716796875, 0.0205078125, -0.96484375, 0, 
108, 2912296997, -63.65773391723633, -83.6883544921875, 120.44253540039062, 9.215983390808105, -1.2988044023513794, 1.3189021348953247, 4.538945198059082, -1.3291867971420288, 1.1521539688110352, -0.47216796875, 0.02099609375, -0.970703125, 0, 
109, 2912305330, -63.760704040527344, -83.6911849975586, 120.530029296875, 9.906075477600098, -1.0750426054000854, 0.10779830813407898, 1.1592490673065186, -2.954819917678833, 1.2939543724060059, -0.47509765625, 0.01806640625, -0.96435546875, 0, 
110, 2912313663, -63.7038688659668, -83.68820190429688, 120.4817123413086, 10.723333358764648, -0.4420052766799927, 0.059069547802209854, 4.734791278839111, -1.1336989402770996, 1.1958261728286743, -0.47119140625, 0.01953125, -0.95654296875, 0, 
111, 2912321996, -63.71125411987305, -83.69286346435547, 120.48169708251953, 9.410432815551758, -0.6751229763031006, 1.8817251920700073, 1.945349931716919, -2.0195159912109375, 0.6535727977752686, -0.47119140625, 0.021484375, -0.96826171875, 0, 
112, 2912330329, -63.644256591796875, -83.68898010253906, 120.42402648925781, 9.10873794555664, -1.3848217725753784, -0.8934917449951172, 4.258545875549316, -0.8720494508743286, 1.1560472249984741, -0.47216796875, 0.01953125, -0.966796875, 0, 
113, 2912338662, -63.715057373046875, -83.6902847290039, 120.47787475585938, 10.351726531982422, -0.9363349676132202, 1.5406266450881958, 1.013350486755371, -2.473092794418335, 1.2619365453720093, -0.47265625, 0.01416015625, -0.95703125, 0, 
114, 2912346995, -63.66712951660156, -83.68863677978516, 120.42982482910156, 10.28329849243164, -0.6290408372879028, -0.46690651774406433, 3.497853994369507, -1.1805217266082764, 1.0672427415847778, -0.4736328125, 0.021484375, -0.95703125, 0, 
115, 2912355328, -63.694759368896484, -83.69230651855469, 120.4569320678711, 9.629315376281738, -0.9780409336090088, 2.3497490882873535, 3.007802724838257, -2.2804737091064453, 0.8481385111808777, -0.46923828125, 0.0234375, -0.9697265625, 0, 
116, 2912363661, -63.726531982421875, -83.69342041015625, 120.49755859375, 9.313483238220215, -1.171631932258606, -1.559701919555664, 3.630357027053833, -2.3048839569091797, 1.2226699590682983, -0.474609375, 0.0166015625, -0.966796875, 0, 
117, 2912371994, -63.726593017578125, -83.69158935546875, 120.50843048095703, 10.380898475646973, -0.5176020860671997, 1.967348575592041, 3.0241189002990723, -1.697801113128662, 1.3555052280426025, -0.47802734375, 0.015625, -0.95947265625, 0, 
118, 2912380327, -63.702545166015625, -83.6914291381836, 120.47993469238281, 9.704610824584961, -0.5543454885482788, -0.4825149476528168, 2.5855393409729004, -1.4177734851837158, 0.9286568760871887, -0.47314453125, 0.0205078125, -0.9638671875, 0, 
119, 2912388660, -63.66675567626953, -83.69024658203125, 120.45340728759766, 9.320013999938965, -1.2814301252365112, 1.5243120193481445, 4.230895519256592, -1.387728214263916, 1.0523992776870728, -0.4736328125, 0.02001953125, -0.966796875, 0, 
120, 2912396993, -63.76757049560547, -83.69361114501953, 120.5440444946289, 10.212024688720703, -1.2578171491622925, -0.22389847040176392, 1.6400794982910156, -3.0434319972991943, 1.315521478652954, -0.4755859375, 0.0166015625, -0.96533203125, 0, 
121, 2912405326, -63.73585510253906, -83.6915512084961, 120.51940155029297, 10.849437713623047, -0.48055291175842285, 0.7137222290039062, 3.9711673259735107, -1.3593475818634033, 1.1614904403686523, -0.47216796875, 0.01611328125, -0.95556640625, 0, 
122, 2912413659, -63.73390197753906, -83.6946029663086, 120.49859619140625, 9.53325366973877, -0.5637806057929993, 1.3402109146118164, 2.313887596130371, -1.8642425537109375, 0.7656863331794739, -0.47216796875, 0.0185546875, -0.96728515625, 0, 
123, 2912421992, -63.67286682128906, -83.6904067993164, 120.44651794433594, 8.776551246643066, -1.1949118375778198, -0.20405718684196472, 4.2491455078125, -0.9696907997131348, 1.2889082431793213, -0.47216796875, 0.02001953125, -0.9677734375, 0, 
124, 2912430325, -63.75257110595703, -83.69255065917969, 120.511474609375, 10.232149124145508, -1.0129294395446777, 1.1151763200759888, 1.271362543106079, -2.6446824073791504, 1.2504870891571045, -0.4765625, 0.01708984375, -0.9609375, 0, 
125, 2912438658, -63.69347381591797, -83.68910217285156, 120.45536041259766, 10.314242362976074, -0.5992729663848877, -0.5448548197746277, 3.4984943866729736, -0.9157984852790833, 1.1168574094772339, -0.47412109375, 0.01904296875, -0.95947265625, 0, 
126, 2912446991, -63.68706130981445, -83.69161987304688, 120.44377899169922, 9.840631484985352, -0.9336159825325012, 2.2402195930480957, 2.948608160018921, -1.8468502759933472, 0.8279288411140442, -0.47412109375, 0.02001953125, -0.96875, 0, 
127, 2912455324, -63.70008087158203, -83.69068145751953, 120.46118927001953, 9.386028289794922, -1.231204867362976, -1.1816898584365845, 3.3358185291290283, -1.932325005531311, 1.34915292263031, -0.47265625, 0.01953125, -0.966796875, 0, 
128, 2912463657, -63.71955871582031, -83.6895980834961, 120.47901916503906, 10.432531356811523, -0.7623082399368286, 1.8278439044952393, 2.8766322135925293, -1.9249738454818726, 1.2939798831939697, -0.4736328125, 0.01904296875, -0.95849609375, 0, 
129, 2912471990, -63.69826126098633, -83.69062042236328, 120.45743560791016, 9.782259941101074, -0.47243010997772217, -0.349216490983963, 3.0814950466156006, -1.559612512588501, 0.8475494980812073, -0.4716796875, 0.0166015625, -0.96142578125, 0, 
130, 2912480323, -63.67806625366211, -83.6915512084961, 120.45169830322266, 9.309945106506348, -1.074182152748108, 1.6130419969558716, 4.502086162567139, -1.7556895017623901, 0.9916296005249023, -0.47412109375, 0.01904296875, -0.96826171875, 0, 
131, 2912488656, -63.755226135253906, -83.69307708740234, 120.52008056640625, 10.029897689819336, -0.9974074959754944, -0.788165271282196, 1.9819269180297852, -2.6594107151031494, 1.3200807571411133, -0.470703125, 0.01611328125, -0.9638671875, 0, 
132, 2912496989, -63.69345474243164, -83.68888092041016, 120.46315002441406, 10.6397705078125, -0.5919288396835327, 0.9657142162322998, 3.5975191593170166, -0.8935909867286682, 1.259861707687378, -0.4755859375, 0.0185546875, -0.95458984375, 0, 
133, 2912505322, -63.704689025878906, -83.69242858886719, 120.46510314941406, 9.67133903503418, -0.831997275352478, 1.1669402122497559, 1.7963647842407227, -1.9926337003707886, 0.7811188697814941, -0.47412109375, 0.0234375, -0.96337890625, 0, 
134, 2912513655, -63.681549072265625, -83.68916320800781, 120.45128631591797, 9.147845268249512, -1.4216219186782837, 0.2432708591222763, 4.226336479187012, -1.4296841621398926, 1.3476289510726929, -0.4765625, 0.02099609375, -0.96728515625, 0, 
135, 2912521988, -63.76235580444336, -83.69171142578125, 120.51956176757812, 10.271256446838379, -0.8028625249862671, 0.6949271559715271, 1.5279916524887085, -2.708590269088745, 1.2208513021469116, -0.474609375, 0.0166015625, -0.96240234375, 0, 
136, 2912530321, -63.672664642333984, -83.68798065185547, 120.43232727050781, 10.104207992553711, -0.293638676404953, -0.07249627262353897, 3.8133957386016846, -0.601998507976532, 1.0514899492263794, -0.47705078125, 0.01904296875, -0.955078125, 0, 
137, 2912538654, -63.68415832519531, -83.69081115722656, 120.44117736816406, 9.454237937927246, -0.9096978902816772, 1.7902408838272095, 2.763340473175049, -2.020207405090332, 0.8307721018791199, -0.46826171875, 0.02197265625, -0.96728515625, 0, 
138, 2912546987, -63.69927215576172, -83.69009399414062, 120.45145416259766, 9.288276672363281, -1.4324156045913696, -0.8917084336280823, 3.1202616691589355, -1.9517276287078857, 1.3077728748321533, -0.47412109375, 0.02001953125, -0.9677734375, 0, 
139, 2912555320, -63.71531295776367, -83.6885986328125, 120.4570541381836, 10.771430015563965, -0.9332170486450195, 1.451242208480835, 3.0580708980560303, -1.9103351831436157, 1.397960901260376, -0.47509765625, 0.01513671875, -0.95556640625, 0, 
140, 2912563653, -63.7111701965332, -83.69093322753906, 120.44933319091797, 10.152313232421875, -0.5007861256599426, -0.06982864439487457, 2.6674537658691406, -1.7927660942077637, 0.7940285205841064, -0.4736328125, 0.01806640625, -0.95947265625, 0, 
141, 2912571986, -63.67922592163086, -83.68990325927734, 120.42798614501953, 9.162148475646973, -1.0104904174804688, 1.4906047582626343, 4.385003566741943, -1.4545427560806274, 1.0688564777374268, -0.47412109375, 0.02099609375, -0.96728515625, 0, 
142, 2912580319, -63.75738525390625, -83.69217681884766, 120.50041198730469, 9.60377311706543, -0.8674668073654175, -0.35491877794265747, 1.890919804573059, -2.7456283569335938, 1.3010751008987427, -0.47314453125, 0.017578125, -0.96337890625, 0, 
143, 2912588652, -63.71397399902344, -83.6885757446289, 120.46395111083984, 10.53876781463623, -0.5880430340766907, 0.7066936492919922, 3.954171895980835, -1.140204906463623, 1.2582224607467651, -0.47265625, 0.017578125, -0.9560546875, 0, 
144, 2912596985, -63.72947692871094, -83.69248962402344, 120.47651672363281, 9.752137184143066, -0.8019294738769531, 1.1030951738357544, 2.1717543601989746, -2.107705593109131, 0.7638420462608337, -0.47265625, 0.021484375, -0.96435546875, 0, 
145, 2912605318, -63.675636291503906, -83.68898010253906, 120.43206787109375, 9.354037284851074, -1.4087984561920166, -0.045635975897312164, 4.278166770935059, -1.0882337093353271, 1.2732068300247192, -0.47314453125, 0.021484375, -0.96337890625, 0, 
146, 2912613651, -63.740055084228516, -83.69009399414062, 120.48209381103516, 10.420611381530762, -0.8600996732711792, 1.0360324382781982, 1.3196710348129272, -2.41420578956604, 1.2678022384643555, -0.4716796875, 0.0166015625, -0.96337890625, 0, 
147, 2912621984, -63.6736946105957, -83.68584442138672, 120.41924285888672, 10.243454933166504, -0.46663007140159607, -0.3142739534378052, 3.5694711208343506, -0.7894434928894043, 1.1711338758468628, -0.47265625, 0.01806640625, -0.95947265625, 0, 
148, 2912630317, -63.67707061767578, -83.690185546875, 120.4186782836914, 9.204848289489746, -0.8844394087791443, 2.135929584503174, 3.0020394325256348, -2.0683109760284424, 0.6920709609985352, -0.47802734375, 0.015625, -0.9580078125, 0, 
149, 2912638650, -63.681331634521484, -83.68832397460938, 120.42793273925781, 9.134696960449219, -1.239188313484192, -1.114736795425415, 3.6785888671875, -1.7733629941940308, 1.3417761325836182, -0.4794921875, 0.01708984375, -0.95263671875, 0, 
150, 2912646983, -63.708824157714844, -83.68844604492188, 120.44877624511719, 10.673583030700684, -0.7673987150192261, 1.625159740447998, 2.7463581562042236, -2.1066555976867676, 1.2847843170166016, -0.48193359375, 0.01611328125, -0.94873046875, 0, 
151, 2912655316, -63.6754035949707, -83.68851470947266, 120.38841247558594, 10.187702178955078, -0.5645112991333008, -0.5266319513320923, 2.875018835067749, -1.3822851181030273, 0.9212416410446167, -0.47900390625, 0.01806640625, -0.953125, 0, 
152, 2912663649, -63.646873474121094, -83.6865234375, 120.36607360839844, 9.322839736938477, -1.1482763290405273, 1.8968985080718994, 3.8590662479400635, -1.3942468166351318, 1.1627583503723145, -0.4794921875, 0.01708984375, -0.96044921875, 0, 
153, 2912671982, -63.749515533447266, -83.68950653076172, 120.46170806884766, 9.808952331542969, -1.162760615348816, -0.6010696887969971, 2.168910503387451, -3.0567386150360107, 1.3337332010269165, -0.4794921875, 0.01611328125, -0.95849609375, 0, 
154, 2912680315, -63.705562591552734, -83.68633270263672, 120.42755889892578, 10.656965255737305, -0.481171578168869, 0.8888454437255859, 4.276014804840088, -1.231673240661621, 1.2782015800476074, -0.478515625, 0.01708984375, -0.9501953125, 0, 
155, 2912688648, -63.726234436035156, -83.69074249267578, 120.44068908691406, 9.506351470947266, -0.5484416484832764, 1.1411203145980835, 2.1763391494750977, -2.152940034866333, 0.6925576329231262, -0.4765625, 0.01953125, -0.9609375, 0, 
156, 2912696981, -63.652732849121094, -83.68574523925781, 120.37519073486328, 9.21399974822998, -1.2798171043395996, -0.16870129108428955, 4.5945024490356445, -0.8070405721664429, 1.3214384317398071, -0.47607421875, 0.01806640625, -0.9599609375, 0, 
157, 2912705314, -63.715057373046875, -83.68689727783203, 120.42231750488281, 10.235939025878906, -1.0349977016448975, 0.9106934666633606, 0.9128145575523376, -2.3921263217926025, 1.2934677600860596, -0.48046875, 0.01416015625, -0.95849609375, 0, 
158, 2912713647, -63.6452522277832, -83.6825180053711, 120.35909271240234, 10.500940322875977, -0.6282861232757568, -0.21217261254787445, 3.932527542114258, -0.7830143570899963, 1.1700581312179565, -0.47607421875, 0.0185546875, -0.95654296875, 0, 
159, 2912721980, -63.66685104370117, -83.68751525878906, 120.3747329711914, 9.481622695922852, -0.8473522067070007, 2.4027061462402344, 2.370699882507324, -2.212109088897705, 0.6485524773597717, -0.4755859375, 0.021484375, -0.9658203125, 0, 
160, 2912730313, -63.653961181640625, -83.68546295166016, 120.3673324584961, 9.221663475036621, -1.2746517658233643, -1.314234972000122, 3.820286750793457, -1.6158100366592407, 1.3232827186584473, -0.4765625, 0.0205078125, -0.96728515625, 0, 
161, 2912738646, -63.67629623413086, -83.68521881103516, 120.38655090332031, 10.305855751037598, -0.6304211020469666, 1.824136734008789, 2.7061307430267334, -1.9827208518981934, 1.2208384275436401, -0.47705078125, 0.017578125, -0.95849609375, 0, 
162, 2912746979, -63.63996124267578, -83.68474578857422, 120.34402465820312, 9.927407264709473, -0.5638300776481628, -0.8510752320289612, 3.022172689437866, -1.3316969871520996, 0.9835097789764404, -0.47607421875, 0.0205078125, -0.95947265625, 0, 
163, 2912755312, -63.61157989501953, -83.68559265136719, 120.31461334228516, 9.415964126586914, -1.1067324876785278, 2.2005677223205566, 3.804379463195801, -1.576927661895752, 0.9249045252799988, -0.4775390625, 0.02294921875, -0.96826171875, 0, 
164, 2912763645, -63.68985366821289, -83.68791961669922, 120.3866195678711, 9.712248802185059, -1.3521740436553955, -1.0859864950180054, 2.2791030406951904, -2.7439627647399902, 1.2641390562057495, -0.47900390625, 0.017578125, -0.9658203125, 0, 
165, 2912771978, -63.67338180541992, -83.68559265136719, 120.37615966796875, 10.929471969604492, -0.550668478012085, 1.6672571897506714, 3.8252298831939697, -1.5143264532089233, 1.2746156454086304, -0.47900390625, 0.0166015625, -0.96142578125, 0, 
166, 2912780311, -63.656673431396484, -83.68639373779297, 120.34770202636719, 9.651083946228027, -0.463914692401886, 0.04676490277051926, 2.1613805294036865, -1.5519280433654785, 0.919474184513092, -0.47802734375, 0.0185546875, -0.96337890625, 0, 
167, 2912788644, -63.59560012817383, -83.68347930908203, 120.30078125, 9.007685661315918, -1.1299686431884766, 1.0792551040649414, 4.807125568389893, -1.0929466485977173, 1.170365571975708, -0.47802734375, 0.021484375, -0.97021484375, 0, 
168, 2912796977, -63.71348190307617, -83.68624114990234, 120.40279388427734, 9.820369720458984, -1.1515320539474487, 0.26192227005958557, 1.1026160717010498, -3.1258718967437744, 1.3893674612045288, -0.4765625, 0.01806640625, -0.9619140625, 0, 
169, 2912805310, -63.65114974975586, -83.6823959350586, 120.35003662109375, 10.833367347717285, -0.5898037552833557, -0.22270135581493378, 4.284236907958984, -0.9358546137809753, 1.1760778427124023, -0.4765625, 0.017578125, -0.95703125, 0, 
170, 2912813643, -63.66930389404297, -83.6868667602539, 120.36071014404297, 9.808494567871094, -0.7336187362670898, 2.1664810180664062, 2.021911144256592, -2.1513781547546387, 0.7282639741897583, -0.4775390625, 0.0224609375, -0.96923828125, 0, 
171, 2912821976, -63.63296127319336, -83.68323516845703, 120.33226776123047, 9.272618293762207, -1.3250783681869507, -0.8227855563163757, 4.065414905548096, -1.2323393821716309, 1.3020739555358887, -0.4775390625, 0.021484375, -0.97119140625, 0, 
172, 2912830309, -63.679569244384766, -83.68350982666016, 120.36299896240234, 10.205253601074219, -0.8150069713592529, 1.58527410030365, 1.4641610383987427, -2.2171554565429688, 1.3146506547927856, -0.47705078125, 0.017578125, -0.96044921875, 0, 
173, 2912838642, -63.63490676879883, -83.68154907226562, 120.32471466064453, 9.967473983764648, -0.46061989665031433, -0.6070401072502136, 3.594215154647827, -1.216381549835205, 1.1227999925613403, -0.4794921875, 0.01904296875, -0.96435546875, 0, 
174, 2912846975, -63.652008056640625, -83.68494415283203, 120.34477996826172, 9.3755521774292, -0.9871504902839661, 2.3001208305358887, 3.4243156909942627, -2.1805269718170166, 0.8423240780830383, -0.474609375, 0.021484375, -0.9736328125, 0, 
175, 2912855308, -63.68301773071289, -83.6843490600586, 120.37773895263672, 9.41497802734375, -1.2738996744155884, -1.47670578956604, 3.302302122116089, -2.129490375518799, 1.3334641456604004, -0.47607421875, 0.01904296875, -0.96875, 0, 
176, 2912863641, -63.67945098876953, -83.68323516845703, 120.37002563476562, 10.931488990783691, -0.7450992465019226, 1.9489351511001587, 3.1334147453308105, -1.7045888900756836, 1.2529457807540894, -0.47705078125, 0.017578125, -0.96142578125, 0, 
177, 2912871974, -63.67766189575195, -83.68428802490234, 120.362060546875, 9.924582481384277, -0.5504370331764221, -0.3403480052947998, 2.365525960922241, -1.72467041015625, 0.9275684356689453, -0.4765625, 0.0185546875, -0.96435546875, 0, 
178, 2912880307, -63.6395378112793, -83.68319702148438, 120.33453369140625, 9.137151718139648, -1.2054775953292847, 1.8538813591003418, 4.432082176208496, -1.425649881362915, 1.0988763570785522, -0.47802734375, 0.0234375, -0.97119140625, 0, 
179, 2912888640, -63.74165344238281, -83.68655395507812, 120.41374969482422, 9.834769248962402, -1.0850814580917358, -0.5011932253837585, 1.6551661491394043, -3.0616822242736816, 1.3221299648284912, -0.47998046875, 0.01953125, -0.9658203125, 0, 
180, 2912896973, -63.675758361816406, -83.68170928955078, 120.3586196899414, 10.713240623474121, -0.3922145664691925, 0.6659647226333618, 4.432364463806152, -0.8530179858207703, 1.273232340812683, -0.47705078125, 0.017578125, -0.95703125, 0, 
181, 2912905306, -63.69029998779297, -83.68518829345703, 120.36207580566406, 9.481350898742676, -0.6006421446800232, 1.0906119346618652, 1.7605305910110474, -1.9904567003250122, 0.7265350222587585, -0.4794921875, 0.0244140625, -0.96728515625, 0, 
182, 2912913639, -63.61431121826172, -83.68124389648438, 120.30442810058594, 9.06070327758789, -1.4371012449264526, -0.12468001246452332, 4.543760776519775, -0.8281722664833069, 1.2021273374557495, -0.4765625, 0.01953125, -0.97216796875, 0, 
183, 2912921972, -63.718528747558594, -83.68335723876953, 120.39054107666016, 10.29026985168457, -1.166275978088379, 1.131149172782898, 0.8506230711936951, -2.9003894329071045, 1.3702590465545654, -0.47705078125, 0.017578125, -0.96044921875, 0, 
184, 2912930305, -63.66164016723633, -83.68115234375, 120.33809661865234, 10.73891830444336, -0.5385482907295227, -0.5930549502372742, 4.179295539855957, -1.1138736009597778, 1.1006948947906494, -0.4794921875, 0.01904296875, -0.95703125, 0, 
185, 2912938638, -63.69411849975586, -83.68729400634766, 120.36859893798828, 9.568449020385742, -0.6465997099876404, 2.7268850803375244, 2.3611714839935303, -2.4438159465789795, 0.6574406027793884, -0.47705078125, 0.02197265625, -0.966796875, 0, 
186, 2912946971, -63.671974182128906, -83.68388366699219, 120.3553237915039, 8.939752578735352, -1.197336196899414, -1.6412183046340942, 4.160520553588867, -1.4247790575027466, 1.3697724342346191, -0.47802734375, 0.01953125, -0.96728515625, 0, 
187, 2912955304, -63.69868087768555, -83.68199157714844, 120.3740234375, 10.1644287109375, -0.8014826774597168, 2.2212331295013428, 2.1165554523468018, -1.8881405591964722, 1.397973656654358, -0.47705078125, 0.017578125, -0.95947265625, 0, 
188, 2912963637, -63.65826416015625, -83.68034362792969, 120.33367156982422, 10.040987968444824, -0.7259607315063477, -1.1986957788467407, 3.085465431213379, -1.2322624921798706, 1.080946445465088, -0.4775390625, 0.01953125, -0.9599609375, 0, 
189, 2912971970, -63.6485595703125, -83.68341827392578, 120.33088684082031, 9.639181137084961, -1.1571046113967896, 2.626819133758545, 3.925778865814209, -1.8954534530639648, 0.7339631915092468, -0.47705078125, 0.0224609375, -0.96826171875, 0, 
190, 2912980303, -63.73733901977539, -83.68645477294922, 120.41510009765625, 9.772543907165527, -1.133984088897705, -1.5012015104293823, 2.6601154804229736, -2.992011785507202, 1.3169816732406616, -0.47607421875, 0.0185546875, -0.9658203125, 0, 
191, 2912988636, -63.72699737548828, -83.68531036376953, 120.41148376464844, 10.738048553466797, -0.5865814089775085, 1.9954324960708618, 3.491962432861328, -1.6584575176239014, 1.2356561422348022, -0.4794921875, 0.015625, -0.95849609375, 0, 
192, 2912996969, -63.71346664428711, -83.68614959716797, 120.39048767089844, 9.479438781738281, -0.549219012260437, -0.2836329936981201, 2.2161946296691895, -1.5624041557312012, 0.8618678450584412, -0.4755859375, 0.01904296875, -0.96240234375, 0, 
193, 2913005302, -63.65247344970703, -83.68431854248047, 120.34148406982422, 8.998617172241211, -1.1983346939086914, 1.3507237434387207, 4.562740802764893, -1.0828291177749634, 0.9930383563041687, -0.4736328125, 0.0244140625, -0.970703125, 0, 
194, 2913013635, -63.768619537353516, -83.68838500976562, 120.44302368164062, 10.002192497253418, -1.0325082540512085, -0.14253132045269012, 1.3062617778778076, -3.2323367595672607, 1.3186589479446411, -0.4755859375, 0.01904296875, -0.96630859375, 0, 
195, 2913021968, -63.72138977050781, -83.68338012695312, 120.40625, 11.065156936645508, -0.5696696043014526, 0.23008354008197784, 4.378856182098389, -1.0617997646331787, 1.4033271074295044, -0.47216796875, 0.0185546875, -0.9638671875, 0, 
196, 2913030301, -63.72841262817383, -83.68733215332031, 120.40486907958984, 9.67708683013916, -0.7759076952934265, 1.6316192150115967, 1.8379749059677124, -1.9715149402618408, 0.7086434960365295, -0.46923828125, 0.02099609375, -0.96728515625, 0, 
197, 2913038634, -63.660179138183594, -83.68313598632812, 120.36469268798828, 8.923943519592285, -1.364630937576294, -0.1576949656009674, 4.612944602966309, -0.9198713302612305, 1.272131085395813, -0.4736328125, 0.01904296875, -0.9716796875, 0, 
198, 2913046967, -63.74673843383789, -83.68521881103516, 120.4364013671875, 10.065112113952637, -0.8803744912147522, 1.2770726680755615, 1.2519726753234863, -2.7303876876831055, 1.2814545631408691, -0.4736328125, 0.01806640625, -0.96630859375, 0, 
199, 2913055300, -63.67668533325195, -83.68065643310547, 120.37345123291016, 10.310629844665527, -0.4077182412147522, -0.7446288466453552, 4.001097679138184, -0.7739213109016418, 1.1955957412719727, -0.4736328125, 0.017578125, -0.95751953125, 0, 
200, 2913063633, -63.70684051513672, -83.68608856201172, 120.39944458007812, 9.741864204406738, -0.8142939209938049, 2.439772844314575, 2.615238904953003, -2.408749580383301, 0.7257537245750427, -0.4736328125, 0.0224609375, -0.966796875, 0, 
201, 2913071966, -63.70683670043945, -83.68341827392578, 120.40249633789062, 9.170792579650879, -1.3854998350143433, -1.6145778894424438, 3.462301731109619, -1.657970905303955, 1.3912627696990967, -0.47607421875, 0.017578125, -0.96923828125, 0, 
202, 2913080299, -63.72036361694336, -83.68245697021484, 120.42176818847656, 10.537736892700195, -0.9056650400161743, 2.222294569015503, 2.513831853866577, -1.8613992929458618, 1.300844430923462, -0.47607421875, 0.01708984375, -0.96044921875, 0, 
203, 2913088632, -63.696685791015625, -83.6834487915039, 120.3918685913086, 10.072975158691406, -0.5612996816635132, -0.765610933303833, 2.8383774757385254, -1.5500712394714355, 0.888237714767456, -0.47216796875, 0.02001953125, -0.9658203125, 0, 
204, 2913096965, -63.689151763916016, -83.68568420410156, 120.39481353759766, 9.36709213256836, -1.045672059059143, 2.3404781818389893, 4.350090980529785, -1.9155734777450562, 0.8667601346969604, -0.4716796875, 0.01904296875, -0.97021484375, 0, 
205, 2913105298, -63.775001525878906, -83.68791961669922, 120.47528839111328, 9.676700592041016, -1.0412709712982178, -1.2687082290649414, 2.3849923610687256, -2.8399910926818848, 1.322898268699646, -0.4736328125, 0.01513671875, -0.966796875, 0, 
206, 2913113631, -63.723506927490234, -83.68428802490234, 120.44435119628906, 10.752540588378906, -0.3914012908935547, 1.5025920867919922, 3.864445209503174, -1.085544228553772, 1.255251169204712, -0.4716796875, 0.0166015625, -0.95703125, 0, 
207, 2913121964, -63.70578384399414, -83.6865234375, 120.41065979003906, 9.451546669006348, -0.662129282951355, 0.33066901564598083, 2.2068967819213867, -1.617474913597107, 0.773575484752655, -0.47314453125, 0.02197265625, -0.9658203125, 0, 
208, 2913130297, -63.657718658447266, -83.68360137939453, 120.37339782714844, 9.227889060974121, -1.465049147605896, 0.7863888144493103, 4.420735836029053, -1.168226957321167, 1.1724660396575928, -0.474609375, 0.02099609375, -0.9677734375, 0, 
209, 2913138630, -63.751163482666016, -83.68633270263672, 120.45075988769531, 10.31800365447998, -1.1454532146453857, 0.45791447162628174, 1.0953158140182495, -2.83059024810791, 1.2473362684249878, -0.470703125, 0.01708984375, -0.96142578125, 0, 
210, 2913146963, -63.69852828979492, -83.6843490600586, 120.39895629882812, 10.743206024169922, -0.30515584349632263, -0.07794556021690369, 4.084651470184326, -1.1602609157562256, 1.1094038486480713, -0.4765625, 0.01611328125, -0.96044921875, 0, 
211, 2913155296, -63.71713638305664, -83.6881103515625, 120.41156768798828, 9.20133113861084, -0.6777660846710205, 2.0829365253448486, 2.3679592609405518, -2.1130337715148926, 0.7565164566040039, -0.47021484375, 0.01953125, -0.96533203125, 0, 
212, 2913163629, -63.66050720214844, -83.68425750732422, 120.35584259033203, 8.893532752990723, -1.369330644607544, -1.1274975538253784, 4.140695095062256, -1.028680443763733, 1.2704405784606934, -0.4716796875, 0.01708984375, -0.96875, 0, 
213, 2913171962, -63.700714111328125, -83.68472290039062, 120.37932586669922, 10.347088813781738, -0.9508134722709656, 1.6427980661392212, 1.9400733709335327, -2.1969456672668457, 1.273667812347412, -0.47412109375, 0.0166015625, -0.95947265625, 0, 
214, 2913180295, -63.661338806152344, -83.68406677246094, 120.34028625488281, 10.362018585205078, -0.5919770002365112, -0.5688726305961609, 3.16399884223938, -1.2626922130584717, 0.9293357133865356, -0.4736328125, 0.01904296875, -0.9609375, 0, 
215, 2913188628, -63.64281463623047, -83.68571472167969, 120.32524108886719, 9.689615249633789, -1.0225188732147217, 2.1693966388702393, 3.5242111682891846, -1.6737236976623535, 0.8158645629882812, -0.47216796875, 0.02197265625, -0.9677734375, 0, 
216, 2913196961, -63.71645736694336, -83.6867446899414, 120.39495086669922, 9.57398509979248, -1.1525745391845703, -1.1951476335525513, 2.7111639976501465, -2.702775478363037, 1.458269476890564, -0.47509765625, 0.017578125, -0.966796875, 0, 
217, 2913205294, -63.704322814941406, -83.68323516845703, 120.3870849609375, 10.416143417358398, -0.6312812566757202, 1.771950364112854, 3.6065609455108643, -1.4808741807937622, 1.4221023321151733, -0.47216796875, 0.015625, -0.95849609375, 0, 
218, 2913213627, -63.707496643066406, -83.6855239868164, 120.38151550292969, 9.521173477172852, -0.5868868231773376, -0.023303136229515076, 2.6820154190063477, -1.921874761581421, 0.8984962701797485, -0.470703125, 0.0185546875, -0.95849609375, 0, 
219, 2913221960, -63.66083908081055, -83.68397521972656, 120.34709930419922, 9.434731483459473, -1.1521918773651123, 1.0037165880203247, 4.490458011627197, -1.3046739101409912, 1.104306697845459, -0.46923828125, 0.0205078125, -0.96826171875, 0, 
220, 2913230293, -63.74492645263672, -83.68608856201172, 120.41656494140625, 10.163063049316406, -0.9829707145690918, -0.03482837229967117, 1.2735908031463623, -2.7018020153045654, 1.2685449123382568, -0.470703125, 0.01416015625, -0.96142578125, 0, 
221, 2913238626, -63.678863525390625, -83.68093872070312, 120.3561019897461, 10.786096572875977, -0.5778303146362305, 0.3721584677696228, 3.8139843940734863, -0.7702583074569702, 1.2849379777908325, -0.47265625, 0.01611328125, -0.95849609375, 0, 
222, 2913246959, -63.663604736328125, -83.6823959350586, 120.33378601074219, 9.424287796020508, -0.8868178129196167, 1.689039707183838, 2.1348440647125244, -1.6082282066345215, 0.8513146638870239, -0.4716796875, 0.0185546875, -0.96337890625, 0, 
223, 2913255292, -63.64162063598633, -83.67957305908203, 120.31968688964844, 9.09084701538086, -1.3885698318481445, -0.3521614074707031, 4.047638416290283, -1.4481391906738281, 1.2990515232086182, -0.47216796875, 0.0205078125, -0.9638671875, 0, 
224, 2913263625, -63.70399856567383, -83.68133544921875, 120.37612915039062, 10.306509971618652, -0.7052198648452759, 1.1126331090927124, 2.217552423477173, -2.561129093170166, 1.2824022769927979, -0.4736328125, 0.01513671875, -0.95703125, 0, 
225, 2913271958, -63.63935852050781, -83.6804428100586, 120.30887603759766, 10.016185760498047, -0.4113626778125763, -0.29002147912979126, 3.4287211894989014, -1.0186653137207031, 0.8736759424209595, -0.47314453125, 0.02001953125, -0.96044921875, 0, 
226, 2913280291, -63.622947692871094, -83.68025207519531, 120.29376983642578, 9.53344440460205, -1.0111287832260132, 1.7509217262268066, 3.256657600402832, -1.5704598426818848, 1.023583173751831, -0.47265625, 0.0205078125, -0.9716796875, 0, 
227, 2913288624, -63.689781188964844, -83.68205261230469, 120.35673522949219, 9.485455513000488, -1.4151548147201538, -0.7655528783798218, 2.5812361240386963, -2.610269784927368, 1.2623335123062134, -0.4716796875, 0.01611328125, -0.966796875, 0, 
228, 2913296957, -63.68456268310547, -83.68003845214844, 120.3482894897461, 10.785429000854492, -0.8126806020736694, 1.344158411026001, 3.6641416549682617, -1.6898094415664673, 1.361294150352478, -0.47314453125, 0.02001953125, -0.95849609375, 0, 
229, 2913305290, -63.68379592895508, -83.68372344970703, 120.34324645996094, 9.841898918151855, -0.43347254395484924, 0.4040485918521881, 2.580557346343994, -1.8996412754058838, 0.6605399250984192, -0.47314453125, 0.0205078125, -0.96435546875, 0, 
230, 2913313623, -63.6447639465332, -83.6823959350586, 120.3150405883789, 9.19968318939209, -1.0534764528274536, 0.8831420540809631, 4.594707012176514, -1.4135856628417969, 1.1332250833511353, -0.47119140625, 0.01953125, -0.96533203125, 0, 
231, 2913321956, -63.7239990234375, -83.68490600585938, 120.38381958007812, 9.796771049499512, -0.943428099155426, 0.1183321550488472, 1.4726135730743408, -2.725393056869507, 1.2725151777267456, -0.4736328125, 0.0185546875, -0.9619140625, 0, 
232, 2913330289, -63.65375900268555, -83.67963409423828, 120.32058715820312, 10.662906646728516, -0.6562121510505676, 0.11590054631233215, 3.9908134937286377, -0.7343857288360596, 1.27122163772583, -0.47607421875, 0.017578125, -0.9560546875, 0, 
233, 2913338622, -63.665199279785156, -83.68254852294922, 120.3248519897461, 9.611031532287598, -0.8586590886116028, 1.9480061531066895, 2.2222907543182373, -1.965674638748169, 0.8065922856330872, -0.47021484375, 0.0205078125, -0.96923828125, 0, 
234, 2913346955, -63.64638137817383, -83.68025207519531, 120.31976318359375, 9.389225959777832, -1.3775813579559326, -0.7710182070732117, 3.817085027694702, -1.5396589040756226, 1.306300401687622, -0.470703125, 0.01953125, -0.96826171875, 0, 
235, 2913355288, -63.69615173339844, -83.68065643310547, 120.36002349853516, 10.460461616516113, -0.7430819272994995, 1.4638526439666748, 1.9176865816116333, -2.269075632095337, 1.2726176977157593, -0.47216796875, 0.0166015625, -0.9619140625, 0, 
236, 2913363621, -63.64369583129883, -83.67957305908203, 120.30259704589844, 9.850976943969727, -0.4818277359008789, -0.4278734028339386, 3.244427442550659, -1.125220775604248, 0.9729568362236023, -0.47216796875, 0.0185546875, -0.9638671875, 0, 
237, 2913371954, -63.635833740234375, -83.68130493164062, 120.30169677734375, 9.268610954284668, -1.0128190517425537, 2.051241874694824, 3.7294583320617676, -1.8663686513900757, 0.9487256407737732, -0.47412109375, 0.01904296875, -0.970703125, 0, 
238, 2913380287, -63.69831848144531, -83.68267059326172, 120.36225128173828, 9.512675285339355, -1.3081212043762207, -1.163706660270691, 2.80863881111145, -2.5579142570495605, 1.2949402332305908, -0.47265625, 0.01708984375, -0.96484375, 0, 
239, 2913388620, -63.68254852294922, -83.6804428100586, 120.3515396118164, 10.97314739227295, -0.6404948234558105, 1.4765636920928955, 3.705662727355957, -1.5214471817016602, 1.2567881345748901, -0.47216796875, 0.015625, -0.95654296875, 0, 
240, 2913396953, -63.67359924316406, -83.68341827392578, 120.33671569824219, 9.777907371520996, -0.4443528950214386, 0.22112281620502472, 2.276337146759033, -1.7754124402999878, 0.7367934584617615, -0.47216796875, 0.02099609375, -0.9619140625, 0, 
241, 2913405286, -63.63329315185547, -83.68025207519531, 120.3052978515625, 9.264406204223633, -1.2384487390518188, 1.062453269958496, 4.186954021453857, -1.2201212644577026, 1.243110179901123, -0.47509765625, 0.02197265625, -0.97216796875, 0, 
242, 2913413619, -63.71924591064453, -83.68331909179688, 120.36958312988281, 9.839882850646973, -1.1099084615707397, 0.3591873347759247, 1.3338741064071655, -2.820998191833496, 1.2416115999221802, -0.47265625, 0.015625, -0.96484375, 0, 
243, 2913421952, -63.63736343383789, -83.67919921875, 120.29791259765625, 10.600515365600586, -0.4421943128108978, -0.19417035579681396, 4.157318592071533, -0.7176725268363953, 1.1493877172470093, -0.47119140625, 0.017578125, -0.95849609375, 0, 
244, 2913430285, -63.660743713378906, -83.68379211425781, 120.31472778320312, 9.515750885009766, -0.6212202906608582, 2.043409585952759, 2.2881195545196533, -2.2094454765319824, 0.6903548240661621, -0.47705078125, 0.02001953125, -0.9599609375, 0, 
245, 2913438618, -63.64956283569336, -83.6808090209961, 120.30799102783203, 9.248265266418457, -1.4236202239990234, -1.0852586030960083, 3.6378872394561768, -1.5255197286605835, 1.3669803142547607, -0.4814453125, 0.0166015625, -0.95556640625, 0, 
246, 2913446951, -63.67949295043945, -83.6806869506836, 120.33434295654297, 10.40013599395752, -0.9830776453018188, 1.6304652690887451, 1.6916664838790894, -2.018798589706421, 1.2773562669754028, -0.4814453125, 0.0146484375, -0.95361328125, 0, 
247, 2913455284, -63.65382766723633, -83.68083953857422, 120.31027221679688, 10.129775047302246, -0.6065483689308167, -0.39130836725234985, 3.3025455474853516, -1.4827693700790405, 0.9342278242111206, -0.478515625, 0.0166015625, -0.951171875, 0, 
248, 2913463617, -63.6521110534668, -83.68295288085938, 120.30158233642578, 9.497482299804688, -0.903037965297699, 2.150874376296997, 3.8187754154205322, -1.9754085540771484, 0.9342536926269531, -0.47802734375, 0.017578125, -0.9599609375, 0, 
249, 2913471950, -63.70947265625, -83.6834487915039, 120.35831451416016, 9.551498413085938, -1.0399733781814575, -1.3674665689468384, 2.9696884155273438, -2.4676108360290527, 1.3620367050170898, -0.4775390625, 0.01513671875, -0.95849609375, 0, 
250, 2913480283, -63.68644714355469, -83.68109130859375, 120.33815002441406, 10.545721054077148, -0.581819474697113, 1.6628608703613281, 3.6211609840393066, -1.4547220468521118, 1.2993332147598267, -0.47900390625, 0.01513671875, -0.9482421875, 0, 
251, 2913488616, -63.693729400634766, -83.68285369873047, 120.33879852294922, 9.661787033081055, -0.7432700991630554, 0.11988489329814911, 2.293088674545288, -1.8702106475830078, 0.8868672847747803, -0.47802734375, 0.01611328125, -0.95458984375, 0, 
252, 2913496949, -63.63800811767578, -83.67997741699219, 120.2907485961914, 9.376039505004883, -1.3436216115951538, 0.9522535800933838, 4.012214183807373, -1.0793198347091675, 1.1758984327316284, -0.47998046875, 0.01806640625, -0.96044921875, 0, 
253, 2913505282, -63.7265739440918, -83.68242645263672, 120.3648452758789, 10.26578140258789, -1.0431718826293945, 0.34652766585350037, 1.3506128787994385, -2.822598934173584, 1.336448311805725, -0.4775390625, 0.01513671875, -0.955078125, 0, 
254, 2913513615, -63.66344451904297, -83.67906951904297, 120.3078384399414, 10.580839157104492, -0.27914121747016907, 0.06223686784505844, 3.876278877258301, -0.9093181490898132, 1.1044857501983643, -0.47802734375, 0.015625, -0.9521484375, 0, 
255, 2913521948, -63.66889953613281, -83.68112182617188, 120.30934143066406, 9.230072021484375, -0.7941708564758301, 1.8313363790512085, 2.617544174194336, -1.884989857673645, 0.8870210647583008, -0.47607421875, 0.01708984375, -0.95703125, 0, 
256, 2913530281, -63.649715423583984, -83.67888641357422, 120.2995376586914, 9.071470260620117, -1.2948777675628662, -0.7576483488082886, 3.7274348735809326, -1.5264164209365845, 1.2940313816070557, -0.4775390625, 0.01708984375, -0.96435546875, 0, 
257, 2913538614, -63.69915008544922, -83.67906951904297, 120.34169006347656, 10.3948392868042, -1.0098931789398193, 1.4251437187194824, 2.183997869491577, -2.2748899459838867, 1.315547227859497, -0.4765625, 0.01513671875, -0.95458984375, 0, 
258, 2913546947, -63.67290115356445, -83.6789779663086, 120.31901550292969, 10.276278495788574, -0.6676636934280396, -0.37682560086250305, 2.994957447052002, -1.4836022853851318, 0.987390398979187, -0.47802734375, 0.01904296875, -0.95263671875, 0, 
259, 2913555280, -63.63619613647461, -83.6789779663086, 120.29122924804688, 9.585892677307129, -1.0468322038650513, 2.0053889751434326, 3.7940568923950195, -1.4327449798583984, 0.9722138047218323, -0.4775390625, 0.02001953125, -0.962890625, 0, 
260, 2913563613, -63.71233367919922, -83.68037414550781, 120.36357879638672, 9.552810668945312, -0.9905543923377991, -1.0558220148086548, 2.581223249435425, -2.7006242275238037, 1.3609867095947266, -0.478515625, 0.01708984375, -0.96337890625, 0, 
261, 2913571946, -63.69914245605469, -83.67823028564453, 120.35518646240234, 10.448187828063965, -0.5377307534217834, 1.565820574760437, 3.669008731842041, -1.5511339902877808, 1.2622696161270142, -0.47998046875, 0.01708984375, -0.95458984375, 0, 
262, 2913580279, -63.69831848144531, -83.6805648803711, 120.35240173339844, 9.517200469970703, -0.723190426826477, 0.2787330448627472, 2.6693618297576904, -1.875486969947815, 0.8766215443611145, -0.47705078125, 0.0185546875, -0.95849609375, 0, 
263, 2913588612, -63.64345932006836, -83.67845153808594, 120.30767822265625, 9.463679313659668, -1.2812563180923462, 0.7238497734069824, 4.3445844650268555, -1.1212503910064697, 1.0410906076431274, -0.4775390625, 0.021484375, -0.966796875, 0, 
264, 2913596945, -63.71359634399414, -83.68154907226562, 120.3646011352539, 10.2681884765625, -0.9947488903999329, 0.3853246867656708, 1.1012327671051025, -2.6120240688323975, 1.139167308807373, -0.474609375, 0.0166015625, -0.95849609375, 0, 
265, 2913605278, -63.64786911010742, -83.67739868164062, 120.30105590820312, 10.582063674926758, -0.5151937007904053, 0.11191737651824951, 3.4756722450256348, -0.8392632007598877, 1.2163944244384766, -0.4775390625, 0.01416015625, -0.9560546875, 0, 
266, 2913613611, -63.662254333496094, -83.68099975585938, 120.30835723876953, 9.333966255187988, -0.8740447759628296, 1.9344085454940796, 2.2311153411865234, -2.0382273197174072, 0.7477691769599915, -0.47509765625, 0.02197265625, -0.9677734375, 0, 
267, 2913621944, -63.643436431884766, -83.67839050292969, 120.29621887207031, 9.123480796813965, -1.3240246772766113, -0.7124473452568054, 3.9055051803588867, -1.4849724769592285, 1.2886778116226196, -0.47607421875, 0.0205078125, -0.96630859375, 0, 
268, 2913630277, -63.69900131225586, -83.68115234375, 120.34092712402344, 10.431131362915039, -0.694439709186554, 1.3008686304092407, 2.2227776050567627, -2.5254225730895996, 1.1537419557571411, -0.4755859375, 0.0146484375, -0.95849609375, 0, 
269, 2913638610, -63.65547180175781, -83.68031311035156, 120.29867553710938, 10.007673263549805, -0.4429987370967865, -0.4724017381668091, 3.282823085784912, -1.2192760705947876, 0.9227785468101501, -0.4765625, 0.0166015625, -0.96044921875, 0, 
270, 2913646943, -63.62627410888672, -83.68112182617188, 120.2527084350586, 9.454809188842773, -1.1048566102981567, 1.8289875984191895, 3.590808153152466, -1.5413750410079956, 0.9126095175743103, -0.4765625, 0.01953125, -0.96826171875, 0, 
271, 2913655276, -63.696807861328125, -83.68409729003906, 120.31784057617188, 9.593304634094238, -1.3418560028076172, -0.7828540802001953, 2.5665719509124756, -2.7647106647491455, 1.2162151336669922, -0.4775390625, 0.01806640625, -0.96630859375, 0, 
272, 2913663609, -63.6943359375, -83.6823959350586, 120.32199096679688, 10.853750228881836, -0.7063511610031128, 1.4608827829360962, 3.888305187225342, -1.722224473953247, 1.2950429916381836, -0.4775390625, 0.01953125, -0.96044921875, 0, 
273, 2913671942, -63.709129333496094, -83.68667602539062, 120.33010864257812, 9.767663955688477, -0.5023323893547058, 0.44999948143959045, 2.2830352783203125, -2.08789324760437, 0.6725401878356934, -0.47802734375, 0.01953125, -0.96728515625, 0, 
274, 2913680275, -63.643218994140625, -83.68376159667969, 120.2794418334961, 9.198664665222168, -1.0203512907028198, 0.6154970526695251, 4.948234558105469, -1.0469433069229126, 1.1668308973312378, -0.47705078125, 0.0244140625, -0.96875, 0, 
275, 2913688608, -63.72486114501953, -83.68559265136719, 120.3442611694336, 9.809181213378906, -0.8703509569168091, 0.4548631012439728, 1.0155788660049438, -2.631772756576538, 1.276100993156433, -0.47509765625, 0.0185546875, -0.96435546875, 0, 
276, 2913696941, -63.64475631713867, -83.68028259277344, 120.26005554199219, 10.602871894836426, -0.6456803679466248, -0.13254962861537933, 4.1006855964660645, -0.6639081835746765, 1.2759219408035278, -0.48095703125, 0.0166015625, -0.96142578125, 0, 
277, 2913705274, -63.65515899658203, -83.68478393554688, 120.26078033447266, 9.674206733703613, -1.0146887302398682, 2.1043882369995117, 1.9179171323776245, -2.051969289779663, 0.673782467842102, -0.47412109375, 0.02099609375, -0.97314453125, 0, 
278, 2913713607, -63.62945556640625, -83.68273162841797, 120.24301147460938, 9.426422119140625, -1.4217149019241333, -0.8985735177993774, 4.056654930114746, -1.4414539337158203, 1.2066864967346191, -0.47802734375, 0.021484375, -0.9716796875, 0, 
279, 2913721940, -63.698631286621094, -83.6842269897461, 120.299560546875, 10.424345970153809, -0.5906744599342346, 1.6085288524627686, 1.5308347940444946, -2.5124874114990234, 1.2674179077148438, -0.4794921875, 0.017578125, -0.96435546875, 0, 
280, 2913730273, -63.65666198730469, -83.68164825439453, 120.25688934326172, 9.853842735290527, -0.4149886965751648, -0.6153238415718079, 3.4996471405029297, -1.209619402885437, 1.1858621835708618, -0.47900390625, 0.01953125, -0.9638671875, 0, 
281, 2913738606, -63.665382385253906, -83.68413543701172, 120.2684326171875, 9.238542556762695, -1.0656554698944092, 2.1887264251708984, 3.4125075340270996, -2.0318620204925537, 0.8872770667076111, -0.4775390625, 0.02294921875, -0.97412109375, 0, 
282, 2913746939, -63.71338653564453, -83.68472290039062, 120.31598663330078, 9.381346702575684, -1.3593907356262207, -1.4045740365982056, 3.0968120098114014, -2.4197635650634766, 1.3606281280517578, -0.4794921875, 0.01806640625, -0.9716796875, 0, 
283, 2913755272, -63.71338653564453, -83.68325805664062, 120.31958770751953, 11.043201446533203, -0.6655675768852234, 1.7754461765289307, 3.580972909927368, -1.7736961841583252, 1.3374217748641968, -0.47802734375, 0.017578125, -0.962890625, 0, 
284, 2913763605, -63.704833984375, -83.68425750732422, 120.3044662475586, 9.922172546386719, -0.4855014383792877, -0.03764631599187851, 2.312991142272949, -1.6411426067352295, 0.8767496943473816, -0.47998046875, 0.02099609375, -0.9638671875, 0, 
285, 2913771938, -63.67500686645508, -83.6829833984375, 120.28538513183594, 9.173629760742188, -1.2560979127883911, 1.4365330934524536, 4.397106170654297, -1.4682334661483765, 1.1124902963638306, -0.47412109375, 0.02099609375, -0.970703125, 0, 
286, 2913780271, -63.78850173950195, -83.6866455078125, 120.3888168334961, 9.79673957824707, -1.1342203617095947, -0.028580596670508385, 1.427814245223999, -3.1943893432617188, 1.3518167734146118, -0.47998046875, 0.01611328125, -0.96923828125, 0, 
287, 2913788604, -63.717933654785156, -83.68121337890625, 120.328125, 10.619364738464355, -0.3863109350204468, 0.1077701672911644, 4.323529243469238, -0.7538910508155823, 1.311500072479248, -0.47509765625, 0.01953125, -0.96484375, 0, 
288, 2913796937, -63.75056838989258, -83.68608856201172, 120.34649658203125, 9.511900901794434, -0.5791053771972656, 1.8744666576385498, 2.050163507461548, -2.3529112339019775, 0.7701432704925537, -0.47412109375, 0.0234375, -0.97265625, 0, 
289, 2913805270, -63.70654296875, -83.68196105957031, 120.31001281738281, 9.233186721801758, -1.4299309253692627, -0.8885195851325989, 4.031014919281006, -1.1095192432403564, 1.3172377347946167, -0.47265625, 0.01953125, -0.9736328125, 0, 
290, 2913813603, -63.76252746582031, -83.68292236328125, 120.33700561523438, 10.390822410583496, -1.0527592897415161, 1.5136897563934326, 1.1275386810302734, -2.3298580646514893, 1.2781248092651367, -0.47314453125, 0.01708984375, -0.96826171875, 0, 
291, 2913821936, -63.722320556640625, -83.68040466308594, 120.30162811279297, 10.338846206665039, -0.5456672310829163, -0.5253716707229614, 3.7025628089904785, -1.2094656229019165, 1.1456221342086792, -0.47119140625, 0.01806640625, -0.96630859375, 0, 
292, 2913830269, -63.74212646484375, -83.6851577758789, 120.331298828125, 9.433626174926758, -0.8669691681861877, 2.4987854957580566, 3.1291885375976562, -2.3029885292053223, 0.7639957666397095, -0.4716796875, 0.0224609375, -0.9736328125, 0, 
293, 2913838602, -63.76320266723633, -83.68366241455078, 120.36700439453125, 9.201090812683105, -1.2186063528060913, -1.6078065633773804, 3.7141668796539307, -2.0437214374542236, 1.466952919960022, -0.474609375, 0.0185546875, -0.974609375, 0, 
294, 2913846935, -63.78109359741211, -83.68267059326172, 120.3859634399414, 10.491808891296387, -0.6528748869895935, 2.009446144104004, 3.201958656311035, -1.9416998624801636, 1.2915977239608765, -0.47412109375, 0.01513671875, -0.96240234375, 0, 
295, 2913855268, -63.778961181640625, -83.68307495117188, 120.37879180908203, 9.874251365661621, -0.5703549385070801, -0.5931020975112915, 2.494313955307007, -1.7012845277786255, 0.9964961409568787, -0.4736328125, 0.021484375, -0.96826171875, 0, 
296, 2913863601, -63.73062515258789, -83.68128204345703, 120.33800506591797, 9.434159278869629, -1.2734713554382324, 1.7368985414505005, 4.168102264404297, -1.23992121219635, 1.113245964050293, -0.47216796875, 0.02294921875, -0.97216796875, 0, 
297, 2913871934, -63.842071533203125, -83.68431854248047, 120.43799591064453, 10.088663101196289, -1.260251760482788, -0.4136616289615631, 1.6358016729354858, -3.1203129291534424, 1.3416733741760254, -0.47314453125, 0.0185546875, -0.9638671875, 0, 
298, 2913880267, -63.791236877441406, -83.68115234375, 120.39593505859375, 10.7170991897583, -0.4428515136241913, 0.8247338533401489, 4.219433307647705, -1.1376947164535522, 1.2564553022384644, -0.47265625, 0.01708984375, -0.95849609375, 0, 
299, 2913888600, -63.7961311340332, -83.68534088134766, 120.39665985107422, 9.351216316223145, -0.5131070613861084, 1.0947471857070923, 2.1324620246887207, -1.999460220336914, 0.6670715808868408, -0.474609375, 0.021484375, -0.9658203125, 0, 
300, 2913896933, -63.738555908203125, -83.6808090209961, 120.35164642333984, 8.998739242553711, -1.2280645370483398, -0.11233779788017273, 4.64030122756958, -0.9889529347419739, 1.303892731666565, -0.4736328125, 0.0185546875, -0.96875, 0, 
301, 2913905266, -63.83932876586914, -83.68397521972656, 120.4360580444336, 10.187378883361816, -1.0776536464691162, 0.8221104145050049, 1.0559214353561401, -2.9362497329711914, 1.24382746219635, -0.4755859375, 0.0166015625, -0.96240234375, 0, 
302, 2913913599, -63.76207733154297, -83.67959594726562, 120.36746978759766, 10.637859344482422, -0.6057561039924622, -0.3485410213470459, 3.8805949687957764, -0.7293909192085266, 1.1998603343963623, -0.47607421875, 0.01904296875, -0.95751953125, 0, 
303, 2913921932, -63.76218795776367, -83.68276977539062, 120.36144256591797, 9.750307083129883, -0.826259434223175, 2.3844971656799316, 2.359762668609619, -1.8587608337402344, 0.7125624418258667, -0.46826171875, 0.02197265625, -0.97705078125, 0, 
304, 2913930265, -63.75139617919922, -83.68090057373047, 120.35993194580078, 9.212756156921387, -1.2882230281829834, -1.226449728012085, 3.6619648933410645, -1.6295905113220215, 1.3313511610031128, -0.4755859375, 0.01806640625, -0.96728515625, 0, 
305, 2913938598, -63.7739143371582, -83.68065643310547, 120.3790512084961, 10.210000038146973, -0.7240115404129028, 1.849914789199829, 2.6555044651031494, -2.028532028198242, 1.2693901062011719, -0.47412109375, 0.01513671875, -0.95751953125, 0, 
306, 2913946931, -63.75086975097656, -83.68052673339844, 120.35726165771484, 9.904318809509277, -0.5301333069801331, -0.6323431134223938, 3.2627153396606445, -1.4965500831604004, 0.974672794342041, -0.470703125, 0.017578125, -0.9638671875, 0, 
307, 2913955264, -63.73453140258789, -83.68186950683594, 120.3506088256836, 9.396082878112793, -1.0611642599105835, 1.9233320951461792, 4.257368087768555, -1.7533586025238037, 0.9082295894622803, -0.46923828125, 0.01904296875, -0.96826171875, 0, 
308, 2913963597, -63.822784423828125, -83.68409729003906, 120.42686462402344, 9.97520923614502, -1.1738693714141846, -0.9303281307220459, 2.3288588523864746, -2.9039881229400635, 1.4005478620529175, -0.4736328125, 0.01708984375, -0.96337890625, 0, 
309, 2913971930, -63.77950668334961, -83.6805648803711, 120.38880920410156, 10.695228576660156, -0.5412232875823975, 1.3401908874511719, 3.747772216796875, -1.1256047487258911, 1.2343498468399048, -0.47314453125, 0.01708984375, -0.9580078125, 0, 
310, 2913980263, -63.78115463256836, -83.68413543701172, 120.38965606689453, 9.608526229858398, -0.648609459400177, 0.6944268345832825, 2.2275164127349854, -1.9267925024032593, 0.7433507442474365, -0.47314453125, 0.01953125, -0.9619140625, 0, 
311, 2913988596, -63.7318000793457, -83.68031311035156, 120.35205841064453, 9.126132011413574, -1.3240305185317993, 0.6233863234519958, 4.446964263916016, -1.1554453372955322, 1.3137540817260742, -0.47265625, 0.01904296875, -0.96923828125, 0, 
312, 2913996929, -63.81937026977539, -83.68441009521484, 120.42461395263672, 10.147380828857422, -1.0441491603851318, 0.45963823795318604, 1.2193658351898193, -2.8427064418792725, 1.0776678323745728, -0.4736328125, 0.01611328125, -0.9619140625, 0, 
313, 2914005262, -63.72118377685547, -83.67945098876953, 120.33273315429688, 10.473115921020508, -0.30715084075927734, -0.30775269865989685, 3.932950258255005, -0.40647226572036743, 1.0797808170318604, -0.47314453125, 0.017578125, -0.9609375, 0, 
314, 2914013595, -63.7271614074707, -83.68220520019531, 120.3297119140625, 9.506778717041016, -0.8198099136352539, 2.1376967430114746, 2.435593605041504, -1.9566715955734253, 0.8578848242759705, -0.4716796875, 0.01953125, -0.9677734375, 0, 
315, 2914021928, -63.73457336425781, -83.67963409423828, 120.33949279785156, 9.212895393371582, -1.5289438962936401, -1.0154683589935303, 3.3665812015533447, -1.7490038871765137, 1.4125224351882935, -0.47265625, 0.0185546875, -0.96923828125, 0, 
316, 2914030261, -63.761436462402344, -83.67922973632812, 120.36719512939453, 10.507972717285156, -1.0250171422958374, 1.6463323831558228, 2.584988832473755, -2.0573737621307373, 1.3332722187042236, -0.47509765625, 0.01513671875, -0.958984375, 0, 
317, 2914038594, -63.752384185791016, -83.68174743652344, 120.34443664550781, 10.156867027282715, -0.38268357515335083, -0.37412169575691223, 2.9692788124084473, -1.812424898147583, 0.823523223400116, -0.4716796875, 0.01904296875, -0.9609375, 0, 
318, 2914046927, -63.73543167114258, -83.68304443359375, 120.33795166015625, 9.287516593933105, -0.8619006276130676, 1.822439193725586, 4.353293418884277, -1.754536747932434, 0.9150686264038086, -0.47314453125, 0.0205078125, -0.96630859375, 0, 
319, 2914055260, -63.80125045776367, -83.68341827392578, 120.3988037109375, 9.488739967346191, -1.0108643770217896, -0.9854758977890015, 2.4427528381347656, -2.510566234588623, 1.3989982604980469, -0.4755859375, 0.0205078125, -0.9658203125, 0, 
320, 2914063593, -63.7607307434082, -83.68046569824219, 120.36251068115234, 10.59985637664795, -0.7013847827911377, 1.4259140491485596, 3.9622914791107178, -1.2534455060958862, 1.2670080661773682, -0.4765625, 0.015625, -0.9560546875, 0, 
321, 2914071926, -63.78315353393555, -83.68317413330078, 120.37592315673828, 9.859930038452148, -0.7586603760719299, 0.475555419921875, 2.0002667903900146, -2.066723108291626, 0.8740088939666748, -0.4716796875, 0.01806640625, -0.962890625, 0, 
322, 2914080259, -63.733787536621094, -83.67993927001953, 120.3430404663086, 9.525847434997559, -1.3389610052108765, 0.6832599639892578, 4.332520008087158, -1.1778833866119385, 1.2545597553253174, -0.47314453125, 0.017578125, -0.966796875, 0, 
323, 2914088592, -63.82012176513672, -83.68186950683594, 120.4179458618164, 10.137517929077148, -0.8417981863021851, 0.4462697505950928, 1.1948529481887817, -2.7545166015625, 1.3665708303451538, -0.4755859375, 0.0166015625, -0.96337890625, 0, 
324, 2914096925, -63.759796142578125, -83.67823028564453, 120.36346435546875, 10.236472129821777, -0.3606126606464386, 0.05507726967334747, 3.843902349472046, -0.9248660206794739, 1.151206135749817, -0.47216796875, 0.01611328125, -0.96044921875, 0, 
325, 2914105258, -63.780540466308594, -83.68136596679688, 120.37870025634766, 9.20048713684082, -0.9311830997467041, 1.857121229171753, 2.4193153381347656, -2.1155433654785156, 0.8296962380409241, -0.47216796875, 0.02197265625, -0.96875, 0, 
326, 2914113591, -63.77554702758789, -83.67953491210938, 120.38015747070312, 9.288763046264648, -1.472228765487671, -1.0360556840896606, 3.6628737449645996, -1.7085206508636475, 1.3448370695114136, -0.4736328125, 0.0205078125, -0.97021484375, 0, 
327, 2914121924, -63.82908248901367, -83.67993927001953, 120.42850494384766, 10.729620933532715, -0.8516799211502075, 1.5499988794326782, 2.431713104248047, -2.3612353801727295, 1.3283799886703491, -0.4736328125, 0.015625, -0.9619140625, 0, 
328, 2914130257, -63.806800842285156, -83.6806869506836, 120.39591979980469, 10.243898391723633, -0.44066083431243896, -0.3782194256782532, 2.98905348777771, -1.557153582572937, 0.9484183192253113, -0.47314453125, 0.01904296875, -0.96240234375, 0, 
329, 2914138590, -63.77769088745117, -83.67953491210938, 120.37367248535156, 9.219865798950195, -1.0619380474090576, 1.9364981651306152, 3.9332964420318604, -1.4409416913986206, 1.0712385177612305, -0.470703125, 0.01904296875, -0.97265625, 0, 
330, 2914146923, -63.854061126708984, -83.68248748779297, 120.44422912597656, 9.433598518371582, -1.2172024250030518, -0.7787294387817383, 2.4038186073303223, -2.808408498764038, 1.252459168434143, -0.47119140625, 0.0166015625, -0.96533203125, 0, 
331, 2914155256, -63.83639144897461, -83.67991638183594, 120.43657684326172, 10.676841735839844, -0.6526457071304321, 1.202589750289917, 4.302012920379639, -1.54096519947052, 1.3047891855239868, -0.47216796875, 0.01904296875, -0.9560546875, 0, 
332, 2914163589, -63.84418869018555, -83.68472290039062, 120.44689178466797, 9.702631950378418, -0.582603394985199, 0.7784134149551392, 2.4563794136047363, -2.0908772945404053, 0.661820650100708, -0.47509765625, 0.02197265625, -0.962890625, 0, 
333, 2914171922, -63.77726745605469, -83.68096160888672, 120.39140319824219, 9.37726879119873, -1.2851507663726807, 0.18049046397209167, 4.520246505737305, -0.9446401596069336, 1.2346317768096924, -0.47216796875, 0.01904296875, -0.97021484375, 0, 
334, 2914180255, -63.836280822753906, -83.68245697021484, 120.436767578125, 10.1682710647583, -1.218985915184021, 0.6570895314216614, 1.4101660251617432, -2.386183738708496, 1.1903959512710571, -0.47265625, 0.0146484375, -0.96044921875, 0, 
335, 2914188588, -63.76495361328125, -83.68018341064453, 120.37805938720703, 10.443158149719238, -0.8040791749954224, -0.02310776151716709, 4.658076763153076, -0.9449731111526489, 0.9830742478370667, -0.47412109375, 0.01611328125, -0.9609375, 0, 
336, 2914196921, -63.783843994140625, -83.68748474121094, 120.37980651855469, 9.410043716430664, -0.756525456905365, 2.1446456909179688, 3.254236936569214, -2.4319560527801514, 0.47988268733024597, -0.474609375, 0.01806640625, -0.97021484375, 0, 
337, 2914205254, -63.754066467285156, -83.68695831298828, 120.3663101196289, 9.229345321655273, -1.1615657806396484, -1.3258790969848633, 5.061373233795166, -1.5756468772888184, 1.066038727760315, -0.47265625, 0.0185546875, -0.96630859375, 0, 
338, 2914213587, -63.74874496459961, -83.68953704833984, 120.36652374267578, 10.448866844177246, -0.8385064601898193, 1.666395902633667, 3.6405770778656006, -1.9358344078063965, 0.8677847385406494, -0.47265625, 0.01708984375, -0.96240234375, 0, 
339, 2914221920, -63.69316101074219, -83.69124603271484, 120.31945037841797, 9.920846939086914, -0.7629898190498352, -0.4959626793861389, 4.207202434539795, -1.341238260269165, 0.6896249651908875, -0.470703125, 0.0205078125, -0.96044921875, 0, 
340, 2914230253, -63.68947982788086, -83.69733428955078, 120.3325424194336, 9.471814155578613, -1.0958834886550903, 2.1025702953338623, 5.098257541656494, -2.2437684535980225, 0.5124896168708801, -0.47998046875, 0.01611328125, -0.9599609375, 0, 
341, 2914238586, -63.75193405151367, -83.7025375366211, 120.40865325927734, 9.994091033935547, -0.9490877985954285, -0.9423485994338989, 4.664095878601074, -2.940859794616699, 0.9829717874526978, -0.47900390625, 0.01513671875, -0.94970703125, 0, 
342, 2914246919, -63.68450164794922, -83.7018814086914, 120.36511993408203, 10.392295837402344, -0.6286546587944031, 1.415367841720581, 5.367834568023682, -1.1964921951293945, 0.9297069907188416, -0.4833984375, 0.01416015625, -0.943359375, 0, 
343, 2914255252, -63.66411209106445, -83.70680236816406, 120.34965515136719, 9.411865234375, -0.7691399455070496, 0.44011828303337097, 3.689269542694092, -1.8387819528579712, 0.47327423095703125, -0.4814453125, 0.01806640625, -0.95166015625, 0, 
344, 2914263585, -63.63058090209961, -83.71004486083984, 120.32069396972656, 9.418155670166016, -1.0436463356018066, 0.6094661951065063, 5.730648517608643, -1.8400115966796875, 0.72654789686203, -0.4814453125, 0.017578125, -0.95458984375, 0, 
345, 2914271918, -63.67438507080078, -83.7143783569336, 120.36610412597656, 10.348199844360352, -0.984881579875946, 0.2904191315174103, 3.3539280891418457, -2.5884597301483154, 0.953131377696991, -0.48291015625, 0.01123046875, -0.9462890625, 0, 
346, 2914280251, -63.57677459716797, -83.71247100830078, 120.28675079345703, 10.26374340057373, -0.6640506386756897, 0.03361928090453148, 5.3458452224731445, -0.7193886637687683, 0.830900251865387, -0.4794921875, 0.015625, -0.947265625, 0, 
347, 2914288584, -63.601078033447266, -83.72071075439453, 120.31900024414062, 9.496519088745117, -1.1109976768493652, 2.0125083923339844, 4.0195393562316895, -2.5855393409729004, 0.39246129989624023, -0.47998046875, 0.01708984375, -0.95703125, 0, 
348, 2914296917, -63.58149337768555, -83.72352600097656, 120.32447814941406, 9.682324409484863, -1.2025883197784424, -0.8137263655662537, 6.050684452056885, -2.017198085784912, 0.8723312616348267, -0.48193359375, 0.015625, -0.95947265625, 0, 
349, 2914305250, -63.593807220458984, -83.72640228271484, 120.34467315673828, 10.330097198486328, -0.5832496881484985, 1.3656630516052246, 4.022369861602783, -2.156052589416504, 0.8974074721336365, -0.48095703125, 0.0126953125, -0.9482421875, 0, 
350, 2914313583, -63.520240783691406, -83.72798919677734, 120.28875732421875, 9.544553756713867, -0.6303840279579163, -0.4753122925758362, 5.11383056640625, -1.2179183959960938, 0.6436088681221008, -0.478515625, 0.01513671875, -0.95556640625, 0, 
351, 2914321916, -63.523963928222656, -83.73631286621094, 120.31015014648438, 9.392580032348633, -1.1747606992721558, 2.1059670448303223, 5.268566131591797, -2.5038042068481445, 0.39717426896095276, -0.48095703125, 0.01904296875, -0.9580078125, 0, 
352, 2914330249, -63.55449295043945, -83.74116516113281, 120.35942077636719, 10.160623550415039, -1.1404290199279785, -1.3192516565322876, 5.299200057983398, -2.6060049533843994, 0.8533381819725037, -0.48193359375, 0.01318359375, -0.955078125, 0, 
353, 2914338582, -63.50193786621094, -83.74188232421875, 120.32752227783203, 10.661163330078125, -0.6248511672019958, 1.6233241558074951, 5.602525234222412, -1.4250863790512085, 0.8259310126304626, -0.48046875, 0.01513671875, -0.9501953125, 0, 
354, 2914346915, -63.49103546142578, -83.74916076660156, 120.32566833496094, 9.449623107910156, -0.8019309043884277, 0.48356035351753235, 4.388550758361816, -2.1954987049102783, 0.3658609688282013, -0.478515625, 0.0185546875, -0.9638671875, 0, 
355, 2914355248, -63.465824127197266, -83.75226593017578, 120.32969665527344, 9.418352127075195, -1.1828339099884033, 0.9723248481750488, 6.592386722564697, -1.9694656133651733, 0.795091450214386, -0.47998046875, 0.01904296875, -0.962890625, 0, 
356, 2914363581, -63.480228424072266, -83.7564697265625, 120.36344909667969, 10.093990325927734, -0.9649197459220886, -0.07360430061817169, 4.322581768035889, -2.324197292327881, 0.850213348865509, -0.48046875, 0.013671875, -0.95654296875, 0, 
357, 2914371914, -63.351112365722656, -83.75565338134766, 120.25762939453125, 10.055561065673828, -0.37312373518943787, 0.12145352363586426, 6.1080217361450195, -0.5393973588943481, 0.6048032641410828, -0.4814453125, 0.01171875, -0.953125, 0, 
358, 2914380247, -63.37687683105469, -83.76602935791016, 120.29345703125, 9.375628471374512, -0.9586793780326843, 1.830155611038208, 4.267664432525635, -2.7355618476867676, 0.19868962466716766, -0.48046875, 0.017578125, -0.9619140625, 0, 
359, 2914388580, -63.36580276489258, -83.77081298828125, 120.3133316040039, 9.75515365600586, -1.4167059659957886, -0.7270680665969849, 6.789770603179932, -2.2526824474334717, 0.6955546140670776, -0.4814453125, 0.01708984375, -0.95751953125, 0, 
360, 2914396913, -63.360679626464844, -83.77511596679688, 120.31884002685547, 10.67318058013916, -0.8620233535766602, 1.3627671003341675, 4.937451362609863, -2.1603686809539795, 0.7448362708091736, -0.4814453125, 0.01611328125, -0.95263671875, 0, 
361, 2914405246, -63.296058654785156, -83.77824401855469, 120.27482604980469, 9.700223922729492, -0.5505586266517639, -0.3955872654914856, 5.601090908050537, -1.4156603813171387, 0.49399617314338684, -0.48046875, 0.0166015625, -0.95654296875, 0, 
362, 2914413579, -63.29402542114258, -83.78646850585938, 120.30358123779297, 9.440828323364258, -0.9261782765388489, 2.2492361068725586, 6.419951438903809, -2.555647373199463, 0.4172046482563019, -0.48046875, 0.01953125, -0.96435546875, 0, 
363, 2914421912, -63.33281326293945, -83.79048156738281, 120.36038208007812, 9.800498008728027, -1.0129321813583374, -1.3611631393432617, 5.84916353225708, -2.742913007736206, 1.095341444015503, -0.48486328125, 0.01806640625, -0.96142578125, 0, 
364, 2914430245, -63.35832977294922, -83.77546691894531, 120.41719055175781, 10.342965126037598, -0.28777116537094116, 1.2568811178207397, 6.801144123077393, -1.6220601797103882, 3.028346061706543, -0.48291015625, 0.01611328125, -0.95263671875, 0, 
365, 2914438578, -63.55311584472656, -83.74079132080078, 120.63504791259766, 9.807428359985352, 1.290263056755066, 0.3745327293872833, 5.686872482299805, -2.479419469833374, 6.060839653015137, -0.48193359375, 0.01708984375, -0.9609375, 0, 
366, 2914446911, -63.65114974975586, -83.72084045410156, 120.76748657226562, 10.546476364135742, -1.2381378412246704, 1.1171797513961792, 7.645605564117432, -2.3749260902404785, 4.062429904937744, -0.48291015625, 0.02099609375, -0.96240234375, 0, 
367, 2914455244, -63.90835952758789, -83.67768096923828, 121.03549194335938, 9.493648529052734, -2.2585361003875732, -0.1453969031572342, 4.16929292678833, -2.678455114364624, 7.267641544342041, -0.48046875, 0.015625, -0.95947265625, 0, 
368, 2914463577, -63.95705795288086, -83.64177703857422, 121.11299896240234, 9.774566650390625, -0.025408076122403145, 0.5275951027870178, 8.00615119934082, -1.0017982721328735, 5.528793811798096, -0.48046875, 0.01806640625, -0.9541015625, 0, 
369, 2914471910, -64.00094604492188, -83.66129302978516, 121.17033386230469, 9.456311225891113, -2.431734561920166, 1.49335515499115, 4.658653259277344, -3.473111391067505, -0.6682754158973694, -0.482421875, 0.0224609375, -0.96484375, 0, 
370, 2914480243, -63.98020553588867, -83.64091491699219, 121.18743133544922, 9.352864265441895, -1.847705602645874, -0.739971935749054, 7.705171585083008, -0.9561408758163452, 3.4307448863983154, -0.484375, 0.01806640625, -0.96533203125, 0, 
371, 2914488576, -64.09707641601562, -83.63228607177734, 121.33426666259766, 10.804715156555176, 1.2454607486724854, 1.5003114938735962, 6.5613179206848145, -3.0799458026885986, 2.8772988319396973, -0.484375, 0.01416015625, -0.9541015625, 0, 
372, 2914496909, -64.1606216430664, -83.61567687988281, 121.42362213134766, 9.918726921081543, -0.5492545366287231, -1.0034865140914917, 6.399972915649414, -2.0512776374816895, 3.4558472633361816, -0.48486328125, 0.0166015625, -0.953125, 0, 
373, 2914505242, -64.35250854492188, -83.57294464111328, 121.65019226074219, 9.843911170959473, 0.25861579179763794, 2.42997407913208, 7.470904350280762, -2.384211540222168, 7.090123176574707, -0.4814453125, 0.02197265625, -0.96337890625, 0, 
374, 2914513575, -64.5559310913086, -83.53631591796875, 121.88153076171875, 9.993314743041992, -0.9848352074623108, -0.7911971211433411, 6.242651462554932, -2.709717273712158, 6.378944396972656, -0.4833984375, 0.01806640625, -0.96044921875, 0, 
375, 2914521908, -64.66630554199219, -83.4912109375, 122.03778839111328, 10.023711204528809, -1.7671011686325073, 1.1456495523452759, 8.472037315368652, -1.3806970119476318, 6.866306781768799, -0.48486328125, 0.01708984375, -0.9521484375, 0, 
376, 2914530241, -64.85355377197266, -83.46184539794922, 122.24662780761719, 9.287582397460938, -0.6013662219047546, 0.4099801480770111, 5.58445405960083, -2.9215593338012695, 5.523056507110596, -0.48486328125, 0.01806640625, -0.95556640625, 0, 
377, 2914538574, -64.82762908935547, -83.46025085449219, 122.2624740600586, 9.456515312194824, -2.394029378890991, 0.9191262125968933, 8.090102195739746, -1.8765370845794678, 1.3618062734603882, -0.48681640625, 0.0224609375, -0.9599609375, 0, 
378, 2914546907, -64.96082305908203, -83.44285583496094, 122.43730163574219, 10.288087844848633, -1.7071646451950073, 0.3165261149406433, 7.793081283569336, -3.095160961151123, 4.034165859222412, -0.4853515625, 0.01806640625, -0.958984375, 0, 
379, 2914555240, -64.99251556396484, -83.41536712646484, 122.51496124267578, 10.07129955291748, 1.4535387754440308, 0.27475497126579285, 8.48025894165039, -1.3830022811889648, 4.576674461364746, -0.48486328125, 0.0126953125, -0.95458984375, 0, 
380, 2914563573, -65.15193176269531, -83.39517974853516, 122.70115661621094, 9.940204620361328, -0.12178695201873779, 1.1584478616714478, 6.138913631439209, -3.093111276626587, 4.351833343505859, -0.484375, 0.0224609375, -0.95947265625, 0, 
381, 2914571906, -65.41757202148438, -83.32984924316406, 123.01131439208984, 9.797797203063965, -0.8876102566719055, 0.4145423471927643, 8.161746978759766, -2.4375662803649902, 9.976131439208984, -0.4892578125, 0.01708984375, -0.9580078125, 0, 
382, 2914580239, -65.68049621582031, -83.26996612548828, 123.31746673583984, 10.132648468017578, 0.0052922009490430355, 0.2835269570350647, 8.333515167236328, -2.811380386352539, 9.449322700500488, -0.48828125, 0.01611328125, -0.94775390625, 0, 
383, 2914588572, -65.79389953613281, -83.21713256835938, 123.47666931152344, 9.925325393676758, -1.3586064577102661, -0.06044728681445122, 8.443233489990234, -1.2385507822036743, 7.755849838256836, -0.48583984375, 0.02099609375, -0.951171875, 0, 
384, 2914596905, -66.0159912109375, -83.170654296875, 123.72779846191406, 9.503475189208984, -2.046187400817871, 1.7644857168197632, 6.7664618492126465, -2.8678340911865234, 7.695771217346191, -0.48388671875, 0.02783203125, -0.9599609375, 0, 
385, 2914605238, -66.17171478271484, -83.13170623779297, 123.93304443359375, 9.41242790222168, -1.5623255968093872, -0.1133725717663765, 8.934603691101074, -2.6348726749420166, 6.594565391540527, -0.482421875, 0.02392578125, -0.9658203125, 0, 
386, 2914613571, -66.36575317382812, -83.08193969726562, 124.18241882324219, 10.48063850402832, 0.0044172084890306, 0.8028808832168579, 9.493943214416504, -2.680107355117798, 7.983830451965332, -0.4833984375, 0.02197265625, -0.95751953125, 0, 
387, 2914621904, -66.56373596191406, -83.01908111572266, 124.42453002929688, 10.002510070800781, 0.7866888046264648, -0.38015276193618774, 8.160234451293945, -2.0108842849731445, 9.3701753616333, -0.4814453125, 0.0205078125, -0.95849609375, 0, 
388, 2914630237, -66.8211898803711, -82.94754028320312, 124.73348999023438, 9.709087371826172, -0.44995903968811035, 1.8995376825332642, 8.848772048950195, -2.599012851715088, 10.787923812866211, -0.4853515625, 0.02490234375, -0.96826171875, 0, 
389, 2914638570, -67.19332122802734, -82.85568237304688, 125.15460205078125, 10.01427173614502, -0.8272515535354614, -0.4254782199859619, 8.554747581481934, -3.262908935546875, 13.628186225891113, -0.4814453125, 0.0263671875, -0.96923828125, 0, 
390, 2914646903, -67.45465850830078, -82.76226043701172, 125.47265625, 10.139479637145996, -0.721396803855896, 0.7895156741142273, 9.5492582321167, -1.9392797946929932, 13.278205871582031, -0.48193359375, 0.02197265625, -0.95703125, 0, 
391, 2914655236, -67.73234558105469, -82.68804931640625, 125.79368591308594, 9.483266830444336, -1.3826838731765747, 0.44074559211730957, 7.9766082763671875, -2.960942506790161, 11.224238395690918, -0.48193359375, 0.0263671875, -0.96337890625, 0, 
392, 2914663569, -67.98046875, -82.60750579833984, 126.09883117675781, 9.633648872375488, -1.8944091796875, 1.429306149482727, 9.613049507141113, -2.5035996437072754, 11.758344650268555, -0.48046875, 0.02978515625, -0.96923828125, 0, 
393, 2914671902, -68.31194305419922, -82.521728515625, 126.49347686767578, 10.171916007995605, -0.35788118839263916, -0.12039349973201752, 10.244108200073242, -3.6681509017944336, 12.885523796081543, -0.486328125, 0.0224609375, -0.96240234375, 0, 
394, 2914680235, -68.54957580566406, -82.42625427246094, 126.787109375, 10.312884330749512, 0.6975312232971191, 0.11459672451019287, 9.483390808105469, -1.930506944656372, 13.451678276062012, -0.48193359375, 0.02197265625, -0.9580078125, 0, 
395, 2914688568, -68.9012451171875, -82.3240737915039, 127.18267059326172, 9.67737865447998, -0.45069649815559387, 1.4349777698516846, 7.916208744049072, -3.2338361740112305, 14.752239227294922, -0.48193359375, 0.02880859375, -0.96630859375, 0, 
396, 2914696901, -69.23159790039062, -82.20855712890625, 127.5697250366211, 9.661478042602539, -1.2509291172027588, 0.24636965990066528, 9.413028717041016, -2.734384298324585, 16.282665252685547, -0.4814453125, 0.0205078125, -0.96875, 0, 
397, 2914705234, -69.59538269042969, -82.09147644042969, 127.99716186523438, 10.259964942932129, -1.1224374771118164, 0.3606163263320923, 10.185529708862305, -3.4725868701934814, 16.723180770874023, -0.4853515625, 0.02587890625, -0.9609375, 0, 
398, 2914713567, -69.86141967773438, -81.97057342529297, 128.32257080078125, 9.88032054901123, -0.5234493017196655, -0.050304826349020004, 9.83242416381836, -1.8592097759246826, 16.52001953125, -0.4833984375, 0.02587890625, -0.95947265625, 0, 
399, 2914721900, -70.18448638916016, -81.85958862304688, 128.69842529296875, 9.450984001159668, -1.375357985496521, 2.147998094558716, 8.958222389221191, -3.2217466831207275, 15.723199844360352, -0.4794921875, 0.0283203125, -0.96826171875, 0, 
400, 2914730233, -70.51271057128906, -81.73240661621094, 129.09437561035156, 9.68527889251709, -1.1912401914596558, -0.5583798289299011, 10.612468719482422, -3.093266248703003, 17.74941635131836, -0.482421875, 0.03076171875, -0.96728515625, 0, 
401, 2914738566, -70.88091278076172, -81.5938949584961, 129.53062438964844, 10.439314842224121, 0.29928943514823914, 0.7133777737617493, 10.682907104492188, -3.485445737838745, 19.223312377929688, -0.4814453125, 0.02734375, -0.9609375, 0, 
402, 2914746899, -71.18240356445312, -81.45284271240234, 129.88999938964844, 9.999109268188477, -0.16469843685626984, -0.16641046106815338, 9.573811531066895, -2.364720106124878, 19.174184799194336, -0.48193359375, 0.02587890625, -0.9609375, 0, 
403, 2914755232, -71.53394317626953, -81.30654907226562, 130.3028564453125, 9.499298095703125, -1.735353708267212, 1.716472864151001, 9.878186225891113, -3.2781755924224854, 20.11067008972168, -0.47998046875, 0.03564453125, -0.970703125, 0, 
404, 2914763565, -71.91301727294922, -81.14884948730469, 130.74891662597656, 9.661259651184082, -1.50701105594635, -0.24351586401462555, 10.488316535949707, -3.6327531337738037, 21.557283401489258, -0.48193359375, 0.03076171875, -0.96435546875, 0, 
405, 2914771898, -72.21770477294922, -80.98789978027344, 131.12509155273438, 10.222609519958496, -0.5643764734268188, 0.31602898240089417, 11.108464241027832, -2.5262181758880615, 21.576112747192383, -0.47998046875, 0.02880859375, -0.955078125, 0, 
406, 2914780231, -72.55233001708984, -80.82987976074219, 131.53146362304688, 9.70579719543457, -0.5936287045478821, 0.8928524255752563, 11.06297492980957, -3.4592175483703613, 21.493532180786133, -0.48095703125, 0.03466796875, -0.96630859375, 0, 
407, 2914788564, -72.901123046875, -80.66019439697266, 131.9468536376953, 9.362399101257324, -1.4489500522613525, 1.014418125152588, 10.414881706237793, -3.416287660598755, 22.86312484741211, -0.47998046875, 0.03125, -0.9716796875, 0, 
408, 2914796897, -73.27519989013672, -80.48035430908203, 132.39614868164062, 10.125998497009277, -0.8852711319923401, -0.3222472667694092, 11.357551574707031, -4.023768424987793, 24.299562454223633, -0.4794921875, 0.0322265625, -0.96240234375, 0, 
409, 2914805230, -73.56653594970703, -80.28716278076172, 132.75775146484375, 10.160139083862305, -0.12375704944133759, 0.5258857607841492, 10.879935264587402, -2.173945426940918, 25.39376449584961, -0.48046875, 0.03271484375, -0.95849609375, 0, 
410, 2914813563, -73.93746948242188, -80.10316467285156, 133.19284057617188, 9.574734687805176, -1.6418700218200684, 0.8600793480873108, 10.017094612121582, -4.16519832611084, 24.712377548217773, -0.48193359375, 0.041015625, -0.9716796875, 0, 
411, 2914821896, -74.25313568115234, -79.9025650024414, 133.58538818359375, 9.648688316345215, -1.752476453781128, 0.8908684253692627, 11.591602325439453, -3.0761311054229736, 26.414648056030273, -0.478515625, 0.0341796875, -0.96484375, 0, 
412, 2914830229, -74.6325454711914, -79.6955795288086, 134.0425262451172, 9.769145965576172, -0.9226598143577576, -0.15894562005996704, 11.519820213317871, -4.543021202087402, 27.637819290161133, -0.47998046875, 0.037109375, -0.95654296875, 0, 
413, 2914838562, -74.93567657470703, -79.48439025878906, 134.42311096191406, 10.19131851196289, -0.2341357320547104, 0.2665625512599945, 11.602131843566895, -3.150770902633667, 27.72684097290039, -0.47802734375, 0.03662109375, -0.95849609375, 0, 
414, 2914846895, -75.27123260498047, -79.26531219482422, 134.83102416992188, 9.501214027404785, -1.710896611213684, 1.5726608037948608, 10.930703163146973, -3.7671520709991455, 28.748031616210938, -0.482421875, 0.04052734375, -0.96484375, 0, 
415, 2914855228, -75.61827850341797, -79.03258514404297, 135.26068115234375, 9.75953197479248, -1.6737160682678223, -0.1365641951560974, 12.073589324951172, -4.18143892288208, 30.50100326538086, -0.484375, 0.04052734375, -0.95947265625, 0, 
416, 2914863561, -75.94135284423828, -78.79798889160156, 135.66526794433594, 10.424782752990723, -1.0609806776046753, 0.820212721824646, 11.94111156463623, -3.970120906829834, 30.687217712402344, -0.47998046875, 0.0419921875, -0.9560546875, 0, 
417, 2914871894, -76.22270202636719, -78.56182861328125, 136.02085876464844, 9.748315811157227, -0.919730007648468, -0.3087759017944336, 11.167790412902832, -3.1131184101104736, 30.55406951904297, -0.48193359375, 0.041015625, -0.95703125, 0, 
418, 2914880227, -76.55140686035156, -78.3209228515625, 136.43055725097656, 9.441780090332031, -2.1014442443847656, 2.280130624771118, 11.785992622375488, -4.605379581451416, 31.516193389892578, -0.4794921875, 0.04638671875, -0.9658203125, 0, 
419, 2914888560, -76.87973022460938, -78.06503295898438, 136.8505401611328, 9.579854965209961, -1.409278392791748, -0.6587870717048645, 12.990554809570312, -4.815340518951416, 33.373260498046875, -0.47509765625, 0.04150390625, -0.9599609375, 0, 
420, 2914896893, -77.16497039794922, -77.79689025878906, 137.221435546875, 10.64700698852539, -0.853205680847168, 0.4195660948753357, 12.385648727416992, -3.642489194869995, 34.46199417114258, -0.474609375, 0.04443359375, -0.9580078125, 0, 
421, 2914905226, -77.44895935058594, -77.53398895263672, 137.58172607421875, 9.709653854370117, -1.138158917427063, 0.7738982439041138, 11.250374794006348, -3.871762275695801, 33.8425407409668, -0.47802734375, 0.0458984375, -0.9599609375, 0, 
422, 2914913559, -77.75078582763672, -77.26925659179688, 137.97293090820312, 9.476781845092773, -3.1465375423431396, 1.393367886543274, 12.658379554748535, -5.009331226348877, 34.338985443115234, -0.47509765625, 0.0478515625, -0.9619140625, 0, 
423, 2914921892, -78.05754852294922, -76.99490356445312, 138.3759765625, 9.731931686401367, -1.8030600547790527, -0.15442904829978943, 13.426692008972168, -5.428239345550537, 35.480857849121094, -0.4736328125, 0.04736328125, -0.958984375, 0, 
424, 2914930225, -78.27879333496094, -76.71674346923828, 138.68763732910156, 10.633726119995117, -0.8074005246162415, 0.29415369033813477, 12.940610885620117, -3.3055856227874756, 35.5258903503418, -0.46875, 0.04931640625, -0.95556640625, 0, 
425, 2914938558, -78.56327819824219, -76.43820190429688, 139.0550079345703, 9.218918800354004, -1.2972110509872437, 1.187745451927185, 11.80301570892334, -5.142909526824951, 35.922794342041016, -0.47216796875, 0.052734375, -0.96484375, 0, 
426, 2914946891, -78.82572937011719, -76.14009094238281, 139.41339111328125, 9.599607467651367, -2.471256971359253, 0.6548312902450562, 13.378410339355469, -4.774205684661865, 38.11060333251953, -0.47314453125, 0.05517578125, -0.9658203125, 0, 
427, 2914955224, -79.12642669677734, -75.83250427246094, 139.80886840820312, 9.981428146362305, -1.6064960956573486, -0.01862574741244316, 13.053494453430176, -6.014706134796143, 39.459938049316406, -0.47119140625, 0.05078125, -0.96044921875, 0, 
428, 2914963557, -79.30928802490234, -75.52383422851562, 140.08505249023438, 10.191442489624023, -1.6253970861434937, 0.13227766752243042, 13.243656158447266, -2.9453725814819336, 39.04150390625, -0.47412109375, 0.05224609375, -0.9560546875, 0, 
429, 2914971890, -79.58924102783203, -75.22252655029297, 140.45469665527344, 9.244813919067383, -2.3978464603424072, 1.8212820291519165, 12.417927742004395, -6.18048095703125, 38.6321907043457, -0.46630859375, 0.05712890625, -0.96337890625, 0, 
430, 2914980223, -79.8281478881836, -74.90995788574219, 140.7985382080078, 8.940978050231934, -2.745408058166504, 0.23162758350372314, 14.264334678649902, -5.584386348724365, 39.93870162963867, -0.466796875, 0.05908203125, -0.96826171875, 0, 
431, 2914988556, -80.0902099609375, -74.58659362792969, 141.16268920898438, 10.8247709274292, -1.6243411302566528, 0.03573544695973396, 13.775588989257812, -6.375175952911377, 41.34661865234375, -0.46533203125, 0.05712890625, -0.9609375, 0, 
432, 2914996889, -80.2690200805664, -74.25537109375, 141.43849182128906, 9.606683731079102, -0.9998319745063782, 0.373221218585968, 13.520598411560059, -3.764031171798706, 41.72483825683594, -0.46630859375, 0.0556640625, -0.95458984375, 0, 
433, 2915005222, -80.51811981201172, -73.92375183105469, 141.77964782714844, 9.69538402557373, -2.787271499633789, 1.431836485862732, 12.572949409484863, -6.2122955322265625, 42.14834976196289, -0.4619140625, 0.0625, -0.96435546875, 0, 
434, 2915013555, -80.75125885009766, -73.57723236083984, 142.12283325195312, 8.760050773620605, -2.7969326972961426, 0.026329142972826958, 14.629034042358398, -6.422896385192871, 44.031822204589844, -0.46142578125, 0.060546875, -0.9638671875, 0, 
435, 2915021888, -80.97712707519531, -73.22823333740234, 142.45286560058594, 10.45209789276123, -2.1769304275512695, 0.433992862701416, 13.942264556884766, -6.304584980010986, 44.18635559082031, -0.462890625, 0.060546875, -0.9560546875, 0, 
436, 2915030221, -81.14791870117188, -72.8828353881836, 142.72415161132812, 9.449024200439453, -1.8666393756866455, 0.0652848556637764, 13.712322235107422, -4.748259544372559, 43.557926177978516, -0.4638671875, 0.0673828125, -0.95263671875, 0, 
437, 2915038554, -81.34840393066406, -72.53563690185547, 143.02720642089844, 9.364544868469238, -2.946380138397217, 1.8729392290115356, 13.735032081604004, -6.156086444854736, 43.95669174194336, -0.4638671875, 0.0703125, -0.951171875, 0, 
438, 2915046887, -81.5809555053711, -72.16532897949219, 143.37010192871094, 9.380936622619629, -2.8755249977111816, -0.6009513139724731, 14.394245147705078, -7.528090476989746, 46.846290588378906, -0.46484375, 0.06884765625, -0.947265625, 0, 
439, 2915055220, -81.76781463623047, -71.78705596923828, 143.6661376953125, 10.533609390258789, -1.5934479236602783, 0.5570459365844727, 14.457590103149414, -6.086596488952637, 47.55078887939453, -0.46875, 0.068359375, -0.93994140625, 0, 
440, 2915063553, -81.93365478515625, -71.41181182861328, 143.93165588378906, 9.394553184509277, -2.2184650897979736, -0.06826089322566986, 13.397722244262695, -5.384892463684082, 47.143733978271484, -0.45947265625, 0.0703125, -0.943359375, 0, 
441, 2915071886, -82.1170654296875, -71.02912139892578, 144.22586059570312, 8.670756340026855, -3.4957945346832275, 2.2304632663726807, 14.512994766235352, -6.666324615478516, 48.106834411621094, -0.45556640625, 0.07080078125, -0.953125, 0, 
442, 2915080219, -82.32674407958984, -70.63555908203125, 144.54620361328125, 9.613874435424805, -3.38675594329834, -0.9848965406417847, 14.213615417480469, -7.923218250274658, 49.64072036743164, -0.45751953125, 0.07373046875, -0.947265625, 0, 
443, 2915088552, -82.47711181640625, -70.23865509033203, 144.81332397460938, 10.033637046813965, -2.030677080154419, 1.245880365371704, 15.23048210144043, -6.147329330444336, 49.772979736328125, -0.4541015625, 0.0673828125, -0.94287109375, 0, 
444, 2915096885, -82.64585876464844, -69.84265899658203, 145.07980346679688, 9.559502601623535, -2.6640379428863525, -0.24943427741527557, 12.906518936157227, -6.454392433166504, 49.584808349609375, -0.45166015625, 0.07421875, -0.94775390625, 0, 
445, 2915105218, -82.81098175048828, -69.43578338623047, 145.36611938476562, 9.115010261535645, -3.2004194259643555, 1.9175269603729248, 15.488238334655762, -7.456912040710449, 50.999855041503906, -0.451171875, 0.076171875, -0.95458984375, 0, 
446, 2915113551, -82.9995346069336, -69.01139831542969, 145.6656494140625, 9.11014175415039, -3.0686612129211426, -0.9821324348449707, 14.051430702209473, -8.172319412231445, 53.25465774536133, -0.45263671875, 0.076171875, -0.94921875, 0, 
447, 2915121884, -83.12303161621094, -68.5823745727539, 145.90350341796875, 10.229223251342773, -2.3312182426452637, 0.9775365591049194, 14.887714385986328, -5.80573844909668, 53.406742095947266, -0.451171875, 0.07958984375, -0.9423828125, 0, 
448, 2915130217, -83.28883361816406, -68.1654281616211, 146.1578826904297, 8.843817710876465, -3.2160801887512207, 0.4820513427257538, 11.54427719116211, -7.056843280792236, 52.16689682006836, -0.443359375, 0.08154296875, -0.9541015625, 0, 
449, 2915138550, -83.41403198242188, -67.73946380615234, 146.40487670898438, 9.059077262878418, -4.454931735992432, 1.1568703651428223, 15.51884937286377, -6.936532974243164, 53.21262741088867, -0.43798828125, 0.0849609375, -0.95703125, 0, 
450, 2915146883, -83.59603881835938, -67.2991714477539, 146.69430541992188, 9.215813636779785, -3.0821950435638428, 0.04811675474047661, 13.344632148742676, -8.997640609741211, 55.055843353271484, -0.44189453125, 0.0830078125, -0.951171875, 0, 
451, 2915155216, -83.70032501220703, -66.85599517822266, 146.9148712158203, 10.031210899353027, -2.4451406002044678, -0.0830278992652893, 14.96071720123291, -6.1397504806518555, 55.0523681640625, -0.43701171875, 0.08544921875, -0.9462890625, 0, 
452, 2915163549, -83.859619140625, -66.41535186767578, 147.16152954101562, 9.24441146850586, -3.151700973510742, 1.2011942863464355, 11.121744155883789, -7.743178844451904, 54.99248504638672, -0.4365234375, 0.08984375, -0.95458984375, 0, 
453, 2915171882, -83.97457122802734, -65.9560775756836, 147.3981475830078, 8.703347206115723, -4.25311803817749, 0.3741680085659027, 15.248112678527832, -7.3612213134765625, 57.17736053466797, -0.435546875, 0.091796875, -0.95556640625, 0, 
454, 2915180215, -84.1353759765625, -65.48501586914062, 147.66017150878906, 9.86058235168457, -3.512280225753784, 0.7848114371299744, 12.459891319274902, -8.781482696533203, 58.62116622924805, -0.43408203125, 0.09130859375, -0.94921875, 0, 
455, 2915188548, -84.22608184814453, -65.02286529541016, 147.86062622070312, 9.155801773071289, -2.9129669666290283, -0.5604981184005737, 14.059070587158203, -6.1713337898254395, 57.25392150878906, -0.43359375, 0.09375, -0.94677734375, 0, 
456, 2915196881, -84.37190246582031, -64.56694030761719, 148.0874481201172, 8.899672508239746, -4.379237651824951, 2.4101829528808594, 10.189745903015137, -7.900631904602051, 56.754852294921875, -0.4267578125, 0.09814453125, -0.96533203125, 0, 
457, 2915205214, -84.47794342041016, -64.09034729003906, 148.3079071044922, 8.548827171325684, -4.3415679931640625, -0.5829927921295166, 14.214295387268066, -7.626561164855957, 59.098751068115234, -0.4248046875, 0.09814453125, -0.958984375, 0, 
458, 2915213547, -84.61767578125, -63.60149383544922, 148.5396270751953, 10.18685531616211, -3.3597686290740967, 1.4931272268295288, 11.258711814880371, -8.425420761108398, 60.71410369873047, -0.423828125, 0.0966796875, -0.95703125, 0, 
459, 2915221880, -84.69741821289062, -63.11604309082031, 148.71609497070312, 9.39517879486084, -2.8839468955993652, -1.2932506799697876, 12.422317504882812, -5.826848030090332, 60.05181121826172, -0.4208984375, 0.10107421875, -0.951171875, 0, 
460, 2915230213, -84.81900787353516, -62.62803268432617, 148.91390991210938, 8.726726531982422, -4.6617536544799805, 2.755676031112671, 9.632122993469238, -7.20497465133667, 60.36793899536133, -0.4189453125, 0.10546875, -0.9638671875, 0, 
461, 2915238546, -84.92720794677734, -62.11852264404297, 149.12371826171875, 8.38132095336914, -4.7155561447143555, -0.8700767755508423, 12.419504165649414, -7.940671920776367, 63.00590896606445, -0.41357421875, 0.10595703125, -0.9658203125, 0, 
462, 2915246879, -85.04170227050781, -61.607994079589844, 149.32142639160156, 9.553299903869629, -3.6959259510040283, 1.7142115831375122, 10.24459171295166, -7.583506107330322, 63.17121887207031, -0.408203125, 0.1025390625, -0.9580078125, 0, 
463, 2915255212, -85.11549377441406, -61.10834503173828, 149.4728240966797, 9.34345531463623, -3.9941272735595703, -1.4735015630722046, 10.186903953552246, -5.30820894241333, 61.54947280883789, -0.40380859375, 0.10546875, -0.96826171875, 0, 
464, 2915263545, -85.22295379638672, -60.60396194458008, 149.65444946289062, 8.002877235412598, -4.889174938201904, 3.6019797325134277, 9.202906608581543, -7.276799201965332, 62.375240325927734, -0.40185546875, 0.1064453125, -0.978515625, 0, 
465, 2915271878, -85.32454681396484, -60.07492446899414, 149.84083557128906, 9.250401496887207, -4.90954065322876, -1.8821022510528564, 10.307862281799316, -7.596981525421143, 65.34712219238281, -0.39794921875, 0.10791015625, -0.9755859375, 0, 
466, 2915280211, -85.41783905029297, -59.53835678100586, 150.00341796875, 9.377784729003906, -3.2791976928710938, 2.2737362384796143, 8.764058113098145, -6.357553482055664, 66.03938293457031, -0.39794921875, 0.10693359375, -0.97119140625, 0, 
467, 2915288544, -85.48712921142578, -59.00852584838867, 150.12545776367188, 9.230812072753906, -4.456974506378174, -2.151819944381714, 7.372649669647217, -4.192899703979492, 65.04158020019531, -0.39013671875, 0.10888671875, -0.978515625, 0, 
468, 2915296877, -85.58352661132812, -58.47549819946289, 150.28863525390625, 7.595256328582764, -5.248869895935059, 3.9523043632507324, 8.23007869720459, -6.943149566650391, 65.73054504394531, -0.39111328125, 0.11181640625, -0.990234375, 0, 
469, 2915305210, -85.6842041015625, -57.92176818847656, 150.45465087890625, 8.623384475708008, -5.494712829589844, -2.116137742996216, 7.944479942321777, -7.182492256164551, 68.12183380126953, -0.388671875, 0.109375, -0.98583984375, 0, 
470, 2915313543, -85.75084686279297, -57.37202453613281, 150.5878143310547, 9.495174407958984, -3.948762893676758, 2.419689178466797, 8.560298919677734, -5.3949432373046875, 67.60147857666016, -0.38037109375, 0.10888671875, -0.9853515625, 0, 
471, 2915321876, -85.82855224609375, -56.83124923706055, 150.70159912109375, 8.591574668884277, -4.624607086181641, -1.4036587476730347, 5.202565670013428, -4.423928737640381, 66.43660736083984, -0.3798828125, 0.1123046875, -0.98974609375, 0, 
472, 2915330209, -85.90660858154297, -56.2674674987793, 150.8375701904297, 8.126474380493164, -5.528722763061523, 3.2668397426605225, 7.345925807952881, -5.868067264556885, 69.19491577148438, -0.380859375, 0.11865234375, -0.98779296875, 0, 
473, 2915338542, -86.00260925292969, -55.686737060546875, 150.97720336914062, 8.331367492675781, -4.992635250091553, -1.9518564939498901, 5.463809967041016, -6.209199905395508, 71.24553680419922, -0.37451171875, 0.11669921875, -0.98388671875, 0, 
474, 2915346875, -86.04879760742188, -55.10972595214844, 151.0749053955078, 9.562477111816406, -5.023728370666504, 1.5717487335205078, 7.164422035217285, -3.6339330673217773, 70.71707153320312, -0.3720703125, 0.11279296875, -0.98046875, 0, 
475, 2915355208, -86.129638671875, -54.54713439941406, 151.17410278320312, 7.776331901550293, -5.301470756530762, -0.5983127951622009, 3.1286892890930176, -4.007991313934326, 68.89179229736328, -0.36572265625, 0.11669921875, -0.99365234375, 0, 
476, 2915363541, -86.18108367919922, -53.975521087646484, 151.2827606201172, 7.556884765625, -6.271025657653809, 2.5647482872009277, 7.470987319946289, -4.7892045974731445, 70.13139343261719, -0.36572265625, 0.11865234375, -0.998046875, 0, 
477, 2915371874, -86.2773208618164, -53.396610260009766, 151.40768432617188, 8.277765274047852, -5.0787882804870605, -0.5677184462547302, 3.5858168601989746, -6.081307888031006, 71.08387756347656, -0.361328125, 0.11572265625, -0.990234375, 0, 
478, 2915380207, -86.30567932128906, -52.82253646850586, 151.47532653808594, 9.16611385345459, -5.123851776123047, 0.14847810566425323, 6.185544490814209, -2.1775524616241455, 70.13143157958984, -0.35791015625, 0.11865234375, -0.98291015625, 0, 
479, 2915388540, -86.38421630859375, -52.25450134277344, 151.55572509765625, 7.890060901641846, -5.968943119049072, 0.8756535053253174, 1.3319587707519531, -3.283400297164917, 69.4729232788086, -0.35009765625, 0.12109375, -0.9951171875, 0, 
480, 2915396873, -86.42037963867188, -51.667701721191406, 151.63510131835938, 7.226433753967285, -6.415581226348877, 0.5512004494667053, 6.2199201583862305, -3.225794553756714, 71.8300552368164, -0.34912109375, 0.1201171875, -0.998046875, 0, 
481, 2915405206, -86.50116729736328, -51.07475280761719, 151.73275756835938, 8.358357429504395, -5.628803730010986, 0.45677950978279114, 2.5578877925872803, -4.680997848510742, 72.54135131835938, -0.34619140625, 0.119140625, -0.986328125, 0, 
482, 2915413539, -86.52767181396484, -50.49298858642578, 151.7899169921875, 8.448084831237793, -5.27681827545166, -0.5495046377182007, 5.190453052520752, -1.8718451261520386, 71.13202667236328, -0.3408203125, 0.1171875, -0.98779296875, 0, 
483, 2915421872, -86.6003646850586, -49.91454315185547, 151.8683624267578, 7.354597568511963, -6.712055683135986, 2.003209114074707, 1.5687123537063599, -3.6388511657714844, 70.83573150634766, -0.3349609375, 0.12109375, -1.00048828125, 0, 
484, 2915430205, -86.64103698730469, -49.31289291381836, 151.94818115234375, 6.988406658172607, -6.431591510772705, -0.04239366948604584, 5.507612228393555, -3.711956024169922, 73.5152359008789, -0.333984375, 0.123046875, -0.9970703125, 0, 
485, 2915438538, -86.70440673828125, -48.701210021972656, 152.02297973632812, 8.481829643249512, -5.764657497406006, 0.3457106351852417, 2.264885663986206, -3.390751838684082, 74.6933822631836, -0.33544921875, 0.1220703125, -0.98486328125, 0, 
486, 2915446871, -86.72679901123047, -48.10132598876953, 152.06430053710938, 8.301915168762207, -5.624624252319336, -0.6345136165618896, 4.079790115356445, -0.9451184868812561, 73.24213409423828, -0.33154296875, 0.123046875, -0.9814453125, 0, 
487, 2915455204, -86.78961944580078, -47.49778747558594, 152.12863159179688, 6.859943389892578, -6.7438459396362305, 2.0917439460754395, 1.2744039297103882, -2.8536956310272217, 73.67894744873047, -0.3271484375, 0.12744140625, -0.9921875, 0, 
488, 2915463537, -86.8320541381836, -46.88068389892578, 152.19781494140625, 6.966222286224365, -7.1043314933776855, -0.4906463921070099, 4.054203510284424, -3.2972090244293213, 75.43851470947266, -0.32373046875, 0.12939453125, -0.98486328125, 0, 
489, 2915471870, -86.8792495727539, -46.265384674072266, 152.25181579589844, 7.595224380493164, -6.151460647583008, 0.9270221590995789, 2.0999038219451904, -2.1797823905944824, 75.15726470947266, -0.32470703125, 0.125, -0.974609375, 0, 
