DeviceID;Timestamp;Temperature;GyroX;GyroY;GyroZ;AccelX;AccelY;AccelZ;Dist1;Dist2;Dist3;Err1;Err2;Err3
4.0;1753875185.968419;15.25;0.63;-1.12;0.0;0.993812;0.08601;0.011956;106.0;0.0;0.0;2.0;0.0;0.0
4.0;1753875185.973551;15.210938;0.63;-1.12;0.07;0.99369;0.084668;0.012932;106.0;0.0;0.0;2.0;0.0;0.0
4.0;1753875185.97747;15.210938;0.63;-1.12;0.0;0.992348;0.085766;0.013542;106.0;0.0;0.0;2.0;0.0;0.0
4.0;1753875185.982032;15.210938;0.63;-1.19;0.07;0.993812;0.086132;0.013542;106.0;0.0;0.0;2.0;0.0;0.0
4.0;1753875185.98657;15.210938;0.63;-1.12;0.0;0.99308;0.083326;0.013786;106.0;0.0;0.0;2.0;0.0;0.0
4.0;1753875185.992565;15.242188;0.63;-1.05;0.07;0.994788;0.089304;0.012688;106.0;0.0;0.0;2.0;0.0;0.0
4.0;1753875185.995697;15.242188;0.7;-1.05;0.07;0.993812;0.081374;0.01342;106.0;0.0;0.0;2.0;0.0;0.0
4.0;1753875186.000302;15.240049;0.44;-1.41;0.95;1.022122;0.136812;0.006397;105.2;0.1;-0.1;1.8;0.0;-0.0
4.0;1753875186.004907;15.242724;0.9;-1.88;-0.98;0.986578;0.06368;0.015307;104.2;0.0;-0.2;2.1;-0.0;-0.0
4.0;1753875186.009512;15.241158;0.47;-1.42;3.14;0.947798;0.113583;0.032344;107.4;0.1;0.3;2.0;0.0;0.0
4.0;1753875186.014117;15.243066;0.35;-1.37;1.24;1.044825;0.05881;0.00379;105.9;-0.0;-0.2;2.1;-0.0;-0.0
4.0;1753875186.018722;15.242634;-0.31;-1.4;-0.46;1.004166;0.050329;0.026884;106.7;-0.0;0.1;2.2;0.0;0.0
4.0;1753875186.023327;15.243847;0.98;-1.44;3.07;0.986031;0.069879;0.009777;106.4;0.0;-0.1;1.9;0.0;-0.0
4.0;1753875186.027932;15.244062;0.92;-1.53;1.04;1.00463;0.071793;0.017004;105.0;-0.0;-0.2;1.9;-0.0;0.0
4.0;1753875186.032538;15.243703;0.87;-1.32;2.12;0.991806;0.058968;0.018017;106.6;0.1;0.3;1.9;0.0;-0.0
4.0;1753875186.037142;15.243589;0.71;-1.02;-0.73;1.013371;0.072249;0.023948;105.7;-0.1;0.0;2.0;-0.0;-0.0
4.0;1753875186.041748;15.241007;0.77;-1.26;1.58;0.997475;0.110098;0.019013;104.5;0.0;-0.1;2.0;0.0;-0.0
4.0;1753875186.046352;15.24478;0.77;-0.6;0.93;0.956001;0.083719;0.004211;106.2;-0.0;-0.2;2.1;0.0;0.0
4.0;1753875186.050958;15.243712;0.92;-0.62;-1.62;0.990626;0.11877;0.018696;104.3;-0.1;-0.1;2.4;0.0;-0.0
4.0;1753875186.055563;15.242123;0.89;-1.57;1.75;0.953122;0.011475;0.02811;108.1;-0.0;-0.0;2.1;0.0;0.0
4.0;1753875186.060168;15.239624;1.27;-1.48;3.03;1.006322;0.068799;0.023029;106.7;0.0;0.0;2.2;-0.0;0.0
4.0;1753875186.064773;15.238699;-0.22;-1.48;1.42;1.021922;0.103721;0.013804;105.0;0.1;0.1;2.0;0.0;-0.0
4.0;1753875186.069378;15.243721;0.48;-0.99;2.98;0.951983;0.102983;0.034145;107.0;0.0;0.0;1.9;0.0;-0.0
4.0;1753875186.073983;15.24235;0.65;-1.52;-1.2;1.055576;0.097463;0.011373;105.2;0.0;0.0;2.0;-0.0;-0.0
4.0;1753875186.078588;15.238873;0.94;-1.31;2.19;0.971812;0.095698;0.030136;104.5;0.1;-0.0;1.8;0.0;0.0
4.0;1753875186.083193;15.240814;0.65;-1.26;0.52;1.031953;0.08427;-0.012113;105.8;0.0;0.1;2.1;-0.0;-0.0
4.0;1753875186.087798;15.240886;1.58;-1.56;0.65;0.92021;0.114486;0.04071;104.7;-0.0;-0.0;1.9;0.0;0.0
4.0;1753875186.092403;15.242071;0.39;-2.01;1.37;0.984531;0.128491;0.032517;105.3;-0.1;0.2;1.8;0.0;-0.0
4.0;1753875186.097008;15.242737;1.35;-0.54;1.96;0.957883;0.004007;0.010403;106.3;0.0;-0.2;1.9;-0.0;-0.0
4.0;1753875186.101613;15.241534;0.9;-2.0;-2.02;1.019225;0.070626;-0.014845;104.2;0.0;-0.1;2.2;-0.0;0.0
4.0;1753875186.106218;15.243292;-0.01;-1.31;-1.13;0.990684;0.091653;0.018347;107.1;0.0;-0.1;2.0;0.0;-0.0
4.0;1753875186.110824;15.240392;0.45;-1.4;-4.11;0.965824;0.091671;0.01915;106.0;-0.0;0.1;2.3;-0.0;0.0
4.0;1753875186.115428;15.24509;0.75;-0.3;0.5;1.018121;0.083734;0.013989;106.3;0.0;-0.1;2.5;-0.0;0.0
4.0;1753875186.120034;15.242987;0.79;-1.4;-0.08;0.99361;0.114054;0.017008;104.9;-0.0;-0.2;1.8;-0.0;-0.0
4.0;1753875186.124638;15.24008;0.59;-1.57;-1.39;0.984014;0.0703;0.019776;107.7;-0.0;0.0;1.9;0.0;0.0
4.0;1753875186.129244;15.244709;-0.15;-1.02;2.91;0.947662;0.11894;0.009176;106.4;0.0;0.2;2.1;0.0;-0.0
4.0;1753875186.133849;15.244346;0.38;-1.47;-1.57;0.974002;0.074376;0.019368;107.1;-0.1;-0.0;2.1;-0.0;-0.0
4.0;1753875186.138454;15.240205;0.78;-1.5;0.2;1.044263;0.071188;0.022028;106.5;0.1;-0.1;2.1;0.0;-0.0
4.0;1753875186.143059;15.242912;0.47;-0.82;2.31;1.024331;0.120273;0.011775;104.4;0.0;0.2;1.9;0.0;0.0
4.0;1753875186.147664;15.241093;1.09;-1.22;-0.01;0.994259;0.0445;0.026005;103.6;-0.0;-0.0;2.5;0.0;-0.0
4.0;1753875186.152269;15.241618;0.26;-1.54;-1.12;1.01946;0.079068;-0.009643;106.3;-0.1;0.2;2.2;-0.0;0.0
4.0;1753875186.156874;15.241798;1.03;-1.56;0.77;0.965845;0.060948;0.019934;105.0;-0.1;-0.1;2.2;0.0;0.0
4.0;1753875186.161479;15.23817;1.27;-1.14;0.73;0.97599;0.07424;0.021254;106.0;-0.1;0.1;2.1;0.0;-0.0
4.0;1753875186.166084;15.242864;0.61;-0.97;1.36;0.961368;0.116423;-0.008535;107.6;-0.0;-0.1;1.7;0.0;0.0
4.0;1753875186.170689;15.239773;1.08;-0.97;1.04;1.002749;0.050661;0.016852;105.7;-0.1;-0.1;2.0;-0.0;0.0
4.0;1753875186.175294;15.243893;1.23;-1.29;3.0;1.012263;0.048622;0.02979;106.3;0.0;-0.2;1.8;-0.0;0.0
4.0;1753875186.179899;15.24025;0.47;-1.23;1.66;1.01215;0.096998;0.01453;106.4;0.1;0.1;2.2;-0.0;0.0
4.0;1753875186.184504;15.243992;0.56;-1.34;-0.83;0.967281;0.048576;0.0156;107.8;-0.0;0.1;1.9;0.0;0.0
4.0;1753875186.189109;15.240977;0.17;-1.49;0.37;0.997927;0.075923;0.013811;105.5;0.1;0.0;2.0;-0.0;-0.0
4.0;1753875186.193714;15.244273;0.42;-1.18;1.73;0.995509;0.11313;0.029384;105.2;0.0;-0.3;2.1;0.0;-0.0
4.0;1753875186.19832;15.244744;0.42;-0.69;1.16;1.016756;0.128365;0.032376;106.2;-0.0;0.1;2.2;-0.0;-0.0
4.0;1753875186.202924;15.238692;0.66;-0.66;1.7;1.019201;0.040466;0.008686;105.2;0.1;-0.1;1.9;-0.0;0.0
4.0;1753875186.20753;15.242197;0.78;-1.09;0.31;0.998136;0.08236;0.007815;104.4;-0.1;-0.1;1.9;-0.0;0.0
4.0;1753875186.213;15.242188;0.63;-1.12;0.14;0.993568;0.088206;0.014152;106.0;0.0;0.0;2.0;0.0;0.0
4.0;1753875186.217605;15.245418;0.57;-1.97;1.31;1.079625;0.093313;0.024055;105.4;0.1;0.0;2.1;-0.0;0.0
4.0;1753875186.22221;15.239987;1.01;-0.95;1.81;0.983566;0.086116;0.006413;108.2;-0.0;-0.0;2.2;0.0;0.0
4.0;1753875186.22983;15.242188;0.56;-1.12;0.0;0.993934;0.08601;0.012566;108.0;0.0;0.0;2.0;0.0;0.0
4.0;1753875186.234435;15.240669;0.65;-1.05;-0.12;0.963143;0.074704;0.017326;105.7;-0.1;-0.1;2.2;0.0;0.0
4.0;1753875186.23904;15.24261;0.65;-1.74;0.5;0.996755;0.1369;0.015842;109.4;0.0;-0.0;2.1;-0.0;0.0
4.0;1753875186.243645;15.244055;0.72;-1.49;-0.57;1.009046;0.083908;0.015315;108.3;-0.0;-0.0;1.6;0.0;0.0
4.0;1753875186.24825;15.240885;0.39;-0.93;-1.11;1.021979;0.108403;0.017452;109.1;-0.0;0.2;1.5;0.0;0.0
4.0;1753875186.252855;15.23942;0.43;-1.37;1.02;1.026606;0.116024;-5e-05;106.9;0.1;0.1;2.0;0.0;-0.0
4.0;1753875186.25746;15.244718;0.53;-1.18;0.56;1.01164;0.121342;0.022326;107.3;0.1;0.2;2.2;0.0;-0.0
4.0;1753875186.262066;15.241119;0.06;-0.76;-1.47;0.989274;0.109411;0.023221;107.7;0.0;-0.0;2.0;-0.0;-0.0
4.0;1753875186.26667;15.242515;1.41;-0.89;1.41;0.99116;0.06492;0.009563;108.4;0.1;-0.2;2.0;0.0;0.0
4.0;1753875186.271276;15.242919;0.73;-1.43;0.83;0.992013;0.119821;0.013821;108.0;-0.0;-0.0;1.9;0.0;0.0
4.0;1753875186.27556;15.242188;0.49;-1.12;0.0;0.992836;0.085644;0.013298;108.0;0.0;0.0;2.0;0.0;0.0
4.0;1753875186.280165;15.241845;0.55;-0.72;-1.79;1.028789;0.121655;0.030684;107.0;0.0;-0.0;2.2;-0.0;-0.0
4.0;1753875186.28477;15.244586;0.21;-0.75;0.89;0.976081;0.112889;0.005848;105.2;0.0;-0.2;2.0;-0.0;-0.0
4.0;1753875186.289375;15.240807;0.21;-0.57;2.46;0.983607;0.123469;0.005333;108.4;0.0;0.1;2.0;-0.0;-0.0
4.0;1753875186.29398;15.244084;0.13;-1.19;-1.78;0.989925;0.06492;0.028693;109.0;0.0;-0.1;2.4;-0.0;-0.0
4.0;1753875186.298585;15.242404;0.19;-0.89;2.95;0.992932;0.07731;0.006219;108.7;0.1;0.0;1.7;0.0;0.0
4.0;1753875186.30319;15.24327;0.37;-0.88;-0.72;0.953183;0.056891;-0.00487;106.2;0.0;0.1;2.0;-0.0;0.0
4.0;1753875186.307795;15.240892;1.27;-1.26;-0.0;0.967299;0.081655;0.024744;106.4;0.0;0.1;1.8;0.0;-0.0
4.0;1753875186.3124;15.242038;0.6;-0.21;-0.57;0.957249;0.084045;0.020832;111.8;-0.0;0.1;2.1;-0.0;-0.0
4.0;1753875186.321;15.242188;0.56;-1.12;0.07;0.992714;0.085156;0.011712;108.0;0.0;0.0;2.0;0.0;0.0
4.0;1753875186.325605;15.240507;0.27;-0.61;-0.16;0.972257;0.075288;0.009853;108.7;0.0;0.1;1.8;0.0;-0.0
4.0;1753875186.33021;15.242311;0.48;-0.1;2.74;1.009135;0.051971;0.01397;108.5;0.0;-0.2;2.3;-0.0;0.0
4.0;1753875186.334815;15.240045;0.89;-1.16;-0.29;0.956573;0.07499;0.009211;108.0;0.0;0.0;2.1;-0.0;-0.0
4.0;1753875186.33942;15.24364;0.36;-0.9;-1.79;1.037098;0.08456;0.025141;108.0;0.0;0.2;2.2;0.0;-0.0
4.0;1753875186.344025;15.243038;0.1;-1.45;1.6;1.006279;0.075267;-0.005233;110.2;-0.1;-0.1;2.1;0.0;0.0
4.0;1753875186.34863;15.240348;0.68;-1.9;0.37;0.888543;0.089779;0.026104;108.3;0.0;0.1;2.2;-0.0;-0.0
4.0;1753875186.353236;15.239879;0.64;-0.81;0.6;0.974617;0.054256;0.014435;105.1;0.0;0.0;2.0;-0.0;0.0
4.0;1753875186.35784;15.240381;0.49;-0.93;0.09;0.969449;0.071174;-0.007744;106.6;-0.0;0.1;1.8;0.0;-0.0
4.0;1753875186.36652;15.242188;0.7;-1.19;0.14;0.993202;0.086254;0.011712;108.0;0.0;0.0;2.0;0.0;0.0
4.0;1753875186.371125;15.243915;0.45;-1.68;-1.7;1.056324;0.086478;0.020987;109.2;0.0;-0.1;1.9;-0.0;-0.0
4.0;1753875186.37573;15.244663;1.04;-1.56;0.95;0.98874;0.088221;0.003856;108.8;-0.1;0.1;2.0;0.0;0.0
4.0;1753875186.380335;15.240344;-0.18;-1.32;2.58;1.060257;0.078808;-0.004315;107.2;-0.0;0.1;1.7;-0.0;-0.0
4.0;1753875186.38494;15.243329;0.35;-1.27;1.86;1.012621;0.056168;0.014087;107.0;0.1;-0.2;2.3;0.0;0.0
4.0;1753875186.389545;15.242302;0.27;-0.92;-0.17;1.034032;0.095915;0.030326;108.4;0.1;0.2;2.2;0.0;0.0
4.0;1753875186.39415;15.243187;0.88;-1.33;0.21;1.007515;0.073636;0.01032;108.8;0.1;-0.0;1.8;-0.0;-0.0
4.0;1753875186.398755;15.245235;0.99;-0.92;-0.24;0.991575;0.073194;0.003246;109.3;0.0;0.0;2.0;-0.0;0.0
4.0;1753875186.40336;15.243523;0.11;-1.03;0.72;1.055773;0.014292;0.018294;109.1;0.1;0.1;1.9;-0.0;0.0
4.0;1753875186.41202;15.242188;0.63;-1.12;0.0;0.9943;0.083936;0.012688;108.0;0.0;0.0;2.0;0.0;0.0
4.0;1753875186.416625;15.237313;0.34;-0.51;-0.01;0.99522;0.130596;-0.004469;107.9;0.0;-0.0;2.4;-0.0;-0.0
4.0;1753875186.42123;15.237877;0.98;-0.95;0.55;0.98061;0.096759;0.012258;108.8;0.0;0.0;1.8;0.0;-0.0
4.0;1753875186.425835;15.235484;1.01;-1.06;0.16;1.000951;0.069503;0.030248;108.3;-0.1;-0.1;2.3;-0.0;-0.0
4.0;1753875186.43044;15.235167;0.88;-1.84;0.88;0.994718;0.087208;0.027177;107.4;0.0;0.0;1.9;0.0;0.0
4.0;1753875186.435045;15.231463;0.25;-1.09;-1.04;0.942156;0.115263;0.015408;108.0;-0.0;-0.1;1.8;-0.0;-0.0
4.0;1753875186.43965;15.22878;0.79;-1.16;-0.06;0.994256;0.066318;0.030981;109.9;-0.0;-0.2;2.1;-0.0;-0.0
4.0;1753875186.444255;15.222182;0.33;-1.49;2.31;1.025645;0.128266;0.009431;106.8;0.0;0.2;2.1;0.0;0.0
4.0;1753875186.44886;15.225908;0.17;-1.8;0.96;0.948109;0.114813;0.007516;107.2;-0.0;0.0;2.1;0.0;-0.0
4.0;1753875186.45761;15.21875;0.7;-1.12;0.0;0.99308;0.085156;0.013054;108.0;0.0;0.0;2.0;0.0;0.0
4.0;1753875186.462215;15.21823;0.74;-1.17;-0.17;0.925047;0.05263;0.023273;106.5;0.0;-0.1;1.8;-0.0;-0.0
4.0;1753875186.46682;15.220254;0.45;-1.34;0.58;0.978569;0.131313;0.028782;108.3;0.0;0.3;2.2;0.0;0.0
4.0;1753875186.471425;15.219057;1.19;-0.63;2.08;1.038518;0.116676;0.015328;108.7;0.0;0.1;1.8;0.0;-0.0
4.0;1753875186.47603;15.217702;0.89;-0.58;0.47;0.93783;0.099544;0.017515;107.6;0.0;-0.3;2.2;0.0;0.0
4.0;1753875186.480635;15.218601;1.18;-1.18;-1.44;1.009107;0.113782;0.011547;107.4;0.0;0.1;2.1;-0.0;-0.0
4.0;1753875186.48524;15.216937;0.68;-2.36;-2.11;1.010771;0.03909;0.007384;106.9;0.0;-0.1;2.1;0.0;-0.0
4.0;1753875186.489845;15.22012;0.45;-1.22;0.6;1.023344;0.118414;0.028042;109.4;0.0;-0.1;2.2;0.0;0.0
4.0;1753875186.49445;15.221645;0.17;-1.17;2.55;0.977912;0.080644;-0.004026;107.3;-0.0;0.1;2.1;-0.0;0.0
4.0;1753875186.499056;15.22095;0.39;-1.37;-1.13;1.022537;0.069468;0.017485;106.8;-0.0;0.1;2.1;-0.0;0.0
4.0;1753875186.50366;15.216167;0.47;-1.43;-0.56;1.027476;0.082236;0.012223;106.3;-0.0;-0.1;1.9;-0.0;-0.0
4.0;1753875186.51043;15.21875;0.63;-1.19;0.0;0.992104;0.084546;0.013786;108.0;0.0;0.0;2.0;0.0;0.0
4.0;1753875186.515035;15.218085;0.59;-1.3;0.72;0.965679;0.094052;-0.000233;107.1;0.0;0.1;1.9;0.0;0.0
4.0;1753875186.51964;15.216783;1.0;-1.38;-0.29;1.031932;0.155005;0.024124;106.7;0.1;0.0;2.0;0.0;-0.0
4.0;1753875186.524245;15.222886;0.47;-1.08;0.93;1.005733;0.072021;0.005606;109.4;-0.0;0.1;1.7;-0.0;-0.0
4.0;1753875186.52885;15.220177;0.76;-0.99;0.6;0.957444;0.084643;0.004206;107.7;-0.1;0.0;1.7;0.0;0.0
4.0;1753875186.533455;15.217757;0.04;-1.49;0.09;0.953239;0.106531;0.022223;108.2;0.0;0.2;2.0;-0.0;-0.0
4.0;1753875186.53806;15.219124;0.74;-0.96;2.27;0.996712;0.044882;0.010695;109.0;-0.0;0.1;1.8;0.0;0.0
4.0;1753875186.542666;15.218;0.92;-1.02;2.13;1.032488;0.088262;0.017324;107.4;-0.0;-0.1;2.1;0.0;0.0
4.0;1753875186.54727;15.217223;0.9;-1.07;-1.78;0.98564;0.068305;0.012022;108.6;0.0;-0.0;2.0;0.0;-0.0
4.0;1753875186.551876;15.216989;0.32;-1.44;0.24;1.011156;0.098108;0.019943;105.2;0.1;-0.1;1.8;0.0;0.0
4.0;1753875186.556481;15.215953;1.23;-0.74;1.76;1.036708;0.123273;0.005363;106.8;-0.0;-0.1;2.3;0.0;-0.0
4.0;1753875186.561086;15.218702;0.19;-1.54;0.02;1.049157;0.048559;0.005119;108.8;0.1;0.1;1.9;0.0;0.0
4.0;1753875186.565691;15.217864;0.84;-1.51;-1.17;1.014821;0.128703;0.003921;108.4;0.2;-0.2;1.9;0.0;0.0
4.0;1753875186.570296;15.218129;0.51;-1.35;-0.42;0.997553;0.060791;0.005031;108.5;0.0;-0.0;1.8;-0.0;-0.0
4.0;1753875186.574901;15.217813;0.73;-0.55;-0.98;0.968709;0.091275;-0.001498;108.8;-0.0;0.1;1.7;-0.0;0.0
4.0;1753875186.579506;15.216763;0.37;-1.32;-2.29;1.062301;0.107371;0.01222;109.6;-0.0;0.0;2.2;-0.0;0.0
4.0;1753875186.584111;15.220533;0.68;-1.48;-0.44;0.984704;0.114593;0.015482;107.2;-0.0;0.1;2.0;0.0;0.0
4.0;1753875186.588716;15.219404;0.34;-0.11;-1.73;0.982029;0.106983;0.018722;111.1;-0.0;0.0;2.0;0.0;0.0
4.0;1753875186.593321;15.219448;0.14;-1.1;0.39;1.014304;0.108753;0.012326;110.3;-0.0;-0.1;2.0;0.0;0.0
4.0;1753875186.597926;15.216555;0.77;-1.03;-1.33;1.010943;0.0856;0.000185;106.0;0.0;-0.2;2.0;-0.0;-0.0
4.0;1753875186.602531;15.217849;1.14;-1.53;-1.92;0.965874;0.011002;0.010147;108.9;0.0;-0.1;2.0;0.0;0.0
4.0;1753875186.607136;15.216717;0.58;-1.12;0.09;1.03602;0.071546;0.026521;108.5;-0.1;-0.0;2.2;0.0;-0.0
4.0;1753875186.611741;15.222162;0.3;-1.06;-0.08;1.007374;0.107975;0.005612;108.0;0.0;0.0;1.9;-0.0;0.0
4.0;1753875186.616346;15.217378;-0.18;-1.31;-0.36;0.979;0.041587;0.009972;108.0;-0.0;0.1;2.0;0.0;-0.0
4.0;1753875186.620952;15.216007;1.53;-1.88;-1.15;0.994509;0.045389;0.013614;107.0;0.0;-0.1;1.7;-0.0;0.0
4.0;1753875186.625556;15.222378;0.36;-0.91;-0.96;0.966628;0.104487;0.005584;109.3;0.1;-0.1;2.0;0.0;0.0
4.0;1753875186.630162;15.214986;0.64;-1.94;0.82;0.996841;0.040912;0.011658;107.1;-0.0;-0.0;1.9;0.0;0.0
4.0;1753875186.634766;15.218996;0.61;-1.07;0.82;0.982384;0.088169;0.02801;107.2;-0.0;0.2;2.2;0.0;0.0
4.0;1753875186.639372;15.212971;0.38;-1.21;-2.15;0.964356;0.081376;0.012598;110.0;0.0;0.1;2.0;0.0;-0.0
4.0;1753875186.643977;15.222684;0.51;-1.41;-0.27;1.04873;0.105186;0.012786;107.1;0.1;0.1;2.3;-0.0;0.0
4.0;1753875186.648582;15.219746;0.57;-0.46;0.01;0.990155;0.093024;0.017981;109.4;0.1;-0.1;1.6;0.0;0.0
4.0;1753875186.653187;15.219563;0.13;-1.81;-0.77;1.034959;0.118558;0.003779;107.8;0.0;-0.1;2.1;-0.0;0.0
4.0;1753875186.657792;15.218972;0.48;-0.71;-0.87;0.9799;0.065942;-0.002943;109.9;-0.0;-0.1;1.8;0.0;-0.0
4.0;1753875186.662397;15.218195;0.58;-2.09;0.32;1.035214;0.002724;0.007583;107.6;-0.0;-0.0;2.3;0.0;-0.0
4.0;1753875186.667002;15.22002;0.62;-0.62;-0.66;0.98803;0.050339;0.028631;107.5;-0.1;0.1;2.0;0.0;0.0
4.0;1753875186.67197;15.21875;0.63;-1.12;-0.07;0.992836;0.082594;0.011834;108.0;0.0;0.0;2.0;0.0;0.0
4.0;1753875186.676575;15.220119;1.11;-1.43;-0.08;1.02117;0.08357;0.00946;105.9;0.0;-0.1;2.0;-0.0;0.0
4.0;1753875186.68454;15.21875;0.7;-1.12;0.07;0.992592;0.088572;0.011834;108.0;0.0;0.0;2.0;0.0;0.0
4.0;1753875186.689145;15.217771;1.05;-0.84;-0.42;1.049374;0.08196;0.005671;107.1;0.0;-0.1;2.1;-0.0;-0.0
4.0;1753875186.69375;15.21579;0.96;-1.3;0.32;0.98757;0.119094;0.024575;110.0;0.2;0.0;2.1;-0.0;0.0
4.0;1753875186.698355;15.220695;0.93;-2.41;0.16;0.986432;0.048467;0.021617;109.1;0.1;-0.0;2.1;0.0;0.0
4.0;1753875186.70296;15.218209;1.14;-1.11;1.13;1.055654;0.071615;0.00333;108.5;0.0;0.2;2.1;0.0;-0.0
4.0;1753875186.707565;15.218364;0.8;-1.04;-0.03;1.039289;0.05945;0.004213;106.5;-0.0;0.1;2.0;-0.0;-0.0
4.0;1753875186.71217;15.221005;0.56;-1.45;3.46;1.018585;0.116774;0.009837;110.9;-0.0;-0.2;2.0;0.0;-0.0
4.0;1753875186.716776;15.218836;0.17;-0.89;1.6;1.019661;0.088437;0.022432;108.6;0.1;-0.0;2.1;-0.0;-0.0
4.0;1753875186.72138;15.21865;0.74;-1.17;1.45;0.996579;0.074036;0.010626;108.1;0.0;-0.1;2.3;0.0;0.0
4.0;1753875186.725986;15.218713;0.37;-1.36;-1.63;0.989501;0.059491;-0.000829;107.5;0.0;0.0;2.3;0.0;-0.0
4.0;1753875186.73059;15.217284;0.6;-1.46;0.03;0.993382;0.082375;0.014295;107.9;0.0;0.0;2.0;-0.0;-0.0
4.0;1753875186.73743;15.21875;0.63;-1.12;0.14;0.993324;0.083326;0.012444;108.0;0.0;0.0;2.0;0.0;0.0
4.0;1753875186.742035;15.231022;0.57;-1.0;0.19;0.993202;0.084057;0.012516;106.7;0.0;0.0;2.0;0.0;0.0
4.0;1753875186.74664;15.186378;0.65;-1.11;0.1;0.993946;0.086084;0.013782;108.6;0.0;0.0;2.0;0.0;0.0
4.0;1753875186.751245;15.212126;0.67;-1.16;0.21;0.993213;0.085623;0.014086;108.2;0.0;0.0;2.0;0.0;0.0
4.0;1753875186.75585;15.217932;0.73;-1.14;0.22;0.991981;0.085277;0.014764;108.8;0.0;0.0;2.0;0.0;0.0
4.0;1753875186.760455;15.218448;0.73;-1.18;0.03;0.993506;0.085492;0.012161;108.7;0.0;0.0;2.0;0.0;0.0
4.0;1753875186.76506;15.226513;0.7;-1.13;0.06;0.994078;0.085381;0.014022;108.1;0.0;0.0;2.0;0.0;0.0
4.0;1753875186.769666;15.211008;0.71;-1.06;-0.0;0.992263;0.086634;0.014935;108.7;0.0;0.0;2.0;0.0;0.0
4.0;1753875186.77427;15.223858;0.64;-1.13;0.07;0.992778;0.084824;0.014081;108.9;0.0;0.0;2.0;0.0;0.0
4.0;1753875186.77845;15.21875;0.63;-1.12;0.07;0.992714;0.085888;0.013786;108.0;0.0;0.0;2.0;0.0;0.0
4.0;1753875186.783055;15.216266;0.61;-1.09;0.07;0.992883;0.087196;0.013143;106.4;0.0;0.0;2.0;0.0;0.0
4.0;1753875186.78766;15.236241;0.53;-1.1;0.07;0.992342;0.083512;0.014801;107.0;0.0;0.0;2.0;0.0;0.0
4.0;1753875186.792265;15.228389;0.64;-1.14;0.04;0.992078;0.087208;0.012498;108.1;0.0;0.0;2.0;0.0;0.0
4.0;1753875186.79687;15.202886;0.76;-1.07;0.16;0.992574;0.083083;0.012286;107.7;0.0;0.0;2.0;0.0;0.0
4.0;1753875186.801475;15.193215;0.64;-1.15;0.08;0.992658;0.084071;0.013363;106.9;0.0;0.0;2.0;0.0;0.0
4.0;1753875186.80608;15.186084;0.68;-1.13;0.15;0.993298;0.084604;0.012463;106.8;0.0;0.0;2.0;0.0;0.0
4.0;1753875186.810686;15.210284;0.63;-1.1;0.21;0.993337;0.084232;0.01114;109.4;0.0;0.0;2.0;0.0;0.0
4.0;1753875186.81529;15.211429;0.65;-1.13;0.24;0.992557;0.082638;0.013679;108.1;0.0;0.0;2.0;0.0;0.0
4.0;1753875186.819896;15.223846;0.66;-1.11;0.16;0.992;0.083638;0.012051;107.4;0.0;0.0;2.0;0.0;0.0
4.0;1753875186.8275;15.203125;0.7;-1.12;0.21;0.99308;0.084424;0.011956;108.0;0.0;0.0;2.0;0.0;0.0
4.0;1753875186.832105;15.185208;0.62;-1.17;0.3;0.993255;0.083727;0.011511;106.8;0.0;0.0;2.0;0.0;0.0
4.0;1753875186.83671;15.17604;0.63;-1.12;0.25;0.994259;0.089045;0.012324;108.9;0.0;0.0;2.0;0.0;0.0
4.0;1753875186.841315;15.201125;0.71;-1.19;0.11;0.992853;0.083682;0.012122;108.2;0.0;0.0;2.0;0.0;0.0
4.0;1753875186.84592;15.193859;0.64;-1.1;0.16;0.993166;0.084642;0.012601;110.0;0.0;0.0;2.0;0.0;0.0
4.0;1753875186.850526;15.192352;0.75;-1.06;0.0;0.994068;0.085335;0.012329;107.2;0.0;0.0;2.0;0.0;0.0
4.0;1753875186.85513;15.201887;0.68;-1.05;0.12;0.993503;0.08496;0.013392;107.7;0.0;0.0;2.0;0.0;0.0
4.0;1753875186.859736;15.185963;0.68;-1.13;0.12;0.993449;0.087186;0.012986;107.1;0.0;0.0;2.0;0.0;0.0
4.0;1753875186.86682;15.203125;0.7;-1.12;0.07;0.994178;0.086498;0.012688;108.0;0.0;0.0;2.0;0.0;0.0
4.0;1753875186.871425;15.187072;0.65;-1.19;0.01;0.994679;0.084823;0.012819;107.8;0.0;0.0;2.0;0.0;0.0
4.0;1753875186.87603;15.197341;0.76;-1.14;-0.02;0.993425;0.085413;0.012289;107.3;0.0;0.0;2.0;0.0;0.0
4.0;1753875186.880635;15.192929;0.66;-1.06;0.04;0.993881;0.086132;0.011844;107.0;0.0;0.0;2.0;0.0;0.0
4.0;1753875186.88524;15.203017;0.75;-1.13;0.14;0.992829;0.084373;0.012923;107.7;0.0;0.0;2.0;0.0;0.0
4.0;1753875186.889845;15.192428;0.77;-1.1;0.05;0.994763;0.085795;0.012809;107.9;0.0;0.0;2.0;0.0;0.0
4.0;1753875186.89445;15.202651;0.79;-1.03;0.13;0.992931;0.084356;0.012437;108.6;0.0;0.0;2.0;0.0;0.0
4.0;1753875186.899056;15.190632;0.65;-1.17;0.11;0.994445;0.086862;0.011799;109.5;0.0;0.0;2.0;0.0;0.0
4.0;1753875186.90366;15.208982;0.79;-1.12;0.1;0.993176;0.083968;0.013188;109.3;0.0;0.0;2.0;0.0;0.0
4.0;1753875186.908266;15.173806;0.9;-1.08;0.1;0.992205;0.088483;0.01169;107.3;0.0;0.0;2.0;0.0;0.0
4.0;1753875186.912871;15.206341;0.82;-1.2;0.14;0.992744;0.084302;0.012027;108.4;0.0;0.0;2.0;0.0;0.0
4.0;1753875186.91815;15.203125;0.77;-1.12;0.07;0.992104;0.084302;0.012444;108.0;0.0;0.0;2.0;0.0;0.0
4.0;1753875186.922755;15.205812;0.65;-1.07;0.09;0.992539;0.084321;0.013367;109.2;0.0;0.0;2.0;0.0;0.0
4.0;1753875186.92736;15.199446;0.77;-1.11;-0.06;0.991737;0.083694;0.012049;108.6;0.0;0.0;2.0;0.0;0.0
4.0;1753875186.931965;15.205484;0.68;-1.12;0.06;0.991796;0.08318;0.01333;107.1;0.0;0.0;2.0;0.0;0.0
4.0;1753875186.93657;15.180615;0.61;-1.1;0.02;0.992722;0.084628;0.010906;108.0;0.0;0.0;2.0;0.0;0.0
4.0;1753875186.941175;15.196317;0.63;-1.17;0.02;0.993984;0.083338;0.012891;108.4;0.0;0.0;2.0;0.0;0.0
4.0;1753875186.94578;15.181913;0.53;-1.15;0.03;0.993593;0.084868;0.013799;108.7;0.0;0.0;2.0;0.0;0.0
4.0;1753875186.950385;15.21211;0.64;-1.16;0.09;0.993804;0.088554;0.011966;108.5;0.0;0.0;2.0;0.0;0.0
4.0;1753875186.95803;15.203125;0.56;-1.12;0.0;0.992836;0.085766;0.012688;108.0;0.0;0.0;2.0;0.0;0.0
4.0;1753875186.961018;15.203125;0.56;-1.19;0.0;0.993812;0.085644;0.012322;101.0;0.0;0.0;2.0;0.0;0.0
4.0;1753875186.965035;15.203125;0.56;-1.12;0.0;0.99308;0.085156;0.013664;101.0;0.0;0.0;2.0;0.0;0.0
4.0;1753875186.969589;15.203125;0.56;-1.19;0.0;0.993324;0.085156;0.012078;101.0;0.0;0.0;2.0;0.0;0.0
4.0;1753875186.974735;15.195312;0.49;-1.12;0.0;0.992958;0.087108;0.013786;101.0;0.0;0.0;2.0;0.0;0.0
4.0;1753875186.978677;15.195312;0.63;-1.26;0.07;0.992348;0.083326;0.013542;101.0;0.0;0.0;2.0;0.0;0.0
4.0;1753875186.983263;15.195312;0.7;-1.12;-0.07;0.992958;0.087596;0.013176;101.0;0.0;0.0;2.0;0.0;0.0
4.0;1753875186.987829;15.195312;0.7;-1.12;0.0;0.994422;0.084424;0.013176;101.0;0.0;0.0;2.0;0.0;0.0
4.0;1753875186.992434;15.211749;0.75;-1.21;0.05;0.995231;0.086084;0.012193;101.0;0.0;0.0;2.0;0.0;0.0
4.0;1753875186.999297;15.203125;0.56;-1.26;0.07;0.99247;0.085156;0.014518;101.0;0.0;0.0;2.0;0.0;0.0
4.0;1753875187.003902;15.205199;0.55;-1.26;0.03;0.992615;0.084918;0.013131;97.9;0.0;0.0;2.0;0.0;0.0
4.0;1753875187.008507;15.208406;0.64;-1.36;0.0;0.992949;0.084933;0.013313;103.0;0.0;0.0;2.0;0.0;0.0
4.0;1753875187.013112;15.206447;0.56;-1.31;-0.01;0.99296;0.084013;0.015669;96.4;0.0;0.0;2.0;0.0;0.0
4.0;1753875187.017717;15.220489;0.71;-1.27;0.12;0.992661;0.085307;0.015057;102.6;0.0;0.0;2.0;0.0;0.0
4.0;1753875187.022322;15.203346;0.55;-1.21;0.18;0.991799;0.085114;0.012971;101.3;0.0;0.0;2.0;0.0;0.0
4.0;1753875187.026927;15.201258;0.51;-1.18;0.07;0.992195;0.084109;0.014018;101.5;0.0;0.0;2.0;0.0;0.0
4.0;1753875187.031532;15.209506;0.61;-1.24;0.07;0.993169;0.086715;0.014694;99.6;0.0;0.0;2.0;0.0;0.0
4.0;1753875187.036137;15.187349;0.58;-1.34;0.15;0.992611;0.085691;0.014314;105.7;0.0;0.0;2.0;0.0;0.0
4.0;1753875187.040742;15.207807;0.54;-1.26;0.11;0.992653;0.084847;0.014728;95.7;0.0;0.0;2.0;0.0;0.0
4.0;1753875187.045348;15.193535;0.66;-1.22;0.01;0.99268;0.085633;0.012786;100.1;0.0;0.0;2.0;0.0;0.0
4.0;1753875187.049952;15.20787;0.59;-1.1;0.05;0.991637;0.085557;0.014853;96.6;0.0;0.0;2.0;0.0;0.0
4.0;1753875187.054558;15.210898;0.62;-1.43;0.03;0.991939;0.085489;0.012766;105.1;0.0;0.0;2.0;0.0;0.0
4.0;1753875187.059162;15.204299;0.46;-1.27;0.03;0.992199;0.084833;0.014638;101.5;0.0;0.0;2.0;0.0;0.0
4.0;1753875187.063768;15.196135;0.52;-1.3;0.09;0.992166;0.085489;0.015277;104.2;0.0;0.0;2.0;0.0;0.0
4.0;1753875187.068373;15.212056;0.65;-1.21;0.1;0.991609;0.086298;0.016132;102.3;0.0;0.0;2.0;0.0;0.0
4.0;1753875187.072978;15.195578;0.46;-1.22;0.11;0.993047;0.085485;0.013765;98.5;0.0;0.0;2.0;0.0;0.0
4.0;1753875187.077583;15.198335;0.52;-1.23;0.1;0.992726;0.083417;0.013165;96.1;0.0;0.0;2.0;0.0;0.0
4.0;1753875187.082188;15.207552;0.56;-1.2;0.1;0.993284;0.084543;0.012598;98.9;0.0;0.0;2.0;0.0;0.0
4.0;1753875187.086793;15.19183;0.66;-1.13;0.08;0.992599;0.083999;0.015154;101.2;0.0;0.0;2.0;0.0;0.0
4.0;1753875187.091398;15.191822;0.67;-1.16;0.03;0.993366;0.084252;0.014159;104.1;0.0;0.0;2.0;0.0;0.0
4.0;1753875187.096003;15.204268;0.46;-1.15;0.13;0.991894;0.085016;0.013135;100.2;0.0;0.0;2.0;0.0;0.0
4.0;1753875187.100608;15.193744;0.54;-1.21;0.11;0.9918;0.084546;0.0142;101.1;0.0;0.0;2.0;0.0;0.0
4.0;1753875187.105213;15.198695;0.7;-1.23;0.03;0.992372;0.08282;0.013552;100.6;0.0;0.0;2.0;0.0;0.0
4.0;1753875187.109818;15.191883;0.67;-1.22;0.04;0.992931;0.086076;0.013581;103.8;0.0;0.0;2.0;0.0;0.0
4.0;1753875187.114423;15.202125;0.62;-1.17;0.16;0.992828;0.086416;0.014947;104.1;0.0;0.0;2.0;0.0;0.0
4.0;1753875187.119028;15.193575;0.47;-1.19;0.0;0.993659;0.08412;0.015762;104.9;0.0;0.0;2.0;0.0;0.0
4.0;1753875187.123634;15.204994;0.56;-1.27;0.12;0.993002;0.085507;0.013816;100.1;0.0;0.0;2.0;0.0;0.0
4.0;1753875187.128238;15.202372;0.55;-1.18;-0.0;0.992419;0.084301;0.013415;100.3;0.0;0.0;2.0;0.0;0.0
4.0;1753875187.132844;15.203447;0.61;-1.27;-0.03;0.991737;0.085938;0.014233;95.3;0.0;0.0;2.0;0.0;0.0
4.0;1753875187.137448;15.215862;0.66;-1.27;0.01;0.992525;0.085376;0.012886;102.0;0.0;0.0;2.0;0.0;0.0
4.0;1753875187.142054;15.203623;0.67;-1.24;0.07;0.993227;0.086397;0.015053;100.4;0.0;0.0;2.0;0.0;0.0
4.0;1753875187.146659;15.20653;0.61;-1.21;-0.02;0.99272;0.085496;0.014961;105.0;0.0;0.0;2.0;0.0;0.0
4.0;1753875187.151264;15.196082;0.52;-1.27;0.12;0.992476;0.085587;0.014228;103.2;0.0;0.0;2.0;0.0;0.0
4.0;1753875187.155869;15.202551;0.6;-1.2;0.11;0.992316;0.084343;0.013303;97.6;0.0;0.0;2.0;0.0;0.0
4.0;1753875187.160474;15.204072;0.51;-1.23;0.04;0.993116;0.086811;0.016152;99.2;0.0;0.0;2.0;0.0;0.0
4.0;1753875187.165079;15.204649;0.58;-1.19;0.11;0.992708;0.086896;0.014431;103.5;0.0;0.0;2.0;0.0;0.0
4.0;1753875187.169684;15.215651;0.65;-1.1;0.1;0.992752;0.083806;0.013053;100.7;0.0;0.0;2.0;0.0;0.0
4.0;1753875187.174289;15.20163;0.6;-1.22;0.13;0.992897;0.08566;0.013748;101.7;0.0;0.0;2.0;0.0;0.0
4.0;1753875187.178894;15.204987;0.62;-1.17;0.1;0.993148;0.085679;0.014215;100.6;0.0;0.0;2.0;0.0;0.0
4.0;1753875187.183499;15.200426;0.59;-1.15;0.06;0.992992;0.085354;0.014748;104.2;0.0;0.0;2.0;0.0;0.0
4.0;1753875187.188104;15.191808;0.64;-1.22;0.13;0.992968;0.083519;0.013983;99.2;0.0;0.0;2.0;0.0;0.0
4.0;1753875187.192709;15.209789;0.61;-1.18;0.06;0.991912;0.086483;0.013058;100.3;0.0;0.0;2.0;0.0;0.0
4.0;1753875187.197314;15.197522;0.69;-1.2;0.08;0.992598;0.084963;0.01463;101.6;0.0;0.0;2.0;0.0;0.0
4.0;1753875187.201919;15.184575;0.62;-1.11;0.15;0.992008;0.084986;0.012593;106.1;0.0;0.0;2.0;0.0;0.0
4.0;1753875187.206524;15.204306;0.64;-1.1;0.13;0.991794;0.083535;0.014156;101.6;0.0;0.0;2.0;0.0;0.0
4.0;1753875187.21113;15.195182;0.55;-1.17;0.19;0.991591;0.085459;0.014863;103.1;0.0;0.0;2.0;0.0;0.0
4.0;1753875187.215734;15.208793;0.57;-1.19;0.06;0.993189;0.084353;0.01456;102.0;0.0;0.0;2.0;0.0;0.0
4.0;1753875187.22034;15.201263;0.64;-1.22;0.01;0.992367;0.084314;0.013701;101.8;0.0;0.0;2.0;0.0;0.0
4.0;1753875187.224944;15.183847;0.6;-1.15;0.14;0.992115;0.083813;0.015243;105.2;0.0;0.0;2.0;0.0;0.0
4.0;1753875187.22955;15.203439;0.61;-1.18;0.06;0.992354;0.085564;0.014075;99.6;0.0;0.0;2.0;0.0;0.0
4.0;1753875187.234155;15.195232;0.6;-1.1;0.11;0.993179;0.084824;0.013315;102.1;0.0;0.0;2.0;0.0;0.0
4.0;1753875187.23876;15.21497;0.69;-1.14;0.05;0.993125;0.084209;0.013901;102.8;0.0;0.0;2.0;0.0;0.0
4.0;1753875187.243365;15.192777;0.65;-1.26;0.15;0.992724;0.084662;0.013888;104.7;0.0;0.0;2.0;0.0;0.0
4.0;1753875187.24797;15.203529;0.6;-1.09;0.11;0.992689;0.085206;0.013496;99.7;0.0;0.0;2.0;0.0;0.0
4.0;1753875187.252575;15.20576;0.67;-1.18;0.11;0.994703;0.084577;0.01333;102.4;0.0;0.0;2.0;0.0;0.0
4.0;1753875187.25718;15.203509;0.65;-1.11;0.07;0.991697;0.086564;0.014026;105.7;0.0;0.0;2.0;0.0;0.0
4.0;1753875187.261785;15.207908;0.65;-1.15;0.09;0.992135;0.0846;0.013354;100.4;0.0;0.0;2.0;0.0;0.0
4.0;1753875187.26639;15.22134;0.57;-1.2;0.02;0.992861;0.084839;0.013599;107.9;0.0;0.0;2.0;0.0;0.0
4.0;1753875187.270995;15.203534;0.69;-1.27;0.07;0.992281;0.08563;0.013593;104.1;0.0;0.0;2.0;0.0;0.0
4.0;1753875187.2756;15.206237;0.61;-1.14;0.15;0.99348;0.084916;0.014574;101.4;0.0;0.0;2.0;0.0;0.0
4.0;1753875187.280205;15.205425;0.62;-1.15;0.1;0.99367;0.085307;0.013622;105.5;0.0;0.0;2.0;0.0;0.0
4.0;1753875187.28481;15.203869;0.62;-1.16;0.04;0.992629;0.085806;0.013999;104.6;0.0;0.0;2.0;0.0;0.0
4.0;1753875187.289415;15.211794;0.64;-1.23;0.14;0.992683;0.084355;0.014947;106.7;0.0;0.0;2.0;0.0;0.0
4.0;1753875187.29402;15.193128;0.68;-1.19;0.18;0.992916;0.086034;0.013602;105.1;0.0;0.0;2.0;0.0;0.0
4.0;1753875187.298626;15.19503;0.75;-1.14;0.09;0.993062;0.085777;0.012478;102.8;0.0;0.0;2.0;0.0;0.0
4.0;1753875187.30323;15.204879;0.62;-1.21;0.13;0.994085;0.085566;0.012205;103.0;0.0;0.0;2.0;0.0;0.0
4.0;1753875187.307836;15.214444;0.57;-1.08;0.2;0.993072;0.083444;0.013457;100.0;0.0;0.0;2.0;0.0;0.0
4.0;1753875187.312441;15.202918;0.71;-1.14;0.22;0.99178;0.084396;0.013612;98.3;0.0;0.0;2.0;0.0;0.0
4.0;1753875187.317046;15.208141;0.77;-1.09;0.06;0.994265;0.085104;0.012781;97.3;0.0;0.0;2.0;0.0;0.0
4.0;1753875187.321651;15.207563;0.59;-1.06;-0.0;0.993195;0.085268;0.013899;103.1;0.0;0.0;2.0;0.0;0.0
4.0;1753875187.326256;15.217334;0.74;-1.13;0.16;0.992499;0.086715;0.013119;104.6;0.0;0.0;2.0;0.0;0.0
4.0;1753875187.330861;15.185279;0.62;-1.08;0.18;0.993892;0.084367;0.012435;103.6;0.0;0.0;2.0;0.0;0.0
4.0;1753875187.335466;15.198016;0.64;-1.16;0.12;0.993;0.082497;0.014257;103.7;0.0;0.0;2.0;0.0;0.0
4.0;1753875187.340071;15.18547;0.58;-1.1;0.06;0.99357;0.084697;0.013169;99.6;0.0;0.0;2.0;0.0;0.0
4.0;1753875187.344676;15.204956;0.65;-1.12;-0.0;0.99246;0.084296;0.012605;100.7;0.0;0.0;2.0;0.0;0.0
4.0;1753875187.349281;15.200588;0.64;-1.18;0.19;0.994488;0.085915;0.012961;106.9;0.0;0.0;2.0;0.0;0.0
4.0;1753875187.353886;15.188083;0.61;-1.05;0.08;0.993398;0.085259;0.01251;105.3;0.0;0.0;2.0;0.0;0.0
4.0;1753875187.358491;15.185261;0.68;-1.19;0.1;0.993472;0.084745;0.01335;102.3;0.0;0.0;2.0;0.0;0.0
4.0;1753875187.363096;15.207466;0.59;-1.11;0.02;0.993832;0.085398;0.013423;103.0;0.0;0.0;2.0;0.0;0.0
4.0;1753875187.367701;15.178987;0.69;-1.07;0.21;0.992295;0.083994;0.014072;100.3;0.0;0.0;2.0;0.0;0.0
4.0;1753875187.372306;15.208505;0.81;-1.13;0.1;0.993437;0.086986;0.013051;103.6;0.0;0.0;2.0;0.0;0.0
4.0;1753875187.376912;15.210755;0.57;-1.14;0.02;0.993171;0.085237;0.014918;101.4;0.0;0.0;2.0;0.0;0.0
4.0;1753875187.381516;15.189603;0.69;-1.12;0.09;0.993421;0.084507;0.013084;104.8;0.0;0.0;2.0;0.0;0.0
4.0;1753875187.386122;15.204251;0.7;-1.11;0.14;0.992228;0.085001;0.012513;106.2;0.0;0.0;2.0;0.0;0.0
4.0;1753875187.390726;15.20741;0.67;-1.14;0.21;0.99289;0.085485;0.01406;103.7;0.0;0.0;2.0;0.0;0.0
4.0;1753875187.395332;15.215144;0.62;-1.19;0.05;0.993453;0.085359;0.012657;107.4;0.0;0.0;2.0;0.0;0.0
4.0;1753875187.399937;15.204612;0.64;-1.02;0.08;0.993447;0.084222;0.013628;108.5;0.0;0.0;2.0;0.0;0.0
4.0;1753875187.404542;15.210871;0.68;-1.08;0.11;0.993433;0.084062;0.013325;105.9;0.0;0.0;2.0;0.0;0.0
4.0;1753875187.409147;15.195968;0.64;-1.09;0.11;0.992059;0.085469;0.012993;107.3;0.0;0.0;2.0;0.0;0.0
4.0;1753875187.413752;15.215079;0.55;-1.02;0.16;0.993369;0.085207;0.014426;102.4;0.0;0.0;2.0;0.0;0.0
4.0;1753875187.418357;15.211292;0.6;-1.08;0.19;0.992917;0.085096;0.01336;105.8;0.0;0.0;2.0;0.0;0.0
4.0;1753875187.422962;15.19713;0.73;-1.04;0.14;0.994244;0.08443;0.01481;103.5;0.0;0.0;2.0;0.0;0.0
4.0;1753875187.427567;15.206907;0.64;-1.08;0.09;0.99418;0.085286;0.013105;100.5;0.0;0.0;2.0;0.0;0.0
4.0;1753875187.432172;15.193195;0.6;-1.09;0.06;0.993166;0.085603;0.013896;106.9;0.0;0.0;2.0;0.0;0.0
4.0;1753875187.436777;15.207384;0.63;-1.07;0.19;0.993214;0.085046;0.011797;105.0;0.0;0.0;2.0;0.0;0.0
4.0;1753875187.441382;15.195754;0.76;-1.09;0.08;0.993007;0.084811;0.011952;100.9;0.0;0.0;2.0;0.0;0.0
4.0;1753875187.445987;15.218103;0.66;-1.07;0.13;0.993314;0.086045;0.013361;99.9;0.0;0.0;2.0;0.0;0.0
4.0;1753875187.450592;15.191525;0.69;-1.02;0.17;0.99392;0.083994;0.013828;106.0;0.0;0.0;2.0;0.0;0.0
4.0;1753875187.455197;15.196126;0.79;-1.0;0.15;0.992833;0.083484;0.01189;104.5;0.0;0.0;2.0;0.0;0.0
4.0;1753875187.459802;15.183315;0.67;-1.01;0.12;0.992837;0.086969;0.012833;103.4;0.0;0.0;2.0;0.0;0.0
4.0;1753875187.464408;15.190933;0.74;-1.12;0.16;0.993265;0.086238;0.01197;105.1;0.0;0.0;2.0;0.0;0.0
4.0;1753875187.469012;15.19652;0.63;-1.17;0.25;0.992987;0.083712;0.014358;102.7;0.0;0.0;2.0;0.0;0.0
4.0;1753875187.473618;15.204344;0.61;-1.06;0.13;0.99394;0.086642;0.012312;105.5;0.0;0.0;2.0;0.0;0.0
4.0;1753875187.478222;15.188883;0.68;-1.08;0.11;0.993117;0.084967;0.01222;111.6;0.0;0.0;2.0;0.0;0.0
4.0;1753875187.482828;15.206826;0.69;-0.94;0.19;0.993329;0.083896;0.013772;102.9;0.0;0.0;2.0;0.0;0.0
4.0;1753875187.487433;15.206951;0.66;-1.1;0.16;0.993068;0.082361;0.011921;103.5;0.0;0.0;2.0;0.0;0.0
4.0;1753875187.492038;15.181297;0.74;-0.93;0.11;0.993914;0.084499;0.013091;109.0;0.0;0.0;2.0;0.0;0.0
4.0;1753875187.496643;15.189544;0.76;-1.04;0.07;0.992588;0.086296;0.01338;104.6;0.0;0.0;2.0;0.0;0.0
4.0;1753875187.501248;15.193593;0.72;-1.08;0.13;0.992654;0.083197;0.013429;102.9;0.0;0.0;2.0;0.0;0.0
4.0;1753875187.505853;15.217244;0.71;-1.07;0.22;0.993145;0.085775;0.014194;106.4;0.0;0.0;2.0;0.0;0.0
4.0;1753875187.5143;15.203125;0.7;-1.05;0.14;0.993324;0.084912;0.012932;104.0;0.0;0.0;2.0;0.0;0.0
4.0;1753875187.518905;15.19164;0.7;-0.98;0.16;0.994019;0.084994;0.011931;100.3;0.0;0.0;2.0;0.0;0.0
4.0;1753875187.52351;15.215228;0.82;-1.01;0.1;0.993561;0.084521;0.013743;105.3;0.0;0.0;2.0;0.0;0.0
4.0;1753875187.528115;15.198012;0.61;-1.11;0.14;0.993846;0.087671;0.013118;105.2;0.0;0.0;2.0;0.0;0.0
4.0;1753875187.53272;15.219378;0.67;-1.11;0.05;0.992926;0.0851;0.01317;105.5;0.0;0.0;2.0;0.0;0.0
4.0;1753875187.537326;15.192399;0.66;-1.11;0.05;0.993766;0.08562;0.011621;104.5;0.0;0.0;2.0;0.0;0.0
4.0;1753875187.54193;15.217744;0.77;-1.1;0.09;0.992967;0.084628;0.013135;108.4;0.0;0.0;2.0;0.0;0.0
4.0;1753875187.546536;15.19039;0.74;-1.03;0.06;0.994488;0.084377;0.012719;106.8;0.0;0.0;2.0;0.0;0.0
4.0;1753875187.55114;15.193977;0.68;-1.19;0.18;0.993272;0.084411;0.013724;105.3;0.0;0.0;2.0;0.0;0.0
4.0;1753875187.555746;15.189168;0.74;-1.15;0.05;0.994462;0.085584;0.014259;103.9;0.0;0.0;2.0;0.0;0.0
4.0;1753875187.560351;15.203637;0.6;-1.08;0.07;0.993938;0.084166;0.013845;100.6;0.0;0.0;2.0;0.0;0.0
4.0;1753875187.564956;15.19155;0.71;-1.17;0.01;0.993571;0.085272;0.012552;110.0;0.0;0.0;2.0;0.0;0.0
4.0;1753875187.569561;15.179926;0.7;-1.07;0.09;0.994225;0.086272;0.013763;107.5;0.0;0.0;2.0;0.0;0.0
4.0;1753875187.574166;15.204989;0.85;-1.1;0.05;0.994438;0.085558;0.014348;104.1;0.0;0.0;2.0;0.0;0.0
4.0;1753875187.578771;15.217419;0.75;-1.18;-0.0;0.993303;0.084113;0.014488;101.3;0.0;0.0;2.0;0.0;0.0
4.0;1753875187.583376;15.215972;0.77;-1.14;0.03;0.995177;0.086465;0.013239;105.2;0.0;0.0;2.0;0.0;0.0
4.0;1753875187.587981;15.212063;0.59;-1.18;-0.05;0.994331;0.084739;0.012547;108.3;0.0;0.0;2.0;0.0;0.0
4.0;1753875187.5944;15.203125;0.7;-1.19;0.0;0.994056;0.085522;0.013542;104.0;0.0;0.0;2.0;0.0;0.0
4.0;1753875187.599005;15.193188;0.68;-1.19;-0.04;0.994591;0.084003;0.013935;103.0;0.0;0.0;2.0;0.0;0.0
4.0;1753875187.60361;15.176419;0.68;-1.18;-0.04;0.994226;0.086848;0.013202;106.6;0.0;0.0;2.0;0.0;0.0
4.0;1753875187.608215;15.170463;0.65;-1.18;0.01;0.994422;0.086198;0.013741;107.3;0.0;0.0;2.0;0.0;0.0
4.0;1753875187.61555;15.175781;0.63;-1.19;0.0;0.993324;0.086986;0.012932;106.0;0.0;0.0;2.0;0.0;0.0
4.0;1753875187.620155;15.17586;0.63;-1.23;0.01;0.992532;0.086547;0.013463;107.1;0.0;0.0;2.0;0.0;0.0
4.0;1753875187.62476;15.159058;0.57;-1.15;0.04;0.994185;0.083812;0.013164;106.1;0.0;0.0;2.0;0.0;0.0
4.0;1753875187.629365;15.166977;0.57;-1.2;0.05;0.993372;0.085721;0.01415;103.9;0.0;0.0;2.0;0.0;0.0
4.0;1753875187.63397;15.158831;0.59;-1.18;0.06;0.992501;0.083262;0.013727;105.4;0.0;0.0;2.0;0.0;0.0
4.0;1753875187.638575;15.179695;0.6;-1.17;-0.05;0.993138;0.083122;0.014191;105.0;0.0;0.0;2.0;0.0;0.0
4.0;1753875187.64318;15.153266;0.75;-1.19;0.08;0.993754;0.084048;0.013279;105.8;0.0;0.0;2.0;0.0;0.0
4.0;1753875187.65151;15.175781;0.63;-1.19;0.07;0.993446;0.08418;0.014274;106.0;0.0;0.0;2.0;0.0;0.0
4.0;1753875187.656115;15.179279;0.65;-1.21;0.07;0.994316;0.082839;0.015816;105.5;0.0;0.0;2.0;0.0;0.0
4.0;1753875187.66072;15.154652;0.61;-1.12;0.11;0.994563;0.084365;0.014378;105.7;0.0;0.0;2.0;0.0;0.0
4.0;1753875187.665325;15.177695;0.53;-1.12;-0.0;0.993871;0.084477;0.014132;104.5;0.0;0.0;2.0;0.0;0.0
4.0;1753875187.66993;15.169917;0.52;-1.17;0.07;0.992119;0.085032;0.012674;106.6;0.0;0.0;2.0;0.0;0.0
4.0;1753875187.674535;15.208066;0.62;-1.19;0.02;0.992157;0.088884;0.01386;104.4;0.0;0.0;2.0;0.0;0.0
4.0;1753875187.67914;15.162383;0.57;-1.19;0.09;0.992456;0.08592;0.014991;103.4;0.0;0.0;2.0;0.0;0.0
4.0;1753875187.683746;15.164964;0.53;-1.15;-0.0;0.991571;0.085961;0.01441;104.3;0.0;0.0;2.0;0.0;0.0
4.0;1753875187.68835;15.154312;0.64;-1.23;0.12;0.993063;0.082521;0.013855;103.1;0.0;0.0;2.0;0.0;0.0
4.0;1753875187.692956;15.175344;0.68;-1.2;0.05;0.992726;0.086465;0.013601;104.9;0.0;0.0;2.0;0.0;0.0
4.0;1753875187.69756;15.190586;0.51;-1.31;0.03;0.992817;0.085223;0.01538;109.2;0.0;0.0;2.0;0.0;0.0
4.0;1753875187.70569;15.175781;0.63;-1.19;0.07;0.99186;0.08662;0.01403;106.0;0.0;0.0;2.0;0.0;0.0
4.0;1753875187.710295;15.159912;0.6;-1.18;0.07;0.991658;0.085196;0.013827;107.2;0.0;0.0;2.0;0.0;0.0
4.0;1753875187.7149;15.167299;0.68;-1.22;0.06;0.991705;0.086226;0.01243;108.2;0.0;0.0;2.0;0.0;0.0
4.0;1753875187.719505;15.18837;0.67;-1.2;0.13;0.992033;0.08302;0.012326;107.0;0.0;0.0;2.0;0.0;0.0
4.0;1753875187.72411;15.157072;0.51;-1.12;-0.0;0.990291;0.083948;0.013138;106.5;0.0;0.0;2.0;0.0;0.0
4.0;1753875187.728715;15.193172;0.67;-1.03;0.1;0.992478;0.083973;0.01353;104.2;0.0;0.0;2.0;0.0;0.0
4.0;1753875187.73332;15.184643;0.64;-1.02;0.12;0.992347;0.084466;0.012864;106.7;0.0;0.0;2.0;0.0;0.0
4.0;1753875187.737925;15.186462;0.63;-1.03;0.05;0.993657;0.083466;0.01273;107.7;0.0;0.0;2.0;0.0;0.0
4.0;1753875187.74253;15.176072;0.52;-1.1;0.07;0.992615;0.083549;0.013907;102.7;0.0;0.0;2.0;0.0;0.0
4.0;1753875187.747136;15.162703;0.58;-0.98;-0.01;0.993684;0.08277;0.012184;106.6;0.0;0.0;2.0;0.0;0.0
4.0;1753875187.75263;15.175781;0.56;-1.05;0.07;0.993202;0.082716;0.01281;106.0;0.0;0.0;2.0;0.0;0.0
4.0;1753875187.757235;15.177696;0.61;-0.93;0.06;0.994499;0.083841;0.012626;107.4;0.0;0.0;2.0;0.0;0.0
4.0;1753875187.76184;15.181654;0.5;-1.0;0.07;0.992682;0.083381;0.012839;102.0;0.0;0.0;2.0;0.0;0.0
4.0;1753875187.766445;15.197849;0.53;-1.12;0.09;0.992372;0.085117;0.013082;102.3;0.0;0.0;2.0;0.0;0.0
4.0;1753875187.77105;15.1841;0.59;-1.15;0.02;0.991896;0.083224;0.012026;109.1;0.0;0.0;2.0;0.0;0.0
4.0;1753875187.775655;15.174044;0.51;-1.1;0.08;0.993217;0.083789;0.012409;104.6;0.0;0.0;2.0;0.0;0.0
4.0;1753875187.78026;15.168716;0.57;-1.08;-0.05;0.990961;0.084905;0.014664;106.5;0.0;0.0;2.0;0.0;0.0
4.0;1753875187.7881;15.175781;0.56;-1.12;0.0;0.993202;0.085278;0.012078;106.0;0.0;0.0;2.0;0.0;0.0
4.0;1753875187.792705;15.196361;0.53;-1.16;-0.03;0.994285;0.084327;0.013039;105.6;0.0;0.0;2.0;0.0;0.0
4.0;1753875187.79731;15.190013;0.6;-1.11;0.01;0.992771;0.085231;0.012765;107.3;0.0;0.0;2.0;0.0;0.0
4.0;1753875187.801915;15.178404;0.51;-1.05;-0.04;0.993565;0.085854;0.010619;105.8;0.0;0.0;2.0;0.0;0.0
4.0;1753875187.80652;15.171093;0.52;-1.16;0.12;0.99184;0.086356;0.011485;106.9;0.0;0.0;2.0;0.0;0.0
4.0;1753875187.811125;15.170668;0.62;-1.04;0.13;0.992528;0.085492;0.012404;108.1;0.0;0.0;2.0;0.0;0.0
4.0;1753875187.81573;15.191288;0.57;-1.02;0.04;0.993235;0.084825;0.014164;104.9;0.0;0.0;2.0;0.0;0.0
4.0;1753875187.820336;15.177895;0.54;-1.15;0.07;0.992397;0.084979;0.013228;102.5;0.0;0.0;2.0;0.0;0.0
4.0;1753875187.82494;15.165888;0.55;-1.18;0.12;0.992606;0.086289;0.011539;108.9;0.0;0.0;2.0;0.0;0.0
4.0;1753875187.829546;15.200979;0.61;-1.11;0.12;0.992211;0.084277;0.012849;104.7;0.0;0.0;2.0;0.0;0.0
4.0;1753875187.83376;15.1875;0.56;-1.12;0.14;0.992592;0.085156;0.01281;106.0;0.0;0.0;2.0;0.0;0.0
4.0;1753875187.838365;15.180401;0.54;-1.17;0.22;0.992268;0.087087;0.013111;105.0;0.0;0.0;2.0;0.0;0.0
4.0;1753875187.84297;15.192933;0.6;-1.11;0.14;0.993388;0.086466;0.012758;105.2;0.0;0.0;2.0;0.0;0.0
4.0;1753875187.847575;15.142043;0.6;-1.05;0.19;0.992918;0.087001;0.01317;105.4;0.0;0.0;2.0;0.0;0.0
4.0;1753875187.85218;15.166085;0.51;-1.15;0.11;0.991899;0.084749;0.012469;104.8;0.0;0.0;2.0;0.0;0.0
4.0;1753875187.856785;15.179166;0.41;-1.14;0.14;0.992259;0.085401;0.011698;105.6;0.0;0.0;2.0;0.0;0.0
4.0;1753875187.86139;15.167488;0.71;-1.19;0.05;0.993173;0.085911;0.01294;102.4;0.0;0.0;2.0;0.0;0.0
4.0;1753875187.865996;15.173945;0.53;-1.1;0.29;0.993244;0.085441;0.01323;105.1;0.0;0.0;2.0;0.0;0.0
4.0;1753875187.8706;15.185226;0.52;-1.16;0.2;0.992062;0.085393;0.014067;107.2;0.0;0.0;2.0;0.0;0.0
4.0;1753875187.875206;15.17357;0.42;-1.09;0.14;0.992699;0.085552;0.013657;107.1;0.0;0.0;2.0;0.0;0.0
4.0;1753875187.87981;15.18033;0.53;-1.16;0.14;0.99354;0.086675;0.012524;105.3;0.0;0.0;2.0;0.0;0.0
4.0;1753875187.884416;15.183868;0.63;-1.16;0.15;0.992134;0.086961;0.010295;105.2;0.0;0.0;2.0;0.0;0.0
4.0;1753875187.889021;15.170204;0.63;-1.04;0.1;0.992304;0.085591;0.011222;106.2;0.0;0.0;2.0;0.0;0.0
4.0;1753875187.893626;15.185298;0.66;-1.14;0.16;0.992155;0.085001;0.012008;105.7;0.0;0.0;2.0;0.0;0.0
4.0;1753875187.898231;15.194086;0.63;-1.13;0.2;0.992904;0.087624;0.012316;105.8;0.0;0.0;2.0;0.0;0.0
4.0;1753875187.902836;15.187554;0.55;-1.16;0.11;0.99266;0.084659;0.011199;105.3;0.0;0.0;2.0;0.0;0.0
4.0;1753875187.907441;15.18278;0.62;-1.14;0.01;0.993992;0.086089;0.012102;108.4;0.0;0.0;2.0;0.0;0.0
4.0;1753875187.912046;15.209278;0.66;-1.19;0.18;0.991932;0.083767;0.010122;105.3;0.0;0.0;2.0;0.0;0.0
4.0;1753875187.916651;15.171819;0.65;-1.08;0.16;0.99191;0.083392;0.010153;106.9;0.0;0.0;2.0;0.0;0.0
4.0;1753875187.921256;15.176457;0.62;-1.02;0.04;0.994573;0.085448;0.009365;103.1;0.0;0.0;2.0;0.0;0.0
4.0;1753875187.925861;15.18635;0.55;-1.12;0.1;0.994283;0.085783;0.011308;108.1;0.0;0.0;2.0;0.0;0.0
4.0;1753875187.930466;15.17762;0.47;-1.14;0.17;0.99309;0.083828;0.013618;108.3;0.0;0.0;2.0;0.0;0.0
4.0;1753875187.935071;15.200273;0.63;-1.18;0.13;0.99356;0.08676;0.011106;106.0;0.0;0.0;2.0;0.0;0.0
4.0;1753875187.939676;15.169885;0.59;-1.18;0.17;0.993701;0.085226;0.010668;105.2;0.0;0.0;2.0;0.0;0.0
4.0;1753875187.944281;15.177114;0.57;-1.06;0.13;0.992898;0.085366;0.010369;106.7;0.0;0.0;2.0;0.0;0.0
4.0;1753875187.948886;15.219645;0.57;-1.07;0.02;0.992305;0.085471;0.010372;105.1;0.0;0.0;2.0;0.0;0.0
4.0;1753875187.9553;15.1875;0.63;-1.12;0.07;0.99308;0.085888;0.010858;106.0;0.0;0.0;2.0;0.0;0.0
4.0;1753875187.957142;15.183594;0.63;-1.12;0.07;0.993324;0.085766;0.0122;103.0;0.0;0.0;2.0;0.0;0.0
4.0;1753875187.961687;15.183594;0.63;-1.12;0.07;0.992836;0.085156;0.012932;103.0;0.0;0.0;2.0;0.0;0.0
4.0;1753875187.966292;15.212991;0.62;-1.09;-0.04;0.991367;0.087958;0.012034;101.9;0.0;0.0;2.0;0.0;0.0
4.0;1753875187.971484;15.183594;0.56;-1.12;0.0;0.99308;0.086376;0.0122;103.0;0.0;0.0;2.0;0.0;0.0
4.0;1753875187.976929;15.210938;0.63;-1.05;0.0;0.99308;0.084424;0.01159;103.0;0.0;0.0;2.0;0.0;0.0
4.0;1753875187.982603;15.210938;0.49;-1.12;0.0;0.993446;0.087596;0.012322;107.0;0.0;0.0;2.0;0.0;0.0
4.0;1753875187.984393;15.210938;0.7;-1.12;0.0;0.993568;0.08418;0.01281;107.0;0.0;0.0;2.0;0.0;0.0
4.0;1753875187.989588;15.210938;0.7;-1.12;0.07;0.99247;0.087352;0.011102;107.0;0.0;0.0;2.0;0.0;0.0
4.0;1753875187.993536;15.152344;0.63;-1.12;0.07;0.99369;0.083448;0.013176;107.0;0.0;0.0;2.0;0.0;0.0
4.0;1753875187.998102;15.152344;0.49;-1.19;0.0;0.993202;0.087474;0.012932;107.0;0.0;0.0;2.0;0.0;0.0
4.0;1753875188.002707;15.130282;0.5;-1.19;0.04;0.993877;0.087576;0.012042;105.8;0.0;0.0;2.0;0.0;0.0
4.0;1753875188.007312;15.153416;0.43;-1.16;0.05;0.99273;0.08444;0.013347;110.3;0.0;0.0;2.0;0.0;0.0
4.0;1753875188.011917;15.155244;0.5;-1.19;-0.01;0.994112;0.088418;0.01253;105.6;0.0;0.0;2.0;0.0;0.0
4.0;1753875188.016522;15.116343;0.53;-1.2;0.06;0.99337;0.088898;0.013022;106.2;0.0;0.0;2.0;0.0;0.0
4.0;1753875188.021127;15.110719;0.46;-1.13;0.07;0.993132;0.08316;0.013595;112.1;0.0;0.0;2.0;0.0;0.0
4.0;1753875188.025732;15.130946;0.52;-1.18;0.01;0.993606;0.084684;0.011235;107.4;0.0;0.0;2.0;0.0;0.0
4.0;1753875188.030337;15.149747;0.34;-1.15;0.0;0.993402;0.088311;0.013492;111.6;0.0;0.0;2.0;0.0;0.0
4.0;1753875188.034942;15.173245;0.44;-1.14;0.02;0.993582;0.08764;0.013073;108.4;0.0;0.0;2.0;0.0;0.0
4.0;1753875188.039548;15.102909;0.42;-1.18;0.03;0.992754;0.087839;0.011395;107.2;0.0;0.0;2.0;0.0;0.0
4.0;1753875188.044152;15.175646;0.55;-1.14;-0.03;0.992977;0.086465;0.013049;107.8;0.0;0.0;2.0;0.0;0.0
4.0;1753875188.048758;15.14313;0.48;-1.22;-0.03;0.9912;0.085134;0.012402;107.8;0.0;0.0;2.0;0.0;0.0
4.0;1753875188.053362;15.134974;0.48;-1.13;-0.03;0.993093;0.087064;0.012217;105.7;0.0;0.0;2.0;0.0;0.0
4.0;1753875188.057968;15.130626;0.57;-1.14;0.06;0.992588;0.085323;0.013436;108.8;0.0;0.0;2.0;0.0;0.0
4.0;1753875188.062573;15.184005;0.45;-1.22;0.05;0.993875;0.087187;0.013796;105.9;0.0;0.0;2.0;0.0;0.0
4.0;1753875188.067178;15.164467;0.58;-1.24;0.06;0.993275;0.085486;0.012585;107.5;0.0;0.0;2.0;0.0;0.0
4.0;1753875188.071783;15.166483;0.56;-1.19;0.04;0.992667;0.085303;0.012823;105.9;0.0;0.0;2.0;0.0;0.0
4.0;1753875188.076388;15.141917;0.47;-1.23;-0.03;0.99251;0.086378;0.013654;106.1;0.0;0.0;2.0;0.0;0.0
4.0;1753875188.080993;15.164891;0.62;-1.17;0.04;0.993003;0.08607;0.012743;103.6;0.0;0.0;2.0;0.0;0.0
4.0;1753875188.085598;15.172295;0.52;-1.14;0.09;0.992557;0.085709;0.01452;105.2;0.0;0.0;2.0;0.0;0.0
4.0;1753875188.090203;15.162665;0.63;-1.15;0.02;0.993413;0.085356;0.011643;106.5;0.0;0.0;2.0;0.0;0.0
4.0;1753875188.094808;15.134802;0.63;-1.21;0.03;0.993173;0.08754;0.013209;108.4;0.0;0.0;2.0;0.0;0.0
4.0;1753875188.099413;15.159551;0.49;-1.12;0.04;0.993496;0.083727;0.012728;107.5;0.0;0.0;2.0;0.0;0.0
4.0;1753875188.104018;15.131616;0.52;-1.17;0.04;0.992476;0.087265;0.012294;105.1;0.0;0.0;2.0;0.0;0.0
4.0;1753875188.108623;15.153042;0.64;-1.15;0.03;0.993256;0.086051;0.013049;105.7;0.0;0.0;2.0;0.0;0.0
4.0;1753875188.113228;15.147992;0.48;-1.15;-0.02;0.992274;0.085459;0.012635;109.0;0.0;0.0;2.0;0.0;0.0
4.0;1753875188.117834;15.141516;0.58;-1.17;0.05;0.993068;0.086303;0.012628;107.5;0.0;0.0;2.0;0.0;0.0
4.0;1753875188.122438;15.123975;0.53;-1.19;-0.0;0.992553;0.084832;0.012365;104.2;0.0;0.0;2.0;0.0;0.0
4.0;1753875188.127044;15.15804;0.52;-1.11;0.02;0.992161;0.084295;0.010439;105.4;0.0;0.0;2.0;0.0;0.0
4.0;1753875188.131648;15.153928;0.5;-1.15;0.04;0.992525;0.088836;0.012161;107.0;0.0;0.0;2.0;0.0;0.0
4.0;1753875188.136254;15.16475;0.5;-1.17;0.08;0.993303;0.08793;0.01204;107.7;0.0;0.0;2.0;0.0;0.0
4.0;1753875188.140859;15.148499;0.55;-1.15;0.06;0.992894;0.085053;0.011083;105.0;0.0;0.0;2.0;0.0;0.0
4.0;1753875188.145464;15.181882;0.57;-1.2;0.14;0.992254;0.083208;0.012959;107.2;0.0;0.0;2.0;0.0;0.0
4.0;1753875188.150069;15.145803;0.43;-1.19;0.05;0.992739;0.08371;0.012911;109.6;0.0;0.0;2.0;0.0;0.0
4.0;1753875188.154674;15.135955;0.61;-1.13;0.03;0.992953;0.085891;0.011203;108.3;0.0;0.0;2.0;0.0;0.0
4.0;1753875188.159279;15.151767;0.51;-1.07;0.07;0.993289;0.08564;0.011841;107.7;0.0;0.0;2.0;0.0;0.0
4.0;1753875188.163884;15.198463;0.61;-1.15;0.11;0.992845;0.083405;0.013253;103.1;0.0;0.0;2.0;0.0;0.0
4.0;1753875188.168489;15.19418;0.58;-1.14;0.06;0.993704;0.084935;0.01223;104.6;0.0;0.0;2.0;0.0;0.0
4.0;1753875188.173094;15.128682;0.71;-1.11;0.01;0.992705;0.083976;0.013754;107.6;0.0;0.0;2.0;0.0;0.0
4.0;1753875188.177699;15.159949;0.5;-1.12;0.01;0.993523;0.084004;0.011765;106.4;0.0;0.0;2.0;0.0;0.0
4.0;1753875188.182304;15.134594;0.59;-1.09;0.02;0.992349;0.085457;0.012158;107.2;0.0;0.0;2.0;0.0;0.0
4.0;1753875188.186909;15.142632;0.57;-1.21;0.06;0.9941;0.086124;0.011426;107.4;0.0;0.0;2.0;0.0;0.0
4.0;1753875188.191514;15.154729;0.67;-1.13;-0.0;0.992967;0.083033;0.010816;104.0;0.0;0.0;2.0;0.0;0.0
4.0;1753875188.196119;15.138703;0.61;-1.15;0.01;0.993721;0.083157;0.012137;108.4;0.0;0.0;2.0;0.0;0.0
4.0;1753875188.200724;15.164365;0.62;-1.2;0.06;0.993185;0.084147;0.011833;109.5;0.0;0.0;2.0;0.0;0.0
4.0;1753875188.20533;15.11907;0.53;-1.1;0.02;0.992192;0.083043;0.011788;107.3;0.0;0.0;2.0;0.0;0.0
4.0;1753875188.209934;15.167733;0.63;-1.12;0.0;0.993247;0.084183;0.011899;107.5;0.0;0.0;2.0;0.0;0.0
4.0;1753875188.21454;15.136643;0.5;-1.11;0.11;0.991998;0.082426;0.012251;105.0;0.0;0.0;2.0;0.0;0.0
4.0;1753875188.219144;15.142403;0.76;-1.19;0.12;0.993675;0.08423;0.011978;108.8;0.0;0.0;2.0;0.0;0.0
4.0;1753875188.22375;15.158277;0.56;-1.12;0.07;0.99321;0.080897;0.012461;104.4;0.0;0.0;2.0;0.0;0.0
4.0;1753875188.228355;15.122999;0.68;-1.13;0.03;0.993285;0.083361;0.0126;108.1;0.0;0.0;2.0;0.0;0.0
4.0;1753875188.23296;15.180833;0.61;-1.15;0.03;0.99324;0.081772;0.012756;108.0;0.0;0.0;2.0;0.0;0.0
4.0;1753875188.237565;15.180893;0.62;-1.13;0.08;0.99201;0.085282;0.012787;106.7;0.0;0.0;2.0;0.0;0.0
4.0;1753875188.24217;15.180452;0.73;-1.13;0.08;0.992095;0.085041;0.011854;106.8;0.0;0.0;2.0;0.0;0.0
4.0;1753875188.246775;15.148923;0.68;-1.08;0.07;0.991506;0.082862;0.011894;108.9;0.0;0.0;2.0;0.0;0.0
4.0;1753875188.25138;15.175452;0.63;-1.14;0.07;0.992738;0.083295;0.010843;108.0;0.0;0.0;2.0;0.0;0.0
4.0;1753875188.255985;15.125033;0.56;-1.18;0.03;0.994547;0.08463;0.013221;105.5;0.0;0.0;2.0;0.0;0.0
4.0;1753875188.2602;15.152344;0.63;-1.12;0.07;0.99308;0.083204;0.0122;107.0;0.0;0.0;2.0;0.0;0.0
4.0;1753875188.264805;15.137516;0.73;-1.09;0.07;0.992321;0.082855;0.013187;105.2;0.0;0.0;2.0;0.0;0.0
4.0;1753875188.26941;15.18053;0.57;-1.15;0.12;0.992182;0.082665;0.011947;105.9;0.0;0.0;2.0;0.0;0.0
4.0;1753875188.274015;15.120476;0.6;-1.03;0.11;0.992975;0.084687;0.013211;108.6;0.0;0.0;2.0;0.0;0.0
4.0;1753875188.27862;15.192103;0.63;-1.16;0.04;0.993633;0.083648;0.011211;106.1;0.0;0.0;2.0;0.0;0.0
4.0;1753875188.283225;15.14281;0.69;-1.11;0.1;0.994437;0.082684;0.013008;108.0;0.0;0.0;2.0;0.0;0.0
4.0;1753875188.28783;15.109975;0.59;-1.15;0.08;0.9919;0.08343;0.011343;108.3;0.0;0.0;2.0;0.0;0.0
4.0;1753875188.292436;15.176098;0.69;-1.13;0.13;0.992923;0.084943;0.012565;105.4;0.0;0.0;2.0;0.0;0.0
4.0;1753875188.29704;15.152053;0.67;-1.17;0.01;0.992688;0.085965;0.012588;105.4;0.0;0.0;2.0;0.0;0.0
4.0;1753875188.301646;15.16624;0.64;-1.15;0.1;0.994167;0.082702;0.011055;103.9;0.0;0.0;2.0;0.0;0.0
4.0;1753875188.30625;15.131835;0.7;-1.13;0.06;0.992258;0.084254;0.011073;107.4;0.0;0.0;2.0;0.0;0.0
4.0;1753875188.310856;15.166495;0.58;-1.07;0.05;0.992381;0.084424;0.013976;107.0;0.0;0.0;2.0;0.0;0.0
4.0;1753875188.315461;15.130036;0.7;-1.14;0.08;0.993708;0.082769;0.011874;109.0;0.0;0.0;2.0;0.0;0.0
4.0;1753875188.320066;15.202356;0.69;-1.13;0.06;0.99395;0.083144;0.01237;110.4;0.0;0.0;2.0;0.0;0.0
4.0;1753875188.324671;15.17185;0.62;-1.11;0.07;0.992867;0.086228;0.012498;105.0;0.0;0.0;2.0;0.0;0.0
4.0;1753875188.329276;15.140332;0.69;-1.05;0.06;0.992827;0.084626;0.011712;111.6;0.0;0.0;2.0;0.0;0.0
4.0;1753875188.333881;15.185851;0.57;-1.11;0.09;0.99344;0.083636;0.013825;108.1;0.0;0.0;2.0;0.0;0.0
4.0;1753875188.338486;15.2061;0.62;-1.19;0.1;0.993738;0.08281;0.011695;108.4;0.0;0.0;2.0;0.0;0.0
4.0;1753875188.343091;15.173376;0.51;-1.17;0.01;0.993019;0.082466;0.012498;102.0;0.0;0.0;2.0;0.0;0.0
4.0;1753875188.347696;15.188766;0.6;-1.13;0.04;0.993394;0.082968;0.012792;107.2;0.0;0.0;2.0;0.0;0.0
4.0;1753875188.352301;15.171037;0.53;-1.1;0.07;0.993758;0.083185;0.013484;106.0;0.0;0.0;2.0;0.0;0.0
4.0;1753875188.356906;15.171175;0.55;-1.09;0.08;0.991845;0.08324;0.012025;105.9;0.0;0.0;2.0;0.0;0.0
4.0;1753875188.361511;15.115522;0.65;-1.12;0.06;0.992617;0.08516;0.013257;109.0;0.0;0.0;2.0;0.0;0.0
4.0;1753875188.366116;15.170891;0.55;-1.15;0.08;0.993771;0.08496;0.011874;108.4;0.0;0.0;2.0;0.0;0.0
4.0;1753875188.370721;15.162845;0.7;-1.13;0.06;0.993645;0.08457;0.012432;107.7;0.0;0.0;2.0;0.0;0.0
4.0;1753875188.375326;15.183129;0.68;-1.11;0.03;0.993192;0.08702;0.011562;106.9;0.0;0.0;2.0;0.0;0.0
4.0;1753875188.379932;15.164287;0.67;-1.13;0.08;0.992777;0.084679;0.011748;105.7;0.0;0.0;2.0;0.0;0.0
4.0;1753875188.384536;15.159076;0.68;-1.13;0.12;0.992824;0.083635;0.013712;107.8;0.0;0.0;2.0;0.0;0.0
4.0;1753875188.389142;15.143395;0.64;-1.14;0.07;0.993129;0.083742;0.011877;106.1;0.0;0.0;2.0;0.0;0.0
4.0;1753875188.393746;15.120747;0.67;-1.17;0.09;0.992085;0.082753;0.01239;110.9;0.0;0.0;2.0;0.0;0.0
4.0;1753875188.398352;15.139496;0.62;-1.1;0.03;0.993066;0.085169;0.01301;106.4;0.0;0.0;2.0;0.0;0.0
4.0;1753875188.402957;15.161639;0.64;-1.11;0.07;0.992713;0.08464;0.012187;109.9;0.0;0.0;2.0;0.0;0.0
4.0;1753875188.407562;15.169433;0.64;-1.12;0.07;0.99322;0.084874;0.013201;104.9;0.0;0.0;2.0;0.0;0.0
4.0;1753875188.412167;15.1841;0.67;-1.17;0.02;0.992391;0.082153;0.013505;110.2;0.0;0.0;2.0;0.0;0.0
4.0;1753875188.416772;15.150221;0.59;-1.12;0.06;0.994175;0.083927;0.011839;107.3;0.0;0.0;2.0;0.0;0.0
4.0;1753875188.421377;15.139071;0.6;-1.1;0.09;0.993117;0.082855;0.010675;105.3;0.0;0.0;2.0;0.0;0.0
4.0;1753875188.425982;15.15298;0.63;-1.14;0.1;0.993408;0.081213;0.012127;108.4;0.0;0.0;2.0;0.0;0.0
4.0;1753875188.430587;15.148474;0.59;-1.12;0.05;0.993268;0.086716;0.011876;105.9;0.0;0.0;2.0;0.0;0.0
4.0;1753875188.435192;15.131189;0.58;-1.12;0.09;0.994173;0.084768;0.012923;106.4;0.0;0.0;2.0;0.0;0.0
4.0;1753875188.439797;15.157304;0.6;-1.13;0.1;0.993414;0.08358;0.011897;108.2;0.0;0.0;2.0;0.0;0.0
4.0;1753875188.444402;15.15761;0.52;-1.17;0.1;0.993516;0.085804;0.011754;107.2;0.0;0.0;2.0;0.0;0.0
4.0;1753875188.449007;15.132013;0.69;-1.14;0.08;0.992993;0.085965;0.012408;105.2;0.0;0.0;2.0;0.0;0.0
4.0;1753875188.453612;15.150634;0.7;-1.11;0.06;0.993621;0.082765;0.012085;102.8;0.0;0.0;2.0;0.0;0.0
4.0;1753875188.458218;15.17214;0.67;-1.12;0.02;0.992175;0.085537;0.01139;106.6;0.0;0.0;2.0;0.0;0.0
4.0;1753875188.462822;15.194503;0.45;-1.11;0.06;0.992865;0.084735;0.01226;106.7;0.0;0.0;2.0;0.0;0.0
4.0;1753875188.467428;15.1535;0.66;-1.14;0.08;0.994519;0.08305;0.012221;106.5;0.0;0.0;2.0;0.0;0.0
4.0;1753875188.472032;15.154976;0.59;-1.13;0.1;0.993285;0.08769;0.012546;107.0;0.0;0.0;2.0;0.0;0.0
4.0;1753875188.476638;15.21518;0.49;-1.13;0.06;0.993527;0.085172;0.013594;108.2;0.0;0.0;2.0;0.0;0.0
4.0;1753875188.481243;15.165534;0.57;-1.15;0.1;0.993344;0.083799;0.011913;108.6;0.0;0.0;2.0;0.0;0.0
4.0;1753875188.485848;15.16598;0.64;-1.14;0.02;0.992257;0.086709;0.012373;107.6;0.0;0.0;2.0;0.0;0.0
4.0;1753875188.490453;15.170391;0.72;-1.15;0.07;0.993538;0.086501;0.012189;107.7;0.0;0.0;2.0;0.0;0.0
4.0;1753875188.495058;15.124336;0.52;-1.12;0.09;0.993931;0.084511;0.013135;107.2;0.0;0.0;2.0;0.0;0.0
4.0;1753875188.499663;15.170921;0.5;-1.16;0.07;0.992753;0.084756;0.013098;107.2;0.0;0.0;2.0;0.0;0.0
4.0;1753875188.504268;15.143004;0.6;-1.11;0.07;0.993237;0.083515;0.012946;105.8;0.0;0.0;2.0;0.0;0.0
4.0;1753875188.508873;15.180639;0.56;-1.11;0.05;0.993575;0.082407;0.012204;106.6;0.0;0.0;2.0;0.0;0.0
4.0;1753875188.513478;15.167701;0.71;-1.12;0.09;0.992488;0.08348;0.011514;109.2;0.0;0.0;2.0;0.0;0.0
4.0;1753875188.518083;15.106537;0.57;-1.08;0.08;0.995874;0.084542;0.012804;109.5;0.0;0.0;2.0;0.0;0.0
4.0;1753875188.522688;15.144619;0.56;-1.12;0.05;0.993055;0.083561;0.013464;109.3;0.0;0.0;2.0;0.0;0.0
4.0;1753875188.527293;15.133392;0.61;-1.08;0.07;0.994159;0.085;0.012059;104.3;0.0;0.0;2.0;0.0;0.0
4.0;1753875188.531898;15.16192;0.63;-1.15;0.08;0.993382;0.085753;0.012183;101.8;0.0;0.0;2.0;0.0;0.0
4.0;1753875188.536503;15.149006;0.61;-1.12;0.09;0.993798;0.087916;0.011632;108.9;0.0;0.0;2.0;0.0;0.0
4.0;1753875188.541108;15.172034;0.63;-1.16;0.16;0.993906;0.080631;0.01281;109.5;0.0;0.0;2.0;0.0;0.0
4.0;1753875188.545714;15.188974;0.65;-1.15;0.07;0.993776;0.081642;0.012169;107.3;0.0;0.0;2.0;0.0;0.0
4.0;1753875188.550318;15.150616;0.76;-1.14;0.06;0.993888;0.085012;0.014014;105.6;0.0;0.0;2.0;0.0;0.0
4.0;1753875188.554924;15.171196;0.56;-1.13;0.02;0.992985;0.084429;0.011839;109.9;0.0;0.0;2.0;0.0;0.0
4.0;1753875188.559528;15.130631;0.57;-1.18;0.09;0.993145;0.083213;0.013211;106.9;0.0;0.0;2.0;0.0;0.0
4.0;1753875188.564134;15.145097;0.53;-1.17;0.06;0.991806;0.084801;0.01237;109.4;0.0;0.0;2.0;0.0;0.0
4.0;1753875188.568739;15.146318;0.54;-1.11;0.04;0.992924;0.088566;0.011888;106.4;0.0;0.0;2.0;0.0;0.0
4.0;1753875188.573344;15.176129;0.62;-1.09;0.13;0.993133;0.085671;0.01245;107.0;0.0;0.0;2.0;0.0;0.0
4.0;1753875188.577949;15.157368;0.67;-1.13;0.1;0.992782;0.086968;0.012545;106.6;0.0;0.0;2.0;0.0;0.0
4.0;1753875188.582554;15.166989;0.64;-1.03;0.1;0.993352;0.085255;0.01355;105.1;0.0;0.0;2.0;0.0;0.0
4.0;1753875188.587159;15.140753;0.65;-1.12;0.05;0.994261;0.085666;0.010911;107.8;0.0;0.0;2.0;0.0;0.0
4.0;1753875188.591764;15.135173;0.48;-1.16;0.03;0.993048;0.084051;0.011618;108.3;0.0;0.0;2.0;0.0;0.0
4.0;1753875188.596369;15.15099;0.67;-1.13;0.05;0.992383;0.085779;0.012716;107.4;0.0;0.0;2.0;0.0;0.0
4.0;1753875188.600974;15.212049;0.63;-1.12;0.04;0.993108;0.087987;0.013117;108.9;0.0;0.0;2.0;0.0;0.0
4.0;1753875188.605579;15.162806;0.55;-1.13;0.06;0.992897;0.083068;0.012891;106.1;0.0;0.0;2.0;0.0;0.0
4.0;1753875188.610184;15.162168;0.76;-1.14;0.07;0.993044;0.084537;0.012732;104.9;0.0;0.0;2.0;0.0;0.0
4.0;1753875188.614789;15.212;0.59;-1.13;0.11;0.992225;0.086793;0.012858;108.1;0.0;0.0;2.0;0.0;0.0
4.0;1753875188.619394;15.168857;0.63;-1.13;0.13;0.991948;0.085643;0.012872;106.8;0.0;0.0;2.0;0.0;0.0
4.0;1753875188.623999;15.129153;0.64;-1.13;0.08;0.99228;0.085621;0.012548;108.2;0.0;0.0;2.0;0.0;0.0
4.0;1753875188.628604;15.109323;0.68;-1.12;0.02;0.992922;0.086878;0.012761;109.3;0.0;0.0;2.0;0.0;0.0
4.0;1753875188.63321;15.152868;0.7;-1.15;0.1;0.994116;0.085642;0.010745;106.7;0.0;0.0;2.0;0.0;0.0
4.0;1753875188.637814;15.192121;0.63;-1.17;0.09;0.992938;0.085541;0.012855;110.1;0.0;0.0;2.0;0.0;0.0
4.0;1753875188.64242;15.139464;0.7;-1.06;0.03;0.994434;0.087397;0.012091;110.0;0.0;0.0;2.0;0.0;0.0
4.0;1753875188.647025;15.121122;0.54;-1.13;0.19;0.994353;0.083936;0.012494;106.4;0.0;0.0;2.0;0.0;0.0
4.0;1753875188.65163;15.150852;0.72;-1.12;0.06;0.993206;0.085315;0.01244;105.1;0.0;0.0;2.0;0.0;0.0
4.0;1753875188.656235;15.089779;0.44;-1.13;0.12;0.99244;0.084326;0.01163;105.5;0.0;0.0;2.0;0.0;0.0
4.0;1753875188.66084;15.165506;0.61;-1.12;0.06;0.993818;0.084483;0.014494;108.1;0.0;0.0;2.0;0.0;0.0
4.0;1753875188.665445;15.15099;0.69;-1.07;0.0;0.993219;0.084528;0.013137;105.3;0.0;0.0;2.0;0.0;0.0
4.0;1753875188.67005;15.15205;0.69;-1.14;0.09;0.993154;0.084508;0.01197;109.9;0.0;0.0;2.0;0.0;0.0
4.0;1753875188.674655;15.138815;0.58;-1.17;0.03;0.992267;0.086156;0.012865;107.0;0.0;0.0;2.0;0.0;0.0
4.0;1753875188.67926;15.108386;0.77;-1.16;0.09;0.994068;0.083329;0.011571;106.4;0.0;0.0;2.0;0.0;0.0
4.0;1753875188.683865;15.153089;0.61;-1.11;0.07;0.992431;0.086805;0.011874;106.2;0.0;0.0;2.0;0.0;0.0
4.0;1753875188.68847;15.114664;0.53;-1.11;0.06;0.992345;0.086102;0.0105;108.4;0.0;0.0;2.0;0.0;0.0
4.0;1753875188.693075;15.168792;0.58;-1.16;0.08;0.993667;0.085422;0.013102;106.8;0.0;0.0;2.0;0.0;0.0
4.0;1753875188.69768;15.117357;0.71;-1.11;0.05;0.994955;0.087087;0.010941;105.3;0.0;0.0;2.0;0.0;0.0
4.0;1753875188.702285;15.168803;0.73;-1.11;0.05;0.993668;0.086135;0.012831;109.4;0.0;0.0;2.0;0.0;0.0
4.0;1753875188.70689;15.162619;0.69;-1.15;0.1;0.993058;0.088181;0.013983;106.6;0.0;0.0;2.0;0.0;0.0
4.0;1753875188.711496;15.165883;0.56;-1.1;0.03;0.994361;0.085747;0.012364;105.3;0.0;0.0;2.0;0.0;0.0
4.0;1753875188.7161;15.124906;0.62;-1.12;0.12;0.992323;0.086319;0.012202;109.8;0.0;0.0;2.0;0.0;0.0
4.0;1753875188.720706;15.15583;0.59;-1.15;0.1;0.993793;0.088704;0.013664;107.6;0.0;0.0;2.0;0.0;0.0
4.0;1753875188.72531;15.129226;0.71;-1.1;0.06;0.992347;0.086289;0.013239;110.1;0.0;0.0;2.0;0.0;0.0
4.0;1753875188.729916;15.161963;0.55;-1.15;0.05;0.992449;0.085719;0.012141;107.2;0.0;0.0;2.0;0.0;0.0
4.0;1753875188.734521;15.117502;0.59;-1.18;0.02;0.993337;0.084269;0.012259;109.6;0.0;0.0;2.0;0.0;0.0
4.0;1753875188.739126;15.176007;0.55;-1.1;0.09;0.993658;0.085579;0.012285;107.9;0.0;0.0;2.0;0.0;0.0
4.0;1753875188.743731;15.12311;0.68;-1.12;0.06;0.9927;0.084874;0.0127;105.8;0.0;0.0;2.0;0.0;0.0
4.0;1753875188.748336;15.156587;0.66;-1.07;0.04;0.99483;0.087695;0.01189;107.0;0.0;0.0;2.0;0.0;0.0
4.0;1753875188.752941;15.14478;0.61;-1.17;0.07;0.992434;0.085446;0.011282;109.2;0.0;0.0;2.0;0.0;0.0
4.0;1753875188.757546;15.168402;0.58;-1.14;0.12;0.993639;0.08633;0.013086;108.4;0.0;0.0;2.0;0.0;0.0
4.0;1753875188.762151;15.141046;0.56;-1.14;0.06;0.992933;0.083803;0.013246;104.4;0.0;0.0;2.0;0.0;0.0
4.0;1753875188.766756;15.122317;0.62;-1.15;0.05;0.993147;0.085855;0.013588;107.1;0.0;0.0;2.0;0.0;0.0
4.0;1753875188.771361;15.144098;0.64;-1.17;0.05;0.994401;0.087202;0.01121;106.3;0.0;0.0;2.0;0.0;0.0
4.0;1753875188.7771;15.152344;0.63;-1.12;0.07;0.99308;0.08601;0.01281;107.0;0.0;0.0;2.0;0.0;0.0
4.0;1753875188.781705;15.154519;0.63;-1.15;0.05;0.994032;0.085749;0.013177;105.1;0.0;0.0;2.0;0.0;0.0
4.0;1753875188.78631;15.164748;0.71;-1.12;-0.03;0.992615;0.087509;0.012999;106.9;0.0;0.0;2.0;0.0;0.0
4.0;1753875188.790915;15.183922;0.68;-1.17;0.14;0.993985;0.08492;0.012622;106.6;0.0;0.0;2.0;0.0;0.0
4.0;1753875188.79552;15.154682;0.54;-1.08;-0.01;0.993685;0.086427;0.0116;107.2;0.0;0.0;2.0;0.0;0.0
4.0;1753875188.800125;15.162783;0.6;-1.12;0.05;0.994124;0.084936;0.012887;104.9;0.0;0.0;2.0;0.0;0.0
4.0;1753875188.80473;15.163522;0.53;-1.08;-0.01;0.99387;0.085886;0.012247;105.6;0.0;0.0;2.0;0.0;0.0
4.0;1753875188.81235;15.171875;0.63;-1.12;0.0;0.9943;0.084058;0.012566;106.0;0.0;0.0;2.0;0.0;0.0
4.0;1753875188.816955;15.191193;0.58;-1.17;-0.01;0.993896;0.083716;0.012345;107.0;0.0;0.0;2.0;0.0;0.0
4.0;1753875188.82156;15.153623;0.64;-1.12;0.02;0.994482;0.085518;0.011977;104.9;0.0;0.0;2.0;0.0;0.0
4.0;1753875188.826165;15.20277;0.61;-1.12;-0.1;0.994389;0.084618;0.013958;108.1;0.0;0.0;2.0;0.0;0.0
4.0;1753875188.83077;15.175188;0.59;-1.14;-0.07;0.992797;0.084128;0.012851;104.5;0.0;0.0;2.0;0.0;0.0
4.0;1753875188.835375;15.185951;0.57;-1.14;-0.06;0.99401;0.085614;0.012478;107.4;0.0;0.0;2.0;0.0;0.0
4.0;1753875188.83998;15.21079;0.54;-1.1;0.02;0.993255;0.088134;0.012101;106.3;0.0;0.0;2.0;0.0;0.0
4.0;1753875188.844586;15.202946;0.53;-1.15;0.06;0.992772;0.085169;0.015087;106.0;0.0;0.0;2.0;0.0;0.0
4.0;1753875188.84919;15.200326;0.54;-1.1;0.03;0.993286;0.088183;0.012967;106.5;0.0;0.0;2.0;0.0;0.0
4.0;1753875188.85448;15.199219;0.56;-1.12;0.0;0.993324;0.086864;0.013176;106.0;0.0;0.0;2.0;0.0;0.0
4.0;1753875188.859085;15.199395;0.61;-1.1;0.0;0.993251;0.088574;0.014557;106.1;0.0;0.0;2.0;0.0;0.0
4.0;1753875188.86369;15.18247;0.76;-1.12;-0.02;0.992909;0.08846;0.01282;106.7;0.0;0.0;2.0;0.0;0.0
4.0;1753875188.868295;15.183844;0.62;-1.1;-0.01;0.993652;0.086039;0.013193;105.7;0.0;0.0;2.0;0.0;0.0
4.0;1753875188.8729;15.176653;0.75;-1.19;0.1;0.99275;0.087664;0.012286;104.2;0.0;0.0;2.0;0.0;0.0
4.0;1753875188.877505;15.195888;0.62;-1.13;-0.05;0.993225;0.088972;0.013421;107.3;0.0;0.0;2.0;0.0;0.0
4.0;1753875188.88211;15.197085;0.6;-1.17;-0.1;0.991662;0.08559;0.011824;108.0;0.0;0.0;2.0;0.0;0.0
4.0;1753875188.886716;15.189392;0.69;-1.12;0.05;0.993301;0.085172;0.013123;104.7;0.0;0.0;2.0;0.0;0.0
4.0;1753875188.89105;15.199219;0.7;-1.19;0.07;0.992592;0.086132;0.012322;106.0;0.0;0.0;2.0;0.0;0.0
4.0;1753875188.895655;15.205793;0.68;-1.18;0.02;0.992933;0.086217;0.012009;106.0;0.0;0.0;2.0;0.0;0.0
4.0;1753875188.90026;15.188943;0.6;-1.22;0.05;0.992415;0.086441;0.011935;106.8;0.0;0.0;2.0;0.0;0.0
4.0;1753875188.904865;15.195674;0.72;-1.12;0.14;0.992782;0.085846;0.012109;106.1;0.0;0.0;2.0;0.0;0.0
4.0;1753875188.90947;15.196477;0.71;-1.16;-0.0;0.992718;0.087252;0.010702;106.8;0.0;0.0;2.0;0.0;0.0
4.0;1753875188.914075;15.200793;0.62;-1.12;0.12;0.991153;0.083227;0.013189;104.1;0.0;0.0;2.0;0.0;0.0
4.0;1753875188.91868;15.224684;0.71;-1.16;0.03;0.993425;0.084837;0.012731;107.8;0.0;0.0;2.0;0.0;0.0
4.0;1753875188.923286;15.196026;0.73;-1.08;0.08;0.993812;0.084214;0.012133;106.9;0.0;0.0;2.0;0.0;0.0
4.0;1753875188.92789;15.189923;0.55;-1.16;-0.01;0.991256;0.08455;0.013379;104.9;0.0;0.0;2.0;0.0;0.0
4.0;1753875188.93662;15.199219;0.7;-1.12;0.07;0.992714;0.084912;0.01281;106.0;0.0;0.0;2.0;0.0;0.0
4.0;1753875188.941225;15.216692;0.68;-1.18;0.11;0.992157;0.086152;0.012836;105.9;0.0;0.0;2.0;0.0;0.0
4.0;1753875188.94583;15.18054;0.73;-1.12;-0.02;0.99396;0.086468;0.013759;103.3;0.0;0.0;2.0;0.0;0.0
4.0;1753875188.950435;15.204123;0.63;-1.12;0.05;0.992256;0.085158;0.01363;106.9;0.0;0.0;2.0;0.0;0.0
4.0;1753875188.95504;15.220754;0.71;-1.07;-0.02;0.994088;0.086495;0.013683;104.4;0.0;0.0;2.0;0.0;0.0
4.0;1753875188.959645;15.17636;0.65;-1.02;0.05;0.993128;0.086529;0.013349;104.6;0.0;0.0;2.0;0.0;0.0
4.0;1753875188.96425;15.229838;0.66;-1.12;0.04;0.992849;0.08344;0.012618;107.6;0.0;0.0;2.0;0.0;0.0
4.0;1753875188.968856;15.198383;0.64;-1.09;-0.01;0.99281;0.086187;0.013048;106.8;0.0;0.0;2.0;0.0;0.0
4.0;1753875188.97346;15.207621;0.69;-1.09;-0.06;0.992333;0.088959;0.013258;104.4;0.0;0.0;2.0;0.0;0.0
4.0;1753875188.9817;15.199219;0.63;-1.05;0.0;0.992836;0.08601;0.01403;106.0;0.0;0.0;2.0;0.0;0.0
4.0;1753875188.982071;15.136719;0.63;-1.19;0.07;0.992714;0.087352;0.012688;106.0;0.0;0.0;2.0;0.0;0.0
4.0;1753875188.985594;15.136719;0.7;-1.19;0.07;0.992592;0.082472;0.012322;106.0;0.0;0.0;2.0;0.0;0.0
4.0;1753875188.991314;15.136719;0.63;-1.12;0.0;0.992714;0.086742;0.012078;106.0;0.0;0.0;2.0;0.0;0.0
4.0;1753875188.997508;15.121094;0.56;-1.12;0.0;0.992348;0.083082;0.011712;106.0;0.0;0.0;2.0;0.0;0.0
4.0;1753875188.999276;15.121094;0.63;-1.26;-0.07;0.993324;0.085644;0.012322;106.0;0.0;0.0;2.0;0.0;0.0
4.0;1753875189.003881;15.13879;0.72;-1.13;-0.07;0.993312;0.086298;0.012411;105.7;0.0;0.0;2.0;0.0;0.0
4.0;1753875189.008486;15.094272;0.63;-1.28;-0.07;0.994024;0.086254;0.013752;106.1;0.0;0.0;2.0;0.0;0.0
4.0;1753875189.013091;15.119214;0.57;-1.22;-0.13;0.993575;0.083814;0.010866;106.0;0.0;0.0;2.0;0.0;0.0
4.0;1753875189.017696;15.083539;0.61;-1.29;-0.07;0.993555;0.084886;0.012548;105.5;0.0;0.0;2.0;0.0;0.0
4.0;1753875189.022301;15.104372;0.6;-1.21;0.01;0.99282;0.085754;0.012925;106.4;0.0;0.0;2.0;0.0;0.0
4.0;1753875189.026906;15.112794;0.62;-1.22;-0.03;0.992448;0.085574;0.01128;105.9;0.0;0.0;2.0;0.0;0.0
4.0;1753875189.031511;15.016107;0.59;-1.23;-0.2;0.993163;0.084033;0.011509;105.9;0.0;0.0;2.0;0.0;0.0
4.0;1753875189.036116;15.167222;0.57;-1.31;0.02;0.995217;0.084279;0.010338;105.4;0.0;0.0;2.0;0.0;0.0
4.0;1753875189.040722;15.131541;0.6;-1.3;-0.08;0.992507;0.083597;0.012456;105.5;0.0;0.0;2.0;0.0;0.0
4.0;1753875189.045326;15.10916;0.65;-1.22;-0.02;0.993892;0.087542;0.011947;106.3;0.0;0.0;2.0;0.0;0.0
4.0;1753875189.049932;15.119254;0.71;-1.35;0.02;0.991265;0.08414;0.012025;105.7;0.0;0.0;2.0;0.0;0.0
4.0;1753875189.054536;15.112187;0.61;-1.3;-0.06;0.992787;0.087746;0.012477;106.3;0.0;0.0;2.0;0.0;0.0
4.0;1753875189.059142;15.103525;0.59;-1.23;-0.08;0.993129;0.085861;0.013759;104.5;0.0;0.0;2.0;0.0;0.0
4.0;1753875189.063747;15.134753;0.59;-1.25;0.01;0.99257;0.083681;0.012104;104.6;0.0;0.0;2.0;0.0;0.0
4.0;1753875189.068352;15.111547;0.64;-1.26;0.04;0.991578;0.084918;0.011103;106.5;0.0;0.0;2.0;0.0;0.0
4.0;1753875189.072957;15.119852;0.61;-1.23;-0.05;0.993237;0.083807;0.013384;107.1;0.0;0.0;2.0;0.0;0.0
4.0;1753875189.077562;15.13083;0.64;-1.34;-0.0;0.992031;0.084837;0.011639;105.7;0.0;0.0;2.0;0.0;0.0
4.0;1753875189.082167;15.123041;0.63;-1.21;-0.08;0.991183;0.085744;0.013086;105.9;0.0;0.0;2.0;0.0;0.0
4.0;1753875189.086772;15.097433;0.53;-1.25;-0.13;0.991065;0.085711;0.011586;106.1;0.0;0.0;2.0;0.0;0.0
4.0;1753875189.091377;15.084485;0.73;-1.23;-0.1;0.993988;0.088688;0.013276;106.7;0.0;0.0;2.0;0.0;0.0
4.0;1753875189.095982;15.096725;0.69;-1.23;-0.02;0.994148;0.085361;0.011548;105.6;0.0;0.0;2.0;0.0;0.0
4.0;1753875189.100587;15.141826;0.6;-1.37;-0.06;0.993429;0.084228;0.012641;105.9;0.0;0.0;2.0;0.0;0.0
4.0;1753875189.105192;15.145684;0.66;-1.24;-0.05;0.992975;0.085478;0.014181;106.2;0.0;0.0;2.0;0.0;0.0
4.0;1753875189.109797;15.140924;0.62;-1.29;-0.07;0.992141;0.08671;0.011474;105.2;0.0;0.0;2.0;0.0;0.0
4.0;1753875189.114402;15.104603;0.65;-1.16;-0.09;0.992325;0.085792;0.011777;106.3;0.0;0.0;2.0;0.0;0.0
4.0;1753875189.119007;15.101631;0.65;-1.23;-0.01;0.99364;0.085387;0.011655;106.0;0.0;0.0;2.0;0.0;0.0
4.0;1753875189.123612;15.146076;0.66;-1.24;-0.16;0.99362;0.085231;0.011467;105.8;0.0;0.0;2.0;0.0;0.0
4.0;1753875189.128218;15.147145;0.63;-1.18;-0.07;0.993379;0.086908;0.010972;105.7;0.0;0.0;2.0;0.0;0.0
4.0;1753875189.132822;15.071464;0.61;-1.18;-0.08;0.991721;0.082961;0.011794;106.2;0.0;0.0;2.0;0.0;0.0
4.0;1753875189.137428;15.107166;0.64;-1.25;-0.13;0.992423;0.086785;0.01282;105.7;0.0;0.0;2.0;0.0;0.0
4.0;1753875189.142032;15.103741;0.62;-1.24;-0.1;0.993901;0.083264;0.013377;105.6;0.0;0.0;2.0;0.0;0.0
4.0;1753875189.146638;15.132356;0.66;-1.18;-0.07;0.994498;0.083772;0.012473;105.6;0.0;0.0;2.0;0.0;0.0
4.0;1753875189.151243;15.105069;0.66;-1.17;-0.02;0.993826;0.086609;0.012248;106.7;0.0;0.0;2.0;0.0;0.0
4.0;1753875189.155848;15.109631;0.65;-1.25;-0.05;0.990842;0.08384;0.012145;106.0;0.0;0.0;2.0;0.0;0.0
4.0;1753875189.160453;15.150203;0.66;-1.21;-0.07;0.993475;0.085164;0.012066;106.7;0.0;0.0;2.0;0.0;0.0
4.0;1753875189.165058;15.099021;0.64;-1.23;0.03;0.992655;0.082395;0.011786;107.4;0.0;0.0;2.0;0.0;0.0
4.0;1753875189.169663;15.145673;0.65;-1.22;-0.06;0.992776;0.085176;0.012783;106.1;0.0;0.0;2.0;0.0;0.0
4.0;1753875189.174268;15.122416;0.58;-1.21;-0.08;0.992801;0.087575;0.010601;106.3;0.0;0.0;2.0;0.0;0.0
4.0;1753875189.178873;15.122446;0.63;-1.25;-0.05;0.992331;0.085723;0.01133;106.4;0.0;0.0;2.0;0.0;0.0
4.0;1753875189.183478;15.120832;0.63;-1.18;-0.07;0.992797;0.086588;0.012922;106.1;0.0;0.0;2.0;0.0;0.0
4.0;1753875189.188083;15.105616;0.61;-1.2;0.02;0.992188;0.085908;0.01059;105.9;0.0;0.0;2.0;0.0;0.0
4.0;1753875189.192688;15.142031;0.63;-1.22;-0.14;0.994011;0.084601;0.011793;106.0;0.0;0.0;2.0;0.0;0.0
4.0;1753875189.197293;15.134293;0.69;-1.19;-0.08;0.993207;0.083509;0.013336;106.6;0.0;0.0;2.0;0.0;0.0
4.0;1753875189.201898;15.192348;0.62;-1.26;0.04;0.992622;0.084047;0.012416;106.0;0.0;0.0;2.0;0.0;0.0
4.0;1753875189.206504;15.115767;0.62;-1.24;-0.11;0.99306;0.08288;0.011654;106.8;0.0;0.0;2.0;0.0;0.0
4.0;1753875189.211108;15.10634;0.64;-1.21;-0.09;0.992061;0.084358;0.011769;106.1;0.0;0.0;2.0;0.0;0.0
4.0;1753875189.215714;15.117531;0.71;-1.17;-0.1;0.99298;0.084943;0.012342;106.2;0.0;0.0;2.0;0.0;0.0
4.0;1753875189.220318;15.130376;0.59;-1.23;-0.06;0.992975;0.086101;0.011999;105.2;0.0;0.0;2.0;0.0;0.0
4.0;1753875189.224924;15.088839;0.6;-1.25;-0.07;0.992747;0.082872;0.014298;105.9;0.0;0.0;2.0;0.0;0.0
4.0;1753875189.229529;15.137241;0.59;-1.29;0.04;0.992229;0.085342;0.011392;105.6;0.0;0.0;2.0;0.0;0.0
4.0;1753875189.234134;15.123422;0.62;-1.22;-0.11;0.993236;0.084725;0.01116;105.7;0.0;0.0;2.0;0.0;0.0
4.0;1753875189.238739;15.108117;0.67;-1.17;-0.07;0.99307;0.082079;0.012273;105.7;0.0;0.0;2.0;0.0;0.0
4.0;1753875189.243344;15.155849;0.59;-1.2;-0.14;0.9938;0.085217;0.012079;106.0;0.0;0.0;2.0;0.0;0.0
4.0;1753875189.247949;15.084359;0.53;-1.29;-0.09;0.993383;0.084502;0.011697;106.8;0.0;0.0;2.0;0.0;0.0
4.0;1753875189.252554;15.154862;0.61;-1.18;0.03;0.993701;0.086217;0.011439;106.2;0.0;0.0;2.0;0.0;0.0
4.0;1753875189.257159;15.154419;0.69;-1.22;-0.04;0.992514;0.084372;0.010729;106.0;0.0;0.0;2.0;0.0;0.0
4.0;1753875189.261764;15.172945;0.65;-1.25;-0.06;0.992807;0.084863;0.01145;105.4;0.0;0.0;2.0;0.0;0.0
4.0;1753875189.266369;15.137866;0.62;-1.2;-0.16;0.992625;0.084379;0.012836;106.8;0.0;0.0;2.0;0.0;0.0
4.0;1753875189.270974;15.134323;0.58;-1.2;-0.07;0.992328;0.085658;0.011639;105.7;0.0;0.0;2.0;0.0;0.0
4.0;1753875189.275579;15.112038;0.73;-1.21;-0.05;0.993001;0.086514;0.013417;105.9;0.0;0.0;2.0;0.0;0.0
4.0;1753875189.280184;15.132472;0.71;-1.2;-0.1;0.99272;0.084033;0.011173;105.7;0.0;0.0;2.0;0.0;0.0
4.0;1753875189.284789;15.060341;0.63;-1.31;-0.2;0.992855;0.084903;0.01219;105.9;0.0;0.0;2.0;0.0;0.0
4.0;1753875189.289394;15.141907;0.54;-1.18;0.01;0.992427;0.083033;0.013112;104.7;0.0;0.0;2.0;0.0;0.0
4.0;1753875189.294;15.127835;0.68;-1.21;-0.12;0.991378;0.085554;0.010453;106.0;0.0;0.0;2.0;0.0;0.0
4.0;1753875189.298604;15.187854;0.68;-1.18;-0.24;0.993068;0.085572;0.011841;105.3;0.0;0.0;2.0;0.0;0.0
4.0;1753875189.30321;15.163189;0.69;-1.17;-0.08;0.992987;0.08609;0.013197;105.8;0.0;0.0;2.0;0.0;0.0
4.0;1753875189.307814;15.099651;0.68;-1.25;-0.01;0.993991;0.086224;0.010485;106.1;0.0;0.0;2.0;0.0;0.0
4.0;1753875189.31242;15.135044;0.63;-1.23;-0.03;0.99261;0.086026;0.012339;106.2;0.0;0.0;2.0;0.0;0.0
4.0;1753875189.317025;15.119789;0.63;-1.22;-0.16;0.992316;0.08628;0.010266;106.3;0.0;0.0;2.0;0.0;0.0
4.0;1753875189.32163;15.086983;0.53;-1.14;-0.06;0.99185;0.083781;0.012078;106.1;0.0;0.0;2.0;0.0;0.0
4.0;1753875189.326235;15.112219;0.64;-1.18;0.02;0.992738;0.084115;0.011305;106.4;0.0;0.0;2.0;0.0;0.0
4.0;1753875189.33084;15.119626;0.67;-1.15;0.01;0.994688;0.085051;0.011592;106.5;0.0;0.0;2.0;0.0;0.0
4.0;1753875189.335445;15.107609;0.67;-1.2;-0.07;0.992826;0.086002;0.012014;106.6;0.0;0.0;2.0;0.0;0.0
4.0;1753875189.34005;15.104377;0.65;-1.23;-0.0;0.991945;0.084645;0.012937;105.7;0.0;0.0;2.0;0.0;0.0
4.0;1753875189.344655;15.120048;0.67;-1.2;-0.06;0.993559;0.084976;0.011238;106.6;0.0;0.0;2.0;0.0;0.0
4.0;1753875189.34926;15.143346;0.67;-1.18;-0.07;0.992115;0.085817;0.012865;106.0;0.0;0.0;2.0;0.0;0.0
4.0;1753875189.353865;15.044496;0.68;-1.16;0.01;0.991665;0.086091;0.012051;105.1;0.0;0.0;2.0;0.0;0.0
4.0;1753875189.35847;15.118276;0.66;-1.16;-0.05;0.990978;0.08506;0.012814;106.4;0.0;0.0;2.0;0.0;0.0
4.0;1753875189.363075;15.152601;0.54;-1.18;0.01;0.992186;0.083376;0.011811;106.0;0.0;0.0;2.0;0.0;0.0
4.0;1753875189.36768;15.137015;0.61;-1.21;-0.09;0.993117;0.084668;0.01175;106.4;0.0;0.0;2.0;0.0;0.0
4.0;1753875189.372285;15.159293;0.58;-1.23;-0.07;0.99257;0.085644;0.01212;106.0;0.0;0.0;2.0;0.0;0.0
4.0;1753875189.37689;15.150303;0.66;-1.14;-0.01;0.993206;0.083914;0.011624;105.3;0.0;0.0;2.0;0.0;0.0
4.0;1753875189.381496;15.081143;0.68;-1.21;-0.15;0.992703;0.083282;0.011389;105.9;0.0;0.0;2.0;0.0;0.0
4.0;1753875189.3861;15.173612;0.69;-1.19;-0.05;0.992734;0.083923;0.012477;105.4;0.0;0.0;2.0;0.0;0.0
4.0;1753875189.390706;15.087104;0.61;-1.23;-0.11;0.992247;0.083781;0.012943;106.7;0.0;0.0;2.0;0.0;0.0
4.0;1753875189.395311;15.115057;0.62;-1.18;0.08;0.993663;0.083089;0.011275;105.8;0.0;0.0;2.0;0.0;0.0
4.0;1753875189.399916;15.091241;0.61;-1.21;0.02;0.992755;0.083178;0.011231;105.6;0.0;0.0;2.0;0.0;0.0
4.0;1753875189.404521;15.131717;0.67;-1.17;-0.07;0.992807;0.084044;0.011981;106.1;0.0;0.0;2.0;0.0;0.0
4.0;1753875189.409126;15.136027;0.55;-1.25;-0.12;0.991532;0.085084;0.01315;106.4;0.0;0.0;2.0;0.0;0.0
4.0;1753875189.413731;15.117363;0.66;-1.2;-0.14;0.992947;0.085018;0.013856;105.9;0.0;0.0;2.0;0.0;0.0
4.0;1753875189.418336;15.071109;0.57;-1.17;-0.03;0.993455;0.084519;0.012693;106.2;0.0;0.0;2.0;0.0;0.0
4.0;1753875189.422941;15.108241;0.6;-1.21;0.0;0.991586;0.082571;0.009688;106.5;0.0;0.0;2.0;0.0;0.0
4.0;1753875189.427546;15.116387;0.64;-1.16;-0.06;0.992555;0.085919;0.011497;105.9;0.0;0.0;2.0;0.0;0.0
4.0;1753875189.432151;15.150352;0.57;-1.22;-0.02;0.992637;0.085962;0.012746;106.5;0.0;0.0;2.0;0.0;0.0
4.0;1753875189.436756;15.193913;0.63;-1.18;0.02;0.992099;0.082378;0.011581;105.7;0.0;0.0;2.0;0.0;0.0
4.0;1753875189.441361;15.126956;0.62;-1.22;-0.06;0.992725;0.085497;0.012936;106.1;0.0;0.0;2.0;0.0;0.0
4.0;1753875189.445966;15.135075;0.66;-1.28;-0.17;0.991652;0.087328;0.0121;106.1;0.0;0.0;2.0;0.0;0.0
4.0;1753875189.450571;15.102066;0.58;-1.2;0.04;0.992853;0.083604;0.010769;105.9;0.0;0.0;2.0;0.0;0.0
4.0;1753875189.455176;15.115268;0.62;-1.25;-0.0;0.990813;0.084825;0.010995;106.9;0.0;0.0;2.0;0.0;0.0
4.0;1753875189.459782;15.066496;0.64;-1.2;-0.01;0.991916;0.084563;0.011957;106.1;0.0;0.0;2.0;0.0;0.0
4.0;1753875189.464386;15.084015;0.63;-1.22;-0.01;0.990895;0.086943;0.012435;106.1;0.0;0.0;2.0;0.0;0.0
4.0;1753875189.468992;15.149943;0.59;-1.2;0.05;0.993236;0.084797;0.013239;105.9;0.0;0.0;2.0;0.0;0.0
4.0;1753875189.473596;15.076019;0.6;-1.19;-0.07;0.990898;0.082933;0.013559;106.1;0.0;0.0;2.0;0.0;0.0
4.0;1753875189.478202;15.136467;0.72;-1.18;-0.02;0.991588;0.085095;0.012674;105.5;0.0;0.0;2.0;0.0;0.0
4.0;1753875189.482807;15.090437;0.67;-1.13;-0.03;0.99314;0.085422;0.012198;106.1;0.0;0.0;2.0;0.0;0.0
4.0;1753875189.487412;15.114025;0.68;-1.23;-0.17;0.992966;0.084776;0.01199;106.7;0.0;0.0;2.0;0.0;0.0
4.0;1753875189.492017;15.116525;0.61;-1.19;-0.09;0.992668;0.082487;0.012098;106.7;0.0;0.0;2.0;0.0;0.0
4.0;1753875189.496622;15.190765;0.68;-1.19;-0.0;0.990905;0.085216;0.013144;105.9;0.0;0.0;2.0;0.0;0.0
4.0;1753875189.501227;15.12625;0.69;-1.18;-0.04;0.992401;0.08375;0.012731;105.8;0.0;0.0;2.0;0.0;0.0
4.0;1753875189.505832;15.139188;0.74;-1.19;0.04;0.993507;0.081674;0.01207;105.7;0.0;0.0;2.0;0.0;0.0
4.0;1753875189.510437;15.087221;0.64;-1.21;-0.01;0.99096;0.084145;0.011068;105.4;0.0;0.0;2.0;0.0;0.0
4.0;1753875189.515042;15.148963;0.56;-1.19;-0.08;0.991822;0.08163;0.011595;105.9;0.0;0.0;2.0;0.0;0.0
4.0;1753875189.519647;15.11285;0.67;-1.17;-0.11;0.992363;0.085277;0.011165;106.5;0.0;0.0;2.0;0.0;0.0
4.0;1753875189.524252;15.08652;0.65;-1.16;0.07;0.990716;0.082525;0.012886;105.8;0.0;0.0;2.0;0.0;0.0
4.0;1753875189.528857;15.13026;0.61;-1.18;0.0;0.992799;0.083708;0.011422;106.3;0.0;0.0;2.0;0.0;0.0
4.0;1753875189.533462;15.059584;0.58;-1.25;-0.06;0.992472;0.087048;0.012718;106.3;0.0;0.0;2.0;0.0;0.0
4.0;1753875189.538067;15.062018;0.64;-1.15;-0.03;0.991915;0.086315;0.011971;107.3;0.0;0.0;2.0;0.0;0.0
4.0;1753875189.542672;15.160705;0.67;-1.15;0.02;0.993692;0.083874;0.011475;106.1;0.0;0.0;2.0;0.0;0.0
4.0;1753875189.547278;15.089764;0.67;-1.21;-0.03;0.991006;0.083573;0.011701;105.4;0.0;0.0;2.0;0.0;0.0
4.0;1753875189.551882;15.152401;0.56;-1.17;0.04;0.992175;0.084634;0.011898;106.5;0.0;0.0;2.0;0.0;0.0
4.0;1753875189.556488;15.125057;0.67;-1.18;0.2;0.99345;0.082812;0.012293;106.0;0.0;0.0;2.0;0.0;0.0
4.0;1753875189.561092;15.159627;0.63;-1.08;-0.07;0.991116;0.084623;0.012121;106.1;0.0;0.0;2.0;0.0;0.0
4.0;1753875189.565698;15.08062;0.64;-1.2;0.02;0.992093;0.084033;0.011464;105.2;0.0;0.0;2.0;0.0;0.0
4.0;1753875189.570303;15.140004;0.66;-1.19;0.0;0.991975;0.086167;0.012235;106.1;0.0;0.0;2.0;0.0;0.0
4.0;1753875189.574908;15.080413;0.5;-1.21;0.01;0.9926;0.084886;0.010168;106.5;0.0;0.0;2.0;0.0;0.0
4.0;1753875189.579513;15.094709;0.69;-1.17;-0.09;0.993771;0.083852;0.012303;107.2;0.0;0.0;2.0;0.0;0.0
4.0;1753875189.584118;15.127224;0.65;-1.17;0.08;0.992155;0.084634;0.011402;106.1;0.0;0.0;2.0;0.0;0.0
4.0;1753875189.588723;15.137105;0.61;-1.14;-0.08;0.992048;0.083841;0.012718;105.4;0.0;0.0;2.0;0.0;0.0
4.0;1753875189.593328;15.107085;0.65;-1.18;-0.08;0.991233;0.082596;0.010818;106.0;0.0;0.0;2.0;0.0;0.0
4.0;1753875189.597933;15.071323;0.66;-1.14;0.04;0.993086;0.084355;0.012554;105.8;0.0;0.0;2.0;0.0;0.0
4.0;1753875189.602538;15.187678;0.56;-1.12;-0.04;0.994338;0.083954;0.011226;106.8;0.0;0.0;2.0;0.0;0.0
4.0;1753875189.607143;15.104745;0.62;-1.17;-0.03;0.993138;0.083853;0.011875;105.4;0.0;0.0;2.0;0.0;0.0
4.0;1753875189.611748;15.12607;0.62;-1.23;-0.01;0.993196;0.083776;0.011767;105.6;0.0;0.0;2.0;0.0;0.0
4.0;1753875189.616353;15.166697;0.61;-1.2;0.0;0.99069;0.084747;0.013064;105.4;0.0;0.0;2.0;0.0;0.0
4.0;1753875189.620958;15.122036;0.65;-1.16;-0.03;0.992034;0.087527;0.011828;106.9;0.0;0.0;2.0;0.0;0.0
4.0;1753875189.625564;15.117338;0.66;-1.17;-0.12;0.992353;0.08494;0.010821;105.8;0.0;0.0;2.0;0.0;0.0
4.0;1753875189.630168;15.126661;0.66;-1.16;-0.03;0.991466;0.083688;0.010392;105.5;0.0;0.0;2.0;0.0;0.0
4.0;1753875189.634774;15.121102;0.6;-1.21;-0.06;0.99228;0.083464;0.011305;105.8;0.0;0.0;2.0;0.0;0.0
4.0;1753875189.639378;15.106413;0.57;-1.13;-0.04;0.99306;0.085114;0.011953;106.4;0.0;0.0;2.0;0.0;0.0
4.0;1753875189.643984;15.117746;0.59;-1.1;0.03;0.992491;0.083404;0.012389;106.0;0.0;0.0;2.0;0.0;0.0
4.0;1753875189.648589;15.062241;0.62;-1.22;-0.08;0.989927;0.084055;0.011535;106.1;0.0;0.0;2.0;0.0;0.0
4.0;1753875189.653194;15.10912;0.61;-1.11;0.03;0.99201;0.085675;0.012225;106.3;0.0;0.0;2.0;0.0;0.0
4.0;1753875189.657799;15.145126;0.65;-1.18;-0.16;0.992005;0.083614;0.011773;106.7;0.0;0.0;2.0;0.0;0.0
4.0;1753875189.662404;15.089554;0.55;-1.18;0.06;0.993306;0.08554;0.013189;106.0;0.0;0.0;2.0;0.0;0.0
4.0;1753875189.667009;15.13398;0.6;-1.21;-0.1;0.990834;0.08333;0.012911;105.7;0.0;0.0;2.0;0.0;0.0
4.0;1753875189.671614;15.103733;0.68;-1.23;-0.07;0.990662;0.083404;0.012005;106.6;0.0;0.0;2.0;0.0;0.0
4.0;1753875189.676219;15.165925;0.66;-1.23;0.0;0.993384;0.086953;0.01104;105.6;0.0;0.0;2.0;0.0;0.0
4.0;1753875189.680824;15.13916;0.68;-1.19;0.02;0.993281;0.086544;0.012367;106.3;0.0;0.0;2.0;0.0;0.0
4.0;1753875189.685429;15.125474;0.55;-1.21;-0.03;0.992812;0.08456;0.011525;106.2;0.0;0.0;2.0;0.0;0.0
4.0;1753875189.690034;15.142192;0.68;-1.19;-0.13;0.990718;0.082265;0.010338;105.8;0.0;0.0;2.0;0.0;0.0
4.0;1753875189.694639;15.12047;0.67;-1.13;-0.12;0.992288;0.084901;0.011285;106.2;0.0;0.0;2.0;0.0;0.0
4.0;1753875189.699244;15.156926;0.61;-1.12;-0.06;0.991195;0.082673;0.012188;106.6;0.0;0.0;2.0;0.0;0.0
4.0;1753875189.703849;15.147258;0.69;-1.21;0.04;0.992572;0.080165;0.012677;106.6;0.0;0.0;2.0;0.0;0.0
4.0;1753875189.708454;15.151148;0.67;-1.2;0.02;0.99246;0.084355;0.011244;105.1;0.0;0.0;2.0;0.0;0.0
4.0;1753875189.71306;15.117895;0.63;-1.07;-0.01;0.991791;0.084082;0.011774;105.9;0.0;0.0;2.0;0.0;0.0
4.0;1753875189.717664;15.0831;0.6;-1.12;-0.05;0.992415;0.083965;0.012544;106.6;0.0;0.0;2.0;0.0;0.0
4.0;1753875189.72227;15.089791;0.6;-1.17;-0.0;0.991665;0.082192;0.011345;105.7;0.0;0.0;2.0;0.0;0.0
4.0;1753875189.726874;15.150833;0.59;-1.19;-0.01;0.992359;0.085459;0.012152;105.8;0.0;0.0;2.0;0.0;0.0
4.0;1753875189.73148;15.172724;0.68;-1.14;-0.05;0.990694;0.08097;0.011298;106.1;0.0;0.0;2.0;0.0;0.0
4.0;1753875189.736085;15.098074;0.66;-1.21;0.07;0.991161;0.085146;0.010041;105.7;0.0;0.0;2.0;0.0;0.0
4.0;1753875189.74069;15.122498;0.51;-1.06;-0.09;0.993222;0.085813;0.011174;106.6;0.0;0.0;2.0;0.0;0.0
4.0;1753875189.745295;15.107584;0.59;-1.2;0.05;0.993601;0.085312;0.013191;106.7;0.0;0.0;2.0;0.0;0.0
4.0;1753875189.7499;15.101244;0.64;-1.11;0.02;0.992677;0.084671;0.010833;105.1;0.0;0.0;2.0;0.0;0.0
4.0;1753875189.754505;15.124939;0.65;-1.12;0.03;0.992885;0.085829;0.011729;106.6;0.0;0.0;2.0;0.0;0.0
4.0;1753875189.75911;15.17737;0.58;-1.15;-0.01;0.991554;0.085164;0.011238;105.9;0.0;0.0;2.0;0.0;0.0
4.0;1753875189.763715;15.140516;0.62;-1.2;0.06;0.992405;0.084824;0.011554;106.3;0.0;0.0;2.0;0.0;0.0
4.0;1753875189.76832;15.138261;0.61;-1.11;-0.11;0.991958;0.083685;0.011365;106.5;0.0;0.0;2.0;0.0;0.0
4.0;1753875189.772925;15.127472;0.54;-1.15;-0.04;0.990594;0.081133;0.012416;106.8;0.0;0.0;2.0;0.0;0.0
4.0;1753875189.77753;15.080839;0.48;-1.15;0.01;0.992488;0.086055;0.012029;105.3;0.0;0.0;2.0;0.0;0.0
4.0;1753875189.782135;15.153234;0.67;-1.2;-0.07;0.991674;0.081436;0.01182;105.0;0.0;0.0;2.0;0.0;0.0
4.0;1753875189.78674;15.122462;0.59;-1.18;-0.08;0.992226;0.085909;0.011578;106.0;0.0;0.0;2.0;0.0;0.0
4.0;1753875189.791345;15.097347;0.57;-1.12;0.0;0.991627;0.084946;0.011646;106.1;0.0;0.0;2.0;0.0;0.0
4.0;1753875189.79595;15.182083;0.55;-1.14;0.09;0.991311;0.083179;0.013358;106.0;0.0;0.0;2.0;0.0;0.0
4.0;1753875189.800556;15.081861;0.62;-1.11;-0.02;0.991666;0.084549;0.012165;107.0;0.0;0.0;2.0;0.0;0.0
4.0;1753875189.80516;15.104198;0.58;-1.14;0.03;0.991538;0.083732;0.012863;106.2;0.0;0.0;2.0;0.0;0.0
4.0;1753875189.809766;15.111462;0.68;-1.17;-0.02;0.990795;0.082425;0.01195;106.2;0.0;0.0;2.0;0.0;0.0
4.0;1753875189.814371;15.131579;0.6;-1.12;-0.06;0.991399;0.082485;0.011066;106.2;0.0;0.0;2.0;0.0;0.0
4.0;1753875189.818976;15.13716;0.63;-1.09;0.06;0.99241;0.08194;0.0117;104.9;0.0;0.0;2.0;0.0;0.0
4.0;1753875189.823581;15.10735;0.59;-1.1;-0.01;0.991937;0.085866;0.011579;104.8;0.0;0.0;2.0;0.0;0.0
4.0;1753875189.828186;15.106691;0.63;-1.06;-0.09;0.991788;0.085319;0.011197;106.3;0.0;0.0;2.0;0.0;0.0
4.0;1753875189.832791;15.182465;0.68;-1.11;-0.02;0.990979;0.085063;0.012449;105.4;0.0;0.0;2.0;0.0;0.0
4.0;1753875189.837396;15.094509;0.71;-1.15;-0.01;0.992559;0.083155;0.011848;105.9;0.0;0.0;2.0;0.0;0.0
4.0;1753875189.842001;15.113588;0.64;-1.13;0.02;0.992174;0.084604;0.012627;106.1;0.0;0.0;2.0;0.0;0.0
4.0;1753875189.846606;15.142805;0.64;-1.16;-0.05;0.992537;0.083332;0.012499;105.3;0.0;0.0;2.0;0.0;0.0
4.0;1753875189.851211;15.089042;0.66;-1.14;0.04;0.993749;0.0817;0.010951;105.5;0.0;0.0;2.0;0.0;0.0
4.0;1753875189.855816;15.143131;0.58;-0.99;-0.12;0.991482;0.085293;0.010924;105.8;0.0;0.0;2.0;0.0;0.0
4.0;1753875189.860421;15.127031;0.62;-1.05;0.03;0.990474;0.083461;0.011551;105.6;0.0;0.0;2.0;0.0;0.0
4.0;1753875189.865026;15.141048;0.69;-1.07;0.03;0.991853;0.085578;0.011195;105.6;0.0;0.0;2.0;0.0;0.0
4.0;1753875189.869631;15.104558;0.69;-1.07;0.02;0.991955;0.085829;0.010628;106.2;0.0;0.0;2.0;0.0;0.0
4.0;1753875189.874236;15.130114;0.68;-1.13;-0.08;0.99137;0.083468;0.012394;105.8;0.0;0.0;2.0;0.0;0.0
4.0;1753875189.878842;15.141612;0.6;-1.16;-0.08;0.990893;0.083203;0.013242;105.6;0.0;0.0;2.0;0.0;0.0
4.0;1753875189.883446;15.080253;0.63;-1.06;-0.08;0.991329;0.08447;0.011419;106.5;0.0;0.0;2.0;0.0;0.0
4.0;1753875189.888052;15.166445;0.64;-1.15;0.02;0.9924;0.083009;0.01173;105.5;0.0;0.0;2.0;0.0;0.0
4.0;1753875189.892656;15.126288;0.57;-1.23;0.07;0.992213;0.083192;0.011796;105.6;0.0;0.0;2.0;0.0;0.0
4.0;1753875189.897262;15.087406;0.61;-1.14;-0.03;0.992157;0.08109;0.010982;106.2;0.0;0.0;2.0;0.0;0.0
4.0;1753875189.901867;15.128854;0.57;-1.16;0.04;0.991504;0.083125;0.011676;105.9;0.0;0.0;2.0;0.0;0.0
4.0;1753875189.906472;15.097963;0.57;-1.15;-0.02;0.990255;0.083736;0.011586;106.4;0.0;0.0;2.0;0.0;0.0
4.0;1753875189.911077;15.140027;0.69;-1.14;0.01;0.992042;0.084401;0.011911;106.1;0.0;0.0;2.0;0.0;0.0
4.0;1753875189.915682;15.147209;0.62;-1.16;-0.02;0.991021;0.083634;0.012341;106.6;0.0;0.0;2.0;0.0;0.0
4.0;1753875189.920287;15.166016;0.63;-1.12;-0.02;0.990834;0.081562;0.010688;105.4;0.0;0.0;2.0;0.0;0.0
4.0;1753875189.924892;15.184569;0.69;-1.14;-0.01;0.990716;0.086587;0.01064;105.7;0.0;0.0;2.0;0.0;0.0
4.0;1753875189.929497;15.0905;0.65;-1.17;-0.04;0.991476;0.081959;0.011924;106.7;0.0;0.0;2.0;0.0;0.0
4.0;1753875189.934102;15.118992;0.71;-1.0;0.05;0.992307;0.084235;0.010589;106.0;0.0;0.0;2.0;0.0;0.0
4.0;1753875189.9425;15.121094;0.63;-1.12;0.0;0.991616;0.08357;0.01159;106.0;0.0;0.0;2.0;0.0;0.0
4.0;1753875189.94812;15.171875;0.56;-1.12;0.0;0.992226;0.084424;0.011834;106.0;0.0;0.0;2.0;0.0;0.0
4.0;1753875189.949851;15.121094;0.56;-1.19;0.07;0.99369;0.08662;0.011102;107.0;0.0;0.0;2.0;0.0;0.0
4.0;1753875189.950387;15.121094;0.56;-1.19;0.07;0.99369;0.084546;0.011224;107.0;0.0;0.0;2.0;0.0;0.0
4.0;1753875189.955201;15.121094;0.56;-1.19;0.07;0.992592;0.085522;0.012322;107.0;0.0;0.0;2.0;0.0;0.0
4.0;1753875189.959636;15.136719;0.56;-1.19;0.0;0.993202;0.08479;0.011712;107.0;0.0;0.0;2.0;0.0;0.0
4.0;1753875189.964088;15.136719;0.63;-1.12;0.0;0.994544;0.085644;0.01098;107.0;0.0;0.0;2.0;0.0;0.0
4.0;1753875189.968639;15.136719;0.63;-1.12;0.07;0.99247;0.0854;0.0122;107.0;0.0;0.0;2.0;0.0;0.0
4.0;1753875189.973216;15.136719;0.63;-1.12;0.07;0.992958;0.084302;0.012322;107.0;0.0;0.0;2.0;0.0;0.0
4.0;1753875189.977955;15.171875;0.49;-1.12;0.0;0.99247;0.088328;0.013298;107.0;0.0;0.0;2.0;0.0;0.0
4.0;1753875189.982306;15.171875;0.56;-1.12;0.0;0.992714;0.08174;0.011712;107.0;0.0;0.0;2.0;0.0;0.0
4.0;1753875189.986911;15.17811;0.57;-1.24;0.0;0.992307;0.08035;0.011943;106.3;0.0;0.0;2.0;0.0;0.0
4.0;1753875189.992511;15.171875;0.7;-1.12;0.07;0.992958;0.083936;0.011224;107.0;0.0;0.0;2.0;0.0;0.0
4.0;1753875189.999501;15.15625;0.56;-1.12;0.0;0.992348;0.083814;0.01159;103.0;0.0;0.0;2.0;0.0;0.0
4.0;1753875190.004106;15.106847;0.62;-1.08;-0.05;0.992102;0.084778;0.011465;103.8;0.0;0.0;2.0;0.0;0.0
4.0;1753875190.008711;15.175617;0.64;-1.06;-0.01;0.991511;0.084396;0.009385;103.5;0.0;0.0;2.0;0.0;0.0
4.0;1753875190.013316;15.132251;0.6;-1.12;0.05;0.992467;0.083491;0.010842;103.9;0.0;0.0;2.0;0.0;0.0
4.0;1753875190.017921;15.151933;0.59;-1.19;-0.04;0.992433;0.083246;0.012052;103.5;0.0;0.0;2.0;0.0;0.0
4.0;1753875190.022526;15.147439;0.53;-1.1;0.0;0.991469;0.086703;0.010577;103.1;0.0;0.0;2.0;0.0;0.0
4.0;1753875190.027131;15.153143;0.47;-1.16;-0.05;0.992698;0.087862;0.011734;101.8;0.0;0.0;2.0;0.0;0.0
4.0;1753875190.031736;15.171032;0.6;-1.13;-0.0;0.993142;0.084003;0.01033;106.1;0.0;0.0;2.0;0.0;0.0
4.0;1753875190.036342;15.18291;0.57;-1.18;0.01;0.992977;0.08456;0.01105;102.3;0.0;0.0;2.0;0.0;0.0
4.0;1753875190.040946;15.138648;0.56;-1.21;0.04;0.992627;0.08405;0.013425;103.1;0.0;0.0;2.0;0.0;0.0
4.0;1753875190.045552;15.131427;0.64;-1.14;0.08;0.993391;0.08374;0.01077;103.4;0.0;0.0;2.0;0.0;0.0
4.0;1753875190.050156;15.161953;0.59;-1.15;0.05;0.992248;0.083684;0.011394;103.1;0.0;0.0;2.0;0.0;0.0
4.0;1753875190.054762;15.163039;0.51;-1.19;0.07;0.993131;0.081744;0.011245;101.5;0.0;0.0;2.0;0.0;0.0
4.0;1753875190.059367;15.166383;0.47;-1.19;0.01;0.993603;0.082469;0.011749;102.0;0.0;0.0;2.0;0.0;0.0
4.0;1753875190.063972;15.162828;0.56;-1.1;0.05;0.992796;0.083422;0.01114;101.7;0.0;0.0;2.0;0.0;0.0
4.0;1753875190.068577;15.169988;0.44;-1.09;0.07;0.994019;0.083854;0.009928;103.8;0.0;0.0;2.0;0.0;0.0
4.0;1753875190.073182;15.130132;0.55;-1.11;0.05;0.993003;0.08629;0.011984;102.0;0.0;0.0;2.0;0.0;0.0
4.0;1753875190.077787;15.117337;0.58;-1.06;0.0;0.992716;0.082068;0.011754;103.2;0.0;0.0;2.0;0.0;0.0
4.0;1753875190.082392;15.173486;0.58;-1.15;0.04;0.991925;0.084946;0.010596;101.5;0.0;0.0;2.0;0.0;0.0
4.0;1753875190.086997;15.156123;0.55;-1.17;0.02;0.992944;0.084663;0.010932;104.3;0.0;0.0;2.0;0.0;0.0
4.0;1753875190.091602;15.183425;0.47;-1.17;0.02;0.9939;0.082239;0.010679;103.7;0.0;0.0;2.0;0.0;0.0
4.0;1753875190.096207;15.149374;0.57;-1.23;0.02;0.993727;0.084183;0.010822;102.8;0.0;0.0;2.0;0.0;0.0
4.0;1753875190.100812;15.150174;0.58;-1.06;-0.05;0.993054;0.083442;0.011598;101.6;0.0;0.0;2.0;0.0;0.0
4.0;1753875190.105417;15.146121;0.6;-1.1;0.0;0.992036;0.084876;0.011469;101.6;0.0;0.0;2.0;0.0;0.0
4.0;1753875190.110022;15.153234;0.61;-1.13;0.07;0.992892;0.083342;0.011513;103.2;0.0;0.0;2.0;0.0;0.0
4.0;1753875190.114627;15.162495;0.55;-1.1;-0.01;0.992722;0.087181;0.010862;101.2;0.0;0.0;2.0;0.0;0.0
4.0;1753875190.119232;15.148211;0.55;-1.13;0.02;0.99255;0.084824;0.011668;103.1;0.0;0.0;2.0;0.0;0.0
4.0;1753875190.123838;15.156385;0.64;-1.15;0.03;0.992594;0.082187;0.012303;101.5;0.0;0.0;2.0;0.0;0.0
4.0;1753875190.128442;15.142906;0.57;-1.16;0.04;0.992531;0.085328;0.010083;103.6;0.0;0.0;2.0;0.0;0.0
4.0;1753875190.133048;15.128654;0.62;-1.13;0.02;0.992297;0.08596;0.011585;103.8;0.0;0.0;2.0;0.0;0.0
4.0;1753875190.137653;15.183717;0.62;-1.14;0.0;0.992833;0.085215;0.011226;102.6;0.0;0.0;2.0;0.0;0.0
4.0;1753875190.142258;15.180509;0.46;-1.27;0.04;0.992859;0.08452;0.010361;102.0;0.0;0.0;2.0;0.0;0.0
4.0;1753875190.146863;15.113104;0.6;-1.14;-0.03;0.99366;0.085258;0.012427;103.4;0.0;0.0;2.0;0.0;0.0
4.0;1753875190.151468;15.174796;0.57;-1.14;-0.04;0.992775;0.086904;0.010775;103.7;0.0;0.0;2.0;0.0;0.0
4.0;1753875190.156073;15.148791;0.61;-1.01;-0.03;0.992041;0.085235;0.011333;103.0;0.0;0.0;2.0;0.0;0.0
4.0;1753875190.160678;15.168389;0.49;-1.17;0.05;0.992021;0.084107;0.010978;102.4;0.0;0.0;2.0;0.0;0.0
4.0;1753875190.165283;15.194234;0.57;-1.19;-0.05;0.994513;0.082164;0.011;102.6;0.0;0.0;2.0;0.0;0.0
4.0;1753875190.169888;15.178988;0.58;-1.04;0.04;0.992448;0.086049;0.010987;103.8;0.0;0.0;2.0;0.0;0.0
4.0;1753875190.174493;15.179566;0.62;-1.14;0.02;0.993562;0.083033;0.010145;102.4;0.0;0.0;2.0;0.0;0.0
4.0;1753875190.179098;15.198016;0.54;-1.09;0.02;0.994063;0.08467;0.010544;101.5;0.0;0.0;2.0;0.0;0.0
4.0;1753875190.183703;15.156769;0.45;-1.18;-0.06;0.992606;0.084543;0.011025;105.3;0.0;0.0;2.0;0.0;0.0
4.0;1753875190.188308;15.165125;0.59;-1.16;0.0;0.992319;0.085384;0.012004;105.6;0.0;0.0;2.0;0.0;0.0
4.0;1753875190.192913;15.127511;0.68;-1.2;-0.01;0.992563;0.085378;0.011193;102.7;0.0;0.0;2.0;0.0;0.0
4.0;1753875190.197518;15.15752;0.58;-1.16;-0.01;0.993003;0.08362;0.011058;100.9;0.0;0.0;2.0;0.0;0.0
4.0;1753875190.202124;15.16798;0.44;-1.05;0.01;0.992466;0.083606;0.012827;105.4;0.0;0.0;2.0;0.0;0.0
4.0;1753875190.206728;15.163375;0.59;-1.13;0.05;0.992834;0.088452;0.012451;102.3;0.0;0.0;2.0;0.0;0.0
4.0;1753875190.211334;15.178277;0.63;-1.18;0.09;0.992632;0.086934;0.012916;101.0;0.0;0.0;2.0;0.0;0.0
4.0;1753875190.215938;15.174449;0.63;-1.15;-0.08;0.992081;0.087953;0.010494;100.8;0.0;0.0;2.0;0.0;0.0
4.0;1753875190.220544;15.157039;0.49;-1.19;0.04;0.99233;0.086265;0.011023;101.5;0.0;0.0;2.0;0.0;0.0
4.0;1753875190.225149;15.159622;0.52;-1.16;0.05;0.991786;0.085183;0.011184;104.1;0.0;0.0;2.0;0.0;0.0
4.0;1753875190.229754;15.157761;0.46;-1.15;-0.04;0.99257;0.086634;0.011912;104.8;0.0;0.0;2.0;0.0;0.0
4.0;1753875190.234359;15.131248;0.53;-1.1;-0.04;0.993389;0.083973;0.012179;102.1;0.0;0.0;2.0;0.0;0.0
4.0;1753875190.238964;15.164315;0.6;-1.15;0.02;0.993904;0.085608;0.010983;102.4;0.0;0.0;2.0;0.0;0.0
4.0;1753875190.243569;15.173986;0.57;-1.09;0.04;0.992503;0.083645;0.011767;102.6;0.0;0.0;2.0;0.0;0.0
4.0;1753875190.248174;15.16299;0.66;-1.24;0.03;0.991457;0.086023;0.010744;103.8;0.0;0.0;2.0;0.0;0.0
4.0;1753875190.252779;15.16003;0.5;-1.21;0.03;0.993913;0.0854;0.010553;103.9;0.0;0.0;2.0;0.0;0.0
4.0;1753875190.257384;15.125543;0.57;-1.13;-0.03;0.99404;0.084937;0.012388;102.4;0.0;0.0;2.0;0.0;0.0
4.0;1753875190.261989;15.11744;0.59;-1.22;0.0;0.993435;0.082915;0.010932;104.0;0.0;0.0;2.0;0.0;0.0
4.0;1753875190.266594;15.197932;0.63;-1.21;-0.06;0.993791;0.084525;0.011419;103.9;0.0;0.0;2.0;0.0;0.0
4.0;1753875190.271199;15.156803;0.52;-1.17;0.07;0.99151;0.084106;0.012133;104.6;0.0;0.0;2.0;0.0;0.0
4.0;1753875190.275804;15.144173;0.49;-1.16;-0.02;0.993443;0.085813;0.011957;104.6;0.0;0.0;2.0;0.0;0.0
4.0;1753875190.280409;15.153213;0.59;-1.19;0.01;0.993712;0.085868;0.011446;101.0;0.0;0.0;2.0;0.0;0.0
4.0;1753875190.285014;15.157089;0.46;-1.11;0.05;0.994408;0.084366;0.01044;103.8;0.0;0.0;2.0;0.0;0.0
4.0;1753875190.28962;15.14642;0.55;-1.18;0.02;0.992411;0.086399;0.010032;103.0;0.0;0.0;2.0;0.0;0.0
4.0;1753875190.294224;15.121911;0.72;-1.29;-0.01;0.992703;0.08451;0.012016;104.4;0.0;0.0;2.0;0.0;0.0
4.0;1753875190.29883;15.173609;0.64;-1.13;0.02;0.993438;0.08424;0.012437;101.4;0.0;0.0;2.0;0.0;0.0
4.0;1753875190.303434;15.149343;0.65;-1.2;-0.01;0.993609;0.085829;0.01099;102.4;0.0;0.0;2.0;0.0;0.0
4.0;1753875190.30804;15.170394;0.58;-1.06;-0.02;0.994176;0.086793;0.01219;102.2;0.0;0.0;2.0;0.0;0.0
4.0;1753875190.312645;15.153671;0.54;-1.2;0.01;0.993224;0.08606;0.010519;102.9;0.0;0.0;2.0;0.0;0.0
4.0;1753875190.31725;15.137826;0.52;-1.16;-0.04;0.992676;0.086783;0.009998;101.9;0.0;0.0;2.0;0.0;0.0
4.0;1753875190.321855;15.17045;0.54;-1.12;-0.05;0.992517;0.085202;0.01017;101.6;0.0;0.0;2.0;0.0;0.0
4.0;1753875190.32646;15.172603;0.55;-1.15;0.06;0.992744;0.085921;0.010215;102.2;0.0;0.0;2.0;0.0;0.0
4.0;1753875190.331065;15.12211;0.64;-1.2;-0.0;0.992584;0.08618;0.010786;103.1;0.0;0.0;2.0;0.0;0.0
4.0;1753875190.33567;15.164046;0.62;-1.18;-0.02;0.994274;0.084345;0.010954;99.6;0.0;0.0;2.0;0.0;0.0
4.0;1753875190.340275;15.149689;0.52;-1.24;0.03;0.993535;0.086865;0.011308;103.3;0.0;0.0;2.0;0.0;0.0
4.0;1753875190.34488;15.111379;0.4;-1.11;-0.04;0.993506;0.086057;0.01167;103.8;0.0;0.0;2.0;0.0;0.0
4.0;1753875190.349485;15.150702;0.59;-1.14;0.04;0.993676;0.088679;0.011462;103.1;0.0;0.0;2.0;0.0;0.0
4.0;1753875190.35409;15.163223;0.62;-1.2;0.01;0.992842;0.087959;0.011603;100.3;0.0;0.0;2.0;0.0;0.0
4.0;1753875190.358695;15.133001;0.51;-1.18;0.01;0.994366;0.086727;0.010792;104.4;0.0;0.0;2.0;0.0;0.0
4.0;1753875190.3633;15.178534;0.52;-1.11;-0.07;0.993248;0.084139;0.01146;104.5;0.0;0.0;2.0;0.0;0.0
4.0;1753875190.367906;15.157548;0.6;-1.24;0.05;0.993267;0.084943;0.012034;102.4;0.0;0.0;2.0;0.0;0.0
4.0;1753875190.37251;15.144745;0.54;-1.12;-0.03;0.992244;0.084829;0.012142;103.8;0.0;0.0;2.0;0.0;0.0
4.0;1753875190.377116;15.122192;0.62;-1.15;0.06;0.993087;0.085001;0.011515;104.5;0.0;0.0;2.0;0.0;0.0
4.0;1753875190.38172;15.150206;0.51;-1.21;0.03;0.994232;0.082845;0.011471;104.2;0.0;0.0;2.0;0.0;0.0
4.0;1753875190.386326;15.197163;0.53;-1.23;-0.0;0.992897;0.084578;0.01002;103.2;0.0;0.0;2.0;0.0;0.0
4.0;1753875190.390931;15.150801;0.59;-1.18;0.03;0.99386;0.084842;0.011081;103.5;0.0;0.0;2.0;0.0;0.0
4.0;1753875190.395536;15.139094;0.58;-1.22;0.02;0.993449;0.088652;0.010521;101.2;0.0;0.0;2.0;0.0;0.0
4.0;1753875190.400141;15.158534;0.57;-1.17;0.02;0.993482;0.08634;0.010653;100.9;0.0;0.0;2.0;0.0;0.0
4.0;1753875190.404746;15.15352;0.64;-1.24;0.01;0.992484;0.086641;0.011452;104.2;0.0;0.0;2.0;0.0;0.0
4.0;1753875190.409351;15.157969;0.63;-1.17;0.03;0.992267;0.085162;0.011606;103.3;0.0;0.0;2.0;0.0;0.0
4.0;1753875190.413956;15.134323;0.52;-1.13;-0.03;0.992142;0.085997;0.010789;103.8;0.0;0.0;2.0;0.0;0.0
4.0;1753875190.418561;15.109691;0.47;-1.14;0.1;0.993564;0.0865;0.010544;102.2;0.0;0.0;2.0;0.0;0.0
4.0;1753875190.423166;15.201638;0.65;-1.13;0.04;0.994549;0.088222;0.010501;102.8;0.0;0.0;2.0;0.0;0.0
4.0;1753875190.427771;15.15221;0.51;-1.18;0.07;0.993036;0.089292;0.010991;100.1;0.0;0.0;2.0;0.0;0.0
4.0;1753875190.432376;15.192973;0.56;-1.17;-0.07;0.994273;0.08524;0.010731;104.1;0.0;0.0;2.0;0.0;0.0
4.0;1753875190.436981;15.201606;0.58;-1.16;0.05;0.994241;0.085301;0.00954;103.5;0.0;0.0;2.0;0.0;0.0
4.0;1753875190.441586;15.131479;0.52;-1.31;-0.01;0.992244;0.086044;0.009714;102.3;0.0;0.0;2.0;0.0;0.0
4.0;1753875190.446191;15.165672;0.57;-1.19;0.06;0.992745;0.084009;0.010605;100.4;0.0;0.0;2.0;0.0;0.0
4.0;1753875190.451;15.15625;0.56;-1.19;0.0;0.993446;0.086986;0.01098;103.0;0.0;0.0;2.0;0.0;0.0
4.0;1753875190.455605;15.136725;0.48;-1.16;0.05;0.994385;0.087808;0.012386;103.2;0.0;0.0;2.0;0.0;0.0
4.0;1753875190.46021;15.164004;0.55;-1.12;-0.03;0.994167;0.086144;0.010897;101.5;0.0;0.0;2.0;0.0;0.0
4.0;1753875190.464815;15.127703;0.75;-1.09;-0.01;0.994332;0.089627;0.012393;101.5;0.0;0.0;2.0;0.0;0.0
4.0;1753875190.46942;15.116234;0.51;-1.13;0.1;0.992764;0.085925;0.011568;102.2;0.0;0.0;2.0;0.0;0.0
4.0;1753875190.474025;15.183413;0.65;-1.05;-0.08;0.993786;0.087145;0.010721;104.4;0.0;0.0;2.0;0.0;0.0
4.0;1753875190.47863;15.116742;0.7;-1.04;0.12;0.992776;0.086894;0.010105;102.1;0.0;0.0;2.0;0.0;0.0
4.0;1753875190.483235;15.164934;0.69;-1.08;0.12;0.993989;0.088135;0.010552;104.4;0.0;0.0;2.0;0.0;0.0
4.0;1753875190.48784;15.134691;0.59;-1.04;0.02;0.995302;0.086168;0.011479;101.6;0.0;0.0;2.0;0.0;0.0
4.0;1753875190.495;15.15625;0.7;-1.05;0.07;0.993446;0.086986;0.01098;103.0;0.0;0.0;2.0;0.0;0.0
4.0;1753875190.499605;15.138508;0.68;-1.09;0.06;0.993056;0.0857;0.010663;103.6;0.0;0.0;2.0;0.0;0.0
4.0;1753875190.50421;15.15922;0.65;-1.03;0.04;0.993752;0.084656;0.010786;105.5;0.0;0.0;2.0;0.0;0.0
4.0;1753875190.508815;15.172216;0.68;-1.01;0.12;0.992883;0.085534;0.011277;104.0;0.0;0.0;2.0;0.0;0.0
4.0;1753875190.51342;15.136345;0.8;-1.02;-0.04;0.994558;0.086557;0.009862;102.6;0.0;0.0;2.0;0.0;0.0
4.0;1753875190.518025;15.152111;0.64;-1.08;0.21;0.993497;0.087175;0.011315;104.5;0.0;0.0;2.0;0.0;0.0
4.0;1753875190.52263;15.151888;0.74;-1.03;0.08;0.994383;0.085202;0.01005;101.5;0.0;0.0;2.0;0.0;0.0
4.0;1753875190.527235;15.132269;0.67;-1.03;0.01;0.993249;0.084088;0.01025;101.9;0.0;0.0;2.0;0.0;0.0
4.0;1753875190.53184;15.157961;0.66;-1.06;0.02;0.991568;0.08544;0.009967;101.8;0.0;0.0;2.0;0.0;0.0
4.0;1753875190.536446;15.147484;0.64;-1.08;0.05;0.992097;0.087759;0.010909;102.5;0.0;0.0;2.0;0.0;0.0
4.0;1753875190.54105;15.175812;0.72;-1.04;0.1;0.993614;0.088833;0.012369;101.3;0.0;0.0;2.0;0.0;0.0
4.0;1753875190.545656;15.157863;0.69;-0.95;0.05;0.994265;0.087389;0.01063;102.6;0.0;0.0;2.0;0.0;0.0
4.0;1753875190.55026;15.154803;0.7;-1.03;0.06;0.993809;0.088752;0.011274;105.3;0.0;0.0;2.0;0.0;0.0
4.0;1753875190.554866;15.18161;0.8;-1.1;0.03;0.993723;0.088424;0.010868;103.3;0.0;0.0;2.0;0.0;0.0
4.0;1753875190.559471;15.142212;0.64;-0.95;0.07;0.993732;0.088032;0.011337;102.0;0.0;0.0;2.0;0.0;0.0
4.0;1753875190.564076;15.156485;0.73;-1.03;0.12;0.99301;0.087328;0.011364;102.0;0.0;0.0;2.0;0.0;0.0
4.0;1753875190.568681;15.133286;0.62;-1.04;0.07;0.993601;0.086236;0.011233;103.6;0.0;0.0;2.0;0.0;0.0
4.0;1753875190.573286;15.143117;0.72;-1.08;0.09;0.993771;0.08731;0.012058;103.7;0.0;0.0;2.0;0.0;0.0
4.0;1753875190.577891;15.149243;0.67;-1.08;0.15;0.992654;0.087935;0.010992;102.4;0.0;0.0;2.0;0.0;0.0
4.0;1753875190.582496;15.171726;0.55;-0.98;0.04;0.994334;0.084487;0.01166;100.9;0.0;0.0;2.0;0.0;0.0
4.0;1753875190.587101;15.172213;0.67;-1.02;0.13;0.992354;0.087568;0.010674;101.5;0.0;0.0;2.0;0.0;0.0
4.0;1753875190.591706;15.173947;0.7;-1.09;0.13;0.992403;0.087324;0.011756;101.6;0.0;0.0;2.0;0.0;0.0
4.0;1753875190.596311;15.181185;0.67;-1.06;0.09;0.992815;0.086924;0.010867;103.2;0.0;0.0;2.0;0.0;0.0
4.0;1753875190.600916;15.155053;0.69;-0.99;0.03;0.993781;0.08908;0.010971;105.5;0.0;0.0;2.0;0.0;0.0
4.0;1753875190.605521;15.13407;0.71;-1.02;0.09;0.993968;0.087723;0.011853;102.7;0.0;0.0;2.0;0.0;0.0
4.0;1753875190.610126;15.174513;0.63;-1.1;0.19;0.993986;0.087554;0.010107;101.7;0.0;0.0;2.0;0.0;0.0
4.0;1753875190.614731;15.192844;0.71;-1.04;0.13;0.993909;0.087519;0.011387;102.8;0.0;0.0;2.0;0.0;0.0
4.0;1753875190.619336;15.143275;0.85;-1.04;0.06;0.992838;0.090238;0.011235;107.4;0.0;0.0;2.0;0.0;0.0
4.0;1753875190.623942;15.149259;0.64;-1.0;0.06;0.99321;0.089005;0.010745;103.1;0.0;0.0;2.0;0.0;0.0
4.0;1753875190.628546;15.150119;0.69;-1.0;0.09;0.993685;0.084656;0.010734;104.5;0.0;0.0;2.0;0.0;0.0
4.0;1753875190.633152;15.199349;0.76;-1.1;0.08;0.993861;0.084534;0.011079;105.8;0.0;0.0;2.0;0.0;0.0
4.0;1753875190.637756;15.164938;0.67;-1.03;0.08;0.993463;0.087445;0.012071;103.0;0.0;0.0;2.0;0.0;0.0
4.0;1753875190.642362;15.161393;0.66;-1.04;0.07;0.993509;0.088675;0.011213;104.3;0.0;0.0;2.0;0.0;0.0
4.0;1753875190.646967;15.147793;0.83;-1.07;0.05;0.993257;0.087582;0.010361;102.8;0.0;0.0;2.0;0.0;0.0
4.0;1753875190.651572;15.148929;0.76;-0.98;0.08;0.993792;0.088467;0.011553;101.9;0.0;0.0;2.0;0.0;0.0
4.0;1753875190.656177;15.158981;0.8;-1.06;0.12;0.99386;0.088552;0.010399;101.7;0.0;0.0;2.0;0.0;0.0
4.0;1753875190.660782;15.155491;0.66;-1.08;0.09;0.992751;0.087708;0.01045;103.5;0.0;0.0;2.0;0.0;0.0
4.0;1753875190.665387;15.183188;0.59;-1.04;-0.0;0.992399;0.087581;0.010291;100.9;0.0;0.0;2.0;0.0;0.0
4.0;1753875190.669992;15.163887;0.73;-1.05;0.06;0.992252;0.085724;0.011857;102.8;0.0;0.0;2.0;0.0;0.0
4.0;1753875190.674597;15.163239;0.69;-1.06;0.08;0.9942;0.085745;0.011611;103.8;0.0;0.0;2.0;0.0;0.0
4.0;1753875190.679202;15.183895;0.62;-1.11;0.16;0.994834;0.088248;0.011427;103.2;0.0;0.0;2.0;0.0;0.0
4.0;1753875190.683807;15.18046;0.67;-1.08;0.04;0.993149;0.086661;0.01125;104.4;0.0;0.0;2.0;0.0;0.0
4.0;1753875190.688412;15.122558;0.65;-1.06;0.15;0.993821;0.086275;0.010265;104.0;0.0;0.0;2.0;0.0;0.0
4.0;1753875190.693017;15.126477;0.74;-1.04;0.05;0.993218;0.089105;0.011072;101.6;0.0;0.0;2.0;0.0;0.0
4.0;1753875190.697622;15.148823;0.72;-1.05;0.04;0.991579;0.086697;0.010668;102.9;0.0;0.0;2.0;0.0;0.0
4.0;1753875190.702227;15.130186;0.73;-0.99;0.12;0.992877;0.088039;0.010826;99.3;0.0;0.0;2.0;0.0;0.0
4.0;1753875190.706832;15.166849;0.74;-1.15;0.06;0.995046;0.087527;0.011553;102.1;0.0;0.0;2.0;0.0;0.0
4.0;1753875190.711438;15.136924;0.71;-1.02;0.09;0.993725;0.087502;0.012254;102.9;0.0;0.0;2.0;0.0;0.0
4.0;1753875190.716042;15.172841;0.7;-1.08;0.11;0.99352;0.087716;0.01155;102.4;0.0;0.0;2.0;0.0;0.0
4.0;1753875190.720648;15.151332;0.74;-1.1;0.1;0.992827;0.088309;0.011724;106.5;0.0;0.0;2.0;0.0;0.0
4.0;1753875190.725253;15.186777;0.68;-1.05;0.13;0.994792;0.086374;0.012846;102.9;0.0;0.0;2.0;0.0;0.0
4.0;1753875190.729858;15.134704;0.67;-1.0;0.17;0.993401;0.086892;0.011574;99.2;0.0;0.0;2.0;0.0;0.0
4.0;1753875190.734463;15.151095;0.65;-1.1;0.07;0.993502;0.087938;0.010417;103.5;0.0;0.0;2.0;0.0;0.0
4.0;1753875190.739068;15.160537;0.67;-1.05;0.17;0.993186;0.089359;0.012697;106.3;0.0;0.0;2.0;0.0;0.0
4.0;1753875190.743673;15.146549;0.65;-0.99;0.15;0.993982;0.088298;0.011467;103.6;0.0;0.0;2.0;0.0;0.0
4.0;1753875190.748278;15.175205;0.63;-0.97;0.1;0.993436;0.084114;0.011326;102.6;0.0;0.0;2.0;0.0;0.0
4.0;1753875190.752883;15.156303;0.64;-1.06;0.11;0.993573;0.086548;0.011009;104.2;0.0;0.0;2.0;0.0;0.0
4.0;1753875190.757488;15.121756;0.66;-1.04;0.13;0.992775;0.083352;0.0118;105.5;0.0;0.0;2.0;0.0;0.0
4.0;1753875190.762093;15.149515;0.78;-1.0;0.14;0.993334;0.088785;0.011862;103.3;0.0;0.0;2.0;0.0;0.0
4.0;1753875190.766698;15.148049;0.61;-1.04;0.15;0.993266;0.087354;0.011111;103.9;0.0;0.0;2.0;0.0;0.0
4.0;1753875190.771303;15.140052;0.63;-1.03;0.14;0.993431;0.090555;0.009724;102.7;0.0;0.0;2.0;0.0;0.0
4.0;1753875190.775908;15.169333;0.64;-1.07;0.11;0.993216;0.086693;0.010674;104.5;0.0;0.0;2.0;0.0;0.0
4.0;1753875190.780513;15.153378;0.64;-1.07;0.11;0.993098;0.088382;0.010553;102.4;0.0;0.0;2.0;0.0;0.0
4.0;1753875190.785118;15.160615;0.55;-1.05;0.16;0.99332;0.087757;0.010074;101.9;0.0;0.0;2.0;0.0;0.0
4.0;1753875190.789724;15.132994;0.67;-1.13;0.05;0.994183;0.085384;0.011346;105.7;0.0;0.0;2.0;0.0;0.0
4.0;1753875190.794328;15.151558;0.64;-1.05;0.17;0.993885;0.085643;0.011499;104.9;0.0;0.0;2.0;0.0;0.0
4.0;1753875190.798934;15.141928;0.59;-1.08;0.19;0.992299;0.086928;0.011454;104.3;0.0;0.0;2.0;0.0;0.0
4.0;1753875190.803538;15.122682;0.71;-1.05;0.1;0.992625;0.085187;0.011803;102.3;0.0;0.0;2.0;0.0;0.0
4.0;1753875190.808144;15.156057;0.67;-1.0;0.09;0.992532;0.084369;0.011453;102.3;0.0;0.0;2.0;0.0;0.0
4.0;1753875190.812749;15.160507;0.66;-1.12;0.07;0.993437;0.08674;0.011226;103.8;0.0;0.0;2.0;0.0;0.0
4.0;1753875190.817354;15.128211;0.57;-1.02;0.05;0.993298;0.08681;0.010906;104.7;0.0;0.0;2.0;0.0;0.0
4.0;1753875190.821959;15.141619;0.67;-1.11;0.05;0.992853;0.084769;0.010676;103.4;0.0;0.0;2.0;0.0;0.0
4.0;1753875190.826564;15.158921;0.68;-1.01;0.06;0.993637;0.087089;0.011674;104.5;0.0;0.0;2.0;0.0;0.0
4.0;1753875190.831169;15.1563;0.65;-1.16;0.2;0.993156;0.088832;0.011382;101.9;0.0;0.0;2.0;0.0;0.0
4.0;1753875190.835774;15.151552;0.69;-1.01;0.11;0.994001;0.083863;0.011229;106.0;0.0;0.0;2.0;0.0;0.0
4.0;1753875190.840379;15.157654;0.78;-1.02;0.08;0.991814;0.08723;0.01076;103.8;0.0;0.0;2.0;0.0;0.0
4.0;1753875190.844984;15.132935;0.64;-1.12;0.06;0.993371;0.087365;0.01144;103.0;0.0;0.0;2.0;0.0;0.0
4.0;1753875190.849589;15.173763;0.71;-1.07;0.12;0.993124;0.083968;0.009344;102.4;0.0;0.0;2.0;0.0;0.0
4.0;1753875190.854194;15.155529;0.83;-1.11;0.17;0.993661;0.084797;0.010962;106.4;0.0;0.0;2.0;0.0;0.0
4.0;1753875190.858799;15.158722;0.63;-1.05;0.1;0.992613;0.086533;0.010952;100.4;0.0;0.0;2.0;0.0;0.0
4.0;1753875190.863404;15.175762;0.7;-1.09;0.15;0.992914;0.086188;0.012851;103.0;0.0;0.0;2.0;0.0;0.0
4.0;1753875190.868009;15.147751;0.72;-1.1;0.18;0.993952;0.087578;0.011354;101.8;0.0;0.0;2.0;0.0;0.0
4.0;1753875190.872614;15.143123;0.74;-1.03;0.06;0.993178;0.086626;0.010978;104.0;0.0;0.0;2.0;0.0;0.0
4.0;1753875190.87722;15.150264;0.62;-1.0;0.05;0.992892;0.087395;0.011073;102.6;0.0;0.0;2.0;0.0;0.0
4.0;1753875190.881824;15.146069;0.68;-1.1;0.12;0.991937;0.085222;0.011483;102.3;0.0;0.0;2.0;0.0;0.0
4.0;1753875190.88643;15.173282;0.63;-1.02;0.1;0.994104;0.085262;0.011452;98.0;0.0;0.0;2.0;0.0;0.0
4.0;1753875190.891034;15.160304;0.65;-1.03;0.18;0.992973;0.087876;0.010745;100.7;0.0;0.0;2.0;0.0;0.0
4.0;1753875190.89564;15.123194;0.58;-1.02;0.12;0.993521;0.085587;0.011041;101.6;0.0;0.0;2.0;0.0;0.0
4.0;1753875190.900245;15.16975;0.63;-1.01;0.16;0.992462;0.088288;0.011118;103.1;0.0;0.0;2.0;0.0;0.0
4.0;1753875190.90485;15.146617;0.71;-1.09;0.19;0.994923;0.086493;0.010637;104.9;0.0;0.0;2.0;0.0;0.0
4.0;1753875190.909455;15.160079;0.66;-1.03;0.08;0.993609;0.085954;0.011385;100.7;0.0;0.0;2.0;0.0;0.0
4.0;1753875190.91406;15.15445;0.63;-1.08;0.16;0.993588;0.082504;0.010116;101.7;0.0;0.0;2.0;0.0;0.0
4.0;1753875190.918665;15.185655;0.74;-0.99;0.12;0.99311;0.084189;0.012034;102.9;0.0;0.0;2.0;0.0;0.0
4.0;1753875190.92327;15.194532;0.66;-0.99;0.14;0.992805;0.085046;0.011895;104.0;0.0;0.0;2.0;0.0;0.0
4.0;1753875190.927875;15.164113;0.58;-1.05;0.17;0.993792;0.085467;0.01179;103.8;0.0;0.0;2.0;0.0;0.0
4.0;1753875190.93248;15.152908;0.57;-1.05;0.12;0.993039;0.087339;0.011884;103.3;0.0;0.0;2.0;0.0;0.0
4.0;1753875190.937085;15.161104;0.51;-1.04;0.16;0.99275;0.085368;0.012159;100.7;0.0;0.0;2.0;0.0;0.0
4.0;1753875190.94169;15.184474;0.58;-1.11;0.14;0.992435;0.087032;0.012325;103.1;0.0;0.0;2.0;0.0;0.0
4.0;1753875190.946295;15.157409;0.7;-1.09;0.14;0.992771;0.088465;0.01253;103.3;0.0;0.0;2.0;0.0;0.0
4.0;1753875190.9509;15.172529;0.59;-1.07;0.12;0.9934;0.085511;0.011785;104.0;0.0;0.0;2.0;0.0;0.0
4.0;1753875190.959;15.15625;0.63;-1.05;0.14;0.993324;0.086254;0.01159;103.0;0.0;0.0;2.0;0.0;0.0
4.0;1753875190.963605;15.181067;0.74;-1.2;0.19;0.994136;0.089617;0.011114;102.9;0.0;0.0;2.0;0.0;0.0
4.0;1753875190.96821;15.153143;0.54;-1.01;0.15;0.992845;0.08667;0.010999;105.0;0.0;0.0;2.0;0.0;0.0
4.0;1753875190.972815;15.175822;0.66;-1.08;0.07;0.992427;0.08909;0.0117;106.7;0.0;0.0;2.0;0.0;0.0
4.0;1753875190.97742;15.159702;0.56;-1.12;0.05;0.993908;0.086612;0.010867;106.3;0.0;0.0;2.0;0.0;0.0
4.0;1753875190.982026;15.180863;0.66;-1.16;0.08;0.993998;0.086381;0.011275;109.9;0.0;0.0;2.0;0.0;0.0
4.0;1753875190.98663;15.167479;0.56;-1.24;0.1;0.993898;0.085944;0.010546;110.3;0.0;0.0;2.0;0.0;0.0
4.0;1753875190.9908;15.1875;0.63;-1.19;0.07;0.993568;0.08723;0.012078;110.0;0.0;0.0;2.0;0.0;0.0
4.0;1753875190.992597;15.195312;0.7;-1.12;0.07;0.993934;0.086986;0.012322;109.0;0.0;0.0;2.0;0.0;0.0
4.0;1753875190.999166;15.1875;0.63;-1.12;0.07;0.992836;0.083936;0.012444;109.0;0.0;0.0;2.0;0.0;0.0
4.0;1753875191.003771;15.183277;0.5;-1.14;0.09;0.992962;0.08482;0.012173;106.8;0.0;0.0;2.0;0.0;0.0
4.0;1753875191.008376;15.195153;0.58;-1.04;0.06;0.993083;0.082781;0.011884;116.8;0.0;0.0;2.0;0.0;0.0
4.0;1753875191.012981;15.191862;0.68;-1.23;0.14;0.993088;0.081516;0.013426;109.1;0.0;0.0;2.0;0.0;0.0
4.0;1753875191.017586;15.19309;0.72;-1.13;0.0;0.992778;0.081973;0.011983;105.5;0.0;0.0;2.0;0.0;0.0
4.0;1753875191.022191;15.180142;0.58;-1.06;0.11;0.993434;0.085433;0.011922;108.2;0.0;0.0;2.0;0.0;0.0
4.0;1753875191.026796;15.197931;0.65;-1.15;0.13;0.992583;0.083788;0.012319;109.5;0.0;0.0;2.0;0.0;0.0
4.0;1753875191.031402;15.19045;0.62;-1.14;0.08;0.990791;0.083016;0.012658;108.7;0.0;0.0;2.0;0.0;0.0
4.0;1753875191.036006;15.189593;0.58;-1.12;0.02;0.992738;0.083054;0.01262;112.2;0.0;0.0;2.0;0.0;0.0
4.0;1753875191.040612;15.191579;0.57;-1.07;0.0;0.993338;0.084067;0.012148;113.5;0.0;0.0;2.0;0.0;0.0
4.0;1753875191.045216;15.191527;0.66;-1.12;0.04;0.992659;0.084375;0.011628;109.2;0.0;0.0;2.0;0.0;0.0
4.0;1753875191.049822;15.196461;0.62;-1.14;0.05;0.993085;0.083447;0.012336;106.2;0.0;0.0;2.0;0.0;0.0
4.0;1753875191.054427;15.191302;0.49;-1.12;0.05;0.992846;0.086233;0.011486;105.9;0.0;0.0;2.0;0.0;0.0
4.0;1753875191.059032;15.183146;0.63;-1.24;0.05;0.992655;0.083551;0.011646;113.3;0.0;0.0;2.0;0.0;0.0
4.0;1753875191.063637;15.201257;0.57;-1.2;0.01;0.992583;0.086921;0.012461;107.9;0.0;0.0;2.0;0.0;0.0
4.0;1753875191.068242;15.190079;0.58;-1.12;0.03;0.993955;0.083956;0.012098;105.8;0.0;0.0;2.0;0.0;0.0
4.0;1753875191.072847;15.195285;0.77;-1.19;0.04;0.992441;0.083568;0.011615;108.5;0.0;0.0;2.0;0.0;0.0
4.0;1753875191.077452;15.172461;0.63;-1.17;0.03;0.993603;0.085754;0.013201;116.1;0.0;0.0;2.0;0.0;0.0
4.0;1753875191.082057;15.182404;0.5;-1.22;0.02;0.993111;0.083913;0.011338;109.0;0.0;0.0;2.0;0.0;0.0
4.0;1753875191.086662;15.182198;0.63;-1.21;0.05;0.993577;0.085327;0.012688;110.8;0.0;0.0;2.0;0.0;0.0
4.0;1753875191.091267;15.167669;0.6;-1.16;0.02;0.992724;0.082657;0.011344;106.5;0.0;0.0;2.0;0.0;0.0
4.0;1753875191.095872;15.185262;0.55;-1.12;0.09;0.992607;0.084867;0.011337;104.8;0.0;0.0;2.0;0.0;0.0
4.0;1753875191.100477;15.190779;0.52;-1.16;0.1;0.992024;0.087439;0.011679;107.4;0.0;0.0;2.0;0.0;0.0
4.0;1753875191.105082;15.196851;0.66;-1.16;0.02;0.992571;0.085396;0.011077;112.3;0.0;0.0;2.0;0.0;0.0
4.0;1753875191.109687;15.184178;0.58;-1.06;-0.04;0.991504;0.084267;0.011547;107.5;0.0;0.0;2.0;0.0;0.0
4.0;1753875191.114292;15.178426;0.59;-1.19;0.04;0.992998;0.083733;0.010825;106.8;0.0;0.0;2.0;0.0;0.0
4.0;1753875191.118898;15.193729;0.61;-1.17;-0.02;0.99244;0.086628;0.01199;112.9;0.0;0.0;2.0;0.0;0.0
4.0;1753875191.123502;15.163587;0.64;-1.16;-0.0;0.991878;0.086007;0.012215;105.4;0.0;0.0;2.0;0.0;0.0
4.0;1753875191.128108;15.196814;0.66;-1.21;-0.11;0.992484;0.086564;0.012146;109.1;0.0;0.0;2.0;0.0;0.0
4.0;1753875191.132712;15.197653;0.6;-1.2;0.06;0.992489;0.082921;0.011999;113.4;0.0;0.0;2.0;0.0;0.0
4.0;1753875191.137318;15.168052;0.67;-1.16;-0.02;0.992293;0.086736;0.013105;110.8;0.0;0.0;2.0;0.0;0.0
4.0;1753875191.141923;15.184981;0.55;-1.16;-0.01;0.992406;0.08426;0.012125;107.2;0.0;0.0;2.0;0.0;0.0
4.0;1753875191.146528;15.172914;0.67;-1.19;-0.0;0.99222;0.085034;0.011177;105.5;0.0;0.0;2.0;0.0;0.0
4.0;1753875191.151133;15.196825;0.52;-1.15;-0.03;0.992557;0.084369;0.012722;108.1;0.0;0.0;2.0;0.0;0.0
4.0;1753875191.155738;15.182828;0.53;-1.17;0.03;0.992753;0.085797;0.011939;107.9;0.0;0.0;2.0;0.0;0.0
4.0;1753875191.160343;15.190644;0.61;-1.23;0.05;0.992293;0.086119;0.011679;109.1;0.0;0.0;2.0;0.0;0.0
4.0;1753875191.1652;15.1875;0.56;-1.19;0.0;0.992348;0.085522;0.011468;109.0;0.0;0.0;2.0;0.0;0.0
4.0;1753875191.169805;15.182143;0.6;-1.21;0.02;0.990388;0.08623;0.010768;112.3;0.0;0.0;2.0;0.0;0.0
4.0;1753875191.17441;15.18301;0.55;-1.16;-0.04;0.99183;0.084535;0.010849;109.4;0.0;0.0;2.0;0.0;0.0
4.0;1753875191.179015;15.181617;0.45;-1.21;0.05;0.991698;0.085709;0.011783;109.4;0.0;0.0;2.0;0.0;0.0
4.0;1753875191.18362;15.177875;0.59;-1.11;0.03;0.992592;0.083993;0.012038;112.8;0.0;0.0;2.0;0.0;0.0
4.0;1753875191.188225;15.1841;0.63;-1.17;0.05;0.992292;0.083474;0.011513;110.3;0.0;0.0;2.0;0.0;0.0
4.0;1753875191.19283;15.188578;0.6;-1.2;0.02;0.993661;0.08552;0.011173;107.5;0.0;0.0;2.0;0.0;0.0
4.0;1753875191.197436;15.173831;0.61;-1.22;-0.07;0.99237;0.087976;0.010447;106.4;0.0;0.0;2.0;0.0;0.0
4.0;1753875191.20204;15.196832;0.58;-1.15;0.06;0.992248;0.086516;0.010981;110.3;0.0;0.0;2.0;0.0;0.0
4.0;1753875191.206646;15.193929;0.62;-1.23;0.1;0.991955;0.083767;0.011016;113.5;0.0;0.0;2.0;0.0;0.0
4.0;1753875191.21125;15.199074;0.56;-1.27;-0.01;0.993616;0.084099;0.011416;110.9;0.0;0.0;2.0;0.0;0.0
4.0;1753875191.215856;15.188911;0.63;-1.2;0.07;0.992284;0.085059;0.011132;104.2;0.0;0.0;2.0;0.0;0.0
4.0;1753875191.220461;15.193452;0.66;-1.23;-0.04;0.992406;0.083866;0.010394;105.5;0.0;0.0;2.0;0.0;0.0
4.0;1753875191.225066;15.180462;0.5;-1.24;0.04;0.991353;0.086138;0.011643;107.7;0.0;0.0;2.0;0.0;0.0
4.0;1753875191.229671;15.182592;0.52;-1.12;-0.21;0.992437;0.086919;0.010664;108.0;0.0;0.0;2.0;0.0;0.0
4.0;1753875191.234276;15.190465;0.48;-1.24;0.09;0.992011;0.08559;0.01046;110.5;0.0;0.0;2.0;0.0;0.0
4.0;1753875191.238881;15.177975;0.54;-1.28;-0.02;0.991833;0.084985;0.010438;110.3;0.0;0.0;2.0;0.0;0.0
4.0;1753875191.243486;15.18593;0.62;-1.15;-0.07;0.991878;0.086469;0.010783;108.1;0.0;0.0;2.0;0.0;0.0
4.0;1753875191.248091;15.187894;0.64;-1.19;0.04;0.991623;0.086789;0.01051;109.1;0.0;0.0;2.0;0.0;0.0
4.0;1753875191.252696;15.176777;0.58;-1.25;-0.11;0.99159;0.085029;0.012009;109.2;0.0;0.0;2.0;0.0;0.0
4.0;1753875191.257301;15.190656;0.59;-1.21;-0.0;0.992384;0.087551;0.011137;112.1;0.0;0.0;2.0;0.0;0.0
4.0;1753875191.261906;15.18134;0.58;-1.16;0.07;0.992035;0.087704;0.010613;104.0;0.0;0.0;2.0;0.0;0.0
4.0;1753875191.266511;15.182845;0.68;-1.11;0.05;0.992537;0.084996;0.01127;108.8;0.0;0.0;2.0;0.0;0.0
4.0;1753875191.271116;15.163422;0.55;-1.23;0.0;0.991893;0.086059;0.011956;105.0;0.0;0.0;2.0;0.0;0.0
4.0;1753875191.275721;15.186297;0.63;-1.25;-0.03;0.992181;0.086679;0.010149;111.6;0.0;0.0;2.0;0.0;0.0
4.0;1753875191.280326;15.168689;0.64;-1.2;0.01;0.992;0.086634;0.011872;109.1;0.0;0.0;2.0;0.0;0.0
4.0;1753875191.284932;15.175522;0.52;-1.12;0.01;0.991432;0.086771;0.011674;109.2;0.0;0.0;2.0;0.0;0.0
4.0;1753875191.289536;15.175063;0.48;-1.2;-0.03;0.991933;0.085566;0.010952;110.6;0.0;0.0;2.0;0.0;0.0
4.0;1753875191.294142;15.17371;0.59;-1.12;-0.03;0.992362;0.084242;0.010543;108.4;0.0;0.0;2.0;0.0;0.0
4.0;1753875191.298746;15.193658;0.52;-1.11;-0.17;0.992241;0.08691;0.011147;111.0;0.0;0.0;2.0;0.0;0.0
4.0;1753875191.303352;15.183946;0.57;-1.18;0.07;0.992237;0.086836;0.011655;104.9;0.0;0.0;2.0;0.0;0.0
4.0;1753875191.307957;15.205843;0.63;-1.21;-0.06;0.991694;0.085826;0.01046;102.8;0.0;0.0;2.0;0.0;0.0
4.0;1753875191.312562;15.197982;0.62;-1.12;-0.02;0.992949;0.08564;0.011083;107.9;0.0;0.0;2.0;0.0;0.0
4.0;1753875191.317167;15.183526;0.58;-1.3;-0.11;0.990502;0.085715;0.011189;111.6;0.0;0.0;2.0;0.0;0.0
4.0;1753875191.321772;15.184392;0.56;-1.16;0.01;0.991845;0.086022;0.012311;106.5;0.0;0.0;2.0;0.0;0.0
4.0;1753875191.326377;15.192392;0.51;-1.24;0.01;0.992028;0.085879;0.011576;109.6;0.0;0.0;2.0;0.0;0.0
4.0;1753875191.330982;15.203363;0.56;-1.19;-0.05;0.99234;0.08473;0.011566;112.0;0.0;0.0;2.0;0.0;0.0
4.0;1753875191.335587;15.187396;0.65;-1.06;-0.06;0.992465;0.087152;0.01042;106.6;0.0;0.0;2.0;0.0;0.0
4.0;1753875191.340192;15.185761;0.49;-1.15;0.06;0.992254;0.086291;0.011656;109.2;0.0;0.0;2.0;0.0;0.0
4.0;1753875191.344797;15.186538;0.61;-1.27;-0.06;0.99275;0.085951;0.011276;109.7;0.0;0.0;2.0;0.0;0.0
4.0;1753875191.349402;15.172215;0.47;-1.16;-0.07;0.992334;0.086286;0.010694;110.6;0.0;0.0;2.0;0.0;0.0
4.0;1753875191.354007;15.176421;0.51;-1.23;-0.03;0.992358;0.08582;0.012155;110.0;0.0;0.0;2.0;0.0;0.0
4.0;1753875191.358612;15.182168;0.58;-1.14;0.05;0.991802;0.084336;0.010518;109.4;0.0;0.0;2.0;0.0;0.0
4.0;1753875191.363217;15.185691;0.66;-1.31;-0.01;0.991641;0.084984;0.010582;110.9;0.0;0.0;2.0;0.0;0.0
4.0;1753875191.367822;15.178832;0.48;-1.22;-0.02;0.991226;0.085109;0.009869;111.8;0.0;0.0;2.0;0.0;0.0
4.0;1753875191.372428;15.203912;0.5;-1.13;-0.12;0.992132;0.084191;0.010846;108.0;0.0;0.0;2.0;0.0;0.0
4.0;1753875191.377032;15.198575;0.62;-1.2;-0.08;0.992238;0.086654;0.012312;113.8;0.0;0.0;2.0;0.0;0.0
4.0;1753875191.381638;15.193326;0.63;-1.17;0.01;0.99321;0.084041;0.012211;110.8;0.0;0.0;2.0;0.0;0.0
4.0;1753875191.386243;15.177732;0.71;-1.27;-0.01;0.991023;0.085996;0.011197;108.7;0.0;0.0;2.0;0.0;0.0
4.0;1753875191.390848;15.18769;0.65;-1.24;-0.03;0.992221;0.089131;0.011816;109.4;0.0;0.0;2.0;0.0;0.0
4.0;1753875191.395453;15.18268;0.59;-1.25;0.03;0.992506;0.084977;0.01107;111.9;0.0;0.0;2.0;0.0;0.0
4.0;1753875191.400058;15.182125;0.51;-1.18;-0.05;0.992102;0.086095;0.011373;112.4;0.0;0.0;2.0;0.0;0.0
4.0;1753875191.404663;15.204596;0.64;-1.17;0.03;0.992833;0.087596;0.012003;108.1;0.0;0.0;2.0;0.0;0.0
4.0;1753875191.409268;15.181471;0.7;-1.15;-0.02;0.992547;0.085768;0.011833;114.0;0.0;0.0;2.0;0.0;0.0
4.0;1753875191.413873;15.197921;0.64;-1.18;0.12;0.992701;0.086202;0.011525;109.0;0.0;0.0;2.0;0.0;0.0
4.0;1753875191.418478;15.177746;0.58;-1.15;-0.01;0.991933;0.083892;0.01056;105.8;0.0;0.0;2.0;0.0;0.0
4.0;1753875191.423083;15.169024;0.59;-1.12;-0.16;0.992572;0.08335;0.011187;113.6;0.0;0.0;2.0;0.0;0.0
4.0;1753875191.427688;15.195145;0.74;-1.2;0.01;0.991337;0.086476;0.011138;108.2;0.0;0.0;2.0;0.0;0.0
4.0;1753875191.432293;15.19147;0.65;-1.11;0.04;0.993498;0.083916;0.011436;104.6;0.0;0.0;2.0;0.0;0.0
4.0;1753875191.436898;15.203794;0.52;-1.16;-0.0;0.992451;0.086334;0.011988;115.4;0.0;0.0;2.0;0.0;0.0
4.0;1753875191.441503;15.177877;0.53;-1.26;-0.06;0.992823;0.084705;0.011285;110.3;0.0;0.0;2.0;0.0;0.0
4.0;1753875191.446108;15.195111;0.63;-1.21;0.05;0.992393;0.084809;0.012552;109.2;0.0;0.0;2.0;0.0;0.0
4.0;1753875191.450714;15.194362;0.67;-1.14;-0.03;0.993106;0.083201;0.012191;107.6;0.0;0.0;2.0;0.0;0.0
4.0;1753875191.455318;15.197236;0.57;-1.14;-0.01;0.991858;0.08505;0.011311;112.5;0.0;0.0;2.0;0.0;0.0
4.0;1753875191.459924;15.198545;0.59;-1.13;0.02;0.99119;0.087199;0.011447;113.4;0.0;0.0;2.0;0.0;0.0
4.0;1753875191.464528;15.170303;0.67;-1.11;0.05;0.992377;0.081772;0.012103;105.2;0.0;0.0;2.0;0.0;0.0
4.0;1753875191.469134;15.194468;0.64;-1.23;0.08;0.990485;0.086643;0.011791;103.2;0.0;0.0;2.0;0.0;0.0
4.0;1753875191.473739;15.190629;0.52;-1.2;-0.04;0.992343;0.08409;0.011564;105.9;0.0;0.0;2.0;0.0;0.0
4.0;1753875191.478344;15.201653;0.52;-1.17;0.04;0.992036;0.087232;0.011132;112.3;0.0;0.0;2.0;0.0;0.0
4.0;1753875191.482949;15.18396;0.62;-1.19;-0.06;0.992577;0.086268;0.011356;108.2;0.0;0.0;2.0;0.0;0.0
4.0;1753875191.487554;15.193051;0.65;-1.14;0.11;0.993201;0.084281;0.011159;106.0;0.0;0.0;2.0;0.0;0.0
4.0;1753875191.492159;15.178573;0.56;-1.28;0.01;0.993093;0.085515;0.011202;111.1;0.0;0.0;2.0;0.0;0.0
4.0;1753875191.496764;15.182489;0.55;-1.19;-0.07;0.991468;0.084352;0.010641;114.8;0.0;0.0;2.0;0.0;0.0
4.0;1753875191.501369;15.177549;0.58;-1.21;-0.01;0.990898;0.086168;0.011356;107.7;0.0;0.0;2.0;0.0;0.0
4.0;1753875191.505974;15.192197;0.64;-1.13;0.08;0.991391;0.086163;0.011177;110.5;0.0;0.0;2.0;0.0;0.0
4.0;1753875191.510579;15.191758;0.61;-1.27;-0.12;0.992764;0.084455;0.012321;112.7;0.0;0.0;2.0;0.0;0.0
4.0;1753875191.515184;15.170012;0.65;-1.12;-0.06;0.99179;0.084648;0.010468;106.4;0.0;0.0;2.0;0.0;0.0
4.0;1753875191.519789;15.196603;0.65;-1.24;-0.01;0.992513;0.086142;0.011559;111.5;0.0;0.0;2.0;0.0;0.0
4.0;1753875191.524394;15.192424;0.64;-1.19;-0.02;0.992649;0.085565;0.010605;110.1;0.0;0.0;2.0;0.0;0.0
