DeviceID;Timestamp;Temperature;GyroX;GyroY;GyroZ;AccelX;AccelY;AccelZ;Dist1;Dist2;Dist3;Err1;Err2;Err3
3.0;1753875185.969484;16.0;0.7;-1.33;-0.14;0.941718;-0.343064;0.013664;91.0;0.0;0.0;1.0;0.0;0.0
3.0;1753875185.974308;16.0;0.77;-1.26;-0.14;0.941108;-0.34404;0.01525;91.0;0.0;0.0;1.0;0.0;0.0
3.0;1753875185.982032;16.0;0.77;-1.26;-0.21;0.941474;-0.343186;0.014884;91.0;0.0;0.0;1.0;0.0;0.0
3.0;1753875185.983433;16.015625;0.7;-1.33;-0.14;0.942572;-0.343918;0.013054;91.0;0.0;0.0;1.0;0.0;0.0
3.0;1753875185.988857;16.015625;0.7;-1.33;-0.14;0.942328;-0.344284;0.01464;91.0;0.0;0.0;1.0;0.0;0.0
3.0;1753875185.993587;16.015306;0.29;-1.73;-0.08;0.957102;-0.367028;0.003376;91.5;-0.0;-0.1;1.0;-0.0;-0.0
3.0;1753875185.998317;16.018275;0.83;-1.16;2.31;0.968684;-0.347165;0.010365;88.1;-0.0;-0.1;0.9;0.0;0.0
3.0;1753875186.003047;16.018124;0.14;-1.15;-2.08;0.929737;-0.331775;0.017642;91.1;0.0;-0.0;1.2;0.0;-0.0
3.0;1753875186.007777;16.016462;0.78;-0.69;2.19;0.973754;-0.329306;0.013309;95.0;-0.1;0.1;0.8;0.0;0.0
3.0;1753875186.012507;16.01749;1.05;-1.25;0.25;0.965314;-0.315756;0.004451;92.7;0.0;-0.0;1.1;0.0;-0.0
3.0;1753875186.017237;16.01483;0.26;-1.34;0.5;0.962052;-0.357239;0.025138;90.0;-0.0;0.1;0.9;-0.0;0.0
3.0;1753875186.021967;16.013495;-0.03;-1.21;0.56;0.943505;-0.369023;0.001878;89.6;0.0;-0.1;1.1;-0.0;-0.0
3.0;1753875186.026697;16.016904;0.46;-1.81;-0.88;0.923381;-0.372442;0.019484;90.9;0.0;0.3;1.0;0.0;-0.0
3.0;1753875186.031427;16.015648;0.74;-1.61;-1.85;0.99228;-0.312655;-0.002611;89.7;0.0;-0.1;1.3;-0.0;-0.0
3.0;1753875186.036157;16.014653;0.74;-1.93;0.62;0.940131;-0.365441;0.021976;91.7;-0.0;-0.2;0.9;-0.0;0.0
3.0;1753875186.040887;16.015454;0.04;-0.95;-1.38;0.914905;-0.338833;0.026825;91.0;0.0;0.0;0.5;-0.0;0.0
3.0;1753875186.045617;16.013388;0.75;-1.23;-0.61;0.93631;-0.35056;0.027593;87.8;0.0;0.2;0.5;0.0;-0.0
3.0;1753875186.050347;16.014739;0.49;-1.22;0.34;0.950046;-0.387861;0.017543;91.8;0.0;0.3;1.1;-0.0;-0.0
3.0;1753875186.055077;16.0163;0.73;-0.72;-0.23;0.955774;-0.327693;0.021357;92.6;0.0;0.1;0.9;0.0;0.0
3.0;1753875186.059807;16.017594;0.98;-2.21;-0.41;0.938941;-0.341202;0.003225;93.6;0.0;-0.0;1.1;0.0;-0.0
3.0;1753875186.064537;16.017077;0.58;-0.9;-2.59;0.952682;-0.29312;0.021552;91.2;0.0;-0.0;1.0;0.0;0.0
3.0;1753875186.069267;16.015954;0.88;-1.23;0.67;0.933628;-0.326943;0.026061;90.6;-0.0;0.1;1.1;-0.0;0.0
3.0;1753875186.073997;16.015993;0.19;-0.93;-2.68;0.918187;-0.32628;0.012322;90.4;0.0;-0.0;1.1;0.0;-0.0
3.0;1753875186.078727;16.017461;1.45;-1.63;-0.62;0.936836;-0.341031;0.013145;91.9;0.0;0.2;1.0;-0.0;-0.0
3.0;1753875186.083457;16.017381;1.27;-1.38;0.52;0.932089;-0.377452;0.018963;91.8;0.0;0.1;1.0;0.0;-0.0
3.0;1753875186.088187;16.015461;0.11;-0.77;-1.56;0.932882;-0.32275;0.025585;91.6;0.0;-0.2;0.9;0.0;0.0
3.0;1753875186.092917;16.017133;0.36;-1.33;-0.43;0.960915;-0.345956;0.008858;90.7;0.0;0.2;0.9;0.0;0.0
3.0;1753875186.097647;16.019653;0.56;-1.58;-0.85;0.924294;-0.303721;0.017934;93.0;0.0;0.1;0.9;0.0;0.0
3.0;1753875186.102377;16.014182;0.69;-1.17;1.91;0.910845;-0.350556;0.013674;87.7;-0.0;0.0;1.0;0.0;-0.0
3.0;1753875186.107107;16.016552;0.5;-1.06;-0.63;0.930002;-0.354498;0.024701;91.3;0.0;0.4;1.1;0.0;-0.0
3.0;1753875186.111837;16.011783;0.58;-1.7;-0.17;0.966028;-0.328938;0.009553;90.1;-0.0;-0.0;1.3;-0.0;-0.0
3.0;1753875186.116567;16.01472;0.86;-1.41;2.94;0.933151;-0.326204;0.018979;90.3;0.0;0.2;1.0;0.0;0.0
3.0;1753875186.121297;16.0157;0.34;-1.6;0.4;0.941186;-0.344842;0.018273;87.6;0.0;-0.1;1.0;0.0;0.0
3.0;1753875186.126027;16.017157;0.29;-1.15;-0.22;0.909237;-0.369853;0.024698;89.0;-0.0;0.0;1.1;-0.0;-0.0
3.0;1753875186.1338;16.015625;0.7;-1.33;-0.28;0.94001;-0.345016;0.015616;90.0;0.0;0.0;1.0;0.0;0.0
3.0;1753875186.13853;16.013276;0.88;-0.97;-1.45;0.949977;-0.335875;0.007826;88.7;0.0;0.3;0.9;0.0;-0.0
3.0;1753875186.14326;16.013748;0.16;-1.87;-0.26;0.936238;-0.323765;-0.001879;88.8;-0.0;-0.0;1.2;0.0;0.0
3.0;1753875186.14799;16.011785;0.42;-1.37;1.92;0.991656;-0.326256;0.023893;88.5;0.0;-0.4;1.1;0.0;0.0
3.0;1753875186.15272;16.016726;0.86;-0.83;0.33;0.899417;-0.322702;0.002317;89.2;0.0;0.1;0.9;-0.0;-0.0
3.0;1753875186.15745;16.013773;1.19;-1.49;0.26;0.891288;-0.306775;0.028966;90.9;-0.0;0.0;0.9;-0.0;-0.0
3.0;1753875186.16218;16.013131;0.65;-0.67;1.05;0.931443;-0.334679;0.02287;89.8;0.0;-0.1;0.9;-0.0;0.0
3.0;1753875186.16691;16.011196;0.54;-1.04;-3.64;0.932836;-0.338381;-0.001446;89.0;0.0;-0.0;1.0;0.0;0.0
3.0;1753875186.17164;16.01284;1.22;-1.21;-1.31;0.950289;-0.335605;0.023567;89.9;-0.0;0.2;1.2;-0.0;-0.0
3.0;1753875186.17637;16.011353;0.21;-1.64;-0.86;0.906702;-0.355829;0.007267;90.1;0.0;-0.0;0.9;0.0;-0.0
3.0;1753875186.1811;16.013386;0.74;-1.3;1.54;0.953219;-0.327695;0.006539;87.1;-0.0;-0.1;1.1;-0.0;0.0
3.0;1753875186.18583;16.011438;0.78;-1.49;-1.15;0.936293;-0.386751;0.018551;90.7;0.0;0.1;0.8;-0.0;-0.0
3.0;1753875186.19056;16.009644;0.96;-1.83;-0.28;0.92502;-0.359306;0.008052;87.5;-0.0;-0.0;1.3;-0.0;0.0
3.0;1753875186.19529;16.009878;0.18;-1.7;-1.77;0.974041;-0.341218;0.012049;89.6;0.0;-0.2;1.2;0.0;0.0
3.0;1753875186.20002;16.009999;0.37;-2.1;-0.62;0.94583;-0.344113;0.00155;89.5;0.0;0.3;0.9;-0.0;0.0
3.0;1753875186.20475;16.008586;0.6;-1.67;1.41;0.929496;-0.351092;0.03423;89.5;0.0;0.0;0.8;0.0;0.0
3.0;1753875186.20948;16.009059;0.31;-1.74;0.62;0.959275;-0.352205;0.01435;89.4;0.0;-0.2;0.9;0.0;-0.0
3.0;1753875186.215;16.007812;0.7;-1.4;-0.28;0.942938;-0.34465;0.01403;90.0;0.0;0.0;1.0;0.0;0.0
3.0;1753875186.21973;16.00922;0.6;-1.34;-4.07;0.918318;-0.326505;0.010643;91.2;-0.0;-0.0;1.1;-0.0;0.0
3.0;1753875186.22446;16.008737;0.74;-1.78;1.04;0.952295;-0.370973;0.015802;92.6;0.0;0.0;1.1;-0.0;0.0
3.0;1753875186.22919;16.006127;1.01;-0.93;1.18;0.96999;-0.372689;0.007536;91.9;0.0;-0.1;1.0;0.0;0.0
3.0;1753875186.23392;16.007775;0.89;-1.2;-0.86;0.927123;-0.354989;0.013755;89.1;-0.0;-0.2;0.6;0.0;-0.0
3.0;1753875186.23865;16.011041;1.24;-1.2;2.27;0.927302;-0.37526;0.026122;91.2;-0.0;0.1;1.0;-0.0;0.0
3.0;1753875186.24338;16.010544;1.43;-2.03;1.09;0.952776;-0.310934;0.008298;90.5;0.0;0.0;0.6;0.0;0.0
3.0;1753875186.24811;16.008294;0.72;-1.62;0.44;0.94033;-0.353639;0.000841;90.3;-0.0;0.2;0.8;-0.0;-0.0
3.0;1753875186.25284;16.007074;1.07;-1.28;-0.49;0.96291;-0.321673;0.021603;88.1;0.0;0.1;1.1;-0.0;-0.0
3.0;1753875186.25757;16.009672;0.91;-1.76;-1.29;0.904527;-0.352814;0.015688;89.5;0.0;0.3;0.7;-0.0;0.0
3.0;1753875186.2623;16.009055;0.41;-1.13;-1.93;0.989206;-0.293696;0.018226;90.3;0.0;-0.0;1.1;-0.0;-0.0
3.0;1753875186.26703;16.006688;0.67;-0.54;-0.12;0.970702;-0.332336;-0.001147;91.6;-0.0;-0.0;0.8;-0.0;0.0
3.0;1753875186.27176;16.008126;0.47;-1.21;-0.73;0.924278;-0.371027;0.016585;89.6;0.0;-0.1;0.9;0.0;0.0
3.0;1753875186.27649;16.00758;1.0;-1.29;1.32;0.953863;-0.364442;0.025446;91.4;0.0;-0.1;1.2;0.0;0.0
3.0;1753875186.28122;16.008708;0.86;-1.27;0.9;0.9358;-0.355187;0.014652;88.4;0.0;-0.0;1.0;0.0;0.0
3.0;1753875186.28595;16.009063;0.39;-1.49;-1.15;0.947093;-0.32833;0.012835;88.3;0.0;0.5;1.0;-0.0;0.0
3.0;1753875186.29068;16.009198;0.67;-1.93;-0.67;0.943111;-0.312539;0.032234;89.0;-0.0;-0.1;0.6;0.0;-0.0
3.0;1753875186.29541;16.007601;1.1;-0.96;-1.05;0.902234;-0.332446;0.008658;88.8;-0.0;-0.2;1.0;0.0;-0.0
3.0;1753875186.30014;16.007233;0.65;-1.5;-0.71;0.995907;-0.344238;0.009549;87.4;-0.0;0.0;0.7;-0.0;0.0
3.0;1753875186.30487;16.009819;1.28;-1.3;-2.04;0.944712;-0.309885;0.02887;89.3;0.0;-0.1;0.5;-0.0;-0.0
3.0;1753875186.3096;16.006016;0.23;-1.07;1.09;0.951361;-0.370342;0.009992;92.4;0.0;0.2;1.1;0.0;-0.0
3.0;1753875186.31433;16.008974;0.83;-1.06;-2.16;0.951601;-0.330016;0.015802;90.3;-0.0;0.3;1.0;0.0;-0.0
3.0;1753875186.31906;16.006864;1.0;-1.71;1.11;0.977663;-0.322813;0.013595;88.5;-0.0;-0.3;0.7;-0.0;0.0
3.0;1753875186.32379;16.008817;1.37;-1.47;-1.01;0.906819;-0.35781;0.019261;87.2;-0.0;-0.1;0.9;0.0;0.0
3.0;1753875186.32852;16.007638;0.7;-1.53;-0.22;0.957829;-0.322553;0.0192;92.3;-0.0;-0.1;0.9;0.0;0.0
3.0;1753875186.33325;16.010824;0.7;-1.42;-0.46;0.956045;-0.351471;0.016011;90.2;-0.0;-0.2;0.5;0.0;-0.0
3.0;1753875186.33798;16.005293;1.14;-1.36;-0.37;0.91091;-0.374437;0.029233;90.7;-0.0;0.1;1.1;0.0;-0.0
3.0;1753875186.34271;16.00618;1.06;-1.58;-0.44;0.919683;-0.343814;0.024692;90.6;0.0;-0.0;0.9;-0.0;0.0
3.0;1753875186.34744;16.005768;0.73;-1.51;-2.34;0.961624;-0.350694;0.010295;88.4;-0.0;0.1;1.0;0.0;0.0
3.0;1753875186.35217;16.006572;0.58;-1.5;1.17;0.931713;-0.354159;0.033004;90.9;0.0;-0.1;0.8;-0.0;0.0
3.0;1753875186.3569;16.00953;0.96;-1.42;1.2;0.936416;-0.325219;0.013419;92.4;0.0;-0.1;0.9;0.0;-0.0
3.0;1753875186.36163;16.006106;0.69;-1.47;-1.08;0.983679;-0.356701;0.0107;92.9;0.0;-0.0;0.8;-0.0;-0.0
3.0;1753875186.36636;16.008264;0.55;-1.09;1.03;0.903778;-0.329795;0.010171;90.7;0.0;-0.2;1.4;-0.0;0.0
3.0;1753875186.37109;16.009578;0.47;-0.53;-0.23;0.953567;-0.340354;0.013461;91.1;0.0;0.0;1.1;0.0;0.0
3.0;1753875186.37582;16.008204;0.41;-1.03;1.12;0.923417;-0.388961;0.016786;88.8;0.0;-0.0;1.0;0.0;0.0
3.0;1753875186.38055;16.010531;0.45;-1.39;-0.23;0.904634;-0.31905;0.020756;89.3;-0.0;-0.3;0.9;0.0;-0.0
3.0;1753875186.38528;16.00646;0.97;-1.62;-1.01;0.957815;-0.339818;0.013577;90.9;0.0;0.1;1.0;-0.0;-0.0
3.0;1753875186.39001;16.008655;0.46;-1.09;0.65;0.972474;-0.306222;0.013919;89.0;0.0;0.1;1.2;0.0;0.0
3.0;1753875186.39474;16.007901;0.74;-1.48;-1.41;0.873028;-0.384598;0.017608;91.3;-0.0;0.0;0.7;-0.0;0.0
3.0;1753875186.39947;16.008445;0.78;-1.77;-1.26;0.950974;-0.291645;-0.001512;89.4;0.0;-0.1;1.4;-0.0;0.0
3.0;1753875186.404199;16.008589;0.41;-1.96;1.04;0.874882;-0.350022;0.009772;87.6;-0.0;-0.2;0.9;-0.0;0.0
3.0;1753875186.408929;16.010739;1.05;-0.89;-2.33;0.945368;-0.31787;0.023686;91.3;0.0;0.3;0.9;0.0;-0.0
3.0;1753875186.413659;16.005187;1.19;-1.75;-1.32;0.929686;-0.356237;0.012106;90.4;-0.0;0.1;0.8;-0.0;0.0
3.0;1753875186.418389;16.008625;0.81;-1.3;1.34;0.929761;-0.372398;0.009937;91.3;0.0;-0.0;1.0;-0.0;-0.0
3.0;1753875186.423119;16.009144;0.76;-1.23;0.2;0.966119;-0.334085;0.011962;90.4;0.0;0.4;0.6;-0.0;0.0
3.0;1753875186.427849;16.009792;0.82;-1.49;-0.28;0.928178;-0.327201;0.002157;90.6;0.0;0.1;1.1;0.0;-0.0
3.0;1753875186.432579;16.009983;0.98;-1.57;0.32;0.953439;-0.378636;0.006345;91.9;-0.0;0.0;0.9;0.0;0.0
3.0;1753875186.437309;16.005422;0.61;-1.13;-2.7;0.91591;-0.315619;0.004146;89.8;0.0;-0.3;1.0;0.0;-0.0
3.0;1753875186.442039;16.009727;0.44;-1.3;-1.32;0.928891;-0.342342;0.013217;88.9;-0.0;-0.0;1.1;0.0;-0.0
3.0;1753875186.446769;16.009308;0.33;-0.85;-1.0;0.919647;-0.381857;0.009853;90.3;0.0;-0.1;1.0;-0.0;-0.0
3.0;1753875186.451499;16.008853;0.27;-1.2;-0.45;0.938692;-0.330367;-0.002321;89.9;-0.0;-0.1;0.9;-0.0;-0.0
3.0;1753875186.456229;16.008775;0.57;-1.17;0.47;0.900759;-0.366707;0.00672;89.7;0.0;0.2;0.9;-0.0;0.0
3.0;1753875186.460959;16.008404;1.07;-1.6;-1.21;0.903055;-0.377844;0.014085;91.2;-0.0;-0.2;1.0;0.0;0.0
3.0;1753875186.465689;16.009279;0.29;-1.69;-1.56;0.93466;-0.353678;0.019294;86.7;0.0;0.0;1.0;-0.0;0.0
3.0;1753875186.470419;16.007716;0.7;-1.15;0.88;0.929496;-0.337206;0.010929;90.3;-0.0;-0.1;1.2;0.0;-0.0
3.0;1753875186.475149;16.00836;0.14;-0.88;-1.41;0.925636;-0.35895;0.021579;91.0;-0.0;-0.1;1.2;-0.0;0.0
3.0;1753875186.479879;16.009119;0.69;-1.2;-0.69;0.968012;-0.314911;0.022536;89.0;0.1;-0.1;0.9;-0.0;-0.0
3.0;1753875186.484609;16.009076;0.98;-1.62;0.44;0.941525;-0.289063;0.010602;91.3;0.0;0.0;0.9;-0.0;0.0
3.0;1753875186.489339;16.007704;1.09;-1.3;-1.98;0.932549;-0.300367;0.019812;88.7;-0.0;-0.1;0.6;0.0;-0.0
3.0;1753875186.494069;16.010484;0.19;-1.44;-1.34;0.990527;-0.344475;0.001426;90.5;0.0;0.1;0.9;0.0;-0.0
3.0;1753875186.498799;16.008902;1.16;-1.34;-0.31;0.946179;-0.294075;0.018678;88.5;-0.0;0.1;1.2;-0.0;-0.0
3.0;1753875186.503529;16.009689;1.08;-1.1;-2.04;0.931653;-0.361811;0.021364;91.5;-0.0;0.3;0.9;-0.0;-0.0
3.0;1753875186.508259;16.007482;0.57;-1.48;-2.38;0.910058;-0.347188;0.019859;90.5;0.0;0.1;1.2;0.0;0.0
3.0;1753875186.512989;16.009697;0.8;-1.65;0.9;0.933244;-0.375877;0.01028;89.3;-0.0;-0.3;1.2;-0.0;-0.0
3.0;1753875186.517719;16.00783;1.1;-1.49;0.14;0.95801;-0.372313;0.021783;90.8;0.0;0.2;0.8;0.0;-0.0
3.0;1753875186.522449;16.00875;0.65;-1.31;-0.65;0.907952;-0.338446;0.012368;90.2;-0.0;0.1;0.9;0.0;0.0
3.0;1753875186.527179;16.004645;0.22;-1.29;0.38;0.935464;-0.296058;0.01687;89.7;0.0;0.3;0.9;-0.0;0.0
3.0;1753875186.531909;16.00676;0.84;-1.27;0.01;0.923606;-0.32053;0.011209;90.5;-0.0;0.3;1.0;-0.0;0.0
3.0;1753875186.536639;16.006035;0.82;-1.48;1.06;0.907349;-0.33699;0.01943;89.4;0.0;0.1;0.8;0.0;0.0
3.0;1753875186.541369;16.008923;0.83;-1.43;0.78;0.951396;-0.296729;0.01861;91.8;-0.0;0.2;1.3;0.0;-0.0
3.0;1753875186.546099;16.011072;0.27;-0.7;-0.47;0.922685;-0.364136;0.033327;87.0;0.0;-0.2;1.3;0.0;-0.0
3.0;1753875186.550829;16.005172;1.19;-1.42;0.9;0.936882;-0.36151;0.021703;90.0;-0.0;-0.1;0.9;0.0;0.0
3.0;1753875186.555559;16.006223;0.59;-1.64;-1.83;0.930829;-0.370384;0.001892;89.5;0.0;-0.2;1.2;0.0;0.0
3.0;1753875186.560289;16.010166;0.63;-1.41;-2.15;0.970775;-0.376695;0.020628;88.5;-0.0;-0.3;1.2;-0.0;0.0
3.0;1753875186.565019;16.009259;1.01;-1.24;1.28;0.953395;-0.356793;0.023125;89.8;0.0;-0.0;1.0;-0.0;0.0
3.0;1753875186.569749;16.005264;0.83;-1.53;-0.6;0.936134;-0.310306;0.009879;87.5;-0.0;0.2;0.9;0.0;0.0
3.0;1753875186.574479;16.009151;0.84;-1.41;-1.26;0.917132;-0.358695;0.015316;88.0;0.0;-0.1;1.2;-0.0;-0.0
3.0;1753875186.579209;16.007003;0.39;-0.79;1.37;0.969817;-0.320104;0.010146;91.3;-0.0;0.1;1.1;-0.0;-0.0
3.0;1753875186.583939;16.008064;-0.13;-1.25;-0.09;0.894036;-0.337085;0.009007;90.4;0.0;-0.1;0.9;0.0;0.0
3.0;1753875186.588669;16.007811;0.44;-1.45;0.25;0.92754;-0.320052;0.002706;89.7;0.0;0.0;1.4;0.0;0.0
3.0;1753875186.593399;16.003412;0.41;-1.56;1.64;0.914336;-0.322007;0.013514;91.9;-0.0;0.2;1.0;0.0;0.0
3.0;1753875186.598129;16.005081;0.83;-1.1;-0.97;0.94093;-0.314321;0.019418;90.0;-0.0;0.1;1.1;-0.0;0.0
3.0;1753875186.602859;16.00536;1.08;-1.24;0.8;0.973657;-0.351775;0.00401;89.2;-0.0;0.2;1.1;-0.0;0.0
3.0;1753875186.607589;16.008293;0.19;-1.33;0.75;0.905476;-0.339827;0.011066;89.7;-0.0;0.0;1.3;-0.0;0.0
3.0;1753875186.612319;16.012487;1.14;-1.08;1.08;0.943349;-0.35258;0.000348;92.3;0.0;-0.0;0.7;0.0;-0.0
3.0;1753875186.617049;16.005035;0.91;-1.73;1.25;0.96726;-0.336315;0.015485;89.4;-0.0;-0.2;0.9;-0.0;-0.0
3.0;1753875186.621779;16.00885;0.88;-1.24;0.96;0.959944;-0.377592;0.016404;87.7;0.0;0.0;0.8;0.0;0.0
3.0;1753875186.626509;16.003458;0.27;-1.22;-1.53;0.933857;-0.326325;0.004774;91.3;0.0;-0.1;1.1;-0.0;-0.0
3.0;1753875186.631239;16.00563;0.74;-1.76;-1.48;0.956957;-0.375136;0.015451;91.8;0.0;0.2;0.9;0.0;-0.0
3.0;1753875186.635969;16.005928;0.98;-1.21;-0.66;0.951121;-0.395503;-0.005019;86.8;-0.0;-0.1;0.9;0.0;-0.0
3.0;1753875186.640699;16.008641;0.47;-0.91;0.87;0.979809;-0.315842;0.017888;90.1;0.0;0.1;1.0;0.0;0.0
3.0;1753875186.645429;16.008942;0.73;-1.67;-0.26;0.935899;-0.310312;0.004232;91.9;-0.0;0.1;0.8;0.0;-0.0
3.0;1753875186.650159;16.007524;0.2;-1.47;-2.41;0.911702;-0.353249;0.001269;89.2;0.0;0.2;1.2;-0.0;-0.0
3.0;1753875186.654889;16.008239;0.35;-1.47;-1.35;1.013526;-0.322215;0.014415;88.7;-0.0;-0.2;1.0;0.0;0.0
3.0;1753875186.659618;16.008106;0.33;-1.22;0.76;0.94569;-0.347353;0.006132;91.4;0.0;0.1;1.2;-0.0;-0.0
3.0;1753875186.664348;16.009521;0.84;-1.32;-1.17;0.965876;-0.343303;0.011697;88.6;-0.0;0.0;0.7;0.0;-0.0
3.0;1753875186.669078;16.011393;0.84;-1.65;2.25;0.955016;-0.345546;0.024331;88.0;-0.0;-0.0;1.0;0.0;-0.0
3.0;1753875186.673808;16.010188;0.79;-1.71;1.26;0.956712;-0.401171;0.01203;92.0;0.0;-0.1;0.8;-0.0;-0.0
3.0;1753875186.678538;16.003962;0.09;-1.74;-0.8;0.934174;-0.333386;0.013258;89.6;-0.0;-0.0;0.8;-0.0;-0.0
3.0;1753875186.683268;16.010486;0.6;-1.42;-1.45;0.961903;-0.345647;0.003332;88.1;0.0;-0.2;1.4;0.0;0.0
3.0;1753875186.687998;16.00579;0.87;-1.76;0.31;0.964395;-0.324534;0.004863;91.6;-0.0;-0.2;1.0;0.0;-0.0
3.0;1753875186.692728;16.009347;1.0;-1.13;-1.53;0.872788;-0.340726;0.025824;88.2;0.0;-0.2;0.7;-0.0;-0.0
3.0;1753875186.697458;16.007821;0.51;-1.25;0.83;0.973108;-0.313715;0.018092;87.6;-0.0;0.1;1.2;0.0;0.0
3.0;1753875186.702188;16.009666;0.46;-1.62;1.33;0.945231;-0.35563;0.010853;88.9;0.0;0.1;1.2;-0.0;0.0
3.0;1753875186.706918;16.009564;0.73;-1.12;0.39;0.924405;-0.301509;0.021127;91.6;0.0;-0.3;0.7;-0.0;0.0
3.0;1753875186.711648;16.009177;0.46;-1.52;-0.52;0.923404;-0.403709;0.013176;90.7;-0.0;-0.1;1.0;0.0;0.0
3.0;1753875186.716378;16.007433;0.64;-2.0;2.71;0.938618;-0.368833;0.008026;89.3;0.0;-0.0;1.1;-0.0;0.0
3.0;1753875186.721108;16.007175;0.63;-1.64;1.37;0.985785;-0.33265;0.025602;90.3;-0.0;0.0;0.9;-0.0;-0.0
3.0;1753875186.725838;16.006937;0.5;-1.65;-1.61;0.976161;-0.357803;0.004715;90.6;-0.0;-0.2;0.9;0.0;-0.0
3.0;1753875186.730568;16.007238;0.34;-1.44;-0.59;0.969125;-0.349327;0.006091;90.9;-0.0;-0.1;0.6;0.0;0.0
3.0;1753875186.735298;16.01154;0.88;-1.57;-1.92;0.979217;-0.344199;0.003409;90.8;0.0;-0.0;0.9;0.0;0.0
3.0;1753875186.740028;16.008521;0.44;-0.86;0.24;0.964757;-0.346075;0.022578;90.5;0.0;0.2;1.1;0.0;-0.0
3.0;1753875186.744758;16.007745;-0.05;-1.61;0.03;0.948698;-0.328977;0.008422;89.1;-0.0;0.3;1.3;0.0;-0.0
3.0;1753875186.749488;16.008081;1.25;-1.41;1.53;0.950905;-0.358946;0.030943;90.2;0.0;-0.0;1.0;-0.0;-0.0
3.0;1753875186.754218;16.006485;0.41;-1.73;0.25;0.924447;-0.346259;0.013282;90.3;0.0;-0.1;1.1;-0.0;0.0
3.0;1753875186.758948;16.007531;0.55;-1.36;-0.5;0.922193;-0.333903;0.000471;90.2;-0.0;0.0;1.0;0.0;-0.0
3.0;1753875186.763678;16.008196;0.97;-1.2;-1.6;0.93493;-0.367664;0.028965;91.1;-0.0;0.1;1.1;0.0;-0.0
3.0;1753875186.768408;16.009934;1.12;-1.1;-1.72;0.959379;-0.349723;0.014646;89.7;-0.0;0.1;1.0;0.0;-0.0
3.0;1753875186.773138;16.006753;0.51;-1.34;1.24;0.911347;-0.388325;0.018809;90.7;0.0;-0.0;0.8;-0.0;0.0
3.0;1753875186.777868;16.006842;0.43;-0.55;0.25;0.962067;-0.287893;0.006687;90.6;0.0;0.0;0.8;-0.0;-0.0
3.0;1753875186.7847;16.007812;0.63;-1.4;-0.21;0.940742;-0.343186;0.01403;90.0;0.0;0.0;1.0;0.0;0.0
3.0;1753875186.78943;15.991478;0.66;-1.4;-0.23;0.940868;-0.344018;0.013288;90.0;0.0;0.0;1.0;0.0;0.0
3.0;1753875186.79416;15.992087;0.72;-1.41;-0.27;0.941948;-0.345427;0.015526;91.0;0.0;0.0;1.0;0.0;0.0
3.0;1753875186.79889;16.028112;0.69;-1.35;-0.14;0.941787;-0.346276;0.015647;90.3;0.0;0.0;1.0;0.0;0.0
3.0;1753875186.80362;16.010645;0.68;-1.33;-0.12;0.93991;-0.345266;0.015882;91.7;0.0;0.0;1.0;0.0;0.0
3.0;1753875186.80835;16.006112;0.77;-1.38;-0.23;0.941589;-0.344904;0.014761;91.0;0.0;0.0;1.0;0.0;0.0
3.0;1753875186.81295;16.011719;0.77;-1.33;-0.21;0.940498;-0.346358;0.015616;92.0;0.0;0.0;1.0;0.0;0.0
3.0;1753875186.81695;16.011719;0.91;-1.4;-0.28;0.942328;-0.343918;0.013542;92.0;0.0;0.0;1.0;0.0;0.0
3.0;1753875186.82168;16.006933;1.04;-1.42;-0.26;0.94265;-0.343334;0.013873;92.1;0.0;0.0;1.0;0.0;0.0
3.0;1753875186.82641;15.9951;1.01;-1.38;-0.32;0.941518;-0.345265;0.013437;92.8;0.0;0.0;1.0;0.0;0.0
3.0;1753875186.83114;16.030192;0.79;-1.38;-0.26;0.941711;-0.342855;0.013289;92.5;0.0;0.0;1.0;0.0;0.0
3.0;1753875186.83587;16.044098;1.01;-1.32;-0.19;0.942895;-0.344146;0.014223;94.2;0.0;0.0;1.0;0.0;0.0
3.0;1753875186.8406;16.005876;0.85;-1.34;-0.26;0.940603;-0.3431;0.01385;91.4;0.0;0.0;1.0;0.0;0.0
3.0;1753875186.84533;16.04221;0.9;-1.36;-0.31;0.942308;-0.343917;0.014049;90.5;0.0;0.0;1.0;0.0;0.0
3.0;1753875186.85006;16.046133;0.79;-1.34;-0.15;0.940382;-0.34341;0.014546;92.2;0.0;0.0;1.0;0.0;0.0
3.0;1753875186.85479;15.989848;0.96;-1.37;-0.3;0.941702;-0.344072;0.014686;92.0;0.0;0.0;1.0;0.0;0.0
3.0;1753875186.85952;16.042;0.74;-1.36;-0.22;0.941241;-0.346245;0.014093;92.1;0.0;0.0;1.0;0.0;0.0
3.0;1753875186.86494;16.011719;0.77;-1.33;-0.21;0.940986;-0.34465;0.014152;92.0;0.0;0.0;1.0;0.0;0.0
3.0;1753875186.867863;15.976562;0.77;-1.26;-0.14;0.942206;-0.342454;0.01525;92.0;0.0;0.0;1.0;0.0;0.0
3.0;1753875186.87253;15.976562;0.7;-1.26;-0.14;0.940986;-0.343186;0.014274;92.0;0.0;0.0;1.0;0.0;0.0
3.0;1753875186.88151;15.976562;0.7;-1.26;-0.28;0.941718;-0.343796;0.015128;92.0;0.0;0.0;1.0;0.0;0.0
3.0;1753875186.888272;15.984375;0.77;-1.33;-0.21;0.942084;-0.34282;0.013786;90.0;0.0;0.0;1.0;0.0;0.0
3.0;1753875186.891248;15.984375;0.7;-1.33;-0.21;0.941596;-0.342576;0.013908;90.0;0.0;0.0;1.0;0.0;0.0
3.0;1753875186.895936;15.984375;0.77;-1.26;-0.21;0.941962;-0.34343;0.01464;90.0;0.0;0.0;1.0;0.0;0.0
3.0;1753875186.900609;15.992188;0.7;-1.33;-0.21;0.942572;-0.343064;0.015494;90.0;0.0;0.0;1.0;0.0;0.0
3.0;1753875186.90909;15.992188;0.77;-1.33;-0.28;0.940986;-0.343552;0.014396;90.0;0.0;0.0;1.0;0.0;0.0
3.0;1753875186.909921;15.992188;0.77;-1.26;-0.21;0.942328;-0.344162;0.014518;90.0;0.0;0.0;1.0;0.0;0.0
3.0;1753875186.914655;15.992188;0.77;-1.26;-0.21;0.942206;-0.344284;0.014396;90.0;0.0;0.0;1.0;0.0;0.0
3.0;1753875186.920244;15.976562;0.77;-1.33;-0.21;0.942084;-0.343064;0.012444;90.0;0.0;0.0;1.0;0.0;0.0
3.0;1753875186.924017;15.976562;0.7;-1.33;-0.21;0.940864;-0.343674;0.014518;90.0;0.0;0.0;1.0;0.0;0.0
3.0;1753875186.930831;15.976562;0.7;-1.26;-0.14;0.942206;-0.344406;0.012932;90.0;0.0;0.0;1.0;0.0;0.0
3.0;1753875186.936309;15.976562;0.77;-1.4;-0.14;0.942206;-0.344772;0.014152;93.0;0.0;0.0;1.0;0.0;0.0
3.0;1753875186.938009;15.976562;0.77;-1.19;-0.21;0.941596;-0.343186;0.014884;93.0;0.0;0.0;1.0;0.0;0.0
3.0;1753875186.94275;15.976562;0.77;-1.26;-0.14;0.940986;-0.344772;0.01403;93.0;0.0;0.0;1.0;0.0;0.0
3.0;1753875186.948544;15.976562;0.7;-1.33;-0.21;0.942938;-0.343064;0.014518;93.0;0.0;0.0;1.0;0.0;0.0
3.0;1753875186.952053;15.976562;0.7;-1.33;-0.21;0.941474;-0.344162;0.014152;93.0;0.0;0.0;1.0;0.0;0.0
3.0;1753875186.959659;15.976562;0.77;-1.33;-0.14;0.942206;-0.343796;0.015372;93.0;0.0;0.0;1.0;0.0;0.0
3.0;1753875186.961866;15.976562;0.7;-1.33;-0.07;0.941596;-0.344406;0.01342;93.0;0.0;0.0;1.0;0.0;0.0
3.0;1753875186.966488;15.976562;0.7;-1.33;-0.28;0.94184;-0.34465;0.015006;93.0;0.0;0.0;1.0;0.0;0.0
3.0;1753875186.971571;15.976562;0.63;-1.33;-0.21;0.94184;-0.343918;0.013664;93.0;0.0;0.0;1.0;0.0;0.0
3.0;1753875186.977505;15.992188;0.7;-1.26;-0.21;0.941596;-0.344284;0.015128;93.0;0.0;0.0;1.0;0.0;0.0
3.0;1753875186.984195;15.992188;0.77;-1.33;-0.21;0.941596;-0.342454;0.014152;90.0;0.0;0.0;1.0;0.0;0.0
3.0;1753875186.984787;15.992188;0.63;-1.26;-0.21;0.94184;-0.343552;0.013786;90.0;0.0;0.0;1.0;0.0;0.0
3.0;1753875186.991055;15.992188;0.7;-1.26;-0.21;0.942084;-0.34404;0.014884;90.0;0.0;0.0;1.0;0.0;0.0
3.0;1753875186.994155;15.992188;0.7;-1.4;-0.14;0.940498;-0.34465;0.01281;90.0;0.0;0.0;1.0;0.0;0.0
3.0;1753875186.998882;15.992188;0.77;-1.26;-0.21;0.941596;-0.34404;0.014518;90.0;0.0;0.0;1.0;0.0;0.0
3.0;1753875187.003612;15.997494;0.86;-1.3;-0.25;0.941238;-0.343767;0.016775;91.1;0.0;0.0;1.0;0.0;0.0
3.0;1753875187.008342;15.988207;0.72;-1.3;-0.26;0.940768;-0.343824;0.014373;87.8;0.0;0.0;1.0;0.0;0.0
3.0;1753875187.013072;15.987158;0.74;-1.26;-0.13;0.941003;-0.344132;0.01452;89.9;0.0;0.0;1.0;0.0;0.0
3.0;1753875187.017802;15.998871;0.82;-1.32;-0.27;0.940546;-0.344766;0.014752;90.0;0.0;0.0;1.0;0.0;0.0
3.0;1753875187.022532;16.003031;0.79;-1.29;-0.23;0.941633;-0.34393;0.015303;89.0;0.0;0.0;1.0;0.0;0.0
3.0;1753875187.027262;15.990874;0.77;-1.29;-0.16;0.941097;-0.343847;0.014565;89.1;0.0;0.0;1.0;0.0;0.0
3.0;1753875187.031992;15.981168;0.71;-1.33;-0.27;0.941562;-0.344527;0.013141;90.8;0.0;0.0;1.0;0.0;0.0
3.0;1753875187.036722;15.978406;0.81;-1.22;-0.22;0.940736;-0.34383;0.013795;90.5;0.0;0.0;1.0;0.0;0.0
3.0;1753875187.041452;15.988866;0.74;-1.35;-0.27;0.941114;-0.344957;0.014189;87.5;0.0;0.0;1.0;0.0;0.0
3.0;1753875187.046182;15.988958;0.76;-1.34;-0.24;0.942072;-0.343433;0.014471;90.6;0.0;0.0;1.0;0.0;0.0
3.0;1753875187.050912;16.002987;0.79;-1.25;-0.28;0.940055;-0.344208;0.015756;87.6;0.0;0.0;1.0;0.0;0.0
3.0;1753875187.055642;15.977956;0.87;-1.3;-0.21;0.941278;-0.345226;0.013901;87.6;0.0;0.0;1.0;0.0;0.0
3.0;1753875187.060372;15.996182;0.83;-1.23;-0.21;0.941469;-0.34397;0.014803;91.8;0.0;0.0;1.0;0.0;0.0
3.0;1753875187.065102;15.982367;0.74;-1.34;-0.23;0.942315;-0.344502;0.01502;91.7;0.0;0.0;1.0;0.0;0.0
3.0;1753875187.069832;15.986955;0.76;-1.29;-0.25;0.94038;-0.345398;0.015719;89.8;0.0;0.0;1.0;0.0;0.0
3.0;1753875187.074562;15.98564;0.7;-1.22;-0.2;0.941539;-0.343994;0.014883;88.4;0.0;0.0;1.0;0.0;0.0
3.0;1753875187.079292;15.986713;0.79;-1.27;-0.13;0.940643;-0.344005;0.014972;90.2;0.0;0.0;1.0;0.0;0.0
3.0;1753875187.084022;16.002189;0.77;-1.31;-0.21;0.940604;-0.343945;0.014644;89.9;0.0;0.0;1.0;0.0;0.0
3.0;1753875187.088752;15.996557;0.65;-1.3;-0.24;0.941463;-0.344072;0.016034;88.2;0.0;0.0;1.0;0.0;0.0
3.0;1753875187.093482;16.003748;0.81;-1.28;-0.22;0.941158;-0.343846;0.015264;91.1;0.0;0.0;1.0;0.0;0.0
3.0;1753875187.098212;15.975641;0.74;-1.2;-0.17;0.94269;-0.344085;0.015031;90.3;0.0;0.0;1.0;0.0;0.0
3.0;1753875187.102942;15.990112;0.77;-1.27;-0.16;0.941375;-0.344001;0.013355;94.7;0.0;0.0;1.0;0.0;0.0
3.0;1753875187.107672;15.979249;0.77;-1.37;-0.19;0.940622;-0.343129;0.013962;89.9;0.0;0.0;1.0;0.0;0.0
3.0;1753875187.112402;15.998688;0.82;-1.22;-0.17;0.94125;-0.343506;0.014975;90.9;0.0;0.0;1.0;0.0;0.0
3.0;1753875187.117132;15.975341;0.7;-1.24;-0.19;0.940803;-0.343155;0.012685;91.2;0.0;0.0;1.0;0.0;0.0
3.0;1753875187.121862;15.999884;0.72;-1.29;-0.1;0.941486;-0.343328;0.014919;96.1;0.0;0.0;1.0;0.0;0.0
3.0;1753875187.126592;15.990417;0.79;-1.31;-0.23;0.941057;-0.343325;0.013901;88.8;0.0;0.0;1.0;0.0;0.0
3.0;1753875187.131322;15.986486;0.85;-1.28;-0.16;0.941042;-0.343302;0.014801;91.6;0.0;0.0;1.0;0.0;0.0
3.0;1753875187.136052;16.002804;0.67;-1.12;-0.21;0.941568;-0.342631;0.015738;92.2;0.0;0.0;1.0;0.0;0.0
3.0;1753875187.140782;15.994506;0.82;-1.18;-0.14;0.941653;-0.34384;0.012866;88.6;0.0;0.0;1.0;0.0;0.0
3.0;1753875187.145512;15.99089;0.75;-1.33;-0.18;0.940334;-0.343246;0.014501;90.1;0.0;0.0;1.0;0.0;0.0
3.0;1753875187.150242;15.976841;0.76;-1.27;-0.19;0.940344;-0.344367;0.013941;90.4;0.0;0.0;1.0;0.0;0.0
3.0;1753875187.154972;15.992542;0.77;-1.32;-0.18;0.941278;-0.344907;0.014621;91.3;0.0;0.0;1.0;0.0;0.0
3.0;1753875187.159702;15.990901;0.81;-1.29;-0.22;0.940474;-0.343436;0.017286;89.3;0.0;0.0;1.0;0.0;0.0
3.0;1753875187.164432;15.991182;0.8;-1.24;-0.06;0.940914;-0.344961;0.015021;90.2;0.0;0.0;1.0;0.0;0.0
3.0;1753875187.169162;15.990736;0.84;-1.25;-0.25;0.940726;-0.342728;0.014657;89.2;0.0;0.0;1.0;0.0;0.0
3.0;1753875187.173892;16.00018;0.82;-1.31;-0.15;0.942156;-0.344395;0.014717;88.3;0.0;0.0;1.0;0.0;0.0
3.0;1753875187.178622;15.997938;0.83;-1.29;-0.2;0.940502;-0.343771;0.013931;88.3;0.0;0.0;1.0;0.0;0.0
3.0;1753875187.183352;15.985658;0.77;-1.32;-0.21;0.940642;-0.344041;0.015467;89.6;0.0;0.0;1.0;0.0;0.0
3.0;1753875187.188082;15.986403;0.67;-1.27;-0.24;0.941089;-0.344759;0.01525;89.6;0.0;0.0;1.0;0.0;0.0
3.0;1753875187.192812;15.9903;0.74;-1.21;-0.21;0.941503;-0.344951;0.014804;89.3;0.0;0.0;1.0;0.0;0.0
3.0;1753875187.197542;15.987565;0.82;-1.33;-0.15;0.940986;-0.343212;0.015373;91.3;0.0;0.0;1.0;0.0;0.0
3.0;1753875187.202272;15.985549;0.68;-1.21;-0.12;0.940354;-0.342742;0.015785;91.1;0.0;0.0;1.0;0.0;0.0
3.0;1753875187.207002;15.999817;0.76;-1.39;-0.23;0.940662;-0.343669;0.013934;90.4;0.0;0.0;1.0;0.0;0.0
3.0;1753875187.211732;15.987227;0.73;-1.3;-0.17;0.941135;-0.343696;0.014733;90.5;0.0;0.0;1.0;0.0;0.0
3.0;1753875187.216462;15.984406;0.79;-1.3;-0.19;0.940909;-0.342725;0.012776;90.0;0.0;0.0;1.0;0.0;0.0
3.0;1753875187.221192;16.003759;0.82;-1.25;-0.16;0.939812;-0.343052;0.014592;90.4;0.0;0.0;1.0;0.0;0.0
3.0;1753875187.225922;15.98125;0.85;-1.19;-0.19;0.941528;-0.345135;0.014734;91.3;0.0;0.0;1.0;0.0;0.0
3.0;1753875187.230652;15.999649;0.89;-1.26;-0.24;0.940831;-0.344965;0.016098;92.3;0.0;0.0;1.0;0.0;0.0
3.0;1753875187.235381;15.994309;0.84;-1.2;-0.2;0.940198;-0.34336;0.013877;87.6;0.0;0.0;1.0;0.0;0.0
3.0;1753875187.240111;15.985135;0.72;-1.21;-0.19;0.941133;-0.343727;0.015568;90.0;0.0;0.0;1.0;0.0;0.0
3.0;1753875187.244841;15.980493;0.83;-1.26;-0.16;0.940795;-0.34377;0.015383;88.4;0.0;0.0;1.0;0.0;0.0
3.0;1753875187.249571;16.009164;0.83;-1.28;-0.22;0.940099;-0.343937;0.014783;90.5;0.0;0.0;1.0;0.0;0.0
3.0;1753875187.254301;15.986738;0.74;-1.28;-0.2;0.940988;-0.343209;0.015344;88.0;0.0;0.0;1.0;0.0;0.0
3.0;1753875187.259031;15.995137;0.78;-1.22;-0.14;0.939479;-0.343828;0.014786;91.1;0.0;0.0;1.0;0.0;0.0
3.0;1753875187.263761;15.989014;0.84;-1.17;-0.15;0.939138;-0.344353;0.015599;90.7;0.0;0.0;1.0;0.0;0.0
3.0;1753875187.268491;15.986366;0.91;-1.23;-0.12;0.941344;-0.344153;0.014865;91.5;0.0;0.0;1.0;0.0;0.0
3.0;1753875187.273221;16.001329;0.86;-1.22;-0.19;0.941028;-0.343151;0.014302;89.6;0.0;0.0;1.0;0.0;0.0
3.0;1753875187.277951;15.991699;0.75;-1.29;-0.16;0.941496;-0.343922;0.014683;89.7;0.0;0.0;1.0;0.0;0.0
3.0;1753875187.282681;15.988665;0.82;-1.25;-0.21;0.940305;-0.343395;0.015043;90.8;0.0;0.0;1.0;0.0;0.0
3.0;1753875187.287411;15.995235;0.75;-1.23;-0.22;0.940784;-0.343817;0.014503;89.1;0.0;0.0;1.0;0.0;0.0
3.0;1753875187.292141;16.003878;0.72;-1.22;-0.23;0.941135;-0.34519;0.014624;92.0;0.0;0.0;1.0;0.0;0.0
3.0;1753875187.296871;15.994849;0.8;-1.29;-0.27;0.940035;-0.343764;0.014301;91.3;0.0;0.0;1.0;0.0;0.0
3.0;1753875187.301601;15.995346;0.84;-1.22;-0.14;0.94098;-0.343553;0.014267;91.5;0.0;0.0;1.0;0.0;0.0
3.0;1753875187.306331;16.008856;0.77;-1.26;-0.16;0.939613;-0.343995;0.01499;88.4;0.0;0.0;1.0;0.0;0.0
3.0;1753875187.311061;15.989003;0.81;-1.3;-0.21;0.940768;-0.344045;0.01528;89.7;0.0;0.0;1.0;0.0;0.0
3.0;1753875187.315791;15.995115;0.75;-1.26;-0.23;0.941348;-0.343826;0.014636;89.3;0.0;0.0;1.0;0.0;0.0
3.0;1753875187.320521;15.997986;0.75;-1.2;-0.16;0.939576;-0.344954;0.014701;90.4;0.0;0.0;1.0;0.0;0.0
3.0;1753875187.325251;15.987722;0.74;-1.3;-0.15;0.93946;-0.344608;0.015224;88.9;0.0;0.0;1.0;0.0;0.0
3.0;1753875187.329981;15.994466;0.78;-1.25;-0.1;0.940595;-0.343854;0.015749;91.7;0.0;0.0;1.0;0.0;0.0
3.0;1753875187.334711;16.001217;0.79;-1.3;-0.18;0.939614;-0.344691;0.016926;89.6;0.0;0.0;1.0;0.0;0.0
3.0;1753875187.339441;16.001305;0.87;-1.22;-0.1;0.941347;-0.343602;0.016227;90.7;0.0;0.0;1.0;0.0;0.0
3.0;1753875187.344171;15.993706;0.85;-1.27;-0.21;0.940228;-0.343382;0.015576;90.6;0.0;0.0;1.0;0.0;0.0
3.0;1753875187.348901;15.978554;0.86;-1.23;-0.07;0.939736;-0.344512;0.015483;90.6;0.0;0.0;1.0;0.0;0.0
3.0;1753875187.353631;15.978581;0.83;-1.26;-0.18;0.939836;-0.344201;0.014609;91.2;0.0;0.0;1.0;0.0;0.0
3.0;1753875187.358361;16.003019;0.79;-1.31;-0.18;0.941306;-0.344214;0.014568;90.3;0.0;0.0;1.0;0.0;0.0
3.0;1753875187.363091;16.006608;0.76;-1.26;-0.14;0.940882;-0.344087;0.016648;87.7;0.0;0.0;1.0;0.0;0.0
3.0;1753875187.367821;15.996154;0.93;-1.23;-0.17;0.94051;-0.344599;0.016317;88.5;0.0;0.0;1.0;0.0;0.0
3.0;1753875187.372551;15.990278;0.8;-1.23;-0.11;0.940243;-0.344816;0.016033;89.7;0.0;0.0;1.0;0.0;0.0
3.0;1753875187.377281;15.997688;0.8;-1.19;-0.11;0.940141;-0.344124;0.015493;92.5;0.0;0.0;1.0;0.0;0.0
3.0;1753875187.382011;15.991816;0.83;-1.21;-0.21;0.94056;-0.343749;0.016799;90.6;0.0;0.0;1.0;0.0;0.0
3.0;1753875187.386741;15.998017;0.86;-1.28;-0.14;0.939928;-0.343365;0.014955;91.1;0.0;0.0;1.0;0.0;0.0
3.0;1753875187.391471;15.994882;0.86;-1.29;-0.16;0.940551;-0.34433;0.014999;88.5;0.0;0.0;1.0;0.0;0.0
3.0;1753875187.396201;16.001698;0.8;-1.21;-0.1;0.94121;-0.343093;0.015573;89.8;0.0;0.0;1.0;0.0;0.0
3.0;1753875187.400931;15.985458;0.92;-1.26;-0.16;0.940218;-0.345407;0.014505;91.1;0.0;0.0;1.0;0.0;0.0
3.0;1753875187.405661;15.997625;0.84;-1.32;-0.17;0.94018;-0.34352;0.014353;90.9;0.0;0.0;1.0;0.0;0.0
3.0;1753875187.410391;15.987158;0.8;-1.28;-0.13;0.940313;-0.343829;0.014011;90.5;0.0;0.0;1.0;0.0;0.0
3.0;1753875187.415121;15.994879;0.79;-1.22;-0.15;0.941051;-0.343717;0.015044;91.0;0.0;0.0;1.0;0.0;0.0
3.0;1753875187.419851;15.998274;0.82;-1.21;-0.17;0.940864;-0.342592;0.015392;89.8;0.0;0.0;1.0;0.0;0.0
3.0;1753875187.424581;16.008144;0.87;-1.2;-0.16;0.940992;-0.344076;0.013963;90.0;0.0;0.0;1.0;0.0;0.0
3.0;1753875187.429311;15.996624;0.86;-1.2;-0.15;0.940278;-0.34461;0.014831;89.2;0.0;0.0;1.0;0.0;0.0
3.0;1753875187.434041;15.999014;0.86;-1.22;-0.1;0.939757;-0.344669;0.014028;90.5;0.0;0.0;1.0;0.0;0.0
3.0;1753875187.438771;15.979409;0.78;-1.28;-0.2;0.939763;-0.343205;0.016281;88.4;0.0;0.0;1.0;0.0;0.0
3.0;1753875187.443501;15.989813;0.88;-1.29;-0.07;0.94035;-0.344936;0.014999;89.3;0.0;0.0;1.0;0.0;0.0
3.0;1753875187.448231;15.979008;0.89;-1.24;-0.17;0.940301;-0.344566;0.016252;89.4;0.0;0.0;1.0;0.0;0.0
3.0;1753875187.452961;15.998227;0.81;-1.24;-0.14;0.940313;-0.344131;0.015221;90.7;0.0;0.0;1.0;0.0;0.0
3.0;1753875187.457691;15.983657;0.85;-1.31;-0.15;0.939691;-0.343938;0.015024;88.9;0.0;0.0;1.0;0.0;0.0
3.0;1753875187.462421;16.004097;0.75;-1.22;-0.14;0.939855;-0.342595;0.013529;91.6;0.0;0.0;1.0;0.0;0.0
3.0;1753875187.467151;15.989633;0.84;-1.2;-0.1;0.939602;-0.344118;0.015551;87.7;0.0;0.0;1.0;0.0;0.0
3.0;1753875187.471881;15.982553;0.87;-1.24;-0.1;0.94008;-0.344749;0.0166;87.0;0.0;0.0;1.0;0.0;0.0
3.0;1753875187.476611;15.990685;0.87;-1.24;-0.15;0.940424;-0.344063;0.015356;92.0;0.0;0.0;1.0;0.0;0.0
3.0;1753875187.481341;15.988104;0.77;-1.29;-0.17;0.941018;-0.343344;0.014971;89.7;0.0;0.0;1.0;0.0;0.0
3.0;1753875187.486071;15.999832;0.79;-1.29;-0.14;0.940547;-0.342953;0.013652;88.2;0.0;0.0;1.0;0.0;0.0
3.0;1753875187.4908;15.979661;0.88;-1.28;-0.14;0.940797;-0.343711;0.016171;89.7;0.0;0.0;1.0;0.0;0.0
3.0;1753875187.49553;15.986212;0.8;-1.27;-0.12;0.940497;-0.343667;0.016673;89.1;0.0;0.0;1.0;0.0;0.0
3.0;1753875187.50026;15.987528;0.87;-1.25;-0.24;0.940054;-0.344029;0.015348;91.3;0.0;0.0;1.0;0.0;0.0
3.0;1753875187.50499;15.996515;0.93;-1.29;-0.12;0.940801;-0.343632;0.014671;91.6;0.0;0.0;1.0;0.0;0.0
3.0;1753875187.50972;15.983785;0.82;-1.28;-0.21;0.940562;-0.343921;0.015422;92.0;0.0;0.0;1.0;0.0;0.0
3.0;1753875187.51445;16.004307;0.91;-1.23;-0.21;0.940064;-0.344052;0.014441;91.5;0.0;0.0;1.0;0.0;0.0
3.0;1753875187.51918;15.998223;0.85;-1.31;-0.16;0.940863;-0.345546;0.014298;91.5;0.0;0.0;1.0;0.0;0.0
3.0;1753875187.52391;15.991928;0.82;-1.25;-0.08;0.939568;-0.344159;0.015022;87.3;0.0;0.0;1.0;0.0;0.0
3.0;1753875187.52864;15.996296;0.81;-1.22;-0.03;0.940101;-0.34357;0.015008;88.6;0.0;0.0;1.0;0.0;0.0
3.0;1753875187.53337;15.992009;0.85;-1.28;-0.15;0.940139;-0.343083;0.015024;88.0;0.0;0.0;1.0;0.0;0.0
3.0;1753875187.5381;15.989232;0.76;-1.19;-0.18;0.94053;-0.343476;0.015158;92.1;0.0;0.0;1.0;0.0;0.0
3.0;1753875187.54283;15.997042;0.84;-1.26;-0.21;0.940286;-0.344201;0.01503;88.2;0.0;0.0;1.0;0.0;0.0
3.0;1753875187.54756;15.984861;0.83;-1.23;-0.23;0.94016;-0.34433;0.015136;87.4;0.0;0.0;1.0;0.0;0.0
3.0;1753875187.55229;15.991231;0.81;-1.27;-0.13;0.940725;-0.343815;0.015054;87.2;0.0;0.0;1.0;0.0;0.0
3.0;1753875187.55702;16.002569;0.84;-1.24;-0.13;0.940977;-0.344194;0.013812;89.4;0.0;0.0;1.0;0.0;0.0
3.0;1753875187.56175;15.98782;0.79;-1.39;-0.03;0.940272;-0.344874;0.014745;90.5;0.0;0.0;1.0;0.0;0.0
3.0;1753875187.56648;15.97775;0.91;-1.31;-0.11;0.940458;-0.34277;0.014898;88.8;0.0;0.0;1.0;0.0;0.0
3.0;1753875187.57121;15.993247;1.0;-1.21;-0.12;0.940012;-0.343443;0.014249;88.5;0.0;0.0;1.0;0.0;0.0
3.0;1753875187.5767;15.992188;0.84;-1.26;-0.14;0.940132;-0.343796;0.015372;90.0;0.0;0.0;1.0;0.0;0.0
3.0;1753875187.58143;15.985452;0.89;-1.4;-0.18;0.940073;-0.344513;0.016176;90.1;0.0;0.0;1.0;0.0;0.0
3.0;1753875187.58616;15.981322;0.84;-1.19;-0.11;0.939861;-0.344293;0.015419;89.6;0.0;0.0;1.0;0.0;0.0
3.0;1753875187.59089;15.983198;0.85;-1.27;-0.19;0.939917;-0.344519;0.015302;89.6;0.0;0.0;1.0;0.0;0.0
3.0;1753875187.59562;16.005861;0.8;-1.29;-0.14;0.939238;-0.343519;0.01654;90.8;0.0;0.0;1.0;0.0;0.0
3.0;1753875187.60035;15.996126;0.78;-1.28;-0.1;0.940489;-0.343841;0.014416;93.0;0.0;0.0;1.0;0.0;0.0
3.0;1753875187.60508;15.997671;0.85;-1.31;-0.14;0.939868;-0.34419;0.016687;91.4;0.0;0.0;1.0;0.0;0.0
3.0;1753875187.60981;16.002496;0.74;-1.25;-0.18;0.939353;-0.344508;0.014623;91.0;0.0;0.0;1.0;0.0;0.0
3.0;1753875187.61454;16.008796;0.88;-1.26;-0.12;0.939441;-0.344475;0.013763;87.6;0.0;0.0;1.0;0.0;0.0
3.0;1753875187.61927;16.009786;0.85;-1.22;-0.24;0.939497;-0.344249;0.014318;87.1;0.0;0.0;1.0;0.0;0.0
3.0;1753875187.624;15.998767;0.8;-1.24;-0.17;0.940833;-0.343328;0.015069;93.4;0.0;0.0;1.0;0.0;0.0
3.0;1753875187.62873;15.98767;0.83;-1.32;-0.11;0.939201;-0.343486;0.015352;88.7;0.0;0.0;1.0;0.0;0.0
3.0;1753875187.63346;16.0014;0.82;-1.27;-0.19;0.94089;-0.344824;0.016896;87.9;0.0;0.0;1.0;0.0;0.0
3.0;1753875187.63819;15.98668;0.88;-1.19;-0.12;0.940506;-0.344095;0.013633;87.1;0.0;0.0;1.0;0.0;0.0
3.0;1753875187.64292;15.996934;0.85;-1.23;-0.15;0.940956;-0.344262;0.015719;89.9;0.0;0.0;1.0;0.0;0.0
3.0;1753875187.64765;16.001377;0.86;-1.3;-0.08;0.940389;-0.343341;0.01527;92.1;0.0;0.0;1.0;0.0;0.0
3.0;1753875187.65238;16.004805;0.93;-1.31;-0.12;0.940368;-0.344626;0.01391;90.6;0.0;0.0;1.0;0.0;0.0
3.0;1753875187.65711;15.990549;0.81;-1.36;-0.22;0.94055;-0.34293;0.013974;89.9;0.0;0.0;1.0;0.0;0.0
3.0;1753875187.66184;16.001549;0.85;-1.25;-0.17;0.941072;-0.343743;0.014717;87.7;0.0;0.0;1.0;0.0;0.0
3.0;1753875187.66657;15.994865;0.8;-1.24;-0.21;0.941037;-0.343599;0.015161;88.2;0.0;0.0;1.0;0.0;0.0
3.0;1753875187.6713;15.991155;0.76;-1.28;-0.17;0.940904;-0.34419;0.014478;91.5;0.0;0.0;1.0;0.0;0.0
3.0;1753875187.67603;15.981434;0.83;-1.27;-0.17;0.941078;-0.344118;0.015669;92.3;0.0;0.0;1.0;0.0;0.0
3.0;1753875187.68076;15.99139;0.78;-1.26;-0.14;0.941759;-0.343936;0.014981;89.4;0.0;0.0;1.0;0.0;0.0
3.0;1753875187.68549;15.990293;0.81;-1.35;-0.11;0.941008;-0.343559;0.015638;91.3;0.0;0.0;1.0;0.0;0.0
3.0;1753875187.69022;15.985927;0.85;-1.34;-0.21;0.941048;-0.344265;0.015823;90.9;0.0;0.0;1.0;0.0;0.0
3.0;1753875187.69495;15.982661;0.74;-1.26;-0.11;0.941033;-0.344049;0.016357;91.4;0.0;0.0;1.0;0.0;0.0
3.0;1753875187.69968;16.002729;0.79;-1.35;-0.24;0.940298;-0.34505;0.01614;91.9;0.0;0.0;1.0;0.0;0.0
3.0;1753875187.70441;15.998693;0.82;-1.31;-0.12;0.941534;-0.343268;0.016214;88.5;0.0;0.0;1.0;0.0;0.0
3.0;1753875187.70914;15.983893;0.84;-1.3;-0.15;0.940944;-0.343108;0.015132;89.9;0.0;0.0;1.0;0.0;0.0
3.0;1753875187.71387;15.987961;0.64;-1.18;-0.16;0.942001;-0.343404;0.015949;88.8;0.0;0.0;1.0;0.0;0.0
3.0;1753875187.7186;16.000122;0.78;-1.37;-0.15;0.941804;-0.344561;0.016689;90.4;0.0;0.0;1.0;0.0;0.0
3.0;1753875187.72333;15.989066;0.89;-1.3;-0.12;0.941977;-0.343895;0.016042;90.1;0.0;0.0;1.0;0.0;0.0
3.0;1753875187.72806;15.997342;0.74;-1.32;-0.14;0.94141;-0.345048;0.016409;92.2;0.0;0.0;1.0;0.0;0.0
3.0;1753875187.73279;15.987673;0.88;-1.31;-0.18;0.941423;-0.343441;0.014746;90.8;0.0;0.0;1.0;0.0;0.0
3.0;1753875187.73752;15.994996;0.8;-1.31;-0.2;0.942249;-0.344058;0.015114;89.9;0.0;0.0;1.0;0.0;0.0
3.0;1753875187.74225;15.991509;0.76;-1.33;-0.17;0.941259;-0.344066;0.014122;88.6;0.0;0.0;1.0;0.0;0.0
3.0;1753875187.74698;15.991907;0.75;-1.32;-0.15;0.942151;-0.343914;0.014786;91.8;0.0;0.0;1.0;0.0;0.0
3.0;1753875187.75171;15.980059;0.81;-1.38;-0.17;0.940704;-0.344434;0.015409;89.8;0.0;0.0;1.0;0.0;0.0
3.0;1753875187.75644;15.992114;0.87;-1.31;-0.18;0.940831;-0.34498;0.014804;93.7;0.0;0.0;1.0;0.0;0.0
3.0;1753875187.76117;15.990625;0.84;-1.38;-0.18;0.941526;-0.343341;0.014604;89.5;0.0;0.0;1.0;0.0;0.0
3.0;1753875187.7659;15.995686;0.82;-1.29;-0.13;0.941262;-0.343603;0.015529;91.1;0.0;0.0;1.0;0.0;0.0
3.0;1753875187.77063;16.002842;0.78;-1.32;-0.15;0.941404;-0.345061;0.013038;94.0;0.0;0.0;1.0;0.0;0.0
3.0;1753875187.77536;16.006886;0.71;-1.36;-0.26;0.941447;-0.34507;0.015197;90.2;0.0;0.0;1.0;0.0;0.0
3.0;1753875187.78009;15.983268;0.69;-1.31;-0.29;0.940281;-0.344878;0.015461;90.6;0.0;0.0;1.0;0.0;0.0
3.0;1753875187.784819;15.985222;0.79;-1.35;-0.15;0.941838;-0.343818;0.016202;90.1;0.0;0.0;1.0;0.0;0.0
3.0;1753875187.789549;15.997077;0.78;-1.29;-0.23;0.941255;-0.343655;0.015611;87.4;0.0;0.0;1.0;0.0;0.0
3.0;1753875187.794279;15.992179;0.79;-1.31;-0.14;0.941743;-0.343162;0.014832;90.2;0.0;0.0;1.0;0.0;0.0
3.0;1753875187.799009;15.989837;0.85;-1.28;-0.19;0.942077;-0.345041;0.015153;89.3;0.0;0.0;1.0;0.0;0.0
3.0;1753875187.803739;15.993326;0.82;-1.31;-0.19;0.941939;-0.344876;0.013805;91.6;0.0;0.0;1.0;0.0;0.0
3.0;1753875187.808469;15.995505;0.75;-1.42;-0.2;0.941133;-0.344086;0.016572;87.5;0.0;0.0;1.0;0.0;0.0
3.0;1753875187.813199;16.003567;0.76;-1.26;-0.19;0.941702;-0.34437;0.015543;90.6;0.0;0.0;1.0;0.0;0.0
3.0;1753875187.817929;15.994482;0.76;-1.29;-0.21;0.942989;-0.343532;0.015103;90.7;0.0;0.0;1.0;0.0;0.0
3.0;1753875187.822659;15.990484;0.73;-1.38;-0.19;0.940472;-0.343887;0.015222;90.6;0.0;0.0;1.0;0.0;0.0
3.0;1753875187.827389;15.99759;0.85;-1.37;-0.27;0.941128;-0.344194;0.015751;89.3;0.0;0.0;1.0;0.0;0.0
3.0;1753875187.832119;15.993135;0.79;-1.34;-0.22;0.942378;-0.343448;0.017237;88.5;0.0;0.0;1.0;0.0;0.0
3.0;1753875187.836849;16.001841;0.73;-1.39;-0.14;0.942376;-0.344555;0.017439;90.6;0.0;0.0;1.0;0.0;0.0
3.0;1753875187.841579;15.989716;0.74;-1.34;-0.21;0.941572;-0.343962;0.016211;89.5;0.0;0.0;1.0;0.0;0.0
3.0;1753875187.8468;15.992188;0.77;-1.33;-0.21;0.942206;-0.34404;0.015128;90.0;0.0;0.0;1.0;0.0;0.0
3.0;1753875187.85153;15.967918;0.8;-1.29;-0.27;0.942986;-0.344567;0.014191;89.2;0.0;0.0;1.0;0.0;0.0
3.0;1753875187.85626;15.994391;0.8;-1.27;-0.17;0.941725;-0.345329;0.014863;89.5;0.0;0.0;1.0;0.0;0.0
3.0;1753875187.86099;15.985764;0.78;-1.34;-0.3;0.942424;-0.344728;0.015048;89.9;0.0;0.0;1.0;0.0;0.0
3.0;1753875187.86572;16.010155;0.75;-1.3;-0.2;0.94106;-0.344777;0.015022;89.0;0.0;0.0;1.0;0.0;0.0
3.0;1753875187.87045;15.979459;0.77;-1.31;-0.25;0.940746;-0.346248;0.016405;88.2;0.0;0.0;1.0;0.0;0.0
3.0;1753875187.87792;15.960938;0.77;-1.33;-0.21;0.941352;-0.34526;0.015006;89.0;0.0;0.0;1.0;0.0;0.0
3.0;1753875187.88265;15.957574;0.74;-1.27;-0.2;0.941366;-0.345512;0.015102;88.4;0.0;0.0;1.0;0.0;0.0
3.0;1753875187.88738;15.948638;0.68;-1.37;-0.28;0.942812;-0.344726;0.015735;89.5;0.0;0.0;1.0;0.0;0.0
3.0;1753875187.89211;15.932694;0.62;-1.33;-0.19;0.941622;-0.343841;0.014487;88.5;0.0;0.0;1.0;0.0;0.0
3.0;1753875187.89684;15.965429;0.67;-1.33;-0.25;0.941057;-0.344721;0.013918;89.0;0.0;0.0;1.0;0.0;0.0
3.0;1753875187.90157;15.927945;0.71;-1.36;-0.17;0.941023;-0.344591;0.014109;89.0;0.0;0.0;1.0;0.0;0.0
3.0;1753875187.9063;15.974702;0.71;-1.32;-0.26;0.942169;-0.343117;0.0142;89.5;0.0;0.0;1.0;0.0;0.0
3.0;1753875187.91103;15.976305;0.65;-1.31;-0.18;0.941547;-0.3445;0.014181;87.5;0.0;0.0;1.0;0.0;0.0
3.0;1753875187.91576;15.960856;0.7;-1.35;-0.22;0.94196;-0.343218;0.013008;88.0;0.0;0.0;1.0;0.0;0.0
3.0;1753875187.9247;15.960938;0.56;-1.33;-0.21;0.941474;-0.342942;0.013542;89.0;0.0;0.0;1.0;0.0;0.0
3.0;1753875187.92943;15.996267;0.63;-1.3;-0.17;0.942135;-0.344009;0.012718;88.6;0.0;0.0;1.0;0.0;0.0
3.0;1753875187.93416;15.962447;0.72;-1.33;-0.2;0.941687;-0.34393;0.013579;89.3;0.0;0.0;1.0;0.0;0.0
3.0;1753875187.93889;15.941843;0.71;-1.26;-0.15;0.942146;-0.345056;0.013969;89.4;0.0;0.0;1.0;0.0;0.0
3.0;1753875187.94362;15.959653;0.57;-1.26;-0.1;0.941992;-0.344227;0.013639;88.7;0.0;0.0;1.0;0.0;0.0
3.0;1753875187.94835;15.972145;0.62;-1.29;-0.16;0.942255;-0.344792;0.014241;87.7;0.0;0.0;1.0;0.0;0.0
3.0;1753875187.95308;15.967896;0.64;-1.26;-0.16;0.942538;-0.343146;0.014324;89.5;0.0;0.0;1.0;0.0;0.0
3.0;1753875187.95781;15.945245;0.6;-1.29;-0.2;0.941317;-0.343575;0.014677;88.3;0.0;0.0;1.0;0.0;0.0
3.0;1753875187.96254;15.962942;0.69;-1.23;-0.21;0.942642;-0.345368;0.014863;87.9;0.0;0.0;1.0;0.0;0.0
3.0;1753875187.97094;15.960938;0.7;-1.26;-0.21;0.942938;-0.345382;0.01464;89.0;0.0;0.0;1.0;0.0;0.0
3.0;1753875187.972289;15.945312;0.77;-1.4;-0.21;0.941596;-0.343064;0.014274;88.0;0.0;0.0;1.0;0.0;0.0
3.0;1753875187.97684;15.945312;0.77;-1.4;-0.21;0.941474;-0.343674;0.015372;88.0;0.0;0.0;1.0;0.0;0.0
3.0;1753875187.98362;15.945312;0.7;-1.33;-0.21;0.941718;-0.344284;0.013298;88.0;0.0;0.0;1.0;0.0;0.0
3.0;1753875187.986407;15.96875;0.77;-1.33;-0.21;0.941474;-0.342942;0.015372;88.0;0.0;0.0;1.0;0.0;0.0
3.0;1753875187.991444;15.96875;0.77;-1.33;-0.14;0.941108;-0.34343;0.015006;88.0;0.0;0.0;1.0;0.0;0.0
3.0;1753875187.99556;15.96875;0.77;-1.33;-0.21;0.94184;-0.343674;0.013664;88.0;0.0;0.0;1.0;0.0;0.0
3.0;1753875188.00029;15.963945;0.69;-1.31;-0.21;0.942174;-0.342001;0.012815;86.9;0.0;0.0;1.0;0.0;0.0
3.0;1753875188.00502;15.972908;0.76;-1.32;-0.15;0.942186;-0.342816;0.013028;87.6;0.0;0.0;1.0;0.0;0.0
3.0;1753875188.00975;15.983474;0.77;-1.31;-0.18;0.942719;-0.344719;0.015455;88.3;0.0;0.0;1.0;0.0;0.0
3.0;1753875188.01448;15.951927;0.75;-1.33;-0.27;0.941399;-0.343707;0.01481;88.9;0.0;0.0;1.0;0.0;0.0
3.0;1753875188.01921;15.973969;0.83;-1.39;-0.19;0.94218;-0.343897;0.014539;87.5;0.0;0.0;1.0;0.0;0.0
3.0;1753875188.02394;15.95231;0.87;-1.36;-0.2;0.941696;-0.343408;0.013899;87.9;0.0;0.0;1.0;0.0;0.0
3.0;1753875188.02867;15.944007;0.73;-1.33;-0.22;0.941876;-0.342885;0.013355;87.0;0.0;0.0;1.0;0.0;0.0
3.0;1753875188.0334;15.964001;0.76;-1.27;-0.22;0.941798;-0.344571;0.012759;87.1;0.0;0.0;1.0;0.0;0.0
3.0;1753875188.03813;15.970701;0.79;-1.23;-0.21;0.941747;-0.344025;0.013749;88.2;0.0;0.0;1.0;0.0;0.0
3.0;1753875188.04286;15.954381;0.76;-1.32;-0.21;0.942574;-0.343351;0.014664;88.2;0.0;0.0;1.0;0.0;0.0
3.0;1753875188.04759;15.968016;0.84;-1.3;-0.2;0.941328;-0.342767;0.013289;88.8;0.0;0.0;1.0;0.0;0.0
3.0;1753875188.05232;15.973352;0.76;-1.31;-0.22;0.94317;-0.34353;0.013449;88.0;0.0;0.0;1.0;0.0;0.0
3.0;1753875188.05705;15.980004;0.66;-1.36;-0.2;0.942649;-0.343682;0.014244;85.9;0.0;0.0;1.0;0.0;0.0
3.0;1753875188.06178;15.971292;0.79;-1.28;-0.24;0.942436;-0.344558;0.013037;88.4;0.0;0.0;1.0;0.0;0.0
3.0;1753875188.06651;15.941842;0.73;-1.29;-0.23;0.942561;-0.344405;0.013112;86.8;0.0;0.0;1.0;0.0;0.0
3.0;1753875188.07124;15.974694;0.78;-1.34;-0.19;0.942763;-0.344867;0.0136;88.4;0.0;0.0;1.0;0.0;0.0
3.0;1753875188.07597;15.965751;0.77;-1.26;-0.2;0.940943;-0.343621;0.013379;87.6;0.0;0.0;1.0;0.0;0.0
3.0;1753875188.0807;15.957025;0.77;-1.32;-0.2;0.941681;-0.343396;0.013797;87.6;0.0;0.0;1.0;0.0;0.0
3.0;1753875188.08543;15.970502;0.8;-1.26;-0.24;0.942541;-0.34405;0.012958;88.5;0.0;0.0;1.0;0.0;0.0
3.0;1753875188.09016;15.939292;0.76;-1.28;-0.23;0.941887;-0.343618;0.013343;87.3;0.0;0.0;1.0;0.0;0.0
3.0;1753875188.09489;15.942454;0.79;-1.33;-0.23;0.942001;-0.343236;0.013639;87.5;0.0;0.0;1.0;0.0;0.0
3.0;1753875188.09962;15.952158;0.68;-1.37;-0.22;0.939827;-0.342673;0.013283;87.6;0.0;0.0;1.0;0.0;0.0
3.0;1753875188.10435;15.97286;0.75;-1.36;-0.2;0.941585;-0.3458;0.01452;87.8;0.0;0.0;1.0;0.0;0.0
3.0;1753875188.10908;15.971895;0.76;-1.29;-0.19;0.941511;-0.3435;0.013887;88.1;0.0;0.0;1.0;0.0;0.0
3.0;1753875188.11381;15.968692;0.7;-1.34;-0.17;0.940581;-0.343926;0.014349;88.8;0.0;0.0;1.0;0.0;0.0
3.0;1753875188.11854;15.93699;0.77;-1.44;-0.29;0.942407;-0.343128;0.014163;88.6;0.0;0.0;1.0;0.0;0.0
3.0;1753875188.12327;15.970073;0.73;-1.33;-0.17;0.941348;-0.345407;0.014381;88.4;0.0;0.0;1.0;0.0;0.0
3.0;1753875188.128;15.977581;0.65;-1.26;-0.24;0.941846;-0.344155;0.015311;87.4;0.0;0.0;1.0;0.0;0.0
3.0;1753875188.13273;15.966102;0.74;-1.3;-0.14;0.943234;-0.343385;0.014488;87.8;0.0;0.0;1.0;0.0;0.0
3.0;1753875188.13746;15.946141;0.75;-1.25;-0.17;0.940769;-0.345148;0.015022;87.4;0.0;0.0;1.0;0.0;0.0
3.0;1753875188.14219;15.982942;0.65;-1.4;-0.24;0.942425;-0.34546;0.014439;88.1;0.0;0.0;1.0;0.0;0.0
3.0;1753875188.14692;15.946889;0.74;-1.29;-0.18;0.941347;-0.343641;0.014733;87.7;0.0;0.0;1.0;0.0;0.0
3.0;1753875188.15165;15.95165;0.69;-1.28;-0.2;0.942064;-0.344215;0.01419;87.4;0.0;0.0;1.0;0.0;0.0
3.0;1753875188.15638;15.968212;0.72;-1.39;-0.23;0.941412;-0.344477;0.014648;88.8;0.0;0.0;1.0;0.0;0.0
3.0;1753875188.16111;15.971893;0.79;-1.33;-0.19;0.943228;-0.343649;0.01417;87.9;0.0;0.0;1.0;0.0;0.0
3.0;1753875188.16584;15.963389;0.72;-1.28;-0.12;0.943551;-0.34477;0.013431;88.2;0.0;0.0;1.0;0.0;0.0
3.0;1753875188.17057;15.976632;0.74;-1.38;-0.16;0.941654;-0.344932;0.01323;88.1;0.0;0.0;1.0;0.0;0.0
3.0;1753875188.1753;15.992857;0.8;-1.29;-0.23;0.941373;-0.344731;0.013989;87.8;0.0;0.0;1.0;0.0;0.0
3.0;1753875188.18003;15.975052;0.66;-1.35;-0.22;0.94194;-0.344908;0.013618;87.5;0.0;0.0;1.0;0.0;0.0
3.0;1753875188.18476;15.976122;0.78;-1.31;-0.23;0.941785;-0.343022;0.014942;88.6;0.0;0.0;1.0;0.0;0.0
3.0;1753875188.189489;15.987338;0.7;-1.29;-0.2;0.94227;-0.343836;0.015568;88.2;0.0;0.0;1.0;0.0;0.0
3.0;1753875188.194219;15.962378;0.77;-1.31;-0.22;0.941915;-0.34365;0.014709;88.3;0.0;0.0;1.0;0.0;0.0
3.0;1753875188.198949;15.969949;0.72;-1.28;-0.21;0.940837;-0.342511;0.013365;87.8;0.0;0.0;1.0;0.0;0.0
3.0;1753875188.203679;15.962797;0.69;-1.28;-0.25;0.941571;-0.343173;0.013941;88.1;0.0;0.0;1.0;0.0;0.0
3.0;1753875188.208409;15.991545;0.75;-1.33;-0.24;0.94285;-0.343612;0.014298;89.7;0.0;0.0;1.0;0.0;0.0
3.0;1753875188.213139;15.957201;0.7;-1.37;-0.22;0.942293;-0.344098;0.012622;87.6;0.0;0.0;1.0;0.0;0.0
3.0;1753875188.217869;15.968693;0.66;-1.27;-0.23;0.940511;-0.342194;0.013366;88.8;0.0;0.0;1.0;0.0;0.0
3.0;1753875188.222599;15.953248;0.69;-1.34;-0.2;0.942896;-0.342691;0.013743;88.3;0.0;0.0;1.0;0.0;0.0
3.0;1753875188.227329;15.983086;0.71;-1.29;-0.24;0.941225;-0.34391;0.014336;87.5;0.0;0.0;1.0;0.0;0.0
3.0;1753875188.232059;15.970587;0.76;-1.3;-0.19;0.941864;-0.345217;0.012668;88.3;0.0;0.0;1.0;0.0;0.0
3.0;1753875188.236789;15.972005;0.6;-1.27;-0.21;0.941613;-0.344212;0.014014;88.4;0.0;0.0;1.0;0.0;0.0
3.0;1753875188.241519;15.952748;0.65;-1.29;-0.16;0.942394;-0.344702;0.013981;86.6;0.0;0.0;1.0;0.0;0.0
3.0;1753875188.246249;15.971561;0.73;-1.29;-0.17;0.942122;-0.344357;0.014321;87.7;0.0;0.0;1.0;0.0;0.0
3.0;1753875188.250979;15.957082;0.69;-1.3;-0.22;0.941967;-0.344905;0.013615;88.0;0.0;0.0;1.0;0.0;0.0
3.0;1753875188.255709;15.996581;0.69;-1.27;-0.22;0.941921;-0.341313;0.014631;88.8;0.0;0.0;1.0;0.0;0.0
3.0;1753875188.260439;15.981107;0.65;-1.3;-0.21;0.94269;-0.344242;0.014467;87.1;0.0;0.0;1.0;0.0;0.0
3.0;1753875188.265169;15.982699;0.66;-1.24;-0.25;0.94197;-0.343422;0.013778;87.5;0.0;0.0;1.0;0.0;0.0
3.0;1753875188.269899;15.951109;0.67;-1.38;-0.23;0.941955;-0.344153;0.014726;87.8;0.0;0.0;1.0;0.0;0.0
3.0;1753875188.274629;15.960655;0.84;-1.28;-0.18;0.941564;-0.344205;0.014653;87.4;0.0;0.0;1.0;0.0;0.0
3.0;1753875188.279359;15.980563;0.8;-1.3;-0.2;0.94116;-0.343063;0.014391;88.8;0.0;0.0;1.0;0.0;0.0
3.0;1753875188.284089;15.995212;0.74;-1.35;-0.25;0.942593;-0.343573;0.013619;87.7;0.0;0.0;1.0;0.0;0.0
3.0;1753875188.288819;15.981532;0.76;-1.3;-0.2;0.942069;-0.343215;0.013014;88.5;0.0;0.0;1.0;0.0;0.0
3.0;1753875188.293549;15.970713;0.79;-1.23;-0.23;0.941453;-0.342995;0.014675;88.2;0.0;0.0;1.0;0.0;0.0
3.0;1753875188.298279;15.988145;0.7;-1.31;-0.24;0.9415;-0.344884;0.014372;86.8;0.0;0.0;1.0;0.0;0.0
3.0;1753875188.303009;15.969023;0.7;-1.2;-0.28;0.942574;-0.343868;0.015371;87.6;0.0;0.0;1.0;0.0;0.0
3.0;1753875188.307739;15.980528;0.76;-1.25;-0.29;0.940997;-0.342865;0.013155;88.3;0.0;0.0;1.0;0.0;0.0
3.0;1753875188.312469;15.993066;0.65;-1.35;-0.2;0.942355;-0.343823;0.014775;88.3;0.0;0.0;1.0;0.0;0.0
3.0;1753875188.317199;15.962715;0.63;-1.29;-0.22;0.941261;-0.344275;0.014226;88.4;0.0;0.0;1.0;0.0;0.0
3.0;1753875188.321929;15.959075;0.78;-1.3;-0.23;0.942424;-0.344155;0.014874;87.5;0.0;0.0;1.0;0.0;0.0
3.0;1753875188.326659;15.961896;0.74;-1.25;-0.13;0.942966;-0.34358;0.014639;88.0;0.0;0.0;1.0;0.0;0.0
3.0;1753875188.331389;15.975309;0.55;-1.35;-0.22;0.941713;-0.343911;0.015137;87.6;0.0;0.0;1.0;0.0;0.0
3.0;1753875188.336119;15.974882;0.69;-1.28;-0.19;0.941762;-0.343388;0.013971;87.8;0.0;0.0;1.0;0.0;0.0
3.0;1753875188.340849;15.97599;0.74;-1.36;-0.13;0.941715;-0.344731;0.014187;88.2;0.0;0.0;1.0;0.0;0.0
3.0;1753875188.345579;15.96635;0.67;-1.36;-0.12;0.942171;-0.344205;0.015137;88.3;0.0;0.0;1.0;0.0;0.0
3.0;1753875188.350309;15.975915;0.62;-1.25;-0.21;0.941661;-0.344224;0.015235;87.5;0.0;0.0;1.0;0.0;0.0
3.0;1753875188.355039;15.948815;0.68;-1.25;-0.15;0.942203;-0.34443;0.014816;87.8;0.0;0.0;1.0;0.0;0.0
3.0;1753875188.359769;15.969229;0.71;-1.37;-0.2;0.941376;-0.344414;0.014369;87.7;0.0;0.0;1.0;0.0;0.0
3.0;1753875188.364499;15.976369;0.69;-1.33;-0.26;0.941758;-0.342686;0.014843;87.5;0.0;0.0;1.0;0.0;0.0
3.0;1753875188.369229;15.980986;0.62;-1.29;-0.24;0.942571;-0.344476;0.013464;87.4;0.0;0.0;1.0;0.0;0.0
3.0;1753875188.373959;15.977868;0.78;-1.32;-0.24;0.942702;-0.343556;0.014278;87.5;0.0;0.0;1.0;0.0;0.0
3.0;1753875188.378689;15.989553;0.77;-1.24;-0.22;0.942768;-0.344269;0.01613;86.8;0.0;0.0;1.0;0.0;0.0
3.0;1753875188.383419;15.964271;0.69;-1.27;-0.21;0.941898;-0.343913;0.01465;88.7;0.0;0.0;1.0;0.0;0.0
3.0;1753875188.388149;15.993575;0.7;-1.29;-0.28;0.941958;-0.342336;0.013655;87.9;0.0;0.0;1.0;0.0;0.0
3.0;1753875188.392879;15.994011;0.68;-1.33;-0.25;0.942047;-0.3444;0.014296;88.1;0.0;0.0;1.0;0.0;0.0
3.0;1753875188.397609;15.980238;0.71;-1.24;-0.18;0.942311;-0.343619;0.015405;87.7;0.0;0.0;1.0;0.0;0.0
3.0;1753875188.402339;15.973908;0.74;-1.29;-0.19;0.942752;-0.343657;0.014292;88.1;0.0;0.0;1.0;0.0;0.0
3.0;1753875188.407069;15.976833;0.73;-1.34;-0.27;0.942835;-0.345517;0.014693;88.3;0.0;0.0;1.0;0.0;0.0
3.0;1753875188.411799;15.961711;0.68;-1.22;-0.23;0.942397;-0.344501;0.014785;87.1;0.0;0.0;1.0;0.0;0.0
3.0;1753875188.416529;15.968487;0.68;-1.3;-0.16;0.942187;-0.343764;0.014096;87.7;0.0;0.0;1.0;0.0;0.0
3.0;1753875188.421259;15.984413;0.68;-1.34;-0.18;0.942562;-0.344543;0.013619;88.1;0.0;0.0;1.0;0.0;0.0
3.0;1753875188.425989;15.966382;0.64;-1.24;-0.22;0.942916;-0.343759;0.013739;88.8;0.0;0.0;1.0;0.0;0.0
3.0;1753875188.430719;15.966532;0.62;-1.32;-0.24;0.941648;-0.343235;0.015777;88.4;0.0;0.0;1.0;0.0;0.0
3.0;1753875188.435449;15.944512;0.64;-1.34;-0.23;0.941881;-0.343061;0.01318;88.5;0.0;0.0;1.0;0.0;0.0
3.0;1753875188.440179;16.003407;0.71;-1.33;-0.24;0.941525;-0.3445;0.014714;87.9;0.0;0.0;1.0;0.0;0.0
3.0;1753875188.444908;15.983859;0.69;-1.3;-0.21;0.942902;-0.344736;0.014314;88.3;0.0;0.0;1.0;0.0;0.0
3.0;1753875188.449638;15.967235;0.6;-1.21;-0.24;0.94278;-0.343906;0.015448;88.5;0.0;0.0;1.0;0.0;0.0
3.0;1753875188.454368;15.941737;0.69;-1.3;-0.25;0.942251;-0.343851;0.015905;88.9;0.0;0.0;1.0;0.0;0.0
3.0;1753875188.459098;15.968466;0.66;-1.29;-0.24;0.942395;-0.343357;0.013609;87.9;0.0;0.0;1.0;0.0;0.0
3.0;1753875188.463828;15.968108;0.66;-1.26;-0.2;0.94283;-0.343631;0.015427;87.2;0.0;0.0;1.0;0.0;0.0
3.0;1753875188.468558;15.985758;0.71;-1.21;-0.24;0.942976;-0.344376;0.014158;86.8;0.0;0.0;1.0;0.0;0.0
3.0;1753875188.473288;15.992418;0.69;-1.28;-0.2;0.942422;-0.343697;0.014742;88.0;0.0;0.0;1.0;0.0;0.0
3.0;1753875188.478018;15.986649;0.7;-1.25;-0.21;0.940875;-0.344406;0.015129;88.2;0.0;0.0;1.0;0.0;0.0
3.0;1753875188.482748;15.969039;0.68;-1.17;-0.23;0.942053;-0.343689;0.014279;87.7;0.0;0.0;1.0;0.0;0.0
3.0;1753875188.487478;15.96417;0.72;-1.33;-0.23;0.94409;-0.343602;0.014387;87.2;0.0;0.0;1.0;0.0;0.0
3.0;1753875188.492208;15.980451;0.7;-1.28;-0.19;0.942403;-0.344018;0.014397;88.0;0.0;0.0;1.0;0.0;0.0
3.0;1753875188.496938;16.000257;0.65;-1.23;-0.21;0.942901;-0.344397;0.015208;88.0;0.0;0.0;1.0;0.0;0.0
3.0;1753875188.501668;15.986543;0.67;-1.19;-0.22;0.942296;-0.343479;0.013533;87.2;0.0;0.0;1.0;0.0;0.0
3.0;1753875188.506398;15.953876;0.59;-1.28;-0.16;0.941791;-0.343967;0.014189;88.2;0.0;0.0;1.0;0.0;0.0
3.0;1753875188.511128;15.983651;0.66;-1.23;-0.2;0.940838;-0.34426;0.015152;88.2;0.0;0.0;1.0;0.0;0.0
3.0;1753875188.515858;15.960573;0.68;-1.27;-0.23;0.942146;-0.345211;0.014229;88.6;0.0;0.0;1.0;0.0;0.0
3.0;1753875188.520588;15.963819;0.64;-1.26;-0.2;0.942013;-0.343446;0.01521;87.3;0.0;0.0;1.0;0.0;0.0
3.0;1753875188.525318;15.947447;0.62;-1.31;-0.21;0.944795;-0.343563;0.015271;88.6;0.0;0.0;1.0;0.0;0.0
3.0;1753875188.530048;15.959199;0.71;-1.26;-0.17;0.942566;-0.344816;0.014182;88.8;0.0;0.0;1.0;0.0;0.0
3.0;1753875188.534778;15.974272;0.58;-1.29;-0.21;0.941025;-0.344187;0.014903;88.8;0.0;0.0;1.0;0.0;0.0
3.0;1753875188.539508;15.979859;0.73;-1.25;-0.23;0.941797;-0.344898;0.013772;88.0;0.0;0.0;1.0;0.0;0.0
3.0;1753875188.544238;15.984023;0.74;-1.26;-0.2;0.943687;-0.342868;0.013734;88.6;0.0;0.0;1.0;0.0;0.0
3.0;1753875188.548968;15.973377;0.57;-1.23;-0.16;0.942129;-0.344877;0.015692;88.0;0.0;0.0;1.0;0.0;0.0
3.0;1753875188.553698;15.965348;0.65;-1.17;-0.22;0.942638;-0.344582;0.015616;87.7;0.0;0.0;1.0;0.0;0.0
3.0;1753875188.558428;15.983806;0.62;-1.24;-0.25;0.943899;-0.3444;0.015878;86.9;0.0;0.0;1.0;0.0;0.0
3.0;1753875188.563158;15.979897;0.61;-1.34;-0.21;0.941321;-0.345439;0.014272;88.6;0.0;0.0;1.0;0.0;0.0
3.0;1753875188.567888;15.969684;0.67;-1.29;-0.13;0.941025;-0.344152;0.015225;88.1;0.0;0.0;1.0;0.0;0.0
3.0;1753875188.572618;15.970749;0.64;-1.28;-0.18;0.942254;-0.344017;0.01579;89.1;0.0;0.0;1.0;0.0;0.0
3.0;1753875188.577348;15.963513;0.73;-1.18;-0.18;0.942979;-0.343553;0.016144;88.6;0.0;0.0;1.0;0.0;0.0
3.0;1753875188.582078;15.971276;0.55;-1.28;-0.24;0.942029;-0.344059;0.014912;88.0;0.0;0.0;1.0;0.0;0.0
3.0;1753875188.586808;15.985107;0.65;-1.19;-0.24;0.943557;-0.344156;0.016217;88.4;0.0;0.0;1.0;0.0;0.0
3.0;1753875188.591538;15.959125;0.63;-1.26;-0.25;0.943328;-0.345442;0.014681;87.8;0.0;0.0;1.0;0.0;0.0
3.0;1753875188.596268;15.97179;0.69;-1.34;-0.22;0.942966;-0.344376;0.015937;88.5;0.0;0.0;1.0;0.0;0.0
3.0;1753875188.600998;15.972936;0.56;-1.26;-0.18;0.94207;-0.343768;0.015143;88.3;0.0;0.0;1.0;0.0;0.0
3.0;1753875188.605728;15.939309;0.68;-1.31;-0.19;0.943163;-0.342323;0.014771;87.9;0.0;0.0;1.0;0.0;0.0
3.0;1753875188.610458;15.955607;0.55;-1.21;-0.17;0.94315;-0.343208;0.016233;88.1;0.0;0.0;1.0;0.0;0.0
3.0;1753875188.615188;16.018145;0.7;-1.28;-0.23;0.941017;-0.342511;0.014377;88.4;0.0;0.0;1.0;0.0;0.0
3.0;1753875188.619918;15.968926;0.61;-1.28;-0.19;0.943534;-0.343459;0.015374;86.9;0.0;0.0;1.0;0.0;0.0
3.0;1753875188.624648;15.988389;0.64;-1.27;-0.17;0.941639;-0.343601;0.014605;87.8;0.0;0.0;1.0;0.0;0.0
3.0;1753875188.629378;15.972993;0.51;-1.25;-0.19;0.942181;-0.343538;0.013054;87.6;0.0;0.0;1.0;0.0;0.0
3.0;1753875188.6337;15.976562;0.63;-1.26;-0.21;0.942328;-0.343918;0.015128;88.0;0.0;0.0;1.0;0.0;0.0
3.0;1753875188.63843;15.947572;0.63;-1.27;-0.18;0.942223;-0.343121;0.015988;86.7;0.0;0.0;1.0;0.0;0.0
3.0;1753875188.64316;15.959675;0.75;-1.26;-0.21;0.9425;-0.343662;0.014171;90.0;0.0;0.0;1.0;0.0;0.0
3.0;1753875188.64789;15.97615;0.76;-1.33;-0.22;0.942174;-0.343365;0.014971;86.3;0.0;0.0;1.0;0.0;0.0
3.0;1753875188.65262;15.929534;0.83;-1.31;-0.26;0.941647;-0.343677;0.01381;87.4;0.0;0.0;1.0;0.0;0.0
3.0;1753875188.65755;15.945312;0.77;-1.19;-0.21;0.94184;-0.344162;0.014762;88.0;0.0;0.0;1.0;0.0;0.0
3.0;1753875188.66228;15.957303;0.77;-1.25;-0.23;0.941607;-0.343473;0.015756;87.0;0.0;0.0;1.0;0.0;0.0
3.0;1753875188.66701;15.933864;0.83;-1.28;-0.21;0.941309;-0.344201;0.01555;88.4;0.0;0.0;1.0;0.0;0.0
3.0;1753875188.67174;15.941644;0.72;-1.2;-0.24;0.942278;-0.344413;0.013445;88.8;0.0;0.0;1.0;0.0;0.0
3.0;1753875188.67647;15.935978;0.77;-1.17;-0.24;0.941903;-0.343645;0.015093;88.6;0.0;0.0;1.0;0.0;0.0
3.0;1753875188.6812;15.924657;0.84;-1.12;-0.1;0.941802;-0.342801;0.015053;88.2;0.0;0.0;1.0;0.0;0.0
3.0;1753875188.68593;15.951831;0.82;-1.22;-0.18;0.942735;-0.343793;0.013719;89.1;0.0;0.0;1.0;0.0;0.0
3.0;1753875188.69066;15.944747;0.73;-1.31;-0.15;0.942163;-0.343459;0.015686;86.1;0.0;0.0;1.0;0.0;0.0
3.0;1753875188.69539;15.955356;0.63;-1.25;-0.13;0.941577;-0.343233;0.013138;92.8;0.0;0.0;1.0;0.0;0.0
3.0;1753875188.70012;15.963777;0.74;-1.27;-0.16;0.94244;-0.342936;0.013925;84.7;0.0;0.0;1.0;0.0;0.0
3.0;1753875188.70507;15.945312;0.77;-1.26;-0.14;0.942328;-0.342698;0.014274;88.0;0.0;0.0;1.0;0.0;0.0
3.0;1753875188.7098;15.940309;0.73;-1.34;-0.16;0.941748;-0.343327;0.014911;89.8;0.0;0.0;1.0;0.0;0.0
3.0;1753875188.71453;15.929559;0.79;-1.21;-0.17;0.942873;-0.342942;0.014129;90.5;0.0;0.0;1.0;0.0;0.0
3.0;1753875188.71926;15.9603;0.76;-1.28;-0.17;0.941816;-0.342951;0.013867;85.8;0.0;0.0;1.0;0.0;0.0
3.0;1753875188.72399;15.951279;0.85;-1.21;-0.21;0.942577;-0.343108;0.014232;89.9;0.0;0.0;1.0;0.0;0.0
3.0;1753875188.72872;15.942004;0.73;-1.29;-0.23;0.941514;-0.343327;0.015243;86.1;0.0;0.0;1.0;0.0;0.0
3.0;1753875188.73345;15.945703;0.7;-1.27;-0.23;0.941402;-0.344017;0.014403;91.7;0.0;0.0;1.0;0.0;0.0
3.0;1753875188.73818;15.922758;0.68;-1.3;-0.29;0.941913;-0.343346;0.014769;89.2;0.0;0.0;1.0;0.0;0.0
3.0;1753875188.74291;15.940785;0.61;-1.29;-0.29;0.941964;-0.343858;0.014727;83.7;0.0;0.0;1.0;0.0;0.0
3.0;1753875188.75117;15.945312;0.7;-1.26;-0.28;0.941474;-0.344162;0.01403;88.0;0.0;0.0;1.0;0.0;0.0
3.0;1753875188.7559;15.948942;0.72;-1.22;-0.23;0.941437;-0.343931;0.012723;89.8;0.0;0.0;1.0;0.0;0.0
3.0;1753875188.76063;15.950427;0.59;-1.32;-0.26;0.941875;-0.3441;0.014354;88.8;0.0;0.0;1.0;0.0;0.0
3.0;1753875188.76536;15.943349;0.75;-1.28;-0.25;0.941472;-0.343257;0.014653;84.2;0.0;0.0;1.0;0.0;0.0
3.0;1753875188.77009;15.941384;0.76;-1.37;-0.21;0.941984;-0.34487;0.015001;87.9;0.0;0.0;1.0;0.0;0.0
3.0;1753875188.77482;15.941832;0.71;-1.33;-0.3;0.941623;-0.342599;0.013479;85.7;0.0;0.0;1.0;0.0;0.0
3.0;1753875188.77955;15.954442;0.73;-1.37;-0.21;0.941569;-0.343503;0.013115;92.3;0.0;0.0;1.0;0.0;0.0
3.0;1753875188.78428;15.946985;0.68;-1.33;-0.23;0.940915;-0.344048;0.014213;87.2;0.0;0.0;1.0;0.0;0.0
3.0;1753875188.78901;15.947439;0.65;-1.37;-0.28;0.940711;-0.343264;0.015067;83.2;0.0;0.0;1.0;0.0;0.0
3.0;1753875188.79374;15.943463;0.69;-1.4;-0.26;0.94159;-0.34359;0.012768;92.0;0.0;0.0;1.0;0.0;0.0
3.0;1753875188.79847;15.948666;0.73;-1.38;-0.29;0.940939;-0.343283;0.014282;87.9;0.0;0.0;1.0;0.0;0.0
3.0;1753875188.8032;15.940872;0.74;-1.54;-0.3;0.941369;-0.342774;0.014718;92.1;0.0;0.0;1.0;0.0;0.0
3.0;1753875188.80822;15.9375;0.7;-1.4;-0.28;0.94123;-0.342576;0.014274;88.0;0.0;0.0;1.0;0.0;0.0
3.0;1753875188.81295;15.948824;0.64;-1.5;-0.31;0.941656;-0.343801;0.014718;85.7;0.0;0.0;1.0;0.0;0.0
3.0;1753875188.81768;15.920222;0.7;-1.46;-0.27;0.940858;-0.342914;0.014746;89.1;0.0;0.0;1.0;0.0;0.0
3.0;1753875188.82241;15.917198;0.75;-1.36;-0.33;0.941891;-0.343988;0.014792;82.6;0.0;0.0;1.0;0.0;0.0
3.0;1753875188.82714;15.921046;0.69;-1.31;-0.27;0.940909;-0.34381;0.014341;88.3;0.0;0.0;1.0;0.0;0.0
3.0;1753875188.83187;15.923835;0.75;-1.3;-0.28;0.941139;-0.343751;0.014519;93.2;0.0;0.0;1.0;0.0;0.0
3.0;1753875188.8366;15.939567;0.75;-1.32;-0.23;0.941566;-0.344408;0.014266;89.2;0.0;0.0;1.0;0.0;0.0
3.0;1753875188.84456;15.9375;0.77;-1.33;-0.28;0.941718;-0.344406;0.014518;88.0;0.0;0.0;1.0;0.0;0.0
3.0;1753875188.84929;15.932836;0.69;-1.26;-0.24;0.942359;-0.343748;0.013846;87.2;0.0;0.0;1.0;0.0;0.0
3.0;1753875188.85402;15.960823;0.8;-1.38;-0.25;0.941924;-0.343874;0.014816;85.2;0.0;0.0;1.0;0.0;0.0
3.0;1753875188.85875;15.965714;0.85;-1.42;-0.2;0.941791;-0.345193;0.014445;86.7;0.0;0.0;1.0;0.0;0.0
3.0;1753875188.86348;15.923261;0.76;-1.41;-0.23;0.941748;-0.343977;0.015604;84.6;0.0;0.0;1.0;0.0;0.0
3.0;1753875188.86821;15.962499;0.76;-1.31;-0.23;0.943224;-0.343834;0.013291;86.8;0.0;0.0;1.0;0.0;0.0
3.0;1753875188.87294;15.968946;0.73;-1.42;-0.27;0.942815;-0.343656;0.014491;88.1;0.0;0.0;1.0;0.0;0.0
3.0;1753875188.87767;15.945942;0.69;-1.31;-0.22;0.942678;-0.342937;0.014854;89.0;0.0;0.0;1.0;0.0;0.0
3.0;1753875188.8824;15.954157;0.73;-1.5;-0.18;0.942942;-0.344227;0.014372;92.4;0.0;0.0;1.0;0.0;0.0
3.0;1753875188.88713;15.931383;0.73;-1.46;-0.16;0.942249;-0.342902;0.013701;89.1;0.0;0.0;1.0;0.0;0.0
3.0;1753875188.89144;15.9375;0.77;-1.47;-0.21;0.942938;-0.343552;0.014152;88.0;0.0;0.0;1.0;0.0;0.0
3.0;1753875188.89617;15.968694;0.74;-1.42;-0.22;0.942249;-0.343536;0.015147;84.9;0.0;0.0;1.0;0.0;0.0
3.0;1753875188.9009;15.93548;0.77;-1.35;-0.19;0.942556;-0.343169;0.013834;90.2;0.0;0.0;1.0;0.0;0.0
3.0;1753875188.90563;15.959708;0.78;-1.41;-0.21;0.943262;-0.342577;0.013837;90.8;0.0;0.0;1.0;0.0;0.0
3.0;1753875188.91036;15.919655;0.87;-1.5;-0.22;0.942026;-0.342127;0.014929;90.2;0.0;0.0;1.0;0.0;0.0
3.0;1753875188.91509;15.929007;0.75;-1.37;-0.26;0.943439;-0.344246;0.015153;84.7;0.0;0.0;1.0;0.0;0.0
3.0;1753875188.91982;15.92519;0.88;-1.43;-0.3;0.942002;-0.34393;0.014077;86.5;0.0;0.0;1.0;0.0;0.0
3.0;1753875188.92455;15.925848;0.89;-1.33;-0.21;0.9437;-0.343068;0.014908;90.0;0.0;0.0;1.0;0.0;0.0
3.0;1753875188.92928;15.96395;0.82;-1.46;-0.17;0.941895;-0.344145;0.015029;85.7;0.0;0.0;1.0;0.0;0.0
3.0;1753875188.9382;15.9375;0.84;-1.33;-0.21;0.942816;-0.344284;0.01525;88.0;0.0;0.0;1.0;0.0;0.0
3.0;1753875188.94293;15.953931;0.77;-1.23;-0.18;0.943015;-0.344178;0.015198;87.6;0.0;0.0;1.0;0.0;0.0
3.0;1753875188.947464;15.960938;0.77;-1.19;-0.14;0.942206;-0.34404;0.013786;88.0;0.0;0.0;1.0;0.0;0.0
3.0;1753875188.950261;15.960938;0.77;-1.19;-0.21;0.941596;-0.344772;0.013908;88.0;0.0;0.0;1.0;0.0;0.0
3.0;1753875188.954991;15.959859;0.78;-1.24;-0.18;0.942179;-0.343751;0.014629;87.9;0.0;0.0;1.0;0.0;0.0
3.0;1753875188.959915;15.953125;0.77;-1.33;-0.14;0.941962;-0.344772;0.014152;88.0;0.0;0.0;1.0;0.0;0.0
3.0;1753875188.96416;15.953125;0.7;-1.33;-0.21;0.942572;-0.343308;0.015006;88.0;0.0;0.0;1.0;0.0;0.0
3.0;1753875188.968842;15.953125;0.77;-1.33;-0.21;0.94245;-0.345138;0.014396;88.0;0.0;0.0;1.0;0.0;0.0
3.0;1753875188.973518;15.953125;0.84;-1.26;-0.21;0.941718;-0.344528;0.012444;88.0;0.0;0.0;1.0;0.0;0.0
3.0;1753875188.978248;15.928178;0.89;-1.2;-0.23;0.942897;-0.345146;0.015132;88.2;0.0;0.0;1.0;0.0;0.0
3.0;1753875188.983209;15.929688;0.84;-1.33;-0.21;0.943426;-0.343186;0.014762;88.0;0.0;0.0;1.0;0.0;0.0
3.0;1753875188.988158;15.929688;0.7;-1.26;-0.21;0.940864;-0.34282;0.01403;88.0;0.0;0.0;1.0;0.0;0.0
3.0;1753875188.994986;15.929688;0.77;-1.26;-0.21;0.942206;-0.34343;0.01342;91.0;0.0;0.0;1.0;0.0;0.0
3.0;1753875188.997358;15.921875;0.77;-1.26;-0.21;0.941352;-0.344406;0.013542;91.0;0.0;0.0;1.0;0.0;0.0
3.0;1753875189.002088;15.90847;0.77;-1.17;-0.22;0.941021;-0.34501;0.013903;94.3;0.0;0.0;1.0;0.0;0.0
3.0;1753875189.006818;15.915201;0.77;-1.28;-0.2;0.942238;-0.344135;0.015168;92.4;0.0;0.0;1.0;0.0;0.0
3.0;1753875189.011548;15.927827;0.74;-1.3;-0.19;0.940716;-0.343769;0.014562;94.1;0.0;0.0;1.0;0.0;0.0
3.0;1753875189.016278;15.921159;0.73;-1.34;-0.09;0.941389;-0.345526;0.012933;91.2;0.0;0.0;1.0;0.0;0.0
3.0;1753875189.021008;15.896805;0.74;-1.23;-0.27;0.941753;-0.344357;0.013577;90.6;0.0;0.0;1.0;0.0;0.0
3.0;1753875189.025738;15.917485;0.82;-1.26;-0.23;0.940576;-0.34495;0.0128;89.6;0.0;0.0;1.0;0.0;0.0
3.0;1753875189.030468;15.932767;0.78;-1.27;-0.22;0.941012;-0.343732;0.013401;91.0;0.0;0.0;1.0;0.0;0.0
3.0;1753875189.035198;15.897419;0.79;-1.23;-0.18;0.941654;-0.343565;0.014592;93.0;0.0;0.0;1.0;0.0;0.0
3.0;1753875189.039928;15.923566;0.84;-1.29;-0.23;0.942874;-0.345256;0.014495;90.8;0.0;0.0;1.0;0.0;0.0
3.0;1753875189.044658;15.9185;0.75;-1.36;-0.15;0.94167;-0.344648;0.013566;92.7;0.0;0.0;1.0;0.0;0.0
3.0;1753875189.049388;15.940548;0.78;-1.28;-0.17;0.942515;-0.345942;0.013488;90.4;0.0;0.0;1.0;0.0;0.0
3.0;1753875189.054118;15.912938;0.79;-1.29;-0.17;0.941727;-0.344379;0.014517;91.6;0.0;0.0;1.0;0.0;0.0
3.0;1753875189.058848;15.911506;0.81;-1.24;-0.14;0.941419;-0.344326;0.013887;91.4;0.0;0.0;1.0;0.0;0.0
3.0;1753875189.063578;15.936822;0.84;-1.28;-0.22;0.941958;-0.343339;0.013317;93.2;0.0;0.0;1.0;0.0;0.0
3.0;1753875189.068308;15.911765;0.71;-1.26;-0.19;0.941962;-0.345496;0.013723;93.0;0.0;0.0;1.0;0.0;0.0
3.0;1753875189.073038;15.920032;0.81;-1.18;-0.17;0.941555;-0.344192;0.014035;87.2;0.0;0.0;1.0;0.0;0.0
3.0;1753875189.077768;15.918523;0.77;-1.33;-0.19;0.94268;-0.344545;0.014157;88.9;0.0;0.0;1.0;0.0;0.0
3.0;1753875189.082498;15.936337;0.74;-1.22;-0.24;0.941063;-0.344366;0.013892;94.4;0.0;0.0;1.0;0.0;0.0
3.0;1753875189.087228;15.923903;0.85;-1.18;-0.19;0.941459;-0.345064;0.014391;92.3;0.0;0.0;1.0;0.0;0.0
3.0;1753875189.091958;15.930151;0.7;-1.26;-0.15;0.941819;-0.344547;0.014188;90.7;0.0;0.0;1.0;0.0;0.0
3.0;1753875189.096688;15.921341;0.72;-1.2;-0.14;0.941929;-0.344769;0.014475;90.1;0.0;0.0;1.0;0.0;0.0
3.0;1753875189.101418;15.916706;0.75;-1.2;-0.09;0.942833;-0.344575;0.014717;91.8;0.0;0.0;1.0;0.0;0.0
3.0;1753875189.106148;15.931027;0.79;-1.35;-0.1;0.942294;-0.346303;0.014036;92.6;0.0;0.0;1.0;0.0;0.0
3.0;1753875189.110878;15.915181;0.86;-1.23;-0.1;0.942597;-0.3458;0.014176;92.5;0.0;0.0;1.0;0.0;0.0
3.0;1753875189.115608;15.915348;0.82;-1.36;-0.24;0.941879;-0.345148;0.01599;86.5;0.0;0.0;1.0;0.0;0.0
3.0;1753875189.120338;15.909803;0.79;-1.22;-0.14;0.941971;-0.345296;0.014895;90.0;0.0;0.0;1.0;0.0;0.0
3.0;1753875189.125068;15.900338;0.71;-1.12;-0.11;0.940636;-0.345533;0.014123;88.0;0.0;0.0;1.0;0.0;0.0
3.0;1753875189.129798;15.908432;0.79;-1.24;-0.2;0.94226;-0.344768;0.014329;91.7;0.0;0.0;1.0;0.0;0.0
3.0;1753875189.134528;15.927303;0.77;-1.24;-0.2;0.940807;-0.342886;0.015669;92.3;0.0;0.0;1.0;0.0;0.0
3.0;1753875189.139258;15.941781;0.79;-1.32;-0.18;0.941942;-0.345336;0.01378;92.7;0.0;0.0;1.0;0.0;0.0
3.0;1753875189.143988;15.939557;0.75;-1.31;-0.15;0.941144;-0.345803;0.015117;88.3;0.0;0.0;1.0;0.0;0.0
3.0;1753875189.148718;15.920045;0.86;-1.28;-0.11;0.9423;-0.346547;0.014333;88.8;0.0;0.0;1.0;0.0;0.0
3.0;1753875189.153448;15.917036;0.65;-1.27;-0.18;0.943438;-0.345831;0.014197;91.0;0.0;0.0;1.0;0.0;0.0
3.0;1753875189.1595;15.921875;0.77;-1.26;-0.14;0.94245;-0.345138;0.01464;91.0;0.0;0.0;1.0;0.0;0.0
3.0;1753875189.16423;15.914981;0.77;-1.24;-0.19;0.941543;-0.344584;0.014803;94.8;0.0;0.0;1.0;0.0;0.0
3.0;1753875189.16896;15.915104;0.96;-1.27;-0.13;0.942194;-0.346187;0.015146;89.4;0.0;0.0;1.0;0.0;0.0
3.0;1753875189.17369;15.9145;0.75;-1.38;-0.13;0.940175;-0.344275;0.014442;88.3;0.0;0.0;1.0;0.0;0.0
3.0;1753875189.17842;15.94108;0.71;-1.17;-0.11;0.942264;-0.344115;0.014244;92.5;0.0;0.0;1.0;0.0;0.0
3.0;1753875189.18315;15.943315;0.69;-1.23;-0.14;0.943732;-0.344312;0.014934;90.6;0.0;0.0;1.0;0.0;0.0
3.0;1753875189.18788;15.940495;0.8;-1.23;-0.14;0.942421;-0.344716;0.014364;90.2;0.0;0.0;1.0;0.0;0.0
3.0;1753875189.19261;15.928991;0.8;-1.26;-0.15;0.94279;-0.344512;0.015673;90.3;0.0;0.0;1.0;0.0;0.0
3.0;1753875189.19734;15.923374;0.79;-1.26;-0.17;0.943574;-0.346261;0.015371;87.4;0.0;0.0;1.0;0.0;0.0
3.0;1753875189.20207;15.914825;0.76;-1.21;-0.12;0.94199;-0.346693;0.014331;91.2;0.0;0.0;1.0;0.0;0.0
3.0;1753875189.2068;15.938512;0.82;-1.24;-0.07;0.940448;-0.344891;0.015132;92.2;0.0;0.0;1.0;0.0;0.0
3.0;1753875189.21153;15.938611;0.85;-1.29;-0.17;0.94308;-0.344426;0.013242;89.6;0.0;0.0;1.0;0.0;0.0
3.0;1753875189.21626;15.915991;0.8;-1.38;-0.13;0.942026;-0.345866;0.014999;91.4;0.0;0.0;1.0;0.0;0.0
3.0;1753875189.22099;15.894646;0.79;-1.31;-0.11;0.942251;-0.345599;0.014128;86.5;0.0;0.0;1.0;0.0;0.0
3.0;1753875189.22572;15.927142;0.84;-1.31;-0.23;0.941811;-0.344518;0.014982;91.5;0.0;0.0;1.0;0.0;0.0
3.0;1753875189.23045;15.932383;0.78;-1.3;-0.14;0.941599;-0.346047;0.014536;90.7;0.0;0.0;1.0;0.0;0.0
3.0;1753875189.23518;15.906279;0.72;-1.36;-0.15;0.943325;-0.347288;0.01452;94.4;0.0;0.0;1.0;0.0;0.0
3.0;1753875189.23991;15.929078;0.79;-1.22;-0.14;0.943387;-0.346126;0.014374;91.0;0.0;0.0;1.0;0.0;0.0
3.0;1753875189.24464;15.919026;0.77;-1.29;-0.17;0.942699;-0.343777;0.015142;92.2;0.0;0.0;1.0;0.0;0.0
3.0;1753875189.24937;15.940067;0.77;-1.29;-0.17;0.943204;-0.346066;0.015133;89.4;0.0;0.0;1.0;0.0;0.0
3.0;1753875189.2541;15.934435;0.8;-1.22;-0.12;0.942444;-0.345368;0.013854;91.4;0.0;0.0;1.0;0.0;0.0
3.0;1753875189.25883;15.912939;0.8;-1.33;-0.15;0.941225;-0.344607;0.014671;90.6;0.0;0.0;1.0;0.0;0.0
3.0;1753875189.26356;15.919726;0.72;-1.31;-0.15;0.943281;-0.345221;0.015094;91.0;0.0;0.0;1.0;0.0;0.0
3.0;1753875189.26829;15.930432;0.75;-1.19;-0.26;0.942222;-0.344113;0.015602;94.2;0.0;0.0;1.0;0.0;0.0
3.0;1753875189.27302;15.929928;0.77;-1.22;-0.18;0.942159;-0.343621;0.014624;89.2;0.0;0.0;1.0;0.0;0.0
3.0;1753875189.27775;15.923763;0.85;-1.38;-0.15;0.941269;-0.345236;0.014274;90.6;0.0;0.0;1.0;0.0;0.0
3.0;1753875189.28248;15.93907;0.77;-1.18;-0.1;0.94241;-0.346192;0.014787;88.5;0.0;0.0;1.0;0.0;0.0
3.0;1753875189.28721;15.913127;0.73;-1.32;-0.22;0.943961;-0.344968;0.014075;92.9;0.0;0.0;1.0;0.0;0.0
3.0;1753875189.29194;15.904089;0.75;-1.35;-0.2;0.943256;-0.345317;0.014405;91.2;0.0;0.0;1.0;0.0;0.0
3.0;1753875189.29667;15.901291;0.78;-1.25;-0.18;0.941518;-0.345009;0.015465;91.5;0.0;0.0;1.0;0.0;0.0
3.0;1753875189.3014;15.913887;0.76;-1.35;-0.1;0.941975;-0.345679;0.01318;89.4;0.0;0.0;1.0;0.0;0.0
3.0;1753875189.30613;15.904147;0.79;-1.26;-0.21;0.941891;-0.344675;0.014368;90.8;0.0;0.0;1.0;0.0;0.0
3.0;1753875189.31086;15.930043;0.82;-1.34;-0.08;0.942297;-0.345334;0.014012;92.2;0.0;0.0;1.0;0.0;0.0
3.0;1753875189.31559;15.919315;0.75;-1.37;-0.21;0.943504;-0.346552;0.014687;88.5;0.0;0.0;1.0;0.0;0.0
3.0;1753875189.32032;15.924999;0.76;-1.27;-0.09;0.941146;-0.343746;0.014498;90.3;0.0;0.0;1.0;0.0;0.0
3.0;1753875189.32505;15.917173;0.76;-1.28;-0.13;0.94195;-0.344588;0.014917;90.3;0.0;0.0;1.0;0.0;0.0
3.0;1753875189.32978;15.939644;0.78;-1.27;-0.18;0.94271;-0.345119;0.013138;88.9;0.0;0.0;1.0;0.0;0.0
3.0;1753875189.334509;15.910401;0.77;-1.41;-0.16;0.942636;-0.343755;0.015185;88.3;0.0;0.0;1.0;0.0;0.0
3.0;1753875189.339239;15.908765;0.85;-1.29;-0.07;0.941149;-0.345413;0.014959;87.9;0.0;0.0;1.0;0.0;0.0
3.0;1753875189.343969;15.924011;0.7;-1.27;-0.21;0.941624;-0.345111;0.014551;90.9;0.0;0.0;1.0;0.0;0.0
3.0;1753875189.348699;15.899628;0.69;-1.39;-0.2;0.942164;-0.34547;0.014549;91.9;0.0;0.0;1.0;0.0;0.0
3.0;1753875189.353429;15.901077;0.77;-1.34;-0.15;0.943842;-0.343425;0.014096;91.5;0.0;0.0;1.0;0.0;0.0
3.0;1753875189.358159;15.897053;0.83;-1.25;-0.13;0.942325;-0.34274;0.015043;89.3;0.0;0.0;1.0;0.0;0.0
3.0;1753875189.362889;15.932434;0.87;-1.35;-0.19;0.942687;-0.345748;0.014503;89.1;0.0;0.0;1.0;0.0;0.0
3.0;1753875189.367619;15.915949;0.79;-1.18;-0.15;0.942735;-0.343826;0.014454;89.7;0.0;0.0;1.0;0.0;0.0
3.0;1753875189.372349;15.917963;0.86;-1.3;-0.16;0.943149;-0.343525;0.014656;92.0;0.0;0.0;1.0;0.0;0.0
3.0;1753875189.377079;15.923361;0.73;-1.36;-0.15;0.942689;-0.344935;0.01497;92.1;0.0;0.0;1.0;0.0;0.0
3.0;1753875189.381809;15.92726;0.76;-1.23;-0.16;0.94368;-0.344959;0.013832;88.2;0.0;0.0;1.0;0.0;0.0
3.0;1753875189.386539;15.920916;0.82;-1.37;-0.09;0.941344;-0.344381;0.01431;85.6;0.0;0.0;1.0;0.0;0.0
3.0;1753875189.391269;15.907855;0.8;-1.35;-0.15;0.942518;-0.345377;0.01368;92.3;0.0;0.0;1.0;0.0;0.0
3.0;1753875189.395999;15.926049;0.79;-1.31;-0.22;0.941459;-0.343936;0.014125;89.4;0.0;0.0;1.0;0.0;0.0
3.0;1753875189.400729;15.90938;0.75;-1.19;-0.2;0.942616;-0.3441;0.013558;91.3;0.0;0.0;1.0;0.0;0.0
3.0;1753875189.405459;15.929521;0.78;-1.34;-0.1;0.942241;-0.344278;0.015344;91.9;0.0;0.0;1.0;0.0;0.0
3.0;1753875189.410189;15.924644;0.78;-1.27;-0.13;0.943704;-0.344651;0.014783;91.7;0.0;0.0;1.0;0.0;0.0
3.0;1753875189.414919;15.923531;0.68;-1.22;-0.17;0.943399;-0.344271;0.013555;88.2;0.0;0.0;1.0;0.0;0.0
3.0;1753875189.419649;15.907688;0.89;-1.23;-0.12;0.942006;-0.34453;0.014788;94.6;0.0;0.0;1.0;0.0;0.0
3.0;1753875189.424379;15.922332;0.82;-1.24;-0.17;0.941296;-0.342751;0.015517;90.7;0.0;0.0;1.0;0.0;0.0
3.0;1753875189.429109;15.944513;0.88;-1.25;-0.15;0.942834;-0.343104;0.01511;87.9;0.0;0.0;1.0;0.0;0.0
3.0;1753875189.433839;15.931747;0.78;-1.32;-0.17;0.942017;-0.344704;0.014081;92.0;0.0;0.0;1.0;0.0;0.0
3.0;1753875189.438569;15.909854;0.84;-1.35;-0.23;0.943732;-0.344594;0.014771;93.5;0.0;0.0;1.0;0.0;0.0
3.0;1753875189.443299;15.930244;0.8;-1.34;-0.26;0.942859;-0.344672;0.013875;91.6;0.0;0.0;1.0;0.0;0.0
3.0;1753875189.448029;15.925045;0.68;-1.39;-0.18;0.943193;-0.344187;0.015017;90.8;0.0;0.0;1.0;0.0;0.0
3.0;1753875189.452759;15.93149;0.72;-1.17;-0.09;0.940921;-0.344886;0.014288;89.8;0.0;0.0;1.0;0.0;0.0
3.0;1753875189.457489;15.935426;0.82;-1.28;-0.16;0.941545;-0.342403;0.013233;90.6;0.0;0.0;1.0;0.0;0.0
3.0;1753875189.462219;15.939287;0.85;-1.42;-0.18;0.941842;-0.344807;0.014326;91.3;0.0;0.0;1.0;0.0;0.0
3.0;1753875189.466949;15.922776;0.73;-1.29;-0.19;0.941735;-0.344744;0.014115;88.6;0.0;0.0;1.0;0.0;0.0
3.0;1753875189.471679;15.905023;0.87;-1.19;-0.18;0.943001;-0.344746;0.014574;89.1;0.0;0.0;1.0;0.0;0.0
3.0;1753875189.476409;15.925467;0.82;-1.28;-0.23;0.942724;-0.344447;0.015059;91.1;0.0;0.0;1.0;0.0;0.0
3.0;1753875189.481139;15.932645;0.82;-1.32;-0.2;0.941501;-0.345936;0.014036;89.3;0.0;0.0;1.0;0.0;0.0
3.0;1753875189.485869;15.908998;0.72;-1.28;-0.15;0.943414;-0.342147;0.015014;89.7;0.0;0.0;1.0;0.0;0.0
3.0;1753875189.490599;15.923603;0.85;-1.19;-0.18;0.942211;-0.343094;0.014365;89.7;0.0;0.0;1.0;0.0;0.0
3.0;1753875189.495329;15.921132;0.85;-1.35;-0.21;0.941413;-0.345416;0.014337;86.4;0.0;0.0;1.0;0.0;0.0
3.0;1753875189.500059;15.945753;0.85;-1.36;-0.24;0.942235;-0.344553;0.013596;86.7;0.0;0.0;1.0;0.0;0.0
3.0;1753875189.504789;15.940266;0.83;-1.29;-0.08;0.942473;-0.345035;0.015031;93.4;0.0;0.0;1.0;0.0;0.0
3.0;1753875189.509519;15.946677;0.84;-1.34;-0.16;0.942236;-0.344902;0.013969;90.9;0.0;0.0;1.0;0.0;0.0
3.0;1753875189.514249;15.939833;0.84;-1.3;-0.2;0.942321;-0.344362;0.014491;93.5;0.0;0.0;1.0;0.0;0.0
3.0;1753875189.518979;15.916789;0.74;-1.33;-0.16;0.942628;-0.343797;0.013895;90.2;0.0;0.0;1.0;0.0;0.0
3.0;1753875189.523709;15.92238;0.68;-1.3;-0.21;0.942873;-0.3439;0.014676;87.2;0.0;0.0;1.0;0.0;0.0
3.0;1753875189.528439;15.89303;0.8;-1.38;-0.26;0.943471;-0.345617;0.013676;88.7;0.0;0.0;1.0;0.0;0.0
3.0;1753875189.533169;15.89135;0.83;-1.3;-0.25;0.942008;-0.34412;0.014281;89.5;0.0;0.0;1.0;0.0;0.0
3.0;1753875189.537899;15.928086;0.76;-1.29;-0.17;0.941958;-0.343907;0.014345;89.7;0.0;0.0;1.0;0.0;0.0
3.0;1753875189.542629;15.94769;0.77;-1.42;-0.11;0.943401;-0.343304;0.014798;93.2;0.0;0.0;1.0;0.0;0.0
3.0;1753875189.547359;15.910168;0.84;-1.3;-0.23;0.941797;-0.344611;0.01449;91.9;0.0;0.0;1.0;0.0;0.0
3.0;1753875189.552089;15.921405;0.78;-1.33;-0.17;0.943101;-0.344434;0.013867;90.8;0.0;0.0;1.0;0.0;0.0
3.0;1753875189.556819;15.906291;0.8;-1.33;-0.1;0.942861;-0.342129;0.014872;93.0;0.0;0.0;1.0;0.0;0.0
3.0;1753875189.561549;15.933573;0.74;-1.31;-0.21;0.942827;-0.344276;0.014896;91.3;0.0;0.0;1.0;0.0;0.0
3.0;1753875189.566279;15.917793;0.79;-1.32;-0.15;0.943378;-0.343155;0.014438;90.2;0.0;0.0;1.0;0.0;0.0
3.0;1753875189.571009;15.905486;0.74;-1.35;-0.23;0.941769;-0.342005;0.013089;95.2;0.0;0.0;1.0;0.0;0.0
3.0;1753875189.575739;15.923591;0.84;-1.39;-0.09;0.942057;-0.343672;0.013783;90.2;0.0;0.0;1.0;0.0;0.0
3.0;1753875189.580469;15.928818;0.83;-1.33;-0.1;0.942575;-0.342085;0.01435;90.1;0.0;0.0;1.0;0.0;0.0
3.0;1753875189.585199;15.928634;0.9;-1.35;-0.12;0.943373;-0.343018;0.014705;90.6;0.0;0.0;1.0;0.0;0.0
3.0;1753875189.589929;15.925615;0.85;-1.37;-0.17;0.943197;-0.342016;0.014264;90.2;0.0;0.0;1.0;0.0;0.0
3.0;1753875189.594658;15.907268;0.8;-1.37;-0.14;0.942839;-0.343132;0.014756;91.4;0.0;0.0;1.0;0.0;0.0
3.0;1753875189.599388;15.938386;0.83;-1.24;-0.16;0.943897;-0.343862;0.015064;90.3;0.0;0.0;1.0;0.0;0.0
3.0;1753875189.604118;15.915099;0.85;-1.25;-0.23;0.942312;-0.343868;0.015228;94.3;0.0;0.0;1.0;0.0;0.0
3.0;1753875189.608848;15.940504;0.85;-1.33;-0.17;0.942624;-0.343332;0.014097;92.4;0.0;0.0;1.0;0.0;0.0
3.0;1753875189.613578;15.920163;0.87;-1.39;-0.35;0.942938;-0.343649;0.013559;89.6;0.0;0.0;1.0;0.0;0.0
3.0;1753875189.618308;15.906981;0.78;-1.37;-0.15;0.944021;-0.344673;0.014605;92.7;0.0;0.0;1.0;0.0;0.0
3.0;1753875189.623038;15.924102;0.81;-1.29;-0.16;0.943222;-0.343364;0.014847;93.0;0.0;0.0;1.0;0.0;0.0
3.0;1753875189.627768;15.926895;0.83;-1.32;-0.2;0.941483;-0.343827;0.014028;90.6;0.0;0.0;1.0;0.0;0.0
3.0;1753875189.632498;15.916661;0.92;-1.38;-0.2;0.942929;-0.341539;0.013504;90.7;0.0;0.0;1.0;0.0;0.0
3.0;1753875189.637228;15.940908;0.7;-1.36;-0.17;0.942342;-0.343264;0.01426;92.3;0.0;0.0;1.0;0.0;0.0
3.0;1753875189.641958;15.933668;0.94;-1.37;-0.22;0.94157;-0.343018;0.014732;89.9;0.0;0.0;1.0;0.0;0.0
3.0;1753875189.646688;15.93087;0.82;-1.39;-0.1;0.942707;-0.344759;0.014795;92.8;0.0;0.0;1.0;0.0;0.0
3.0;1753875189.651418;15.931308;0.81;-1.4;-0.16;0.943112;-0.342834;0.01417;95.2;0.0;0.0;1.0;0.0;0.0
3.0;1753875189.656148;15.917738;0.78;-1.25;-0.18;0.945328;-0.343636;0.014642;90.3;0.0;0.0;1.0;0.0;0.0
3.0;1753875189.660878;15.934917;0.8;-1.37;-0.22;0.943279;-0.342941;0.015008;91.6;0.0;0.0;1.0;0.0;0.0
3.0;1753875189.665608;15.927931;0.75;-1.27;-0.15;0.943741;-0.342259;0.01482;91.9;0.0;0.0;1.0;0.0;0.0
3.0;1753875189.670338;15.947741;0.75;-1.38;-0.28;0.943505;-0.343927;0.014554;92.6;0.0;0.0;1.0;0.0;0.0
3.0;1753875189.675068;15.91317;0.75;-1.34;-0.13;0.943805;-0.342838;0.013132;91.1;0.0;0.0;1.0;0.0;0.0
3.0;1753875189.679798;15.928786;0.87;-1.26;-0.2;0.942669;-0.343987;0.014447;92.2;0.0;0.0;1.0;0.0;0.0
3.0;1753875189.684528;15.930242;0.75;-1.39;-0.23;0.941805;-0.343449;0.015025;92.4;0.0;0.0;1.0;0.0;0.0
3.0;1753875189.689258;15.906911;0.78;-1.4;-0.2;0.940703;-0.343403;0.013552;89.7;0.0;0.0;1.0;0.0;0.0
3.0;1753875189.693988;15.914238;0.94;-1.43;-0.18;0.942565;-0.343485;0.014775;91.3;0.0;0.0;1.0;0.0;0.0
3.0;1753875189.698718;15.944127;0.79;-1.39;-0.16;0.94175;-0.342279;0.01429;92.3;0.0;0.0;1.0;0.0;0.0
3.0;1753875189.703448;15.899041;0.82;-1.19;-0.14;0.943387;-0.341648;0.014293;92.1;0.0;0.0;1.0;0.0;0.0
3.0;1753875189.708178;15.93189;0.72;-1.27;-0.22;0.942299;-0.344367;0.014896;93.0;0.0;0.0;1.0;0.0;0.0
3.0;1753875189.712908;15.939759;0.82;-1.29;-0.16;0.944067;-0.343838;0.01425;90.5;0.0;0.0;1.0;0.0;0.0
3.0;1753875189.717638;15.915481;0.89;-1.34;-0.21;0.94213;-0.343388;0.014377;94.8;0.0;0.0;1.0;0.0;0.0
3.0;1753875189.722368;15.923194;0.77;-1.37;-0.2;0.94213;-0.342131;0.01375;89.3;0.0;0.0;1.0;0.0;0.0
3.0;1753875189.727098;15.932668;0.83;-1.35;-0.2;0.944642;-0.342928;0.01399;87.0;0.0;0.0;1.0;0.0;0.0
3.0;1753875189.731828;15.922588;0.83;-1.3;-0.15;0.942285;-0.343199;0.014224;92.1;0.0;0.0;1.0;0.0;0.0
3.0;1753875189.736558;15.938859;0.82;-1.44;-0.19;0.943455;-0.345092;0.014882;90.2;0.0;0.0;1.0;0.0;0.0
3.0;1753875189.741288;15.915674;0.87;-1.31;-0.3;0.942566;-0.342924;0.01459;94.9;0.0;0.0;1.0;0.0;0.0
3.0;1753875189.746018;15.905891;0.87;-1.38;-0.18;0.942369;-0.342928;0.014125;91.5;0.0;0.0;1.0;0.0;0.0
3.0;1753875189.750748;15.929981;0.87;-1.38;-0.13;0.942507;-0.34378;0.014437;92.9;0.0;0.0;1.0;0.0;0.0
3.0;1753875189.755478;15.898841;0.73;-1.24;-0.22;0.943552;-0.343225;0.01386;88.8;0.0;0.0;1.0;0.0;0.0
3.0;1753875189.760208;15.905447;0.84;-1.37;-0.18;0.942488;-0.343197;0.014392;92.6;0.0;0.0;1.0;0.0;0.0
3.0;1753875189.764938;15.935415;0.86;-1.31;-0.14;0.942345;-0.341809;0.014233;91.7;0.0;0.0;1.0;0.0;0.0
3.0;1753875189.769668;15.942477;0.88;-1.41;-0.16;0.942944;-0.342561;0.013388;88.8;0.0;0.0;1.0;0.0;0.0
3.0;1753875189.774398;15.934073;0.87;-1.39;-0.11;0.94301;-0.342428;0.013821;91.5;0.0;0.0;1.0;0.0;0.0
3.0;1753875189.779128;15.932442;0.85;-1.26;-0.25;0.942423;-0.342732;0.014545;89.8;0.0;0.0;1.0;0.0;0.0
3.0;1753875189.783858;15.91171;0.83;-1.34;-0.23;0.942512;-0.344572;0.01372;93.8;0.0;0.0;1.0;0.0;0.0
3.0;1753875189.788588;15.907993;0.82;-1.43;-0.2;0.941924;-0.341188;0.013772;90.8;0.0;0.0;1.0;0.0;0.0
3.0;1753875189.793318;15.93035;0.85;-1.37;-0.2;0.942684;-0.342345;0.013671;93.4;0.0;0.0;1.0;0.0;0.0
3.0;1753875189.798048;15.921885;0.86;-1.4;-0.24;0.943389;-0.34382;0.01545;95.6;0.0;0.0;1.0;0.0;0.0
3.0;1753875189.802778;15.918308;0.81;-1.35;-0.13;0.942495;-0.342637;0.013467;89.9;0.0;0.0;1.0;0.0;0.0
3.0;1753875189.807508;15.926242;0.87;-1.28;-0.11;0.942076;-0.342408;0.014934;90.3;0.0;0.0;1.0;0.0;0.0
3.0;1753875189.812238;15.904908;0.87;-1.41;-0.19;0.943473;-0.342809;0.01363;90.0;0.0;0.0;1.0;0.0;0.0
3.0;1753875189.816968;15.922189;0.81;-1.39;-0.13;0.942746;-0.343037;0.014148;90.0;0.0;0.0;1.0;0.0;0.0
3.0;1753875189.821698;15.937857;0.81;-1.34;-0.2;0.942733;-0.3432;0.013893;94.2;0.0;0.0;1.0;0.0;0.0
3.0;1753875189.826428;15.957598;0.76;-1.34;-0.15;0.943045;-0.342889;0.013929;93.1;0.0;0.0;1.0;0.0;0.0
3.0;1753875189.831158;15.920913;0.76;-1.42;-0.13;0.941683;-0.345343;0.012685;88.0;0.0;0.0;1.0;0.0;0.0
3.0;1753875189.835888;15.947476;0.86;-1.32;-0.17;0.944398;-0.341749;0.015302;92.0;0.0;0.0;1.0;0.0;0.0
3.0;1753875189.840618;15.936593;0.86;-1.51;-0.22;0.944251;-0.341488;0.014155;96.0;0.0;0.0;1.0;0.0;0.0
3.0;1753875189.845348;15.943876;0.83;-1.46;-0.23;0.943444;-0.343224;0.013051;93.5;0.0;0.0;1.0;0.0;0.0
3.0;1753875189.850078;15.909078;0.81;-1.29;-0.22;0.941885;-0.342541;0.014187;87.7;0.0;0.0;1.0;0.0;0.0
3.0;1753875189.854808;15.923793;0.89;-1.4;-0.23;0.942436;-0.343308;0.014616;90.1;0.0;0.0;1.0;0.0;0.0
3.0;1753875189.859538;15.910215;0.88;-1.36;-0.19;0.944333;-0.341332;0.014182;93.2;0.0;0.0;1.0;0.0;0.0
3.0;1753875189.864268;15.932969;0.8;-1.44;-0.23;0.944317;-0.341393;0.014012;89.7;0.0;0.0;1.0;0.0;0.0
3.0;1753875189.868998;15.913644;0.88;-1.42;-0.27;0.944308;-0.342118;0.015583;92.5;0.0;0.0;1.0;0.0;0.0
3.0;1753875189.873728;15.917846;0.81;-1.37;-0.27;0.943975;-0.341559;0.01344;93.4;0.0;0.0;1.0;0.0;0.0
3.0;1753875189.878458;15.928281;0.83;-1.37;-0.2;0.942948;-0.341166;0.014858;92.1;0.0;0.0;1.0;0.0;0.0
3.0;1753875189.883188;15.898207;0.72;-1.33;-0.17;0.942867;-0.342368;0.015637;89.9;0.0;0.0;1.0;0.0;0.0
3.0;1753875189.887918;15.911857;0.72;-1.4;-0.07;0.942561;-0.343525;0.014351;87.4;0.0;0.0;1.0;0.0;0.0
3.0;1753875189.892648;15.919962;0.81;-1.53;-0.27;0.941818;-0.34286;0.013507;92.7;0.0;0.0;1.0;0.0;0.0
3.0;1753875189.897378;15.918809;0.75;-1.43;-0.21;0.94293;-0.344461;0.013814;88.3;0.0;0.0;1.0;0.0;0.0
3.0;1753875189.902108;15.95558;0.79;-1.34;-0.28;0.943154;-0.342879;0.014543;89.6;0.0;0.0;1.0;0.0;0.0
3.0;1753875189.906838;15.909676;0.88;-1.35;-0.29;0.944911;-0.343768;0.014554;91.4;0.0;0.0;1.0;0.0;0.0
3.0;1753875189.911568;15.935656;0.82;-1.48;-0.19;0.943161;-0.341891;0.013343;92.1;0.0;0.0;1.0;0.0;0.0
3.0;1753875189.916298;15.92376;0.83;-1.36;-0.19;0.94343;-0.340884;0.014855;91.4;0.0;0.0;1.0;0.0;0.0
3.0;1753875189.921028;15.934135;0.83;-1.37;-0.16;0.943176;-0.342402;0.014422;91.3;0.0;0.0;1.0;0.0;0.0
3.0;1753875189.925758;15.923955;0.84;-1.35;-0.25;0.943647;-0.34251;0.01303;92.8;0.0;0.0;1.0;0.0;0.0
3.0;1753875189.930488;15.930959;0.87;-1.31;-0.16;0.941446;-0.343008;0.014796;88.0;0.0;0.0;1.0;0.0;0.0
3.0;1753875189.935218;15.927648;0.8;-1.38;-0.27;0.943011;-0.341622;0.014476;89.7;0.0;0.0;1.0;0.0;0.0
3.0;1753875189.939948;15.926876;0.89;-1.35;-0.25;0.943465;-0.342806;0.015239;91.7;0.0;0.0;1.0;0.0;0.0
3.0;1753875189.944678;15.932889;0.79;-1.39;-0.21;0.943139;-0.342016;0.015389;91.5;0.0;0.0;1.0;0.0;0.0
3.0;1753875189.949408;15.955599;0.81;-1.46;-0.19;0.942428;-0.342327;0.01324;92.5;0.0;0.0;1.0;0.0;0.0
3.0;1753875189.954138;15.934136;1.02;-1.36;-0.33;0.941981;-0.343609;0.014761;89.8;0.0;0.0;1.0;0.0;0.0
3.0;1753875189.958868;15.934074;0.91;-1.45;-0.26;0.943496;-0.343119;0.014645;90.5;0.0;0.0;1.0;0.0;0.0
3.0;1753875189.963598;15.932778;0.86;-1.34;-0.22;0.94325;-0.34436;0.013441;91.1;0.0;0.0;1.0;0.0;0.0
3.0;1753875189.968328;15.926777;0.78;-1.37;-0.17;0.941558;-0.341387;0.014062;91.1;0.0;0.0;1.0;0.0;0.0
3.0;1753875189.973058;15.916382;0.84;-1.34;-0.22;0.941233;-0.34314;0.014184;93.6;0.0;0.0;1.0;0.0;0.0
3.0;1753875189.977788;15.933164;0.82;-1.32;-0.23;0.941542;-0.341072;0.014827;91.7;0.0;0.0;1.0;0.0;0.0
3.0;1753875189.982518;15.951111;0.81;-1.42;-0.25;0.942698;-0.34371;0.014528;91.8;0.0;0.0;1.0;0.0;0.0
3.0;1753875189.991;15.921875;0.84;-1.4;-0.21;0.942938;-0.342332;0.01403;91.0;0.0;0.0;1.0;0.0;0.0
3.0;1753875189.99861;15.9375;0.7;-1.26;-0.21;0.942938;-0.34282;0.013542;90.0;0.0;0.0;1.0;0.0;0.0
3.0;1753875189.998702;15.960938;0.77;-1.33;-0.21;0.942572;-0.345138;0.013664;89.0;0.0;0.0;1.0;0.0;0.0
3.0;1753875190.003432;15.950867;0.67;-1.31;-0.16;0.941993;-0.345279;0.01304;86.9;0.0;0.0;1.0;0.0;0.0
3.0;1753875190.008162;15.97449;0.79;-1.4;-0.21;0.942672;-0.346194;0.013575;85.9;0.0;0.0;1.0;0.0;0.0
3.0;1753875190.012892;15.953768;0.8;-1.34;-0.22;0.941448;-0.343685;0.013523;89.7;0.0;0.0;1.0;0.0;0.0
3.0;1753875190.017622;15.960236;0.87;-1.35;-0.17;0.941358;-0.343913;0.014187;88.3;0.0;0.0;1.0;0.0;0.0
3.0;1753875190.022352;15.957483;0.79;-1.27;-0.18;0.943562;-0.346441;0.013575;88.1;0.0;0.0;1.0;0.0;0.0
3.0;1753875190.027082;15.943044;0.71;-1.36;-0.19;0.943164;-0.346999;0.013705;87.9;0.0;0.0;1.0;0.0;0.0
3.0;1753875190.031812;16.026427;0.75;-1.38;-0.25;0.943011;-0.344143;0.013418;87.2;0.0;0.0;1.0;0.0;0.0
3.0;1753875190.036542;15.977029;0.71;-1.32;-0.18;0.942299;-0.34321;0.014042;87.4;0.0;0.0;1.0;0.0;0.0
3.0;1753875190.041272;15.928571;0.88;-1.38;-0.24;0.942411;-0.344399;0.013342;92.0;0.0;0.0;1.0;0.0;0.0
3.0;1753875190.046002;15.962893;0.76;-1.36;-0.26;0.941218;-0.342854;0.013367;88.0;0.0;0.0;1.0;0.0;0.0
3.0;1753875190.050732;15.964445;0.79;-1.28;-0.23;0.94193;-0.346154;0.013685;89.1;0.0;0.0;1.0;0.0;0.0
3.0;1753875190.055462;15.953105;0.65;-1.31;-0.16;0.941857;-0.346816;0.013421;86.3;0.0;0.0;1.0;0.0;0.0
3.0;1753875190.060192;15.949792;0.74;-1.32;-0.27;0.942298;-0.345093;0.012642;88.5;0.0;0.0;1.0;0.0;0.0
3.0;1753875190.064922;15.971262;0.83;-1.25;-0.19;0.942804;-0.342252;0.013902;87.2;0.0;0.0;1.0;0.0;0.0
3.0;1753875190.069652;15.967443;0.69;-1.37;-0.21;0.942528;-0.346514;0.013762;91.3;0.0;0.0;1.0;0.0;0.0
3.0;1753875190.074382;15.9595;0.78;-1.31;-0.23;0.943212;-0.343501;0.013293;89.1;0.0;0.0;1.0;0.0;0.0
3.0;1753875190.079112;15.979845;0.81;-1.27;-0.2;0.94222;-0.346109;0.013502;88.6;0.0;0.0;1.0;0.0;0.0
3.0;1753875190.083842;15.965202;0.7;-1.3;-0.22;0.942669;-0.347057;0.013451;87.2;0.0;0.0;1.0;0.0;0.0
3.0;1753875190.088572;16.000185;0.7;-1.36;-0.2;0.942423;-0.344647;0.012923;89.5;0.0;0.0;1.0;0.0;0.0
3.0;1753875190.093302;15.990498;0.8;-1.34;-0.22;0.942534;-0.345679;0.013549;89.1;0.0;0.0;1.0;0.0;0.0
3.0;1753875190.098032;15.954619;0.69;-1.25;-0.22;0.941483;-0.34631;0.014101;91.2;0.0;0.0;1.0;0.0;0.0
3.0;1753875190.102762;15.94122;0.75;-1.25;-0.13;0.941782;-0.346132;0.014113;89.5;0.0;0.0;1.0;0.0;0.0
3.0;1753875190.107492;15.940861;0.76;-1.39;-0.19;0.942339;-0.345704;0.013606;93.5;0.0;0.0;1.0;0.0;0.0
3.0;1753875190.112222;15.956859;0.66;-1.36;-0.23;0.942038;-0.347098;0.013699;86.6;0.0;0.0;1.0;0.0;0.0
3.0;1753875190.116952;15.935429;0.77;-1.25;-0.21;0.941925;-0.344036;0.013894;86.7;0.0;0.0;1.0;0.0;0.0
3.0;1753875190.121682;15.963782;0.73;-1.39;-0.21;0.942566;-0.343775;0.013445;89.2;0.0;0.0;1.0;0.0;0.0
3.0;1753875190.126412;15.943945;0.61;-1.38;-0.18;0.942744;-0.345798;0.013679;88.8;0.0;0.0;1.0;0.0;0.0
3.0;1753875190.131142;15.963954;0.71;-1.24;-0.26;0.941362;-0.344922;0.013505;85.2;0.0;0.0;1.0;0.0;0.0
3.0;1753875190.135872;15.975625;0.68;-1.36;-0.11;0.943407;-0.343232;0.013789;87.7;0.0;0.0;1.0;0.0;0.0
3.0;1753875190.140602;15.949288;0.68;-1.32;-0.21;0.941941;-0.345006;0.013412;87.6;0.0;0.0;1.0;0.0;0.0
3.0;1753875190.145332;15.980138;0.73;-1.24;-0.22;0.942845;-0.34742;0.014664;92.1;0.0;0.0;1.0;0.0;0.0
3.0;1753875190.150062;15.937977;0.8;-1.32;-0.19;0.941325;-0.344068;0.01403;86.9;0.0;0.0;1.0;0.0;0.0
3.0;1753875190.154792;15.939774;0.81;-1.33;-0.22;0.941823;-0.344628;0.012474;87.6;0.0;0.0;1.0;0.0;0.0
3.0;1753875190.159522;15.975978;0.65;-1.29;-0.2;0.941797;-0.342194;0.013554;87.6;0.0;0.0;1.0;0.0;0.0
3.0;1753875190.164252;15.949898;0.66;-1.37;-0.24;0.943001;-0.34499;0.01434;84.2;0.0;0.0;1.0;0.0;0.0
3.0;1753875190.168982;15.935661;0.65;-1.33;-0.23;0.941278;-0.343957;0.013459;90.3;0.0;0.0;1.0;0.0;0.0
3.0;1753875190.173712;15.962909;0.65;-1.28;-0.18;0.941994;-0.343709;0.014223;89.8;0.0;0.0;1.0;0.0;0.0
3.0;1753875190.178442;15.974129;0.75;-1.35;-0.22;0.941533;-0.344339;0.0145;91.7;0.0;0.0;1.0;0.0;0.0
3.0;1753875190.183172;15.956899;0.69;-1.37;-0.15;0.941647;-0.344114;0.013744;89.9;0.0;0.0;1.0;0.0;0.0
3.0;1753875190.187902;15.981285;0.71;-1.37;-0.22;0.942326;-0.346495;0.01401;91.6;0.0;0.0;1.0;0.0;0.0
3.0;1753875190.192632;15.944796;0.73;-1.25;-0.24;0.941569;-0.34445;0.014424;88.4;0.0;0.0;1.0;0.0;0.0
3.0;1753875190.197362;15.977128;0.75;-1.33;-0.23;0.94189;-0.345515;0.013878;88.1;0.0;0.0;1.0;0.0;0.0
3.0;1753875190.202092;15.952168;0.74;-1.34;-0.28;0.94207;-0.345737;0.013889;86.5;0.0;0.0;1.0;0.0;0.0
3.0;1753875190.206822;15.996126;0.71;-1.4;-0.23;0.94292;-0.346395;0.013422;88.5;0.0;0.0;1.0;0.0;0.0
3.0;1753875190.211552;15.985197;0.67;-1.34;-0.2;0.942258;-0.344263;0.013915;91.0;0.0;0.0;1.0;0.0;0.0
3.0;1753875190.216282;15.93494;0.8;-1.36;-0.21;0.942261;-0.34453;0.013504;86.5;0.0;0.0;1.0;0.0;0.0
3.0;1753875190.221012;15.936676;0.72;-1.31;-0.12;0.941824;-0.344979;0.013178;87.6;0.0;0.0;1.0;0.0;0.0
3.0;1753875190.225742;15.987119;0.71;-1.29;-0.16;0.941582;-0.344753;0.014694;88.4;0.0;0.0;1.0;0.0;0.0
3.0;1753875190.230471;15.970294;0.74;-1.39;-0.26;0.942296;-0.34419;0.013308;90.4;0.0;0.0;1.0;0.0;0.0
3.0;1753875190.235201;15.940243;0.64;-1.3;-0.21;0.941761;-0.345691;0.014293;88.2;0.0;0.0;1.0;0.0;0.0
3.0;1753875190.239931;15.975409;0.79;-1.32;-0.2;0.942434;-0.343599;0.013645;89.3;0.0;0.0;1.0;0.0;0.0
3.0;1753875190.244661;15.943023;0.64;-1.41;-0.21;0.941673;-0.346673;0.014276;87.2;0.0;0.0;1.0;0.0;0.0
3.0;1753875190.249391;15.971984;0.66;-1.27;-0.16;0.941634;-0.344942;0.013892;85.4;0.0;0.0;1.0;0.0;0.0
3.0;1753875190.254121;15.944624;0.72;-1.37;-0.21;0.942159;-0.345333;0.01349;87.9;0.0;0.0;1.0;0.0;0.0
3.0;1753875190.258851;15.956597;0.75;-1.34;-0.24;0.942046;-0.343979;0.013821;88.9;0.0;0.0;1.0;0.0;0.0
3.0;1753875190.263581;15.9549;0.65;-1.29;-0.25;0.942406;-0.343925;0.014218;88.6;0.0;0.0;1.0;0.0;0.0
3.0;1753875190.268311;15.977748;0.81;-1.25;-0.2;0.941163;-0.343728;0.014193;88.2;0.0;0.0;1.0;0.0;0.0
3.0;1753875190.273041;15.998525;0.78;-1.32;-0.19;0.941471;-0.346097;0.014286;91.2;0.0;0.0;1.0;0.0;0.0
3.0;1753875190.277771;15.987818;0.68;-1.38;-0.18;0.941689;-0.34538;0.013412;87.5;0.0;0.0;1.0;0.0;0.0
3.0;1753875190.282501;15.943151;0.62;-1.33;-0.23;0.942518;-0.342628;0.01414;87.3;0.0;0.0;1.0;0.0;0.0
3.0;1753875190.287231;15.974264;0.74;-1.38;-0.2;0.941671;-0.346111;0.01375;87.4;0.0;0.0;1.0;0.0;0.0
3.0;1753875190.2938;15.960938;0.7;-1.33;-0.21;0.941718;-0.34465;0.013908;89.0;0.0;0.0;1.0;0.0;0.0
3.0;1753875190.29853;15.976044;0.65;-1.33;-0.21;0.941296;-0.343861;0.01413;89.7;0.0;0.0;1.0;0.0;0.0
3.0;1753875190.30326;15.95078;0.64;-1.26;-0.16;0.943148;-0.344784;0.014691;90.5;0.0;0.0;1.0;0.0;0.0
3.0;1753875190.30799;15.925678;0.9;-1.32;-0.24;0.941812;-0.343454;0.014144;90.6;0.0;0.0;1.0;0.0;0.0
3.0;1753875190.31272;15.924827;0.58;-1.31;-0.2;0.941448;-0.344777;0.014465;89.7;0.0;0.0;1.0;0.0;0.0
3.0;1753875190.31745;15.958766;0.75;-1.43;-0.23;0.941688;-0.343588;0.013176;90.7;0.0;0.0;1.0;0.0;0.0
3.0;1753875190.32218;15.925698;0.84;-1.44;-0.23;0.940911;-0.3445;0.013722;91.4;0.0;0.0;1.0;0.0;0.0
3.0;1753875190.327;15.945312;0.77;-1.4;-0.21;0.94184;-0.343918;0.013542;91.0;0.0;0.0;1.0;0.0;0.0
3.0;1753875190.33173;15.925705;0.59;-1.44;-0.21;0.941409;-0.343326;0.013072;90.4;0.0;0.0;1.0;0.0;0.0
3.0;1753875190.33646;15.965956;0.62;-1.25;-0.22;0.94209;-0.344302;0.013229;91.4;0.0;0.0;1.0;0.0;0.0
3.0;1753875190.34119;15.924785;0.64;-1.17;-0.15;0.942412;-0.344511;0.013407;92.5;0.0;0.0;1.0;0.0;0.0
3.0;1753875190.34592;15.921187;0.79;-1.27;-0.16;0.941921;-0.342976;0.013633;91.8;0.0;0.0;1.0;0.0;0.0
3.0;1753875190.35065;15.93758;0.76;-1.31;-0.13;0.940562;-0.344997;0.013771;90.0;0.0;0.0;1.0;0.0;0.0
3.0;1753875190.35757;15.945312;0.7;-1.19;-0.14;0.94184;-0.343918;0.013542;91.0;0.0;0.0;1.0;0.0;0.0
3.0;1753875190.3623;15.970289;0.72;-1.26;-0.2;0.941791;-0.343476;0.012788;91.9;0.0;0.0;1.0;0.0;0.0
3.0;1753875190.36703;15.929122;0.64;-1.22;-0.09;0.941906;-0.344155;0.013855;90.6;0.0;0.0;1.0;0.0;0.0
3.0;1753875190.37176;15.919432;0.86;-1.18;-0.18;0.941937;-0.344177;0.014487;91.1;0.0;0.0;1.0;0.0;0.0
3.0;1753875190.37649;15.952368;0.71;-1.21;-0.08;0.941866;-0.346766;0.014808;91.4;0.0;0.0;1.0;0.0;0.0
3.0;1753875190.38122;15.962261;0.77;-1.22;-0.17;0.941751;-0.344559;0.014366;90.5;0.0;0.0;1.0;0.0;0.0
3.0;1753875190.38595;15.948721;0.68;-1.25;-0.18;0.942632;-0.342734;0.015556;91.1;0.0;0.0;1.0;0.0;0.0
3.0;1753875190.39068;15.940987;0.81;-1.35;-0.18;0.942035;-0.344656;0.014365;90.9;0.0;0.0;1.0;0.0;0.0
3.0;1753875190.39541;15.951281;0.77;-1.21;-0.16;0.940897;-0.34451;0.015186;91.0;0.0;0.0;1.0;0.0;0.0
3.0;1753875190.40366;15.945312;0.77;-1.26;-0.21;0.941352;-0.344894;0.014884;91.0;0.0;0.0;1.0;0.0;0.0
3.0;1753875190.40839;15.953613;0.71;-1.38;-0.2;0.940361;-0.343991;0.014155;90.6;0.0;0.0;1.0;0.0;0.0
3.0;1753875190.41312;15.937298;0.73;-1.27;-0.23;0.94186;-0.344767;0.014056;89.7;0.0;0.0;1.0;0.0;0.0
3.0;1753875190.41785;15.938232;0.72;-1.24;-0.22;0.941285;-0.343789;0.015115;91.0;0.0;0.0;1.0;0.0;0.0
3.0;1753875190.42258;15.950559;0.83;-1.32;-0.22;0.941102;-0.344663;0.015022;91.3;0.0;0.0;1.0;0.0;0.0
3.0;1753875190.42731;15.943611;0.81;-1.18;-0.16;0.942161;-0.343915;0.013545;91.4;0.0;0.0;1.0;0.0;0.0
3.0;1753875190.43204;15.91672;0.78;-1.26;-0.22;0.943929;-0.343893;0.013726;91.4;0.0;0.0;1.0;0.0;0.0
3.0;1753875190.43677;15.940653;0.81;-1.3;-0.23;0.942324;-0.345517;0.015211;90.6;0.0;0.0;1.0;0.0;0.0
3.0;1753875190.4415;15.908344;0.74;-1.17;-0.17;0.942522;-0.343203;0.014218;90.0;0.0;0.0;1.0;0.0;0.0
3.0;1753875190.44623;15.913706;0.79;-1.28;-0.22;0.942938;-0.344311;0.015446;89.8;0.0;0.0;1.0;0.0;0.0
3.0;1753875190.45061;15.929688;0.77;-1.26;-0.21;0.94245;-0.343552;0.014518;91.0;0.0;0.0;1.0;0.0;0.0
3.0;1753875190.45534;15.957043;0.82;-1.31;-0.22;0.941979;-0.34409;0.01392;91.4;0.0;0.0;1.0;0.0;0.0
3.0;1753875190.46007;15.923585;0.68;-1.36;-0.22;0.942809;-0.34425;0.01485;91.6;0.0;0.0;1.0;0.0;0.0
3.0;1753875190.4648;15.941772;0.64;-1.25;-0.2;0.941543;-0.342311;0.015509;91.5;0.0;0.0;1.0;0.0;0.0
3.0;1753875190.46953;15.932316;0.79;-1.25;-0.19;0.942723;-0.343417;0.014625;90.7;0.0;0.0;1.0;0.0;0.0
3.0;1753875190.47426;15.919516;0.66;-1.22;-0.22;0.942916;-0.343463;0.015633;92.6;0.0;0.0;1.0;0.0;0.0
3.0;1753875190.47899;15.927783;0.85;-1.29;-0.24;0.940632;-0.345364;0.013931;91.5;0.0;0.0;1.0;0.0;0.0
3.0;1753875190.48372;15.934701;0.69;-1.29;-0.26;0.942333;-0.343929;0.014064;91.9;0.0;0.0;1.0;0.0;0.0
3.0;1753875190.48845;15.941017;0.7;-1.29;-0.18;0.941761;-0.344774;0.015783;90.8;0.0;0.0;1.0;0.0;0.0
3.0;1753875190.49741;15.929688;0.7;-1.26;-0.21;0.941596;-0.34465;0.015006;91.0;0.0;0.0;1.0;0.0;0.0
3.0;1753875190.50214;15.946668;0.7;-1.25;-0.29;0.942023;-0.344745;0.014718;90.7;0.0;0.0;1.0;0.0;0.0
3.0;1753875190.50687;15.927827;0.71;-1.24;-0.25;0.941987;-0.344655;0.014819;93.0;0.0;0.0;1.0;0.0;0.0
3.0;1753875190.5116;15.93711;0.73;-1.25;-0.19;0.942019;-0.344094;0.014436;91.0;0.0;0.0;1.0;0.0;0.0
3.0;1753875190.51633;15.890068;0.71;-1.18;-0.22;0.940906;-0.344424;0.015197;89.9;0.0;0.0;1.0;0.0;0.0
3.0;1753875190.52106;15.909458;0.7;-1.26;-0.18;0.941925;-0.344218;0.015134;90.7;0.0;0.0;1.0;0.0;0.0
3.0;1753875190.52579;15.925523;0.72;-1.27;-0.22;0.941935;-0.34365;0.015291;91.2;0.0;0.0;1.0;0.0;0.0
3.0;1753875190.53052;15.899722;0.79;-1.21;-0.22;0.941872;-0.344553;0.013882;88.9;0.0;0.0;1.0;0.0;0.0
3.0;1753875190.53525;15.939991;0.72;-1.27;-0.21;0.942101;-0.345106;0.015329;90.1;0.0;0.0;1.0;0.0;0.0
3.0;1753875190.53998;15.935208;0.69;-1.35;-0.23;0.941401;-0.345616;0.015167;89.7;0.0;0.0;1.0;0.0;0.0
3.0;1753875190.54471;15.914215;0.75;-1.26;-0.19;0.941321;-0.344212;0.01467;91.3;0.0;0.0;1.0;0.0;0.0
3.0;1753875190.54944;15.939389;0.73;-1.23;-0.2;0.940675;-0.345259;0.014292;90.1;0.0;0.0;1.0;0.0;0.0
3.0;1753875190.55417;15.938641;0.7;-1.39;-0.23;0.941131;-0.345878;0.013671;90.8;0.0;0.0;1.0;0.0;0.0
3.0;1753875190.5589;15.914014;0.81;-1.42;-0.2;0.941786;-0.345347;0.013431;91.4;0.0;0.0;1.0;0.0;0.0
3.0;1753875190.56363;15.936471;0.76;-1.3;-0.26;0.941091;-0.343814;0.015139;89.9;0.0;0.0;1.0;0.0;0.0
3.0;1753875190.56836;15.946996;0.71;-1.27;-0.22;0.941207;-0.344237;0.015293;90.7;0.0;0.0;1.0;0.0;0.0
3.0;1753875190.57309;15.942415;0.76;-1.22;-0.19;0.942126;-0.344729;0.013374;90.2;0.0;0.0;1.0;0.0;0.0
3.0;1753875190.57782;15.931113;0.82;-1.26;-0.18;0.941891;-0.344189;0.014825;89.8;0.0;0.0;1.0;0.0;0.0
3.0;1753875190.58255;15.955538;0.77;-1.37;-0.21;0.941151;-0.345836;0.013862;91.9;0.0;0.0;1.0;0.0;0.0
3.0;1753875190.58947;15.929688;0.77;-1.33;-0.21;0.941474;-0.34465;0.013908;91.0;0.0;0.0;1.0;0.0;0.0
3.0;1753875190.5942;15.911996;0.7;-1.3;-0.23;0.940962;-0.344346;0.014005;91.3;0.0;0.0;1.0;0.0;0.0
3.0;1753875190.59893;15.902344;0.81;-1.32;-0.18;0.941949;-0.344819;0.012514;91.4;0.0;0.0;1.0;0.0;0.0
3.0;1753875190.60366;15.952196;0.8;-1.26;-0.22;0.941883;-0.343607;0.014652;91.1;0.0;0.0;1.0;0.0;0.0
3.0;1753875190.60839;15.94644;0.74;-1.35;-0.22;0.94306;-0.344196;0.014372;90.2;0.0;0.0;1.0;0.0;0.0
3.0;1753875190.61312;15.919371;0.75;-1.35;-0.27;0.941114;-0.344324;0.01431;91.9;0.0;0.0;1.0;0.0;0.0
3.0;1753875190.61785;15.924895;0.73;-1.31;-0.3;0.940147;-0.344409;0.012599;89.8;0.0;0.0;1.0;0.0;0.0
3.0;1753875190.62258;15.942227;0.72;-1.38;-0.31;0.941346;-0.343554;0.013533;91.4;0.0;0.0;1.0;0.0;0.0
3.0;1753875190.62731;15.909615;0.7;-1.32;-0.25;0.942018;-0.345086;0.013621;92.3;0.0;0.0;1.0;0.0;0.0
3.0;1753875190.63204;15.910491;0.69;-1.31;-0.3;0.941998;-0.344155;0.013605;89.8;0.0;0.0;1.0;0.0;0.0
3.0;1753875190.63854;15.945312;0.7;-1.26;-0.28;0.941474;-0.34404;0.014152;91.0;0.0;0.0;1.0;0.0;0.0
3.0;1753875190.64327;15.957505;0.72;-1.24;-0.28;0.940845;-0.344049;0.013537;90.3;0.0;0.0;1.0;0.0;0.0
3.0;1753875190.648;15.942163;0.73;-1.26;-0.29;0.941442;-0.344638;0.014278;91.4;0.0;0.0;1.0;0.0;0.0
3.0;1753875190.65273;15.923414;0.72;-1.21;-0.31;0.941457;-0.344003;0.014599;89.8;0.0;0.0;1.0;0.0;0.0
3.0;1753875190.65746;15.931637;0.67;-1.19;-0.31;0.942016;-0.344381;0.013282;89.7;0.0;0.0;1.0;0.0;0.0
3.0;1753875190.66219;15.968595;0.66;-1.29;-0.25;0.941369;-0.344864;0.014311;92.1;0.0;0.0;1.0;0.0;0.0
3.0;1753875190.66692;15.974876;0.58;-1.3;-0.3;0.941174;-0.344887;0.013056;90.1;0.0;0.0;1.0;0.0;0.0
3.0;1753875190.67165;15.93694;0.71;-1.21;-0.24;0.941769;-0.345649;0.013568;90.6;0.0;0.0;1.0;0.0;0.0
3.0;1753875190.67638;15.925528;0.75;-1.2;-0.29;0.941864;-0.344744;0.014684;91.1;0.0;0.0;1.0;0.0;0.0
3.0;1753875190.68456;15.945312;0.7;-1.26;-0.28;0.941474;-0.345016;0.013664;91.0;0.0;0.0;1.0;0.0;0.0
3.0;1753875190.68929;15.95781;0.7;-1.21;-0.28;0.941121;-0.345923;0.012412;91.3;0.0;0.0;1.0;0.0;0.0
3.0;1753875190.69402;15.970455;0.7;-1.28;-0.32;0.941881;-0.346239;0.01322;91.8;0.0;0.0;1.0;0.0;0.0
3.0;1753875190.69875;15.938317;0.75;-1.29;-0.22;0.941415;-0.345084;0.013764;89.8;0.0;0.0;1.0;0.0;0.0
3.0;1753875190.70348;15.924049;0.63;-1.24;-0.28;0.94169;-0.344972;0.012845;91.4;0.0;0.0;1.0;0.0;0.0
3.0;1753875190.70821;15.936278;0.7;-1.3;-0.28;0.942374;-0.345704;0.012507;90.1;0.0;0.0;1.0;0.0;0.0
3.0;1753875190.71294;15.922637;0.69;-1.33;-0.24;0.941017;-0.345346;0.012664;91.2;0.0;0.0;1.0;0.0;0.0
3.0;1753875190.71767;15.948192;0.66;-1.25;-0.21;0.942138;-0.344628;0.014064;90.4;0.0;0.0;1.0;0.0;0.0
3.0;1753875190.7224;15.974433;0.65;-1.3;-0.26;0.941812;-0.344031;0.014205;90.5;0.0;0.0;1.0;0.0;0.0
3.0;1753875190.72713;15.9522;0.66;-1.28;-0.23;0.941645;-0.344885;0.013954;92.5;0.0;0.0;1.0;0.0;0.0
3.0;1753875190.73186;15.978824;0.76;-1.31;-0.26;0.941839;-0.345108;0.013;89.7;0.0;0.0;1.0;0.0;0.0
3.0;1753875190.73659;15.967864;0.64;-1.29;-0.22;0.942228;-0.345493;0.012645;89.6;0.0;0.0;1.0;0.0;0.0
3.0;1753875190.74132;15.960973;0.65;-1.3;-0.21;0.941893;-0.345512;0.013096;91.6;0.0;0.0;1.0;0.0;0.0
3.0;1753875190.74605;15.94481;0.75;-1.33;-0.25;0.942092;-0.344827;0.012767;90.0;0.0;0.0;1.0;0.0;0.0
3.0;1753875190.75078;15.926177;0.65;-1.25;-0.25;0.942845;-0.346061;0.013391;89.9;0.0;0.0;1.0;0.0;0.0
3.0;1753875190.75551;15.965708;0.67;-1.4;-0.19;0.942516;-0.34429;0.01301;90.9;0.0;0.0;1.0;0.0;0.0
3.0;1753875190.76217;15.945312;0.7;-1.26;-0.21;0.942572;-0.344772;0.013054;91.0;0.0;0.0;1.0;0.0;0.0
3.0;1753875190.7669;15.929745;0.66;-1.24;-0.26;0.943103;-0.344562;0.012543;90.2;0.0;0.0;1.0;0.0;0.0
3.0;1753875190.77163;15.956333;0.76;-1.2;-0.17;0.942609;-0.344527;0.012146;90.7;0.0;0.0;1.0;0.0;0.0
3.0;1753875190.77636;15.934856;0.61;-1.29;-0.21;0.943259;-0.345077;0.013185;91.8;0.0;0.0;1.0;0.0;0.0
3.0;1753875190.78109;15.936101;0.75;-1.24;-0.25;0.942568;-0.343324;0.014741;91.4;0.0;0.0;1.0;0.0;0.0
3.0;1753875190.78582;15.919582;0.62;-1.33;-0.21;0.942078;-0.343799;0.012841;90.9;0.0;0.0;1.0;0.0;0.0
3.0;1753875190.79055;15.932749;0.68;-1.28;-0.14;0.94281;-0.342983;0.012516;90.8;0.0;0.0;1.0;0.0;0.0
3.0;1753875190.79528;15.934089;0.67;-1.26;-0.22;0.942888;-0.34339;0.013474;92.5;0.0;0.0;1.0;0.0;0.0
3.0;1753875190.80001;15.950409;0.65;-1.12;-0.17;0.942727;-0.344226;0.014353;91.4;0.0;0.0;1.0;0.0;0.0
3.0;1753875190.80474;15.91566;0.7;-1.26;-0.23;0.942507;-0.344292;0.012432;90.7;0.0;0.0;1.0;0.0;0.0
3.0;1753875190.80947;15.944177;0.74;-1.34;-0.21;0.943245;-0.344124;0.013306;91.0;0.0;0.0;1.0;0.0;0.0
3.0;1753875190.8175;15.945312;0.63;-1.26;-0.21;0.942938;-0.343186;0.013298;91.0;0.0;0.0;1.0;0.0;0.0
3.0;1753875190.82446;15.96875;0.77;-1.26;-0.21;0.94184;-0.344284;0.014518;91.0;0.0;0.0;1.0;0.0;0.0
3.0;1753875190.82919;15.985258;0.86;-1.25;-0.2;0.941438;-0.344653;0.014262;90.3;0.0;0.0;1.0;0.0;0.0
3.0;1753875190.83392;15.962379;0.8;-1.3;-0.23;0.943014;-0.343498;0.014305;90.6;0.0;0.0;1.0;0.0;0.0
3.0;1753875190.83865;15.993707;0.79;-1.27;-0.21;0.942666;-0.343492;0.01498;91.3;0.0;0.0;1.0;0.0;0.0
3.0;1753875190.84338;15.966957;0.7;-1.29;-0.18;0.940725;-0.343799;0.013731;90.0;0.0;0.0;1.0;0.0;0.0
3.0;1753875190.84811;15.939794;0.53;-1.27;-0.13;0.940998;-0.343166;0.015217;91.6;0.0;0.0;1.0;0.0;0.0
3.0;1753875190.85284;15.969206;0.68;-1.3;-0.1;0.94286;-0.3443;0.014263;91.3;0.0;0.0;1.0;0.0;0.0
3.0;1753875190.85757;15.94894;0.65;-1.35;-0.15;0.941869;-0.342254;0.015039;90.5;0.0;0.0;1.0;0.0;0.0
3.0;1753875190.8623;15.989035;0.68;-1.33;-0.14;0.943266;-0.344435;0.014741;92.7;0.0;0.0;1.0;0.0;0.0
3.0;1753875190.86703;15.983887;0.59;-1.31;-0.16;0.941608;-0.343244;0.015033;89.4;0.0;0.0;1.0;0.0;0.0
3.0;1753875190.87178;15.96875;0.63;-1.33;-0.14;0.942328;-0.343308;0.01464;91.0;0.0;0.0;1.0;0.0;0.0
3.0;1753875190.87651;15.95881;0.73;-1.39;-0.13;0.941309;-0.34367;0.01535;89.6;0.0;0.0;1.0;0.0;0.0
3.0;1753875190.88124;15.96155;0.68;-1.34;-0.19;0.942198;-0.342732;0.014973;90.6;0.0;0.0;1.0;0.0;0.0
3.0;1753875190.88597;15.957967;0.58;-1.34;-0.18;0.942101;-0.342946;0.014135;92.3;0.0;0.0;1.0;0.0;0.0
3.0;1753875190.8907;15.97494;0.63;-1.28;-0.21;0.94185;-0.34483;0.014297;90.6;0.0;0.0;1.0;0.0;0.0
3.0;1753875190.89543;16.009295;0.54;-1.37;-0.18;0.942339;-0.342959;0.015076;93.5;0.0;0.0;1.0;0.0;0.0
3.0;1753875190.90016;15.9625;0.66;-1.41;-0.2;0.942337;-0.343238;0.015594;90.8;0.0;0.0;1.0;0.0;0.0
3.0;1753875190.90489;15.992636;0.52;-1.34;-0.15;0.942785;-0.343098;0.014268;89.0;0.0;0.0;1.0;0.0;0.0
3.0;1753875190.90962;15.982215;0.63;-1.43;-0.19;0.941624;-0.344104;0.014447;91.3;0.0;0.0;1.0;0.0;0.0
3.0;1753875190.91435;15.960455;0.61;-1.5;-0.16;0.942141;-0.342289;0.014566;92.6;0.0;0.0;1.0;0.0;0.0
3.0;1753875190.91908;15.976102;0.69;-1.46;-0.24;0.942398;-0.343024;0.014256;90.4;0.0;0.0;1.0;0.0;0.0
3.0;1753875190.92726;15.96875;0.63;-1.4;-0.21;0.942328;-0.343308;0.01464;91.0;0.0;0.0;1.0;0.0;0.0
3.0;1753875190.93199;15.943072;0.66;-1.33;-0.11;0.942762;-0.342556;0.01526;89.0;0.0;0.0;1.0;0.0;0.0
3.0;1753875190.93672;15.958743;0.65;-1.4;-0.25;0.941547;-0.342826;0.014334;91.1;0.0;0.0;1.0;0.0;0.0
3.0;1753875190.94145;15.928096;0.66;-1.4;-0.16;0.9419;-0.343078;0.014834;90.6;0.0;0.0;1.0;0.0;0.0
3.0;1753875190.94618;15.943947;0.61;-1.45;-0.2;0.941978;-0.34252;0.01348;90.1;0.0;0.0;1.0;0.0;0.0
3.0;1753875190.95091;15.991041;0.64;-1.29;-0.2;0.942311;-0.343465;0.014899;91.5;0.0;0.0;1.0;0.0;0.0
3.0;1753875190.95564;15.958962;0.73;-1.31;-0.16;0.941833;-0.344726;0.013136;90.5;0.0;0.0;1.0;0.0;0.0
3.0;1753875190.96037;16.002387;0.66;-1.27;-0.24;0.943519;-0.342833;0.014382;90.8;0.0;0.0;1.0;0.0;0.0
3.0;1753875190.96528;15.96875;0.7;-1.33;-0.21;0.942694;-0.343186;0.014396;91.0;0.0;0.0;1.0;0.0;0.0
3.0;1753875190.96739;15.96875;0.63;-1.26;-0.21;0.940132;-0.344284;0.01403;89.0;0.0;0.0;1.0;0.0;0.0
3.0;1753875190.97261;15.96875;0.77;-1.33;-0.28;0.942328;-0.343674;0.01464;89.0;0.0;0.0;1.0;0.0;0.0
3.0;1753875190.97623;15.96875;0.7;-1.33;-0.14;0.940254;-0.344162;0.014152;89.0;0.0;0.0;1.0;0.0;0.0
3.0;1753875190.980914;15.953125;0.77;-1.33;-0.14;0.942572;-0.343186;0.013298;89.0;0.0;0.0;1.0;0.0;0.0
3.0;1753875190.987132;15.953125;0.77;-1.33;-0.21;0.942938;-0.345016;0.01281;89.0;0.0;0.0;1.0;0.0;0.0
3.0;1753875190.991161;15.953125;0.77;-1.33;-0.21;0.942206;-0.343308;0.014762;89.0;0.0;0.0;1.0;0.0;0.0
3.0;1753875190.995769;15.953125;0.77;-1.33;-0.14;0.942206;-0.343308;0.014762;89.0;0.0;0.0;1.0;0.0;0.0
3.0;1753875190.999686;15.929688;0.77;-1.33;-0.21;0.941352;-0.344162;0.013786;89.0;0.0;0.0;1.0;0.0;0.0
3.0;1753875191.004416;15.903941;0.76;-1.34;-0.17;0.941895;-0.343223;0.012727;88.7;0.0;0.0;1.0;0.0;0.0
3.0;1753875191.009146;15.943923;0.89;-1.33;-0.27;0.940671;-0.34138;0.013883;88.7;0.0;0.0;1.0;0.0;0.0
3.0;1753875191.013876;15.928474;0.77;-1.39;-0.23;0.939709;-0.342862;0.013211;90.2;0.0;0.0;1.0;0.0;0.0
3.0;1753875191.018606;15.934246;0.76;-1.36;-0.22;0.941699;-0.345455;0.013381;87.7;0.0;0.0;1.0;0.0;0.0
3.0;1753875191.023336;15.914385;0.83;-1.33;-0.27;0.941172;-0.343425;0.014092;88.8;0.0;0.0;1.0;0.0;0.0
3.0;1753875191.028066;15.944076;0.73;-1.35;-0.31;0.940389;-0.343329;0.014021;89.5;0.0;0.0;1.0;0.0;0.0
3.0;1753875191.032796;15.94284;0.72;-1.34;-0.25;0.941106;-0.343604;0.014434;87.9;0.0;0.0;1.0;0.0;0.0
3.0;1753875191.037526;15.938149;0.82;-1.34;-0.26;0.942161;-0.343012;0.013128;87.9;0.0;0.0;1.0;0.0;0.0
3.0;1753875191.042256;15.918603;0.71;-1.3;-0.25;0.941103;-0.344003;0.013137;88.5;0.0;0.0;1.0;0.0;0.0
3.0;1753875191.046986;15.903352;0.74;-1.25;-0.18;0.940508;-0.344868;0.014682;87.5;0.0;0.0;1.0;0.0;0.0
3.0;1753875191.051716;15.937545;0.75;-1.37;-0.25;0.942395;-0.342326;0.013033;88.0;0.0;0.0;1.0;0.0;0.0
3.0;1753875191.056446;15.936973;0.84;-1.29;-0.29;0.942104;-0.343384;0.014944;88.7;0.0;0.0;1.0;0.0;0.0
3.0;1753875191.061176;15.926574;0.75;-1.37;-0.22;0.941373;-0.343966;0.013474;88.7;0.0;0.0;1.0;0.0;0.0
3.0;1753875191.065906;15.904114;0.77;-1.37;-0.23;0.941331;-0.34305;0.014026;86.7;0.0;0.0;1.0;0.0;0.0
3.0;1753875191.070636;15.941387;0.78;-1.3;-0.23;0.941918;-0.34328;0.013699;89.0;0.0;0.0;1.0;0.0;0.0
3.0;1753875191.075366;15.912109;0.84;-1.38;-0.18;0.942768;-0.343095;0.013254;87.1;0.0;0.0;1.0;0.0;0.0
3.0;1753875191.080096;15.932893;0.76;-1.3;-0.27;0.941408;-0.34285;0.0141;87.2;0.0;0.0;1.0;0.0;0.0
3.0;1753875191.084826;15.937335;0.75;-1.36;-0.3;0.943302;-0.341671;0.015287;87.7;0.0;0.0;1.0;0.0;0.0
3.0;1753875191.089556;15.927536;0.74;-1.29;-0.29;0.942091;-0.343304;0.013734;87.9;0.0;0.0;1.0;0.0;0.0
3.0;1753875191.094286;15.936014;0.75;-1.36;-0.26;0.940838;-0.342747;0.013193;87.0;0.0;0.0;1.0;0.0;0.0
3.0;1753875191.099016;15.945478;0.74;-1.33;-0.2;0.943033;-0.341428;0.013262;87.9;0.0;0.0;1.0;0.0;0.0
3.0;1753875191.103746;15.948713;0.78;-1.35;-0.16;0.94221;-0.343377;0.013643;87.5;0.0;0.0;1.0;0.0;0.0
3.0;1753875191.108476;15.944671;0.79;-1.33;-0.33;0.941663;-0.343732;0.014191;87.5;0.0;0.0;1.0;0.0;0.0
3.0;1753875191.113206;15.926375;0.7;-1.27;-0.24;0.943778;-0.342243;0.0139;87.5;0.0;0.0;1.0;0.0;0.0
3.0;1753875191.117936;15.950923;0.87;-1.37;-0.14;0.943;-0.341959;0.013627;87.6;0.0;0.0;1.0;0.0;0.0
3.0;1753875191.12431;15.929688;0.77;-1.33;-0.28;0.94245;-0.343064;0.013664;87.0;0.0;0.0;1.0;0.0;0.0
3.0;1753875191.12904;15.938791;0.81;-1.24;-0.22;0.942504;-0.345685;0.013606;87.0;0.0;0.0;1.0;0.0;0.0
3.0;1753875191.13612;15.929688;0.63;-1.19;-0.21;0.94245;-0.344772;0.014518;87.0;0.0;0.0;1.0;0.0;0.0
3.0;1753875191.14085;15.954277;0.52;-1.15;-0.22;0.942173;-0.344859;0.015033;88.2;0.0;0.0;1.0;0.0;0.0
3.0;1753875191.14558;15.956363;0.61;-1.22;-0.32;0.943591;-0.345122;0.014101;86.6;0.0;0.0;1.0;0.0;0.0
3.0;1753875191.15031;15.935513;0.63;-1.23;-0.21;0.942673;-0.342764;0.016068;86.2;0.0;0.0;1.0;0.0;0.0
3.0;1753875191.15504;15.950702;0.74;-1.29;-0.17;0.942965;-0.344442;0.014638;86.4;0.0;0.0;1.0;0.0;0.0
3.0;1753875191.15977;15.932391;0.68;-1.27;-0.22;0.941527;-0.343848;0.01431;87.7;0.0;0.0;1.0;0.0;0.0
3.0;1753875191.1645;15.969093;0.73;-1.19;-0.21;0.943255;-0.3441;0.014683;88.6;0.0;0.0;1.0;0.0;0.0
3.0;1753875191.16923;15.944346;0.54;-1.36;-0.13;0.94278;-0.343668;0.014537;88.0;0.0;0.0;1.0;0.0;0.0
3.0;1753875191.17396;15.956649;0.72;-1.25;-0.09;0.940796;-0.343287;0.014352;88.0;0.0;0.0;1.0;0.0;0.0
3.0;1753875191.17869;15.959281;0.64;-1.2;-0.13;0.9427;-0.344296;0.014675;87.6;0.0;0.0;1.0;0.0;0.0
3.0;1753875191.18344;15.96875;0.7;-1.26;-0.14;0.942206;-0.343552;0.01464;87.0;0.0;0.0;1.0;0.0;0.0
3.0;1753875191.18817;15.985423;0.63;-1.28;-0.12;0.943296;-0.34265;0.014966;85.3;0.0;0.0;1.0;0.0;0.0
3.0;1753875191.1929;15.953821;0.76;-1.27;-0.18;0.940932;-0.342566;0.015216;88.1;0.0;0.0;1.0;0.0;0.0
3.0;1753875191.19763;15.977729;0.72;-1.29;-0.14;0.941257;-0.344632;0.015389;88.7;0.0;0.0;1.0;0.0;0.0
3.0;1753875191.20236;15.974328;0.75;-1.22;-0.26;0.939665;-0.344233;0.014449;88.1;0.0;0.0;1.0;0.0;0.0
3.0;1753875191.20709;15.987205;0.66;-1.29;-0.26;0.943292;-0.34143;0.01531;90.0;0.0;0.0;1.0;0.0;0.0
3.0;1753875191.21182;15.990361;0.71;-1.28;-0.18;0.941299;-0.343481;0.013835;84.4;0.0;0.0;1.0;0.0;0.0
3.0;1753875191.21655;15.961686;0.78;-1.31;-0.23;0.94081;-0.343047;0.014066;88.0;0.0;0.0;1.0;0.0;0.0
3.0;1753875191.22128;15.987369;0.91;-1.3;-0.15;0.940769;-0.343303;0.014466;87.6;0.0;0.0;1.0;0.0;0.0
3.0;1753875191.22601;15.958522;0.89;-1.33;-0.18;0.942041;-0.342179;0.013819;86.2;0.0;0.0;1.0;0.0;0.0
3.0;1753875191.23031;15.96875;0.77;-1.33;-0.21;0.940864;-0.342576;0.013786;87.0;0.0;0.0;1.0;0.0;0.0
3.0;1753875191.23504;15.981462;0.72;-1.27;-0.21;0.941448;-0.342305;0.013257;85.7;0.0;0.0;1.0;0.0;0.0
3.0;1753875191.23977;15.971297;0.74;-1.31;-0.17;0.942615;-0.344179;0.013907;87.6;0.0;0.0;1.0;0.0;0.0
3.0;1753875191.2445;15.966943;0.78;-1.31;-0.19;0.939798;-0.342707;0.01388;86.3;0.0;0.0;1.0;0.0;0.0
3.0;1753875191.24923;15.94869;0.74;-1.31;-0.25;0.941083;-0.342717;0.013054;87.3;0.0;0.0;1.0;0.0;0.0
3.0;1753875191.25396;15.979717;0.83;-1.32;-0.22;0.941991;-0.344259;0.012924;86.2;0.0;0.0;1.0;0.0;0.0
3.0;1753875191.25869;15.966362;0.82;-1.36;-0.16;0.941121;-0.343208;0.013854;87.1;0.0;0.0;1.0;0.0;0.0
3.0;1753875191.26342;15.949724;0.89;-1.3;-0.18;0.943408;-0.342008;0.01366;87.8;0.0;0.0;1.0;0.0;0.0
3.0;1753875191.26815;15.97683;0.74;-1.22;-0.18;0.942806;-0.342751;0.013505;86.1;0.0;0.0;1.0;0.0;0.0
3.0;1753875191.27703;15.96875;0.84;-1.33;-0.21;0.942572;-0.34343;0.013054;87.0;0.0;0.0;1.0;0.0;0.0
3.0;1753875191.28176;15.966325;0.9;-1.38;-0.17;0.941519;-0.342955;0.013196;86.0;0.0;0.0;1.0;0.0;0.0
3.0;1753875191.28649;15.94896;0.8;-1.28;-0.18;0.942106;-0.343579;0.01332;88.1;0.0;0.0;1.0;0.0;0.0
3.0;1753875191.29122;15.975631;0.79;-1.3;-0.21;0.94246;-0.343213;0.012209;84.8;0.0;0.0;1.0;0.0;0.0
3.0;1753875191.29595;15.950102;0.7;-1.3;-0.17;0.942914;-0.343417;0.012664;85.5;0.0;0.0;1.0;0.0;0.0
3.0;1753875191.30068;15.962746;0.77;-1.27;-0.19;0.943011;-0.343005;0.012846;85.4;0.0;0.0;1.0;0.0;0.0
3.0;1753875191.30541;15.961726;0.77;-1.31;-0.15;0.941888;-0.344606;0.014323;86.9;0.0;0.0;1.0;0.0;0.0
3.0;1753875191.31014;15.967768;0.7;-1.29;-0.21;0.942433;-0.34331;0.011984;86.1;0.0;0.0;1.0;0.0;0.0
3.0;1753875191.31487;15.96197;0.77;-1.3;-0.24;0.942395;-0.345523;0.011995;88.6;0.0;0.0;1.0;0.0;0.0
3.0;1753875191.3196;15.937318;0.74;-1.35;-0.21;0.944769;-0.343384;0.012288;86.6;0.0;0.0;1.0;0.0;0.0
3.0;1753875191.32433;15.991563;0.78;-1.32;-0.14;0.943208;-0.344247;0.012492;86.0;0.0;0.0;1.0;0.0;0.0
3.0;1753875191.32906;15.953784;0.6;-1.33;-0.18;0.942897;-0.342774;0.012058;87.9;0.0;0.0;1.0;0.0;0.0
3.0;1753875191.33379;15.950898;0.63;-1.39;-0.23;0.943822;-0.343891;0.012902;87.4;0.0;0.0;1.0;0.0;0.0
3.0;1753875191.33852;15.976604;0.68;-1.3;-0.18;0.942726;-0.342837;0.0113;86.4;0.0;0.0;1.0;0.0;0.0
3.0;1753875191.34325;15.992008;0.73;-1.29;-0.14;0.943588;-0.344796;0.012122;85.2;0.0;0.0;1.0;0.0;0.0
3.0;1753875191.34798;15.976647;0.71;-1.32;-0.23;0.942647;-0.344877;0.011876;86.9;0.0;0.0;1.0;0.0;0.0
3.0;1753875191.35271;15.971004;0.66;-1.41;-0.26;0.942751;-0.342154;0.013;85.2;0.0;0.0;1.0;0.0;0.0
3.0;1753875191.35943;15.96875;0.63;-1.33;-0.21;0.942938;-0.343918;0.011956;87.0;0.0;0.0;1.0;0.0;0.0
3.0;1753875191.36416;15.965046;0.66;-1.38;-0.27;0.942237;-0.341547;0.013792;86.5;0.0;0.0;1.0;0.0;0.0
3.0;1753875191.37023;15.960938;0.7;-1.33;-0.28;0.942938;-0.343308;0.01403;87.0;0.0;0.0;1.0;0.0;0.0
3.0;1753875191.37496;15.957011;0.7;-1.3;-0.29;0.942778;-0.343372;0.015091;88.5;0.0;0.0;1.0;0.0;0.0
3.0;1753875191.37969;15.969755;0.67;-1.31;-0.26;0.943563;-0.344335;0.014481;86.1;0.0;0.0;1.0;0.0;0.0
3.0;1753875191.38442;15.965763;0.79;-1.38;-0.3;0.941964;-0.342188;0.013592;86.6;0.0;0.0;1.0;0.0;0.0
3.0;1753875191.38915;15.949997;0.66;-1.35;-0.41;0.943429;-0.34537;0.013167;87.1;0.0;0.0;1.0;0.0;0.0
3.0;1753875191.39388;15.953984;0.65;-1.29;-0.2;0.941703;-0.343436;0.013984;88.6;0.0;0.0;1.0;0.0;0.0
3.0;1753875191.39861;15.973267;0.81;-1.35;-0.32;0.941034;-0.343044;0.014234;87.6;0.0;0.0;1.0;0.0;0.0
3.0;1753875191.40334;15.934551;0.92;-1.33;-0.3;0.94267;-0.343556;0.013462;86.4;0.0;0.0;1.0;0.0;0.0
3.0;1753875191.40807;15.95293;0.79;-1.3;-0.32;0.939017;-0.342908;0.014679;85.5;0.0;0.0;1.0;0.0;0.0
3.0;1753875191.4128;15.968541;0.77;-1.3;-0.26;0.943121;-0.343067;0.015174;85.2;0.0;0.0;1.0;0.0;0.0
3.0;1753875191.41743;15.960938;0.77;-1.33;-0.28;0.941962;-0.343064;0.01403;87.0;0.0;0.0;1.0;0.0;0.0
3.0;1753875191.42216;15.938187;0.77;-1.29;-0.28;0.943071;-0.344226;0.014125;84.8;0.0;0.0;1.0;0.0;0.0
3.0;1753875191.42689;15.949255;0.78;-1.37;-0.26;0.941734;-0.343023;0.014296;84.5;0.0;0.0;1.0;0.0;0.0
3.0;1753875191.43162;15.95963;0.79;-1.34;-0.28;0.943125;-0.342929;0.014739;84.9;0.0;0.0;1.0;0.0;0.0
3.0;1753875191.43635;15.970436;0.79;-1.31;-0.24;0.942276;-0.343317;0.013525;87.3;0.0;0.0;1.0;0.0;0.0
3.0;1753875191.44108;15.951546;0.76;-1.33;-0.32;0.94231;-0.343688;0.014204;87.5;0.0;0.0;1.0;0.0;0.0
3.0;1753875191.44581;15.966731;0.71;-1.32;-0.23;0.94211;-0.343063;0.014993;86.7;0.0;0.0;1.0;0.0;0.0
3.0;1753875191.45054;15.960623;0.59;-1.22;-0.21;0.941973;-0.343408;0.013822;86.8;0.0;0.0;1.0;0.0;0.0
3.0;1753875191.45527;15.972993;0.8;-1.31;-0.31;0.940238;-0.341485;0.015669;86.0;0.0;0.0;1.0;0.0;0.0
3.0;1753875191.46417;15.960938;0.7;-1.33;-0.28;0.941962;-0.344528;0.014396;87.0;0.0;0.0;1.0;0.0;0.0
3.0;1753875191.4689;15.947861;0.71;-1.36;-0.3;0.942684;-0.344846;0.012528;87.1;0.0;0.0;1.0;0.0;0.0
3.0;1753875191.47363;15.957021;0.77;-1.33;-0.25;0.94048;-0.345006;0.014791;87.8;0.0;0.0;1.0;0.0;0.0
3.0;1753875191.47836;15.982087;0.73;-1.33;-0.28;0.940098;-0.343429;0.013883;84.9;0.0;0.0;1.0;0.0;0.0
3.0;1753875191.48309;15.962624;0.76;-1.42;-0.27;0.942612;-0.343415;0.014201;87.3;0.0;0.0;1.0;0.0;0.0
3.0;1753875191.48782;15.97902;0.79;-1.37;-0.25;0.940714;-0.34415;0.014755;85.9;0.0;0.0;1.0;0.0;0.0
3.0;1753875191.49255;15.962456;0.7;-1.39;-0.17;0.941178;-0.342998;0.014084;88.3;0.0;0.0;1.0;0.0;0.0
3.0;1753875191.49728;15.950939;0.68;-1.34;-0.27;0.940946;-0.342902;0.014418;89.6;0.0;0.0;1.0;0.0;0.0
3.0;1753875191.50201;15.980114;0.76;-1.43;-0.38;0.942158;-0.342944;0.014348;85.2;0.0;0.0;1.0;0.0;0.0
3.0;1753875191.50674;15.970631;0.73;-1.39;-0.24;0.940063;-0.343341;0.01317;85.6;0.0;0.0;1.0;0.0;0.0
3.0;1753875191.51242;15.960938;0.77;-1.4;-0.21;0.940864;-0.34343;0.013664;87.0;0.0;0.0;1.0;0.0;0.0
3.0;1753875191.51715;15.970837;0.72;-1.37;-0.23;0.939971;-0.343621;0.013236;85.1;0.0;0.0;1.0;0.0;0.0
3.0;1753875191.52188;15.967058;0.77;-1.4;-0.1;0.942233;-0.344082;0.014476;88.4;0.0;0.0;1.0;0.0;0.0
3.0;1753875191.52661;15.963274;0.8;-1.37;-0.2;0.94002;-0.342355;0.014759;85.8;0.0;0.0;1.0;0.0;0.0
3.0;1753875191.53134;15.954995;0.75;-1.39;-0.29;0.940077;-0.342848;0.014356;87.8;0.0;0.0;1.0;0.0;0.0
3.0;1753875191.53607;15.962699;0.71;-1.47;-0.21;0.942115;-0.342266;0.014596;85.9;0.0;0.0;1.0;0.0;0.0
3.0;1753875191.5408;15.950185;0.62;-1.42;-0.21;0.941573;-0.342826;0.013736;87.3;0.0;0.0;1.0;0.0;0.0
3.0;1753875191.54553;15.945228;0.7;-1.42;-0.23;0.9414;-0.343533;0.013608;89.2;0.0;0.0;1.0;0.0;0.0
3.0;1753875191.55026;15.965087;0.63;-1.4;-0.24;0.940897;-0.343574;0.012896;86.8;0.0;0.0;1.0;0.0;0.0
3.0;1753875191.55499;15.979312;0.75;-1.37;-0.29;0.940381;-0.344348;0.015015;86.9;0.0;0.0;1.0;0.0;0.0
3.0;1753875191.55972;15.956255;0.75;-1.46;-0.23;0.939868;-0.34284;0.014717;87.8;0.0;0.0;1.0;0.0;0.0
3.0;1753875191.56445;15.987152;0.68;-1.34;-0.28;0.941215;-0.34283;0.014713;87.9;0.0;0.0;1.0;0.0;0.0
3.0;1753875191.56918;15.96182;0.82;-1.41;-0.25;0.940988;-0.343922;0.01475;88.6;0.0;0.0;1.0;0.0;0.0
3.0;1753875191.57391;15.961793;0.71;-1.38;-0.24;0.940603;-0.343402;0.014138;87.8;0.0;0.0;1.0;0.0;0.0
3.0;1753875191.57864;15.953946;0.76;-1.31;-0.3;0.943646;-0.34252;0.013958;84.9;0.0;0.0;1.0;0.0;0.0
3.0;1753875191.58325;15.960938;0.7;-1.4;-0.21;0.941474;-0.34343;0.01464;87.0;0.0;0.0;1.0;0.0;0.0
3.0;1753875191.58798;15.972363;0.67;-1.41;-0.14;0.942683;-0.344013;0.015287;86.0;0.0;0.0;1.0;0.0;0.0
3.0;1753875191.59271;15.962275;0.83;-1.33;-0.25;0.940347;-0.343181;0.014347;86.7;0.0;0.0;1.0;0.0;0.0
3.0;1753875191.59744;15.965036;0.73;-1.41;-0.25;0.942142;-0.344456;0.015039;86.4;0.0;0.0;1.0;0.0;0.0
3.0;1753875191.60217;15.960947;0.63;-1.42;-0.25;0.941133;-0.344583;0.014296;85.8;0.0;0.0;1.0;0.0;0.0
3.0;1753875191.6069;15.949838;0.84;-1.35;-0.18;0.941634;-0.345052;0.013998;90.0;0.0;0.0;1.0;0.0;0.0
3.0;1753875191.61163;15.960796;0.8;-1.42;-0.33;0.941177;-0.344477;0.015557;87.4;0.0;0.0;1.0;0.0;0.0
3.0;1753875191.61636;15.960661;0.71;-1.37;-0.23;0.94279;-0.344185;0.015188;87.4;0.0;0.0;1.0;0.0;0.0
3.0;1753875191.62109;15.945827;0.78;-1.39;-0.24;0.941685;-0.344769;0.015415;90.4;0.0;0.0;1.0;0.0;0.0
3.0;1753875191.62582;15.940053;0.78;-1.42;-0.24;0.942349;-0.343884;0.014492;87.3;0.0;0.0;1.0;0.0;0.0
3.0;1753875191.63055;15.951415;0.88;-1.38;-0.14;0.94051;-0.345282;0.0148;89.5;0.0;0.0;1.0;0.0;0.0
3.0;1753875191.63528;15.97975;0.81;-1.43;-0.26;0.942683;-0.345551;0.015511;89.1;0.0;0.0;1.0;0.0;0.0
3.0;1753875191.64001;15.955347;0.77;-1.44;-0.2;0.941913;-0.345702;0.014984;87.9;0.0;0.0;1.0;0.0;0.0
3.0;1753875191.64441;15.960938;0.91;-1.4;-0.21;0.94184;-0.34526;0.014396;89.0;0.0;0.0;1.0;0.0;0.0
3.0;1753875191.65083;15.960938;0.77;-1.26;-0.28;0.942084;-0.343308;0.013298;89.0;0.0;0.0;1.0;0.0;0.0
3.0;1753875191.65556;15.960948;0.85;-1.26;-0.33;0.943688;-0.343682;0.012856;88.6;0.0;0.0;1.0;0.0;0.0
