sep=,
PacketCounter,SampleTimeFine,Euler_X,Euler_Y,Euler_Z,Acc_X,Acc_Y,Acc_Z,Gyr_X,Gyr_Y,Gyr_Z,
0, 2167082953, -87.49869537353516, 45.609615325927734, 95.75940704345703, 0, 0, 0, 0, 0, 0, 
1, 2167091286, -87.50951385498047, 45.60103225708008, 95.7502670288086, -7.266429901123047, -6.837860584259033, 0.6747848987579346, 0.49746692180633545, 1.2104648351669312, -0.46062082052230835, 
2, 2167099619, -87.50505828857422, 45.595619201660156, 95.76012420654297, -6.828003883361816, -7.373036861419678, 0.16561689972877502, 1.2308279275894165, 0.20077717304229736, -0.05594148859381676, 
3, 2167107952, -87.50047302246094, 45.601558685302734, 95.75297546386719, -6.564364910125732, -7.247520446777344, 0.6173285841941833, 2.6146881580352783, 1.554540753364563, 1.2672514915466309, 
4, 2167116285, -87.4974594116211, 45.60816955566406, 95.75389862060547, -6.5695881843566895, -6.557706832885742, 0.5596763491630554, 1.8748211860656738, 1.0131583213806152, 1.3718600273132324, 
5, 2167124618, -87.50511932373047, 45.61181640625, 95.74140167236328, -7.1214985847473145, -6.0485968589782715, -0.5281780958175659, 1.6941382884979248, 2.1231513023376465, 0.9485591650009155, 
6, 2167132951, -87.50724792480469, 45.604103088378906, 95.75061798095703, -7.225515842437744, -6.405592441558838, 0.5985499024391174, 0.49846577644348145, 0.24493610858917236, -0.33336925506591797, 
7, 2167141284, -87.50933074951172, 45.59657287597656, 95.7451400756836, -6.9902729988098145, -7.326764106750488, -0.3454894721508026, 1.150424838066101, 0.8319118618965149, -0.3199217617511749, 
8, 2167149617, -87.499755859375, 45.59898376464844, 95.7504653930664, -6.5839409828186035, -7.4621500968933105, 1.1175768375396729, 2.235597610473633, 0.6246415376663208, 0.8677718043327332, 
9, 2167157950, -87.496337890625, 45.60685348510742, 95.73716735839844, -6.3260979652404785, -6.782557010650635, -0.019246118143200874, 1.9694914817810059, 1.073684811592102, 1.5186041593551636, 
10, 2167166283, -87.5035629272461, 45.61238098144531, 95.72187042236328, -6.943412780761719, -6.151192665100098, 0.46067553758621216, 2.107167959213257, 2.436490297317505, 1.180496096611023, 
11, 2167174616, -87.50093078613281, 45.60932540893555, 95.73078918457031, -7.220609188079834, -6.1996684074401855, -0.3867543041706085, 1.0933308601379395, 0.29439717531204224, 0.2239580601453781, 
12, 2167182949, -87.50952911376953, 45.60086441040039, 95.72716522216797, -7.227653980255127, -6.995931625366211, 0.214063361287117, 0.8191304802894592, 1.3158929347991943, -0.4698674976825714, 
13, 2167191282, -87.50570678710938, 45.59906005859375, 95.7422866821289, -6.788527011871338, -7.484835624694824, 0.6916943192481995, 1.2330050468444824, 0.24808666110038757, 0.39498430490493774, 
14, 2167199615, -87.50077819824219, 45.60633087158203, 95.73854064941406, -6.301494121551514, -6.982154846191406, -0.0322616770863533, 2.4547531604766846, 1.4081041812896729, 1.414815068244934, 
15, 2167207948, -87.49967956542969, 45.612308502197266, 95.73628234863281, -6.697416305541992, -6.4344162940979, 1.0169621706008911, 1.9259216785430908, 1.2846180200576782, 1.2852840423583984, 
16, 2167216281, -87.50497436523438, 45.61372375488281, 95.72474670410156, -7.151572227478027, -6.1291608810424805, -0.8844941258430481, 1.3926843404769897, 1.49580717086792, 0.7288658022880554, 
17, 2167224614, -87.51315307617188, 45.60395431518555, 95.72587585449219, -7.256545066833496, -6.701663017272949, 0.5531579852104187, 0.46304136514663696, 0.9111366868019104, -0.6108739376068115, 
18, 2167232947, -87.51107025146484, 45.598793029785156, 95.7334213256836, -6.910390377044678, -7.394802093505859, 0.05805247277021408, 1.1460193395614624, 0.3977506756782532, -0.03386202082037926, 
19, 2167241280, -87.50559997558594, 45.604156494140625, 95.72982788085938, -6.509448051452637, -7.288414001464844, 0.6788531541824341, 2.5087990760803223, 1.3409948348999023, 1.206161618232727, 
20, 2167249613, -87.50093841552734, 45.60989761352539, 95.73200225830078, -6.576552867889404, -6.5647172927856445, 0.38117915391921997, 1.9168797731399536, 0.9064494371414185, 1.2544188499450684, 
21, 2167257946, -87.50808715820312, 45.613677978515625, 95.71466064453125, -7.047163009643555, -6.071468353271484, -0.23949798941612244, 1.7953144311904907, 2.1142373085021973, 0.9843423366546631, 
22, 2167266279, -87.50944519042969, 45.6082763671875, 95.71861267089844, -7.18464469909668, -6.415477752685547, 0.43951359391212463, 0.6925448179244995, 0.304386705160141, -0.03947152942419052, 
23, 2167274612, -87.51040649414062, 45.6005973815918, 95.72028350830078, -6.98972225189209, -7.218813419342041, -0.16726922988891602, 1.281467318534851, 0.8768904805183411, -0.35803577303886414, 
24, 2167282945, -87.50399780273438, 45.60295104980469, 95.72343444824219, -6.7465410232543945, -7.533814430236816, 1.0461242198944092, 2.0408270359039307, 0.8045815229415894, 0.8515580892562866, 
25, 2167291278, -87.50048065185547, 45.610198974609375, 95.72535705566406, -6.347033500671387, -6.756901264190674, -0.16465193033218384, 2.039520740509033, 1.1205588579177856, 1.4456034898757935, 
26, 2167299611, -87.50418090820312, 45.61511993408203, 95.71371459960938, -7.028314590454102, -6.112173080444336, 0.5401967763900757, 2.0977418422698975, 2.057732343673706, 1.103550910949707, 
27, 2167307944, -87.5029296875, 45.61149215698242, 95.7295150756836, -7.18302059173584, -6.169004440307617, -0.4355652928352356, 1.0172566175460815, 0.32513427734375, 0.17613628506660461, 
28, 2167316277, -87.51191711425781, 45.60140609741211, 95.72491455078125, -7.190094947814941, -7.068260669708252, 0.09978931397199631, 0.7482558488845825, 1.2330564260482788, -0.6461446285247803, 
29, 2167324610, -87.50548553466797, 45.59849548339844, 95.73600769042969, -6.781167030334473, -7.484685897827148, 0.7765700221061707, 1.3596162796020508, 0.10971857607364655, 0.2511347234249115, 
30, 2167332943, -87.50032043457031, 45.605342864990234, 95.7315673828125, -6.346196174621582, -7.04804801940918, 0.01391578558832407, 2.544966220855713, 1.4653263092041016, 1.3606408834457397, 
31, 2167341276, -87.4994125366211, 45.61127853393555, 95.7335205078125, -6.756898403167725, -6.364466667175293, 1.0555942058563232, 2.049177408218384, 1.4253681898117065, 1.2738343477249146, 
32, 2167349609, -87.50251770019531, 45.613616943359375, 95.72867584228516, -7.140402793884277, -6.1344313621521, -0.8818513751029968, 1.5846631526947021, 1.477211356163025, 0.8199756145477295, 
33, 2167357942, -87.51038360595703, 45.604434967041016, 95.74057006835938, -7.286844253540039, -6.6654767990112305, 0.6926312446594238, 0.4801260232925415, 0.8391095399856567, -0.5166646838188171, 
34, 2167366275, -87.50624084472656, 45.599266052246094, 95.74752044677734, -6.855034351348877, -7.297486782073975, -0.1251818835735321, 1.4007785320281982, 0.35420647263526917, -0.014139058999717236, 
35, 2167374608, -87.50067138671875, 45.60382843017578, 95.74480438232422, -6.627176761627197, -7.272086143493652, 0.7537832260131836, 2.4415359497070312, 1.308951497077942, 1.0929210186004639, 
36, 2167382941, -87.49630737304688, 45.609832763671875, 95.74815368652344, -6.38749885559082, -6.6641998291015625, 0.2908995449542999, 1.7783836126327515, 0.8068869113922119, 1.2892029285430908, 
37, 2167391274, -87.50396728515625, 45.61428451538086, 95.74386596679688, -7.035088062286377, -6.088347434997559, -0.15167665481567383, 1.9172126054763794, 2.298121929168701, 1.0577013492584229, 
38, 2167399607, -87.50370788574219, 45.608985900878906, 95.75292205810547, -7.192104816436768, -6.35869836807251, 0.32363754510879517, 0.7976914048194885, 0.2696794867515564, -0.04456877335906029, 
39, 2167407940, -87.50543212890625, 45.60127258300781, 95.76895904541016, -7.15826416015625, -7.2616729736328125, -0.22798274457454681, 1.1790616512298584, 0.8117278814315796, -0.34087419509887695, 
40, 2167416273, -87.49991607666016, 45.60387420654297, 95.77088165283203, -6.697233200073242, -7.485328197479248, 1.0602563619613647, 1.847208857536316, 0.6754088997840881, 0.9065518379211426, 
41, 2167424606, -87.4970932006836, 45.61103439331055, 95.76760864257812, -6.420992374420166, -6.827547073364258, -0.21543270349502563, 2.1635701656341553, 1.3677873611450195, 1.4038009643554688, 
42, 2167432939, -87.49850463867188, 45.61540603637695, 95.75927734375, -6.86981725692749, -6.100686550140381, 0.6991250514984131, 2.0870862007141113, 1.7782553434371948, 1.0503501892089844, 
43, 2167441272, -87.49732208251953, 45.6125373840332, 95.76905822753906, -7.135847568511963, -6.201807975769043, -0.45852595567703247, 1.1188424825668335, 0.44447100162506104, 0.2577432096004486, 
44, 2167449605, -87.5060043334961, 45.60464859008789, 95.76592254638672, -7.159566402435303, -7.0532546043396, 0.3854382634162903, 0.7686447501182556, 1.2801097631454468, -0.3999662399291992, 
45, 2167457938, -87.4989242553711, 45.60291290283203, 95.77462005615234, -6.776767730712891, -7.597885608673096, 0.5745449662208557, 1.396500825881958, 0.019402779638767242, 0.4143998622894287, 
46, 2167466271, -87.4938735961914, 45.61079788208008, 95.79020690917969, -6.368208408355713, -6.982785224914551, 0.22626616060733795, 2.6660449504852295, 1.5520050525665283, 1.5030819177627563, 
47, 2167474604, -87.49199676513672, 45.617618560791016, 95.78815460205078, -6.8506083488464355, -6.342373847961426, 0.8581399917602539, 1.9421864748001099, 1.2654070854187012, 1.3669419288635254, 
48, 2167482937, -87.49557495117188, 45.61947250366211, 95.78248596191406, -7.111571311950684, -6.0674729347229, -0.9260144233703613, 1.6003645658493042, 1.5417848825454712, 0.7593211531639099, 
49, 2167491270, -87.50389862060547, 45.61078643798828, 95.78646850585938, -7.265678882598877, -6.666285037994385, 0.7480157017707825, 0.4088415801525116, 0.8250985145568848, -0.45526739954948425, 
50, 2167499603, -87.49989318847656, 45.60431671142578, 95.79407501220703, -6.899589538574219, -7.364616394042969, -0.21482838690280914, 1.372116208076477, 0.3867621421813965, -0.1885720044374466, 
51, 2167507936, -87.49283599853516, 45.60728454589844, 95.79308319091797, -6.575655937194824, -7.3325114250183105, 0.8935620188713074, 2.361056089401245, 0.9943575263023376, 0.9331138730049133, 
52, 2167516269, -87.48851776123047, 45.61355972290039, 95.79781341552734, -6.374388217926025, -6.700902938842773, 0.41277992725372314, 1.8481309413909912, 0.8342684507369995, 1.3407899141311646, 
53, 2167524602, -87.49691772460938, 45.61940002441406, 95.78156280517578, -6.984341621398926, -6.089354515075684, -0.1678699254989624, 1.930506706237793, 2.450295925140381, 1.1988613605499268, 
54, 2167532935, -87.49551391601562, 45.6140022277832, 95.79185485839844, -7.223334312438965, -6.283902168273926, 0.27042749524116516, 0.8265330195426941, 0.16714569926261902, -0.05271409824490547, 
55, 2167541268, -87.49796295166016, 45.60585021972656, 95.81529998779297, -7.157913684844971, -7.160375118255615, -0.16049572825431824, 1.27122163772583, 0.9777081608772278, -0.39707186818122864, 
56, 2167549601, -87.49263763427734, 45.60614013671875, 95.82270812988281, -6.809084415435791, -7.464626312255859, 1.0376296043395996, 1.5465489625930786, 0.43819552659988403, 0.6186734437942505, 
57, 2167557934, -87.48681640625, 45.613525390625, 95.82099914550781, -6.269696235656738, -6.888051986694336, -0.19281964004039764, 2.3145666122436523, 1.1196622848510742, 1.4613817930221558, 
58, 2167566267, -87.49044799804688, 45.61827850341797, 95.83625793457031, -6.884008884429932, -6.170792102813721, 0.8456034660339355, 1.8541502952575684, 1.7563807964324951, 1.116998314857483, 
59, 2167574600, -87.49180603027344, 45.61697769165039, 95.83857727050781, -7.124310493469238, -6.213531494140625, -0.605030357837677, 1.1795226335525513, 0.8554257750511169, 0.4096100330352783, 
60, 2167582933, -87.50041198730469, 45.607845306396484, 95.83655548095703, -7.335756301879883, -6.976024627685547, 0.4091925024986267, 0.6816844940185547, 1.177294373512268, -0.5467358827590942, 
61, 2167591266, -87.49491882324219, 45.604801177978516, 95.84523010253906, -6.762569427490234, -7.496286869049072, 0.4510868787765503, 1.3057751655578613, 0.11169087141752243, 0.2531582713127136, 
62, 2167599599, -87.48953247070312, 45.611900329589844, 95.84061431884766, -6.448294162750244, -7.081723213195801, 0.2089826613664627, 2.582747459411621, 1.4813865423202515, 1.3925564289093018, 
63, 2167607932, -87.4897689819336, 45.61737060546875, 95.83380889892578, -6.693946838378906, -6.346843242645264, 0.7551416158676147, 1.645419955253601, 1.1634624004364014, 1.2292399406433105, 
64, 2167616265, -87.49645233154297, 45.61970901489258, 95.84548950195312, -7.100398063659668, -6.053595066070557, -0.7185365557670593, 1.5159400701522827, 1.7679071426391602, 0.8263023495674133, 
65, 2167624598, -87.50285339355469, 45.610931396484375, 95.84916687011719, -7.2070112228393555, -6.614419937133789, 0.7626218199729919, 0.4605311155319214, 0.7055056691169739, -0.48059985041618347, 
66, 2167632931, -87.50006866455078, 45.60498809814453, 95.85565185546875, -6.944845199584961, -7.445023059844971, -0.18354202806949615, 1.3197094202041626, 0.4828411936759949, -0.1298641711473465, 
67, 2167641264, -87.49278259277344, 45.60988998413086, 95.85575866699219, -6.5418925285339355, -7.372220039367676, 0.9769596457481384, 2.4227864742279053, 1.036851406097412, 1.1649994850158691, 
68, 2167649597, -87.48954010009766, 45.61687469482422, 95.85645294189453, -6.508522987365723, -6.68951940536499, 0.23790974915027618, 1.8722087144851685, 1.034443736076355, 1.3958606719970703, 
69, 2167657930, -87.49800872802734, 45.621620178222656, 95.84086608886719, -6.998834133148193, -6.0089030265808105, -0.0752842053771019, 1.902151346206665, 2.3773722648620605, 1.0900777578353882, 
70, 2167666263, -87.4979248046875, 45.61518096923828, 95.84458923339844, -7.292802810668945, -6.2965617179870605, 0.15156874060630798, 0.670900821685791, 0.10749014467000961, -0.15432578325271606, 
71, 2167674596, -87.5029525756836, 45.60603713989258, 95.84249114990234, -7.096268653869629, -7.179259777069092, -0.2364204227924347, 1.1184582710266113, 1.1872069835662842, -0.5458905696868896, 
72, 2167682929, -87.49651336669922, 45.60603713989258, 95.85100555419922, -6.7004008293151855, -7.518835544586182, 0.9847649931907654, 1.5876857042312622, 0.34531834721565247, 0.5896269679069519, 
73, 2167691262, -87.49264526367188, 45.613895416259766, 95.84919738769531, -6.283960342407227, -6.906496047973633, -0.021682916209101677, 2.1956396102905273, 1.2328004837036133, 1.5101771354675293, 
74, 2167699595, -87.49484252929688, 45.61920928955078, 95.83998107910156, -6.850372314453125, -6.229301929473877, 0.8129706382751465, 2.071282386779785, 1.8599904775619507, 1.1605169773101807, 
75, 2167707928, -87.4958724975586, 45.61909103393555, 95.8497543334961, -7.1983642578125, -6.186156749725342, -0.7584214210510254, 1.3238333463668823, 0.91054767370224, 0.5716201066970825, 
76, 2167716261, -87.50379180908203, 45.61000442504883, 95.84716796875, -7.255171298980713, -6.904138565063477, 0.555518388748169, 0.7040969729423523, 1.0661284923553467, -0.5155377388000488, 
77, 2167724594, -87.50045776367188, 45.60710144042969, 95.85633850097656, -6.852287769317627, -7.460851669311523, 0.35591116547584534, 1.1592873334884644, 0.2761598527431488, 0.2438090741634369, 
78, 2167732927, -87.49392700195312, 45.61391067504883, 95.85113525390625, -6.367051601409912, -7.063817977905273, 0.2920594811439514, 2.770371913909912, 1.5285168886184692, 1.3532129526138306, 
79, 2167741260, -87.49273681640625, 45.61998748779297, 95.85067749023438, -6.69612455368042, -6.458856582641602, 0.8109918832778931, 1.6483144760131836, 1.0034760236740112, 1.3101296424865723, 
80, 2167749593, -87.49847412109375, 45.62287902832031, 95.84161376953125, -7.002655506134033, -6.075331211090088, -0.6805392503738403, 1.6343803405761719, 1.8319940567016602, 0.8706405758857727, 
81, 2167757926, -87.50528717041016, 45.61382293701172, 95.85445404052734, -7.350754737854004, -6.674668312072754, 0.5459264516830444, 0.31565701961517334, 0.5584030747413635, -0.48613253235816956, 
82, 2167766259, -87.5024185180664, 45.608924865722656, 95.85832214355469, -6.896892547607422, -7.3638153076171875, -0.10766458511352539, 1.4207830429077148, 0.5241568684577942, 0.010027972981333733, 
83, 2167774592, -87.49517822265625, 45.61250305175781, 95.85799407958984, -6.604835510253906, -7.381346225738525, 0.8921049237251282, 2.4406139850616455, 1.1049340963363647, 0.984649658203125, 
84, 2167782925, -87.49150085449219, 45.61933135986328, 95.85871124267578, -6.5103325843811035, -6.651497840881348, 0.24658772349357605, 1.9226685762405396, 1.0323177576065063, 1.3798003196716309, 
85, 2167791258, -87.49824523925781, 45.62351989746094, 95.84561157226562, -7.031582355499268, -6.043837547302246, 0.024979474022984505, 1.953149437904358, 2.2247884273529053, 1.0285522937774658, 
86, 2167799591, -87.49749755859375, 45.61894226074219, 95.85555267333984, -7.148522853851318, -6.303327560424805, 0.3196747899055481, 0.7799149751663208, 0.20046982169151306, 0.04535000026226044, 
87, 2167807924, -87.50230407714844, 45.610992431640625, 95.8561782836914, -7.098931789398193, -7.257768154144287, -0.1960880309343338, 1.0415899753570557, 1.0373125076293945, -0.3757607936859131, 
88, 2167816257, -87.49763488769531, 45.61144256591797, 95.86372375488281, -6.724599838256836, -7.503450870513916, 0.9859570860862732, 1.6066144704818726, 0.5217491388320923, 0.6533294916152954, 
89, 2167824590, -87.49104309082031, 45.61907196044922, 95.86309814453125, -6.343921661376953, -6.888068199157715, -0.1529994010925293, 2.388770818710327, 1.1513214111328125, 1.4719860553741455, 
90, 2167832923, -87.49353790283203, 45.62485885620117, 95.85472869873047, -6.936699867248535, -6.198532581329346, 0.7697922587394714, 1.959040880203247, 1.7886549234390259, 1.2192505598068237, 
91, 2167841256, -87.49395751953125, 45.62319564819336, 95.84014129638672, -7.1200971603393555, -6.170121192932129, -0.7541957497596741, 1.1930214166641235, 0.703302800655365, 0.3939853608608246, 
92, 2167849589, -87.50389099121094, 45.61425018310547, 95.83719635009766, -7.281893730163574, -6.942656517028809, 0.482380747795105, 0.6032792329788208, 1.257261872291565, -0.5256296992301941, 
93, 2167857922, -87.49925994873047, 45.61065673828125, 95.84718322753906, -6.767319202423096, -7.4468536376953125, 0.43876969814300537, 1.270274043083191, 0.1748555600643158, 0.1850244253873825, 
94, 2167866255, -87.49422454833984, 45.61731719970703, 95.84400939941406, -6.392026901245117, -7.120447635650635, 0.2924434244632721, 2.5477068424224854, 1.4338464736938477, 1.362331509590149, 
95, 2167874588, -87.4923324584961, 45.6237678527832, 95.84366607666016, -6.648733615875244, -6.495192050933838, 0.8834390640258789, 1.7981579303741455, 1.1188938617706299, 1.3280853033065796, 
96, 2167882921, -87.49835968017578, 45.627132415771484, 95.8341293334961, -7.117213249206543, -6.090310573577881, -0.7189998626708984, 1.6374540328979492, 1.8764348030090332, 0.9248403906822205, 
97, 2167891254, -87.50232696533203, 45.619468688964844, 95.8531265258789, -7.232447147369385, -6.55075216293335, 0.6319107413291931, 0.6821710467338562, 0.5890889167785645, -0.3209207355976105, 
98, 2167899587, -87.50030517578125, 45.61329650878906, 95.85859680175781, -6.97302770614624, -7.333159923553467, -0.27199414372444153, 1.315969705581665, 0.567291259765625, -0.1636749655008316, 
99, 2167907920, -87.49361419677734, 45.617130279541016, 95.85888671875, -6.5192060470581055, -7.309733867645264, 0.9716429710388184, 2.3822901248931885, 1.0644892454147339, 1.0374661684036255, 
100, 2167916253, -87.49075317382812, 45.623619079589844, 95.85913848876953, -6.449578762054443, -6.701176166534424, 0.09805372357368469, 1.817624568939209, 0.9739429354667664, 1.3612557649612427, 
101, 2167924586, -87.4970474243164, 45.62836837768555, 95.84490203857422, -6.990649700164795, -6.036307334899902, 0.08067909628152847, 2.0103204250335693, 2.2764780521392822, 1.0737614631652832, 
102, 2167932919, -87.49681854248047, 45.623046875, 95.8555679321289, -7.231173515319824, -6.319194316864014, 0.1640075296163559, 0.655404269695282, 0.1374075561761856, -0.040316805243492126, 
103, 2167941252, -87.5028305053711, 45.614585876464844, 95.8530502319336, -7.165417671203613, -7.24875545501709, -0.11394479125738144, 0.9258906245231628, 1.06144118309021, -0.4409234821796417, 
104, 2167949585, -87.4976577758789, 45.61577224731445, 95.8592529296875, -6.70583963394165, -7.571267604827881, 0.9932365417480469, 1.6341753005981445, 0.5449299812316895, 0.7254079580307007, 
105, 2167957918, -87.49481964111328, 45.62254333496094, 95.85674285888672, -6.299948692321777, -6.864973545074463, -0.09148279577493668, 2.1233816146850586, 1.281031847000122, 1.3798004388809204, 
106, 2167966251, -87.49945068359375, 45.62852096557617, 95.84600830078125, -6.8755621910095215, -6.164884567260742, 0.6830843091011047, 1.8995389938354492, 1.9259473085403442, 1.2586195468902588, 
107, 2167974584, -87.49849700927734, 45.62731170654297, 95.85136413574219, -7.146934509277344, -6.180736064910889, -0.6317247748374939, 1.1996299028396606, 0.6047905087471008, 0.43361055850982666, 
108, 2167982917, -87.50686645507812, 45.618980407714844, 95.84886932373047, -7.162929534912109, -6.952420234680176, 0.4853130877017975, 0.7519698739051819, 1.2222728729248047, -0.4501189589500427, 
109, 2167991250, -87.50238037109375, 45.61722183227539, 95.85965728759766, -6.869854927062988, -7.547307968139648, 0.447374552488327, 1.1827499866485596, 0.11781267076730728, 0.4060496687889099, 
110, 2167999583, -87.49713897705078, 45.62458419799805, 95.85454559326172, -6.385063171386719, -7.051631927490234, 0.24723787605762482, 2.608822822570801, 1.5253918170928955, 1.4220895767211914, 
111, 2168007916, -87.49600982666016, 45.6304931640625, 95.85465240478516, -6.8470916748046875, -6.423885345458984, 0.8657885193824768, 1.702770471572876, 1.0608264207839966, 1.285104751586914, 
112, 2168016249, -87.50228881835938, 45.63406753540039, 95.84673309326172, -7.065207481384277, -6.108617782592773, -0.7836282253265381, 1.4991114139556885, 1.7194451093673706, 0.9808587431907654, 
113, 2168024582, -87.50613403320312, 45.62615203857422, 95.8545913696289, -7.2231340408325195, -6.617173671722412, 0.5623279213905334, 0.40820130705833435, 0.3598928451538086, -0.36402952671051025, 
114, 2168032915, -87.50303649902344, 45.619808197021484, 95.86044311523438, -6.918107986450195, -7.357499122619629, -0.13608987629413605, 1.4145845174789429, 0.5350685119628906, -0.18204036355018616, 
115, 2168041248, -87.49673461914062, 45.62550735473633, 95.85944366455078, -6.590206146240234, -7.316843509674072, 0.9770772457122803, 2.4122588634490967, 1.145430088043213, 1.2582095861434937, 
116, 2168049581, -87.49159240722656, 45.63292694091797, 95.86333465576172, -6.351434230804443, -6.7028093338012695, 0.22852949798107147, 1.8240026235580444, 0.7693619728088379, 1.4611256122589111, 
117, 2168057914, -87.50054931640625, 45.63832092285156, 95.84567260742188, -7.03660249710083, -6.098722457885742, -0.05698348954319954, 2.0085787773132324, 2.5413804054260254, 1.1613366603851318, 
118, 2168066247, -87.49993896484375, 45.63197708129883, 95.85652923583984, -7.25340461730957, -6.326425075531006, 0.15734824538230896, 0.7115505933761597, 0.08940648287534714, -0.1424151360988617, 
119, 2168074580, -87.50377655029297, 45.62408447265625, 95.8561019897461, -7.085627555847168, -7.159573554992676, -0.22418440878391266, 1.1184582710266113, 1.0516819953918457, -0.38915708661079407, 
120, 2168082913, -87.49807739257812, 45.62512969970703, 95.8619613647461, -6.749466896057129, -7.468824863433838, 1.014703631401062, 1.7227238416671753, 0.5715944766998291, 0.7030211091041565, 
121, 2168091246, -87.49385070800781, 45.632301330566406, 95.86088562011719, -6.261801719665527, -6.866455554962158, -0.14053916931152344, 2.172048807144165, 1.1597486734390259, 1.436792254447937, 
122, 2168099579, -87.49620056152344, 45.63801574707031, 95.85151672363281, -6.911269187927246, -6.168112277984619, 0.7852622270584106, 2.061216115951538, 1.872336745262146, 1.2068787813186646, 
123, 2168107912, -87.49486541748047, 45.636322021484375, 95.85796356201172, -7.126284599304199, -6.196071624755859, -0.6441134810447693, 1.1812645196914673, 0.4836607575416565, 0.40125977993011475, 
124, 2168116245, -87.50424194335938, 45.62662887573242, 95.85588073730469, -7.316923141479492, -6.977669715881348, 0.2984163761138916, 0.6233351826667786, 1.15741765499115, -0.5914838910102844, 
125, 2168124578, -87.49781799316406, 45.623558044433594, 95.86830139160156, -6.736361503601074, -7.4795989990234375, 0.6073407530784607, 1.2524209022521973, 0.0021131744142621756, 0.2353564202785492, 
126, 2168132911, -87.49413299560547, 45.63004684448242, 95.8631362915039, -6.457004070281982, -7.096147537231445, 0.050192173570394516, 2.427166700363159, 1.5238549709320068, 1.3173530101776123, 
127, 2168141244, -87.49185180664062, 45.63500213623047, 95.86260986328125, -6.745238304138184, -6.371446132659912, 0.9236664175987244, 1.8863474130630493, 1.1021677255630493, 1.1700453758239746, 
128, 2168149577, -87.49583435058594, 45.63715744018555, 95.85612487792969, -7.1148247718811035, -6.0903472900390625, -0.8482447862625122, 1.621803879737854, 1.610507845878601, 0.7930808067321777, 
129, 2168157910, -87.50245666503906, 45.62772750854492, 95.85958099365234, -7.206231594085693, -6.602324485778809, 0.7566706538200378, 0.47554099559783936, 0.6939536333084106, -0.5395125150680542, 
130, 2168166243, -87.49754333496094, 45.621803283691406, 95.86808776855469, -6.889475345611572, -7.417898654937744, -0.18341319262981415, 1.4291335344314575, 0.28807052969932556, -0.10061272233724594, 
131, 2168174576, -87.49016571044922, 45.626033782958984, 95.86646270751953, -6.651965141296387, -7.299248695373535, 1.027353286743164, 2.568608283996582, 1.2165353298187256, 1.0602372884750366, 
132, 2168182909, -87.48435974121094, 45.63203811645508, 95.86979675292969, -6.501033782958984, -6.725790500640869, 0.14828245341777802, 1.9528932571411133, 0.8104727864265442, 1.288716197013855, 
133, 2168191242, -87.48994445800781, 45.63542938232422, 95.85626983642578, -7.086144924163818, -6.024774551391602, -0.11801651865243912, 2.0631113052368164, 2.184497117996216, 0.937519371509552, 
134, 2168199575, -87.4874038696289, 45.62924575805664, 95.86869812011719, -7.202462196350098, -6.299201011657715, 0.27064213156700134, 0.7815799117088318, -0.0172127652913332, -0.1373947560787201, 
135, 2168207908, -87.49060821533203, 45.61977767944336, 95.86836242675781, -7.059484004974365, -7.196296691894531, -0.3284800052642822, 1.2154849767684937, 1.0119543075561523, -0.5573657751083374, 
136, 2168216241, -87.4830551147461, 45.61994552612305, 95.8765640258789, -6.663183212280273, -7.514514446258545, 1.1473358869552612, 1.7735167741775513, 0.3431410789489746, 0.6303534507751465, 
137, 2168224574, -87.47991943359375, 45.62702178955078, 95.87408447265625, -6.335696697235107, -6.913052558898926, -0.14402025938034058, 2.1291449069976807, 1.3027015924453735, 1.3945286273956299, 
138, 2168232907, -87.4815673828125, 45.63225555419922, 95.86509704589844, -6.892892360687256, -6.179014682769775, 0.7770065665245056, 2.1164915561676025, 1.8384743928909302, 1.1534217596054077, 
139, 2168241240, -87.47930908203125, 45.62944793701172, 95.87229919433594, -7.1898016929626465, -6.186801433563232, -0.5888720750808716, 1.2229900360107422, 0.41580864787101746, 0.2691415548324585, 
140, 2168249573, -87.48741149902344, 45.61939239501953, 95.86965942382812, -7.22219705581665, -6.974772930145264, 0.5029521584510803, 0.7991001009941101, 1.2261148691177368, -0.6569539308547974, 
141, 2168257906, -87.48194885253906, 45.61555480957031, 95.88153076171875, -6.87676477432251, -7.51809549331665, 0.4731033444404602, 1.2089533805847168, 0.016559602692723274, 0.16153615713119507, 
142, 2168266239, -87.47591400146484, 45.62110137939453, 95.87747192382812, -6.299696445465088, -7.07270622253418, 0.2703200578689575, 2.6456046104431152, 1.402981162071228, 1.2292399406433105, 
143, 2168274572, -87.47364044189453, 45.625816345214844, 95.87683868408203, -6.715163230895996, -6.420403480529785, 0.8480167984962463, 1.8714656829833984, 1.134979486465454, 1.1227871179580688, 
144, 2168282905, -87.47828674316406, 45.62770462036133, 95.86965942382812, -7.027482509613037, -6.027437686920166, -0.7518860101699829, 1.6010818481445312, 1.6685752868652344, 0.7571695446968079, 
145, 2168291238, -87.48410034179688, 45.61886978149414, 95.8746109008789, -7.2878313064575195, -6.6834306716918945, 0.7090756297111511, 0.44833874702453613, 0.5749242901802063, -0.4606207609176636, 
146, 2168299571, -87.48118591308594, 45.61337661743164, 95.88066864013672, -6.917585849761963, -7.424393653869629, -0.16028089821338654, 1.3730382919311523, 0.5189316272735596, -0.07786726951599121, 
147, 2168307904, -87.47289276123047, 45.61802291870117, 95.88070678710938, -6.533561706542969, -7.336695671081543, 1.0167367458343506, 2.5569794178009033, 1.0523735284805298, 1.1353638172149658, 
148, 2168316237, -87.4713134765625, 45.62522888183594, 95.87934112548828, -6.550920486450195, -6.645107746124268, 0.23396453261375427, 1.8505902290344238, 1.2105416059494019, 1.4149175882339478, 
149, 2168324570, -87.47666931152344, 45.62898254394531, 95.86731719970703, -6.997330188751221, -5.983501434326172, -0.04298313334584236, 1.9582468271255493, 2.061241626739502, 0.9866988658905029, 
150, 2168332903, -87.47761535644531, 45.62300109863281, 95.87708282470703, -7.119768142700195, -6.35635232925415, 0.2790610194206238, 0.6190320253372192, 0.18476827442646027, -0.10122745484113693, 
151, 2168341236, -87.4825210571289, 45.61552047729492, 95.87431335449219, -7.059167861938477, -7.306018352508545, -0.08523217588663101, 1.1927396059036255, 1.2488603591918945, -0.3502490222454071, 
152, 2168349569, -87.47588348388672, 45.61690139770508, 95.88129425048828, -6.775613307952881, -7.5559868812561035, 1.0533661842346191, 1.7396291494369507, 0.4803566038608551, 0.7494596838951111, 
153, 2168357902, -87.47413635253906, 45.62449645996094, 95.87714385986328, -6.279897689819336, -6.815354347229004, -0.13301460444927216, 2.1346006393432617, 1.4185547828674316, 1.4745986461639404, 
154, 2168366235, -87.4770278930664, 45.630191802978516, 95.86724853515625, -6.945649147033691, -6.112900257110596, 0.6720755100250244, 2.0475893020629883, 1.9172126054763794, 1.2038307189941406, 
155, 2168374568, -87.47822570800781, 45.629127502441406, 95.8701400756836, -7.123823642730713, -6.123928070068359, -0.5795376300811768, 1.1755781173706055, 0.7842695713043213, 0.4644245207309723, 
156, 2168382901, -87.4889144897461, 45.61964797973633, 95.86732482910156, -7.290121078491211, -7.038712024688721, 0.3767114281654358, 0.5345819592475891, 1.220428705215454, -0.5676114559173584, 
157, 2168391234, -87.4839096069336, 45.617576599121094, 95.87649536132812, -6.848067283630371, -7.541164398193359, 0.5189389586448669, 1.3583869934082031, 0.2789005935192108, 0.3436533808708191, 
158, 2168399567, -87.47855377197266, 45.625492095947266, 95.87283325195312, -6.381082534790039, -7.06917142868042, 0.3084903657436371, 2.5007050037384033, 1.4066953659057617, 1.493502140045166, 
159, 2168407900, -87.47972106933594, 45.631839752197266, 95.86825561523438, -6.649496555328369, -6.361270904541016, 0.8218297958374023, 1.8197247982025146, 1.448625922203064, 1.3226807117462158, 
160, 2168416233, -87.48567962646484, 45.635047912597656, 95.86139678955078, -7.123032093048096, -6.076225757598877, -0.7708859443664551, 1.4150198698043823, 1.647776484489441, 0.9163363575935364, 
161, 2168424566, -87.49324035644531, 45.62680435180664, 95.8641128540039, -7.317902088165283, -6.624441146850586, 0.6097300052642822, 0.42628487944602966, 0.7619338035583496, -0.3972255289554596, 
162, 2168432899, -87.49118041992188, 45.62067794799805, 95.86946868896484, -6.929173469543457, -7.426854133605957, -0.17744772136211395, 1.3650208711624146, 0.5553293824195862, -0.13298910856246948, 
163, 2168441232, -87.48389434814453, 45.625667572021484, 95.86981964111328, -6.534883499145508, -7.282516002655029, 0.8427548408508301, 2.3877973556518555, 1.052885890007019, 1.1560344696044922, 
164, 2168449565, -87.4817886352539, 45.63194274902344, 95.86962890625, -6.392364025115967, -6.597976207733154, 0.2792322635650635, 1.8106831312179565, 1.105702519416809, 1.3112056255340576, 
165, 2168457898, -87.49191284179688, 45.63625717163086, 95.85286712646484, -7.05629825592041, -6.017426490783691, -0.1243291050195694, 1.7944437265396118, 2.4622578620910645, 1.035724401473999, 
166, 2168466231, -87.49230194091797, 45.63019561767578, 95.86270141601562, -7.248598098754883, -6.372875690460205, 0.2834099531173706, 0.6519719362258911, 0.20067472755908966, -0.1336294710636139, 
167, 2168474564, -87.49652862548828, 45.62285614013672, 95.86209869384766, -7.158129692077637, -7.334590435028076, -0.13425153493881226, 1.1100313663482666, 1.042819619178772, -0.30375921726226807, 
168, 2168482897, -87.49080657958984, 45.62496566772461, 95.8660659790039, -6.6791605949401855, -7.491692066192627, 0.9495856165885925, 1.9179041385650635, 0.7116530537605286, 0.8467937707901001, 
169, 2168491230, -87.48705291748047, 45.632205963134766, 95.86506652832031, -6.351648330688477, -6.774307727813721, -0.13079093396663666, 2.0786333084106445, 1.1784982681274414, 1.4225506782531738, 
170, 2168499563, -87.49122619628906, 45.636444091796875, 95.85336303710938, -6.906972408294678, -6.061028957366943, 0.6108589172363281, 2.0460264682769775, 2.061267137527466, 1.0240442752838135, 
171, 2168507896, -87.49099731445312, 45.63261413574219, 95.86012268066406, -7.181618690490723, -6.2576003074646, -0.5106915235519409, 1.0193055868148804, 0.44580286741256714, 0.1468079686164856, 
172, 2168516229, -87.50048065185547, 45.62422561645508, 95.85609436035156, -7.194122314453125, -7.086685657501221, 0.3480428457260132, 0.7489986419677734, 1.3481156826019287, -0.46313101053237915, 
173, 2168524562, -87.49684143066406, 45.62385559082031, 95.86479187011719, -6.7452239990234375, -7.572078227996826, 0.7107422351837158, 1.2604635953903198, 0.3031316101551056, 0.5662922859191895, 
174, 2168532895, -87.49201965332031, 45.63200759887695, 95.8604965209961, -6.382583141326904, -6.957400798797607, 0.08495185524225235, 2.5205047130584717, 1.4378935098648071, 1.5438852310180664, 
175, 2168541228, -87.48948669433594, 45.6379280090332, 95.85880279541016, -6.7877397537231445, -6.354722499847412, 0.894842267036438, 1.9909818172454834, 1.228087306022644, 1.2608479261398315, 
176, 2168549561, -87.4917221069336, 45.6396598815918, 95.85491180419922, -7.1783833503723145, -6.123244762420654, -0.8321657776832581, 1.6109176874160767, 1.393913745880127, 0.7512527108192444, 
177, 2168557894, -87.49879455566406, 45.63086700439453, 95.85672760009766, -7.2438273429870605, -6.748943328857422, 0.6069473624229431, 0.5663691759109497, 0.8358821272850037, -0.46566683053970337, 
178, 2168566227, -87.49407196044922, 45.62582015991211, 95.86627197265625, -6.935210704803467, -7.376153945922852, -0.011930935084819794, 1.2889209985733032, 0.2286454439163208, -0.014600113034248352, 
179, 2168574560, -87.48802185058594, 45.63093185424805, 95.86311340332031, -6.481404781341553, -7.309570789337158, 0.6534175276756287, 2.566636323928833, 1.3250372409820557, 1.1817256212234497, 
180, 2168582893, -87.48291778564453, 45.63705825805664, 95.86670684814453, -6.447824001312256, -6.598367691040039, 0.453755259513855, 1.874769926071167, 0.7596285939216614, 1.3282134532928467, 
181, 2168591226, -87.490234375, 45.64297866821289, 95.85210418701172, -7.020030975341797, -6.086510181427002, -0.3778848946094513, 1.9153684377670288, 2.3138747215270996, 1.213973879814148, 
182, 2168599559, -87.48959350585938, 45.636592864990234, 95.86216735839844, -7.302794933319092, -6.423038482666016, 0.4074473977088928, 0.7581685185432434, 0.18131035566329956, -0.1708725392818451, 
183, 2168607892, -87.49019622802734, 45.62929916381836, 95.86373138427734, -7.050613880157471, -7.185074329376221, -0.23572929203510284, 1.3632280826568604, 0.8615732192993164, -0.2884930968284607, 
184, 2168616225, -87.48353576660156, 45.63153076171875, 95.86860656738281, -6.704529762268066, -7.461472988128662, 1.0601685047149658, 1.9218231439590454, 0.6595537066459656, 0.8427979946136475, 
185, 2168624558, -87.4791030883789, 45.638755798339844, 95.86784362792969, -6.265021324157715, -6.808427333831787, -0.13939987123012543, 2.1746103763580322, 1.1362603902816772, 1.4459108114242554, 
186, 2168632891, -87.48274993896484, 45.64430236816406, 95.85623931884766, -6.957366466522217, -6.144919395446777, 0.6829296946525574, 2.126762866973877, 2.0352940559387207, 1.203574538230896, 
187, 2168641224, -87.4802474975586, 45.64237594604492, 95.86424255371094, -7.202190399169922, -6.238809585571289, -0.35802125930786133, 1.15741765499115, 0.37469786405563354, 0.355051726102829, 
188, 2168649557, -87.48721313476562, 45.63264465332031, 95.86188507080078, -7.2784037590026855, -7.060914516448975, 0.10172057896852493, 0.9080373644828796, 1.204240322113037, -0.6173542737960815, 
189, 2168657890, -87.4813232421875, 45.6306037902832, 95.87325286865234, -6.767991542816162, -7.509227275848389, 0.7137609720230103, 1.3032649755477905, 0.07083616405725479, 0.37741291522979736, 
190, 2168666223, -87.47529602050781, 45.63718032836914, 95.87008666992188, -6.356152534484863, -7.005704402923584, -0.03162764757871628, 2.5387165546417236, 1.3562865257263184, 1.3354365825653076, 
191, 2168674556, -87.47345733642578, 45.64236831665039, 95.8685531616211, -6.771515846252441, -6.281219482421875, 0.9477456212043762, 1.9205937385559082, 1.1896915435791016, 1.1957110166549683, 
192, 2168682889, -87.47684478759766, 45.644256591796875, 95.86392211914062, -7.144822120666504, -6.131336688995361, -0.8605813980102539, 1.561277151107788, 1.4292103052139282, 0.7902119159698486, 
193, 2168691222, -87.48381805419922, 45.63524627685547, 95.86648559570312, -7.270098686218262, -6.686878204345703, 0.8035649061203003, 0.4844292402267456, 0.7949506640434265, -0.5131299495697021, 
194, 2168699555, -87.47901153564453, 45.629791259765625, 95.87686157226562, -6.825020790100098, -7.4034223556518555, -0.07480447739362717, 1.2307767868041992, 0.15887229144573212, -0.0587078258395195, 
195, 2168707888, -87.47415924072266, 45.633113861083984, 95.8738021850586, -6.5936479568481445, -7.297300815582275, 0.8267801403999329, 2.4167160987854004, 1.3081061840057373, 0.9667708277702332, 
196, 2168716221, -87.46944427490234, 45.64006805419922, 95.87592315673828, -6.451442241668701, -6.647687911987305, 0.3936328589916229, 1.9285855293273926, 0.916976809501648, 1.400445580482483, 
197, 2168724554, -87.4786605834961, 45.64468002319336, 95.85934448242188, -7.115056991577148, -6.011630535125732, -0.3090243637561798, 1.8847849369049072, 2.444532871246338, 1.0736078023910522, 
198, 2168732887, -87.4801254272461, 45.637550354003906, 95.86865234375, -7.2686333656311035, -6.355865955352783, 0.44903403520584106, 0.6089399456977844, 0.22721107304096222, -0.24097870290279388, 
199, 2168741220, -87.48265838623047, 45.62852478027344, 95.86944580078125, -7.083689212799072, -7.19974422454834, -0.40641021728515625, 1.170250415802002, 0.9423093199729919, -0.5219669342041016, 
200, 2168749553, -87.4753189086914, 45.62968826293945, 95.87617492675781, -6.624973773956299, -7.50037956237793, 1.1905803680419922, 1.8439301252365112, 0.49954158067703247, 0.7212328314781189, 
201, 2168757886, -87.47059631347656, 45.63640213012695, 95.87545776367188, -6.292159557342529, -6.8522539138793945, -0.04279119148850441, 2.2351365089416504, 1.1606707572937012, 1.3816189765930176, 
202, 2168766219, -87.47319793701172, 45.64142990112305, 95.86514282226562, -6.9046244621276855, -6.163338661193848, 0.7160426378250122, 2.1155693531036377, 1.9494096040725708, 1.1213271617889404, 
203, 2168774552, -87.47221374511719, 45.63917922973633, 95.87136840820312, -7.219929218292236, -6.1984968185424805, -0.5481579303741455, 1.1588776111602783, 0.5038191676139832, 0.3322294056415558, 
204, 2168782885, -87.4822006225586, 45.630226135253906, 95.86692810058594, -7.2333550453186035, -7.003828048706055, 0.4704855978488922, 0.7613703012466431, 1.3589503765106201, -0.5094414949417114, 
205, 2168791218, -87.47594451904297, 45.626914978027344, 95.8781509399414, -6.784078121185303, -7.513131618499756, 0.5076730251312256, 1.3324651718139648, 0.10044621676206589, 0.2046961635351181, 
206, 2168799551, -87.46980285644531, 45.63438415527344, 95.87384033203125, -6.258172988891602, -7.030987739562988, 0.19401448965072632, 2.6510350704193115, 1.4592814445495605, 1.43776535987854, 
207, 2168807884, -87.46988677978516, 45.64088439941406, 95.87451171875, -6.72388219833374, -6.399165153503418, 0.9644380211830139, 1.73668372631073, 1.2416372299194336, 1.3508307933807373, 
208, 2168816217, -87.4775619506836, 45.6438102722168, 95.86486053466797, -7.0756425857543945, -6.059634685516357, -0.9079418778419495, 1.4504444599151611, 1.880149006843567, 0.8729715943336487, 
209, 2168824550, -87.48470306396484, 45.6347541809082, 95.86754608154297, -7.29081392288208, -6.66223669052124, 0.6431979537010193, 0.41798585653305054, 0.6946451663970947, -0.4903588593006134, 
210, 2168832883, -87.48294830322266, 45.62868881225586, 95.874755859375, -6.886450290679932, -7.356713771820068, -0.08458231389522552, 1.242354393005371, 0.4746958017349243, -0.12302515655755997, 
211, 2168841216, -87.47557830810547, 45.63328552246094, 95.8746337890625, -6.553321838378906, -7.36415433883667, 0.8427543640136719, 2.4385390281677246, 1.0934075117111206, 1.1070855855941772, 
212, 2168849549, -87.47241973876953, 45.6402587890625, 95.87555694580078, -6.504223823547363, -6.658675193786621, 0.37982943654060364, 1.842162847518921, 1.0152841806411743, 1.3970900774002075, 
213, 2168857882, -87.47957611083984, 45.64503860473633, 95.85465240478516, -6.999070167541504, -6.061184406280518, -0.1255856454372406, 1.9570428133010864, 2.2738139629364014, 1.1040118932724, 
214, 2168866215, -87.48046875, 45.63986587524414, 95.86336517333984, -7.171604633331299, -6.343827724456787, 0.29855966567993164, 0.6897529363632202, 0.30016040802001953, -0.03101884014904499, 
215, 2168874548, -87.48383331298828, 45.6322021484375, 95.8609619140625, -7.029435157775879, -7.240930080413818, -0.17301297187805176, 1.0633621215820312, 0.8942825198173523, -0.33546966314315796, 
216, 2168882881, -87.4788818359375, 45.632965087890625, 95.86734008789062, -6.757262229919434, -7.481880187988281, 1.0423649549484253, 1.7163970470428467, 0.5969268679618835, 0.693492591381073, 
217, 2168891214, -87.47354888916016, 45.64048385620117, 95.86674499511719, -6.312466621398926, -6.845850944519043, -0.17390821874141693, 2.2313456535339355, 1.1460959911346436, 1.454081654548645, 
218, 2168899547, -87.4754638671875, 45.64716720581055, 95.8563232421875, -6.922728538513184, -6.195725917816162, 0.764988124370575, 2.2077550888061523, 1.9659054279327393, 1.3206316232681274, 
219, 2168907880, -87.47622680664062, 45.64661407470703, 95.85675048828125, -7.205695152282715, -6.18735933303833, -0.6664589643478394, 1.2397418022155762, 0.7906217575073242, 0.5277684926986694, 
220, 2168916213, -87.48606872558594, 45.637847900390625, 95.85418701171875, -7.296722412109375, -6.99221134185791, 0.3637506663799286, 0.5811741948127747, 1.2268065214157104, -0.5019109845161438, 
221, 2168924546, -87.48115539550781, 45.63389587402344, 95.86280822753906, -6.789170742034912, -7.466888427734375, 0.5077087879180908, 1.242661952972412, 0.11537931859493256, 0.14460515975952148, 
222, 2168932879, -87.47589874267578, 45.64111328125, 95.86421966552734, -6.403066158294678, -7.09482479095459, 0.24970465898513794, 2.5803399085998535, 1.4376888275146484, 1.4316949844360352, 
223, 2168941212, -87.47332763671875, 45.64643859863281, 95.86304473876953, -6.6735076904296875, -6.4723310470581055, 0.885536253452301, 1.9518433809280396, 1.1825708150863647, 1.1908698081970215, 
224, 2168949545, -87.47974395751953, 45.64979553222656, 95.85330200195312, -7.144926071166992, -6.08160400390625, -0.8215574622154236, 1.6097649335861206, 1.8936216831207275, 0.9250196814537048, 
225, 2168957878, -87.48614501953125, 45.640506744384766, 95.8687973022461, -7.280077934265137, -6.576159477233887, 0.6429762244224548, 0.4029247760772705, 0.5880901217460632, -0.5120542049407959, 
226, 2168966211, -87.48429107666016, 45.634029388427734, 95.8741683959961, -6.9563398361206055, -7.270756721496582, -0.25803154706954956, 1.301830768585205, 0.5704930424690247, -0.1997910439968109, 
227, 2168974544, -87.47850036621094, 45.63799285888672, 95.8735122680664, -6.476092338562012, -7.330175399780273, 0.8538547158241272, 2.3612611293792725, 1.1479915380477905, 1.051041841506958, 
228, 2168982877, -87.47341918945312, 45.64423370361328, 95.87576293945312, -6.43821907043457, -6.696871757507324, 0.2727787494659424, 1.861040711402893, 0.7539421916007996, 1.3430438041687012, 
229, 2168991210, -87.47940826416016, 45.64888000488281, 95.86013793945312, -6.949725151062012, -6.087425708770752, 0.0036530974321067333, 2.164518117904663, 2.392280101776123, 1.0593664646148682, 
230, 2168999543, -87.47545623779297, 45.644466400146484, 95.87152099609375, -7.359645843505859, -6.2660908699035645, 0.1820613145828247, 1.0418205261230469, 0.08000606298446655, 0.06983721256256104, 
231, 2169007876, -87.47982788085938, 45.635616302490234, 95.886962890625, -7.113960266113281, -7.174215793609619, -0.21799004077911377, 1.0163600444793701, 0.9509924650192261, -0.47796159982681274, 
232, 2169016209, -87.47516632080078, 45.6351432800293, 95.89339447021484, -6.768111705780029, -7.522833347320557, 1.0779165029525757, 1.55149245262146, 0.5168567895889282, 0.5272561311721802, 
233, 2169024542, -87.4697494506836, 45.64133834838867, 95.9124984741211, -6.32222843170166, -6.954723834991455, -0.2053409218788147, 2.304832935333252, 1.1415112018585205, 1.320477843284607, 
234, 2169032875, -87.47150421142578, 45.64603042602539, 95.89745330810547, -6.868502616882324, -6.244526386260986, 0.9016514420509338, 2.069002866744995, 1.7501567602157593, 1.1120293140411377, 
235, 2169041208, -87.47040557861328, 45.644412994384766, 95.90194702148438, -7.147170543670654, -6.1750993728637695, -0.7649965286254883, 1.2869231700897217, 0.6689797639846802, 0.38094770908355713, 
236, 2169049541, -87.47821807861328, 45.63493728637695, 95.9007797241211, -7.2083635330200195, -6.915947914123535, 0.5100547075271606, 0.7071194052696228, 1.106624722480774, -0.5828775763511658, 
237, 2169057874, -87.47310638427734, 45.63042449951172, 95.9123764038086, -6.758513927459717, -7.403828144073486, 0.36822110414505005, 1.1534985303878784, 0.0015752753242850304, 0.08617909252643585, 
238, 2169066207, -87.46662139892578, 45.63752746582031, 95.90654754638672, -6.473711967468262, -7.146308898925781, 0.32561635971069336, 2.821779251098633, 1.5836384296417236, 1.3872541189193726, 
239, 2169074540, -87.4632797241211, 45.64325714111328, 95.91276550292969, -6.689345836639404, -6.454682350158691, 0.8712910413742065, 1.8985401391983032, 0.9841117262840271, 1.2736549377441406, 
240, 2169082873, -87.47041320800781, 45.64732360839844, 95.90296173095703, -7.124239444732666, -6.1291961669921875, -0.709867537021637, 1.7401413917541504, 2.0615744590759277, 1.0219439268112183, 
241, 2169091206, -87.47392272949219, 45.638057708740234, 95.9102783203125, -7.272302627563477, -6.520152568817139, 0.665786623954773, 0.4971082806587219, 0.3960088789463043, -0.5244258046150208, 
242, 2169099539, -87.47247314453125, 45.630577087402344, 95.9154281616211, -6.929817199707031, -7.280292510986328, -0.2932164967060089, 1.2759602069854736, 0.5845296382904053, -0.3193070590496063, 
243, 2169107872, -87.46585083007812, 45.63328552246094, 95.91785430908203, -6.5759477615356445, -7.4227471351623535, 1.0933752059936523, 2.2051167488098145, 0.89069664478302, 0.9121102094650269, 
244, 2169116205, -87.46082305908203, 45.64088439941406, 95.92037963867188, -6.330185413360596, -6.761885166168213, 0.15362751483917236, 1.9288928508758545, 0.8844979405403137, 1.4762636423110962, 
245, 2169124538, -87.4681167602539, 45.6470832824707, 95.89862060546875, -6.958858013153076, -6.088070869445801, 0.1779617965221405, 2.2302701473236084, 2.5624868869781494, 1.259848952293396, 
246, 2169132871, -87.46440887451172, 45.64404296875, 95.9171371459961, -7.280063629150391, -6.229611396789551, -0.06428259611129761, 0.9556030035018921, -0.019646117463707924, 0.26437729597091675, 
247, 2169141204, -87.47076416015625, 45.634883880615234, 95.91447448730469, -7.234891414642334, -7.1151299476623535, -0.035535842180252075, 1.00685715675354, 1.2296242713928223, -0.5515512824058533, 
248, 2169149537, -87.46358489990234, 45.63322067260742, 95.92530822753906, -6.722835540771484, -7.435251712799072, 1.006261944770813, 1.4784408807754517, 0.14217181503772736, 0.4005938172340393, 
249, 2169157870, -87.45716857910156, 45.64094924926758, 95.9166259765625, -6.31788444519043, -6.977161884307861, -0.15059924125671387, 2.474808931350708, 1.2052651643753052, 1.5015192031860352, 
250, 2169166203, -87.4563217163086, 45.64765167236328, 95.91236877441406, -6.724209308624268, -6.303189754486084, 1.0546795129776, 2.0103461742401123, 1.4509055614471436, 1.344273567199707, 
251, 2169174536, -87.45760345458984, 45.64847946166992, 95.91072082519531, -7.217610836029053, -6.174644470214844, -0.8685123324394226, 1.4603058099746704, 1.0765022039413452, 0.6804293394088745, 
252, 2169182869, -87.46682739257812, 45.6398811340332, 95.91068267822266, -7.258941650390625, -6.734523773193359, 0.6282200217247009, 0.6515108942985535, 1.1689441204071045, -0.45895591378211975, 
253, 2169191202, -87.46134185791016, 45.63516616821289, 95.92240905761719, -6.870298385620117, -7.397669315338135, 0.0990811437368393, 1.199809193611145, 0.04911528900265694, 0.0372559055685997, 
254, 2169199535, -87.45560455322266, 45.640037536621094, 95.9168930053711, -6.487186431884766, -7.2367143630981445, 0.5816678404808044, 2.706669330596924, 1.5458320379257202, 1.1220955848693848, 
255, 2169207868, -87.45201873779297, 45.64583206176758, 95.9153060913086, -6.558783054351807, -6.563732147216797, 0.5321639180183411, 1.8466966152191162, 0.9099329710006714, 1.2821077108383179, 
256, 2169216201, -87.45857238769531, 45.649776458740234, 95.90130615234375, -7.04229211807251, -6.052454948425293, -0.43461889028549194, 1.9566586017608643, 2.2526309490203857, 0.9792450070381165, 
257, 2169224534, -87.45977783203125, 45.643192291259766, 95.91776275634766, -7.223706245422363, -6.423502445220947, 0.5758897662162781, 0.6191089153289795, 0.2061561644077301, -0.17284484207630157, 
258, 2169232867, -87.46131896972656, 45.63556671142578, 95.91905975341797, -6.979586601257324, -7.229013442993164, -0.22604414820671082, 1.2517036199569702, 0.861163318157196, -0.32699131965637207, 
259, 2169241200, -87.45562744140625, 45.637996673583984, 95.9216079711914, -6.766942024230957, -7.516506195068359, 1.2246508598327637, 2.0070674419403076, 0.8565784096717834, 0.8596777319908142, 
260, 2169249533, -87.45294189453125, 45.64576721191406, 95.92045593261719, -6.30669641494751, -6.768318176269531, -0.21421976387500763, 1.9673397541046143, 1.195044994354248, 1.4862276315689087, 
261, 2169257866, -87.45821380615234, 45.650856018066406, 95.91388702392578, -7.005946636199951, -6.109875202178955, 0.5903621315956116, 2.0982797145843506, 2.1933085918426514, 1.142382264137268, 
262, 2169266199, -87.45640563964844, 45.648956298828125, 95.92255401611328, -7.190037727355957, -6.1922454833984375, -0.3727845251560211, 1.014054775238037, 0.3193967044353485, 0.3605075478553772, 
263, 2169274532, -87.465087890625, 45.638710021972656, 95.91921997070312, -7.243218898773193, -7.065106391906738, 0.16323502361774445, 0.8034800887107849, 1.246708631515503, -0.657184362411499, 
264, 2169282865, -87.46004486083984, 45.635589599609375, 95.93045806884766, -6.753342151641846, -7.529382705688477, 0.7045049667358398, 1.1947120428085327, 0.05636413022875786, 0.2500077784061432, 
265, 2169291198, -87.45531463623047, 45.64325714111328, 95.92646789550781, -6.322817802429199, -7.064654350280762, 0.16153261065483093, 2.452345132827759, 1.4317716360092163, 1.4627904891967773, 
266, 2169299531, -87.45404052734375, 45.64984893798828, 95.92281341552734, -6.719377517700195, -6.377986431121826, 1.0457537174224854, 2.0105254650115967, 1.3996258974075317, 1.3348218202590942, 
267, 2169307864, -87.45823669433594, 45.6517219543457, 95.9195785522461, -7.177478313446045, -6.1470842361450195, -0.9406594634056091, 1.5270311832427979, 1.4898136854171753, 0.7878554463386536, 
268, 2169316197, -87.46587371826172, 45.6435661315918, 95.92256164550781, -7.2818732261657715, -6.634161472320557, 0.7950311303138733, 0.3710606098175049, 0.7642647624015808, -0.4095204174518585, 
269, 2169324530, -87.46385955810547, 45.636505126953125, 95.93096160888672, -6.940410614013672, -7.327114582061768, -0.26845335960388184, 1.219429612159729, 0.41414374113082886, -0.23854537308216095, 
270, 2169332863, -87.4582290649414, 45.640621185302734, 95.93538665771484, -6.529345512390137, -7.309134483337402, 0.9263318777084351, 2.4801626205444336, 1.2804428339004517, 1.0651296377182007, 
271, 2169341196, -87.4539566040039, 45.646583557128906, 95.93771362304688, -6.379644393920898, -6.6877899169921875, 0.3398057222366333, 1.8569422960281372, 0.8939239382743835, 1.281877040863037, 
272, 2169349529, -87.46312713623047, 45.65231704711914, 95.91949462890625, -6.9968438148498535, -6.056766986846924, -0.08759096264839172, 2.0045061111450195, 2.6147141456604004, 1.1768077611923218, 
273, 2169357862, -87.46368408203125, 45.64753723144531, 95.92498779296875, -7.276122093200684, -6.338770866394043, 0.1922326534986496, 0.7501255869865417, 0.2635064125061035, 0.044940173625946045, 
274, 2169366195, -87.46823120117188, 45.639930725097656, 95.92484283447266, -7.168085098266602, -7.212640285491943, -0.1901513636112213, 1.0059350728988647, 1.0272462368011475, -0.35493648052215576, 
275, 2169374528, -87.46331787109375, 45.639747619628906, 95.92069244384766, -6.72823429107666, -7.5361175537109375, 0.9668128490447998, 1.703999638557434, 0.5892682671546936, 0.5788688659667969, 
276, 2169382861, -87.45881652832031, 45.6478157043457, 95.91679382324219, -6.338968753814697, -6.881414413452148, -0.0921483114361763, 2.2815239429473877, 1.2431741952896118, 1.5393770933151245, 
277, 2169391194, -87.46029663085938, 45.65327072143555, 95.90803527832031, -6.8429670333862305, -6.224850654602051, 0.6801577210426331, 2.119795560836792, 1.821517825126648, 1.1817511320114136, 
278, 2169399527, -87.45933532714844, 45.651859283447266, 95.91022491455078, -7.168787956237793, -6.1907806396484375, -0.5925902724266052, 1.471114993095398, 0.8654921650886536, 0.3967004716396332, 
279, 2169407860, -87.46646118164062, 45.64265060424805, 95.91380310058594, -7.228562831878662, -6.915590286254883, 0.4006378948688507, 0.6937999725341797, 0.9610077142715454, -0.5215058922767639, 
280, 2169416193, -87.46231079101562, 45.639251708984375, 95.92323303222656, -6.832388401031494, -7.500149250030518, 0.4391416311264038, 1.2367192506790161, 0.24765121936798096, 0.18743214011192322, 
281, 2169424526, -87.45645904541016, 45.64579772949219, 95.91898345947266, -6.383692264556885, -7.100801944732666, 0.2542259395122528, 2.7076683044433594, 1.4903002977371216, 1.3482438325881958, 
282, 2169432859, -87.45382690429688, 45.65223693847656, 95.91859436035156, -6.690395355224609, -6.482895851135254, 0.7745640873908997, 1.9088624715805054, 1.0907694101333618, 1.352674961090088, 
283, 2169441192, -87.45942687988281, 45.655052185058594, 95.90898132324219, -7.131046295166016, -6.095659255981445, -0.8186666369438171, 1.6973658800125122, 1.8764091730117798, 0.8598315119743347, 
284, 2169449525, -87.46377563476562, 45.64735412597656, 95.91569519042969, -7.320713520050049, -6.520002841949463, 0.6133994460105896, 0.4451882541179657, 0.4546911418437958, -0.34120720624923706, 
285, 2169457858, -87.45997619628906, 45.639652252197266, 95.92459106445312, -6.961447238922119, -7.2795844078063965, -0.24306075274944305, 1.3918646574020386, 0.36819183826446533, -0.31282663345336914, 
286, 2169466191, -87.45353698730469, 45.642581939697266, 95.9257583618164, -6.586413860321045, -7.442298412322998, 1.0226143598556519, 2.2169761657714844, 0.9754540920257568, 0.913134753704071, 
287, 2169474524, -87.44952392578125, 45.6495361328125, 95.9258041381836, -6.303680896759033, -6.799083709716797, 0.14925312995910645, 1.8538684844970703, 0.8738167881965637, 1.4245740175247192, 
288, 2169482857, -87.45745849609375, 45.65570831298828, 95.90370178222656, -6.973111629486084, -6.112361907958984, 0.12645955383777618, 2.139518976211548, 2.546170473098755, 1.2593367099761963, 
289, 2169491190, -87.45488739013672, 45.6522216796875, 95.9141616821289, -7.256537914276123, -6.196129322052002, 0.0759919136762619, 0.9554238319396973, 0.16276568174362183, 0.1804138720035553, 
290, 2169499523, -87.45945739746094, 45.64247512817383, 95.91339874267578, -7.25128698348999, -7.062723636627197, -0.20291219651699066, 1.059981107711792, 1.0695351362228394, -0.614536702632904, 
291, 2169507856, -87.45258331298828, 45.640541076660156, 95.92404174804688, -6.715346336364746, -7.494927883148193, 0.9465786218643188, 1.4656593799591064, 0.10879645496606827, 0.39080917835235596, 
292, 2169516189, -87.44627380371094, 45.646907806396484, 95.9224624633789, -6.282136917114258, -6.973618984222412, -0.16231046617031097, 2.4344921112060547, 1.2242450714111328, 1.314407229423523, 
293, 2169524522, -87.44705963134766, 45.651756286621094, 95.9117431640625, -6.804014205932617, -6.3069915771484375, 0.956767737865448, 1.9279192686080933, 1.4989835023880005, 1.1434577703475952, 
294, 2169532855, -87.44999694824219, 45.652156829833984, 95.91297149658203, -7.230688095092773, -6.145117282867432, -0.8475890755653381, 1.334309458732605, 1.1492210626602173, 0.625819742679596, 
295, 2169541188, -87.45793151855469, 45.64285659790039, 95.91220092773438, -7.287702560424805, -6.816831111907959, 0.6277551651000977, 0.6603478789329529, 1.0736846923828125, -0.5604138970375061, 
296, 2169549521, -87.4517593383789, 45.63827133178711, 95.92329406738281, -6.841365337371826, -7.480435848236084, 0.16403615474700928, 1.3318506479263306, 0.10285396873950958, 0.05029354989528656, 
297, 2169557854, -87.44691467285156, 45.64371109008789, 95.92281341552734, -6.448398113250732, -7.199295997619629, 0.5367180109024048, 2.551882266998291, 1.4477037191390991, 1.2177903652191162, 
298, 2169566187, -87.44255828857422, 45.64931106567383, 95.92463684082031, -6.622610092163086, -6.536097049713135, 0.6280727982521057, 1.9099640846252441, 0.9362131953239441, 1.237923264503479, 
299, 2169574520, -87.44824981689453, 45.65279006958008, 95.90884399414062, -7.067471027374268, -6.021625518798828, -0.6082460284233093, 1.8180345296859741, 1.9582980871200562, 0.9588816165924072, 
300, 2169582853, -87.45016479492188, 45.64562225341797, 95.9179458618164, -7.195580959320068, -6.484767436981201, 0.642203688621521, 0.5271025896072388, 0.19744734466075897, -0.24095311760902405, 
301, 2169591186, -87.44819641113281, 45.63873291015625, 95.92266845703125, -7.000043869018555, -7.2798638343811035, -0.21763254702091217, 1.3733199834823608, 0.6248463988304138, -0.24961073696613312, 
302, 2169599519, -87.4418716430664, 45.64170837402344, 95.92477416992188, -6.613163948059082, -7.512108325958252, 1.1814370155334473, 2.121537446975708, 0.8959220051765442, 0.9231243133544922, 
303, 2169607852, -87.43733978271484, 45.648963928222656, 95.93608093261719, -6.428088665008545, -6.723382472991943, -0.03311114385724068, 2.084012508392334, 1.0370306968688965, 1.452186107635498, 
304, 2169616185, -87.44058990478516, 45.654022216796875, 95.92369079589844, -7.008440017700195, -6.101853847503662, 0.4172012209892273, 2.2183079719543457, 2.12243390083313, 1.118586540222168, 
305, 2169624518, -87.43891143798828, 45.6501579284668, 95.94386291503906, -7.227890491485596, -6.234825611114502, -0.1934128701686859, 0.9732512831687927, 0.22797949612140656, 0.1560291051864624, 
306, 2169632851, -87.44583129882812, 45.6409912109375, 95.94011688232422, -7.137526035308838, -7.1230340003967285, 0.003137073013931513, 1.0125946998596191, 1.243404507637024, -0.5271152853965759, 
307, 2169641184, -87.43927764892578, 45.639286041259766, 95.95169830322266, -6.776388645172119, -7.5166425704956055, 0.817169189453125, 1.3379210233688354, 0.0742940828204155, 0.39762255549430847, 
308, 2169649517, -87.43437957763672, 45.647071838378906, 95.94746398925781, -6.2573723793029785, -6.940344333648682, 0.021426210179924965, 2.4925596714019775, 1.4537745714187622, 1.4757513999938965, 
309, 2169657850, -87.43460845947266, 45.65299987792969, 95.94314575195312, -6.823472023010254, -6.322601795196533, 0.9566434621810913, 1.9894449710845947, 1.5006996393203735, 1.2736550569534302, 
310, 2169666183, -87.43824768066406, 45.65446472167969, 95.94038391113281, -7.097936153411865, -6.109455585479736, -0.9425178170204163, 1.3421987295150757, 1.2958625555038452, 0.7236661314964294, 
311, 2169674516, -87.44718933105469, 45.64641571044922, 95.94686126708984, -7.318502902984619, -6.775651931762695, 0.7626504302024841, 0.4148097336292267, 0.9081399440765381, -0.3787320852279663, 
312, 2169682849, -87.44308471679688, 45.64195251464844, 95.95625305175781, -6.8330535888671875, -7.326120376586914, -0.02763858437538147, 1.4273147583007812, 0.38192102313041687, 0.07749586552381516, 
313, 2169691182, -87.43749237060547, 45.64801788330078, 95.95353698730469, -6.535223484039307, -7.271342754364014, 0.6434090733528137, 2.446479558944702, 1.318556785583496, 1.273706316947937, 
314, 2169699515, -87.4339370727539, 45.654850006103516, 95.95530700683594, -6.462986469268799, -6.553195953369141, 0.5614721179008484, 1.8188539743423462, 0.9459208250045776, 1.3819009065628052, 
315, 2169707848, -87.44367218017578, 45.658870697021484, 95.9384765625, -7.076530456542969, -6.09033727645874, -0.3938412070274353, 1.7965697050094604, 2.4125919342041016, 1.007420539855957, 
316, 2169716181, -87.4466552734375, 45.65203094482422, 95.94654846191406, -7.259892463684082, -6.388554573059082, 0.45599374175071716, 0.49270257353782654, 0.3427569270133972, -0.23173196613788605, 
317, 2169724514, -87.44882202148438, 45.64423370361328, 95.95051574707031, -7.061307907104492, -7.289226055145264, -0.29534804821014404, 1.0924087762832642, 0.7753557562828064, -0.3419756591320038, 
318, 2169732847, -87.44376373291016, 45.645469665527344, 95.95800018310547, -6.650805473327637, -7.482269287109375, 1.027578592300415, 1.8833762407302856, 0.7471544146537781, 0.7436708211898804, 
319, 2169741180, -87.43974304199219, 45.65261459350586, 95.95809936523438, -6.334823131561279, -6.7481889724731445, -0.14392925798892975, 2.017056941986084, 1.0888482332229614, 1.413816213607788, 
320, 2169749513, -87.44342803955078, 45.65795135498047, 95.94658660888672, -6.9422526359558105, -6.089443206787109, 0.5948631167411804, 2.0896730422973633, 2.0500481128692627, 1.1545488834381104, 
321, 2169757846, -87.44352722167969, 45.65559387207031, 95.96224975585938, -7.115712642669678, -6.250397682189941, -0.3397670090198517, 1.0263240337371826, 0.4903716742992401, 0.3276700973510742, 
322, 2169766179, -87.45199584960938, 45.646873474121094, 95.95970916748047, -7.279075622558594, -7.043654918670654, 0.2939606010913849, 0.7443111538887024, 1.2228875160217285, -0.4978894591331482, 
323, 2169774512, -87.44882202148438, 45.645423889160156, 95.96826171875, -6.814706802368164, -7.533989429473877, 0.7748460173606873, 1.2938133478164673, 0.38040977716445923, 0.4365561902523041, 
324, 2169782845, -87.44535827636719, 45.65216827392578, 95.96200561523438, -6.4092535972595215, -6.983607292175293, 0.08604583889245987, 2.488333225250244, 1.5598427057266235, 1.368811845779419, 
325, 2169791178, -87.444580078125, 45.657501220703125, 95.95914459228516, -6.734066486358643, -6.388571739196777, 0.8366637825965881, 1.8832993507385254, 1.3271375894546509, 1.1863105297088623, 
326, 2169799511, -87.44878387451172, 45.65826416015625, 95.95454406738281, -7.166679382324219, -6.069816589355469, -0.8860510587692261, 1.4343329668045044, 1.4470890760421753, 0.633452832698822, 
327, 2169807844, -87.45631408691406, 45.64871597290039, 95.96134948730469, -7.2663726806640625, -6.6954545974731445, 0.5441381931304932, 0.47431156039237976, 0.7865490913391113, -0.5534723997116089, 
328, 2169816177, -87.45226287841797, 45.64269256591797, 95.97024536132812, -6.9281792640686035, -7.380753993988037, 0.0062587377615273, 1.267200231552124, 0.28092411160469055, -0.12817363440990448, 
329, 2169824510, -87.44648742675781, 45.64680862426758, 95.97164154052734, -6.462628364562988, -7.280646800994873, 0.7784548997879028, 2.404165029525757, 1.1877449750900269, 1.0681008100509644, 
330, 2169832843, -87.44450378417969, 45.65329360961914, 95.97257995605469, -6.447696685791016, -6.636768341064453, 0.5532258749008179, 1.8732585906982422, 1.12949800491333, 1.3589247465133667, 
331, 2169841176, -87.45364379882812, 45.657962799072266, 95.95726013183594, -7.046769618988037, -6.061026096343994, -0.34972289204597473, 1.7616063356399536, 2.3651034832000732, 1.0605189800262451, 
332, 2169849509, -87.4531478881836, 45.65178298950195, 95.96826171875, -7.261480331420898, -6.34300422668457, 0.4578535258769989, 0.6572484374046326, 0.10065113753080368, -0.14185161888599396, 
333, 2169857842, -87.4547348022461, 45.64250183105469, 95.95994567871094, -7.100999355316162, -7.179830551147461, -0.26898980140686035, 1.202396273612976, 0.8030703067779541, -0.5197128057479858, 
334, 2169866175, -87.45034790039062, 45.64278030395508, 95.96385955810547, -6.743444442749023, -7.526152610778809, 1.044939637184143, 1.7329950332641602, 0.7290963530540466, 0.6062760949134827, 
335, 2169874508, -87.4447250366211, 45.64864730834961, 95.97245025634766, -6.175028324127197, -6.816271781921387, -0.15264540910720825, 2.173534393310547, 0.9937939047813416, 1.2873586416244507, 
336, 2169882841, -87.45018768310547, 45.65317153930664, 95.9576187133789, -6.952122211456299, -6.191860675811768, 0.7728089094161987, 2.0486135482788086, 2.163032293319702, 1.0795247554779053, 
337, 2169891174, -87.44973754882812, 45.65141296386719, 95.96212768554688, -7.175589084625244, -6.178918838500977, -0.6170040965080261, 1.209798812866211, 0.6668281555175781, 0.3649900257587433, 
338, 2169899507, -87.4581298828125, 45.64171600341797, 95.95990753173828, -7.3146467208862305, -7.043333053588867, 0.31589841842651367, 0.7282255291938782, 1.1919200420379639, -0.6146135926246643, 
339, 2169907840, -87.45431518554688, 45.637725830078125, 95.96868133544922, -6.751518249511719, -7.463613510131836, 0.6310740113258362, 1.2969638109207153, 0.294576495885849, 0.13628053665161133, 
340, 2169916173, -87.44963073730469, 45.64471435546875, 95.96408081054688, -6.379530429840088, -7.121293067932129, 0.1657721996307373, 2.501371145248413, 1.4806950092315674, 1.3777000904083252, 
341, 2169924506, -87.44707489013672, 45.64984893798828, 95.96991729736328, -6.691891193389893, -6.391841888427734, 0.8655996322631836, 1.8225423097610474, 1.0054484605789185, 1.2038307189941406, 
342, 2169932839, -87.45394897460938, 45.65262985229492, 95.96652221679688, -7.11393404006958, -6.153091907501221, -0.6783764362335205, 1.5194493532180786, 1.7964930534362793, 0.8845492601394653, 
343, 2169941172, -87.46095275878906, 45.64414978027344, 95.9683609008789, -7.240329265594482, -6.6134114265441895, 0.654714047908783, 0.5498223304748535, 0.8600619435310364, -0.4508873522281647, 
344, 2169949505, -87.45744323730469, 45.638553619384766, 95.97657012939453, -6.895862579345703, -7.395345687866211, -0.15842115879058838, 1.257415533065796, 0.33888912200927734, -0.08281081169843674, 
345, 2169957838, -87.45123291015625, 45.642677307128906, 95.9721450805664, -6.517277240753174, -7.33807373046875, 0.9315512180328369, 2.485592842102051, 1.2172781229019165, 1.0709184408187866, 
346, 2169966171, -87.44723510742188, 45.65066909790039, 95.97454071044922, -6.496071815490723, -6.689608573913574, 0.19451792538166046, 1.8165488243103027, 0.8970745801925659, 1.52247154712677, 
347, 2169974504, -87.45294189453125, 45.657127380371094, 95.96485900878906, -7.004817485809326, -6.0586957931518555, -0.09932705014944077, 2.1416447162628174, 2.288644790649414, 1.3057752847671509, 
348, 2169982837, -87.4527587890625, 45.652679443359375, 95.97441864013672, -7.291515350341797, -6.245090007781982, 0.14359332621097565, 0.762599766254425, 0.1959872990846634, 0.08625593036413193, 
349, 2169991170, -87.45602416992188, 45.64423370361328, 95.97517395019531, -7.182097434997559, -7.151705265045166, -0.18092425167560577, 1.086952805519104, 0.9496349096298218, -0.44899189472198486, 
350, 2169999503, -87.44898986816406, 45.644325256347656, 95.98416137695312, -6.72427225112915, -7.481431007385254, 1.0395938158035278, 1.615681767463684, 0.3036951720714569, 0.6000262498855591, 
351, 2170007836, -87.44308471679688, 45.65060806274414, 95.98240661621094, -6.248837947845459, -6.962003707885742, -0.11832737177610397, 2.277067184448242, 1.0603398084640503, 1.3368710279464722, 
352, 2170016169, -87.44474792480469, 45.65666198730469, 95.97270202636719, -6.864259243011475, -6.239901542663574, 0.8523898124694824, 2.176429033279419, 1.9038422107696533, 1.2474004030227661, 
353, 2170024502, -87.4464111328125, 45.65597152709961, 95.96717071533203, -7.164037227630615, -6.110909938812256, -0.7469712495803833, 1.2384097576141357, 0.8919516205787659, 0.5095055103302002, 
354, 2170032835, -87.45606231689453, 45.64659881591797, 95.96349334716797, -7.324625492095947, -6.849798679351807, 0.48798125982284546, 0.6463367938995361, 1.2069555521011353, -0.5518843531608582, 
355, 2170041168, -87.45137023925781, 45.64263153076172, 95.97441864013672, -6.829670429229736, -7.420123100280762, 0.29322364926338196, 1.1700966358184814, 0.12027164548635483, 0.12408815324306488, 
356, 2170049501, -87.4456558227539, 45.64931106567383, 95.96923828125, -6.348721027374268, -7.135833263397217, 0.3157661259174347, 2.6720387935638428, 1.5254942178726196, 1.338792085647583, 
357, 2170057834, -87.44398498535156, 45.655128479003906, 95.96381378173828, -6.657205104827881, -6.46954345703125, 0.8483023047447205, 1.8165744543075562, 1.1101593971252441, 1.2788290977478027, 
358, 2170066167, -87.45077514648438, 45.657833099365234, 95.9533462524414, -7.0678277015686035, -6.103410243988037, -0.6999461054801941, 1.629744052886963, 1.949921727180481, 0.8450520038604736, 
359, 2170074500, -87.4567642211914, 45.64885330200195, 95.95529174804688, -7.31909704208374, -6.497535228729248, 0.7061497569084167, 0.33502137660980225, 0.4757203757762909, -0.46979066729545593, 
360, 2170082833, -87.45527648925781, 45.64105987548828, 95.95918273925781, -6.95081090927124, -7.330227375030518, -0.23548607528209686, 1.261411428451538, 0.5107862949371338, -0.3294502794742584, 
361, 2170091166, -87.44932556152344, 45.643409729003906, 95.95928955078125, -6.631628036499023, -7.463006496429443, 1.0868971347808838, 2.247380256652832, 1.0596994161605835, 0.8399036526679993, 
362, 2170099499, -87.44562530517578, 45.64943313598633, 95.96034240722656, -6.366217613220215, -6.711110591888428, 0.012640583328902721, 1.895005226135254, 1.00155508518219, 1.2835935354232788, 
363, 2170107832, -87.45223999023438, 45.65373611450195, 95.94659423828125, -7.003675937652588, -6.047441005706787, 0.2389918565750122, 2.1360864639282227, 2.378166437149048, 1.041795015335083, 
364, 2170116165, -87.44955444335938, 45.6490364074707, 95.95802307128906, -7.125311851501465, -6.247241973876953, 0.07349541783332825, 0.882679283618927, 0.0714765191078186, 0.03797309845685959, 
365, 2170124498, -87.45687103271484, 45.63987731933594, 95.95270538330078, -7.178682804107666, -7.250166893005371, -0.08058830350637436, 0.9900030493736267, 1.2689419984817505, -0.5285497903823853, 
366, 2170132831, -87.4492416381836, 45.639278411865234, 95.9620132446289, -6.712491512298584, -7.544969081878662, 1.0415623188018799, 1.6222903728485107, 0.17897947132587433, 0.550770103931427, 
367, 2170141164, -87.44528198242188, 45.64714431762695, 95.95722961425781, -6.384753704071045, -6.8967604637146, -0.15511997044086456, 2.4292924404144287, 1.499982476234436, 1.482103705406189, 
368, 2170149497, -87.44599914550781, 45.65319061279297, 95.95169067382812, -6.876676559448242, -6.235983848571777, 0.900872528553009, 1.9322996139526367, 1.5534906387329102, 1.262589693069458, 
369, 2170157830, -87.44834899902344, 45.65264892578125, 95.9471206665039, -7.132627487182617, -6.138875484466553, -0.8562835454940796, 1.2857192754745483, 1.021995186805725, 0.5205196738243103, 
370, 2170166163, -87.45840454101562, 45.643489837646484, 95.94481658935547, -7.2697062492370605, -6.872308254241943, 0.6703072190284729, 0.5367334485054016, 1.202549934387207, -0.5475043058395386, 
371, 2170174496, -87.45399475097656, 45.638397216796875, 95.95535278320312, -6.860327243804932, -7.433091163635254, 0.0842461809515953, 1.2439168691635132, 0.16473795473575592, 0.00966937467455864, 
372, 2170182829, -87.44831085205078, 45.64458465576172, 95.94679260253906, -6.423609256744385, -7.160198211669922, 0.5850389003753662, 2.579827070236206, 1.3800053596496582, 1.3136388063430786, 
373, 2170191162, -87.4458236694336, 45.651222229003906, 95.94613647460938, -6.553555488586426, -6.561230659484863, 0.6766438484191895, 1.8981815576553345, 1.1482733488082886, 1.349473237991333, 
374, 2170199495, -87.45410919189453, 45.65559768676758, 95.93182373046875, -7.046056270599365, -6.069216728210449, -0.6265770792961121, 1.7753865718841553, 2.2787063121795654, 1.0291671752929688, 
375, 2170207828, -87.45849609375, 45.64865493774414, 95.93505096435547, -7.252903938293457, -6.447808742523193, 0.5379724502563477, 0.4368892014026642, 0.39664924144744873, -0.21879678964614868, 
376, 2170216161, -87.45953369140625, 45.64202880859375, 95.93678283691406, -7.098116397857666, -7.226052284240723, -0.2220027893781662, 1.2706836462020874, 0.8767111897468567, -0.2299133688211441, 
377, 2170224494, -87.45169830322266, 45.64471435546875, 95.93939208984375, -6.638890743255615, -7.436349868774414, 1.0403788089752197, 2.1941795349121094, 0.7353975176811218, 0.9162596464157104, 
378, 2170232827, -87.44990539550781, 45.651004791259766, 95.9343490600586, -6.333798408508301, -6.752486705780029, -0.04865105077624321, 1.8696727752685547, 1.1497334241867065, 1.3361282348632812, 
379, 2170241160, -87.45719146728516, 45.65601348876953, 95.91838836669922, -6.915012359619141, -6.097064971923828, 0.4322388470172882, 2.0374460220336914, 2.420557975769043, 1.0982999801635742, 
380, 2170249493, -87.45681762695312, 45.65237808227539, 95.92469787597656, -7.309518814086914, -6.248601913452148, -0.24432681500911713, 1.0470458269119263, 0.5098128914833069, 0.14550165832042694, 
381, 2170257826, -87.4630355834961, 45.64411926269531, 95.91653442382812, -7.173450469970703, -7.131398677825928, -0.026322461664676666, 0.9601624011993408, 1.1179460287094116, -0.4108010530471802, 
382, 2170266159, -87.45860290527344, 45.6433219909668, 95.92424011230469, -6.771946907043457, -7.573000907897949, 0.8641564249992371, 1.4153530597686768, 0.40756094455718994, 0.49213916063308716, 
383, 2170274492, -87.4549789428711, 45.65094757080078, 95.9193115234375, -6.305538654327393, -6.9328508377075195, -0.05528440698981285, 2.4201226234436035, 1.474316954612732, 1.4775186777114868, 
384, 2170282825, -87.45557403564453, 45.6564826965332, 95.92150115966797, -6.839133262634277, -6.2328200340271, 0.8380885720252991, 1.965213656425476, 1.506181001663208, 1.2302387952804565, 
385, 2170291158, -87.45783996582031, 45.657615661621094, 95.92011260986328, -7.125272274017334, -6.0942230224609375, -0.719266951084137, 1.3926585912704468, 1.1798044443130493, 0.6892918348312378, 
386, 2170299491, -87.46727752685547, 45.649330139160156, 95.91973114013672, -7.269834995269775, -6.868016719818115, 0.6387059688568115, 0.44219133257865906, 1.045867681503296, -0.43580058217048645, 
387, 2170307824, -87.46304321289062, 45.64472579956055, 95.92720031738281, -6.814706802368164, -7.417605400085449, 0.148328498005867, 1.2473236322402954, 0.19329781830310822, 0.0642533078789711, 
388, 2170316157, -87.45677947998047, 45.650787353515625, 95.92366790771484, -6.5165205001831055, -7.244654655456543, 0.4878822863101959, 2.5975780487060547, 1.3853331804275513, 1.2713754177093506, 
389, 2170324490, -87.45484161376953, 45.656612396240234, 95.91670989990234, -6.547524929046631, -6.5115814208984375, 0.6294405460357666, 1.6701889038085938, 0.9293227791786194, 1.2915079593658447, 
390, 2170332823, -87.46355438232422, 45.659671783447266, 95.90013885498047, -7.07980489730835, -6.073570728302002, -0.65428227186203, 1.856327772140503, 2.3447911739349365, 0.8945900201797485, 
391, 2170341156, -87.46666717529297, 45.65129089355469, 95.90787506103516, -7.269778251647949, -6.424489974975586, 0.6155239939689636, 0.5039728879928589, 0.3651180863380432, -0.41863903403282166, 
392, 2170349489, -87.46607971191406, 45.64384460449219, 95.9120101928711, -6.9696946144104, -7.335396766662598, -0.30247923731803894, 1.263306736946106, 0.669671356678009, -0.31930702924728394, 
393, 2170357822, -87.4603271484375, 45.646209716796875, 95.91485595703125, -6.6026291847229, -7.457519054412842, 1.1159579753875732, 2.0322461128234863, 0.8215380907058716, 0.8754817247390747, 
394, 2170366155, -87.45555877685547, 45.65334701538086, 95.91686248779297, -6.329774379730225, -6.85650634765625, 0.03594416752457619, 1.943621039390564, 0.9259162545204163, 1.4231398105621338, 
395, 2170374488, -87.46290588378906, 45.65916061401367, 95.90361022949219, -6.978779315948486, -6.1277055740356445, 0.48578980565071106, 2.0472049713134766, 2.3863630294799805, 1.2224011421203613, 
396, 2170382821, -87.46073150634766, 45.655250549316406, 95.91329193115234, -7.195437908172607, -6.309765815734863, -0.2090775966644287, 1.029551386833191, 0.22733913362026215, 0.15123924612998962, 
397, 2170391154, -87.46707916259766, 45.646400451660156, 95.91145324707031, -7.27146577835083, -7.082716464996338, 0.09016158431768417, 0.941771388053894, 1.1626429557800293, -0.5088779926300049, 
398, 2170399487, -87.4609603881836, 45.64557647705078, 95.92172241210938, -6.678058624267578, -7.506144046783447, 0.8200236558914185, 1.3931454420089722, 0.18902026116847992, 0.4962630271911621, 
399, 2170407820, -87.45668029785156, 45.653263092041016, 95.91770935058594, -6.3682169914245605, -6.961325645446777, -0.1326230764389038, 2.431187868118286, 1.4022128582000732, 1.493194580078125, 
400, 2170416153, -87.45663452148438, 45.65883255004883, 95.91324615478516, -6.7538604736328125, -6.365194797515869, 0.9958908557891846, 1.9348865747451782, 1.4609977006912231, 1.2098755836486816, 
401, 2170424486, -87.45954132080078, 45.658714294433594, 95.91139221191406, -7.265740394592285, -6.151241302490234, -0.8365275859832764, 1.418144702911377, 1.222324013710022, 0.562680721282959, 
402, 2170432819, -87.4677734375, 45.64900207519531, 95.91021728515625, -7.213778018951416, -6.820779323577881, 0.5406476259231567, 0.5705955028533936, 0.9622371792793274, -0.5780876278877258, 
403, 2170441152, -87.46036529541016, 45.644630432128906, 95.9220199584961, -6.815257549285889, -7.4019622802734375, 0.20331956446170807, 1.4179911613464355, 0.0423787459731102, 0.07690674066543579, 
404, 2170449485, -87.45606994628906, 45.65089416503906, 95.91569519042969, -6.474674224853516, -7.22952938079834, 0.4995706081390381, 2.6005492210388184, 1.6202925443649292, 1.2857706546783447, 
405, 2170457818, -87.45326232910156, 45.65625762939453, 95.9261703491211, -6.641404151916504, -6.5040740966796875, 0.7317035794258118, 1.8890371322631836, 1.0350841283798218, 1.2290093898773193, 
406, 2170466151, -87.45970916748047, 45.66020965576172, 95.91419982910156, -7.063631534576416, -6.0360188484191895, -0.6908344030380249, 1.7952631711959839, 2.0792739391326904, 0.9873902797698975, 
407, 2170474484, -87.46265411376953, 45.65256881713867, 95.92638397216797, -7.254127025604248, -6.477142333984375, 0.6257378458976746, 0.5673937201499939, 0.3542576730251312, -0.30142831802368164, 
408, 2170482817, -87.46212005615234, 45.64473342895508, 95.93055725097656, -6.948901176452637, -7.236874580383301, -0.29761549830436707, 1.3506770133972168, 0.7096295356750488, -0.3421037197113037, 
409, 2170491150, -87.45518493652344, 45.64805221557617, 95.93218994140625, -6.563851356506348, -7.446968078613281, 1.0064804553985596, 2.2356743812561035, 0.9367253184318542, 0.9614943861961365, 
410, 2170499483, -87.45082092285156, 45.65434265136719, 95.94385528564453, -6.467710494995117, -6.7255539894104, -0.0385049432516098, 1.9039701223373413, 0.8753536343574524, 1.349191427230835, 
411, 2170507816, -87.45590209960938, 45.65943908691406, 95.92939758300781, -6.993882656097412, -6.0965800285339355, 0.3476759195327759, 2.1750967502593994, 2.2940495014190674, 1.1171009540557861, 
412, 2170516149, -87.45240783691406, 45.655025482177734, 95.93988037109375, -7.261523246765137, -6.233188629150391, -0.2236979901790619, 1.0656418800354004, 0.1564645767211914, 0.06768562644720078, 
413, 2170524482, -87.45906829833984, 45.64453887939453, 95.93281555175781, -7.097258567810059, -7.079626083374023, -0.054676689207553864, 0.9405930638313293, 1.1424332857131958, -0.6809031963348389, 
414, 2170532815, -87.45352172851562, 45.642303466796875, 95.94147491455078, -6.715024471282959, -7.469533920288086, 1.0416110754013062, 1.4674780368804932, 0.31883320212364197, 0.32270094752311707, 
415, 2170541148, -87.44874572753906, 45.6490592956543, 95.931640625, -6.279056549072266, -7.009327411651611, -0.1602853685617447, 2.4875903129577637, 1.401854157447815, 1.3798259496688843, 
416, 2170549481, -87.44779968261719, 45.654537200927734, 95.92837524414062, -6.845714569091797, -6.309326171875, 1.0827662944793701, 2.1248414516448975, 1.4841783046722412, 1.2235280275344849, 
417, 2170557814, -87.44874572753906, 45.654972076416016, 95.92880249023438, -7.1336894035339355, -6.137025356292725, -0.9030814170837402, 1.390712022781372, 1.0231733322143555, 0.6106817722320557, 
418, 2170566147, -87.45806884765625, 45.64514923095703, 95.92716217041016, -7.334439277648926, -6.7905659675598145, 0.5787150859832764, 0.5692379474639893, 1.1437909603118896, -0.6229894757270813, 
419, 2170574480, -87.45207214355469, 45.6402587890625, 95.9391098022461, -6.776224136352539, -7.31540584564209, 0.1414117068052292, 1.2692493200302124, 0.0037268707528710365, 0.040765050798654556, 
420, 2170582813, -87.44673156738281, 45.645668029785156, 95.93453979492188, -6.475835800170898, -7.226790904998779, 0.5305288434028625, 2.576753854751587, 1.467836618423462, 1.1908698081970215, 
421, 2170591146, -87.44288635253906, 45.651039123535156, 95.96440887451172, -6.625558376312256, -6.577455043792725, 0.721340000629425, 1.832608699798584, 0.8609840273857117, 1.2373340129852295, 
422, 2170599479, -87.44940948486328, 45.653236389160156, 95.96582794189453, -7.049487113952637, -6.132536888122559, -0.5370017886161804, 1.8071229457855225, 2.0366005897521973, 0.8051962852478027, 
423, 2170607812, -87.45188903808594, 45.64545822143555, 95.97297668457031, -7.280585765838623, -6.459832191467285, 0.6914370059967041, 0.6337345838546753, 0.41614165902137756, -0.34676551818847656, 
424, 2170616145, -87.45059967041016, 45.63766098022461, 95.97640228271484, -6.951969623565674, -7.265993595123291, -0.32446011900901794, 1.4043643474578857, 0.7294293642044067, -0.36487478017807007, 
425, 2170624478, -87.4438705444336, 45.639617919921875, 95.97806549072266, -6.658443927764893, -7.500220775604248, 1.1751494407653809, 2.1687445640563965, 0.8297091722488403, 0.8287870287895203, 
426, 2170632811, -87.43991088867188, 45.64567565917969, 95.97825622558594, -6.3669939041137695, -6.785007953643799, -0.16120578348636627, 2.006324529647827, 1.0745556354522705, 1.2865647077560425, 
427, 2170641144, -87.44500732421875, 45.65057373046875, 95.95684814453125, -6.977743625640869, -6.02540397644043, 0.4755767285823822, 2.064366340637207, 2.1396210193634033, 1.1241190433502197, 
428, 2170649477, -87.4420394897461, 45.646121978759766, 95.970703125, -7.061422348022461, -6.222157955169678, -0.17503006756305695, 0.8744827508926392, -0.02266859821975231, 0.09588688611984253, 
429, 2170657810, -87.45051574707031, 45.637516021728516, 95.96602630615234, -7.174760818481445, -7.177256107330322, 0.13492293655872345, 0.931243896484375, 1.4049791097640991, -0.4899234473705292, 
430, 2170666143, -87.44241333007812, 45.637020111083984, 95.97821807861328, -6.657565593719482, -7.529747486114502, 0.9001566767692566, 1.4695526361465454, 0.030621815472841263, 0.5447763204574585, 
431, 2170674476, -87.43760681152344, 45.64472198486328, 96.00919342041016, -6.419644832611084, -6.99509859085083, 0.05322002246975899, 2.605031728744507, 1.5122005939483643, 1.4899160861968994, 
432, 2170682809, -87.43572235107422, 45.6512336730957, 96.00728607177734, -6.819166660308838, -6.265157699584961, 0.9049488306045532, 1.9362696409225464, 1.253035545349121, 1.3320810794830322, 
433, 2170691142, -87.4389877319336, 45.651554107666016, 96.00403594970703, -7.161769390106201, -6.115694522857666, -0.9640925526618958, 1.4108192920684814, 1.2578766345977783, 0.6141397356987, 
434, 2170699475, -87.44802856445312, 45.642269134521484, 96.00926208496094, -7.23382043838501, -6.788820266723633, 0.8131423592567444, 0.49147313833236694, 0.9836251735687256, -0.5292156934738159, 
435, 2170707808, -87.44513702392578, 45.637454986572266, 96.01763916015625, -6.791131019592285, -7.4378838539123535, -0.05366778001189232, 1.1731960773468018, 0.32897645235061646, 0.013357824645936489, 
436, 2170716141, -87.43916320800781, 45.643428802490234, 96.01469421386719, -6.421645641326904, -7.212465763092041, 0.6622523069381714, 2.5129997730255127, 1.3354876041412354, 1.264433741569519, 
437, 2170724474, -87.43753051757812, 45.64946746826172, 96.01126861572266, -6.559764862060547, -6.556824207305908, 0.6202881932258606, 1.779817819595337, 1.0707902908325195, 1.311205506324768, 
438, 2170732807, -87.44666290283203, 45.6544189453125, 95.99497985839844, -7.0319414138793945, -6.062200546264648, -0.46457210183143616, 1.8439303636550903, 2.4469151496887207, 1.0900522470474243, 
439, 2170741140, -87.44939422607422, 45.64759826660156, 96.00728607177734, -7.26763916015625, -6.41539192199707, 0.4822661280632019, 0.3796669840812683, 0.14632131159305573, -0.19320815801620483, 
440, 2170749473, -87.45124816894531, 45.6408805847168, 96.00852966308594, -7.035863399505615, -7.217410564422607, -0.19029167294502258, 1.3782378435134888, 1.0186909437179565, -0.22120451927185059, 
441, 2170757806, -87.4442138671875, 45.64411163330078, 96.01241302490234, -6.655939102172852, -7.461644172668457, 1.024781584739685, 2.054914712905884, 0.7477434873580933, 0.9593170285224915, 
442, 2170766139, -87.44029998779297, 45.651344299316406, 96.01217651367188, -6.297268867492676, -6.765352249145508, -0.08688557147979736, 2.0325024127960205, 1.1155128479003906, 1.4248046875, 
443, 2170774472, -87.4469985961914, 45.656768798828125, 95.99714660644531, -6.950961589813232, -6.127779960632324, 0.516022801399231, 2.0997910499572754, 2.360211133956909, 1.178472638130188, 
444, 2170782805, -87.44525909423828, 45.65324783325195, 96.00469970703125, -7.258333206176758, -6.2046613693237305, -0.25426220893859863, 1.1015273332595825, 0.4043590724468231, 0.16371338069438934, 
445, 2170791138, -87.452880859375, 45.644264221191406, 96.01071166992188, -7.231230735778809, -7.0492987632751465, -0.005106869153678417, 0.886726438999176, 1.203139066696167, -0.5006301999092102, 
446, 2170799471, -87.45025634765625, 45.642826080322266, 96.01834106445312, -6.739716053009033, -7.505427837371826, 0.8370185494422913, 1.2446340322494507, 0.3915008008480072, 0.44137170910835266, 
447, 2170807804, -87.44609832763672, 45.650718688964844, 96.01456451416016, -6.363821506500244, -6.978386878967285, -0.06295480579137802, 2.3661022186279297, 1.41530179977417, 1.4889683723449707, 
448, 2170816137, -87.44536590576172, 45.6567497253418, 96.01087951660156, -6.88136100769043, -6.324336528778076, 0.9290400147438049, 1.9478728771209717, 1.3980121612548828, 1.2681223154067993, 
449, 2170824470, -87.44657897949219, 45.657127380371094, 96.02545928955078, -7.128270149230957, -6.120026588439941, -0.7656189203262329, 1.502467155456543, 1.1009126901626587, 0.6290472745895386, 
450, 2170832803, -87.4547348022461, 45.64647674560547, 96.0255126953125, -7.258769512176514, -6.721705436706543, 0.6131917834281921, 0.5623732805252075, 0.9956380724906921, -0.71873539686203, 
451, 2170841136, -87.451904296875, 45.64088821411133, 96.03544616699219, -6.77923583984375, -7.397098064422607, 0.18588808178901672, 1.162412405014038, 0.2653762698173523, -0.052662864327430725, 
452, 2170849469, -87.44783020019531, 45.64578628540039, 96.0195541381836, -6.580784320831299, -7.351037979125977, 0.5219424366950989, 2.5725016593933105, 1.5558470487594604, 1.1513725519180298, 
453, 2170857802, -87.44275665283203, 45.65157699584961, 96.02198028564453, -6.625009059906006, -6.654346466064453, 0.6201077699661255, 1.9432880878448486, 0.8842673897743225, 1.2620006799697876, 
454, 2170866135, -87.44963836669922, 45.654300689697266, 96.00865173339844, -7.151451110839844, -6.0587334632873535, -0.5862030982971191, 1.8631665706634521, 2.1895945072174072, 0.8362407684326172, 
455, 2170874468, -87.44950866699219, 45.646419525146484, 96.00425720214844, -7.230129241943359, -6.329793930053711, 0.5019721984863281, 0.7306588888168335, 0.15743790566921234, -0.3223039209842682, 
456, 2170882801, -87.45032501220703, 45.63812255859375, 96.0081558227539, -6.970552921295166, -7.265142440795898, -0.34483855962753296, 1.1113888025283813, 0.6857826709747314, -0.42199447751045227, 
457, 2170891134, -87.44625091552734, 45.63986587524414, 96.00883483886719, -6.6012139320373535, -7.501447677612305, 1.0560153722763062, 2.0030970573425293, 0.9765042662620544, 0.7976145148277283, 
458, 2170899467, -87.44171142578125, 45.64619064331055, 96.01000213623047, -6.401050090789795, -6.890181064605713, 0.0069312527775764465, 1.9910584688186646, 0.9417969584465027, 1.3500622510910034, 
459, 2170907800, -87.44770050048828, 45.65077209472656, 95.99620819091797, -6.970601558685303, -6.170078277587891, 0.5236647129058838, 2.0056328773498535, 2.236417293548584, 1.0546276569366455, 
460, 2170916133, -87.44526672363281, 45.647850036621094, 96.0040054321289, -7.18905782699585, -6.251935005187988, -0.31904539465904236, 1.1677658557891846, 0.38691583275794983, 0.23878872394561768, 
461, 2170924466, -87.4524154663086, 45.6379280090332, 96.0005874633789, -7.191403865814209, -6.985151767730713, 0.10528269410133362, 0.9687944650650024, 1.2248599529266357, -0.6150490641593933, 
462, 2170932799, -87.44631958007812, 45.63663101196289, 96.01058197021484, -6.6834306716918945, -7.539060592651367, 0.8052026629447937, 1.4170691967010498, 0.21220111846923828, 0.4391176104545593, 
463, 2170941132, -87.44007110595703, 45.643550872802734, 96.00704956054688, -6.372718334197998, -6.958840370178223, -0.1729229837656021, 2.5889716148376465, 1.3205803632736206, 1.4047486782073975, 
464, 2170949465, -87.43832397460938, 45.64954376220703, 96.00654602050781, -6.749730110168457, -6.405389308929443, 1.0316256284713745, 2.0070931911468506, 1.2794438600540161, 1.2959139347076416, 
465, 2170957798, -87.4391098022461, 45.651126861572266, 96.0042495727539, -7.121969699859619, -6.126735687255859, -0.8694971799850464, 1.6479557752609253, 1.2590806484222412, 0.7424157857894897, 
466, 2170966131, -87.44562530517578, 45.64228057861328, 96.0060806274414, -7.171876907348633, -6.734551429748535, 0.5579786896705627, 0.6068140864372253, 0.8538632988929749, -0.4958403706550598, 
467, 2170974464, -87.43846893310547, 45.638065338134766, 96.02274322509766, -6.90104866027832, -7.37357234954834, 0.025707317516207695, 1.3381003141403198, -0.061755917966365814, 0.12936468422412872, 
468, 2170982797, -87.43148803710938, 45.64308166503906, 96.02001953125, -6.516948223114014, -7.266480445861816, 0.6664055585861206, 2.61456036567688, 1.3097455501556396, 1.148298978805542, 
469, 2170991130, -87.4255142211914, 45.649192810058594, 96.02970123291016, -6.6413116455078125, -6.633692264556885, 0.5758873224258423, 2.072767734527588, 0.8475110530853271, 1.327368140220642, 
470, 2170999463, -87.43185424804688, 45.65424346923828, 96.01068115234375, -6.981239318847656, -6.095101833343506, -0.5257083177566528, 1.9670835733413696, 2.18247389793396, 1.1418955326080322, 
471, 2171007796, -87.4317855834961, 45.64863967895508, 96.01969909667969, -7.184122562408447, -6.396815299987793, 0.5840439200401306, 0.7770718336105347, 0.27026858925819397, -0.08017256110906601, 
472, 2171016129, -87.43154907226562, 45.64103317260742, 96.02323150634766, -6.964315414428711, -7.192606449127197, -0.3141530752182007, 1.2699408531188965, 0.7220011949539185, -0.33879944682121277, 
473, 2171024462, -87.42595672607422, 45.64263153076172, 96.02803039550781, -6.697437286376953, -7.524860382080078, 1.12542724609375, 1.9348350763320923, 0.731529712677002, 0.7913389801979065, 
474, 2171032795, -87.41929626464844, 45.6501579284668, 96.0309066772461, -6.345599174499512, -6.834719181060791, -0.1950521171092987, 2.096410036087036, 0.8572444319725037, 1.47098708152771, 
475, 2171041128, -87.42374420166016, 45.65618133544922, 96.0190200805664, -7.037895202636719, -6.180779933929443, 0.6769959330558777, 2.1944355964660645, 2.1900808811187744, 1.2584145069122314, 
476, 2171049461, -87.42058563232422, 45.65422058105469, 96.03338623046875, -7.178478717803955, -6.168848037719727, -0.4569021463394165, 1.2355153560638428, 0.31870511174201965, 0.3845592737197876, 
477, 2171057794, -87.42971801757812, 45.64518356323242, 96.02912902832031, -7.260600566864014, -6.966361045837402, 0.16516630351543427, 0.8151857852935791, 1.364201307296753, -0.539948046207428, 
478, 2171066127, -87.4231948852539, 45.641658782958984, 96.04100036621094, -6.782161235809326, -7.476572513580322, 0.8219187259674072, 1.3089770078659058, 0.04337770864367485, 0.17972229421138763, 
479, 2171074460, -87.41802215576172, 45.64842987060547, 96.03358459472656, -6.335033416748047, -7.078663349151611, -0.01650208979845047, 2.526805877685547, 1.388022541999817, 1.3840012550354004, 
480, 2171082793, -87.41581726074219, 45.65441131591797, 96.03096771240234, -6.729023456573486, -6.458316326141357, 1.1169838905334473, 2.032656192779541, 1.3067231178283691, 1.2635630369186401, 
481, 2171091126, -87.41961669921875, 45.65711212158203, 96.01525115966797, -7.137378215789795, -6.128849983215332, -0.9172183871269226, 1.6405022144317627, 1.556846022605896, 0.8874435424804688, 
482, 2171099459, -87.42582702636719, 45.64958190917969, 96.01608276367188, -7.24774694442749, -6.5182929039001465, 0.7722352147102356, 0.7225648164749146, 0.8811681866645813, -0.30980420112609863, 
483, 2171107792, -87.42163848876953, 45.643218994140625, 96.0263442993164, -6.89019775390625, -7.302667140960693, -0.18861344456672668, 1.1646407842636108, 0.16197161376476288, -0.16656936705112457, 
484, 2171116125, -87.41464233398438, 45.64784240722656, 96.02410888671875, -6.5048747062683105, -7.332591533660889, 0.9834275841712952, 2.57670259475708, 1.2704275846481323, 1.1040632724761963, 
485, 2171124458, -87.40950775146484, 45.65372085571289, 96.02816772460938, -6.482552528381348, -6.6817731857299805, 0.27406466007232666, 1.8774337768554688, 0.7553509473800659, 1.307491421699524, 
486, 2171132791, -87.41690826416016, 45.657630920410156, 96.01245880126953, -7.042677879333496, -6.0325469970703125, -0.16750846803188324, 2.0001771450042725, 2.3932530879974365, 0.9654389023780823, 
487, 2171141124, -87.41554260253906, 45.65156936645508, 96.02682495117188, -7.206460475921631, -6.308213233947754, 0.3957382142543793, 0.830093264579773, 0.10710591822862625, -0.0955410972237587, 
488, 2171149457, -87.42048645019531, 45.64320373535156, 96.02432250976562, -7.129196643829346, -7.22610330581665, -0.30547621846199036, 1.1340831518173218, 1.134595274925232, -0.42514505982398987, 
489, 2171157790, -87.41512298583984, 45.64303970336914, 96.03013610839844, -6.666698455810547, -7.51876974105835, 1.1399564743041992, 1.6897069215774536, 0.5691867470741272, 0.5608108043670654, 
490, 2171166123, -87.41061401367188, 45.649288177490234, 96.02899169921875, -6.3396148681640625, -6.885293483734131, -0.15618517994880676, 2.1831142902374268, 1.1870789527893066, 1.304187297821045, 
491, 2171174456, -87.41378021240234, 45.65413284301758, 96.02302551269531, -6.898365497589111, -6.164761543273926, 0.823366641998291, 2.109703302383423, 1.952944278717041, 1.1268340349197388, 
492, 2171182789, -87.41188049316406, 45.652523040771484, 96.02931213378906, -7.124939918518066, -6.157253265380859, -0.6730753779411316, 1.234439492225647, 0.5224406719207764, 0.3901944160461426, 
493, 2171191122, -87.42220306396484, 45.643489837646484, 96.01448059082031, -7.139794826507568, -6.962957859039307, 0.5512338280677795, 0.7669287323951721, 1.4057477712631226, -0.5169721245765686, 
494, 2171199455, -87.41927337646484, 45.63979721069336, 96.02580261230469, -6.859225749969482, -7.465200424194336, 0.49171504378318787, 1.1225054264068604, 0.2227797955274582, 0.18238615989685059, 
495, 2171207788, -87.41387939453125, 45.64690017700195, 96.01908874511719, -6.389616966247559, -7.110813617706299, 0.25624147057533264, 2.7641217708587646, 1.6546156406402588, 1.3808761835098267, 
496, 2171216121, -87.41349792480469, 45.65261459350586, 96.0177230834961, -6.808625221252441, -6.467239856719971, 0.9406835436820984, 1.7097885608673096, 1.2024986743927002, 1.2402284145355225, 
497, 2171224454, -87.42088317871094, 45.65522003173828, 96.00678253173828, -7.080538272857666, -6.134200096130371, -0.8991896510124207, 1.6690618991851807, 1.9986145496368408, 0.8590373992919922, 
498, 2171232787, -87.42672729492188, 45.646339416503906, 96.01210021972656, -7.277081489562988, -6.533313751220703, 0.6788116097450256, 0.387940376996994, 0.5625270009040833, -0.4866960644721985, 
499, 2171241120, -87.42626190185547, 45.63938903808594, 96.01895141601562, -6.885663032531738, -7.3403754234313965, -0.25143659114837646, 1.3273425102233887, 0.696079671382904, -0.23396044969558716, 
500, 2171249453, -87.42000579833984, 45.64289855957031, 96.0152587890625, -6.567386627197266, -7.388428688049316, 1.0198150873184204, 2.370891809463501, 1.0917683839797974, 1.004551887512207, 
501, 2171257786, -87.41647338867188, 45.65028762817383, 96.01639556884766, -6.359804153442383, -6.774890899658203, 0.1411229968070984, 1.8671114444732666, 1.0009146928787231, 1.4497015476226807, 
502, 2171266119, -87.42518615722656, 45.656707763671875, 95.99774932861328, -7.020634174346924, -6.094621658325195, 0.13793934881687164, 2.097562551498413, 2.6535708904266357, 1.2562631368637085, 
503, 2171274452, -87.42288208007812, 45.65188980102539, 96.00294494628906, -7.235336780548096, -6.2152838706970215, 0.024698765948414803, 0.9237388968467712, 0.0995241105556488, 0.052265845239162445, 
504, 2171282785, -87.42970275878906, 45.642242431640625, 96.00074768066406, -7.207769870758057, -7.113631248474121, -0.09850180149078369, 0.915388822555542, 1.1872583627700806, -0.6062377691268921, 
505, 2171291118, -87.42491912841797, 45.641151428222656, 96.00926208496094, -6.698065280914307, -7.471338748931885, 0.9885517954826355, 1.4237288236618042, 0.31934550404548645, 0.48742610216140747, 
506, 2171299451, -87.41954040527344, 45.64834213256836, 96.00944519042969, -6.340218544006348, -6.971219062805176, -0.17827963829040527, 2.4149229526519775, 1.2611809968948364, 1.4401220083236694, 
507, 2171307784, -87.42024230957031, 45.65446090698242, 96.00310516357422, -6.8033976554870605, -6.284422874450684, 0.9382306337356567, 2.002713203430176, 1.6200621128082275, 1.2683018445968628, 
508, 2171316117, -87.42289733886719, 45.65547180175781, 96.0016098022461, -7.201474666595459, -6.136961460113525, -0.8342992067337036, 1.351317286491394, 1.1857212781906128, 0.6740257740020752, 
509, 2171324450, -87.43180084228516, 45.646484375, 96.00482940673828, -7.276923179626465, -6.8014020919799805, 0.4416022300720215, 0.6184684634208679, 1.0891300439834595, -0.49179330468177795, 
510, 2171332783, -87.42572021484375, 45.64197540283203, 96.01663208007812, -6.836694240570068, -7.431896686553955, 0.24268880486488342, 1.2615138292312622, 0.04337770491838455, 0.061589423567056656, 
511, 2171341116, -87.42101287841797, 45.6472282409668, 96.00769805908203, -6.471894264221191, -7.217501640319824, 0.4586884379386902, 2.487820863723755, 1.3964240550994873, 1.2001678943634033, 
512, 2171349449, -87.41700744628906, 45.65233612060547, 96.0136947631836, -6.667591571807861, -6.597111225128174, 0.6834455728530884, 1.9393947124481201, 0.9462282657623291, 1.2064177989959717, 
513, 2171357782, -87.42515563964844, 45.65650177001953, 96.0003662109375, -7.069234371185303, -6.084531784057617, -0.5955532789230347, 1.7083028554916382, 2.1941025257110596, 1.005986213684082, 
514, 2171366115, -87.42708587646484, 45.64897918701172, 96.00818634033203, -7.2083563804626465, -6.48197078704834, 0.5996943712234497, 0.6399075984954834, 0.357818067073822, -0.3130315840244293, 
515, 2171374448, -87.42733001708984, 45.642208099365234, 96.01219177246094, -7.000687599182129, -7.28140115737915, -0.1974041610956192, 1.223630428314209, 0.6775861382484436, -0.20914021134376526, 
516, 2171382781, -87.41987609863281, 45.64509582519531, 96.01387023925781, -6.616318702697754, -7.500121593475342, 1.0766587257385254, 2.2956886291503906, 0.9324478507041931, 0.911188006401062, 
517, 2171391114, -87.41596221923828, 45.652320861816406, 96.01248168945312, -6.4518561363220215, -6.761373996734619, 0.0050299582071602345, 1.9536619186401367, 0.9797317385673523, 1.4566688537597656, 
518, 2171399447, -87.42215728759766, 45.656192779541016, 95.9967269897461, -7.040792942047119, -6.103699207305908, 0.24435703456401825, 2.1448209285736084, 2.3358776569366455, 0.9931280016899109, 
519, 2171407780, -87.41940307617188, 45.652339935302734, 96.0077896118164, -7.25382661819458, -6.171909332275391, -0.1797366440296173, 0.927939772605896, 0.1081048846244812, 0.1410704106092453, 
520, 2171416113, -87.42520904541016, 45.641807556152344, 96.00652313232422, -7.135526180267334, -7.114274501800537, -0.12762139737606049, 0.953246533870697, 1.1051645278930664, -0.7114097476005554, 
521, 2171424446, -87.41960906982422, 45.63948059082031, 96.01773071289062, -6.695869445800781, -7.500206470489502, 1.0355814695358276, 1.4761356115341187, 0.2628660798072815, 0.3428593575954437, 
522, 2171432779, -87.41354370117188, 45.646121978759766, 96.01510620117188, -6.27779483795166, -7.036061763763428, -0.0503372997045517, 2.496453285217285, 1.3113080263137817, 1.3447602987289429, 
523, 2171441112, -87.4148941040039, 45.651668548583984, 96.0206069946289, -6.806430816650391, -6.353167533874512, 1.080775260925293, 2.0884437561035156, 1.7207770347595215, 1.2191479206085205, 
524, 2171449445, -87.41755676269531, 45.6533317565918, 96.0233383178711, -7.149059295654297, -6.163809776306152, -0.9220578670501709, 1.4796702861785889, 1.2534198760986328, 0.7812725901603699, 
525, 2171457778, -87.42467498779297, 45.643741607666016, 96.02293395996094, -7.322880268096924, -6.692335605621338, 0.6673387885093689, 0.7216683626174927, 1.0382858514785767, -0.5943527221679688, 
526, 2171466111, -87.41799926757812, 45.638423919677734, 96.03557586669922, -6.788069248199463, -7.3150835037231445, -0.019620249047875404, 1.2610784769058228, -0.03163357824087143, -0.03107006661593914, 
527, 2171474444, -87.41241455078125, 45.64274597167969, 96.0304946899414, -6.532474994659424, -7.2717366218566895, 0.6311580538749695, 2.6689391136169434, 1.4665814638137817, 1.0866711139678955, 
528, 2171482777, -87.40641784667969, 45.64818572998047, 96.034912109375, -6.452586650848389, -6.635666370391846, 0.5767571330070496, 1.8856046199798584, 0.7141121029853821, 1.2277030944824219, 
529, 2171491110, -87.41398620605469, 45.65275192260742, 96.02357482910156, -7.041131019592285, -6.054340362548828, -0.4383937120437622, 1.9547117948532104, 2.3146684169769287, 1.0779622793197632, 
530, 2171499443, -87.41499328613281, 45.64652633666992, 96.03440856933594, -7.222261428833008, -6.365508079528809, 0.5688441395759583, 0.7007414102554321, 0.2555404007434845, -0.12420342862606049, 
531, 2171507776, -87.41716766357422, 45.63902282714844, 96.03611755371094, -7.099997520446777, -7.259692192077637, -0.2771011292934418, 1.1353894472122192, 0.8737912774085999, -0.3350854218006134, 
532, 2171516109, -87.41127014160156, 45.64097595214844, 96.03880310058594, -6.629778861999512, -7.497433662414551, 1.1063809394836426, 2.0195157527923584, 0.8399291038513184, 0.8009955286979675, 
533, 2171524442, -87.40648651123047, 45.6464958190918, 96.03437042236328, -6.401899814605713, -6.863933086395264, -0.1276024878025055, 2.125917434692383, 1.0370819568634033, 1.2531380653381348, 
534, 2171532775, -87.41046142578125, 45.65186309814453, 96.0220718383789, -6.9411468505859375, -6.077585220336914, 0.5525165796279907, 2.1253795623779297, 2.1164915561676025, 1.155394196510315, 
535, 2171541108, -87.40805053710938, 45.648860931396484, 96.02517700195312, -7.102444171905518, -6.203517436981201, -0.3559969961643219, 1.0994527339935303, 0.2710370421409607, 0.26050958037376404, 
536, 2171549441, -87.41798400878906, 45.63996124267578, 96.0193099975586, -7.145480632781982, -7.024332523345947, 0.182893767952919, 0.8069892525672913, 1.3959885835647583, -0.49847862124443054, 
537, 2171557774, -87.4115219116211, 45.6380729675293, 96.0306396484375, -6.7147955894470215, -7.5632147789001465, 0.8216683268547058, 1.3497804403305054, 0.09780795127153397, 0.37656766176223755, 
538, 2171566107, -87.4064712524414, 45.64562225341797, 96.02571105957031, -6.403748035430908, -6.99130916595459, -0.0085631487891078, 2.5733211040496826, 1.5097413063049316, 1.4429906606674194, 
539, 2171574440, -87.40473175048828, 45.65240478515625, 96.02330780029297, -6.869235038757324, -6.4001240730285645, 1.0477769374847412, 2.056349039077759, 1.3321834802627563, 1.3905583620071411, 
540, 2171582773, -87.40705871582031, 45.65420913696289, 96.0188217163086, -7.129640102386475, -6.073040008544922, -0.9726991057395935, 1.6505939960479736, 1.4422733783721924, 0.7577074766159058, 
541, 2171591106, -87.41490173339844, 45.644378662109375, 96.0265884399414, -7.254120826721191, -6.642773628234863, 0.7356696128845215, 0.4405519962310791, 0.788726270198822, -0.5802648067474365, 
542, 2171599439, -87.41145324707031, 45.63719177246094, 96.03539276123047, -6.8584675788879395, -7.342135906219482, -0.06162889674305916, 1.2177647352218628, 0.23530517518520355, -0.2407994121313095, 
543, 2171607772, -87.40552520751953, 45.64140701293945, 96.03276824951172, -6.5544304847717285, -7.328370094299316, 0.7894148826599121, 2.4773190021514893, 1.298193335533142, 1.0537055730819702, 
544, 2171616105, -87.40101623535156, 45.64767074584961, 96.03636169433594, -6.448517799377441, -6.697442531585693, 0.42823079228401184, 1.7791008949279785, 0.789546012878418, 1.3222709894180298, 
545, 2171624438, -87.40998840332031, 45.65338134765625, 96.01921081542969, -7.015830993652344, -6.068549156188965, -0.24915844202041626, 2.01651930809021, 2.542328357696533, 1.207749605178833, 
546, 2171632771, -87.40882873535156, 45.647865295410156, 96.03068542480469, -7.234707355499268, -6.295567512512207, 0.3907812833786011, 0.6985642313957214, 0.06504734605550766, -0.05929695442318916, 
547, 2171641104, -87.40972900390625, 45.639747619628906, 96.03031921386719, -7.101693153381348, -7.179415702819824, -0.37070325016975403, 1.337332010269165, 0.8561941981315613, -0.3790138363838196, 
548, 2171649437, -87.40463256835938, 45.640872955322266, 96.035400390625, -6.719457149505615, -7.490501880645752, 1.1209412813186646, 1.666679859161377, 0.5297407507896423, 0.7425438165664673, 
549, 2171657770, -87.39974212646484, 45.648014068603516, 96.03392028808594, -6.267627716064453, -6.882725238800049, -0.17530298233032227, 2.2576260566711426, 1.2175599336624146, 1.408642053604126, 
550, 2171666103, -87.40438842773438, 45.6538200378418, 96.02217102050781, -6.9371819496154785, -6.151444911956787, 0.7814297676086426, 1.9974877834320068, 2.0732290744781494, 1.2107465267181396, 
551, 2171674436, -87.40350341796875, 45.65250778198242, 96.02877807617188, -7.148952007293701, -6.199940204620361, -0.557456910610199, 1.2092095613479614, 0.5563539862632751, 0.4540250301361084, 
552, 2171682769, -87.41334533691406, 45.6430778503418, 96.0255355834961, -7.3059773445129395, -7.031337738037109, 0.3348391056060791, 0.6387293338775635, 1.2770360708236694, -0.5860536694526672, 
553, 2171691102, -87.40928649902344, 45.64038848876953, 96.03398895263672, -6.789113521575928, -7.5246405601501465, 0.5742946267127991, 1.2633836269378662, 0.23266689479351044, 0.30123618245124817, 
554, 2171699435, -87.40376281738281, 45.64645004272461, 96.04046630859375, -6.422446250915527, -7.108245372772217, 0.11504349857568741, 2.613560914993286, 1.4227808713912964, 1.2992690801620483, 
555, 2171707768, -87.40135192871094, 45.652679443359375, 96.0388412475586, -6.7233123779296875, -6.386423587799072, 0.9623650312423706, 1.9718222618103027, 1.2288557291030884, 1.2993462085723877, 
556, 2171716101, -87.40570831298828, 45.655059814453125, 96.0316390991211, -7.105912208557129, -6.0757904052734375, -0.9210697412490845, 1.6413474082946777, 1.6721100807189941, 0.8161335587501526, 
557, 2171724434, -87.41180419921875, 45.647621154785156, 96.04176330566406, -7.211381912231445, -6.598146915435791, 0.7574717402458191, 0.42502978444099426, 0.5819425582885742, -0.28554749488830566, 
558, 2171732767, -87.4078598022461, 45.64173126220703, 96.04983520507812, -6.956118106842041, -7.396546363830566, -0.18441453576087952, 1.3258312940597534, 0.34967273473739624, -0.11713390052318573, 
559, 2171741100, -87.40110778808594, 45.646446228027344, 96.05126953125, -6.564064025878906, -7.351447105407715, 1.047489881515503, 2.5124363899230957, 1.1747840642929077, 1.1474536657333374, 
560, 2171749433, -87.39558410644531, 45.65317153930664, 96.05665588378906, -6.500977039337158, -6.738378524780273, 0.26813754439353943, 1.9731287956237793, 0.8049401640892029, 1.4070028066635132, 
561, 2171757766, -87.4034194946289, 45.65914535522461, 96.03984832763672, -7.01121187210083, -6.046877384185791, -0.09266986697912216, 2.0435421466827393, 2.495300531387329, 1.208927869796753, 
562, 2171766099, -87.40188598632812, 45.65412521362305, 96.05125427246094, -7.290277481079102, -6.295203685760498, 0.199457049369812, 0.7488705515861511, 0.07401233166456223, -0.0005378989153541625, 
563, 2171774432, -87.40756225585938, 45.645179748535156, 96.05195617675781, -7.099539756774902, -7.176325798034668, -0.35182687640190125, 0.9807818531990051, 1.0627473592758179, -0.48649123311042786, 
564, 2171782765, -87.4006118774414, 45.64496994018555, 96.06023406982422, -6.691649436950684, -7.556731700897217, 1.0440247058868408, 1.6699327230453491, 0.36232611536979675, 0.5638845562934875, 
565, 2171791098, -87.3958969116211, 45.652095794677734, 96.0577621459961, -6.305121898651123, -6.909809589385986, -0.12924019992351532, 2.251657724380493, 1.1742461919784546, 1.4394558668136597, 
566, 2171799431, -87.39898681640625, 45.65915298461914, 96.04566192626953, -6.8205389976501465, -6.254769325256348, 0.9175330400466919, 2.0056588649749756, 1.8484638929367065, 1.3991647958755493, 
567, 2171807764, -87.39737701416016, 45.659488677978516, 96.04845428466797, -7.192810535430908, -6.154763221740723, -0.8187342286109924, 1.4961146116256714, 0.8234848380088806, 0.6098108887672424, 
568, 2171816097, -87.4058837890625, 45.6497802734375, 96.04703521728516, -7.332094192504883, -6.875570297241211, 0.519968569278717, 0.6461063027381897, 1.1226848363876343, -0.6100541949272156, 
569, 2171824430, -87.40113067626953, 45.6451416015625, 96.0586166381836, -6.7911810874938965, -7.364867687225342, 0.3339948356151581, 1.143227219581604, 0.022399645298719406, 0.07583094388246536, 
570, 2171832763, -87.39535522460938, 45.651432037353516, 96.05500793457031, -6.4096903800964355, -7.20145320892334, 0.23686406016349792, 2.5443005561828613, 1.3926074504852295, 1.2983214855194092, 
571, 2171841096, -87.39154815673828, 45.65713882446289, 96.05501556396484, -6.575123310089111, -6.564903259277344, 1.000057578086853, 1.8617833852767944, 0.8941289782524109, 1.2785472869873047, 
572, 2171849429, -87.3984375, 45.66054153442383, 96.04452514648438, -7.081071376800537, -6.078481674194336, -0.8024007081985474, 1.812886118888855, 2.0848069190979004, 0.9484567046165466, 
573, 2171857762, -87.40267944335938, 45.652679443359375, 96.05059814453125, -7.329239368438721, -6.435935020446777, 0.7197834253311157, 0.5150381922721863, 0.5047668814659119, -0.3611350655555725, 
574, 2171866095, -87.40037536621094, 45.64451599121094, 96.05732727050781, -6.94740629196167, -7.236109256744385, -0.3576922118663788, 1.2419956922531128, 0.44723737239837646, -0.39287111163139343, 
575, 2171874428, -87.3951187133789, 45.647396087646484, 96.05493927001953, -6.609989166259766, -7.481884956359863, 1.0078521966934204, 2.2216122150421143, 1.0620814561843872, 0.9332163333892822, 
576, 2171882761, -87.38919067382812, 45.653785705566406, 96.05836486816406, -6.4527974128723145, -6.808685302734375, 0.06233375892043114, 1.9625244140625, 0.8036338686943054, 1.336922287940979, 
577, 2171891094, -87.39612579345703, 45.65791702270508, 96.04039764404297, -6.994113445281982, -6.056149959564209, 0.31750786304473877, 2.1162097454071045, 2.3935351371765137, 1.023071050643921, 
578, 2171899427, -87.3927230834961, 45.65351867675781, 96.05724334716797, -7.092930793762207, -6.201192855834961, -0.01105114258825779, 0.9954844117164612, 0.03238919749855995, 0.1073620617389679, 
579, 2171907760, -87.39950561523438, 45.644100189208984, 96.05473327636719, -7.143415451049805, -7.102208137512207, -0.024913351982831955, 0.9443071484565735, 1.2149215936660767, -0.5824933052062988, 
580, 2171916093, -87.39308166503906, 45.643646240234375, 96.06430053710938, -6.618690013885498, -7.528188228607178, 1.0645290613174438, 1.4956536293029785, 0.2511603534221649, 0.54298335313797, 
581, 2171924426, -87.39046478271484, 45.65168380737305, 96.06039428710938, -6.444026947021484, -6.994475364685059, -0.1897258758544922, 2.4281396865844727, 1.5945757627487183, 1.5249817371368408, 
582, 2171932759, -87.38904571533203, 45.656620025634766, 96.05512237548828, -6.839171409606934, -6.293706893920898, 1.0535573959350586, 2.1652865409851074, 1.5248537063598633, 1.130266547203064, 
583, 2171941092, -87.3897476196289, 45.65623474121094, 96.05770874023438, -7.1948089599609375, -6.065864086151123, -0.9689087271690369, 1.5247001647949219, 1.0573428869247437, 0.5461851358413696, 
584, 2171949425, -87.39924621582031, 45.64592361450195, 96.0509262084961, -7.141162395477295, -6.749379634857178, 0.6738335490226746, 0.47441405057907104, 1.008470892906189, -0.6514725089073181, 
585, 2171957758, -87.39424896240234, 45.6403694152832, 96.0629653930664, -6.763620853424072, -7.428334712982178, 0.0967278927564621, 1.1086481809616089, 0.017302416265010834, -0.06254996359348297, 
586, 2171966091, -87.38935852050781, 45.64533996582031, 96.05860137939453, -6.465853214263916, -7.234368324279785, 0.6478098630905151, 2.503906726837158, 1.4485234022140503, 1.1370799541473389, 
587, 2171974424, -87.38529205322266, 45.65050506591797, 96.0687026977539, -6.617892265319824, -6.5981903076171875, 0.745872974395752, 1.901024341583252, 0.8942569494247437, 1.2156387567520142, 
588, 2171982757, -87.39347076416016, 45.65441131591797, 96.05399322509766, -7.005406856536865, -6.030900478363037, -0.6221163272857666, 1.8250782489776611, 2.3101863861083984, 0.9718425273895264, 
589, 2171991090, -87.396728515625, 45.64759063720703, 96.06065368652344, -7.239377975463867, -6.391058444976807, 0.6896053552627563, 0.4526675343513489, 0.2806423306465149, -0.19566713273525238, 
590, 2171999423, -87.39826202392578, 45.63960266113281, 96.06348419189453, -6.945804595947266, -7.1888508796691895, -0.3349960446357727, 1.2082618474960327, 0.8057854175567627, -0.3624926209449768, 
591, 2172007756, -87.39309692382812, 45.64185333251953, 96.06470489501953, -6.629962921142578, -7.488873481750488, 1.071595549583435, 2.0630345344543457, 0.9669502377510071, 0.8361895680427551, 
592, 2172016089, -87.38874816894531, 45.648834228515625, 96.06640625, -6.368284702301025, -6.78523588180542, -0.10594158619642258, 1.9199533462524414, 0.9521451592445374, 1.4002149105072021, 
593, 2172024422, -87.39603424072266, 45.65340805053711, 96.03793334960938, -6.895337104797363, -6.092360019683838, 0.5195505619049072, 2.130733013153076, 2.451986789703369, 1.0751703977584839, 
594, 2172032755, -87.39460754394531, 45.65060043334961, 96.0473403930664, -7.197498321533203, -6.188460826873779, -0.21145950257778168, 0.9068847894668579, 0.2527228593826294, 0.25884464383125305, 
595, 2172041088, -87.40167236328125, 45.6408805847168, 96.04814147949219, -7.180200576782227, -7.0888352394104, 0.019055336713790894, 1.0010427236557007, 1.2409199476242065, -0.588768720626831, 
596, 2172049421, -87.39797973632812, 45.63985061645508, 96.05929565429688, -6.837109088897705, -7.579144477844238, 0.971234142780304, 1.2990642786026, 0.31850019097328186, 0.49797913432121277, 
597, 2172057754, -87.39511108398438, 45.64601135253906, 96.05497741699219, -6.357524871826172, -7.014284610748291, -0.17430256307125092, 2.258624792098999, 1.4518787860870361, 1.2785985469818115, 
598, 2172066087, -87.3958740234375, 45.65083312988281, 96.05052185058594, -6.922067165374756, -6.3089470863342285, 0.9934489130973816, 1.833198070526123, 1.4555160999298096, 1.1209430694580078, 
599, 2172074420, -87.39835357666016, 45.651397705078125, 96.05021667480469, -7.059284210205078, -6.102348327636719, -0.8662946224212646, 1.4419149160385132, 1.1877449750900269, 0.6502301096916199, 
600, 2172082753, -87.40728759765625, 45.64242172241211, 96.05059814453125, -7.250422954559326, -6.827953815460205, 0.7028380632400513, 0.43945062160491943, 0.9754797220230103, -0.5170745849609375, 
601, 2172091086, -87.40401458740234, 45.63823699951172, 96.06057739257812, -6.7758378982543945, -7.436468601226807, 0.11175612360239029, 1.2222728729248047, 0.2714212238788605, 0.12065586447715759, 
602, 2172099419, -87.3998031616211, 45.64423370361328, 96.05325317382812, -6.57567024230957, -7.269744396209717, 0.5768951773643494, 2.6856396198272705, 1.6531298160552979, 1.281928300857544, 
603, 2172107752, -87.3974609375, 45.65150833129883, 96.05364227294922, -6.660084247589111, -6.595302581787109, 0.577073872089386, 1.7929835319519043, 1.0626705884933472, 1.4313362836837769, 
604, 2172116085, -87.40435028076172, 45.655643463134766, 96.04013061523438, -7.102259635925293, -6.064122200012207, -0.5885317325592041, 1.8785607814788818, 2.211212635040283, 1.0032199621200562, 
605, 2172124418, -87.40631103515625, 45.64775085449219, 96.04896545410156, -7.254820823669434, -6.379013538360596, 0.5583078265190125, 0.585835874080658, 0.25349128246307373, -0.32358458638191223, 
606, 2172132751, -87.40724182128906, 45.63996124267578, 96.05139923095703, -6.991339206695557, -7.2574028968811035, -0.333636999130249, 1.2253209352493286, 0.8078345060348511, -0.36705195903778076, 
607, 2172141084, -87.40116119384766, 45.641845703125, 96.05365753173828, -6.666347980499268, -7.500662803649902, 1.1480315923690796, 2.1136226654052734, 0.8544780015945435, 0.823868989944458, 
608, 2172149417, -87.39752197265625, 45.647911071777344, 96.04991912841797, -6.349024295806885, -6.857343673706055, -0.08347881585359573, 1.9909048080444336, 1.0442794561386108, 1.3162771463394165, 
609, 2172157750, -87.40337371826172, 45.653594970703125, 96.03470611572266, -6.9096527099609375, -6.070183277130127, 0.47041088342666626, 2.1494314670562744, 2.3636176586151123, 1.1835954189300537, 
