sep=,
PacketCounter,SampleTimeFine,Euler_X,Euler_Y,Euler_Z,Acc_X,Acc_Y,Acc_Z,Gyr_X,Gyr_Y,Gyr_Z,Mag_X,Mag_Y,Mag_Z,Status,
0, 1898787539, -102.44791412353516, 68.92201232910156, 11.550535202026367, 0, 0, 0, 0, 0, 0, 0.26318359375, 0.4326171875, 1.5234375, 0, 
1, 1898795872, -102.48109436035156, 68.91377258300781, 11.532832145690918, -7.01273250579834, -1.132462978363037, -0.4038444757461548, 0.7647770047187805, 1.5232913494110107, -0.5506548285484314, 0.2548828125, 0.4296875, 1.5029296875, 0, 
2, 1898804205, -102.54151153564453, 68.90641784667969, 11.48689079284668, -9.52636432647705, -4.361264228820801, -0.9405507445335388, 0.6528940200805664, 2.6758036613464355, -0.18180982768535614, 0.25, 0.43310546875, 1.5166015625, 0, 
3, 1898812538, -102.52814483642578, 68.91415405273438, 11.492799758911133, -11.716547966003418, -6.0307464599609375, -1.1666427850723267, 3.704906702041626, 0.11117858439683914, 1.0989658832550049, 0.25244140625, 0.43408203125, 1.51611328125, 0, 
4, 1898820871, -102.5151596069336, 68.92212677001953, 11.488836288452148, -10.138291358947754, -4.746750831604004, -1.1979416608810425, 4.679810523986816, 0.48214957118034363, 1.2108234167099, 0.25048828125, 0.43994140625, 1.5380859375, 0, 
5, 1898829204, -102.44709777832031, 68.92388916015625, 11.549073219299316, -7.951540946960449, -1.6574997901916504, -0.021337004378437996, 4.185891151428223, -2.022730588912964, -0.10645277053117752, 0.2587890625, 0.4365234375, 1.5283203125, 0, 
6, 1898837537, -102.4554443359375, 68.91644287109375, 11.545008659362793, -6.600559234619141, -0.6534909009933472, -0.3846942186355591, 2.226043701171875, 0.9186672568321228, -0.5846448540687561, 0.25244140625, 0.42822265625, 1.49755859375, 0, 
7, 1898845870, -102.5121078491211, 68.9079360961914, 11.512070655822754, -8.308758735656738, -3.349013328552246, -1.1302608251571655, -0.3503515124320984, 2.172612428665161, -0.4423834979534149, 0.24853515625, 0.431640625, 1.51025390625, 0, 
8, 1898854203, -102.54358673095703, 68.90798950195312, 11.482675552368164, -11.109457969665527, -5.613227844238281, -1.378551959991455, 2.308213710784912, 1.796800136566162, 0.5320972204208374, 0.2529296875, 0.4345703125, 1.51708984375, 0, 
9, 1898862536, -102.51673126220703, 68.91879272460938, 11.494275093078613, -10.912403106689453, -5.331083297729492, -0.88016277551651, 4.687546253204346, -0.2071935534477234, 1.4080272912979126, 0.251953125, 0.439453125, 1.52783203125, 0, 
10, 1898870869, -102.4648208618164, 68.92204284667969, 11.531558990478516, -9.276945114135742, -3.213263750076294, -0.1424797773361206, 4.667720794677734, -1.1640901565551758, 0.26985877752304077, 0.2548828125, 0.4375, 1.537109375, 0, 
11, 1898879202, -102.44630432128906, 68.91819763183594, 11.548660278320312, -6.473505973815918, -0.6643189191818237, -0.6217828392982483, 3.0715694427490234, -0.05791378766298294, -0.36023861169815063, 0.2587890625, 0.42822265625, 1.5107421875, 0, 
12, 1898887535, -102.48942565917969, 68.9119873046875, 11.528645515441895, -7.407670974731445, -1.9062683582305908, -0.6421751976013184, -0.0195692740380764, 1.611404299736023, -0.28418993949890137, 0.24853515625, 0.43017578125, 1.50244140625, 0, 
13, 1898895868, -102.5476303100586, 68.90515899658203, 11.477858543395996, -10.236045837402344, -4.879920482635498, -1.1149282455444336, 1.4642761945724487, 2.880615234375, -0.07312863320112228, 0.2529296875, 0.43359375, 1.5146484375, 0, 
14, 1898904201, -102.50982666015625, 68.91548156738281, 11.505422592163086, -11.384719848632812, -5.804224014282227, -1.0661141872406006, 4.215757369995117, -0.8794136047363281, 1.2006288766860962, 0.25390625, 0.43603515625, 1.52197265625, 0, 
15, 1898912534, -102.49314880371094, 68.92060852050781, 11.506003379821777, -9.868800163269043, -4.1871137619018555, -1.0186110734939575, 4.701249599456787, 0.4041542112827301, 0.8460254669189453, 0.25439453125, 0.439453125, 1.533203125, 0, 
16, 1898920867, -102.43510437011719, 68.92191314697266, 11.56014633178711, -7.144006729125977, -1.1721705198287964, -0.3274548053741455, 3.704573392868042, -1.7487603425979614, -0.09984427690505981, 0.26220703125, 0.43505859375, 1.5185546875, 0, 
17, 1898929200, -102.4613265991211, 68.91461181640625, 11.545869827270508, -7.002669334411621, -0.8354355096817017, -0.2527482211589813, 1.2146141529083252, 1.353084683418274, -0.4723777174949646, 0.2509765625, 0.43310546875, 1.49853515625, 0, 
18, 1898937533, -102.52247619628906, 68.9063491821289, 11.50222110748291, -9.152430534362793, -4.070528030395508, -0.9658569693565369, 0.3099450469017029, 2.6057491302490234, -0.3178470730781555, 0.25, 0.4326171875, 1.5146484375, 0, 
19, 1898945866, -102.52635955810547, 68.9109115600586, 11.494823455810547, -11.422174453735352, -5.903595924377441, -1.4407634735107422, 3.127805709838867, 0.7554919123649597, 0.8553362488746643, 0.2529296875, 0.43505859375, 1.51708984375, 0, 
20, 1898954199, -102.51100158691406, 68.91952514648438, 11.492570877075195, -10.27449893951416, -5.017004489898682, -1.2061362266540527, 4.845329761505127, 0.415578156709671, 1.2769081592559814, 0.251953125, 0.439453125, 1.53466796875, 0, 
21, 1898962532, -102.43720245361328, 68.92263793945312, 11.555647850036621, -8.327823638916016, -2.0856211185455322, 0.0003376024542376399, 4.558783054351807, -2.176518440246582, 0.02941794879734516, 0.2607421875, 0.439453125, 1.53125, 0, 
22, 1898970865, -102.44171905517578, 68.91644287109375, 11.555209159851074, -6.592928409576416, -0.6233119964599609, -0.4759231507778168, 2.454599380493164, 0.8002784252166748, -0.45716291666030884, 0.25634765625, 0.42724609375, 1.50048828125, 0, 
23, 1898979198, -102.49549865722656, 68.90927124023438, 11.525640487670898, -8.103691101074219, -2.856245756149292, -0.9174233078956604, -0.38265106081962585, 1.9947469234466553, -0.3179238736629486, 0.2509765625, 0.43408203125, 1.5068359375, 0, 
24, 1898987531, -102.53947448730469, 68.90625762939453, 11.485892295837402, -10.987936973571777, -5.544332504272461, -1.3093360662460327, 2.2085747718811035, 2.4033195972442627, 0.2897866666316986, 0.25048828125, 0.43310546875, 1.5126953125, 0, 
25, 1898995864, -102.50804901123047, 68.91819763183594, 11.50451374053955, -11.047688484191895, -5.4348578453063965, -0.8398274183273315, 4.453585624694824, -0.5330066680908203, 1.4769041538238525, 0.2529296875, 0.43701171875, 1.5263671875, 0, 
26, 1899004197, -102.46770477294922, 68.92176055908203, 11.531105041503906, -9.440288543701172, -3.511298179626465, -0.40682461857795715, 4.597025394439697, -0.6744228005409241, 0.41539886593818665, 0.25634765625, 0.43701171875, 1.5361328125, 0, 
27, 1899012530, -102.43881225585938, 68.91766357421875, 11.558012008666992, -6.543839931488037, -0.7096795439720154, -0.6500687599182129, 3.220003843307495, -0.4649239480495453, -0.4793703854084015, 0.2568359375, 0.42724609375, 1.5078125, 0, 
28, 1899020863, -102.47734069824219, 68.9112777709961, 11.535673141479492, -7.332830905914307, -1.6372283697128296, -0.5469494462013245, 0.36714157462120056, 1.557255744934082, -0.31794947385787964, 0.25048828125, 0.431640625, 1.50244140625, 0, 
29, 1899029196, -102.53678894042969, 68.90359497070312, 11.486125946044922, -9.947150230407715, -4.740903377532959, -1.0358937978744507, 1.174963355064392, 2.8504674434661865, -0.18631795048713684, 0.25, 0.43408203125, 1.51123046875, 0, 
30, 1899037529, -102.5044174194336, 68.91474151611328, 11.509674072265625, -11.526188850402832, -5.865335464477539, -1.1812633275985718, 4.026109218597412, -0.7264196872711182, 1.333413004875183, 0.25244140625, 0.4365234375, 1.5185546875, 0, 
31, 1899045862, -102.49382019042969, 68.92086791992188, 11.503439903259277, -9.990524291992188, -4.374283313751221, -1.1466163396835327, 4.734753131866455, 0.6650864481925964, 1.027246117591858, 0.25390625, 0.43994140625, 1.53662109375, 0, 
32, 1899054195, -102.43130493164062, 68.92259979248047, 11.559577941894531, -7.47943639755249, -1.3642293214797974, -0.12704086303710938, 3.980644464492798, -1.8583897352218628, -0.07317987829446793, 0.2587890625, 0.43359375, 1.51806640625, 0, 
33, 1899062528, -102.4511489868164, 68.91451263427734, 11.547372817993164, -6.834919452667236, -0.8218522667884827, -0.3265724182128906, 1.749798059463501, 1.2861034870147705, -0.5837228298187256, 0.255859375, 0.42822265625, 1.5009765625, 0, 
34, 1899070861, -102.51256561279297, 68.90696716308594, 11.50510025024414, -8.705092430114746, -3.761467218399048, -1.0919203758239746, 0.02391088753938675, 2.490151882171631, -0.2513525187969208, 0.248046875, 0.43359375, 1.50830078125, 0, 
35, 1899079194, -102.52693939208984, 68.90937042236328, 11.489814758300781, -11.300179481506348, -5.767467021942139, -1.3810839653015137, 2.752441883087158, 1.1438422203063965, 0.6745892763137817, 0.25146484375, 0.43505859375, 1.51318359375, 0, 
36, 1899087527, -102.50995635986328, 68.91943359375, 11.487135887145996, -10.651708602905273, -5.023839950561523, -0.8669934868812561, 4.705604076385498, 0.251647025346756, 1.419067144393921, 0.251953125, 0.43798828125, 1.52978515625, 0, 
37, 1899095860, -102.44344329833984, 68.92378997802734, 11.541692733764648, -8.891404151916504, -2.7599925994873047, -0.022923000156879425, 4.636970520019531, -1.8500266075134277, 0.25160863995552063, 0.25732421875, 0.43896484375, 1.53076171875, 0, 
38, 1899104193, -102.43829345703125, 68.91931915283203, 11.545767784118652, -6.568597793579102, -0.7490770220756531, -0.6584720611572266, 2.9234936237335205, 0.49154993891716003, -0.3135182559490204, 0.255859375, 0.4287109375, 1.50390625, 0, 
39, 1899112526, -102.4852294921875, 68.91217041015625, 11.521591186523438, -7.798586845397949, -2.354743480682373, -0.8186526298522949, -0.1613696813583374, 1.7677278518676758, -0.3609558045864105, 0.248046875, 0.43310546875, 1.49951171875, 0, 
40, 1899120859, -102.53852844238281, 68.90679168701172, 11.475996017456055, -10.53016471862793, -5.011475563049316, -1.2535420656204224, 1.627259612083435, 2.671116590499878, 0.05416129529476166, 0.25244140625, 0.43408203125, 1.51513671875, 0, 
41, 1899129192, -102.49937438964844, 68.9178695678711, 11.503870964050293, -11.025537490844727, -5.674938201904297, -1.0173810720443726, 4.343239784240723, -0.9000841379165649, 1.286410927772522, 0.24951171875, 0.43603515625, 1.5234375, 0, 
42, 1899137525, -102.47103118896484, 68.92225646972656, 11.516458511352539, -9.620656967163086, -3.9945271015167236, -0.7595982551574707, 4.720972537994385, -0.10696505010128021, 0.6409578323364258, 0.25244140625, 0.44091796875, 1.53955078125, 0, 
43, 1899145858, -102.42378234863281, 68.92123413085938, 11.55989933013916, -6.926042079925537, -0.9121032953262329, -0.4129699170589447, 3.5705602169036865, -1.2425978183746338, -0.27212563157081604, 0.255859375, 0.4306640625, 1.5107421875, 0, 
44, 1899154191, -102.46076965332031, 68.91351318359375, 11.537900924682617, -7.312584400177002, -1.0936360359191895, -0.3425407409667969, 0.8129829168319702, 1.6869406700134277, -0.45119473338127136, 0.251953125, 0.4326171875, 1.498046875, 0, 
45, 1899162524, -102.51943969726562, 68.90530395507812, 11.494305610656738, -9.514244079589844, -4.453113079071045, -0.9710717797279358, 0.6048417091369629, 2.6143295764923096, -0.30603888630867004, 0.251953125, 0.43408203125, 1.51318359375, 0, 
46, 1899170857, -102.50532531738281, 68.91338348388672, 11.502433776855469, -11.467035293579102, -5.963854789733887, -1.2158371210098267, 3.537018299102783, -0.008234976790845394, 1.1180869340896606, 0.248046875, 0.43505859375, 1.51953125, 0, 
47, 1899179190, -102.49514770507812, 68.92147064208984, 11.495849609375, -10.1084623336792, -4.7058024406433105, -1.1643140316009521, 4.723342418670654, 0.6299309134483337, 1.2625000476837158, 0.251953125, 0.439453125, 1.54150390625, 0, 
48, 1899187523, -102.4178237915039, 68.92340087890625, 11.565436363220215, -7.921257972717285, -1.640531301498413, -0.11359185725450516, 4.275976181030273, -2.422773838043213, -0.17420241236686707, 0.25830078125, 0.43359375, 1.5283203125, 0, 
49, 1899195856, -102.43085479736328, 68.91536712646484, 11.557392120361328, -6.680928707122803, -0.7052616477012634, -0.4366123676300049, 2.1015071868896484, 1.1095703840255737, -0.6148954033851624, 0.2568359375, 0.4296875, 1.49951171875, 0, 
50, 1899204189, -102.48953247070312, 68.9073715209961, 11.520718574523926, -8.351987838745117, -3.3677432537078857, -1.065130591392517, -0.17407432198524475, 2.3029117584228516, -0.3509662449359894, 0.24853515625, 0.43212890625, 1.50830078125, 0, 
51, 1899212522, -102.51953887939453, 68.90705871582031, 11.490246772766113, -11.126944541931152, -5.620217323303223, -1.3897587060928345, 2.575191020965576, 1.8561997413635254, 0.5006173849105835, 0.25146484375, 0.4345703125, 1.5166015625, 0, 
52, 1899220855, -102.49283599853516, 68.91838836669922, 11.5023832321167, -10.853449821472168, -5.240122318267822, -0.846890389919281, 4.691285610198975, -0.22525161504745483, 1.4670425653457642, 0.25341796875, 0.44140625, 1.53173828125, 0, 
53, 1899229188, -102.43621063232422, 68.92311096191406, 11.546452522277832, -9.254264831542969, -3.1416432857513428, -0.09685659408569336, 4.624483585357666, -1.4165441989898682, 0.3928583562374115, 0.265625, 0.4443359375, 1.55126953125, 0, 
54, 1899237521, -102.41804504394531, 68.91825866699219, 11.562941551208496, -6.542595863342285, -0.6275424957275391, -0.6684252619743347, 3.129739284515381, -0.008862526156008244, -0.47258260846138, 0.267578125, 0.435546875, 1.5205078125, 0, 
55, 1899245854, -102.46232604980469, 68.91107940673828, 11.541234970092773, -7.494113922119141, -2.0248148441314697, -0.6609752178192139, -0.11951600015163422, 1.663452386856079, -0.3880556523799896, 0.2607421875, 0.43505859375, 1.51904296875, 0, 
56, 1899254187, -102.52002716064453, 68.90473937988281, 11.490324974060059, -10.226786613464355, -4.935394287109375, -1.1613723039627075, 1.5478296279907227, 2.8634278774261475, -0.020260857418179512, 0.26025390625, 0.43896484375, 1.5244140625, 0, 
57, 1899262520, -102.48826599121094, 68.91571807861328, 11.511560440063477, -11.315543174743652, -5.7295379638671875, -1.0617938041687012, 4.1977763175964355, -0.6169701218605042, 1.338228464126587, 0.26318359375, 0.4384765625, 1.5361328125, 0, 
58, 1899270853, -102.46881103515625, 68.92039489746094, 11.514897346496582, -9.942238807678223, -4.191697120666504, -1.0232930183410645, 4.782216548919678, 0.3106878995895386, 0.7688241600990295, 0.26171875, 0.44287109375, 1.55126953125, 0, 
59, 1899279186, -102.41065216064453, 68.9212417602539, 11.568439483642578, -7.087937355041504, -1.1389473676681519, -0.32338595390319824, 3.744967460632324, -1.715846300125122, -0.14981766045093536, 0.2685546875, 0.431640625, 1.5341796875, 0, 
60, 1899287519, -102.43561553955078, 68.91297912597656, 11.555636405944824, -7.001098155975342, -0.9238251447677612, -0.3050006926059723, 1.1980929374694824, 1.2989875078201294, -0.598169207572937, 0.26220703125, 0.431640625, 1.51318359375, 0, 
61, 1899295852, -102.49723815917969, 68.90422058105469, 11.50947380065918, -9.115545272827148, -4.015247821807861, -1.0172592401504517, 0.5349661111831665, 2.7355618476867676, -0.3475339412689209, 0.2587890625, 0.43798828125, 1.52392578125, 0, 
62, 1899304185, -102.49713897705078, 68.90950012207031, 11.503758430480957, -11.46476936340332, -5.895656585693359, -1.3325765132904053, 3.1884474754333496, 0.5673169493675232, 0.8988165259361267, 0.26123046875, 0.4365234375, 1.53564453125, 0, 
63, 1899312518, -102.48760986328125, 68.91741180419922, 11.496357917785645, -10.298395156860352, -4.938497543334961, -1.1384625434875488, 4.735265731811523, 0.6697738766670227, 1.2445060014724731, 0.259765625, 0.439453125, 1.5458984375, 0, 
64, 1899320851, -102.40933227539062, 68.92037200927734, 11.564504623413086, -8.257547378540039, -2.1400675773620605, -0.06436778604984283, 4.475613594055176, -2.4193668365478516, -0.04354419931769371, 0.26416015625, 0.43994140625, 1.544921875, 0, 
65, 1899329184, -102.41368103027344, 68.91395568847656, 11.562660217285156, -6.628931999206543, -0.5674446225166321, -0.42306098341941833, 2.4495277404785156, 0.8049401640892029, -0.4840322434902191, 0.263671875, 0.43408203125, 1.5087890625, 0, 
66, 1899337517, -102.46846008300781, 68.90646362304688, 11.531862258911133, -8.140399932861328, -2.9732584953308105, -0.9347760081291199, -0.3333948850631714, 2.055452585220337, -0.3445882797241211, 0.25634765625, 0.43701171875, 1.5205078125, 0, 
67, 1899345850, -102.51287841796875, 68.90380859375, 11.48902702331543, -10.991090774536133, -5.469894886016846, -1.3372912406921387, 2.23211407661438, 2.4380013942718506, 0.3401954770088196, 0.2607421875, 0.43798828125, 1.52978515625, 0, 
68, 1899354183, -102.48237609863281, 68.91487121582031, 11.506914138793945, -10.911650657653809, -5.508315086364746, -0.8704805970191956, 4.370441913604736, -0.5111320614814758, 1.373012661933899, 0.26123046875, 0.4423828125, 1.5341796875, 0, 
69, 1899362516, -102.4386978149414, 68.91728210449219, 11.537315368652344, -9.413603782653809, -3.401834487915039, -0.3206157088279724, 4.6009697914123535, -0.7820281982421875, 0.24946986138820648, 0.2626953125, 0.44140625, 1.54931640625, 0, 
70, 1899370849, -102.4098892211914, 68.91411590576172, 11.564519882202148, -6.6390252113342285, -0.6316984295845032, -0.6261381506919861, 3.197283983230591, -0.5057530403137207, -0.37268710136413574, 0.26611328125, 0.43310546875, 1.52099609375, 0, 
71, 1899379182, -102.44961547851562, 68.90802764892578, 11.544317245483398, -7.388356685638428, -1.662606954574585, -0.55500328540802, 0.257768839597702, 1.5702934265136719, -0.2770691514015198, 0.2607421875, 0.43359375, 1.513671875, 0, 
72, 1899387515, -102.50904083251953, 68.90158081054688, 11.495549201965332, -9.975439071655273, -4.941099643707275, -1.0606927871704102, 1.1413061618804932, 2.792604446411133, -0.04766808822751045, 0.255859375, 0.43359375, 1.52783203125, 0, 
73, 1899395848, -102.484130859375, 68.91178894042969, 11.511470794677734, -11.423123359680176, -5.790164470672607, -1.20737624168396, 3.973984718322754, -0.3743264079093933, 1.2964261770248413, 0.259765625, 0.44287109375, 1.53076171875, 0, 
74, 1899404181, -102.47001647949219, 68.91780090332031, 11.504256248474121, -10.010887145996094, -4.303661823272705, -1.129556655883789, 4.846866607666016, 0.5423685908317566, 0.984495997428894, 0.26123046875, 0.44189453125, 1.552734375, 0, 
75, 1899412514, -102.40593719482422, 68.9185791015625, 11.562607765197754, -7.36328649520874, -1.2624187469482422, -0.1256917417049408, 3.920041084289551, -1.917097568511963, -0.201968252658844, 0.2646484375, 0.43603515625, 1.53076171875, 0, 
76, 1899420847, -102.42562866210938, 68.91197967529297, 11.552189826965332, -6.774954319000244, -0.871214747428894, -0.40011411905288696, 1.6042834520339966, 1.1706345081329346, -0.4229934513568878, 0.26171875, 0.43212890625, 1.51220703125, 0, 
77, 1899429180, -102.48719787597656, 68.9040756225586, 11.509634017944336, -8.8006010055542, -3.8270175457000732, -1.0271224975585938, 0.13681842386722565, 2.5624606609344482, -0.2808856964111328, 0.255859375, 0.43603515625, 1.5205078125, 0, 
78, 1899437513, -102.497314453125, 68.90829467773438, 11.497404098510742, -11.468240737915039, -5.807182788848877, -1.3274872303009033, 2.9753239154815674, 0.9752362966537476, 0.8612274527549744, 0.26025390625, 0.43603515625, 1.525390625, 0, 
79, 1899445846, -102.47996520996094, 68.91694641113281, 11.499246597290039, -10.516840934753418, -5.002697944641113, -0.9713927507400513, 4.6397247314453125, 0.2589983344078064, 1.2459917068481445, 0.2607421875, 0.44091796875, 1.5419921875, 0, 
80, 1899454179, -102.4106216430664, 68.92086791992188, 11.558073043823242, -8.713423728942871, -2.5976855754852295, 0.03697339445352554, 4.521796703338623, -2.023268222808838, 0.1632523089647293, 0.26513671875, 0.4404296875, 1.54345703125, 0, 
81, 1899462512, -102.4051284790039, 68.91631317138672, 11.563436508178711, -6.516737937927246, -0.7277570962905884, -0.5529162883758545, 2.823521375656128, 0.4527955949306488, -0.3319604992866516, 0.2646484375, 0.43115234375, 1.515625, 0, 
82, 1899470845, -102.45713806152344, 68.90950012207031, 11.53327751159668, -7.914722442626953, -2.4559335708618164, -0.8674705624580383, -0.25644969940185547, 1.9391382932662964, -0.284010648727417, 0.2568359375, 0.43359375, 1.51513671875, 0, 
83, 1899479178, -102.5073471069336, 68.9048080444336, 11.487772941589355, -10.596732139587402, -5.204559803009033, -1.2889529466629028, 1.827255368232727, 2.602137327194214, 0.12029725313186646, 0.259765625, 0.435546875, 1.52978515625, 0, 
84, 1899487511, -102.47134399414062, 68.91595458984375, 11.512056350708008, -11.040800094604492, -5.595881938934326, -1.0068925619125366, 4.325616836547852, -0.7777250409126282, 1.3216817378997803, 0.25439453125, 0.43994140625, 1.53759765625, 0, 
85, 1899495844, -102.43950653076172, 68.9198989868164, 11.52737045288086, -9.596635818481445, -3.9182562828063965, -0.6292034983634949, 4.871558666229248, -0.18516533076763153, 0.5714408159255981, 0.26025390625, 0.4423828125, 1.54931640625, 0, 
86, 1899504177, -102.39537048339844, 68.91950225830078, 11.567520141601562, -6.823877811431885, -0.802958071231842, -0.4514746069908142, 3.507420539855957, -1.1572766304016113, -0.17333151400089264, 0.26611328125, 0.43505859375, 1.52734375, 0, 
87, 1899512510, -102.43311309814453, 68.91265106201172, 11.545530319213867, -7.262230396270752, -1.2900973558425903, -0.4071665108203888, 0.6973347067832947, 1.6658856868743896, -0.346381276845932, 0.25927734375, 0.43212890625, 1.50634765625, 0, 
88, 1899520843, -102.49407958984375, 68.9046630859375, 11.497547149658203, -9.684099197387695, -4.537498950958252, -1.0190768241882324, 0.7991769909858704, 2.774470329284668, -0.2499181181192398, 0.25732421875, 0.435546875, 1.52294921875, 0, 
89, 1899529176, -102.47391510009766, 68.913818359375, 11.511444091796875, -11.515849113464355, -5.9708123207092285, -1.1517150402069092, 3.6308305263519287, -0.26093220710754395, 1.1955316066741943, 0.25830078125, 0.4375, 1.52392578125, 0, 
90, 1899537509, -102.46471405029297, 68.92039489746094, 11.505127906799316, -10.076628684997559, -4.506827354431152, -1.1342942714691162, 4.489009857177734, 0.6142933964729309, 1.0691254138946533, 0.26025390625, 0.44482421875, 1.54541015625, 0, 
91, 1899545842, -102.39073944091797, 68.92271423339844, 11.572452545166016, -7.745026588439941, -1.609165906906128, -0.15236327052116394, 4.100519180297852, -2.334660768508911, -0.10327660292387009, 0.265625, 0.43701171875, 1.5380859375, 0, 
92, 1899554175, -102.40799713134766, 68.91487121582031, 11.55862808227539, -6.753650665283203, -0.7572407126426697, -0.3922761380672455, 2.177504777908325, 1.3082854747772217, -0.5494766235351562, 0.2607421875, 0.4326171875, 1.51171875, 0, 
93, 1899562508, -102.4659423828125, 68.90727996826172, 11.522736549377441, -8.479382514953613, -3.471419095993042, -1.0307409763336182, -0.1729729324579239, 2.272738218307495, -0.3062950074672699, 0.25732421875, 0.4345703125, 1.51953125, 0, 
94, 1899570841, -102.49736785888672, 68.906982421875, 11.491241455078125, -11.22850513458252, -5.614595413208008, -1.4525725841522217, 2.6126904487609863, 1.9198511838912964, 0.5143978595733643, 0.2578125, 0.435546875, 1.52099609375, 0, 
95, 1899579174, -102.47138214111328, 68.91819763183594, 11.501587867736816, -10.688237190246582, -5.310706615447998, -0.8725875020027161, 4.72263765335083, -0.16454584896564484, 1.4664020538330078, 0.25732421875, 0.43896484375, 1.5390625, 0, 
96, 1899587507, -102.41407775878906, 68.92295837402344, 11.547201156616211, -9.112449645996094, -3.020888328552246, -0.049792882055044174, 4.651058197021484, -1.4530571699142456, 0.393255352973938, 0.2607421875, 0.43896484375, 1.541015625, 0, 
97, 1899595840, -102.40035247802734, 68.91780090332031, 11.55993366241455, -6.567777633666992, -0.6056937575340271, -0.6060627698898315, 2.9823038578033447, 0.1573866754770279, -0.4751184284687042, 0.26220703125, 0.4306640625, 1.50439453125, 0, 
98, 1899604173, -102.44068145751953, 68.91049194335938, 11.544342041015625, -7.646932601928711, -2.0313358306884766, -0.6877101063728333, -0.21311043202877045, 1.4381239414215088, -0.4545758366584778, 0.24853515625, 0.43017578125, 1.501953125, 0, 
99, 1899612506, -102.4962158203125, 68.90424346923828, 11.496097564697266, -10.304664611816406, -5.060085773468018, -1.1583331823349, 1.4992398023605347, 2.7581539154052734, -0.032478850334882736, 0.25146484375, 0.431640625, 1.509765625, 0, 
100, 1899620839, -102.4627456665039, 68.9157485961914, 11.521356582641602, -11.265786170959473, -5.7105841636657715, -1.0843143463134766, 4.0742902755737305, -0.7701689004898071, 1.3712198734283447, 0.25244140625, 0.43701171875, 1.51904296875, 0, 
101, 1899629172, -102.444091796875, 68.92034912109375, 11.523418426513672, -9.870122909545898, -4.170427322387695, -0.9864858984947205, 4.771971225738525, 0.3567422926425934, 0.7717441320419312, 0.2529296875, 0.43896484375, 1.5380859375, 0, 
102, 1899637505, -102.38590240478516, 68.9206771850586, 11.577014923095703, -7.042945861816406, -1.061375617980957, -0.29380273818969727, 3.7494242191314697, -1.7176393270492554, -0.21108689904212952, 0.26025390625, 0.435546875, 1.515625, 0, 
103, 1899645838, -102.41239929199219, 68.91386413574219, 11.563348770141602, -7.014863967895508, -1.0696262121200562, -0.32965517044067383, 1.113233208656311, 1.3137413263320923, -0.42168718576431274, 0.25390625, 0.4287109375, 1.5, 0, 
104, 1899654171, -102.47584533691406, 68.9053726196289, 11.515779495239258, -9.233336448669434, -3.9821665287017822, -0.9894261956214905, 0.44792893528938293, 2.765402317047119, -0.3123911917209625, 0.25, 0.435546875, 1.50927734375, 0, 
105, 1899662504, -102.46986389160156, 68.91095733642578, 11.517605781555176, -11.495709419250488, -5.9316558837890625, -1.302213191986084, 3.279019355773926, 0.3408870995044708, 0.8898001909255981, 0.25341796875, 0.43408203125, 1.5205078125, 0, 
106, 1899670837, -102.45968627929688, 68.91868591308594, 11.51184368133545, -10.17499828338623, -4.841075897216797, -1.1022672653198242, 4.7288618087768555, 0.6287398338317871, 1.2144349813461304, 0.248046875, 0.44091796875, 1.52880859375, 0, 
107, 1899679170, -102.38909149169922, 68.92218017578125, 11.572872161865234, -8.190694808959961, -2.113879442214966, -0.07781296223402023, 4.40023136138916, -2.0995733737945557, 0.0937609151005745, 0.2578125, 0.4365234375, 1.529296875, 0, 
108, 1899687503, -102.39768981933594, 68.91516876220703, 11.571348190307617, -6.6454176902771, -0.6072044968605042, -0.46535515785217285, 2.381547451019287, 0.9730976819992065, -0.5202507376670837, 0.2548828125, 0.42919921875, 1.50244140625, 0, 
109, 1899695836, -102.45301055908203, 68.90791320800781, 11.539776802062988, -8.269638061523438, -3.059992551803589, -0.956480085849762, -0.33879947662353516, 2.081451177597046, -0.3063718378543854, 0.25048828125, 0.43212890625, 1.5068359375, 0, 
110, 1899704169, -102.4947280883789, 68.90564727783203, 11.502487182617188, -10.93149471282959, -5.503835678100586, -1.4019989967346191, 2.186828374862671, 2.274172782897949, 0.3512095808982849, 0.25390625, 0.43603515625, 1.5166015625, 0, 
111, 1899712502, -102.4646224975586, 68.9179916381836, 11.51821517944336, -10.943034172058105, -5.4700140953063965, -0.891911506652832, 4.612983226776123, -0.4205089211463928, 1.5475225448608398, 0.24951171875, 0.4384765625, 1.525390625, 0, 
112, 1899720835, -102.42169189453125, 68.9214859008789, 11.54458236694336, -9.349079132080078, -3.4114112854003906, -0.34440863132476807, 4.70767879486084, -0.7495238184928894, 0.38947728276252747, 0.25390625, 0.43701171875, 1.5361328125, 0, 
113, 1899729168, -102.39686584472656, 68.91780853271484, 11.567805290222168, -6.622170448303223, -0.5554904341697693, -0.5768569707870483, 3.14211106300354, -0.321023166179657, -0.39489462971687317, 0.259765625, 0.4287109375, 1.505859375, 0, 
114, 1899737501, -102.4372787475586, 68.91069793701172, 11.540421485900879, -7.386690139770508, -1.7486413717269897, -0.5444170832633972, 0.15134170651435852, 1.573879599571228, -0.39886489510536194, 0.24853515625, 0.43017578125, 1.5, 0, 
115, 1899745834, -102.4988021850586, 68.90286254882812, 11.487353324890137, -10.01427173614502, -4.902459621429443, -1.0987449884414673, 1.3206572532653809, 3.002692699432373, -0.17637963593006134, 0.25, 0.4326171875, 1.51171875, 0, 
116, 1899754167, -102.4729995727539, 68.91288757324219, 11.502921104431152, -11.432534217834473, -5.802388668060303, -1.1677201986312866, 3.896885395050049, -0.45326951146125793, 1.25943922996521, 0.25048828125, 0.43505859375, 1.517578125, 0, 
117, 1899762500, -102.45915222167969, 68.9183349609375, 11.500402450561523, -10.033733367919922, -4.243040561676025, -1.0678584575653076, 4.7083964347839355, 0.5279478430747986, 0.9123151302337646, 0.25390625, 0.439453125, 1.5380859375, 0, 
118, 1899770833, -102.39592742919922, 68.9192886352539, 11.558676719665527, -7.250800609588623, -1.3258041143417358, -0.17609244585037231, 3.849832773208618, -1.9229631423950195, -0.18037547171115875, 0.2568359375, 0.43505859375, 1.51904296875, 0, 
119, 1899779166, -102.41834259033203, 68.91239166259766, 11.545487403869629, -6.85452127456665, -0.8846551775932312, -0.3256513476371765, 1.5524147748947144, 1.2962979078292847, -0.4360823333263397, 0.25390625, 0.4306640625, 1.50341796875, 0, 
120, 1899787499, -102.47911071777344, 68.90461730957031, 11.503924369812012, -8.902979850769043, -3.8424477577209473, -1.0194127559661865, 0.1069522425532341, 2.4982717037200928, -0.2819359004497528, 0.24951171875, 0.42919921875, 1.51171875, 0, 
121, 1899795832, -102.48648834228516, 68.90876007080078, 11.493629455566406, -11.468591690063477, -5.805938720703125, -1.3345879316329956, 3.0346593856811523, 0.8891084790229797, 0.8360870480537415, 0.2509765625, 0.43310546875, 1.51318359375, 0, 
122, 1899804165, -102.46959686279297, 68.91825866699219, 11.49333667755127, -10.44884967803955, -5.122568607330322, -1.0551791191101074, 4.717898845672607, 0.27393144369125366, 1.350216031074524, 0.2509765625, 0.4404296875, 1.533203125, 0, 
123, 1899812498, -102.40000915527344, 68.9219741821289, 11.553565979003906, -8.602365493774414, -2.4315457344055176, 0.006385056301951408, 4.368802547454834, -2.071730613708496, 0.1256762444972992, 0.2587890625, 0.43798828125, 1.52783203125, 0, 
124, 1899820831, -102.39476776123047, 68.91719055175781, 11.558878898620605, -6.561089992523193, -0.5703980326652527, -0.3869255483150482, 2.745551347732544, 0.42574697732925415, -0.3653614819049835, 0.25830078125, 0.4287109375, 1.505859375, 0, 
125, 1899829164, -102.44584655761719, 68.91024780273438, 11.53205680847168, -7.949840068817139, -2.542858123779297, -0.9067190289497375, -0.36484917998313904, 1.8723108768463135, -0.31346699595451355, 0.2509765625, 0.43115234375, 1.505859375, 0, 
126, 1899837497, -102.49507141113281, 68.9057846069336, 11.488407135009766, -10.723854064941406, -5.353691101074219, -1.2893468141555786, 1.8446221351623535, 2.5410475730895996, 0.13820160925388336, 0.25341796875, 0.435546875, 1.51708984375, 0, 
127, 1899845830, -102.4598388671875, 68.9167709350586, 11.510457038879395, -11.03304672241211, -5.5805583000183105, -1.046015739440918, 4.522667407989502, -0.6524714231491089, 1.330416202545166, 0.25048828125, 0.43701171875, 1.5263671875, 0, 
128, 1899854163, -102.42266845703125, 68.92083740234375, 11.530372619628906, -9.5714111328125, -3.7473883628845215, -0.5943421721458435, 4.806651592254639, -0.46612781286239624, 0.5255656838417053, 0.2568359375, 0.43896484375, 1.54052734375, 0, 
129, 1899862496, -102.38288879394531, 68.91812133789062, 11.56722640991211, -6.718725204467773, -0.7368863821029663, -0.484383761882782, 3.4072182178497314, -0.9211390614509583, -0.41151827573776245, 0.25927734375, 0.4296875, 1.515625, 0, 
130, 1899870829, -102.42174530029297, 68.91124725341797, 11.54156494140625, -7.232106685638428, -1.4254045486450195, -0.4300502836704254, 0.46204233169555664, 1.6125057935714722, -0.36395263671875, 0.2509765625, 0.431640625, 1.5, 0, 
131, 1899879162, -102.48167419433594, 68.9039077758789, 11.493751525878906, -9.754599571228027, -4.557015419006348, -1.1151313781738281, 0.9249429702758789, 2.7697057723999023, -0.16531427204608917, 0.2529296875, 0.43603515625, 1.5126953125, 0, 
132, 1899887495, -102.45660400390625, 68.91358184814453, 11.507551193237305, -11.628933906555176, -5.998030662536621, -1.104406714439392, 3.854020118713379, -0.4240308403968811, 1.2183667421340942, 0.251953125, 0.4345703125, 1.52001953125, 0, 
133, 1899895828, -102.4423599243164, 68.92008972167969, 11.505663871765137, -10.023604393005371, -4.508599281311035, -1.162861943244934, 4.680963039398193, 0.47359442710876465, 1.0311907529830933, 0.25341796875, 0.43994140625, 1.53759765625, 0, 
134, 1899904161, -102.37544250488281, 68.92221069335938, 11.566635131835938, -7.55827522277832, -1.4158878326416016, -0.0998784601688385, 3.978057622909546, -2.0728063583374023, -0.0695938766002655, 0.25732421875, 0.43310546875, 1.5234375, 0, 
135, 1899912494, -102.39424896240234, 68.91475677490234, 11.554667472839355, -6.821662902832031, -0.7499774098396301, -0.3113801181316376, 1.848797082901001, 1.2584402561187744, -0.511516273021698, 0.2529296875, 0.427734375, 1.5, 0, 
136, 1899920827, -102.45441436767578, 68.907470703125, 11.516081809997559, -8.616399765014648, -3.776238203048706, -1.1003592014312744, -0.17404873669147491, 2.350374937057495, -0.2532479763031006, 0.2529296875, 0.43603515625, 1.509765625, 0, 
137, 1899929160, -102.4743423461914, 68.90910339355469, 11.49599552154541, -11.266327857971191, -5.698770999908447, -1.3994855880737305, 2.624677896499634, 1.3663272857666016, 0.6301229596138, 0.25439453125, 0.4345703125, 1.51611328125, 0, 
138, 1899937493, -102.45237731933594, 68.91931915283203, 11.501648902893066, -10.725563049316406, -5.172213077545166, -0.9147660732269287, 4.6904401779174805, 0.019069798290729523, 1.3844112157821655, 0.25537109375, 0.439453125, 1.52978515625, 0, 
139, 1899945826, -102.3839111328125, 68.92276763916016, 11.558637619018555, -9.007889747619629, -2.7818915843963623, 0.013560105115175247, 4.60035514831543, -1.929930329322815, 0.12544570863246918, 0.259765625, 0.43701171875, 1.5361328125, 0, 
140, 1899954159, -102.37299346923828, 68.9183120727539, 11.573307037353516, -6.410441875457764, -0.6563456058502197, -0.6531040072441101, 2.887838363647461, 0.21373800933361053, -0.3682814836502075, 0.25634765625, 0.42919921875, 1.5029296875, 0, 
141, 1899962492, -102.42313385009766, 68.91119384765625, 11.545978546142578, -7.639369487762451, -2.197427272796631, -0.8393931984901428, -0.19487309455871582, 1.8982325792312622, -0.332754522562027, 0.2490234375, 0.431640625, 1.50341796875, 0, 
142, 1899970825, -102.47998809814453, 68.90571594238281, 11.494760513305664, -10.525405883789062, -5.116517066955566, -1.1600849628448486, 1.8031524419784546, 2.899851083755493, 0.08858682215213776, 0.25146484375, 0.43359375, 1.51220703125, 0, 
143, 1899979158, -102.44080352783203, 68.9168701171875, 11.522527694702148, -11.20022201538086, -5.6593756675720215, -1.0011571645736694, 4.36353874206543, -0.8967416286468506, 1.3013569116592407, 0.25048828125, 0.43603515625, 1.5224609375, 0, 
144, 1899987491, -102.41458892822266, 68.92211151123047, 11.533129692077637, -9.747218132019043, -4.05079460144043, -0.8291504979133606, 4.707140922546387, -0.03885679692029953, 0.7621899843215942, 0.25390625, 0.43994140625, 1.53759765625, 0, 
145, 1899995824, -102.36837768554688, 68.92086791992188, 11.575836181640625, -6.913547515869141, -0.9291411638259888, -0.3662383556365967, 3.5273489952087402, -1.2065329551696777, -0.29256579279899597, 0.25830078125, 0.43212890625, 1.51171875, 0, 
146, 1900004157, -102.39859771728516, 68.91400146484375, 11.557435035705566, -7.151641368865967, -1.093555212020874, -0.3307832181453705, 0.7951554656028748, 1.3497036695480347, -0.4196123778820038, 0.2509765625, 0.43017578125, 1.5009765625, 0, 
147, 1900012490, -102.46117401123047, 68.90515899658203, 11.510679244995117, -9.413620948791504, -4.279321670532227, -1.0671290159225464, 0.48586365580558777, 2.7627899646759033, -0.3545522689819336, 0.25146484375, 0.43505859375, 1.51025390625, 0, 
148, 1900020823, -102.4502182006836, 68.91291809082031, 11.516886711120605, -11.474940299987793, -5.989617347717285, -1.2969756126403809, 3.4404656887054443, 0.10641433298587799, 1.106471061706543, 0.25439453125, 0.435546875, 1.51904296875, 0, 
149, 1900029156, -102.43978118896484, 68.92041778564453, 11.509698867797852, -10.164924621582031, -4.774809837341309, -1.2281444072723389, 4.81853723526001, 0.6709264516830444, 1.194507122039795, 0.25830078125, 0.447265625, 1.548828125, 0, 
150, 1900037489, -102.3683090209961, 68.92314910888672, 11.571728706359863, -7.9922404289245605, -1.7329137325286865, -0.08075328171253204, 4.378305435180664, -2.141657590866089, -0.010604294016957283, 0.2705078125, 0.4404296875, 1.5458984375, 0, 
151, 1900045822, -102.37549591064453, 68.91584777832031, 11.5689058303833, -6.620694160461426, -0.6546536684036255, -0.38508716225624084, 2.219665765762329, 0.868540346622467, -0.5775498151779175, 0.263671875, 0.4326171875, 1.5166015625, 0, 
152, 1900054155, -102.43336486816406, 68.90876770019531, 11.531691551208496, -8.353742599487305, -3.259655475616455, -0.9713746905326843, -0.19804926216602325, 2.2296807765960693, -0.25278687477111816, 0.25634765625, 0.43798828125, 1.51708984375, 0, 
153, 1900062488, -102.46573638916016, 68.9088134765625, 11.500244140625, -11.204373359680176, -5.702395439147949, -1.3370357751846313, 2.3996315002441406, 1.885195016860962, 0.5495150089263916, 0.26025390625, 0.43505859375, 1.5322265625, 0, 
154, 1900070821, -102.43961334228516, 68.92019653320312, 11.512537002563477, -10.851956367492676, -5.297112941741943, -0.8691390752792358, 4.549574851989746, -0.2517751157283783, 1.466952919960022, 0.26025390625, 0.44384765625, 1.5390625, 0, 
155, 1900079154, -102.38545227050781, 68.9239501953125, 11.554445266723633, -9.231866836547852, -3.222501754760742, -0.1617746651172638, 4.571244716644287, -1.299935221672058, 0.30240166187286377, 0.26806640625, 0.44140625, 1.54638671875, 0, 
156, 1900087487, -102.3676528930664, 68.91905212402344, 11.572039604187012, -6.502795219421387, -0.49952664971351624, -0.6516043543815613, 2.9545507431030273, -0.05887432396411896, -0.4875797927379608, 0.265625, 0.431640625, 1.51806640625, 0, 
157, 1900095820, -102.41294860839844, 68.9134521484375, 11.548575401306152, -7.48740291595459, -2.0051727294921875, -0.7347712516784668, -0.04536280781030655, 1.696392297744751, -0.18987831473350525, 0.26025390625, 0.4345703125, 1.5107421875, 0, 
158, 1900104153, -102.47315216064453, 68.90741729736328, 11.496702194213867, -10.25587272644043, -4.993236541748047, -1.1381042003631592, 1.492477297782898, 2.945828914642334, 0.03400289639830589, 0.25830078125, 0.4384765625, 1.5244140625, 0, 
159, 1900112486, -102.43748474121094, 68.91877746582031, 11.522576332092285, -11.39334774017334, -5.824207305908203, -1.0523765087127686, 4.146701335906982, -0.822575569152832, 1.3419426679611206, 0.25830078125, 0.4375, 1.5322265625, 0, 
160, 1900120819, -102.41796875, 68.92356872558594, 11.52523422241211, -9.898794174194336, -4.105357646942139, -1.0122900009155273, 4.7559356689453125, 0.29514002799987793, 0.7781732678413391, 0.26123046875, 0.44287109375, 1.55078125, 0, 
161, 1900129152, -102.36219787597656, 68.924072265625, 11.576759338378906, -7.061840057373047, -1.0625485181808472, -0.24640433490276337, 3.68753981590271, -1.622456669807434, -0.16703040897846222, 0.263671875, 0.435546875, 1.52490234375, 0, 
162, 1900137485, -102.39231872558594, 68.91658020019531, 11.559761047363281, -6.908634185791016, -0.9355798959732056, -0.2960803508758545, 1.0543715953826904, 1.4582823514938354, -0.4737608730792999, 0.2587890625, 0.43359375, 1.50830078125, 0, 
163, 1900145818, -102.4538803100586, 68.90904998779297, 11.514928817749023, -9.139115333557129, -4.18531608581543, -1.0323928594589233, 0.39257654547691345, 2.6464242935180664, -0.22097399830818176, 0.2568359375, 0.4365234375, 1.52490234375, 0, 
164, 1900154151, -102.45179748535156, 68.9151611328125, 11.512475967407227, -11.559905052185059, -5.968249320983887, -1.2902528047561646, 3.2704131603240967, 0.4870675206184387, 0.9812686443328857, 0.25830078125, 0.43798828125, 1.5244140625, 0, 
165, 1900162484, -102.43699645996094, 68.92388916015625, 11.510117530822754, -10.431527137756348, -4.905066013336182, -1.1325839757919312, 4.80549955368042, 0.4363768994808197, 1.2997814416885376, 0.2587890625, 0.44140625, 1.544921875, 0, 
166, 1900170817, -102.36026000976562, 68.92643737792969, 11.576681137084961, -8.219136238098145, -1.9907667636871338, -0.08396848291158676, 4.5475382804870605, -2.3134520053863525, -0.06587980687618256, 0.2646484375, 0.43701171875, 1.53466796875, 0, 
167, 1900179150, -102.36598205566406, 68.92131042480469, 11.574445724487305, -6.592779159545898, -0.5647843480110168, -0.3756033480167389, 2.3292691707611084, 0.7869333624839783, -0.3303724527359009, 0.2646484375, 0.4326171875, 1.5107421875, 0, 
168, 1900187483, -102.42896270751953, 68.91384887695312, 11.532228469848633, -8.153968811035156, -3.0392634868621826, -1.0573034286499023, -0.3337022662162781, 2.4211983680725098, -0.2612908184528351, 0.2568359375, 0.43408203125, 1.5185546875, 0, 
169, 1900195816, -102.47071838378906, 68.91253662109375, 11.492196083068848, -11.05885124206543, -5.551673889160156, -1.3440579175949097, 2.233240842819214, 2.283982753753662, 0.4668322205543518, 0.259765625, 0.43896484375, 1.52685546875, 0, 
170, 1900204149, -102.4400863647461, 68.92308044433594, 11.508567810058594, -10.856892585754395, -5.456437110900879, -0.9943656325340271, 4.542236328125, -0.44199925661087036, 1.32749605178833, 0.259765625, 0.439453125, 1.5390625, 0, 
171, 1900212482, -102.3875732421875, 68.92608642578125, 11.547103881835938, -9.351616859436035, -3.3785111904144287, -0.2419598400592804, 4.748816013336182, -1.1391419172286987, 0.24327121675014496, 0.26220703125, 0.43896484375, 1.54736328125, 0, 
172, 1900220815, -102.35991668701172, 68.92279052734375, 11.573551177978516, -6.598692417144775, -0.5688517689704895, -0.5230917930603027, 3.2328367233276367, -0.4400781989097595, -0.37186747789382935, 0.26611328125, 0.43408203125, 1.52001953125, 0, 
173, 1900229148, -102.40377044677734, 68.91665649414062, 11.550387382507324, -7.362833499908447, -1.7509456872940063, -0.6635494828224182, 0.09581004083156586, 1.6970583200454712, -0.25140371918678284, 0.25830078125, 0.43359375, 1.509765625, 0, 
174, 1900237481, -102.46533966064453, 68.90986633300781, 11.49945068359375, -10.088462829589844, -4.952276706695557, -1.1719032526016235, 1.3736273050308228, 2.9830210208892822, -0.05489131063222885, 0.25341796875, 0.435546875, 1.5224609375, 0, 
175, 1900245814, -102.43164825439453, 68.92153930664062, 11.523086547851562, -11.501092910766602, -5.878750801086426, -1.0427557229995728, 4.159918785095215, -0.7361531853675842, 1.3990367650985718, 0.2607421875, 0.43603515625, 1.533203125, 0, 
176, 1900254147, -102.41429901123047, 68.92682647705078, 11.526700973510742, -9.95095443725586, -4.273698329925537, -1.0729169845581055, 4.698739528656006, 0.3554103672504425, 0.8541195392608643, 0.25830078125, 0.443359375, 1.54443359375, 0, 
177, 1900262480, -102.35698699951172, 68.9268569946289, 11.579827308654785, -7.202246189117432, -1.042668104171753, -0.2523247301578522, 3.6931750774383545, -1.677475929260254, -0.24021026492118835, 0.2685546875, 0.431640625, 1.5302734375, 0, 
178, 1900270813, -102.38285827636719, 68.91857147216797, 11.56725788116455, -6.820903301239014, -0.897929310798645, -0.30565717816352844, 1.307747483253479, 1.3841547966003418, -0.5877441763877869, 0.25927734375, 0.42919921875, 1.505859375, 0, 
179, 1900279146, -102.44702911376953, 68.91004943847656, 11.52080249786377, -8.965961456298828, -4.113466739654541, -1.017565131187439, 0.26189273595809937, 2.7402491569519043, -0.3202291429042816, 0.26220703125, 0.43701171875, 1.521484375, 0, 
180, 1900287479, -102.4508056640625, 68.91519927978516, 11.518924713134766, -11.511897087097168, -5.898571491241455, -1.372583031654358, 3.0646791458129883, 0.6960028409957886, 0.9166694283485413, 0.25927734375, 0.43603515625, 1.52587890625, 0, 
181, 1900295812, -102.43663787841797, 68.92385864257812, 11.51618480682373, -10.579445838928223, -4.922317981719971, -1.0247318744659424, 4.768487453460693, 0.45476797223091125, 1.2895616292953491, 0.26123046875, 0.44091796875, 1.5400390625, 0, 
182, 1900304145, -102.36196899414062, 68.92684173583984, 11.580321311950684, -8.454389572143555, -2.2567873001098633, 0.08353904634714127, 4.45222806930542, -2.264042615890503, -0.005891274660825729, 0.26513671875, 0.4375, 1.54248046875, 0, 
183, 1900312478, -102.36264038085938, 68.92138671875, 11.581392288208008, -6.421147346496582, -0.6024909019470215, -0.47020164132118225, 2.5675323009490967, 0.6572484374046326, -0.39707183837890625, 0.26416015625, 0.43310546875, 1.5087890625, 0, 
184, 1900320811, -102.42080688476562, 68.91432189941406, 11.545598983764648, -7.96749210357666, -2.8020923137664795, -1.0201705694198608, -0.3656432032585144, 2.181013584136963, -0.2669771611690521, 0.25732421875, 0.43798828125, 1.51806640625, 0, 
185, 1900329144, -102.46538543701172, 68.91236877441406, 11.503838539123535, -10.95472240447998, -5.398738384246826, -1.2682116031646729, 2.090672016143799, 2.373427629470825, 0.4101991653442383, 0.25732421875, 0.4375, 1.521484375, 0, 
186, 1900337477, -102.43194580078125, 68.9236831665039, 11.518189430236816, -11.013137817382812, -5.593688011169434, -1.0052120685577393, 4.573063373565674, -0.5773833394050598, 1.3906737565994263, 0.2587890625, 0.4375, 1.5322265625, 0, 
187, 1900345810, -102.3854751586914, 68.9277114868164, 11.549460411071777, -9.514863014221191, -3.5635411739349365, -0.3449859917163849, 4.838004112243652, -0.858742892742157, 0.4299733340740204, 0.263671875, 0.4384765625, 1.5478515625, 0, 
188, 1900354143, -102.3517074584961, 68.92520141601562, 11.5823335647583, -6.676475524902344, -0.6985371112823486, -0.42562445998191833, 3.3677215576171875, -0.6876654028892517, -0.3259924054145813, 0.263671875, 0.4296875, 1.5126953125, 0, 
189, 1900362476, -102.39325714111328, 68.9178695678711, 11.560253143310547, -7.28873872756958, -1.4978337287902832, -0.5315702557563782, 0.2489575445652008, 1.6814079284667969, -0.40595999360084534, 0.26025390625, 0.43310546875, 1.5146484375, 0, 
190, 1900370809, -102.45091247558594, 68.91111755371094, 11.516157150268555, -9.846260070800781, -4.738950252532959, -1.1118711233139038, 1.0864534378051758, 2.698408365249634, -0.11617335677146912, 0.259765625, 0.4384765625, 1.52294921875, 0, 
191, 1900379142, -102.42536163330078, 68.92166137695312, 11.532779693603516, -11.4754056930542, -5.974071979522705, -1.1641987562179565, 3.9724478721618652, -0.4101095497608185, 1.3346425294876099, 0.26123046875, 0.4384765625, 1.53173828125, 0, 
192, 1900387475, -102.4063491821289, 68.9283218383789, 11.534262657165527, -10.022313117980957, -4.4614763259887695, -1.1782307624816895, 4.883571624755859, 0.3151191174983978, 1.013107180595398, 0.25927734375, 0.44091796875, 1.5439453125, 0, 
193, 1900395808, -102.34466552734375, 68.92874908447266, 11.589859962463379, -7.260956764221191, -1.1206364631652832, -0.243694469332695, 3.94073748588562, -1.790768027305603, -0.21446800231933594, 0.2646484375, 0.43701171875, 1.52294921875, 0, 
194, 1900404141, -102.36617279052734, 68.92208862304688, 11.579733848571777, -6.769723415374756, -0.7169820666313171, -0.2938424348831177, 1.465633749961853, 1.200014352798462, -0.42527318000793457, 0.25341796875, 0.4306640625, 1.50244140625, 0, 
195, 1900412474, -102.42658233642578, 68.9134521484375, 11.538541793823242, -8.908205032348633, -3.9918153285980225, -0.9874515533447266, 0.12255129963159561, 2.5203511714935303, -0.3816521167755127, 0.2490234375, 0.4345703125, 1.509765625, 0, 
196, 1900420807, -102.43746185302734, 68.9174575805664, 11.524020195007324, -11.692744255065918, -5.984371662139893, -1.2278248071670532, 3.1428542137145996, 1.077168345451355, 0.85368412733078, 0.2509765625, 0.43408203125, 1.51904296875, 0, 
197, 1900429140, -102.41670227050781, 68.9264144897461, 11.529722213745117, -10.525211334228516, -5.063562393188477, -1.0924187898635864, 4.612086772918701, 0.09055913239717484, 1.2458124160766602, 0.25390625, 0.4384765625, 1.53076171875, 0, 
198, 1900437473, -102.34651184082031, 68.92896270751953, 11.589728355407715, -8.523265838623047, -2.2400431632995605, -0.07758795469999313, 4.442110538482666, -2.057360887527466, -0.010553065687417984, 0.26025390625, 0.43505859375, 1.52685546875, 0, 
199, 1900445806, -102.34629821777344, 68.9222412109375, 11.591996192932129, -6.393147945404053, -0.5551024079322815, -0.4598730504512787, 2.539792537689209, 0.6386525630950928, -0.5579037070274353, 0.2568359375, 0.4267578125, 1.5009765625, 0, 
200, 1900454139, -102.40235900878906, 68.91558837890625, 11.560784339904785, -7.841674327850342, -2.7532920837402344, -1.055375099182129, -0.4286285936832428, 2.0517385005950928, -0.2432071715593338, 0.25048828125, 0.4326171875, 1.50390625, 0, 
201, 1900462472, -102.44908142089844, 68.91212463378906, 11.516962051391602, -10.78847885131836, -5.489198207855225, -1.3159127235412598, 2.063469886779785, 2.499833822250366, 0.2526203989982605, 0.2548828125, 0.43359375, 1.5166015625, 0, 
202, 1900470805, -102.41341400146484, 68.92345428466797, 11.537662506103516, -11.202308654785156, -5.6249823570251465, -0.9790992736816406, 4.599023342132568, -0.6663543581962585, 1.371091604232788, 0.25048828125, 0.435546875, 1.52392578125, 0, 
203, 1900479138, -102.36920166015625, 68.92765045166016, 11.566390037536621, -9.625285148620605, -3.5818307399749756, -0.3544280529022217, 4.849735260009766, -0.7564907670021057, 0.47379934787750244, 0.25537109375, 0.43994140625, 1.53662109375, 0, 
204, 1900487471, -102.3367691040039, 68.92434692382812, 11.597149848937988, -6.6191911697387695, -0.6889818906784058, -0.44978466629981995, 3.2324013710021973, -0.6554939150810242, -0.41835731267929077, 0.26025390625, 0.42919921875, 1.50732421875, 0, 
205, 1900495804, -102.38017272949219, 68.9168472290039, 11.573134422302246, -7.0889458656311035, -1.5186790227890015, -0.48301154375076294, 0.24567891657352448, 1.7656532526016235, -0.40473052859306335, 0.25048828125, 0.431640625, 1.4990234375, 0, 
206, 1900504137, -102.44012451171875, 68.91036987304688, 11.52454662322998, -9.843083381652832, -4.710224628448486, -1.1319200992584229, 1.1183431148529053, 2.806884765625, -0.05574938654899597, 0.25244140625, 0.431640625, 1.51416015625, 0, 
207, 1900512470, -102.4124755859375, 68.92083740234375, 11.544136047363281, -11.612005233764648, -5.991836071014404, -1.1076388359069824, 3.8872416019439697, -0.5354527235031128, 1.2957215309143066, 0.2548828125, 0.4345703125, 1.51416015625, 0, 
208, 1900520803, -102.39572143554688, 68.92758178710938, 11.546080589294434, -10.161267280578613, -4.413100242614746, -1.0555763244628906, 4.685151100158691, 0.3406181335449219, 1.027976155281067, 0.2529296875, 0.43701171875, 1.5380859375, 0, 
209, 1900529136, -102.330810546875, 68.92818450927734, 11.604567527770996, -7.322933673858643, -1.2614712715148926, -0.2542734146118164, 4.004824161529541, -1.917789101600647, -0.21874558925628662, 0.2548828125, 0.4287109375, 1.51611328125, 0, 
210, 1900537469, -102.34951782226562, 68.92133331298828, 11.589042663574219, -6.743386268615723, -0.7490718364715576, -0.2617655396461487, 1.507051944732666, 1.09502112865448, -0.47399139404296875, 0.2529296875, 0.42919921875, 1.49658203125, 0, 
211, 1900545802, -102.41263580322266, 68.91267395019531, 11.545096397399902, -8.826874732971191, -3.810981035232544, -0.9710242748260498, 0.10802804678678513, 2.637561798095703, -0.3600337505340576, 0.24951171875, 0.4345703125, 1.5078125, 0, 
212, 1900554135, -102.42786407470703, 68.91513061523438, 11.524331092834473, -11.53348445892334, -5.855610370635986, -1.3969708681106567, 2.9915759563446045, 1.2591572999954224, 0.7053007483482361, 0.251953125, 0.43359375, 1.51513671875, 0, 
213, 1900562468, -102.40245056152344, 68.92532348632812, 11.532400131225586, -10.43197250366211, -5.212758541107178, -1.2122001647949219, 4.909852027893066, -0.040701016783714294, 1.3686070442199707, 0.25390625, 0.4404296875, 1.5302734375, 0, 
214, 1900570801, -102.33367919921875, 68.92953491210938, 11.589715003967285, -8.580499649047852, -2.349508762359619, 0.039973579347133636, 4.610485553741455, -1.9713356494903564, 0.2098318338394165, 0.2529296875, 0.43603515625, 1.5263671875, 0, 
215, 1900579134, -102.32786560058594, 68.92485809326172, 11.596953392028809, -6.497179985046387, -0.5254980325698853, -0.41394415497779846, 2.653442621231079, 0.37728485465049744, -0.36182665824890137, 0.25732421875, 0.42919921875, 1.5009765625, 0, 
216, 1900587467, -102.38314056396484, 68.91731262207031, 11.565499305725098, -7.880537509918213, -2.5472946166992188, -1.0070008039474487, -0.3858528137207031, 2.051456928253174, -0.3508893847465515, 0.248046875, 0.431640625, 1.50244140625, 0, 
217, 1900595800, -102.43378448486328, 68.91365814208984, 11.519186019897461, -10.807157516479492, -5.4470133781433105, -1.261210560798645, 1.8711838722229004, 2.608745813369751, 0.24980281293392181, 0.2509765625, 0.4345703125, 1.5078125, 0, 
218, 1900604133, -102.39878845214844, 68.92526245117188, 11.542322158813477, -11.225101470947266, -5.593173503875732, -0.9006075263023376, 4.359453201293945, -0.7337967157363892, 1.3930944204330444, 0.25341796875, 0.43408203125, 1.52490234375, 0, 
219, 1900612466, -102.36056518554688, 68.92958068847656, 11.566837310791016, -9.578543663024902, -3.6633174419403076, -0.5958137512207031, 4.605682373046875, -0.5808539986610413, 0.5312520265579224, 0.25341796875, 0.43603515625, 1.5322265625, 0, 
220, 1900620799, -102.32295227050781, 68.926513671875, 11.602862358093262, -6.624779224395752, -0.6981534361839294, -0.5184900164604187, 3.3812456130981445, -0.8413252234458923, -0.43426376581192017, 0.26025390625, 0.42822265625, 1.51025390625, 0, 
221, 1900629132, -102.36457824707031, 68.9192123413086, 11.579817771911621, -7.137425899505615, -1.4471876621246338, -0.4741137623786926, 0.3497495651245117, 1.7223396301269531, -0.3924100995063782, 0.24951171875, 0.42822265625, 1.501953125, 0, 
222, 1900637465, -102.4266128540039, 68.9123306274414, 11.529955863952637, -9.781930923461914, -4.653722286224365, -1.0764013528823853, 0.9156705141067505, 2.832793712615967, -0.10097131133079529, 0.25048828125, 0.43359375, 1.5087890625, 0, 
223, 1900645798, -102.39948272705078, 68.92093658447266, 11.548041343688965, -11.662022590637207, -5.996692180633545, -1.1639864444732666, 3.9960124492645264, -0.422762930393219, 1.0926902294158936, 0.25390625, 0.43701171875, 1.5185546875, 0, 
224, 1900654131, -102.38337707519531, 68.9268569946289, 11.544853210449219, -10.129508018493652, -4.505294322967529, -1.1428287029266357, 4.8523478507995605, 0.4543837308883667, 0.9559360146522522, 0.25, 0.4404296875, 1.53173828125, 0, 
225, 1900662464, -102.31914520263672, 68.92771911621094, 11.603691101074219, -7.477974891662598, -1.3137104511260986, -0.1284032166004181, 3.880953550338745, -1.9396636486053467, -0.19251661002635956, 0.25927734375, 0.43359375, 1.52001953125, 0, 
226, 1900670797, -102.33694458007812, 68.92057037353516, 11.591176986694336, -6.627818584442139, -0.6759961843490601, -0.2845379710197449, 1.541093111038208, 1.073530912399292, -0.5163829326629639, 0.2509765625, 0.4296875, 1.4931640625, 0, 
227, 1900679130, -102.3990707397461, 68.91317749023438, 11.549752235412598, -8.611259460449219, -3.8226780891418457, -1.0923717021942139, -0.05571096017956734, 2.4995779991149902, -0.23457519710063934, 0.2509765625, 0.43359375, 1.50927734375, 0, 
228, 1900687463, -102.41677856445312, 68.9162826538086, 11.531232833862305, -11.47925090789795, -5.876683235168457, -1.2700939178466797, 2.7870466709136963, 1.2738343477249146, 0.7884958386421204, 0.25244140625, 0.43212890625, 1.5166015625, 0, 
229, 1900695796, -102.39575958251953, 68.92601776123047, 11.535172462463379, -10.725722312927246, -5.1527628898620605, -1.0733710527420044, 4.845560550689697, 0.1447332501411438, 1.3544679880142212, 0.25, 0.43798828125, 1.52734375, 0, 
230, 1900704129, -102.32455444335938, 68.9290542602539, 11.59425163269043, -8.723560333251953, -2.5395455360412598, -0.03952643647789955, 4.629119873046875, -2.045168399810791, 0.05224023386836052, 0.25634765625, 0.43408203125, 1.53662109375, 0, 
231, 1900712462, -102.31845092773438, 68.92351531982422, 11.601455688476562, -6.508205413818359, -0.5323153734207153, -0.46642881631851196, 2.6917102336883545, 0.4014134705066681, -0.4632847011089325, 0.2568359375, 0.42919921875, 1.5, 0, 
232, 1900720795, -102.3761215209961, 68.91592407226562, 11.565637588500977, -7.687876224517822, -2.4626502990722656, -0.9661864638328552, -0.3697414994239807, 2.1699483394622803, -0.3365198075771332, 0.25439453125, 0.431640625, 1.5078125, 0, 
233, 1900729128, -102.42723846435547, 68.91223907470703, 11.519387245178223, -10.689217567443848, -5.278296947479248, -1.31284761428833, 1.8105167150497437, 2.60888671875, 0.24730543792247772, 0.25341796875, 0.43505859375, 1.515625, 0, 
234, 1900737461, -102.38777160644531, 68.92444610595703, 11.545790672302246, -11.142114639282227, -5.656362056732178, -0.9908679127693176, 4.522769927978516, -0.8898128867149353, 1.4333341121673584, 0.251953125, 0.43896484375, 1.5234375, 0, 
235, 1900745794, -102.34934997558594, 68.92793273925781, 11.568177223205566, -9.635332107543945, -3.806434392929077, -0.4551333487033844, 4.8670759201049805, -0.47183987498283386, 0.45077210664749146, 0.25634765625, 0.43994140625, 1.53564453125, 0, 
236, 1900754127, -102.30921936035156, 68.9261245727539, 11.606985092163086, -6.692541599273682, -0.756646990776062, -0.5349904894828796, 3.3650574684143066, -0.9926797747612, -0.3081648647785187, 0.2578125, 0.43115234375, 1.5078125, 0, 
237, 1900762460, -102.34817504882812, 68.91998291015625, 11.585746765136719, -7.173187732696533, -1.3102705478668213, -0.42926687002182007, 0.4697650969028473, 1.6145422458648682, -0.274085134267807, 0.2490234375, 0.4306640625, 1.498046875, 0, 
238, 1900770793, -102.40908813476562, 68.91192626953125, 11.537765502929688, -9.704218864440918, -4.6311354637146, -1.0172548294067383, 0.9632360935211182, 2.832127809524536, -0.24564053118228912, 0.25, 0.43017578125, 1.51123046875, 0, 
239, 1900779126, -102.38749694824219, 68.92070007324219, 11.551140785217285, -11.634154319763184, -5.9788103103637695, -1.148577332496643, 3.858668804168701, -0.2281203716993332, 1.1560343503952026, 0.2548828125, 0.43408203125, 1.517578125, 0, 
240, 1900787459, -102.37300872802734, 68.92833709716797, 11.550020217895508, -10.116148948669434, -4.544844150543213, -1.2045960426330566, 4.828296184539795, 0.4726210832595825, 1.168073296546936, 0.2529296875, 0.43994140625, 1.53955078125, 0, 
241, 1900795792, -102.30564880371094, 68.93034362792969, 11.610912322998047, -7.638569355010986, -1.3506879806518555, -0.12555596232414246, 4.0297465324401855, -2.0549278259277344, -0.0771244615316391, 0.259765625, 0.43359375, 1.52197265625, 0, 
242, 1900804125, -102.32024383544922, 68.92314910888672, 11.603922843933105, -6.594477653503418, -0.7087991237640381, -0.3773796856403351, 1.7424981594085693, 1.0066778659820557, -0.5353631377220154, 0.25634765625, 0.42822265625, 1.5029296875, 0, 
243, 1900812458, -102.37944030761719, 68.9161148071289, 11.566842079162598, -8.524757385253906, -3.633328914642334, -1.112350344657898, -0.1909540891647339, 2.305677890777588, -0.23413968086242676, 0.2509765625, 0.43212890625, 1.50634765625, 0, 
244, 1900820791, -102.40125274658203, 68.91754150390625, 11.543739318847656, -11.38560676574707, -5.7753448486328125, -1.3357446193695068, 2.749368190765381, 1.4895575046539307, 0.630942702293396, 0.25146484375, 0.43505859375, 1.51904296875, 0, 
245, 1900829124, -102.37844848632812, 68.927978515625, 11.549901962280273, -10.822683334350586, -5.165825843811035, -0.921162486076355, 4.81118631362915, 0.032645344734191895, 1.4148919582366943, 0.25927734375, 0.44189453125, 1.54150390625, 0, 
246, 1900837457, -102.30811309814453, 68.93084716796875, 11.609350204467773, -8.960538864135742, -2.763354778289795, 0.05957905575633049, 4.626148223876953, -2.003340482711792, 0.04319841042160988, 0.26708984375, 0.443359375, 1.5498046875, 0, 
247, 1900845790, -102.2994384765625, 68.92597198486328, 11.618017196655273, -6.409849643707275, -0.6038593053817749, -0.5395564436912537, 2.8331778049468994, 0.32218870520591736, -0.39981260895729065, 0.26904296875, 0.4326171875, 1.52099609375, 0, 
248, 1900854123, -102.3545913696289, 68.9182357788086, 11.58562183380127, -7.569854736328125, -2.32239031791687, -0.9246364235877991, -0.3033493757247925, 2.084908962249756, -0.37194427847862244, 0.2568359375, 0.4365234375, 1.51513671875, 0, 
249, 1900862456, -102.4071273803711, 68.91375732421875, 11.537171363830566, -10.546856880187988, -5.15197229385376, -1.2227435111999512, 1.8843495845794678, 2.7199628353118896, 0.17093659937381744, 0.26025390625, 0.43701171875, 1.53076171875, 0, 
250, 1900870789, -102.36915588378906, 68.9256820678711, 11.56233024597168, -11.260136604309082, -5.754992485046387, -0.9926933646202087, 4.445388317108154, -0.8432207107543945, 1.4099994897842407, 0.26025390625, 0.43994140625, 1.53759765625, 0, 
251, 1900879122, -102.33618927001953, 68.93036651611328, 11.579227447509766, -9.737138748168945, -3.9514894485473633, -0.6954129934310913, 4.827425479888916, -0.2698971927165985, 0.6416750550270081, 0.26416015625, 0.44287109375, 1.55419921875, 0, 
252, 1900887455, -102.29464721679688, 68.92930603027344, 11.618300437927246, -6.8653717041015625, -0.8311514258384705, -0.4002697169780731, 3.377352476119995, -1.0734926462173462, -0.23260289430618286, 0.26708984375, 0.43212890625, 1.52783203125, 0, 
253, 1900895788, -102.32816314697266, 68.9228286743164, 11.601895332336426, -7.085620403289795, -1.1262794733047485, -0.3460116386413574, 0.574873149394989, 1.4196306467056274, -0.3588554263114929, 0.2607421875, 0.43310546875, 1.50927734375, 0, 
254, 1900904121, -102.3897705078125, 68.914306640625, 11.55450439453125, -9.495590209960938, -4.413331508636475, -1.0264465808868408, 0.6998448967933655, 2.772138833999634, -0.3163613975048065, 0.25927734375, 0.4365234375, 1.525390625, 0, 
255, 1900912454, -102.37319946289062, 68.92132568359375, 11.56450366973877, -11.52575969696045, -6.039231777191162, -1.2336032390594482, 3.6354668140411377, -0.040137503296136856, 0.9832663536071777, 0.259765625, 0.43798828125, 1.53125, 0, 
256, 1900920787, -102.36082458496094, 68.92823791503906, 11.559743881225586, -10.202439308166504, -4.666922092437744, -1.202379584312439, 4.801375389099121, 0.5775113701820374, 1.1031410694122314, 0.26220703125, 0.44287109375, 1.54736328125, 0, 
257, 1900929120, -102.2900390625, 68.92945098876953, 11.622127532958984, -7.725532531738281, -1.5672905445098877, -0.20829500257968903, 4.271519660949707, -2.097754716873169, -0.183782160282135, 0.2646484375, 0.43701171875, 1.53955078125, 0, 
258, 1900937453, -102.30503845214844, 68.92216491699219, 11.614121437072754, -6.601499080657959, -0.6187868118286133, -0.36098578572273254, 1.8570959568023682, 1.0691252946853638, -0.5330065488815308, 0.263671875, 0.431640625, 1.51025390625, 0, 
259, 1900945786, -102.36456298828125, 68.91461181640625, 11.576376914978027, -8.455565452575684, -3.5211403369903564, -1.0085010528564453, -0.15442822873592377, 2.346635580062866, -0.2900812327861786, 0.2568359375, 0.4365234375, 1.52001953125, 0, 
260, 1900954119, -102.39434814453125, 68.91551971435547, 11.54744815826416, -11.424171447753906, -5.75166654586792, -1.3253140449523926, 2.559361457824707, 1.7925227880477905, 0.6301486492156982, 0.2568359375, 0.4365234375, 1.525390625, 0, 
261, 1900962452, -102.36868286132812, 68.92666625976562, 11.558486938476562, -10.785908699035645, -5.295457363128662, -0.8775002360343933, 4.605093955993652, -0.19021132588386536, 1.4518533945083618, 0.2607421875, 0.4423828125, 1.5400390625, 0, 
262, 1900970785, -102.31399536132812, 68.93010711669922, 11.60157585144043, -9.01983642578125, -2.8894779682159424, -0.10865163058042526, 4.5233588218688965, -1.3519450426101685, 0.2590239346027374, 0.26123046875, 0.44091796875, 1.544921875, 0, 
263, 1900979118, -102.30099487304688, 68.92546844482422, 11.614126205444336, -6.398293495178223, -0.5772316455841064, -0.6548469066619873, 2.9188833236694336, 0.15116241574287415, -0.40944358706474304, 0.267578125, 0.431640625, 1.51611328125, 0, 
264, 1900987451, -102.35234832763672, 68.9190444946289, 11.584138870239258, -7.571486473083496, -2.118227005004883, -0.7502732872962952, -0.23705972731113434, 1.9026379585266113, -0.24548682570457458, 0.26025390625, 0.4365234375, 1.517578125, 0, 
265, 1900995784, -102.40745544433594, 68.91291809082031, 11.535057067871094, -10.38045597076416, -5.2026872634887695, -1.1840481758117676, 1.6417572498321533, 2.7885830402374268, -0.01854470558464527, 0.25830078125, 0.43701171875, 1.5244140625, 0, 
266, 1901004117, -102.37641906738281, 68.92448425292969, 11.548676490783691, -11.400016784667969, -5.690937042236328, -1.0223703384399414, 4.254486083984375, -0.59340500831604, 1.4176583290100098, 0.259765625, 0.4375, 1.53662109375, 0, 
267, 1901012450, -102.3526840209961, 68.92903900146484, 11.555474281311035, -9.82967758178711, -4.094345569610596, -0.9901089668273926, 4.852450370788574, 0.15754036605358124, 0.7227953672409058, 0.2607421875, 0.44384765625, 1.546875, 0, 
268, 1901020783, -102.30426025390625, 68.92784881591797, 11.600985527038574, -6.937053203582764, -0.964765727519989, -0.2804670035839081, 3.480936050415039, -1.3382413387298584, -0.31095680594444275, 0.2666015625, 0.4365234375, 1.5263671875, 0, 
269, 1901029116, -102.3342514038086, 68.91947174072266, 11.585038185119629, -6.8889384269714355, -1.0341137647628784, -0.31583210825920105, 0.9549242854118347, 1.4493814706802368, -0.5831208229064941, 0.2578125, 0.4326171875, 1.5078125, 0, 
270, 1901037449, -102.39704895019531, 68.91143798828125, 11.53834056854248, -9.295933723449707, -4.186767101287842, -1.0331592559814453, 0.4526675343513489, 2.7245988845825195, -0.26943615078926086, 0.25634765625, 0.43701171875, 1.51708984375, 0, 
271, 1901045782, -102.3905029296875, 68.91870880126953, 11.540298461914062, -11.648980140686035, -6.035518169403076, -1.2362990379333496, 3.3338592052459717, 0.2915540039539337, 1.0879006385803223, 0.25732421875, 0.4345703125, 1.52880859375, 0, 
272, 1901054115, -102.37616729736328, 68.92719268798828, 11.538562774658203, -10.321913719177246, -4.787750720977783, -1.031844139099121, 4.813312530517578, 0.45297494530677795, 1.2696336507797241, 0.25439453125, 0.44189453125, 1.54052734375, 0, 
273, 1901062448, -102.30546569824219, 68.93031311035156, 11.599989891052246, -8.082064628601074, -1.9614039659500122, -0.0684199333190918, 4.365984916687012, -2.107897996902466, 0.047117382287979126, 0.265625, 0.4365234375, 1.5400390625, 0, 
274, 1901070781, -102.31266784667969, 68.92439270019531, 11.596233367919922, -6.5663838386535645, -0.6260448098182678, -0.4188363254070282, 2.299838066101074, 0.8464351296424866, -0.40975090861320496, 0.26220703125, 0.4306640625, 1.51025390625, 0, 
275, 1901079114, -102.3695068359375, 68.91614532470703, 11.562555313110352, -8.247455596923828, -3.1059787273406982, -0.9543535113334656, -0.28731489181518555, 2.193385362625122, -0.40754806995391846, 0.2568359375, 0.43701171875, 1.515625, 0, 
276, 1901087447, -102.40909576416016, 68.91419219970703, 11.525923728942871, -11.02639102935791, -5.506948471069336, -1.4393060207366943, 2.2053215503692627, 2.1754300594329834, 0.3618907034397125, 0.25927734375, 0.43408203125, 1.529296875, 0, 
277, 1901095780, -102.37480926513672, 68.92597961425781, 11.545398712158203, -10.81202507019043, -5.4605793952941895, -0.9492760896682739, 4.698611259460449, -0.5626680254936218, 1.4532108306884766, 0.25927734375, 0.44482421875, 1.53369140625, 0, 
278, 1901104113, -102.32666778564453, 68.93037414550781, 11.580092430114746, -9.267784118652344, -3.3591694831848145, -0.2888874113559723, 4.74325704574585, -0.9929614663124084, 0.4470324218273163, 0.263671875, 0.43994140625, 1.55029296875, 0, 
279, 1901112446, -102.30258178710938, 68.92729187011719, 11.601969718933105, -6.630904197692871, -0.6254774928092957, -0.5630752444267273, 3.2025606632232666, -0.2819359004497528, -0.31282666325569153, 0.26513671875, 0.43310546875, 1.51806640625, 0, 
280, 1901120779, -102.34618377685547, 68.9191665649414, 11.582453727722168, -7.486473083496094, -1.6601614952087402, -0.5299854278564453, 0.152263805270195, 1.7408329248428345, -0.4893087148666382, 0.2568359375, 0.43505859375, 1.51123046875, 0, 
281, 1901129112, -102.4065933227539, 68.91095733642578, 11.530542373657227, -10.135408401489258, -4.953707695007324, -1.134083867073059, 1.3238844871520996, 2.9630932807922363, -0.2342165857553482, 0.25390625, 0.435546875, 1.5234375, 0, 
282, 1901137445, -102.37513732910156, 68.9220199584961, 11.55579662322998, -11.45418643951416, -5.799656867980957, -1.0658422708511353, 3.9813873767852783, -0.7034693956375122, 1.3340790271759033, 0.26171875, 0.4404296875, 1.5283203125, 0, 
283, 1901145778, -102.35933685302734, 68.92826080322266, 11.556961059570312, -9.917981147766113, -4.267750263214111, -1.1009427309036255, 4.527713298797607, 0.3527976870536804, 0.9691786766052246, 0.2578125, 0.44287109375, 1.548828125, 0, 
284, 1901154111, -102.289306640625, 68.92919158935547, 11.621467590332031, -7.175368309020996, -1.2095885276794434, -0.2105986773967743, 3.966787338256836, -2.1896328926086426, -0.2339092195034027, 0.26416015625, 0.4345703125, 1.5283203125, 0, 
285, 1901162444, -102.31204223632812, 68.92204284667969, 11.607937812805176, -6.919371604919434, -0.8731484413146973, -0.34612706303596497, 1.5502886772155762, 1.3147913217544556, -0.46113306283950806, 0.26318359375, 0.43310546875, 1.51220703125, 0, 
286, 1901170777, -102.3757553100586, 68.9151611328125, 11.565155029296875, -8.958880424499512, -3.909820318222046, -1.039513111114502, -0.017187152057886124, 2.5549561977386475, -0.16405919194221497, 0.25732421875, 0.4375, 1.517578125, 0, 
287, 1901179110, -102.38569641113281, 68.91897583007812, 11.552210807800293, -11.521577835083008, -5.839704990386963, -1.3824759721755981, 3.019495725631714, 1.0101357698440552, 0.8177984356880188, 0.26171875, 0.4375, 1.5244140625, 0, 
288, 1901187443, -102.37055206298828, 68.92835998535156, 11.55270767211914, -10.418890953063965, -5.114562034606934, -1.014447569847107, 4.759240627288818, 0.36967748403549194, 1.3614351749420166, 0.259765625, 0.44287109375, 1.53759765625, 0, 
289, 1901195776, -102.3000717163086, 68.93248748779297, 11.612272262573242, -8.607280731201172, -2.3854238986968994, 0.05743015184998512, 4.5504584312438965, -2.053621530532837, 0.1831546127796173, 0.2578125, 0.43603515625, 1.5341796875, 0, 
290, 1901204109, -102.2995834350586, 68.92588806152344, 11.6123685836792, -6.47780704498291, -0.6381893754005432, -0.5806137919425964, 2.7497010231018066, 0.6845276355743408, -0.5324943661689758, 0.25634765625, 0.42626953125, 1.50341796875, 0, 
291, 1901212442, -102.35061645507812, 68.91911315917969, 11.58667278289795, -7.917151927947998, -2.520364999771118, -0.9029244184494019, -0.4841858744621277, 1.8195711374282837, -0.30803677439689636, 0.2509765625, 0.43212890625, 1.50048828125, 0, 
292, 1901220775, -102.40245819091797, 68.91577911376953, 11.540678024291992, -10.703078269958496, -5.380932807922363, -1.2833356857299805, 1.8973870277404785, 2.6461422443389893, 0.2977270483970642, 0.25390625, 0.4326171875, 1.51708984375, 0, 
293, 1901229108, -102.37124633789062, 68.9276123046875, 11.559707641601562, -11.107725143432617, -5.540639400482178, -0.944930374622345, 4.379419326782227, -0.545134961605072, 1.4633923768997192, 0.24658203125, 0.43359375, 1.52392578125, 0, 
294, 1901237441, -102.33782196044922, 68.93195343017578, 11.578335762023926, -9.643746376037598, -3.8629648685455322, -0.6656418442726135, 4.8722758293151855, -0.2825250029563904, 0.5983613729476929, 0.251953125, 0.435546875, 1.53662109375, 0, 
295, 1901245774, -102.29978942871094, 68.93013000488281, 11.613492012023926, -6.787930488586426, -0.7173143029212952, -0.43574604392051697, 3.389263153076172, -0.8739577531814575, -0.2871355712413788, 0.25634765625, 0.4267578125, 1.50830078125, 0, 
296, 1901254107, -102.33636474609375, 68.92434692382812, 11.594766616821289, -7.180575370788574, -1.3956053256988525, -0.4507579803466797, 0.4561510980129242, 1.4794397354125977, -0.2633143365383148, 0.2490234375, 0.43212890625, 1.498046875, 0, 
297, 1901262440, -102.39958953857422, 68.9168930053711, 11.54373550415039, -9.608843803405762, -4.353786945343018, -1.1084799766540527, 0.8903379440307617, 2.9063832759857178, -0.15140575170516968, 0.2529296875, 0.43408203125, 1.51220703125, 0, 
298, 1901270773, -102.37694549560547, 68.92599487304688, 11.559599876403809, -11.501569747924805, -5.973095417022705, -1.1924448013305664, 3.6735033988952637, -0.3719954788684845, 1.1636416912078857, 0.2509765625, 0.435546875, 1.513671875, 0, 
299, 1901279106, -102.36952209472656, 68.93103790283203, 11.549882888793945, -10.119488716125488, -4.583461284637451, -1.1655137538909912, 4.740516662597656, 0.8417478799819946, 0.9323453903198242, 0.2548828125, 0.4404296875, 1.53662109375, 0, 
300, 1901287439, -102.29674530029297, 68.93324279785156, 11.616653442382812, -7.544687747955322, -1.6017082929611206, -0.2646608054637909, 4.03679084777832, -2.318216323852539, -0.10993630439043045, 0.259765625, 0.43505859375, 1.5234375, 0, 
301, 1901295772, -102.31591033935547, 68.92640686035156, 11.602871894836426, -6.831145763397217, -0.6127047538757324, -0.2583228051662445, 2.0105254650115967, 1.3183006048202515, -0.4246840178966522, 0.2529296875, 0.4287109375, 1.49609375, 0, 
302, 1901304105, -102.37528228759766, 68.91844177246094, 11.564668655395508, -8.63310432434082, -3.615790367126465, -0.9170430898666382, -0.16257353127002716, 2.3303191661834717, -0.34371742606163025, 0.251953125, 0.43310546875, 1.51171875, 0, 
303, 1901312438, -102.4009780883789, 68.92021179199219, 11.537123680114746, -11.383671760559082, -5.731281757354736, -1.3475816249847412, 2.765505313873291, 1.678667426109314, 0.7127289772033691, 0.25244140625, 0.43505859375, 1.51318359375, 0, 
304, 1901320771, -102.38023376464844, 68.93106079101562, 11.54205322265625, -10.602264404296875, -5.306729793548584, -0.9536024928092957, 4.613482475280762, 0.023155268281698227, 1.4670554399490356, 0.2548828125, 0.439453125, 1.53173828125, 0, 
305, 1901329104, -102.31989288330078, 68.934814453125, 11.590950965881348, -8.983360290527344, -2.769242525100708, -0.06215345859527588, 4.526714324951172, -1.5956133604049683, 0.23781536519527435, 0.26025390625, 0.43505859375, 1.53271484375, 0, 
306, 1901337437, -102.30712890625, 68.92977905273438, 11.61037540435791, -6.476482391357422, -0.5260628461837769, -0.5812824368476868, 2.9410650730133057, 0.1661723554134369, -0.45393550395965576, 0.2578125, 0.42724609375, 1.5029296875, 0, 
307, 1901345770, -102.35384368896484, 68.92301940917969, 11.587854385375977, -7.646669864654541, -2.2417967319488525, -0.8389289975166321, -0.32322606444358826, 1.684251308441162, -0.3380310833454132, 0.2509765625, 0.43017578125, 1.50537109375, 0, 
308, 1901354103, -102.40667724609375, 68.91767883300781, 11.542135238647461, -10.409899711608887, -5.229424476623535, -1.1683509349822998, 1.7809960842132568, 2.6992921829223633, 0.06468874961137772, 0.2529296875, 0.431640625, 1.51123046875, 0, 
309, 1901362436, -102.37376403808594, 68.92932891845703, 11.563730239868164, -11.293219566345215, -5.677104949951172, -1.0081260204315186, 4.294342517852783, -0.6495770812034607, 1.4148920774459839, 0.25244140625, 0.4384765625, 1.52294921875, 0, 
310, 1901370769, -102.34803009033203, 68.93417358398438, 11.571294784545898, -9.848604202270508, -3.96616268157959, -0.8132025599479675, 4.814208984375, 0.03149270638823509, 0.7273290753364563, 0.25341796875, 0.43994140625, 1.53759765625, 0, 
311, 1901379102, -102.30315399169922, 68.93287658691406, 11.612457275390625, -6.881245136260986, -0.8965047597885132, -0.3669644594192505, 3.541821002960205, -1.1399871110916138, -0.2777351438999176, 0.25732421875, 0.43017578125, 1.51171875, 0, 
312, 1901387435, -102.33606719970703, 68.92638397216797, 11.59282398223877, -6.932706356048584, -1.194488763809204, -0.3693247139453888, 0.7854477167129517, 1.4560538530349731, -0.35460343956947327, 0.2529296875, 0.42919921875, 1.49951171875, 0, 
313, 1901395768, -102.39827728271484, 68.91931915283203, 11.544357299804688, -9.360026359558105, -4.2600531578063965, -1.0796536207199097, 0.7259714603424072, 2.786867380142212, -0.130171537399292, 0.25048828125, 0.43310546875, 1.51220703125, 0, 
314, 1901404101, -102.38521575927734, 68.9269790649414, 11.551276206970215, -11.637575149536133, -5.9814605712890625, -1.2350895404815674, 3.557983636856079, 0.057363077998161316, 1.0794222354888916, 0.25341796875, 0.43359375, 1.52001953125, 0, 
315, 1901412434, -102.37954711914062, 68.93449401855469, 11.540179252624512, -10.334681510925293, -4.755821704864502, -1.1357479095458984, 4.68823766708374, 0.8364201784133911, 1.2358484268188477, 0.24951171875, 0.43798828125, 1.5322265625, 0, 
316, 1901420767, -102.30919647216797, 68.93743896484375, 11.602609634399414, -7.8974385261535645, -1.7709228992462158, -0.11334569752216339, 4.144908428192139, -2.184919834136963, 0.010027972981333733, 0.25927734375, 0.43408203125, 1.52783203125, 0, 
317, 1901429100, -102.3184585571289, 68.93212127685547, 11.59882926940918, -6.604587078094482, -0.6292058825492859, -0.35162878036499023, 2.0783517360687256, 0.857577383518219, -0.3382103443145752, 0.255859375, 0.42822265625, 1.49853515625, 0, 
318, 1901437433, -102.37570190429688, 68.92497253417969, 11.564414978027344, -8.3493013381958, -3.265604257583618, -0.9763897061347961, -0.27665936946868896, 2.1733295917510986, -0.2804758846759796, 0.24853515625, 0.43310546875, 1.50439453125, 0, 
319, 1901445766, -102.40799713134766, 68.9240493774414, 11.533905982971191, -11.117620468139648, -5.666144847869873, -1.4234639406204224, 2.3046538829803467, 1.8714146614074707, 0.42451754212379456, 0.25244140625, 0.43359375, 1.52197265625, 0, 
320, 1901454099, -102.3818359375, 68.93463134765625, 11.54491901397705, -10.740903854370117, -5.344954490661621, -1.0409917831420898, 4.715363502502441, -0.1763284057378769, 1.3922489881515503, 0.2548828125, 0.44140625, 1.52685546875, 0, 
321, 1901462432, -102.32679748535156, 68.93902587890625, 11.5857572555542, -9.21522045135498, -3.186992645263672, -0.11103229969739914, 4.791975498199463, -1.2721567153930664, 0.3848923146724701, 0.259765625, 0.43994140625, 1.5380859375, 0, 
322, 1901470765, -102.30770874023438, 68.93456268310547, 11.603585243225098, -6.529277801513672, -0.544680118560791, -0.55783611536026, 3.0888843536376953, -0.08073605597019196, -0.4355187714099884, 0.2587890625, 0.43212890625, 1.5078125, 0, 
323, 1901479098, -102.35332489013672, 68.92745971679688, 11.579071998596191, -7.484078884124756, -1.957419514656067, -0.7269278764724731, 0.03156954422593117, 1.7762575149536133, -0.35824066400527954, 0.25244140625, 0.4326171875, 1.50390625, 0, 
324, 1901487431, -102.41213989257812, 68.92121124267578, 11.528711318969727, -10.303092956542969, -5.017789840698242, -1.2174971103668213, 1.4238312244415283, 2.8593297004699707, -0.01203869003802538, 0.25048828125, 0.43310546875, 1.517578125, 0, 
325, 1901495764, -102.37661743164062, 68.93282318115234, 11.554524421691895, -11.44991397857666, -5.792088985443115, -0.9288488626480103, 4.138786792755127, -0.8251625895500183, 1.3719112873077393, 0.25341796875, 0.43896484375, 1.51953125, 0, 
326, 1901504097, -102.35790252685547, 68.93810272216797, 11.557079315185547, -9.830488204956055, -4.134425163269043, -0.9906080961227417, 4.558501720428467, 0.24073541164398193, 0.8280698657035828, 0.25537109375, 0.439453125, 1.5390625, 0, 
327, 1901512430, -102.29978942871094, 68.93902587890625, 11.610904693603516, -6.988556861877441, -1.029435157775879, -0.31194937229156494, 3.708595037460327, -1.7290889024734497, -0.13703615963459015, 0.255859375, 0.4326171875, 1.51611328125, 0, 
328, 1901520763, -102.33082580566406, 68.93118286132812, 11.587173461914062, -6.972204208374023, -0.917321503162384, -0.2927263677120209, 1.1507452726364136, 1.540824294090271, -0.5024104118347168, 0.2529296875, 0.4296875, 1.5, 0, 
329, 1901529096, -102.39179992675781, 68.923095703125, 11.543269157409668, -9.181297302246094, -4.252829551696777, -1.0699876546859741, 0.36199313402175903, 2.620528221130371, -0.29325738549232483, 0.25, 0.43310546875, 1.51171875, 0, 
330, 1901537429, -102.3924789428711, 68.92823791503906, 11.539300918579102, -11.562695503234863, -5.874374866485596, -1.3290362358093262, 3.285627841949463, 0.638447642326355, 0.9007630348205566, 0.25146484375, 0.435546875, 1.51611328125, 0, 
331, 1901545762, -102.37818145751953, 68.93693542480469, 11.535902976989746, -10.397538185119629, -4.944132328033447, -1.0968782901763916, 4.8567023277282715, 0.4817909300327301, 1.2988593578338623, 0.25146484375, 0.439453125, 1.53369140625, 0, 
332, 1901554095, -102.30696868896484, 68.94002532958984, 11.597062110900879, -8.271800994873047, -2.043231964111328, 0.018103141337633133, 4.36014461517334, -2.1518776416778564, 0.039279431104660034, 0.255859375, 0.4375, 1.52685546875, 0, 
333, 1901562428, -102.31047058105469, 68.93353271484375, 11.595967292785645, -6.466316223144531, -0.6391482353210449, -0.45896416902542114, 2.470224142074585, 0.7744592428207397, -0.496685653924942, 0.25634765625, 0.43017578125, 1.501953125, 0, 
334, 1901570761, -102.36833190917969, 68.926513671875, 11.556440353393555, -8.105437278747559, -2.916071891784668, -0.9872607588768005, -0.3269144296646118, 2.1791181564331055, -0.2641339898109436, 0.24853515625, 0.4306640625, 1.50634765625, 0, 
335, 1901579094, -102.4095230102539, 68.92537689208984, 11.516932487487793, -11.03844165802002, -5.494549751281738, -1.2761038541793823, 2.243563652038574, 2.254859447479248, 0.4795881509780884, 0.25048828125, 0.4326171875, 1.51123046875, 0, 
336, 1901587427, -102.37857055664062, 68.93641662597656, 11.532571792602539, -10.9608154296875, -5.448582649230957, -0.9324295520782471, 4.617286205291748, -0.4384900629520416, 1.3854355812072754, 0.2509765625, 0.4375, 1.525390625, 0, 
337, 1901595760, -102.33147430419922, 68.94033813476562, 11.56557559967041, -9.440710067749023, -3.4791712760925293, -0.3585093319416046, 4.719435691833496, -0.9290538430213928, 0.40671566128730774, 0.25390625, 0.43603515625, 1.53125, 0, 
338, 1901604093, -102.3092041015625, 68.93749237060547, 11.589848518371582, -6.637978553771973, -0.6794395446777344, -0.567296028137207, 3.076026439666748, -0.2721256613731384, -0.2770179510116577, 0.259765625, 0.4296875, 1.50732421875, 0, 
339, 1901612426, -102.35205078125, 68.93018341064453, 11.567536354064941, -7.314489841461182, -1.6906929016113281, -0.5997774600982666, 0.12337096035480499, 1.6908596754074097, -0.399530827999115, 0.2490234375, 0.42919921875, 1.5, 0, 
340, 1901620759, -102.41350555419922, 68.92216491699219, 11.517341613769531, -9.971549987792969, -4.64127254486084, -1.148287057876587, 1.1381558179855347, 2.9186272621154785, -0.22348421812057495, 0.251953125, 0.4345703125, 1.51416015625, 0, 
341, 1901629092, -102.38062286376953, 68.93231201171875, 11.54129695892334, -11.437631607055664, -5.956213474273682, -1.1108388900756836, 4.031463146209717, -0.7092069387435913, 1.219609022140503, 0.2607421875, 0.4423828125, 1.53125, 0, 
342, 1901637425, -102.36637115478516, 68.93812561035156, 11.538959503173828, -9.953179359436035, -4.376651287078857, -1.148413896560669, 4.883084774017334, 0.5481830835342407, 0.9619041681289673, 0.26611328125, 0.44677734375, 1.55419921875, 0, 
343, 1901645758, -102.30593872070312, 68.93973541259766, 11.59352970123291, -7.279875755310059, -1.2739850282669067, -0.207015261054039, 3.9037506580352783, -1.7778329849243164, -0.06329277902841568, 0.271484375, 0.43798828125, 1.537109375, 0, 
344, 1901654091, -102.32624816894531, 68.93273162841797, 11.583033561706543, -6.925698757171631, -0.718198299407959, -0.2228306233882904, 1.5229711532592773, 1.176589846611023, -0.48039495944976807, 0.26025390625, 0.43505859375, 1.51220703125, 0, 
345, 1901662424, -102.3890609741211, 68.92473602294922, 11.539833068847656, -8.860112190246582, -4.007861137390137, -1.0177178382873535, 0.061743102967739105, 2.587332248687744, -0.2890566289424896, 0.25927734375, 0.4375, 1.52392578125, 0, 
346, 1901670757, -102.39620208740234, 68.9284896850586, 11.530925750732422, -11.494194030761719, -5.867693901062012, -1.2809083461761475, 2.993189811706543, 0.8547854423522949, 0.7766876220703125, 0.25927734375, 0.43896484375, 1.52783203125, 0, 
347, 1901679090, -102.37882995605469, 68.9371337890625, 11.53239917755127, -10.55085277557373, -5.004070281982422, -1.0093148946762085, 4.685279369354248, 0.2785804271697998, 1.250512719154358, 0.26318359375, 0.44287109375, 1.54541015625, 0, 
348, 1901687423, -102.30936431884766, 68.94062805175781, 11.591601371765137, -8.678997993469238, -2.4616448879241943, 0.015434496104717255, 4.4761128425598145, -2.037151575088501, 0.11262580752372742, 0.2666015625, 0.4404296875, 1.546875, 0, 
349, 1901695756, -102.30621337890625, 68.93460083007812, 11.594610214233398, -6.413132667541504, -0.6903746128082275, -0.6435307264328003, 2.801633834838867, 0.5890249013900757, -0.4880920350551605, 0.26416015625, 0.43310546875, 1.5146484375, 0, 
350, 1901704089, -102.35832214355469, 68.92780303955078, 11.566435813903809, -7.792741298675537, -2.5414979457855225, -0.9621174931526184, -0.34266725182533264, 1.902305245399475, -0.29013246297836304, 0.259765625, 0.435546875, 1.51806640625, 0, 
351, 1901712422, -102.40996551513672, 68.92276763916016, 11.518388748168945, -10.751625061035156, -5.307948112487793, -1.2510310411453247, 1.9439282417297363, 2.717196464538574, 0.10469818860292435, 0.2607421875, 0.4384765625, 1.525390625, 0, 
352, 1901720755, -102.37379455566406, 68.93463134765625, 11.540782928466797, -11.148759841918945, -5.582358360290527, -0.9458785057067871, 4.477586269378662, -0.747833251953125, 1.4154554605484009, 0.2587890625, 0.43896484375, 1.53857421875, 0, 
353, 1901729088, -102.34133911132812, 68.93973541259766, 11.558114051818848, -9.573530197143555, -3.7985899448394775, -0.6404460072517395, 4.718052864074707, -0.29922550916671753, 0.6895992755889893, 0.2626953125, 0.44384765625, 1.548828125, 0, 
354, 1901737421, -102.30352020263672, 68.93840789794922, 11.5933256149292, -6.785505294799805, -0.8017817735671997, -0.3869158923625946, 3.374150276184082, -0.8989827632904053, -0.22870950400829315, 0.267578125, 0.435546875, 1.52099609375, 0, 
355, 1901745754, -102.33594512939453, 68.93061828613281, 11.578332901000977, -7.199950695037842, -1.2784206867218018, -0.3762679696083069, 0.5512951612472534, 1.3930045366287231, -0.5257193446159363, 0.259765625, 0.43115234375, 1.509765625, 0, 
356, 1901754087, -102.39871215820312, 68.92313385009766, 11.527899742126465, -9.624658584594727, -4.525871276855469, -1.0834773778915405, 0.7906986474990845, 2.8282084465026855, -0.17220450937747955, 0.25537109375, 0.43896484375, 1.52099609375, 0, 
357, 1901762420, -102.37810516357422, 68.93083190917969, 11.542337417602539, -11.499842643737793, -5.899696350097656, -1.253187894821167, 3.6208152770996094, -0.2453075498342514, 1.0168211460113525, 0.25927734375, 0.4365234375, 1.5283203125, 0, 
358, 1901770753, -102.36864471435547, 68.93766784667969, 11.533669471740723, -10.147868156433105, -4.677718162536621, -1.1892987489700317, 4.83024263381958, 0.7189532518386841, 1.1248875856399536, 0.25439453125, 0.44287109375, 1.54345703125, 0, 
359, 1901779086, -102.29222869873047, 68.94039916992188, 11.601444244384766, -7.680556774139404, -1.5345995426177979, -0.07062312215566635, 4.3434319496154785, -2.362593173980713, -0.05628728121519089, 0.26611328125, 0.4384765625, 1.5400390625, 0, 
360, 1901787419, -102.30791473388672, 68.9351577758789, 11.592126846313477, -6.748684406280518, -0.755520224571228, -0.41258516907691956, 1.9954129457473755, 1.0985305309295654, -0.27507126331329346, 0.2626953125, 0.43017578125, 1.51123046875, 0, 
361, 1901795752, -102.37118530273438, 68.92796325683594, 11.550779342651367, -8.544495582580566, -3.4281280040740967, -0.9256792068481445, -0.20043137669563293, 2.490382671356201, -0.21321287751197815, 0.2587890625, 0.4365234375, 1.51123046875, 0, 
362, 1901804085, -102.40048217773438, 68.92835235595703, 11.521292686462402, -11.356721878051758, -5.69970703125, -1.3870912790298462, 2.5734236240386963, 1.7873485088348389, 0.5639870762825012, 0.2607421875, 0.435546875, 1.52978515625, 0, 
363, 1901812418, -102.3736343383789, 68.93952178955078, 11.533230781555176, -10.530472755432129, -5.220455169677734, -0.9941018223762512, 4.653401851654053, -0.22932425141334534, 1.452365517616272, 0.2626953125, 0.44287109375, 1.53466796875, 0, 
364, 1901820751, -102.31333923339844, 68.94414520263672, 11.581783294677734, -9.030309677124023, -3.070185422897339, -0.06499219685792923, 4.569951057434082, -1.615592360496521, 0.3429362177848816, 0.26318359375, 0.44384765625, 1.546875, 0, 
365, 1901829084, -102.29712677001953, 68.9393081665039, 11.596230506896973, -6.506372451782227, -0.5672017931938171, -0.601119875907898, 3.089601755142212, 0.07654813677072525, -0.45234736800193787, 0.2666015625, 0.43017578125, 1.51806640625, 0, 
366, 1901837417, -102.34314727783203, 68.93275451660156, 11.571611404418945, -7.725765228271484, -2.0906684398651123, -0.789158046245575, -0.1413905918598175, 1.6957265138626099, -0.3041178584098816, 0.25634765625, 0.43701171875, 1.51171875, 0, 
367, 1901845750, -102.4034423828125, 68.92595672607422, 11.51871395111084, -10.379405975341797, -5.141483783721924, -1.13693368434906, 1.447447419166565, 2.9659359455108643, -0.061115559190511703, 0.255859375, 0.435546875, 1.5283203125, 0, 
368, 1901854083, -102.3660888671875, 68.93746948242188, 11.543892860412598, -11.324800491333008, -5.762369632720947, -0.9309605956077576, 4.1879658699035645, -0.900878369808197, 1.342275619506836, 0.26025390625, 0.44091796875, 1.5302734375, 0, 
369, 1901862416, -102.35066223144531, 68.94275665283203, 11.544258117675781, -9.685394287109375, -3.993321180343628, -0.9943816661834717, 4.573383331298828, 0.4105578064918518, 0.8686428070068359, 0.259765625, 0.4462890625, 1.55126953125, 0, 
370, 1901870749, -102.2964096069336, 68.94303131103516, 11.594369888305664, -7.0779709815979, -0.9859497547149658, -0.26096805930137634, 3.648017644882202, -1.5815765857696533, -0.18065719306468964, 0.265625, 0.43359375, 1.53076171875, 0, 
371, 1901879082, -102.32508850097656, 68.93523406982422, 11.578661918640137, -7.113996505737305, -1.0032477378845215, -0.31351175904273987, 1.0828801393508911, 1.4230371713638306, -0.5182527899742126, 0.2626953125, 0.431640625, 1.51025390625, 0, 
372, 1901887415, -102.38655090332031, 68.92708587646484, 11.532083511352539, -9.170934677124023, -4.309845924377441, -1.0903865098953247, 0.4453931450843811, 2.658386468887329, -0.2978423237800598, 0.25634765625, 0.43408203125, 1.5234375, 0, 
373, 1901895748, -102.38345336914062, 68.93314361572266, 11.531201362609863, -11.455648422241211, -5.815709114074707, -1.3869954347610474, 3.2355520725250244, 0.4425755739212036, 0.9700751304626465, 0.2587890625, 0.43603515625, 1.5263671875, 0, 
374, 1901904081, -102.37757873535156, 68.94099426269531, 11.518708229064941, -10.384440422058105, -4.811256408691406, -0.978103756904602, 4.801068305969238, 0.844590961933136, 1.2760627269744873, 0.2568359375, 0.44287109375, 1.54443359375, 0, 
375, 1901912414, -102.30021667480469, 68.94416809082031, 11.586746215820312, -8.355208396911621, -2.1637890338897705, 0.12229577451944351, 4.425973892211914, -2.3850183486938477, -0.005046004895120859, 0.26318359375, 0.4384765625, 1.5400390625, 0, 
376, 1901920747, -102.30448150634766, 68.93692016601562, 11.583078384399414, -6.520965099334717, -0.7976251244544983, -0.6484832763671875, 2.606773614883423, 0.8651591539382935, -0.5759872794151306, 0.2666015625, 0.43359375, 1.5107421875, 0, 
377, 1901929080, -102.35733032226562, 68.92913818359375, 11.5537109375, -8.08914566040039, -2.804072141647339, -0.9599308967590332, -0.2884162664413452, 2.0005102157592773, -0.3911805748939514, 0.2568359375, 0.43359375, 1.5185546875, 0, 
378, 1901937413, -102.40440368652344, 68.9253921508789, 11.508336067199707, -10.986983299255371, -5.347311496734619, -1.2876511812210083, 2.191694974899292, 2.5508835315704346, 0.22544370591640472, 0.25927734375, 0.43798828125, 1.52294921875, 0, 
379, 1901945746, -102.3722915649414, 68.93736267089844, 11.527143478393555, -10.887712478637695, -5.454268455505371, -0.8842064738273621, 4.512754917144775, -0.5398969054222107, 1.4797470569610596, 0.2568359375, 0.4404296875, 1.5361328125, 0, 
380, 1901954079, -102.33131408691406, 68.94123077392578, 11.554617881774902, -9.42091178894043, -3.6251096725463867, -0.4385526776313782, 4.567159175872803, -0.7249341011047363, 0.44493210315704346, 0.26025390625, 0.44287109375, 1.5478515625, 0, 
381, 1901962412, -102.30242156982422, 68.93782806396484, 11.580216407775879, -6.74730110168457, -0.7075218558311462, -0.4845123291015625, 3.3616254329681396, -0.42921775579452515, -0.38767147064208984, 0.2666015625, 0.431640625, 1.521484375, 0, 
382, 1901970745, -102.34562683105469, 68.93069458007812, 11.560735702514648, -7.417529106140137, -1.5288209915161133, -0.4907087981700897, 0.053341642022132874, 1.6577403545379639, -0.38631391525268555, 0.25634765625, 0.43212890625, 1.5107421875, 0, 
383, 1901979078, -102.40969848632812, 68.92191314697266, 11.508123397827148, -9.873164176940918, -4.676541805267334, -1.138668179512024, 0.9632105827331543, 3.0060226917266846, -0.29610058665275574, 0.2587890625, 0.4365234375, 1.52490234375, 0, 
384, 1901987411, -102.3813705444336, 68.93182373046875, 11.53520679473877, -11.353384971618652, -5.931885719299316, -1.1483054161071777, 3.9576170444488525, -0.5422789454460144, 1.2278567552566528, 0.2578125, 0.439453125, 1.52734375, 0, 
385, 1901995744, -102.37023162841797, 68.93701171875, 11.528839111328125, -9.963067054748535, -4.431333065032959, -1.1981394290924072, 4.812057018280029, 0.6967967748641968, 0.9169769287109375, 0.2587890625, 0.44091796875, 1.5419921875, 0, 
386, 1902004077, -102.30567169189453, 68.93810272216797, 11.585826873779297, -7.335056781768799, -1.2309316396713257, -0.20439977943897247, 4.096420764923096, -1.8978354930877686, -0.15043240785598755, 0.263671875, 0.43701171875, 1.5224609375, 0, 
387, 1902012410, -102.32975006103516, 68.93168640136719, 11.570330619812012, -6.863709926605225, -0.7534981369972229, -0.3433442711830139, 1.6119422912597656, 1.3787760734558105, -0.3599056303501129, 0.25341796875, 0.43017578125, 1.49560546875, 0, 
388, 1902020743, -102.39017486572266, 68.92439270019531, 11.529930114746094, -8.872366905212402, -3.9297473430633545, -0.8997937440872192, 0.03733275085687637, 2.4362082481384277, -0.23844292759895325, 0.2509765625, 0.43505859375, 1.51123046875, 0, 
389, 1902029076, -102.4015884399414, 68.92850494384766, 11.514836311340332, -11.5789794921875, -5.927445411682129, -1.2570234537124634, 3.085888147354126, 1.091589093208313, 0.8724337220191956, 0.25048828125, 0.4375, 1.513671875, 0, 
390, 1902037409, -102.38262176513672, 68.9374008178711, 11.517287254333496, -10.498863220214844, -5.057633876800537, -1.0022257566452026, 4.6636738777160645, 0.17557276785373688, 1.2598234415054321, 0.24853515625, 0.4365234375, 1.529296875, 0, 
391, 1902045742, -102.31414794921875, 68.94019317626953, 11.5759859085083, -8.682564735412598, -2.405963182449341, -0.01140969805419445, 4.408786296844482, -1.983284592628479, 0.034592028707265854, 0.25634765625, 0.4345703125, 1.53466796875, 0, 
392, 1902054075, -102.309814453125, 68.93367767333984, 11.584869384765625, -6.414012432098389, -0.6149620413780212, -0.630164384841919, 2.681490182876587, 0.48594042658805847, -0.5693276524543762, 0.2587890625, 0.42822265625, 1.498046875, 0, 
393, 1902062408, -102.35726928710938, 68.92723846435547, 11.561859130859375, -7.797768592834473, -2.54608416557312, -0.9722577333450317, -0.3542448580265045, 1.6961873769760132, -0.2940770387649536, 0.2509765625, 0.4326171875, 1.50537109375, 0, 
394, 1902070741, -102.40845489501953, 68.92349243164062, 11.516947746276855, -10.655704498291016, -5.3600358963012695, -1.2805066108703613, 1.9122177362442017, 2.632669448852539, 0.24355296790599823, 0.2509765625, 0.431640625, 1.51123046875, 0, 
395, 1902079074, -102.37703704833984, 68.93557739257812, 11.535476684570312, -11.2021484375, -5.561092853546143, -0.9530723690986633, 4.4624481201171875, -0.5304452180862427, 1.4980614185333252, 0.25, 0.43798828125, 1.52001953125, 0, 
396, 1902087407, -102.34090423583984, 68.93960571289062, 11.555465698242188, -9.691251754760742, -3.7792789936065674, -0.5855387449264526, 4.763287544250488, -0.43600553274154663, 0.5245923399925232, 0.25244140625, 0.439453125, 1.537109375, 0, 
397, 1902095740, -102.30265808105469, 68.93720245361328, 11.590849876403809, -6.756802558898926, -0.8177695274353027, -0.43284112215042114, 3.393796920776367, -0.8678359389305115, -0.35744667053222656, 0.25927734375, 0.4287109375, 1.505859375, 0, 
398, 1902104073, -102.34243774414062, 68.92976379394531, 11.566654205322266, -7.106954097747803, -1.3290296792984009, -0.36571094393730164, 0.43799063563346863, 1.6541290283203125, -0.4231215715408325, 0.248046875, 0.4306640625, 1.5, 0, 
399, 1902112406, -102.4063720703125, 68.92198944091797, 11.515329360961914, -9.621583938598633, -4.501842021942139, -1.1188663244247437, 0.8364969491958618, 2.925645351409912, -0.18854638934135437, 0.24853515625, 0.4306640625, 1.50634765625, 0, 
400, 1902120739, -102.3858871459961, 68.930908203125, 11.52901840209961, -11.547842979431152, -5.9146575927734375, -1.184136986732483, 3.640794038772583, -0.28080883622169495, 1.1572893857955933, 0.25390625, 0.43505859375, 1.51708984375, 0, 
401, 1902129072, -102.37566375732422, 68.9373550415039, 11.522761344909668, -10.176891326904297, -4.5972394943237305, -1.0853060483932495, 4.68890380859375, 0.6609625816345215, 1.0652577877044678, 0.25, 0.4375, 1.5361328125, 0, 
402, 1902137405, -102.302490234375, 68.9403305053711, 11.588072776794434, -7.620096683502197, -1.5320885181427002, -0.227927103638649, 4.219420433044434, -2.288273572921753, -0.005020390264689922, 0.255859375, 0.4306640625, 1.52099609375, 0, 
403, 1902145738, -102.3193359375, 68.93351745605469, 11.577802658081055, -6.774468898773193, -0.7408957481384277, -0.3589307367801666, 1.8967467546463013, 1.1678426265716553, -0.45319265127182007, 0.25634765625, 0.42724609375, 1.4970703125, 0, 
404, 1902154071, -102.38072204589844, 68.92485046386719, 11.536225318908691, -8.597472190856934, -3.508967876434326, -0.9060818552970886, -0.07615111768245697, 2.473323106765747, -0.39917224645614624, 0.24755859375, 0.43115234375, 1.50634765625, 0, 
405, 1902162404, -102.41075897216797, 68.92584991455078, 11.505982398986816, -11.348201751708984, -5.736969947814941, -1.399245262145996, 2.5462472438812256, 1.8105807304382324, 0.6467210650444031, 0.2548828125, 0.43603515625, 1.5166015625, 0, 
406, 1902170737, -102.38787841796875, 68.93635559082031, 11.512372016906738, -10.481582641601562, -5.280989170074463, -1.1436357498168945, 4.640236854553223, -0.054507095366716385, 1.4041085243225098, 0.2529296875, 0.439453125, 1.5283203125, 0, 
407, 1902179070, -102.32577514648438, 68.9403305053711, 11.56301212310791, -8.94693374633789, -2.8361501693725586, -0.0068918317556381226, 4.545105457305908, -1.6732244491577148, 0.24798424541950226, 0.25634765625, 0.4384765625, 1.53076171875, 0, 
408, 1902187403, -102.3150634765625, 68.93489074707031, 11.572493553161621, -6.559113025665283, -0.5745616555213928, -0.4948720932006836, 2.9760797023773193, 0.27718448638916016, -0.4740426540374756, 0.25732421875, 0.42919921875, 1.5048828125, 0, 
409, 1902195736, -102.36227416992188, 68.92784881591797, 11.549266815185547, -7.733522891998291, -2.1846346855163574, -0.8132954239845276, -0.30101850628852844, 1.7212127447128296, -0.3612631559371948, 0.2509765625, 0.4326171875, 1.50048828125, 0, 
410, 1902204069, -102.41875457763672, 68.92250061035156, 11.499812126159668, -10.470147132873535, -5.27725887298584, -1.1884546279907227, 1.5591000318527222, 2.780412435531616, 0.07634322345256805, 0.25, 0.43310546875, 1.513671875, 0, 
411, 1902212402, -102.3876953125, 68.93375396728516, 11.518878936767578, -11.336902618408203, -5.656325340270996, -0.9406105279922485, 4.358172416687012, -0.5303939580917358, 1.3908915519714355, 0.25, 0.43603515625, 1.52490234375, 0, 
412, 1902220735, -102.36213684082031, 68.93848419189453, 11.530092239379883, -9.765979766845703, -3.911648988723755, -0.8711008429527283, 4.607322692871094, -0.03839574009180069, 0.6992814540863037, 0.2568359375, 0.4365234375, 1.53662109375, 0, 
413, 1902229068, -102.3145523071289, 68.93762969970703, 11.574463844299316, -6.87045431137085, -0.8834225535392761, -0.34920525550842285, 3.506959915161133, -1.285373568534851, -0.2577047646045685, 0.25927734375, 0.42919921875, 1.51708984375, 0, 
414, 1902237401, -102.34696197509766, 68.93120574951172, 11.556892395019531, -7.03775691986084, -1.1927759647369385, -0.39917832612991333, 0.8283771276473999, 1.443682312965393, -0.3435381054878235, 0.25341796875, 0.4287109375, 1.5, 0, 
415, 1902245734, -102.40892028808594, 68.92383575439453, 11.508519172668457, -9.449963569641113, -4.40012264251709, -1.043156623840332, 0.7451052665710449, 2.7904534339904785, -0.16759394109249115, 0.2490234375, 0.4326171875, 1.51513671875, 0, 
416, 1902254067, -102.39344024658203, 68.93130493164062, 11.514060974121094, -11.644936561584473, -5.965215682983398, -1.212697148323059, 3.627346992492676, -0.022284382954239845, 1.037440538406372, 0.25048828125, 0.43310546875, 1.51220703125, 0, 
417, 1902262400, -102.3794937133789, 68.93880462646484, 11.510698318481445, -10.263769149780273, -4.7429914474487305, -1.1420818567276, 4.812978744506836, 0.5101202726364136, 1.160260796546936, 0.2529296875, 0.4384765625, 1.53466796875, 0, 
418, 1902270733, -102.30683135986328, 68.940673828125, 11.575189590454102, -7.91255521774292, -1.7074581384658813, -0.0591607466340065, 4.265628337860107, -2.218320846557617, -0.1257915198802948, 0.2568359375, 0.43408203125, 1.5234375, 0, 
419, 1902279066, -102.31925201416016, 68.93354797363281, 11.56772232055664, -6.526082992553711, -0.6156848669052124, -0.35828620195388794, 2.109421968460083, 1.058264970779419, -0.5172283053398132, 0.25634765625, 0.4287109375, 1.4970703125, 0, 
420, 1902287399, -102.3792495727539, 68.92615509033203, 11.529535293579102, -8.310084342956543, -3.309129238128662, -1.073052167892456, -0.23098915815353394, 2.31748628616333, -0.2762751579284668, 0.24951171875, 0.43359375, 1.50732421875, 0, 
421, 1902295732, -102.40825653076172, 68.9261703491211, 11.500014305114746, -11.275862693786621, -5.700305461883545, -1.3724279403686523, 2.5885233879089355, 1.8049328327178955, 0.5240928530693054, 0.2529296875, 0.43603515625, 1.5126953125, 0, 
422, 1902304065, -102.38137817382812, 68.93777465820312, 11.509684562683105, -10.834711074829102, -5.3861236572265625, -0.9879274368286133, 4.645897388458252, -0.2617262303829193, 1.4969086647033691, 0.2548828125, 0.43505859375, 1.5302734375, 0, 
423, 1902312398, -102.3195571899414, 68.94190979003906, 11.559072494506836, -9.182697296142578, -3.092508316040039, -0.10835342109203339, 4.65258264541626, -1.6249415874481201, 0.27905431389808655, 0.2548828125, 0.43896484375, 1.5341796875, 0, 
424, 1902320731, -102.2992935180664, 68.93795013427734, 11.579798698425293, -6.541286945343018, -0.4936451315879822, -0.5192497372627258, 3.0572509765625, -0.15732263028621674, -0.3904377222061157, 0.25927734375, 0.42431640625, 1.5048828125, 0, 
425, 1902329064, -102.34951782226562, 68.9312744140625, 11.552083015441895, -7.450375080108643, -2.0473172664642334, -0.7533325552940369, -0.16078056395053864, 1.9012807607650757, -0.2799380123615265, 0.25048828125, 0.43115234375, 1.50048828125, 0, 
426, 1902337397, -102.40908813476562, 68.92517852783203, 11.500153541564941, -10.246566772460938, -5.009494781494141, -1.2823189496994019, 1.4332572221755981, 2.8894007205963135, 0.009310774505138397, 0.25146484375, 0.4365234375, 1.51220703125, 0, 
427, 1902345730, -102.37442779541016, 68.93704986572266, 11.52365493774414, -11.34289264678955, -5.83486795425415, -1.0314793586730957, 4.290832996368408, -0.7332330942153931, 1.4228837490081787, 0.25341796875, 0.4345703125, 1.5234375, 0, 
428, 1902354063, -102.3501968383789, 68.94109344482422, 11.530970573425293, -9.812273979187012, -4.063620090484619, -0.9080172777175903, 4.7538228034973145, 0.09413231164216995, 0.6489623188972473, 0.2548828125, 0.43798828125, 1.53466796875, 0, 
429, 1902362396, -102.2967758178711, 68.9408950805664, 11.58001708984375, -6.929111480712891, -0.9776713848114014, -0.3510211408138275, 3.6823151111602783, -1.4998928308486938, -0.22456000745296478, 0.259765625, 0.4306640625, 1.517578125, 0, 
430, 1902370729, -102.32633209228516, 68.93289947509766, 11.564651489257812, -7.015649318695068, -0.9963159561157227, -0.347281277179718, 1.041077733039856, 1.4349478483200073, -0.543124258518219, 0.25341796875, 0.4287109375, 1.5, 0, 
431, 1902379062, -102.38626861572266, 68.9244613647461, 11.520425796508789, -9.344498634338379, -4.322289943695068, -0.8991087675094604, 0.5214930772781372, 2.6437346935272217, -0.3320629298686981, 0.25341796875, 0.43310546875, 1.51416015625, 0, 
432, 1902387395, -102.37979888916016, 68.93109893798828, 11.52213191986084, -11.66452407836914, -6.0263895988464355, -1.2504396438598633, 3.3918116092681885, 0.31810319423675537, 1.0096107721328735, 0.2529296875, 0.43505859375, 1.5185546875, 0, 
433, 1902395728, -102.36174011230469, 68.9393081665039, 11.523962020874023, -10.301680564880371, -4.850216388702393, -1.1120867729187012, 4.726672172546387, 0.2743028402328491, 1.1945199966430664, 0.25341796875, 0.44140625, 1.5341796875, 0, 
434, 1902404061, -102.28950500488281, 68.94225311279297, 11.588417053222656, -8.100512504577637, -1.8490625619888306, -0.009825590997934341, 4.327204704284668, -2.206256628036499, 0.014177479781210423, 0.2607421875, 0.4375, 1.52734375, 0, 
435, 1902412394, -102.29829406738281, 68.93526458740234, 11.583303451538086, -6.511373043060303, -0.6324253082275391, -0.3996075391769409, 2.2781941890716553, 0.9558336734771729, -0.5261164307594299, 0.2568359375, 0.42724609375, 1.498046875, 0, 
436, 1902420727, -102.35432434082031, 68.92813110351562, 11.548027992248535, -8.172138214111328, -3.1343913078308105, -1.1253759860992432, -0.33933737874031067, 2.0886998176574707, -0.2919766306877136, 0.25146484375, 0.43212890625, 1.5078125, 0, 
437, 1902429060, -102.38712310791016, 68.92765045166016, 11.515880584716797, -11.107893943786621, -5.572906970977783, -1.2839268445968628, 2.427781105041504, 1.92914879322052, 0.4914475381374359, 0.25732421875, 0.43701171875, 1.52734375, 0, 
438, 1902437393, -102.35871124267578, 68.93912506103516, 11.527989387512207, -11.022464752197266, -5.4021782875061035, -0.9273239970207214, 4.552981376647949, -0.3596878945827484, 1.455836296081543, 0.26171875, 0.4423828125, 1.54345703125, 0, 
439, 1902445726, -102.30093383789062, 68.94287872314453, 11.571549415588379, -9.374560356140137, -3.3746633529663086, -0.17800627648830414, 4.818230152130127, -1.3694394826889038, 0.28740453720092773, 0.2685546875, 0.4423828125, 1.55419921875, 0, 
440, 1902454059, -102.27904510498047, 68.94076538085938, 11.591716766357422, -6.508789539337158, -0.635018527507782, -0.5917817950248718, 3.1710550785064697, -0.23757204413414001, -0.18058036267757416, 0.267578125, 0.4306640625, 1.51904296875, 0, 
441, 1902462392, -102.32476043701172, 68.93434143066406, 11.567359924316406, -7.323677062988281, -1.8048088550567627, -0.6709536910057068, 0.0035731857642531395, 1.7520265579223633, -0.2811930775642395, 0.26318359375, 0.435546875, 1.51904296875, 0, 
442, 1902470725, -102.38794708251953, 68.92765045166016, 11.512262344360352, -10.10550308227539, -4.830497741699219, -1.2164828777313232, 1.4066698551177979, 3.057661294937134, -0.022361230105161667, 0.25927734375, 0.4365234375, 1.52978515625, 0, 
443, 1902479058, -102.34934997558594, 68.9397201538086, 11.540983200073242, -11.454967498779297, -5.931563854217529, -1.0215033292770386, 4.178232669830322, -0.9595348834991455, 1.398831844329834, 0.26416015625, 0.4365234375, 1.533203125, 0, 
444, 1902487391, -102.32807159423828, 68.94657897949219, 11.54620361328125, -9.94007396697998, -4.285912036895752, -0.9614646434783936, 4.734112739562988, 0.14942064881324768, 1.0034761428833008, 0.26171875, 0.44384765625, 1.548828125, 0, 
445, 1902495724, -102.27278137207031, 68.94729614257812, 11.597064971923828, -7.13334846496582, -1.0219765901565552, -0.3002796173095703, 3.6993486881256104, -1.599250316619873, -0.13503824174404144, 0.26953125, 0.435546875, 1.52783203125, 0, 
446, 1902504057, -102.3014144897461, 68.94010925292969, 11.58130168914795, -6.954113006591797, -0.8084489107131958, -0.26340264081954956, 1.1127976179122925, 1.3963215351104736, -0.45001646876335144, 0.2607421875, 0.43017578125, 1.5107421875, 0, 
447, 1902512390, -102.36279296875, 68.93209838867188, 11.537278175354004, -9.074210166931152, -4.093546390533447, -0.9803548455238342, 0.32895082235336304, 2.6223981380462646, -0.28257623314857483, 0.25537109375, 0.43359375, 1.5185546875, 0, 
448, 1902520723, -102.36414337158203, 68.9376449584961, 11.5335111618042, -11.435102462768555, -5.997165203094482, -1.421576976776123, 3.107250213623047, 0.5914198756217957, 0.9340359568595886, 0.26123046875, 0.4375, 1.529296875, 0, 
449, 1902529056, -102.34811401367188, 68.9473876953125, 11.531332969665527, -10.373759269714355, -4.969271183013916, -1.1835681200027466, 4.933109283447266, 0.4037443995475769, 1.4131501913070679, 0.25927734375, 0.43994140625, 1.54443359375, 0, 
450, 1902537389, -102.2746810913086, 68.95144653320312, 11.594869613647461, -8.306726455688477, -1.9920313358306885, 0.027546808123588562, 4.48949670791626, -2.2254929542541504, 0.14383673667907715, 0.26611328125, 0.4365234375, 1.54296875, 0, 
451, 1902545722, -102.28079986572266, 68.94466400146484, 11.590818405151367, -6.505348205566406, -0.5766079425811768, -0.47231119871139526, 2.4830565452575684, 0.9051685929298401, -0.5079046487808228, 0.26220703125, 0.4306640625, 1.51025390625, 0, 
452, 1902554055, -102.3392105102539, 68.93734741210938, 11.556050300598145, -8.0735502243042, -2.944993257522583, -0.9125247597694397, -0.37074047327041626, 2.1905677318573, -0.2970739006996155, 0.2529296875, 0.4345703125, 1.513671875, 0, 
453, 1902562388, -102.38525390625, 68.93486785888672, 11.510825157165527, -11.082046508789062, -5.541970729827881, -1.2612162828445435, 2.3032703399658203, 2.531057834625244, 0.3761322498321533, 0.2568359375, 0.43408203125, 1.52685546875, 0, 
454, 1902570721, -102.3554916381836, 68.94647216796875, 11.526899337768555, -11.025904655456543, -5.448469161987305, -0.8265122175216675, 4.519567966461182, -0.4377729296684265, 1.4573091268539429, 0.2578125, 0.44189453125, 1.53076171875, 0, 
455, 1902579054, -102.30963897705078, 68.9495620727539, 11.560440063476562, -9.433900833129883, -3.4224987030029297, -0.3059954345226288, 4.510321140289307, -0.92951500415802, 0.3055650293827057, 0.2626953125, 0.439453125, 1.54345703125, 0, 
456, 1902587387, -102.28519439697266, 68.94535064697266, 11.582837104797363, -6.465608596801758, -0.6920817494392395, -0.621039092540741, 3.21179461479187, -0.28468942642211914, -0.4521808922290802, 0.263671875, 0.43115234375, 1.51611328125, 0, 
457, 1902595720, -102.32833862304688, 68.93743896484375, 11.55941104888916, -7.311557769775391, -1.6260132789611816, -0.5646374225616455, 0.20833338797092438, 1.7521034479141235, -0.46072325110435486, 0.2587890625, 0.43505859375, 1.51123046875, 0, 
458, 1902604053, -102.3924331665039, 68.93037414550781, 11.507845878601074, -10.00037670135498, -4.854825496673584, -1.133188247680664, 1.2714265584945679, 3.0588648319244385, -0.07466550171375275, 0.2568359375, 0.43505859375, 1.52685546875, 0, 
459, 1902612386, -102.35990905761719, 68.94121551513672, 11.53129768371582, -11.530542373657227, -5.869597911834717, -1.091793417930603, 4.042938232421875, -0.7054672241210938, 1.306159496307373, 0.25927734375, 0.44091796875, 1.52978515625, 0, 
460, 1902620719, -102.3423843383789, 68.94618225097656, 11.531251907348633, -10.000299453735352, -4.435476303100586, -1.113970398902893, 4.830575942993164, 0.4033345580101013, 0.8256877064704895, 0.25927734375, 0.4443359375, 1.54638671875, 0, 
461, 1902629052, -102.28181457519531, 68.94572448730469, 11.58675765991211, -7.222813606262207, -1.1093391180038452, -0.15261104702949524, 3.814971446990967, -1.7655892372131348, -0.314568430185318, 0.26611328125, 0.43310546875, 1.5283203125, 0, 
462, 1902637385, -102.30884552001953, 68.93789672851562, 11.570837020874023, -6.816009044647217, -0.7536905407905579, -0.3196908235549927, 1.3226295709609985, 1.4195281267166138, -0.5203531980514526, 0.25830078125, 0.43310546875, 1.50244140625, 0, 
463, 1902645718, -102.3730239868164, 68.92927551269531, 11.525687217712402, -8.907279968261719, -4.006722927093506, -1.0565102100372314, 0.11806882917881012, 2.684948444366455, -0.3475339710712433, 0.25634765625, 0.435546875, 1.51904296875, 0, 
464, 1902654051, -102.37995147705078, 68.93394470214844, 11.516140937805176, -11.527897834777832, -5.9631500244140625, -1.2618650197982788, 2.982816219329834, 0.8190023899078369, 0.8782737851142883, 0.25634765625, 0.4345703125, 1.525390625, 0, 
465, 1902662384, -102.36702728271484, 68.94256591796875, 11.513054847717285, -10.521106719970703, -4.9943952560424805, -1.0783929824829102, 4.663007736206055, 0.4718014597892761, 1.2894846200942993, 0.25927734375, 0.44189453125, 1.5380859375, 0, 
466, 1902670717, -102.29590606689453, 68.94538116455078, 11.57397747039795, -8.557676315307617, -2.2933905124664307, -0.03698710352182388, 4.459015846252441, -2.1005210876464844, 0.01481783576309681, 0.26318359375, 0.43896484375, 1.53759765625, 0, 
467, 1902679050, -102.297607421875, 68.9402084350586, 11.573506355285645, -6.488594055175781, -0.6502540707588196, -0.5975015759468079, 2.6146883964538574, 0.712754487991333, -0.3513760566711426, 0.2626953125, 0.43017578125, 1.513671875, 0, 
468, 1902687383, -102.35545349121094, 68.93228912353516, 11.541651725769043, -7.945079326629639, -2.6894218921661377, -0.9480448961257935, -0.3774513304233551, 2.178118944168091, -0.3695877492427826, 0.259765625, 0.4345703125, 1.51904296875, 0, 
469, 1902695716, -102.40693664550781, 68.92855072021484, 11.494321823120117, -10.755960464477539, -5.320407867431641, -1.3315520286560059, 1.885143518447876, 2.651777744293213, 0.2485477328300476, 0.25732421875, 0.4365234375, 1.525390625, 0, 
470, 1902704049, -102.37308502197266, 68.9403076171875, 11.527202606201172, -10.979470252990723, -5.602750301361084, -0.9679906964302063, 4.60528564453125, -0.5944423675537109, 1.439340591430664, 0.263671875, 0.43896484375, 1.5390625, 0, 
471, 1902712382, -102.3341064453125, 68.94473266601562, 11.551197052001953, -9.53451919555664, -3.6748430728912354, -0.426992803812027, 4.7534003257751465, -0.5624886155128479, 0.5452374815940857, 0.26416015625, 0.44287109375, 1.544921875, 0, 
472, 1902720715, -102.30012512207031, 68.94338989257812, 11.582171440124512, -6.768459320068359, -0.7556524276733398, -0.5393819212913513, 3.3877005577087402, -0.7226800918579102, -0.19008326530456543, 0.26513671875, 0.43359375, 1.52001953125, 0, 
473, 1902729048, -102.33965301513672, 68.93645477294922, 11.56254768371582, -7.322780132293701, -1.3263015747070312, -0.3857814371585846, 0.21822045743465424, 1.566067099571228, -0.3824717700481415, 0.2578125, 0.43359375, 1.509765625, 0, 
474, 1902737381, -102.40510559082031, 68.92888641357422, 11.50979232788086, -9.77451229095459, -4.766790866851807, -1.145786166191101, 0.8782225251197815, 2.985121488571167, -0.14920292794704437, 0.2578125, 0.435546875, 1.51953125, 0, 
475, 1902745714, -102.38238525390625, 68.93868255615234, 11.526100158691406, -11.534273147583008, -5.934624195098877, -1.1260844469070435, 3.667740821838379, -0.37760505080223083, 1.2493982315063477, 0.25830078125, 0.43603515625, 1.529296875, 0, 
476, 1902754047, -102.37018585205078, 68.94542694091797, 11.523283004760742, -10.124948501586914, -4.510183334350586, -1.1984915733337402, 4.749788761138916, 0.5674193501472473, 1.0796016454696655, 0.26025390625, 0.4404296875, 1.54541015625, 0, 
477, 1902762380, -102.29615020751953, 68.94685363769531, 11.589983940124512, -7.448008060455322, -1.2669684886932373, -0.21307462453842163, 4.176619052886963, -2.285071849822998, -0.198612779378891, 0.26708984375, 0.4345703125, 1.53173828125, 0, 
478, 1902770713, -102.31800079345703, 68.94000244140625, 11.576848030090332, -6.721883296966553, -0.7297656536102295, -0.3664369285106659, 1.617730975151062, 1.2763187885284424, -0.4365946054458618, 0.259765625, 0.4306640625, 1.509765625, 0, 
479, 1902779046, -102.38163757324219, 68.93231201171875, 11.534479141235352, -8.707956314086914, -3.7487668991088867, -1.0151439905166626, -0.12837855517864227, 2.5447871685028076, -0.2603943347930908, 0.25927734375, 0.43701171875, 1.51806640625, 0, 
480, 1902787379, -102.39677429199219, 68.93599700927734, 11.51984691619873, -11.566802978515625, -5.905970573425293, -1.3285880088806152, 2.9541280269622803, 1.20183265209198, 0.8447445034980774, 0.2578125, 0.4375, 1.52734375, 0, 
481, 1902795712, -102.37357330322266, 68.94625091552734, 11.525525093078613, -10.590916633605957, -5.208612442016602, -1.080243468284607, 4.914897441864014, 0.0582851879298687, 1.3997795581817627, 0.25634765625, 0.43994140625, 1.53125, 0, 
482, 1902804045, -102.30855560302734, 68.95057678222656, 11.573888778686523, -8.81715202331543, -2.5221433639526367, 0.12281839549541473, 4.504814147949219, -1.8467864990234375, 0.25402918457984924, 0.25732421875, 0.4375, 1.53515625, 0, 
483, 1902812378, -102.29837036132812, 68.94593811035156, 11.58520793914795, -6.435002326965332, -0.5225480794906616, -0.49976322054862976, 2.7197577953338623, 0.20418387651443481, -0.3987112045288086, 0.2568359375, 0.4287109375, 1.49951171875, 0, 
484, 1902820711, -102.34965515136719, 68.93900299072266, 11.55620002746582, -7.694393157958984, -2.470924139022827, -0.9430193305015564, -0.23900644481182098, 1.9103481769561768, -0.3092150390148163, 0.24951171875, 0.43212890625, 1.5029296875, 0, 
485, 1902829044, -102.3980712890625, 68.93415832519531, 11.512971878051758, -10.662955284118652, -5.359989643096924, -1.3131037950515747, 1.7967747449874878, 2.5084149837493896, 0.08149169385433197, 0.25341796875, 0.43212890625, 1.51318359375, 0, 
486, 1902837377, -102.36333465576172, 68.9461898803711, 11.533784866333008, -11.290770530700684, -5.604249954223633, -0.9553097486495972, 4.573741912841797, -0.6551865339279175, 1.462918758392334, 0.2490234375, 0.4365234375, 1.52392578125, 0, 
487, 1902845710, -102.324951171875, 68.95062255859375, 11.556525230407715, -9.733394622802734, -3.821000576019287, -0.6760239601135254, 4.824480056762695, -0.5087755918502808, 0.5577628016471863, 0.25439453125, 0.43603515625, 1.5400390625, 0, 
488, 1902854043, -102.28553009033203, 68.94744110107422, 11.593961715698242, -6.742645263671875, -0.7272921204566956, -0.42825818061828613, 3.478118896484375, -0.8880199790000916, -0.4524242579936981, 0.2578125, 0.43017578125, 1.5087890625, 0, 
489, 1902862376, -102.31854248046875, 68.9408187866211, 11.5775785446167, -7.040729999542236, -1.3067741394042969, -0.39390718936920166, 0.6384475827217102, 1.4212186336517334, -0.3726359009742737, 0.251953125, 0.43017578125, 1.49951171875, 0, 
490, 1902870709, -102.38307189941406, 68.93228149414062, 11.527190208435059, -9.566109657287598, -4.412994384765625, -1.0657862424850464, 0.857193112373352, 2.9586360454559326, -0.27735093235969543, 0.24951171875, 0.4345703125, 1.5126953125, 0, 
