sep=,
PacketCounter,SampleTimeFine,Euler_X,Euler_Y,Euler_Z,Acc_X,Acc_Y,Acc_Z,Gyr_X,Gyr_Y,Gyr_Z,Mag_X,Mag_Y,Mag_Z,Status,
0, 1898795872, -90.30789947509766, 71.83643341064453, -26.186817169189453, 0, 0, 0, 0, 0, 0, -0.01416015625, 0, 0.6337890625, 0, 
1, 1898804205, -90.35711669921875, 71.83525848388672, -26.22808837890625, -10.281197547912598, -4.4711594581604, -0.41982486844062805, 1.832608699798584, -0.03752484917640686, 0.9445376992225647, -0.01611328125, 0.00341796875, 0.63818359375, 0, 
2, 1898812538, -90.34587860107422, 71.843994140625, -26.223522186279297, -11.795431137084961, -5.646827220916748, -0.8352296948432922, 3.9824631214141846, -1.6541162729263306, 2.1306049823760986, -0.0185546875, 0.001953125, 0.64111328125, 0, 
3, 1898820871, -90.3176040649414, 71.84935760498047, -26.214481353759766, -10.039687156677246, -3.489933967590332, -0.30173391103744507, 5.539322376251221, -1.8814167976379395, 1.7224421501159668, -0.01708984375, 0.0078125, 0.654296875, 0, 
4, 1898829204, -90.26409149169922, 71.84321594238281, -26.166915893554688, -7.5536932945251465, -0.7669935822486877, 0.8353294134140015, 3.591794490814209, -3.5020296573638916, 0.3307182490825653, -0.01953125, 0.00244140625, 0.650390625, 0, 
5, 1898837537, -90.28650665283203, 71.83773803710938, -26.181888580322266, -6.899672031402588, -0.7363614439964294, 0.07463981956243515, 2.1729705333709717, -0.9165027737617493, 0.4325859844684601, -0.01220703125, -0.00244140625, 0.62939453125, 0, 
6, 1898845870, -90.3504867553711, 71.83503723144531, -26.22399139404297, -9.098359107971191, -3.5541975498199463, 0.46062877774238586, 0.2799507677555084, 0.09949849545955658, 0.7690289616584778, -0.01806640625, -0.0009765625, 0.6337890625, 0, 
7, 1898854203, -90.3505859375, 71.84037017822266, -26.242534637451172, -11.3983736038208, -5.603874683380127, -1.822409987449646, 2.9832770824432373, -1.5949727296829224, 1.7067917585372925, -0.017578125, 0.0009765625, 0.63916015625, 0, 
8, 1898862536, -90.3168716430664, 71.84892272949219, -26.228239059448242, -11.041930198669434, -4.396698474884033, 0.436612606048584, 5.572185039520264, -2.0207583904266357, 2.108858585357666, -0.017578125, 0.00830078125, 0.64892578125, 0, 
9, 1898870869, -90.27935028076172, 71.8453140258789, -26.200925827026367, -8.62535285949707, -1.8792905807495117, -0.678593635559082, 4.5364227294921875, -2.5619359016418457, 0.6316598653793335, -0.02294921875, 0.00927734375, 0.65625, 0, 
10, 1898879202, -90.270751953125, 71.84008026123047, -26.21338653564453, -6.631827354431152, -0.564395010471344, 1.1411253213882446, 3.508112668991089, -1.7638729810714722, 0.45192474126815796, -0.01416015625, 0, 0.63623046875, 0, 
11, 1898887535, -90.31814575195312, 71.83747863769531, -26.230743408203125, -7.992100238800049, -2.1704657077789307, 0.4020327031612396, -0.5547274351119995, -0.8272373080253601, 0.7732040286064148, -0.01953125, -0.00048828125, 0.62841796875, 0, 
12, 1898895868, -90.34700012207031, 71.8393325805664, -26.256301879882812, -10.872598648071289, -5.083930969238281, -1.561034917831421, 2.6100780963897705, -0.5238879919052124, 1.318864345550537, -0.01513671875, 0, 0.6357421875, 0, 
13, 1898904201, -90.33033752441406, 71.84861755371094, -26.2476806640625, -11.517749786376953, -5.0910234451293945, 0.42400217056274414, 4.361886501312256, -1.8062132596969604, 2.1831395626068115, -0.0205078125, 0.0029296875, 0.6435546875, 0, 
14, 1898912534, -90.30130767822266, 71.8508529663086, -26.234716415405273, -9.471954345703125, -2.9642958641052246, -1.1824791431427002, 5.158002853393555, -1.965380072593689, 1.348474144935608, -0.02099609375, 0.00927734375, 0.6533203125, 0, 
15, 1898920867, -90.25638580322266, 71.84423065185547, -26.191457748413086, -7.093825817108154, -0.576766848564148, 1.6708403825759888, 3.430809497833252, -3.2172508239746094, 0.27613428235054016, -0.0166015625, -0.001953125, 0.6455078125, 0, 
16, 1898929200, -90.29399871826172, 71.83880615234375, -26.218177795410156, -7.29534912109375, -1.1964417695999146, -0.272609144449234, 0.5440847873687744, -0.9145306348800659, 0.4275656044483185, -0.017578125, -0.001953125, 0.62841796875, 0, 
17, 1898937533, -90.34707641601562, 71.83784484863281, -26.25849151611328, -9.90328311920166, -4.04809045791626, -0.06091294810175896, 1.3825410604476929, 0.02975093387067318, 0.9761200547218323, -0.01611328125, 0.00244140625, 0.63525390625, 0, 
18, 1898945866, -90.34374237060547, 71.84505462646484, -26.25812530517578, -11.566155433654785, -5.665485382080078, -1.1996959447860718, 3.513209819793701, -1.4969985485076904, 1.94882071018219, -0.0185546875, 0.001953125, 0.6396484375, 0, 
19, 1898954199, -90.31037902832031, 71.850830078125, -26.247262954711914, -10.250682830810547, -3.857131004333496, -0.2234005630016327, 5.770412921905518, -2.002495050430298, 1.7641162872314453, -0.02099609375, 0.009765625, 0.6533203125, 0, 
20, 1898962532, -90.25533294677734, 71.84490203857422, -26.194766998291016, -7.833183288574219, -1.0768359899520874, 0.5198323726654053, 3.774423599243164, -3.4403247833251953, 0.3628128170967102, -0.01953125, 0.00048828125, 0.65478515625, 0, 
21, 1898970865, -90.2706298828125, 71.8398208618164, -26.21140480041504, -6.825469493865967, -0.6285028457641602, 0.30116814374923706, 2.777825355529785, -1.0626322031021118, 0.4735431969165802, -0.01708984375, -0.0029296875, 0.6318359375, 0, 
22, 1898979198, -90.3337631225586, 71.83746337890625, -26.252540588378906, -8.863393783569336, -3.108231782913208, 0.6028992533683777, -0.35537189245224, -0.2068861722946167, 0.7979217767715454, -0.01806640625, -0.0009765625, 0.63134765625, 0, 
23, 1898987531, -90.34319305419922, 71.84098052978516, -26.26174545288086, -11.351205825805664, -5.58428430557251, -1.883072018623352, 3.072235584259033, -1.137758731842041, 1.5076667070388794, -0.015625, 0.001953125, 0.640625, 0, 
24, 1898995864, -90.31155395507812, 71.84956359863281, -26.243913650512695, -11.176715850830078, -4.538242816925049, 0.7790469527244568, 4.9178948402404785, -2.152312994003296, 2.108576536178589, -0.01953125, 0.0068359375, 0.64599609375, 0, 
25, 1899004197, -90.27804565429688, 71.8481674194336, -26.219120025634766, -8.814072608947754, -2.1304852962493896, -1.2342441082000732, 4.540647983551025, -2.4066364765167236, 0.9007372856140137, -0.021484375, 0.005859375, 0.65673828125, 0, 
26, 1899012530, -90.2587661743164, 71.84113311767578, -26.202316284179688, -6.734647750854492, -0.43664053082466125, 1.5000646114349365, 3.554474353790283, -2.102877616882324, 0.2385837882757187, -0.01806640625, 0.0009765625, 0.63330078125, 0, 
27, 1899020863, -90.3041000366211, 71.83761596679688, -26.226045608520508, -7.733489513397217, -2.0157999992370605, 0.061857786029577255, -0.4401549994945526, -0.9374297261238098, 0.6586573123931885, -0.01806640625, -0.001953125, 0.63037109375, 0, 
28, 1899029196, -90.3412094116211, 71.83828735351562, -26.265254974365234, -10.6304292678833, -4.881209373474121, -1.222512125968933, 2.452934503555298, -0.3100859522819519, 1.1613110303878784, -0.01806640625, -0.0009765625, 0.63525390625, 0, 
29, 1899037529, -90.32579040527344, 71.84781646728516, -26.25860023498535, -11.655744552612305, -5.242032051086426, -0.02021990530192852, 4.245265007019043, -1.7343909740447998, 2.226529836654663, -0.017578125, 0.005859375, 0.642578125, 0, 
30, 1899045862, -90.29940795898438, 71.8506088256836, -26.25150489807129, -9.686415672302246, -3.150686264038086, -0.9811451435089111, 5.513655662536621, -1.7476335763931274, 1.419886589050293, -0.02001953125, 0.00830078125, 0.6533203125, 0, 
31, 1899054195, -90.24858093261719, 71.84419250488281, -26.201778411865234, -7.30826473236084, -0.6807416677474976, 1.617767572402954, 3.46777081489563, -3.433152914047241, 0.2920663356781006, -0.01904296875, 0.00244140625, 0.64501953125, 0, 
32, 1899062528, -90.27815246582031, 71.83839416503906, -26.216020584106445, -7.079276084899902, -1.0225346088409424, -0.3870188593864441, 1.2309048175811768, -0.943141758441925, 0.389579713344574, -0.0146484375, -0.00390625, 0.6279296875, 0, 
33, 1899070861, -90.33836364746094, 71.83717346191406, -26.260967254638672, -9.49897575378418, -3.8758609294891357, 0.37239131331443787, 0.8919772505760193, 0.08530820906162262, 0.9427191615104675, -0.0185546875, -0.0009765625, 0.63134765625, 0, 
34, 1899079194, -90.33885192871094, 71.84307098388672, -26.261051177978516, -11.552334785461426, -5.610134124755859, -1.4891140460968018, 3.0554580688476562, -1.55783212184906, 1.784710168838501, -0.0185546875, 0.0009765625, 0.63623046875, 0, 
35, 1899087527, -90.30339050292969, 71.85128021240234, -26.24539566040039, -10.647252082824707, -4.022161960601807, 0.169036865234375, 5.62392520904541, -2.070321559906006, 2.0601911544799805, -0.021484375, 0.00537109375, 0.650390625, 0, 
36, 1899095860, -90.25467681884766, 71.84693908691406, -26.20247459411621, -8.27116584777832, -1.5565539598464966, -0.07604507356882095, 4.106153964996338, -3.0814435482025146, 0.5525118112564087, -0.01953125, 0.00439453125, 0.65380859375, 0, 
37, 1899104193, -90.26177978515625, 71.84115600585938, -26.22628402709961, -6.756870746612549, -0.6924095749855042, 0.5567433834075928, 3.2963600158691406, -1.2156261205673218, 0.3899382948875427, -0.0166015625, -0.001953125, 0.6318359375, 0, 
38, 1899112526, -90.3180160522461, 71.83776092529297, -26.250999450683594, -8.487570762634277, -2.5144460201263428, 0.6478189826011658, -0.775394082069397, -0.5513719916343689, 0.6792766451835632, -0.015625, 0.00048828125, 0.626953125, 0, 
39, 1899120859, -90.3369140625, 71.8396224975586, -26.277219772338867, -11.018033027648926, -5.1489338874816895, -1.9819103479385376, 2.6530840396881104, -0.9644783139228821, 1.3026248216629028, -0.0185546875, 0.00244140625, 0.64013671875, 0, 
40, 1899129192, -90.31510925292969, 71.84850311279297, -26.266895294189453, -11.203593254089355, -4.951879501342773, 0.6677513718605042, 4.613546371459961, -1.9311853647232056, 2.13974928855896, -0.01708984375, 0.00634765625, 0.6435546875, 0, 
41, 1899137525, -90.2875747680664, 71.84893798828125, -26.254682540893555, -9.108367919921875, -2.7050821781158447, -1.4806474447250366, 5.062896728515625, -1.937230110168457, 1.1318033933639526, -0.02099609375, 0.0087890625, 0.6533203125, 0, 
42, 1899145858, -90.25645446777344, 71.84223175048828, -26.22589683532715, -7.026355266571045, -0.39244434237480164, 1.9427096843719482, 3.607752561569214, -2.5524075031280518, 0.2769795358181, -0.02001953125, -0.00341796875, 0.6376953125, 0, 
43, 1899154191, -90.29529571533203, 71.83806610107422, -26.240882873535156, -7.573523044586182, -1.5587403774261475, -0.28308090567588806, 0.043275248259305954, -1.033585548400879, 0.5764867663383484, -0.01953125, -0.00244140625, 0.6240234375, 0, 
44, 1899162524, -90.34098052978516, 71.83622741699219, -26.27785873413086, -10.272598266601562, -4.539266586303711, -0.42546334862709045, 1.885732650756836, -0.09415792673826218, 0.8709992170333862, -0.01708984375, 0.00146484375, 0.638671875, 0, 
45, 1899170857, -90.3350601196289, 71.84391784667969, -26.278644561767578, -11.595720291137695, -5.525736331939697, -0.633022129535675, 3.6592116355895996, -1.6197419166564941, 2.0004079341888428, -0.01708984375, 0.00634765625, 0.6396484375, 0, 
46, 1899179190, -90.30782318115234, 71.84892272949219, -26.276586532592773, -9.99687385559082, -3.4534502029418945, -0.5473230481147766, 5.694646835327148, -1.7858245372772217, 1.6728019714355469, -0.02001953125, 0.01025390625, 0.65771484375, 0, 
47, 1899187523, -90.25289916992188, 71.84268951416016, -26.221736907958984, -7.578680992126465, -0.7886018753051758, 1.0206903219223022, 3.4917712211608887, -3.5277464389801025, 0.3264150023460388, -0.0205078125, 0.00634765625, 0.64794921875, 0, 
48, 1899195856, -90.27681732177734, 71.83686065673828, -26.237506866455078, -6.914639949798584, -0.8369731307029724, -0.16742409765720367, 2.084857940673828, -0.8854328393936157, 0.3884526491165161, -0.01513671875, -0.00146484375, 0.62890625, 0, 
49, 1899204189, -90.34197235107422, 71.83527374267578, -26.28099822998047, -9.14126205444336, -3.5444769859313965, 0.6186565160751343, 0.3067176938056946, 0.08907350152730942, 0.8912344574928284, -0.01611328125, 0.0009765625, 0.63427734375, 0, 
50, 1899212522, -90.34140014648438, 71.84090423583984, -26.279417037963867, -11.413558959960938, -5.584858417510986, -1.875673532485962, 3.0409090518951416, -1.5411827564239502, 1.7542548179626465, -0.01611328125, 0.00537109375, 0.63818359375, 0, 
51, 1899220855, -90.30741882324219, 71.84968566894531, -26.256576538085938, -10.956067085266113, -4.355000019073486, 0.589633047580719, 5.503000736236572, -2.118835210800171, 2.131091594696045, -0.01513671875, 0.0087890625, 0.6533203125, 0, 
52, 1899229188, -90.2698745727539, 71.84611511230469, -26.223207473754883, -8.611629486083984, -1.7685496807098389, -0.5837157964706421, 4.282046794891357, -2.6509196758270264, 0.643263041973114, -0.01611328125, 0.01220703125, 0.66455078125, 0, 
53, 1899237521, -90.26677703857422, 71.83985900878906, -26.22286605834961, -6.675173759460449, -0.5230483412742615, 1.0425446033477783, 3.4881591796875, -1.4880845546722412, 0.3328953981399536, -0.0107421875, 0.00341796875, 0.64892578125, 0, 
54, 1899245854, -90.31742858886719, 71.836181640625, -26.241960525512695, -8.061604499816895, -2.2938666343688965, 0.42907044291496277, -0.74775630235672, -0.7618697285652161, 0.6475406289100647, -0.0126953125, 0.00244140625, 0.64404296875, 0, 
55, 1899254187, -90.34636688232422, 71.83797454833984, -26.26971435546875, -10.794208526611328, -5.114136695861816, -1.6658852100372314, 2.5676605701446533, -0.5979130864143372, 1.301292896270752, -0.015625, 0.00634765625, 0.64794921875, 0, 
56, 1899262520, -90.33415222167969, 71.84707641601562, -26.27018928527832, -11.537805557250977, -5.031769752502441, 0.5227162837982178, 4.477303981781006, -1.596227765083313, 2.1637752056121826, -0.013671875, 0.009765625, 0.65576171875, 0, 
57, 1899270853, -90.30815124511719, 71.8486557006836, -26.260940551757812, -9.526290893554688, -2.955164909362793, -1.3742578029632568, 5.219860553741455, -1.8263462781906128, 1.2693006992340088, -0.0185546875, 0.0126953125, 0.66748046875, 0, 
58, 1899279186, -90.26466369628906, 71.84262084960938, -26.21808433532715, -7.122348308563232, -0.5727359652519226, 1.83224356174469, 3.486494541168213, -3.078728675842285, 0.3555128276348114, -0.01611328125, 0.00244140625, 0.65625, 0, 
59, 1899287519, -90.30464935302734, 71.83848571777344, -26.240934371948242, -7.244320869445801, -1.2683922052383423, -0.30956074595451355, 0.4520784318447113, -0.8554385900497437, 0.5877570509910583, -0.01171875, 0.00146484375, 0.64013671875, 0, 
60, 1899295852, -90.36199951171875, 71.83740997314453, -26.287260055541992, -9.896028518676758, -4.028532981872559, -0.08739576488733292, 1.5547456741333008, 0.2562063932418823, 0.9618017673492432, -0.01513671875, 0.0078125, 0.64697265625, 0, 
61, 1899304185, -90.35913848876953, 71.84467315673828, -26.2958984375, -11.581316947937012, -5.601804256439209, -1.1011631488800049, 3.3061697483062744, -1.6122111082077026, 1.9441075325012207, -0.01513671875, 0.0068359375, 0.65185546875, 0, 
62, 1899312518, -90.32796478271484, 71.85113525390625, -26.295454025268555, -10.260610580444336, -3.8105647563934326, -0.3294331133365631, 5.7884202003479, -1.909822940826416, 1.8498728275299072, -0.01953125, 0.01220703125, 0.66357421875, 0, 
63, 1899320851, -90.27033233642578, 71.84549713134766, -26.2392578125, -7.799594879150391, -1.1422679424285889, 0.6165798306465149, 3.6621053218841553, -3.5776424407958984, 0.39162886142730713, -0.01416015625, 0.00927734375, 0.66162109375, 0, 
64, 1899329184, -90.28715515136719, 71.84001922607422, -26.253082275390625, -6.857547283172607, -0.6378023624420166, 0.23950079083442688, 2.7109720706939697, -0.9590480923652649, 0.4286413788795471, -0.013671875, 0.001953125, 0.63818359375, 0, 
65, 1899337517, -90.35635375976562, 71.83697509765625, -26.29439353942871, -8.907299041748047, -3.1475727558135986, 0.5317566394805908, -0.25045597553253174, 0.0643557608127594, 0.7205923795700073, -0.01220703125, 0.00537109375, 0.642578125, 0, 
66, 1899345850, -90.36573791503906, 71.84201049804688, -26.3027400970459, -11.389386177062988, -5.568994522094727, -1.9256339073181152, 2.979383945465088, -1.1693154573440552, 1.689630389213562, -0.01416015625, 0.0048828125, 0.65185546875, 0, 
67, 1899354183, -90.33439636230469, 71.85111236572266, -26.287967681884766, -11.072992324829102, -4.641258716583252, 0.6866083741188049, 4.87791109085083, -2.219806671142578, 2.1643130779266357, -0.015625, 0.01025390625, 0.65625, 0, 
68, 1899362516, -90.30186462402344, 71.84900665283203, -26.271944046020508, -8.821344375610352, -2.048321008682251, -1.133133053779602, 4.507144451141357, -2.3760018348693848, 0.8158774375915527, -0.01708984375, 0.00927734375, 0.66845703125, 0, 
69, 1899370849, -90.28889465332031, 71.8418197631836, -26.26175308227539, -6.760827541351318, -0.3249029517173767, 1.479633092880249, 3.548224687576294, -1.8559561967849731, 0.2219601422548294, -0.01611328125, 0.001953125, 0.6474609375, 0, 
70, 1899379182, -90.3377456665039, 71.83822631835938, -26.280723571777344, -7.7987518310546875, -2.0365002155303955, 0.13108299672603607, -0.5445330739021301, -0.7661986351013184, 0.6503838300704956, -0.013671875, 0.00244140625, 0.640625, 0, 
71, 1899387515, -90.373291015625, 71.83908081054688, -26.313695907592773, -10.605941772460938, -5.028476715087891, -1.225034236907959, 2.4469664096832275, -0.37471067905426025, 1.1895891427993774, -0.01416015625, 0.00439453125, 0.64892578125, 0, 
72, 1899395848, -90.35746765136719, 71.84710693359375, -26.30657958984375, -11.616121292114258, -5.202607154846191, 0.11629580706357956, 4.2463154792785645, -1.7524490356445312, 2.047128200531006, -0.0166015625, 0.01025390625, 0.65283203125, 0, 
73, 1899404181, -90.33167266845703, 71.84954071044922, -26.300518035888672, -9.746402740478516, -3.030592679977417, -1.0234533548355103, 5.6509480476379395, -1.7426902055740356, 1.3606921434402466, -0.017578125, 0.0126953125, 0.66748046875, 0, 
74, 1899412514, -90.28304290771484, 71.84225463867188, -26.255924224853516, -7.23614501953125, -0.6973801851272583, 1.6237555742263794, 3.3528647422790527, -3.3902487754821777, 0.1969350427389145, -0.01513671875, 0.00537109375, 0.65576171875, 0, 
75, 1899420847, -90.31442260742188, 71.83712005615234, -26.27108383178711, -7.031137466430664, -1.1925722360610962, -0.45763880014419556, 1.117433786392212, -0.9091004133224487, 0.4715452194213867, -0.0146484375, 0.00244140625, 0.63818359375, 0, 
76, 1899429180, -90.37869262695312, 71.83673095703125, -26.321393966674805, -9.608850479125977, -3.851712942123413, 0.24971289932727814, 1.1793947219848633, 0.40502509474754333, 1.0475069284439087, -0.01513671875, 0.005859375, 0.64453125, 0, 
77, 1899437513, -90.37138366699219, 71.84422302246094, -26.31966209411621, -11.621344566345215, -5.622464179992676, -1.3889168500900269, 3.2524828910827637, -1.8048046827316284, 1.9676473140716553, -0.013671875, 0.0078125, 0.64697265625, 0, 
78, 1899445846, -90.334716796875, 71.85092163085938, -26.302467346191406, -10.56755256652832, -3.985854148864746, 0.02720935083925724, 5.595493793487549, -2.1279284954071045, 1.8868342638015747, -0.01708984375, 0.01220703125, 0.66162109375, 0, 
79, 1899454179, -90.2861328125, 71.84622192382812, -26.261301040649414, -8.147974967956543, -1.4290109872817993, 0.19922423362731934, 4.035254001617432, -3.1649205684661865, 0.5014627575874329, -0.017578125, 0.01171875, 0.662109375, 0, 
80, 1899462512, -90.29655456542969, 71.84034729003906, -26.27143669128418, -6.726879119873047, -0.6312453746795654, 0.48898276686668396, 3.012502908706665, -1.1739003658294678, 0.37259745597839355, -0.01416015625, 0.0009765625, 0.64404296875, 0, 
81, 1899470845, -90.35476684570312, 71.83734130859375, -26.3011417388916, -8.561917304992676, -2.673818588256836, 0.5597814917564392, -0.443715363740921, -0.36423441767692566, 0.7273034453392029, -0.01123046875, 0.0048828125, 0.63623046875, 0, 
82, 1899479178, -90.3695297241211, 71.83979034423828, -26.312807083129883, -11.089605331420898, -5.314803123474121, -1.9293291568756104, 2.717810869216919, -1.044983983039856, 1.3838474750518799, -0.01513671875, 0.0068359375, 0.64892578125, 0, 
83, 1899487511, -90.34261322021484, 71.84873962402344, -26.30795669555664, -11.237982749938965, -4.8924946784973145, 0.5678390264511108, 4.901450157165527, -2.033846855163574, 2.145435333251953, -0.017578125, 0.01171875, 0.65673828125, 0, 
84, 1899495844, -90.31269836425781, 71.84813690185547, -26.293073654174805, -9.050457954406738, -2.5764341354370117, -1.364664077758789, 5.050064563751221, -2.0373308658599854, 1.0083941221237183, -0.0185546875, 0.01171875, 0.66650390625, 0, 
85, 1899504177, -90.2864990234375, 71.84223175048828, -26.272417068481445, -6.922950744628906, -0.3842299282550812, 1.8152356147766113, 3.5766568183898926, -2.431405544281006, 0.35909876227378845, -0.015625, 0.00244140625, 0.6484375, 0, 
86, 1899512510, -90.32987976074219, 71.83919525146484, -26.278783798217773, -7.59810733795166, -1.6506401300430298, -0.1493513584136963, -0.18006806075572968, -0.9295148849487305, 0.7175955176353455, -0.0126953125, 0.0009765625, 0.63623046875, 0, 
87, 1899520843, -90.3718490600586, 71.83826446533203, -26.313152313232422, -10.433503150939941, -4.663695812225342, -0.684839129447937, 2.0346028804779053, -0.19179940223693848, 0.9756079316139221, -0.0146484375, 0.00634765625, 0.6435546875, 0, 
88, 1899529176, -90.36112213134766, 71.84636688232422, -26.3076114654541, -11.644469261169434, -5.468226432800293, -0.41471216082572937, 3.809183359146118, -1.6947404146194458, 2.054274559020996, -0.01611328125, 0.0078125, 0.6484375, 0, 
89, 1899537509, -90.33653259277344, 71.85066986083984, -26.29652976989746, -9.907135963439941, -3.2968027591705322, -0.6866657137870789, 5.509224891662598, -1.7440732717514038, 1.5958564281463623, -0.015625, 0.01220703125, 0.662109375, 0, 
90, 1899545842, -90.2802963256836, 71.84391784667969, -26.240795135498047, -7.434434413909912, -0.7979037165641785, 1.1532171964645386, 3.5493264198303223, -3.5588934421539307, 0.259408175945282, -0.01513671875, 0.00341796875, 0.658203125, 0, 
91, 1899554175, -90.30767822265625, 71.8379898071289, -26.2602481842041, -6.995176315307617, -0.9336524605751038, -0.2549595832824707, 2.026867151260376, -0.8321296572685242, 0.3707532286643982, -0.01123046875, 0.00146484375, 0.63623046875, 0, 
92, 1899562508, -90.37518310546875, 71.83528137207031, -26.330724716186523, -9.29896068572998, -3.5661354064941406, 0.5695233941078186, 0.5210063457489014, 0.2552586793899536, 0.756068229675293, -0.0126953125, 0.00244140625, 0.64208984375, 0, 
93, 1899570841, -90.37183380126953, 71.84129333496094, -26.328882217407227, -11.44368839263916, -5.596811771392822, -1.8769582509994507, 3.3485097885131836, -1.553247094154358, 1.8059697151184082, -0.0146484375, 0.00537109375, 0.6474609375, 0, 
94, 1899579174, -90.3354263305664, 71.85062408447266, -26.31136703491211, -10.810407638549805, -4.344762802124023, 0.5578525066375732, 5.527129173278809, -2.142681837081909, 2.200352191925049, -0.015625, 0.0087890625, 0.658203125, 0, 
95, 1899587507, -90.29592895507812, 71.84797668457031, -26.28185272216797, -8.526710510253906, -1.7142170667648315, -0.46931254863739014, 4.149596214294434, -2.7701284885406494, 0.7461555600166321, -0.01708984375, 0.00537109375, 0.66259765625, 0, 
96, 1899595840, -90.29132843017578, 71.84138488769531, -26.28022575378418, -6.69066047668457, -0.49637794494628906, 0.8947569131851196, 3.523378849029541, -1.5350611209869385, 0.29298844933509827, -0.013671875, -0.00244140625, 0.6328125, 0, 
97, 1899604173, -90.34498596191406, 71.8381576538086, -26.303640365600586, -8.18542766571045, -2.3552093505859375, 0.5347250699996948, -0.7692210674285889, -0.7179926037788391, 0.6954392790794373, -0.01611328125, 0, 0.62939453125, 0, 
98, 1899612506, -90.37019348144531, 71.84080505371094, -26.326581954956055, -10.812178611755371, -5.168724536895752, -1.7786585092544556, 2.6813366413116455, -0.7059539556503296, 1.397704839706421, -0.0185546875, -0.00244140625, 0.63427734375, 0, 
99, 1899620839, -90.35417938232422, 71.84979248046875, -26.32136344909668, -11.473621368408203, -4.982211589813232, 0.5977640151977539, 4.483835697174072, -1.6831881999969482, 2.163058042526245, -0.01513671875, 0.0048828125, 0.64111328125, 0, 
100, 1899629172, -90.32545471191406, 71.8505859375, -26.309106826782227, -9.475506782531738, -2.8993000984191895, -1.4370139837265015, 5.205926895141602, -1.9390742778778076, 1.1728885173797607, -0.021484375, 0.01025390625, 0.654296875, 0, 
101, 1899637505, -90.2809066772461, 71.84428405761719, -26.262340545654297, -7.06321907043457, -0.5920114517211914, 1.8369861841201782, 3.601374387741089, -3.147170066833496, 0.31432509422302246, -0.01806640625, -0.00146484375, 0.64013671875, 0, 
102, 1899645838, -90.31829833984375, 71.8387451171875, -26.278287887573242, -7.313618183135986, -1.392594337463379, -0.35920146107673645, 0.48594042658805847, -0.8790292739868164, 0.4247736632823944, -0.017578125, -0.00146484375, 0.62646484375, 0, 
103, 1899654171, -90.37651824951172, 71.83717346191406, -26.328283309936523, -9.97724723815918, -4.027034282684326, -0.08483818918466568, 1.6063839197158813, 0.24398839473724365, 0.8934116959571838, -0.01513671875, 0.00048828125, 0.6337890625, 0, 
104, 1899662504, -90.37154388427734, 71.84444427490234, -26.325511932373047, -11.571318626403809, -5.578577041625977, -1.0953041315078735, 3.454374313354492, -1.6452279090881348, 1.9443894624710083, -0.0185546875, 0, 0.6416015625, 0, 
105, 1899670837, -90.34237670898438, 71.85011291503906, -26.3173885345459, -10.154607772827148, -3.7486493587493896, -0.24970613420009613, 5.732376575469971, -1.788053274154663, 1.7641421556472778, -0.02197265625, 0.005859375, 0.65087890625, 0, 
106, 1899679170, -90.28539276123047, 71.8443374633789, -26.261959075927734, -7.740499496459961, -1.111690878868103, 0.6317005157470703, 3.6729657649993896, -3.549262046813965, 0.381050169467926, -0.01806640625, 0.0009765625, 0.6513671875, 0, 
107, 1899687503, -90.30913543701172, 71.8390121459961, -26.276744842529297, -6.926306247711182, -0.6495739221572876, 0.16961689293384552, 2.6651229858398438, -0.7682990431785583, 0.44388189911842346, -0.01708984375, 0, 0.6298828125, 0, 
108, 1899695836, -90.37276458740234, 71.83597564697266, -26.31536293029785, -9.002419471740723, -3.2274703979492188, 0.5952881574630737, -0.07533147186040878, -0.0318128801882267, 0.7285840511322021, -0.015625, -0.00146484375, 0.630859375, 0, 
109, 1899704169, -90.37942504882812, 71.8404541015625, -26.30626678466797, -11.300761222839355, -5.5958170890808105, -1.853096604347229, 2.901055335998535, -1.368978500366211, 1.614990472793579, -0.01611328125, 0.00390625, 0.64013671875, 0, 
110, 1899712502, -90.34907531738281, 71.84886932373047, -26.291385650634766, -11.05789852142334, -4.599898338317871, 0.5444768667221069, 5.100294589996338, -2.043170928955078, 2.088136672973633, -0.02001953125, 0.0029296875, 0.64990234375, 0, 
111, 1899720835, -90.3177490234375, 71.84657287597656, -26.268558502197266, -8.772543907165527, -1.984129548072815, -1.0129244327545166, 4.52361536026001, -2.3256959915161133, 0.7940029501914978, -0.021484375, 0.00439453125, 0.65625, 0, 
112, 1899729168, -90.30274200439453, 71.83979034423828, -26.25653839111328, -6.795846939086914, -0.38366997241973877, 1.4997543096542358, 3.5841870307922363, -1.924423098564148, 0.2646334767341614, -0.01708984375, -0.00390625, 0.63525390625, 0, 
113, 1899737501, -90.35250091552734, 71.83648681640625, -26.281578063964844, -7.817964553833008, -2.110853910446167, 0.13831453025341034, -0.6163040995597839, -0.8215253353118896, 0.6877805590629578, -0.015625, -0.00048828125, 0.62744140625, 0, 
114, 1899745834, -90.38646697998047, 71.83782958984375, -26.323009490966797, -10.67965030670166, -5.028785228729248, -1.2239115238189697, 2.659000873565674, -0.3668982982635498, 1.2402796745300293, -0.0185546875, 0.00048828125, 0.63525390625, 0, 
115, 1899754167, -90.37384033203125, 71.84696197509766, -26.31788444519043, -11.618732452392578, -5.114789962768555, 0.15950684249401093, 4.0866875648498535, -1.6799609661102295, 2.178323984146118, -0.0185546875, 0.0048828125, 0.6416015625, 0, 
116, 1899762500, -90.34638214111328, 71.84886932373047, -26.308305740356445, -9.720868110656738, -3.000283718109131, -1.1106566190719604, 5.360252857208252, -1.8396143913269043, 1.3090795278549194, -0.0185546875, 0.00634765625, 0.65625, 0, 
117, 1899770833, -90.29896545410156, 71.8414306640625, -26.27115249633789, -7.12577486038208, -0.7390635013580322, 1.6347441673278809, 3.365211248397827, -3.336561679840088, 0.17280644178390503, -0.017578125, 0.00146484375, 0.64306640625, 0, 
118, 1899779166, -90.33387756347656, 71.83617401123047, -26.290607452392578, -7.101621627807617, -1.2267483472824097, -0.4687544107437134, 1.185951828956604, -0.7482430338859558, 0.4574061930179596, -0.01513671875, -0.00634765625, 0.62841796875, 0, 
119, 1899787499, -90.396240234375, 71.83503723144531, -26.338680267333984, -9.697444915771484, -3.8705034255981445, 0.2289338856935501, 1.2948122024536133, 0.30382320284843445, 0.9559102654457092, -0.01708984375, 0, 0.63427734375, 0, 
120, 1899795832, -90.39151000976562, 71.8421401977539, -26.338924407958984, -11.629030227661133, -5.629680633544922, -1.4216738939285278, 3.4334471225738525, -1.6442290544509888, 1.9209781885147095, -0.017578125, 0.00146484375, 0.64111328125, 0, 
121, 1899804165, -90.35139465332031, 71.8493423461914, -26.319068908691406, -10.4912109375, -4.042790412902832, 0.014566924422979355, 5.702125549316406, -2.226696252822876, 1.9384211301803589, -0.02099609375, 0.00830078125, 0.6533203125, 0, 
122, 1899812498, -90.2995834350586, 71.84477233886719, -26.27001190185547, -8.090798377990723, -1.3241506814956665, 0.33304363489151, 3.7778565883636475, -3.3120229244232178, 0.5248485207557678, -0.0185546875, 0.00048828125, 0.65087890625, 0, 
123, 1899820831, -90.31211853027344, 71.83826446533203, -26.298757553100586, -6.71523904800415, -0.5074185132980347, 0.49202394485473633, 3.088141918182373, -1.0713152885437012, 0.30039095878601074, -0.013671875, -0.001953125, 0.63330078125, 0, 
124, 1899829164, -90.37361145019531, 71.83499908447266, -26.332019805908203, -8.614669799804688, -2.8064465522766113, 0.564588189125061, -0.43339288234710693, -0.23255164921283722, 0.7012537121772766, -0.01513671875, -0.00048828125, 0.6318359375, 0, 
125, 1899837497, -90.3886489868164, 71.83837127685547, -26.36409568786621, -11.176081657409668, -5.455087184906006, -1.8878018856048584, 2.7867133617401123, -1.0717763900756836, 1.4767757654190063, -0.015625, 0.001953125, 0.640625, 0, 
126, 1899845830, -90.36431121826172, 71.84700775146484, -26.355365753173828, -11.203792572021484, -4.762712478637695, 0.5270902514457703, 4.99760627746582, -1.9077738523483276, 2.1119580268859863, -0.01904296875, 0.0048828125, 0.650390625, 0, 
127, 1899854163, -90.3306655883789, 71.84681701660156, -26.334577560424805, -9.030449867248535, -2.404644012451172, -1.3346401453018188, 4.819023609161377, -2.256153106689453, 1.0513746738433838, -0.01806640625, 0.00830078125, 0.6572265625, 0, 
128, 1899862496, -90.30230712890625, 71.83972930908203, -26.307918548583984, -6.856628894805908, -0.39230743050575256, 1.6561824083328247, 3.5200748443603516, -2.472644567489624, 0.23166796565055847, -0.017578125, -0.00048828125, 0.64013671875, 0, 
129, 1899870829, -90.34877014160156, 71.83646392822266, -26.324731826782227, -7.602771282196045, -1.7938257455825806, 0.022774651646614075, -0.21636344492435455, -0.8202190399169922, 0.6921094655990601, -0.01904296875, 0.00048828125, 0.62841796875, 0, 
130, 1899879162, -90.39363098144531, 71.83688354492188, -26.36335563659668, -10.468668937683105, -4.716770648956299, -0.8177664279937744, 2.1754043102264404, -0.03447675704956055, 1.148990511894226, -0.017578125, 0.0009765625, 0.634765625, 0, 
131, 1899887495, -90.38187408447266, 71.84598541259766, -26.36753273010254, -11.717309951782227, -5.440482139587402, -0.38559383153915405, 3.9961917400360107, -1.7330080270767212, 2.1530683040618896, -0.0185546875, 0.005859375, 0.6435546875, 0, 
132, 1899895828, -90.35415649414062, 71.84992218017578, -26.36884117126465, -9.846109390258789, -3.2648940086364746, -0.6494463682174683, 5.584991931915283, -1.8419451713562012, 1.5484702587127686, -0.021484375, 0.00830078125, 0.65478515625, 0, 
133, 1899904161, -90.3033447265625, 71.84326171875, -26.316694259643555, -7.319368362426758, -0.6905830502510071, 1.2974387407302856, 3.304121255874634, -3.426032304763794, 0.27254825830459595, -0.01806640625, -0.0009765625, 0.6484375, 0, 
134, 1899912494, -90.32968139648438, 71.83763122558594, -26.331571578979492, -7.029699325561523, -0.9574761986732483, -0.29789286851882935, 1.6937286853790283, -0.91942298412323, 0.41427183151245117, -0.0146484375, -0.001953125, 0.62646484375, 0, 
135, 1899920827, -90.39239501953125, 71.83589935302734, -26.380264282226562, -9.446044921875, -3.872577428817749, 0.4419594705104828, 0.6682114005088806, 0.11476458609104156, 0.8750976324081421, -0.0146484375, -0.00146484375, 0.6337890625, 0, 
136, 1899929160, -90.38912200927734, 71.8425064086914, -26.376615524291992, -11.53073787689209, -5.624977111816406, -1.6644766330718994, 3.135989189147949, -1.6224311590194702, 1.8790730237960815, -0.01611328125, 0.001953125, 0.63916015625, 0, 
137, 1899937493, -90.35283660888672, 71.84968566894531, -26.35993003845215, -10.788544654846191, -4.114889621734619, 0.23703554272651672, 5.720337390899658, -2.1356635093688965, 1.928610920906067, -0.01904296875, 0.00732421875, 0.6494140625, 0, 
138, 1899945826, -90.30931854248047, 71.84449005126953, -26.329601287841797, -8.369850158691406, -1.5407902002334595, -0.14875032007694244, 4.197160720825195, -2.911057710647583, 0.44198641180992126, -0.02001953125, 0.00439453125, 0.65673828125, 0, 
139, 1899954159, -90.31512451171875, 71.83859252929688, -26.335599899291992, -6.607450008392334, -0.6472834348678589, 0.7109138369560242, 3.142213821411133, -1.2527410984039307, 0.37856563925743103, -0.01611328125, -0.001953125, 0.63232421875, 0, 
140, 1899962492, -90.3714370727539, 71.83563232421875, -26.36185073852539, -8.302184104919434, -2.4331183433532715, 0.5907965302467346, -0.6075440049171448, -0.49438029527664185, 0.7348596453666687, -0.01611328125, -0.0029296875, 0.63330078125, 0, 
141, 1899970825, -90.38960266113281, 71.8389892578125, -26.381311416625977, -11.066394805908203, -5.2582597732543945, -1.8395153284072876, 2.7890188694000244, -0.94877690076828, 1.4788250923156738, -0.01904296875, -0.00048828125, 0.63818359375, 0, 
142, 1899979158, -90.3667984008789, 71.84807586669922, -26.36986541748047, -11.404994010925293, -4.936906814575195, 0.6556445360183716, 4.589571475982666, -1.9158934354782104, 2.1705374717712402, -0.01904296875, 0.00390625, 0.6455078125, 0, 
143, 1899987491, -90.34087371826172, 71.84900665283203, -26.358356475830078, -9.243474960327148, -2.7712595462799072, -1.3888922929763794, 4.904498100280762, -1.991686224937439, 1.1854395866394043, -0.0234375, 0.00927734375, 0.6552734375, 0, 
144, 1899995824, -90.30585479736328, 71.84268951416016, -26.33443260192871, -7.025205612182617, -0.43705710768699646, 1.870925784111023, 3.6208157539367676, -2.7675411701202393, 0.31137946248054504, -0.0166015625, -0.001953125, 0.638671875, 0, 
145, 1900004157, -90.34246826171875, 71.83866119384766, -26.346710205078125, -7.430766582489014, -1.4877698421478271, -0.1617758423089981, 0.16258634626865387, -1.0166547298431396, 0.5997188687324524, -0.0166015625, -0.0029296875, 0.626953125, 0, 
146, 1900012490, -90.3923568725586, 71.83678436279297, -26.387432098388672, -10.137629508972168, -4.390200138092041, -0.5774752497673035, 1.809120535850525, 0.04668194055557251, 0.8656970858573914, -0.0205078125, 0, 0.634765625, 0, 
147, 1900020823, -90.38656616210938, 71.84526824951172, -26.410879135131836, -11.599472999572754, -5.548870086669922, -0.7085821032524109, 3.7362329959869385, -1.5866738557815552, 2.0933618545532227, -0.0166015625, 0.00537109375, 0.64306640625, 0, 
148, 1900029156, -90.3554916381836, 71.85005950927734, -26.4011173248291, -10.02408504486084, -3.554727077484131, -0.6386204957962036, 5.77008056640625, -1.8475549221038818, 1.6534887552261353, -0.015625, 0.0146484375, 0.6640625, 0, 
149, 1900037489, -90.29887390136719, 71.84481048583984, -26.34791374206543, -7.635255336761475, -0.9022297263145447, 1.021557092666626, 3.6588785648345947, -3.604640483856201, 0.4357621967792511, -0.015625, 0.01123046875, 0.66259765625, 0, 
150, 1900045822, -90.3246078491211, 71.8385009765625, -26.369844436645508, -6.885244846343994, -0.7395395636558533, 0.014629911631345749, 2.0165703296661377, -0.8979068994522095, 0.32382798194885254, -0.0126953125, 0.001953125, 0.6435546875, 0, 
151, 1900054155, -90.3905258178711, 71.83606719970703, -26.413347244262695, -9.13919448852539, -3.4797580242156982, 0.5281945466995239, 0.20474736392498016, 0.15134170651435852, 0.7990487813949585, -0.013671875, 0.00341796875, 0.64404296875, 0, 
152, 1900062488, -90.3913345336914, 71.84147644042969, -26.413198471069336, -11.492701530456543, -5.674341201782227, -1.8095475435256958, 3.042778968811035, -1.490722894668579, 1.73476243019104, -0.01318359375, 0.00732421875, 0.650390625, 0, 
153, 1900070821, -90.35694122314453, 71.85008239746094, -26.405879974365234, -10.96010684967041, -4.374635696411133, 0.5844780206680298, 5.310459136962891, -2.1968562602996826, 2.103710174560547, -0.0185546875, 0.00927734375, 0.658203125, 0, 
154, 1900079154, -90.31652069091797, 71.84600067138672, -26.37417984008789, -8.585205078125, -1.809575080871582, -0.7429196238517761, 4.38960075378418, -2.6635985374450684, 0.5889864563941956, -0.0166015625, 0.0078125, 0.66552734375, 0, 
155, 1900087487, -90.31391906738281, 71.84027862548828, -26.37315559387207, -6.717861175537109, -0.44785773754119873, 1.17930269241333, 3.464747667312622, -1.542258620262146, 0.3921923339366913, -0.01318359375, -0.00048828125, 0.646484375, 0, 
156, 1900095820, -90.36553192138672, 71.83663177490234, -26.38646697998047, -8.007535934448242, -2.31491756439209, 0.2766505181789398, -0.7591291069984436, -0.7899941802024841, 0.6344518065452576, -0.01220703125, 0.00341796875, 0.63916015625, 0, 
157, 1900104153, -90.39202880859375, 71.83819580078125, -26.410057067871094, -10.833144187927246, -5.16502571105957, -1.5364662408828735, 2.6648921966552734, -0.5975289344787598, 1.2785217761993408, -0.01318359375, 0.00537109375, 0.6474609375, 0, 
158, 1900112486, -90.37480163574219, 71.84735107421875, -26.403072357177734, -11.588053703308105, -5.058191299438477, 0.36879634857177734, 4.424922943115234, -1.7488373517990112, 2.1753785610198975, -0.01611328125, 0.0107421875, 0.6513671875, 0, 
159, 1900120819, -90.35283660888672, 71.84843444824219, -26.394365310668945, -9.488055229187012, -2.8682751655578613, -1.2055541276931763, 5.224701404571533, -1.7320600748062134, 1.2113611698150635, -0.01904296875, 0.0107421875, 0.6630859375, 0, 
160, 1900129152, -90.30868530273438, 71.84226989746094, -26.349720001220703, -7.04398250579834, -0.511361837387085, 1.7753772735595703, 3.3622143268585205, -3.1461195945739746, 0.3325624465942383, -0.013671875, 0.00244140625, 0.6513671875, 0, 
161, 1900137485, -90.34457397460938, 71.8376693725586, -26.365428924560547, -7.183757305145264, -1.3025541305541992, -0.26932600140571594, 0.47546419501304626, -1.0073565244674683, 0.5247203707695007, -0.013671875, 0.0009765625, 0.638671875, 0, 
162, 1900145818, -90.3999252319336, 71.83718872070312, -26.42127799987793, -9.9117431640625, -4.228092670440674, -0.28525301814079285, 1.5283375978469849, 0.10362239181995392, 1.0310369729995728, -0.01611328125, 0.0048828125, 0.642578125, 0, 
163, 1900154151, -90.39131927490234, 71.84453582763672, -26.416746139526367, -11.723429679870605, -5.601889133453369, -0.8616287112236023, 3.6722235679626465, -1.655832290649414, 1.9629086256027222, -0.0126953125, 0.00732421875, 0.64794921875, 0, 
164, 1900162484, -90.35771179199219, 71.85047149658203, -26.40438461303711, -10.334455490112305, -3.7609498500823975, -0.4135652482509613, 5.778071403503418, -1.9478598833084106, 1.7925994396209717, -0.02001953125, 0.01171875, 0.6630859375, 0, 
165, 1900170817, -90.30567169189453, 71.84437561035156, -26.35799217224121, -7.758660793304443, -1.005979299545288, 0.7602715492248535, 3.7647931575775146, -3.3862528800964355, 0.3329978287220001, -0.0166015625, 0.00341796875, 0.65771484375, 0, 
166, 1900179150, -90.32714080810547, 71.8388671875, -26.373676300048828, -6.773093223571777, -0.6397750973701477, 0.2672150135040283, 2.363720178604126, -0.8899154663085938, 0.4228013753890991, -0.01318359375, -0.00146484375, 0.6396484375, 0, 
167, 1900187483, -90.39312744140625, 71.83605194091797, -26.412967681884766, -8.849703788757324, -3.223635673522949, 0.4223538339138031, 0.06637929379940033, 0.04268612340092659, 0.7473593354225159, -0.013671875, 0.00439453125, 0.64111328125, 0, 
168, 1900195816, -90.3998794555664, 71.84122467041016, -26.41944122314453, -11.47280502319336, -5.619176864624023, -1.8211325407028198, 3.0813026428222656, -1.2405998706817627, 1.70389723777771, -0.01171875, 0.00439453125, 0.64794921875, 0, 
169, 1900204149, -90.36627960205078, 71.85013580322266, -26.400972366333008, -10.986157417297363, -4.553110599517822, 0.43460625410079956, 5.154673099517822, -2.218653917312622, 2.141772747039795, -0.01806640625, 0.0107421875, 0.6591796875, 0, 
170, 1900212482, -90.3280258178711, 71.84769439697266, -26.371559143066406, -8.735076904296875, -2.0152366161346436, -0.9137313365936279, 4.394647598266602, -2.579430341720581, 0.787676215171814, -0.01708984375, 0.00927734375, 0.66455078125, 0, 
171, 1900220815, -90.31761932373047, 71.84078216552734, -26.364309310913086, -6.728686332702637, -0.33646029233932495, 1.3891713619232178, 3.4986352920532227, -1.8368479013442993, 0.2449873387813568, -0.01171875, 0.0009765625, 0.6474609375, 0, 
172, 1900229148, -90.36937713623047, 71.83768463134766, -26.391191482543945, -7.875451564788818, -2.132627248764038, 0.29834508895874023, -0.46571800112724304, -0.6881007552146912, 0.7024062871932983, -0.01416015625, 0.00439453125, 0.634765625, 0, 
173, 1900237481, -90.3997573852539, 71.83922576904297, -26.41683006286621, -10.743974685668945, -5.185718536376953, -1.3712458610534668, 2.4319052696228027, -0.5202251672744751, 1.2729122638702393, -0.013671875, 0.00537109375, 0.64599609375, 0, 
174, 1900245814, -90.38078308105469, 71.84856414794922, -26.406463623046875, -11.665268898010254, -5.1799421310424805, 0.15700478851795197, 4.249593257904053, -1.876242756843567, 2.200557231903076, -0.0166015625, 0.005859375, 0.65380859375, 0, 
175, 1900254147, -90.3576889038086, 71.84964752197266, -26.40031623840332, -9.596837043762207, -2.9077672958374023, -0.9722715616226196, 5.427950382232666, -1.709673285484314, 1.2066993713378906, -0.01904296875, 0.00927734375, 0.66064453125, 0, 
176, 1900262480, -90.31068420410156, 71.84192657470703, -26.352947235107422, -7.067624092102051, -0.5152482390403748, 1.655755877494812, 3.3956665992736816, -3.247270345687866, 0.14580903947353363, -0.0166015625, 0.00146484375, 0.65087890625, 0, 
177, 1900270813, -90.34426879882812, 71.8375015258789, -26.37001609802246, -7.076178550720215, -1.255724549293518, -0.3825841248035431, 0.8629819750785828, -0.9728798866271973, 0.5547403693199158, -0.01416015625, 0.00146484375, 0.6357421875, 0, 
178, 1900279146, -90.40555572509766, 71.83686065673828, -26.417512893676758, -9.820545196533203, -4.174492359161377, -0.07443603128194809, 1.4061576128005981, 0.29934078454971313, 1.0087783336639404, -0.013671875, 0.00244140625, 0.64306640625, 0, 
179, 1900287479, -90.39921569824219, 71.84408569335938, -26.412885665893555, -11.738450050354004, -5.600619316101074, -1.1677250862121582, 3.3886735439300537, -1.6598793268203735, 1.9477962255477905, -0.01611328125, 0.00732421875, 0.646484375, 0, 
180, 1900295812, -90.36434936523438, 71.84977722167969, -26.398033142089844, -10.489446640014648, -3.7759926319122314, -0.13397352397441864, 5.643187999725342, -2.0415828227996826, 1.7663193941116333, -0.01806640625, 0.01123046875, 0.66015625, 0, 
181, 1900304145, -90.31129455566406, 71.84464263916016, -26.341733932495117, -7.8925604820251465, -1.197296142578125, 0.5015925168991089, 3.7435076236724854, -3.4365594387054443, 0.44744226336479187, -0.01953125, 0.00830078125, 0.65966796875, 0, 
182, 1900312478, -90.32991027832031, 71.83911895751953, -26.357576370239258, -6.646111011505127, -0.6411154270172119, 0.3738565742969513, 2.732001543045044, -0.8838960528373718, 0.4240565001964569, -0.01611328125, 0, 0.63623046875, 0, 
183, 1900320811, -90.39097595214844, 71.83607482910156, -26.395648956298828, -8.689294815063477, -2.9970340728759766, 0.4424176514148712, -0.08995718508958817, -0.19853591918945312, 0.7148548364639282, -0.01416015625, 0.00390625, 0.640625, 0, 
184, 1900329144, -90.39704895019531, 71.84049224853516, -26.41160774230957, -11.415816307067871, -5.491483688354492, -1.8225045204162598, 2.8701133728027344, -1.4018670320510864, 1.608663558959961, -0.0166015625, 0.00390625, 0.64453125, 0, 
185, 1900337477, -90.36808776855469, 71.84915161132812, -26.397798538208008, -11.187679290771484, -4.700538158416748, 0.4963785707950592, 5.056698322296143, -2.0043907165527344, 2.1205382347106934, -0.01806640625, 0.0087890625, 0.654296875, 0, 
186, 1900345810, -90.33122253417969, 71.84718322753906, -26.372943878173828, -8.900793075561523, -2.2220730781555176, -1.0016785860061646, 4.743359088897705, -2.408531904220581, 0.8423624634742737, -0.01904296875, 0.00732421875, 0.666015625, 0, 
187, 1900354143, -90.31220245361328, 71.84142303466797, -26.364492416381836, -6.763965129852295, -0.3558316230773926, 1.4832264184951782, 3.650425910949707, -2.124803304672241, 0.3773873448371887, -0.01416015625, 0.00146484375, 0.64501953125, 0, 
188, 1900362476, -90.35710144042969, 71.83753967285156, -26.380205154418945, -7.722903251647949, -1.878815770149231, 0.21579411625862122, -0.44473996758461, -0.8888907432556152, 0.6182891726493835, -0.01513671875, 0.001953125, 0.64013671875, 0, 
189, 1900370809, -90.39319610595703, 71.83750915527344, -26.407644271850586, -10.536020278930664, -4.945684909820557, -1.1735626459121704, 2.021898031234741, -0.4947645664215088, 1.0782439708709717, -0.0166015625, 0.005859375, 0.64599609375, 0, 
190, 1900379142, -90.38127136230469, 71.84650421142578, -26.402191162109375, -11.634339332580566, -5.3493757247924805, -0.12477834522724152, 4.264552116394043, -1.6599304676055908, 2.158729076385498, -0.01220703125, 0.0087890625, 0.654296875, 0, 
191, 1900387475, -90.34749603271484, 71.84876251220703, -26.39006233215332, -9.748003005981445, -3.1425206661224365, -0.9666106700897217, 5.823486328125, -1.9325429201126099, 1.3485510349273682, -0.01904296875, 0.01123046875, 0.66259765625, 0, 
192, 1900395808, -90.29618835449219, 71.84089660644531, -26.337793350219727, -7.155980587005615, -0.5191164016723633, 1.496829628944397, 3.354017496109009, -3.431795120239258, 0.13126014173030853, -0.0166015625, 0.00146484375, 0.64794921875, 0, 
193, 1900404141, -90.32937622070312, 71.83614349365234, -26.356502532958984, -7.017175197601318, -1.056810975074768, -0.1700732558965683, 1.136926293373108, -0.8963958621025085, 0.507251501083374, -0.0166015625, -0.00390625, 0.6328125, 0, 
194, 1900412474, -90.39124298095703, 71.83467102050781, -26.403100967407227, -9.699992179870605, -4.0542097091674805, 0.04291705787181854, 1.0424610376358032, 0.2658373713493347, 0.9145947694778442, -0.017578125, 0.00048828125, 0.63427734375, 0, 
195, 1900420807, -90.38866424560547, 71.84208679199219, -26.40433692932129, -11.82674789428711, -5.736651420593262, -1.3098700046539307, 3.629908800125122, -1.4966143369674683, 1.969440221786499, -0.01708984375, 0.005859375, 0.638671875, 0, 
196, 1900429140, -90.35406494140625, 71.84867858886719, -26.38775634765625, -10.5072660446167, -3.867248296737671, 0.13544514775276184, 5.380513668060303, -2.1848175525665283, 1.8644731044769287, -0.02294921875, 0.005859375, 0.654296875, 0, 
197, 1900437473, -90.30321502685547, 71.84288787841797, -26.340208053588867, -7.9321441650390625, -1.1298630237579346, 0.2160554975271225, 3.8343355655670166, -3.2558252811431885, 0.3782069683074951, -0.01708984375, 0.00244140625, 0.64794921875, 0, 
198, 1900445806, -90.31802368164062, 71.83622741699219, -26.35236930847168, -6.6849164962768555, -0.5582562685012817, 0.5564000010490417, 2.766094207763672, -1.0209065675735474, 0.2876094877719879, -0.0146484375, -0.00439453125, 0.63134765625, 0, 
199, 1900454139, -90.38142395019531, 71.83392333984375, -26.392841339111328, -8.520423889160156, -3.006833553314209, 0.40942874550819397, -0.3858272433280945, -0.20696301758289337, 0.8056830167770386, -0.01611328125, 0.0009765625, 0.626953125, 0, 
200, 1900462472, -90.3915023803711, 71.83837127685547, -26.402324676513672, -11.305964469909668, -5.5621232986450195, -1.841500997543335, 3.025873899459839, -1.129254937171936, 1.620087742805481, -0.01806640625, 0.0009765625, 0.6357421875, 0, 
201, 1900470805, -90.36468505859375, 71.84727478027344, -26.39044761657715, -11.407381057739258, -4.721475601196289, 0.5044345855712891, 5.1170454025268555, -1.9647910594940186, 2.1441550254821777, -0.0205078125, 0.005859375, 0.6474609375, 0, 
202, 1900479138, -90.33448028564453, 71.8455581665039, -26.380578994750977, -9.011306762695312, -2.2040305137634277, -1.0034435987472534, 4.767154693603516, -2.2035415172576904, 0.865748405456543, -0.0244140625, 0.00634765625, 0.65380859375, 0, 
203, 1900487471, -90.31092071533203, 71.83885192871094, -26.359302520751953, -6.678606033325195, -0.36561474204063416, 1.5773757696151733, 3.5570874214172363, -2.2716498374938965, 0.27341920137405396, -0.013671875, -0.0048828125, 0.63427734375, 0, 
204, 1900495804, -90.35549926757812, 71.83451843261719, -26.375822067260742, -7.580404281616211, -1.877442479133606, 0.18425723910331726, -0.3082929253578186, -0.8586146831512451, 0.5700575709342957, -0.017578125, 0.00244140625, 0.626953125, 0, 
205, 1900504137, -90.39398193359375, 71.83705139160156, -26.417922973632812, -10.549269676208496, -4.909056186676025, -1.1539766788482666, 2.3617477416992188, -0.28803205490112305, 1.3802359104156494, -0.01708984375, -0.00048828125, 0.63427734375, 0, 
206, 1900512470, -90.37922668457031, 71.84710693359375, -26.412107467651367, -11.786995887756348, -5.302150249481201, -0.02594086155295372, 4.260838031768799, -1.7060104608535767, 2.2858781814575195, -0.02001953125, 0.00390625, 0.64111328125, 0, 
207, 1900520803, -90.35320281982422, 71.84979248046875, -26.40068817138672, -9.87602710723877, -3.159255027770996, -0.9179694652557373, 5.272011756896973, -1.8791882991790771, 1.4008554220199585, -0.02099609375, 0.00537109375, 0.6533203125, 0, 
208, 1900529136, -90.30450439453125, 71.84272766113281, -26.364322662353516, -7.170106887817383, -0.6610522270202637, 1.3833447694778442, 3.308988094329834, -3.4059250354766846, 0.21322572231292725, -0.01806640625, -0.00341796875, 0.6396484375, 0, 
209, 1900537469, -90.33483123779297, 71.8377685546875, -26.379491806030273, -7.014556884765625, -1.049171805381775, -0.1899365931749344, 1.2462477684020996, -0.908562421798706, 0.49403446912765503, -0.015625, 0, 0.626953125, 0, 
210, 1900545802, -90.39763641357422, 71.83631134033203, -26.426660537719727, -9.589515686035156, -3.760378360748291, 0.16123223304748535, 0.9960992336273193, 0.28773751854896545, 0.9169256687164307, -0.017578125, -0.00244140625, 0.62939453125, 0, 
211, 1900554135, -90.39488220214844, 71.84333801269531, -26.440139770507812, -11.702474594116211, -5.73089599609375, -1.5161393880844116, 3.4535036087036133, -1.5606242418289185, 1.9150100946426392, -0.0166015625, 0.00634765625, 0.6376953125, 0, 
212, 1900562468, -90.35710906982422, 71.8494873046875, -26.421661376953125, -10.506778717041016, -4.07407283782959, 0.0648103803396225, 5.580868721008301, -2.175673246383667, 1.8171634674072266, -0.01953125, 0.0068359375, 0.6513671875, 0, 
213, 1900570801, -90.30667114257812, 71.84444427490234, -26.38511848449707, -8.009186744689941, -1.2540127038955688, 0.15263672173023224, 3.919477701187134, -3.2758047580718994, 0.4569963812828064, -0.01953125, 0.0029296875, 0.650390625, 0, 
214, 1900579134, -90.3181381225586, 71.8385009765625, -26.393917083740234, -6.708962440490723, -0.5494896173477173, 0.6557568311691284, 2.893371105194092, -1.1755908727645874, 0.37144482135772705, -0.0146484375, -0.00390625, 0.62744140625, 0, 
215, 1900587467, -90.38247680664062, 71.83547973632812, -26.431594848632812, -8.561330795288086, -2.8717305660247803, 0.4445563554763794, -0.27179262042045593, -0.06710929423570633, 0.7273289561271667, -0.01708984375, -0.0009765625, 0.6298828125, 0, 
216, 1900595800, -90.39492797851562, 71.83856964111328, -26.44182014465332, -11.315305709838867, -5.539341926574707, -1.6736077070236206, 2.830181121826172, -1.1004389524459839, 1.458717942237854, -0.01708984375, 0.001953125, 0.634765625, 0, 
217, 1900604133, -90.3694839477539, 71.84819793701172, -26.4281063079834, -11.356213569641113, -4.742650032043457, 0.49971604347229004, 4.6821675300598145, -2.0533652305603027, 2.223379611968994, -0.01953125, 0.00537109375, 0.64501953125, 0, 
218, 1900612466, -90.33623504638672, 71.84671783447266, -26.407957077026367, -8.994453430175781, -2.290071487426758, -1.198853850364685, 4.848531723022461, -2.2320501804351807, 0.9035037159919739, -0.021484375, 0.0048828125, 0.65478515625, 0, 
219, 1900620799, -90.31319427490234, 71.8400650024414, -26.391286849975586, -6.7325849533081055, -0.3524758815765381, 1.592013955116272, 3.5608267784118652, -2.3128371238708496, 0.27329108119010925, -0.0166015625, -0.00341796875, 0.63623046875, 0, 
220, 1900629132, -90.36041259765625, 71.83731842041016, -26.4179630279541, -7.546464443206787, -1.850969672203064, 0.0029825514648109674, -0.2692312002182007, -0.8066946268081665, 0.7480509281158447, -0.0185546875, -0.00439453125, 0.62646484375, 0, 
221, 1900637465, -90.398193359375, 71.83819580078125, -26.45001792907715, -10.484370231628418, -4.827150344848633, -0.921784520149231, 2.27652907371521, -0.28137239813804626, 1.196325659751892, -0.01708984375, 0.001953125, 0.63330078125, 0, 
222, 1900645798, -90.38270568847656, 71.84619903564453, -26.44162368774414, -11.765745162963867, -5.413906574249268, -0.3187839388847351, 4.055361270904541, -1.8018847703933716, 2.041595458984375, -0.01806640625, 0.0029296875, 0.64111328125, 0, 
223, 1900654131, -90.3564453125, 71.84933471679688, -26.435903549194336, -9.912182807922363, -3.2132153511047363, -0.7481426000595093, 5.61700963973999, -1.7730684280395508, 1.4511361122131348, -0.02392578125, 0.00732421875, 0.65283203125, 0, 
224, 1900662464, -90.30845642089844, 71.84233856201172, -26.386550903320312, -7.273390769958496, -0.6262088418006897, 1.4154245853424072, 3.2828609943389893, -3.32147479057312, 0.22861988842487335, -0.02001953125, -0.00048828125, 0.6435546875, 0, 
225, 1900670797, -90.33839416503906, 71.83659362792969, -26.41227149963379, -6.883536338806152, -0.9705355167388916, -0.16268770396709442, 1.3414814472198486, -0.9587406516075134, 0.39406219124794006, -0.017578125, -0.00439453125, 0.6259765625, 0, 
226, 1900679130, -90.400634765625, 71.83460235595703, -26.45895767211914, -9.4495849609375, -3.8905601501464844, 0.15157589316368103, 1.009187936782837, 0.2701148986816406, 0.8586788177490234, -0.017578125, 0.001953125, 0.63134765625, 0, 
227, 1900687463, -90.39684295654297, 71.84127044677734, -26.47376823425293, -11.70999813079834, -5.723069667816162, -1.3719524145126343, 3.349944829940796, -1.6341369152069092, 1.8680332899093628, -0.01953125, 0.00146484375, 0.638671875, 0, 
228, 1900695796, -90.35736083984375, 71.84886169433594, -26.453571319580078, -10.704964637756348, -4.094005107879639, -0.06631584465503693, 5.588244438171387, -2.2427053451538086, 1.9874980449676514, -0.02197265625, 0.00830078125, 0.6484375, 0, 
229, 1900704129, -90.30490112304688, 71.84329223632812, -26.406482696533203, -8.15029525756836, -1.323574423789978, 0.2036178857088089, 4.061251640319824, -3.3100249767303467, 0.39831414818763733, -0.02001953125, 0.00439453125, 0.65380859375, 0, 
230, 1900712462, -90.31802368164062, 71.8375015258789, -26.4250431060791, -6.6454877853393555, -0.540111780166626, 0.5952795147895813, 2.85697340965271, -1.1220571994781494, 0.3842519521713257, -0.013671875, -0.00439453125, 0.6298828125, 0, 
231, 1900720795, -90.38007354736328, 71.83453369140625, -26.460004806518555, -8.404354095458984, -2.689189910888672, 0.5153408646583557, -0.30529606342315674, -0.17082130908966064, 0.7352949976921082, -0.01513671875, 0.001953125, 0.63134765625, 0, 
232, 1900729128, -90.39497375488281, 71.83827209472656, -26.47157096862793, -11.229330062866211, -5.411885738372803, -1.876051425933838, 2.6870994567871094, -1.0494407415390015, 1.5356885194778442, -0.01904296875, 0.00341796875, 0.63720703125, 0, 
233, 1900737461, -90.36541748046875, 71.84648132324219, -26.45935821533203, -11.301499366760254, -4.843108177185059, 0.5340092778205872, 4.867614269256592, -2.149111270904541, 2.0524559020996094, -0.01708984375, 0.0068359375, 0.646484375, 0, 
234, 1900745794, -90.33404541015625, 71.84576416015625, -26.441049575805664, -9.066300392150879, -2.420907974243164, -1.2295081615447998, 4.832983493804932, -2.164992094039917, 0.991642415523529, -0.0224609375, 0.0078125, 0.6552734375, 0, 
235, 1900754127, -90.31353759765625, 71.83838653564453, -26.42375946044922, -6.786314010620117, -0.34195008873939514, 1.6435718536376953, 3.527733087539673, -2.225646495819092, 0.19019849598407745, -0.01708984375, -0.001953125, 0.6318359375, 0, 
236, 1900762460, -90.35762023925781, 71.83497619628906, -26.430810928344727, -7.55757999420166, -1.704694151878357, 0.01695212721824646, -0.11575072258710861, -0.8764423727989197, 0.6702348589897156, -0.017578125, -0.0029296875, 0.62744140625, 0, 
237, 1900770793, -90.39457702636719, 71.8349609375, -26.45952796936035, -10.409017562866211, -4.768784999847412, -0.7662873864173889, 1.997436285018921, -0.4060112237930298, 1.0888482332229614, -0.0185546875, 0.001953125, 0.63427734375, 0, 
238, 1900779126, -90.3867416381836, 71.84358978271484, -26.460174560546875, -11.773981094360352, -5.474764347076416, -0.45340871810913086, 4.168166160583496, -1.4639559984207153, 2.119744300842285, -0.015625, 0.00439453125, 0.6435546875, 0, 
239, 1900787459, -90.35948944091797, 71.84765625, -26.448455810546875, -9.923030853271484, -3.239664316177368, -0.6428416967391968, 5.574695110321045, -1.8242460489273071, 1.5587159395217896, -0.02197265625, 0.00830078125, 0.65966796875, 0, 
240, 1900795792, -90.30802917480469, 71.84134674072266, -26.396804809570312, -7.324753284454346, -0.6691905856132507, 1.181415319442749, 3.441413640975952, -3.4091012477874756, 0.3176293671131134, -0.01806640625, -0.00146484375, 0.646484375, 0, 
241, 1900804125, -90.3407211303711, 71.83525085449219, -26.42717170715332, -6.904022693634033, -0.9104865789413452, -0.09805486351251602, 1.612992525100708, -0.7580021023750305, 0.34603554010391235, -0.0166015625, -0.00537109375, 0.6298828125, 0, 
242, 1900812458, -90.40369415283203, 71.83390808105469, -26.491180419921875, -9.37037467956543, -3.8205695152282715, 0.25585004687309265, 0.7686190605163574, 0.15354451537132263, 0.9218177199363708, -0.01806640625, 0.001953125, 0.6328125, 0, 
243, 1900820791, -90.40254974365234, 71.84002685546875, -26.49053955078125, -11.627372741699219, -5.667937278747559, -1.5652798414230347, 3.2190561294555664, -1.5116239786148071, 1.8211079835891724, -0.017578125, 0.00439453125, 0.642578125, 0, 
244, 1900829124, -90.36773681640625, 71.84622192382812, -26.475234985351562, -10.846774101257324, -4.1117377281188965, 0.2051255851984024, 5.5877580642700195, -2.057976007461548, 1.8236440420150757, -0.0146484375, 0.01318359375, 0.658203125, 0, 
245, 1900837457, -90.32376098632812, 71.84200286865234, -26.445301055908203, -8.298924446105957, -1.5072814226150513, -0.09251672774553299, 4.075032711029053, -2.970892906188965, 0.5573529601097107, -0.01416015625, 0.01220703125, 0.662109375, 0, 
246, 1900845790, -90.33165740966797, 71.83661651611328, -26.453052520751953, -6.573599338531494, -0.6050794124603271, 0.7050080895423889, 3.09106183052063, -1.1867843866348267, 0.44101306796073914, -0.009765625, 0.00341796875, 0.646484375, 0, 
247, 1900854123, -90.38976287841797, 71.83341217041016, -26.486614227294922, -8.282670021057129, -2.563199758529663, 0.4253295063972473, -0.5061116218566895, -0.45465266704559326, 0.6918532848358154, -0.0126953125, 0.0078125, 0.640625, 0, 
248, 1900862456, -90.40791320800781, 71.83618927001953, -26.505327224731445, -11.142684936523438, -5.310211658477783, -1.7557871341705322, 2.838275194168091, -0.9362772107124329, 1.4193743467330933, -0.0126953125, 0.005859375, 0.65234375, 0, 
249, 1900870789, -90.38045501708984, 71.844970703125, -26.49141502380371, -11.39869499206543, -4.992273330688477, 0.43337181210517883, 4.8627214431762695, -2.009334087371826, 2.1315526962280273, -0.01611328125, 0.0107421875, 0.6533203125, 0, 
250, 1900879122, -90.35418701171875, 71.8441390991211, -26.47966957092285, -9.22734546661377, -2.6147689819335938, -1.2115708589553833, 4.968815803527832, -1.9197102785110474, 0.9798598289489746, -0.015625, 0.0107421875, 0.66845703125, 0, 
251, 1900887455, -90.32438659667969, 71.83793640136719, -26.45336151123047, -6.9321088790893555, -0.36265701055526733, 1.6640108823776245, 3.5815231800079346, -2.5732831954956055, 0.32080551981925964, -0.01416015625, 0.00048828125, 0.650390625, 0, 
252, 1900895788, -90.36639404296875, 71.83427429199219, -26.469261169433594, -7.434228897094727, -1.5456650257110596, 0.020056486129760742, -0.07177108526229858, -0.8825129270553589, 0.6512035131454468, -0.01220703125, 0.0029296875, 0.6376953125, 0, 
253, 1900904121, -90.41561126708984, 71.83287811279297, -26.515886306762695, -10.240320205688477, -4.601700305938721, -0.7445580959320068, 1.8211593627929688, -0.04113646224141121, 0.9148508906364441, -0.0126953125, 0.00537109375, 0.6474609375, 0, 
254, 1900912454, -90.40878295898438, 71.84100341796875, -26.516910552978516, -11.6952486038208, -5.5125017166137695, -0.5259308815002441, 3.876957893371582, -1.5829598903656006, 2.0507397651672363, -0.0166015625, 0.0087890625, 0.65234375, 0, 
255, 1900920787, -90.38006591796875, 71.84587860107422, -26.508569717407227, -10.044896125793457, -3.4230763912200928, -0.6783515810966492, 5.649309158325195, -1.7949175834655762, 1.6650662422180176, -0.01904296875, 0.01171875, 0.66796875, 0, 
256, 1900929120, -90.32745361328125, 71.83927154541016, -26.457109451293945, -7.389843463897705, -0.7855716347694397, 1.0497182607650757, 3.6002728939056396, -3.402620792388916, 0.2806679904460907, -0.0185546875, 0.00634765625, 0.65673828125, 0, 
257, 1900937453, -90.35511016845703, 71.83392333984375, -26.479219436645508, -6.891406536102295, -0.816116452217102, -0.023243606090545654, 1.831276774406433, -0.8825384378433228, 0.435429185628891, -0.01220703125, -0.00146484375, 0.63916015625, 0, 
258, 1900945786, -90.4219970703125, 71.83158111572266, -26.526195526123047, -9.257109642028809, -3.6125648021698, 0.35614004731178284, 0.48235443234443665, 0.280539870262146, 0.8152114152908325, -0.0166015625, 0.00146484375, 0.64501953125, 0, 
259, 1900954119, -90.42631530761719, 71.83848571777344, -26.544658660888672, -11.68823528289795, -5.719054698944092, -1.7260396480560303, 3.365774393081665, -1.3117306232452393, 1.900281548500061, -0.01513671875, 0.00927734375, 0.64599609375, 0, 
260, 1900962452, -90.38951873779297, 71.84573364257812, -26.523487091064453, -10.865396499633789, -4.2529778480529785, 0.501427173614502, 5.294936656951904, -2.297468900680542, 1.9381908178329468, -0.0166015625, 0.00830078125, 0.66064453125, 0, 
261, 1900970785, -90.3486557006836, 71.84175109863281, -26.489765167236328, -8.39029598236084, -1.611625075340271, -0.4821537137031555, 4.216090202331543, -2.739032745361328, 0.6004104614257812, -0.0185546875, 0.0087890625, 0.6630859375, 0, 
262, 1900979118, -90.34940338134766, 71.83453369140625, -26.49110984802246, -6.575375080108643, -0.4907347559928894, 0.9681930541992188, 3.2208492755889893, -1.4257652759552002, 0.22085875272750854, -0.01416015625, 0.00048828125, 0.64599609375, 0, 
263, 1900987451, -90.40348815917969, 71.83203125, -26.514623641967773, -8.125336647033691, -2.426194190979004, 0.39086711406707764, -0.7420699596405029, -0.6906878352165222, 0.7792490720748901, -0.01416015625, 0.00244140625, 0.64306640625, 0, 
264, 1900995784, -90.4207992553711, 71.83358001708984, -26.529739379882812, -10.93713665008545, -5.249456882476807, -1.6911296844482422, 2.804669141769409, -0.915094256401062, 1.274884581565857, -0.01220703125, 0.0068359375, 0.64599609375, 0, 
265, 1901004117, -90.40534973144531, 71.84246826171875, -26.535757064819336, -11.59730052947998, -5.023902416229248, 0.45715218782424927, 4.581092834472656, -1.6877474784851074, 2.1320648193359375, -0.0166015625, 0.00439453125, 0.6533203125, 0, 
266, 1901012450, -90.37958526611328, 71.84271240234375, -26.53040885925293, -9.366145133972168, -2.7735068798065186, -1.2624201774597168, 5.358587741851807, -1.8374372720718384, 1.1075468063354492, -0.01904296875, 0.00927734375, 0.66845703125, 0, 
267, 1901020783, -90.33599090576172, 71.83605194091797, -26.487262725830078, -6.959458827972412, -0.4993917942047119, 1.8459856510162354, 3.465670347213745, -3.0899479389190674, 0.2714981138706207, -0.01611328125, 0.001953125, 0.6494140625, 0, 
268, 1901029116, -90.37232971191406, 71.83147430419922, -26.500856399536133, -7.200738430023193, -1.4060128927230835, -0.32149168848991394, 0.3418603539466858, -0.9672958850860596, 0.5336597561836243, -0.013671875, 0.00048828125, 0.6376953125, 0, 
269, 1901037449, -90.42951965332031, 71.8310546875, -26.54804801940918, -10.082237243652344, -4.273778438568115, -0.36754369735717773, 1.7066636085510254, 0.2352539449930191, 1.037747859954834, -0.0126953125, 0.00439453125, 0.6416015625, 0, 
270, 1901045782, -90.41870880126953, 71.83907318115234, -26.541488647460938, -11.757574081420898, -5.5933613777160645, -0.8332874774932861, 3.7037546634674072, -1.733212947845459, 2.0446178913116455, -0.015625, 0.005859375, 0.646484375, 0, 
271, 1901054115, -90.38783264160156, 71.84466552734375, -26.5301513671875, -10.220422744750977, -3.630833625793457, -0.3648228645324707, 5.558993816375732, -1.975959062576294, 1.7397828102111816, -0.01806640625, 0.01220703125, 0.65966796875, 0, 
272, 1901062448, -90.33406066894531, 71.83940887451172, -26.48014259338379, -7.654736518859863, -0.992333710193634, 0.7435898780822754, 3.673785448074341, -3.490093469619751, 0.43696603178977966, -0.01904296875, 0.00732421875, 0.65673828125, 0, 
273, 1901070781, -90.3548812866211, 71.83374786376953, -26.494884490966797, -6.843627452850342, -0.7428349256515503, 0.1719915270805359, 2.3375933170318604, -0.9241615533828735, 0.4085342288017273, -0.015625, 0.0029296875, 0.63916015625, 0, 
274, 1901079114, -90.41944885253906, 71.83092498779297, -26.53569984436035, -8.989787101745605, -3.1884231567382812, 0.5293104648590088, 0.060283102095127106, 0.05060092732310295, 0.7537373900413513, -0.01318359375, 0.00146484375, 0.64404296875, 0, 
275, 1901087447, -90.42577362060547, 71.83477783203125, -26.556961059570312, -11.406221389770508, -5.594573020935059, -1.964148998260498, 2.955357789993286, -1.3626261949539185, 1.5328967571258545, -0.015625, 0.00634765625, 0.64892578125, 0, 
276, 1901095780, -90.39479064941406, 71.84309387207031, -26.54234504699707, -10.964958190917969, -4.59981107711792, 0.5272455215454102, 5.206413745880127, -2.0346667766571045, 2.0752780437469482, -0.01611328125, 0.0107421875, 0.65625, 0, 
277, 1901104113, -90.35992431640625, 71.84129333496094, -26.520750045776367, -8.673877716064453, -2.0508148670196533, -0.989514946937561, 4.628300189971924, -2.4343254566192627, 0.8529155850410461, -0.017578125, 0.01171875, 0.66650390625, 0, 
278, 1901112446, -90.35012817382812, 71.83515167236328, -26.514564514160156, -6.761397361755371, -0.3552948236465454, 1.4720380306243896, 3.7062129974365234, -1.7496827840805054, 0.34590741991996765, -0.01904296875, 0.00146484375, 0.6455078125, 0, 
279, 1901120779, -90.3966064453125, 71.83147430419922, -26.530580520629883, -7.920328617095947, -2.0328307151794434, 0.26767370104789734, -0.6006025671958923, -0.8780047297477722, 0.6409065127372742, -0.0146484375, 0.00341796875, 0.638671875, 0, 
280, 1901129112, -90.42623138427734, 71.83226013183594, -26.556154251098633, -10.756087303161621, -5.091670989990234, -1.3261241912841797, 2.518327474594116, -0.5230682492256165, 1.185080885887146, -0.0146484375, 0.00537109375, 0.64501953125, 0, 
281, 1901137445, -90.41448974609375, 71.84129333496094, -26.539154052734375, -11.625926971435547, -5.186678409576416, 0.2633841633796692, 4.113735675811768, -1.6996327638626099, 2.153247833251953, -0.0166015625, 0.0078125, 0.650390625, 0, 
282, 1901145778, -90.38629913330078, 71.84412384033203, -26.529775619506836, -9.577762603759766, -3.0158801078796387, -1.11844801902771, 5.46724271774292, -1.8351832628250122, 1.4248303174972534, -0.0166015625, 0.0107421875, 0.66259765625, 0, 
283, 1901154111, -90.33735656738281, 71.83758544921875, -26.47667694091797, -7.06735372543335, -0.6504324078559875, 1.6138209104537964, 3.2501776218414307, -3.434945821762085, 0.2772356867790222, -0.01708984375, 0.00146484375, 0.65380859375, 0, 
284, 1901162444, -90.37120819091797, 71.83248901367188, -26.494279861450195, -7.137392997741699, -1.1853476762771606, -0.465421199798584, 1.1001697778701782, -0.8169659376144409, 0.47618141770362854, -0.0126953125, 0.00048828125, 0.6376953125, 0, 
285, 1901170777, -90.4329833984375, 71.83087921142578, -26.547924041748047, -9.788386344909668, -3.9299004077911377, 0.2934449315071106, 1.289254069328308, 0.27943846583366394, 0.887878954410553, -0.01708984375, 0.00390625, 0.64453125, 0, 
286, 1901179110, -90.42645263671875, 71.83777618408203, -26.541662216186523, -11.654476165771484, -5.65775203704834, -1.5191856622695923, 3.2247679233551025, -1.7226595878601074, 1.9124995470046997, -0.01416015625, 0.00634765625, 0.6494140625, 0, 
287, 1901187443, -90.38818359375, 71.84465026855469, -26.52535629272461, -10.44994068145752, -3.99810528755188, 0.09193750470876694, 5.696823596954346, -2.2230336666107178, 1.8936731815338135, -0.01904296875, 0.01025390625, 0.6591796875, 0, 
288, 1901195776, -90.34042358398438, 71.84032440185547, -26.481172561645508, -8.088229179382324, -1.2622230052947998, 0.3216382563114166, 3.8497047424316406, -3.1308536529541016, 0.5537157654762268, -0.02001953125, 0.00146484375, 0.65234375, 0, 
289, 1901204109, -90.35443878173828, 71.83351135253906, -26.489837646484375, -6.6816725730896, -0.593539834022522, 0.3057108521461487, 3.0123236179351807, -1.0376838445663452, 0.26888543367385864, -0.0166015625, -0.0048828125, 0.6337890625, 0, 
290, 1901212442, -90.41421508789062, 71.83031463623047, -26.520708084106445, -8.611529350280762, -2.825265645980835, 0.6838976144790649, -0.49681365489959717, -0.3223295211791992, 0.7055312395095825, -0.01904296875, -0.00244140625, 0.6279296875, 0, 
291, 1901220775, -90.42550659179688, 71.83399200439453, -26.529298782348633, -11.142672538757324, -5.426831245422363, -2.0104105472564697, 2.8003151416778564, -1.2196986675262451, 1.5191164016723633, -0.0185546875, 0.001953125, 0.6376953125, 0, 
292, 1901229108, -90.40086364746094, 71.84339904785156, -26.519222259521484, -11.325027465820312, -4.777836799621582, 0.7586778402328491, 4.961617946624756, -1.8664836883544922, 2.207242727279663, -0.021484375, 0.0048828125, 0.64404296875, 0, 
293, 1901237441, -90.37004089355469, 71.84213256835938, -26.511043548583984, -9.061046600341797, -2.4930131435394287, -1.3934998512268066, 4.956930637359619, -2.1669132709503174, 0.9182575941085815, -0.02099609375, 0.0078125, 0.65380859375, 0, 
294, 1901245774, -90.34536743164062, 71.83522033691406, -26.499120712280273, -6.938380718231201, -0.4142727255821228, 1.8006445169448853, 3.691075563430786, -2.3348143100738525, 0.24263086915016174, -0.01708984375, -0.0029296875, 0.63671875, 0, 
295, 1901254107, -90.38495635986328, 71.83184051513672, -26.510786056518555, -7.525448799133301, -1.7378761768341064, -0.0540325753390789, -0.2667210102081299, -1.043370246887207, 0.6790462136268616, -0.015625, -0.00390625, 0.62548828125, 0, 
296, 1901262440, -90.43238830566406, 71.83184051513672, -26.551050186157227, -10.363343238830566, -4.565765857696533, -0.8505141735076904, 2.0530452728271484, 0.0286751389503479, 1.0906926393508911, -0.01708984375, 0, 0.63623046875, 0, 
297, 1901270773, -90.42379760742188, 71.83984375, -26.551515579223633, -11.59298324584961, -5.390097141265869, -0.31597283482551575, 3.8115389347076416, -1.6797560453414917, 2.0380609035491943, -0.01904296875, 0.00244140625, 0.6396484375, 0, 
298, 1901279106, -90.39039611816406, 71.84354400634766, -26.5388240814209, -9.940112113952637, -3.4085936546325684, -0.90232914686203, 5.716854095458984, -1.9586950540542603, 1.523829460144043, -0.02099609375, 0.0078125, 0.6533203125, 0, 
299, 1901287439, -90.34178924560547, 71.8370361328125, -26.494569778442383, -7.339485168457031, -0.8244571089744568, 1.3468950986862183, 3.3486642837524414, -3.387918472290039, 0.28153887391090393, -0.0185546875, 0.00146484375, 0.6455078125, 0, 
300, 1901295772, -90.37057495117188, 71.83206176757812, -26.51263999938965, -7.051934242248535, -0.8265981078147888, -0.253468781709671, 1.7823792695999146, -0.8569241762161255, 0.4828154444694519, -0.013671875, -0.00244140625, 0.62744140625, 0, 
301, 1901304105, -90.43441009521484, 71.83024597167969, -26.558191299438477, -9.399014472961426, -3.653965473175049, 0.5804675221443176, 0.6900346279144287, 0.22700613737106323, 0.877044141292572, -0.0166015625, 0.00390625, 0.6318359375, 0, 
302, 1901312438, -90.43490600585938, 71.83622741699219, -26.559917449951172, -11.583905220031738, -5.728662967681885, -1.816079020500183, 3.2932090759277344, -1.4228705167770386, 1.8037415742874146, -0.01953125, 0.00341796875, 0.638671875, 0, 
303, 1901320771, -90.39695739746094, 71.84417724609375, -26.536169052124023, -10.70599365234375, -4.210982322692871, 0.4606419801712036, 5.514194488525391, -2.270599603652954, 2.021718978881836, -0.017578125, 0.005859375, 0.6513671875, 0, 
304, 1901329104, -90.35009765625, 71.83991241455078, -26.494976043701172, -8.377037048339844, -1.4992254972457886, -0.3534625470638275, 4.077645301818848, -3.0192267894744873, 0.5579420328140259, -0.02294921875, 0.00341796875, 0.65380859375, 0, 
305, 1901337437, -90.35772705078125, 71.83379364013672, -26.506484985351562, -6.654144287109375, -0.5000941753387451, 0.8355722427368164, 3.1746151447296143, -1.2340937852859497, 0.34790530800819397, -0.01513671875, -0.001953125, 0.63232421875, 0, 
306, 1901345770, -90.41842651367188, 71.83035278320312, -26.525665283203125, -8.262985229492188, -2.5311050415039062, 0.43919169902801514, -0.8084108233451843, -0.44909438490867615, 0.6650863885879517, -0.01953125, 0.00048828125, 0.62890625, 0, 
307, 1901354103, -90.43980407714844, 71.83311462402344, -26.54499053955078, -10.962532997131348, -5.373958110809326, -1.7710057497024536, 2.791400909423828, -0.760102391242981, 1.4214235544204712, -0.01806640625, 0.001953125, 0.63427734375, 0, 
308, 1901362436, -90.42021179199219, 71.84175109863281, -26.537891387939453, -11.543451309204102, -4.902716159820557, 0.6122616529464722, 4.694692611694336, -1.753832221031189, 2.1136481761932373, -0.01806640625, 0.005859375, 0.642578125, 0, 
309, 1901370769, -90.39363861083984, 71.8419418334961, -26.52403450012207, -9.329724311828613, -2.6367244720458984, -1.3098101615905762, 5.172115802764893, -1.9345920085906982, 1.1016554832458496, -0.02392578125, 0.0048828125, 0.65185546875, 0, 
310, 1901379102, -90.35417175292969, 71.83451843261719, -26.485166549682617, -6.951140880584717, -0.4827615022659302, 1.8048293590545654, 3.459343671798706, -2.9293978214263916, 0.1843840777873993, -0.0166015625, -0.00244140625, 0.6376953125, 0, 
311, 1901387435, -90.39664459228516, 71.82939910888672, -26.510805130004883, -7.282538414001465, -1.6040464639663696, -0.20444971323013306, 0.03156954422593117, -0.8913241028785706, 0.4584563970565796, -0.01513671875, -0.00390625, 0.62744140625, 0, 
312, 1901395768, -90.4510269165039, 71.82948303222656, -26.566171646118164, -10.148356437683105, -4.38847541809082, -0.5836001038551331, 1.9054559469223022, 0.18602339923381805, 1.101091980934143, -0.0146484375, 0, 0.6318359375, 0, 
313, 1901404101, -90.44276428222656, 71.83808135986328, -26.562868118286133, -11.739092826843262, -5.501283168792725, -0.5977606773376465, 3.770787000656128, -1.612672209739685, 2.11198353767395, -0.01806640625, 0.00341796875, 0.63720703125, 0, 
314, 1901412434, -90.41079711914062, 71.84331512451172, -26.55191421508789, -10.16440200805664, -3.541961431503296, -0.6294251680374146, 5.74039363861084, -1.8958120346069336, 1.708123803138733, -0.02197265625, 0.01025390625, 0.65234375, 0, 
315, 1901420767, -90.35594177246094, 71.83736419677734, -26.49961280822754, -7.593555450439453, -0.9427785873413086, 1.1230900287628174, 3.556267261505127, -3.5680627822875977, 0.34444740414619446, -0.01806640625, 0.0029296875, 0.64794921875, 0, 
316, 1901429100, -90.37954711914062, 71.8323745727539, -26.514179229736328, -6.839179515838623, -0.7349114418029785, -0.03394055366516113, 1.9838353395462036, -0.9303858876228333, 0.48601725697517395, -0.01708984375, -0.00439453125, 0.62744140625, 0, 
317, 1901437433, -90.44648742675781, 71.83033752441406, -26.560070037841797, -9.095075607299805, -3.3717000484466553, 0.5112637281417847, 0.3755943179130554, 0.1783134937286377, 0.8478951454162598, -0.01513671875, 0.001953125, 0.63330078125, 0, 
318, 1901445766, -90.44914245605469, 71.83587646484375, -26.5612735748291, -11.451258659362793, -5.640077590942383, -1.8416082859039307, 3.0562775135040283, -1.475149393081665, 1.735069751739502, -0.01708984375, 0.00390625, 0.63916015625, 0, 
319, 1901454099, -90.41407775878906, 71.84355926513672, -26.544118881225586, -10.867812156677246, -4.431096076965332, 0.3321075439453125, 5.408945083618164, -2.1318726539611816, 2.000561475753784, -0.02099609375, 0.00732421875, 0.6484375, 0, 
320, 1901462432, -90.37144470214844, 71.83997344970703, -26.51019859313965, -8.569046974182129, -1.8340930938720703, -0.637553334236145, 4.403458118438721, -2.74802303314209, 0.6454659104347229, -0.02294921875, 0.00390625, 0.65673828125, 0, 
321, 1901470765, -90.3672103881836, 71.83333587646484, -26.513505935668945, -6.6619873046875, -0.4358064532279968, 1.1165851354599, 3.5224053859710693, -1.5856491327285767, 0.27800410985946655, -0.01708984375, -0.00146484375, 0.63818359375, 0, 
322, 1901479098, -90.41938781738281, 71.83013916015625, -26.536258697509766, -8.06802749633789, -2.254397392272949, 0.386396586894989, -0.5142569541931152, -0.6270108222961426, 0.7029185891151428, -0.0146484375, -0.00244140625, 0.62939453125, 0, 
323, 1901487431, -90.447509765625, 71.8319091796875, -26.572460174560547, -10.938218116760254, -5.196389198303223, -1.472657322883606, 2.6123573780059814, -0.6123851537704468, 1.2940183877944946, -0.0205078125, 0.001953125, 0.6376953125, 0, 
324, 1901495764, -90.43002319335938, 71.84088897705078, -26.56659698486328, -11.586068153381348, -5.040233612060547, 0.37080708146095276, 4.378689289093018, -1.8422268629074097, 2.149585008621216, -0.0185546875, 0.00146484375, 0.64404296875, 0, 
325, 1901504097, -90.4023666381836, 71.84210205078125, -26.556398391723633, -9.436685562133789, -2.8340253829956055, -1.2207181453704834, 5.312840461730957, -1.8640246391296387, 1.2247318029403687, -0.01953125, 0.0068359375, 0.65625, 0, 
326, 1901512430, -90.35841369628906, 71.8351058959961, -26.510990142822266, -6.962615489959717, -0.46999719738960266, 1.7883232831954956, 3.249767780303955, -3.175422430038452, 0.23276938498020172, -0.01806640625, -0.00146484375, 0.64013671875, 0, 
327, 1901520763, -90.39199829101562, 71.8304214477539, -26.533031463623047, -7.235250949859619, -1.3443483114242554, -0.4442344009876251, 0.6825809478759766, -1.0319206714630127, 0.5195462703704834, -0.01513671875, -0.00439453125, 0.62646484375, 0, 
328, 1901529096, -90.44864654541016, 71.8286361694336, -26.57840347290039, -10.014848709106445, -4.258056163787842, -0.11196460574865341, 1.533793330192566, 0.21993663907051086, 0.8844980597496033, -0.0205078125, 0.00244140625, 0.6328125, 0, 
329, 1901537429, -90.445556640625, 71.83689880371094, -26.598421096801758, -11.723180770874023, -5.597171306610107, -1.1024432182312012, 3.485649347305298, -1.5625708103179932, 2.058091163635254, -0.0166015625, 0.0029296875, 0.63916015625, 0, 
330, 1901545762, -90.41004180908203, 71.8432388305664, -26.580549240112305, -10.295866012573242, -3.7378265857696533, -0.26726746559143066, 5.854606628417969, -2.062560558319092, 1.83493971824646, -0.02099609375, 0.0048828125, 0.6533203125, 0, 
331, 1901554095, -90.35284423828125, 71.83777618408203, -26.525203704833984, -7.802371501922607, -1.0699671506881714, 0.69648677110672, 3.7082369327545166, -3.5490829944610596, 0.4140925705432892, -0.0205078125, 0.00146484375, 0.64892578125, 0, 
332, 1901562428, -90.37002563476562, 71.83211517333984, -26.538633346557617, -6.688539505004883, -0.6177704930305481, 0.22316960990428925, 2.6276235580444336, -0.9742631316184998, 0.4121202528476715, -0.01611328125, -0.00439453125, 0.626953125, 0, 
333, 1901570761, -90.43177032470703, 71.82987976074219, -26.578445434570312, -8.83803939819336, -3.178072929382324, 0.5847805142402649, -0.1357298344373703, -0.18777795135974884, 0.8100373148918152, -0.0185546875, 0.00146484375, 0.63037109375, 0, 
334, 1901579094, -90.43790435791016, 71.83519744873047, -26.58247184753418, -11.431943893432617, -5.580324649810791, -1.8908592462539673, 2.8787455558776855, -1.3341176509857178, 1.7229031324386597, -0.02001953125, 0.00146484375, 0.63525390625, 0, 
335, 1901587427, -90.40726470947266, 71.84416198730469, -26.567609786987305, -11.136991500854492, -4.559379577636719, 0.6214358806610107, 5.199241638183594, -2.0909669399261475, 2.1479456424713135, -0.0205078125, 0.0087890625, 0.64453125, 0, 
336, 1901595760, -90.3713607788086, 71.84168243408203, -26.55205726623535, -8.802680015563965, -2.0974390506744385, -0.9808648824691772, 4.596051216125488, -2.484837055206299, 0.772845447063446, -0.01953125, 0.0078125, 0.64990234375, 0, 
337, 1901604093, -90.3538589477539, 71.8358154296875, -26.537275314331055, -6.758520126342773, -0.4463938772678375, 1.312065601348877, 3.5707650184631348, -2.0305683612823486, 0.3781045377254486, -0.0185546875, -0.00439453125, 0.634765625, 0, 
338, 1901612426, -90.40445709228516, 71.83142852783203, -26.55813217163086, -7.805532932281494, -2.0098631381988525, 0.2558715045452118, -0.5409469604492188, -0.6949909925460815, 0.5568662285804749, -0.01904296875, -0.0029296875, 0.62744140625, 0, 
339, 1901620759, -90.44429016113281, 71.83240509033203, -26.592418670654297, -10.607243537902832, -4.868535041809082, -1.304714322090149, 2.3066258430480957, -0.25624480843544006, 1.2028316259384155, -0.0166015625, 0.00244140625, 0.63525390625, 0, 
340, 1901629092, -90.43025970458984, 71.84090423583984, -26.59269905090332, -11.596348762512207, -5.274147987365723, -0.018583916127681732, 4.30630350112915, -1.72857666015625, 2.0912866592407227, -0.017578125, 0.009765625, 0.65283203125, 0, 
341, 1901637425, -90.40513610839844, 71.843505859375, -26.588741302490234, -9.663239479064941, -3.1560981273651123, -1.053982138633728, 5.7176995277404785, -1.6308584213256836, 1.3954508304595947, -0.0146484375, 0.01513671875, 0.66845703125, 0, 
342, 1901645758, -90.3569564819336, 71.83686065673828, -26.539730072021484, -7.208191394805908, -0.5824671387672424, 1.603524088859558, 3.3486130237579346, -3.3092823028564453, 0.27131882309913635, -0.0146484375, 0.00634765625, 0.66064453125, 0, 
343, 1901654091, -90.38890075683594, 71.83152770996094, -26.560884475708008, -7.148587226867676, -1.068734884262085, -0.2784029543399811, 1.0864661931991577, -0.9645294547080994, 0.4404239356517792, -0.013671875, 0.001953125, 0.642578125, 0, 
344, 1901662424, -90.44935607910156, 71.83070373535156, -26.607675552368164, -9.68503475189209, -4.0368218421936035, 0.2167244553565979, 1.235899567604065, 0.27108824253082275, 0.9999157190322876, -0.0126953125, 0.0068359375, 0.6474609375, 0, 
345, 1901670757, -90.44962310791016, 71.83697509765625, -26.612239837646484, -11.673456192016602, -5.649826526641846, -1.3194553852081299, 3.2372934818267822, -1.5134426355361938, 1.8224910497665405, -0.01708984375, 0.00634765625, 0.65185546875, 0, 
346, 1901679090, -90.41621398925781, 71.84366607666016, -26.599550247192383, -10.51087760925293, -3.901883363723755, -0.01455389242619276, 5.703637599945068, -2.030799150466919, 1.8759225606918335, -0.01708984375, 0.01171875, 0.66259765625, 0, 
347, 1901687423, -90.3664779663086, 71.83905792236328, -26.553369522094727, -8.098677635192871, -1.3123395442962646, 0.1813434660434723, 3.8569788932800293, -3.2053909301757812, 0.5167288184165955, -0.02001953125, 0.009765625, 0.66552734375, 0, 
348, 1901695756, -90.37545013427734, 71.83289337158203, -26.5616455078125, -6.615661144256592, -0.6831583976745605, 0.32323387265205383, 3.0227744579315186, -1.166369915008545, 0.34790536761283875, -0.0126953125, 0.0009765625, 0.64306640625, 0, 
349, 1901704089, -90.43270111083984, 71.83013153076172, -26.590085983276367, -8.537755012512207, -2.7564125061035156, 0.64568692445755, -0.3965083360671997, -0.45252665877342224, 0.7514063715934753, -0.013671875, 0.0029296875, 0.6455078125, 0, 
350, 1901712422, -90.44379425048828, 71.833251953125, -26.598552703857422, -11.208270072937012, -5.394276142120361, -2.0298891067504883, 2.7875585556030273, -1.1681115627288818, 1.4579493999481201, -0.015625, 0.005859375, 0.64794921875, 0, 
351, 1901720755, -90.42149353027344, 71.84226989746094, -26.592344284057617, -11.32198429107666, -4.83116340637207, 0.757005512714386, 4.918099403381348, -1.8518325090408325, 2.153042793273926, -0.01611328125, 0.01025390625, 0.658203125, 0, 
352, 1901729088, -90.39852905273438, 71.84203338623047, -26.588115692138672, -9.025247573852539, -2.4673426151275635, -1.2816799879074097, 4.859007358551025, -1.8893827199935913, 1.043229341506958, -0.01904296875, 0.01025390625, 0.6669921875, 0, 
353, 1901737421, -90.36848449707031, 71.83525085449219, -26.561492919921875, -6.870543956756592, -0.3607984185218811, 1.8336195945739746, 3.7267560958862305, -2.4725677967071533, 0.26460787653923035, -0.015625, 0.00390625, 0.6455078125, 0, 
354, 1901745754, -90.40682983398438, 71.83114624023438, -26.571805953979492, -7.551063060760498, -1.7185420989990234, -0.11903761327266693, -0.27297088503837585, -1.0901674032211304, 0.5879619717597961, -0.01416015625, 0.0009765625, 0.6396484375, 0, 
355, 1901754087, -90.45186614990234, 71.83103942871094, -26.610342025756836, -10.377326011657715, -4.65286922454834, -0.8421643376350403, 2.146639585494995, -0.1018165871500969, 1.074863076210022, -0.015625, 0.0048828125, 0.6435546875, 0, 
356, 1901762420, -90.44024658203125, 71.8389892578125, -26.603525161743164, -11.657215118408203, -5.402313232421875, -0.2978594899177551, 3.770479679107666, -1.7447906732559204, 2.0364725589752197, -0.015625, 0.009765625, 0.65283203125, 0, 
357, 1901770753, -90.41558074951172, 71.84374237060547, -26.59860610961914, -9.962657928466797, -3.4177451133728027, -0.9301902651786804, 5.695517063140869, -1.6882342100143433, 1.6418083906173706, -0.01953125, 0.01220703125, 0.6640625, 0, 
358, 1901779086, -90.36394500732422, 71.83706665039062, -26.54896354675293, -7.411252975463867, -0.8245473504066467, 1.3314707279205322, 3.5221753120422363, -3.453157663345337, 0.26637524366378784, -0.01513671875, 0.00537109375, 0.65966796875, 0, 
359, 1901787419, -90.39273071289062, 71.8332748413086, -26.56834602355957, -6.947314262390137, -0.8913367390632629, -0.22453463077545166, 1.9102967977523804, -0.7516240477561951, 0.6301741600036621, -0.01318359375, 0.00048828125, 0.64013671875, 0, 
360, 1901795752, -90.45926666259766, 71.8305892944336, -26.61546516418457, -9.35194206237793, -3.4359681606292725, 0.6585193276405334, 0.5443409085273743, 0.2858932912349701, 0.7756630182266235, -0.01416015625, 0.00341796875, 0.63916015625, 0, 
361, 1901804085, -90.4619140625, 71.83610534667969, -26.619115829467773, -11.537219047546387, -5.631682395935059, -1.9473192691802979, 3.1578636169433594, -1.4472297430038452, 1.7376824617385864, -0.013671875, 0.0068359375, 0.6513671875, 0, 
362, 1901812418, -90.42683410644531, 71.84361267089844, -26.60231590270996, -10.715241432189941, -4.317291259765625, 0.5194311738014221, 5.447264194488525, -2.1169655323028564, 1.9774830341339111, -0.01708984375, 0.00927734375, 0.658203125, 0, 
363, 1901820751, -90.38225555419922, 71.83972930908203, -26.574037551879883, -8.38706111907959, -1.7309284210205078, -0.5618214011192322, 4.272492408752441, -2.931830883026123, 0.595774233341217, -0.01708984375, 0.00927734375, 0.66455078125, 0, 
364, 1901829084, -90.38433837890625, 71.83320617675781, -26.579248428344727, -6.718006134033203, -0.47635170817375183, 0.9649591445922852, 3.584929943084717, -1.317596197128296, 0.2967537045478821, -0.0126953125, 0.00048828125, 0.64453125, 0, 
365, 1901837417, -90.43982696533203, 71.82998657226562, -26.603391647338867, -8.277091979980469, -2.3623621463775635, 0.48786649107933044, -0.7493700385093689, -0.575090765953064, 0.7044554352760315, -0.0146484375, 0.00341796875, 0.6396484375, 0, 
366, 1901845750, -90.46395874023438, 71.83238983154297, -26.62373161315918, -10.971719741821289, -5.284223556518555, -1.6503969430923462, 2.578392744064331, -0.7208101749420166, 1.3799540996551514, -0.0146484375, 0.0068359375, 0.64794921875, 0, 
367, 1901854083, -90.44549560546875, 71.84199523925781, -26.622447967529297, -11.48149585723877, -5.053447246551514, 0.5443338751792908, 4.476228713989258, -1.8491170406341553, 2.2241995334625244, -0.0166015625, 0.00732421875, 0.65283203125, 0, 
368, 1901862416, -90.4215316772461, 71.84370422363281, -26.61471176147461, -9.314599990844727, -2.755894899368286, -1.3139970302581787, 5.1472954750061035, -1.772709846496582, 1.2870255708694458, -0.017578125, 0.0107421875, 0.66748046875, 0, 
369, 1901870749, -90.38397979736328, 71.83721160888672, -26.581493377685547, -7.0319719314575195, -0.394538938999176, 1.8831816911697388, 3.49141263961792, -2.908240556716919, 0.2830757200717926, -0.01513671875, 0.00439453125, 0.6533203125, 0, 
370, 1901879082, -90.42192840576172, 71.83184051513672, -26.597043991088867, -7.353902339935303, -1.4488798379898071, -0.5257840156555176, 0.4126325249671936, -0.9466766119003296, 0.4381955564022064, -0.013671875, 0.00048828125, 0.638671875, 0, 
371, 1901887415, -90.47858428955078, 71.83059692382812, -26.644046783447266, -10.02963924407959, -4.327011585235596, -0.13594354689121246, 1.7137330770492554, 0.28146201372146606, 0.9399271011352539, -0.01806640625, 0.0068359375, 0.6435546875, 0, 
372, 1901895748, -90.46833038330078, 71.83848571777344, -26.635093688964844, -11.61286735534668, -5.505120754241943, -0.9240136742591858, 3.3653135299682617, -1.824450969696045, 2.028865337371826, -0.0166015625, 0.00634765625, 0.6494140625, 0, 
373, 1901904081, -90.43316650390625, 71.84504699707031, -26.621469497680664, -10.264198303222656, -3.6783463954925537, -0.35255274176597595, 5.78170919418335, -2.071704864501953, 1.8529976606369019, -0.01806640625, 0.009765625, 0.6630859375, 0, 
374, 1901912414, -90.38023376464844, 71.8396224975586, -26.570411682128906, -7.858183860778809, -1.1395353078842163, 0.7668842673301697, 3.6852355003356934, -3.387918472290039, 0.4229038655757904, -0.0205078125, 0.00732421875, 0.66015625, 0, 
375, 1901920747, -90.40143585205078, 71.83372497558594, -26.59222984313965, -6.740286350250244, -0.805223822593689, 0.0282420814037323, 2.839606761932373, -0.8132262825965881, 0.37907785177230835, -0.013671875, -0.0029296875, 0.64013671875, 0, 
376, 1901929080, -90.46249389648438, 71.83104705810547, -26.655656814575195, -8.84754467010498, -3.005967855453491, 0.7698605060577393, -0.1434653401374817, -0.21674767136573792, 0.7524309754371643, -0.01513671875, 0.0068359375, 0.64111328125, 0, 
377, 1901937413, -90.4688720703125, 71.83512878417969, -26.661468505859375, -11.316488265991211, -5.409291744232178, -2.1043248176574707, 3.0524351596832275, -1.2684423923492432, 1.5747244358062744, -0.0166015625, 0.00732421875, 0.64697265625, 0, 
378, 1901945746, -90.43705749511719, 71.84408569335938, -26.644622802734375, -11.09088134765625, -4.663311004638672, 0.8053467869758606, 5.052292823791504, -2.1209099292755127, 2.151813507080078, -0.01611328125, 0.01220703125, 0.65673828125, 0, 
379, 1901954079, -90.40581512451172, 71.84272766113281, -26.633960723876953, -8.799577713012695, -2.2566311359405518, -1.2065469026565552, 4.523665904998779, -2.3264641761779785, 0.904041588306427, -0.02099609375, 0.0126953125, 0.66357421875, 0, 
380, 1901962412, -90.38819122314453, 71.83650207519531, -26.62017059326172, -6.881819725036621, -0.36898237466812134, 1.578132152557373, 3.6963775157928467, -1.99183988571167, 0.33189648389816284, -0.01513671875, -0.00146484375, 0.64697265625, 0, 
381, 1901970745, -90.43590545654297, 71.83184051513672, -26.639429092407227, -7.851246356964111, -1.867550015449524, 0.20630230009555817, -0.5830568075180054, -0.890171468257904, 0.522261381149292, -0.01318359375, 0.00146484375, 0.64013671875, 0, 
382, 1901979078, -90.47543334960938, 71.83206176757812, -26.66064453125, -10.549078941345215, -4.874388217926025, -1.241646409034729, 2.188236713409424, -0.30596205592155457, 1.1095702648162842, -0.01708984375, 0.00341796875, 0.64501953125, 0, 
383, 1901987411, -90.46037292480469, 71.84065246582031, -26.653200149536133, -11.50899600982666, -5.3226494789123535, -0.0953940898180008, 4.111225605010986, -1.7680224180221558, 2.1098062992095947, -0.01953125, 0.00341796875, 0.65283203125, 0, 
384, 1901995744, -90.4354476928711, 71.84435272216797, -26.648971557617188, -9.71968936920166, -3.1918747425079346, -1.0790783166885376, 5.663601875305176, -1.6424616575241089, 1.5277996063232422, -0.0205078125, 0.00830078125, 0.6640625, 0, 
385, 1902004077, -90.3880615234375, 71.83695220947266, -26.598220825195312, -7.207576751708984, -0.5893266201019287, 1.5407465696334839, 3.392310857772827, -3.3288261890411377, 0.1717306524515152, -0.01806640625, -0.0009765625, 0.650390625, 0, 
386, 1902012410, -90.41783905029297, 71.83263397216797, -26.61284065246582, -7.096585750579834, -1.0684988498687744, -0.3124862611293793, 1.2464526891708374, -0.9296173453330994, 0.5679060816764832, -0.017578125, -0.00390625, 0.62841796875, 0, 
387, 1902020743, -90.4847183227539, 71.830810546875, -26.668132781982422, -9.68233871459961, -3.938319683074951, 0.28796663880348206, 0.9776825904846191, 0.37982073426246643, 0.8700259923934937, -0.017578125, 0, 0.63037109375, 0, 
388, 1902029076, -90.48212432861328, 71.83819580078125, -26.667789459228516, -11.689756393432617, -5.747460842132568, -1.4305665493011475, 3.4422073364257812, -1.5620585680007935, 1.9652906656265259, -0.017578125, 0, 0.63623046875, 0, 
389, 1902037409, -90.44731140136719, 71.84488677978516, -26.650957107543945, -10.503746032714844, -3.9366207122802734, 0.18202587962150574, 5.413966178894043, -2.116478681564331, 1.877971887588501, -0.02001953125, 0.005859375, 0.65087890625, 0, 
390, 1902045742, -90.40105438232422, 71.84004211425781, -26.608713150024414, -8.118215560913086, -1.215500831604004, 0.14899307489395142, 3.890251636505127, -3.0582118034362793, 0.49293309450149536, -0.02099609375, 0.00439453125, 0.6494140625, 0, 
391, 1902054075, -90.41680908203125, 71.83289337158203, -26.629032135009766, -6.706418514251709, -0.6197941303253174, 0.440763384103775, 3.0309712886810303, -0.9584078788757324, 0.22318965196609497, -0.0146484375, -0.001953125, 0.6298828125, 0, 
392, 1902062408, -90.47360229492188, 71.83003997802734, -26.656396865844727, -8.492134094238281, -2.8617093563079834, 0.5568416714668274, -0.5385136604309082, -0.4537305533885956, 0.7477179169654846, -0.01708984375, -0.00146484375, 0.62841796875, 0, 
393, 1902070741, -90.4837417602539, 71.83311462402344, -26.6700496673584, -11.08990478515625, -5.4600749015808105, -2.013032913208008, 2.848982095718384, -1.2488733530044556, 1.439071774482727, -0.01953125, -0.001953125, 0.63427734375, 0, 
394, 1902079074, -90.46199798583984, 71.84249114990234, -26.663986206054688, -11.42286491394043, -4.766316890716553, 0.7734681963920593, 5.140072345733643, -1.762797236442566, 2.202657699584961, -0.02001953125, 0.00439453125, 0.63916015625, 0, 
395, 1902087407, -90.43095397949219, 71.84123229980469, -26.646648406982422, -9.112491607666016, -2.415532112121582, -1.3518785238265991, 4.901527404785156, -2.1285431385040283, 0.925685703754425, -0.02197265625, 0.0078125, 0.65283203125, 0, 
396, 1902095740, -90.4002456665039, 71.8349609375, -26.617429733276367, -6.833208084106445, -0.42493027448654175, 1.7982556819915771, 3.507524013519287, -2.5720791816711426, 0.32226550579071045, -0.017578125, -0.0029296875, 0.63330078125, 0, 
397, 1902104073, -90.4460220336914, 71.83097076416016, -26.652122497558594, -7.454721450805664, -1.7503292560577393, -0.03464836999773979, -0.40900805592536926, -0.9079989790916443, 0.5994882583618164, -0.01708984375, -0.00390625, 0.626953125, 0, 
398, 1902112406, -90.49066925048828, 71.8316650390625, -26.699886322021484, -10.32695484161377, -4.651463031768799, -0.9625120162963867, 2.275965690612793, -0.07581813633441925, 1.1683037281036377, -0.01953125, 0.00048828125, 0.6318359375, 0, 
399, 1902120739, -90.47469329833984, 71.84043884277344, -26.688827514648438, -11.709168434143066, -5.352530002593994, -0.14949771761894226, 3.8110783100128174, -1.9054430723190308, 2.1283254623413086, -0.01708984375, 0.00146484375, 0.638671875, 0, 
400, 1902129072, -90.44570922851562, 71.84378051757812, -26.680158615112305, -9.95112419128418, -3.3716042041778564, -0.906680703163147, 5.6435723304748535, -1.8077504634857178, 1.4814122915267944, -0.02099609375, 0.00830078125, 0.65185546875, 0, 
401, 1902137405, -90.39568328857422, 71.837646484375, -26.635051727294922, -7.411888599395752, -0.8476811647415161, 1.311806321144104, 3.491668224334717, -3.4007248878479004, 0.32759323716163635, -0.01708984375, 0.001953125, 0.64306640625, 0, 
402, 1902145738, -90.42523193359375, 71.83358001708984, -26.65291976928711, -6.963292121887207, -0.9027054309844971, -0.20980484783649445, 1.6492109298706055, -0.8091536164283752, 0.5990272760391235, -0.01611328125, -0.00439453125, 0.62744140625, 0, 
403, 1902154071, -90.49066162109375, 71.8314437866211, -26.700748443603516, -9.389058113098145, -3.5113234519958496, 0.45535045862197876, 0.7813237905502319, 0.25541236996650696, 0.8317583203315735, -0.01953125, -0.00048828125, 0.6328125, 0, 
404, 1902162404, -90.48887634277344, 71.83760833740234, -26.7006778717041, -11.544594764709473, -5.669194221496582, -1.7566823959350586, 3.2781991958618164, -1.5836511850357056, 1.8166511058807373, -0.01953125, 0.001953125, 0.640625, 0, 
405, 1902170737, -90.45555114746094, 71.8449935913086, -26.685813903808594, -10.62127685546875, -4.321184158325195, 0.28877753019332886, 5.458073616027832, -2.046065092086792, 1.9643174409866333, -0.02392578125, 0.0068359375, 0.65087890625, 0, 
406, 1902179070, -90.40764617919922, 71.84129333496094, -26.644508361816406, -8.34436321258545, -1.5276174545288086, -0.27343928813934326, 4.1960601806640625, -3.02396559715271, 0.6288166642189026, -0.0185546875, 0.00341796875, 0.654296875, 0, 
407, 1902187403, -90.41246795654297, 71.83507537841797, -26.664358139038086, -6.734183311462402, -0.477483332157135, 0.9220684766769409, 3.283271312713623, -1.3076324462890625, 0.32843855023384094, -0.0166015625, -0.00341796875, 0.6337890625, 0, 
408, 1902195736, -90.4700927734375, 71.83252716064453, -26.692222595214844, -8.328319549560547, -2.5005910396575928, 0.43856942653656006, -0.5833897590637207, -0.43508338928222656, 0.7839364409446716, -0.017578125, -0.0009765625, 0.6279296875, 0, 
409, 1902204069, -90.49317169189453, 71.83528137207031, -26.739343643188477, -11.025312423706055, -5.386118412017822, -1.6450148820877075, 2.668170690536499, -0.7983701229095459, 1.4110753536224365, -0.017578125, 0.0009765625, 0.63623046875, 0, 
410, 1902212402, -90.47306060791016, 71.84486389160156, -26.730915069580078, -11.494767189025879, -4.929689884185791, 0.4536188840866089, 4.600201606750488, -1.871453046798706, 2.217437267303467, -0.02197265625, 0.00390625, 0.64404296875, 0, 
411, 1902220735, -90.44437408447266, 71.84574890136719, -26.716754913330078, -9.298025131225586, -2.581908702850342, -1.2689088582992554, 4.983211040496826, -2.0144824981689453, 1.186259150505066, -0.0205078125, 0.0068359375, 0.65771484375, 0, 
412, 1902229068, -90.41051483154297, 71.83901977539062, -26.68422508239746, -6.872960090637207, -0.41981351375579834, 1.6977053880691528, 3.5100083351135254, -2.6932857036590576, 0.26793771982192993, -0.01904296875, -0.00341796875, 0.6396484375, 0, 
413, 1902237401, -90.44963073730469, 71.83404541015625, -26.700977325439453, -7.344160079956055, -1.6201046705245972, -0.3129511773586273, 0.21343061327934265, -0.9648882150650024, 0.4794856309890747, -0.0166015625, -0.001953125, 0.62646484375, 0, 
414, 1902245734, -90.49891662597656, 71.83353424072266, -26.741355895996094, -10.252379417419434, -4.494990825653076, -0.5489089488983154, 1.8459794521331787, 0.03067304566502571, 1.0365183353424072, -0.021484375, 0.00244140625, 0.6318359375, 0, 
415, 1902254067, -90.49105072021484, 71.8421630859375, -26.744462966918945, -11.77096176147461, -5.501758098602295, -0.6434769034385681, 3.8098487854003906, -1.6484297513961792, 2.105323553085327, -0.01611328125, 0.0048828125, 0.63427734375, 0, 
416, 1902262400, -90.45785522460938, 71.84785461425781, -26.741134643554688, -10.12064266204834, -3.5060036182403564, -0.5681175589561462, 5.847589015960693, -1.9785205125808716, 1.7575591802597046, -0.021484375, 0.0068359375, 0.650390625, 0, 
417, 1902270733, -90.40302276611328, 71.8421859741211, -26.686002731323242, -7.529150485992432, -0.9145357012748718, 1.0815260410308838, 3.44551157951355, -3.5384531021118164, 0.3839446008205414, -0.0205078125, 0.00146484375, 0.6435546875, 0, 
418, 1902279066, -90.42647552490234, 71.83727264404297, -26.701852798461914, -6.766867160797119, -0.765287458896637, 0.004494117572903633, 2.1494572162628174, -0.8831532597541809, 0.4989013075828552, -0.0185546875, -0.0048828125, 0.62548828125, 0, 
419, 1902287399, -90.4897232055664, 71.8346939086914, -26.744718551635742, -9.109482765197754, -3.4369843006134033, 0.4612728953361511, 0.34716251492500305, 0.024986684322357178, 0.7816311717033386, -0.01708984375, 0.001953125, 0.6318359375, 0, 
420, 1902295732, -90.49177551269531, 71.8399887084961, -26.74632453918457, -11.558856010437012, -5.678203582763672, -1.8469429016113281, 3.0928802490234375, -1.4273276329040527, 1.7210588455200195, -0.0185546875, 0.0029296875, 0.63720703125, 0, 
421, 1902304065, -90.45406341552734, 71.84769439697266, -26.726999282836914, -10.957561492919922, -4.385584354400635, 0.37825533747673035, 5.459328651428223, -2.279282569885254, 1.9855257272720337, -0.0205078125, 0.0048828125, 0.64892578125, 0, 
422, 1902312398, -90.41101837158203, 71.84354400634766, -26.697704315185547, -8.507438659667969, -1.7328530550003052, -0.5028197765350342, 4.318777561187744, -2.8544247150421143, 0.5708004236221313, -0.021484375, 0.00341796875, 0.6533203125, 0, 
423, 1902320731, -90.4097671508789, 71.83797454833984, -26.698898315429688, -6.678491592407227, -0.4277534484863281, 1.0210105180740356, 3.441720724105835, -1.4322967529296875, 0.41401568055152893, -0.0146484375, -0.00439453125, 0.63134765625, 0, 
424, 1902329064, -90.46420288085938, 71.83506774902344, -26.723867416381836, -8.065016746520996, -2.3045315742492676, 0.4099794924259186, -0.529753565788269, -0.5437389612197876, 0.7419546842575073, -0.01708984375, -0.00048828125, 0.62744140625, 0, 
425, 1902337397, -90.49156188964844, 71.83686065673828, -26.75325584411621, -10.909049987792969, -5.219298839569092, -1.653749704360962, 2.531083583831787, -0.6758828163146973, 1.2939927577972412, -0.0185546875, 0.00048828125, 0.6357421875, 0, 
426, 1902345730, -90.4637222290039, 71.84542083740234, -26.737157821655273, -11.48090934753418, -5.0995683670043945, 0.3280768394470215, 4.658857822418213, -2.0944247245788574, 2.106220245361328, -0.01904296875, 0.00439453125, 0.64453125, 0, 
427, 1902354063, -90.4395751953125, 71.8461685180664, -26.736452102661133, -9.369152069091797, -2.7546143531799316, -1.2088793516159058, 5.274828910827637, -1.8013978004455566, 1.157801866531372, -0.02099609375, 0.00927734375, 0.6552734375, 0, 
428, 1902362396, -90.40218353271484, 71.839599609375, -26.690752029418945, -6.934760093688965, -0.43111827969551086, 1.682138204574585, 3.429246664047241, -2.925555467605591, 0.2814876139163971, -0.015625, -0.00048828125, 0.64111328125, 0, 
429, 1902370729, -90.4356689453125, 71.83487701416016, -26.702434539794922, -7.286880016326904, -1.417199969291687, -0.2500419318675995, 0.46747255325317383, -1.039476752281189, 0.5194438695907593, -0.0166015625, -0.00439453125, 0.6298828125, 0, 
430, 1902379062, -90.48749542236328, 71.83414459228516, -26.743179321289062, -10.13258171081543, -4.404978275299072, -0.22685831785202026, 1.582383394241333, 0.04511946812272072, 1.0050129890441895, -0.02001953125, 0.00244140625, 0.634765625, 0, 
431, 1902387395, -90.4811782836914, 71.8425064086914, -26.750471115112305, -11.785895347595215, -5.647270202636719, -0.9684256911277771, 3.6989901065826416, -1.625658631324768, 2.077685832977295, -0.0166015625, 0.0048828125, 0.640625, 0, 
432, 1902395728, -90.4458236694336, 71.84761810302734, -26.73539161682129, -10.21677017211914, -3.644381523132324, -0.284288227558136, 5.675307750701904, -2.050906181335449, 1.6917051076889038, -0.021484375, 0.0087890625, 0.6572265625, 0, 
433, 1902404061, -90.39640045166016, 71.84151458740234, -26.689311981201172, -7.622082233428955, -0.9010477066040039, 0.7871701121330261, 3.594151496887207, -3.343221426010132, 0.32813116908073425, -0.017578125, 0.00244140625, 0.6513671875, 0, 
434, 1902412394, -90.4168701171875, 71.83565521240234, -26.7044620513916, -6.805912017822266, -0.7575668692588806, 0.11408814042806625, 2.4002461433410645, -0.9852259755134583, 0.3777715563774109, -0.0166015625, -0.01318359375, 0.62841796875, 0, 
435, 1902420727, -90.47805786132812, 71.83411407470703, -26.740745544433594, -8.946768760681152, -3.3615071773529053, 0.5631075501441956, -0.05463515967130661, -0.12182129174470901, 0.9050917625427246, -0.017578125, 0.0009765625, 0.63037109375, 0, 
436, 1902429060, -90.47994995117188, 71.83946228027344, -26.741500854492188, -11.478960990905762, -5.589015483856201, -1.875328779220581, 3.0172669887542725, -1.4585257768630981, 1.7255926132202148, -0.0166015625, 0.00732421875, 0.646484375, 0, 
437, 1902437393, -90.45106506347656, 71.84815979003906, -26.730928421020508, -11.117948532104492, -4.459557056427002, 0.47778332233428955, 5.368244647979736, -1.9660207033157349, 2.1168246269226074, -0.01513671875, 0.01220703125, 0.658203125, 0, 
438, 1902445726, -90.4072036743164, 71.84396362304688, -26.697431564331055, -8.743868827819824, -1.9997382164001465, -0.8269510269165039, 4.599330902099609, -2.730989933013916, 0.5682647228240967, -0.01416015625, 0.01025390625, 0.66748046875, 0, 
439, 1902454059, -90.3910903930664, 71.83763122558594, -26.69080924987793, -6.634825706481934, -0.49257081747055054, 1.2694445848464966, 3.5191779136657715, -2.0546457767486572, 0.3142482340335846, -0.013671875, 0.00341796875, 0.646484375, 0, 
440, 1902462392, -90.43832397460938, 71.83515167236328, -26.70758819580078, -7.880215644836426, -2.1177852153778076, 0.3219422996044159, -0.4827771484851837, -0.8770569562911987, 0.7757911086082458, -0.0146484375, 0.00390625, 0.638671875, 0, 
441, 1902470725, -90.46736907958984, 71.8376693725586, -26.731725692749023, -10.80449390411377, -5.051440238952637, -1.4770042896270752, 2.4241180419921875, -0.5813149809837341, 1.3949896097183228, -0.015625, 0.0078125, 0.64599609375, 0, 
442, 1902479058, -90.44422149658203, 71.84757995605469, -26.717906951904297, -11.60501766204834, -5.196734428405762, 0.3383861780166626, 4.353280067443848, -2.007899761199951, 2.266129732131958, -0.0146484375, 0.0048828125, 0.65625, 0, 
443, 1902487391, -90.41812896728516, 71.84839630126953, -26.71255874633789, -9.515604019165039, -2.9775288105010986, -1.1475133895874023, 5.400364398956299, -1.8397424221038818, 1.1706089973449707, -0.017578125, 0.01123046875, 0.6689453125, 0, 
444, 1902495724, -90.37702178955078, 71.84183502197266, -26.671039581298828, -7.102996826171875, -0.43402212858200073, 1.6859171390533447, 3.352480888366699, -3.0316240787506104, 0.2849711775779724, -0.01611328125, 0.0029296875, 0.65087890625, 0, 
445, 1902504057, -90.41300201416016, 71.8367919921875, -26.685810089111328, -7.255020618438721, -1.1758198738098145, -0.1732204705476761, 0.5476707816123962, -0.9815632104873657, 0.47925516963005066, -0.0126953125, 0.00048828125, 0.63671875, 0, 
446, 1902512390, -90.4664306640625, 71.83541870117188, -26.732471466064453, -9.855268478393555, -4.151854038238525, -0.15491779148578644, 1.5950368642807007, 0.04827002435922623, 0.9201785922050476, -0.01708984375, 0.00390625, 0.64208984375, 0, 
447, 1902520723, -90.45851135253906, 71.84249114990234, -26.727237701416016, -11.621888160705566, -5.7108893394470215, -1.1349551677703857, 3.507267713546753, -1.6843409538269043, 1.927484154701233, -0.01416015625, 0.005859375, 0.650390625, 0, 
448, 1902529056, -90.4274673461914, 71.84843444824219, -26.718570709228516, -10.33899211883545, -3.757859945297241, -0.3157837390899658, 5.890517711639404, -1.811233639717102, 1.7901657819747925, -0.01806640625, 0.01513671875, 0.662109375, 0, 
449, 1902537389, -90.37641143798828, 71.84236145019531, -26.671615600585938, -7.789060592651367, -0.9956535696983337, 0.6527912616729736, 3.6919972896575928, -3.3759562969207764, 0.3399136960506439, -0.015625, 0.009765625, 0.66015625, 0, 
450, 1902545722, -90.39759063720703, 71.83655548095703, -26.68875503540039, -6.727376461029053, -0.6572986841201782, 0.17804262042045593, 2.5714001655578613, -0.836355984210968, 0.38986146450042725, -0.0146484375, -0.00244140625, 0.63720703125, 0, 
451, 1902554055, -90.46635437011719, 71.83460235595703, -26.732351303100586, -8.842552185058594, -3.1639814376831055, 0.6791481375694275, -0.2595234513282776, 0.046323347836732864, 0.8493296504020691, -0.01416015625, 0.00390625, 0.63671875, 0, 
452, 1902562388, -90.47844696044922, 71.83885192871094, -26.745391845703125, -11.437640190124512, -5.592648506164551, -1.9558281898498535, 2.98161244392395, -1.1287169456481934, 1.5866097211837769, -0.0166015625, 0.0029296875, 0.64453125, 0, 
453, 1902570721, -90.45146179199219, 71.84703063964844, -26.73381233215332, -11.186044692993164, -4.54722785949707, 0.7607999444007874, 5.070119857788086, -1.9239875078201294, 2.062957763671875, -0.01806640625, 0.0078125, 0.6552734375, 0, 
454, 1902579054, -90.41436004638672, 71.843505859375, -26.706371307373047, -8.805488586425781, -2.0549447536468506, -1.1202219724655151, 4.4774065017700195, -2.5059428215026855, 0.6488212943077087, -0.02099609375, 0.0087890625, 0.66162109375, 0, 
455, 1902587387, -90.40068817138672, 71.83618927001953, -26.695138931274414, -6.620560646057129, -0.4165302813053131, 1.5548816919326782, 3.4522993564605713, -1.981389045715332, 0.19680698215961456, -0.0126953125, 0.0009765625, 0.6435546875, 0, 
456, 1902595720, -90.45088958740234, 71.83252716064453, -26.71758270263672, -7.7601704597473145, -2.0638954639434814, 0.09513254463672638, -0.5850803256034851, -0.7911723852157593, 0.6396257877349854, -0.01318359375, 0.00244140625, 0.63330078125, 0, 
457, 1902604053, -90.48723602294922, 71.83331298828125, -26.749126434326172, -10.699320793151855, -4.982639312744141, -1.2187267541885376, 2.389667510986328, -0.30017322301864624, 1.1803680658340454, -0.01611328125, 0.00732421875, 0.6455078125, 0, 
458, 1902612386, -90.47866821289062, 71.84221649169922, -26.748598098754883, -11.676774978637695, -5.272843360900879, 0.11584369093179703, 4.122239589691162, -1.5113422870635986, 2.1528124809265137, -0.01953125, 0.0048828125, 0.650390625, 0, 
459, 1902620719, -90.44967651367188, 71.84437561035156, -26.73244857788086, -9.655695915222168, -3.121123790740967, -1.134354829788208, 5.539731025695801, -1.9083629846572876, 1.3345142602920532, -0.01904296875, 0.009765625, 0.666015625, 0, 
460, 1902629052, -90.40470886230469, 71.83769989013672, -26.68665313720703, -7.149472713470459, -0.47861185669898987, 1.7691130638122559, 3.330606460571289, -3.1915338039398193, 0.2695770263671875, -0.01904296875, 0.00048828125, 0.64892578125, 0, 
461, 1902637385, -90.44347381591797, 71.83253479003906, -26.709163665771484, -7.032975673675537, -1.098719596862793, -0.367484450340271, 0.9381597638130188, -0.7418138980865479, 0.46224725246429443, -0.0126953125, 0.001953125, 0.63232421875, 0, 
462, 1902645718, -90.5068130493164, 71.8311767578125, -26.767017364501953, -9.718753814697266, -4.053158283233643, 0.08111324161291122, 1.192713975906372, 0.30863872170448303, 0.9239950180053711, -0.01513671875, 0.00390625, 0.640625, 0, 
463, 1902654051, -90.49917602539062, 71.83773803710938, -26.75965690612793, -11.706363677978516, -5.702528476715088, -1.1546299457550049, 3.236114978790283, -1.7654868364334106, 1.8711071014404297, -0.01708984375, 0.005859375, 0.64453125, 0, 
464, 1902662384, -90.46676635742188, 71.84391784667969, -26.74795913696289, -10.479657173156738, -3.9005491733551025, -0.14626680314540863, 5.705686569213867, -1.9258835315704346, 1.8165490627288818, -0.01904296875, 0.00830078125, 0.65771484375, 0, 
465, 1902670717, -90.42083740234375, 71.83881378173828, -26.710325241088867, -7.991129398345947, -1.2027678489685059, 0.41377222537994385, 3.90869402885437, -3.1017301082611084, 0.4506184160709381, -0.01904296875, 0.0078125, 0.6591796875, 0, 
466, 1902679050, -90.43659973144531, 71.8323745727539, -26.724416732788086, -6.728682518005371, -0.6802114248275757, 0.276895672082901, 2.872546434402466, -0.9491611123085022, 0.3175780773162842, -0.015625, -0.00146484375, 0.6376953125, 0, 
467, 1902687383, -90.49747467041016, 71.82975006103516, -26.760936737060547, -8.670082092285156, -2.88748836517334, 0.6359235048294067, -0.14215900003910065, -0.22527720034122467, 0.7696180939674377, -0.015625, 0.00244140625, 0.6435546875, 0, 
468, 1902695716, -90.50930786132812, 71.83318328857422, -26.76106834411621, -11.197869300842285, -5.446815013885498, -2.039342164993286, 2.649164915084839, -1.2482584714889526, 1.4876618385314941, -0.0166015625, 0.00634765625, 0.64892578125, 0, 
469, 1902704049, -90.48006439208984, 71.84236145019531, -26.74660873413086, -11.149629592895508, -4.817437648773193, 0.5943168997764587, 5.014256000518799, -2.0326433181762695, 2.1780166625976562, -0.0146484375, 0.00927734375, 0.65966796875, 0, 
470, 1902712382, -90.44873809814453, 71.84236145019531, -26.728361129760742, -8.952717781066895, -2.4065370559692383, -1.2857764959335327, 4.829833030700684, -2.1651713848114014, 1.0711487531661987, -0.02001953125, 0.0087890625, 0.6650390625, 0, 
471, 1902720715, -90.42864227294922, 71.8355941772461, -26.705074310302734, -6.874715328216553, -0.3084785044193268, 1.7570587396621704, 3.765331268310547, -2.136073589324951, 0.2689366638660431, -0.01513671875, 0.00048828125, 0.6455078125, 0, 
472, 1902729048, -90.46812438964844, 71.83256530761719, -26.714967727661133, -7.688827037811279, -1.7804498672485352, 0.07363136857748032, -0.455625981092453, -1.1078156232833862, 0.7198496460914612, -0.0185546875, 0.001953125, 0.6376953125, 0, 
473, 1902737381, -90.51211547851562, 71.8338623046875, -26.75416374206543, -10.489294052124023, -4.923588275909424, -1.021020770072937, 2.078582286834717, -0.16646692156791687, 1.2394599914550781, -0.01416015625, 0.00390625, 0.64453125, 0, 
474, 1902745714, -90.50567626953125, 71.84308624267578, -26.756113052368164, -11.731382369995117, -5.324535369873047, -0.0835452675819397, 3.9740102291107178, -1.5417978763580322, 2.186187982559204, -0.017578125, 0.005859375, 0.65087890625, 0, 
475, 1902754047, -90.47639465332031, 71.84613037109375, -26.747777938842773, -9.870579719543457, -3.201460123062134, -1.0099273920059204, 5.7162652015686035, -1.797402262687683, 1.4428116083145142, -0.01953125, 0.013671875, 0.66259765625, 0, 
476, 1902762380, -90.42655181884766, 71.83954620361328, -26.696809768676758, -7.254886150360107, -0.6877625584602356, 1.4828356504440308, 3.3273024559020996, -3.3831796646118164, 0.2808729112148285, -0.0146484375, 0.00634765625, 0.65380859375, 0, 
477, 1902770713, -90.45491790771484, 71.8353042602539, -26.722280502319336, -6.941830158233643, -1.0239174365997314, -0.33958566188812256, 1.5309244394302368, -0.9577162265777588, 0.5677266716957092, -0.01513671875, -0.0009765625, 0.63671875, 0, 
478, 1902779046, -90.51570129394531, 71.83484649658203, -26.76651954650879, -9.535799026489258, -3.7936816215515137, 0.36076048016548157, 0.9070128202438354, 0.17472749948501587, 1.0456371307373047, -0.0126953125, 0.00537109375, 0.642578125, 0, 
479, 1902787379, -90.51193237304688, 71.84221649169922, -26.765649795532227, -11.732976913452148, -5.7656025886535645, -1.6860997676849365, 3.531473398208618, -1.5795787572860718, 1.958503007888794, -0.0166015625, 0.005859375, 0.646484375, 0, 
480, 1902795712, -90.47161865234375, 71.85073852539062, -26.748090744018555, -10.685148239135742, -4.099034309387207, 0.24911800026893616, 5.506407260894775, -2.3692142963409424, 2.0850627422332764, -0.01904296875, 0.00732421875, 0.6533203125, 0, 
481, 1902804045, -90.42010498046875, 71.84571838378906, -26.701269149780273, -8.222840309143066, -1.2787715196609497, 0.11072423309087753, 3.9970877170562744, -3.2280337810516357, 0.46573081612586975, -0.02001953125, 0.00634765625, 0.6552734375, 0, 
482, 1902812378, -90.43058013916016, 71.8393325805664, -26.711626052856445, -6.5990471839904785, -0.49366888403892517, 0.59233158826828, 3.078613519668579, -1.0886049270629883, 0.319294273853302, -0.01513671875, -0.005859375, 0.63037109375, 0, 
483, 1902820711, -90.49102020263672, 71.8362808227539, -26.74388885498047, -8.41395378112793, -2.7746164798736572, 0.4836466312408447, -0.36789724230766296, -0.3201010823249817, 0.7221549153327942, -0.017578125, -0.0009765625, 0.63037109375, 0, 
484, 1902829044, -90.50701904296875, 71.8395767211914, -26.75649642944336, -11.178668022155762, -5.456432342529297, -1.8257391452789307, 2.673652410507202, -1.0128124952316284, 1.4813352823257446, -0.01904296875, 0, 0.63623046875, 0, 
485, 1902837377, -90.47929382324219, 71.84938049316406, -26.744712829589844, -11.475240707397461, -4.847301006317139, 0.4965492784976959, 5.065535068511963, -2.019451856613159, 2.245894432067871, -0.0185546875, 0.00634765625, 0.64501953125, 0, 
486, 1902845710, -90.4502182006836, 71.84793090820312, -26.72972297668457, -9.150806427001953, -2.4549622535705566, -1.208085298538208, 4.919302940368652, -2.1094346046447754, 0.8976634740829468, -0.0234375, 0.005859375, 0.6572265625, 0, 
487, 1902854043, -90.42237854003906, 71.84113311767578, -26.70327377319336, -6.831619739532471, -0.35486963391304016, 1.650070309638977, 3.4788100719451904, -2.4667277336120605, 0.2578456997871399, -0.017578125, -0.00146484375, 0.6357421875, 0, 
488, 1902862376, -90.45784759521484, 71.83736419677734, -26.711044311523438, -7.389108180999756, -1.704086422920227, 0.009770864620804787, -0.21277745068073273, -1.187270998954773, 0.636936366558075, -0.01513671875, -0.0009765625, 0.6298828125, 0, 
489, 1902870709, -90.50318145751953, 71.83695220947266, -26.75263214111328, -10.33315372467041, -4.553868293762207, -0.8364526033401489, 2.0345258712768555, -0.12837854027748108, 1.0352376699447632, -0.017578125, -0.00048828125, 0.63671875, 0, 
