sep=,
PacketCounter,SampleTimeFine,Euler_X,Euler_Y,Euler_Z,Acc_X,Acc_Y,Acc_Z,Gyr_X,Gyr_Y,Gyr_Z,Mag_X,Mag_Y,Mag_Z,Status,
0, 1898812538, -88.50747680664062, -79.28608703613281, 156.11717224121094, 0, 0, 0, 0, 0, 0, -0.07568359375, 0.02734375, 0.38720703125, 0, 
1, 1898820871, -88.50241088867188, -79.28524017333984, 156.11399841308594, 9.758270263671875, -2.034856081008911, -0.0923253670334816, -3.066946029663086, -2.784958839416504, -0.24774086475372314, -0.07421875, 0.0302734375, 0.390625, 0, 
2, 1898829204, -88.49512481689453, -79.28557586669922, 156.10824584960938, 9.51728343963623, -1.67884361743927, 0.06166841462254524, -3.0151026248931885, -2.7490217685699463, -0.39069393277168274, -0.07470703125, 0.02783203125, 0.3896484375, 0, 
3, 1898837537, -88.49625396728516, -79.28617858886719, 156.1099090576172, 9.432217597961426, -1.6403560638427734, 0.1657928079366684, -3.1554431915283203, -2.9156172275543213, -0.4210980534553528, -0.07568359375, 0.02734375, 0.38818359375, 0, 
4, 1898845870, -88.50933837890625, -79.28722381591797, 156.12362670898438, 9.721030235290527, -1.7745658159255981, 0.07806294411420822, -3.457178831100464, -3.1291375160217285, -0.4682026505470276, -0.07666015625, 0.02783203125, 0.39208984375, 0, 
5, 1898854203, -88.51847839355469, -79.28678131103516, 156.13267517089844, 10.013381958007812, -2.001523733139038, 0.08207473158836365, -3.246450901031494, -3.0783445835113525, -0.2889285981655121, -0.0771484375, 0.0302734375, 0.38720703125, 0, 
6, 1898862536, -88.50740051269531, -79.28691101074219, 156.1256866455078, 9.818281173706055, -2.001554489135742, -0.15922404825687408, -3.1408941745758057, -2.6361403465270996, -0.36697515845298767, -0.0751953125, 0.02978515625, 0.390625, 0, 
7, 1898870869, -88.50425720214844, -79.28598022460938, 156.12490844726562, 9.55575942993164, -1.718407392501831, -0.015819543972611427, -3.0275254249572754, -2.833395481109619, -0.23549726605415344, -0.07568359375, 0.0283203125, 0.38916015625, 0, 
8, 1898879202, -88.49913787841797, -79.28608703613281, 156.1195831298828, 9.377205848693848, -1.60896897315979, 0.08733543008565903, -3.2261130809783936, -2.7585251331329346, -0.366488516330719, -0.0751953125, 0.0283203125, 0.38818359375, 0, 
9, 1898887535, -88.50398254394531, -79.28667449951172, 156.12351989746094, 9.623836517333984, -1.679895043373108, 0.12337235361337662, -3.3303887844085693, -2.968305826187134, -0.4167180061340332, -0.07421875, 0.02685546875, 0.3896484375, 0, 
10, 1898895868, -88.5156021118164, -79.28718566894531, 156.13180541992188, 9.869178771972656, -1.997326374053955, 0.15344853699207306, -3.3190670013427734, -3.1158695220947266, -0.40088844299316406, -0.07666015625, 0.029296875, 0.3876953125, 0, 
11, 1898904201, -88.51200866699219, -79.28787994384766, 156.1284637451172, 10.009652137756348, -2.0667829513549805, -0.10410110652446747, -3.179751396179199, -2.804912567138672, -0.43580061197280884, -0.078125, 0.03076171875, 0.38916015625, 0, 
12, 1898912534, -88.50918579101562, -79.28707885742188, 156.127197265625, 9.688401222229004, -1.905145287513733, -0.07670136541128159, -3.0235555171966553, -2.8419504165649414, -0.2467675358057022, -0.07568359375, 0.02978515625, 0.38818359375, 0, 
13, 1898920867, -88.4975357055664, -79.28733825683594, 156.11509704589844, 9.376693725585938, -1.6227065324783325, 0.0022829538211226463, -3.1750636100769043, -2.6138556003570557, -0.38503316044807434, -0.07470703125, 0.02880859375, 0.3876953125, 0, 
14, 1898929200, -88.50341796875, -79.2889175415039, 156.1215362548828, 9.42020320892334, -1.656935453414917, 0.20052778720855713, -3.1626152992248535, -3.026552438735962, -0.5344154238700867, -0.07470703125, 0.0283203125, 0.38818359375, 0, 
15, 1898937533, -88.51551818847656, -79.2889175415039, 156.1320343017578, 9.682941436767578, -1.8106410503387451, 0.022915005683898926, -3.4289004802703857, -3.1100802421569824, -0.34023386240005493, -0.07666015625, 0.0283203125, 0.38818359375, 0, 
16, 1898945866, -88.52039337158203, -79.28861999511719, 156.13511657714844, 10.057279586791992, -2.050588369369507, 0.01781172677874565, -3.185962438583374, -2.987708568572998, -0.3212665319442749, -0.07275390625, 0.02880859375, 0.38818359375, 0, 
17, 1898954199, -88.51154327392578, -79.28861999511719, 156.1266326904297, 9.812251091003418, -2.009791135787964, -0.09685197472572327, -3.1519594192504883, -2.686548948287964, -0.34914764761924744, -0.076171875, 0.0302734375, 0.3876953125, 0, 
18, 1898962532, -88.50372314453125, -79.28777313232422, 156.1222686767578, 9.527841567993164, -1.5518879890441895, -0.010240877978503704, -3.0765254497528076, -2.7180540561676025, -0.2452050745487213, -0.0751953125, 0.02783203125, 0.388671875, 0, 
19, 1898970865, -88.50655364990234, -79.28748321533203, 156.12074279785156, 9.36661434173584, -1.6618460416793823, 0.14445871114730835, -3.3268027305603027, -2.915130853652954, -0.3130316138267517, -0.076171875, 0.029296875, 0.38720703125, 0, 
20, 1898979198, -88.51971435546875, -79.28854370117188, 156.13278198242188, 9.602437019348145, -1.8164081573486328, 0.07100308686494827, -3.3733181953430176, -3.1495778560638428, -0.4642324447631836, -0.07763671875, 0.0302734375, 0.3896484375, 0, 
21, 1898987531, -88.52658081054688, -79.2889175415039, 156.13966369628906, 9.926823616027832, -2.016554594039917, 0.0868450328707695, -3.2264461517333984, -3.032648801803589, -0.38892659544944763, -0.076171875, 0.02880859375, 0.39013671875, 0, 
22, 1898995864, -88.52285766601562, -79.2885971069336, 156.1367950439453, 9.907841682434082, -2.082383155822754, -0.14822621643543243, -3.227957248687744, -2.7833707332611084, -0.3211512863636017, -0.0771484375, 0.0283203125, 0.388671875, 0, 
23, 1899004197, -88.52265930175781, -79.28797912597656, 156.1380157470703, 9.656126976013184, -1.8640435934066772, -0.017822619527578354, -3.0489137172698975, -2.903347969055176, -0.26618310809135437, -0.07421875, 0.02880859375, 0.390625, 0, 
24, 1899012530, -88.5211410522461, -79.28880310058594, 156.13543701171875, 9.395984649658203, -1.5771543979644775, 0.06476214528083801, -3.196387767791748, -2.841604709625244, -0.45371773838996887, -0.0751953125, 0.02880859375, 0.38623046875, 0, 
25, 1899020863, -88.53018951416016, -79.28902435302734, 156.1432342529297, 9.553415298461914, -1.6176908016204834, 0.18591172993183136, -3.3271613121032715, -3.0569310188293457, -0.3700488805770874, -0.07568359375, 0.0302734375, 0.38623046875, 0, 
26, 1899029196, -88.54058837890625, -79.28931427001953, 156.15243530273438, 9.79519271850586, -1.9664201736450195, 0.07437906414270401, -3.3822572231292725, -3.0843379497528076, -0.3788345456123352, -0.07666015625, 0.02880859375, 0.38818359375, 0, 
27, 1899037529, -88.53614044189453, -79.2886734008789, 156.1476593017578, 9.96676254272461, -2.020051956176758, -0.09903783351182938, -3.237204074859619, -2.768540620803833, -0.28270435333251953, -0.07666015625, 0.02880859375, 0.38818359375, 0, 
28, 1899045862, -88.53073120117188, -79.28858947753906, 156.1434326171875, 9.685928344726562, -1.9036232233047485, -0.08212484419345856, -3.069507360458374, -2.7801942825317383, -0.3252239227294922, -0.07568359375, 0.02978515625, 0.390625, 0, 
29, 1899054195, -88.51990509033203, -79.2886962890625, 156.133056640625, 9.486847877502441, -1.6534250974655151, 0.001854137983173132, -3.1351308822631836, -2.646718978881836, -0.3730457127094269, -0.07568359375, 0.02783203125, 0.38623046875, 0, 
30, 1899062528, -88.52542877197266, -79.2886734008789, 156.13693237304688, 9.475726127624512, -1.7127299308776855, 0.166852205991745, -3.234271287918091, -2.9924986362457275, -0.3405028283596039, -0.078125, 0.0283203125, 0.3916015625, 0, 
31, 1899070861, -88.53833770751953, -79.28950500488281, 156.14889526367188, 9.712045669555664, -1.7837204933166504, 0.07236787676811218, -3.256004810333252, -3.1596951484680176, -0.43393072485923767, -0.076171875, 0.0283203125, 0.388671875, 0, 
32, 1899079194, -88.54280090332031, -79.28902435302734, 156.1532745361328, 10.059128761291504, -2.021139144897461, 0.05706262215971947, -3.231415271759033, -2.9733004570007324, -0.29392334818840027, -0.078125, 0.029296875, 0.38720703125, 0, 
33, 1899087527, -88.53533172607422, -79.28829193115234, 156.14695739746094, 9.835017204284668, -2.0666940212249756, -0.12200503051280975, -3.068047285079956, -2.7349085807800293, -0.26116272807121277, -0.07470703125, 0.02783203125, 0.38671875, 0, 
34, 1899095860, -88.52090454101562, -79.28759002685547, 156.1342315673828, 9.494217872619629, -1.6606066226959229, -0.03811633959412575, -2.992741107940674, -2.58368182182312, -0.27348315715789795, -0.0751953125, 0.03125, 0.38671875, 0, 
35, 1899104193, -88.51972961425781, -79.28895568847656, 156.1330108642578, 9.345776557922363, -1.6510813236236572, 0.09145646542310715, -3.2182493209838867, -2.853656768798828, -0.5140520334243774, -0.07568359375, 0.029296875, 0.390625, 0, 
36, 1899112526, -88.52681732177734, -79.29005432128906, 156.13925170898438, 9.58745288848877, -1.721297025680542, 0.09823554009199142, -3.3276734352111816, -3.016435146331787, -0.4789862334728241, -0.07568359375, 0.02783203125, 0.3896484375, 0, 
37, 1899120859, -88.53433227539062, -79.29045867919922, 156.1450653076172, 9.908452987670898, -1.9985103607177734, 0.11348606646060944, -3.271552562713623, -3.0326998233795166, -0.3925125300884247, -0.0771484375, 0.0302734375, 0.390625, 0, 
38, 1899129192, -88.53470611572266, -79.29066467285156, 156.1456298828125, 10.011496543884277, -2.0271317958831787, -0.12079451978206635, -3.1937878131866455, -2.8899006843566895, -0.37250784039497375, -0.07470703125, 0.0302734375, 0.388671875, 0, 
39, 1899137525, -88.53495788574219, -79.28990173339844, 156.14657592773438, 9.721683502197266, -1.8255988359451294, -0.07170680165290833, -3.130136489868164, -2.8967397212982178, -0.2613164484500885, -0.07763671875, 0.02880859375, 0.3876953125, 0, 
40, 1899145858, -88.53125, -79.28987121582031, 156.14373779296875, 9.354273796081543, -1.596734642982483, 0.01657112129032612, -3.0490670204162598, -2.8188464641571045, -0.3432563245296478, -0.0751953125, 0.0283203125, 0.3896484375, 0, 
41, 1899154191, -88.53181457519531, -79.28976440429688, 156.1434326171875, 9.449992179870605, -1.6834805011749268, 0.22730526328086853, -3.3142001628875732, -2.871253490447998, -0.3395935297012329, -0.076171875, 0.02734375, 0.388671875, 0, 
42, 1899162524, -88.54281616210938, -79.29056549072266, 156.15310668945312, 9.728574752807617, -1.9018259048461914, 0.0548396036028862, -3.2850770950317383, -3.1121811866760254, -0.42755284905433655, -0.07470703125, 0.02783203125, 0.3896484375, 0, 
43, 1899170857, -88.54498291015625, -79.29086303710938, 156.15390014648438, 10.013833999633789, -2.017137050628662, -0.04737820103764534, -3.286818742752075, -2.907395124435425, -0.38078123331069946, -0.0771484375, 0.02880859375, 0.3896484375, 0, 
44, 1899179190, -88.53712463378906, -79.29080963134766, 156.1482696533203, 9.789231300354004, -2.0315988063812256, -0.084182009100914, -2.9330220222473145, -2.7518012523651123, -0.3456256687641144, -0.0751953125, 0.03076171875, 0.38818359375, 0, 
45, 1899187523, -88.52151489257812, -79.29178619384766, 156.13330078125, 9.496853828430176, -1.5871798992156982, 0.045171335339546204, -3.1066994667053223, -2.547105073928833, -0.47652721405029297, -0.07666015625, 0.02783203125, 0.39013671875, 0, 
46, 1899195856, -88.52042388916016, -79.2919692993164, 156.12942504882812, 9.418878555297852, -1.617010474205017, 0.19806857407093048, -3.391964912414551, -2.813518762588501, -0.36917799711227417, -0.0771484375, 0.03125, 0.388671875, 0, 
47, 1899204189, -88.53255462646484, -79.29168701171875, 156.14004516601562, 9.6900053024292, -1.8092482089996338, 0.05906732752919197, -3.4171698093414307, -3.112488269805908, -0.3091382086277008, -0.07470703125, 0.02978515625, 0.390625, 0, 
48, 1899212522, -88.53272247314453, -79.2907485961914, 156.1516876220703, 9.962124824523926, -2.047548770904541, 0.10771507024765015, -3.232311725616455, -2.869511604309082, -0.23657310009002686, -0.0751953125, 0.02783203125, 0.38818359375, 0, 
49, 1899220855, -88.52727508544922, -79.29082489013672, 156.14683532714844, 9.836057662963867, -2.002681016921997, -0.12870293855667114, -3.1627819538116455, -2.757718324661255, -0.358868271112442, -0.07666015625, 0.02734375, 0.38818359375, 0, 
50, 1899229188, -88.52031707763672, -79.29058837890625, 156.14083862304688, 9.600401878356934, -1.7387570142745972, -0.06813093274831772, -3.0931236743927, -2.743668556213379, -0.32174035906791687, -0.072265625, 0.0283203125, 0.38037109375, 0, 
51, 1899237521, -88.51602172851562, -79.29133605957031, 156.13662719726562, 9.388887405395508, -1.6728284358978271, 0.07578296959400177, -3.1938648223876953, -2.783729314804077, -0.4427676498889923, -0.076171875, 0.03076171875, 0.37548828125, 0, 
52, 1899245854, -88.52420806884766, -79.29141235351562, 156.14300537109375, 9.565511703491211, -1.6302038431167603, 0.16092438995838165, -3.3077714443206787, -3.0394108295440674, -0.3532971739768982, -0.076171875, 0.02978515625, 0.37744140625, 0, 
53, 1899254187, -88.53251647949219, -79.29139709472656, 156.1494140625, 9.86570930480957, -1.9728710651397705, 0.16778387129306793, -3.456308126449585, -3.021045207977295, -0.34748271107673645, -0.07421875, 0.029296875, 0.375, 0, 
54, 1899262520, -88.5283203125, -79.29229736328125, 156.14634704589844, 10.018821716308594, -2.0733020305633545, -0.08902861922979355, -3.079958200454712, -2.80629563331604, -0.45309022068977356, -0.0771484375, 0.03076171875, 0.37744140625, 0, 
55, 1899270853, -88.52130889892578, -79.29093933105469, 156.14402770996094, 9.669923782348633, -1.858872890472412, -0.0776561051607132, -3.076115846633911, -2.737623691558838, -0.18147684633731842, -0.07421875, 0.02978515625, 0.37744140625, 0, 
56, 1899279186, -88.51398468017578, -79.29064178466797, 156.13717651367188, 9.356658935546875, -1.601455569267273, 0.05024475231766701, -3.1419317722320557, -2.724701404571533, -0.32290583848953247, -0.07568359375, 0.02783203125, 0.37841796875, 0, 
57, 1899287519, -88.5175552368164, -79.29139709472656, 156.1401824951172, 9.433525085449219, -1.6877270936965942, 0.17081789672374725, -3.2916855812072754, -2.944894313812256, -0.4378753900527954, -0.0771484375, 0.03076171875, 0.3759765625, 0, 
58, 1899295852, -88.53276062011719, -79.2928466796875, 156.1536407470703, 9.730780601501465, -1.8773032426834106, 0.0706387609243393, -3.405322790145874, -3.185732126235962, -0.5142953991889954, -0.07568359375, 0.02880859375, 0.37939453125, 0, 
59, 1899304185, -88.53388214111328, -79.2929916381836, 156.15528869628906, 10.061328887939453, -2.03178071975708, 0.0218326635658741, -3.1528565883636475, -2.914003849029541, -0.3704586923122406, -0.0751953125, 0.0302734375, 0.3798828125, 0, 
60, 1899312518, -88.52389526367188, -79.29240417480469, 156.1454315185547, 9.83753490447998, -2.027092456817627, -0.08851791173219681, -3.1155617237091064, -2.66316294670105, -0.2743796706199646, -0.07568359375, 0.03076171875, 0.37939453125, 0, 
61, 1899320851, -88.51101684570312, -79.29163360595703, 156.12782287597656, 9.505496978759766, -1.578826665878296, -0.06341934204101562, -3.1928653717041016, -2.580608367919922, -0.26710522174835205, -0.076171875, 0.02978515625, 0.37890625, 0, 
62, 1899329184, -88.50670623779297, -79.29199981689453, 156.12306213378906, 9.307019233703613, -1.6490823030471802, 0.1391703337430954, -3.2580795288085938, -2.7737913131713867, -0.3931785225868225, -0.07568359375, 0.0283203125, 0.3818359375, 0, 
63, 1899337517, -88.51929473876953, -79.29248046875, 156.134765625, 9.628242492675781, -1.7492406368255615, 0.10444547981023788, -3.344835042953491, -3.1384353637695312, -0.3949715197086334, -0.0751953125, 0.02978515625, 0.376953125, 0, 
64, 1899345850, -88.52715301513672, -79.29192352294922, 156.1432342529297, 9.957574844360352, -2.009387969970703, 0.05147344991564751, -3.3519046306610107, -3.0223519802093506, -0.28229448199272156, -0.07568359375, 0.02978515625, 0.3828125, 0, 
65, 1899354183, -88.5248031616211, -79.29167175292969, 156.1414031982422, 9.94997787475586, -2.0601577758789062, -0.15446749329566956, -3.1496801376342773, -2.83657169342041, -0.31684809923171997, -0.07763671875, 0.029296875, 0.3798828125, 0, 
66, 1899362516, -88.51709747314453, -79.29048919677734, 156.13487243652344, 9.626275062561035, -1.8389756679534912, -0.003065617987886071, -3.108210325241089, -2.712419271469116, -0.2152620255947113, -0.07421875, 0.02783203125, 0.38134765625, 0, 
67, 1899370849, -88.51011657714844, -79.29043579101562, 156.12892150878906, 9.36461353302002, -1.5932704210281372, 0.0757298693060875, -3.137923240661621, -2.7282235622406006, -0.3451005816459656, -0.0751953125, 0.029296875, 0.38134765625, 0, 
68, 1899379182, -88.52408599853516, -79.29150390625, 156.1419219970703, 9.573722839355469, -1.6411467790603638, 0.20439407229423523, -3.3551318645477295, -3.1709399223327637, -0.46679386496543884, -0.07568359375, 0.02880859375, 0.37939453125, 0, 
69, 1899387515, -88.53040313720703, -79.29180145263672, 156.14651489257812, 9.86536979675293, -1.9950659275054932, 0.06062537804245949, -3.431180715560913, -2.980370044708252, -0.3870311379432678, -0.0751953125, 0.03125, 0.3828125, 0, 
70, 1899395848, -88.52912902832031, -79.29119873046875, 156.1443634033203, 9.9837007522583, -2.0084242820739746, -0.12560002505779266, -3.284821033477783, -2.8278629779815674, -0.26941055059432983, -0.07421875, 0.03076171875, 0.37841796875, 0, 
71, 1899404181, -88.52613067626953, -79.29056549072266, 156.14268493652344, 9.663176536560059, -1.9135371446609497, -0.040424130856990814, -3.055572986602783, -2.838057279586792, -0.2703326344490051, -0.07421875, 0.03125, 0.38134765625, 0, 
72, 1899412514, -88.52034759521484, -79.28983306884766, 156.1384735107422, 9.421868324279785, -1.6164571046829224, 0.02886720933020115, -3.142302989959717, -2.749662399291992, -0.26900067925453186, -0.07666015625, 0.02880859375, 0.37841796875, 0, 
73, 1899420847, -88.52272033691406, -79.28971862792969, 156.14019775390625, 9.456424713134766, -1.671132206916809, 0.15470147132873535, -3.23661470413208, -2.9224305152893066, -0.32655590772628784, -0.076171875, 0.029296875, 0.3818359375, 0, 
74, 1899429180, -88.53203582763672, -79.29064178466797, 156.14878845214844, 9.732329368591309, -1.8285529613494873, 0.08060408383607864, -3.317504644393921, -3.07132625579834, -0.4535512924194336, -0.07568359375, 0.02880859375, 0.380859375, 0, 
75, 1899437513, -88.53884887695312, -79.29000091552734, 156.15553283691406, 10.075394630432129, -2.078153610229492, 0.08017782866954803, -3.2347195148468018, -3.0250155925750732, -0.2728172242641449, -0.07666015625, 0.02978515625, 0.37890625, 0, 
76, 1899445846, -88.5344467163086, -79.28854370117188, 156.15235900878906, 9.857566833496094, -2.0576229095458984, -0.14767338335514069, -3.0159480571746826, -2.80629563331604, -0.1764308512210846, -0.07470703125, 0.02880859375, 0.38134765625, 0, 
77, 1899454179, -88.52669525146484, -79.28845977783203, 156.14566040039062, 9.49579906463623, -1.7062214612960815, -0.04556818678975105, -3.0752577781677246, -2.7277491092681885, -0.3457793593406677, -0.07470703125, 0.02880859375, 0.380859375, 0, 
78, 1899462512, -88.52549743652344, -79.29035186767578, 156.14523315429688, 9.310457229614258, -1.703722357749939, 0.1204034611582756, -3.1546366214752197, -2.8594582080841064, -0.5704418420791626, -0.0771484375, 0.02783203125, 0.3818359375, 0, 
79, 1899470845, -88.53471374511719, -79.29180145263672, 156.15394592285156, 9.604975700378418, -1.6831696033477783, 0.09995625168085098, -3.1830556392669678, -3.0965561866760254, -0.5076997876167297, -0.07666015625, 0.0302734375, 0.380859375, 0, 
80, 1899479178, -88.54168701171875, -79.29132843017578, 156.16017150878906, 9.920629501342773, -1.9853408336639404, 0.10154072195291519, -3.3113315105438232, -3.0153844356536865, -0.29410266876220703, -0.0771484375, 0.029296875, 0.37890625, 0, 
81, 1899487511, -88.53865814208984, -79.29170989990234, 156.15756225585938, 9.992252349853516, -2.036762237548828, -0.09131984412670135, -3.1586196422576904, -2.819871187210083, -0.3979939818382263, -0.076171875, 0.0283203125, 0.380859375, 0, 
82, 1899495844, -88.52852630615234, -79.29082489013672, 156.1483917236328, 9.670278549194336, -1.785375952720642, -0.020200621336698532, -3.0778064727783203, -2.665391445159912, -0.2381611466407776, -0.078125, 0.029296875, 0.3779296875, 0, 
83, 1899504177, -88.52135467529297, -79.29109954833984, 156.1412353515625, 9.344184875488281, -1.5634980201721191, 0.059088900685310364, -3.198577880859375, -2.719156265258789, -0.3854174315929413, -0.076171875, 0.0302734375, 0.38037109375, 0, 
84, 1899512510, -88.52692413330078, -79.29066467285156, 156.14657592773438, 9.495285987854004, -1.7015831470489502, 0.17321589589118958, -3.24965238571167, -2.989821672439575, -0.2993791997432709, -0.0751953125, 0.02880859375, 0.37890625, 0, 
85, 1899520843, -88.53193664550781, -79.29056549072266, 156.15042114257812, 9.766681671142578, -1.9519412517547607, 0.0608254000544548, -3.376314878463745, -2.9556524753570557, -0.33649420738220215, -0.076171875, 0.02880859375, 0.37841796875, 0, 
86, 1899529176, -88.53629302978516, -79.28990173339844, 156.15541076660156, 10.03073787689209, -2.0372767448425293, -0.08302084356546402, -3.149219274520874, -2.985800266265869, -0.2644413709640503, -0.076171875, 0.03173828125, 0.37939453125, 0, 
87, 1899537509, -88.53014373779297, -79.28948211669922, 156.15008544921875, 9.766016960144043, -2.032583713531494, -0.09032335877418518, -3.105239152908325, -2.757449150085449, -0.2977398633956909, -0.07470703125, 0.02734375, 0.380859375, 0, 
88, 1899545842, -88.51793670654297, -79.29053497314453, 156.13864135742188, 9.491517066955566, -1.6311852931976318, 0.03092494234442711, -3.042407512664795, -2.6290194988250732, -0.48223915696144104, -0.07666015625, 0.0283203125, 0.3837890625, 0, 
89, 1899554175, -88.52033233642578, -79.29053497314453, 156.14083862304688, 9.426613807678223, -1.5792076587677002, 0.1776927262544632, -3.2442734241485596, -2.9259140491485596, -0.3413865566253662, -0.076171875, 0.02880859375, 0.38037109375, 0, 
90, 1899562508, -88.52982330322266, -79.29042053222656, 156.152587890625, 9.716544151306152, -1.740753173828125, 0.04537586122751236, -3.335946798324585, -3.0626683235168457, -0.3382103443145752, -0.07666015625, 0.029296875, 0.38232421875, 0, 
91, 1899570841, -88.53065490722656, -79.29000091552734, 156.15438842773438, 9.953906059265137, -2.0619728565216064, 0.09225565940141678, -3.157620668411255, -2.900607109069824, -0.2984314560890198, -0.0751953125, 0.02978515625, 0.38232421875, 0, 
92, 1899579174, -88.52558898925781, -79.28907775878906, 156.1500244140625, 9.798439025878906, -2.0091264247894287, -0.12904110550880432, -3.1224772930145264, -2.775968313217163, -0.24023589491844177, -0.0771484375, 0.03271484375, 0.37939453125, 0, 
93, 1899587507, -88.51754760742188, -79.28766632080078, 156.14297485351562, 9.592381477355957, -1.7207045555114746, -0.06433210521936417, -3.0797014236450195, -2.7159535884857178, -0.19162006676197052, -0.07373046875, 0.0283203125, 0.38134765625, 0, 
94, 1899595840, -88.51627349853516, -79.28784942626953, 156.14048767089844, 9.423008918762207, -1.7161720991134644, 0.09316292405128479, -3.191328763961792, -2.8449220657348633, -0.3663860559463501, -0.076171875, 0.0302734375, 0.38330078125, 0, 
95, 1899604173, -88.52262878417969, -79.28872680664062, 156.1459197998047, 9.60771656036377, -1.6707733869552612, 0.2086203247308731, -3.3349990844726562, -3.001091957092285, -0.4448423981666565, -0.07666015625, 0.02978515625, 0.38720703125, 0, 
96, 1899612506, -88.53801727294922, -79.28851318359375, 156.16278076171875, 9.889880180358887, -1.9694119691848755, 0.137782484292984, -3.429720640182495, -3.1791110038757324, -0.32227832078933716, -0.07763671875, 0.02978515625, 0.38671875, 0, 
97, 1899620839, -88.53389739990234, -79.28825378417969, 156.1576385498047, 9.998335838317871, -2.05419659614563, -0.0910162553191185, -3.2791855335235596, -2.766183853149414, -0.31597721576690674, -0.07861328125, 0.02880859375, 0.3876953125, 0, 
98, 1899629172, -88.52365112304688, -79.28711700439453, 156.14955139160156, 9.65320873260498, -1.8814746141433716, -0.03489084169268608, -2.9404375553131104, -2.6929526329040527, -0.21426306664943695, -0.0732421875, 0.029296875, 0.3896484375, 0, 
99, 1899637505, -88.51679229736328, -79.28733825683594, 156.14340209960938, 9.346879005432129, -1.5471081733703613, 0.010469446890056133, -3.1163811683654785, -2.7415168285369873, -0.37488994002342224, -0.07666015625, 0.02783203125, 0.38818359375, 0, 
100, 1899645838, -88.52192687988281, -79.28766632080078, 156.14581298828125, 9.445725440979004, -1.683207631111145, 0.14388254284858704, -3.266711711883545, -2.9753241539001465, -0.38882413506507874, -0.07568359375, 0.02978515625, 0.388671875, 0, 
101, 1899654171, -88.5322036743164, -79.28887939453125, 156.15625, 9.734628677368164, -1.8923743963241577, 0.058137454092502594, -3.21871018409729, -3.1134872436523438, -0.487669438123703, -0.076171875, 0.02734375, 0.38916015625, 0, 
102, 1899662504, -88.53663635253906, -79.28865814208984, 156.16102600097656, 10.068310737609863, -2.039062738418579, 0.058655962347984314, -3.1331844329833984, -2.9871835708618164, -0.3218940794467926, -0.0751953125, 0.029296875, 0.38916015625, 0, 
103, 1899670837, -88.52975463867188, -79.28790283203125, 156.15264892578125, 9.859713554382324, -1.996347427368164, -0.0876946672797203, -3.0800092220306396, -2.7399544715881348, -0.2607016861438751, -0.078125, 0.02685546875, 0.38818359375, 0, 
104, 1899679170, -88.51885986328125, -79.28748321533203, 156.14239501953125, 9.519351959228516, -1.6172304153442383, -0.04600885137915611, -3.1158947944641113, -2.6476922035217285, -0.3016844689846039, -0.07666015625, 0.02783203125, 0.3876953125, 0, 
105, 1899687503, -88.52435302734375, -79.28820037841797, 156.14813232421875, 9.324443817138672, -1.6611411571502686, 0.16368785500526428, -3.197681427001953, -3.005753755569458, -0.4311644434928894, -0.07568359375, 0.02783203125, 0.3896484375, 0, 
106, 1899695836, -88.5348129272461, -79.28880310058594, 156.14852905273438, 9.581564903259277, -1.7213523387908936, 0.1277385801076889, -3.2778539657592773, -3.1005523204803467, -0.4193562865257263, -0.07861328125, 0.0302734375, 0.388671875, 0, 
107, 1899704169, -88.5379867553711, -79.2886962890625, 156.15162658691406, 9.95225715637207, -1.9786016941070557, 0.07203498482704163, -3.2314534187316895, -2.946700096130371, -0.3333052694797516, -0.07568359375, 0.0283203125, 0.39013671875, 0, 
108, 1899712502, -88.53707885742188, -79.28893280029297, 156.1510009765625, 9.912765502929688, -2.07981276512146, -0.12772394716739655, -3.242685556411743, -2.845536947250366, -0.37376293540000916, -0.07568359375, 0.02783203125, 0.3896484375, 0, 
109, 1899720835, -88.53019714355469, -79.28821563720703, 156.13766479492188, 9.633030891418457, -1.7926806211471558, -0.008056207560002804, -3.1447362899780273, -2.7287099361419678, -0.261598140001297, -0.07470703125, 0.03076171875, 0.38818359375, 0, 
110, 1899729168, -88.52445983886719, -79.28877258300781, 156.13284301757812, 9.38744068145752, -1.6031062602996826, 0.11632633209228516, -3.098323345184326, -2.7708451747894287, -0.42196887731552124, -0.07373046875, 0.0283203125, 0.3896484375, 0, 
111, 1899737501, -88.53026580810547, -79.28936004638672, 156.1381378173828, 9.577022552490234, -1.7018882036209106, 0.18207141757011414, -3.2806971073150635, -2.997659683227539, -0.4110572636127472, -0.076171875, 0.02880859375, 0.38916015625, 0, 
112, 1899745834, -88.53804779052734, -79.28941345214844, 156.14358520507812, 9.848119735717773, -2.026878833770752, 0.06477977335453033, -3.3641738891601562, -3.0217883586883545, -0.35114556550979614, -0.07666015625, 0.02783203125, 0.38818359375, 0, 
113, 1899754167, -88.53719329833984, -79.29061126708984, 156.14324951171875, 10.009041786193848, -2.0309464931488037, -0.10182962566614151, -3.149142265319824, -2.8728673458099365, -0.4861069619655609, -0.07421875, 0.02880859375, 0.38720703125, 0, 
114, 1899762500, -88.53185272216797, -79.29013061523438, 156.13223266601562, 9.661805152893066, -1.919185757637024, -0.05016053840517998, -3.058314085006714, -2.7798871994018555, -0.2958444058895111, -0.0751953125, 0.03076171875, 0.38671875, 0, 
115, 1899770833, -88.5199203491211, -79.2918930053711, 156.1263427734375, 9.436738967895508, -1.6110661029815674, 0.019652917981147766, -3.055816650390625, -2.634103775024414, -0.5660104751586914, -0.07666015625, 0.02880859375, 0.388671875, 0, 
116, 1899779166, -88.52455139160156, -79.29216766357422, 156.1314697265625, 9.478171348571777, -1.6162927150726318, 0.18391475081443787, -3.1669440269470215, -2.992767572402954, -0.37834787368774414, -0.07763671875, 0.02978515625, 0.3876953125, 0, 
117, 1899787499, -88.53242492675781, -79.29322052001953, 156.1387939453125, 9.727896690368652, -1.7910236120224, 0.05331552028656006, -3.2930431365966797, -3.0443031787872314, -0.4723009169101715, -0.07568359375, 0.02734375, 0.3916015625, 0, 
118, 1899795832, -88.53504180908203, -79.2928695678711, 156.14096069335938, 10.048712730407715, -2.0248894691467285, 0.11076271533966064, -3.160771131515503, -2.9397971630096436, -0.3091126084327698, -0.076171875, 0.02978515625, 0.38818359375, 0, 
119, 1899804165, -88.5312271118164, -79.29255676269531, 156.13735961914062, 9.814986228942871, -2.0187876224517822, -0.16791388392448425, -3.177189826965332, -2.79738187789917, -0.3134157955646515, -0.07470703125, 0.02880859375, 0.39013671875, 0, 
120, 1899812498, -88.5186538696289, -79.29251098632812, 156.1267852783203, 9.516831398010254, -1.6595075130462646, -0.06342245638370514, -3.127882242202759, -2.601970672607422, -0.3494550287723541, -0.0751953125, 0.029296875, 0.38671875, 0, 
121, 1899820831, -88.51561737060547, -79.2927017211914, 156.12442016601562, 9.32038688659668, -1.7476125955581665, 0.16106274724006653, -3.1581075191497803, -2.814645767211914, -0.3675130307674408, -0.0732421875, 0.029296875, 0.390625, 0, 
122, 1899829164, -88.52264404296875, -79.29380798339844, 156.13111877441406, 9.611034393310547, -1.7490429878234863, 0.11389049142599106, -3.267159938812256, -3.029280185699463, -0.4752081334590912, -0.07421875, 0.029296875, 0.38916015625, 0, 
123, 1899837497, -88.53353118896484, -79.29450225830078, 156.1416015625, 9.953690528869629, -1.9755643606185913, 0.1126641109585762, -3.2899434566497803, -3.1138458251953125, -0.42911526560783386, -0.0751953125, 0.0322265625, 0.3896484375, 0, 
124, 1899845830, -88.5277328491211, -79.2955551147461, 156.13381958007812, 9.996506690979004, -2.0598182678222656, -0.12713608145713806, -3.197706699371338, -2.7470500469207764, -0.47475987672805786, -0.07421875, 0.02978515625, 0.39111328125, 0, 
125, 1899854163, -88.52045440673828, -79.29499816894531, 156.12841796875, 9.624260902404785, -1.7780874967575073, -0.06061013042926788, -2.978243827819824, -2.7545289993286133, -0.28459975123405457, -0.07666015625, 0.02978515625, 0.3876953125, 0, 
126, 1899862496, -88.5150375366211, -79.29576873779297, 156.12399291992188, 9.310876846313477, -1.5400935411453247, 0.04676823690533638, -3.1871795654296875, -2.755758762359619, -0.45321834087371826, -0.07861328125, 0.02880859375, 0.38720703125, 0, 
127, 1899870829, -88.52400207519531, -79.2958984375, 156.1317596435547, 9.493324279785156, -1.6836618185043335, 0.18608519434928894, -3.3732926845550537, -3.049989700317383, -0.3576259911060333, -0.07763671875, 0.02880859375, 0.3876953125, 0, 
128, 1899879162, -88.53990173339844, -79.29586029052734, 156.1502685546875, 9.800296783447266, -1.9759451150894165, 0.06481193751096725, -3.343951463699341, -3.2104756832122803, -0.3293350636959076, -0.078125, 0.02783203125, 0.38720703125, 0, 
129, 1899887495, -88.53751373291016, -79.29549407958984, 156.1456298828125, 10.02586555480957, -2.040186882019043, -0.05461074411869049, -3.1822357177734375, -2.8200762271881104, -0.30688419938087463, -0.07421875, 0.02734375, 0.388671875, 0, 
130, 1899895828, -88.52967834472656, -79.29422760009766, 156.1388397216797, 9.750226020812988, -1.9795129299163818, -0.11197435110807419, -3.0774989128112793, -2.721153736114502, -0.19763942062854767, -0.07666015625, 0.02734375, 0.38671875, 0, 
131, 1899904161, -88.52323150634766, -79.29460906982422, 156.13363647460938, 9.474597930908203, -1.660035490989685, 0.039035119116306305, -3.0545742511749268, -2.7625720500946045, -0.3973792493343353, -0.07763671875, 0.029296875, 0.3896484375, 0, 
132, 1899912494, -88.5263442993164, -79.29545593261719, 156.14198303222656, 9.418808937072754, -1.6393120288848877, 0.16833461821079254, -3.312612295150757, -2.927578926086426, -0.45050323009490967, -0.07568359375, 0.02880859375, 0.38916015625, 0, 
133, 1899920827, -88.53765869140625, -79.29634094238281, 156.15174865722656, 9.709896087646484, -1.7901045083999634, 0.03827522695064545, -3.420294761657715, -3.09724760055542, -0.45037510991096497, -0.07861328125, 0.0302734375, 0.3896484375, 0, 
134, 1899929160, -88.5430908203125, -79.29503631591797, 156.1580810546875, 9.995709419250488, -2.0516843795776367, 0.03623072803020477, -3.1687374114990234, -2.998223304748535, -0.1921323835849762, -0.07470703125, 0.02783203125, 0.388671875, 0, 
135, 1899937493, -88.53063201904297, -79.29446411132812, 156.1467742919922, 9.80244255065918, -2.038532018661499, -0.11258561909198761, -3.07411789894104, -2.6126773357391357, -0.28459975123405457, -0.078125, 0.03125, 0.38916015625, 0, 
136, 1899945826, -88.52313232421875, -79.29476165771484, 156.14004516601562, 9.5642671585083, -1.6754385232925415, -0.016119463369250298, -3.1112072467803955, -2.7285306453704834, -0.3854174017906189, -0.0751953125, 0.029296875, 0.388671875, 0, 
137, 1899954159, -88.52030181884766, -79.29557037353516, 156.1363525390625, 9.391912460327148, -1.6825275421142578, 0.08895682543516159, -3.3096923828125, -2.796767234802246, -0.4427933394908905, -0.076171875, 0.03076171875, 0.388671875, 0, 
138, 1899962492, -88.52894592285156, -79.29584503173828, 156.14161682128906, 9.591476440429688, -1.6949552297592163, 0.13587766885757446, -3.5009021759033203, -3.018996477127075, -0.378603994846344, -0.07666015625, 0.02880859375, 0.390625, 0, 
139, 1899970825, -88.54552459716797, -79.29615783691406, 156.1566162109375, 9.906307220458984, -1.996397614479065, 0.15020063519477844, -3.434356927871704, -3.2105138301849365, -0.381344735622406, -0.076171875, 0.03125, 0.388671875, 0, 
140, 1899979158, -88.5420150756836, -79.29652404785156, 156.1510772705078, 10.011652946472168, -2.045020580291748, -0.15016166865825653, -3.2396886348724365, -2.790440797805786, -0.38964375853538513, -0.07861328125, 0.0283203125, 0.3876953125, 0, 
141, 1899987491, -88.53364562988281, -79.29505157470703, 156.14230346679688, 9.647062301635742, -1.8521554470062256, -0.05197558179497719, -3.062514543533325, -2.706450939178467, -0.17878733575344086, -0.07568359375, 0.02880859375, 0.39013671875, 0, 
142, 1899995824, -88.52498626708984, -79.29596710205078, 156.13356018066406, 9.350419998168945, -1.6189225912094116, 0.02861003577709198, -3.2056217193603516, -2.6843974590301514, -0.4654107093811035, -0.0771484375, 0.02880859375, 0.3896484375, 0, 
143, 1900004157, -88.52680969238281, -79.29637908935547, 156.13558959960938, 9.468815803527832, -1.6943005323410034, 0.2323262095451355, -3.195939540863037, -2.9247360229492188, -0.3946385085582733, -0.07763671875, 0.0322265625, 0.3896484375, 0, 
144, 1900012490, -88.53887939453125, -79.29740142822266, 156.14874267578125, 9.734284400939941, -1.8726886510849, 0.027519356459379196, -3.349855422973633, -3.1242454051971436, -0.462311327457428, -0.078125, 0.025390625, 0.38916015625, 0, 
145, 1900020823, -88.54396057128906, -79.29744720458984, 156.15432739257812, 10.055842399597168, -2.0171072483062744, 0.0007626721635460854, -3.1640241146087646, -3.000886917114258, -0.34758520126342773, -0.07763671875, 0.02880859375, 0.3896484375, 0, 
146, 1900029156, -88.54154968261719, -79.29755401611328, 156.153076171875, 9.813843727111816, -1.9865485429763794, -0.11109331995248795, -3.0685856342315674, -2.8454599380493164, -0.36843517422676086, -0.07373046875, 0.0302734375, 0.3828125, 0, 
147, 1900037489, -88.52954864501953, -79.297607421875, 156.14495849609375, 9.496541976928711, -1.576981544494629, -0.007016532588750124, -3.153496265411377, -2.6075031757354736, -0.35854801535606384, -0.076171875, 0.02880859375, 0.3759765625, 0, 
148, 1900045822, -88.53327178955078, -79.2972640991211, 156.14794921875, 9.34755802154541, -1.6632299423217773, 0.17248430848121643, -3.3098974227905273, -2.9427425861358643, -0.3067304790019989, -0.0751953125, 0.02880859375, 0.3779296875, 0, 
149, 1900054155, -88.54273223876953, -79.29718780517578, 156.1561737060547, 9.638282775878906, -1.8151952028274536, 0.06122148036956787, -3.3771347999572754, -3.0598254203796387, -0.33818477392196655, -0.07568359375, 0.029296875, 0.37646484375, 0, 
150, 1900062488, -88.55193328857422, -79.29707336425781, 156.1644287109375, 9.9796781539917, -1.9821791648864746, 0.054825309664011, -3.2915830612182617, -3.065153121948242, -0.33365103602409363, -0.07470703125, 0.0302734375, 0.3779296875, 0, 
151, 1900070821, -88.54781341552734, -79.29654693603516, 156.1602325439453, 9.892226219177246, -2.026721239089966, -0.16768573224544525, -3.2143819332122803, -2.7830636501312256, -0.28933843970298767, -0.0732421875, 0.029296875, 0.37744140625, 0, 
152, 1900079154, -88.54147338867188, -79.2956314086914, 156.1474151611328, 9.605000495910645, -1.7705045938491821, 0.018615372478961945, -3.0258095264434814, -2.761291265487671, -0.23501059412956238, -0.076171875, 0.02978515625, 0.38037109375, 0, 
153, 1900087487, -88.53883361816406, -79.29608917236328, 156.1444549560547, 9.346097946166992, -1.6238949298858643, 0.0704551637172699, -3.205045223236084, -2.8166310787200928, -0.4034114480018616, -0.07470703125, 0.02880859375, 0.38232421875, 0, 
154, 1900095820, -88.54306030273438, -79.29582977294922, 156.14791870117188, 9.609538078308105, -1.6707394123077393, 0.18113088607788086, -3.3090646266937256, -2.953308582305908, -0.31378719210624695, -0.078125, 0.029296875, 0.37841796875, 0, 
155, 1900104153, -88.54790496826172, -79.2958984375, 156.15269470214844, 9.87114143371582, -2.0280189514160156, 0.11409980058670044, -3.2373576164245605, -2.9831879138946533, -0.35649895668029785, -0.07470703125, 0.02880859375, 0.37939453125, 0, 
156, 1900112486, -88.54781341552734, -79.29606628417969, 156.15504455566406, 9.988813400268555, -2.022153615951538, -0.12719611823558807, -3.0798559188842773, -2.894716262817383, -0.36761555075645447, -0.0732421875, 0.0302734375, 0.37890625, 0, 
157, 1900120819, -88.54480743408203, -79.2958984375, 156.1533203125, 9.640239715576172, -1.8653699159622192, -0.030351998284459114, -3.0584418773651123, -2.8381593227386475, -0.3374675512313843, -0.07666015625, 0.02783203125, 0.38330078125, 0, 
158, 1900129152, -88.53424072265625, -79.29637908935547, 156.138671875, 9.42351245880127, -1.625170350074768, 0.04343268275260925, -3.1441469192504883, -2.644644021987915, -0.4027838408946991, -0.07373046875, 0.03173828125, 0.38134765625, 0, 
159, 1900137485, -88.53791809082031, -79.29766082763672, 156.13592529296875, 9.50221061706543, -1.6587955951690674, 0.22554628551006317, -3.222501754760742, -2.9582648277282715, -0.5025001168251038, -0.076171875, 0.029296875, 0.3779296875, 0, 
160, 1900145818, -88.5488510131836, -79.29766082763672, 156.14590454101562, 9.74056339263916, -1.8560806512832642, 0.031511783599853516, -3.3482930660247803, -3.100475311279297, -0.3443833887577057, -0.07666015625, 0.029296875, 0.380859375, 0, 
161, 1900154151, -88.54957580566406, -79.29772186279297, 156.14724731445312, 10.068232536315918, -2.056379556655884, 0.03557328134775162, -3.1446855068206787, -2.9072673320770264, -0.3508126139640808, -0.07470703125, 0.029296875, 0.37841796875, 0, 
162, 1900162484, -88.53990173339844, -79.2961196899414, 156.13841247558594, 9.815495491027832, -1.9980930089950562, -0.16327910125255585, -3.0128870010375977, -2.6844358444213867, -0.15900035202503204, -0.076171875, 0.02880859375, 0.380859375, 0, 
163, 1900170817, -88.5251235961914, -79.29634094238281, 156.12445068359375, 9.43349838256836, -1.575608730316162, -0.01715497300028801, -3.0865659713745117, -2.5660593509674072, -0.3831120431423187, -0.07470703125, 0.02783203125, 0.38134765625, 0, 
164, 1900179150, -88.5278549194336, -79.29678344726562, 156.12527465820312, 9.315666198730469, -1.6752694845199585, 0.13604770600795746, -3.232081174850464, -2.9308063983917236, -0.40419265627861023, -0.07568359375, 0.0302734375, 0.38232421875, 0, 
165, 1900187483, -88.5327377319336, -79.29772186279297, 156.13009643554688, 9.64850902557373, -1.8088335990905762, 0.07493908703327179, -3.3856897354125977, -2.9551658630371094, -0.44950419664382935, -0.07666015625, 0.03076171875, 0.38134765625, 0, 
166, 1900195816, -88.54071044921875, -79.2974624633789, 156.13868713378906, 10.012946128845215, -2.013803005218506, 0.06725752353668213, -3.1578257083892822, -3.0674073696136475, -0.3182312846183777, -0.07666015625, 0.029296875, 0.37841796875, 0, 
167, 1900204149, -88.53429412841797, -79.29593658447266, 156.13323974609375, 9.937777519226074, -2.0583064556121826, -0.14748188853263855, -3.082263231277466, -2.7513015270233154, -0.16966868937015533, -0.078125, 0.02978515625, 0.3798828125, 0, 
168, 1900212482, -88.5263442993164, -79.29472351074219, 156.1257781982422, 9.582489013671875, -1.7550249099731445, -0.009450690820813179, -3.104496717453003, -2.710780143737793, -0.20012401044368744, -0.0732421875, 0.02978515625, 0.37890625, 0, 
169, 1900220815, -88.52020263671875, -79.29547882080078, 156.11961364746094, 9.31143569946289, -1.5889033079147339, 0.05110250413417816, -3.2047505378723145, -2.7405951023101807, -0.4461999535560608, -0.076171875, 0.02978515625, 0.380859375, 0, 
170, 1900229148, -88.52862548828125, -79.29711151123047, 156.12518310546875, 9.544159889221191, -1.67495858669281, 0.19106410443782806, -3.418168544769287, -3.034877300262451, -0.5354143381118774, -0.0732421875, 0.029296875, 0.3798828125, 0, 
171, 1900237481, -88.536865234375, -79.29704284667969, 156.13128662109375, 9.847358703613281, -1.9807965755462646, 0.0338556244969368, -3.345449686050415, -3.030318021774292, -0.3438711166381836, -0.07666015625, 0.029296875, 0.3798828125, 0, 
172, 1900245814, -88.53489685058594, -79.29696655273438, 156.12940979003906, 9.989747047424316, -2.017101287841797, -0.12629756331443787, -3.2006778717041016, -2.8360848426818848, -0.3365198075771332, -0.07373046875, 0.03125, 0.3798828125, 0, 
173, 1900254147, -88.52842712402344, -79.29582977294922, 156.12440490722656, 9.668577194213867, -1.9365475177764893, -0.08360244333744049, -3.031393051147461, -2.762751340866089, -0.2170293778181076, -0.0732421875, 0.02880859375, 0.3798828125, 0, 
174, 1900262480, -88.52081298828125, -79.2966537475586, 156.1117401123047, 9.407530784606934, -1.6097965240478516, 0.05985584855079651, -3.202906370162964, -2.7016873359680176, -0.4507081210613251, -0.07421875, 0.02978515625, 0.380859375, 0, 
175, 1900270813, -88.52317810058594, -79.29707336425781, 156.1138153076172, 9.483837127685547, -1.6410257816314697, 0.22092638909816742, -3.2550315856933594, -2.9262471199035645, -0.3974817097187042, -0.07568359375, 0.029296875, 0.37890625, 0, 
176, 1900279146, -88.53441619873047, -79.2972183227539, 156.1267852783203, 9.777602195739746, -1.8725744485855103, 0.02854214422404766, -3.324164628982544, -3.107954502105713, -0.35888105630874634, -0.07568359375, 0.03125, 0.3798828125, 0, 
177, 1900287479, -88.53931427001953, -79.29634094238281, 156.12852478027344, 10.073692321777344, -2.039904832839966, 0.057942986488342285, -3.247603178024292, -2.9720709323883057, -0.2443598061800003, -0.0751953125, 0.0283203125, 0.38134765625, 0, 
178, 1900295812, -88.52880859375, -79.29512786865234, 156.11903381347656, 9.75013542175293, -2.0001940727233887, -0.11126556247472763, -3.068098545074463, -2.6623947620391846, -0.21029286086559296, -0.07470703125, 0.029296875, 0.37890625, 0, 
179, 1900304145, -88.52235412597656, -79.29420471191406, 156.11404418945312, 9.456352233886719, -1.633837342262268, 0.0040007177740335464, -3.0290112495422363, -2.764185667037964, -0.24169591069221497, -0.0751953125, 0.0283203125, 0.380859375, 0, 
180, 1900312478, -88.43521118164062, -79.283447265625, 156.0265655517578, 9.357094764709473, -1.694975733757019, 0.13678684830665588, -3.1843361854553223, -2.997659683227539, -0.4408210217952728, -0.07763671875, 0.029296875, 0.3798828125, 0, 
181, 1900320811, -88.44822692871094, -79.28388214111328, 156.03903198242188, 9.677986145019531, -1.7361364364624023, 0.14586062729358673, -3.307079553604126, -3.155545711517334, -0.394305557012558, -0.076171875, 0.029296875, 0.37939453125, 0, 
182, 1900329144, -88.45616149902344, -79.28368377685547, 156.0474090576172, 9.999589920043945, -2.028353691101074, 0.14705882966518402, -3.342555284500122, -3.0263988971710205, -0.31659194827079773, -0.07373046875, 0.029296875, 0.3828125, 0, 
183, 1900337477, -88.44512939453125, -79.28321838378906, 156.03799438476562, 9.939080238342285, -2.072955846786499, -0.17570798099040985, -3.0907154083251953, -2.645693778991699, -0.29984018206596375, -0.07666015625, 0.029296875, 0.37939453125, 0, 
184, 1900345810, -88.44032287597656, -79.28292083740234, 156.03431701660156, 9.566575050354004, -1.7665261030197144, -0.06262601166963577, -3.0751678943634033, -2.7951276302337646, -0.31451717019081116, -0.07568359375, 0.02783203125, 0.38232421875, 0, 
185, 1900354143, -88.43292999267578, -79.28373718261719, 156.02691650390625, 9.290167808532715, -1.6218024492263794, 0.06402785331010818, -3.1977453231811523, -2.715301513671875, -0.45330798625946045, -0.076171875, 0.029296875, 0.38134765625, 0, 
186, 1900362476, -88.44073486328125, -79.28468322753906, 156.0345458984375, 9.556671142578125, -1.70467209815979, 0.23441797494888306, -3.266288995742798, -3.0444695949554443, -0.4585845172405243, -0.07568359375, 0.02978515625, 0.38232421875, 0, 
187, 1900370809, -88.45124816894531, -79.28539276123047, 156.0434112548828, 9.858931541442871, -1.942508578300476, 0.04688310995697975, -3.4336392879486084, -3.0784213542938232, -0.429473876953125, -0.076171875, 0.0283203125, 0.3818359375, 0, 
188, 1900379142, -88.4500503540039, -79.2852783203125, 156.04098510742188, 10.060531616210938, -1.9920772314071655, -0.08246459811925888, -3.2555055618286133, -2.835893154144287, -0.3384537398815155, -0.076171875, 0.03076171875, 0.380859375, 0, 
189, 1900387475, -88.43798828125, -79.28406524658203, 156.02716064453125, 9.733379364013672, -1.9449204206466675, -0.06528608500957489, -3.050143003463745, -2.6251261234283447, -0.20645073056221008, -0.07568359375, 0.02880859375, 0.38427734375, 0, 
190, 1900395808, -88.42910766601562, -79.2839584350586, 156.01962280273438, 9.41750717163086, -1.5572293996810913, 0.031267404556274414, -3.0367467403411865, -2.708449125289917, -0.3429233729839325, -0.07763671875, 0.03076171875, 0.38818359375, 0, 
191, 1900404141, -88.4300537109375, -79.28325653076172, 156.02061462402344, 9.406615257263184, -1.6462132930755615, 0.1750667244195938, -3.210949420928955, -2.8988401889801025, -0.2675663232803345, -0.076171875, 0.02880859375, 0.38720703125, 0, 
192, 1900412474, -88.43843078613281, -79.28333282470703, 156.02581787109375, 9.705755233764648, -1.8947572708129883, 0.043491628021001816, -3.3924007415771484, -3.0319573879241943, -0.34635573625564575, -0.0751953125, 0.02685546875, 0.38818359375, 0, 
193, 1900420807, -88.44336700439453, -79.283447265625, 156.0313720703125, 10.045934677124023, -2.055973768234253, 0.01594068855047226, -3.148066282272339, -3.002500534057617, -0.3646954894065857, -0.07666015625, 0.03173828125, 0.38671875, 0, 
194, 1900429140, -88.43335723876953, -79.2828598022461, 156.01812744140625, 9.811430931091309, -2.041613817214966, -0.19004260003566742, -3.1968870162963867, -2.6461551189422607, -0.27819618582725525, -0.0751953125, 0.0283203125, 0.38916015625, 0, 
195, 1900437473, -88.4237060546875, -79.28347778320312, 156.01272583007812, 9.535648345947266, -1.707700490951538, 0.04593488201498985, -3.009134531021118, -2.6967177391052246, -0.4354163706302643, -0.07470703125, 0.02880859375, 0.3857421875, 0, 
196, 1900445806, -88.42375183105469, -79.28468322753906, 156.01231384277344, 9.365704536437988, -1.628904104232788, 0.15036089718341827, -3.26865816116333, -2.872969388961792, -0.491665244102478, -0.0771484375, 0.02783203125, 0.38818359375, 0, 
197, 1900454139, -88.43854522705078, -79.28450775146484, 156.02499389648438, 9.684561729431152, -1.675174593925476, 0.105950728058815, -3.4953951835632324, -3.160489320755005, -0.3190508782863617, -0.0751953125, 0.0283203125, 0.3876953125, 0, 
198, 1900462472, -88.45022583007812, -79.28422546386719, 156.0314178466797, 9.955259323120117, -2.0705208778381348, 0.09722063690423965, -3.2997796535491943, -3.120710611343384, -0.31234002113342285, -0.0771484375, 0.0283203125, 0.38623046875, 0, 
199, 1900470805, -88.44261932373047, -79.28450775146484, 156.02418518066406, 9.876283645629883, -2.0052030086517334, -0.1585644781589508, -3.1542649269104004, -2.716876268386841, -0.3879531919956207, -0.07470703125, 0.02783203125, 0.3896484375, 0, 
200, 1900479138, -88.43800354003906, -79.28376770019531, 156.0169677734375, 9.553275108337402, -1.7405163049697876, -0.042760420590639114, -3.09437894821167, -2.790107250213623, -0.2516598403453827, -0.0751953125, 0.02783203125, 0.38818359375, 0, 
201, 1900487471, -88.43533325195312, -79.28384399414062, 156.01097106933594, 9.382830619812012, -1.6398266553878784, 0.05575612932443619, -3.148041009902954, -2.8243792057037354, -0.363747775554657, -0.07373046875, 0.0302734375, 0.3896484375, 0, 
202, 1900495804, -88.44151306152344, -79.28435516357422, 156.01686096191406, 9.593191146850586, -1.7084808349609375, 0.2530127465724945, -3.259437322616577, -3.0111327171325684, -0.40808603167533875, -0.0751953125, 0.029296875, 0.38671875, 0, 
203, 1900504137, -88.4537124633789, -79.28406524658203, 156.02828979492188, 9.833276748657227, -1.9407559633255005, 0.06780073791742325, -3.3358957767486572, -3.131545305252075, -0.3080880343914032, -0.07568359375, 0.03076171875, 0.39111328125, 0, 
204, 1900512470, -88.4544677734375, -79.28450775146484, 156.0291748046875, 10.069973945617676, -2.0691394805908203, -0.08912143111228943, -3.177522897720337, -2.8990707397460938, -0.3918209969997406, -0.07568359375, 0.0302734375, 0.38720703125, 0, 
205, 1900520803, -88.44586181640625, -79.28350830078125, 156.02174377441406, 9.696413040161133, -2.0099740028381348, -0.11798574030399323, -3.0554449558258057, -2.7094993591308594, -0.23939064145088196, -0.076171875, 0.029296875, 0.388671875, 0, 
206, 1900529136, -88.43020629882812, -79.28406524658203, 156.00914001464844, 9.339625358581543, -1.5819458961486816, -0.008153783157467842, -3.100935697555542, -2.540778160095215, -0.4209698736667633, -0.07421875, 0.02734375, 0.39013671875, 0, 
207, 1900537469, -88.4364242553711, -79.2850570678711, 156.02699279785156, 9.374102592468262, -1.68436598777771, 0.20709817111492157, -3.2462456226348877, -3.00864839553833, -0.45893028378486633, -0.07470703125, 0.02880859375, 0.38720703125, 0, 
208, 1900545802, -88.4500732421875, -79.28643798828125, 156.03924560546875, 9.748355865478516, -1.8584723472595215, 0.018816577270627022, -3.4090497493743896, -3.1559813022613525, -0.5075716972351074, -0.07470703125, 0.02880859375, 0.3896484375, 0, 
209, 1900554135, -88.45156860351562, -79.2865219116211, 156.04051208496094, 10.061866760253906, -1.9936597347259521, 0.009073539637029171, -3.2428903579711914, -2.906191110610962, -0.36026424169540405, -0.076171875, 0.0302734375, 0.3896484375, 0, 
210, 1900562468, -88.43489837646484, -79.28641510009766, 156.02059936523438, 9.847383499145508, -1.9757826328277588, -0.12521423399448395, -3.1296494007110596, -2.506711483001709, -0.349736750125885, -0.07763671875, 0.029296875, 0.3876953125, 0, 
211, 1900570801, -88.42317962646484, -79.28614044189453, 156.0102996826172, 9.538915634155273, -1.632627010345459, 0.007933275774121284, -3.0268852710723877, -2.6478970050811768, -0.32402005791664124, -0.07373046875, 0.02880859375, 0.3896484375, 0, 
212, 1900579134, -88.42196655273438, -79.28689575195312, 156.00921630859375, 9.335418701171875, -1.6576941013336182, 0.08832530677318573, -3.234079360961914, -2.8419508934020996, -0.43769606947898865, -0.076171875, 0.02783203125, 0.388671875, 0, 
213, 1900587467, -88.4334945678711, -79.28795623779297, 156.01661682128906, 9.634140968322754, -1.7698838710784912, 0.11291168630123138, -3.3701932430267334, -3.1055214405059814, -0.47378653287887573, -0.076171875, 0.02880859375, 0.3876953125, 0, 
214, 1900595800, -88.44115447998047, -79.28726196289062, 156.02296447753906, 9.963871002197266, -2.030951738357544, 0.10018915683031082, -3.386714220046997, -3.0168957710266113, -0.267668753862381, -0.0771484375, 0.02978515625, 0.38916015625, 0, 
215, 1900604133, -88.43472290039062, -79.28704071044922, 156.0159454345703, 9.968589782714844, -2.0265824794769287, -0.1656157672405243, -3.2688887119293213, -2.7224602699279785, -0.3249166011810303, -0.0771484375, 0.0302734375, 0.38818359375, 0, 
216, 1900612466, -88.42809295654297, -79.28650665283203, 156.01036071777344, 9.610017776489258, -1.8658045530319214, -0.0780886635184288, -3.129879951477051, -2.73698353767395, -0.2798354923725128, -0.07568359375, 0.0283203125, 0.39013671875, 0, 
217, 1900620799, -88.42496490478516, -79.28700256347656, 156.00851440429688, 9.359692573547363, -1.596512794494629, 0.0759797915816307, -3.0566494464874268, -2.8379294872283936, -0.4110828936100006, -0.076171875, 0.029296875, 0.390625, 0, 
218, 1900629132, -88.42996978759766, -79.28689575195312, 156.01124572753906, 9.567464828491211, -1.6202585697174072, 0.2385791391134262, -3.380080223083496, -2.954115629196167, -0.33879950642585754, -0.0771484375, 0.02783203125, 0.38916015625, 0, 
219, 1900637465, -88.44574737548828, -79.28663635253906, 156.0218963623047, 9.85687255859375, -1.9771655797958374, 0.01593829318881035, -3.43896746635437, -3.1865134239196777, -0.300967276096344, -0.07568359375, 0.02880859375, 0.38818359375, 0, 
220, 1900645798, -88.44117736816406, -79.28645324707031, 156.0172576904297, 10.050308227539062, -2.0672385692596436, -0.06921156495809555, -3.21532940864563, -2.775994300842285, -0.33188363909721375, -0.07568359375, 0.02978515625, 0.390625, 0, 
221, 1900654131, -88.43537139892578, -79.28520202636719, 156.0123291015625, 9.666677474975586, -1.9162933826446533, -0.0856364518404007, -3.103548526763916, -2.7640321254730225, -0.19743451476097107, -0.07470703125, 0.02880859375, 0.3857421875, 0, 
222, 1900662464, -88.42718505859375, -79.2850570678711, 156.00601196289062, 9.432995796203613, -1.5997568368911743, 0.0033836355432868004, -3.155827283859253, -2.693208694458008, -0.3509662449359894, -0.076171875, 0.02978515625, 0.38818359375, 0, 
223, 1900670797, -88.43124389648438, -79.28572082519531, 156.00967407226562, 9.468231201171875, -1.7368459701538086, 0.2455281764268875, -3.2702207565307617, -2.962183952331543, -0.4239412248134613, -0.0751953125, 0.029296875, 0.3916015625, 0, 
224, 1900679130, -88.43997955322266, -79.2857894897461, 156.0176239013672, 9.74886703491211, -1.7655491828918457, 0.05960656702518463, -3.2853586673736572, -3.057648181915283, -0.3487122058868408, -0.0771484375, 0.03125, 0.3876953125, 0, 
225, 1900687463, -88.44742584228516, -79.28516387939453, 156.022705078125, 10.068232536315918, -1.9975576400756836, 0.03770442679524422, -3.2056984901428223, -3.041229724884033, -0.26605507731437683, -0.07666015625, 0.0302734375, 0.39013671875, 0, 
226, 1900695796, -88.44365692138672, -79.28426361083984, 156.0198211669922, 9.815570831298828, -2.0541930198669434, -0.16010619699954987, -3.0960183143615723, -2.8111109733581543, -0.24620404839515686, -0.07763671875, 0.02880859375, 0.38818359375, 0, 
227, 1900704129, -88.43793487548828, -79.2837142944336, 156.01629638671875, 9.454095840454102, -1.6275367736816406, -0.04167800769209862, -2.946251392364502, -2.7975096702575684, -0.2837032377719879, -0.07763671875, 0.02978515625, 0.39111328125, 0, 
228, 1900712462, -88.43822479248047, -79.28500366210938, 156.0132293701172, 9.298677444458008, -1.6244853734970093, 0.12598665058612823, -3.3213725090026855, -2.863722801208496, -0.5035502314567566, -0.07763671875, 0.02880859375, 0.3896484375, 0, 
229, 1900720795, -88.44348907470703, -79.284912109375, 156.0167694091797, 9.646618843078613, -1.7827773094177246, 0.1391717791557312, -3.4284908771514893, -2.956702470779419, -0.33554649353027344, -0.0751953125, 0.029296875, 0.39013671875, 0, 
230, 1900729128, -88.44818115234375, -79.28546142578125, 156.02227783203125, 9.972567558288574, -2.0408577919006348, 0.10412783920764923, -3.239790916442871, -2.9727370738983154, -0.4194331169128418, -0.07470703125, 0.029296875, 0.38916015625, 0, 
231, 1900737461, -88.44263458251953, -79.2852783203125, 156.01588439941406, 10.005518913269043, -2.0027313232421875, -0.15737895667552948, -3.1521646976470947, -2.7602667808532715, -0.3210488259792328, -0.07666015625, 0.02880859375, 0.38916015625, 0, 
232, 1900745794, -88.43534088134766, -79.28439331054688, 156.00990295410156, 9.66067123413086, -1.8324394226074219, -0.03189898654818535, -3.050450086593628, -2.7422597408294678, -0.24167026579380035, -0.07666015625, 0.029296875, 0.3916015625, 0, 
233, 1900754127, -88.43057250976562, -79.28482055664062, 156.00547790527344, 9.3345947265625, -1.576638102531433, 0.024752547964453697, -3.1586451530456543, -2.7810399532318115, -0.4075993597507477, -0.07470703125, 0.02880859375, 0.3896484375, 0, 
234, 1900762460, -88.43997192382812, -79.2843246459961, 156.01284790039062, 9.51071834564209, -1.6325405836105347, 0.2205827832221985, -3.3586411476135254, -3.0558297634124756, -0.2822688817977905, -0.0771484375, 0.02880859375, 0.39111328125, 0, 
235, 1900770793, -88.45249938964844, -79.28487396240234, 156.02438354492188, 9.815526008605957, -1.941574215888977, 0.02067161351442337, -3.356131076812744, -3.1369242668151855, -0.4056014120578766, -0.07568359375, 0.02734375, 0.3896484375, 0, 
236, 1900779126, -88.45014190673828, -79.28435516357422, 156.02452087402344, 10.02987289428711, -2.0399091243743896, -0.1067778691649437, -3.1195833683013916, -2.8327043056488037, -0.29274511337280273, -0.07421875, 0.02978515625, 0.38818359375, 0, 
237, 1900787459, -88.44486236572266, -79.28355407714844, 156.0175323486328, 9.68454647064209, -1.9565576314926147, -0.12160485237836838, -3.163306951522827, -2.7597031593322754, -0.25204408168792725, -0.07568359375, 0.03125, 0.390625, 0, 
238, 1900795792, -88.4373779296875, -79.28397369384766, 156.01052856445312, 9.468918800354004, -1.643926739692688, 0.04553566500544548, -3.1409964561462402, -2.7215123176574707, -0.40757372975349426, -0.0771484375, 0.02783203125, 0.388671875, 0, 
239, 1900804125, -88.43658447265625, -79.2848892211914, 156.0094451904297, 9.479799270629883, -1.6688624620437622, 0.19973979890346527, -3.2459256649017334, -2.8573575019836426, -0.45697078108787537, -0.07763671875, 0.0302734375, 0.388671875, 0, 
240, 1900812458, -88.44751739501953, -79.28582763671875, 156.02308654785156, 9.737751960754395, -1.7833813428878784, 0.023493973538279533, -3.297295093536377, -3.1068785190582275, -0.45672744512557983, -0.07470703125, 0.0263671875, 0.38818359375, 0, 
241, 1900820791, -88.45339965820312, -79.2860107421875, 156.0283966064453, 10.030092239379883, -2.075378894805908, 0.07738620787858963, -3.2973721027374268, -2.997429132461548, -0.37038183212280273, -0.07568359375, 0.02880859375, 0.3896484375, 0, 
242, 1900829124, -88.44664764404297, -79.28544616699219, 156.0212860107422, 9.80583667755127, -2.04396653175354, -0.16444863379001617, -3.1845669746398926, -2.723741054534912, -0.2846510112285614, -0.07373046875, 0.029296875, 0.38427734375, 0, 
243, 1900837457, -88.43927764892578, -79.28557586669922, 156.01573181152344, 9.50634479522705, -1.656477451324463, -0.029203422367572784, -3.0786516666412354, -2.7304773330688477, -0.36641162633895874, -0.076171875, 0.03076171875, 0.37744140625, 0, 
244, 1900845790, -88.44061279296875, -79.28707885742188, 156.0168914794922, 9.337189674377441, -1.643225073814392, 0.10921508818864822, -3.2405338287353516, -2.909956693649292, -0.5260395407676697, -0.07568359375, 0.02734375, 0.376953125, 0, 
245, 1900854123, -88.44512939453125, -79.28704071044922, 156.02072143554688, 9.652483940124512, -1.6993533372879028, 0.15809905529022217, -3.3011369705200195, -2.9633874893188477, -0.3470216691493988, -0.0751953125, 0.03125, 0.3759765625, 0, 
246, 1900862456, -88.45598602294922, -79.28700256347656, 156.03274536132812, 9.950654983520508, -1.9775712490081787, 0.13057680428028107, -3.2884323596954346, -3.102959632873535, -0.33631494641304016, -0.0751953125, 0.0302734375, 0.376953125, 0, 
247, 1900870789, -88.45022583007812, -79.28718566894531, 156.02682495117188, 9.994747161865234, -2.0577080249786377, -0.12745028734207153, -3.224128007888794, -2.7471652030944824, -0.3711887300014496, -0.07373046875, 0.029296875, 0.3779296875, 0, 
248, 1900879122, -88.44078063964844, -79.28568267822266, 156.01937866210938, 9.649150848388672, -1.8498284816741943, -0.08630732446908951, -2.9194459915161133, -2.708794593811035, -0.1720379739999771, -0.07763671875, 0.029296875, 0.3779296875, 0, 
249, 1900887455, -88.432861328125, -79.28621673583984, 156.01055908203125, 9.306849479675293, -1.603918194770813, 0.002630267757922411, -3.160463571548462, -2.702993154525757, -0.42691242694854736, -0.07666015625, 0.03076171875, 0.37841796875, 0, 
250, 1900895788, -88.43975067138672, -79.28744506835938, 156.016845703125, 9.499750137329102, -1.719417929649353, 0.2285044938325882, -3.308488607406616, -3.0234789848327637, -0.48669612407684326, -0.0751953125, 0.02880859375, 0.37939453125, 0, 
251, 1900904121, -88.4510498046875, -79.28807067871094, 156.02760314941406, 9.827004432678223, -1.9362128973007202, 0.031116729602217674, -3.294989824295044, -3.1192502975463867, -0.42168718576431274, -0.07470703125, 0.03076171875, 0.37939453125, 0, 
252, 1900912454, -88.44918823242188, -79.28744506835938, 156.0253448486328, 10.079469680786133, -1.974117398262024, -0.05767825245857239, -3.2016260623931885, -2.8322174549102783, -0.2732526659965515, -0.0771484375, 0.02880859375, 0.37890625, 0, 
253, 1900920787, -88.44293212890625, -79.2865219116211, 156.0203094482422, 9.741986274719238, -1.9886865615844727, -0.10355058312416077, -3.0578274726867676, -2.762495279312134, -0.23921135067939758, -0.0751953125, 0.02978515625, 0.3798828125, 0, 
254, 1900929120, -88.43546295166016, -79.28656768798828, 156.0140380859375, 9.442244529724121, -1.5867805480957031, 0.025097141042351723, -3.0743484497070312, -2.726379156112671, -0.3643880784511566, -0.0751953125, 0.02880859375, 0.3798828125, 0, 
255, 1900937453, -88.43936157226562, -79.28704071044922, 156.01710510253906, 9.357881546020508, -1.5988962650299072, 0.1412145346403122, -3.3180172443389893, -2.9424099922180176, -0.4029119610786438, -0.07568359375, 0.02978515625, 0.380859375, 0, 
256, 1900945786, -88.45503234863281, -79.28715515136719, 156.03089904785156, 9.662192344665527, -1.8173726797103882, -0.0016584646655246615, -3.470498561859131, -3.1863598823547363, -0.3530922532081604, -0.0751953125, 0.029296875, 0.38037109375, 0, 
257, 1900954119, -88.46508026123047, -79.28705596923828, 156.040771484375, 10.011253356933594, -2.0796148777008057, 0.08589581400156021, -3.2562355995178223, -3.0977087020874023, -0.3327033221721649, -0.07421875, 0.029296875, 0.37939453125, 0, 
258, 1900962452, -88.45223999023438, -79.28562927246094, 156.02719116210938, 9.831340789794922, -2.0358033180236816, -0.1802150160074234, -3.1977322101593018, -2.5784568786621094, -0.18644602596759796, -0.07666015625, 0.03173828125, 0.37939453125, 0, 
259, 1900970785, -88.4437026977539, -79.28498840332031, 156.01907348632812, 9.556846618652344, -1.7525025606155396, -0.005208595190197229, -3.142559289932251, -2.696077585220337, -0.2732014060020447, -0.07470703125, 0.029296875, 0.38134765625, 0, 
260, 1900979118, -88.44316101074219, -79.28641510009766, 156.0156707763672, 9.395232200622559, -1.6765468120574951, 0.11688455939292908, -3.1936087608337402, -2.8711512088775635, -0.5179454684257507, -0.0751953125, 0.02978515625, 0.37841796875, 0, 
261, 1900987451, -88.45061492919922, -79.28694915771484, 156.01954650878906, 9.648138046264648, -1.6248078346252441, 0.17570430040359497, -3.300368309020996, -3.0240166187286377, -0.41162076592445374, -0.07421875, 0.03076171875, 0.3828125, 0, 
262, 1900995784, -88.460693359375, -79.28692626953125, 156.029052734375, 9.915230751037598, -1.9521851539611816, 0.08491339534521103, -3.3061575889587402, -3.0916640758514404, -0.34297463297843933, -0.07470703125, 0.02978515625, 0.37890625, 0, 
263, 1901004117, -88.45355224609375, -79.28649139404297, 156.02203369140625, 9.965237617492676, -2.0425360202789307, -0.13192638754844666, -3.1824917793273926, -2.7198734283447266, -0.29948166012763977, -0.07666015625, 0.0302734375, 0.3818359375, 0, 
264, 1901012450, -88.44828033447266, -79.28483581542969, 156.0213623046875, 9.62003231048584, -1.8170802593231201, -0.053086329251527786, -3.0574944019317627, -2.778580904006958, -0.14884431660175323, -0.07470703125, 0.02734375, 0.37939453125, 0, 
265, 1901020783, -88.44144439697266, -79.28487396240234, 156.01380920410156, 9.403109550476074, -1.6017693281173706, 0.0010314295068383217, -3.280428171157837, -2.7116639614105225, -0.35448822379112244, -0.07666015625, 0.029296875, 0.380859375, 0, 
266, 1901029116, -88.44630432128906, -79.28470611572266, 156.01528930664062, 9.552064895629883, -1.7359739542007446, 0.24064287543296814, -3.302021026611328, -2.9639384746551514, -0.3364301919937134, -0.07373046875, 0.02783203125, 0.38134765625, 0, 
267, 1901037449, -88.45084381103516, -79.28487396240234, 156.0181884765625, 9.78674030303955, -1.8771429061889648, 0.057565461844205856, -3.31138277053833, -2.955524206161499, -0.36382463574409485, -0.07470703125, 0.03076171875, 0.37890625, 0, 
268, 1901045782, -88.45620727539062, -79.2835693359375, 156.02317810058594, 10.066207885742188, -2.008425235748291, 0.014964042231440544, -3.2757022380828857, -2.9868505001068115, -0.18695829808712006, -0.0771484375, 0.02880859375, 0.38037109375, 0, 
269, 1901054115, -88.4551773071289, -79.2828369140625, 156.023193359375, 9.787641525268555, -2.071491003036499, -0.08923431485891342, -3.0862338542938232, -2.876248359680176, -0.2603943347930908, -0.07568359375, 0.02978515625, 0.3818359375, 0, 
270, 1901062448, -88.44878387451172, -79.28355407714844, 156.0181884765625, 9.481569290161133, -1.6324727535247803, -0.03360902890563011, -3.062002420425415, -2.758012533187866, -0.4423322081565857, -0.07568359375, 0.029296875, 0.38037109375, 0, 
271, 1901070781, -88.44947814941406, -79.28414154052734, 156.01800537109375, 9.344708442687988, -1.622368335723877, 0.14698337018489838, -3.3167874813079834, -2.8763763904571533, -0.42181524634361267, -0.07470703125, 0.02685546875, 0.37939453125, 0, 
272, 1901079114, -88.45762634277344, -79.28524017333984, 156.02403259277344, 9.647833824157715, -1.7556345462799072, 0.06379663944244385, -3.408998966217041, -3.022761583328247, -0.47201910614967346, -0.07666015625, 0.03076171875, 0.37841796875, 0, 
273, 1901087447, -88.4652099609375, -79.28511047363281, 156.03402709960938, 10.007344245910645, -1.976827621459961, 0.08459561318159103, -3.3658387660980225, -3.015589714050293, -0.3296296000480652, -0.0732421875, 0.0283203125, 0.380859375, 0, 
274, 1901095780, -88.45632934570312, -79.28402709960938, 156.02574157714844, 9.902328491210938, -2.0043818950653076, -0.15018436312675476, -3.1267037391662598, -2.6903655529022217, -0.2267628163099289, -0.0771484375, 0.02978515625, 0.37890625, 0, 
275, 1901104113, -88.44954681396484, -79.28333282470703, 156.0204315185547, 9.63495922088623, -1.7280821800231934, 0.007075928151607513, -3.0254251956939697, -2.757295608520508, -0.27015331387519836, -0.07421875, 0.03125, 0.380859375, 0, 
276, 1901112446, -88.44648742675781, -79.28250122070312, 156.01443481445312, 9.370200157165527, -1.6551322937011719, 0.022916000336408615, -3.1727073192596436, -2.8076021671295166, -0.2436169981956482, -0.07470703125, 0.0302734375, 0.3798828125, 0, 
277, 1901120779, -88.45182800292969, -79.28240966796875, 156.01910400390625, 9.536088943481445, -1.694488763809204, 0.17622222006320953, -3.3062853813171387, -2.9827778339385986, -0.3331899642944336, -0.07568359375, 0.03076171875, 0.37939453125, 0, 
278, 1901129112, -88.45784759521484, -79.28266906738281, 156.0337677001953, 9.811118125915527, -1.9937864542007446, 0.07414672523736954, -3.337099552154541, -2.983827829360962, -0.3803970515727997, -0.07568359375, 0.0302734375, 0.38134765625, 0, 
279, 1901137445, -88.4554214477539, -79.28314208984375, 156.0334014892578, 9.999109268188477, -2.064157247543335, -0.15103310346603394, -3.1854891777038574, -2.8223302364349365, -0.4145151674747467, -0.07568359375, 0.02880859375, 0.38037109375, 0, 
280, 1901145778, -88.44577026367188, -79.28233337402344, 156.02525329589844, 9.722420692443848, -1.964746356010437, -0.05899462848901749, -3.021275758743286, -2.6941051483154297, -0.2532223165035248, -0.076171875, 0.0283203125, 0.38134765625, 0, 
281, 1901154111, -88.43218231201172, -79.28311157226562, 156.0129852294922, 9.464579582214355, -1.616355061531067, 0.06744261085987091, -3.1209914684295654, -2.582017183303833, -0.4431518018245697, -0.07470703125, 0.02783203125, 0.37890625, 0, 
282, 1901162444, -88.43193817138672, -79.28321838378906, 156.0119171142578, 9.46639633178711, -1.6051644086837769, 0.1928916871547699, -3.309666633605957, -2.8535540103912354, -0.37230294942855835, -0.0771484375, 0.029296875, 0.3798828125, 0, 
283, 1901170777, -88.43946075439453, -79.28353118896484, 156.01834106445312, 9.689491271972656, -1.7961748838424683, 0.009967567399144173, -3.3606133460998535, -3.0226078033447266, -0.3799872100353241, -0.07470703125, 0.02734375, 0.3798828125, 0, 
284, 1901179110, -88.43788146972656, -79.28350830078125, 156.0155029296875, 9.998968124389648, -2.091057300567627, 0.09968056529760361, -3.3098459243774414, -2.818385362625122, -0.35081255435943604, -0.0771484375, 0.03076171875, 0.37841796875, 0, 
285, 1901187443, -88.4332046508789, -79.28363037109375, 156.0113525390625, 9.800670623779297, -2.033693790435791, -0.14248314499855042, -3.1447365283966064, -2.785804271697998, -0.360213041305542, -0.0751953125, 0.02978515625, 0.38330078125, 0, 
286, 1901195776, -88.4224853515625, -79.28307342529297, 155.99974060058594, 9.588619232177734, -1.634264349937439, -0.01723986491560936, -3.0615668296813965, -2.6553761959075928, -0.29020926356315613, -0.07568359375, 0.0283203125, 0.38525390625, 0, 
287, 1901204109, -88.41806030273438, -79.28296661376953, 155.99618530273438, 9.406376838684082, -1.7094542980194092, 0.15591174364089966, -3.287484884262085, -2.757270097732544, -0.33608442544937134, -0.07568359375, 0.03125, 0.38818359375, 0, 
288, 1901212442, -88.42544555664062, -79.28417205810547, 156.00277709960938, 9.640026092529297, -1.6913758516311646, 0.12948913872241974, -3.325547456741333, -3.0297799110412598, -0.4890269935131073, -0.0771484375, 0.029296875, 0.38818359375, 0, 
289, 1901220775, -88.43205261230469, -79.28428649902344, 156.00796508789062, 9.93254566192627, -1.936942219734192, 0.12750057876110077, -3.393169403076172, -2.9963791370391846, -0.3582150936126709, -0.07763671875, 0.02978515625, 0.3876953125, 0, 
290, 1901229108, -88.43135833740234, -79.28445434570312, 156.00770568847656, 9.96689224243164, -2.0845344066619873, -0.16347374022006989, -3.2600905895233154, -2.8439102172851562, -0.37198272347450256, -0.07470703125, 0.02978515625, 0.390625, 0, 
291, 1901237441, -88.42230224609375, -79.28406524658203, 156.0007781982422, 9.647820472717285, -1.8298166990280151, -0.029824979603290558, -2.95102858543396, -2.7234973907470703, -0.30751168727874756, -0.0751953125, 0.02880859375, 0.3857421875, 0, 
292, 1901245774, -88.41455078125, -79.28434753417969, 155.99386596679688, 9.330697059631348, -1.5713287591934204, 0.03090270794928074, -3.1694798469543457, -2.706374406814575, -0.3841879367828369, -0.07568359375, 0.029296875, 0.39013671875, 0, 
293, 1901254107, -88.42256927490234, -79.28498840332031, 156.00086975097656, 9.517626762390137, -1.6864711046218872, 0.19234713912010193, -3.3690402507781982, -3.024862289428711, -0.4264513850212097, -0.07470703125, 0.02880859375, 0.38671875, 0, 
294, 1901262440, -88.43122100830078, -79.28516387939453, 156.00852966308594, 9.768342018127441, -2.0048828125, 0.08052816987037659, -3.352480888366699, -3.050616979598999, -0.36317145824432373, -0.07763671875, 0.0302734375, 0.3876953125, 0, 
295, 1901270773, -88.42974853515625, -79.284912109375, 156.00643920898438, 10.046972274780273, -1.998963475227356, -0.016226351261138916, -3.2821056842803955, -2.8304243087768555, -0.32156112790107727, -0.07568359375, 0.029296875, 0.39013671875, 0, 
296, 1901279106, -88.42800903320312, -79.28376770019531, 156.0052947998047, 9.792458534240723, -1.9678239822387695, -0.09370623528957367, -3.2990882396698, -2.8128530979156494, -0.2069886475801468, -0.07861328125, 0.03076171875, 0.3876953125, 0, 
297, 1901287439, -88.41571807861328, -79.28392028808594, 155.9948272705078, 9.488588333129883, -1.6055495738983154, -0.02690756879746914, -2.969355583190918, -2.6462833881378174, -0.37312254309654236, -0.07763671875, 0.029296875, 0.3896484375, 0, 
298, 1901295772, -88.41658020019531, -79.28353118896484, 155.99588012695312, 9.347161293029785, -1.5878931283950806, 0.1969497948884964, -3.1967592239379883, -2.892077684402466, -0.3041434586048126, -0.07568359375, 0.02783203125, 0.3876953125, 0, 
299, 1901304105, -88.42464447021484, -79.28363037109375, 156.0088653564453, 9.595329284667969, -1.8050603866577148, 0.0445389486849308, -3.4044907093048096, -3.018996477127075, -0.36067405343055725, -0.07763671875, 0.02880859375, 0.3896484375, 0, 
300, 1901312438, -88.433349609375, -79.28363037109375, 156.0176239013672, 10.015616416931152, -2.070115566253662, 0.046321801841259, -3.225447177886963, -3.072965621948242, -0.34100231528282166, -0.07666015625, 0.02783203125, 0.390625, 0, 
301, 1901320771, -88.42625427246094, -79.2837142944336, 156.01087951660156, 9.834572792053223, -2.0218758583068848, -0.15493939816951752, -3.1595160961151123, -2.7291455268859863, -0.3618522882461548, -0.07568359375, 0.0283203125, 0.3896484375, 0, 
302, 1901329104, -88.42170715332031, -79.28340148925781, 156.01004028320312, 9.580957412719727, -1.69935142993927, 0.0003211244475096464, -3.050501585006714, -2.7971768379211426, -0.31390243768692017, -0.076171875, 0.0283203125, 0.38916015625, 0, 
303, 1901337437, -88.41851043701172, -79.28457641601562, 156.00772094726562, 9.384538650512695, -1.6830283403396606, 0.15400423109531403, -3.1026523113250732, -2.8310389518737793, -0.4949182868003845, -0.07470703125, 0.029296875, 0.3876953125, 0, 
304, 1901345770, -88.42659759521484, -79.28577423095703, 156.01173400878906, 9.6218843460083, -1.6567943096160889, 0.11985242366790771, -3.3136112689971924, -3.0381813049316406, -0.49263861775398254, -0.0751953125, 0.03125, 0.388671875, 0, 
305, 1901354103, -88.43781280517578, -79.28614044189453, 156.01849365234375, 9.90145492553711, -1.9867595434188843, 0.12313847988843918, -3.344578981399536, -3.1045992374420166, -0.3752485513687134, -0.07568359375, 0.029296875, 0.38720703125, 0, 
306, 1901362436, -88.428955078125, -79.28533172607422, 156.00926208496094, 9.961530685424805, -2.0561716556549072, -0.15310010313987732, -3.240175247192383, -2.670335292816162, -0.25929293036460876, -0.0751953125, 0.02734375, 0.39111328125, 0, 
307, 1901370769, -88.4230728149414, -79.2851333618164, 156.0048828125, 9.627735137939453, -1.8296316862106323, -0.001311113708652556, -3.020174264907837, -2.7796308994293213, -0.32937344908714294, -0.07373046875, 0.029296875, 0.39013671875, 0, 
308, 1901379102, -88.41529846191406, -79.28598022460938, 155.99557495117188, 9.369385719299316, -1.586198091506958, 0.021151650696992874, -3.1607961654663086, -2.705349922180176, -0.45754706859588623, -0.0771484375, 0.0283203125, 0.39013671875, 0, 
309, 1901387435, -88.4242172241211, -79.28608703613281, 156.00306701660156, 9.512978553771973, -1.6964679956436157, 0.24104885756969452, -3.4051311016082764, -3.0460705757141113, -0.35713931918144226, -0.07421875, 0.029296875, 0.3896484375, 0, 
310, 1901395768, -88.43739318847656, -79.28744506835938, 156.01524353027344, 9.806940078735352, -1.8892478942871094, 0.07253402471542358, -3.323190927505493, -3.154162883758545, -0.5037039518356323, -0.076171875, 0.02880859375, 0.39013671875, 0, 
311, 1901404101, -88.43663787841797, -79.28759002685547, 156.0128936767578, 10.095160484313965, -2.0159616470336914, -0.012867288663983345, -3.3236777782440186, -2.8345224857330322, -0.3667190372943878, -0.07763671875, 0.02978515625, 0.39208984375, 0, 
312, 1901412434, -88.43449401855469, -79.28667449951172, 156.01158142089844, 9.779165267944336, -2.024944305419922, -0.10377110540866852, -3.1138458251953125, -2.845946788787842, -0.23926259577274323, -0.07421875, 0.0302734375, 0.38720703125, 0, 
313, 1901420767, -88.42512512207031, -79.28689575195312, 156.002685546875, 9.428666114807129, -1.62669837474823, -0.035706449300050735, -3.1384096145629883, -2.679556131362915, -0.38400858640670776, -0.078125, 0.0302734375, 0.3876953125, 0, 
314, 1901429100, -88.43132019042969, -79.2883071899414, 156.00662231445312, 9.34615707397461, -1.659301519393921, 0.1569765955209732, -3.235564708709717, -3.0147957801818848, -0.5091341733932495, -0.07470703125, 0.02783203125, 0.390625, 0, 
315, 1901437433, -88.43968963623047, -79.28864288330078, 156.0144805908203, 9.696351051330566, -1.7987898588180542, 0.033021874725818634, -3.287714958190918, -3.053985357284546, -0.38598090410232544, -0.076171875, 0.02978515625, 0.3876953125, 0, 
316, 1901445766, -88.44677734375, -79.28864288330078, 156.01876831054688, 10.069184303283691, -1.967366099357605, 0.11190629750490189, -3.2313127517700195, -3.029165029525757, -0.3466886878013611, -0.07470703125, 0.02783203125, 0.3876953125, 0, 
317, 1901454099, -88.44007110595703, -79.28777313232422, 156.01010131835938, 9.901418685913086, -2.0138163566589355, -0.13691329956054688, -3.128906726837158, -2.733013153076172, -0.24551242589950562, -0.07373046875, 0.029296875, 0.38818359375, 0, 
318, 1901462432, -88.43331146240234, -79.28670501708984, 156.0048065185547, 9.567184448242188, -1.7237839698791504, -0.007058327551931143, -3.029088258743286, -2.7559890747070312, -0.22491858899593353, -0.07763671875, 0.0283203125, 0.39013671875, 0, 
319, 1901470765, -88.43162536621094, -79.28766632080078, 156.00332641601562, 9.299491882324219, -1.6242231130599976, 0.04197806119918823, -3.1880502700805664, -2.849020481109619, -0.46886858344078064, -0.07568359375, 0.02880859375, 0.390625, 0, 
320, 1901479098, -88.4391860961914, -79.28777313232422, 156.0104217529297, 9.550804138183594, -1.6670325994491577, 0.161091610789299, -3.442988395690918, -2.9975571632385254, -0.358752965927124, -0.078125, 0.02880859375, 0.3876953125, 0, 
321, 1901487431, -88.45018005371094, -79.28744506835938, 156.0208740234375, 9.898992538452148, -2.0277302265167236, 0.09235457330942154, -3.2948615550994873, -3.109977960586548, -0.304963082075119, -0.07568359375, 0.02880859375, 0.3876953125, 0, 
322, 1901495764, -88.44575500488281, -79.28729248046875, 156.01478576660156, 10.015645980834961, -2.0710067749023438, -0.13780052959918976, -3.2169175148010254, -2.7717933654785156, -0.33395838737487793, -0.0751953125, 0.02783203125, 0.3876953125, 0, 
323, 1901504097, -88.44300079345703, -79.28675079345703, 156.0089874267578, 9.6836519241333, -1.9077980518341064, -0.06161019951105118, -3.1130261421203613, -2.828477621078491, -0.2814236283302307, -0.07568359375, 0.029296875, 0.38720703125, 0, 
324, 1901512430, -88.43231964111328, -79.28718566894531, 155.99844360351562, 9.414079666137695, -1.6320823431015015, 0.09320832043886185, -3.172860622406006, -2.644336700439453, -0.4096740484237671, -0.07421875, 0.029296875, 0.3876953125, 0, 
325, 1901520763, -88.44066619873047, -79.28748321533203, 156.0057830810547, 9.514102935791016, -1.6112878322601318, 0.24008262157440186, -3.3534159660339355, -3.0433812141418457, -0.3752741813659668, -0.07568359375, 0.02783203125, 0.38916015625, 0, 
326, 1901529096, -88.44873809814453, -79.28829193115234, 156.01141357421875, 9.779431343078613, -1.845036506652832, 0.005512962117791176, -3.45487380027771, -3.012925624847412, -0.4434080123901367, -0.076171875, 0.02880859375, 0.3916015625, 0, 
327, 1901537429, -88.44941711425781, -79.28685760498047, 156.0116424560547, 10.03746223449707, -2.066801071166992, 0.02064068801701069, -3.269951820373535, -2.878310203552246, -0.18148966133594513, -0.0751953125, 0.02978515625, 0.38720703125, 0, 
328, 1901545762, -88.4446029663086, -79.28553009033203, 156.00955200195312, 9.742101669311523, -2.0114927291870117, -0.10073401033878326, -3.012362003326416, -2.7969977855682373, -0.19384852051734924, -0.0751953125, 0.0283203125, 0.388671875, 0, 
329, 1901554095, -88.43368530273438, -79.2858657836914, 155.9973907470703, 9.493462562561035, -1.603999376296997, -0.010681954212486744, -3.101269006729126, -2.6451308727264404, -0.39363953471183777, -0.078125, 0.02978515625, 0.38916015625, 0, 
330, 1901562428, -88.43633270263672, -79.28582763671875, 156.00025939941406, 9.420944213867188, -1.7123905420303345, 0.16949188709259033, -3.198552131652832, -2.942255973815918, -0.34018266201019287, -0.0771484375, 0.02734375, 0.38916015625, 0, 
331, 1901570761, -88.45237731933594, -79.28645324707031, 156.0153045654297, 9.704673767089844, -1.7676442861557007, 0.11200705170631409, -3.3655824661254883, -3.2159955501556396, -0.41541168093681335, -0.07568359375, 0.02783203125, 0.39111328125, 0, 
332, 1901579094, -88.45635223388672, -79.28619384765625, 156.0223388671875, 9.980491638183594, -1.9631390571594238, 0.10278834402561188, -3.2645087242126465, -2.9530138969421387, -0.30962488055229187, -0.07666015625, 0.0302734375, 0.38916015625, 0, 
333, 1901587427, -88.44798278808594, -79.28641510009766, 156.0130615234375, 9.923734664916992, -2.10251784324646, -0.17227016389369965, -3.3020336627960205, -2.6734089851379395, -0.38549426198005676, -0.07666015625, 0.029296875, 0.38916015625, 0, 
334, 1901595760, -88.43865966796875, -79.28636169433594, 156.006103515625, 9.589214324951172, -1.8034400939941406, -0.057713042944669724, -3.023836851119995, -2.6975626945495605, -0.34233418107032776, -0.076171875, 0.0283203125, 0.3876953125, 0, 
335, 1901604093, -88.43297576904297, -79.28748321533203, 155.996826171875, 9.29554271697998, -1.5843786001205444, 0.030993493273854256, -3.2778539657592773, -2.735933542251587, -0.4933558404445648, -0.07666015625, 0.0302734375, 0.390625, 0, 
336, 1901612426, -88.44470977783203, -79.2886962890625, 156.0070343017578, 9.543089866638184, -1.6765203475952148, 0.20309314131736755, -3.4200642108917236, -3.1094400882720947, -0.4865424335002899, -0.0791015625, 0.02880859375, 0.38916015625, 0, 
337, 1901620759, -88.45729064941406, -79.28913879394531, 156.01878356933594, 9.873946189880371, -1.9681847095489502, 0.09323586523532867, -3.3361005783081055, -3.140843152999878, -0.3949715197086334, -0.076171875, 0.02978515625, 0.38916015625, 0, 
338, 1901629092, -88.45756530761719, -79.28877258300781, 156.02352905273438, 10.030388832092285, -2.0045719146728516, -0.1002330631017685, -3.25165057182312, -2.8699214458465576, -0.3052704632282257, -0.07568359375, 0.02880859375, 0.38525390625, 0, 
339, 1901637425, -88.45133209228516, -79.28762817382812, 156.0183868408203, 9.737516403198242, -1.8985778093338013, -0.03905865177512169, -3.073862075805664, -2.7599337100982666, -0.2150571197271347, -0.07470703125, 0.029296875, 0.37939453125, 0, 
340, 1901645758, -88.44215393066406, -79.28807067871094, 156.0096893310547, 9.438385963439941, -1.6294084787368774, 0.021119805052876472, -3.1345930099487305, -2.68216872215271, -0.4031936526298523, -0.0751953125, 0.02978515625, 0.3779296875, 0, 
341, 1901654091, -88.44438171386719, -79.28795623779297, 156.01187133789062, 9.417683601379395, -1.6575525999069214, 0.20130707323551178, -3.335024833679199, -2.8988142013549805, -0.3333436846733093, -0.07421875, 0.02978515625, 0.37744140625, 0, 
342, 1901662424, -88.45926666259766, -79.28923034667969, 156.02577209472656, 9.687298774719238, -1.8437341451644897, 0.05468829348683357, -3.3626883029937744, -3.1914315223693848, -0.49443158507347107, -0.0751953125, 0.0302734375, 0.375, 0, 
343, 1901670757, -88.46519470214844, -79.28865814208984, 156.0327606201172, 10.039302825927734, -2.0764400959014893, 0.03492942079901695, -3.1000144481658936, -3.0336477756500244, -0.2769155204296112, -0.07421875, 0.0283203125, 0.37744140625, 0, 
344, 1901679090, -88.45771026611328, -79.28800201416016, 156.02516174316406, 9.803956985473633, -2.0310332775115967, -0.14610637724399567, -3.1035869121551514, -2.718938112258911, -0.27265071868896484, -0.07470703125, 0.03173828125, 0.3779296875, 0, 
345, 1901687423, -88.4482650756836, -79.28800201416016, 156.01634216308594, 9.534852981567383, -1.6693353652954102, 0.02755097858607769, -3.1198649406433105, -2.682860851287842, -0.3559097945690155, -0.07421875, 0.0283203125, 0.37890625, 0, 
346, 1901695756, -88.44928741455078, -79.28950500488281, 156.00233459472656, 9.400485038757324, -1.629903793334961, 0.17991149425506592, -3.2382798194885254, -2.8958685398101807, -0.5373867154121399, -0.0751953125, 0.0302734375, 0.3779296875, 0, 
347, 1901704089, -88.45648193359375, -79.29020690917969, 156.0032196044922, 9.63361930847168, -1.6464086771011353, 0.09790919721126556, -3.3859970569610596, -3.0053184032440186, -0.4148481786251068, -0.0751953125, 0.03173828125, 0.37939453125, 0, 
348, 1901712422, -88.45869445800781, -79.2903823852539, 156.00453186035156, 9.904157638549805, -2.015033483505249, 0.14533549547195435, -3.325854539871216, -2.909060001373291, -0.3738141357898712, -0.07421875, 0.029296875, 0.37646484375, 0, 
349, 1901720755, -88.45111083984375, -79.2902603149414, 155.9967803955078, 9.912611961364746, -2.074657678604126, -0.13404229283332825, -3.21732759475708, -2.7048635482788086, -0.3371601700782776, -0.07666015625, 0.029296875, 0.3779296875, 0, 
350, 1901729088, -88.44434356689453, -79.2886962890625, 155.99099731445312, 9.633295059204102, -1.8150672912597656, -0.06008007749915123, -3.003589153289795, -2.7565910816192627, -0.16619795560836792, -0.07275390625, 0.02978515625, 0.380859375, 0, 
351, 1901737421, -88.43782806396484, -79.2900161743164, 155.9842071533203, 9.373844146728516, -1.6626662015914917, 0.032394230365753174, -3.230595588684082, -2.731297254562378, -0.5157425999641418, -0.07421875, 0.0283203125, 0.37841796875, 0, 
352, 1901745754, -88.4443359375, -79.2900161743164, 155.99386596679688, 9.551405906677246, -1.7086365222930908, 0.2387837916612625, -3.2798259258270264, -3.0090324878692627, -0.34453707933425903, -0.07373046875, 0.0302734375, 0.38037109375, 0, 
353, 1901754087, -88.45698547363281, -79.290771484375, 156.00038146972656, 9.808160781860352, -1.8732035160064697, 0.082375168800354, -3.339993953704834, -3.1394855976104736, -0.4306008815765381, -0.07470703125, 0.02978515625, 0.37744140625, 0, 
354, 1901762420, -88.45861053466797, -79.2900161743164, 156.00100708007812, 10.026400566101074, -2.016174793243408, -0.08370909094810486, -3.3369715213775635, -2.8893370628356934, -0.25196725130081177, -0.07666015625, 0.02978515625, 0.380859375, 0, 
355, 1901770753, -88.44892120361328, -79.28777313232422, 155.99188232421875, 9.73625659942627, -2.0262138843536377, -0.038244202733039856, -3.12544846534729, -2.6684393882751465, -0.08998280018568039, -0.07373046875, 0.029296875, 0.38232421875, 0, 
356, 1901779086, -88.43900299072266, -79.28880310058594, 155.98159790039062, 9.4158935546875, -1.5596038103103638, -0.00616852380335331, -2.948812961578369, -2.6994071006774902, -0.4721215069293976, -0.07470703125, 0.03076171875, 0.380859375, 0, 
357, 1901787419, -88.44149017333984, -79.28919219970703, 155.98297119140625, 9.383356094360352, -1.639732003211975, 0.162174254655838, -3.3546197414398193, -2.91133975982666, -0.39146238565444946, -0.07568359375, 0.0302734375, 0.3818359375, 0, 
358, 1901795752, -88.453857421875, -79.2900161743164, 155.99456787109375, 9.659451484680176, -1.8724308013916016, 0.05073767155408859, -3.26806902885437, -3.140817403793335, -0.45498567819595337, -0.07666015625, 0.02978515625, 0.37841796875, 0, 
359, 1901804085, -88.45758819580078, -79.28939056396484, 155.9998779296875, 10.011990547180176, -2.0335612297058105, 0.10771892219781876, -3.17018461227417, -2.965757131576538, -0.2645566165447235, -0.07470703125, 0.029296875, 0.38037109375, 0, 
360, 1901812418, -88.45132446289062, -79.28944396972656, 155.9945526123047, 9.905149459838867, -1.998795509338379, -0.12135759741067886, -3.0872063636779785, -2.759575128555298, -0.36172419786453247, -0.07275390625, 0.02734375, 0.38037109375, 0, 
361, 1901820751, -88.44342041015625, -79.28800201416016, 155.98773193359375, 9.64954948425293, -1.7560904026031494, -0.043805476278066635, -3.074450731277466, -2.722639322280884, -0.17576485872268677, -0.07470703125, 0.029296875, 0.38134765625, 0, 
362, 1901829084, -88.44239044189453, -79.28792572021484, 155.98703002929688, 9.346158027648926, -1.6387468576431274, 0.11144547164440155, -3.166764736175537, -2.856218099594116, -0.34307706356048584, -0.076171875, 0.02734375, 0.38232421875, 0, 
363, 1901837417, -88.44815063476562, -79.28805541992188, 155.99180603027344, 9.508869171142578, -1.6215081214904785, 0.13661669194698334, -3.341684341430664, -2.985185384750366, -0.36190351843833923, -0.0751953125, 0.0302734375, 0.380859375, 0, 
364, 1901845750, -88.46289825439453, -79.28717041015625, 156.00604248046875, 9.859762191772461, -2.008044958114624, 0.11118434369564056, -3.4877240657806396, -3.1517419815063477, -0.23843011260032654, -0.07666015625, 0.0302734375, 0.38134765625, 0, 
365, 1901854083, -88.4603271484375, -79.286376953125, 156.0037384033203, 9.970365524291992, -2.069561719894409, -0.1366729736328125, -3.2382540702819824, -2.8084981441497803, -0.25591185688972473, -0.07373046875, 0.029296875, 0.37841796875, 0, 
366, 1901862416, -88.4554214477539, -79.28604888916016, 155.99993896484375, 9.680645942687988, -1.8605098724365234, -0.053894542157649994, -3.073042392730713, -2.7925662994384766, -0.30993223190307617, -0.07470703125, 0.0302734375, 0.380859375, 0, 
367, 1901870749, -88.44866943359375, -79.28722381591797, 155.9938507080078, 9.431676864624023, -1.6417558193206787, 0.08458995819091797, -3.124629259109497, -2.7452566623687744, -0.4946109354496002, -0.07568359375, 0.02978515625, 0.38037109375, 0, 
368, 1901879082, -88.45494079589844, -79.28705596923828, 155.99960327148438, 9.530838966369629, -1.6615806818008423, 0.2429269403219223, -3.26233172416687, -3.004575729370117, -0.32335415482521057, -0.0751953125, 0.02880859375, 0.38037109375, 0, 
369, 1901887415, -88.463623046875, -79.28775787353516, 156.00704956054688, 9.719057083129883, -1.8415378332138062, -0.010745885781943798, -3.377570152282715, -3.0465831756591797, -0.4338027238845825, -0.07666015625, 0.03076171875, 0.38037109375, 0, 
370, 1901895748, -88.4637680053711, -79.28800964355469, 156.00657653808594, 10.011883735656738, -2.068765163421631, -0.007705767638981342, -3.2775206565856934, -2.8622117042541504, -0.37673419713974, -0.07470703125, 0.0283203125, 0.38037109375, 0, 
371, 1901904081, -88.45404052734375, -79.28748321533203, 155.9962921142578, 9.771449089050293, -2.0177314281463623, -0.039561450481414795, -3.0962486267089844, -2.6725380420684814, -0.2886468172073364, -0.07568359375, 0.02978515625, 0.3818359375, 0, 
372, 1901912414, -88.44831848144531, -79.2881088256836, 155.99070739746094, 9.48800277709961, -1.5834054946899414, -0.0624508261680603, -3.1877686977386475, -2.755221128463745, -0.4272710680961609, -0.0751953125, 0.0283203125, 0.38037109375, 0, 
373, 1901920747, -88.45339965820312, -79.28861999511719, 155.9954376220703, 9.395574569702148, -1.6560121774673462, 0.11928507685661316, -3.265251874923706, -2.986619710922241, -0.40859830379486084, -0.07763671875, 0.03173828125, 0.3798828125, 0, 
374, 1901929080, -88.4619140625, -79.2892837524414, 156.0052032470703, 9.63007926940918, -1.7095717191696167, 0.08879774063825607, -3.350137233734131, -3.0442006587982178, -0.4161801040172577, -0.076171875, 0.02978515625, 0.3828125, 0, 
375, 1901937413, -88.47193145751953, -79.28910064697266, 156.0146942138672, 9.942259788513184, -1.968266487121582, 0.14672182500362396, -3.296475410461426, -3.089512586593628, -0.3227650225162506, -0.07470703125, 0.029296875, 0.37890625, 0, 
376, 1901945746, -88.46715545654297, -79.28880310058594, 156.00994873046875, 9.945917129516602, -2.0817172527313232, -0.14515937864780426, -3.2059545516967773, -2.7602157592773438, -0.31692492961883545, -0.07666015625, 0.029296875, 0.380859375, 0, 
377, 1901954079, -88.46189880371094, -79.28779602050781, 156.0063934326172, 9.638147354125977, -1.8230141401290894, -0.05367631837725639, -2.970815420150757, -2.7963054180145264, -0.22940105199813843, -0.0751953125, 0.02978515625, 0.3798828125, 0, 
378, 1901962412, -88.4559326171875, -79.28792572021484, 156.00042724609375, 9.299007415771484, -1.624765396118164, 0.03095255047082901, -3.202573537826538, -2.747203826904297, -0.36369654536247253, -0.076171875, 0.029296875, 0.38037109375, 0, 
379, 1901970745, -88.46327209472656, -79.28874969482422, 156.00599670410156, 9.485064506530762, -1.7002228498458862, 0.1855963170528412, -3.439863920211792, -3.005779266357422, -0.44620001316070557, -0.07373046875, 0.029296875, 0.38232421875, 0, 
380, 1901979078, -88.47306823730469, -79.28913879394531, 156.01536560058594, 9.853180885314941, -1.9399186372756958, 0.07576960325241089, -3.461482286453247, -3.0486576557159424, -0.3923076391220093, -0.0751953125, 0.0302734375, 0.3798828125, 0, 
381, 1901987411, -88.474365234375, -79.28902435302734, 156.0163116455078, 10.056995391845703, -1.9803286790847778, -0.0911693200469017, -3.258284568786621, -2.8985326290130615, -0.33618685603141785, -0.07373046875, 0.02880859375, 0.3818359375, 0, 
382, 1901995744, -88.46402740478516, -79.28829193115234, 156.00225830078125, 9.770183563232422, -1.8898402452468872, -0.014261619187891483, -3.0686874389648438, -2.662240743637085, -0.2697690725326538, -0.07666015625, 0.0302734375, 0.38525390625, 0, 
383, 1902004077, -88.45652770996094, -79.28752136230469, 155.9922637939453, 9.457231521606445, -1.5649967193603516, 0.032364655286073685, -3.1473491191864014, -2.7108311653137207, -0.26082974672317505, -0.076171875, 0.02978515625, 0.38818359375, 0, 
384, 1902012410, -88.45845031738281, -79.28718566894531, 155.99461364746094, 9.40980052947998, -1.6151057481765747, 0.1605502963066101, -3.1664063930511475, -2.9305758476257324, -0.3076525926589966, -0.07568359375, 0.029296875, 0.390625, 0, 
385, 1902020743, -88.46875, -79.2865982055664, 156.00416564941406, 9.665308952331543, -1.8806214332580566, 0.04390150308609009, -3.3246254920959473, -3.0893073081970215, -0.2729196846485138, -0.07763671875, 0.03125, 0.38818359375, 0, 
386, 1902029076, -88.4717025756836, -79.28630828857422, 156.00648498535156, 10.022927284240723, -2.087895154953003, 0.061957746744155884, -3.148322582244873, -2.94853138923645, -0.31157156825065613, -0.0751953125, 0.029296875, 0.388671875, 0, 
387, 1902037409, -88.46945190429688, -79.28559112548828, 156.00543212890625, 9.860889434814453, -2.0240697860717773, -0.13999272882938385, -3.0726840496063232, -2.851914644241333, -0.25716692209243774, -0.076171875, 0.029296875, 0.38623046875, 0, 
388, 1902045742, -88.4595947265625, -79.28539276123047, 155.99765014648438, 9.597782135009766, -1.7335362434387207, 0.016431637108325958, -3.0339033603668213, -2.680452585220337, -0.3340352177619934, -0.0751953125, 0.03076171875, 0.38720703125, 0, 
389, 1902054075, -88.45759582519531, -79.28593444824219, 155.99993896484375, 9.420342445373535, -1.6484096050262451, 0.1585322767496109, -3.159055233001709, -2.837724447250366, -0.42307034134864807, -0.07568359375, 0.02880859375, 0.38818359375, 0, 
390, 1902062408, -88.46843719482422, -79.28672790527344, 156.01031494140625, 9.622176170349121, -1.6370997428894043, 0.12048263847827911, -3.2918903827667236, -3.1126675605773926, -0.4363897144794464, -0.0771484375, 0.03125, 0.38916015625, 0, 
391, 1902070741, -88.47882080078125, -79.28582763671875, 156.01998901367188, 9.933700561523438, -2.019253730773926, 0.09504353255033493, -3.320706367492676, -3.091459035873413, -0.23352499306201935, -0.07421875, 0.02880859375, 0.388671875, 0, 
392, 1902079074, -88.47425079345703, -79.28619384765625, 156.01263427734375, 9.911935806274414, -2.0650413036346436, -0.15970297157764435, -3.198808193206787, -2.770256519317627, -0.3930504620075226, -0.07568359375, 0.03076171875, 0.3876953125, 0, 
393, 1902087407, -88.4689712524414, -79.28582763671875, 156.00877380371094, 9.612482070922852, -1.7549251317977905, -0.030856939032673836, -3.0387959480285645, -2.7911574840545654, -0.30749887228012085, -0.07763671875, 0.0283203125, 0.3896484375, 0, 
394, 1902095740, -88.4719467163086, -79.28531646728516, 156.01580810546875, 9.385714530944824, -1.6170302629470825, 0.018716150894761086, -3.1834394931793213, -2.9426145553588867, -0.2850608229637146, -0.076171875, 0.029296875, 0.3876953125, 0, 
395, 1902104073, -88.47744750976562, -79.28590393066406, 156.0211639404297, 9.571748733520508, -1.7469182014465332, 0.21069307625293732, -3.2553389072418213, -2.9894118309020996, -0.4185622036457062, -0.076171875, 0.0283203125, 0.3896484375, 0, 
396, 1902112406, -88.48384857177734, -79.28606414794922, 156.0269775390625, 9.822335243225098, -1.914031982421875, 0.0914236307144165, -3.299062490463257, -3.0092885494232178, -0.36661654710769653, -0.07568359375, 0.02783203125, 0.38916015625, 0, 
397, 1902120739, -88.47899627685547, -79.286376953125, 156.0218963623047, 10.042665481567383, -2.012179374694824, -0.0804826095700264, -3.232901096343994, -2.766158103942871, -0.388670414686203, -0.07861328125, 0.03076171875, 0.38623046875, 0, 
398, 1902129072, -88.47000122070312, -79.28559112548828, 156.00685119628906, 9.769039154052734, -2.0473580360412598, -0.0895245224237442, -3.0871810913085938, -2.688214063644409, -0.25475916266441345, -0.07568359375, 0.029296875, 0.388671875, 0, 
399, 1902137405, -88.45555114746094, -79.2852783203125, 155.9936065673828, 9.370112419128418, -1.5774389505386353, -0.056425102055072784, -3.0363881587982178, -2.5809671878814697, -0.3286818563938141, -0.07666015625, 0.029296875, 0.3896484375, 0, 
400, 1902145738, -88.45808410644531, -79.28616333007812, 155.9970245361328, 9.32317066192627, -1.627762794494629, 0.15061195194721222, -3.1770107746124268, -2.9392082691192627, -0.4458926320075989, -0.076171875, 0.029296875, 0.39013671875, 0, 
401, 1902154071, -88.46810150146484, -79.28681945800781, 156.00535583496094, 9.691027641296387, -1.828253149986267, 0.03495463728904724, -3.3565661907196045, -3.0731189250946045, -0.41653868556022644, -0.076171875, 0.02783203125, 0.3896484375, 0, 
402, 1902162404, -88.47697448730469, -79.28672790527344, 156.01480102539062, 10.070606231689453, -2.0282492637634277, 0.05872596055269241, -3.1660733222961426, -3.089128255844116, -0.3333180546760559, -0.0771484375, 0.02978515625, 0.38916015625, 0, 
403, 1902170737, -88.47123718261719, -79.28572082519531, 156.0089874267578, 9.918208122253418, -1.9650698900222778, -0.10906101763248444, -3.2091310024261475, -2.746640205383301, -0.23165515065193176, -0.07470703125, 0.02685546875, 0.3896484375, 0, 
404, 1902179070, -88.4644775390625, -79.2851333618164, 156.0033721923828, 9.577401161193848, -1.7024165391921997, 0.013110751286149025, -3.0886411666870117, -2.740159511566162, -0.29023489356040955, -0.0771484375, 0.0283203125, 0.38818359375, 0, 
405, 1902187403, -88.45997619628906, -79.2855224609375, 155.99855041503906, 9.304693222045898, -1.6512211561203003, 0.08454226702451706, -3.243530750274658, -2.7723052501678467, -0.39573994278907776, -0.07470703125, 0.02978515625, 0.3896484375, 0, 
406, 1902195736, -88.47203063964844, -79.2860107421875, 156.0132293701172, 9.557611465454102, -1.7173328399658203, 0.15137512981891632, -3.349830150604248, -3.1210691928863525, -0.40127262473106384, -0.0732421875, 0.0283203125, 0.38623046875, 0, 
407, 1902204069, -88.48320770263672, -79.28598022460938, 156.0230712890625, 9.929716110229492, -2.0147252082824707, 0.08742097020149231, -3.3545684814453125, -3.1008079051971436, -0.3372882306575775, -0.0751953125, 0.02978515625, 0.38720703125, 0, 
408, 1902212402, -88.47334289550781, -79.28560638427734, 156.01416015625, 10.006548881530762, -2.0348262786865234, -0.13454611599445343, -3.0805723667144775, -2.6793768405914307, -0.3108799457550049, -0.07568359375, 0.0283203125, 0.38720703125, 0, 
409, 1902220735, -88.46491241455078, -79.285400390625, 156.00680541992188, 9.615692138671875, -1.8394025564193726, -0.06592604517936707, -3.0713768005371094, -2.712470054626465, -0.32945024967193604, -0.07763671875, 0.029296875, 0.38671875, 0, 
410, 1902229068, -88.45923614501953, -79.28632354736328, 156.00430297851562, 9.371190071105957, -1.6097187995910645, 0.07216368615627289, -3.1984241008758545, -2.7479209899902344, -0.4606720507144928, -0.07421875, 0.02783203125, 0.39013671875, 0, 
411, 1902237401, -88.46415710449219, -79.286376953125, 156.00967407226562, 9.517400741577148, -1.6545954942703247, 0.2508072853088379, -3.1698129177093506, -2.999427080154419, -0.3538094460964203, -0.0751953125, 0.029296875, 0.38916015625, 0, 
412, 1902245734, -88.4712142944336, -79.28658294677734, 156.01678466796875, 9.795541763305664, -1.8736778497695923, 0.01339427474886179, -3.331336259841919, -3.0136685371398926, -0.37007448077201843, -0.0751953125, 0.0283203125, 0.3896484375, 0, 
413, 1902254067, -88.47650146484375, -79.2857894897461, 156.01751708984375, 10.060547828674316, -2.06268048286438, -0.010694878175854683, -3.2048020362854004, -2.9917683601379395, -0.25235146284103394, -0.07470703125, 0.0283203125, 0.38916015625, 0, 
414, 1902262400, -88.46834564208984, -79.2857894897461, 156.01084899902344, 9.72137451171875, -1.9856353998184204, -0.10031606256961823, -3.0231711864471436, -2.7299904823303223, -0.35083815455436707, -0.07470703125, 0.02880859375, 0.3896484375, 0, 
415, 1902270733, -88.45732116699219, -79.286376953125, 156.0006103515625, 9.431995391845703, -1.6141633987426758, -0.04172087460756302, -3.1002442836761475, -2.651790142059326, -0.41871583461761475, -0.07470703125, 0.02880859375, 0.388671875, 0, 
416, 1902279066, -88.45594787597656, -79.28722381591797, 155.9996337890625, 9.414278984069824, -1.6897737979888916, 0.16089631617069244, -3.2985501289367676, -2.825070858001709, -0.45642009377479553, -0.0771484375, 0.03076171875, 0.38818359375, 0, 
417, 1902287399, -88.46410369873047, -79.28775787353516, 156.0076141357422, 9.755772590637207, -1.7853485345840454, 0.08787154406309128, -3.2548012733459473, -3.059133768081665, -0.40913617610931396, -0.078125, 0.03076171875, 0.3896484375, 0, 
418, 1902295732, -88.47034454345703, -79.28782653808594, 156.01182556152344, 10.025411605834961, -1.9832890033721924, 0.029673559591174126, -3.272167444229126, -3.001399517059326, -0.35647332668304443, -0.076171875, 0.02783203125, 0.38916015625, 0, 
419, 1902304065, -88.45840454101562, -79.28645324707031, 155.9989776611328, 9.847630500793457, -2.066743850708008, -0.21740636229515076, -3.296372890472412, -2.5869100093841553, -0.19553908705711365, -0.076171875, 0.03125, 0.38818359375, 0, 
420, 1902312398, -88.37841796875, -79.28270721435547, 155.93218994140625, 9.498353958129883, -1.732744574546814, -0.04624810069799423, -3.0806496143341064, -2.69889497756958, -0.29973775148391724, -0.07568359375, 0.029296875, 0.39013671875, 0, 
421, 1902320731, -88.37406921386719, -79.28426361083984, 155.92852783203125, 9.307456016540527, -1.6146758794784546, 0.05144190043210983, -3.1326210498809814, -2.8020949363708496, -0.5337238311767578, -0.0771484375, 0.02880859375, 0.3896484375, 0, 
422, 1902329064, -88.38327026367188, -79.28409576416016, 155.93634033203125, 9.59792423248291, -1.737973690032959, 0.17895545065402985, -3.3834357261657715, -3.049656391143799, -0.3333436846733093, -0.076171875, 0.03076171875, 0.388671875, 0, 
423, 1902337397, -88.39108276367188, -79.28496551513672, 155.94403076171875, 9.909018516540527, -2.0384154319763184, 0.1307760775089264, -3.2499985694885254, -3.0525894165039062, -0.44347208738327026, -0.076171875, 0.029296875, 0.3857421875, 0, 
424, 1902345730, -88.38349151611328, -79.28470611572266, 155.94508361816406, 9.989636421203613, -1.972772479057312, -0.1334349811077118, -3.1974122524261475, -2.705465316772461, -0.3124808669090271, -0.07666015625, 0.029296875, 0.3896484375, 0, 
425, 1902354063, -88.37722778320312, -79.28327941894531, 155.9398956298828, 9.667954444885254, -1.8704863786697388, -0.06056688725948334, -3.068918228149414, -2.750533103942871, -0.1914920061826706, -0.0751953125, 0.0302734375, 0.390625, 0, 
426, 1902362396, -88.37062072753906, -79.28462982177734, 155.93313598632812, 9.393983840942383, -1.5960842370986938, 0.06433647125959396, -3.2205803394317627, -2.7331669330596924, -0.5189188122749329, -0.0771484375, 0.0322265625, 0.38916015625, 0, 
427, 1902370729, -88.36934661865234, -79.2851333618164, 155.93084716796875, 9.457479476928711, -1.5975674390792847, 0.18097952008247375, -3.330772876739502, -2.8287339210510254, -0.4065491557121277, -0.07568359375, 0.029296875, 0.39013671875, 0, 
428, 1902379062, -88.38021087646484, -79.2854232788086, 155.9459228515625, 9.759045600891113, -1.8725547790527344, 0.035363633185625076, -3.3421199321746826, -3.092893362045288, -0.37962859869003296, -0.0771484375, 0.029296875, 0.38671875, 0, 
429, 1902387395, -88.37614440917969, -79.28557586669922, 155.9416961669922, 10.056144714355469, -2.04345965385437, -0.015389377251267433, -3.231210231781006, -2.785804271697998, -0.36843517422676086, -0.076171875, 0.0283203125, 0.3916015625, 0, 
430, 1902395728, -88.36469268798828, -79.28483581542969, 155.93075561523438, 9.77002239227295, -1.9889342784881592, -0.14451462030410767, -3.092200994491577, -2.6357297897338867, -0.26070165634155273, -0.076171875, 0.0302734375, 0.38818359375, 0, 
431, 1902404061, -88.35242462158203, -79.28501892089844, 155.91676330566406, 9.478285789489746, -1.6488823890686035, 0.03846346586942673, -3.1013200283050537, -2.6138811111450195, -0.3768366277217865, -0.07666015625, 0.02880859375, 0.38818359375, 0, 
432, 1902412394, -88.34589385986328, -79.28633880615234, 155.9102020263672, 9.464977264404297, -1.7039952278137207, 0.2042332887649536, -3.201728582382202, -2.7374448776245117, -0.5213521718978882, -0.0751953125, 0.02880859375, 0.38720703125, 0, 
433, 1902420727, -88.35261535644531, -79.28685760498047, 155.91751098632812, 9.75381088256836, -1.7281091213226318, 0.11618686467409134, -3.2728588581085205, -3.0154359340667725, -0.40168246626853943, -0.07568359375, 0.03125, 0.38818359375, 0, 
434, 1902429060, -88.35884857177734, -79.2865219116211, 155.92286682128906, 10.02049446105957, -2.001990556716919, 0.11118409037590027, -3.331105947494507, -2.9975571632385254, -0.3067561089992523, -0.07470703125, 0.03076171875, 0.38623046875, 0, 
435, 1902437393, -88.34534454345703, -79.286376953125, 155.90928649902344, 9.894645690917969, -2.0778932571411133, -0.14526963233947754, -3.1972198486328125, -2.5749733448028564, -0.34328198432922363, -0.0751953125, 0.0283203125, 0.3779296875, 0, 
436, 1902445726, -88.33283996582031, -79.28568267822266, 155.89503479003906, 9.513321876525879, -1.7188786268234253, -0.015731045976281166, -3.0111191272735596, -2.625778913497925, -0.2700892984867096, -0.0751953125, 0.03076171875, 0.37841796875, 0, 
437, 1902454059, -88.32977294921875, -79.28670501708984, 155.8924102783203, 9.341371536254883, -1.5773035287857056, 0.11415309458971024, -3.154674768447876, -2.8231754302978516, -0.47757744789123535, -0.07421875, 0.02978515625, 0.376953125, 0, 
438, 1902462392, -88.33435821533203, -79.28702545166016, 155.8955078125, 9.654060363769531, -1.715672492980957, 0.21348010003566742, -3.3522629737854004, -2.954986333847046, -0.3848794996738434, -0.07666015625, 0.02880859375, 0.376953125, 0, 
439, 1902470725, -88.34091186523438, -79.28726196289062, 155.89987182617188, 9.901111602783203, -1.9626866579055786, 0.1261851042509079, -3.302828073501587, -3.0044732093811035, -0.3651309609413147, -0.07177734375, 0.02880859375, 0.37890625, 0, 
440, 1902479058, -88.33668518066406, -79.28700256347656, 155.89590454101562, 10.001891136169434, -2.019932985305786, -0.12285466492176056, -3.1822104454040527, -2.7890572547912598, -0.3194863796234131, -0.0751953125, 0.02880859375, 0.37646484375, 0, 
441, 1902487391, -88.33357238769531, -79.28646850585938, 155.8932342529297, 9.655815124511719, -1.997457504272461, -0.09711592644453049, -3.1568777561187744, -2.817899227142334, -0.28700751066207886, -0.07470703125, 0.0302734375, 0.3779296875, 0, 
442, 1902495724, -88.32652282714844, -79.28781127929688, 155.88717651367188, 9.37691879272461, -1.6056451797485352, -0.02059413678944111, -3.0467875003814697, -2.7446162700653076, -0.5185346007347107, -0.07470703125, 0.03076171875, 0.37744140625, 0, 
443, 1902504057, -88.32781982421875, -79.28821563720703, 155.8880615234375, 9.407488822937012, -1.6326327323913574, 0.229216530919075, -3.2657127380371094, -2.9009146690368652, -0.3966364562511444, -0.07568359375, 0.0283203125, 0.38037109375, 0, 
444, 1902512390, -88.33386993408203, -79.29023742675781, 155.89236450195312, 9.73570728302002, -1.8873220682144165, 0.026062140241265297, -3.3735742568969727, -2.986670970916748, -0.5898702144622803, -0.0751953125, 0.02783203125, 0.3798828125, 0, 
445, 1902520723, -88.33218383789062, -79.29112243652344, 155.89035034179688, 9.995369911193848, -2.036932945251465, -0.012638814747333527, -3.244401693344116, -2.8289902210235596, -0.459826797246933, -0.0751953125, 0.02880859375, 0.38037109375, 0, 
446, 1902529056, -88.32682800292969, -79.29086303710938, 155.8853302001953, 9.748283386230469, -1.9839569330215454, -0.10105747729539871, -3.168250560760498, -2.765415668487549, -0.3160284757614136, -0.07470703125, 0.03076171875, 0.380859375, 0, 
447, 1902537389, -88.32344818115234, -79.29156494140625, 155.8823699951172, 9.493512153625488, -1.6147048473358154, 0.05356524884700775, -3.1585683822631836, -2.815491199493408, -0.43897679448127747, -0.07421875, 0.0283203125, 0.37939453125, 0, 
448, 1902545722, -88.32657623291016, -79.29229736328125, 155.88719177246094, 9.36866569519043, -1.6426936388015747, 0.11085832118988037, -3.286665201187134, -2.933624029159546, -0.42839810252189636, -0.07568359375, 0.029296875, 0.380859375, 0, 
449, 1902554055, -88.3363037109375, -79.29255676269531, 155.89468383789062, 9.575325965881348, -1.7781730890274048, 0.057984400540590286, -3.4973161220550537, -3.04701828956604, -0.3802177309989929, -0.07568359375, 0.02880859375, 0.38037109375, 0, 
450, 1902562388, -88.34856414794922, -79.2933578491211, 155.90701293945312, 9.907328605651855, -2.0932953357696533, 0.12806671857833862, -3.256068706512451, -3.1455178260803223, -0.4407057464122772, -0.07763671875, 0.02783203125, 0.3798828125, 0, 
451, 1902570721, -88.34453582763672, -79.2938232421875, 155.90235900878906, 9.8923978805542, -2.0257489681243896, -0.1392405480146408, -3.049528121948242, -2.8150041103363037, -0.39865994453430176, -0.0751953125, 0.029296875, 0.37890625, 0, 
452, 1902579054, -88.33892822265625, -79.29302978515625, 155.8975067138672, 9.593778610229492, -1.7693161964416504, -0.02221173793077469, -3.1143064498901367, -2.7704355716705322, -0.25370898842811584, -0.0771484375, 0.02880859375, 0.38037109375, 0, 
453, 1902587387, -88.34024047851562, -79.29426574707031, 155.89932250976562, 9.374391555786133, -1.630845069885254, 0.11301566660404205, -3.1611807346343994, -2.9227635860443115, -0.4993751347064972, -0.07470703125, 0.0302734375, 0.380859375, 0, 
454, 1902595720, -88.3448257446289, -79.29431915283203, 155.90206909179688, 9.565439224243164, -1.6063449382781982, 0.24449650943279266, -3.3385848999023438, -2.950939178466797, -0.35688316822052, -0.0751953125, 0.0283203125, 0.38037109375, 0, 
455, 1902604053, -88.3584213256836, -79.2934341430664, 155.91455078125, 9.786675453186035, -1.9147720336914062, 0.11678876727819443, -3.3799009323120117, -3.1539833545684814, -0.23355060815811157, -0.076171875, 0.02880859375, 0.38037109375, 0, 
456, 1902612386, -88.36334991455078, -79.2934341430664, 155.91998291015625, 9.986942291259766, -2.060988187789917, -0.06965748965740204, -3.3435285091400146, -2.956958532333374, -0.34999293088912964, -0.07470703125, 0.0302734375, 0.37841796875, 0, 
457, 1902620719, -88.3597183227539, -79.2926254272461, 155.91444396972656, 9.675399780273438, -1.9106782674789429, -0.072065070271492, -2.9835076332092285, -2.8313844203948975, -0.2494698315858841, -0.07763671875, 0.02880859375, 0.38037109375, 0, 
458, 1902629052, -88.35455322265625, -79.29277038574219, 155.90921020507812, 9.410809516906738, -1.5394026041030884, 0.014569677412509918, -3.211986780166626, -2.7636098861694336, -0.37001046538352966, -0.07373046875, 0.02880859375, 0.3828125, 0, 
459, 1902637385, -88.36016845703125, -79.2921142578125, 155.91287231445312, 9.475805282592773, -1.727434515953064, 0.23132550716400146, -3.4618921279907227, -2.9590847492218018, -0.2658501863479614, -0.076171875, 0.02978515625, 0.380859375, 0, 
460, 1902645718, -88.36720275878906, -79.29322052001953, 155.91835021972656, 9.759200096130371, -1.8709611892700195, 0.03946603834629059, -3.2919161319732666, -3.0183303356170654, -0.4834687113761902, -0.0751953125, 0.0302734375, 0.38232421875, 0, 
461, 1902654051, -88.36967468261719, -79.29340362548828, 155.91966247558594, 10.03165340423584, -1.9912564754486084, 0.009132717736065388, -3.3531341552734375, -2.9085733890533447, -0.36843517422676086, -0.0751953125, 0.029296875, 0.3798828125, 0, 
462, 1902662384, -88.36396789550781, -79.29222106933594, 155.9137420654297, 9.816383361816406, -2.0791659355163574, -0.12323935329914093, -3.186180591583252, -2.743387222290039, -0.21375080943107605, -0.0751953125, 0.029296875, 0.37890625, 0, 
463, 1902670717, -88.3517074584961, -79.29119873046875, 155.90322875976562, 9.525144577026367, -1.650233268737793, -0.02764088660478592, -2.9386956691741943, -2.646385908126831, -0.2212301343679428, -0.07568359375, 0.029296875, 0.38232421875, 0, 
464, 1902679050, -88.35374450683594, -79.29156494140625, 155.90505981445312, 9.328343391418457, -1.5656790733337402, 0.11887659132480621, -3.2400217056274414, -2.9195618629455566, -0.4001712203025818, -0.07421875, 0.02783203125, 0.3779296875, 0, 
465, 1902687383, -88.36448669433594, -79.29108428955078, 155.9158172607422, 9.620440483093262, -1.715345025062561, 0.08672649413347244, -3.242096185684204, -3.11802077293396, -0.2775558531284332, -0.07568359375, 0.0302734375, 0.38427734375, 0, 
466, 1902695716, -88.37289428710938, -79.29035186767578, 155.92083740234375, 9.948373794555664, -2.0256335735321045, 0.11337735503911972, -3.3232421875, -3.0382580757141113, -0.26421085000038147, -0.07470703125, 0.02880859375, 0.37890625, 0, 
467, 1902704049, -88.36712646484375, -79.29009246826172, 155.9154815673828, 9.994827270507812, -1.9570716619491577, -0.11248870193958282, -3.154162883758545, -2.7583205699920654, -0.32035723328590393, -0.07470703125, 0.029296875, 0.3798828125, 0, 
468, 1902712382, -88.36251068115234, -79.28829193115234, 155.9125518798828, 9.703967094421387, -1.790016770362854, -0.059616897255182266, -3.031508684158325, -2.7975993156433105, -0.1301843225955963, -0.07421875, 0.02978515625, 0.3818359375, 0, 
469, 1902720715, -88.35807800292969, -79.2881088256836, 155.90615844726562, 9.398482322692871, -1.6492884159088135, 0.005775608122348785, -3.2001402378082275, -2.774047374725342, -0.33733949065208435, -0.07666015625, 0.02978515625, 0.380859375, 0, 
470, 1902729048, -88.36207580566406, -79.2879409790039, 155.91078186035156, 9.48466682434082, -1.6606401205062866, 0.20586331188678741, -3.151191473007202, -2.9822142124176025, -0.32478854060173035, -0.07666015625, 0.02880859375, 0.3818359375, 0, 
471, 1902737381, -88.37907409667969, -79.28839874267578, 155.92713928222656, 9.756945610046387, -1.9669651985168457, 0.01318588387221098, -3.3275325298309326, -3.244389057159424, -0.38758182525634766, -0.07568359375, 0.0283203125, 0.37841796875, 0, 
472, 1902745714, -88.37797546386719, -79.28861999511719, 155.9268035888672, 10.073758125305176, -2.0897045135498047, -0.11467085778713226, -3.1185202598571777, -2.8666303157806396, -0.3703690767288208, -0.07373046875, 0.0302734375, 0.38232421875, 0, 
473, 1902754047, -88.37010955810547, -79.28762817382812, 155.92056274414062, 9.762715339660645, -1.9157174825668335, -0.098720021545887, -3.0074567794799805, -2.7363812923431396, -0.23768724501132965, -0.072265625, 0.02978515625, 0.38134765625, 0, 
474, 1902762380, -88.3650131225586, -79.28755187988281, 155.91705322265625, 9.477607727050781, -1.5492888689041138, 0.05955543369054794, -3.196157217025757, -2.761125087738037, -0.3451133966445923, -0.0771484375, 0.02978515625, 0.38037109375, 0, 
475, 1902770713, -88.3676528930664, -79.28726196289062, 155.919677734375, 9.457637786865234, -1.6622875928878784, 0.19137011468410492, -3.239509344100952, -2.925811767578125, -0.3210744559764862, -0.07470703125, 0.0302734375, 0.38037109375, 0, 
476, 1902779046, -88.3778305053711, -79.28707885742188, 155.92996215820312, 9.7032470703125, -1.8076781034469604, 0.04052180051803589, -3.2272400856018066, -3.1072628498077393, -0.3168737292289734, -0.0751953125, 0.02978515625, 0.37939453125, 0, 
477, 1902787379, -88.38471221923828, -79.28729248046875, 155.93641662597656, 10.02260971069336, -2.0769174098968506, 0.07647838443517685, -3.2847185134887695, -3.0244524478912354, -0.37050995230674744, -0.07568359375, 0.0302734375, 0.3828125, 0, 
478, 1902795712, -88.38007354736328, -79.28731536865234, 155.93263244628906, 9.859107971191406, -2.048292398452759, -0.1529964655637741, -3.064269542694092, -2.7947309017181396, -0.3568703234195709, -0.07470703125, 0.02880859375, 0.380859375, 0, 
479, 1902804045, -88.36811065673828, -79.2862319946289, 155.92210388183594, 9.540985107421875, -1.6769587993621826, -0.047071512788534164, -3.023324728012085, -2.639803171157837, -0.22788985073566437, -0.07568359375, 0.03125, 0.38427734375, 0, 
480, 1902812378, -88.36614990234375, -79.28656768798828, 155.91983032226562, 9.320755958557129, -1.6823668479919434, 0.0803062915802002, -3.291813850402832, -2.816131591796875, -0.3889778256416321, -0.07373046875, 0.02978515625, 0.38623046875, 0, 
481, 1902820711, -88.36801147460938, -79.28805541992188, 155.92320251464844, 9.6085786819458, -1.7380216121673584, 0.14809760451316833, -3.249089002609253, -2.9121336936950684, -0.5265006422996521, -0.0771484375, 0.03076171875, 0.3876953125, 0, 
482, 1902829044, -88.37024688720703, -79.28817749023438, 155.92449951171875, 9.904945373535156, -1.9689971208572388, 0.0894254669547081, -3.330440044403076, -2.9082915782928467, -0.35744667053222656, -0.07421875, 0.0283203125, 0.388671875, 0, 
483, 1902837377, -88.35989379882812, -79.288330078125, 155.91456604003906, 9.946179389953613, -2.0444231033325195, -0.1711053103208542, -3.1470417976379395, -2.6592440605163574, -0.37094536423683167, -0.07421875, 0.02978515625, 0.38818359375, 0, 
484, 1902845710, -88.35098266601562, -79.28770446777344, 155.9073028564453, 9.620332717895508, -1.8904749155044556, -0.08160988241434097, -3.0078022480010986, -2.7071681022644043, -0.2835751473903656, -0.07421875, 0.029296875, 0.39111328125, 0, 
485, 1902854043, -88.3391342163086, -79.28846740722656, 155.89552307128906, 9.309378623962402, -1.5710291862487793, 0.009444784373044968, -3.1840286254882812, -2.619311809539795, -0.4551137089729309, -0.07666015625, 0.0302734375, 0.38818359375, 0, 
