sep=,
PacketCounter,SampleTimeFine,Euler_X,Euler_Y,Euler_Z,Acc_X,Acc_Y,Acc_Z,Gyr_X,Gyr_Y,Gyr_Z,Mag_X,Mag_Y,Mag_Z,Status,
0, 1898795872, -101.62631225585938, -88.04776763916016, -174.638916015625, 0, 0, 0, 0, 0, 0, -0.80419921875, 0.05078125, 0.62548828125, 0, 
1, 1898804205, -101.7156982421875, -88.04806518554688, -174.5608367919922, 9.902771949768066, -0.3571922779083252, -0.04469839856028557, 1.6809723377227783, -3.586094856262207, 0.47994667291641235, -0.798828125, 0.05126953125, 0.62890625, 0, 
2, 1898812538, -101.6943588256836, -88.04736328125, -174.5823516845703, 10.228445053100586, -0.469147264957428, -0.2435016632080078, 1.8194687366485596, -3.16007924079895, 0.6581193208694458, -0.798828125, 0.05078125, 0.62646484375, 0, 
3, 1898820871, -101.65113067626953, -88.04655456542969, -174.60772705078125, 9.949311256408691, -0.5138508081436157, -0.23634114861488342, 1.9663406610488892, -3.080418825149536, 0.7289170622825623, -0.8037109375, 0.0517578125, 0.6279296875, 0, 
4, 1898829204, -101.62004852294922, -88.04695892333984, -174.6383819580078, 9.645137786865234, -0.3045801520347595, -0.09953400492668152, 1.8957220315933228, -3.0923802852630615, 0.5362210869789124, -0.7978515625, 0.05126953125, 0.626953125, 0, 
5, 1898837537, -101.659423828125, -88.04756164550781, -174.58148193359375, 9.547774314880371, -0.14983630180358887, 0.18317663669586182, 1.8862192630767822, -3.3827695846557617, 0.4900386929512024, -0.80224609375, 0.05078125, 0.6259765625, 0, 
6, 1898845870, -101.68940734863281, -88.04766082763672, -174.55323791503906, 9.85534954071045, -0.22294774651527405, 0.021051445975899696, 1.602439284324646, -3.346525192260742, 0.5404731631278992, -0.80126953125, 0.05322265625, 0.6279296875, 0, 
7, 1898854203, -101.70763397216797, -88.0474624633789, -174.53564453125, 10.197338104248047, -0.45145437121391296, -0.1641642153263092, 1.7423183917999268, -3.3040308952331543, 0.5781260132789612, -0.80078125, 0.0517578125, 0.625, 0, 
8, 1898862536, -101.69136810302734, -88.04776763916016, -174.55154418945312, 10.008296012878418, -0.4605068862438202, -0.24918386340141296, 1.8418296575546265, -3.1657395362854004, 0.5764610171318054, -0.802734375, 0.052734375, 0.62744140625, 0, 
9, 1898870869, -101.65865325927734, -88.04716491699219, -174.58375549316406, 9.70623779296875, -0.3084203004837036, -0.13196170330047607, 1.9641122817993164, -3.0920989513397217, 0.5865275859832764, -0.798828125, 0.0537109375, 0.62646484375, 0, 
10, 1898879202, -101.64573669433594, -88.0483627319336, -174.596923828125, 9.496413230895996, -0.11595883220434189, 0.04323912784457207, 1.7699050903320312, -3.1565186977386475, 0.481253057718277, -0.8037109375, 0.052734375, 0.6279296875, 0, 
11, 1898887535, -101.6710205078125, -88.04896545410156, -174.57223510742188, 9.76576042175293, -0.21384194493293762, 0.04753611609339714, 1.7469804286956787, -3.315480947494507, 0.4855306148529053, -0.7978515625, 0.05029296875, 0.62841796875, 0, 
12, 1898895868, -101.7383804321289, -88.0485610961914, -174.50546264648438, 10.049141883850098, -0.43823400139808655, 0.006145518273115158, 1.7368884086608887, -3.5152206420898438, 0.5565332770347595, -0.8017578125, 0.04931640625, 0.626953125, 0, 
13, 1898904201, -101.68431854248047, -88.04997253417969, -174.55982971191406, 10.228378295898438, -0.4939051568508148, -0.24802839756011963, 1.7676000595092773, -2.9749908447265625, 0.47976744174957275, -0.80126953125, 0.04931640625, 0.626953125, 0, 
14, 1898912534, -101.65052032470703, -88.04866790771484, -174.59295654296875, 9.902932167053223, -0.4137232303619385, -0.2271261215209961, 1.940444827079773, -3.117713451385498, 0.7119348645210266, -0.79931640625, 0.0537109375, 0.62646484375, 0, 
15, 1898920867, -101.63423919677734, -88.04946899414062, -174.6076202392578, 9.532453536987305, -0.2328358292579651, -0.053599338978528976, 2.008347749710083, -3.1522154808044434, 0.505304753780365, -0.80078125, 0.0517578125, 0.62646484375, 0, 
16, 1898929200, -101.66171264648438, -88.04936218261719, -174.58009338378906, 9.562012672424316, -0.20771116018295288, 0.16344746947288513, 1.8218764066696167, -3.3473961353302, 0.563961386680603, -0.798828125, 0.0498046875, 0.626953125, 0, 
17, 1898937533, -101.72798919677734, -88.04906463623047, -174.51390075683594, 9.806647300720215, -0.2426205724477768, -0.015002479776740074, 1.747902512550354, -3.5138118267059326, 0.591368556022644, -0.80224609375, 0.0517578125, 0.62744140625, 0, 
18, 1898945866, -101.7327880859375, -88.0485610961914, -174.50962829589844, 10.247303009033203, -0.4976826012134552, -0.2139984369277954, 1.7484914064407349, -3.263073682785034, 0.6300460696220398, -0.798828125, 0.05078125, 0.630859375, 0, 
19, 1898954199, -101.72179412841797, -88.04776763916016, -174.52029418945312, 10.025252342224121, -0.4477377235889435, -0.2242528349161148, 1.9314544200897217, -3.1903810501098633, 0.6092730164527893, -0.8017578125, 0.0517578125, 0.6279296875, 0, 
20, 1898962532, -101.68260192871094, -88.04736328125, -174.55882263183594, 9.64598560333252, -0.12995034456253052, -0.17427374422550201, 1.8957479000091553, -3.0863101482391357, 0.673641562461853, -0.802734375, 0.0537109375, 0.62744140625, 0, 
21, 1898970865, -101.71831512451172, -88.04785919189453, -174.52333068847656, 9.47584342956543, -0.18465963006019592, 0.10409983992576599, 1.7971841096878052, -3.3587684631347656, 0.47441402077674866, -0.798828125, 0.05078125, 0.6279296875, 0, 
22, 1898979198, -101.767822265625, -88.04756164550781, -174.47496032714844, 9.754545211791992, -0.3494057059288025, 0.0019810921512544155, 1.6936004161834717, -3.4336392879486084, 0.5500784516334534, -0.80078125, 0.05029296875, 0.626953125, 0, 
23, 1898987531, -101.79566192626953, -88.04796600341797, -174.4470977783203, 10.12252140045166, -0.44773945212364197, -0.1377001851797104, 1.746903419494629, -3.3480875492095947, 0.5716200470924377, -0.79931640625, 0.0517578125, 0.62744140625, 0, 
24, 1898995864, -101.76534271240234, -88.04816436767578, -174.4775848388672, 10.104291915893555, -0.49215593934059143, -0.31243380904197693, 1.809863567352295, -3.1023192405700684, 0.5792275667190552, -0.80322265625, 0.0498046875, 0.623046875, 0, 
25, 1899004197, -101.73285675048828, -88.04796600341797, -174.5094757080078, 9.849404335021973, -0.41440004110336304, -0.20014606416225433, 1.893954873085022, -3.0968377590179443, 0.6090168356895447, -0.798828125, 0.05224609375, 0.62841796875, 0, 
26, 1899012530, -101.69889831542969, -88.04866790771484, -174.54307556152344, 9.500150680541992, -0.0955154225230217, 0.032487016171216965, 1.878125548362732, -3.0760390758514404, 0.5106069445610046, -0.80078125, 0.04931640625, 0.62548828125, 0, 
27, 1899020863, -101.7132568359375, -88.04927062988281, -174.52943420410156, 9.713000297546387, -0.12626919150352478, 0.15259049832820892, 1.7565600872039795, -3.266019582748413, 0.48038214445114136, -0.80078125, 0.05126953125, 0.626953125, 0, 
28, 1899029196, -101.7802734375, -88.04796600341797, -174.46322631835938, 9.974215507507324, -0.40592673420906067, -0.06662996858358383, 1.707303762435913, -3.532458543777466, 0.6575813293457031, -0.79833984375, 0.0517578125, 0.6279296875, 0, 
29, 1899037529, -101.73795318603516, -88.04695892333984, -174.50604248046875, 10.147937774658203, -0.48136821389198303, -0.27323001623153687, 1.7974151372909546, -3.0731451511383057, 0.704455554485321, -0.7998046875, 0.05224609375, 0.62646484375, 0, 
30, 1899045862, -101.71662902832031, -88.04615783691406, -174.52589416503906, 9.886643409729004, -0.39133507013320923, -0.18700237572193146, 1.9970265626907349, -3.1715285778045654, 0.6927497386932373, -0.80078125, 0.05322265625, 0.62939453125, 0, 
31, 1899054195, -101.70601654052734, -88.04676055908203, -174.53575134277344, 9.634242057800293, -0.22393964231014252, -0.08461383730173111, 1.8882173299789429, -3.1735527515411377, 0.5224151611328125, -0.7998046875, 0.05322265625, 0.62548828125, 0, 
32, 1899062528, -101.74076080322266, -88.04635620117188, -174.50082397460938, 9.608379364013672, -0.2482997179031372, 0.15618839859962463, 1.8340176343917847, -3.3864834308624268, 0.5949802398681641, -0.80322265625, 0.05224609375, 0.62939453125, 0, 
33, 1899070861, -101.80000305175781, -88.04595947265625, -174.4434356689453, 9.840859413146973, -0.25968191027641296, 0.011885341256856918, 1.6247749328613281, -3.467552661895752, 0.5393204689025879, -0.7978515625, 0.05029296875, 0.62744140625, 0, 
34, 1899079194, -101.81312561035156, -88.04605865478516, -174.43148803710938, 10.269207954406738, -0.47485315799713135, -0.17519831657409668, 1.6533091068267822, -3.2825660705566406, 0.5792274475097656, -0.8017578125, 0.0517578125, 0.626953125, 0, 
35, 1899087527, -101.76835632324219, -88.04525756835938, -174.47543334960938, 10.053528785705566, -0.506380558013916, -0.23941628634929657, 1.9308140277862549, -3.0638465881347656, 0.6899321675300598, -0.7998046875, 0.05078125, 0.6279296875, 0, 
36, 1899095860, -101.70237731933594, -88.04525756835938, -174.54078674316406, 9.64547061920166, -0.2615010142326355, -0.15543615818023682, 1.9174176454544067, -2.9602372646331787, 0.6199541687965393, -0.80126953125, 0.05322265625, 0.6259765625, 0, 
37, 1899104193, -101.71292114257812, -88.04615783691406, -174.53053283691406, 9.446992874145508, -0.19830720126628876, 0.05123564600944519, 1.8049966096878052, -3.2471930980682373, 0.45338475704193115, -0.802734375, 0.05224609375, 0.62890625, 0, 
38, 1899112526, -101.74983215332031, -88.04615783691406, -174.49423217773438, 9.727581977844238, -0.24244895577430725, 0.02567315101623535, 1.714424729347229, -3.3851513862609863, 0.5634235143661499, -0.796875, 0.05224609375, 0.6259765625, 0, 
39, 1899120859, -101.83525848388672, -88.04586029052734, -174.40853881835938, 10.070672035217285, -0.40676528215408325, -0.028613856062293053, 1.831481695175171, -3.5877602100372314, 0.5354783535003662, -0.802734375, 0.052734375, 0.62744140625, 0, 
40, 1899129192, -101.80542755126953, -88.0457534790039, -174.4385986328125, 10.220002174377441, -0.49240073561668396, -0.24880439043045044, 1.7928813695907593, -3.111156463623047, 0.6119369268417358, -0.80029296875, 0.0517578125, 0.62939453125, 0, 
41, 1899137525, -101.75875854492188, -88.0457534790039, -174.48435974121094, 9.88323974609375, -0.3214414715766907, -0.21097372472286224, 1.957836627960205, -3.0358242988586426, 0.5972086191177368, -0.8017578125, 0.05029296875, 0.625, 0, 
42, 1899145858, -101.73048400878906, -88.04716491699219, -174.5120849609375, 9.493402481079102, -0.13301894068717957, -0.019904911518096924, 1.9099379777908325, -3.0783443450927734, 0.40625452995300293, -0.798828125, 0.05322265625, 0.62841796875, 0, 
43, 1899154191, -101.77748107910156, -88.04826354980469, -174.4650421142578, 9.58464241027832, -0.23205742239952087, 0.15244852006435394, 1.7347368001937866, -3.41104793548584, 0.4856843054294586, -0.80419921875, 0.05126953125, 0.62451171875, 0, 
44, 1899162524, -101.82106018066406, -88.0484619140625, -174.4226837158203, 9.856368064880371, -0.3351967930793762, -0.023829130455851555, 1.7202647924423218, -3.3928871154785156, 0.4735175371170044, -0.80419921875, 0.05224609375, 0.6298828125, 0, 
45, 1899170857, -101.83412170410156, -88.04896545410156, -174.40956115722656, 10.221792221069336, -0.46111634373664856, -0.3024771511554718, 1.8040742874145508, -3.2742416858673096, 0.5240544080734253, -0.79638671875, 0.05029296875, 0.6279296875, 0, 
46, 1899179190, -101.79723358154297, -88.04896545410156, -174.4459228515625, 10.01244068145752, -0.500655472278595, -0.21086271107196808, 1.8975921869277954, -3.0811104774475098, 0.6033304929733276, -0.80322265625, 0.0498046875, 0.626953125, 0, 
47, 1899187523, -101.7509765625, -88.04976654052734, -174.49156188964844, 9.628561973571777, -0.2034691423177719, -0.05436461791396141, 1.8885248899459839, -3.0240423679351807, 0.5307910442352295, -0.80419921875, 0.05078125, 0.62646484375, 0, 
48, 1899195856, -101.78825378417969, -88.04976654052734, -174.45401000976562, 9.544074058532715, -0.10303927958011627, 0.14160113036632538, 1.8283313512802124, -3.3868165016174316, 0.5469791293144226, -0.80419921875, 0.052734375, 0.626953125, 0, 
49, 1899204189, -101.84452056884766, -88.04956817626953, -174.39889526367188, 9.807598114013672, -0.30255964398384094, -0.00514120701700449, 1.662914514541626, -3.456000328063965, 0.535042941570282, -0.8017578125, 0.048828125, 0.630859375, 0, 
50, 1899212522, -101.87294006347656, -88.04936218261719, -174.37135314941406, 10.181832313537598, -0.518349826335907, -0.10480175912380219, 1.749157428741455, -3.3483946323394775, 0.5714150667190552, -0.8017578125, 0.05029296875, 0.625, 0, 
51, 1899220855, -101.86026763916016, -88.04896545410156, -174.3837890625, 10.009235382080078, -0.4291123151779175, -0.23647941648960114, 1.8166766166687012, -3.1905858516693115, 0.6459269523620605, -0.80419921875, 0.05126953125, 0.6240234375, 0, 
52, 1899229188, -101.8291015625, -88.04896545410156, -174.41403198242188, 9.771175384521484, -0.34525465965270996, -0.1779523640871048, 1.9345533847808838, -3.105239152908325, 0.5925468802452087, -0.79833984375, 0.05517578125, 0.611328125, 0, 
53, 1899237521, -101.82698059082031, -88.04976654052734, -174.4158477783203, 9.518020629882812, -0.1809346079826355, 0.04864015057682991, 1.8968490362167358, -3.195605754852295, 0.452769935131073, -0.80615234375, 0.05322265625, 0.6064453125, 0, 
54, 1899245854, -101.83930206298828, -88.04906463623047, -174.40379333496094, 9.710982322692871, -0.16204193234443665, 0.07248187065124512, 1.7788187265396118, -3.2962701320648193, 0.6373717784881592, -0.80419921875, 0.05224609375, 0.61083984375, 0, 
55, 1899254187, -101.90037536621094, -88.04875946044922, -174.34364318847656, 10.019969940185547, -0.37881991267204285, -0.007672898471355438, 1.7145015001296997, -3.4827418327331543, 0.5597350001335144, -0.80517578125, 0.05029296875, 0.6083984375, 0, 
56, 1899262520, -101.85414123535156, -88.04896545410156, -174.39019775390625, 10.208073616027832, -0.49392616748809814, -0.3473168611526489, 1.8050992488861084, -3.032904863357544, 0.573951005935669, -0.80615234375, 0.05419921875, 0.61181640625, 0, 
57, 1899270853, -101.81790161132812, -88.0483627319336, -174.42007446289062, 9.85585880279541, -0.35202446579933167, -0.19442734122276306, 1.8729768991470337, -3.0936615467071533, 0.6648558378219604, -0.8056640625, 0.052734375, 0.61181640625, 0, 
58, 1899279186, -101.77167510986328, -88.04916381835938, -174.46530151367188, 9.498477935791016, -0.1687234789133072, -0.03420216962695122, 1.9177762269973755, -3.0321877002716064, 0.5537925958633423, -0.8076171875, 0.05078125, 0.61181640625, 0, 
59, 1899287519, -101.77912902832031, -88.04916381835938, -174.45230102539062, 9.569718360900879, -0.2434515506029129, 0.11753252148628235, 1.7565600872039795, -3.255645751953125, 0.5660873055458069, -0.80322265625, 0.05322265625, 0.61181640625, 0, 
60, 1899295852, -101.83601379394531, -88.04927062988281, -174.3955841064453, 9.863617897033691, -0.32718655467033386, -0.036153919994831085, 1.7729531526565552, -3.464376449584961, 0.5228250026702881, -0.8056640625, 0.0498046875, 0.61279296875, 0, 
61, 1899304185, -101.8270492553711, -88.04906463623047, -174.4134521484375, 10.272915840148926, -0.49185997247695923, -0.19897203147411346, 1.8342225551605225, -3.1991665363311768, 0.6084020733833313, -0.8046875, 0.05224609375, 0.615234375, 0, 
62, 1899312518, -101.7894515991211, -88.0485610961914, -174.44979858398438, 10.037262916564941, -0.4416673183441162, -0.21956998109817505, 1.990494966506958, -3.0906903743743896, 0.6482322216033936, -0.80224609375, 0.05029296875, 0.61474609375, 0, 
63, 1899320851, -101.76502990722656, -88.04916381835938, -174.47097778320312, 9.636191368103027, -0.1940881758928299, -0.17473401129245758, 1.8349143266677856, -3.1152546405792236, 0.5278453230857849, -0.80810546875, 0.0517578125, 0.6142578125, 0, 
64, 1899329184, -101.77449798583984, -88.04946899414062, -174.4613800048828, 9.426847457885742, -0.15574687719345093, 0.15315155684947968, 1.8438533544540405, -3.262356758117676, 0.5258986949920654, -0.7998046875, 0.048828125, 0.61474609375, 0, 
65, 1899337517, -101.7911605834961, -88.04866790771484, -174.4383544921875, 9.751265525817871, -0.2990657389163971, 0.037052351981401443, 1.7004390954971313, -3.304645538330078, 0.6227716207504272, -0.8056640625, 0.05224609375, 0.61376953125, 0, 
66, 1899345850, -101.81085205078125, -88.0483627319336, -174.41893005371094, 10.13205623626709, -0.4348334074020386, -0.16637101769447327, 1.7966721057891846, -3.3166587352752686, 0.5782541036605835, -0.80322265625, 0.052734375, 0.6142578125, 0, 
67, 1899354183, -101.80248260498047, -88.0484619140625, -174.42535400390625, 10.141032218933105, -0.47490018606185913, -0.2959029972553253, 1.9506391286849976, -3.1949915885925293, 0.5611950755119324, -0.8037109375, 0.05078125, 0.61328125, 0, 
68, 1899362516, -101.76190948486328, -88.04875946044922, -174.46456909179688, 9.82469367980957, -0.41379910707473755, -0.1695479303598404, 1.9826568365097046, -3.065690279006958, 0.586040735244751, -0.80615234375, 0.05322265625, 0.61474609375, 0, 
69, 1899370849, -101.7338638305664, -88.05077362060547, -174.4923553466797, 9.502115249633789, -0.12786360085010529, 0.08440510183572769, 1.849539875984192, -3.063462734222412, 0.3598928451538086, -0.80224609375, 0.052734375, 0.615234375, 0, 
70, 1899379182, -101.77153015136719, -88.05177307128906, -174.45535278320312, 9.705824851989746, -0.17361882328987122, 0.13529439270496368, 1.705895185470581, -3.3655054569244385, 0.4540250897407532, -0.8046875, 0.0517578125, 0.6142578125, 0, 
71, 1899387515, -101.82574462890625, -88.05168151855469, -174.40243530273438, 10.018040657043457, -0.4175918400287628, -0.09772422909736633, 1.7503103017807007, -3.449878692626953, 0.5347868204116821, -0.802734375, 0.052734375, 0.61474609375, 0, 
72, 1899395848, -101.77084350585938, -88.05278015136719, -174.456787109375, 10.180594444274902, -0.47787585854530334, -0.3086346685886383, 1.9031249284744263, -2.9827780723571777, 0.4908072054386139, -0.80322265625, 0.05419921875, 0.6103515625, 0, 
73, 1899404181, -101.75751495361328, -88.05168151855469, -174.46209716796875, 9.851619720458984, -0.38265785574913025, -0.14459633827209473, 1.888012409210205, -3.190201997756958, 0.6618078351020813, -0.8037109375, 0.0498046875, 0.61474609375, 0, 
74, 1899412514, -101.73250579833984, -88.0511703491211, -174.48770141601562, 9.564821243286133, -0.19355113804340363, -0.04474417865276337, 1.7632967233657837, -3.1361043453216553, 0.6407528519630432, -0.80419921875, 0.052734375, 0.6103515625, 0, 
75, 1899420847, -101.75804138183594, -88.0518798828125, -174.4601287841797, 9.57557201385498, -0.19458919763565063, 0.09520597010850906, 1.7734400033950806, -3.3322579860687256, 0.5521788597106934, -0.8046875, 0.05224609375, 0.6142578125, 0, 
76, 1899429180, -101.83316802978516, -88.0518798828125, -174.38587951660156, 9.871203422546387, -0.2996959984302521, -0.0019630182068794966, 1.7149112224578857, -3.536531448364258, 0.5078405737876892, -0.8017578125, 0.05029296875, 0.61865234375, 0, 
77, 1899437513, -101.83882904052734, -88.0501708984375, -174.3894500732422, 10.288225173950195, -0.5031424164772034, -0.2034328132867813, 1.73652982711792, -3.276675224304199, 0.7119604349136353, -0.8056640625, 0.05322265625, 0.61181640625, 0, 
78, 1899445846, -101.79889678955078, -88.0501708984375, -174.42884826660156, 10.053182601928711, -0.4583401083946228, -0.2651803493499756, 1.8683406114578247, -3.0725042819976807, 0.6215933561325073, -0.8046875, 0.05078125, 0.61669921875, 0, 
79, 1899454179, -101.73497772216797, -88.04966735839844, -174.4905242919922, 9.635946273803711, -0.2864706516265869, -0.19482190907001495, 1.876537561416626, -2.9779624938964844, 0.6827347278594971, -0.8037109375, 0.05029296875, 0.6162109375, 0, 
80, 1899462512, -101.72491455078125, -88.04997253417969, -174.49978637695312, 9.43446159362793, -0.2323484867811203, 0.10979674011468887, 1.9008963108062744, -3.191866636276245, 0.574360728263855, -0.80224609375, 0.05224609375, 0.61669921875, 0, 
81, 1899470845, -101.75089263916016, -88.0501708984375, -174.4733123779297, 9.737858772277832, -0.22061443328857422, 0.030610311776399612, 1.725234031677246, -3.3263156414031982, 0.5174716114997864, -0.80126953125, 0.0517578125, 0.615234375, 0, 
82, 1899479178, -101.78863525390625, -88.0485610961914, -174.43710327148438, 10.117100715637207, -0.3641822934150696, -0.06368696689605713, 1.6762081384658813, -3.41383957862854, 0.7075547575950623, -0.806640625, 0.05078125, 0.61279296875, 0, 
83, 1899487511, -101.75138092041016, -88.04816436767578, -174.47271728515625, 10.172493934631348, -0.47184044122695923, -0.2668899595737457, 1.7901406288146973, -3.083159923553467, 0.6440571546554565, -0.80224609375, 0.05419921875, 0.61669921875, 0, 
84, 1899495844, -101.73477172851562, -88.04695892333984, -174.48780822753906, 9.835996627807617, -0.31146007776260376, -0.19535398483276367, 2.0030715465545654, -3.195939302444458, 0.7148804664611816, -0.8037109375, 0.05078125, 0.6142578125, 0, 
85, 1899504177, -101.725830078125, -88.04655456542969, -174.50128173828125, 9.478779792785645, -0.13280725479125977, 0.006147055886685848, 1.8467222452163696, -3.199678897857666, 0.6226692199707031, -0.8056640625, 0.05078125, 0.61572265625, 0, 
86, 1899512510, -101.77308654785156, -88.0457534790039, -174.4546661376953, 9.629969596862793, -0.24474987387657166, 0.10771296173334122, 1.7221343517303467, -3.44145131111145, 0.6177512407302856, -0.802734375, 0.05078125, 0.61474609375, 0, 
87, 1899520843, -101.8683853149414, -88.0457534790039, -174.36141967773438, 9.91576862335205, -0.40288808941841125, -0.060965582728385925, 1.765397071838379, -3.6193935871124268, 0.4975180923938751, -0.80517578125, 0.052734375, 0.61376953125, 0, 
88, 1899529176, -101.84437561035156, -88.04646301269531, -174.38485717773438, 10.205527305603027, -0.5016731023788452, -0.28983771800994873, 1.8763067722320557, -3.1203773021698, 0.5275123119354248, -0.80078125, 0.05126953125, 0.61474609375, 0, 
89, 1899537509, -101.82508850097656, -88.0457534790039, -174.4019775390625, 9.972970962524414, -0.5420401692390442, -0.2058144062757492, 1.9399067163467407, -3.1729884147644043, 0.6832212209701538, -0.80322265625, 0.05224609375, 0.6123046875, 0, 
90, 1899545842, -101.8017807006836, -88.04676055908203, -174.42446899414062, 9.63174819946289, -0.2324044108390808, -0.03903202712535858, 1.9581183195114136, -3.1062636375427246, 0.4405776262283325, -0.8037109375, 0.05126953125, 0.61572265625, 0, 
91, 1899554175, -101.83003234863281, -88.04705810546875, -174.3938751220703, 9.551897048950195, -0.06777077913284302, 0.18013747036457062, 1.792240858078003, -3.339301824569702, 0.5302786827087402, -0.80517578125, 0.05029296875, 0.61181640625, 0, 
92, 1899562508, -101.86009216308594, -88.04676055908203, -174.3647918701172, 9.836345672607422, -0.23885850608348846, -0.014477135613560677, 1.7020784616470337, -3.356386423110962, 0.5671886801719666, -0.8037109375, 0.05322265625, 0.6142578125, 0, 
93, 1899570841, -101.86601257324219, -88.04635620117188, -174.36148071289062, 10.173725128173828, -0.5258341431617737, -0.17128077149391174, 1.7672412395477295, -3.265763521194458, 0.644133985042572, -0.8037109375, 0.05322265625, 0.61376953125, 0, 
94, 1899579174, -101.81053161621094, -88.0457534790039, -174.41598510742188, 9.99067497253418, -0.4561915695667267, -0.2273821234703064, 1.9642657041549683, -3.016434669494629, 0.6661109328269958, -0.80615234375, 0.05224609375, 0.6142578125, 0, 
95, 1899587507, -101.77136993408203, -88.0457534790039, -174.45037841796875, 9.768766403198242, -0.3258579969406128, -0.20055724680423737, 1.8943134546279907, -3.0670995712280273, 0.5976185202598572, -0.80126953125, 0.05078125, 0.61767578125, 0, 
96, 1899595840, -101.76372528076172, -88.04635620117188, -174.45802307128906, 9.55208683013916, -0.21050651371479034, 0.07072921097278595, 1.7899867296218872, -3.186640977859497, 0.5217747092247009, -0.80615234375, 0.05322265625, 0.62158203125, 0, 
97, 1899604173, -101.8050765991211, -88.04646301269531, -174.4119415283203, 9.740875244140625, -0.21716521680355072, 0.0981147512793541, 1.6390162706375122, -3.385176658630371, 0.5132195949554443, -0.80224609375, 0.05029296875, 0.62646484375, 0, 
98, 1899612506, -101.87936401367188, -88.0457534790039, -174.33848571777344, 10.039703369140625, -0.3523004949092865, -0.03843905031681061, 1.6757214069366455, -3.5576632022857666, 0.6204150915145874, -0.79931640625, 0.05126953125, 0.62744140625, 0, 
99, 1899620839, -101.83612060546875, -88.04515838623047, -174.3822479248047, 10.203536033630371, -0.5114726424217224, -0.30051732063293457, 1.7842236757278442, -3.0564701557159424, 0.6583242416381836, -0.8017578125, 0.0517578125, 0.62841796875, 0, 
100, 1899629172, -101.78211212158203, -88.0455551147461, -174.43515014648438, 9.831109046936035, -0.39978641271591187, -0.19943706691265106, 1.9543534517288208, -3.005113363265991, 0.5679316520690918, -0.7998046875, 0.05029296875, 0.6298828125, 0, 
101, 1899637505, -101.75341033935547, -88.04586029052734, -174.463623046875, 9.463303565979004, -0.11191920936107635, -0.022982493042945862, 1.87574303150177, -3.1042661666870117, 0.5646786093711853, -0.80224609375, 0.0517578125, 0.62451171875, 0, 
102, 1899645838, -101.79389953613281, -88.04646301269531, -174.4232940673828, 9.57552719116211, -0.20247356593608856, 0.13268712162971497, 1.7735934257507324, -3.382641077041626, 0.4726721942424774, -0.80126953125, 0.05322265625, 0.626953125, 0, 
103, 1899654171, -101.85769653320312, -88.04615783691406, -174.3598175048828, 9.858999252319336, -0.3704664409160614, -0.027277734130620956, 1.78123939037323, -3.49420428276062, 0.5405115485191345, -0.80322265625, 0.04931640625, 0.62744140625, 0, 
104, 1899662504, -101.85836791992188, -88.04635620117188, -174.35836791992188, 10.2606201171875, -0.4848921298980713, -0.19390007853507996, 1.9095796346664429, -3.2318758964538574, 0.544059157371521, -0.8017578125, 0.0517578125, 0.626953125, 0, 
105, 1899670837, -101.8558120727539, -88.0457534790039, -174.36070251464844, 10.053872108459473, -0.4211260676383972, -0.22652126848697662, 1.8805073499679565, -3.2269325256347656, 0.6157533526420593, -0.7998046875, 0.05126953125, 0.6298828125, 0, 
106, 1899679170, -101.8154067993164, -88.04515838623047, -174.39990234375, 9.685930252075195, -0.21258544921875, -0.18497096002101898, 1.9311467409133911, -3.0959925651550293, 0.7287633419036865, -0.80126953125, 0.05419921875, 0.62451171875, 0, 
107, 1899687503, -101.85258483886719, -88.04545593261719, -174.36328125, 9.43400764465332, -0.1949498951435089, 0.13554561138153076, 1.7437785863876343, -3.3686304092407227, 0.5025129318237305, -0.7978515625, 0.05029296875, 0.63037109375, 0, 
108, 1899695836, -101.88453674316406, -88.04525756835938, -174.33197021484375, 9.719451904296875, -0.26127418875694275, 0.03583488240838051, 1.752692461013794, -3.3631489276885986, 0.5544328689575195, -0.80224609375, 0.052734375, 0.62646484375, 0, 
109, 1899704169, -101.92504119873047, -88.04525756835938, -174.29197692871094, 10.130030632019043, -0.42012524604797363, -0.17557722330093384, 1.7658835649490356, -3.3916828632354736, 0.5385520458221436, -0.80224609375, 0.05126953125, 0.62939453125, 0, 
110, 1899712502, -101.88131713867188, -88.04435729980469, -174.33514404296875, 10.117243766784668, -0.4880756139755249, -0.28277361392974854, 1.8858095407485962, -3.0749120712280273, 0.707068145275116, -0.796875, 0.0498046875, 0.62744140625, 0, 
111, 1899720835, -101.85277557373047, -88.04395294189453, -174.36279296875, 9.798684120178223, -0.36018553376197815, -0.13750886917114258, 1.931198239326477, -3.126140594482422, 0.6496922373771667, -0.80322265625, 0.05029296875, 0.62890625, 0, 
112, 1899729168, -101.85095977783203, -88.0444564819336, -174.36520385742188, 9.486199378967285, -0.10588391125202179, 0.08125435560941696, 1.7821487188339233, -3.200908660888672, 0.480638325214386, -0.79736328125, 0.05078125, 0.6298828125, 0, 
113, 1899737501, -101.89776611328125, -88.04476165771484, -174.31976318359375, 9.72188663482666, -0.20501969754695892, 0.1291191130876541, 1.6408861875534058, -3.411456823348999, 0.5169592499732971, -0.802734375, 0.05322265625, 0.6240234375, 0, 
114, 1899745834, -101.95553588867188, -88.04375457763672, -174.26214599609375, 10.010634422302246, -0.43790099024772644, -0.039031606167554855, 1.7514628171920776, -3.498724937438965, 0.6668537855148315, -0.80029296875, 0.052734375, 0.62841796875, 0, 
115, 1899754167, -101.93585968017578, -88.04386138916016, -174.28163146972656, 10.18176555633545, -0.4656863212585449, -0.29036542773246765, 1.8464149236679077, -3.1495518684387207, 0.5934690237045288, -0.7998046875, 0.05029296875, 0.6259765625, 0, 
116, 1899762500, -101.9009780883789, -88.0435562133789, -174.3157196044922, 9.859569549560547, -0.4032512903213501, -0.16776923835277557, 1.951663851737976, -3.0893843173980713, 0.6024595499038696, -0.802734375, 0.052734375, 0.62744140625, 0, 
117, 1899770833, -101.88569641113281, -88.04386138916016, -174.33018493652344, 9.580467224121094, -0.18587325513362885, -0.01515602320432663, 1.890778660774231, -3.16420316696167, 0.5656775236129761, -0.7978515625, 0.04931640625, 0.6279296875, 0, 
118, 1899779166, -101.91966247558594, -88.04375457763672, -174.2965545654297, 9.575791358947754, -0.1331486999988556, 0.12943919003009796, 1.7779477834701538, -3.3752896785736084, 0.5649603009223938, -0.802734375, 0.05126953125, 0.62451171875, 0, 
119, 1899787499, -101.97732543945312, -88.04435729980469, -174.24034118652344, 9.848442077636719, -0.23274476826190948, -0.04372270405292511, 1.6362500190734863, -3.4460878372192383, 0.4621191918849945, -0.80029296875, 0.05078125, 0.62939453125, 0, 
120, 1899795832, -101.98908233642578, -88.04365539550781, -174.2288818359375, 10.265185356140137, -0.4945758879184723, -0.19269457459449768, 1.7496699094772339, -3.2973203659057617, 0.6589133739471436, -0.80126953125, 0.05078125, 0.626953125, 0, 
121, 1899804165, -101.96064758300781, -88.0424575805664, -174.25657653808594, 10.022462844848633, -0.45512983202934265, -0.274371474981308, 1.9784307479858398, -3.132723331451416, 0.6807622909545898, -0.8017578125, 0.05078125, 0.6279296875, 0, 
122, 1899812498, -101.9248275756836, -88.0423583984375, -174.2921142578125, 9.661286354064941, -0.25992029905319214, -0.18576239049434662, 1.8734122514724731, -3.0878727436065674, 0.6194161772727966, -0.80126953125, 0.05224609375, 0.62548828125, 0, 
123, 1899820831, -101.95628356933594, -88.04265594482422, -174.26138305664062, 9.444258689880371, -0.2719844877719879, 0.10147130489349365, 1.709352970123291, -3.347344398498535, 0.5215697884559631, -0.8037109375, 0.0517578125, 0.62646484375, 0, 
124, 1899829164, -101.99806213378906, -88.04335021972656, -174.220703125, 9.744922637939453, -0.254324346780777, 0.045950956642627716, 1.6928318738937378, -3.3799006938934326, 0.4376319944858551, -0.7998046875, 0.05078125, 0.62744140625, 0, 
125, 1899837497, -102.07879638671875, -88.04285430908203, -174.1399688720703, 10.137744903564453, -0.3956606388092041, -0.1003560721874237, 1.8073530197143555, -3.572826862335205, 0.5657799243927002, -0.7998046875, 0.0517578125, 0.6259765625, 0, 
126, 1899845830, -102.0165786743164, -88.04216003417969, -174.2022247314453, 10.202680587768555, -0.4855473041534424, -0.29211103916168213, 1.825974702835083, -2.993945598602295, 0.711268961429596, -0.80078125, 0.0517578125, 0.6318359375, 0, 
127, 1899854163, -101.95012664794922, -88.04165649414062, -174.268798828125, 9.810014724731445, -0.3463439643383026, -0.18579953908920288, 1.8334541320800781, -2.962722063064575, 0.6756650805473328, -0.79931640625, 0.05224609375, 0.62646484375, 0, 
128, 1899862496, -101.92417907714844, -88.04265594482422, -174.2952880859375, 9.410187721252441, -0.0961228460073471, 0.05152778699994087, 1.7619390487670898, -3.0939948558807373, 0.4690606892108917, -0.79931640625, 0.0517578125, 0.630859375, 0, 
129, 1899870829, -101.9712905883789, -88.04335021972656, -174.24990844726562, 9.628674507141113, -0.2076214998960495, 0.09019582718610764, 1.5717278718948364, -3.4044647216796875, 0.4851464629173279, -0.7978515625, 0.0537109375, 0.62744140625, 0, 
130, 1899879162, -102.03639221191406, -88.04285430908203, -174.1853790283203, 9.944598197937012, -0.43148091435432434, -0.059036530554294586, 1.7466216087341309, -3.5060248374938965, 0.5577371120452881, -0.80126953125, 0.05126953125, 0.626953125, 0, 
131, 1899887495, -102.0127182006836, -88.04345703125, -174.20962524414062, 10.2227783203125, -0.4693406820297241, -0.251615047454834, 1.733302354812622, -3.119659900665283, 0.5584543347358704, -0.80029296875, 0.05078125, 0.62841796875, 0, 
132, 1899895828, -102.01353454589844, -88.04335021972656, -174.20877075195312, 9.94133186340332, -0.4556446671485901, -0.23939849436283112, 1.830277919769287, -3.239278554916382, 0.5886023044586182, -0.80078125, 0.05224609375, 0.6259765625, 0, 
133, 1899904161, -101.97888946533203, -88.04325866699219, -174.242919921875, 9.63255786895752, -0.2497258335351944, -0.0948219746351242, 1.9016649723052979, -3.085362672805786, 0.5897037386894226, -0.8017578125, 0.05029296875, 0.62744140625, 0, 
134, 1899912494, -101.99026489257812, -88.04395294189453, -174.23098754882812, 9.532853126525879, -0.15220105648040771, 0.18465040624141693, 1.8765883445739746, -3.2611782550811768, 0.4788452386856079, -0.80078125, 0.05126953125, 0.62744140625, 0, 
135, 1899920827, -102.02547454833984, -88.04485321044922, -174.1970977783203, 9.834412574768066, -0.22926586866378784, -0.031044282019138336, 1.6979804039001465, -3.3366637229919434, 0.40064501762390137, -0.80224609375, 0.05322265625, 0.626953125, 0, 
136, 1899929160, -102.0140609741211, -88.04395294189453, -174.2083282470703, 10.1869478225708, -0.497943639755249, -0.20128075778484344, 1.8305341005325317, -3.2116920948028564, 0.7056593298912048, -0.7978515625, 0.0498046875, 0.62841796875, 0, 
137, 1899937493, -102.01689147949219, -88.04315185546875, -174.2051544189453, 9.981627464294434, -0.45245593786239624, -0.2522103190422058, 1.8903430700302124, -3.255235433578491, 0.6351176500320435, -0.802734375, 0.05126953125, 0.625, 0, 
138, 1899945826, -102.0050277709961, -88.0435562133789, -174.21612548828125, 9.684276580810547, -0.2565525472164154, -0.16038717329502106, 1.910962700843811, -3.181825637817383, 0.5630905628204346, -0.79931640625, 0.05126953125, 0.62939453125, 0, 
139, 1899954159, -102.01637268066406, -88.04425048828125, -174.20361328125, 9.507058143615723, -0.13818329572677612, 0.12763385474681854, 1.8861424922943115, -3.273908853530884, 0.5389106869697571, -0.80029296875, 0.0517578125, 0.62451171875, 0, 
140, 1899962492, -102.04108428955078, -88.04295349121094, -174.18003845214844, 9.766030311584473, -0.22573572397232056, 0.08054770529270172, 1.720341682434082, -3.3522629737854004, 0.6584266424179077, -0.80126953125, 0.05126953125, 0.6279296875, 0, 
141, 1899970825, -102.12054443359375, -88.04285430908203, -174.1013946533203, 10.083124160766602, -0.4641910493373871, -0.021354665979743004, 1.702155351638794, -3.552565813064575, 0.5163956880569458, -0.7998046875, 0.052734375, 0.62451171875, 0, 
142, 1899979158, -102.08626556396484, -88.04295349121094, -174.13589477539062, 10.208413124084473, -0.4861636757850647, -0.25829949975013733, 1.817778468132019, -3.0863873958587646, 0.5832746028900146, -0.8017578125, 0.05078125, 0.626953125, 0, 
143, 1899987491, -102.03881072998047, -88.0423583984375, -174.1830291748047, 9.860013961791992, -0.3715624213218689, -0.1925305873155594, 1.8727209568023682, -3.0489394664764404, 0.6810953617095947, -0.79833984375, 0.05224609375, 0.62939453125, 0, 
144, 1899995824, -101.98799896240234, -88.04345703125, -174.23410034179688, 9.462152481079102, -0.20678572356700897, -0.03979664295911789, 1.7789983749389648, -2.995354413986206, 0.5019493699073792, -0.80224609375, 0.04931640625, 0.62255859375, 0, 
145, 1900004157, -102.05278778076172, -88.04395294189453, -174.1702423095703, 9.596122741699219, -0.21667255461215973, 0.1722339540719986, 1.708635926246643, -3.4748783111572266, 0.4531030058860779, -0.802734375, 0.05078125, 0.62841796875, 0, 
146, 1900012490, -102.12447357177734, -88.04375457763672, -174.09893798828125, 9.886774063110352, -0.3247789740562439, -0.05849631875753403, 1.7667289972305298, -3.529513359069824, 0.5278453826904297, -0.80029296875, 0.05078125, 0.6279296875, 0, 
147, 1900020823, -102.11666870117188, -88.04405212402344, -174.1076202392578, 10.249471664428711, -0.4889344274997711, -0.24979732930660248, 1.7185742855072021, -3.186436653137207, 0.5541767477989197, -0.80126953125, 0.05322265625, 0.62744140625, 0, 
148, 1900029156, -102.08432006835938, -88.04365539550781, -174.13990783691406, 10.000109672546387, -0.42909684777259827, -0.22450652718544006, 1.846747636795044, -3.1037535667419434, 0.6230533719062805, -0.80029296875, 0.052734375, 0.61328125, 0, 
149, 1900037489, -102.043212890625, -88.04375457763672, -174.18048095703125, 9.611213684082031, -0.15546786785125732, -0.1062319204211235, 1.8945952653884888, -3.0594921112060547, 0.5965939164161682, -0.80419921875, 0.05419921875, 0.60595703125, 0, 
150, 1900045822, -102.10443878173828, -88.0435562133789, -174.1198272705078, 9.49321174621582, -0.20776276290416718, 0.14517678320407867, 1.737195611000061, -3.4860968589782715, 0.5501295924186707, -0.806640625, 0.05322265625, 0.6103515625, 0, 
151, 1900054155, -102.13145446777344, -88.04425048828125, -174.09423828125, 9.791147232055664, -0.34723687171936035, 0.006725849583745003, 1.6650404930114746, -3.3121254444122314, 0.4522833526134491, -0.8056640625, 0.05126953125, 0.60791015625, 0, 
152, 1900062488, -102.14922332763672, -88.04335021972656, -174.07699584960938, 10.177389144897461, -0.46363434195518494, -0.1525600403547287, 1.737810492515564, -3.3230884075164795, 0.6551224589347839, -0.806640625, 0.05224609375, 0.61083984375, 0, 
153, 1900070821, -102.11775970458984, -88.0445556640625, -174.10777282714844, 10.083041191101074, -0.47545337677001953, -0.2553570568561554, 1.8690067529678345, -3.0812132358551025, 0.5092238783836365, -0.80419921875, 0.05224609375, 0.6123046875, 0, 
154, 1900079154, -102.07495880126953, -88.04505920410156, -174.14907836914062, 9.776891708374023, -0.37731602787971497, -0.16440679132938385, 2.0108580589294434, -3.0508599281311035, 0.5566868782043457, -0.80615234375, 0.0517578125, 0.61328125, 0, 
155, 1900087487, -102.06858825683594, -88.04615783691406, -174.15957641601562, 9.466692924499512, -0.14784660935401917, 0.04323063790798187, 1.9432878494262695, -3.183567523956299, 0.46614062786102295, -0.80615234375, 0.0517578125, 0.61376953125, 0, 
156, 1900095820, -102.10608673095703, -88.04655456542969, -174.12252807617188, 9.707403182983398, -0.18881535530090332, 0.10527762770652771, 1.7495418787002563, -3.3719091415405273, 0.4870162308216095, -0.80615234375, 0.05224609375, 0.61181640625, 0, 
157, 1900104153, -102.15086364746094, -88.04535675048828, -174.07557678222656, 10.040323257446289, -0.45527905225753784, -0.041875213384628296, 1.6880930662155151, -3.4290285110473633, 0.6378071904182434, -0.806640625, 0.05224609375, 0.61328125, 0, 
158, 1900112486, -102.11283111572266, -88.04545593261719, -174.1132049560547, 10.166176795959473, -0.477780818939209, -0.3274138867855072, 1.8628849983215332, -3.0745534896850586, 0.6005385518074036, -0.80224609375, 0.05419921875, 0.61279296875, 0, 
159, 1900120819, -102.0806655883789, -88.04435729980469, -174.14605712890625, 9.834210395812988, -0.3903602957725525, -0.17153574526309967, 1.924564003944397, -3.1322367191314697, 0.7557095289230347, -0.8076171875, 0.05224609375, 0.61328125, 0, 
160, 1900129152, -102.04931640625, -88.04345703125, -174.1770782470703, 9.570365905761719, -0.17619921267032623, -0.013145210221409798, 1.8824541568756104, -3.1243984699249268, 0.694081723690033, -0.80322265625, 0.052734375, 0.61376953125, 0, 
161, 1900137485, -102.1016616821289, -88.04315185546875, -174.12448120117188, 9.629853248596191, -0.1825263649225235, 0.13684889674186707, 1.7284098863601685, -3.4491610527038574, 0.5673424005508423, -0.806640625, 0.05322265625, 0.61279296875, 0, 
162, 1900145818, -102.13787078857422, -88.04335021972656, -174.0885772705078, 9.880960464477539, -0.31224873661994934, -0.07724534720182419, 1.7935469150543213, -3.3723952770233154, 0.509710431098938, -0.8046875, 0.0537109375, 0.61572265625, 0, 
163, 1900154151, -102.11766815185547, -88.04335021972656, -174.10952758789062, 10.294118881225586, -0.472886860370636, -0.2139362245798111, 1.7411917448043823, -3.1423802375793457, 0.6011533141136169, -0.80322265625, 0.05126953125, 0.61279296875, 0, 
164, 1900162484, -102.08718872070312, -88.04265594482422, -174.1390380859375, 9.975631713867188, -0.4270249903202057, -0.22860124707221985, 1.9390356540679932, -3.129188060760498, 0.6797120571136475, -0.80419921875, 0.05126953125, 0.6142578125, 0, 
165, 1900170817, -102.0468521118164, -88.0423583984375, -174.18441772460938, 9.583436965942383, -0.20914475619792938, -0.15158717334270477, 1.910117506980896, -3.063077926635742, 0.6091448664665222, -0.80126953125, 0.05322265625, 0.6142578125, 0, 
166, 1900179150, -102.05193328857422, -88.04345703125, -174.179443359375, 9.437868118286133, -0.22122980654239655, 0.17278851568698883, 1.8148325681686401, -3.2200422286987305, 0.4161416292190552, -0.8076171875, 0.05419921875, 0.6142578125, 0, 
167, 1900187483, -102.10005187988281, -88.04375457763672, -174.12974548339844, 9.774368286132812, -0.29330721497535706, 0.0019422743935137987, 1.7881423234939575, -3.4191668033599854, 0.5024871826171875, -0.80224609375, 0.052734375, 0.61474609375, 0, 
168, 1900195816, -102.17433166503906, -88.04275512695312, -174.054931640625, 10.20134162902832, -0.42075157165527344, -0.11456693708896637, 1.862474799156189, -3.5651166439056396, 0.6311987042427063, -0.80419921875, 0.05078125, 0.61181640625, 0, 
169, 1900204149, -102.14156341552734, -88.04255676269531, -174.08538818359375, 10.151832580566406, -0.4423981010913849, -0.280656635761261, 1.8811732530593872, -3.0948143005371094, 0.5998213291168213, -0.80322265625, 0.05419921875, 0.61767578125, 0, 
170, 1900212482, -102.09444427490234, -88.04216003417969, -174.13101196289062, 9.777703285217285, -0.3371732234954834, -0.18601927161216736, 1.980812668800354, -3.054523229598999, 0.6632421612739563, -0.8037109375, 0.04931640625, 0.61376953125, 0, 
171, 1900220815, -102.04936218261719, -88.04275512695312, -174.17701721191406, 9.417890548706055, -0.1326935887336731, 0.02360449731349945, 1.8397810459136963, -3.020815134048462, 0.515627384185791, -0.8046875, 0.0537109375, 0.6123046875, 0, 
172, 1900229148, -102.07003021240234, -88.04275512695312, -174.15618896484375, 9.68646240234375, -0.23674288392066956, 0.13076984882354736, 1.8095301389694214, -3.321141242980957, 0.5758463740348816, -0.80224609375, 0.05078125, 0.6171875, 0, 
173, 1900237481, -102.13249969482422, -88.04265594482422, -174.0973358154297, 10.010788917541504, -0.4222591519355774, -0.07394962757825851, 1.7783833742141724, -3.4921934604644775, 0.5495149493217468, -0.8046875, 0.0537109375, 0.611328125, 0, 
174, 1900245814, -102.10624694824219, -88.04205322265625, -174.12347412109375, 10.194791793823242, -0.44924578070640564, -0.31392592191696167, 1.827255368232727, -3.1435325145721436, 0.688933253288269, -0.80322265625, 0.05322265625, 0.61572265625, 0, 
175, 1900254147, -102.05939483642578, -88.04175567626953, -174.1723175048828, 9.853998184204102, -0.43401259183883667, -0.19047270715236664, 1.9781745672225952, -3.052140712738037, 0.6630372405052185, -0.8046875, 0.05126953125, 0.6142578125, 0, 
176, 1900262480, -102.02253723144531, -88.04315185546875, -174.20806884765625, 9.555309295654297, -0.19396397471427917, -0.027372274547815323, 1.9541995525360107, -3.047325372695923, 0.4319712221622467, -0.80517578125, 0.0537109375, 0.6142578125, 0, 
177, 1900270813, -102.07864379882812, -88.0435562133789, -174.1484375, 9.629847526550293, -0.16368822753429413, 0.18688084185123444, 1.7975685596466064, -3.4423224925994873, 0.46396344900131226, -0.80322265625, 0.0517578125, 0.6142578125, 0, 
178, 1900279146, -102.14725494384766, -88.0435562133789, -174.08087158203125, 9.9105224609375, -0.3145524263381958, -0.05749675631523132, 1.6950347423553467, -3.5068702697753906, 0.505740225315094, -0.8046875, 0.0517578125, 0.61328125, 0, 
179, 1900287479, -102.15032958984375, -88.0423583984375, -174.0763397216797, 10.271678924560547, -0.4981948435306549, -0.23915576934814453, 1.7632198333740234, -3.263688802719116, 0.6920582056045532, -0.80224609375, 0.0517578125, 0.6162109375, 0, 
180, 1900295812, -102.13795471191406, -88.0422592163086, -174.0879364013672, 9.932904243469238, -0.43669670820236206, -0.18026232719421387, 1.8689810037612915, -3.1936850547790527, 0.625076949596405, -0.8046875, 0.052734375, 0.61181640625, 0, 
181, 1900304145, -101.56353759765625, -88.0511703491211, -174.65902709960938, 9.607146263122559, -0.24595074355602264, -0.145774707198143, 1.8197760581970215, -3.097734212875366, 0.6508960723876953, -0.8046875, 0.0517578125, 0.6171875, 0, 
182, 1900312478, -101.60171508789062, -88.0511703491211, -174.6209259033203, 9.4881591796875, -0.21366316080093384, 0.08029640465974808, 1.802281379699707, -3.3926310539245605, 0.5420611500740051, -0.80078125, 0.0517578125, 0.6142578125, 0, 
183, 1900320811, -101.64932250976562, -88.05168151855469, -174.57533264160156, 9.81093978881836, -0.2235237956047058, 0.03565986454486847, 1.7422417402267456, -3.4101767539978027, 0.4804590046405792, -0.802734375, 0.0537109375, 0.6142578125, 0, 
184, 1900329144, -101.72311401367188, -88.05057525634766, -174.5017547607422, 10.189817428588867, -0.43774735927581787, -0.06347183138132095, 1.7762575149536133, -3.5622739791870117, 0.6395745873451233, -0.8017578125, 0.05224609375, 0.615234375, 0, 
185, 1900337477, -101.67627716064453, -88.05036926269531, -174.5449981689453, 10.138980865478516, -0.4922143220901489, -0.3348114490509033, 1.8676236867904663, -3.0402817726135254, 0.6258454322814941, -0.80712890625, 0.0537109375, 0.615234375, 0, 
186, 1900345810, -101.62367248535156, -88.05057525634766, -174.59706115722656, 9.71467113494873, -0.3564472496509552, -0.19277262687683105, 1.9179041385650635, -3.009467840194702, 0.5714919567108154, -0.8037109375, 0.05322265625, 0.61767578125, 0, 
187, 1900354143, -101.62460327148438, -88.05157470703125, -174.5957489013672, 9.415626525878906, -0.19478224217891693, 0.045137468725442886, 1.7984906435012817, -3.220759630203247, 0.5162420868873596, -0.80224609375, 0.05078125, 0.61376953125, 0, 
188, 1900362476, -101.65941619873047, -88.05077362060547, -174.56224060058594, 9.690689086914062, -0.2518062889575958, 0.13686884939670563, 1.6936771869659424, -3.386765241622925, 0.6224130392074585, -0.80517578125, 0.0517578125, 0.619140625, 0, 
189, 1900370809, -101.73271942138672, -88.04997253417969, -174.48878479003906, 10.025769233703613, -0.3363288640975952, -0.07686738669872284, 1.7905244827270508, -3.5403738021850586, 0.5673424601554871, -0.80126953125, 0.05126953125, 0.61376953125, 0, 
190, 1900379142, -101.68395233154297, -88.05036926269531, -174.5375518798828, 10.246260643005371, -0.43157655000686646, -0.29193583130836487, 1.8174066543579102, -3.022645950317383, 0.5719658732414246, -0.806640625, 0.0517578125, 0.6142578125, 0, 
191, 1900387475, -101.6446533203125, -88.04997253417969, -174.56707763671875, 9.896896362304688, -0.4089118540287018, -0.16433846950531006, 1.8018463850021362, -3.0832371711730957, 0.677688717842102, -0.80126953125, 0.0517578125, 0.62353515625, 0, 
192, 1900395808, -101.58667755126953, -88.05077362060547, -174.6240234375, 9.539947509765625, -0.12139260023832321, -0.06275562942028046, 1.9650602340698242, -2.976066827774048, 0.5131940841674805, -0.80224609375, 0.05078125, 0.625, 0, 
193, 1900404141, -101.64459228515625, -88.04936218261719, -174.5488739013672, 9.535311698913574, -0.1812753826379776, 0.1389145404100418, 1.8013849258422852, -3.4975719451904297, 0.6801475286483765, -0.80078125, 0.0537109375, 0.62890625, 0, 
194, 1900412474, -101.67949676513672, -88.04916381835938, -174.51466369628906, 9.846121788024902, -0.38873013854026794, -0.020114926621317863, 1.73880934715271, -3.3807456493377686, 0.576076865196228, -0.7998046875, 0.0517578125, 0.62841796875, 0, 
195, 1900420807, -101.66421508789062, -88.0483627319336, -174.53028869628906, 10.241263389587402, -0.5149490833282471, -0.23102419078350067, 1.7942898273468018, -3.1795716285705566, 0.6667512655258179, -0.80419921875, 0.05322265625, 0.6279296875, 0, 
196, 1900429140, -101.65499877929688, -88.04806518554688, -174.5387725830078, 10.019397735595703, -0.46035754680633545, -0.2847873866558075, 1.8947747945785522, -3.207721710205078, 0.6259990930557251, -0.79638671875, 0.05224609375, 0.63134765625, 0, 
197, 1900437473, -101.64434814453125, -88.04785919189453, -174.5482940673828, 9.715736389160156, -0.3286673426628113, -0.11727572977542877, 1.9352449178695679, -3.1959900856018066, 0.6134735941886902, -0.8037109375, 0.05224609375, 0.62548828125, 0, 
198, 1900445806, -101.6524429321289, -88.04756164550781, -174.5400848388672, 9.501818656921387, -0.12619024515151978, 0.16334286332130432, 1.8182904720306396, -3.2728841304779053, 0.6036890745162964, -0.7998046875, 0.05029296875, 0.6279296875, 0, 
199, 1900454139, -101.69873046875, -88.04785919189453, -174.49513244628906, 9.783348083496094, -0.18420977890491486, 0.03629340976476669, 1.7028471231460571, -3.399137020111084, 0.4630669355392456, -0.8017578125, 0.05126953125, 0.62353515625, 0, 
200, 1900462472, -101.74436950683594, -88.04736328125, -174.4499969482422, 10.16499137878418, -0.48598459362983704, -0.11524542421102524, 1.7437784671783447, -3.4346635341644287, 0.6150360703468323, -0.80126953125, 0.05029296875, 0.626953125, 0, 
201, 1900470805, -101.7255859375, -88.04766082763672, -174.4680938720703, 10.098858833312988, -0.43324458599090576, -0.29979801177978516, 1.9147536754608154, -3.142200469970703, 0.5352990627288818, -0.79833984375, 0.05224609375, 0.6259765625, 0, 
202, 1900479138, -101.6714096069336, -88.04595947265625, -174.5210723876953, 9.713257789611816, -0.27649080753326416, -0.17459356784820557, 1.9284825325012207, -3.064307451248169, 0.8567320108413696, -0.802734375, 0.04931640625, 0.6279296875, 0, 
203, 1900487471, -101.66193389892578, -88.0457534790039, -174.52969360351562, 9.506909370422363, -0.17954322695732117, 0.013919409364461899, 1.9149713516235352, -3.1987438201904297, 0.6143060922622681, -0.8017578125, 0.0517578125, 0.6298828125, 0, 
204, 1900495804, -101.6846923828125, -88.04635620117188, -174.50833129882812, 9.73995304107666, -0.2473427802324295, 0.0956057608127594, 1.686838150024414, -3.2990620136260986, 0.44941455125808716, -0.80322265625, 0.0517578125, 0.626953125, 0, 
205, 1900504137, -101.71273040771484, -88.04615783691406, -174.48043823242188, 10.006417274475098, -0.3530879616737366, -0.029355177655816078, 1.806046485900879, -3.3471648693084717, 0.5652933120727539, -0.80126953125, 0.052734375, 0.6279296875, 0, 
206, 1900512470, -101.67405700683594, -88.04595947265625, -174.51959228515625, 10.26424503326416, -0.47972673177719116, -0.31269389390945435, 1.7743622064590454, -3.073887825012207, 0.6197236180305481, -0.79931640625, 0.05078125, 0.626953125, 0, 
207, 1900520803, -101.6463623046875, -88.04535675048828, -174.54600524902344, 9.896013259887695, -0.4868042469024658, -0.2363043874502182, 1.9455162286758423, -3.1409709453582764, 0.6972322463989258, -0.802734375, 0.0517578125, 0.626953125, 0, 
208, 1900529136, -101.60386657714844, -88.04605865478516, -174.58822631835938, 9.486599922180176, -0.18528851866722107, -0.045882269740104675, 1.863679051399231, -3.0382838249206543, 0.5173691511154175, -0.79931640625, 0.05224609375, 0.630859375, 0, 
209, 1900537469, -101.66742706298828, -88.04655456542969, -174.5249786376953, 9.493168830871582, -0.1949274092912674, 0.18688464164733887, 1.7918307781219482, -3.4705488681793213, 0.44027021527290344, -0.8037109375, 0.0517578125, 0.6259765625, 0, 
210, 1900545802, -101.72904205322266, -88.04756164550781, -174.4642333984375, 9.884597778320312, -0.3264943063259125, -0.040525171905756, 1.6899118423461914, -3.4610207080841064, 0.4118896722793579, -0.802734375, 0.05224609375, 0.63134765625, 0, 
211, 1900554135, -101.72651672363281, -88.04666137695312, -174.4665069580078, 10.272761344909668, -0.4425225853919983, -0.21897456049919128, 1.8567118644714355, -3.242633819580078, 0.6942096948623657, -0.80029296875, 0.05078125, 0.62353515625, 0, 
212, 1900562468, -101.68460845947266, -88.04676055908203, -174.50888061523438, 10.049962997436523, -0.41372501850128174, -0.22810930013656616, 1.7743622064590454, -3.053729295730591, 0.589524507522583, -0.802734375, 0.0537109375, 0.6298828125, 0, 
213, 1900570801, -101.65271759033203, -88.04535675048828, -174.5402069091797, 9.696746826171875, -0.22403167188167572, -0.1331399530172348, 1.88642418384552, -3.1351308822631836, 0.7748689651489258, -0.7978515625, 0.0517578125, 0.6279296875, 0, 
214, 1900579134, -101.6973876953125, -88.04535675048828, -174.49612426757812, 9.417713165283203, -0.16078245639801025, 0.10574322193861008, 1.779792070388794, -3.4081528186798096, 0.5044595003128052, -0.80322265625, 0.05126953125, 0.6259765625, 0, 
215, 1900587467, -101.72551727294922, -88.04525756835938, -174.4688720703125, 9.740729331970215, -0.3093874454498291, 0.012646777555346489, 1.698415756225586, -3.3427600860595703, 0.5668045878410339, -0.7998046875, 0.052734375, 0.62841796875, 0, 
216, 1900595800, -101.75740051269531, -88.04515838623047, -174.43666076660156, 10.131661415100098, -0.44160717725753784, -0.10473949462175369, 1.8597341775894165, -3.366299629211426, 0.5507956743240356, -0.7998046875, 0.05224609375, 0.6259765625, 0, 
217, 1900604133, -101.7278823852539, -88.04496002197266, -174.4663848876953, 10.159628868103027, -0.4483703374862671, -0.3622727692127228, 1.8246427774429321, -3.105264902114868, 0.5903184413909912, -0.7998046875, 0.0498046875, 0.62841796875, 0, 
218, 1900612466, -101.66545867919922, -88.04375457763672, -174.52867126464844, 9.7932710647583, -0.40625983476638794, -0.13615785539150238, 1.8689810037612915, -3.006009578704834, 0.7687215209007263, -0.7998046875, 0.0517578125, 0.6279296875, 0, 
219, 1900620799, -101.640869140625, -88.04505920410156, -174.5525360107422, 9.482916831970215, -0.15116403996944427, 0.05856703594326973, 1.8533562421798706, -3.106468677520752, 0.4823288023471832, -0.8037109375, 0.05078125, 0.62548828125, 0, 
220, 1900629132, -101.66654968261719, -88.04476165771484, -174.52720642089844, 9.671374320983887, -0.12943825125694275, 0.1270899921655655, 1.7865543365478516, -3.3424270153045654, 0.5817632675170898, -0.798828125, 0.05029296875, 0.62890625, 0, 
221, 1900637465, -101.72984313964844, -88.04335021972656, -174.46481323242188, 9.999399185180664, -0.37960103154182434, -0.07226551324129105, 1.7168323993682861, -3.512838363647461, 0.654968798160553, -0.80224609375, 0.05419921875, 0.62548828125, 0, 
222, 1900645798, -101.70176696777344, -88.04295349121094, -174.49339294433594, 10.254826545715332, -0.5296441912651062, -0.28426843881607056, 1.7820719480514526, -3.123527765274048, 0.6393953561782837, -0.80126953125, 0.05126953125, 0.62841796875, 0, 
223, 1900654131, -101.664306640625, -88.04345703125, -174.52919006347656, 9.84896469116211, -0.3782544732093811, -0.19991648197174072, 1.9795829057693481, -3.080188035964966, 0.6022545695304871, -0.80126953125, 0.05078125, 0.62841796875, 0, 
224, 1900662464, -101.65718841552734, -88.04435729980469, -174.5353546142578, 9.55914306640625, -0.19664442539215088, -0.05585801973938942, 1.9097076654434204, -3.182056188583374, 0.45840516686439514, -0.8017578125, 0.05078125, 0.62451171875, 0, 
225, 1900670797, -101.6918716430664, -88.04435729980469, -174.50047302246094, 9.588462829589844, -0.2498520463705063, 0.18937888741493225, 1.8471832275390625, -3.3734970092773438, 0.5543816685676575, -0.79931640625, 0.05126953125, 0.62841796875, 0, 
226, 1900679130, -101.73849487304688, -88.04505920410156, -174.4547576904297, 9.892861366271973, -0.2346104383468628, -0.015853825956583023, 1.7359918355941772, -3.3972413539886475, 0.4179346561431885, -0.80224609375, 0.05322265625, 0.626953125, 0, 
227, 1900687463, -101.76322937011719, -88.0455551147461, -174.43075561523438, 10.252744674682617, -0.41829201579093933, -0.2249632626771927, 1.7146040201187134, -3.3167357444763184, 0.5116827487945557, -0.80078125, 0.052734375, 0.62841796875, 0, 
228, 1900695796, -101.72551727294922, -88.0445556640625, -174.46795654296875, 10.015451431274414, -0.5023884177207947, -0.24865567684173584, 1.8879610300064087, -3.10172963142395, 0.7065557837486267, -0.7998046875, 0.05078125, 0.6279296875, 0, 
229, 1900704129, -101.65775299072266, -88.04435729980469, -174.53482055664062, 9.61989974975586, -0.2758710980415344, -0.15124693512916565, 1.9565305709838867, -2.9568049907684326, 0.654379665851593, -0.80126953125, 0.0517578125, 0.62841796875, 0, 
230, 1900712462, -101.66870880126953, -88.04535675048828, -174.52403259277344, 9.380594253540039, -0.13488566875457764, 0.12489187717437744, 1.7765393257141113, -3.256516695022583, 0.46124833822250366, -0.796875, 0.05078125, 0.626953125, 0, 
231, 1900720795, -101.70011901855469, -88.0455551147461, -174.49298095703125, 9.782193183898926, -0.32869672775268555, 0.02959904819726944, 1.7625538110733032, -3.354978322982788, 0.5486184358596802, -0.8017578125, 0.05126953125, 0.62451171875, 0, 
232, 1900729128, -101.74713134765625, -88.04485321044922, -174.44578552246094, 10.132866859436035, -0.4553168714046478, -0.08617684245109558, 1.8494887351989746, -3.43807053565979, 0.5878595113754272, -0.80029296875, 0.0517578125, 0.63037109375, 0, 
233, 1900737461, -101.71868133544922, -88.04515838623047, -174.47406005859375, 10.185135841369629, -0.4176132082939148, -0.25088465213775635, 1.8023585081100464, -3.1127185821533203, 0.5968244671821594, -0.8017578125, 0.05322265625, 0.62451171875, 0, 
234, 1900745794, -101.68099975585938, -88.04415893554688, -174.5108642578125, 9.827323913574219, -0.3780704140663147, -0.16717419028282166, 1.9736407995224, -3.09893798828125, 0.6858850717544556, -0.8056640625, 0.0498046875, 0.62939453125, 0, 
235, 1900754127, -101.65319061279297, -88.0455551147461, -174.53857421875, 9.442397117614746, -0.16165569424629211, 0.026922501623630524, 1.8345301151275635, -3.0780882835388184, 0.428974449634552, -0.7998046875, 0.05126953125, 0.62646484375, 0, 
236, 1900762460, -101.68910217285156, -88.0457534790039, -174.5027618408203, 9.615167617797852, -0.16526465117931366, 0.13956409692764282, 1.7974659204483032, -3.3804893493652344, 0.5397558808326721, -0.80126953125, 0.05322265625, 0.62890625, 0, 
237, 1900770793, -101.76036071777344, -88.04545593261719, -174.4314727783203, 9.96106243133545, -0.35561898350715637, -0.08204112946987152, 1.8028451204299927, -3.5280532836914062, 0.5478756427764893, -0.796875, 0.05322265625, 0.62646484375, 0, 
238, 1900779126, -101.71763610839844, -88.0457534790039, -174.47439575195312, 10.235185623168945, -0.4561173617839813, -0.3044017553329468, 1.8195199966430664, -3.044097900390625, 0.5530753135681152, -0.8037109375, 0.0517578125, 0.6259765625, 0, 
239, 1900787459, -101.66923522949219, -88.04535675048828, -174.52220153808594, 9.860055923461914, -0.44239017367362976, -0.18347670137882233, 1.903637170791626, -3.04207444190979, 0.6618077754974365, -0.7998046875, 0.05078125, 0.62939453125, 0, 
240, 1900795792, -101.6446762084961, -88.04595947265625, -174.54583740234375, 9.613183975219727, -0.2384401559829712, -0.035665083676576614, 1.8948512077331543, -3.127241373062134, 0.5509237051010132, -0.8017578125, 0.0498046875, 0.62548828125, 0, 
241, 1900804125, -101.69486236572266, -88.0455551147461, -174.4955291748047, 9.59084415435791, -0.17347107827663422, 0.17101114988327026, 1.813270092010498, -3.4451143741607666, 0.5886535048484802, -0.80078125, 0.0517578125, 0.6298828125, 0, 
242, 1900812458, -101.70980834960938, -88.04615783691406, -174.4832000732422, 9.896132469177246, -0.24246960878372192, -0.02565903216600418, 1.55886971950531, -3.262972116470337, 0.4570220410823822, -0.7998046875, 0.05126953125, 0.62548828125, 0, 
243, 1900820791, -101.7054443359375, -88.0455551147461, -174.48817443847656, 10.263826370239258, -0.5192273259162903, -0.21233664453029633, 1.7248753309249878, -3.222142457962036, 0.6480785012245178, -0.80322265625, 0.0517578125, 0.6279296875, 0, 
244, 1900829124, -101.67705535888672, -88.04476165771484, -174.51597595214844, 10.014056205749512, -0.4828759431838989, -0.25926604866981506, 1.9251272678375244, -3.135617256164551, 0.6731035709381104, -0.798828125, 0.05126953125, 0.61279296875, 0, 
245, 1900837457, -101.63606262207031, -88.04476165771484, -174.555908203125, 9.636369705200195, -0.24791011214256287, -0.16112028062343597, 1.93562912940979, -3.0626938343048096, 0.6144982576370239, -0.8056640625, 0.0537109375, 0.60693359375, 0, 
246, 1900845790, -101.6456298828125, -88.0462646484375, -174.54598999023438, 9.468453407287598, -0.17183400690555573, 0.09220974892377853, 1.8588377237319946, -3.2411482334136963, 0.40138790011405945, -0.806640625, 0.05322265625, 0.60986328125, 0, 
247, 1900854123, -101.6800765991211, -88.04655456542969, -174.51116943359375, 9.809676170349121, -0.2334841936826706, 0.0433478057384491, 1.8682892322540283, -3.362994909286499, 0.5005148649215698, -0.802734375, 0.0517578125, 0.60986328125, 0, 
248, 1900862456, -101.74053192138672, -88.04595947265625, -174.4510955810547, 10.118505477905273, -0.4020574986934662, -0.08164262771606445, 1.738527536392212, -3.5014145374298096, 0.6214653253555298, -0.80810546875, 0.052734375, 0.6103515625, 0, 
249, 1900870789, -101.69286346435547, -88.04496002197266, -174.49911499023438, 10.183758735656738, -0.47282081842422485, -0.3392261564731598, 1.7955833673477173, -3.0461087226867676, 0.6902011632919312, -0.80029296875, 0.05322265625, 0.6123046875, 0, 
250, 1900879122, -101.61470794677734, -88.0445556640625, -174.57656860351562, 9.789304733276367, -0.38747861981391907, -0.19310171902179718, 1.9291743040084839, -2.924684762954712, 0.6919557452201843, -0.80615234375, 0.05029296875, 0.6103515625, 0, 
251, 1900887455, -101.59626007080078, -88.04496002197266, -174.59326171875, 9.43077564239502, -0.1777997463941574, 0.001641067792661488, 1.843084692955017, -3.141995429992676, 0.5427014827728271, -0.80126953125, 0.04931640625, 0.6142578125, 0, 
252, 1900895788, -101.63915252685547, -88.04496002197266, -174.55111694335938, 9.626762390136719, -0.26786884665489197, 0.12636442482471466, 1.7209817171096802, -3.4095358848571777, 0.547209620475769, -0.8046875, 0.0517578125, 0.611328125, 0, 
253, 1900904121, -101.69058227539062, -88.04496002197266, -174.5021514892578, 9.965195655822754, -0.35698238015174866, -0.053483374416828156, 1.7841720581054688, -3.443269729614258, 0.5536900162696838, -0.80517578125, 0.05224609375, 0.61376953125, 0, 
254, 1900912454, -101.65548706054688, -88.04505920410156, -174.53819274902344, 10.259757995605469, -0.40040871500968933, -0.2944744825363159, 1.726668357849121, -3.0798041820526123, 0.570185661315918, -0.80419921875, 0.05224609375, 0.611328125, 0, 
255, 1900920787, -101.61830139160156, -88.0445556640625, -174.572265625, 9.934377670288086, -0.4399724006652832, -0.20234817266464233, 1.8735915422439575, -3.083134174346924, 0.648052990436554, -0.806640625, 0.052734375, 0.61572265625, 0, 
256, 1900929120, -101.58655548095703, -88.04496002197266, -174.60333251953125, 9.600312232971191, -0.20203019678592682, -0.0654788687825203, 1.8894463777542114, -3.0993218421936035, 0.5731568336486816, -0.802734375, 0.0517578125, 0.61474609375, 0, 
257, 1900937453, -101.61748504638672, -88.04476165771484, -174.57321166992188, 9.498658180236816, -0.1322171986103058, 0.11602071672677994, 1.7610169649124146, -3.354414701461792, 0.5567893981933594, -0.80419921875, 0.05322265625, 0.61328125, 0, 
258, 1900945786, -101.65432739257812, -88.04415893554688, -174.53700256347656, 9.818068504333496, -0.31361865997314453, -0.034665245562791824, 1.7610679864883423, -3.392681837081909, 0.5911893248558044, -0.80615234375, 0.05322265625, 0.61572265625, 0, 
259, 1900954119, -101.67327117919922, -88.04395294189453, -174.51962280273438, 10.23332405090332, -0.5254895091056824, -0.1785850077867508, 1.7491317987442017, -3.31166410446167, 0.5976440906524658, -0.80517578125, 0.05224609375, 0.6162109375, 0, 
260, 1900962452, -101.63948059082031, -88.04335021972656, -174.55311584472656, 10.043778419494629, -0.46688708662986755, -0.275604784488678, 1.856148362159729, -3.113435745239258, 0.6929802894592285, -0.80517578125, 0.05322265625, 0.61279296875, 0, 
261, 1900970785, -101.60554504394531, -88.04275512695312, -174.58741760253906, 9.725147247314453, -0.3610003888607025, -0.13107003271579742, 1.8936219215393066, -3.0994760990142822, 0.6405479311943054, -0.8017578125, 0.0498046875, 0.6171875, 0, 
262, 1900979118, -101.59563446044922, -88.04375457763672, -174.59666442871094, 9.482455253601074, -0.20244647562503815, 0.12294335663318634, 1.8943647146224976, -3.1752943992614746, 0.484454870223999, -0.8037109375, 0.0517578125, 0.61279296875, 0, 
263, 1900987451, -101.61214447021484, -88.04405212402344, -174.58010864257812, 9.773472785949707, -0.13478389382362366, 0.09157174825668335, 1.7219552993774414, -3.2900969982147217, 0.5365797877311707, -0.8046875, 0.05078125, 0.6162109375, 0, 
264, 1900995784, -101.64631652832031, -88.0435562133789, -174.5469207763672, 10.06729793548584, -0.39113202691078186, -0.10430310666561127, 1.6925756931304932, -3.381847381591797, 0.6102719306945801, -0.8037109375, 0.05078125, 0.61328125, 0, 
265, 1901004117, -101.59858703613281, -88.04315185546875, -174.59854125976562, 10.149380683898926, -0.5114249587059021, -0.29574260115623474, 1.9314539432525635, -3.0370025634765625, 0.6269211173057556, -0.806640625, 0.05224609375, 0.6162109375, 0, 
266, 1901012450, -101.5526351928711, -88.04165649414062, -174.64305114746094, 9.767898559570312, -0.34643492102622986, -0.13525822758674622, 2.0371382236480713, -3.077806234359741, 0.7502792477607727, -0.80224609375, 0.05224609375, 0.61474609375, 0, 
267, 1901020783, -101.53862762451172, -88.04205322265625, -174.65879821777344, 9.539856910705566, -0.15475758910179138, -0.032899223268032074, 1.8750768899917603, -3.1760623455047607, 0.5910356044769287, -0.80615234375, 0.05419921875, 0.6162109375, 0, 
268, 1901029116, -101.59435272216797, -88.04155731201172, -174.60365295410156, 9.700323104858398, -0.23904886841773987, 0.10327494144439697, 1.7293065786361694, -3.4716763496398926, 0.5826085805892944, -0.8017578125, 0.052734375, 0.61572265625, 0, 
269, 1901037449, -101.64759063720703, -88.04155731201172, -174.54258728027344, 9.913671493530273, -0.3294403851032257, -0.01576973684132099, 1.8111439943313599, -3.4410674571990967, 0.5051511526107788, -0.80322265625, 0.05126953125, 0.61328125, 0, 
270, 1901045782, -101.61219787597656, -88.04075622558594, -174.5786895751953, 10.262216567993164, -0.47108155488967896, -0.24481570720672607, 1.7399108409881592, -3.1045989990234375, 0.7008182406425476, -0.802734375, 0.05126953125, 0.61865234375, 0, 
271, 1901054115, -101.59288787841797, -88.04015350341797, -174.60519409179688, 9.994032859802246, -0.5434383153915405, -0.22696909308433533, 1.9035346508026123, -3.156646728515625, 0.6171621084213257, -0.80322265625, 0.05029296875, 0.615234375, 0, 
272, 1901062448, -101.54379272460938, -88.04075622558594, -174.65280151367188, 9.59005355834961, -0.24387091398239136, -0.17976278066635132, 1.9559155702590942, -3.028524398803711, 0.5728495121002197, -0.806640625, 0.0517578125, 0.6171875, 0, 
273, 1901070781, -101.5477294921875, -88.04095458984375, -174.64854431152344, 9.443007469177246, -0.1615915298461914, 0.121452197432518, 1.796697735786438, -3.2390735149383545, 0.5581981539726257, -0.80126953125, 0.0517578125, 0.6171875, 0, 
274, 1901079114, -101.59504699707031, -88.04105377197266, -174.60235595703125, 9.783881187438965, -0.22539480030536652, -0.011420116759836674, 1.6720844507217407, -3.419013738632202, 0.508429765701294, -0.80615234375, 0.0546875, 0.6123046875, 0, 
275, 1901087447, -101.64691162109375, -88.03995513916016, -174.5413360595703, 10.190166473388672, -0.4188878536224365, -0.1401648372411728, 1.8463892936706543, -3.4682440757751465, 0.6488725543022156, -0.80322265625, 0.05322265625, 0.6181640625, 0, 
276, 1901095780, -101.63675689697266, -88.0390625, -174.55111694335938, 10.072760581970215, -0.43462279438972473, -0.2498079538345337, 1.8756403923034668, -3.207695722579956, 0.6546869874000549, -0.8056640625, 0.0498046875, 0.615234375, 0, 
277, 1901104113, -101.5990982055664, -88.03816223144531, -174.58248901367188, 9.793805122375488, -0.30983975529670715, -0.17420384287834167, 1.7964415550231934, -3.0985796451568604, 0.730146586894989, -0.80419921875, 0.05224609375, 0.61669921875, 0, 
278, 1901112446, -101.57574462890625, -88.03965759277344, -174.6056671142578, 9.473885536193848, -0.18677207827568054, 0.032944343984127045, 1.8276652097702026, -3.1023190021514893, 0.4251578450202942, -0.80224609375, 0.05078125, 0.615234375, 0, 
279, 1901120779, -101.61309051513672, -88.04035949707031, -174.57476806640625, 9.647636413574219, -0.2569420635700226, 0.10308585315942764, 1.7533071041107178, -3.3729336261749268, 0.5031532049179077, -0.8037109375, 0.0517578125, 0.615234375, 0, 
280, 1901129112, -101.67613983154297, -88.03995513916016, -174.51202392578125, 9.953811645507812, -0.4297323524951935, -0.05607493221759796, 1.789013385772705, -3.5005435943603516, 0.5573017001152039, -0.8017578125, 0.052734375, 0.6162109375, 0, 
281, 1901137445, -101.6476821899414, -88.04015350341797, -174.5366668701172, 10.18907642364502, -0.517641007900238, -0.295896053314209, 1.7652435302734375, -3.099527597427368, 0.5572249293327332, -0.80419921875, 0.05126953125, 0.61328125, 0, 
282, 1901145778, -101.60711669921875, -88.03955841064453, -174.57586669921875, 9.906708717346191, -0.4443383812904358, -0.18057005107402802, 1.9694910049438477, -3.0848755836486816, 0.6784313321113586, -0.80517578125, 0.0498046875, 0.61767578125, 0, 
283, 1901154111, -101.56948852539062, -88.04095458984375, -174.61099243164062, 9.596352577209473, -0.18654698133468628, -0.023229865357279778, 1.9440308809280396, -3.0448153018951416, 0.44239628314971924, -0.802734375, 0.04931640625, 0.61376953125, 0, 
284, 1901162444, -101.59658813476562, -88.0402603149414, -174.5842742919922, 9.61032772064209, -0.08821025490760803, 0.15742942690849304, 1.7600950002670288, -3.3592042922973633, 0.630660891532898, -0.80712890625, 0.05322265625, 0.61474609375, 0, 
285, 1901170777, -101.64419555664062, -88.04055786132812, -174.53468322753906, 9.833589553833008, -0.25124356150627136, -0.05509096756577492, 1.7486450672149658, -3.4139928817749023, 0.4860428273677826, -0.8017578125, 0.05029296875, 0.61962890625, 0, 
286, 1901179110, -101.65567016601562, -88.0402603149414, -174.5237579345703, 10.231396675109863, -0.5801020264625549, -0.17910833656787872, 1.7681632041931152, -3.2860755920410156, 0.6018192172050476, -0.8056640625, 0.0517578125, 0.61328125, 0, 
287, 1901187443, -101.6374740600586, -88.04075622558594, -174.54058837890625, 9.988096237182617, -0.47063228487968445, -0.2529743015766144, 1.8610917329788208, -3.1483988761901855, 0.5566868782043457, -0.80322265625, 0.05224609375, 0.619140625, 0, 
288, 1901195776, -101.60114288330078, -88.04055786132812, -174.57632446289062, 9.718144416809082, -0.20842145383358002, -0.1575656235218048, 1.8878328800201416, -3.091381549835205, 0.6279969215393066, -0.80322265625, 0.05078125, 0.6181640625, 0, 
289, 1901204109, -101.61927032470703, -88.0402603149414, -174.55514526367188, 9.51014518737793, -0.24320103228092194, 0.11202104389667511, 1.7906525135040283, -3.308487892150879, 0.585477352142334, -0.80322265625, 0.05224609375, 0.62646484375, 0, 
290, 1901212442, -101.64095306396484, -88.04155731201172, -174.53375244140625, 9.774269104003906, -0.19793707132339478, 0.05808021128177643, 1.8002322912216187, -3.2907888889312744, 0.40438470244407654, -0.7978515625, 0.05224609375, 0.626953125, 0, 
291, 1901220775, -101.7084732055664, -88.04035949707031, -174.46682739257812, 10.108400344848633, -0.3549766540527344, -0.0875619575381279, 1.748594045639038, -3.5276691913604736, 0.6385244727134705, -0.8037109375, 0.05078125, 0.62744140625, 0, 
292, 1901229108, -101.67268371582031, -88.03955841064453, -174.50286865234375, 10.147100448608398, -0.5221145749092102, -0.31231945753097534, 1.8079677820205688, -3.1022675037384033, 0.6926472783088684, -0.798828125, 0.05126953125, 0.6279296875, 0, 
293, 1901237441, -101.5948257446289, -88.03955841064453, -174.57974243164062, 9.836607933044434, -0.3912355899810791, -0.19786323606967926, 1.9445433616638184, -2.9109811782836914, 0.6408554315567017, -0.802734375, 0.04833984375, 0.62548828125, 0, 
294, 1901245774, -101.59386444091797, -88.04075622558594, -174.57968139648438, 9.431774139404297, -0.1344241350889206, 0.041782282292842865, 1.914625883102417, -3.204853057861328, 0.4363768994808197, -0.80078125, 0.05224609375, 0.6279296875, 0, 
295, 1901254107, -101.650390625, -88.03955841064453, -174.52389526367188, 9.652493476867676, -0.2531757354736328, 0.07960210740566254, 1.774848461151123, -3.4779515266418457, 0.6193392276763916, -0.79931640625, 0.05078125, 0.62890625, 0, 
296, 1901262440, -101.73705291748047, -88.03926086425781, -174.43743896484375, 9.927130699157715, -0.42646151781082153, -0.044369153678417206, 1.7862470149993896, -3.596315383911133, 0.5334036350250244, -0.80224609375, 0.052734375, 0.626953125, 0, 
297, 1901270773, -101.70258331298828, -88.03936004638672, -174.47206115722656, 10.242749214172363, -0.4532870650291443, -0.24309495091438293, 1.773773193359375, -3.092611789703369, 0.6348873376846313, -0.79833984375, 0.05126953125, 0.6298828125, 0, 
298, 1901279106, -101.67500305175781, -88.03876495361328, -174.4992218017578, 10.006736755371094, -0.4190995991230011, -0.1766132265329361, 1.8854764699935913, -3.127882480621338, 0.6393440961837769, -0.8017578125, 0.05126953125, 0.6279296875, 0, 
299, 1901287439, -101.62579345703125, -88.03876495361328, -174.54800415039062, 9.630239486694336, -0.15630760788917542, -0.1471327394247055, 1.8800464868545532, -3.027372360229492, 0.6174439787864685, -0.80029296875, 0.05078125, 0.62939453125, 0, 
300, 1901295772, -101.66551208496094, -88.03936004638672, -174.50904846191406, 9.459420204162598, -0.13988402485847473, 0.17135681211948395, 1.7206233739852905, -3.3799774646759033, 0.46573081612586975, -0.80078125, 0.0498046875, 0.62451171875, 0, 
301, 1901304105, -101.72044372558594, -88.03936004638672, -174.4551544189453, 9.747204780578613, -0.311774879693985, -0.020817676559090614, 1.7111717462539673, -3.4449093341827393, 0.5049461126327515, -0.80029296875, 0.05322265625, 0.62744140625, 0, 
302, 1901312438, -101.7382583618164, -88.0389633178711, -174.4369354248047, 10.218785285949707, -0.54466313123703, -0.19754163920879364, 1.8665474653244019, -3.3190152645111084, 0.6114501357078552, -0.7978515625, 0.0498046875, 0.6259765625, 0, 
303, 1901320771, -101.70608520507812, -88.03865814208984, -174.46836853027344, 10.037030220031738, -0.4538942277431488, -0.2735714912414551, 1.9238463640213013, -3.1052134037017822, 0.6345029473304749, -0.80419921875, 0.05029296875, 0.62890625, 0, 
304, 1901329104, -101.6538314819336, -88.03755950927734, -174.51951599121094, 9.742890357971191, -0.290874183177948, -0.1487002819776535, 1.9627801179885864, -3.0453789234161377, 0.7346802949905396, -0.80029296875, 0.05224609375, 0.63037109375, 0, 
305, 1901337437, -101.66788482666016, -88.03945922851562, -174.5048828125, 9.50989055633545, -0.20645533502101898, 0.12414758652448654, 1.8977200984954834, -3.244170665740967, 0.3415786325931549, -0.80126953125, 0.052734375, 0.626953125, 0, 
306, 1901345770, -101.68999481201172, -88.04035949707031, -174.48361206054688, 9.756989479064941, -0.19250169396400452, 0.077938511967659, 1.7040510177612305, -3.298421859741211, 0.4588918089866638, -0.7998046875, 0.0517578125, 0.6298828125, 0, 
307, 1901354103, -101.76950073242188, -88.03965759277344, -174.40504455566406, 10.067168235778809, -0.44756191968917847, -0.08980870991945267, 1.700400948524475, -3.562593936920166, 0.5567509531974792, -0.7978515625, 0.052734375, 0.62939453125, 0, 
308, 1901362436, -101.70597076416016, -88.03975677490234, -174.46878051757812, 10.143393516540527, -0.5100902318954468, -0.3161802291870117, 1.7975431680679321, -2.973403215408325, 0.6414445042610168, -0.80224609375, 0.0517578125, 0.62890625, 0, 
309, 1901370769, -101.64634704589844, -88.03945922851562, -174.52603149414062, 9.81615161895752, -0.3697323203086853, -0.17887531220912933, 2.0547866821289062, -3.007725715637207, 0.7005364894866943, -0.798828125, 0.05029296875, 0.626953125, 0, 
310, 1901379102, -101.61785125732422, -88.03936004638672, -174.55435180664062, 9.474873542785645, -0.1455138772726059, 0.009543826803565025, 1.8711071014404297, -3.1181488037109375, 0.6092217564582825, -0.80224609375, 0.05078125, 0.62744140625, 0, 
311, 1901387435, -101.6660385131836, -88.0389633178711, -174.5071563720703, 9.653844833374023, -0.22679007053375244, 0.12357020378112793, 1.717984914779663, -3.4217281341552734, 0.5390130877494812, -0.79931640625, 0.05322265625, 0.62890625, 0, 
312, 1901395768, -101.74420928955078, -88.0389633178711, -174.4294891357422, 9.92536449432373, -0.33633846044540405, -0.03480721265077591, 1.7755658626556396, -3.551157236099243, 0.4882969558238983, -0.798828125, 0.05078125, 0.6240234375, 0, 
313, 1901404101, -101.70931243896484, -88.03975677490234, -174.46470642089844, 10.29029655456543, -0.46508434414863586, -0.2583516240119934, 1.732764720916748, -3.072760820388794, 0.5607084035873413, -0.8037109375, 0.05029296875, 0.6298828125, 0, 
314, 1901412434, -101.69126892089844, -88.03836059570312, -174.48143005371094, 9.971991539001465, -0.4941297173500061, -0.2079804688692093, 1.9707719087600708, -3.2004473209381104, 0.7618313431739807, -0.80078125, 0.0498046875, 0.62744140625, 0, 
315, 1901420767, -101.66497039794922, -88.03876495361328, -174.50643920898438, 9.556266784667969, -0.24370521306991577, -0.1298317164182663, 2.003148317337036, -3.1080055236816406, 0.5215954780578613, -0.8017578125, 0.05078125, 0.62451171875, 0, 
316, 1901429100, -101.7137451171875, -88.0391616821289, -174.4567413330078, 9.43603801727295, -0.18886658549308777, 0.18622837960720062, 1.906889796257019, -3.4332289695739746, 0.49636536836624146, -0.80029296875, 0.0517578125, 0.62646484375, 0, 
317, 1901437433, -101.76783752441406, -88.03926086425781, -174.403076171875, 9.830273628234863, -0.32227906584739685, -0.006715497002005577, 1.7816877365112305, -3.4391462802886963, 0.48686257004737854, -0.802734375, 0.05078125, 0.6259765625, 0, 
318, 1901445766, -101.79125213623047, -88.0390625, -174.37977600097656, 10.25655460357666, -0.4208217263221741, -0.1525682955980301, 1.7997713088989258, -3.3372528553009033, 0.5898573994636536, -0.8017578125, 0.048828125, 0.62841796875, 0, 
319, 1901454099, -101.78350830078125, -88.0389633178711, -174.38743591308594, 10.082220077514648, -0.4113684296607971, -0.26099199056625366, 1.8332234621047974, -3.197143316268921, 0.5939044952392578, -0.796875, 0.05224609375, 0.625, 0, 
320, 1901462432, -101.7224349975586, -88.0379638671875, -174.44699096679688, 9.7368745803833, -0.29935649037361145, -0.15662020444869995, 2.0342440605163574, -3.0043957233428955, 0.7070168852806091, -0.80224609375, 0.05126953125, 0.62451171875, 0, 
321, 1901470765, -101.73564910888672, -88.0379638671875, -174.4338836669922, 9.415099143981934, -0.1800229400396347, 0.053344015032052994, 1.8198529481887817, -3.281080961227417, 0.5529984831809998, -0.80078125, 0.05029296875, 0.62841796875, 0, 
322, 1901479098, -101.7632827758789, -88.03816223144531, -174.4073944091797, 9.660351753234863, -0.20922386646270752, 0.13532669842243195, 1.6900399923324585, -3.338764190673828, 0.5349916815757751, -0.8046875, 0.05126953125, 0.625, 0, 
323, 1901487431, -101.82708740234375, -88.03755950927734, -174.34434509277344, 10.057080268859863, -0.4321950376033783, -0.0669160783290863, 1.7110179662704468, -3.498699426651001, 0.5700319409370422, -0.80126953125, 0.05322265625, 0.62890625, 0, 
324, 1901495764, -101.80531311035156, -88.03876495361328, -174.36520385742188, 10.194927215576172, -0.49082738161087036, -0.3603399693965912, 1.8626800775527954, -3.1332614421844482, 0.5242336988449097, -0.7978515625, 0.048828125, 0.625, 0, 
325, 1901504097, -101.76961517333984, -88.03876495361328, -174.40066528320312, 9.839469909667969, -0.4209166467189789, -0.199940025806427, 1.8735401630401611, -3.0785231590270996, 0.5894730687141418, -0.80224609375, 0.05126953125, 0.62890625, 0, 
326, 1901512430, -101.7304916381836, -88.03936004638672, -174.4390411376953, 9.530774116516113, -0.21257859468460083, 0.018175924196839333, 1.9094769954681396, -3.059440851211548, 0.5324302315711975, -0.79833984375, 0.05224609375, 0.626953125, 0, 
327, 1901520763, -101.75895690917969, -88.04015350341797, -174.4104766845703, 9.63960075378418, -0.1355729103088379, 0.17549261450767517, 1.7914724349975586, -3.332693576812744, 0.49618613719940186, -0.80126953125, 0.052734375, 0.62451171875, 0, 
328, 1901529096, -101.81092834472656, -88.03955841064453, -174.3600616455078, 9.87320613861084, -0.2606630027294159, -0.055829208344221115, 1.658585786819458, -3.449392080307007, 0.5636284351348877, -0.79931640625, 0.05029296875, 0.626953125, 0, 
329, 1901537429, -101.79995727539062, -88.03995513916016, -174.37158203125, 10.230337142944336, -0.5133742094039917, -0.26176443696022034, 1.7865030765533447, -3.1625640392303467, 0.5054329037666321, -0.802734375, 0.05126953125, 0.62548828125, 0, 
330, 1901545762, -101.76377868652344, -88.03995513916016, -174.40748596191406, 9.913139343261719, -0.4555796980857849, -0.2164018601179123, 1.8637808561325073, -3.0865657329559326, 0.6088630557060242, -0.80078125, 0.0537109375, 0.63037109375, 0, 
331, 1901554095, -101.72327423095703, -88.03955841064453, -174.4468536376953, 9.632568359375, -0.19212470948696136, -0.15796054899692535, 1.9730772972106934, -3.0736567974090576, 0.6395745873451233, -0.79931640625, 0.05126953125, 0.6279296875, 0, 
332, 1901562428, -101.73176574707031, -88.03975677490234, -174.43841552734375, 9.534550666809082, -0.21858856081962585, 0.17549926042556763, 1.8033827543258667, -3.2645082473754883, 0.5597350001335144, -0.8046875, 0.05126953125, 0.62939453125, 0, 
333, 1901570761, -101.74122619628906, -88.04035949707031, -174.4304656982422, 9.816909790039062, -0.26033860445022583, 0.02846783958375454, 1.6421669721603394, -3.2473981380462646, 0.5028970837593079, -0.80029296875, 0.05126953125, 0.62939453125, 0, 
334, 1901579094, -101.79173278808594, -88.04055786132812, -174.3813018798828, 10.169181823730469, -0.3973136246204376, -0.07097321003675461, 1.6365060806274414, -3.4295666217803955, 0.5034348964691162, -0.8017578125, 0.05029296875, 0.6259765625, 0, 
335, 1901587427, -101.74018096923828, -88.04055786132812, -174.4326934814453, 10.132586479187012, -0.5319669246673584, -0.27417564392089844, 1.845492959022522, -3.0162813663482666, 0.6204921007156372, -0.80126953125, 0.05224609375, 0.62841796875, 0, 
336, 1901595760, -101.66230010986328, -88.04035949707031, -174.50929260253906, 9.76148796081543, -0.40378543734550476, -0.21332581341266632, 2.0018422603607178, -2.9195873737335205, 0.6525354981422424, -0.80078125, 0.05078125, 0.62548828125, 0, 
337, 1901604093, -101.65034484863281, -88.04155731201172, -174.51991271972656, 9.406220436096191, -0.12566320598125458, 0.07261600345373154, 1.9598346948623657, -3.1556477546691895, 0.4474678635597229, -0.802734375, 0.05419921875, 0.62939453125, 0, 
338, 1901612426, -101.683837890625, -88.0413589477539, -174.4874267578125, 9.68130874633789, -0.20992274582386017, 0.05958568677306175, 1.716140866279602, -3.3687584400177, 0.5563027262687683, -0.798828125, 0.05322265625, 0.62744140625, 0, 
339, 1901620759, -101.7555923461914, -88.04175567626953, -174.4149169921875, 10.027962684631348, -0.3875734508037567, -0.08499497175216675, 1.8498984575271606, -3.5254664421081543, 0.503921627998352, -0.802734375, 0.0537109375, 0.62646484375, 0, 
340, 1901629092, -101.71642303466797, -88.04196166992188, -174.45448303222656, 10.196036338806152, -0.4209143817424774, -0.2842637002468109, 1.8105548620224, -3.0589287281036377, 0.5560722351074219, -0.80078125, 0.0517578125, 0.6171875, 0, 
341, 1901637425, -101.68187713623047, -88.0413589477539, -174.4877471923828, 9.906798362731934, -0.39728984236717224, -0.16726824641227722, 1.9607055187225342, -3.1097986698150635, 0.6938255429267883, -0.8046875, 0.0498046875, 0.60498046875, 0, 
342, 1901645758, -101.6566162109375, -88.04155731201172, -174.51199340820312, 9.580314636230469, -0.19003111124038696, -0.0977703407406807, 1.9523297548294067, -3.127139091491699, 0.5656775236129761, -0.80712890625, 0.05322265625, 0.60986328125, 0, 
343, 1901654091, -101.69226837158203, -88.04216003417969, -174.47654724121094, 9.542501449584961, -0.20714834332466125, 0.13206064701080322, 1.791216254234314, -3.3574626445770264, 0.4667297899723053, -0.8037109375, 0.05029296875, 0.60546875, 0, 
344, 1901662424, -101.75590515136719, -88.0423583984375, -174.4136962890625, 9.824703216552734, -0.329424649477005, -0.025784451514482498, 1.7107875347137451, -3.4867119789123535, 0.49636536836624146, -0.81005859375, 0.05322265625, 0.60986328125, 0, 
345, 1901670757, -101.74031829833984, -88.0423583984375, -174.43043518066406, 10.245194435119629, -0.5228708386421204, -0.23303109407424927, 1.6946632862091064, -3.155353307723999, 0.5740405917167664, -0.802734375, 0.05224609375, 0.61083984375, 0, 
346, 1901679090, -101.72420501708984, -88.04275512695312, -174.4457550048828, 10.001185417175293, -0.47433024644851685, -0.21580970287322998, 1.9161109924316406, -3.161257266998291, 0.5373225212097168, -0.806640625, 0.0517578125, 0.60888671875, 0, 
347, 1901687423, -101.68907928466797, -88.04375457763672, -174.4794464111328, 9.677287101745605, -0.27675357460975647, -0.11813927441835403, 1.9834508895874023, -3.0690972805023193, 0.5086601972579956, -0.80419921875, 0.05126953125, 0.6123046875, 0, 
348, 1901695756, -101.71009063720703, -88.04335021972656, -174.45912170410156, 9.508060455322266, -0.15055420994758606, 0.13064725697040558, 1.7422930002212524, -3.3248045444488525, 0.6000775098800659, -0.8017578125, 0.05078125, 0.61181640625, 0, 
349, 1901704089, -101.72029113769531, -88.04325866699219, -174.44955444335938, 9.756193161010742, -0.14977185428142548, 0.03431015461683273, 1.6019012928009033, -3.2647130489349365, 0.5727981925010681, -0.80517578125, 0.0517578125, 0.6142578125, 0, 
350, 1901712422, -101.7638931274414, -88.04255676269531, -174.4070587158203, 10.125658988952637, -0.4466022551059723, -0.0639437884092331, 1.6708292961120605, -3.4226763248443604, 0.6142421364784241, -0.802734375, 0.0517578125, 0.61669921875, 0, 
351, 1901720755, -101.71101379394531, -88.04255676269531, -174.45751953125, 10.13357162475586, -0.5269336104393005, -0.28104954957962036, 1.7757453918457031, -3.008392095565796, 0.6198004484176636, -0.80615234375, 0.0517578125, 0.61279296875, 0, 
352, 1901729088, -101.6660385131836, -88.0413589477539, -174.5015411376953, 9.785871505737305, -0.3360888659954071, -0.22343483567237854, 1.9687227010726929, -3.0753726959228516, 0.731094241142273, -0.80224609375, 0.0537109375, 0.6162109375, 0, 
353, 1901737421, -101.65247344970703, -88.04185485839844, -174.50961303710938, 9.515901565551758, -0.20490171015262604, 0.0028956972528249025, 1.8633456230163574, -3.1576454639434814, 0.505458414554596, -0.80419921875, 0.052734375, 0.61328125, 0, 
354, 1901745754, -101.67039489746094, -88.0423583984375, -174.4912109375, 9.702080726623535, -0.2372581511735916, 0.11496533453464508, 1.8461328744888306, -3.301290512084961, 0.5270512104034424, -0.80712890625, 0.052734375, 0.61572265625, 0, 
355, 1901754087, -101.70777130126953, -88.0423583984375, -174.45135498046875, 9.942455291748047, -0.28481119871139526, -0.012327113188803196, 1.7904988527297974, -3.385868787765503, 0.5583006143569946, -0.8017578125, 0.05224609375, 0.61279296875, 0, 
356, 1901762420, -101.659912109375, -88.04155731201172, -174.4995880126953, 10.25229549407959, -0.49028605222702026, -0.31927669048309326, 1.791062593460083, -3.0482735633850098, 0.6863974928855896, -0.80615234375, 0.0537109375, 0.61328125, 0, 
357, 1901770753, -101.59518432617188, -88.04115295410156, -174.56446838378906, 9.938409805297852, -0.5094706416130066, -0.22790546715259552, 1.9297124147415161, -2.9752981662750244, 0.6798401474952698, -0.8037109375, 0.05078125, 0.61669921875, 0, 
358, 1901779086, -101.552001953125, -88.04145050048828, -174.60675048828125, 9.529330253601074, -0.14964772760868073, -0.09342731535434723, 1.933656930923462, -3.0511419773101807, 0.5744119882583618, -0.80419921875, 0.05419921875, 0.61474609375, 0, 
359, 1901787419, -101.60798645019531, -88.04095458984375, -174.55015563964844, 9.497310638427734, -0.14458082616329193, 0.10635767132043839, 1.7615034580230713, -3.4717788696289062, 0.5908307433128357, -0.802734375, 0.0517578125, 0.6162109375, 0, 
360, 1901795752, -101.64228057861328, -88.04105377197266, -174.51715087890625, 9.813020706176758, -0.3832661807537079, -0.043317556381225586, 1.6544618606567383, -3.3669142723083496, 0.5318668484687805, -0.8037109375, 0.0537109375, 0.61328125, 0, 
361, 1901804085, -101.66896057128906, -88.0402603149414, -174.4889373779297, 10.197265625, -0.4918299913406372, -0.1467650979757309, 1.8638067245483398, -3.3510587215423584, 0.6019216179847717, -0.80712890625, 0.05126953125, 0.61572265625, 0, 
362, 1901812418, -101.61412048339844, -88.04095458984375, -174.5428466796875, 10.073524475097656, -0.3992365896701813, -0.2497822344303131, 1.9242310523986816, -2.9948678016662598, 0.5490027070045471, -0.80224609375, 0.05126953125, 0.6162109375, 0, 
363, 1901820751, -101.5505599975586, -88.04115295410156, -174.6090545654297, 9.797270774841309, -0.3182418942451477, -0.1955399066209793, 1.9125255346298218, -2.9716615676879883, 0.6346567273139954, -0.80517578125, 0.05224609375, 0.61328125, 0, 
364, 1901829084, -101.54008483886719, -88.04185485839844, -174.6190643310547, 9.456315040588379, -0.15686830878257751, 0.09185801446437836, 1.86867356300354, -3.1709651947021484, 0.48757973313331604, -0.8037109375, 0.05322265625, 0.6162109375, 0, 
365, 1901837417, -101.56259155273438, -88.04165649414062, -174.5979766845703, 9.651061058044434, -0.15588612854480743, 0.06911714375019073, 1.6707779169082642, -3.3149425983428955, 0.5549195408821106, -0.8037109375, 0.05322265625, 0.611328125, 0, 
366, 1901845750, -101.60541534423828, -88.04095458984375, -174.55572509765625, 10.040799140930176, -0.44359904527664185, -0.06408491730690002, 1.751078724861145, -3.4263904094696045, 0.6245134472846985, -0.80322265625, 0.05419921875, 0.615234375, 0, 
367, 1901854083, -101.57471466064453, -88.04095458984375, -174.58547973632812, 10.152262687683105, -0.5291892290115356, -0.3318254053592682, 1.8576593399047852, -3.0990662574768066, 0.5849650502204895, -0.8017578125, 0.0498046875, 0.61328125, 0, 
368, 1901862416, -101.52930450439453, -88.04015350341797, -174.62989807128906, 9.84161376953125, -0.401203453540802, -0.19994401931762695, 1.9463489055633545, -3.0695202350616455, 0.70157390832901, -0.8056640625, 0.05224609375, 0.61376953125, 0, 
369, 1901870749, -101.48973083496094, -88.0413589477539, -174.6703338623047, 9.584405899047852, -0.19819794595241547, 0.011999966576695442, 1.8817369937896729, -3.0404868125915527, 0.4759766161441803, -0.80029296875, 0.05126953125, 0.61865234375, 0, 
370, 1901879082, -101.53374481201172, -88.04155731201172, -174.62728881835938, 9.671555519104004, -0.20105309784412384, 0.14451678097248077, 1.6983389854431152, -3.4061038494110107, 0.5142953991889954, -0.8056640625, 0.05224609375, 0.61181640625, 0, 
371, 1901887415, -101.60692596435547, -88.04165649414062, -174.54461669921875, 9.86757755279541, -0.27384376525878906, -0.06241166591644287, 1.736222505569458, -3.5215985774993896, 0.48435235023498535, -0.80224609375, 0.0517578125, 0.61962890625, 0, 
372, 1901895748, -101.58251953125, -88.04115295410156, -174.5699005126953, 10.212894439697266, -0.5004366636276245, -0.25488346815109253, 1.6992100477218628, -3.143686532974243, 0.673001229763031, -0.8046875, 0.05126953125, 0.6142578125, 0, 
373, 1901904081, -101.5619125366211, -88.0413589477539, -174.59104919433594, 9.97282600402832, -0.4546371102333069, -0.17113634943962097, 1.9191337823867798, -3.140177011489868, 0.5655238628387451, -0.802734375, 0.05224609375, 0.6162109375, 0, 
374, 1901912414, -101.52305603027344, -88.04175567626953, -174.6290283203125, 9.630441665649414, -0.199727401137352, -0.1764434576034546, 1.9331958293914795, -3.0641026496887207, 0.5460314154624939, -0.80078125, 0.0517578125, 0.6162109375, 0, 
375, 1901920747, -101.53207397460938, -88.04185485839844, -174.61688232421875, 9.508417129516602, -0.17299248278141022, 0.13403812050819397, 1.8011800050735474, -3.268606424331665, 0.5765635371208191, -0.80615234375, 0.048828125, 0.61474609375, 0, 
376, 1901929080, -101.54879760742188, -88.04295349121094, -174.60145568847656, 9.766712188720703, -0.24673978984355927, 0.056575603783130646, 1.6775400638580322, -3.264918088912964, 0.40384677052497864, -0.802734375, 0.05126953125, 0.6162109375, 0, 
377, 1901937413, -101.58656311035156, -88.04205322265625, -174.56602478027344, 10.126229286193848, -0.3874213397502899, -0.05569359287619591, 1.7809960842132568, -3.4046695232391357, 0.6563263535499573, -0.80224609375, 0.0517578125, 0.6142578125, 0, 
378, 1901945746, -101.55702209472656, -88.04115295410156, -174.59547424316406, 10.153680801391602, -0.5075761675834656, -0.27375832200050354, 1.8208518028259277, -3.1336710453033447, 0.7062227725982666, -0.802734375, 0.05224609375, 0.61669921875, 0, 
379, 1901954079, -101.5030288696289, -88.04045867919922, -174.64793395996094, 9.810138702392578, -0.4017144739627838, -0.2481359839439392, 1.959578514099121, -3.0258095264434814, 0.6994349956512451, -0.8046875, 0.0498046875, 0.6142578125, 0, 
380, 1901962412, -101.50204467773438, -88.04115295410156, -174.6488800048828, 9.412605285644531, -0.16587217152118683, 0.020427873358130455, 1.8321477174758911, -3.2081828117370605, 0.46350234746932983, -0.8056640625, 0.05322265625, 0.61572265625, 0, 
381, 1901970745, -101.56255340576172, -88.04155731201172, -174.5867919921875, 9.632824897766113, -0.25728166103363037, 0.15211926400661469, 1.611071228981018, -3.463223457336426, 0.48391687870025635, -0.80078125, 0.05029296875, 0.615234375, 0, 
382, 1901979078, -101.62750244140625, -88.04216003417969, -174.52227783203125, 9.975384712219238, -0.4123481810092926, -0.06880190223455429, 1.7564064264297485, -3.4872498512268066, 0.45830264687538147, -0.80615234375, 0.05126953125, 0.61376953125, 0, 
383, 1901987411, -101.59700775146484, -88.04315185546875, -174.54730224609375, 10.241201400756836, -0.4385603964328766, -0.3013860583305359, 1.6965718269348145, -3.074758768081665, 0.49377843737602234, -0.8017578125, 0.0517578125, 0.62109375, 0, 
384, 1901995744, -101.54110717773438, -88.04255676269531, -174.60140991210938, 9.941964149475098, -0.37735190987586975, -0.1588430553674698, 1.9954640865325928, -3.0318288803100586, 0.7188250422477722, -0.8037109375, 0.05078125, 0.6240234375, 0, 
385, 1902004077, -101.4850082397461, -88.04275512695312, -174.65020751953125, 9.590892791748047, -0.12469200044870377, -0.06846080720424652, 1.9169566631317139, -2.9944069385528564, 0.5945448279380798, -0.80322265625, 0.05126953125, 0.6279296875, 0, 
386, 1902012410, -101.50141906738281, -88.04165649414062, -174.6343231201172, 9.51689624786377, -0.15258656442165375, 0.1181386262178421, 1.7769746780395508, -3.3216538429260254, 0.6785082221031189, -0.7998046875, 0.052734375, 0.6279296875, 0, 
387, 1902020743, -101.55184173583984, -88.0422592163086, -174.5851287841797, 9.775714874267578, -0.3615577518939972, -0.035043008625507355, 1.6549997329711914, -3.4191160202026367, 0.4688045084476471, -0.8046875, 0.05029296875, 0.6259765625, 0, 
388, 1902029076, -101.5570297241211, -88.0422592163086, -174.580078125, 10.230836868286133, -0.5610731840133667, -0.22352612018585205, 1.817854881286621, -3.2485249042510986, 0.5529215335845947, -0.80126953125, 0.0498046875, 0.62939453125, 0, 
389, 1902037409, -101.5240707397461, -88.04155731201172, -174.6124725341797, 10.035947799682617, -0.4586656391620636, -0.24827124178409576, 1.9086573123931885, -3.1080055236816406, 0.6767408847808838, -0.80029296875, 0.05224609375, 0.62255859375, 0, 
390, 1902045742, -101.49295043945312, -88.04196166992188, -174.64236450195312, 9.747532844543457, -0.32207971811294556, -0.1126348078250885, 1.9295331239700317, -3.1066737174987793, 0.5818657279014587, -0.80126953125, 0.0517578125, 0.62939453125, 0, 
391, 1902054075, -101.49927520751953, -88.04196166992188, -174.63584899902344, 9.526780128479004, -0.16037224233150482, 0.15857061743736267, 1.8919569253921509, -3.244938850402832, 0.5124767422676086, -0.7998046875, 0.0517578125, 0.6259765625, 0, 
392, 1902062408, -101.53641510009766, -88.04275512695312, -174.59967041015625, 9.744806289672852, -0.13622689247131348, 0.02734272927045822, 1.6848145723342896, -3.3652236461639404, 0.4607616364955902, -0.80126953125, 0.0517578125, 0.62353515625, 0, 
393, 1902070741, -101.60195922851562, -88.04275512695312, -174.53530883789062, 10.108892440795898, -0.44973254203796387, -0.10976976156234741, 1.6793586015701294, -3.4927566051483154, 0.5251045823097229, -0.79736328125, 0.05224609375, 0.62890625, 0, 
394, 1902079074, -101.58352661132812, -88.0422592163086, -174.55271911621094, 10.100265502929688, -0.5253196954727173, -0.30032065510749817, 1.9234880208969116, -3.178086042404175, 0.6657779812812805, -0.8037109375, 0.05078125, 0.6259765625, 0, 
395, 1902087407, -101.5531997680664, -88.04196166992188, -174.5824432373047, 9.766875267028809, -0.29294553399086, -0.15237656235694885, 1.9204400777816772, -3.1060073375701904, 0.6087350845336914, -0.80029296875, 0.05126953125, 0.6298828125, 0, 
396, 1902095740, -101.5633544921875, -88.04255676269531, -174.57254028320312, 9.495071411132812, -0.13973839581012726, -0.011478692293167114, 1.7694441080093384, -3.2635092735290527, 0.5150638222694397, -0.79931640625, 0.0517578125, 0.625, 0, 
397, 1902104073, -101.62864685058594, -88.04255676269531, -174.50765991210938, 9.705817222595215, -0.28332921862602234, 0.10334998369216919, 1.7491575479507446, -3.4979310035705566, 0.5293821692466736, -0.80224609375, 0.0498046875, 0.6279296875, 0, 
398, 1902112406, -101.66722106933594, -88.04175567626953, -174.4696807861328, 9.954465866088867, -0.33770087361335754, -0.0008580103749409318, 1.780329942703247, -3.3998281955718994, 0.5916246771812439, -0.798828125, 0.0546875, 0.6279296875, 0, 
399, 1902120739, -101.61299133300781, -88.04115295410156, -174.5242462158203, 10.232895851135254, -0.42812028527259827, -0.23025962710380554, 1.7881683111190796, -3.0168192386627197, 0.6805574893951416, -0.8017578125, 0.05322265625, 0.626953125, 0, 
400, 1902129072, -101.57118225097656, -88.04035949707031, -174.5654296875, 9.946810722351074, -0.5059356689453125, -0.2583216726779938, 1.9078632593154907, -3.081033706665039, 0.7050445675849915, -0.79931640625, 0.05029296875, 0.63232421875, 0, 
401, 1902137405, -101.57105255126953, -88.0413589477539, -174.56419372558594, 9.519145011901855, -0.20870982110500336, -0.10460305958986282, 1.9450807571411133, -3.2186079025268555, 0.5028202533721924, -0.7978515625, 0.05029296875, 0.62548828125, 0, 
402, 1902145738, -101.6084213256836, -88.04075622558594, -174.52708435058594, 9.441049575805664, -0.15883669257164001, 0.1503324955701828, 1.7793824672698975, -3.3967034816741943, 0.5952107310295105, -0.80078125, 0.0517578125, 0.62841796875, 0, 
403, 1902154071, -101.67113494873047, -88.04055786132812, -174.46534729003906, 9.80517578125, -0.33288413286209106, 0.003428421914577484, 1.6937028169631958, -3.490656614303589, 0.5549708008766174, -0.80078125, 0.05078125, 0.62744140625, 0, 
404, 1902162404, -101.68659973144531, -88.04075622558594, -174.44998168945312, 10.250201225280762, -0.44124770164489746, -0.1904282420873642, 1.81703519821167, -3.2889955043792725, 0.5338903069496155, -0.79931640625, 0.0537109375, 0.62646484375, 0, 
405, 1902170737, -101.65482330322266, -88.04055786132812, -174.48086547851562, 10.083773612976074, -0.3993205428123474, -0.2520119249820709, 1.9321967363357544, -3.1054184436798096, 0.6164193153381348, -0.79736328125, 0.05029296875, 0.6279296875, 0, 
406, 1902179070, -101.64026641845703, -88.04015350341797, -174.49472045898438, 9.719820976257324, -0.2912053167819977, -0.1708296537399292, 1.9023816585540771, -3.180314064025879, 0.6154971718788147, -0.802734375, 0.05322265625, 0.62353515625, 0, 
407, 1902187403, -101.64395904541016, -88.04095458984375, -174.4913787841797, 9.422378540039062, -0.19906330108642578, 0.08384521305561066, 1.7784346342086792, -3.2263176441192627, 0.5022054314613342, -0.80078125, 0.0517578125, 0.63037109375, 0, 
408, 1902195736, -101.67699432373047, -88.04075622558594, -174.4590301513672, 9.670353889465332, -0.26239892840385437, 0.057854246348142624, 1.7319447994232178, -3.369910955429077, 0.5531009435653687, -0.7998046875, 0.05029296875, 0.626953125, 0, 
409, 1902204069, -101.74021911621094, -88.03955841064453, -174.39706420898438, 10.092803001403809, -0.4419492483139038, -0.08235688507556915, 1.6728527545928955, -3.514503240585327, 0.6658036112785339, -0.7998046875, 0.0517578125, 0.62646484375, 0, 
410, 1902212402, -101.73053741455078, -88.03885650634766, -174.4058837890625, 10.19084358215332, -0.4826274812221527, -0.30972471833229065, 1.9080681800842285, -3.210974931716919, 0.6605270504951477, -0.79833984375, 0.052734375, 0.62646484375, 0, 
411, 1902220735, -101.69729614257812, -88.03876495361328, -174.43865966796875, 9.811281204223633, -0.38385817408561707, -0.16361482441425323, 1.8927762508392334, -3.092841625213623, 0.6070700287818909, -0.8017578125, 0.05126953125, 0.625, 0, 
412, 1902229068, -101.6607894897461, -88.03936004638672, -174.47560119628906, 9.520613670349121, -0.1796325445175171, 0.05994965508580208, 1.7873231172561646, -3.066638946533203, 0.5370408892631531, -0.802734375, 0.05029296875, 0.626953125, 0, 
413, 1902237401, -101.6929702758789, -88.03975677490234, -174.44448852539062, 9.6717529296875, -0.17418941855430603, 0.15453356504440308, 1.6902958154678345, -3.3458588123321533, 0.4954688549041748, -0.80126953125, 0.0478515625, 0.626953125, 0, 
414, 1902245734, -101.73890686035156, -88.03955841064453, -174.3994903564453, 9.936286926269531, -0.3039100766181946, -0.04651550203561783, 1.6480070352554321, -3.4255709648132324, 0.5723884701728821, -0.80224609375, 0.0517578125, 0.62744140625, 0, 
415, 1902254067, -101.72354125976562, -88.03865814208984, -174.4169158935547, 10.258872985839844, -0.545425295829773, -0.25438082218170166, 1.6551278829574585, -3.166867256164551, 0.6429814100265503, -0.79931640625, 0.05224609375, 0.62646484375, 0, 
416, 1902262400, -101.66731262207031, -88.03855895996094, -174.47177124023438, 9.921939849853516, -0.4421637952327728, -0.20538146793842316, 1.9579644203186035, -3.0132837295532227, 0.6589388847351074, -0.80126953125, 0.05126953125, 0.62890625, 0, 
417, 1902270733, -101.60620880126953, -88.03826141357422, -174.5328369140625, 9.57705307006836, -0.21775977313518524, -0.12038120627403259, 1.8568401336669922, -2.981471538543701, 0.6486677527427673, -0.798828125, 0.05126953125, 0.62841796875, 0, 
418, 1902279066, -101.63291931152344, -88.0391616821289, -174.50587463378906, 9.532455444335938, -0.20238763093948364, 0.12374921143054962, 1.83132803440094, -3.324932813644409, 0.45871251821517944, -0.802734375, 0.0517578125, 0.6240234375, 0, 
419, 1902287399, -101.6740493774414, -88.04055786132812, -174.46530151367188, 9.875436782836914, -0.2687245011329651, -0.023835372179746628, 1.7632710933685303, -3.356719970703125, 0.35374540090560913, -0.80078125, 0.05224609375, 0.6279296875, 0, 
420, 1902295732, -101.69111633300781, -88.03985595703125, -174.4492950439453, 10.210661888122559, -0.41982796788215637, -0.18757697939872742, 1.666064977645874, -3.3187854290008545, 0.656684935092926, -0.798828125, 0.05029296875, 0.6279296875, 0, 
421, 1902304065, -101.5545425415039, -88.0592269897461, -174.58828735351562, 10.058453559875488, -0.5007613301277161, -0.26540234684944153, 1.9287903308868408, -2.989642381668091, 0.5889353156089783, -0.80224609375, 0.05126953125, 0.62841796875, 0, 
422, 1902312398, -101.48601531982422, -88.06033325195312, -174.65565490722656, 9.671914100646973, -0.3515886962413788, -0.1833786964416504, 1.9380886554718018, -2.935366153717041, 0.5187011361122131, -0.798828125, 0.05224609375, 0.62939453125, 0, 
423, 1902320731, -101.46248626708984, -88.06083679199219, -174.6794891357422, 9.398510932922363, -0.126016765832901, 0.044144898653030396, 1.801154613494873, -3.1205568313598633, 0.5347099900245667, -0.8017578125, 0.0498046875, 0.62646484375, 0, 
424, 1902329064, -101.48677062988281, -88.06144714355469, -174.6564178466797, 9.74237060546875, -0.2811548411846161, 0.06757330149412155, 1.6669869422912598, -3.3095123767852783, 0.47059741616249084, -0.80029296875, 0.05224609375, 0.62841796875, 0, 
425, 1902337397, -101.54765319824219, -88.06104278564453, -174.59654235839844, 10.100866317749023, -0.4580746293067932, -0.1074313074350357, 1.7209563255310059, -3.4777982234954834, 0.5476707816123962, -0.798828125, 0.0517578125, 0.62890625, 0, 
426, 1902345730, -101.49146270751953, -88.06114196777344, -174.6519012451172, 10.182085990905762, -0.4218868911266327, -0.30543795228004456, 1.92804753780365, -3.0088531970977783, 0.6278945207595825, -0.802734375, 0.0517578125, 0.62890625, 0, 
427, 1902354063, -101.42829895019531, -88.06043243408203, -174.71507263183594, 9.835509300231934, -0.37265247106552124, -0.18035151064395905, 1.8066102266311646, -2.988463878631592, 0.7175955772399902, -0.798828125, 0.05029296875, 0.6279296875, 0, 
428, 1902362396, -101.39107513427734, -88.06094360351562, -174.7514190673828, 9.52016830444336, -0.16642087697982788, 0.018683310598134995, 1.9353731870651245, -3.0717101097106934, 0.5406011939048767, -0.8017578125, 0.05126953125, 0.625, 0, 
429, 1902370729, -101.4129409790039, -88.06104278564453, -174.73033142089844, 9.578750610351562, -0.1354272961616516, 0.14403723180294037, 1.7208795547485352, -3.314455986022949, 0.5577371120452881, -0.7998046875, 0.05224609375, 0.62841796875, 0, 
430, 1902379062, -101.46570587158203, -88.06063079833984, -174.6780242919922, 9.88659954071045, -0.31373390555381775, -0.012465897016227245, 1.7723641395568848, -3.4564871788024902, 0.5742326974868774, -0.802734375, 0.0498046875, 0.6259765625, 0, 
431, 1902387395, -101.45526885986328, -88.06043243408203, -174.6888885498047, 10.269285202026367, -0.48293039202690125, -0.25734180212020874, 1.7781527042388916, -3.184284210205078, 0.5797140598297119, -0.80078125, 0.04931640625, 0.63037109375, 0, 
432, 1902395728, -101.40738677978516, -88.06013488769531, -174.7360382080078, 9.9456787109375, -0.43792256712913513, -0.24036076664924622, 1.9026508331298828, -3.0529990196228027, 0.6779319047927856, -0.80078125, 0.05029296875, 0.62744140625, 0, 
433, 1902404061, -101.37227630615234, -88.05963134765625, -174.7698516845703, 9.625861167907715, -0.2597636282444, -0.058669064193964005, 2.0183887481689453, -3.0912535190582275, 0.6114757657051086, -0.80224609375, 0.0517578125, 0.62646484375, 0, 
434, 1902412394, -101.38674926757812, -88.06033325195312, -174.7552032470703, 9.575586318969727, -0.21703225374221802, 0.1993386149406433, 1.803920865058899, -3.2811834812164307, 0.5067904591560364, -0.80126953125, 0.04931640625, 0.62646484375, 0, 
435, 1902420727, -101.40396118164062, -88.06043243408203, -174.73916625976562, 9.87862491607666, -0.20319801568984985, -0.01690257526934147, 1.6850707530975342, -3.290276288986206, 0.540088951587677, -0.80078125, 0.05126953125, 0.62744140625, 0, 
436, 1902429060, -101.41285705566406, -88.0592269897461, -174.73049926757812, 10.21229076385498, -0.45077481865882874, -0.11880037933588028, 1.819596529006958, -3.2918131351470947, 0.6810696125030518, -0.796875, 0.05078125, 0.6171875, 0, 
437, 1902437393, -101.36541748046875, -88.05912017822266, -174.77793884277344, 10.069458961486816, -0.5115084648132324, -0.27308040857315063, 1.8476186990737915, -3.0361831188201904, 0.6185197234153748, -0.8037109375, 0.05224609375, 0.60888671875, 0, 
438, 1902445726, -101.31636047363281, -88.0592269897461, -174.82565307617188, 9.661407470703125, -0.296440988779068, -0.14360617101192474, 2.0002028942108154, -3.033057928085327, 0.5910612344741821, -0.80419921875, 0.052734375, 0.6083984375, 0, 
439, 1902454059, -101.29434204101562, -88.06124114990234, -174.84718322753906, 9.448864936828613, -0.10930877923965454, 0.09492496401071548, 1.7887059450149536, -3.1097216606140137, 0.4385797083377838, -0.8056640625, 0.05029296875, 0.609375, 0, 
440, 1902462392, -101.34940338134766, -88.06002807617188, -174.7928466796875, 9.807229042053223, -0.2489805519580841, 0.1068459078669548, 1.7641161680221558, -3.4768502712249756, 0.6455938816070557, -0.80419921875, 0.05126953125, 0.60986328125, 0, 
441, 1902470725, -101.40847778320312, -88.05963134765625, -174.7342529296875, 10.075028419494629, -0.40211614966392517, -0.04360608756542206, 1.7524362802505493, -3.475851535797119, 0.5617585778236389, -0.80615234375, 0.052734375, 0.61279296875, 0, 
442, 1902479058, -101.38229370117188, -88.0592269897461, -174.76087951660156, 10.170767784118652, -0.4791429936885834, -0.32088547945022583, 1.7582504749298096, -3.1377177238464355, 0.6593486666679382, -0.80615234375, 0.052734375, 0.60888671875, 0, 
443, 1902487391, -101.33644104003906, -88.05841827392578, -174.8060302734375, 9.832721710205078, -0.495415598154068, -0.222933828830719, 1.8920080661773682, -3.063948631286621, 0.7149572372436523, -0.80419921875, 0.0517578125, 0.6142578125, 0, 
444, 1902495724, -101.32177734375, -88.0594253540039, -174.82052612304688, 9.50601577758789, -0.1791042536497116, -0.04389785975217819, 1.8709534406661987, -3.1476564407348633, 0.4485180377960205, -0.8017578125, 0.05126953125, 0.60986328125, 0, 
445, 1902504057, -101.34207153320312, -88.06002807617188, -174.8006134033203, 9.5376558303833, -0.1717083603143692, 0.19808919727802277, 1.8314303159713745, -3.303518533706665, 0.5040240287780762, -0.8056640625, 0.05224609375, 0.61083984375, 0, 
446, 1902512390, -101.38514709472656, -88.0616455078125, -174.7582550048828, 9.857306480407715, -0.35126960277557373, -0.03151709958910942, 1.7081235647201538, -3.369987726211548, 0.3608148992061615, -0.8017578125, 0.0517578125, 0.6142578125, 0, 
447, 1902520723, -101.39688110351562, -88.06124114990234, -174.7477264404297, 10.204851150512695, -0.4767853021621704, -0.283188134431839, 1.8486688137054443, -3.2783913612365723, 0.5834025144577026, -0.80712890625, 0.05126953125, 0.61279296875, 0, 
448, 1902529056, -101.38499450683594, -88.0616455078125, -174.75865173339844, 9.952679634094238, -0.41473639011383057, -0.23844528198242188, 1.9190055131912231, -3.184847831726074, 0.5578650832176208, -0.8037109375, 0.05224609375, 0.6162109375, 0, 
449, 1902537389, -101.3735580444336, -88.0617446899414, -174.76853942871094, 9.655511856079102, -0.21443870663642883, -0.09884794801473618, 1.9012292623519897, -3.177701473236084, 0.5577371120452881, -0.8046875, 0.052734375, 0.611328125, 0, 
450, 1902545722, -101.36024475097656, -88.06326293945312, -174.78213500976562, 9.479065895080566, -0.15254418551921844, 0.11576404422521591, 1.8008726835250854, -3.141432285308838, 0.40458962321281433, -0.8046875, 0.0517578125, 0.6162109375, 0, 
451, 1902554055, -101.37696075439453, -88.06366729736328, -174.7661895751953, 9.734467506408691, -0.30881309509277344, -0.002144377678632736, 1.7378615140914917, -3.2785959243774414, 0.48307159543037415, -0.8017578125, 0.05126953125, 0.61279296875, 0, 
452, 1902562388, -101.42344665527344, -88.06265258789062, -174.7194061279297, 10.12917709350586, -0.559941828250885, -0.10824742168188095, 1.8438020944595337, -3.4475221633911133, 0.6620895266532898, -0.80810546875, 0.05126953125, 0.61572265625, 0, 
453, 1902570721, -101.37762451171875, -88.06265258789062, -174.76876831054688, 10.074575424194336, -0.4742111563682556, -0.30464431643486023, 1.8536124229431152, -3.0467875003814697, 0.6237705945968628, -0.8037109375, 0.05078125, 0.61572265625, 0, 
454, 1902579054, -101.34076690673828, -88.06204986572266, -174.80393981933594, 9.766434669494629, -0.3501177728176117, -0.13875621557235718, 2.0370616912841797, -3.1008846759796143, 0.6652401089668274, -0.802734375, 0.05322265625, 0.6103515625, 0, 
455, 1902587387, -101.35606384277344, -88.06366729736328, -174.7902374267578, 9.506824493408203, -0.1529092788696289, 0.0622757151722908, 1.813551902770996, -3.254262924194336, 0.37710556387901306, -0.80419921875, 0.0537109375, 0.61767578125, 0, 
456, 1902595720, -101.38175201416016, -88.06446838378906, -174.7661895751953, 9.695960998535156, -0.1310557872056961, 0.14506371319293976, 1.6249542236328125, -3.3120486736297607, 0.462631493806839, -0.80322265625, 0.05029296875, 0.61328125, 0, 
457, 1902604053, -101.46643829345703, -88.06407165527344, -174.67909240722656, 9.94382095336914, -0.3562861680984497, -0.012508885934948921, 1.7011052370071411, -3.5792815685272217, 0.5455703735351562, -0.8046875, 0.052734375, 0.615234375, 0, 
458, 1902612386, -101.45346069335938, -88.06336212158203, -174.6929168701172, 10.182415962219238, -0.5259783864021301, -0.2999507784843445, 1.7203160524368286, -3.192532777786255, 0.6618077754974365, -0.802734375, 0.05224609375, 0.6171875, 0, 
459, 1902620719, -101.43045043945312, -88.06387329101562, -174.72042846679688, 9.845240592956543, -0.3932979702949524, -0.1850493848323822, 1.921502947807312, -3.131096839904785, 0.5495021939277649, -0.80517578125, 0.05029296875, 0.6123046875, 0, 
460, 1902629052, -101.43782806396484, -88.06387329101562, -174.71295166015625, 9.527668952941895, -0.11790242791175842, -0.04198365658521652, 1.8545985221862793, -3.2559404373168945, 0.5368742942810059, -0.8037109375, 0.05078125, 0.61767578125, 0, 
461, 1902637385, -101.51396942138672, -88.0645751953125, -174.63938903808594, 9.613044738769531, -0.2610643208026886, 0.1739935278892517, 1.7820079326629639, -3.5300254821777344, 0.46448850631713867, -0.8037109375, 0.052734375, 0.61376953125, 0, 
462, 1902645718, -101.55622863769531, -88.06599426269531, -174.59718322753906, 9.913850784301758, -0.33656221628189087, -0.04916217550635338, 1.7900121212005615, -3.3735222816467285, 0.38860633969306946, -0.80615234375, 0.0517578125, 0.6162109375, 0, 
463, 1902654051, -101.56594848632812, -88.06507873535156, -174.58856201171875, 10.23458194732666, -0.4290236234664917, -0.218169167637825, 1.790421962738037, -3.2866644859313965, 0.663318932056427, -0.802734375, 0.05078125, 0.615234375, 0, 
464, 1902662384, -101.54137420654297, -88.06497955322266, -174.61260986328125, 10.011183738708496, -0.5194029211997986, -0.2475089281797409, 1.870082139968872, -3.1423285007476807, 0.6237193942070007, -0.806640625, 0.05078125, 0.6123046875, 0, 
465, 1902670717, -101.48682403564453, -88.06488037109375, -174.6582489013672, 9.668106079101562, -0.27590277791023254, -0.16672560572624207, 2.010653495788574, -3.0073671340942383, 0.6022546291351318, -0.8017578125, 0.05078125, 0.61669921875, 0, 
466, 1902679050, -101.48805236816406, -88.06517791748047, -174.65748596191406, 9.454331398010254, -0.09603668749332428, 0.14405055344104767, 1.7688806056976318, -3.2312355041503906, 0.5431113839149475, -0.8046875, 0.0537109375, 0.60986328125, 0, 
467, 1902687383, -101.54224395751953, -88.06437683105469, -174.60047912597656, 9.760262489318848, -0.2553775906562805, -0.057286329567432404, 1.7123372554779053, -3.4631853103637695, 0.6102334856987, -0.80517578125, 0.05419921875, 0.61865234375, 0, 
468, 1902695716, -101.61199188232422, -88.06295776367188, -174.53079223632812, 10.152059555053711, -0.4626482129096985, -0.15627604722976685, 1.8261796236038208, -3.544830560684204, 0.6491286754608154, -0.8037109375, 0.05029296875, 0.611328125, 0, 
469, 1902704049, -101.58744812011719, -88.06104278564453, -174.55255126953125, 10.15351390838623, -0.3901076316833496, -0.28359541296958923, 1.912832498550415, -3.17547345161438, 0.8111387491226196, -0.80615234375, 0.05322265625, 0.6162109375, 0, 
470, 1902712382, -101.55296325683594, -88.06022644042969, -174.5862579345703, 9.87090015411377, -0.3059067726135254, -0.21194535493850708, 1.917186975479126, -3.1161766052246094, 0.70986008644104, -0.80029296875, 0.05126953125, 0.61572265625, 0, 
471, 1902720715, -101.5257568359375, -88.06013488769531, -174.615478515625, 9.554059982299805, -0.19127096235752106, -0.038591835647821426, 1.8999998569488525, -3.128061532974243, 0.6290727853775024, -0.80517578125, 0.0517578125, 0.61328125, 0, 
472, 1902729048, -101.55651092529297, -88.05931854248047, -174.58514404296875, 9.623101234436035, -0.23178479075431824, 0.12664641439914703, 1.7801252603530884, -3.3703207969665527, 0.6146007776260376, -0.8037109375, 0.0517578125, 0.619140625, 0, 
473, 1902737381, -101.62176513671875, -88.05882263183594, -174.52281188964844, 9.922171592712402, -0.4359757900238037, -0.06622538715600967, 1.661300778388977, -3.4978537559509277, 0.5585567951202393, -0.80419921875, 0.0517578125, 0.61328125, 0, 
474, 1902745714, -101.58377838134766, -88.05882263183594, -174.56114196777344, 10.266101837158203, -0.5509121417999268, -0.365983247756958, 1.7294604778289795, -3.0852606296539307, 0.6534064412117004, -0.80615234375, 0.05224609375, 0.615234375, 0, 
475, 1902754047, -101.55167388916016, -88.05841827392578, -174.59132385253906, 9.959100723266602, -0.3736175000667572, -0.20287589728832245, 2.0543768405914307, -3.11197566986084, 0.6386013031005859, -0.8017578125, 0.0517578125, 0.6162109375, 0, 
476, 1902762380, -101.5513687133789, -88.05811309814453, -174.59130859375, 9.613316535949707, -0.13116256892681122, -0.03910881653428078, 1.8827871084213257, -3.241199493408203, 0.6044062376022339, -0.8046875, 0.052734375, 0.61474609375, 0, 
477, 1902770713, -101.58343505859375, -88.05741119384766, -174.5601348876953, 9.593304634094238, -0.1613193154335022, 0.1991470903158188, 1.6808444261550903, -3.363917350769043, 0.5991809964179993, -0.80322265625, 0.048828125, 0.6162109375, 0, 
478, 1902779046, -101.62906646728516, -88.0576171875, -174.5150146484375, 9.832849502563477, -0.3229028880596161, -0.06875331699848175, 1.7107362747192383, -3.419602870941162, 0.5470815896987915, -0.80615234375, 0.05126953125, 0.6142578125, 0, 
479, 1902787379, -101.62779235839844, -88.05559539794922, -174.51467895507812, 10.219902038574219, -0.5261242389678955, -0.16427089273929596, 1.8130394220352173, -3.2609221935272217, 0.7597821354866028, -0.80322265625, 0.0517578125, 0.619140625, 0, 
480, 1902795712, -101.57146453857422, -88.05499267578125, -174.57083129882812, 10.077095985412598, -0.46599215269088745, -0.22927364706993103, 1.8096071481704712, -3.023555278778076, 0.7184152007102966, -0.8037109375, 0.0498046875, 0.61572265625, 0, 
481, 1902804045, -101.56649017333984, -88.05499267578125, -174.57217407226562, 9.706238746643066, -0.27427881956100464, -0.19372767210006714, 1.8828381299972534, -3.2107696533203125, 0.5876544713973999, -0.80419921875, 0.04931640625, 0.62353515625, 0, 
482, 1902812378, -101.58961486816406, -88.05619812011719, -174.54855346679688, 9.454102516174316, -0.25302594900131226, 0.09565704315900803, 1.8953380584716797, -3.2984986305236816, 0.3989288806915283, -0.7998046875, 0.0498046875, 0.6279296875, 0, 
483, 1902820711, -101.62116241455078, -88.05730438232422, -174.51846313476562, 9.746759414672852, -0.2628892958164215, 0.07406650483608246, 1.6686773300170898, -3.3175809383392334, 0.3890673518180847, -0.80029296875, 0.05224609375, 0.62548828125, 0, 
484, 1902829044, -101.65885162353516, -88.05811309814453, -174.4815216064453, 10.082137107849121, -0.3651203513145447, -0.10203669965267181, 1.6799992322921753, -3.3753669261932373, 0.4957762658596039, -0.80078125, 0.05322265625, 0.6279296875, 0, 
